TimeLabel,MEAS1_PPG1,MEAS1_PPG2,MEAS1_PPG3,MEAS1_PPG4,ACCX,ACCY,ACCZ,HR_timestamp,HR_value,radar_timestamp,phase_rx0,phase_rx1,phase_rx2,timestep,n_process,original_rate,calculated_rate
2025-08-05 16:36:45,8482.0,1411.0,6745.0,1147.0,1905.0,2415.0,2468.0,2025-08-05 16:37:02,78.0,2025/08/05 04:36:45 PM,0.0929224603205954,-0.309822005724385,1.22526543526071,2025/08/05 04:36:45 PM,-2.217258206461521,16.78321647644043,20.10577152615825
,8478.0,1413.0,6744.0,1144.0,1902.0,2428.0,2464.0,2025-08-05 16:37:03,78.0,,0.0929240585085671,-0.309727676894267,1.22593940903792,2025/08/05 04:36:55 PM,-2.7313210390355405,17.8438663482666,15.32526969597908
,8476.0,1410.0,6743.0,1148.0,1903.0,2438.0,2471.0,2025-08-05 16:37:04,78.0,,0.0929263847249514,-0.309678805829592,1.22633577693228,2025/08/05 04:37:05 PM,-3.1351495362422903,17.764619827270508,17.612310747083644
,8478.0,1413.0,6743.0,1146.0,1898.0,2443.0,2470.0,2025-08-05 16:37:05,78.0,,0.0929334588410168,-0.309506283825837,1.22649950063601,2025/08/05 04:37:15 PM,-3.4356581372054715,17.328519821166992,17.067307692307693
,8476.0,1410.0,6744.0,1146.0,1892.0,2426.0,2465.0,2025-08-05 16:37:06,77.0,,0.0929344276043899,-0.309503135267756,1.22639740492147,2025/08/05 04:37:25 PM,-3.64364382366695,16.9765567779541,14.130236364208606
,8475.0,1410.0,6741.0,1146.0,1897.0,2435.0,2471.0,2025-08-05 16:37:07,77.0,,0.0929372276876037,-0.309327066215018,1.2274992237172,2025/08/05 04:37:35 PM,-3.7729104301389165,16.129032135009766,15.489673550966023
,8474.0,1411.0,6743.0,1146.0,1893.0,2439.0,2450.0,2025-08-05 16:37:08,75.0,,0.0929281247002767,-0.309324867365848,1.22872041160911,2025/08/05 04:37:45 PM,-3.8393339534380404,15.021459579467772,14.724016765990676
,8474.0,1411.0,6742.0,1144.0,1893.0,2427.0,2459.0,2025-08-05 16:37:09,74.0,,0.0929403294557761,-0.30921855547052,1.22840184961226,2025/08/05 04:37:55 PM,-3.8599127604865417,15.075376510620115,14.851031321619569
,8472.0,1412.0,6741.0,1144.0,1895.0,2431.0,2477.0,2025-08-05 16:37:10,73.0,,0.0929411310845288,-0.30939057571047,1.22831479398394,2025/08/05 04:38:05 PM,-3.851845044609323,14.935988426208496,20.657647328594347
,8470.0,1409.0,6738.0,1144.0,1890.0,2419.0,2475.0,2025-08-05 16:37:11,71.0,,0.0929442017065718,-0.309036452242955,1.2288355207265,2025/08/05 04:38:15 PM,-3.831671860317225,16.253870010375977,15.04465504465505
,8468.0,1409.0,6738.0,1146.0,1887.0,2435.0,2473.0,2025-08-05 16:37:12,69.0,,0.0929502863781491,-0.30873429967252,1.22884735629243,2025/08/05 04:38:25 PM,-3.8145160542781817,16.449623107910156,13.940594059405944
,8466.0,1408.0,6737.0,1142.0,1888.0,2434.0,2455.0,2025-08-05 16:37:13,68.0,,0.0929540618277706,-0.308669291743753,1.23050263766364,2025/08/05 04:38:35 PM,-3.813436487894916,15.075377464294434,17.14561234329794
,8462.0,1408.0,6735.0,1142.0,1888.0,2438.0,2452.0,2025-08-05 16:37:14,66.0,,0.0929606750345192,-0.308040939960316,1.23178705851482,2025/08/05 04:38:45 PM,-3.838905637144781,15.555556297302246,17.86324786324787
,8459.0,1404.0,6733.0,1140.0,1891.0,2431.0,2464.0,2025-08-05 16:37:15,65.0,,0.0929660207875872,-0.307609785478986,1.23135721378287,2025/08/05 04:38:55 PM,-3.8984093654367737,16.2381591796875,16.59056316590564
,8458.0,1410.0,6730.0,1141.0,1875.0,2443.0,2451.0,2025-08-05 16:37:16,64.0,,0.0929748769591509,-0.307614547914089,1.23359677363898,2025/08/05 04:39:05 PM,-3.9961619396876356,17.647058486938477,16.32352941176469
,8455.0,1406.0,6730.0,1142.0,1891.0,2442.0,2451.0,2025-08-05 16:37:17,63.0,,0.0929805545536191,-0.307063427425698,1.23545078821121,2025/08/05 04:39:15 PM,-4.132927864122494,17.021276473999023,15.10115494922873
,8453.0,1405.0,6728.0,1141.0,1903.0,2444.0,2457.0,2025-08-05 16:37:18,63.0,,0.0929840541951944,-0.307141085368834,1.23516955684627,2025/08/05 04:39:25 PM,-4.305944769402613,16.0213623046875,19.4023888141535
,8447.0,1403.0,6723.0,1140.0,1899.0,2447.0,2482.0,2025-08-05 16:37:19,63.0,,0.0929847650301178,-0.307157106417009,1.23587753635481,2025/08/05 04:39:35 PM,-4.508947613239761,16.5289249420166,17.93443496801709
,8446.0,1405.0,6724.0,1138.0,1901.0,2425.0,2472.0,2025-08-05 16:37:20,63.0,,0.0929808715807295,-0.306898218005691,1.23490303414798,,-4.732302283729092,,
,8443.0,1404.0,6724.0,1141.0,1900.0,2435.0,2459.0,2025-08-05 16:37:21,64.0,,0.0929817823361313,-0.306904111236528,1.23539149089006,,-4.963264211227531,,
,8442.0,1405.0,6722.0,1141.0,1894.0,2435.0,2450.0,2025-08-05 16:37:22,64.0,,0.0929790403614582,-0.307081104240945,1.23497378703178,,-5.1863822628498335,,
,8439.0,1400.0,6714.0,1136.0,1898.0,2432.0,2460.0,2025-08-05 16:37:23,64.0,,0.0929841553976274,-0.306946382026918,1.236002801311,,-5.384067371706449,,
,8437.0,1405.0,6719.0,1139.0,1896.0,2448.0,2462.0,2025-08-05 16:37:24,64.0,,0.092986010549289,-0.306791148947671,1.23641813593668,,-5.53733683469197,,
,8437.0,1402.0,6714.0,1136.0,1903.0,2435.0,2460.0,2025-08-05 16:37:25,65.0,,0.0929897930515791,-0.306840803235934,1.23745499845382,,-5.626728196582949,,
,8438.0,1403.0,6714.0,1136.0,1904.0,2434.0,2454.0,2025-08-05 16:37:26,65.0,,0.0929906339909061,-0.306827735439915,1.23632736997961,,-5.633352790003242,,
,8434.0,1401.0,6715.0,1137.0,1914.0,2435.0,2448.0,2025-08-05 16:37:27,65.0,,0.0929851119000722,-0.306859184753776,1.23695111562856,,-5.540032810289992,,
,8432.0,1402.0,6715.0,1137.0,1906.0,2430.0,2448.0,2025-08-05 16:37:28,65.0,,0.092987669471175,-0.306777387218225,1.2370684761549,,-5.332443391661474,,
,8437.0,1404.0,6714.0,1139.0,1902.0,2440.0,2461.0,2025-08-05 16:37:29,65.0,,0.0929889202065575,-0.306837214185252,1.23683203043262,,-5.000167872342542,,
,8432.0,1402.0,6715.0,1136.0,1900.0,2439.0,2466.0,2025-08-05 16:37:30,65.0,,0.0929921614443582,-0.306784173933509,1.23771707115468,,-4.537573201469151,,
,8431.0,1400.0,6715.0,1136.0,1888.0,2429.0,2435.0,2025-08-05 16:37:31,65.0,,0.0929916755881103,-0.306809167723963,1.23632506647392,,-3.9444239080375443,,
,8434.0,1401.0,6715.0,1139.0,1911.0,2438.0,2459.0,2025-08-05 16:37:32,64.0,,0.0929950425070207,-0.306928196881995,1.23689806732776,,-3.2261763647808035,,
,8434.0,1401.0,6715.0,1137.0,1906.0,2441.0,2450.0,2025-08-05 16:37:33,64.0,,0.0929962408213533,-0.306637432584686,1.23661300784579,,-2.393927524268748,,
,8436.0,1402.0,6715.0,1139.0,1901.0,2446.0,2446.0,2025-08-05 16:37:34,64.0,,0.0929898231387356,-0.306704036708542,1.23604813537103,,-1.4640285978312908,,
,8434.0,1403.0,6716.0,1138.0,1905.0,2435.0,2464.0,2025-08-05 16:37:35,64.0,,0.0929936193342806,-0.306775088935252,1.23669321378204,,-0.4574072040714183,,
,8434.0,1401.0,6715.0,1138.0,1898.0,2429.0,2464.0,2025-08-05 16:37:36,63.0,,0.092988902368557,-0.306906744342401,1.23611793527727,,0.6013350214711917,,
,8434.0,1403.0,6719.0,1140.0,1903.0,2437.0,2463.0,2025-08-05 16:37:37,63.0,,0.0929891055110406,-0.307103902863005,1.23618272748593,,1.6849715494242499,,
,8435.0,1406.0,6719.0,1142.0,1904.0,2434.0,2456.0,2025-08-05 16:37:38,62.0,,0.0929863448411775,-0.306827573573893,1.23521779930512,,2.764769950137191,,
,8441.0,1405.0,6719.0,1141.0,1901.0,2433.0,2442.0,2025-08-05 16:37:39,62.0,,0.0929872821312929,-0.306569446962577,1.2362379515936,,3.8116132086745433,,
,8439.0,1399.0,6717.0,1137.0,1901.0,2440.0,2456.0,2025-08-05 16:37:40,62.0,,0.0929895521643723,-0.306494487027737,1.23614412065537,,4.797069669390494,,
,8439.0,1404.0,6720.0,1142.0,1899.0,2443.0,2470.0,2025-08-05 16:37:41,62.0,,0.0929936430540037,-0.306646174243363,1.23667622231573,,5.694373294777527,,
,8441.0,1404.0,6724.0,1140.0,1893.0,2442.0,2470.0,2025-08-05 16:37:42,63.0,,0.0929919066257253,-0.306436443866984,1.23673205709952,,6.4792907480567745,,
,8442.0,1402.0,6723.0,1140.0,1894.0,2441.0,2458.0,2025-08-05 16:37:43,63.0,,0.0929975747440698,-0.306397953625187,1.23675794872478,,7.130864552953979,,
,8443.0,1404.0,6725.0,1139.0,1888.0,2431.0,2465.0,2025-08-05 16:37:44,63.0,,0.0929910762132609,-0.306237876523286,1.23843648855054,,7.632030966513557,,
,8445.0,1407.0,6727.0,1141.0,1892.0,2438.0,2457.0,2025-08-05 16:37:45,63.0,,0.092990591709835,-0.306279088291831,1.23727390894379,,7.970116279913759,,
,8448.0,1405.0,6728.0,1140.0,1891.0,2447.0,2465.0,2025-08-05 16:37:46,63.0,,0.0929920289439356,-0.306409693713627,1.23647748301939,,8.137215593913432,,
,8450.0,1406.0,6730.0,1145.0,1893.0,2450.0,2458.0,2025-08-05 16:37:47,62.0,,0.092987483788398,-0.306560654050006,1.23674177949982,,8.130453792989814,,
,8451.0,1405.0,6732.0,1142.0,1899.0,2439.0,2462.0,2025-08-05 16:37:48,61.0,,0.0929879659209284,-0.306575614947946,1.2366837027021,,7.952120318912981,,
,8448.0,1406.0,6733.0,1143.0,1903.0,2439.0,2460.0,2025-08-05 16:37:49,60.0,,0.0929805747484839,-0.306528288477927,1.23644798504702,,7.609659489584347,,
,8455.0,1408.0,6736.0,1146.0,1880.0,2442.0,2450.0,2025-08-05 16:37:50,59.0,,0.0929850644654744,-0.306693336443349,1.2366313333835,,7.115489981589517,,
,8454.0,1408.0,6738.0,1140.0,1881.0,2442.0,2468.0,2025-08-05 16:37:51,59.0,,0.0929865169045296,-0.306602004543128,1.23700528997318,,6.486625005048265,,
,8456.0,1410.0,6739.0,1143.0,1886.0,2439.0,2455.0,2025-08-05 16:37:52,59.0,,0.0929850484027398,-0.306509294067598,1.23690308108121,,5.744072469602613,,
,8462.0,1408.0,6740.0,1144.0,1888.0,2439.0,2461.0,2025-08-05 16:37:53,59.0,,0.0929828290836922,-0.306381102609647,1.23643622166373,,4.91201345372581,,
,8461.0,1408.0,6742.0,1146.0,1899.0,2436.0,2459.0,2025-08-05 16:37:54,59.0,,0.0929863134181987,-0.306176453527861,1.23720220894922,,4.016784797869613,,
,8462.0,1410.0,6743.0,1147.0,1901.0,2434.0,2448.0,2025-08-05 16:37:55,60.0,,0.0929868037711783,-0.306248056727347,1.23652926589423,,3.085720862821966,,
,8462.0,1410.0,6748.0,1143.0,1895.0,2436.0,2444.0,2025-08-05 16:37:56,60.0,,0.0929915902876237,-0.306220374505572,1.23735073505003,,2.1459322437508543,,
,8465.0,1408.0,6748.0,1145.0,1901.0,2434.0,2450.0,2025-08-05 16:37:57,61.0,,0.0929866227766081,-0.306350853973819,1.23806122739575,,1.2231096605800842,,
,8467.0,1412.0,6752.0,1146.0,1897.0,2438.0,2447.0,2025-08-05 16:37:58,61.0,,0.0929878503461241,-0.306296679139699,1.23846990413979,,0.3404379781488401,,
,8468.0,1410.0,6748.0,1146.0,1903.0,2439.0,2459.0,2025-08-05 16:37:59,61.0,,0.0929915532757929,-0.305945938306159,1.23882691124613,,-0.4823092279600947,,
,8470.0,1410.0,6752.0,1146.0,1894.0,2447.0,2454.0,2025-08-05 16:38:00,61.0,,0.0930015084179193,-0.305852897836318,1.23827211423443,,-1.229445742982114,,
,8470.0,1409.0,6752.0,1146.0,1902.0,2437.0,2448.0,2025-08-05 16:38:01,61.0,,0.0929989593068803,-0.305684081567517,1.23940148055197,,-1.8897947219570774,,
,8473.0,1412.0,6755.0,1149.0,1898.0,2433.0,2456.0,2025-08-05 16:38:02,61.0,,0.0929989084747536,-0.305757503084789,1.23843797293959,,-2.4568542134575475,,
,8477.0,1411.0,6757.0,1151.0,1899.0,2433.0,2474.0,2025-08-05 16:38:03,61.0,,0.0930023800519966,-0.305858064252338,1.23928620646744,,-2.9287205284170095,,
,8477.0,1412.0,6758.0,1147.0,1900.0,2429.0,2473.0,2025-08-05 16:38:04,61.0,,0.0930014660676112,-0.305983870979204,1.23839503140793,,-3.3077931179763365,,
,8477.0,1413.0,6760.0,1148.0,1901.0,2439.0,2458.0,2025-08-05 16:38:05,62.0,,0.093007192858775,-0.305671267145924,1.23919733975896,,-3.600287565750734,,
,8479.0,1413.0,6766.0,1150.0,1896.0,2436.0,2477.0,2025-08-05 16:38:06,63.0,,0.0930055410445172,-0.305418308812859,1.24072885957556,,-3.815583390086662,,
,8481.0,1415.0,6768.0,1151.0,1884.0,2442.0,2465.0,2025-08-05 16:38:07,65.0,,0.0930098835610811,-0.305434357860021,1.24015658511344,,-3.965434294436464,,
,8486.0,1414.0,6765.0,1153.0,1888.0,2439.0,2447.0,2025-08-05 16:38:08,66.0,,0.0930153788819697,-0.305135508657047,1.24099805664648,,-4.063071916800837,,
,8484.0,1415.0,6767.0,1149.0,1890.0,2436.0,2456.0,2025-08-05 16:38:09,68.0,,0.0930158401966452,-0.305249148740954,1.24082284242518,,-4.122239468767631,,
,8488.0,1413.0,6772.0,1151.0,1889.0,2444.0,2467.0,2025-08-05 16:38:10,68.0,,0.0930195587088915,-0.305231372808639,1.24059118510589,,-4.156197676027019,,
,8490.0,1416.0,6776.0,1151.0,1886.0,2444.0,2474.0,2025-08-05 16:38:11,68.0,,0.0930137367740344,-0.305410935483972,1.24073660635001,,-4.176751178001911,,
,8490.0,1415.0,6777.0,1154.0,1883.0,2444.0,2460.0,2025-08-05 16:38:12,67.0,,0.0930154422283263,-0.30523792686379,1.24123672420589,,-4.1933482375951145,,
,8493.0,1416.0,6778.0,1154.0,1881.0,2436.0,2460.0,2025-08-05 16:38:13,65.0,,0.0930169253785538,-0.305352431075797,1.24149457814941,,-4.212309274467087,,
,8493.0,1416.0,6779.0,1152.0,1886.0,2426.0,2473.0,2025-08-05 16:38:14,64.0,,0.0930233789280907,-0.305261279246102,1.24148915513,,-4.236239212708285,,
,8496.0,1417.0,6780.0,1154.0,1875.0,2435.0,2464.0,2025-08-05 16:38:15,64.0,,0.0930103405832378,-0.305286927120294,1.24110711294138,,-4.263673919568278,,
,8499.0,1418.0,6785.0,1153.0,1879.0,2447.0,2462.0,2025-08-05 16:38:16,63.0,,0.0930040001968766,-0.305632877620309,1.23980753276723,,-4.289001509338938,,
,8502.0,1420.0,6787.0,1155.0,1884.0,2445.0,2460.0,2025-08-05 16:38:17,63.0,,0.0929969580809366,-0.305961717285305,1.238446954294,,-4.302684957192326,,
,8505.0,1418.0,6788.0,1152.0,1887.0,2440.0,2471.0,2025-08-05 16:38:18,63.0,,0.0929916641953553,-0.30636563321296,1.23853956557027,,-4.29179394399746,,
,8503.0,1419.0,6791.0,1155.0,1894.0,2442.0,2472.0,2025-08-05 16:38:19,63.0,,0.0929927706434511,-0.306127195961118,1.23817552923042,,-4.2408324158395585,,
,8509.0,1421.0,6795.0,1157.0,1889.0,2435.0,2469.0,2025-08-05 16:38:20,62.0,,0.0929992263221862,-0.306323401850887,1.23880082082974,,-4.132825655136991,,
,8512.0,1421.0,6795.0,1157.0,1887.0,2436.0,2461.0,2025-08-05 16:38:21,62.0,,0.0930036662641978,-0.305959368793457,1.2386593792046,,-3.9506084208266405,,
,8512.0,1419.0,6797.0,1158.0,1899.0,2432.0,2449.0,2025-08-05 16:38:22,61.0,,0.0930023993600867,-0.305609305101435,1.23947933609053,,-3.678235520045095,,
,8513.0,1421.0,6796.0,1158.0,1895.0,2443.0,2449.0,2025-08-05 16:38:23,61.0,,0.093004737286259,-0.305774601543632,1.23889958590104,,-3.3024197242874784,,
,8518.0,1423.0,6804.0,1159.0,1887.0,2438.0,2453.0,2025-08-05 16:38:24,62.0,,0.0930047831442466,-0.305967380251954,1.23843338714903,,-2.81389145801718,,
,8523.0,1423.0,6805.0,1158.0,1881.0,2443.0,2457.0,2025-08-05 16:38:25,62.0,,0.0929980313195662,-0.305797162896542,1.23940665212218,,-2.2085730233255383,,
,8521.0,1424.0,6810.0,1160.0,1880.0,2442.0,2454.0,2025-08-05 16:38:26,63.0,,0.0930040887559362,-0.305686729058773,1.23920899682409,,-1.48846969822021,,
,8524.0,1424.0,6810.0,1160.0,1884.0,2446.0,2483.0,2025-08-05 16:38:27,63.0,,0.0930000595911645,-0.305724501741725,1.23876626894335,,-0.6622006531060057,,
,8531.0,1428.0,6814.0,1163.0,1886.0,2440.0,2493.0,2025-08-05 16:38:28,63.0,,0.0930023385255753,-0.305824159911287,1.23859916613561,,0.2548796514229513,,
,8531.0,1425.0,6813.0,1161.0,1885.0,2446.0,2490.0,2025-08-05 16:38:29,63.0,,0.0929991191759621,-0.306025663482563,1.23832318269749,,1.240989866908574,,
,8533.0,1426.0,6818.0,1161.0,1893.0,2445.0,2496.0,2025-08-05 16:38:30,62.0,,0.0929940279236303,-0.306216880364049,1.23830022574692,,2.268654073397065,,
,8536.0,1426.0,6821.0,1162.0,1886.0,2448.0,2475.0,2025-08-05 16:38:31,61.0,,0.0929897660705689,-0.306233181207576,1.23754100859516,,3.305829658276491,,
,8539.0,1427.0,6822.0,1165.0,1891.0,2444.0,2477.0,2025-08-05 16:38:32,61.0,,0.0929808802229983,-0.306605223871152,1.2364484232051,,4.317381944644434,,
,8541.0,1430.0,6826.0,1166.0,1897.0,2445.0,2473.0,2025-08-05 16:38:33,61.0,,0.0929786076710794,-0.306750483365383,1.23561066967848,,5.266836389756686,,
,8541.0,1427.0,6828.0,1164.0,1898.0,2442.0,2459.0,2025-08-05 16:38:34,61.0,,0.0929732627475249,-0.307034808177415,1.23517341027381,,6.118318399423322,,
,8536.0,1424.0,6825.0,1163.0,1893.0,2446.0,2476.0,2025-08-05 16:38:35,61.0,,0.0929669160685836,-0.307086770376967,1.23455356289916,,6.8385706874083105,,
,8532.0,1427.0,6826.0,1162.0,1894.0,2442.0,2486.0,2025-08-05 16:38:36,61.0,,0.0929680310323992,-0.30740924451096,1.23413331351086,,7.398920803188073,,
,8523.0,1425.0,6819.0,1161.0,1889.0,2437.0,2484.0,2025-08-05 16:38:37,61.0,,0.0929678228895387,-0.307405596015041,1.23413013548913,,7.777059902664886,,
,8515.0,1422.0,6811.0,1158.0,1890.0,2441.0,2476.0,2025-08-05 16:38:38,61.0,,0.0929606209383918,-0.307436059493335,1.2343552269086,,7.958491557485272,,
,8503.0,1419.0,6805.0,1156.0,1889.0,2445.0,2472.0,2025-08-05 16:38:39,62.0,,0.0929650207278548,-0.307511133445637,1.23394241245883,,7.937519911898044,,
,8491.0,1414.0,6795.0,1155.0,1890.0,2436.0,2477.0,2025-08-05 16:38:40,62.0,,0.0929626709810315,-0.30766526011986,1.23390308283387,,7.717672428617697,,
,8478.0,1412.0,6789.0,1152.0,1891.0,2436.0,2467.0,2025-08-05 16:38:41,62.0,,0.0929625744256906,-0.30766908437592,1.23382274754301,,7.31149451467968,,
,8472.0,1411.0,6778.0,1150.0,1890.0,2435.0,2473.0,2025-08-05 16:38:42,62.0,,0.0929542716732488,-0.307601981796468,1.23287063433782,,6.739709290491039,,
,8458.0,1410.0,6769.0,1145.0,1893.0,2444.0,2461.0,2025-08-05 16:38:43,62.0,,0.0929520897167993,-0.307830549935954,1.2329279996481,,6.029799854301309,,
,8445.0,1405.0,6759.0,1143.0,1897.0,2438.0,2440.0,2025-08-05 16:38:44,63.0,,0.0929529221800705,-0.308159812770752,1.23047789115724,,5.214134161275129,,
,8432.0,1403.0,6750.0,1144.0,1897.0,2430.0,2459.0,2025-08-05 16:38:45,64.0,,0.0929493568925971,-0.308299959621903,1.23087125520767,,4.327802618398336,,
,8423.0,1403.0,6740.0,1140.0,1896.0,2414.0,2457.0,2025-08-05 16:38:46,65.0,,0.0929438079382793,-0.308202916427428,1.23097567286895,,3.406365783663158,,
,8415.0,1398.0,6733.0,1133.0,1893.0,2406.0,2447.0,2025-08-05 16:38:47,66.0,,0.0929413517556441,-0.30834797509031,1.23005388035816,,2.483709640070891,,
,8406.0,1400.0,6725.0,1136.0,1902.0,2424.0,2447.0,2025-08-05 16:38:48,66.0,,0.0929402473835493,-0.308503001431993,1.23047134577948,,1.5901810779537329,,
,8398.0,1396.0,6721.0,1133.0,1908.0,2420.0,2454.0,2025-08-05 16:38:49,66.0,,0.0929369987863603,-0.308682445091217,1.22971301268235,,0.7511337086601335,,
,8395.0,1396.0,6716.0,1133.0,1909.0,2421.0,2445.0,2025-08-05 16:38:50,66.0,,0.0929332504707936,-0.308896708488814,1.22911249111602,,-0.014037083634509076,,
,8387.0,1396.0,6710.0,1131.0,1907.0,2424.0,2459.0,2025-08-05 16:38:51,65.0,,0.0929244663049487,-0.308985353382447,1.22768146863004,,-0.6923427668503747,,
,8381.0,1392.0,6705.0,1128.0,1907.0,2428.0,2469.0,2025-08-05 16:38:52,65.0,,0.0929240437849816,-0.309322636734521,1.22750509695074,,-1.2771533810020803,,
,8378.0,1390.0,6699.0,1130.0,1906.0,2440.0,2475.0,2025-08-05 16:38:53,65.0,,0.0929192971550556,-0.309323954763324,1.22712798378312,,-1.767709495243546,,
,8374.0,1392.0,6698.0,1129.0,1910.0,2434.0,2475.0,2025-08-05 16:38:54,64.0,,0.0929133024998348,-0.309472593116354,1.22641173682271,,-2.168279123878563,,
,8372.0,1389.0,6696.0,1129.0,1906.0,2442.0,2477.0,2025-08-05 16:38:55,64.0,,0.0929139601465275,-0.30944330337333,1.22587388791225,,-2.48706182243845,,
,8369.0,1387.0,6692.0,1126.0,1901.0,2429.0,2491.0,2025-08-05 16:38:56,63.0,,0.0929094325940478,-0.309854425580487,1.22623014085651,,-2.7349504097734503,,
,8368.0,1390.0,6693.0,1126.0,1895.0,2416.0,2476.0,2025-08-05 16:38:57,63.0,,0.0929076672963113,-0.309858444788369,1.22559349618765,,-2.9242607690940794,,
,8370.0,1390.0,6692.0,1130.0,1901.0,2423.0,2481.0,2025-08-05 16:38:58,62.0,,0.0929092500046927,-0.309944230972591,1.22609822245609,,-3.0675330128290175,,
,8365.0,1392.0,6689.0,1128.0,1894.0,2437.0,2484.0,2025-08-05 16:38:59,62.0,,0.0929012198262215,-0.309985501517499,1.22362093499472,,-3.1764938271931844,,
,8364.0,1389.0,6686.0,1125.0,1887.0,2433.0,2488.0,2025-08-05 16:39:00,62.0,,0.0929070824842187,-0.309855098962687,1.22486961781586,,-3.261250621091913,,
,8361.0,1390.0,6686.0,1128.0,1893.0,2430.0,2482.0,2025-08-05 16:39:01,62.0,,0.0929088094669322,-0.309710875820078,1.22546405407855,,-3.3297635851989646,,
,8362.0,1391.0,6684.0,1127.0,1900.0,2440.0,2462.0,2025-08-05 16:39:02,62.0,,0.0929091361148589,-0.310002671911758,1.22582431096803,,-3.387612822830204,,
,8360.0,1389.0,6683.0,1126.0,1903.0,2446.0,2459.0,2025-08-05 16:39:03,62.0,,0.0929115820988176,-0.309932390852453,1.22602856804499,,-3.438046821519959,,
,8360.0,1389.0,6681.0,1126.0,1899.0,2440.0,2467.0,2025-08-05 16:39:04,62.0,,0.0929058056900004,-0.309998249321539,1.22500874161155,,-3.4822701078624614,,
,8357.0,1388.0,6682.0,1124.0,1900.0,2424.0,2489.0,2025-08-05 16:39:05,62.0,,0.0929092886923973,-0.310074572475075,1.22570037508739,,-3.5199069944992516,,
,8356.0,1388.0,6679.0,1125.0,1903.0,2428.0,2466.0,2025-08-05 16:39:06,63.0,,0.092911016164878,-0.309823193952604,1.22531568986919,,-3.5495681011321443,,
,8355.0,1388.0,6678.0,1126.0,1905.0,2428.0,2464.0,2025-08-05 16:39:07,63.0,,0.0929011580705345,-0.310207923106748,1.22506937671698,,-3.569446698745205,,
,8354.0,1390.0,6678.0,1125.0,1888.0,2437.0,2480.0,2025-08-05 16:39:08,63.0,,0.0928986034521544,-0.310238384325822,1.22463228710282,,-3.577880145227996,,
,8352.0,1387.0,6676.0,1123.0,1894.0,2443.0,2446.0,2025-08-05 16:39:09,63.0,,0.0929006972110954,-0.310555166714629,1.22348980457007,,-3.5738243811469887,,
2025-08-05 16:36:46,8352.0,1389.0,6675.0,1127.0,1885.0,2439.0,2431.0,2025-08-05 16:39:10,63.0,2025/08/05 04:36:46 PM,0.0929103435361343,-0.310657086365723,1.22402927443362,,-3.5572040428566143,,
,8350.0,1389.0,6674.0,1125.0,1885.0,2441.0,2452.0,2025-08-05 16:39:11,62.0,,0.0929141449453457,-0.310460942222805,1.22311347092216,,-3.52911553292295,,
,8345.0,1388.0,6672.0,1124.0,1886.0,2447.0,2458.0,2025-08-05 16:39:12,63.0,,0.0929049179821921,-0.31049773721872,1.22280966295903,,-3.4918741851618664,,
,8346.0,1386.0,6670.0,1123.0,1892.0,2439.0,2440.0,2025-08-05 16:39:13,63.0,,0.092904418280731,-0.310410875894576,1.22429796722926,,-3.4489086757681657,,
,8347.0,1388.0,6669.0,1124.0,1891.0,2454.0,2438.0,2025-08-05 16:39:14,63.0,,0.0929053444816556,-0.310687894959178,1.22280129691767,,-3.4045157692186256,,
,8344.0,1387.0,6670.0,1125.0,1895.0,2455.0,2429.0,2025-08-05 16:39:15,64.0,,0.092905922791105,-0.310619029553941,1.22362856401616,,-3.3634965760084574,,
,8339.0,1386.0,6669.0,1125.0,1889.0,2456.0,2442.0,2025-08-05 16:39:16,64.0,,0.0929050531900491,-0.310781215526706,1.22356668349166,,-3.3307022349432183,,
,8338.0,1384.0,6665.0,1123.0,1887.0,2463.0,2432.0,2025-08-05 16:39:17,64.0,,0.092894734325969,-0.311058506270928,1.22254943976063,,-3.3105227114525437,,
,8334.0,1384.0,6663.0,1122.0,1880.0,2457.0,2432.0,2025-08-05 16:39:18,64.0,,0.0928926411526675,-0.311266502513759,1.22219090485728,,-3.3063572742684366,,
,8333.0,1385.0,6664.0,1124.0,1873.0,2449.0,2449.0,2025-08-05 16:39:19,63.0,,0.092886926818575,-0.311578031984008,1.22245969972766,,-3.320108789464036,,
,8330.0,1385.0,6663.0,1124.0,1871.0,2447.0,2445.0,2025-08-05 16:39:20,64.0,,0.0928721914093116,-0.311909987663945,1.2202141655827,,-3.3517454249092777,,
,8328.0,1380.0,6658.0,1122.0,1885.0,2454.0,2457.0,2025-08-05 16:39:21,65.0,,0.0928607530313731,-0.31226792449177,1.21762789147358,,-3.3989715430571974,,
,8324.0,1381.0,6657.0,1121.0,1889.0,2457.0,2448.0,2025-08-05 16:39:22,66.0,,0.0928546636043776,-0.312640279668887,1.21719248850378,,-3.457043398911936,,
,8324.0,1383.0,6658.0,1120.0,1897.0,2449.0,2460.0,2025-08-05 16:39:23,67.0,,0.0928497882950153,-0.31271974510325,1.2160748096206,,-3.5187544387177088,,
,8322.0,1381.0,6654.0,1119.0,1901.0,2446.0,2456.0,2025-08-05 16:39:24,68.0,,0.0928446965482389,-0.313002313899388,1.21604652184251,,-3.574600693198696,,
,8322.0,1381.0,6654.0,1119.0,1878.0,2445.0,2452.0,2025-08-05 16:39:25,69.0,,0.0928357356562857,-0.313275131733288,1.2150879338745,,-3.6131216898589087,,
,8318.0,1380.0,6651.0,1119.0,1880.0,2451.0,2468.0,2025-08-05 16:39:26,69.0,,0.0928377327970968,-0.313410446379497,1.21493405441811,,-3.6213994676648027,,
,8319.0,1381.0,6654.0,1119.0,1889.0,2443.0,2464.0,2025-08-05 16:39:27,70.0,,0.0928346834586035,-0.31345166048656,1.21389887619402,,-3.585689104690769,,
,8320.0,1381.0,6654.0,1120.0,1894.0,2435.0,2468.0,2025-08-05 16:39:28,70.0,,0.0928253982718103,-0.313634572168638,1.21254133664546,,-3.4921478637219896,,
,8317.0,1379.0,6653.0,1118.0,1897.0,2435.0,2463.0,2025-08-05 16:39:29,70.0,,0.0928305036273084,-0.313740431236428,1.21279945609112,,-3.327624801022077,,
,8316.0,1380.0,6651.0,1119.0,1899.0,2440.0,2465.0,2025-08-05 16:39:30,70.0,,0.0928261171656897,-0.313654354418297,1.21317061059837,,-3.0804675008318596,,
,8317.0,1383.0,6651.0,1121.0,1891.0,2436.0,2469.0,2025-08-05 16:39:31,69.0,,0.0928326536899101,-0.313755256131081,1.21308647723539,,-2.7412981903208786,,
,8318.0,1378.0,6654.0,1119.0,1884.0,2431.0,2496.0,2025-08-05 16:39:32,68.0,,0.0928340928121523,-0.31334931560533,1.21410190200357,,-2.30370966761443,,
,8319.0,1382.0,6652.0,1118.0,1879.0,2432.0,2493.0,2025-08-05 16:39:33,68.0,,0.0928354500327316,-0.313161825862811,1.21550428419686,,-1.7648340960842757,,
,8316.0,1381.0,6652.0,1118.0,1887.0,2435.0,2479.0,2025-08-05 16:39:34,67.0,,0.0928313601006468,-0.313006259390278,1.21469541992326,,-1.1257457866512857,,
,8320.0,1381.0,6653.0,1117.0,1897.0,2432.0,2480.0,2025-08-05 16:39:35,66.0,,0.0928329712451741,-0.313431737858103,1.21451771325716,,-0.39167219074747445,,
,8323.0,1379.0,6656.0,1118.0,1892.0,2436.0,2493.0,2025-08-05 16:39:36,66.0,,0.0928371327506784,-0.313524175676895,1.21436914523135,,0.4279965113250051,,
,8325.0,1380.0,6656.0,1117.0,1883.0,2437.0,2500.0,2025-08-05 16:39:37,65.0,,0.0928334123396103,-0.31358784182947,1.21395255878053,,1.3198926648385438,,
,8320.0,1380.0,6656.0,1120.0,1896.0,2397.0,2501.0,2025-08-05 16:39:38,65.0,,0.0928408214642774,-0.313672313462938,1.21313909274997,,2.2670315861560093,,
,8327.0,1383.0,6656.0,1119.0,1903.0,2410.0,2493.0,2025-08-05 16:39:39,65.0,,0.0928481003914244,-0.313329169452228,1.21394111319522,,3.249319604449807,,
,8329.0,1382.0,6660.0,1121.0,1903.0,2432.0,2497.0,2025-08-05 16:39:40,65.0,,0.0928428690358374,-0.313488886374593,1.21345235176517,,4.244179703046481,,
,8330.0,1384.0,6662.0,1122.0,1900.0,2434.0,2502.0,2025-08-05 16:39:41,65.0,,0.0928441246251323,-0.313686947442775,1.214497675481,,5.227266793249236,,
,8330.0,1383.0,6664.0,1121.0,1903.0,2426.0,2514.0,2025-08-05 16:39:42,66.0,,0.0928491473038282,-0.313146903323143,1.21461259826916,,6.173249268774378,,
,8333.0,1383.0,6665.0,1120.0,1890.0,2425.0,2501.0,2025-08-05 16:39:43,66.0,,0.0928498077175275,-0.313336009178236,1.21510036482903,,7.056638831293153,,
,8334.0,1383.0,6668.0,1123.0,1903.0,2429.0,2500.0,2025-08-05 16:39:44,67.0,,0.0928489723343238,-0.312997550250527,1.21592339963264,,7.852654902595693,,
,8338.0,1384.0,6667.0,1121.0,1904.0,2422.0,2497.0,2025-08-05 16:39:45,68.0,,0.0928568518865705,-0.312930563418926,1.21589654693006,,8.53811143819624,,
,8340.0,1385.0,6670.0,1123.0,1903.0,2428.0,2485.0,2025-08-05 16:39:46,69.0,,0.0928431423887999,-0.313461879453544,1.21578640875967,,9.09231104372386,,
,8342.0,1382.0,6671.0,1121.0,1897.0,2433.0,2468.0,2025-08-05 16:39:47,70.0,,0.0928444473064603,-0.313262788839997,1.2146769095521,,9.497923472114335,,
,8342.0,1384.0,6673.0,1123.0,1894.0,2441.0,2475.0,2025-08-05 16:39:48,71.0,,0.0928451676847671,-0.313201979514638,1.21509909581097,,9.741814096926914,,
,8346.0,1385.0,6676.0,1124.0,1905.0,2430.0,2463.0,2025-08-05 16:39:49,72.0,,0.0928424531006987,-0.313540898995083,1.21384731443712,,9.815775536738597,,
,8346.0,1383.0,6678.0,1125.0,1907.0,2424.0,2469.0,2025-08-05 16:39:50,71.0,,0.0928384206625875,-0.313335380091228,1.21334039315447,,9.71710546274466,,
,8349.0,1384.0,6676.0,1124.0,1893.0,2419.0,2469.0,2025-08-05 16:39:51,71.0,,0.0928315778855061,-0.313445954339596,1.21308505026681,,9.448968680881041,,
,8349.0,1386.0,6679.0,1124.0,1896.0,2424.0,2443.0,2025-08-05 16:39:52,70.0,,0.0928302564877564,-0.313721947296526,1.21261406880417,,9.02048437227702,,
,8354.0,1388.0,6684.0,1126.0,1900.0,2430.0,2462.0,2025-08-05 16:39:53,69.0,,0.0928348980145177,-0.31376626970479,1.21207860229792,,8.44649213763341,,
,8355.0,1387.0,6682.0,1127.0,1902.0,2427.0,2474.0,2025-08-05 16:39:54,68.0,,0.0928316716772511,-0.31367802524329,1.21222734037463,,7.746974533906616,,
,8355.0,1387.0,6682.0,1126.0,1900.0,2423.0,2496.0,2025-08-05 16:39:55,68.0,,0.0928250526564465,-0.313854930931135,1.21134671173041,,6.946147858054203,,
,8360.0,1386.0,6684.0,1125.0,1905.0,2405.0,2493.0,2025-08-05 16:39:56,68.0,,0.092822119424027,-0.314147404226876,1.21134139808499,,6.071271727242833,,
,8361.0,1388.0,6688.0,1129.0,1894.0,2400.0,2485.0,2025-08-05 16:39:57,68.0,,0.0928180887371613,-0.314186569322895,1.20990071941063,,5.151262966431263,,
,8364.0,1389.0,6689.0,1128.0,1898.0,2413.0,2484.0,2025-08-05 16:39:58,67.0,,0.0928165176401107,-0.314305239394568,1.20956897709441,,4.215222100137933,,
,8365.0,1389.0,6692.0,1130.0,1909.0,2415.0,2480.0,2025-08-05 16:39:59,67.0,,0.092809850083641,-0.314326850441053,1.20949631403026,,3.290987028767069,,
,8364.0,1388.0,6694.0,1128.0,1903.0,2420.0,2482.0,2025-08-05 16:40:00,66.0,,0.0928019528119644,-0.314727970836049,1.20851735938791,,2.4038192375422094,,
,8366.0,1390.0,6694.0,1130.0,1909.0,2431.0,2492.0,2025-08-05 16:40:01,66.0,,0.0928068769021463,-0.314843406489446,1.20705469488306,,1.5753079038852118,,
,8370.0,1392.0,6699.0,1131.0,1906.0,2431.0,2482.0,,,,0.0928033732514699,-0.314708121670995,1.20762057099553,,0.8225523897885446,,
,8371.0,1391.0,6696.0,1129.0,1903.0,2423.0,2489.0,,,,0.0928075047120182,-0.31462737811854,1.20858663247247,,0.15765843643410715,,
,8370.0,1390.0,6698.0,1127.0,1900.0,2430.0,2485.0,,,,0.0928071634670948,-0.31473927143863,1.20771226645667,,-0.41243999993198655,,
,8373.0,1391.0,6700.0,1131.0,1900.0,2436.0,2475.0,,,,0.0928075477133681,-0.314738082113061,1.20838281442072,,-0.885843077157976,,
,8375.0,1392.0,6700.0,1128.0,1903.0,2435.0,2482.0,,,,0.0928102099310504,-0.314998817344775,1.20869950127593,,-1.2652620430721566,,
,8379.0,1393.0,6705.0,1131.0,1902.0,2438.0,2485.0,,,,0.0928109942455706,-0.31513835390229,1.20763424468927,,-1.557360066354341,,
,8376.0,1394.0,6703.0,1131.0,1906.0,2431.0,2455.0,,,,0.0928106372221959,-0.314939672934266,1.20913034208524,,-1.7719205265743636,,
,8381.0,1391.0,6708.0,1130.0,1899.0,2424.0,2469.0,,,,0.0928079798082499,-0.314984345498033,1.20811198860468,,-1.9209141027944252,,
,8385.0,1394.0,6709.0,1131.0,1901.0,2419.0,2465.0,,,,0.0928136134779552,-0.314712038505681,1.2089678249451,,-2.0175362508080696,,
,8387.0,1393.0,6713.0,1133.0,1902.0,2422.0,2471.0,,,,0.0928192053111452,-0.3149097476477,1.20864386284879,,-2.075280332708638,,
,8386.0,1393.0,6713.0,1132.0,1904.0,2409.0,2487.0,,,,0.092818912561503,-0.314549030421205,1.21002151439335,,-2.107100665958693,,
,8388.0,1396.0,6718.0,1133.0,1889.0,2421.0,2476.0,,,,0.0928248725654391,-0.314547926303832,1.20896973112455,,-2.1247062098889846,,
,8392.0,1395.0,6718.0,1135.0,1884.0,2422.0,2468.0,,,,0.0928229166585387,-0.314467046618521,1.20998569218062,,-2.1380114665890204,,
,8392.0,1394.0,6722.0,1134.0,1890.0,2427.0,2463.0,,,,0.0928180761301989,-0.314265565103252,1.20979829366899,,-2.154758102704487,,
,8395.0,1398.0,6723.0,1135.0,1891.0,2424.0,2467.0,,,,0.092825062539035,-0.314428135566954,1.20991598663687,,-2.180309953551752,,
,8396.0,1393.0,6723.0,1133.0,1889.0,2437.0,2462.0,,,,0.0928293993575964,-0.314222524405185,1.21047261733995,,-2.217615881524773,,
,8398.0,1398.0,6730.0,1134.0,1905.0,2437.0,2469.0,,,,0.0928286299465616,-0.313970492487375,1.21088536433411,,-2.26732910761294,,
,8402.0,1399.0,6731.0,1139.0,1896.0,2443.0,2458.0,,,,0.0928364797389647,-0.314101118010343,1.21081812225048,,-2.3280672400012166,,
,8406.0,1401.0,6733.0,1137.0,1888.0,2451.0,2451.0,,,,0.0928367526565302,-0.313927097690083,1.21166422012267,,-2.3967931411844674,,
,8405.0,1400.0,6733.0,1136.0,1905.0,2436.0,2456.0,,,,0.0928359582127137,-0.314012158128361,1.21110528368213,,-2.4692919141632736,,
,8411.0,1399.0,6735.0,1136.0,1902.0,2446.0,2464.0,,,,0.0928322115263092,-0.313904779040954,1.21098498119267,,-2.5407130426820204,,
,8412.0,1400.0,6742.0,1139.0,1891.0,2451.0,2453.0,,,,0.0928371095832047,-0.313945522519038,1.21128966207766,,-2.6061395991806386,,
,8413.0,1401.0,6745.0,1139.0,1900.0,2445.0,2463.0,,,,0.092840309877995,-0.313849071338563,1.21185872110445,,-2.6611405139562283,,
,8417.0,1400.0,6744.0,1137.0,1905.0,2442.0,2467.0,,,,0.0928501792422914,-0.313596671857361,1.21326256730166,,-2.7022601214396644,,
,8420.0,1404.0,6748.0,1141.0,1901.0,2449.0,2468.0,,,,0.0928554794918442,-0.313113140923262,1.21385834983538,,-2.727403416530353,,
,8422.0,1402.0,6752.0,1141.0,1894.0,2444.0,2466.0,,,,0.0928589922326326,-0.313097189762351,1.21549037915048,,-2.7360850291901984,,
,8424.0,1406.0,6752.0,1140.0,1892.0,2444.0,2466.0,,,,0.0928654817018421,-0.312714887789588,1.21563973284464,,-2.729522425732538,,
,8423.0,1404.0,6753.0,1142.0,1906.0,2439.0,2440.0,,,,0.0928705925842546,-0.312675238349594,1.21653941800655,,-2.7105668712211233,,
,8426.0,1405.0,6756.0,1142.0,1892.0,2440.0,2462.0,,,,0.0928763465417694,-0.312418807209618,1.21658486408695,,-2.683477941337683,,
,8431.0,1405.0,6759.0,1143.0,1893.0,2431.0,2469.0,,,,0.0928751839451186,-0.312300924154399,1.21699366465556,,-2.6535584831958485,,
,8434.0,1405.0,6762.0,1145.0,1888.0,2428.0,2467.0,,,,0.0928757616829914,-0.312327299559073,1.2162324424301,,-2.6266768186511156,,
,8436.0,1407.0,6765.0,1142.0,1893.0,2434.0,2440.0,,,,0.0928787622567553,-0.312194927447823,1.21693159098234,,-2.608711544734564,,
,8438.0,1408.0,6768.0,1146.0,1887.0,2437.0,2456.0,,,,0.0928819637020241,-0.312236185936866,1.21761990275264,,-2.6049613971258028,,
,8443.0,1408.0,6772.0,1145.0,1879.0,2436.0,2473.0,,,,0.0928865090398855,-0.311989629782706,1.21849840679527,,-2.619568226774983,,
,8448.0,1407.0,6775.0,1147.0,1876.0,2438.0,2467.0,,,,0.0928914390637588,-0.311588427978454,1.21884974526877,,-2.6550049747389908,,
,8449.0,1413.0,6777.0,1146.0,1879.0,2435.0,2476.0,,,,0.0928979215955723,-0.311175683032001,1.21987772071957,,-2.711682008945568,,
,8453.0,1412.0,6780.0,1148.0,1882.0,2445.0,2480.0,,,,0.0929099878319046,-0.311073747062719,1.22110413436038,,-2.7877231987771207,,
,8456.0,1410.0,6784.0,1149.0,1892.0,2439.0,2481.0,,,,0.092910077620093,-0.311092224716695,1.22121891272355,,-2.878956015248698,,
,8457.0,1412.0,6786.0,1151.0,1890.0,2434.0,2474.0,,,,0.0929067701136755,-0.310986695209688,1.22060557841056,,-2.979145782375581,,
,8454.0,1410.0,6785.0,1149.0,1890.0,2439.0,2486.0,,,,0.0929001348083229,-0.311238087563803,1.21982530515867,,-3.0804815186386434,,
,8449.0,1409.0,6781.0,1147.0,1895.0,2443.0,2470.0,,,,0.0928979636529046,-0.311462295846985,1.2197115019296,,-3.174290334360124,,
,8442.0,1407.0,6780.0,1148.0,1895.0,2437.0,2471.0,,,,0.0928906279048057,-0.311912157622451,1.2177918876776,,-3.251923243627024,,
,8433.0,1405.0,6774.0,1144.0,1884.0,2440.0,2471.0,,,,0.0928768121803685,-0.31230569130319,1.21670250596434,,-3.305724244726473,,
,8419.0,1402.0,6767.0,1142.0,1888.0,2436.0,2481.0,,,,0.0928706591960465,-0.312731901848527,1.21561614389701,,-3.3299733949380363,,
,8409.0,1401.0,6757.0,1137.0,1896.0,2423.0,2489.0,,,,0.0928556702834573,-0.313038752474212,1.21547444537652,,-3.321687937578082,,
,8396.0,1398.0,6748.0,1137.0,1899.0,2431.0,2481.0,,,,0.092846244257247,-0.313271096406951,1.21331482234163,,-3.2811749102471484,,
,8385.0,1398.0,6740.0,1134.0,1898.0,2430.0,2483.0,,,,0.0928386482755963,-0.313708912875954,1.21274833150443,,-3.212252728386063,,
,8373.0,1394.0,6732.0,1131.0,1896.0,2429.0,2482.0,,,,0.0928277492285911,-0.314121729646486,1.21223375631654,,-3.122094210680718,,
,8358.0,1390.0,6718.0,1126.0,1888.0,2421.0,2469.0,,,,0.0928131740925796,-0.314504353223615,1.2102448507986,,-3.0206841389163763,,
,8345.0,1386.0,6710.0,1124.0,1900.0,2416.0,2473.0,,,,0.0927973119862723,-0.315349645957557,1.2077207777728,,-2.919925301322767,,
,8336.0,1385.0,6702.0,1122.0,1899.0,2430.0,2470.0,,,,0.0927725273418519,-0.316015677392203,1.20501163063232,,-2.8324635098423228,,
,8326.0,1385.0,6690.0,1121.0,1895.0,2420.0,2480.0,,,,0.0927539293287299,-0.317105726673407,1.20252553780536,,-2.7703311025181203,,
,8317.0,1380.0,6684.0,1118.0,1898.0,2424.0,2480.0,,,,0.0927390682811669,-0.317609359809583,1.20064855688432,,-2.743528048257917,,
,8306.0,1379.0,6675.0,1115.0,1895.0,2435.0,2482.0,,,,0.0927155876185052,-0.31860057869897,1.19813524281137,,-2.7586690575576283,,
,8300.0,1380.0,6670.0,1117.0,1894.0,2436.0,2465.0,,,,0.0926988179082185,-0.319431465569774,1.19540030770537,,-2.8178236803792616,,
,8296.0,1376.0,6664.0,1115.0,1900.0,2445.0,2473.0,,,,0.092677499880355,-0.320031142060885,1.19247948719222,,-2.9176640884807705,,
,8291.0,1374.0,6663.0,1115.0,1892.0,2441.0,2470.0,,,,0.09266213111076,-0.321034622046182,1.1905156819845,,-3.049012587676093,,
,8286.0,1375.0,6654.0,1112.0,1892.0,2441.0,2471.0,,,,0.0926451607061649,-0.321474508872864,1.18825317066242,,-3.1968499917535276,,
,8284.0,1376.0,6653.0,1112.0,1883.0,2441.0,2467.0,,,,0.0926291850586986,-0.321855233494063,1.18700306625873,,-3.3408108160043635,,
,8283.0,1376.0,6652.0,1112.0,1894.0,2426.0,2471.0,,,,0.0926205545876875,-0.322369134295281,1.1845204202564,,-3.4561561890750907,,
,8282.0,1375.0,6649.0,1111.0,1899.0,2420.0,2472.0,,,,0.0926084898679818,-0.323025364787917,1.18355760469894,,-3.5151828262686697,,
,8278.0,1373.0,6647.0,1112.0,1897.0,2437.0,2462.0,,,,0.0926009751071984,-0.32431080043999,1.18158544885759,,-3.4889960844658336,,
,8274.0,1376.0,6643.0,1110.0,1895.0,2442.0,2446.0,,,,0.0925859277099021,-0.324731634814595,1.18101608663998,,-3.3495459321622776,,
,8272.0,1373.0,6643.0,1109.0,1877.0,2433.0,2457.0,,,,0.092586286763584,-0.325036511379257,1.17963629603859,,-3.0717971091517864,,
,8270.0,1373.0,6641.0,1109.0,1885.0,2426.0,2462.0,,,,0.0925797066347652,-0.324959485564129,1.18024446836355,,-2.635881797897413,,
,8270.0,1372.0,6638.0,1109.0,1887.0,2416.0,2463.0,,,,0.0925676531317549,-0.325330656422788,1.17879876347895,,-2.029069326501469,,
,8266.0,1372.0,6637.0,1106.0,1899.0,2430.0,2466.0,,,,0.0925715020410959,-0.325518831478221,1.17823699382161,,-1.247387124979061,,
,8268.0,1370.0,6638.0,1108.0,1897.0,2438.0,2467.0,,,,0.0925728079138068,-0.325334499691279,1.17891195223153,,-0.2967430681862581,,
,8265.0,1371.0,6636.0,1108.0,1898.0,2434.0,2466.0,,,,0.0925778731328584,-0.325251632732503,1.1781795159629,,0.8065682807762747,,
,8264.0,1368.0,6634.0,1105.0,1897.0,2449.0,2470.0,,,,0.0925802539209175,-0.325083268022507,1.17989230898321,,2.0360468219615004,,
,8264.0,1370.0,6631.0,1106.0,1905.0,2445.0,2483.0,,,,0.0925795689013476,-0.324943121216461,1.18056659061959,,3.35587236716295,,
,8260.0,1366.0,6632.0,1107.0,1889.0,2434.0,2482.0,,,,0.0925908624987738,-0.324561106496855,1.17976407053285,,4.722456074473066,,
,8261.0,1370.0,6630.0,1105.0,1884.0,2439.0,2478.0,,,,0.0926060405054736,-0.324124621649661,1.18110529755081,,6.086570249875628,,
,8261.0,1371.0,6629.0,1108.0,1886.0,2433.0,2471.0,,,,0.0926164664792658,-0.323365763869478,1.182555620075,,7.395929384681706,,
,8256.0,1368.0,6628.0,1104.0,1900.0,2422.0,2463.0,,,,0.0926269367724756,-0.32286778298711,1.18314696469004,,8.598066277881818,,
,8257.0,1372.0,6626.0,1107.0,1895.0,2422.0,2474.0,,,,0.0926366334688946,-0.322312646660902,1.18551327513456,,9.643327402222463,,
2025-08-05 16:36:47,8257.0,1369.0,6626.0,1106.0,1899.0,2420.0,2479.0,,,2025/08/05 04:36:47 PM,0.0926469790588381,-0.32193933095462,1.18563018348676,,10.487799908382103,,
,8255.0,1368.0,6619.0,1106.0,1903.0,2433.0,2476.0,,,,0.0926587473305462,-0.32183637691139,1.18665263420833,,11.095978237729849,,
,8251.0,1369.0,6621.0,1106.0,1895.0,2430.0,2462.0,,,,0.0926629841058623,-0.321352613595737,1.18756591524545,,11.442982077931424,,
,8249.0,1368.0,6621.0,1106.0,1896.0,2444.0,2448.0,,,,0.0926654207622011,-0.321207020692413,1.18849689857784,,11.516151823786409,,
,8251.0,1368.0,6620.0,1106.0,1892.0,2438.0,2459.0,,,,0.092670215682279,-0.321044206049718,1.1884410332714,,11.315876328848617,,
,8247.0,1368.0,6616.0,1107.0,1890.0,2439.0,2453.0,,,,0.0926774877943895,-0.32084233995479,1.18907706921621,,10.855553767580192,,
,8244.0,1367.0,6615.0,1101.0,1891.0,2432.0,2458.0,,,,0.0926852460472968,-0.320616242676422,1.18878158772322,,10.16065102606583,,
,8245.0,1365.0,6614.0,1104.0,1876.0,2447.0,2460.0,,,,0.0926858183830348,-0.320796366483391,1.18934582858521,,9.266907446172365,,
,8247.0,1367.0,6614.0,1103.0,1879.0,2432.0,2474.0,,,,0.0926942463040357,-0.320275332681417,1.19085010244187,,8.217816709496296,,
,8244.0,1367.0,6611.0,1102.0,1882.0,2430.0,2475.0,,,,0.0926975400924021,-0.320019869499287,1.19142428632816,,7.061602355265504,,
,8243.0,1367.0,6610.0,1100.0,1889.0,2442.0,2453.0,,,,0.0927037159463457,-0.319754946425295,1.19138272645672,,5.847961543440218,,
,8240.0,1364.0,6609.0,1101.0,1889.0,2438.0,2477.0,,,,0.0927048397848586,-0.319719883287714,1.19222277955702,,4.624874954379392,,
,8239.0,1363.0,6608.0,1102.0,1894.0,2439.0,2471.0,,,,0.0927065128778962,-0.319655121271131,1.19265746957787,,3.435763128094805,,
,8237.0,1366.0,6606.0,1101.0,1886.0,2446.0,2472.0,,,,0.0927112959902227,-0.319469583193769,1.19307159254606,,2.3172158434846946,,
,8238.0,1364.0,6603.0,1099.0,1878.0,2439.0,2482.0,,,,0.0927266464110353,-0.31949051406241,1.19419788985637,,1.2974434733069933,,
,8232.0,1364.0,6602.0,1101.0,1890.0,2441.0,2497.0,,,,0.0927229807697334,-0.319458375918931,1.19377933277867,,0.3955126632020335,,
,8235.0,1362.0,6602.0,1102.0,1893.0,2446.0,2479.0,,,,0.0927229666890999,-0.319515601879726,1.19399086890709,,-0.3786533194874501,,
,8234.0,1362.0,6603.0,1099.0,1888.0,2439.0,2471.0,,,,0.0927174640135341,-0.319444039532281,1.19351644104823,,-1.023597316944469,,
,8233.0,1362.0,6600.0,1100.0,1888.0,2440.0,2464.0,,,,0.0927200831002486,-0.319603935253376,1.19362494408486,,-1.545111275644241,,
,8232.0,1359.0,6600.0,1098.0,1896.0,2441.0,2484.0,,,,0.0927174453667149,-0.319752765065323,1.1937829159649,,-1.9546462459599085,,
,8234.0,1364.0,6602.0,1100.0,1878.0,2442.0,2481.0,,,,0.0927174303400277,-0.319696730934291,1.19327967633156,,-2.267526855928853,,
,8235.0,1362.0,6602.0,1101.0,1889.0,2440.0,2466.0,,,,0.0927108380893815,-0.319969247590018,1.19262723063187,,-2.501141950750507,,
,8236.0,1364.0,6603.0,1102.0,1892.0,2434.0,2460.0,,,,0.0927055030632738,-0.320129319754691,1.19096586960108,,-2.673263817660416,,
,8234.0,1363.0,6601.0,1099.0,1892.0,2436.0,2449.0,,,,0.0927004482980181,-0.320191850063349,1.19064855489951,,-2.8006189949760976,,
,8237.0,1361.0,6602.0,1099.0,1891.0,2444.0,2453.0,,,,0.0926953516163929,-0.320385043613428,1.19053571631118,,-2.897797472211692,,
,8239.0,1363.0,6603.0,1100.0,1890.0,2439.0,2470.0,,,,0.0926856506294822,-0.320753083746631,1.18816460747243,,-2.976547309831618,,
,8242.0,1364.0,6604.0,1102.0,1894.0,2433.0,2469.0,,,,0.0926841945963803,-0.321373911781216,1.18811729913458,,-3.0454613291163932,,
,8242.0,1364.0,6604.0,1102.0,1903.0,2428.0,2479.0,,,,0.0926749066000988,-0.321695595797093,1.18680188558652,,-3.1100246707049437,,
,8244.0,1361.0,6603.0,1101.0,1894.0,2421.0,2462.0,,,,0.0926737273883764,-0.321821662801163,1.18637965487063,,-3.172960385016184,,
,8242.0,1364.0,6606.0,1103.0,1900.0,2412.0,2460.0,,,,0.0926699171339168,-0.321894151204084,1.18623663048311,,-3.2347886425565378,,
,8248.0,1365.0,6609.0,1101.0,1892.0,2422.0,2446.0,,,,0.0926672045578402,-0.321883432482692,1.18640281078203,,-3.2945059938589507,,
,8249.0,1365.0,6609.0,1104.0,1889.0,2430.0,2455.0,,,,0.092664786447509,-0.321634323547508,1.18598874458416,,-3.3502938398346354,,
,8249.0,1367.0,6611.0,1102.0,1904.0,2429.0,2456.0,,,,0.0926617103500696,-0.321798241661335,1.18619245518418,,-3.4001769757163793,,
,8258.0,1367.0,6615.0,1104.0,1899.0,2415.0,2467.0,,,,0.0926671441451993,-0.32153559164928,1.18565554997767,,-3.442570235432378,,
,8258.0,1365.0,6616.0,1102.0,1906.0,2430.0,2491.0,,,,0.0926602398251234,-0.32168468116788,1.18660997815785,,-3.4766710709890334,,
,8259.0,1365.0,6617.0,1102.0,1899.0,2437.0,2483.0,,,,0.0926663654427143,-0.321917041079845,1.18679901067181,,-3.5026763278010784,,
,8261.0,1367.0,6620.0,1103.0,1893.0,2441.0,2488.0,,,,0.0926608184536893,-0.322091250990344,1.1863484049683,,-3.5218208643210067,,
,8266.0,1369.0,6620.0,1102.0,1901.0,2431.0,2486.0,,,,0.0926607305358575,-0.322476689240193,1.18548255899831,,-3.536252568947436,,
,8267.0,1369.0,6620.0,1106.0,1902.0,2435.0,2482.0,,,,0.092655939067836,-0.32227582090434,1.18527538720712,,-3.5487717648419483,,
,8268.0,1371.0,6625.0,1107.0,1902.0,2434.0,2487.0,,,,0.0926425310796465,-0.322745673195919,1.18347933164348,,-3.5624726124977855,,
,8268.0,1367.0,6625.0,1101.0,1888.0,2419.0,2474.0,,,,0.0926392371189728,-0.323237009646324,1.18264921126708,,-3.5803299343349457,,
,8271.0,1369.0,6625.0,1105.0,1896.0,2424.0,2462.0,,,,0.0926312976089456,-0.323985614059479,1.18114968375611,,-3.6047768023373723,,
,8272.0,1369.0,6627.0,1107.0,1903.0,2431.0,2463.0,,,,0.0926290242642456,-0.324359251010995,1.17986250532154,,-3.637315871483648,,
,8277.0,1371.0,6629.0,1107.0,1903.0,2430.0,2462.0,,,,0.0926153956302854,-0.324640447128599,1.17970421074849,,-3.6782004979913507,,
,8276.0,1371.0,6631.0,1108.0,1889.0,2452.0,2457.0,,,,0.0926141865814662,-0.325010742615072,1.17920187522216,,-3.726210683438205,,
,8278.0,1371.0,6632.0,1107.0,1889.0,2436.0,2445.0,,,,0.0925928355847913,-0.326404376938177,1.17505333873501,,-3.778535889957964,,
,8282.0,1370.0,6635.0,1107.0,1899.0,2436.0,2440.0,,,,0.0925930416132439,-0.325938978901718,1.17656004896735,,-3.830765037126206,,
,8285.0,1373.0,6635.0,1108.0,1906.0,2437.0,2450.0,,,,0.092593771479494,-0.326526747082108,1.17499320593346,,-3.876976301040945,,
,8288.0,1372.0,6636.0,1110.0,1903.0,2425.0,2476.0,,,,0.0925869621519295,-0.32671184786898,1.17550015601709,,-3.9099162249471635,,
,8288.0,1372.0,6636.0,1107.0,1903.0,2420.0,2461.0,,,,0.0925854316264719,-0.326476554166106,1.17562662073946,,-3.9212573407568034,,
,8293.0,1374.0,6640.0,1109.0,1904.0,2420.0,2478.0,,,,0.092588851547157,-0.326437925839834,1.17499799326004,,-3.9019235514062918,,
,8292.0,1374.0,6641.0,1109.0,1895.0,2436.0,2476.0,,,,0.0925984520204602,-0.325225189379644,1.17751588869886,,-3.8424714028941223,,
,8297.0,1375.0,6643.0,1111.0,1892.0,2438.0,2477.0,,,,0.09260195043644,-0.325493742515749,1.17794285599733,,-3.733512777708108,,
,8297.0,1375.0,6641.0,1109.0,1897.0,2430.0,2498.0,,,,0.0925919340513169,-0.325738689928981,1.17717193454985,,-3.5661609678607977,,
,8299.0,1374.0,6646.0,1111.0,1902.0,2428.0,2476.0,,,,0.0926005536385784,-0.325815690397177,1.17661039685553,,-3.3324785553371736,,
,8303.0,1377.0,6646.0,1113.0,1906.0,2428.0,2475.0,,,,0.0925968123390824,-0.325755586622172,1.1773008940198,,-3.0259035305801643,,
,8305.0,1380.0,6649.0,1110.0,1906.0,2428.0,2475.0,,,,0.0926018551718264,-0.325392021562485,1.17694732582352,,-2.6416312970233853,,
,8305.0,1378.0,6652.0,1111.0,1899.0,2442.0,2473.0,,,,0.0926033385544368,-0.32562576138106,1.17753622300154,,-2.1769357113380217,,
,8309.0,1375.0,6651.0,1111.0,1904.0,2431.0,2473.0,,,,0.0926096483948949,-0.325271535738054,1.17745382765635,,-1.6314215550876583,,
,8312.0,1379.0,6655.0,1117.0,1903.0,2437.0,2469.0,,,,0.0926049978204922,-0.325549610735658,1.1772064324117,,-1.0072112876871457,,
,8315.0,1381.0,6657.0,1115.0,1902.0,2442.0,2469.0,,,,0.0926025349198332,-0.325275652936018,1.17686180398276,,-0.30907680038176244,,
,8316.0,1378.0,6656.0,1113.0,1904.0,2436.0,2480.0,,,,0.0926019714760142,-0.325486674669528,1.17669565345781,,0.4554713239058565,,
,8318.0,1380.0,6657.0,1112.0,1892.0,2426.0,2477.0,,,,0.0926003956311564,-0.325231126454518,1.17679414226752,,1.2761304287330821,,
,8322.0,1382.0,6664.0,1114.0,1901.0,2422.0,2462.0,,,,0.0926027028063195,-0.32510909255231,1.17728891924385,,2.1397938905857545,,
,8322.0,1382.0,6665.0,1116.0,1896.0,2426.0,2461.0,,,,0.0926074268389398,-0.325216465587765,1.17758836252746,,3.030600899992593,,
,8327.0,1382.0,6663.0,1115.0,1900.0,2433.0,2446.0,,,,0.0926068531132906,-0.324887356487148,1.17850186263958,,3.9300801736167768,,
,8328.0,1380.0,6667.0,1115.0,1903.0,2425.0,2461.0,,,,0.0926136054832803,-0.324442157818875,1.17876543328014,,4.817425809587331,,
,8329.0,1382.0,6671.0,1117.0,1899.0,2428.0,2473.0,,,,0.0926176974560611,-0.324443924755578,1.17909860218016,,5.669941717194014,,
,8332.0,1385.0,6671.0,1117.0,1903.0,2428.0,2470.0,,,,0.0926203556049552,-0.324373017406664,1.17925109154244,,6.463681262689229,,
,8333.0,1385.0,6673.0,1120.0,1910.0,2422.0,2470.0,,,,0.0926158845972429,-0.324209230173625,1.17911885973087,,7.174291551966074,,
,8337.0,1383.0,6676.0,1116.0,1905.0,2438.0,2441.0,,,,0.092615483807432,-0.324453818368284,1.17915254401598,,7.778048679374274,,
,8341.0,1384.0,6678.0,1120.0,1897.0,2424.0,2431.0,,,,0.0926156692426887,-0.324573761795461,1.17873814957946,,8.253043833764554,,
,8342.0,1385.0,6680.0,1121.0,1910.0,2413.0,2465.0,,,,0.0926256194579194,-0.324738496554228,1.17872040126132,,8.58045336778755,,
,8348.0,1387.0,6682.0,1122.0,1907.0,2424.0,2468.0,,,,0.0926229076262734,-0.32416923404558,1.1790078966376,,8.745801874627864,,
,8345.0,1384.0,6683.0,1121.0,1902.0,2433.0,2475.0,,,,0.0926213774543941,-0.32385770074556,1.18009727225383,,8.740109094652812,,
,8349.0,1387.0,6685.0,1123.0,1910.0,2429.0,2459.0,,,,0.092623094044384,-0.324010981153407,1.18006984620483,,8.560802353769962,,
,8352.0,1388.0,6689.0,1121.0,1912.0,2439.0,2464.0,,,,0.0926288591274295,-0.323977184789306,1.18021960832009,,8.212279509575671,,
,8354.0,1389.0,6691.0,1123.0,1907.0,2440.0,2458.0,,,,0.0926291271948075,-0.323974901618933,1.18006342517798,,7.7060259032523355,,
,8355.0,1390.0,6694.0,1122.0,1896.0,2440.0,2459.0,,,,0.092627900650502,-0.323579095561916,1.18061592562496,,7.060224081446764,,
,8359.0,1388.0,6695.0,1123.0,1900.0,2431.0,2461.0,,,,0.0926277286115711,-0.323775168583559,1.18129581617196,,6.298845790876708,,
,8364.0,1392.0,6699.0,1125.0,1898.0,2438.0,2437.0,,,,0.0926348240553728,-0.323035040235973,1.18177145141266,,5.450276406383352,,
,8364.0,1391.0,6700.0,1125.0,1893.0,2439.0,2432.0,,,,0.0926361788714377,-0.323231317651849,1.18174584811461,,4.545582434307245,,
,8366.0,1390.0,6704.0,1123.0,1898.0,2446.0,2445.0,,,,0.0926396218192105,-0.322423501228111,1.18324030170005,,3.6165806563408314,,
,8367.0,1392.0,6704.0,1126.0,1898.0,2442.0,2462.0,,,,0.092643952732015,-0.322301984337566,1.18389132206975,,2.693892412907828,,
,8372.0,1391.0,6709.0,1127.0,1901.0,2436.0,2467.0,,,,0.0926530240210667,-0.32212949632752,1.18452139170043,,1.80516388732064,,
,8373.0,1394.0,6711.0,1126.0,1902.0,2434.0,2451.0,,,,0.092654144439704,-0.322053204505409,1.18570735868662,,0.9736055838122882,,
,8378.0,1392.0,6715.0,1128.0,1901.0,2440.0,2446.0,,,,0.0926627175187474,-0.321922315670452,1.18438922138351,,0.2169593003275703,,
,8378.0,1392.0,6717.0,1127.0,1905.0,2428.0,2474.0,,,,0.0926659643041888,-0.321487432898125,1.18498634163868,,-0.4530515839624322,,
,8379.0,1394.0,6718.0,1129.0,1904.0,2432.0,2494.0,,,,0.0926735733866252,-0.321609472912932,1.18585191819039,,-1.0307842341831297,,
,8380.0,1394.0,6722.0,1128.0,1897.0,2440.0,2493.0,,,,0.0926724780142838,-0.321744049047039,1.18503457339191,,-1.5162912670815534,,
,8375.0,1392.0,6719.0,1129.0,1898.0,2441.0,2485.0,,,,0.0926690838145378,-0.321764025808573,1.18557857746942,,-1.914563214239195,,
,8371.0,1388.0,6716.0,1123.0,1897.0,2449.0,2459.0,,,,0.0926608253257708,-0.322068977547166,1.18599058700348,,-2.2344962216235906,,
,8362.0,1388.0,6712.0,1125.0,1903.0,2438.0,2461.0,,,,0.0926597862328075,-0.321947389404471,1.18603272425943,,-2.4876941985052863,,
,8353.0,1389.0,6711.0,1124.0,1900.0,2426.0,2466.0,,,,0.0926648852909149,-0.321950109070905,1.18474162339343,,-2.6872158114219147,,
,8341.0,1386.0,6699.0,1121.0,1901.0,2431.0,2464.0,,,,0.0926534409431648,-0.322095634106128,1.18408833152181,,-2.8463691836869387,,
,8329.0,1379.0,6690.0,1118.0,1904.0,2430.0,2462.0,,,,0.0926579258877019,-0.322235712263891,1.1836035081462,,-2.977642903987076,,
,8317.0,1376.0,6682.0,1115.0,1896.0,2439.0,2476.0,,,,0.0926652813268034,-0.322132035009115,1.18487419413632,,-3.0918430213782586,,
,8308.0,1379.0,6676.0,1114.0,1888.0,2424.0,2481.0,,,,0.0926649550073753,-0.321942523646471,1.18534339630267,,-3.197483906348752,,
,8295.0,1376.0,6669.0,1112.0,1888.0,2425.0,2480.0,,,,0.0926635316826137,-0.322129410459941,1.18399975362696,,-3.3004575573486816,,
,8284.0,1371.0,6656.0,1110.0,1890.0,2420.0,2481.0,,,,0.092654585972647,-0.322457876779672,1.18402814816636,,-3.4039821011608153,,
,8274.0,1369.0,6648.0,1107.0,1896.0,2422.0,2482.0,,,,0.0926553031140627,-0.322794048850668,1.18350557590974,,-3.5088067534227925,,
,8264.0,1367.0,6638.0,1105.0,1894.0,2425.0,2455.0,,,,0.0926541208518038,-0.322456443249098,1.18304736717089,,-3.6136288229311107,,
,8255.0,1367.0,6630.0,1103.0,1896.0,2422.0,2454.0,,,,0.0926473984121404,-0.322198031567202,1.18378593199607,,-3.7156610669687424,,
,8250.0,1365.0,6627.0,1101.0,1905.0,2435.0,2460.0,,,,0.0926430334665023,-0.322695941739677,1.18320219205233,,-3.811278048640985,,
,8240.0,1361.0,6618.0,1098.0,1905.0,2440.0,2439.0,,,,0.0926425707977793,-0.322657605554459,1.18242161618199,,-3.896670043354344,,
,8236.0,1364.0,6616.0,1099.0,1893.0,2434.0,2456.0,,,,0.0926395214832215,-0.322946393566341,1.18277670774886,,-3.968441571923338,,
,8233.0,1363.0,6609.0,1097.0,1896.0,2427.0,2458.0,,,,0.0926382847295773,-0.322492604897547,1.18292736421067,,-4.02410551715151,,
,8227.0,1360.0,6609.0,1098.0,1900.0,2428.0,2457.0,,,,0.0926413052901155,-0.322234845829275,1.18373064782785,,-4.062439389955509,,
,8224.0,1361.0,6606.0,1097.0,1890.0,2435.0,2456.0,,,,0.0926516148069243,-0.321931709864356,1.18502673003485,,-4.083685264307879,,
,8223.0,1359.0,6601.0,1097.0,1889.0,2433.0,2451.0,,,,0.0926432956818009,-0.321898758700638,1.1850729924165,,-4.089588164626693,,
,8222.0,1360.0,6599.0,1096.0,1905.0,2428.0,2459.0,,,,0.0926472977846291,-0.32189439193593,1.18344311449943,,-4.083278950240468,,
,8216.0,1360.0,6599.0,1096.0,1905.0,2435.0,2459.0,,,,0.0926501733679813,-0.32192918625848,1.1832723619699,,-4.069016949935977,,
,8217.0,1358.0,6596.0,1095.0,1907.0,2443.0,2456.0,,,,0.0926427345875937,-0.32213777088049,1.18259962453432,,-4.051814896146377,,
,8216.0,1359.0,6596.0,1095.0,1897.0,2435.0,2452.0,,,,0.0926392114500088,-0.322058660611603,1.18266175327236,,-4.036974438991439,,
,8215.0,1358.0,6596.0,1095.0,1893.0,2453.0,2452.0,,,,0.0926440918197391,-0.322099475972216,1.183606547672,,-4.029565119644931,,
,8216.0,1358.0,6595.0,1096.0,1896.0,2448.0,2454.0,,,,0.0926386506303162,-0.322224027783039,1.18320313749822,,-4.033883450561294,,
,8214.0,1357.0,6594.0,1092.0,1900.0,2440.0,2461.0,,,,0.0926468634492035,-0.322203593145155,1.18245334401466,,-4.05293164618727,,
,8210.0,1357.0,6593.0,1093.0,1904.0,2439.0,2465.0,,,,0.0926507330949752,-0.322207658723401,1.18230002632994,,-4.0879570859640815,,
,8212.0,1358.0,6595.0,1091.0,1902.0,2434.0,2449.0,,,,0.0926449802591584,-0.322181943936378,1.18322409837783,,-4.138092886573966,,
,8211.0,1358.0,6593.0,1093.0,1903.0,2435.0,2452.0,,,,0.0926464923548814,-0.322238940324228,1.18394484526401,,-4.200135914220767,,
,8210.0,1356.0,6591.0,1091.0,1892.0,2437.0,2437.0,,,,0.092650100051834,-0.322064532220047,1.18361970764661,,-4.26849017332746,,
,8212.0,1356.0,6588.0,1092.0,1903.0,2425.0,2456.0,,,,0.0926554709730886,-0.321825521872685,1.18483444473764,,-4.335290401755609,,
,8211.0,1357.0,6591.0,1091.0,1904.0,2433.0,2450.0,,,,0.0926545969205298,-0.321820979616277,1.18423343586259,,-4.390703999767138,,
,8209.0,1355.0,6590.0,1094.0,1902.0,2428.0,2462.0,,,,0.0926574751149059,-0.321979620181853,1.1834656823411,,-4.423392101430234,,
,8213.0,1356.0,6590.0,1093.0,1895.0,2425.0,2477.0,,,,0.0926536020815833,-0.321771399112211,1.18515827668005,,-4.421096352164486,,
,8211.0,1356.0,6591.0,1092.0,1901.0,2434.0,2463.0,,,,0.0926531382792741,-0.321742196146838,1.18371160372729,,-4.371308940242407,,
,8212.0,1358.0,6591.0,1090.0,1901.0,2425.0,2463.0,,,,0.0926583199614382,-0.321581463205542,1.1847427760323,,-4.261979225799008,,
,8211.0,1359.0,6588.0,1093.0,1900.0,2413.0,2470.0,,,,0.0926614120532315,-0.321630184258801,1.18543386909523,,-4.08220925393131,,
2025-08-05 16:36:48,8210.0,1355.0,6590.0,1091.0,1902.0,2417.0,2478.0,,,2025/08/05 04:36:48 PM,0.0926693059494376,-0.321560603810244,1.18617820312837,,-3.8228916541802738,,
,8207.0,1353.0,6584.0,1090.0,1901.0,2428.0,2466.0,,,,0.0926667276549744,-0.321421049824758,1.18632706124112,,-3.4772474874551937,,
,8208.0,1356.0,6587.0,1089.0,1902.0,2421.0,2478.0,,,,0.0926784449301728,-0.321395000106498,1.18682981040626,,-3.0412296457085177,,
,8207.0,1358.0,6585.0,1093.0,1905.0,2431.0,2471.0,,,,0.0926743690095642,-0.321045014300656,1.18770943748808,,-2.513769903290194,,
,8206.0,1355.0,6585.0,1088.0,1903.0,2432.0,2460.0,,,,0.0926763711517552,-0.321129943546076,1.18740094866944,,-1.8968637357525733,,
,8205.0,1352.0,6580.0,1087.0,1904.0,2445.0,2457.0,,,,0.0926765798691942,-0.321136873544726,1.18722403827083,,-1.1955042843600465,,
,8204.0,1354.0,6582.0,1089.0,1905.0,2432.0,2464.0,,,,0.0926830492128383,-0.320944509297293,1.18853861423088,,-0.41749231102611645,,
,8199.0,1355.0,6581.0,1088.0,1905.0,2439.0,2483.0,,,,0.0926847661603942,-0.321095232078825,1.18852285854078,,0.4268402772471595,,
,8198.0,1353.0,6579.0,1089.0,1901.0,2441.0,2475.0,,,,0.0926813752410981,-0.321086246869903,1.18828333596382,,1.3249517321503237,,
,8197.0,1351.0,6575.0,1085.0,1894.0,2445.0,2475.0,,,,0.0926836693889891,-0.320938840822834,1.18756560833163,,2.2624182515748603,,
,8196.0,1355.0,6571.0,1088.0,1905.0,2442.0,2467.0,,,,0.0926906569684963,-0.320653145914817,1.18779491807416,,3.2232397472048,,
,8195.0,1351.0,6571.0,1086.0,1893.0,2435.0,2477.0,,,,0.0926962475879028,-0.320366420271869,1.19044660664376,,4.190109974007874,,
,8192.0,1351.0,6569.0,1087.0,1897.0,2441.0,2468.0,,,,0.0926965864535201,-0.320148210029629,1.18991912270913,,5.144655140410505,,
,8189.0,1351.0,6567.0,1084.0,1902.0,2428.0,2455.0,,,,0.0927004309902595,-0.319789669272161,1.1916921856024,,6.06766276097339,,
,8190.0,1351.0,6566.0,1087.0,1888.0,2430.0,2458.0,,,,0.09270216955584,-0.319755713705487,1.19203936518196,,6.939336492221091,,
,8190.0,1352.0,6567.0,1088.0,1898.0,2446.0,2447.0,,,,0.0927108759622247,-0.319644995014538,1.19235245898962,,7.739619521983689,,
,8190.0,1352.0,6566.0,1087.0,1906.0,2446.0,2442.0,,,,0.0927131894106953,-0.319219088787753,1.19266571500989,,8.448626431873782,,
,8188.0,1350.0,6565.0,1086.0,1899.0,2438.0,2449.0,,,,0.0927225621924484,-0.319282886409253,1.19368327009011,,9.047210959461253,,
,8190.0,1348.0,6564.0,1086.0,1904.0,2439.0,2450.0,,,,0.09271888194796,-0.319160852872529,1.19393150960244,,9.517676382920985,,
,8192.0,1354.0,6564.0,1087.0,1906.0,2423.0,2453.0,,,,0.092717272205206,-0.319452467895788,1.19384632814119,,9.844609252538202,,
,8193.0,1353.0,6564.0,1087.0,1906.0,2411.0,2464.0,,,,0.0927201021798061,-0.319193366281845,1.19374605646302,,10.015789353760438,,
,8192.0,1354.0,6565.0,1086.0,1904.0,2422.0,2463.0,,,,0.0927209777225432,-0.319247615699605,1.19414686516465,,10.023102846142518,,
,8192.0,1349.0,6564.0,1085.0,1905.0,2438.0,2455.0,,,,0.0927177583222501,-0.319728987287702,1.19260980966503,,9.863365546659747,,
,8192.0,1354.0,6568.0,1089.0,1903.0,2443.0,2463.0,,,,0.0927172435350881,-0.319240562724526,1.19313487228965,,9.538953513151474,,
,8195.0,1354.0,6568.0,1088.0,1907.0,2442.0,2475.0,,,,0.0927185098855447,-0.319257291600021,1.19350512355617,,9.05814215572432,,
,8196.0,1353.0,6569.0,1089.0,1904.0,2440.0,2473.0,,,,0.0927256144377928,-0.319313872043193,1.1944003241755,,8.435075315779974,,
,8197.0,1352.0,6569.0,1085.0,1903.0,2435.0,2470.0,,,,0.0927197544233297,-0.318998983874583,1.19406994213109,,7.6893215070254115,,
,8199.0,1352.0,6570.0,1088.0,1899.0,2438.0,2469.0,,,,0.0927247483180744,-0.319074279719778,1.19344332199982,,6.845021061795799,,
,8204.0,1355.0,6572.0,1092.0,1892.0,2439.0,2458.0,,,,0.0927256771258491,-0.318698939527495,1.19467608803642,,5.929676701706247,,
,8204.0,1355.0,6575.0,1089.0,1894.0,2436.0,2464.0,,,,0.0927342836366876,-0.318784328228155,1.1953440424651,,4.97268161823395,,
,8206.0,1353.0,6572.0,1086.0,1875.0,2439.0,2466.0,,,,0.0927371779102004,-0.318275416342044,1.19608862458715,,4.003707019239108,,
,8207.0,1354.0,6577.0,1088.0,1886.0,2451.0,2460.0,,,,0.0927420368684754,-0.31844334043354,1.19638924507811,,3.051083364059632,,
,8209.0,1357.0,6578.0,1088.0,1894.0,2437.0,2459.0,,,,0.0927380173392184,-0.318280623061561,1.19646873102912,,2.140307415322868,,
,8212.0,1355.0,6581.0,1090.0,1891.0,2428.0,2452.0,,,,0.0927399613621424,-0.318171691899607,1.19704885847321,,1.2927926812940131,,
,8213.0,1357.0,6582.0,1090.0,1896.0,2433.0,2487.0,,,,0.0927446675637726,-0.318196233923473,1.19681636654764,,0.5249553627346616,,
,8214.0,1356.0,6582.0,1089.0,1894.0,2455.0,2463.0,,,,0.0927461379034405,-0.318199817550484,1.19657174784571,,-0.15230623184040648,,
,8219.0,1358.0,6587.0,1092.0,1893.0,2439.0,2448.0,,,,0.0927456016178585,-0.318177917638202,1.19741023539663,,-0.7337196613243294,,
,8221.0,1358.0,6585.0,1092.0,1896.0,2442.0,2462.0,,,,0.0927507427197853,-0.318180409406309,1.19830613224157,,-1.2193527927949743,,
,8224.0,1360.0,6589.0,1092.0,1889.0,2446.0,2471.0,,,,0.092744112210493,-0.318075726133583,1.19710595687856,,-1.6139866287297304,,
,8225.0,1356.0,6591.0,1091.0,1892.0,2438.0,2462.0,,,,0.0927461574763801,-0.318132162996501,1.19837165729062,,-1.92622296160792,,
,8228.0,1359.0,6595.0,1094.0,1902.0,2442.0,2465.0,,,,0.0927529759980594,-0.317913374474691,1.19835091506194,,-2.167418370854327,,
,8230.0,1361.0,6596.0,1095.0,1896.0,2455.0,2445.0,,,,0.0927514736661459,-0.317389377994026,1.1994105689223,,-2.3505417454105273,,
,8232.0,1359.0,6598.0,1094.0,1894.0,2450.0,2438.0,,,,0.0927640849801171,-0.317404104613922,1.20109445553572,,-2.4890494745144722,,
,8234.0,1359.0,6596.0,1095.0,1904.0,2455.0,2449.0,,,,0.0927685787612025,-0.317221078115045,1.20089662078189,,-2.5958619518898582,,
,8236.0,1362.0,6601.0,1094.0,1901.0,2447.0,2446.0,,,,0.0927746971115073,-0.316981799824488,1.20208749731462,,-2.68250887981933,,
,8242.0,1363.0,6604.0,1098.0,1898.0,2445.0,2458.0,,,,0.0927774720920992,-0.316736129331624,1.2030085433781,,-2.7584911992355265,,
,8243.0,1361.0,6606.0,1096.0,1891.0,2444.0,2445.0,,,,0.0927790363503556,-0.316782553294361,1.20411467820301,,-2.83088650703401,,
,8243.0,1362.0,6606.0,1094.0,1894.0,2424.0,2447.0,,,,0.0927845775546354,-0.316494611901951,1.20425594968776,,-2.9042044067286654,,
,8249.0,1363.0,6611.0,1097.0,1894.0,2437.0,2458.0,,,,0.0927806179797235,-0.316518877306689,1.20300419137293,,-2.980479577828808,,
,8255.0,1364.0,6613.0,1096.0,1886.0,2432.0,2472.0,,,,0.092783669845636,-0.316359257455886,1.20329180625129,,-3.0595739288743533,,
,8255.0,1363.0,6614.0,1098.0,1893.0,2430.0,2463.0,,,,0.0927700634398283,-0.316841764332889,1.20126612649546,,-3.1396450764024317,,
,8258.0,1364.0,6615.0,1098.0,1881.0,2430.0,2465.0,,,,0.0927559828576894,-0.317908515532486,1.19863596633465,,-3.2177268411595015,,
,8260.0,1365.0,6618.0,1098.0,1901.0,2417.0,2470.0,,,,0.0927328140536747,-0.318633627406082,1.19634691022472,,-3.290359630051131,,
,8262.0,1363.0,6622.0,1100.0,1900.0,2433.0,2470.0,,,,0.0927085656836265,-0.319913425395706,1.1923904545571,,-3.354206431466597,,
,8266.0,1368.0,6622.0,1098.0,1900.0,2438.0,2463.0,,,,0.0926892860972424,-0.320759869347032,1.18869898593333,,-3.4065951698460375,,
,8268.0,1366.0,6625.0,1098.0,1906.0,2428.0,2472.0,,,,0.0926638261220062,-0.321907136604102,1.18661056433847,,-3.445939841665592,,
,8267.0,1365.0,6623.0,1099.0,1896.0,2440.0,2470.0,,,,0.0926482486422891,-0.322562509847125,1.1839354102993,,-3.4720086296419077,,
,8273.0,1366.0,6629.0,1100.0,1889.0,2441.0,2471.0,,,,0.0926249720317119,-0.32318070053296,1.18145952489142,,-3.4860239493239638,,
,8276.0,1367.0,6632.0,1102.0,1895.0,2414.0,2464.0,,,,0.0926240466022706,-0.323653518614798,1.18068249345411,,-3.490594928020295,,
,8280.0,1367.0,6633.0,1105.0,1899.0,2409.0,2457.0,,,,0.0926208565204866,-0.323652307436259,1.18006010856946,,-3.4894961353351097,,
,8281.0,1369.0,6637.0,1101.0,1885.0,2427.0,2468.0,,,,0.0926117836572685,-0.324523122250896,1.17900534683408,,-3.487317107702238,,
,8285.0,1370.0,6634.0,1102.0,1871.0,2428.0,2481.0,,,,0.0925989920669499,-0.325446582502232,1.17668892644139,,-3.489015208807949,,
,8285.0,1372.0,6641.0,1103.0,1880.0,2430.0,2457.0,,,,0.0925855422586782,-0.326292447242029,1.17396381700426,,-3.4994097247510147,,
,8292.0,1370.0,6641.0,1105.0,1886.0,2430.0,2454.0,,,,0.0925749266612879,-0.326711920573404,1.17406939959203,,-3.5226581110170647,,
,8292.0,1372.0,6645.0,1102.0,1888.0,2436.0,2465.0,,,,0.0925756050637553,-0.327115003048246,1.17329240463126,,-3.5617563463845765,,
,8294.0,1371.0,6649.0,1105.0,1891.0,2433.0,2471.0,,,,0.0925679796753371,-0.327420392510928,1.17204594524163,,-3.618104559851463,,
,8298.0,1375.0,6654.0,1108.0,1894.0,2438.0,2461.0,,,,0.0925648975079504,-0.327042663456365,1.17169806783345,,-3.6911762686962355,,
,8302.0,1374.0,6654.0,1108.0,1892.0,2440.0,2457.0,,,,0.0925682298691296,-0.327363205535635,1.17243750719262,,-3.7783241464509616,,
,8306.0,1372.0,6656.0,1104.0,1898.0,2446.0,2464.0,,,,0.0925628393707426,-0.327489154782342,1.17150119864484,,-3.874746521000241,,
,8309.0,1374.0,6661.0,1110.0,1902.0,2453.0,2447.0,,,,0.092562853265175,-0.327397629519094,1.17244429678588,,-3.973626278973005,,
,8310.0,1377.0,6663.0,1110.0,1896.0,2435.0,2468.0,,,,0.092568175727711,-0.32716766655032,1.17215377645716,,-4.0664378705830915,,
,8317.0,1376.0,6666.0,1108.0,1895.0,2425.0,2462.0,,,,0.0925711996317507,-0.327479591102901,1.17148576823433,,-4.143400620271669,,
,8318.0,1378.0,6669.0,1109.0,1890.0,2431.0,2472.0,,,,0.0925698327667192,-0.327254363818726,1.17192108739479,,-4.194040975930826,,
,8320.0,1380.0,6671.0,1109.0,1884.0,2439.0,2478.0,,,,0.0925691308970894,-0.327249823375605,1.17167703846175,,-4.20781590935693,,
,8327.0,1380.0,6675.0,1112.0,1888.0,2447.0,2476.0,,,,0.0925757658511899,-0.32694814887048,1.17279947736157,,-4.174745569208847,,
,8329.0,1379.0,6676.0,1110.0,1892.0,2446.0,2484.0,,,,0.0925809796073244,-0.326136697412548,1.17301835487079,,-4.086004417278116,,
,8333.0,1381.0,6680.0,1113.0,1892.0,2440.0,2465.0,,,,0.0925886941749194,-0.325992846330771,1.17509051191183,,-3.9344247289600713,,
,8337.0,1381.0,6682.0,1114.0,1900.0,2441.0,2462.0,,,,0.0925985431601564,-0.325906346892648,1.17472490103043,,-3.714873617999173,,
,8342.0,1381.0,6685.0,1113.0,1903.0,2438.0,2474.0,,,,0.092593047397914,-0.326100557185588,1.1755573677214,,-3.424474814962124,,
,8343.0,1382.0,6689.0,1115.0,1898.0,2436.0,2483.0,,,,0.0925877471508448,-0.326087495193441,1.1756796608402,,-3.0626597821950017,,
,8348.0,1382.0,6691.0,1116.0,1897.0,2428.0,2491.0,,,,0.0925860491888917,-0.326145919779025,1.17565641528814,,-2.631049365813343,,
,8345.0,1381.0,6691.0,1114.0,1889.0,2435.0,2487.0,,,,0.0925841949221148,-0.326080981049701,1.17526056213737,,-2.1331860262858338,,
,8346.0,1381.0,6693.0,1114.0,1896.0,2443.0,2482.0,,,,0.0925838734661354,-0.326377351768484,1.17614063456865,,-1.5741555990535385,,
,8341.0,1382.0,6690.0,1113.0,1899.0,2421.0,2473.0,,,,0.0925855085682756,-0.326070914786237,1.17522808561603,,-0.9601535423890522,,
,8331.0,1379.0,6688.0,1113.0,1900.0,2412.0,2473.0,,,,0.092591831393817,-0.325781496808594,1.17644932975997,,-0.29806055337830806,,
,8322.0,1375.0,6679.0,1109.0,1886.0,2435.0,2463.0,,,,0.0925927355185256,-0.325829001679565,1.1762518660963,,0.40490636146586895,,
,8314.0,1375.0,6669.0,1106.0,1888.0,2435.0,2454.0,,,,0.0925961957710714,-0.325667717344906,1.17587115455422,,1.1414102555366892,,
,8302.0,1374.0,6663.0,1105.0,1894.0,2443.0,2451.0,,,,0.0925998815866724,-0.325696482524601,1.1758478212052,,1.9040400203430072,,
,8290.0,1370.0,6653.0,1104.0,1890.0,2439.0,2450.0,,,,0.0925977193510873,-0.32554801342609,1.17546423371769,,2.6851748611799158,,
,8278.0,1367.0,6643.0,1102.0,1897.0,2431.0,2466.0,,,,0.0925996908733275,-0.325762753315436,1.17612583503087,,3.4766887501569843,,
,8270.0,1366.0,6635.0,1098.0,1894.0,2424.0,2473.0,,,,0.0925983435964319,-0.325501305683548,1.17577645300849,,4.269547804717054,,
,8259.0,1361.0,6630.0,1099.0,1897.0,2427.0,2478.0,,,,0.0926001617752082,-0.325723612020443,1.17686490868058,,5.053379184918543,,
,8250.0,1361.0,6617.0,1096.0,1897.0,2431.0,2471.0,,,,0.0926001657393566,-0.32549774561019,1.17655434403319,,5.816104616045997,,
,8236.0,1358.0,6607.0,1091.0,1892.0,2422.0,2466.0,,,,0.092601262753633,-0.325647629952553,1.17697296090137,,6.543731978563329,,
,8228.0,1358.0,6600.0,1088.0,1900.0,2421.0,2457.0,,,,0.0926088177404485,-0.325275433497027,1.17754229716018,,7.220384247349361,,
,8219.0,1355.0,6591.0,1087.0,1894.0,2429.0,2475.0,,,,0.0926087714676575,-0.325275764457746,1.17770151644335,,7.828618391388584,,
,8217.0,1354.0,6589.0,1088.0,1901.0,2430.0,2478.0,,,,0.0926121321736309,-0.325219089696694,1.17753735747392,,8.350051208416254,,
,8210.0,1351.0,6580.0,1086.0,1900.0,2425.0,2457.0,,,,0.0926084034689743,-0.324902204517314,1.17737807158085,,8.76626904146703,,
,8201.0,1352.0,6577.0,1085.0,1895.0,2445.0,2462.0,,,,0.0926195923589155,-0.324842756393396,1.17879897910502,,9.05995895425586,,
,8199.0,1351.0,6570.0,1084.0,1901.0,2448.0,2461.0,,,,0.0926224097585636,-0.324658701023833,1.1790449835932,,9.216165045830667,,
,8198.0,1349.0,6572.0,1084.0,1897.0,2445.0,2456.0,,,,0.0926247896063595,-0.323947518351557,1.17961623211715,,9.223549229205746,,
,8194.0,1350.0,6566.0,1083.0,1899.0,2446.0,2475.0,,,,0.0926341602492321,-0.323895295245895,1.18090053742996,,9.075524174053676,,
,8194.0,1349.0,6561.0,1081.0,1897.0,2443.0,2465.0,,,,0.0926397255289348,-0.323140698174563,1.18175971001581,,8.771129532382414,,
,8193.0,1350.0,6560.0,1083.0,1881.0,2436.0,2465.0,,,,0.0926436933015879,-0.322946401240665,1.18233021420738,,8.315542116774155,,
,8191.0,1350.0,6561.0,1083.0,1892.0,2432.0,2463.0,,,,0.0926492447132334,-0.322497402007807,1.18295980306367,,7.720145325031614,,
,8189.0,1349.0,6560.0,1081.0,1894.0,2436.0,2462.0,,,,0.0926578757356738,-0.322153493639554,1.18412912675367,,7.002128705703567,,
,8189.0,1344.0,6555.0,1081.0,1893.0,2440.0,2471.0,,,,0.092661328402583,-0.322235511567583,1.18443105496966,,6.183638476713587,,
,8187.0,1349.0,6554.0,1082.0,1895.0,2448.0,2456.0,,,,0.0926602130460514,-0.322260267467978,1.18469562480006,,5.290546983157589,,
,8190.0,1347.0,6555.0,1083.0,1898.0,2440.0,2448.0,,,,0.0926643850648427,-0.322232620992781,1.18536032077184,,4.350948022587867,,
,8185.0,1349.0,6551.0,1080.0,1902.0,2443.0,2439.0,,,,0.0926617215790221,-0.322301377368652,1.18432020331513,,3.3935118143210232,,
,8183.0,1347.0,6551.0,1078.0,1898.0,2422.0,2456.0,,,,0.0926643276307234,-0.321983304796555,1.18481361129343,,2.4458450893288046,,
,8184.0,1346.0,6550.0,1081.0,1899.0,2435.0,2466.0,,,,0.0926588492822359,-0.322332353247296,1.18447571005985,,1.5329964930224664,,
,8183.0,1346.0,6547.0,1078.0,1896.0,2434.0,2457.0,,,,0.0926593767387156,-0.32220201701142,1.18297642243275,,0.6762260277675929,,
,8186.0,1346.0,6549.0,1078.0,1896.0,2441.0,2467.0,,,,0.0926511699984261,-0.322893302918679,1.18202346752144,,-0.10787645299159913,,
,8184.0,1347.0,6549.0,1079.0,1892.0,2436.0,2483.0,,,,0.0926522207447706,-0.322803439759628,1.18247236187515,,-0.807878768807285,,
,8183.0,1347.0,6545.0,1079.0,1900.0,2430.0,2478.0,,,,0.0926528401030616,-0.323152397635443,1.18124213581259,,-1.4175954649522693,,
,8183.0,1346.0,6548.0,1080.0,1899.0,2445.0,2479.0,,,,0.0926508377719893,-0.323303107322952,1.18101480444764,,-1.9358098974373559,,
,8182.0,1345.0,6546.0,1078.0,1894.0,2446.0,2471.0,,,,0.0926442518400926,-0.323646870008793,1.18080838776138,,-2.365689284831693,,
,8181.0,1347.0,6547.0,1081.0,1895.0,2444.0,2461.0,,,,0.0926421842012409,-0.323898055944411,1.18074048429245,,-2.7139719803765185,,
,8182.0,1346.0,6546.0,1078.0,1895.0,2437.0,2462.0,,,,0.0926370039745248,-0.324122926001634,1.18027043772365,,-2.9900160722515343,,
,8182.0,1345.0,6546.0,1079.0,1891.0,2442.0,2451.0,,,,0.092631296943407,-0.323992433595134,1.17961459280782,,-3.204799342623468,,
,8179.0,1345.0,6545.0,1080.0,1898.0,2442.0,2481.0,,,,0.0926257524664466,-0.324423643760751,1.17903273976881,,-3.3699538228780743,,
,8178.0,1344.0,6543.0,1080.0,1895.0,2435.0,2484.0,,,,0.092620720092357,-0.32465230471277,1.17903003496881,,-3.496905356179534,,
,8176.0,1344.0,6542.0,1076.0,1893.0,2435.0,2481.0,,,,0.0926163278216222,-0.3250797656597,1.17793479745342,,-3.5961716039103404,,
,8177.0,1344.0,6544.0,1077.0,1884.0,2436.0,2481.0,,,,0.0926123017184506,-0.325577537432897,1.17742076579589,,-3.6768526477817813,,
,8177.0,1343.0,6540.0,1078.0,1889.0,2439.0,2473.0,,,,0.0926109127635016,-0.325631163559789,1.17600971907058,,-3.746328364582969,,
,8176.0,1346.0,6541.0,1077.0,1888.0,2433.0,2470.0,,,,0.0926084446020069,-0.325161999922045,1.17640571987924,,-3.8101574423902176,,
,8174.0,1339.0,6535.0,1077.0,1887.0,2421.0,2453.0,,,,0.0926041061122636,-0.325245640967953,1.17546294449255,,-3.872155496234359,,
2025-08-05 16:36:49,8174.0,1341.0,6538.0,1076.0,1877.0,2426.0,2471.0,,,2025/08/05 04:36:49 PM,0.0925998341369401,-0.325706373923017,1.17472317186266,,-3.9346156517041675,,
,8176.0,1345.0,6539.0,1077.0,1882.0,2440.0,2477.0,,,,0.0925941277618164,-0.326149428075706,1.17439307442765,,-3.9986259807881015,,
,8174.0,1343.0,6535.0,1080.0,1884.0,2439.0,2475.0,,,,0.0925897546027818,-0.326320655200441,1.17304806515701,,-4.064435703245943,,
,8169.0,1342.0,6534.0,1073.0,1883.0,2448.0,2472.0,,,,0.0925841362932369,-0.326412016801313,1.17397655786367,,-4.131825584921095,,
,8170.0,1341.0,6533.0,1074.0,1885.0,2442.0,2482.0,,,,0.092592367914776,-0.326482201363301,1.17320429071644,,-4.200444568676829,,
,8168.0,1343.0,6537.0,1075.0,1885.0,2441.0,2481.0,,,,0.0925862944222244,-0.326445222808021,1.17271567601762,,-4.270081102532276,,
,8173.0,1342.0,6533.0,1074.0,1893.0,2444.0,2471.0,,,,0.0925784576733766,-0.326763187454576,1.17242458105369,,-4.340842841266357,,
,8173.0,1342.0,6532.0,1077.0,1889.0,2433.0,2464.0,,,,0.0925776838812452,-0.326934539266758,1.17177883355477,,-4.413223903054558,,
,8173.0,1341.0,6534.0,1075.0,1884.0,2438.0,2470.0,,,,0.0925692788524516,-0.327351972220817,1.17018790391968,,-4.488046858693161,,
,8174.0,1341.0,6535.0,1077.0,1882.0,2430.0,2481.0,,,,0.0925632183991696,-0.327813599007039,1.16967203620461,,-4.566278070061446,,
,8177.0,1343.0,6536.0,1076.0,1891.0,2427.0,2476.0,,,,0.0925589587175431,-0.328248927867295,1.16957686026596,,-4.6487290031292545,,
,8176.0,1342.0,6537.0,1079.0,1896.0,2430.0,2470.0,,,,0.0925602226364882,-0.328261126589784,1.16761769659333,,-4.735670682914226,,
,8175.0,1344.0,6534.0,1077.0,1893.0,2442.0,2474.0,,,,0.0925500561834028,-0.328856956737512,1.16739536217039,,-4.826401357704963,,
,8178.0,1343.0,6536.0,1077.0,1898.0,2451.0,2472.0,,,,0.0925555406603212,-0.328980356077672,1.16761987569607,,-4.918816997922193,,
,8181.0,1342.0,6537.0,1076.0,1900.0,2422.0,2485.0,,,,0.0925578697433677,-0.328940229007094,1.16697847015089,,-5.009039317110338,,
,8183.0,1343.0,6539.0,1077.0,1901.0,2417.0,2487.0,,,,0.0925531073048985,-0.328666034976498,1.16683085817121,,-5.091155814807537,,
,8183.0,1345.0,6540.0,1077.0,1895.0,2418.0,2485.0,,,,0.0925536878495017,-0.328473860917662,1.16743282336877,,-5.157120488008004,,
,8182.0,1341.0,6539.0,1076.0,1897.0,2437.0,2480.0,,,,0.0925523903707802,-0.328431016026014,1.16811270892878,,-5.1968523071225015,,
,8187.0,1344.0,6545.0,1077.0,1899.0,2440.0,2474.0,,,,0.0925571672874551,-0.32858379505482,1.16805753517914,,-5.198551719870719,,
,8192.0,1344.0,6546.0,1078.0,1892.0,2446.0,2447.0,,,,0.0925568452819226,-0.328169174198403,1.16824444935355,,-5.149234283987527,,
,8191.0,1345.0,6542.0,1078.0,1883.0,2444.0,2424.0,,,,0.0925604625999622,-0.328010135901398,1.16882815514846,,-5.035456673260701,,
,8194.0,1345.0,6547.0,1079.0,1895.0,2432.0,2459.0,,,,0.092561514799803,-0.327856169358702,1.16807421125113,,-4.84418633491303,,
,8198.0,1347.0,6549.0,1080.0,1884.0,2432.0,2467.0,,,,0.0925612733123306,-0.327856955558464,1.16964809833898,,-4.563745806191846,,
,8199.0,1348.0,6553.0,1081.0,1878.0,2432.0,2457.0,,,,0.0925603527142595,-0.327823691998688,1.16887594290284,,-4.1847507487464854,,
,8203.0,1347.0,6555.0,1080.0,1889.0,2429.0,2465.0,,,,0.0925594238274884,-0.327758082980448,1.16877602900792,,-3.700960737153318,,
,8204.0,1346.0,6552.0,1081.0,1896.0,2439.0,2476.0,,,,0.0925619981250102,-0.327597839875554,1.16892356757069,,-3.109973971238422,,
,8208.0,1348.0,6555.0,1081.0,1900.0,2428.0,2474.0,,,,0.0925659720267687,-0.327386019691027,1.16909653273897,,-2.4137176829908946,,
,8212.0,1352.0,6560.0,1082.0,1898.0,2427.0,2473.0,,,,0.0925692347161343,-0.327325919133129,1.17025402243175,,-1.6187094752546634,,
,8214.0,1349.0,6561.0,1079.0,1897.0,2430.0,2472.0,,,,0.0925758652298287,-0.327057147668443,1.17056767502445,,-0.7360861642706055,,
,8215.0,1350.0,6561.0,1081.0,1897.0,2433.0,2484.0,,,,0.0925786769718414,-0.3268604320692,1.1697175905172,,0.21858735175342686,,
,8219.0,1351.0,6565.0,1084.0,1897.0,2428.0,2471.0,,,,0.0925805071661297,-0.326927892204138,1.17109504075414,,1.225707606206423,,
,8223.0,1352.0,6566.0,1084.0,1894.0,2429.0,2472.0,,,,0.0925785494711391,-0.326834577622722,1.17067176325552,,2.262196494568597,,
,8225.0,1352.0,6568.0,1084.0,1894.0,2428.0,2471.0,,,,0.0925776442011042,-0.327220197438687,1.17022362320907,,3.3022181674186504,,
,8226.0,1351.0,6569.0,1084.0,1893.0,2427.0,2479.0,,,,0.0925777045224108,-0.327195012460446,1.17116763854167,,4.3180318613428295,,
,8231.0,1351.0,6573.0,1085.0,1905.0,2418.0,2476.0,,,,0.092572329614011,-0.327151970474022,1.17053028795059,,5.280966773937792,,
,8234.0,1353.0,6577.0,1085.0,1896.0,2426.0,2467.0,,,,0.0925690891590171,-0.327071514504822,1.17018702929006,,6.162504297167315,,
,8236.0,1353.0,6578.0,1086.0,1897.0,2430.0,2472.0,,,,0.0925701311787891,-0.327168739542004,1.17049018938463,,6.935446651720603,,
,8238.0,1355.0,6579.0,1085.0,1890.0,2440.0,2464.0,,,,0.0925664948959421,-0.327034842090815,1.17001448042982,,7.575138936706707,,
,8237.0,1353.0,6579.0,1085.0,1899.0,2442.0,2469.0,,,,0.0925693706114945,-0.326955794596719,1.17001370421013,,8.060694990764476,,
,8246.0,1357.0,6583.0,1088.0,1891.0,2428.0,2482.0,,,,0.0925650389489527,-0.327325169788546,1.17019523155315,,8.37615888469665,,
,8248.0,1356.0,6586.0,1087.0,1893.0,2437.0,2478.0,,,,0.0925669876902355,-0.327636184576381,1.16921220962278,,8.511517070759947,,
,8250.0,1358.0,6587.0,1088.0,1887.0,2430.0,2444.0,,,,0.0925612647027148,-0.327848268576159,1.1685785352928,,8.463465368804874,,
,8255.0,1357.0,6589.0,1088.0,1895.0,2430.0,2447.0,,,,0.0925662405603585,-0.327939871382987,1.16846198677919,,8.235834082967253,,
,8255.0,1358.0,6594.0,1091.0,1890.0,2437.0,2440.0,,,,0.0925650017667046,-0.327742502612179,1.1686978525624,,7.839587186005173,,
,8260.0,1359.0,6596.0,1090.0,1895.0,2442.0,2452.0,,,,0.0925653537240591,-0.327732183906826,1.16956539702433,,7.292340374364081,,
,8263.0,1361.0,6598.0,1090.0,1899.0,2439.0,2456.0,,,,0.0925734577063271,-0.327931973073193,1.16956336677483,,6.617388240760743,,
,8266.0,1361.0,6598.0,1090.0,1898.0,2439.0,2453.0,,,,0.0925729096419107,-0.327520251681344,1.16946351446719,,5.842288588176141,,
,8269.0,1361.0,6601.0,1092.0,1897.0,2440.0,2448.0,,,,0.0925683537607412,-0.327769299859106,1.16968541006838,,4.997112147035971,,
,8272.0,1363.0,6606.0,1093.0,1889.0,2432.0,2473.0,,,,0.0925650337632603,-0.327648762208737,1.16924772054389,,4.112515447780599,,
,8277.0,1364.0,6606.0,1093.0,1886.0,2435.0,2479.0,,,,0.0925645526041763,-0.327938602456607,1.16816587842729,,3.2178218993656134,,
,8275.0,1360.0,6609.0,1092.0,1897.0,2429.0,2481.0,,,,0.0925641552024469,-0.32791570900574,1.16839078491052,,2.339296122739953,,
,8282.0,1363.0,6612.0,1092.0,1897.0,2436.0,2447.0,,,,0.0925689132463382,-0.328118717672528,1.16655698283018,,1.4987713051039502,,
,8282.0,1363.0,6614.0,1094.0,1880.0,2428.0,2460.0,,,,0.0925707572561976,-0.328635518173153,1.16732585793084,,0.7127450121111736,,
,8288.0,1365.0,6619.0,1095.0,1888.0,2416.0,2464.0,,,,0.0925593071795036,-0.328447668698376,1.16677008387328,,-0.007997439710196438,,
,8289.0,1364.0,6617.0,1093.0,1883.0,2418.0,2461.0,,,,0.092556226536211,-0.32890187826656,1.1658210410684,,-0.6582347559632643,,
,8294.0,1366.0,6623.0,1098.0,1893.0,2442.0,2466.0,,,,0.0925527359530518,-0.329244637913672,1.16618051207628,,-1.2376998862158188,,
,8295.0,1367.0,6626.0,1096.0,1897.0,2442.0,2452.0,,,,0.0925479016358003,-0.329237451367871,1.16545543821847,,-1.7501236376408695,,
,8299.0,1366.0,6629.0,1096.0,1890.0,2438.0,2467.0,,,,0.0925465976335402,-0.329344059574132,1.16441927450258,,-2.202080903032141,,
,8304.0,1369.0,6633.0,1098.0,1888.0,2436.0,2464.0,,,,0.0925414773488795,-0.329541287737615,1.16354424673803,,-2.601798824823426,,
,8306.0,1368.0,6634.0,1096.0,1892.0,2436.0,2451.0,,,,0.0925309948935872,-0.330268960624309,1.16186687518895,,-2.9580698497361255,,
,8306.0,1369.0,6639.0,1099.0,1891.0,2441.0,2462.0,,,,0.0925246376952457,-0.330620621836451,1.16031980888692,,-3.279373822477474,,
,8314.0,1372.0,6639.0,1100.0,1891.0,2448.0,2476.0,,,,0.0925224358523409,-0.330950336037167,1.16033107455937,,-3.5732617672625264,,
,8314.0,1370.0,6643.0,1101.0,1893.0,2434.0,2473.0,,,,0.0925148411134143,-0.330836567067795,1.15972039916866,,-3.84600229718221,,
,8318.0,1370.0,6644.0,1102.0,1881.0,2441.0,2463.0,,,,0.0925088880631363,-0.331253576525914,1.15950676446615,,-4.102450619568219,,
,8321.0,1372.0,6649.0,1102.0,1886.0,2426.0,2463.0,,,,0.0925158400557533,-0.331383022878857,1.15984315763415,,-4.3460758358082545,,
,8326.0,1373.0,6651.0,1105.0,1871.0,2437.0,2454.0,,,,0.0925118411993926,-0.331277814998236,1.16005169180182,,-4.579074992222681,,
,8328.0,1373.0,6653.0,1102.0,1872.0,2438.0,2453.0,,,,0.0925024856484308,-0.331518907708182,1.15978554411801,,-4.802508759173485,,
,8332.0,1373.0,6654.0,1101.0,1886.0,2445.0,2448.0,,,,0.0925031705945692,-0.331935577007043,1.15929736117289,,-5.016409135621569,,
,8335.0,1374.0,6658.0,1105.0,1892.0,2444.0,2459.0,,,,0.0925031553379568,-0.331822762737219,1.15879344461284,,-5.219829919092883,,
,8339.0,1376.0,6665.0,1105.0,1888.0,2443.0,2477.0,,,,0.0924941336017578,-0.331930301899787,1.15829763699765,,-5.41083230703444,,
,8342.0,1377.0,6666.0,1108.0,1884.0,2443.0,2467.0,,,,0.0924967534858033,-0.332602837580197,1.1580128853481,,-5.586418056042138,,
,8346.0,1378.0,6665.0,1105.0,1884.0,2456.0,2469.0,,,,0.092496467212636,-0.332179413066081,1.15793178897379,,-5.742438778263361,,
,8348.0,1379.0,6673.0,1107.0,1890.0,2447.0,2465.0,,,,0.0924973036754526,-0.332291411500071,1.15785072155883,,-5.873520266836221,,
,8354.0,1380.0,6674.0,1109.0,1893.0,2439.0,2465.0,,,,0.0924913334237815,-0.332622642812871,1.15841710652453,,-5.973043819482746,,
,8356.0,1383.0,6682.0,1108.0,1894.0,2436.0,2471.0,,,,0.09249379671133,-0.332651270522788,1.15799407279333,,-6.033221821445005,,
,8359.0,1379.0,6682.0,1108.0,1888.0,2438.0,2481.0,,,,0.0924930587421776,-0.332426719663898,1.15717272241532,,-6.045292925214563,,
,8362.0,1382.0,6683.0,1110.0,1902.0,2444.0,2467.0,,,,0.0924931077653613,-0.332179063863859,1.15669600918545,,-5.999844760059601,,
,8365.0,1382.0,6689.0,1111.0,1901.0,2441.0,2449.0,,,,0.0924938706665966,-0.332400173974127,1.15761593150381,,-5.887251855888314,,
,8369.0,1383.0,6691.0,1111.0,1901.0,2438.0,2444.0,,,,0.0924938581707347,-0.332165796216767,1.15791476681724,,-5.69819645085837,,
,8373.0,1385.0,6695.0,1111.0,1897.0,2450.0,2465.0,,,,0.0924934570654534,-0.332351171733776,1.15757752568038,,-5.42422337793064,,
,8372.0,1382.0,6696.0,1111.0,1897.0,2440.0,2446.0,,,,0.0924918384412072,-0.332428162509214,1.15637396233056,,-5.058271081984048,,
,8368.0,1383.0,6697.0,1112.0,1903.0,2438.0,2455.0,,,,0.0924882323624063,-0.332968904530428,1.15542751299541,,-4.5951230435087975,,
,8364.0,1382.0,6696.0,1112.0,1888.0,2445.0,2454.0,,,,0.0924767726153872,-0.333689561150957,1.15533984643368,,-4.031739815720474,,
,8356.0,1382.0,6690.0,1109.0,1893.0,2445.0,2456.0,,,,0.0924684732769713,-0.333753356240969,1.1540886570368,,-3.367459323722552,,
,8347.0,1375.0,6682.0,1104.0,1887.0,2432.0,2462.0,,,,0.0924640176588975,-0.333997358685947,1.1522826309474,,-2.604084419370088,,
,8336.0,1374.0,6671.0,1105.0,1888.0,2445.0,2457.0,,,,0.092462237630083,-0.334618973179492,1.15197977670929,,-1.7459016723292906,,
,8328.0,1373.0,6664.0,1101.0,1891.0,2442.0,2462.0,,,,0.0924527603739108,-0.334861655728044,1.15101138927435,,-0.7996857547155164,,
,8313.0,1369.0,6653.0,1097.0,1897.0,2431.0,2461.0,,,,0.0924534630051615,-0.335114410518033,1.1505595649708,,0.22526353167783025,,
,8303.0,1367.0,6644.0,1097.0,1899.0,2433.0,2484.0,,,,0.0924421235473783,-0.334966497759914,1.15094837481449,,1.3170273052287058,,
,8291.0,1366.0,6635.0,1096.0,1900.0,2440.0,2469.0,,,,0.0924417071027612,-0.33512311845663,1.14946971802664,,2.460924940196483,,
,8281.0,1365.0,6629.0,1093.0,1890.0,2431.0,2476.0,,,,0.092444225834439,-0.335599012677686,1.14900357067122,,3.6393658265762254,,
,8272.0,1361.0,6616.0,1092.0,1895.0,2441.0,2467.0,,,,0.0924292040509185,-0.335745120339545,1.14706374162082,,4.831768616025116,,
,8259.0,1361.0,6608.0,1088.0,1893.0,2420.0,2468.0,,,,0.0924253424564085,-0.336099017532133,1.14745514360537,,6.014639139297487,,
,8253.0,1359.0,6600.0,1087.0,1900.0,2431.0,2483.0,,,,0.0924248499192129,-0.336149636872053,1.14635751878046,,7.161899033498342,,
,8247.0,1357.0,6594.0,1085.0,1901.0,2428.0,2488.0,,,,0.0924134195885867,-0.336663347603888,1.14586360976516,,8.245537356530663,,
,8239.0,1355.0,6585.0,1083.0,1886.0,2433.0,2475.0,,,,0.0924146810751089,-0.336722716862923,1.14639997607117,,9.236616751003659,,
,8236.0,1353.0,6580.0,1082.0,1867.0,2436.0,2483.0,,,,0.0924087836335656,-0.336709340554232,1.14543376281914,,10.106607750568836,,
,8229.0,1351.0,6574.0,1078.0,1892.0,2438.0,2480.0,,,,0.0924106418741605,-0.336889032077571,1.14635442437974,,10.828958705637865,,
,8225.0,1353.0,6570.0,1079.0,1884.0,2428.0,2475.0,,,,0.0924080301529742,-0.337060663909456,1.14584798054587,,11.38074932921994,,
,8224.0,1351.0,6568.0,1078.0,1889.0,2434.0,2477.0,,,,0.0924132229653656,-0.336681158708433,1.14568857882211,,11.744239779500166,,
,8223.0,1351.0,6565.0,1076.0,1893.0,2432.0,2467.0,,,,0.0924188021849902,-0.336615232106448,1.14712025161832,,11.908125916066549,,
,8220.0,1351.0,6561.0,1077.0,1901.0,2415.0,2464.0,,,,0.0924174932205087,-0.336813662921204,1.14643530319432,,11.86834575936167,,
,8216.0,1352.0,6559.0,1079.0,1903.0,2438.0,2465.0,,,,0.0924204742559749,-0.336738039269015,1.14648454891448,,11.628343574360816,,
,8216.0,1350.0,6558.0,1079.0,1910.0,2434.0,2473.0,,,,0.0924168368007669,-0.336568629223842,1.14740916145397,,11.198772705728222,,
,8213.0,1350.0,6555.0,1078.0,1911.0,2433.0,2475.0,,,,0.0924227333860579,-0.336598240959527,1.14699864794539,,10.596691406124547,,
,8213.0,1349.0,6554.0,1076.0,1910.0,2432.0,2479.0,,,,0.0924311965059815,-0.335896060277654,1.14839529025321,,9.844363965040966,,
,8214.0,1349.0,6554.0,1075.0,1907.0,2442.0,2448.0,,,,0.0924357277481698,-0.335734775823949,1.14890616321287,,8.967813331723766,,
,8212.0,1353.0,6551.0,1076.0,1908.0,2447.0,2437.0,,,,0.0924467522739943,-0.335316825905098,1.14989684077525,,7.995278703492845,,
,8211.0,1350.0,6552.0,1078.0,1907.0,2433.0,2433.0,,,,0.092446901535909,-0.33527029532178,1.15025204329799,,6.955716354326151,,
,8207.0,1349.0,6547.0,1074.0,1901.0,2413.0,2449.0,,,,0.0924443197799701,-0.335001371212899,1.15041416107948,,5.877452160020215,,
,8208.0,1349.0,6547.0,1075.0,1895.0,2420.0,2477.0,,,,0.0924493578560002,-0.334954166261844,1.15113705491645,,4.787058055254686,,
,8207.0,1347.0,6547.0,1077.0,1886.0,2435.0,2468.0,,,,0.0924522076527752,-0.33482498590166,1.15091086285994,,3.7084887132634594,,
,8207.0,1349.0,6545.0,1075.0,1885.0,2434.0,2454.0,,,,0.092459787592277,-0.334725850203044,1.15127558933938,,2.6624837549381253,,
,8204.0,1350.0,6542.0,1075.0,1890.0,2411.0,2487.0,,,,0.0924706474988292,-0.334708736031492,1.15181323072916,,1.666217545597085,,
,8204.0,1347.0,6540.0,1073.0,1898.0,2425.0,2467.0,,,,0.092476756793476,-0.334161980599407,1.15192067966939,,0.7331641322486123,,
,8205.0,1347.0,6537.0,1071.0,1896.0,2438.0,2453.0,,,,0.0924786985767014,-0.33432514773228,1.15335008162044,,-0.12686138110175318,,
,8206.0,1349.0,6540.0,1075.0,1902.0,2439.0,2443.0,,,,0.0924864498842921,-0.333696994709811,1.15364475174138,,-0.9075233904887815,,
,8201.0,1348.0,6537.0,1075.0,1902.0,2427.0,2452.0,,,,0.0924863160016864,-0.333369043405987,1.15288491593789,,-1.60568234950126,,
,8200.0,1348.0,6535.0,1073.0,1901.0,2434.0,2459.0,,,,0.0924897055941065,-0.333407370807145,1.15391389854457,,-2.221036222260534,,
,8203.0,1348.0,6535.0,1073.0,1894.0,2436.0,2470.0,,,,0.0924849077313454,-0.333637562229893,1.15334479527921,,-2.7557120860327364,,
,8203.0,1346.0,6534.0,1072.0,1899.0,2425.0,2487.0,,,,0.0924815604303896,-0.33390797510925,1.15376060455117,,-3.213831563881113,,
,8204.0,1349.0,6536.0,1074.0,1894.0,2431.0,2478.0,,,,0.0924850405340841,-0.333736001401011,1.15401410342022,,-3.6010729856086994,,
,8198.0,1345.0,6533.0,1072.0,1896.0,2446.0,2465.0,,,,0.092484660502199,-0.334009537589223,1.15360299340243,,-3.924251354114125,,
,8200.0,1346.0,6531.0,1072.0,1894.0,2447.0,2485.0,,,,0.0924807467697163,-0.333659833284155,1.15368883749535,,-4.19093320247938,,
,8198.0,1346.0,6532.0,1072.0,1895.0,2431.0,2485.0,,,,0.0924796571624384,-0.333361681641052,1.15352117347141,,-4.40909724482875,,
,8197.0,1347.0,6531.0,1074.0,1894.0,2432.0,2492.0,,,,0.0924835923431155,-0.333630500411988,1.15402603119789,,-4.586844174455027,,
,8196.0,1343.0,6529.0,1071.0,1878.0,2430.0,2497.0,,,,0.092481904127264,-0.333651241853181,1.15277301692598,,-4.732151331507911,,
,8195.0,1345.0,6526.0,1072.0,1880.0,2427.0,2507.0,,,,0.092489400904116,-0.333559318933859,1.15452930989841,,-4.852661741787001,,
2025-08-05 16:36:50,8196.0,1346.0,6528.0,1070.0,1892.0,2410.0,2503.0,,,2025/08/05 04:36:50 PM,0.0924822287796972,-0.333484104439394,1.1543172493247,,-4.955493627938737,,
,8195.0,1347.0,6527.0,1073.0,1900.0,2422.0,2495.0,,,,0.0924832315828025,-0.333965085182304,1.15426878772327,,-5.047056836890006,,
,8194.0,1345.0,6522.0,1069.0,1899.0,2426.0,2495.0,,,,0.0924833296516679,-0.333892818008424,1.15391787642653,,-5.1328667994998165,,
,8189.0,1343.0,6524.0,1069.0,1900.0,2436.0,2491.0,,,,0.0924801961034813,-0.334297545066364,1.15339271489825,,-5.217353767426768,,
,8190.0,1346.0,6524.0,1071.0,1896.0,2441.0,2483.0,,,,0.092473102869002,-0.334334891153304,1.15276495676104,,-5.303673412701902,,
,8188.0,1344.0,6520.0,1070.0,1893.0,2441.0,2487.0,,,,0.0924744436693715,-0.334295398268172,1.15201999785415,,-5.393532080794401,,
,8190.0,1346.0,6521.0,1070.0,1882.0,2436.0,2467.0,,,,0.0924758523751585,-0.33426061177315,1.15275187565221,,-5.48704371548824,,
,8191.0,1341.0,6520.0,1068.0,1896.0,2436.0,2466.0,,,,0.0924764250204912,-0.334088789637953,1.15194941101377,,-5.582634464299074,,
,8189.0,1345.0,6519.0,1070.0,1899.0,2435.0,2465.0,,,,0.0924782576228031,-0.334026158537627,1.15300169832854,,-5.67700611593337,,
,8189.0,1343.0,6517.0,1070.0,1899.0,2432.0,2452.0,,,,0.0924703145534524,-0.334255694359318,1.15250181141768,,-5.7651637120866175,,
,8187.0,1343.0,6518.0,1068.0,1892.0,2425.0,2468.0,,,,0.0924700950278237,-0.333808590012953,1.15227648084337,,-5.840508939051365,,
,8192.0,1343.0,6518.0,1069.0,1896.0,2435.0,2472.0,,,,0.0924698471959623,-0.333892860795668,1.15279127526537,,-5.895000232117254,,
,8192.0,1343.0,6518.0,1071.0,1904.0,2425.0,2462.0,,,,0.0924632723125637,-0.333983417441149,1.15230428482031,,-5.919381545382588,,
,8191.0,1344.0,6523.0,1070.0,1903.0,2430.0,2460.0,,,,0.0924649338173095,-0.334361782853861,1.15169498965253,,-5.90348227927851,,
,8195.0,1344.0,6520.0,1071.0,1902.0,2431.0,2468.0,,,,0.0924667595775555,-0.334685500973916,1.15099094725317,,-5.836589490890182,,
,8197.0,1343.0,6520.0,1068.0,1895.0,2443.0,2451.0,,,,0.0924600436557393,-0.33486870903724,1.15177567964107,,-5.70788988535021,,
,8198.0,1348.0,6524.0,1071.0,1906.0,2441.0,2453.0,,,,0.0924597107022685,-0.334604657158808,1.15072316587658,,-5.506973563209616,,
,8200.0,1347.0,6525.0,1071.0,1903.0,2436.0,2449.0,,,,0.0924574723249835,-0.334574865958154,1.1502152074996,,-5.2243849132804225,,
,8202.0,1346.0,6525.0,1070.0,1899.0,2440.0,2453.0,,,,0.0924554320378451,-0.334392410468611,1.15094514720036,,-4.852199641407153,,
,8203.0,1348.0,6528.0,1071.0,1893.0,2435.0,2464.0,,,,0.092456601032968,-0.334559463476958,1.15204365313216,,-4.384602169905721,,
,8203.0,1347.0,6529.0,1071.0,1905.0,2427.0,2461.0,,,,0.092456472607843,-0.334707701651822,1.15071830424301,,-3.8184356385106897,,
,8208.0,1349.0,6531.0,1072.0,1901.0,2445.0,2466.0,,,,0.0924620507186888,-0.335130040329481,1.15107343384645,,-3.1536975491774566,,
,8208.0,1348.0,6534.0,1073.0,1903.0,2445.0,2463.0,,,,0.0924538743426693,-0.335118082809285,1.15130994458598,,-2.3939564798968034,,
,8210.0,1352.0,6534.0,1075.0,1889.0,2429.0,2462.0,,,,0.0924513338638793,-0.335400385914074,1.15070290341819,,-1.5466672420815395,,
,8213.0,1349.0,6535.0,1075.0,1891.0,2440.0,2453.0,,,,0.092457184793463,-0.33536146728782,1.15041512447955,,-0.6233616520770481,,
,8216.0,1350.0,6539.0,1075.0,1896.0,2435.0,2453.0,,,,0.092453029122488,-0.33525125534825,1.14959561451951,,0.3603107540353104,,
,8216.0,1351.0,6537.0,1074.0,1900.0,2431.0,2471.0,,,,0.0924492547337929,-0.335662671039851,1.14967731505378,,1.38472179909329,,
,8218.0,1352.0,6539.0,1075.0,1902.0,2436.0,2464.0,,,,0.0924504560017343,-0.335667273965451,1.14939442089591,,2.4266151645460154,,
,8222.0,1352.0,6542.0,1076.0,1911.0,2443.0,2469.0,,,,0.0924485146770524,-0.335624558213245,1.14976367352829,,3.4596955834068153,,
,8225.0,1349.0,6543.0,1074.0,1906.0,2443.0,2468.0,,,,0.0924473101278475,-0.335837287439228,1.1492698478246,,4.455471094381328,,
,8230.0,1354.0,6547.0,1076.0,1896.0,2443.0,2460.0,,,,0.0924510396860526,-0.33555241073295,1.15017171149397,,5.3843420781240425,,
,8230.0,1353.0,6549.0,1079.0,1898.0,2436.0,2460.0,,,,0.0924510590493829,-0.335169466255237,1.15021610404241,,6.216905305127881,,
,8230.0,1355.0,6547.0,1077.0,1903.0,2446.0,2459.0,,,,0.0924559225277652,-0.334973621895032,1.15016200112809,,6.925414051223951,,
,8234.0,1355.0,6554.0,1077.0,1902.0,2434.0,2468.0,,,,0.0924492163708214,-0.335056548362596,1.1500600158341,,7.485309214388206,,
,8237.0,1353.0,6553.0,1079.0,1898.0,2437.0,2473.0,,,,0.0924503115753668,-0.335131035722445,1.15117817693162,,7.87671407185659,,
,8239.0,1357.0,6556.0,1079.0,1900.0,2425.0,2478.0,,,,0.0924453161266844,-0.335046283360794,1.15047915660447,,8.085770128536723,,
,8239.0,1354.0,6555.0,1079.0,1899.0,2434.0,2473.0,,,,0.0924437695272345,-0.33525991228434,1.14928839282782,,8.105687026518204,,
,8243.0,1354.0,6559.0,1081.0,1907.0,2430.0,2451.0,,,,0.092446193346883,-0.334959669740865,1.14935187162914,,7.937389086225572,,
,8249.0,1359.0,6563.0,1080.0,1899.0,2439.0,2433.0,,,,0.092448868394009,-0.334734171510646,1.14846843652932,,7.589667132316456,,
,8250.0,1358.0,6563.0,1081.0,1898.0,2441.0,2436.0,,,,0.0924464217765586,-0.335144393067676,1.15042087613531,,7.078786947721036,,
,8249.0,1359.0,6562.0,1081.0,1902.0,2433.0,2450.0,,,,0.0924413081342636,-0.335019149050482,1.15078690708189,,6.427561172661359,,
,8253.0,1357.0,6565.0,1079.0,1910.0,2438.0,2458.0,,,,0.092443898865233,-0.335233944075694,1.14875472603942,,5.663951298508063,,
,8256.0,1359.0,6567.0,1083.0,1906.0,2443.0,2463.0,,,,0.0924450234580213,-0.334947785494536,1.14960203224789,,4.819319441844466,,
,8259.0,1359.0,6568.0,1084.0,1901.0,2439.0,2467.0,,,,0.0924454440856279,-0.335306071353741,1.14887125356048,,3.9264859529018343,,
,8263.0,1362.0,6573.0,1084.0,1892.0,2437.0,2465.0,,,,0.0924416361343162,-0.335352723106856,1.14851179982181,,3.0177636796956837,,
,8264.0,1360.0,6571.0,1084.0,1911.0,2433.0,2472.0,,,,0.0924478091299782,-0.335369841733749,1.14854285062499,,2.123133484726947,,
,8266.0,1364.0,6575.0,1085.0,1907.0,2443.0,2433.0,,,,0.0924419471993704,-0.335258454951109,1.14750528187712,,1.2687021923560542,,
,8270.0,1361.0,6579.0,1086.0,1910.0,2437.0,2454.0,,,,0.0924435894296526,-0.335502215850798,1.14873723241862,,0.4755480843222277,,
,8272.0,1362.0,6581.0,1085.0,1905.0,2427.0,2454.0,,,,0.0924455123636397,-0.334942392920019,1.14828566655594,,-0.24098479938111442,,
,8273.0,1363.0,6577.0,1086.0,1902.0,2438.0,2435.0,,,,0.0924442914175754,-0.33520416375141,1.149791582329,,-0.8715284039934632,,
,8279.0,1365.0,6582.0,1087.0,1900.0,2427.0,2436.0,,,,0.0924505503611154,-0.334804182424814,1.14866141682839,,-1.4124958789061928,,
,8280.0,1366.0,6586.0,1087.0,1903.0,2436.0,2441.0,,,,0.0924514740981006,-0.334692857581096,1.14995138073434,,-1.8655120723127023,,
,8284.0,1365.0,6585.0,1089.0,1902.0,2444.0,2454.0,,,,0.0924535015308445,-0.334329651679092,1.15095644416626,,-2.236554609244281,,
,8284.0,1364.0,6585.0,1085.0,1895.0,2439.0,2462.0,,,,0.0924600928069498,-0.33425294303549,1.15123058935061,,-2.534902985459998,,
,8285.0,1366.0,6592.0,1089.0,1900.0,2431.0,2438.0,,,,0.0924627849374317,-0.333811098963874,1.15198749978274,,-2.771994959903992,,
,8290.0,1368.0,6592.0,1090.0,1907.0,2438.0,2451.0,,,,0.0924643984708218,-0.334119297080752,1.15205487737363,,-2.960283159328573,,
,8294.0,1369.0,6597.0,1091.0,1909.0,2442.0,2466.0,,,,0.0924560775229872,-0.33438896558825,1.15171436809684,,-3.1121726163264527,,
,8296.0,1367.0,6597.0,1089.0,1907.0,2445.0,2470.0,,,,0.0924593553582664,-0.334495000159831,1.15123546036486,,-3.239104224370774,,
,8302.0,1369.0,6601.0,1090.0,1899.0,2428.0,2468.0,,,,0.0924583549826216,-0.334690142546132,1.15040799095804,,-3.3508316830579035,,
,8303.0,1369.0,6602.0,1092.0,1906.0,2423.0,2460.0,,,,0.0924553993230474,-0.335020522770072,1.1503792216159,,-3.454921818316445,,
,8306.0,1371.0,6608.0,1092.0,1906.0,2436.0,2459.0,,,,0.0924537630150103,-0.33511255295298,1.14945379654589,,-3.5564911669718335,,
,8312.0,1373.0,6610.0,1093.0,1895.0,2447.0,2465.0,,,,0.0924509260470596,-0.335120106112182,1.14946777771747,,-3.6581759503816933,,
,8313.0,1370.0,6613.0,1092.0,1907.0,2428.0,2462.0,,,,0.0924549524550706,-0.335117543916981,1.14979177085292,,-3.7603180643076546,,
,8314.0,1375.0,6614.0,1096.0,1906.0,2421.0,2463.0,,,,0.0924610843955432,-0.334666062328573,1.15087494828594,,-3.861336154522567,,
,8319.0,1374.0,6618.0,1093.0,1902.0,2431.0,2477.0,,,,0.0924626953839795,-0.334702758711473,1.15077896548309,,-3.9582381174986914,,
,8319.0,1373.0,6620.0,1094.0,1902.0,2440.0,2473.0,,,,0.0924646063577782,-0.334566413138163,1.15134097242923,,-4.047220433458,,
,8321.0,1372.0,6618.0,1094.0,1896.0,2430.0,2462.0,,,,0.0924671172981337,-0.334313181112309,1.15159542345494,,-4.12429300661205,,
,8324.0,1375.0,6626.0,1096.0,1900.0,2430.0,2473.0,,,,0.0924726905314632,-0.333963507438962,1.15304532546726,,-4.185868372060599,,
,8326.0,1377.0,6627.0,1097.0,1899.0,2438.0,2440.0,,,,0.0924747950471141,-0.333448523131017,1.15364772692497,,-4.229262158050839,,
,8331.0,1376.0,6631.0,1098.0,1903.0,2429.0,2427.0,,,,0.0924740966756883,-0.333487632243931,1.15294649562495,,-4.253065674109242,,
,8334.0,1377.0,6632.0,1098.0,1898.0,2421.0,2431.0,,,,0.0924773263132189,-0.333636170747283,1.15370227955797,,-4.257367887194717,,
,8338.0,1380.0,6637.0,1097.0,1905.0,2434.0,2450.0,,,,0.0924834317038265,-0.333711604609674,1.1539723602005,,-4.24381967528851,,
,8342.0,1380.0,6639.0,1102.0,1898.0,2446.0,2454.0,,,,0.0924801382409548,-0.33327398591977,1.15431534188153,,-4.215546353021807,,
,8344.0,1380.0,6643.0,1099.0,1892.0,2445.0,2470.0,,,,0.0924825680513095,-0.333601310120881,1.15481470735491,,-4.176924517559231,,
,8346.0,1381.0,6646.0,1100.0,1883.0,2437.0,2480.0,,,,0.0924835343499728,-0.333488155308342,1.15449802526882,,-4.133246336159743,,
,8349.0,1379.0,6647.0,1101.0,1894.0,2439.0,2447.0,,,,0.0924795027902692,-0.333873156028059,1.15335286366983,,-4.090298758283052,,
,8353.0,1383.0,6647.0,1102.0,1908.0,2455.0,2438.0,,,,0.0924746758438293,-0.33355854515925,1.15338766048291,,-4.053887212948184,,
,8356.0,1381.0,6651.0,1102.0,1911.0,2451.0,2442.0,,,,0.0924793707477519,-0.333448898641379,1.1542241830877,,-4.029333827277046,,
,8355.0,1382.0,6654.0,1101.0,1905.0,2446.0,2470.0,,,,0.0924786964183897,-0.333303694287442,1.15479940804896,,-4.020979953115363,,
,8352.0,1381.0,6651.0,1101.0,1903.0,2453.0,2475.0,,,,0.0924807769597632,-0.333491561344427,1.15471038429814,,-4.031722603250212,,
,8351.0,1381.0,6654.0,1101.0,1909.0,2451.0,2464.0,,,,0.0924728820559938,-0.333629484434276,1.1539211692514,,-4.062614590006609,,
,8342.0,1380.0,6651.0,1102.0,1903.0,2447.0,2463.0,,,,0.0924735466429883,-0.333349235092277,1.15405731552483,,-4.112558305306928,,
,8330.0,1378.0,6642.0,1099.0,1901.0,2430.0,2468.0,,,,0.0924736744956089,-0.333562131381745,1.15361072528163,,-4.178122024058115,,
,8323.0,1373.0,6633.0,1095.0,1903.0,2437.0,2466.0,,,,0.0924735678781827,-0.333144388660753,1.15304756722346,,-4.253503730926897,,
,8314.0,1374.0,6627.0,1095.0,1905.0,2422.0,2475.0,,,,0.0924641946942906,-0.334028963462221,1.15281334936958,,-4.330659260411177,,
,8303.0,1372.0,6616.0,1092.0,1902.0,2443.0,2479.0,,,,0.0924625972255856,-0.334176212468187,1.15184662228981,,-4.399598522331839,,
,8291.0,1369.0,6608.0,1091.0,1901.0,2441.0,2488.0,,,,0.0924621561816559,-0.334610897681722,1.15097829463738,,-4.448837203977366,,
,8281.0,1367.0,6599.0,1086.0,1891.0,2440.0,2475.0,,,,0.0924623146069452,-0.334287428357568,1.15202927698091,,-4.4659749174707635,,
,8272.0,1365.0,6590.0,1086.0,1899.0,2431.0,2456.0,,,,0.0924516792595332,-0.33443665017541,1.1513518628615,,-4.438357906797698,,
,8264.0,1362.0,6581.0,1085.0,1902.0,2438.0,2468.0,,,,0.0924562919207517,-0.334759029653929,1.15071642304373,,-4.353777037036577,,
,8253.0,1360.0,6573.0,1079.0,1902.0,2435.0,2467.0,,,,0.0924529817101853,-0.334786805376801,1.1507244976309,,-4.201149547813636,,
,8247.0,1357.0,6560.0,1079.0,1897.0,2424.0,2481.0,,,,0.0924509617134197,-0.334767044648933,1.15142139133424,,-3.971134752509815,,
,8238.0,1356.0,6553.0,1076.0,1893.0,2430.0,2473.0,,,,0.092453134540366,-0.334315314877008,1.15072070641463,,-3.6566388736348734,,
,8236.0,1359.0,6551.0,1079.0,1887.0,2440.0,2461.0,,,,0.092451776277246,-0.334173675381614,1.15160927608717,,-3.2531727713099428,,
,8226.0,1356.0,6544.0,1077.0,1889.0,2436.0,2452.0,,,,0.0924543320611563,-0.334342117974567,1.15138588995079,,-2.759038847004975,,
,8224.0,1357.0,6540.0,1075.0,1883.0,2442.0,2465.0,,,,0.092453622283035,-0.334283088248092,1.15142665339448,,-2.1753396472517235,,
,8221.0,1354.0,6537.0,1074.0,1893.0,2436.0,2472.0,,,,0.0924524921612184,-0.334506069175591,1.15011955720159,,-1.5058194686656907,,
,8216.0,1355.0,6533.0,1074.0,1901.0,2448.0,2454.0,,,,0.0924594502133705,-0.334386378817866,1.15148505527721,,-0.7565695116882242,,
,8216.0,1352.0,6533.0,1072.0,1904.0,2445.0,2447.0,,,,0.0924546324188947,-0.334256468217203,1.15199638455244,,0.06435595898736993,,
,8217.0,1354.0,6527.0,1074.0,1900.0,2455.0,2448.0,,,,0.0924563683512094,-0.333858288453756,1.1516978081299,,0.947353635994823,,
,8211.0,1354.0,6523.0,1071.0,1908.0,2452.0,2446.0,,,,0.0924569899170307,-0.333902845144967,1.15171325031596,,1.8816536391552778,,
,8213.0,1352.0,6524.0,1070.0,1908.0,2450.0,2446.0,,,,0.0924606146382324,-0.334174254763283,1.15166670697804,,2.8556157382510863,,
,8210.0,1351.0,6522.0,1072.0,1900.0,2439.0,2447.0,,,,0.0924585866279048,-0.333839356878373,1.15278815833865,,3.85690124960066,,
,8210.0,1354.0,6523.0,1072.0,1900.0,2436.0,2455.0,,,,0.0924678079792664,-0.333451394823702,1.15280744426594,,4.8725066471223295,,
,8211.0,1353.0,6524.0,1069.0,1911.0,2443.0,2460.0,,,,0.0924699207945485,-0.333211182307146,1.15321981990437,,5.888673409914943,,
,8210.0,1353.0,6521.0,1070.0,1904.0,2439.0,2452.0,,,,0.0924728505633891,-0.332883223816044,1.15398592611978,,6.890717604746517,,
,8209.0,1355.0,6520.0,1071.0,1902.0,2444.0,2447.0,,,,0.0924710651041613,-0.332841567824751,1.15484436461634,,7.862847532007508,,
,8212.0,1353.0,6522.0,1074.0,1907.0,2443.0,2445.0,,,,0.0924732764185149,-0.33295550930098,1.15398645998641,,8.788053267205886,,
,8208.0,1354.0,6520.0,1070.0,1901.0,2431.0,2453.0,,,,0.0924721048973259,-0.333074775089684,1.15495473182421,,9.648153544736497,,
,8209.0,1352.0,6520.0,1071.0,1897.0,2421.0,2469.0,,,,0.0924692544279541,-0.333141588090989,1.15402042772647,,10.424070944464253,,
,8208.0,1354.0,6520.0,1074.0,1893.0,2422.0,2466.0,,,,0.092471673153563,-0.333242499923946,1.15534406170245,,11.096377009986487,,
,8210.0,1354.0,6519.0,1070.0,1896.0,2433.0,2461.0,,,,0.0924696563157816,-0.333306509168055,1.15522948023472,,11.646109081209147,,
,8204.0,1351.0,6516.0,1070.0,1899.0,2425.0,2458.0,,,,0.0924664931759226,-0.333161378401646,1.15440397454862,,12.055816156590454,,
,8210.0,1352.0,6518.0,1071.0,1898.0,2433.0,2455.0,,,,0.09247273292966,-0.333127557938867,1.15456730652205,,12.310748191278211,,
,8209.0,1353.0,6519.0,1072.0,1888.0,2431.0,2469.0,,,,0.09247137416579,-0.332967517491946,1.15453336854927,,12.400068096866823,,
,8210.0,1354.0,6520.0,1072.0,1883.0,2437.0,2475.0,,,,0.0924705354437616,-0.333286843034608,1.15462370658939,,12.317944663697036,,
,8209.0,1353.0,6520.0,1072.0,1899.0,2428.0,2475.0,,,,0.0924784743051658,-0.332900853684704,1.15367071104706,,12.064383371978906,,
,8207.0,1351.0,6517.0,1070.0,1898.0,2429.0,2476.0,,,,0.0924771998239877,-0.333137887866544,1.15563886771333,,11.645673758089126,,
,8211.0,1354.0,6519.0,1072.0,1894.0,2441.0,2479.0,,,,0.0924784789971746,-0.333150028686338,1.15480590606824,,11.074375048539837,,
,8207.0,1354.0,6521.0,1072.0,1895.0,2427.0,2493.0,,,,0.0924797038278197,-0.333128132955338,1.15536937808284,,10.36881874018358,,
,8208.0,1356.0,6522.0,1073.0,1890.0,2428.0,2487.0,,,,0.0924775163399172,-0.332878663388482,1.15535907785902,,9.552166050633259,,
,8204.0,1354.0,6516.0,1070.0,1896.0,2419.0,2482.0,,,,0.0924760631192587,-0.333023197706206,1.15462975236349,,8.651107998453751,,
,8205.0,1352.0,6516.0,1072.0,1906.0,2416.0,2483.0,,,,0.0924794786408289,-0.332943863827512,1.15552265040436,,7.694328950735095,,
,8203.0,1354.0,6516.0,1069.0,1897.0,2422.0,2470.0,,,,0.0924795130013684,-0.332995921465005,1.1559215206985,,6.710869387106235,,
,8202.0,1351.0,6513.0,1069.0,1895.0,2430.0,2474.0,,,,0.0924883410559155,-0.332796426875677,1.15561787744779,,5.728523057200331,,
,8203.0,1350.0,6510.0,1070.0,1902.0,2440.0,2499.0,,,,0.0924845148729592,-0.332793171519387,1.15585097917982,,4.7723915132109855,,
,8201.0,1351.0,6512.0,1067.0,1899.0,2426.0,2497.0,,,,0.0924831313539587,-0.332491358192044,1.1563139654311,,3.86369852047398,,
,8199.0,1351.0,6512.0,1068.0,1904.0,2438.0,2494.0,,,,0.0924880800807106,-0.332440511818379,1.15626326821715,,3.0189404660499117,,
2025-08-05 16:36:51,8201.0,1352.0,6512.0,1067.0,1900.0,2441.0,2491.0,,,2025/08/05 04:36:51 PM,0.0924904771089978,-0.332048425236283,1.15794896557823,,2.2494181744841186,,
,8198.0,1349.0,6507.0,1069.0,1900.0,2425.0,2474.0,,,,0.0924901438104653,-0.331818295974149,1.15823315428033,,1.5611620456346793,,
,8198.0,1348.0,6508.0,1067.0,1898.0,2430.0,2480.0,,,,0.092488153419329,-0.331724947220264,1.15851984936673,,0.9552286715311272,,
,8201.0,1350.0,6511.0,1069.0,1890.0,2440.0,2482.0,,,,0.0924901308985851,-0.331698276377341,1.15765290072383,,0.42831665737610136,,
,8203.0,1351.0,6512.0,1068.0,1892.0,2436.0,2464.0,,,,0.0924955774781517,-0.331657749101319,1.1588221228102,,-0.02637420876665194,,
,8201.0,1352.0,6510.0,1069.0,1889.0,2436.0,2461.0,,,,0.0924991686882244,-0.331434429177423,1.15943113922579,,-0.4181307906961596,,
,8204.0,1349.0,6505.0,1067.0,1892.0,2427.0,2447.0,,,,0.0924960831091715,-0.331305937189647,1.15939481546751,,-0.7576565651232247,,
,8204.0,1352.0,6509.0,1070.0,1888.0,2415.0,2466.0,,,,0.0924996056877724,-0.33123362896447,1.15926098645191,,-1.0560343684770084,,
,8208.0,1353.0,6513.0,1071.0,1887.0,2426.0,2475.0,,,,0.0925027295935793,-0.331156223848242,1.15946587636992,,-1.3238001507311012,,
,8209.0,1353.0,6515.0,1069.0,1896.0,2423.0,2470.0,,,,0.0925043652260559,-0.330927191653715,1.16004666384198,,-1.5701875615651024,,
,8208.0,1352.0,6511.0,1069.0,1897.0,2402.0,2467.0,,,,0.0925005806296951,-0.330952518550791,1.16018152821893,,-1.8025816248427813,,
,8210.0,1351.0,6514.0,1071.0,1893.0,2428.0,2476.0,,,,0.0925036278855611,-0.331109035359127,1.16055050286592,,-2.026198071018404,,
,8211.0,1352.0,6515.0,1072.0,1894.0,2435.0,2465.0,,,,0.0925046162767224,-0.331009596697181,1.16067844393867,,-2.2439855940919298,,
,8213.0,1353.0,6516.0,1071.0,1892.0,2440.0,2468.0,,,,0.0924993765280376,-0.331301369188317,1.16058123355711,,-2.4567327927828444,,
,8215.0,1351.0,6516.0,1070.0,1890.0,2439.0,2457.0,,,,0.0925062861771223,-0.330582988561794,1.16174392567985,,-2.6633501526660863,,
,8219.0,1356.0,6520.0,1074.0,1884.0,2430.0,2459.0,,,,0.092511048955982,-0.330533760492051,1.16226229506689,,-2.86128956665328,,
,8222.0,1356.0,6524.0,1072.0,1887.0,2424.0,2471.0,,,,0.0925100047762962,-0.330517475982729,1.16174795178413,,-3.047058499255933,,
,8222.0,1355.0,6526.0,1074.0,1890.0,2415.0,2452.0,,,,0.0925108055656858,-0.330595579014663,1.16235762505711,,-3.2167819494231074,,
,8224.0,1355.0,6524.0,1073.0,1892.0,2419.0,2459.0,,,,0.0925152733573612,-0.330335339830037,1.16242279910241,,-3.366762658961709,,
,8229.0,1356.0,6529.0,1073.0,1903.0,2437.0,2472.0,,,,0.0925113882238204,-0.330459565893753,1.16249869046569,,-3.4939897399608286,,
,8233.0,1356.0,6532.0,1074.0,1900.0,2443.0,2485.0,,,,0.0925116876642247,-0.330679656426684,1.1619718999346,,-3.5965501713044388,,
,8235.0,1359.0,6535.0,1075.0,1898.0,2441.0,2488.0,,,,0.0925128457795215,-0.33018012878321,1.1625059993095,,-3.6739078169086867,,
,8238.0,1358.0,6536.0,1077.0,1888.0,2446.0,2484.0,,,,0.0925155065161391,-0.330451212710598,1.16260434755803,,-3.727029862566501,,
,8239.0,1358.0,6536.0,1073.0,1896.0,2428.0,2487.0,,,,0.0925096673323069,-0.33047475436096,1.16156361937073,,-3.7583579135501664,,
,8238.0,1359.0,6540.0,1077.0,1906.0,2426.0,2487.0,,,,0.0925071501997422,-0.330437428834257,1.1618468877385,,-3.771637095006218,,
,8242.0,1360.0,6543.0,1077.0,1899.0,2424.0,2482.0,,,,0.0925088079276274,-0.330614891806368,1.1622289280931,,-3.771628996340773,,
,8246.0,1360.0,6545.0,1078.0,1892.0,2426.0,2475.0,,,,0.0925085563526774,-0.330613082159541,1.16121879056219,,-3.7637421225048393,,
,8248.0,1357.0,6548.0,1076.0,1890.0,2436.0,2467.0,,,,0.0925054537226165,-0.330756084443075,1.16103426469725,,-3.7536166115968044,,
,8251.0,1364.0,6549.0,1077.0,1899.0,2443.0,2474.0,,,,0.0924975877554676,-0.330428391186993,1.16088452237862,,-3.7466991467762654,,
,8256.0,1364.0,6553.0,1080.0,1893.0,2440.0,2469.0,,,,0.0925008162472565,-0.330724268594869,1.16070431745006,,-3.7478406339705663,,
,8258.0,1363.0,6553.0,1082.0,1892.0,2443.0,2476.0,,,,0.092499488636592,-0.330692844386064,1.16012841567534,,-3.760944820652164,,
,8260.0,1364.0,6555.0,1080.0,1891.0,2426.0,2479.0,,,,0.0925013072688209,-0.330932026310767,1.16025165918969,,-3.788691566940623,,
,8263.0,1363.0,6558.0,1081.0,1887.0,2422.0,2474.0,,,,0.0924953315424791,-0.331121770202118,1.15982823356167,,-3.832354134677545,,
,8267.0,1364.0,6563.0,1082.0,1886.0,2428.0,2478.0,,,,0.0924953840490833,-0.330983004913289,1.1599187440297,,-3.8917252074327453,,
,8268.0,1367.0,6564.0,1082.0,1890.0,2422.0,2470.0,,,,0.0925041822787837,-0.330560522738839,1.15963793963226,,-3.965160734491003,,
,8273.0,1366.0,6567.0,1081.0,1885.0,2440.0,2480.0,,,,0.0925009267838902,-0.330503886708068,1.16054601035522,,-4.0497434881817655,,
,8272.0,1364.0,6570.0,1081.0,1904.0,2427.0,2462.0,,,,0.092502867574526,-0.33074038468653,1.16026140295121,,-4.141559030451325,,
,8277.0,1367.0,6574.0,1085.0,1912.0,2423.0,2488.0,,,,0.0925022070520487,-0.330755156180067,1.16134501482225,,-4.236065719021736,,
,8281.0,1367.0,6575.0,1085.0,1909.0,2433.0,2475.0,,,,0.0925084475666031,-0.330613656178983,1.16081326270806,,-4.328528628809555,,
,8283.0,1369.0,6578.0,1087.0,1898.0,2425.0,2443.0,,,,0.0925095487757115,-0.330396913155451,1.16159724664715,,-4.414477311200527,,
,8284.0,1368.0,6579.0,1085.0,1891.0,2442.0,2454.0,,,,0.0925079368532056,-0.330458738231856,1.16170683528036,,-4.490142136598551,,
,8288.0,1370.0,6583.0,1085.0,1897.0,2442.0,2442.0,,,,0.0925094932710103,-0.330326696631684,1.16201260563404,,-4.552825325227459,,
,8291.0,1373.0,6589.0,1087.0,1896.0,2441.0,2471.0,,,,0.0925123264989524,-0.330059875181232,1.16216324775034,,-4.6011701109937695,,
,8291.0,1370.0,6587.0,1088.0,1898.0,2440.0,2479.0,,,,0.0925177359999957,-0.329848022045477,1.16288637854521,,-4.63530253462139,,
,8298.0,1371.0,6590.0,1085.0,1896.0,2446.0,2474.0,,,,0.0925137225713997,-0.329446544225209,1.16332172653752,,-4.656832740813831,,
,8299.0,1372.0,6592.0,1086.0,1892.0,2436.0,2482.0,,,,0.0925153931823923,-0.329842686428893,1.16278753730107,,-4.668714834754879,,
,8302.0,1371.0,6594.0,1087.0,1896.0,2435.0,2454.0,,,,0.0925099547971861,-0.330486378533404,1.16155745511747,,-4.674975517032109,,
,8304.0,1374.0,6598.0,1090.0,1901.0,2431.0,2473.0,,,,0.0925052911288909,-0.330262339296023,1.16084567001073,,-4.680331293329467,,
,8307.0,1374.0,6598.0,1088.0,1895.0,2433.0,2484.0,,,,0.0924995122250581,-0.330808604575175,1.16072516619826,,-4.689721682045205,,
,8308.0,1374.0,6601.0,1091.0,1888.0,2439.0,2489.0,,,,0.0924995314091682,-0.331563922702026,1.15910716003247,,-4.707791543339973,,
,8314.0,1379.0,6605.0,1091.0,1897.0,2433.0,2480.0,,,,0.0924952976473021,-0.331927085802821,1.15885432271491,,-4.7383597561571955,,
,8315.0,1377.0,6607.0,1091.0,1897.0,2425.0,2476.0,,,,0.0924855808812966,-0.331791911489673,1.15844219789985,,-4.783914250386465,,
,8317.0,1376.0,6608.0,1092.0,1894.0,2434.0,2472.0,,,,0.0924861908745999,-0.332013039730922,1.15856136383592,,-4.845174797466097,,
,8322.0,1376.0,6614.0,1094.0,1898.0,2436.0,2474.0,,,,0.0924828404104719,-0.332201600362702,1.15822589206418,,-4.920764506206908,,
,8324.0,1381.0,6616.0,1094.0,1894.0,2434.0,2465.0,,,,0.0924819139957574,-0.332124946007652,1.1564305250134,,-5.007027796440261,,
,8326.0,1379.0,6620.0,1094.0,1894.0,2431.0,2465.0,,,,0.0924729688545647,-0.332153199418561,1.15609560316102,,-5.098025534468876,,
,8330.0,1379.0,6623.0,1096.0,1899.0,2438.0,2478.0,,,,0.0924695059304985,-0.332476031759886,1.1564841595224,,-5.185725793807755,,
,8336.0,1380.0,6622.0,1095.0,1902.0,2438.0,2452.0,,,,0.0924707880643164,-0.332738508787714,1.15587936454716,,-5.26039087607457,,
,8336.0,1381.0,6629.0,1097.0,1898.0,2446.0,2463.0,,,,0.0924656478635246,-0.333153049465097,1.15496158321661,,-5.311139121640049,,
,8341.0,1384.0,6630.0,1097.0,1894.0,2448.0,2474.0,,,,0.0924576655566156,-0.333245564219981,1.15452712968865,,-5.326637250722538,,
,8343.0,1384.0,6636.0,1099.0,1895.0,2428.0,2480.0,,,,0.0924571566856076,-0.333285367968133,1.15470972548598,,-5.295860192421066,,
,8346.0,1382.0,6635.0,1096.0,1896.0,2447.0,2472.0,,,,0.0924532890788805,-0.334054873813668,1.15409288232361,,-5.208844165962389,,
,8350.0,1387.0,6641.0,1099.0,1902.0,2444.0,2471.0,,,,0.0924481173973893,-0.333880251837325,1.15188578519362,,-5.05735641692131,,
,8356.0,1385.0,6645.0,1100.0,1900.0,2443.0,2474.0,,,,0.0924495560445395,-0.333851709666443,1.15310497310418,,-4.835411061233761,,
,8356.0,1388.0,6646.0,1100.0,1893.0,2441.0,2471.0,,,,0.0924446458501375,-0.334268148273695,1.15271324204431,,-4.539574248395688,,
,8360.0,1387.0,6649.0,1103.0,1899.0,2444.0,2471.0,,,,0.0924409343727538,-0.334265490268148,1.15193550786421,,-4.169022786246338,,
,8363.0,1388.0,6652.0,1103.0,1894.0,2437.0,2466.0,,,,0.0924385868996404,-0.334599066255696,1.15107049485239,,-3.725347466940081,,
,8368.0,1389.0,6659.0,1103.0,1885.0,2450.0,2478.0,,,,0.0924381531064339,-0.334847914549942,1.15121750689598,,-3.212123404056647,,
,8373.0,1390.0,6660.0,1103.0,1888.0,2451.0,2473.0,,,,0.0924345187040628,-0.335090430593058,1.15097677824896,,-2.6343012718823258,,
,8375.0,1388.0,6663.0,1103.0,1881.0,2444.0,2485.0,,,,0.0924276316839996,-0.335595156408524,1.14933484154019,,-1.9975011314730613,,
,8376.0,1390.0,6666.0,1105.0,1893.0,2430.0,2480.0,,,,0.0924198325522619,-0.335662568827902,1.15035769544837,,-1.3073100516759273,,
,8382.0,1392.0,6671.0,1108.0,1888.0,2430.0,2475.0,,,,0.0924189085446997,-0.336236950865969,1.14910001284829,,-0.5686921621378886,,
,8384.0,1392.0,6674.0,1104.0,1890.0,2431.0,2482.0,,,,0.0924118010769235,-0.335799893585984,1.14805054077004,,0.21438717869794713,,
,8388.0,1393.0,6678.0,1107.0,1886.0,2428.0,2477.0,,,,0.092413641014151,-0.336268308095195,1.14853011696823,,1.0390430523166103,,
,8388.0,1392.0,6678.0,1107.0,1898.0,2437.0,2476.0,,,,0.0924065960166908,-0.336605448634587,1.14719089370585,,1.9032131769818927,,
,8390.0,1393.0,6682.0,1107.0,1894.0,2439.0,2460.0,,,,0.0924042814171867,-0.336829137218641,1.14727178649406,,2.8050600073965564,,
,8389.0,1394.0,6681.0,1107.0,1893.0,2445.0,2450.0,,,,0.0924074249385456,-0.33708332067856,1.1463005802126,,3.7420821607606802,,
,8380.0,1390.0,6677.0,1106.0,1883.0,2446.0,2461.0,,,,0.0924037169093848,-0.337146492090485,1.14623472084542,,4.710034176645069,,
,8372.0,1389.0,6674.0,1104.0,1892.0,2441.0,2465.0,,,,0.0924001805234369,-0.337473214105983,1.14522523645359,,5.7017960099060225,,
,8363.0,1388.0,6663.0,1104.0,1888.0,2455.0,2480.0,,,,0.0924031441245635,-0.337343802407442,1.14593892395691,,6.706361961484391,,
,8354.0,1386.0,6658.0,1101.0,1883.0,2440.0,2474.0,,,,0.0923986501617979,-0.337445173189727,1.14528489808766,,7.708127026531571,,
,8346.0,1387.0,6652.0,1102.0,1879.0,2443.0,2478.0,,,,0.0923999941130563,-0.337298681249679,1.1450103326844,,8.686632978334531,,
,8334.0,1383.0,6642.0,1096.0,1896.0,2436.0,2486.0,,,,0.0924005052158877,-0.337422634999942,1.14516192022108,,9.616895711231885,,
,8323.0,1380.0,6636.0,1096.0,1899.0,2444.0,2472.0,,,,0.0924003642618738,-0.337434302600479,1.14546929490527,,10.470371370149671,,
,8311.0,1379.0,6622.0,1092.0,1894.0,2428.0,2471.0,,,,0.0923999961248499,-0.337335112627453,1.14560698886354,,11.216537176783904,,
,8304.0,1378.0,6614.0,1091.0,1889.0,2425.0,2464.0,,,,0.092398859375347,-0.33749194495836,1.14495869245702,,11.824973269037663,,
,8292.0,1374.0,6607.0,1086.0,1887.0,2444.0,2463.0,,,,0.0924075802747573,-0.337313776527574,1.14534619351276,,12.267747807798964,,
,8286.0,1372.0,6596.0,1087.0,1883.0,2436.0,2483.0,,,,0.0924024681822168,-0.33759905898569,1.14531949817319,,12.521844808816816,,
,8278.0,1370.0,6589.0,1085.0,1890.0,2431.0,2471.0,,,,0.0924025886147947,-0.337468018350046,1.14523453163032,,12.571346925007848,,
,8274.0,1370.0,6582.0,1084.0,1891.0,2439.0,2465.0,,,,0.0923964352929182,-0.337265838256546,1.14495716304198,,12.409101920020897,,
,8266.0,1366.0,6575.0,1080.0,1900.0,2446.0,2451.0,,,,0.0923939884668404,-0.337574915163715,1.14445511333434,,12.03766090726622,,
,8262.0,1367.0,6571.0,1081.0,1895.0,2442.0,2450.0,,,,0.0923939238052114,-0.337660882851215,1.14442631383576,,11.46936881240232,,
,8260.0,1369.0,6568.0,1082.0,1892.0,2439.0,2454.0,,,,0.0923947680846295,-0.337767232200956,1.14383203372949,,10.725596839567745,,
,8257.0,1366.0,6566.0,1083.0,1892.0,2438.0,2463.0,,,,0.0923874837031904,-0.338168843919718,1.14321361464055,,9.835213719791044,,
,8253.0,1367.0,6562.0,1079.0,1890.0,2443.0,2467.0,,,,0.0923866629928856,-0.338371765947013,1.14290856248967,,8.832478772629464,,
,8254.0,1365.0,6563.0,1077.0,1889.0,2440.0,2477.0,,,,0.0923930183215661,-0.338378134891068,1.14258102806889,,7.754592600184992,,
,8253.0,1366.0,6556.0,1080.0,1887.0,2441.0,2454.0,,,,0.0923793418717927,-0.338491762579386,1.14201467802695,,6.639157074716441,,
,8251.0,1368.0,6558.0,1079.0,1890.0,2432.0,2440.0,,,,0.0923824428083227,-0.338625604992406,1.14192109577548,,5.521780285578157,,
,8247.0,1366.0,6557.0,1080.0,1887.0,2433.0,2449.0,,,,0.092386171757985,-0.33836850936326,1.14271471106306,,4.434023538230873,,
,8246.0,1367.0,6555.0,1079.0,1896.0,2444.0,2462.0,,,,0.09238442064628,-0.338292640756153,1.14158848206038,,3.40183538855033,,
,8246.0,1369.0,6557.0,1079.0,1899.0,2451.0,2473.0,,,,0.0923872096879075,-0.338345496021501,1.14199235842002,,2.4445593017001737,,
,8248.0,1368.0,6554.0,1078.0,1896.0,2446.0,2462.0,,,,0.0923890345865615,-0.338468840827471,1.14224084687948,,1.5745426396353455,,
,8244.0,1368.0,6552.0,1079.0,1901.0,2443.0,2469.0,,,,0.0923834123088956,-0.338300453598274,1.14243751150675,,0.7973200566690185,,
,8241.0,1364.0,6553.0,1077.0,1896.0,2429.0,2489.0,,,,0.0923906957405942,-0.338384006546223,1.14207645768413,,0.11229786118538145,,
,8244.0,1364.0,6549.0,1077.0,1905.0,2442.0,2482.0,,,,0.092390663315092,-0.338112669002855,1.14205652044844,,-0.4861695542935614,,
,8243.0,1364.0,6550.0,1078.0,1905.0,2432.0,2462.0,,,,0.0923925058643871,-0.337760122728719,1.14252513139659,,-1.0074425908737845,,
,8242.0,1364.0,6547.0,1076.0,1900.0,2435.0,2460.0,,,,0.0923953830355782,-0.338000307321095,1.14395587718542,,-1.4631389276227231,,
,8241.0,1364.0,6546.0,1075.0,1886.0,2421.0,2471.0,,,,0.0923975669497722,-0.338119521628,1.14336414282224,,-1.8656921262681148,,
,8242.0,1365.0,6546.0,1078.0,1880.0,2424.0,2478.0,,,,0.0923959205430573,-0.337572662924713,1.1436113691253,,-2.227048408912785,,
,8243.0,1364.0,6548.0,1079.0,1899.0,2430.0,2479.0,,,,0.0924035540341888,-0.337589413491238,1.1434542798558,,-2.5576011330069752,,
,8241.0,1365.0,6547.0,1075.0,1891.0,2439.0,2467.0,,,,0.0924003054995329,-0.337815080085347,1.14378096967457,,-2.865434329594507,,
,8245.0,1366.0,6547.0,1077.0,1897.0,2434.0,2467.0,,,,0.0923944801528431,-0.337857262171372,1.14288546569162,,-3.155914875452338,,
,8242.0,1365.0,6544.0,1078.0,1886.0,2429.0,2451.0,,,,0.0923934846508188,-0.337817634589911,1.14256454368812,,-3.4316393767412006,,
