TimeLabel,MEAS1_PPG1,MEAS1_PPG2,MEAS1_PPG3,MEAS1_PPG4,ACCX,ACCY,ACCZ,HR_timestamp,HR_value,radar_timestamp,phase_rx0,phase_rx1,phase_rx2,timestep,n_process,original_rate,calculated_rate
2025-08-06 23:34:46,7695.0,1278.0,9546.0,2560.0,2294.0,3041.0,1120.0,2025-08-06 23:35:19,84.0,2025/08/06 11:34:46 PM,-0.0933747491250356,-2.34294463149764,0.0136295347238383,2025/08/06 11:34:46 PM,-4.497160823279504,13.523666381835938,12.25
,7698.0,1281.0,9552.0,2563.0,2294.0,3042.0,1117.0,2025-08-06 23:35:20,85.0,,-0.0931351068446653,-2.34271693277505,0.0139931506556121,2025/08/06 11:34:56 PM,-4.705944063809374,13.333333969116213,11.714285714285715
,7697.0,1281.0,9551.0,2564.0,2313.0,3041.0,1093.0,2025-08-06 23:35:21,85.0,,-0.0929452435168694,-2.34204237591713,0.0144887299065471,2025/08/06 11:35:06 PM,-4.896357030954934,12.857142448425291,13.012931779415853
,7695.0,1281.0,9551.0,2564.0,2304.0,3046.0,1088.0,2025-08-06 23:35:22,86.0,,-0.0928475315625742,-2.34137204141288,0.0146209399308127,2025/08/06 11:35:16 PM,-5.069450462024549,11.93317413330078,12.32276897414512
,7695.0,1277.0,9552.0,2562.0,2318.0,3043.0,1104.0,2025-08-06 23:35:23,86.0,,-0.0928626726857092,-2.34143226777639,0.0147559525340529,2025/08/06 11:35:26 PM,-5.226611180498895,12.185214996337892,12.940630797773647
,7694.0,1276.0,9549.0,2563.0,2327.0,3043.0,1092.0,2025-08-06 23:35:24,86.0,,-0.0928709513882402,-2.34219015475388,0.014421264799312,2025/08/06 11:35:36 PM,-5.369490979738643,12.744265556335447,13.718317219754377
,7696.0,1280.0,9551.0,2564.0,2312.0,3047.0,1109.0,2025-08-06 23:35:25,86.0,,-0.0930949060649845,-2.34306126296548,0.0140186329965327,2025/08/06 11:35:46 PM,-5.499889704788228,12.95896339416504,12.632978723404257
,7694.0,1281.0,9553.0,2566.0,2306.0,3048.0,1097.0,2025-08-06 23:35:25,85.0,,-0.0932402946256415,-2.34410941031549,0.0136174470666125,2025/08/06 11:35:56 PM,-5.619595688953978,13.100436210632324,13.929146537842204
,7689.0,1279.0,9551.0,2561.0,2335.0,3045.0,1103.0,2025-08-06 23:35:27,85.0,,-0.0933858274769638,-2.34411415848884,0.0133289338186494,2025/08/06 11:36:06 PM,-5.730194981907078,13.353115081787108,12.806925853875702
,7692.0,1279.0,9551.0,2566.0,2327.0,3044.0,1134.0,2025-08-06 23:35:28,85.0,,-0.0936315649180946,-2.34464428987506,0.0131590819456826,2025/08/06 11:36:16 PM,-5.832867115169228,12.968299865722656,14.07407407407408
,7692.0,1282.0,9552.0,2567.0,2319.0,3047.0,1115.0,2025-08-06 23:35:28,85.0,,-0.0937856630578166,-2.3452617816871,0.0132597593293182,2025/08/06 11:36:26 PM,-5.9281889888137025,14.009339332580566,11.77489177489177
,7694.0,1280.0,9553.0,2566.0,2323.0,3048.0,1094.0,2025-08-06 23:35:30,86.0,,-0.0938140219441953,-2.34565674256883,0.0128339304322462,2025/08/06 11:36:36 PM,-6.0159697974997295,13.422819137573242,11.79304364582331
,7692.0,1282.0,9553.0,2564.0,2320.0,3046.0,1113.0,2025-08-06 23:35:31,86.0,,-0.0938835505854414,-2.34597353837846,0.0130002746606619,2025/08/06 11:36:46 PM,-6.095138829893995,12.95896339416504,12.83459162663007
,7690.0,1283.0,9555.0,2564.0,2321.0,3043.0,1119.0,2025-08-06 23:35:32,86.0,,-0.0939817415817998,-2.3460077594257,0.0127946403833139,2025/08/06 11:36:56 PM,-6.163704497047907,12.278308868408203,11.650485436893192
,7693.0,1282.0,9555.0,2566.0,2327.0,3044.0,1115.0,2025-08-06 23:35:33,86.0,,-0.0942011274277696,-2.34649925509073,0.0120638113524403,2025/08/06 11:37:06 PM,-6.218797013748336,12.379642486572266,11.881188118811888
,7692.0,1282.0,9556.0,2566.0,2334.0,3039.0,1102.0,2025-08-06 23:35:34,87.0,,-0.094430770421246,-2.34683690125952,0.0121998853627937,2025/08/06 11:37:16 PM,-6.2567988040737,12.508686065673828,11.594473487677378
,7689.0,1278.0,9550.0,2565.0,2323.0,3034.0,1108.0,2025-08-06 23:35:35,87.0,,-0.0945012626821986,-2.34788494394388,0.012313718513585,2025/08/06 11:37:26 PM,-6.273556398917424,12.244897842407228,13.910479764138294
,7692.0,1282.0,9554.0,2569.0,2313.0,3034.0,1100.0,2025-08-06 23:35:36,87.0,,-0.0947300677744698,-2.34876872687857,0.0117720294953362,2025/08/06 11:37:36 PM,-6.264656612484261,12.430938720703123,13.333333333333334
,7691.0,1283.0,9556.0,2569.0,2312.0,3037.0,1105.0,2025-08-06 23:35:37,87.0,,-0.0948726219880626,-2.3492376541501,0.0117840056729009,,-6.225740246715648,,
,7691.0,1283.0,9557.0,2568.0,2307.0,3034.0,1097.0,2025-08-06 23:35:38,88.0,,-0.0949865322677814,-2.34934086017101,0.0115604817326401,,-6.152820804724436,,
,7691.0,1281.0,9557.0,2568.0,2305.0,3036.0,1126.0,2025-08-06 23:35:39,88.0,,-0.0951221059601876,-2.34979290087078,0.0109758828229556,,-6.042575103754335,,
,7692.0,1283.0,9558.0,2572.0,2341.0,3040.0,1128.0,2025-08-06 23:35:40,88.0,,-0.0952028214932815,-2.35030454836222,0.0109317132357642,,-5.8925770744954775,,
,7691.0,1286.0,9561.0,2570.0,2307.0,3032.0,1129.0,2025-08-06 23:35:41,88.0,,-0.0952472187014315,-2.35068062549522,0.0108975556714118,,-5.7014540194991365,,
,7692.0,1285.0,9559.0,2572.0,2297.0,3034.0,1131.0,2025-08-06 23:35:42,88.0,,-0.095174533531292,-2.3505832300559,0.0106846925067246,,-5.468954476827084,,
,7690.0,1282.0,9554.0,2571.0,2289.0,3036.0,1128.0,2025-08-06 23:35:43,88.0,,-0.0951781367667165,-2.35038225888072,0.0107735048055031,,-5.1959271276672165,,
,7692.0,1284.0,9558.0,2568.0,2259.0,3029.0,1131.0,2025-08-06 23:35:44,88.0,,-0.0951346014228345,-2.35013332942461,0.0109430106729619,,-4.884219726373811,,
,7691.0,1284.0,9557.0,2571.0,2280.0,3023.0,1117.0,2025-08-06 23:35:45,88.0,,-0.0950303434567384,-2.34986428729553,0.0111654930198215,,-4.536514900746644,,
,7691.0,1284.0,9558.0,2571.0,2287.0,3030.0,1108.0,2025-08-06 23:35:46,88.0,,-0.0947480310638746,-2.34880865814323,0.0113346974314575,,-4.156125201852858,,
,7690.0,1283.0,9557.0,2570.0,2291.0,3031.0,1118.0,2025-08-06 23:35:47,87.0,,-0.0947643054414639,-2.34871593463011,0.0119251715865954,,-3.7467725055468426,,
,7693.0,1285.0,9560.0,2572.0,2294.0,3031.0,1123.0,2025-08-06 23:35:48,88.0,,-0.0947463989331549,-2.3483749020458,0.011767623617375,,-3.312376443153028,,
,7693.0,1286.0,9561.0,2572.0,2282.0,3030.0,1093.0,2025-08-06 23:35:49,88.0,,-0.0946973265546377,-2.34769434343089,0.0121150599700489,,-2.8568728272728876,,
,7693.0,1285.0,9562.0,2573.0,2285.0,3037.0,1090.0,2025-08-06 23:35:50,88.0,,-0.0944243361028275,-2.34715222857658,0.012347598285753,,-2.3840763524201267,,
,7691.0,1285.0,9559.0,2572.0,2296.0,3049.0,1100.0,2025-08-06 23:35:51,88.0,,-0.0941092117408582,-2.34700073684588,0.0123306310955784,,-1.897593293596872,,
,7691.0,1286.0,9562.0,2574.0,2324.0,3044.0,1085.0,2025-08-06 23:35:52,88.0,,-0.0940536762594209,-2.34644844010944,0.0125363976737713,,-1.4007814776882705,,
,7695.0,1288.0,9562.0,2576.0,2299.0,3038.0,1117.0,2025-08-06 23:35:53,87.0,,-0.0939569620194254,-2.34627825105013,0.012625941768365,,-0.8967486727541827,,
,7695.0,1287.0,9562.0,2576.0,2306.0,3039.0,1119.0,2025-08-06 23:35:54,86.0,,-0.094004119353063,-2.34604641694894,0.012556716136594,,-0.3883779797280463,,
,7694.0,1286.0,9560.0,2575.0,2302.0,3034.0,1115.0,2025-08-06 23:35:55,85.0,,-0.0941090389326814,-2.3465840214517,0.0124875336466616,,0.12163058800665803,,
,7694.0,1287.0,9560.0,2576.0,2320.0,3042.0,1100.0,2025-08-06 23:35:56,85.0,,-0.0941758873074152,-2.34683166773756,0.0124632495218498,,0.6307109236130279,,
,7692.0,1285.0,9564.0,2577.0,2330.0,3041.0,1091.0,2025-08-06 23:35:57,85.0,,-0.0943624259564307,-2.34728503126284,0.0118775037142597,,1.136380205082592,,
,7694.0,1290.0,9562.0,2577.0,2335.0,3046.0,1100.0,2025-08-06 23:35:58,85.0,,-0.0944340464572746,-2.34811075589972,0.0120440938475007,,1.6361909111041029,,
,7694.0,1287.0,9564.0,2576.0,2304.0,3044.0,1100.0,2025-08-06 23:35:59,85.0,,-0.0944919503032186,-2.3478144625719,0.0118889751333651,,2.1276876437813286,,
,7696.0,1288.0,9561.0,2577.0,2299.0,3042.0,1128.0,2025-08-06 23:36:00,85.0,,-0.0945789552139755,-2.34841583193062,0.0116488514065841,,2.6083690439589278,,
,7697.0,1290.0,9564.0,2578.0,2324.0,3049.0,1134.0,2025-08-06 23:36:01,85.0,,-0.0945235592659056,-2.34874484000742,0.0114729904406254,,3.075653656297175,,
,7698.0,1289.0,9564.0,2578.0,2311.0,3049.0,1127.0,2025-08-06 23:36:02,85.0,,-0.094676715750602,-2.34919410091805,0.0114738162198278,,3.5268485386533697,,
,7696.0,1289.0,9565.0,2579.0,2289.0,3050.0,1115.0,2025-08-06 23:36:03,85.0,,-0.0947153453041039,-2.34865203130181,0.0114534655702763,,3.959121462720755,,
,7694.0,1289.0,9562.0,2580.0,2280.0,3039.0,1112.0,2025-08-06 23:36:04,85.0,,-0.0948333963575117,-2.34936864012872,0.0113568431800197,,4.369481614049413,,
,7697.0,1295.0,9566.0,2580.0,2292.0,3038.0,1115.0,2025-08-06 23:36:05,85.0,,-0.094784573787006,-2.34894956665552,0.0114613095575246,,4.7547784301473435,,
,7698.0,1292.0,9566.0,2582.0,2293.0,3042.0,1106.0,2025-08-06 23:36:06,86.0,,-0.094935172371751,-2.34939383976824,0.0115572329100735,,5.111731225479832,,
,7698.0,1291.0,9566.0,2581.0,2301.0,3048.0,1115.0,2025-08-06 23:36:07,86.0,,-0.094909558788363,-2.34954774706535,0.0111917238091513,,5.437001143668108,,
,7697.0,1290.0,9563.0,2582.0,2305.0,3042.0,1097.0,2025-08-06 23:36:08,87.0,,-0.0948541066026791,-2.34903927045027,0.0115534555132668,,5.727310893297718,,
,7700.0,1295.0,9567.0,2582.0,2331.0,3043.0,1109.0,2025-08-06 23:36:09,87.0,,-0.0948565751474776,-2.34929584672337,0.0115454985622032,,5.979608142127549,,
,7702.0,1294.0,9565.0,2582.0,2335.0,3042.0,1093.0,2025-08-06 23:36:10,87.0,,-0.0947337586898527,-2.34870330680345,0.0113771989392827,,6.191258363123305,,
,7700.0,1294.0,9568.0,2584.0,2339.0,3044.0,1110.0,2025-08-06 23:36:11,88.0,,-0.0947397092653386,-2.34903995329152,0.0116766676032386,,6.360245124772991,,
,7699.0,1293.0,9565.0,2581.0,2326.0,3047.0,1104.0,2025-08-06 23:36:12,89.0,,-0.0946263790371558,-2.34915378257267,0.011817461675862,,6.485351688621936,,
,7700.0,1296.0,9569.0,2585.0,2337.0,3050.0,1099.0,2025-08-06 23:36:13,90.0,,-0.0946085732095989,-2.34845502206519,0.0116991857772622,,6.566297436969102,,
,7700.0,1295.0,9567.0,2583.0,2328.0,3048.0,1096.0,2025-08-06 23:36:14,90.0,,-0.0944802746245232,-2.34850074766791,0.0117904739809013,,6.603805795526948,,
,7701.0,1294.0,9564.0,2582.0,2338.0,3062.0,1102.0,2025-08-06 23:36:15,90.0,,-0.0944552703152283,-2.34857778161949,0.0119139718870078,,6.599586833523224,,
,7700.0,1296.0,9566.0,2580.0,2342.0,3044.0,1105.0,2025-08-06 23:36:16,91.0,,-0.0944485420806041,-2.34845212482431,0.0119648868989113,,6.556227664001186,,
,7700.0,1297.0,9562.0,2580.0,2325.0,3043.0,1119.0,2025-08-06 23:36:17,92.0,,-0.0943437118576816,-2.34845890051099,0.0121032471280068,,6.476996734281898,,
,7701.0,1296.0,9563.0,2579.0,2286.0,3034.0,1130.0,2025-08-06 23:36:18,92.0,,-0.0942932819224181,-2.34815009235774,0.0120136039101535,,6.365582519019689,,
,7700.0,1296.0,9560.0,2579.0,2296.0,3033.0,1131.0,2025-08-06 23:36:19,92.0,,-0.0942198536857541,-2.34836432482257,0.0120903983768308,,6.22579992824845,,
,7700.0,1293.0,9560.0,2577.0,2281.0,3036.0,1123.0,2025-08-06 23:36:20,92.0,,-0.0942589333932988,-2.34800672034113,0.0123660483302162,,6.061305071866505,,
,7700.0,1294.0,9560.0,2576.0,2294.0,3034.0,1112.0,2025-08-06 23:36:21,91.0,,-0.0944006489950596,-2.34763679302442,0.0120332796847441,,5.875358127576856,,
,7700.0,1293.0,9561.0,2574.0,2283.0,3039.0,1119.0,2025-08-06 23:36:22,90.0,,-0.094222283692996,-2.34686606795767,0.0124607153796546,,5.670664949400594,,
,7699.0,1292.0,9560.0,2573.0,2266.0,3039.0,1111.0,2025-08-06 23:36:23,90.0,,-0.0943654329273271,-2.34698442604727,0.0125482977749953,,5.449313427723613,,
,7698.0,1291.0,9561.0,2571.0,2276.0,3038.0,1108.0,2025-08-06 23:36:24,90.0,,-0.0943560829934438,-2.34697191448258,0.0126926577488815,,5.2128042611230665,,
,7697.0,1291.0,9557.0,2572.0,2289.0,3039.0,1114.0,2025-08-06 23:36:25,90.0,,-0.0943316911640133,-2.34706840322401,0.0130074783948431,,4.962160998390345,,
,7696.0,1289.0,9560.0,2568.0,2306.0,3037.0,1108.0,2025-08-06 23:36:26,90.0,,-0.0942544234586368,-2.34705919727403,0.0126408791555157,,4.698093081739127,,
,7696.0,1291.0,9560.0,2567.0,2308.0,3034.0,1115.0,2025-08-06 23:36:27,90.0,,-0.0942951722505167,-2.34724599593289,0.0124851432391676,,4.421179343903619,,
,7695.0,1288.0,9558.0,2567.0,2295.0,3037.0,1114.0,2025-08-06 23:36:28,90.0,,-0.0943352952286591,-2.34720646803435,0.0126320448564835,,4.132038573338304,,
,7692.0,1287.0,9557.0,2567.0,2287.0,3037.0,1100.0,2025-08-06 23:36:29,90.0,,-0.0943108785046489,-2.34742450962184,0.0125837357977813,,3.831458491706411,,
,7694.0,1288.0,9560.0,2567.0,2296.0,3039.0,1102.0,2025-08-06 23:36:30,90.0,,-0.0943731328759219,-2.34727774512537,0.0125104002038187,,3.5204643257168913,,
,7694.0,1290.0,9562.0,2567.0,2299.0,3043.0,1092.0,2025-08-06 23:36:31,90.0,,-0.0943914928443192,-2.3475493873634,0.0126072979102516,,3.2003217721165305,,
,7691.0,1285.0,9559.0,2566.0,2306.0,3049.0,1109.0,2025-08-06 23:36:31,90.0,,-0.094491965641804,-2.34788394568451,0.0124371841519852,,2.872484012336185,,
,7692.0,1284.0,9561.0,2565.0,2322.0,3047.0,1093.0,2025-08-06 23:36:33,90.0,,-0.0944114305113624,-2.34762444273647,0.0119980539665086,,2.5385048033184967,,
,7692.0,1286.0,9562.0,2569.0,2305.0,3055.0,1112.0,2025-08-06 23:36:34,90.0,,-0.0944353969515014,-2.34763766064481,0.0125378120769201,,2.199945731013433,,
,7686.0,1284.0,9561.0,2565.0,2309.0,3056.0,1124.0,2025-08-06 23:36:35,89.0,,-0.0945446105813997,-2.34819878221508,0.0123586154053431,,1.8583035875676086,,
,7687.0,1282.0,9558.0,2565.0,2313.0,3046.0,1125.0,2025-08-06 23:36:36,89.0,,-0.0946947877012187,-2.3482880172263,0.0127252133180942,,1.5149749203674454,,
,7688.0,1284.0,9563.0,2568.0,2313.0,3041.0,1110.0,2025-08-06 23:36:37,90.0,,-0.0945830989116595,-2.34838216190471,0.0123367818050003,,1.1712629218053594,,
,7689.0,1286.0,9565.0,2567.0,2317.0,3050.0,1123.0,2025-08-06 23:36:38,90.0,,-0.0945032563096438,-2.34778780984903,0.0129858581522025,,0.8284208788969206,,
,7688.0,1286.0,9562.0,2565.0,2322.0,3043.0,1119.0,2025-08-06 23:36:39,91.0,,-0.0944053938174311,-2.34733792974577,0.0129001522677551,,0.48771858218419395,,
,7686.0,1286.0,9562.0,2567.0,2338.0,3039.0,1107.0,2025-08-06 23:36:40,91.0,,-0.0944266946492473,-2.34718215417667,0.0132429063384549,,0.15051388028074622,,
,7688.0,1281.0,9565.0,2568.0,2319.0,3048.0,1112.0,2025-08-06 23:36:41,91.0,,-0.0943740900583917,-2.34671762996897,0.0136120043844469,,-0.18168931435269997,,
,7686.0,1287.0,9566.0,2570.0,2281.0,3051.0,1101.0,2025-08-06 23:36:42,90.0,,-0.0943538075706302,-2.34657998779912,0.0136689855186653,,-0.5072131768398871,,
,7683.0,1286.0,9563.0,2568.0,2289.0,3051.0,1098.0,2025-08-06 23:36:43,90.0,,-0.0941000635636186,-2.34652763690448,0.0135745812608909,,-0.8242202057842,,
,7684.0,1285.0,9565.0,2568.0,2300.0,3039.0,1120.0,2025-08-06 23:36:44,88.0,,-0.0941360970099433,-2.34593177784325,0.0139648726183828,,-1.130774608407795,,
,7685.0,1285.0,9564.0,2568.0,2324.0,3037.0,1112.0,2025-08-06 23:36:45,87.0,,-0.0941508523053889,-2.34587561076447,0.0137884034423664,,-1.4249473981669325,,
,7685.0,1287.0,9564.0,2568.0,2315.0,3044.0,1098.0,2025-08-06 23:36:46,87.0,,-0.0940246839229308,-2.34590403177598,0.0143073632862203,,-1.70495262843297,,
,7683.0,1284.0,9565.0,2569.0,2317.0,3042.0,1101.0,2025-08-06 23:36:47,86.0,,-0.0941985071515905,-2.34599212130467,0.0143325379547089,,-1.9692942366630608,,
,7684.0,1285.0,9566.0,2569.0,2300.0,3044.0,1122.0,2025-08-06 23:36:48,86.0,,-0.0940615896932894,-2.34562570165388,0.0142793258675519,,-2.2168986444778453,,
,7683.0,1285.0,9569.0,2573.0,2302.0,3056.0,1117.0,2025-08-06 23:36:49,86.0,,-0.0939486294921067,-2.34545925275672,0.0147600697346832,,-2.447209418021148,,
,7684.0,1285.0,9568.0,2568.0,2326.0,3050.0,1107.0,2025-08-06 23:36:50,87.0,,-0.0937759255651404,-2.34476031565939,0.0150858145726321,,-2.6602268988949045,,
,7683.0,1287.0,9569.0,2570.0,2302.0,3046.0,1093.0,2025-08-06 23:36:51,87.0,,-0.0934402504187806,-2.34385008733739,0.0157647411945521,,-2.856485671930843,,
,7683.0,1289.0,9564.0,2571.0,2292.0,3039.0,1119.0,2025-08-06 23:36:52,88.0,,-0.0933966112496087,-2.34332218639844,0.0159845451923234,,-3.036973202865959,,
,7684.0,1286.0,9566.0,2568.0,2288.0,3029.0,1105.0,2025-08-06 23:36:52,88.0,,-0.0933341125345265,-2.34321284543147,0.0162868411312611,,-3.20300181589967,,
,7684.0,1287.0,9567.0,2571.0,2296.0,3034.0,1111.0,2025-08-06 23:36:54,88.0,,-0.0931660312836487,-2.34344375451726,0.0165323188386062,,-3.356052367949313,,
,7683.0,1286.0,9569.0,2569.0,2296.0,3039.0,1116.0,2025-08-06 23:36:55,87.0,,-0.0932957535291476,-2.3432952339698,0.0164770836121316,,-3.497611249932436,,
,7684.0,1287.0,9565.0,2569.0,2295.0,3050.0,1147.0,2025-08-06 23:36:56,87.0,,-0.093475247230746,-2.34393490233152,0.0161388746422048,,-3.629022765435323,,
,7679.0,1286.0,9567.0,2570.0,2271.0,3047.0,1125.0,2025-08-06 23:36:57,86.0,,-0.093618604000052,-2.34444507698638,0.0157533508563525,,-3.751376625260578,,
,7683.0,1287.0,9567.0,2572.0,2303.0,3030.0,1102.0,2025-08-06 23:36:58,86.0,,-0.0936726913537931,-2.34481175110444,0.0157212670966975,,-3.8654453366831607,,
,7684.0,1290.0,9570.0,2572.0,2300.0,3031.0,1102.0,2025-08-06 23:36:59,86.0,,-0.0937944898743179,-2.34496289928867,0.0155343219353293,,-3.971678840609673,,
,7682.0,1288.0,9570.0,2571.0,2286.0,3038.0,1108.0,2025-08-06 23:37:00,86.0,,-0.0938754771330343,-2.34528940913653,0.0153935204263209,,-4.070254490834355,,
,7680.0,1287.0,9567.0,2569.0,2306.0,3037.0,1093.0,2025-08-06 23:37:01,86.0,,-0.0939766617452363,-2.345579707879,0.0156952166237308,,-4.161170807094097,,
,7680.0,1289.0,9572.0,2572.0,2307.0,3039.0,1107.0,2025-08-06 23:37:02,87.0,,-0.0940168642362842,-2.34579113616847,0.0156775995684812,,-4.244365572409813,,
,7680.0,1286.0,9567.0,2571.0,2304.0,3040.0,1099.0,2025-08-06 23:37:03,88.0,,-0.0939662973450449,-2.34582444607307,0.0150121980516935,,-4.319835013760388,,
,7681.0,1285.0,9568.0,2570.0,2285.0,3049.0,1079.0,2025-08-06 23:37:04,88.0,,-0.0942102204389914,-2.34578164396124,0.0154771115620706,,-4.387732003721956,,
,7681.0,1287.0,9566.0,2570.0,2299.0,3043.0,1103.0,2025-08-06 23:37:05,89.0,,-0.0942434507935043,-2.34610694473731,0.0150011812191721,,-4.448426562710664,,
,7682.0,1291.0,9568.0,2571.0,2288.0,3047.0,1095.0,2025-08-06 23:37:06,89.0,,-0.0943491879494094,-2.34629135156923,0.0149643537310357,,-4.502519332459292,,
,7682.0,1290.0,9572.0,2573.0,2281.0,3045.0,1093.0,2025-08-06 23:37:07,89.0,,-0.0942914568122965,-2.34645196105693,0.014853897595331,,-4.550806146477176,,
,7682.0,1289.0,9567.0,2572.0,2274.0,3048.0,1108.0,2025-08-06 23:37:08,89.0,,-0.0944133421907429,-2.34672141825146,0.0146827651241675,,-4.594198230371232,,
,7681.0,1288.0,9569.0,2571.0,2286.0,3050.0,1107.0,2025-08-06 23:37:09,89.0,,-0.0944318342353584,-2.34705433498761,0.0145202141130876,,-4.633607586509361,,
,7678.0,1287.0,9568.0,2573.0,2285.0,3050.0,1136.0,2025-08-06 23:37:10,90.0,,-0.0944850833513965,-2.34721500776754,0.0144991339469392,,-4.66981072465815,,
,7681.0,1287.0,9573.0,2573.0,2315.0,3053.0,1147.0,2025-08-06 23:37:11,90.0,,-0.0944864903287724,-2.34724946489086,0.0142225085187083,,-4.703306036772667,,
,7682.0,1288.0,9571.0,2573.0,2310.0,3040.0,1120.0,2025-08-06 23:37:12,91.0,,-0.0946033487268589,-2.34698273514958,0.0144731759558591,,-4.734180622387509,,
,7681.0,1288.0,9568.0,2572.0,2301.0,3032.0,1132.0,2025-08-06 23:37:13,92.0,,-0.0945301160719871,-2.3469187319932,0.0145666934621596,,-4.762001073628741,,
,7681.0,1289.0,9573.0,2576.0,2266.0,3040.0,1123.0,2025-08-06 23:37:14,92.0,,-0.0946126838969968,-2.34684074810384,0.014799776400759,,-4.785739588392662,,
,7681.0,1288.0,9573.0,2577.0,2289.0,3041.0,1101.0,2025-08-06 23:37:15,93.0,,-0.0944032699936378,-2.34689327287195,0.0147008302011748,,-4.8037421486214,,
,7684.0,1290.0,9572.0,2578.0,2280.0,3041.0,1107.0,2025-08-06 23:37:16,93.0,,-0.0943980039265162,-2.34686730978778,0.0150110486947183,,-4.813740347164869,,
,7680.0,1287.0,9572.0,2577.0,2282.0,3038.0,1112.0,2025-08-06 23:37:17,93.0,,-0.0944481367670712,-2.346549709987,0.0150505595982047,,-4.812904186866882,,
,7681.0,1291.0,9573.0,2577.0,2292.0,3041.0,1094.0,2025-08-06 23:37:18,92.0,,-0.0942877822822284,-2.34603961780584,0.015024547350372,,-4.797930888749249,,
,7681.0,1291.0,9573.0,2579.0,2284.0,3028.0,1094.0,2025-08-06 23:37:19,92.0,,-0.0941918066244371,-2.34546227266913,0.0153787884579832,,-4.765164361894799,,
,7682.0,1292.0,9577.0,2578.0,2288.0,3031.0,1100.0,2025-08-06 23:37:20,92.0,,-0.0940944309612316,-2.34474826066931,0.0154463894323954,,-4.710740345335444,,
,7681.0,1290.0,9574.0,2579.0,2285.0,3038.0,1111.0,2025-08-06 23:37:21,93.0,,-0.0941476551717587,-2.34445747044391,0.0156679399581421,,-4.6307520240849165,,
,7682.0,1290.0,9574.0,2579.0,2305.0,3045.0,1129.0,2025-08-06 23:37:22,94.0,,-0.0938880226326028,-2.34407332465242,0.0159829195890093,,-4.521429576598616,,
,7682.0,1293.0,9578.0,2581.0,2306.0,3040.0,1147.0,2025-08-06 23:37:23,95.0,,-0.0935668580785389,-2.34322574139077,0.0161897178954934,,-4.379324959435048,,
,7681.0,1293.0,9576.0,2580.0,2310.0,3043.0,1147.0,2025-08-06 23:37:24,94.0,,-0.0935281122652109,-2.343244841715,0.0161459148496965,,-4.20149114910342,,
,7683.0,1291.0,9574.0,2578.0,2294.0,3042.0,1130.0,2025-08-06 23:37:25,94.0,,-0.0934438256456933,-2.34301521346275,0.0164759790306821,,-3.9856440097315784,,
,7684.0,1296.0,9574.0,2581.0,2314.0,3037.0,1111.0,2025-08-06 23:37:26,94.0,,-0.0933515525123489,-2.34251988193366,0.0164975190001018,,-3.7302956014518736,,
2025-08-06 23:34:47,7684.0,1295.0,9577.0,2583.0,2314.0,3041.0,1124.0,2025-08-06 23:37:27,93.0,2025/08/06 11:34:47 PM,-0.0932272420246363,-2.34233761960807,0.0167577566806067,,-3.4348501104323326,,
,7685.0,1296.0,9579.0,2582.0,2310.0,3039.0,1136.0,2025-08-06 23:37:28,92.0,,-0.0931969907650434,-2.34263593577357,0.0167624691553048,,-3.099656942581143,,
,7685.0,1292.0,9577.0,2582.0,2307.0,3046.0,1136.0,2025-08-06 23:37:28,91.0,,-0.0932153631822615,-2.34288281387161,0.0168868360844082,,-2.726018727955282,,
,7686.0,1293.0,9578.0,2583.0,2273.0,3053.0,1123.0,2025-08-06 23:37:30,90.0,,-0.0935534542191575,-2.34279653333019,0.0167253457668238,,-2.316154228184463,,
,7686.0,1295.0,9578.0,2583.0,2294.0,3054.0,1103.0,2025-08-06 23:37:31,89.0,,-0.0936738865154452,-2.34311667664283,0.0164688141861558,,-1.8731177346579337,,
,7685.0,1294.0,9578.0,2583.0,2280.0,3054.0,1105.0,2025-08-06 23:37:32,88.0,,-0.0937985079041799,-2.3442035755897,0.016126305792176,,-1.4006787381431822,,
,7686.0,1296.0,9580.0,2581.0,2275.0,3048.0,1116.0,2025-08-06 23:37:33,87.0,,-0.093889746208084,-2.34435850450354,0.0161040200939694,,-0.9031693238220121,,
,7684.0,1293.0,9579.0,2583.0,2278.0,3046.0,1118.0,2025-08-06 23:37:34,85.0,,-0.0939199901441938,-2.34457485939721,0.0161187924842758,,-0.3853113503965614,,
,7689.0,1296.0,9582.0,2587.0,2277.0,3050.0,1113.0,2025-08-06 23:37:35,84.0,,-0.0938284399313196,-2.34450739110782,0.0159274078683209,,0.14796059844866408,,
,7689.0,1297.0,9579.0,2586.0,2297.0,3048.0,1107.0,2025-08-06 23:37:36,85.0,,-0.093730024130728,-2.34485697056061,0.0155177744621157,,0.6916627168248248,,
,7687.0,1295.0,9581.0,2586.0,2289.0,3044.0,1090.0,2025-08-06 23:37:37,85.0,,-0.0937409647682491,-2.3444760443138,0.0156620550294448,,1.2408951376209987,,
,7688.0,1297.0,9580.0,2586.0,2279.0,3045.0,1086.0,2025-08-06 23:37:38,85.0,,-0.0938574704276221,-2.34487918370912,0.016028490494357,,1.7909315156955403,,
,7691.0,1296.0,9583.0,2589.0,2289.0,3041.0,1110.0,2025-08-06 23:37:39,86.0,,-0.09387579775147,-2.34536099969555,0.0155338689717506,,2.337257323419305,,
,7690.0,1298.0,9581.0,2587.0,2303.0,3044.0,1119.0,2025-08-06 23:37:40,86.0,,-0.0938516847177006,-2.34537265709686,0.0153757153698045,,2.8755559349443094,,
,7690.0,1298.0,9581.0,2586.0,2266.0,3038.0,1113.0,2025-08-06 23:37:41,86.0,,-0.0938924599169344,-2.34563869712943,0.0154015222507381,,3.401649045352729,,
,7691.0,1297.0,9582.0,2589.0,2270.0,3033.0,1118.0,2025-08-06 23:37:42,85.0,,-0.0940361171133285,-2.3460263206948,0.0151607878099262,,3.911405648542109,,
,7693.0,1297.0,9582.0,2590.0,2280.0,3037.0,1131.0,2025-08-06 23:37:43,84.0,,-0.0941397094355925,-2.34617295298212,0.0152768291260714,,4.400640999773147,,
,7694.0,1300.0,9583.0,2590.0,2286.0,3042.0,1140.0,2025-08-06 23:37:44,84.0,,-0.0942921655334169,-2.34620781894985,0.015064133267305,,4.8650323953907675,,
,7694.0,1300.0,9582.0,2587.0,2290.0,3062.0,1127.0,2025-08-06 23:37:45,83.0,,-0.0942610626641262,-2.34632217140888,0.0151270192204609,,5.300080133475088,,
,7693.0,1300.0,9580.0,2590.0,2271.0,3059.0,1137.0,2025-08-06 23:37:46,83.0,,-0.0941896099797445,-2.34611431694114,0.0151913597432995,,5.701137613583027,,
,7696.0,1302.0,9586.0,2593.0,2285.0,3052.0,1106.0,2025-08-06 23:37:47,83.0,,-0.0942055555705027,-2.34602075636522,0.0152397235755245,,6.063523701839828,,
,7697.0,1301.0,9583.0,2591.0,2287.0,3053.0,1110.0,2025-08-06 23:37:48,82.0,,-0.094327331631537,-2.34636058143654,0.015083801474208,,6.38271523911961,,
,7697.0,1301.0,9583.0,2591.0,2287.0,3053.0,1094.0,2025-08-06 23:37:49,82.0,,-0.0941426623802459,-2.34582200521134,0.0153301441430205,,6.654601603565842,,
,7697.0,1300.0,9584.0,2591.0,2292.0,3054.0,1100.0,2025-08-06 23:37:50,82.0,,-0.0940185492638303,-2.34642302176891,0.0150454801994632,,6.875770134581972,,
,7697.0,1304.0,9583.0,2591.0,2305.0,3065.0,1111.0,2025-08-06 23:37:51,82.0,,-0.0939478393107817,-2.34636410734674,0.014923363611143,,7.043783192165139,,
,7698.0,1303.0,9581.0,2591.0,2294.0,3063.0,1122.0,2025-08-06 23:37:52,82.0,,-0.093967171275112,-2.34589383342365,0.0152320391929999,,7.157405442435562,,
,7700.0,1303.0,9583.0,2591.0,2298.0,3040.0,1125.0,2025-08-06 23:37:53,82.0,,-0.0937898009411492,-2.34549135458869,0.0150956500627852,,7.216743659472343,,
,7698.0,1301.0,9580.0,2591.0,2293.0,3031.0,1135.0,2025-08-06 23:37:54,83.0,,-0.0938859423642983,-2.34591774200808,0.0151609738390478,,7.223270764688499,,
,7696.0,1302.0,9579.0,2588.0,2309.0,3032.0,1139.0,2025-08-06 23:37:55,83.0,,-0.0938605175840773,-2.34547697458817,0.0153744467360252,,7.179720585147283,,
,7699.0,1301.0,9579.0,2586.0,2307.0,3040.0,1124.0,2025-08-06 23:37:55,84.0,,-0.0939758247247747,-2.34563744331704,0.0153356717038667,,7.089858673128984,,
,7698.0,1303.0,9579.0,2588.0,2291.0,3033.0,1121.0,2025-08-06 23:37:57,84.0,,-0.0938758521436369,-2.34537939459972,0.0152716797556257,,6.958154825433509,,
,7698.0,1303.0,9579.0,2584.0,2270.0,3045.0,1133.0,2025-08-06 23:37:58,84.0,,-0.093739843439698,-2.34487503778823,0.0158342938722646,,6.789400471804176,,
,7699.0,1300.0,9578.0,2586.0,2279.0,3043.0,1153.0,2025-08-06 23:37:59,84.0,,-0.0937845518194918,-2.34486585014086,0.0155316114168791,,6.588324151577842,,
,7699.0,1300.0,9578.0,2584.0,2291.0,3046.0,1133.0,2025-08-06 23:38:00,84.0,,-0.093619909133824,-2.34460533629794,0.0157629852361604,,6.359257760594533,,
,7698.0,1301.0,9577.0,2582.0,2281.0,3043.0,1121.0,2025-08-06 23:38:01,84.0,,-0.0937807029177824,-2.34444441315139,0.0156392116568231,,6.105895467577384,,
,7699.0,1297.0,9575.0,2579.0,2255.0,3050.0,1094.0,2025-08-06 23:38:02,83.0,,-0.0938002345415017,-2.34430625680683,0.0159143854403358,,5.83116974861859,,
,7700.0,1298.0,9578.0,2577.0,2265.0,3041.0,1109.0,2025-08-06 23:38:03,83.0,,-0.0938128218829491,-2.34439172308288,0.0159039829383952,,5.5372495505138195,,
,7699.0,1298.0,9577.0,2580.0,2289.0,3041.0,1121.0,2025-08-06 23:38:04,84.0,,-0.0937043543819073,-2.34362841031092,0.0159642687076494,,5.225647889019199,,
,7701.0,1297.0,9578.0,2580.0,2278.0,3043.0,1116.0,2025-08-06 23:38:05,84.0,,-0.093660184993934,-2.34318212886214,0.0161204460660541,,4.897412345862019,,
,7697.0,1293.0,9575.0,2576.0,2293.0,3050.0,1126.0,2025-08-06 23:38:06,85.0,,-0.0935204367675164,-2.34342097863955,0.0161380388387306,,4.553362907811341,,
,7697.0,1295.0,9578.0,2578.0,2292.0,3054.0,1110.0,2025-08-06 23:38:07,86.0,,-0.0934442199038434,-2.34307393856272,0.0161180460462079,,4.194337797164998,,
,7697.0,1294.0,9579.0,2577.0,2256.0,3062.0,1081.0,2025-08-06 23:38:08,86.0,,-0.0933685174751039,-2.34279199699363,0.016371804421826,,3.82140960555299,,
,7695.0,1293.0,9581.0,2577.0,2252.0,3061.0,1086.0,2025-08-06 23:38:09,86.0,,-0.0932143245074327,-2.34264556679027,0.0165759437607835,,3.436041206056752,,
,7693.0,1293.0,9575.0,2574.0,2279.0,3054.0,1115.0,2025-08-06 23:38:10,85.0,,-0.0931436582151275,-2.34243999735242,0.0166372616999629,,3.040163024391346,,
,7694.0,1292.0,9577.0,2576.0,2288.0,3048.0,1121.0,2025-08-06 23:38:11,85.0,,-0.093078151825076,-2.3418630504993,0.0167953078854599,,2.6361685056586204,,
,7694.0,1293.0,9580.0,2576.0,2301.0,3044.0,1115.0,2025-08-06 23:38:12,84.0,,-0.0929343077576183,-2.34199388516316,0.0168325446603313,,2.2268396767245773,,
,7693.0,1293.0,9580.0,2577.0,2301.0,3041.0,1112.0,2025-08-06 23:38:13,84.0,,-0.0928232435554314,-2.341697313154,0.0172013580119449,,1.8152255099691477,,
,7694.0,1291.0,9575.0,2577.0,2311.0,3048.0,1111.0,2025-08-06 23:38:14,84.0,,-0.0928255576558725,-2.34167661149777,0.0170764697200308,,1.4044995819006596,,
,7692.0,1292.0,9579.0,2575.0,2312.0,3048.0,1110.0,2025-08-06 23:38:15,84.0,,-0.0926988552503921,-2.34133550996468,0.0172460997012657,,0.9978204820005869,,
,7695.0,1295.0,9580.0,2578.0,2292.0,3052.0,1094.0,2025-08-06 23:38:16,85.0,,-0.0926722439272849,-2.34094330872295,0.0176345582560745,,0.5982113080225883,,
,7693.0,1294.0,9584.0,2578.0,2295.0,3053.0,1086.0,2025-08-06 23:38:17,85.0,,-0.0925516317320701,-2.34024089604229,0.0176782892518357,,0.208466667103765,,
,7692.0,1291.0,9584.0,2578.0,2280.0,3037.0,1113.0,2025-08-06 23:38:18,85.0,,-0.092387312698409,-2.34011528295849,0.0180220664425457,,-0.16891103250284284,,
,7693.0,1291.0,9582.0,2578.0,2288.0,3041.0,1104.0,,,,-0.0923625240353647,-2.33981930729755,0.0179574141491385,,-0.5317490019179243,,
,7694.0,1293.0,9580.0,2581.0,2304.0,3038.0,1113.0,,,,-0.0923845419571317,-2.33981740762156,0.0179156808244981,,-0.8782213453522658,,
,7692.0,1294.0,9581.0,2582.0,2308.0,3041.0,1130.0,,,,-0.0924636631815478,-2.33963734611651,0.0176224084433653,,-1.2068539942991263,,
,7695.0,1292.0,9581.0,2576.0,2305.0,3051.0,1134.0,,,,-0.0925043873513931,-2.33983286443173,0.0179896146063968,,-1.5165252126277449,,
,7691.0,1294.0,9585.0,2581.0,2290.0,3052.0,1144.0,,,,-0.0924999398391418,-2.34003759863148,0.0183040401389207,,-1.8064679052591839,,
,7695.0,1293.0,9586.0,2580.0,2290.0,3056.0,1131.0,,,,-0.0924500223296151,-2.33967770672378,0.0183615546895257,,-2.0762764546027532,,
,7692.0,1294.0,9585.0,2582.0,2293.0,3054.0,1121.0,,,,-0.0920291878713278,-2.33871326689876,0.0184372073867423,,-2.3259159940127634,,
,7692.0,1294.0,9583.0,2581.0,2280.0,3044.0,1128.0,,,,-0.0918910688752362,-2.33870379485047,0.0190918783654697,,-2.555727331452167,,
,7693.0,1296.0,9582.0,2580.0,2291.0,3037.0,1123.0,,,,-0.0917359085718739,-2.3381479903862,0.0193084646370824,,-2.766418183979039,,
,7693.0,1295.0,9587.0,2581.0,2258.0,3037.0,1132.0,,,,-0.0916178688244579,-2.33795348173008,0.0197487592232636,,-2.959032438415928,,
,7694.0,1296.0,9586.0,2581.0,2250.0,3041.0,1139.0,,,,-0.0915985229333217,-2.33800183604279,0.0196151424381803,,-3.1348935843058547,,
,7693.0,1297.0,9586.0,2584.0,2292.0,3050.0,1117.0,,,,-0.091707883325352,-2.3380505632414,0.0195883320307306,,-3.295524440161781,,
,7692.0,1297.0,9586.0,2584.0,2257.0,3041.0,1129.0,,,,-0.0919409286164311,-2.33874476027787,0.0195519699101238,,-3.4425506255517417,,
,7694.0,1295.0,9584.0,2584.0,2287.0,3041.0,1116.0,,,,-0.0922912480144375,-2.33922849590149,0.0195641832395091,,-3.5775985481269124,,
,7695.0,1297.0,9584.0,2581.0,2279.0,3043.0,1109.0,,,,-0.0923994960212351,-2.34084585055122,0.0191477909970945,,-3.702199687274028,,
,7693.0,1296.0,9588.0,2581.0,2272.0,3048.0,1116.0,,,,-0.0926331670180859,-2.34140379975785,0.0182890088389636,,-3.8177120266628286,,
,7697.0,1296.0,9586.0,2581.0,2293.0,3040.0,1114.0,,,,-0.092860514531748,-2.34163652890572,0.0183213409993554,,-3.925267120147094,,
,7693.0,1297.0,9585.0,2584.0,2286.0,3041.0,1111.0,,,,-0.0929829859537672,-2.34288316526358,0.018363706508944,,-4.02574785786718,,
,7693.0,1295.0,9587.0,2584.0,2294.0,3039.0,1113.0,,,,-0.0932410903661871,-2.34305890616671,0.0180699207591664,,-4.119797777791334,,
,7696.0,1296.0,9590.0,2582.0,2314.0,3050.0,1102.0,,,,-0.093387841889155,-2.34342163883059,0.0175652651559783,,-4.207857960828164,,
,7695.0,1295.0,9587.0,2583.0,2275.0,3058.0,1126.0,,,,-0.0934147461003467,-2.34351802516378,0.0174063258817802,,-4.290222577643245,,
,7695.0,1297.0,9585.0,2584.0,2285.0,3053.0,1122.0,,,,-0.093700730450842,-2.34349138121075,0.0174691018682463,,-4.367099905046366,,
,7697.0,1299.0,9591.0,2586.0,2287.0,3055.0,1123.0,,,,-0.0937264651060388,-2.34427602191547,0.0174996495821589,,-4.438663438537572,,
,7697.0,1299.0,9588.0,2587.0,2259.0,3040.0,1126.0,,,,-0.0938015882060019,-2.34497119237722,0.0174495564541502,,-4.505078839153579,,
,7694.0,1296.0,9585.0,2584.0,2270.0,3054.0,1099.0,,,,-0.093875119622831,-2.34464081904294,0.0175544887413807,,-4.566497141277869,,
,7698.0,1299.0,9590.0,2586.0,2276.0,3054.0,1124.0,,,,-0.0938770168428766,-2.34426204838608,0.0175561262467074,,-4.623011812072871,,
,7699.0,1298.0,9588.0,2587.0,2264.0,3047.0,1117.0,,,,-0.0938194682702143,-2.34435886831959,0.0175320508394236,,-4.674584958784066,,
,7698.0,1298.0,9590.0,2586.0,2274.0,3045.0,1120.0,,,,-0.0937661217316853,-2.34435876588217,0.0174253813898896,,-4.720954459012103,,
,7697.0,1297.0,9590.0,2585.0,2271.0,3056.0,1135.0,,,,-0.0937380587549121,-2.34429447840872,0.0175387444691052,,-4.761538025188304,,
,7699.0,1299.0,9592.0,2587.0,2270.0,3051.0,1121.0,,,,-0.0938254884650924,-2.344243414952,0.0173317169277805,,-4.795351883112272,,
,7700.0,1298.0,9590.0,2586.0,2283.0,3047.0,1130.0,,,,-0.093793681654722,-2.34423507477828,0.0173785220740211,,-4.820960901040683,,
,7700.0,1299.0,9591.0,2591.0,2289.0,3043.0,1137.0,,,,-0.0936028265148953,-2.34395708207836,0.01739776784558,,-4.836473865431251,,
,7697.0,1297.0,9589.0,2587.0,2268.0,3038.0,1140.0,,,,-0.0936383303440479,-2.34418796660173,0.0178356790647479,,-4.839592434517546,,
,7700.0,1298.0,9590.0,2587.0,2284.0,3039.0,1116.0,,,,-0.0935960292285582,-2.34386063871952,0.0175591972811112,,-4.827715433037963,,
,7703.0,1302.0,9590.0,2590.0,2251.0,3044.0,1128.0,,,,-0.0936316682043393,-2.34388712053184,0.0178403540037692,,-4.798092083711149,,
,7700.0,1300.0,9594.0,2589.0,2264.0,3047.0,1132.0,,,,-0.093544341257093,-2.34389855182525,0.0176620754617488,,-4.748009449231635,,
,7700.0,1298.0,9591.0,2589.0,2281.0,3042.0,1129.0,,,,-0.0936214136592579,-2.34368099339596,0.0175223971071113,,-4.674992355790212,,
,7703.0,1299.0,9591.0,2590.0,2292.0,3042.0,1123.0,,,,-0.0936255841439861,-2.3436114688967,0.0177990381960695,,-4.576990334231433,,
,7704.0,1303.0,9592.0,2592.0,2302.0,3043.0,1124.0,,,,-0.0933670979124394,-2.34295058137201,0.0180689362166741,,-4.452527128548816,,
,7702.0,1298.0,9589.0,2589.0,2291.0,3044.0,1122.0,,,,-0.0934384270307865,-2.34245816888279,0.0181847185093103,,-4.300794157902087,,
,7703.0,1298.0,9592.0,2591.0,2275.0,3050.0,1100.0,,,,-0.0930430829879616,-2.34200882575669,0.0181379437204831,,-4.121678473760518,,
,7703.0,1299.0,9591.0,2591.0,2298.0,3052.0,1116.0,,,,-0.0930948932260153,-2.34184743132542,0.0186898033589245,,-3.9157259145728065,,
,7707.0,1300.0,9593.0,2595.0,2265.0,3045.0,1104.0,,,,-0.0931380455130068,-2.34172350069033,0.0184627691212882,,-3.6840491786220055,,
,7707.0,1302.0,9595.0,2593.0,2276.0,3046.0,1106.0,,,,-0.0930820412750296,-2.3420783594672,0.0186707806968525,,-3.428196985329923,,
,7708.0,1299.0,9594.0,2592.0,2295.0,3041.0,1110.0,,,,-0.0930208484389527,-2.34150930185252,0.0188912076126156,,-3.1500038156797494,,
,7707.0,1302.0,9593.0,2595.0,2280.0,3044.0,1103.0,,,,-0.092935282992174,-2.3411433404065,0.0191245936084458,,-2.851440083865822,,
,7708.0,1301.0,9593.0,2594.0,2298.0,3039.0,1119.0,,,,-0.092867466343344,-2.34086240681126,0.0190668280989239,,-2.53448050980756,,
,7708.0,1303.0,9593.0,2594.0,2302.0,3037.0,1117.0,,,,-0.0930665271331107,-2.34151262683877,0.0190620428658555,,-2.2010043775120787,,
,7710.0,1300.0,9594.0,2596.0,2281.0,3047.0,1120.0,,,,-0.0931289869071119,-2.34135872860071,0.0188054350137107,,-1.8527355765132336,,
,7709.0,1303.0,9595.0,2595.0,2284.0,3046.0,1103.0,,,,-0.0930757198397674,-2.341610051066,0.0187940232890791,,-1.4912233737958642,,
,7709.0,1304.0,9597.0,2597.0,2284.0,3043.0,1108.0,,,,-0.0931004675152584,-2.34173543641536,0.0188163583045663,,-1.1178579893055063,,
,7714.0,1303.0,9597.0,2597.0,2285.0,3051.0,1110.0,,,,-0.093177457973784,-2.34176307192161,0.0187371146993628,,-0.7339100884396108,,
,7713.0,1301.0,9596.0,2595.0,2258.0,3051.0,1109.0,,,,-0.0931846450345502,-2.34178461788278,0.0182339722569246,,-0.34058179139102535,,
,7709.0,1303.0,9594.0,2596.0,2278.0,3043.0,1109.0,,,,-0.0932159309488318,-2.34171673493942,0.0188098765144081,,0.06094112738834763,,
,7712.0,1306.0,9596.0,2598.0,2273.0,3045.0,1106.0,,,,-0.0932711523882913,-2.34215362706811,0.018491478782542,,0.46944191591852286,,
,7714.0,1305.0,9595.0,2599.0,2275.0,3048.0,1111.0,,,,-0.0935705967858607,-2.3424055366851,0.0183763013579205,,0.883631971408656,,
,7717.0,1303.0,9594.0,2599.0,2267.0,3039.0,1099.0,,,,-0.0934035989415938,-2.3426834105884,0.0183938238027284,,1.3021146680534195,,
,7716.0,1304.0,9597.0,2599.0,2266.0,3052.0,1093.0,,,,-0.0934479705023848,-2.34234737177917,0.0185136009536944,,1.7233504860989892,,
,7719.0,1305.0,9598.0,2601.0,2261.0,3046.0,1106.0,,,,-0.0934813124520829,-2.34223587883689,0.0183765455802921,,2.1456199793728845,,
,7716.0,1305.0,9596.0,2601.0,2271.0,3038.0,1121.0,,,,-0.0934948142195947,-2.34235680660264,0.0182762272149927,,2.5669824163215,,
,7717.0,1304.0,9596.0,2603.0,2265.0,3029.0,1112.0,,,,-0.093530409109713,-2.3420686658271,0.0185578363287588,,2.985230455893559,,
,7720.0,1303.0,9596.0,2602.0,2268.0,3042.0,1136.0,,,,-0.0935291913995267,-2.34196795130985,0.0185855773744712,,3.397844882445322,,
,7719.0,1306.0,9596.0,2604.0,2276.0,3049.0,1129.0,,,,-0.093512147784588,-2.34165185031431,0.0185654742706054,,3.8019578492253054,,
,7722.0,1307.0,9598.0,2603.0,2304.0,3053.0,1142.0,,,,-0.0936704764713151,-2.3419010287527,0.0187358726837199,,4.194337174338677,,
,7724.0,1308.0,9599.0,2605.0,2286.0,3055.0,1141.0,,,,-0.0934520249689468,-2.34108442802704,0.0191072480531443,,4.571406096978697,,
,7723.0,1303.0,9597.0,2602.0,2266.0,3056.0,1144.0,,,,-0.0931769491906892,-2.34020638277302,0.0196493449787557,,4.929310623020704,,
,7724.0,1306.0,9597.0,2606.0,2282.0,3052.0,1135.0,,,,-0.0931498325506678,-2.33990748471035,0.019837169256435,,5.2640396307276305,,
,7726.0,1306.0,9597.0,2605.0,2293.0,3054.0,1125.0,,,,-0.0931271678083443,-2.33981067277879,0.0199723343439325,,5.571592856008475,,
,7725.0,1308.0,9599.0,2604.0,2285.0,3053.0,1123.0,,,,-0.0931685204503178,-2.33970394535776,0.0197878073060312,,5.848181701488222,,
,7726.0,1309.0,9597.0,2604.0,2293.0,3041.0,1123.0,,,,-0.0930580747951319,-2.33930819961225,0.0201897042805182,,6.090440259651523,,
,7727.0,1307.0,9597.0,2601.0,2302.0,3033.0,1112.0,,,,-0.0928538795807463,-2.33959238985985,0.0201485798524997,,6.295620438254471,,
,7729.0,1311.0,9597.0,2604.0,2279.0,3029.0,1096.0,,,,-0.0929768449737374,-2.33915185973061,0.0199372991522234,,6.461745777359695,,
,7730.0,1307.0,9595.0,2601.0,2273.0,3028.0,1098.0,,,,-0.0929738136961643,-2.3393678755423,0.0202698215864716,,6.587702961420257,,
,7729.0,1306.0,9593.0,2597.0,2269.0,3034.0,1106.0,,,,-0.092950415408496,-2.33929404324136,0.0203953846220971,,6.6732575198376765,,
,7732.0,1309.0,9593.0,2601.0,2272.0,3032.0,1094.0,,,,-0.0927751555711704,-2.33910922800735,0.0200590432188378,,6.718990084542579,,
,7734.0,1306.0,9596.0,2601.0,2263.0,3040.0,1112.0,,,,-0.0927279210720152,-2.33892048492768,0.020437413941122,,6.726160892250615,,
2025-08-06 23:34:48,7735.0,1307.0,9592.0,2601.0,2250.0,3042.0,1122.0,,,2025/08/06 11:34:48 PM,-0.0928742200823627,-2.33856525675731,0.0200673290741417,,6.6965214477803485,,
,7734.0,1306.0,9593.0,2595.0,2252.0,3044.0,1112.0,,,,-0.0927647849067357,-2.33827584220498,0.0202748530564389,,6.632101062859192,,
,7734.0,1304.0,9593.0,2596.0,2268.0,3052.0,1122.0,,,,-0.0927346201951473,-2.3383405027577,0.0204693796628768,,6.534999747962661,,
,7734.0,1306.0,9589.0,2595.0,2281.0,3050.0,1129.0,,,,-0.0927455963001692,-2.33870146889398,0.0203255145932194,,6.407216252006088,,
,7735.0,1304.0,9592.0,2593.0,2262.0,3049.0,1132.0,,,,-0.0928067801994901,-2.33949361472038,0.0200102456086583,,6.250531835298251,,
,7735.0,1300.0,9589.0,2593.0,2255.0,3042.0,1141.0,,,,-0.0929416740561689,-2.33979989143894,0.0199685013806307,,6.066459350541575,,
,7735.0,1303.0,9592.0,2591.0,2284.0,3042.0,1121.0,,,,-0.0931113571662695,-2.3400603730536,0.0198986059524683,,5.856256256484056,,
,7736.0,1304.0,9591.0,2592.0,2301.0,3031.0,1139.0,,,,-0.0930997873984455,-2.34004099937653,0.0197471141237307,,5.620991113101186,,
,7735.0,1302.0,9588.0,2592.0,2299.0,3039.0,1134.0,,,,-0.0931875396510951,-2.34014069859221,0.0198050399400311,,5.361646649949576,,
,7736.0,1300.0,9593.0,2593.0,2300.0,3040.0,1126.0,,,,-0.0931556801955486,-2.33971082835294,0.0198958627813254,,5.07923890155724,,
,7736.0,1300.0,9592.0,2591.0,2302.0,3041.0,1114.0,,,,-0.0930554581035495,-2.33931506767026,0.0201640069327749,,4.774931343331981,,
,7736.0,1300.0,9593.0,2591.0,2318.0,3051.0,1102.0,,,,-0.0931205077002128,-2.33899953269975,0.0200488986310025,,4.450125641265556,,
,7736.0,1299.0,9594.0,2592.0,2326.0,3057.0,1105.0,,,,-0.0930471008783634,-2.33927583139041,0.0204406940519739,,4.106516562737325,,
,7735.0,1296.0,9594.0,2588.0,2299.0,3050.0,1098.0,,,,-0.0931081077180867,-2.3395816373659,0.0202788038638804,,3.7461071297602047,,
,7735.0,1299.0,9591.0,2592.0,2320.0,3040.0,1131.0,,,,-0.093120917469025,-2.33970786895009,0.0202959391759294,,3.3711893626630007,,
,7738.0,1300.0,9591.0,2592.0,2308.0,3045.0,1102.0,,,,-0.0932900781331237,-2.33987197387555,0.0201392329299351,,2.9843029410017565,,
,7739.0,1299.0,9594.0,2593.0,2310.0,3043.0,1093.0,,,,-0.0930835376940087,-2.33946465073167,0.0205205170790555,,2.588185978620429,,
,7737.0,1296.0,9591.0,2590.0,2306.0,3047.0,1094.0,,,,-0.0930690794372988,-2.33931596997984,0.0200484896925833,,2.185728274636584,,
,7738.0,1297.0,9590.0,2592.0,2313.0,3048.0,1081.0,,,,-0.0931383146134141,-2.33960571087398,0.0203788205280732,,1.7799301834131411,,
,7736.0,1298.0,9593.0,2594.0,2322.0,3045.0,1104.0,,,,-0.0930690591133033,-2.33907397130426,0.0201989326982741,,1.3738633027621758,,
,7737.0,1298.0,9596.0,2592.0,2324.0,3041.0,1110.0,,,,-0.0930918216241205,-2.33914905983831,0.0203922525436014,,0.9706252098534114,,
,7736.0,1297.0,9596.0,2594.0,2303.0,3037.0,1111.0,,,,-0.0932560005068732,-2.33890987726548,0.0205672996635909,,0.5732802028166443,,
,7737.0,1297.0,9596.0,2593.0,2287.0,3041.0,1124.0,,,,-0.0932040787894642,-2.33960769584485,0.0205605325118675,,0.1847806910911755,,
,7739.0,1301.0,9599.0,2596.0,2289.0,3047.0,1144.0,,,,-0.0932681158645652,-2.33937280142601,0.0203544930201971,,-0.19213167963413816,,
,7740.0,1299.0,9598.0,2595.0,2289.0,3038.0,1138.0,,,,-0.0931868608533409,-2.3389695195259,0.0209133342181095,,-0.5550408809008666,,
,7738.0,1299.0,9596.0,2595.0,2284.0,3036.0,1145.0,,,,-0.0929376954897199,-2.33800207330103,0.0209950436386339,,-0.9019777485175337,,
,7739.0,1296.0,9598.0,2592.0,2271.0,3037.0,1113.0,,,,-0.0927222399174884,-2.33719989306554,0.0214809522216197,,-1.2315331914056562,,
,7740.0,1300.0,9595.0,2597.0,2279.0,3036.0,1120.0,,,,-0.0926371993991558,-2.33688326738862,0.0217209400120252,,-1.5429454165899377,,
,7739.0,1298.0,9596.0,2595.0,2294.0,3027.0,1134.0,,,,-0.0923248944383021,-2.3361575251303,0.0219564339629097,,-1.8361425966740215,,
,7739.0,1297.0,9598.0,2596.0,2293.0,3022.0,1125.0,,,,-0.0922284393239912,-2.33614599655971,0.0224911087912143,,-2.1117264387427106,,
,7741.0,1299.0,9597.0,2595.0,2288.0,3041.0,1112.0,,,,-0.0923420962976784,-2.33617414726165,0.0224924034026021,,-2.370891321742022,,
,7741.0,1299.0,9598.0,2593.0,2275.0,3049.0,1117.0,,,,-0.092304875891434,-2.3368949324954,0.0221747672817243,,-2.6152859669208954,,
,7744.0,1298.0,9597.0,2598.0,2284.0,3041.0,1132.0,,,,-0.0925717681790016,-2.33707681907564,0.0218920381729115,,-2.8468358882042866,,
,7745.0,1297.0,9595.0,2595.0,2282.0,3044.0,1131.0,,,,-0.0928610230450253,-2.33784646234988,0.0215295037596241,,-3.0675514482114585,,
,7742.0,1300.0,9595.0,2594.0,2298.0,3044.0,1131.0,,,,-0.0929387546190108,-2.33868411215919,0.021664864011265,,-3.279346949680103,,
,7744.0,1298.0,9596.0,2595.0,2307.0,3046.0,1118.0,,,,-0.093079653669934,-2.33911941123685,0.021380973242851,,-3.4838919225576577,,
,7745.0,1300.0,9597.0,2597.0,2294.0,3050.0,1141.0,,,,-0.0931858543544252,-2.33924241145502,0.0208571798355038,,-3.682508761134538,,
,7746.0,1299.0,9597.0,2597.0,2303.0,3054.0,1126.0,,,,-0.0931097177031871,-2.34001641785704,0.0209528004602285,,-3.876123105427062,,
,7746.0,1297.0,9597.0,2596.0,2320.0,3054.0,1098.0,,,,-0.0931877310313392,-2.34082231836042,0.0209746200180032,,-4.0652661036294635,,
,7744.0,1300.0,9596.0,2596.0,2310.0,3055.0,1112.0,,,,-0.0933487775023528,-2.34066339029132,0.0205974113079165,,-4.250121382674878,,
,7750.0,1297.0,9598.0,2598.0,2299.0,3038.0,1128.0,,,,-0.0933813356633679,-2.34080854792247,0.0205767735028037,,-4.430604135325612,,
,7749.0,1300.0,9597.0,2597.0,2296.0,3035.0,1122.0,,,,-0.0936785869660515,-2.3415866303762,0.0203620178977527,,-4.606455238259674,,
,7749.0,1298.0,9597.0,2594.0,2307.0,3041.0,1128.0,,,,-0.0938021980099793,-2.34162896318405,0.0198936965127217,,-4.777330405541398,,
,7748.0,1300.0,9599.0,2593.0,2298.0,3043.0,1138.0,,,,-0.0938165738573227,-2.34158073273993,0.019557276244077,,-4.942864358731755,,
,7750.0,1300.0,9597.0,2597.0,2317.0,3051.0,1133.0,,,,-0.093766373265656,-2.34203284393709,0.0198903104164584,,-5.102694011725997,,
,7752.0,1297.0,9597.0,2597.0,2305.0,3051.0,1127.0,,,,-0.0939907153804323,-2.34244162188419,0.0196744504824194,,-5.256432576886704,,
,7749.0,1296.0,9597.0,2595.0,2292.0,3044.0,1131.0,,,,-0.093799613912196,-2.34207713112181,0.0196553695598131,,-5.403596516532589,,
,7750.0,1297.0,9597.0,2597.0,2298.0,3042.0,1106.0,,,,-0.0937981292666293,-2.3417235989687,0.0195001921468739,,-5.543496934827571,,
,7751.0,1297.0,9599.0,2600.0,2285.0,3047.0,1129.0,,,,-0.0937249448969923,-2.34137047717301,0.0193517763954732,,-5.675114441383295,,
,7754.0,1297.0,9599.0,2597.0,2292.0,3049.0,1134.0,,,,-0.0937452756910878,-2.34166461386848,0.0199843660875783,,-5.796980811594894,,
,7752.0,1298.0,9596.0,2597.0,2288.0,3046.0,1116.0,,,,-0.0935545369375551,-2.34160542365004,0.0199827722720337,,-5.907091678699081,,
,7754.0,1299.0,9598.0,2597.0,2259.0,3053.0,1108.0,,,,-0.0936970367135703,-2.34122944708813,0.0199774253644972,,-6.002872087930385,,
,7755.0,1297.0,9599.0,2599.0,2284.0,3048.0,1123.0,,,,-0.09363091418695,-2.34107864971633,0.0202114787438102,,-6.081211268093375,,
,7756.0,1301.0,9601.0,2600.0,2289.0,3041.0,1126.0,,,,-0.0936731946525432,-2.34087712459269,0.0200581666473813,,-6.138574813754151,,
,7755.0,1296.0,9597.0,2597.0,2278.0,3036.0,1118.0,,,,-0.0935837061768136,-2.34098207095942,0.0200633815978914,,-6.171192178287785,,
,7757.0,1295.0,9598.0,2599.0,2290.0,3033.0,1130.0,,,,-0.0934998128370918,-2.34051724355458,0.0202061224845779,,-6.17530588120361,,
,7759.0,1299.0,9600.0,2599.0,2284.0,3039.0,1121.0,,,,-0.0933851041205759,-2.34031865829143,0.0204294618363105,,-6.147457723720501,,
,7758.0,1301.0,9602.0,2600.0,2281.0,3038.0,1110.0,,,,-0.0932987737844784,-2.34011192626971,0.0204699037289485,,-6.084778868877626,,
,7757.0,1298.0,9600.0,2599.0,2271.0,3047.0,1093.0,,,,-0.0932064279126982,-2.33957666259542,0.0207230788740407,,-5.985247214976065,,
,7757.0,1295.0,9601.0,2599.0,2292.0,3049.0,1088.0,,,,-0.0931372492525684,-2.33911940029644,0.0210839381804648,,-5.847878346810235,,
,7758.0,1299.0,9602.0,2604.0,2302.0,3048.0,1117.0,,,,-0.0930310369348846,-2.33858955044553,0.0212160876916222,,-5.672825042095206,,
,7761.0,1299.0,9603.0,2601.0,2303.0,3048.0,1124.0,,,,-0.0927072082446471,-2.33887673061263,0.0214080436390149,,-5.461373076247954,,
,7762.0,1298.0,9601.0,2602.0,2285.0,3047.0,1096.0,,,,-0.0928176186244228,-2.33852421066072,0.021472222337635,,-5.215835659773403,,
,7759.0,1297.0,9599.0,2601.0,2266.0,3044.0,1111.0,,,,-0.0924466933240657,-2.3382075680288,0.021873715357967,,-4.939362956908841,,
,7761.0,1298.0,9602.0,2603.0,2284.0,3046.0,1088.0,,,,-0.0925131417621749,-2.33740682914867,0.0221802778236053,,-4.635694501338532,,
,7762.0,1298.0,9603.0,2603.0,2273.0,3055.0,1129.0,,,,-0.0924498660407748,-2.3373853354713,0.022395835049935,,-4.30888896462937,,
,7764.0,1300.0,9605.0,2606.0,2260.0,3057.0,1137.0,,,,-0.0925536347658169,-2.33769377586744,0.0218267074030869,,-3.963066454153222,,
,7764.0,1300.0,9603.0,2602.0,2288.0,3042.0,1127.0,,,,-0.092604570759191,-2.33812362349547,0.021788759266321,,-3.6021933023993045,,
,7765.0,1299.0,9601.0,2604.0,2313.0,3042.0,1126.0,,,,-0.0925441579374391,-2.33752993031874,0.0217940683620388,,-3.229929324217133,,
,7765.0,1301.0,9604.0,2608.0,2278.0,3042.0,1103.0,,,,-0.0926830686210479,-2.33796325358864,0.0219043532210384,,-2.8495447974437123,,
,7767.0,1298.0,9605.0,2608.0,2265.0,3040.0,1109.0,,,,-0.0926463736759049,-2.33778755604185,0.0219092290050168,,-2.4639015096002552,,
,7765.0,1299.0,9604.0,2607.0,2292.0,3040.0,1108.0,,,,-0.0926066105499332,-2.33797254043202,0.0218459117695634,,-2.075481839578564,,
,7769.0,1301.0,9605.0,2606.0,2277.0,3030.0,1104.0,,,,-0.0926994475863207,-2.33790301769947,0.021871276614585,,-1.686444294221432,,
,7766.0,1302.0,9606.0,2607.0,2277.0,3029.0,1100.0,,,,-0.0926453105676233,-2.33740397700611,0.0221130601011986,,-1.2986840483221216,,
,7770.0,1301.0,9603.0,2608.0,2291.0,3032.0,1121.0,,,,-0.092565952460686,-2.33745725827799,0.0223021522500958,,-0.9138817854501303,,
,7769.0,1299.0,9602.0,2605.0,2280.0,3027.0,1115.0,,,,-0.0924729977390749,-2.33685252437805,0.0225233049201851,,-0.5335312485910544,,
,7771.0,1302.0,9606.0,2609.0,2277.0,3043.0,1126.0,,,,-0.0923926969053524,-2.33695917985659,0.022326612783235,,-0.15894317421711124,,
,7771.0,1304.0,9604.0,2607.0,2284.0,3057.0,1128.0,,,,-0.0923729555714872,-2.33710588753114,0.02258966475583,,0.2087707262765607,,
,7772.0,1302.0,9604.0,2610.0,2298.0,3057.0,1124.0,,,,-0.0924245054709046,-2.33696849311946,0.0224956034824766,,0.5687259704834281,,
,7774.0,1300.0,9604.0,2607.0,2289.0,3070.0,1139.0,,,,-0.0924699619049242,-2.33707486047587,0.0221311729751951,,0.9202957864137369,,
,7774.0,1301.0,9604.0,2608.0,2300.0,3063.0,1139.0,,,,-0.0925998533420192,-2.33726272859978,0.0218491665461541,,1.2631336764366186,,
,7774.0,1303.0,9606.0,2609.0,2294.0,3053.0,1135.0,,,,-0.0927027590190678,-2.33772826886393,0.0220971893919182,,1.5971794477993984,,
,7775.0,1303.0,9606.0,2608.0,2291.0,3047.0,1125.0,,,,-0.0928591202213071,-2.33768879019972,0.0219984913480487,,1.922643634651201,,
,7775.0,1301.0,9605.0,2607.0,2319.0,3043.0,1112.0,,,,-0.0928727927674786,-2.33798601902937,0.0220147721504709,,2.2399703285314687,,
,7778.0,1302.0,9605.0,2612.0,2327.0,3036.0,1116.0,,,,-0.0927641689152406,-2.3378349971373,0.021843842273606,,2.5497835487894505,,
,7777.0,1305.0,9604.0,2608.0,2299.0,3040.0,1116.0,,,,-0.0927704413638045,-2.33766938738389,0.0223793475640805,,2.8528251553779005,,
,7781.0,1303.0,9605.0,2607.0,2286.0,3036.0,1125.0,,,,-0.0927445417429773,-2.33760848312576,0.0221911971063421,,3.1498914551953234,,
,7778.0,1303.0,9603.0,2606.0,2266.0,3034.0,1125.0,,,,-0.0928205776964101,-2.33718404678235,0.0225015697309883,,3.441771683827386,,
,7781.0,1301.0,9602.0,2607.0,2248.0,3022.0,1119.0,,,,-0.0926302384335082,-2.33728963074242,0.0220086683945305,,3.7291868068726477,,
,7781.0,1303.0,9603.0,2605.0,2247.0,3037.0,1097.0,,,,-0.0926945681295428,-2.33714888267191,0.022234275404561,,4.012724049866433,,
,7784.0,1303.0,9600.0,2605.0,2237.0,3041.0,1086.0,,,,-0.0928508343630236,-2.33678629016912,0.02201034283363,,4.2927624468600145,,
,7781.0,1303.0,9601.0,2604.0,2241.0,3048.0,1099.0,,,,-0.0925689672047509,-2.33651750250482,0.0220204330611298,,4.569387221543626,,
,7781.0,1303.0,9603.0,2604.0,2281.0,3044.0,1096.0,,,,-0.092576559208714,-2.33605051859703,0.022445447056306,,4.842294893111659,,
,7781.0,1302.0,9601.0,2601.0,2285.0,3046.0,1143.0,,,,-0.09236613124946,-2.33594207923694,0.0221907194449456,,5.11069560827245,,
,7784.0,1301.0,9601.0,2603.0,2292.0,3049.0,1138.0,,,,-0.0923319130664363,-2.33554012664033,0.0223709633834377,,5.37322386905395,,
,7782.0,1299.0,9602.0,2600.0,2292.0,3042.0,1140.0,,,,-0.0920957796413878,-2.33533780342246,0.0222165295677724,,5.6278733387905024,,
,7783.0,1298.0,9599.0,2600.0,2296.0,3046.0,1119.0,,,,-0.0920834120708008,-2.33498048627013,0.0226042381159012,,5.871974872171174,,
,7785.0,1299.0,9602.0,2600.0,2307.0,3044.0,1131.0,,,,-0.0921136408637608,-2.3348103107139,0.0227957368530333,,6.102237244550105,,
,7785.0,1299.0,9599.0,2601.0,2312.0,3046.0,1133.0,,,,-0.0919389849710106,-2.334859358516,0.0230830746265168,,6.314864993014284,,
,7785.0,1296.0,9598.0,2596.0,2288.0,3041.0,1112.0,,,,-0.0919011916932484,-2.33455257623146,0.0229531441835413,,6.505756848824742,,
,7781.0,1296.0,9598.0,2596.0,2293.0,3045.0,1119.0,,,,-0.0917669460324845,-2.33459812915282,0.0229513059002799,,6.670773636947778,,
,7786.0,1295.0,9599.0,2597.0,2298.0,3050.0,1098.0,,,,-0.0919590740506721,-2.33440775985983,0.0230600412599091,,6.80605004008009,,
,7784.0,1296.0,9602.0,2597.0,2312.0,3035.0,1100.0,,,,-0.0919098002941325,-2.33394741768254,0.0227470980411722,,6.908313769322308,,
,7784.0,1295.0,9599.0,2597.0,2309.0,3034.0,1099.0,,,,-0.0919043947160528,-2.33382084323891,0.0230594968538209,,6.975170538457227,,
,7781.0,1294.0,9597.0,2596.0,2326.0,3046.0,1108.0,,,,-0.0918845428414623,-2.33357209628126,0.0231834354513045,,7.005314528554615,,
,7785.0,1295.0,9601.0,2597.0,2308.0,3048.0,1106.0,,,,-0.0917706773575957,-2.33383789176071,0.0231957429520743,,6.998631642265507,,
,7785.0,1296.0,9599.0,2598.0,2322.0,3052.0,1118.0,,,,-0.0918335465491993,-2.33362998646178,0.0231182956353633,,6.956176148402428,,
,7784.0,1292.0,9603.0,2597.0,2313.0,3048.0,1113.0,,,,-0.0918116280517475,-2.33356934236757,0.023079212243013,,6.880019036256421,,
,7786.0,1293.0,9603.0,2597.0,2316.0,3041.0,1110.0,,,,-0.0917411503605254,-2.33373571682988,0.0230358316678168,,6.772986214911497,,
,7784.0,1293.0,9603.0,2601.0,2315.0,3040.0,1111.0,,,,-0.0918550629809427,-2.33355820025921,0.0232227988754318,,6.638322932444167,,
,7786.0,1295.0,9606.0,2598.0,2284.0,3046.0,1117.0,,,,-0.0917230843920329,-2.33308912070642,0.022907840106513,,6.479332938226122,,
,7786.0,1294.0,9603.0,2601.0,2279.0,3048.0,1113.0,,,,-0.0917306692747892,-2.3331178360622,0.0229583427958546,,6.299043402290467,,
,7785.0,1292.0,9601.0,2597.0,2293.0,3047.0,1119.0,,,,-0.0917111421480208,-2.33330566657261,0.0229067762841761,,6.099938957736005,,
,7785.0,1292.0,9605.0,2601.0,2274.0,3040.0,1117.0,,,,-0.091686876905701,-2.33291432061087,0.0231592425262959,,5.883793457155007,,
,7789.0,1298.0,9608.0,2601.0,2280.0,3048.0,1128.0,,,,-0.0914348950160107,-2.3328469074635,0.0230054343364406,,5.65161070755539,,
,7787.0,1296.0,9607.0,2602.0,2265.0,3050.0,1123.0,,,,-0.0915422961579959,-2.33220393978634,0.0229998515865387,,5.403669370642888,,
,7786.0,1294.0,9606.0,2598.0,2258.0,3048.0,1090.0,,,,-0.0913305216389654,-2.33177608307552,0.0236617058359354,,5.139654546286823,,
,7786.0,1296.0,9605.0,2601.0,2271.0,3057.0,1093.0,,,,-0.0912466653511129,-2.33146554831561,0.0235347140956277,,4.8588502422362305,,
,7790.0,1296.0,9606.0,2601.0,2250.0,3041.0,1109.0,,,,-0.0913097658928268,-2.33198812519664,0.023666127191887,,4.560363301767139,,
,7790.0,1296.0,9603.0,2602.0,2270.0,3041.0,1117.0,,,,-0.0911658626290644,-2.33224725132801,0.0234339504762291,,4.243350370107021,,
,7784.0,1295.0,9606.0,2602.0,2291.0,3042.0,1108.0,,,,-0.0912327273556708,-2.33243354693143,0.0231492024954403,,3.907224647494288,,
,7789.0,1297.0,9605.0,2603.0,2266.0,3044.0,1134.0,,,,-0.0910923052162201,-2.33203858177686,0.0229521774189618,,3.5518272445071863,,
,7790.0,1297.0,9606.0,2604.0,2276.0,3043.0,1121.0,,,,-0.0910317582733661,-2.33194316363728,0.0232004177618213,,3.1775565453546344,,
,7792.0,1294.0,9605.0,2601.0,2276.0,3046.0,1129.0,,,,-0.0909186328446406,-2.33139430780672,0.0238043166343451,,2.785455078010682,,
,7787.0,1296.0,9605.0,2602.0,2298.0,3055.0,1111.0,,,,-0.0906563000963554,-2.33039944704518,0.0243583055865495,,2.37725505987435,,
,7791.0,1295.0,9606.0,2600.0,2289.0,3047.0,1100.0,,,,-0.0907385214144816,-2.32997612715951,0.0243767769553485,,1.9553818243836025,,
,7793.0,1297.0,9604.0,2604.0,2299.0,3042.0,1077.0,,,,-0.0907078822787052,-2.33058797328043,0.0243729762671711,,1.5229118429149207,,
,7791.0,1296.0,9607.0,2602.0,2305.0,3044.0,1081.0,,,,-0.0907414989288717,-2.33096394900929,0.0243878305851668,,1.0834821815401194,,
2025-08-06 23:34:49,7789.0,1295.0,9605.0,2602.0,2292.0,3036.0,1121.0,,,2025/08/06 11:34:49 PM,-0.0908877123001596,-2.33102168020969,0.0237701266439937,,0.6411520719053,,
,7790.0,1295.0,9604.0,2601.0,2299.0,3047.0,1114.0,,,,-0.0910474423193223,-2.33258241223282,0.0232541390771978,,0.20022350938065336,,
,7795.0,1295.0,9608.0,2600.0,2298.0,3042.0,1103.0,,,,-0.0912753808279827,-2.33365959169724,0.0226163728344842,,-0.2349661246607387,,
,7793.0,1298.0,9609.0,2602.0,2286.0,3036.0,1107.0,,,,-0.0913027670958475,-2.33389653496135,0.0225946736308983,,-0.6602625623590695,,
,7796.0,1296.0,9603.0,2602.0,2305.0,3044.0,1129.0,,,,-0.0915334430781661,-2.33435075362091,0.0224738723124999,,-1.0719062997663633,,
,7791.0,1297.0,9604.0,2602.0,2301.0,3045.0,1114.0,,,,-0.0914360962242852,-2.33429969814986,0.0220601744899107,,-1.466720148142087,,
,7795.0,1294.0,9608.0,2605.0,2313.0,3044.0,1106.0,,,,-0.0914099143480493,-2.33422373997226,0.0218266918257615,,-1.842256841255661,,
,7795.0,1298.0,9608.0,2601.0,2323.0,3048.0,1103.0,,,,-0.0914872034122032,-2.33444517023523,0.0218722925484419,,-2.196892740748279,,
,7792.0,1296.0,9605.0,2602.0,2329.0,3046.0,1129.0,,,,-0.0915110599351665,-2.334818249118,0.0217727394497808,,-2.529857083494647,,
,7796.0,1297.0,9607.0,2601.0,2323.0,3037.0,1107.0,,,,-0.0914518784267073,-2.33438572504107,0.0221847969682793,,-2.841192405468881,,
,7796.0,1297.0,9610.0,2605.0,2302.0,3038.0,1122.0,,,,-0.0914697644974576,-2.33457056910645,0.0219899180515782,,-3.131650609691312,,
,7795.0,1297.0,9607.0,2604.0,2280.0,3044.0,1111.0,,,,-0.0915297660148073,-2.33478289845429,0.0218389129198745,,-3.402538364705674,,
,7793.0,1295.0,9604.0,2603.0,2271.0,3057.0,1096.0,,,,-0.0914420166470146,-2.33523092393802,0.0219498133636307,,-3.6555320699809193,,
,7795.0,1293.0,9605.0,2605.0,2275.0,3046.0,1121.0,,,,-0.0915855752471788,-2.33488428542201,0.0215876435380555,,-3.892484765302659,,
,7798.0,1298.0,9611.0,2607.0,2281.0,3043.0,1132.0,,,,-0.091647688590616,-2.33555409839663,0.0215969900427499,,-4.11524550512756,,
,7800.0,1295.0,9610.0,2606.0,2279.0,3037.0,1136.0,,,,-0.0919808197002774,-2.33561652618916,0.0211217127316989,,-4.3255075383823565,,
,7800.0,1298.0,9610.0,2605.0,2310.0,3035.0,1115.0,,,,-0.0919705753110425,-2.33633339422286,0.0210054268351499,,-4.524696667430683,,
,7799.0,1298.0,9607.0,2605.0,2302.0,3037.0,1124.0,,,,-0.0921389800773169,-2.33667614034039,0.0202985986871627,,-4.713906104317636,,
,7798.0,1297.0,9610.0,2607.0,2302.0,3040.0,1140.0,,,,-0.0923300631255409,-2.33706057631859,0.0201406596969327,,-4.893878986320318,,
,7800.0,1299.0,9611.0,2606.0,2300.0,3040.0,1128.0,,,,-0.0924548193864635,-2.33736825720889,0.0199929558065783,,-5.065034248964076,,
,7800.0,1296.0,9610.0,2608.0,2307.0,3038.0,1091.0,,,,-0.0924904943443277,-2.33746383079706,0.0198414370124905,,-5.227525945644464,,
,7800.0,1296.0,9610.0,2608.0,2294.0,3050.0,1090.0,,,,-0.0925664530348039,-2.33777248946916,0.0196429012898724,,-5.381321290517056,,
,7803.0,1298.0,9613.0,2607.0,2287.0,3044.0,1120.0,,,,-0.0924212446782767,-2.33756205231563,0.0199155271911178,,-5.526280254757343,,
,7802.0,1298.0,9613.0,2608.0,2296.0,3050.0,1127.0,,,,-0.0921906700986076,-2.33730778429067,0.020127231359519,,-5.662220726270702,,
,7802.0,1299.0,9611.0,2608.0,2282.0,3047.0,1144.0,,,,-0.0920081825507066,-2.3366399416748,0.0204090498777611,,-5.788957939758921,,
,7801.0,1299.0,9611.0,2609.0,2297.0,3042.0,1149.0,,,,-0.0918963798606324,-2.3356458021698,0.0206036207909387,,-5.906313540023383,,
,7804.0,1299.0,9609.0,2611.0,2284.0,3048.0,1134.0,,,,-0.0917637577746631,-2.33520541333319,0.0210539341213558,,-6.014096257395523,,
,7804.0,1300.0,9613.0,2610.0,2321.0,3048.0,1116.0,,,,-0.0914332069891901,-2.33442253806451,0.021242153513744,,-6.11206129987371,,
,7807.0,1298.0,9615.0,2612.0,2316.0,3048.0,1117.0,,,,-0.0911930159731535,-2.33406662189057,0.0214552398628436,,-6.199858521916987,,
,7806.0,1298.0,9610.0,2611.0,2292.0,3042.0,1107.0,,,,-0.0912973183756658,-2.33372753445338,0.0216684202189102,,-6.276980107574686,,
,7805.0,1297.0,9610.0,2611.0,2297.0,3038.0,1085.0,,,,-0.0911384549072453,-2.33364254389065,0.021681058702026,,-6.34271723940971,,
,7807.0,1298.0,9612.0,2611.0,2289.0,3038.0,1097.0,,,,-0.0910887628080501,-2.33363991656302,0.0212431657707887,,-6.396132650690242,,
,7808.0,1299.0,9613.0,2611.0,2295.0,3039.0,1094.0,,,,-0.0910212129323943,-2.33366882010352,0.0217942216124296,,-6.4360527410660815,,
,7803.0,1299.0,9611.0,2610.0,2292.0,3030.0,1092.0,,,,-0.0911041085802443,-2.33397853329201,0.0216308753913233,,-6.461079605166065,,
,7809.0,1300.0,9613.0,2611.0,2313.0,3035.0,1114.0,,,,-0.0911149273180812,-2.33405377192365,0.02126610929108,,-6.4696204191388675,,
,7811.0,1304.0,9612.0,2615.0,2313.0,3048.0,1138.0,,,,-0.0912440339527057,-2.33445750988183,0.0211461535768193,,-6.459929851183721,,
,7810.0,1303.0,9611.0,2615.0,2301.0,3058.0,1140.0,,,,-0.0912312620737355,-2.33409860913503,0.0207873388582769,,-6.430161090763357,,
,7809.0,1301.0,9613.0,2614.0,2306.0,3070.0,1122.0,,,,-0.0914385202885974,-2.33471601143317,0.0210983859212189,,-6.3784226430379265,,
,7812.0,1302.0,9615.0,2616.0,2322.0,3091.0,1138.0,,,,-0.0916008362357586,-2.33540543363644,0.0208234844693258,,-6.302840297370872,,
,7810.0,1301.0,9616.0,2616.0,2319.0,3075.0,1140.0,,,,-0.0917671436267523,-2.33597182992265,0.0204285196335295,,-6.201625435690718,,
,7814.0,1302.0,9615.0,2614.0,2326.0,3061.0,1143.0,,,,-0.0919467419651524,-2.33632521478866,0.0203114450523829,,-6.073151301613925,,
,7814.0,1301.0,9614.0,2615.0,2310.0,3054.0,1144.0,,,,-0.0919302922934386,-2.33605616568657,0.0202603892324801,,-5.916037910566544,,
,7813.0,1303.0,9615.0,2616.0,2312.0,3041.0,1134.0,,,,-0.0919154494454666,-2.33604424006197,0.0202029346811652,,-5.729244331791638,,
,7815.0,1304.0,9613.0,2615.0,2302.0,3031.0,1124.0,,,,-0.0918753036393792,-2.33564064492598,0.0201712926362,,-5.512164624683992,,
,7816.0,1304.0,9614.0,2616.0,2294.0,3038.0,1126.0,,,,-0.0918311926404164,-2.33603234628595,0.0201167011976014,,-5.264721172028728,,
,7814.0,1305.0,9611.0,2612.0,2281.0,3036.0,1095.0,,,,-0.0919196196575429,-2.335876299364,0.0204653947122974,,-4.987446782868727,,
,7815.0,1305.0,9614.0,2612.0,2248.0,3033.0,1078.0,,,,-0.0918527674339397,-2.33595686636488,0.020035709112455,,-4.6815449635776725,,
,7814.0,1304.0,9610.0,2610.0,2244.0,3031.0,1087.0,,,,-0.0919137412589247,-2.33620041749309,0.0199422377593371,,-4.3489165814292905,,
,7818.0,1303.0,9611.0,2611.0,2250.0,3039.0,1088.0,,,,-0.0919135704776814,-2.33617009649059,0.0198498617388042,,-3.99214151704858,,
,7815.0,1302.0,9608.0,2607.0,2272.0,3036.0,1106.0,,,,-0.0920027195599735,-2.33653161965182,0.0197385142909892,,-3.6144067266254702,,
,7817.0,1305.0,9613.0,2608.0,2258.0,3035.0,1130.0,,,,-0.0919738254608365,-2.33680052969393,0.0196083475606929,,-3.219377819131066,,
,7816.0,1304.0,9610.0,2608.0,2267.0,3044.0,1118.0,,,,-0.091954197709053,-2.33737619006518,0.0195676456975086,,-2.811019067823499,,
,7818.0,1300.0,9611.0,2607.0,2286.0,3041.0,1120.0,,,,-0.0920736687115483,-2.33720783819768,0.0192229927290012,,-2.393374968832583,,
,7816.0,1299.0,9610.0,2605.0,2301.0,3046.0,1151.0,,,,-0.0920999492319792,-2.3375856804866,0.0192576719651231,,-1.9703331370577,,
,7816.0,1300.0,9609.0,2604.0,2299.0,3046.0,1107.0,,,,-0.0920443612236621,-2.33755246274813,0.0191094042972309,,-1.5453922851309596,,
,7818.0,1301.0,9606.0,2605.0,2319.0,3047.0,1100.0,,,,-0.0919723494065541,-2.3368679333894,0.0189790022232208,,-1.1214599021407978,,
,7815.0,1299.0,9610.0,2602.0,2314.0,3047.0,1099.0,,,,-0.0918832647566416,-2.33627268275584,0.0193553222086027,,-0.7007021212102098,,
,7813.0,1297.0,9607.0,2601.0,2312.0,3069.0,1089.0,,,,-0.0916851354351274,-2.33556310140145,0.0199144282670353,,-0.28446330514024326,,
,7814.0,1296.0,9607.0,2603.0,2330.0,3058.0,1098.0,,,,-0.0914159449268201,-2.33519409007941,0.0198033120847461,,0.1267346698555357,,
,7817.0,1299.0,9609.0,2602.0,2334.0,3046.0,1089.0,,,,-0.091408265495698,-2.33517063692015,0.0198994404881834,,0.5331129767372353,,
,7817.0,1297.0,9610.0,2603.0,2331.0,3049.0,1076.0,,,,-0.0912641010741439,-2.33439835447004,0.0202170311166361,,0.9354859537927684,,
,7815.0,1299.0,9610.0,2602.0,2310.0,3046.0,1097.0,,,,-0.0911304021928583,-2.33420567948265,0.0201213539319787,,1.3350592098323955,,
,7815.0,1294.0,9611.0,2602.0,2313.0,3040.0,1099.0,,,,-0.0909825539332037,-2.33396058420139,0.0202021915984822,,1.733199340577693,,
,7814.0,1297.0,9610.0,2602.0,2310.0,3044.0,1121.0,,,,-0.0910126672626396,-2.33386230682136,0.0197789711937156,,2.1311995039884826,,
,7815.0,1296.0,9609.0,2602.0,2290.0,3045.0,1105.0,,,,-0.0909257323124748,-2.3341720817613,0.0200689855984941,,2.53006180546852,,
,7814.0,1294.0,9613.0,2603.0,2283.0,3052.0,1097.0,,,,-0.0910421531466957,-2.33442651736457,0.0198797991716963,,2.9303119929512076,,
,7813.0,1296.0,9613.0,2602.0,2278.0,3051.0,1096.0,,,,-0.0912221909177204,-2.33492405171929,0.0194802415884147,,3.3318561593269984,,
,7814.0,1297.0,9613.0,2604.0,2299.0,3053.0,1121.0,,,,-0.0911634632497044,-2.33507755058055,0.0193644786936123,,3.733884113660917,,
,7814.0,1298.0,9612.0,2603.0,2301.0,3053.0,1130.0,,,,-0.0912313304362348,-2.33509151118998,0.0195716618137414,,4.134820261995428,,
,7815.0,1297.0,9617.0,2607.0,2304.0,3050.0,1127.0,,,,-0.091268671342172,-2.33530856763411,0.0192167234597736,,4.532320381979312,,
,7810.0,1296.0,9613.0,2606.0,2309.0,3052.0,1103.0,,,,-0.0912625812477423,-2.33495911290795,0.01937365532808,,4.923311641008046,,
,7813.0,1296.0,9612.0,2604.0,2299.0,3044.0,1112.0,,,,-0.0912088257372746,-2.33471021938446,0.0194926053221264,,5.304073446878585,,
,7812.0,1296.0,9617.0,2607.0,2292.0,3045.0,1119.0,,,,-0.0912435327343901,-2.33526747796761,0.0196367658430114,,5.670357609498314,,
,7813.0,1298.0,9614.0,2606.0,2290.0,3047.0,1111.0,,,,-0.0911699215652626,-2.33492612651031,0.0193837887100955,,6.0175466294950715,,
,7812.0,1294.0,9615.0,2603.0,2286.0,3050.0,1096.0,,,,-0.0910969243623806,-2.33498719594373,0.019912580623903,,6.340847324796524,,
,7814.0,1299.0,9615.0,2606.0,2285.0,3039.0,1108.0,,,,-0.0910178892422654,-2.33430562214166,0.0197336544506589,,6.635512792771354,,
,7812.0,1298.0,9617.0,2607.0,2267.0,3039.0,1108.0,,,,-0.090989570849833,-2.33406771563324,0.0198273618983137,,6.8970797199382226,,
,7811.0,1297.0,9613.0,2605.0,2270.0,3042.0,1110.0,,,,-0.0910325576043482,-2.33416911940372,0.0196796909247238,,7.121602373687786,,
,7811.0,1296.0,9616.0,2606.0,2292.0,3043.0,1109.0,,,,-0.0911007479083643,-2.33406690133186,0.0195928835341902,,7.305861305308786,,
,7812.0,1299.0,9615.0,2608.0,2301.0,3048.0,1136.0,,,,-0.0911972010513098,-2.33508078854467,0.0194859584474694,,7.447524840865149,,
,7813.0,1298.0,9615.0,2607.0,2279.0,3037.0,1108.0,,,,-0.0912886487411021,-2.33547583995748,0.0193760487371467,,7.545244732810063,,
,7813.0,1300.0,9614.0,2606.0,2299.0,3036.0,1108.0,,,,-0.0913132268239264,-2.33557533268397,0.0191979837994582,,7.598673388703136,,
,7813.0,1296.0,9612.0,2603.0,2308.0,3041.0,1092.0,,,,-0.0914925585111465,-2.33560019469243,0.0192558691607696,,7.608398483836242,,
,7813.0,1299.0,9613.0,2606.0,2300.0,3048.0,1092.0,,,,-0.091630984290881,-2.33567078845243,0.0194989596314948,,7.575801117871039,,
,7816.0,1299.0,9615.0,2608.0,2318.0,3047.0,1098.0,,,,-0.0914097957852022,-2.33592079967497,0.0192624955876742,,7.502855060261295,,
,7815.0,1300.0,9617.0,2607.0,2317.0,3042.0,1097.0,,,,-0.0912340405876611,-2.33587096270284,0.0195051685975383,,7.391894966223243,,
,7816.0,1298.0,9616.0,2605.0,2298.0,3037.0,1088.0,,,,-0.0911135596597914,-2.33556135043705,0.019993837462899,,7.245387637997183,,
,7815.0,1299.0,9616.0,2607.0,2298.0,3032.0,1101.0,,,,-0.0910851404256838,-2.33499389613045,0.0202446718418035,,7.06573976162033,,
,7814.0,1300.0,9615.0,2607.0,2304.0,3041.0,1093.0,,,,-0.0908801295258833,-2.33447590868753,0.0204269145029199,,6.8551676671329975,,
,7815.0,1300.0,9616.0,2610.0,2309.0,3045.0,1094.0,,,,-0.090902578008739,-2.33460040557244,0.0204751735856709,,6.615641879836994,,
,7812.0,1299.0,9614.0,2606.0,2310.0,3049.0,1099.0,,,,-0.0911001251240025,-2.33523725279053,0.0204233930607503,,6.348905110672891,,
,7816.0,1300.0,9616.0,2608.0,2324.0,3055.0,1093.0,,,,-0.0911681931465921,-2.33545569335613,0.0201925134657578,,6.056549882316575,,
,7816.0,1301.0,9616.0,2609.0,2319.0,3050.0,1105.0,,,,-0.0911987806005123,-2.3352022201213,0.0201286857741137,,5.74013311059922,,
,7814.0,1301.0,9615.0,2608.0,2322.0,3045.0,1103.0,,,,-0.0914143723418642,-2.33595609173191,0.0195173962827514,,5.401300751362503,,
,7814.0,1298.0,9615.0,2607.0,2295.0,3049.0,1125.0,,,,-0.0914654851096002,-2.33646195679984,0.0192936083241247,,5.0418965701005,,
,7817.0,1300.0,9615.0,2607.0,2301.0,3044.0,1137.0,,,,-0.0915290536965956,-2.33630167951623,0.0194168292935774,,4.664035017432032,,
,7815.0,1299.0,9617.0,2609.0,2298.0,3038.0,1132.0,,,,-0.0916133388499393,-2.33662090866493,0.0194489036769558,,4.270128072135794,,
,7817.0,1303.0,9619.0,2611.0,2291.0,3046.0,1107.0,,,,-0.091679996472942,-2.33677370861976,0.0192473433120174,,3.8628676130775084,,
,7815.0,1297.0,9615.0,2608.0,2296.0,3040.0,1109.0,,,,-0.0916922864213757,-2.33712129186641,0.019355064018501,,3.4451751244960254,,
,7814.0,1300.0,9617.0,2608.0,2296.0,3045.0,1114.0,,,,-0.0916307411679851,-2.33731091453612,0.0193712480089373,,3.0201358565441745,,
,7816.0,1301.0,9619.0,2608.0,2289.0,3037.0,1120.0,,,,-0.0915805751066737,-2.33761714151171,0.0189311951113531,,2.5909332790186466,,
,7818.0,1301.0,9621.0,2612.0,2289.0,3036.0,1137.0,,,,-0.0917963062091862,-2.33820974247205,0.0189576032029869,,2.1607932204243205,,
,7815.0,1302.0,9619.0,2610.0,2287.0,3036.0,1110.0,,,,-0.0919444890013951,-2.33831612353659,0.0185490846665661,,1.7329390686154662,,
,7817.0,1301.0,9617.0,2612.0,2276.0,3042.0,1100.0,,,,-0.0920070667015026,-2.33817634763298,0.0187197290953394,,1.3105531709886797,,
,7820.0,1303.0,9622.0,2613.0,2280.0,3035.0,1127.0,,,,-0.092128892024308,-2.33886706885587,0.0186258893777988,,0.8967366246533438,,
,7818.0,1303.0,9621.0,2612.0,2281.0,3035.0,1119.0,,,,-0.0921614028663024,-2.338909196896,0.0180588998779869,,0.4944597773952197,,
,7819.0,1303.0,9621.0,2614.0,2299.0,3039.0,1094.0,,,,-0.0920308712909145,-2.33884776724942,0.0181660365841022,,0.10649804665926148,,
,7821.0,1301.0,9618.0,2614.0,2281.0,3041.0,1101.0,,,,-0.0919619648227486,-2.33869207903241,0.0185026364466639,,-0.2646486329253055,,
,7820.0,1303.0,9622.0,2612.0,2301.0,3047.0,1104.0,,,,-0.091934075218155,-2.33850947390222,0.0183442534091098,,-0.6168496036165619,,
,7819.0,1305.0,9620.0,2613.0,2307.0,3043.0,1114.0,,,,-0.0917102526945559,-2.33835584686564,0.0187026859696106,,-0.9484417630028433,,
,7819.0,1301.0,9620.0,2613.0,2286.0,3030.0,1104.0,,,,-0.0917410329321596,-2.33789531539716,0.0186132361297619,,-1.2583181851628757,,
,7819.0,1302.0,9619.0,2615.0,2272.0,3038.0,1118.0,,,,-0.0918018051377945,-2.33733690788456,0.0187889085834077,,-1.5459897825336713,,
,7820.0,1302.0,9621.0,2614.0,2286.0,3049.0,1112.0,,,,-0.091601946511106,-2.33699030271631,0.0192597601106354,,-1.811603784128993,,
,7823.0,1304.0,9622.0,2619.0,2290.0,3046.0,1104.0,,,,-0.0915691450209463,-2.33609050842979,0.0194818042369326,,-2.0559087232113122,,
,7821.0,1306.0,9622.0,2616.0,2333.0,3051.0,1124.0,,,,-0.0914768913982037,-2.3358968506721,0.0196314897621343,,-2.2801648754424866,,
,7822.0,1306.0,9622.0,2616.0,2317.0,3047.0,1107.0,,,,-0.091217576717824,-2.33537455480376,0.0202196134881003,,-2.486008844946164,,
,7825.0,1306.0,9623.0,2619.0,2315.0,3045.0,1115.0,,,,-0.0908137081600843,-2.33498358054007,0.0202473830472195,,-2.675288715567712,,
,7824.0,1308.0,9621.0,2618.0,2314.0,3044.0,1106.0,,,,-0.0907145279788367,-2.33462710970577,0.0204160865005217,,-2.8498905650744213,,
,7825.0,1308.0,9626.0,2618.0,2300.0,3048.0,1092.0,,,,-0.090690481249367,-2.33408711920098,0.020840627606207,,-3.0115779812477093,,
,7823.0,1304.0,9622.0,2616.0,2294.0,3044.0,1102.0,,,,-0.0905928105725059,-2.33404996969162,0.0205685613948358,,-3.1618638730786723,,
,7825.0,1307.0,9622.0,2617.0,2305.0,3042.0,1091.0,,,,-0.090590569662983,-2.33369192814475,0.0209319536026959,,-3.3019288992956013,,
,7827.0,1308.0,9625.0,2621.0,2300.0,3042.0,1100.0,,,,-0.0904617480038456,-2.33381554794706,0.0213768394304244,,-3.432593879588348,,
,7828.0,1307.0,9626.0,2619.0,2302.0,3043.0,1131.0,,,,-0.0904842945882241,-2.33422501000358,0.020823604209397,,-3.5543453433011725,,
,7826.0,1306.0,9624.0,2621.0,2284.0,3045.0,1117.0,,,,-0.0905150051456901,-2.33395550710982,0.0207698622720141,,-3.667404964351332,,
,7828.0,1308.0,9624.0,2622.0,2295.0,3061.0,1120.0,,,,-0.090470667393385,-2.33408437097519,0.0205422037919943,,-3.7718266515887584,,
,7830.0,1311.0,9627.0,2623.0,2315.0,3061.0,1108.0,,,,-0.0905960055050569,-2.33414983933652,0.0208183643066272,,-3.86760137292703,,
,7829.0,1310.0,9625.0,2622.0,2305.0,3057.0,1102.0,,,,-0.0906705013860415,-2.33404323527951,0.0205811661581678,,-3.9547504704980425,,
,7828.0,1307.0,9624.0,2621.0,2307.0,3066.0,1106.0,,,,-0.0907876495493545,-2.33478010891148,0.0206809788147535,,-4.033392728608381,,
2025-08-06 23:34:50,7830.0,1309.0,9627.0,2623.0,2324.0,3058.0,1122.0,,,2025/08/06 11:34:50 PM,-0.0907100474351284,-2.3351523407737,0.0205850243989053,,-4.103776919333265,,
,7827.0,1313.0,9626.0,2621.0,2305.0,3052.0,1146.0,,,,-0.090886910736319,-2.33547502376789,0.0200181182303407,,-4.166277973831716,,
,7831.0,1313.0,9624.0,2622.0,2286.0,3053.0,1135.0,,,,-0.0910797994126917,-2.33609226156016,0.0197740597967753,,-4.2213601292562135,,
,7830.0,1308.0,9622.0,2620.0,2300.0,3041.0,1134.0,,,,-0.0913094432400114,-2.33649263594607,0.0198538985797774,,-4.269514099374948,,
,7833.0,1312.0,9625.0,2621.0,2272.0,3040.0,1110.0,,,,-0.0912644047713803,-2.33628387865723,0.0196250479873246,,-4.311177660635342,,
,7831.0,1313.0,9624.0,2620.0,2278.0,3035.0,1107.0,,,,-0.0912785489961036,-2.33640581789095,0.0196540441058208,,-4.346650173998088,,
,7834.0,1314.0,9622.0,2619.0,2280.0,3033.0,1093.0,,,,-0.091172251001801,-2.33643423197527,0.0199121289339993,,-4.376011445917836,,
,7832.0,1308.0,9617.0,2616.0,2272.0,3033.0,1126.0,,,,-0.0913013280187634,-2.33668812080615,0.0197625773259981,,-4.399053842352864,,
,7832.0,1310.0,9619.0,2617.0,2259.0,3035.0,1116.0,,,,-0.0912347103871346,-2.33624541031301,0.0198104735654278,,-4.415233728012189,,
,7834.0,1312.0,9622.0,2615.0,2263.0,3031.0,1097.0,,,,-0.0910611820079812,-2.33598486388287,0.0198505890476848,,-4.423644617003359,,
,7832.0,1309.0,9619.0,2613.0,2263.0,3030.0,1089.0,,,,-0.0910740777573788,-2.33554504086551,0.0200659579221801,,-4.42301103847481,,
,7834.0,1308.0,9620.0,2610.0,2269.0,3030.0,1094.0,,,,-0.0909086469498487,-2.33544836862043,0.0199350730165201,,-4.411700407148115,,
,7830.0,1308.0,9621.0,2611.0,2282.0,3036.0,1102.0,,,,-0.0909190579566745,-2.33574549558574,0.0203165427119958,,-4.387750802457972,,
,7830.0,1308.0,9617.0,2610.0,2282.0,3038.0,1118.0,,,,-0.0909492992163627,-2.33567785874031,0.0201256054386926,,-4.348914813965048,,
,7833.0,1306.0,9620.0,2610.0,2283.0,3050.0,1125.0,,,,-0.0907630530113343,-2.33584808162655,0.0198018730026361,,-4.292721852535631,,
,7833.0,1306.0,9621.0,2608.0,2291.0,3053.0,1107.0,,,,-0.0909350195737928,-2.33559821941561,0.0202183558640755,,-4.216562046111643,,
,7829.0,1304.0,9618.0,2608.0,2278.0,3053.0,1089.0,,,,-0.0907454782282288,-2.33549911086017,0.0202118545201173,,-4.117793472443313,,
,7834.0,1306.0,9619.0,2612.0,2283.0,3051.0,1118.0,,,,-0.0906826710743859,-2.33491446897199,0.0200046306290539,,-3.993871404230839,,
,7830.0,1306.0,9617.0,2608.0,2289.0,3051.0,1108.0,,,,-0.0907767651052491,-2.33514974063664,0.0200632607484901,,-3.842494310712087,,
,7829.0,1303.0,9619.0,2607.0,2304.0,3054.0,1102.0,,,,-0.090977344770129,-2.33456223792673,0.0204845179993969,,-3.6617574944782247,,
,7828.0,1303.0,9620.0,2608.0,2320.0,3052.0,1100.0,,,,-0.0908082554214597,-2.33440594359283,0.0203581949090486,,-3.4503021947830477,,
,7828.0,1304.0,9618.0,2608.0,2344.0,3041.0,1101.0,,,,-0.0907393211315594,-2.33397746911589,0.0204621587786335,,-3.2074462405250546,,
,7827.0,1305.0,9620.0,2608.0,2330.0,3042.0,1091.0,,,,-0.0905585243226512,-2.33354313855244,0.0208138184426051,,-2.933282101130081,,
,7825.0,1301.0,9617.0,2607.0,2340.0,3034.0,1101.0,,,,-0.0902312115190065,-2.33372298063157,0.0209920777130596,,-2.6287295531404657,,
,7826.0,1301.0,9620.0,2610.0,2307.0,3039.0,1108.0,,,,-0.0902600700440082,-2.33404123222735,0.0209789266056197,,-2.2955333718549142,,
,7825.0,1303.0,9620.0,2607.0,2297.0,3045.0,1110.0,,,,-0.090197590673123,-2.33340524525768,0.0206522639154751,,-1.9362018232321137,,
,7824.0,1303.0,9623.0,2608.0,2303.0,3053.0,1109.0,,,,-0.0902166028034162,-2.33328767753973,0.020965322398057,,-1.5538892216067293,,
,7825.0,1301.0,9622.0,2608.0,2310.0,3039.0,1099.0,,,,-0.0901597891539606,-2.33350637750246,0.0209909999917075,,-1.1522343342472903,,
,7825.0,1304.0,9624.0,2611.0,2307.0,3043.0,1100.0,,,,-0.0902257011120068,-2.33346157701461,0.0207978851533499,,-0.7351739309775981,,
,7825.0,1302.0,9624.0,2609.0,2304.0,3043.0,1121.0,,,,-0.0903006549305518,-2.33355328188094,0.0205455795083105,,-0.30675531740719864,,
,7823.0,1305.0,9622.0,2611.0,2305.0,3040.0,1113.0,,,,-0.0903681677421335,-2.33376691925392,0.0211517473638824,,0.12902779211494295,,
,7820.0,1302.0,9622.0,2609.0,2315.0,3036.0,1113.0,,,,-0.0903148559240866,-2.33363921303725,0.0205202692892439,,0.5683551815918314,,
,7822.0,1303.0,9623.0,2610.0,2304.0,3058.0,1123.0,,,,-0.0903013558044167,-2.33369582125228,0.0209285148239412,,1.007641662390422,,
,7824.0,1305.0,9625.0,2612.0,2283.0,3055.0,1117.0,,,,-0.0902580428157207,-2.33325993563069,0.0209561978414056,,1.4435349300655322,,
,7824.0,1306.0,9627.0,2613.0,2278.0,3049.0,1119.0,,,,-0.0901890932777625,-2.33291250467461,0.021137072416985,,1.8728542243722153,,
,7821.0,1306.0,9624.0,2612.0,2275.0,3042.0,1115.0,,,,-0.0902697344787614,-2.33343736526833,0.0212073035952095,,2.292483734535044,,
,7821.0,1303.0,9624.0,2609.0,2292.0,3038.0,1120.0,,,,-0.0904612978458186,-2.33354270391763,0.021199552292403,,2.699242720662189,,
,7824.0,1304.0,9625.0,2611.0,2305.0,3046.0,1119.0,,,,-0.0904912449830963,-2.33373339959659,0.0210309728334571,,3.089759695265605,,
,7821.0,1306.0,9625.0,2613.0,2310.0,3046.0,1112.0,,,,-0.0906200977570773,-2.33384558894336,0.0210287775725343,,3.46037933303732,,
,7819.0,1304.0,9626.0,2611.0,2283.0,3046.0,1126.0,,,,-0.0907533457925285,-2.33419325350977,0.0209319123891114,,3.8071269352248716,,
,7823.0,1305.0,9626.0,2611.0,2277.0,3040.0,1128.0,,,,-0.090820109100404,-2.33447397276671,0.0209175881817839,,4.125746318680006,,
,7822.0,1307.0,9624.0,2610.0,2289.0,3037.0,1109.0,,,,-0.0906382156987795,-2.33467472035284,0.021225475737129,,4.411814615458642,,
,7823.0,1308.0,9625.0,2612.0,2308.0,3036.0,1112.0,,,,-0.0903919329615496,-2.3341828048021,0.0212446734363233,,4.6609243934885205,,
,7822.0,1308.0,9627.0,2612.0,2289.0,3043.0,1101.0,,,,-0.0901823298067117,-2.33371615447216,0.021896566241064,,4.868912326556464,,
,7819.0,1305.0,9623.0,2611.0,2288.0,3041.0,1093.0,,,,-0.0901090720440783,-2.33243073425076,0.0223135989283306,,5.03210595977292,,
,7822.0,1308.0,9626.0,2614.0,2283.0,3049.0,1112.0,,,,-0.0896784482551934,-2.33189994801392,0.0230723037913566,,5.147556600447797,,
,7821.0,1308.0,9625.0,2611.0,2290.0,3046.0,1104.0,,,,-0.0895092463976988,-2.33123648990613,0.0235265331925976,,5.213227260287895,,
,7821.0,1307.0,9621.0,2613.0,2285.0,3039.0,1097.0,,,,-0.0894068664643018,-2.33079295944637,0.0235098925222702,,5.228110058968953,,
,7820.0,1306.0,9624.0,2611.0,2283.0,3040.0,1087.0,,,,-0.0893539678569043,-2.33126803424354,0.0237384063317421,,5.19225751931777,,
,7820.0,1307.0,9624.0,2614.0,2305.0,3040.0,1118.0,,,,-0.0895251860197518,-2.33105764296103,0.0233334393565746,,5.106725898754705,,
,7822.0,1309.0,9628.0,2613.0,2283.0,3036.0,1115.0,,,,-0.0895534949011795,-2.33138615963443,0.0235081727400776,,4.973443891113731,,
,7822.0,1307.0,9623.0,2615.0,2281.0,3037.0,1082.0,,,,-0.0898357246985063,-2.33162051937168,0.023450262017208,,4.795033071088426,,
,7822.0,1306.0,9623.0,2611.0,2307.0,3049.0,1076.0,,,,-0.0899371681524475,-2.3325642059845,0.0233050165254951,,4.574613440507717,,
,7820.0,1309.0,9628.0,2615.0,2297.0,3046.0,1084.0,,,,-0.0901334869760552,-2.33278214681993,0.0229431822103141,,4.315626233363998,,
,7822.0,1308.0,9624.0,2614.0,2318.0,3059.0,1083.0,,,,-0.0902263557659236,-2.33295491133802,0.0229231989397383,,4.021697693072404,,
,7820.0,1309.0,9625.0,2615.0,2317.0,3056.0,1082.0,,,,-0.090340828830001,-2.33363228746007,0.0223453588529125,,3.6965551827224,,
,7821.0,1308.0,9626.0,2612.0,2305.0,3046.0,1096.0,,,,-0.0906343285701537,-2.3346393514929,0.0217680570298469,,3.3439944506512234,,
,7821.0,1308.0,9625.0,2615.0,2287.0,3040.0,1091.0,,,,-0.0907288782732837,-2.33589934054631,0.0219630147274854,,2.9678867484753764,,
,7822.0,1306.0,9627.0,2618.0,2280.0,3044.0,1086.0,,,,-0.0910842852128505,-2.33576522051492,0.0217736854951834,,2.5722079637171142,,
,7822.0,1309.0,9626.0,2617.0,2276.0,3045.0,1082.0,,,,-0.0913431802917605,-2.33704305074172,0.0208745322326325,,2.161069174268085,,
,7819.0,1307.0,9624.0,2613.0,2284.0,3055.0,1113.0,,,,-0.0915261846222166,-2.33759547680011,0.0207038122258178,,1.7387288011751068,,
,7822.0,1307.0,9627.0,2616.0,2308.0,3042.0,1129.0,,,,-0.0917053321413893,-2.33816203466181,0.020488050571497,,1.3095705297031217,,
,7821.0,1309.0,9629.0,2617.0,2298.0,3050.0,1100.0,,,,-0.092049891456175,-2.33896785092395,0.0201170988481485,,0.8780381266152374,,
,7822.0,1310.0,9627.0,2617.0,2304.0,3046.0,1098.0,,,,-0.0921508851021358,-2.33950100312006,0.0199820372470443,,0.44852756344230704,,
,7822.0,1310.0,9628.0,2615.0,2310.0,3045.0,1106.0,,,,-0.0920500860107882,-2.33972283741224,0.0201278875921682,,0.025246781238883537,,
,7822.0,1311.0,9628.0,2618.0,2290.0,3051.0,1080.0,,,,-0.0921534274853819,-2.3396556785874,0.0194061967634285,,-0.3879387549551699,,
,7821.0,1311.0,9631.0,2620.0,2289.0,3046.0,1094.0,,,,-0.0919652862890382,-2.3394543860196,0.0200365546661212,,-0.7876534640737393,,
,7823.0,1309.0,9628.0,2621.0,2281.0,3049.0,1102.0,,,,-0.0919805553694996,-2.33929803656947,0.0199373165570364,,-1.1711330739321888,,
,7824.0,1310.0,9628.0,2617.0,2298.0,3048.0,1097.0,,,,-0.0917914414046718,-2.33923212098367,0.0201924218810289,,-1.5363071455975645,,
,7825.0,1312.0,9632.0,2621.0,2310.0,3043.0,1080.0,,,,-0.0917786777577411,-2.33881984572268,0.0202837515459324,,-1.881836888927199,,
,7825.0,1313.0,9631.0,2622.0,2292.0,3038.0,1098.0,,,,-0.091666650086777,-2.33829752450426,0.0208666953658895,,-2.207108706317517,,
,7827.0,1313.0,9634.0,2622.0,2282.0,3040.0,1089.0,,,,-0.0914856756554266,-2.33787926804272,0.021246736267331,,-2.512188511863741,,
,7823.0,1309.0,9630.0,2622.0,2280.0,3041.0,1098.0,,,,-0.0912783261700022,-2.33708063522276,0.0214958970862177,,-2.7977447911800923,,
,7824.0,1314.0,9630.0,2623.0,2309.0,3041.0,1100.0,,,,-0.0910755273236859,-2.33678414237594,0.0217957786918534,,-3.0649497411266724,,
,7827.0,1313.0,9632.0,2623.0,2297.0,3053.0,1123.0,,,,-0.090918247342241,-2.33601964592923,0.0222887205638846,,-3.3153677519596534,,
,7824.0,1311.0,9630.0,2622.0,2310.0,3055.0,1133.0,,,,-0.0907099163239208,-2.33557446545936,0.0224929762900639,,-3.550838931176704,,
,7827.0,1314.0,9632.0,2623.0,2314.0,3055.0,1104.0,,,,-0.090787029190273,-2.33526752077721,0.0226345213449362,,-3.7733623127844504,,
,7826.0,1316.0,9633.0,2625.0,2342.0,3047.0,1088.0,,,,-0.0904195714035947,-2.33472309220863,0.0226124493413337,,-3.9849792913906366,,
,7828.0,1316.0,9633.0,2624.0,2323.0,3043.0,1094.0,,,,-0.090530670901932,-2.33463576560639,0.0227533527232433,,-4.1876539370678705,,
,7827.0,1315.0,9632.0,2629.0,2324.0,3047.0,1096.0,,,,-0.0905581789489513,-2.33478234964283,0.0226779201590001,,-4.383145069444584,,
,7830.0,1315.0,9632.0,2625.0,2317.0,3045.0,1125.0,,,,-0.0907228453252271,-2.33506724956711,0.02201750351285,,-4.5728667636263385,,
,7828.0,1315.0,9629.0,2625.0,2320.0,3039.0,1098.0,,,,-0.0907816128749263,-2.33593009267646,0.0219874384407363,,-4.757739198571307,,
,7830.0,1315.0,9633.0,2626.0,2322.0,3037.0,1109.0,,,,-0.090885002544789,-2.33576300868594,0.0222470434729143,,-4.93803861464977,,
,7829.0,1314.0,9632.0,2627.0,2325.0,3040.0,1106.0,,,,-0.0911302522489028,-2.33667653649859,0.0217493112589332,,-5.113261256542602,,
,7832.0,1316.0,9633.0,2626.0,2328.0,3037.0,1113.0,,,,-0.091080151162102,-2.33684402809989,0.0215934817550171,,-5.282019848899206,,
,7833.0,1317.0,9634.0,2630.0,2311.0,3040.0,1096.0,,,,-0.0913667482805609,-2.33721226282931,0.0214919646154297,,-5.441991680314733,,
,7832.0,1317.0,9633.0,2631.0,2301.0,3047.0,1106.0,,,,-0.0914000695266124,-2.33764475388031,0.0216923060744619,,-5.589934746483346,,
,7834.0,1320.0,9635.0,2629.0,2307.0,3053.0,1099.0,,,,-0.0914538534442681,-2.33724791817888,0.0215659334358527,,-5.7217830009938195,,
,7836.0,1318.0,9634.0,2629.0,2304.0,3066.0,1113.0,,,,-0.0913401212266661,-2.33768484056122,0.021383611052635,,-5.832824117575715,,
,7834.0,1318.0,9634.0,2629.0,2291.0,3056.0,1115.0,,,,-0.0913052620081657,-2.33759683803853,0.0214691733016715,,-5.917953838132123,,
,7834.0,1318.0,9634.0,2633.0,2292.0,3051.0,1112.0,,,,-0.0912248754912318,-2.33737258863857,0.0216764817565473,,-5.971990663453158,,
,7835.0,1320.0,9633.0,2630.0,2305.0,3049.0,1110.0,,,,-0.0912697152293101,-2.33730528556082,0.0216716391473981,,-5.990024545332327,,
,7834.0,1319.0,9632.0,2628.0,2317.0,3061.0,1106.0,,,,-0.0912183833955132,-2.33756275364746,0.0215275053942094,,-5.967765279719086,,
,7836.0,1319.0,9631.0,2628.0,2295.0,3060.0,1082.0,,,,-0.0910947925311471,-2.33745730983907,0.0217963759363769,,-5.901852653556502,,
,7836.0,1321.0,9632.0,2627.0,2325.0,3058.0,1109.0,,,,-0.0911220904940547,-2.33718883768603,0.0220130399575727,,-5.790092480900213,,
,7837.0,1320.0,9629.0,2626.0,2309.0,3053.0,1129.0,,,,-0.0910608810255796,-2.3368378417972,0.0216734351989636,,-5.631590406280281,,
,7836.0,1320.0,9630.0,2626.0,2278.0,3046.0,1120.0,,,,-0.0911562231468549,-2.33718371510456,0.0221425852701611,,-5.426767380883089,,
,7837.0,1317.0,9628.0,2625.0,2280.0,3042.0,1114.0,,,,-0.0911205783648399,-2.33682916699929,0.0222388726925062,,-5.177255107952826,,
,7836.0,1320.0,9631.0,2623.0,2260.0,3045.0,1127.0,,,,-0.0910757425932502,-2.33680466466683,0.0223894978696981,,-4.88568455199592,,
,7839.0,1318.0,9627.0,2623.0,2267.0,3043.0,1121.0,,,,-0.0909440633632392,-2.33616824316243,0.0224910971664147,,-4.5553938942682715,,
,7839.0,1317.0,9629.0,2622.0,2278.0,3039.0,1123.0,,,,-0.0908798650494789,-2.33583223132974,0.0229293961985389,,-4.190092257542038,,
,7837.0,1315.0,9623.0,2619.0,2286.0,3036.0,1120.0,,,,-0.0907597757223953,-2.33592918972177,0.0224434350041794,,-3.793520595843372,,
,7837.0,1315.0,9628.0,2620.0,2279.0,3039.0,1112.0,,,,-0.0908373961992983,-2.33627158673254,0.0227311355350195,,-3.369150430902619,,
,7835.0,1316.0,9625.0,2619.0,2282.0,3032.0,1086.0,,,,-0.0908171068870633,-2.33583883117113,0.0229078806844743,,-2.919954542855238,,
,7836.0,1317.0,9628.0,2616.0,2289.0,3029.0,1077.0,,,,-0.0906906094608518,-2.33590456736723,0.0230313792208596,,-2.448272303482282,,
,7836.0,1314.0,9624.0,2616.0,2270.0,3037.0,1086.0,,,,-0.0905959318504761,-2.33553554133084,0.0229822020545863,,-1.955778301027021,,
,7833.0,1316.0,9627.0,2615.0,2311.0,3038.0,1086.0,,,,-0.0906423708016734,-2.33593832371412,0.0229036990606785,,-1.4435492877888612,,
,7834.0,1314.0,9628.0,2616.0,2320.0,3041.0,1103.0,,,,-0.0906768185269676,-2.33607318332148,0.0229990506646683,,-0.9122140220469847,,
,7831.0,1315.0,9627.0,2615.0,2320.0,3045.0,1115.0,,,,-0.0906572493461276,-2.33551525650102,0.0228484121753891,,-0.3621644733243429,,
,7828.0,1311.0,9626.0,2612.0,2294.0,3050.0,1106.0,,,,-0.0908224554900056,-2.33550443623171,0.0225875254906703,,0.2061954920822059,,
,7831.0,1311.0,9628.0,2614.0,2305.0,3050.0,1096.0,,,,-0.0906140258403003,-2.33562173142867,0.0228528724967375,,0.792187902689313,,
,7832.0,1311.0,9627.0,2615.0,2317.0,3047.0,1103.0,,,,-0.0906822961550935,-2.33563697083116,0.02302969299366,,1.3946078109793791,,
,7830.0,1314.0,9627.0,2615.0,2315.0,3050.0,1104.0,,,,-0.0905571915556154,-2.33494541602565,0.0233696514259122,,2.0115005617617245,,
,7828.0,1310.0,9626.0,2614.0,2317.0,3061.0,1110.0,,,,-0.0905613095968407,-2.33493122426901,0.0234534208605007,,2.6399866617271703,,
,7828.0,1312.0,9629.0,2615.0,2332.0,3051.0,1074.0,,,,-0.090509000004575,-2.33486468237429,0.023409348274164,,3.2761470256606655,,
,7827.0,1311.0,9628.0,2616.0,2321.0,3056.0,1094.0,,,,-0.0906225742323634,-2.33521839183501,0.0234347928003392,,3.9149760463330274,,
,7828.0,1310.0,9627.0,2616.0,2323.0,3051.0,1094.0,,,,-0.0906973651376122,-2.33510431214117,0.0235068484296408,,4.550405251498784,,
,7826.0,1308.0,9629.0,2615.0,2312.0,3045.0,1091.0,,,,-0.0908421061149919,-2.33550190961294,0.0234505548898385,,5.175397331390065,,
,7824.0,1312.0,9628.0,2612.0,2316.0,3047.0,1105.0,,,,-0.0909557142509557,-2.3360814412225,0.0233281179263441,,5.782109007980143,,
,7825.0,1312.0,9630.0,2615.0,2312.0,3042.0,1109.0,,,,-0.0909982979603063,-2.33544261026765,0.0235916886274231,,6.362120222959712,,
,7825.0,1312.0,9630.0,2615.0,2317.0,3044.0,1114.0,,,,-0.0908192080079569,-2.33565505442128,0.0233299933719573,,6.9067246424277595,,
,7826.0,1309.0,9629.0,2612.0,2300.0,3037.0,1121.0,,,,-0.0904504523563615,-2.33513358150634,0.0236884328615514,,7.407271707057646,,
,7823.0,1311.0,9630.0,2618.0,2303.0,3042.0,1121.0,,,,-0.0904534640884491,-2.33436632409521,0.0240554614402268,,7.855544212277557,,
,7824.0,1313.0,9632.0,2618.0,2288.0,3037.0,1111.0,,,,-0.0903460559115328,-2.33424150766274,0.0238815072953353,,8.244149272001035,,
,7823.0,1312.0,9634.0,2618.0,2290.0,3047.0,1108.0,,,,-0.0903037607760334,-2.33420425630844,0.0242469305400444,,8.566895663046889,,
,7823.0,1313.0,9632.0,2616.0,2296.0,3045.0,1079.0,,,,-0.0899684154676282,-2.33415284269012,0.0245096743262233,,8.819127453534138,,
,7824.0,1314.0,9632.0,2618.0,2297.0,3044.0,1104.0,,,,-0.0900999299150665,-2.33396942552072,0.0247045792468065,,8.997982915567256,,
,7825.0,1314.0,9635.0,2616.0,2272.0,3049.0,1097.0,,,,-0.0902108291596952,-2.33413265504656,0.0244393765682504,,9.102549921682648,,
2025-08-06 23:34:51,7823.0,1313.0,9633.0,2618.0,2275.0,3049.0,1100.0,,,2025/08/06 11:34:51 PM,-0.0901724818443647,-2.33394318986525,0.0244309474359585,,9.13389558388079,,
,7824.0,1313.0,9633.0,2616.0,2288.0,3038.0,1125.0,,,,-0.0899198748025862,-2.33305133807911,0.0251277089183371,,9.094959630056175,,
,7824.0,1314.0,9631.0,2616.0,2276.0,3038.0,1126.0,,,,-0.0898568043774306,-2.3327171059638,0.0255473404204412,,8.990317258132668,,
,7824.0,1314.0,9632.0,2618.0,2271.0,3039.0,1116.0,,,,-0.0894595258188306,-2.33158814785487,0.0257621609584359,,8.825835145131819,,
,7823.0,1314.0,9630.0,2620.0,2268.0,3043.0,1109.0,,,,-0.089474195901609,-2.33144522966554,0.0264923824624539,,8.608259486038802,,
,7820.0,1312.0,9629.0,2619.0,2293.0,3044.0,1113.0,,,,-0.0893391872661376,-2.33090969138561,0.0265602677915228,,8.344783304100847,,
,7823.0,1315.0,9628.0,2618.0,2311.0,3045.0,1122.0,,,,-0.0892446239471427,-2.33098631333662,0.0268895654117567,,8.042640061317703,,
,7821.0,1314.0,9630.0,2617.0,2292.0,3047.0,1110.0,,,,-0.0893443545121686,-2.3309252524259,0.0269826556863761,,7.7087627518012365,,
,7823.0,1314.0,9633.0,2619.0,2297.0,3048.0,1110.0,,,,-0.0894571693310764,-2.33146458570427,0.0269735924585661,,7.34953461975686,,
,7822.0,1311.0,9633.0,2618.0,2315.0,3039.0,1089.0,,,,-0.0897211627216842,-2.33147276096907,0.0268912177695824,,6.970642075306754,,
,7820.0,1315.0,9631.0,2618.0,2330.0,3043.0,1085.0,,,,-0.089705114826168,-2.33164516566689,0.0267478021244301,,6.577024722805636,,
,7822.0,1313.0,9634.0,2620.0,2329.0,3038.0,1088.0,,,,-0.0898467772176353,-2.33206043425302,0.0267536431664402,,6.17290393762828,,
,7824.0,1314.0,9631.0,2618.0,2320.0,3041.0,1106.0,,,,-0.0899003233210485,-2.3324868283189,0.0266806817436949,,5.761862285389298,,
,7823.0,1314.0,9633.0,2616.0,2318.0,3045.0,1115.0,,,,-0.0900055155966413,-2.33260560739798,0.0262987018849679,,5.346943084186718,,
,7821.0,1315.0,9634.0,2618.0,2303.0,3060.0,1098.0,,,,-0.090079901151839,-2.3327922013008,0.0258685197570544,,4.930743395815473,,
,7821.0,1315.0,9631.0,2621.0,2307.0,3052.0,1089.0,,,,-0.0902003174530785,-2.33284089705834,0.0261079347826104,,4.515483695364114,,
,7822.0,1314.0,9632.0,2620.0,2302.0,3047.0,1094.0,,,,-0.0903330211937928,-2.33356775664746,0.0258784089097342,,4.103050223820719,,
,7821.0,1313.0,9633.0,2621.0,2304.0,3031.0,1082.0,,,,-0.090375263154001,-2.33352079823231,0.0255922641342325,,3.695017091415903,,
,7824.0,1313.0,9633.0,2619.0,2280.0,3035.0,1105.0,,,,-0.0904210049675024,-2.33399313123654,0.0255086019215469,,3.292660856129202,,
,7820.0,1315.0,9633.0,2618.0,2313.0,3037.0,1124.0,,,,-0.0904714515654855,-2.33359249796394,0.0253710250053598,,2.896979561999835,,
,7822.0,1315.0,9634.0,2620.0,2319.0,3038.0,1116.0,,,,-0.0905149232619088,-2.33439563765653,0.0255762358899131,,2.5087230093440382,,
,7821.0,1314.0,9635.0,2619.0,2287.0,3046.0,1117.0,,,,-0.0906557642741133,-2.33413088848616,0.0252359140462327,,2.1284344780676894,,
,7821.0,1316.0,9635.0,2621.0,2277.0,3042.0,1114.0,,,,-0.090552499008919,-2.33405765635551,0.0256552826213389,,1.7564987230066407,,
,7823.0,1316.0,9636.0,2621.0,2280.0,3048.0,1121.0,,,,-0.0903309897179451,-2.33406244271085,0.0254246963165862,,1.3931880414196478,,
,7823.0,1318.0,9638.0,2622.0,2277.0,3047.0,1119.0,,,,-0.0903526079475551,-2.33379767269946,0.0257137833723849,,1.0386978835012586,,
,7821.0,1317.0,9634.0,2621.0,2271.0,3048.0,1115.0,,,,-0.0901949461571757,-2.33409815178891,0.0254242398515566,,0.6931655944276229,,
,7822.0,1314.0,9633.0,2620.0,2257.0,3050.0,1104.0,,,,-0.0903140391877612,-2.33407651207897,0.0257980646832395,,0.3566698764044492,,
,7823.0,1318.0,9635.0,2623.0,2278.0,3054.0,1101.0,,,,-0.0903977842124279,-2.33388897939953,0.025601485232126,,0.0292137132717694,,
,7824.0,1319.0,9638.0,2624.0,2295.0,3045.0,1134.0,,,,-0.0903252739897974,-2.33395956273213,0.0257874947362192,,-0.2893011624147282,,
,7822.0,1316.0,9638.0,2622.0,2284.0,3038.0,1139.0,,,,-0.0903148081375205,-2.33417459102715,0.0254453563259042,,-0.5990961668647233,,
,7823.0,1316.0,9636.0,2622.0,2282.0,3038.0,1106.0,,,,-0.0902642757229953,-2.33389172489774,0.0252675044719276,,-0.900521189102361,,
,7822.0,1318.0,9639.0,2624.0,2283.0,3041.0,1118.0,,,,-0.0903131300551978,-2.33398422902099,0.0253921929579079,,-1.194033754970803,,
,7829.0,1321.0,9641.0,2626.0,2296.0,3048.0,1116.0,,,,-0.0902919433013311,-2.33373401638036,0.02569354112149,,-1.4801491186771194,,
,7827.0,1320.0,9638.0,2626.0,2295.0,3043.0,1118.0,,,,-0.0901182159982725,-2.3333450354936,0.0261917364267327,,-1.759365962048186,,
,7827.0,1319.0,9638.0,2626.0,2311.0,3043.0,1115.0,,,,-0.0899892014137702,-2.33296658415975,0.026244095641269,,-2.032078503056424,,
,7824.0,1320.0,9639.0,2625.0,2310.0,3042.0,1109.0,,,,-0.0898440688138299,-2.33243421351152,0.0266350487149216,,-2.298489270777131,,
,7826.0,1320.0,9639.0,2626.0,2298.0,3039.0,1103.0,,,,-0.0896721839464741,-2.3322790571737,0.0268488035664378,,-2.5585375906635477,,
,7827.0,1320.0,9641.0,2627.0,2293.0,3038.0,1098.0,,,,-0.0896501328536425,-2.33178367544309,0.0267977725413482,,-2.8118573995979794,,
,7828.0,1318.0,9643.0,2627.0,2305.0,3037.0,1085.0,,,,-0.0896534457982481,-2.33201237227886,0.0267263984437996,,-3.0577746892613216,,
,7826.0,1321.0,9640.0,2628.0,2319.0,3041.0,1077.0,,,,-0.0895679620337335,-2.33144749062191,0.027183707320773,,-3.295349765644599,,
,7828.0,1322.0,9644.0,2628.0,2333.0,3048.0,1074.0,,,,-0.0894948859921536,-2.33205096086953,0.0272084798147517,,-3.5234628121467457,,
,7828.0,1320.0,9640.0,2628.0,2328.0,3048.0,1080.0,,,,-0.0895049568580742,-2.33136777297947,0.027131339060335,,-3.74093360297549,,
,7831.0,1323.0,9643.0,2628.0,2318.0,3039.0,1097.0,,,,-0.0894254177641443,-2.33133145378032,0.0274266505912806,,-3.946659017186701,,
,7829.0,1320.0,9642.0,2626.0,2310.0,3041.0,1088.0,,,,-0.0893287709505397,-2.33120258244568,0.0274885032568465,,-4.1397473583201965,,
,7830.0,1323.0,9645.0,2632.0,2309.0,3042.0,1099.0,,,,-0.0892644220971,-2.33111046887412,0.0274512977795426,,-4.319628410273753,,
,7831.0,1323.0,9643.0,2630.0,2309.0,3045.0,1102.0,,,,-0.0893268286677545,-2.33114033688306,0.0272027317354479,,-4.486123154237538,,
,7828.0,1319.0,9639.0,2629.0,2284.0,3038.0,1111.0,,,,-0.0894219561055018,-2.33146243119596,0.0274198029962762,,-4.639465433582154,,
,7831.0,1323.0,9643.0,2628.0,2284.0,3042.0,1089.0,,,,-0.0895726524939768,-2.33133238702765,0.027226924252252,,-4.780276714028379,,
,7832.0,1324.0,9644.0,2633.0,2297.0,3044.0,1098.0,,,,-0.0896170945021587,-2.33147009757821,0.0275698908066132,,-4.909502118248824,,
,7833.0,1323.0,9643.0,2634.0,2288.0,3045.0,1103.0,,,,-0.0896478223095744,-2.33131155652245,0.0271346918210148,,-5.028320140827396,,
,7829.0,1322.0,9643.0,2631.0,2293.0,3052.0,1108.0,,,,-0.0896292316490087,-2.33181020530187,0.0274063517247897,,-5.138039938544566,,
,7835.0,1323.0,9642.0,2630.0,2297.0,3048.0,1114.0,,,,-0.0897068100738598,-2.33171128071358,0.0270657314188664,,-5.239999331721301,,
,7833.0,1326.0,9646.0,2634.0,2302.0,3052.0,1106.0,,,,-0.0897540057216764,-2.33121615610715,0.0275180907963044,,-5.335474154767028,,
,7835.0,1323.0,9645.0,2632.0,2304.0,3047.0,1116.0,,,,-0.0895343429163499,-2.33154354180629,0.0274249104657787,,-5.4256057404952704,,
,7835.0,1326.0,9643.0,2632.0,2315.0,3045.0,1128.0,,,,-0.089610553317682,-2.33141540940706,0.0274810469495658,,-5.511348432089324,,
,7836.0,1325.0,9645.0,2633.0,2316.0,3051.0,1104.0,,,,-0.089432056917911,-2.33159241766357,0.0273011952747905,,-5.593433620994758,,
,7833.0,1326.0,9645.0,2633.0,2324.0,3052.0,1101.0,,,,-0.0894204176065495,-2.33141499985743,0.0275507573654531,,-5.672341998613346,,
,7834.0,1325.0,9646.0,2635.0,2322.0,3049.0,1110.0,,,,-0.0892614321932501,-2.3317750173122,0.0276566807928005,,-5.748273152569965,,
,7833.0,1328.0,9644.0,2629.0,2297.0,3044.0,1086.0,,,,-0.089249362064894,-2.33151294015271,0.0273733808413756,,-5.821102867583278,,
,7835.0,1325.0,9641.0,2628.0,2277.0,3048.0,1104.0,,,,-0.0891301813505958,-2.3314708900208,0.0276493197863796,,-5.890323734422947,,
,7836.0,1328.0,9642.0,2630.0,2296.0,3048.0,1119.0,,,,-0.0891413717719303,-2.33135703691487,0.0276235090282677,,-5.954972355227227,,
,7835.0,1327.0,9640.0,2628.0,2300.0,3046.0,1127.0,,,,-0.089036902577016,-2.33082324301108,0.0279314683494696,,-6.013554022090263,,
,7835.0,1326.0,9642.0,2629.0,2297.0,3038.0,1097.0,,,,-0.0890268785325708,-2.33059991803524,0.0279195364089875,,-6.063981087745826,,
,7834.0,1323.0,9638.0,2626.0,2260.0,3047.0,1087.0,,,,-0.0888885097130273,-2.33043153442999,0.0282084923231262,,-6.103543270748251,,
,7835.0,1327.0,9635.0,2626.0,2292.0,3043.0,1091.0,,,,-0.0888326414956043,-2.33031474489056,0.0283113224286032,,-6.128926713863698,,
,7836.0,1324.0,9638.0,2624.0,2327.0,3042.0,1098.0,,,,-0.0888567574735718,-2.32942343913806,0.0286070765931901,,-6.136294157946082,,
,7836.0,1325.0,9638.0,2624.0,2313.0,3035.0,1102.0,,,,-0.0886675869520785,-2.32910864222623,0.0282796704474617,,-6.121431787770159,,
,7832.0,1323.0,9637.0,2620.0,2306.0,3039.0,1071.0,,,,-0.0886920147549392,-2.32896257861422,0.02828968938649,,-6.079959952753529,,
,7835.0,1323.0,9636.0,2620.0,2287.0,3043.0,1085.0,,,,-0.0888140215215773,-2.3288905370372,0.0283495825640774,,-6.007595915412051,,
,7836.0,1323.0,9640.0,2618.0,2316.0,3043.0,1073.0,,,,-0.0886497042343412,-2.32893770139019,0.0283483411867464,,-5.900448031176126,,
,7834.0,1323.0,9638.0,2618.0,2319.0,3040.0,1089.0,,,,-0.0885349090725239,-2.32837385989138,0.02844427283827,,-5.755313685117384,,
,7830.0,1322.0,9636.0,2615.0,2308.0,3039.0,1090.0,,,,-0.0883147721387127,-2.3282832700612,0.0285353191390513,,-5.5699496303401865,,
,7832.0,1321.0,9634.0,2618.0,2306.0,3044.0,1084.0,,,,-0.0884146247224646,-2.32838746405709,0.0286576983389613,,-5.3432845391199635,,
,7830.0,1320.0,9637.0,2617.0,2299.0,3046.0,1071.0,,,,-0.0883164705925883,-2.32826412589155,0.0288353041273421,,-5.0755498219229604,,
,7829.0,1322.0,9635.0,2615.0,2298.0,3051.0,1071.0,,,,-0.0883538255774755,-2.32813028493464,0.0291352241927342,,-4.768314737945166,,
,7827.0,1319.0,9635.0,2615.0,2292.0,3058.0,1099.0,,,,-0.0883423678751131,-2.32780386142306,0.0290260990174859,,-4.42442321755334,,
,7828.0,1319.0,9639.0,2614.0,2317.0,3050.0,1121.0,,,,-0.0883852104507636,-2.32756288369684,0.0293805209854382,,-4.047840486371351,,
,7829.0,1321.0,9639.0,2616.0,2308.0,3040.0,1115.0,,,,-0.0884037353983247,-2.32793496423229,0.0290192702445942,,-3.6434262048858232,,
,7827.0,1321.0,9637.0,2615.0,2302.0,3042.0,1094.0,,,,-0.0884328388066512,-2.32820615150248,0.028985132228244,,-3.216656949187287,,
,7826.0,1320.0,9641.0,2613.0,2278.0,3040.0,1089.0,,,,-0.0884420912575747,-2.3280938474477,0.0290558579118964,,-2.7733243508798866,,
,7824.0,1320.0,9640.0,2615.0,2279.0,3044.0,1099.0,,,,-0.0883607199052826,-2.32825762113423,0.0291176530766887,,-2.3192357423763466,,
,7823.0,1319.0,9639.0,2615.0,2319.0,3050.0,1073.0,,,,-0.088393263012746,-2.3281919636275,0.0290264803094601,,-1.8599410617074055,,
,7823.0,1322.0,9640.0,2616.0,2321.0,3050.0,1092.0,,,,-0.0883857067731026,-2.32812412665716,0.0289237770874493,,-1.4005029381464096,,
,7821.0,1319.0,9637.0,2613.0,2299.0,3041.0,1114.0,,,,-0.0882574214573393,-2.32777776063571,0.0290020665090409,,-0.9453177531003422,,
,7821.0,1318.0,9638.0,2616.0,2285.0,3043.0,1089.0,,,,-0.0881074675147505,-2.32738299857978,0.0292367612889431,,-0.4979869477981849,,
,7820.0,1318.0,9639.0,2616.0,2297.0,3047.0,1076.0,,,,-0.0880630265314357,-2.32715782657063,0.0293337400356249,,-0.06123280693932222,,
,7821.0,1320.0,9640.0,2618.0,2301.0,3047.0,1076.0,,,,-0.0882863152869788,-2.32668698033188,0.029088128625859,,0.36314741755441765,,
,7818.0,1318.0,9640.0,2618.0,2307.0,3045.0,1089.0,,,,-0.0882861749957394,-2.32737330672477,0.0295983499956663,,0.7742919316418349,,
,7817.0,1318.0,9639.0,2617.0,2292.0,3045.0,1100.0,,,,-0.0883807525983631,-2.32735226282355,0.0292184964128219,,1.1722478631463202,,
,7817.0,1321.0,9641.0,2616.0,2257.0,3048.0,1094.0,,,,-0.0882771732738082,-2.32749111637532,0.0293550532886715,,1.557903014536148,,
,7819.0,1319.0,9641.0,2616.0,2253.0,3048.0,1112.0,,,,-0.0882142384574238,-2.3275003053657,0.029124006701907,,1.9328702779498814,,
,7817.0,1321.0,9639.0,2617.0,2272.0,3057.0,1111.0,,,,-0.0882686245526991,-2.3269800877681,0.0295473909384838,,2.299320763820081,,
,7815.0,1318.0,9639.0,2618.0,2284.0,3049.0,1121.0,,,,-0.0880194467317475,-2.32683440631423,0.0295049623093312,,2.6597656627128248,,
,7821.0,1322.0,9640.0,2618.0,2278.0,3045.0,1107.0,,,,-0.0878824082217841,-2.32590048380352,0.0296882039050076,,3.016792753117106,,
,7818.0,1323.0,9642.0,2619.0,2268.0,3044.0,1101.0,,,,-0.0876739511854777,-2.32550938701931,0.0302851957502509,,3.37277078659978,,
,7818.0,1321.0,9641.0,2618.0,2255.0,3043.0,1117.0,,,,-0.087617935593277,-2.32530184044551,0.0306487793279937,,3.7295428099903956,,
,7817.0,1322.0,9639.0,2616.0,2275.0,3041.0,1087.0,,,,-0.0876457225982279,-2.32511709305158,0.0306587537858027,,4.088136175726089,,
,7821.0,1321.0,9638.0,2617.0,2270.0,3042.0,1101.0,,,,-0.0875591197147094,-2.32569887734722,0.0301997465309168,,4.4485202215627275,,
,7819.0,1323.0,9644.0,2620.0,2265.0,3051.0,1094.0,,,,-0.0877458593724138,-2.32572822728191,0.0305782052608848,,4.809440278000849,,
,7819.0,1322.0,9642.0,2619.0,2281.0,3043.0,1082.0,,,,-0.0880963954989836,-2.32663062292692,0.0302199786757318,,5.168348413876143,,
,7817.0,1319.0,9640.0,2616.0,2298.0,3042.0,1072.0,,,,-0.088264335418655,-2.32701172914241,0.0301628753030894,,5.521439153834997,,
,7817.0,1324.0,9644.0,2619.0,2302.0,3042.0,1079.0,,,,-0.08819133157938,-2.32760816619116,0.0300168809901326,,5.863785582518083,,
,7818.0,1324.0,9641.0,2621.0,2302.0,3040.0,1091.0,,,,-0.0882647328721884,-2.32761336257797,0.0298978112259293,,6.189560557898525,,
,7814.0,1324.0,9640.0,2619.0,2295.0,3041.0,1089.0,,,,-0.0883884585411224,-2.32797293495454,0.0295972835780066,,6.4923204923787505,,
,7812.0,1320.0,9639.0,2618.0,2303.0,3039.0,1107.0,,,,-0.0883598561155896,-2.32836824682268,0.0296307710798747,,6.765325449126083,,
,7816.0,1325.0,9642.0,2618.0,2320.0,3045.0,1090.0,,,,-0.0884381372595606,-2.32864631041134,0.0292115826458939,,7.001868858323192,,
,7816.0,1323.0,9642.0,2620.0,2312.0,3053.0,1113.0,,,,-0.0885898955757277,-2.32870584314471,0.0294804020668922,,7.1955927579635475,,
,7816.0,1325.0,9643.0,2618.0,2302.0,3052.0,1122.0,,,,-0.0887116144297488,-2.32867659056061,0.0291456964069976,,7.340769886507942,,
,7813.0,1320.0,9640.0,2618.0,2306.0,3053.0,1124.0,,,,-0.0887081012494598,-2.32877280650086,0.0292899985865407,,7.4325415426532855,,
,7816.0,1322.0,9643.0,2620.0,2312.0,3049.0,1133.0,,,,-0.0885598959697401,-2.3288735256452,0.0291650350241442,,7.467108245750215,,
,7814.0,1323.0,9642.0,2619.0,2328.0,3038.0,1120.0,,,,-0.088395780344842,-2.32840803781506,0.0292234998570649,,7.441876326192284,,
,7818.0,1324.0,9643.0,2620.0,2307.0,3041.0,1106.0,,,,-0.0884630404605001,-2.32801166678858,0.0289087469009365,,7.355565424492616,,
,7814.0,1321.0,9642.0,2617.0,2289.0,3044.0,1102.0,,,,-0.0884685346317405,-2.32809503266676,0.0292377393586455,,7.208279229613293,,
,7815.0,1323.0,9642.0,2621.0,2283.0,3048.0,1096.0,,,,-0.0885154862795594,-2.32833810333317,0.0292713809312198,,7.001536684315886,,
,7818.0,1325.0,9644.0,2622.0,2302.0,3044.0,1110.0,,,,-0.0885002371755037,-2.32863004580952,0.0289795417582497,,6.738256241450466,,
,7815.0,1326.0,9645.0,2619.0,2304.0,3048.0,1101.0,,,,-0.0886707350880963,-2.3291921792551,0.029037767600694,,6.42268365485925,,
,7813.0,1326.0,9643.0,2620.0,2282.0,3050.0,1126.0,,,,-0.0885893400208451,-2.32915966307926,0.0292176613018741,,6.060254952080752,,
,7817.0,1325.0,9646.0,2623.0,2276.0,3045.0,1108.0,,,,-0.0885898209977373,-2.32945308119358,0.0291531595773061,,5.65739052629123,,
,7817.0,1325.0,9644.0,2622.0,2271.0,3041.0,1083.0,,,,-0.0887166618696623,-2.32890877385874,0.0287443794289046,,5.2212232357724675,,
,7814.0,1325.0,9643.0,2622.0,2277.0,3039.0,1083.0,,,,-0.0887337094980558,-2.3288418639815,0.0288114370838654,,4.7592722835795245,,
,7812.0,1327.0,9648.0,2622.0,2285.0,3039.0,1098.0,,,,-0.0887705133757482,-2.32906231004724,0.0289109219969379,,4.279084353294846,,
,7815.0,1323.0,9645.0,2624.0,2280.0,3035.0,1113.0,,,,-0.0885504918196416,-2.32919217199148,0.0289253058780911,,3.7878723823462295,,
,7816.0,1328.0,9647.0,2624.0,2276.0,3040.0,1108.0,,,,-0.0886430501734904,-2.32896866207832,0.0289131738598056,,3.292188211233491,,
,7817.0,1326.0,9648.0,2624.0,2283.0,3038.0,1096.0,,,,-0.0885861929159496,-2.32846341294115,0.0287504521147642,,2.79766549072583,,
,7816.0,1326.0,9646.0,2625.0,2288.0,3042.0,1133.0,,,,-0.0884961678402006,-2.32810787681291,0.0294213499242483,,2.30886180772169,,
,7815.0,1328.0,9647.0,2623.0,2289.0,3053.0,1102.0,,,,-0.0883575913275643,-2.32839216226037,0.0294805523822351,,1.8292146786051648,,
,7817.0,1328.0,9646.0,2627.0,2305.0,3043.0,1120.0,,,,-0.0881991376644143,-2.32746018805915,0.0297925585341621,,1.3611083925754837,,
,7817.0,1328.0,9646.0,2627.0,2305.0,3036.0,1123.0,,,,-0.0880159943280703,-2.32708061242797,0.0300378839683585,,0.9060322757554826,,
2025-08-06 23:34:52,7816.0,1325.0,9647.0,2626.0,2303.0,3051.0,1115.0,,,2025/08/06 11:34:52 PM,-0.0879595444889379,-2.32737413721626,0.0296778822864902,,0.4647992386216358,,
,7817.0,1329.0,9649.0,2625.0,2289.0,3043.0,1111.0,,,,-0.0878706541473103,-2.32661469693644,0.0300377074286661,,0.03778788423675948,,
,7817.0,1330.0,9648.0,2627.0,2295.0,3039.0,1096.0,,,,-0.0878697907506132,-2.32706066651317,0.0298718749095888,,-0.3748281695599551,,
,7819.0,1330.0,9646.0,2630.0,2306.0,3039.0,1088.0,,,,-0.0879538105531608,-2.32704998628719,0.0298466573488561,,-0.7728947349518863,,
,7819.0,1330.0,9648.0,2627.0,2296.0,3044.0,1095.0,,,,-0.0879269208300615,-2.32743407887223,0.0295924157288115,,-1.1561571050108979,,
,7819.0,1329.0,9648.0,2627.0,2294.0,3049.0,1121.0,,,,-0.0880394125569374,-2.32736361185869,0.0295655119341208,,-1.5242158225408458,,
,7820.0,1329.0,9647.0,2629.0,2298.0,3051.0,1120.0,,,,-0.0879818396835346,-2.3271842876086,0.0297441487938242,,-1.8765552535949557,,
,7820.0,1331.0,9649.0,2631.0,2289.0,3059.0,1124.0,,,,-0.0880573631673634,-2.32736708180273,0.0297990949504366,,-2.212629568924649,,
,7820.0,1333.0,9652.0,2631.0,2298.0,3047.0,1133.0,,,,-0.0879010242468498,-2.32765008686176,0.0297819557984171,,-2.5319813535807474,,
,7822.0,1330.0,9649.0,2629.0,2304.0,3038.0,1117.0,,,,-0.0879340331800487,-2.32733496746361,0.0298781425161468,,-2.834364192810886,,
,7821.0,1330.0,9648.0,2631.0,2297.0,3044.0,1091.0,,,,-0.0879317718669213,-2.32758472007508,0.0300219951293503,,-3.1198429781729913,,
,7823.0,1333.0,9651.0,2633.0,2276.0,3040.0,1102.0,,,,-0.0880789288997999,-2.32723944984459,0.0296854414008398,,-3.3888528223071828,,
,7823.0,1330.0,9649.0,2633.0,2277.0,3034.0,1094.0,,,,-0.0880632903489453,-2.32765319390213,0.0295195594381954,,-3.6422066154840524,,
,7825.0,1332.0,9649.0,2631.0,2289.0,3030.0,1090.0,,,,-0.088054550827722,-2.32757358686101,0.0299364670182366,,-3.8810500925889593,,
,7823.0,1333.0,9650.0,2636.0,2292.0,3039.0,1091.0,,,,-0.0879503112380286,-2.32766035442421,0.0296899848407702,,-4.10677069269903,,
,7824.0,1334.0,9648.0,2633.0,2289.0,3050.0,1116.0,,,,-0.0880849475285773,-2.3273824612914,0.0292977560235796,,-4.320872165191828,,
,7825.0,1331.0,9652.0,2635.0,2316.0,3045.0,1117.0,,,,-0.0880545021016571,-2.32775564644429,0.029853841236073,,-4.524830600344896,,
,7824.0,1332.0,9652.0,2634.0,2301.0,3038.0,1102.0,,,,-0.0880555157808086,-2.3276175581476,0.0294863371438684,,-4.7199489774745,,
,7826.0,1333.0,9649.0,2634.0,2286.0,3046.0,1106.0,,,,-0.0880082461017669,-2.32723298450525,0.0295356907593933,,-4.907226073483251,,
,7826.0,1334.0,9652.0,2636.0,2281.0,3054.0,1110.0,,,,-0.0880430660409089,-2.32757712399355,0.0297621701683339,,-5.087251643274384,,
,7828.0,1335.0,9654.0,2635.0,2299.0,3052.0,1106.0,,,,-0.0878872237647864,-2.3271731185234,0.0298787980579158,,-5.260133781793553,,
,7829.0,1336.0,9652.0,2635.0,2310.0,3049.0,1107.0,,,,-0.0878813390934668,-2.32701809046118,0.029778095299053,,-5.42545769037133,,
,7828.0,1335.0,9651.0,2634.0,2310.0,3049.0,1092.0,,,,-0.0877122966766184,-2.3266316990228,0.0300991178316373,,-5.5822697376473895,,
,7830.0,1337.0,9649.0,2635.0,2307.0,3050.0,1122.0,,,,-0.0877867566313592,-2.32653517036706,0.0302322132091577,,-5.729078704136301,,
,7831.0,1338.0,9649.0,2633.0,2312.0,3054.0,1127.0,,,,-0.0877463932841609,-2.32651162774195,0.0298639824581013,,-5.863868138645618,,
,7830.0,1337.0,9647.0,2632.0,2275.0,3055.0,1116.0,,,,-0.0877364225612566,-2.32596818649862,0.0298819392176667,,-5.984118638993065,,
,7831.0,1336.0,9645.0,2630.0,2283.0,3041.0,1118.0,,,,-0.0877610613996809,-2.32653347048888,0.0300839535283795,,-6.086844206254392,,
,7828.0,1336.0,9646.0,2631.0,2297.0,3035.0,1120.0,,,,-0.0880148134712769,-2.32615715974108,0.0299104541046109,,-6.1686504029218945,,
,7831.0,1335.0,9645.0,2628.0,2285.0,3037.0,1121.0,,,,-0.0878654372979316,-2.3264281398291,0.0303869488123482,,-6.2258227164496125,,
,7832.0,1334.0,9645.0,2627.0,2273.0,3033.0,1103.0,,,,-0.0878417608359503,-2.32635406147749,0.0300688830450118,,-6.25445121717941,,
,7829.0,1333.0,9642.0,2625.0,2276.0,3045.0,1102.0,,,,-0.0879440919810557,-2.32640915466586,0.0298303367862197,,-6.250592916027304,,
,7829.0,1333.0,9645.0,2625.0,2293.0,3046.0,1101.0,,,,-0.0880388939470405,-2.32663304821298,0.0298215410476524,,-6.210467088864761,,
,7831.0,1334.0,9643.0,2626.0,2287.0,3043.0,1096.0,,,,-0.0879235992651926,-2.32716215673564,0.0297072594443916,,-6.130672251304044,,
,7828.0,1331.0,9642.0,2619.0,2294.0,3037.0,1101.0,,,,-0.088102615041826,-2.32667746050524,0.0296928869434716,,-6.008407457624068,,
,7831.0,1331.0,9643.0,2621.0,2279.0,3045.0,1103.0,,,,-0.0881154307188492,-2.32686431131433,0.0298672328305675,,-5.841676156988341,,
,7829.0,1333.0,9646.0,2620.0,2281.0,3050.0,1089.0,,,,-0.0881438585772107,-2.32709012101942,0.0297474064917638,,-5.629448986812177,,
,7830.0,1333.0,9645.0,2621.0,2295.0,3044.0,1086.0,,,,-0.0881021116939317,-2.32664325365475,0.0299427513800654,,-5.371763675000942,,
,7828.0,1330.0,9640.0,2621.0,2310.0,3039.0,1100.0,,,,-0.0881485944073117,-2.32725363689012,0.0293128150887173,,-5.069746376926726,,
,7826.0,1326.0,9641.0,2616.0,2293.0,3040.0,1099.0,,,,-0.0881752907037499,-2.32800594643608,0.0296153010089267,,-4.725548837002636,,
,7827.0,1328.0,9643.0,2620.0,2300.0,3053.0,1090.0,,,,-0.0881978423642612,-2.32720601046405,0.0294956334507413,,-4.342207688673029,,
,7826.0,1329.0,9641.0,2619.0,2309.0,3053.0,1103.0,,,,-0.0881397825313999,-2.32720418219711,0.02937106339848,,-3.9234430951224795,,
,7826.0,1329.0,9644.0,2620.0,2318.0,3048.0,1101.0,,,,-0.0882733918581055,-2.32789761945881,0.028980608766465,,-3.473421420627439,,
,7823.0,1325.0,9644.0,2616.0,2320.0,3042.0,1093.0,,,,-0.0882902658090825,-2.32791365588455,0.0290851902917597,,-2.9965096812663443,,
,7824.0,1328.0,9644.0,2617.0,2344.0,3045.0,1101.0,,,,-0.0883199380962704,-2.3281693552276,0.0293487743564035,,-2.4970483502608087,,
,7827.0,1328.0,9645.0,2618.0,2315.0,3050.0,1091.0,,,,-0.0884049996909475,-2.32837430536212,0.029007576409714,,-1.979164575791918,,
,7822.0,1329.0,9648.0,2621.0,2310.0,3051.0,1089.0,,,,-0.0885008566511305,-2.32826567947866,0.0290411225417633,,-1.4466411065305036,,
,7823.0,1326.0,9640.0,2619.0,2320.0,3049.0,1080.0,,,,-0.0884117967767338,-2.3280401926128,0.0289536013031371,,-0.9028482176184327,,
,7823.0,1328.0,9648.0,2619.0,2316.0,3047.0,1097.0,,,,-0.0884211014863967,-2.32788040322355,0.0292226048519599,,-0.35073747992300064,,
,7824.0,1330.0,9647.0,2620.0,2304.0,3045.0,1100.0,,,,-0.0881479168765337,-2.32740470409826,0.0295051276382474,,0.20711197345948743,,
,7818.0,1329.0,9644.0,2621.0,2313.0,3042.0,1111.0,,,,-0.0881547542548833,-2.32692707840569,0.0294434734422319,,0.7684109385748779,,
,7816.0,1327.0,9645.0,2620.0,2302.0,3041.0,1116.0,,,,-0.0880430239228512,-2.32701234383325,0.0296555755910618,,1.331061662127438,,
,7820.0,1330.0,9645.0,2620.0,2321.0,3040.0,1124.0,,,,-0.0879356518830765,-2.3267353977634,0.0294350528424257,,1.8930631269035885,,
,7819.0,1328.0,9649.0,2624.0,2315.0,3039.0,1113.0,,,,-0.08790544362118,-2.32712894653247,0.0297671541072159,,2.4524343409228484,,
,7819.0,1331.0,9647.0,2622.0,2320.0,3043.0,1106.0,,,,-0.0880389443432902,-2.32756453706294,0.0296292606556144,,3.007161032527884,,
,7819.0,1327.0,9645.0,2621.0,2278.0,3045.0,1127.0,,,,-0.0879926246390781,-2.32736114382304,0.0296579940215836,,3.555161832445627,,
,7819.0,1327.0,9648.0,2622.0,2299.0,3044.0,1101.0,,,,-0.0878195066733156,-2.32768861890265,0.0297069548380214,,4.094262886683947,,
,7819.0,1328.0,9647.0,2623.0,2275.0,3050.0,1104.0,,,,-0.0876903991668135,-2.32670628263416,0.0300917106132214,,4.622166554127761,,
,7820.0,1331.0,9649.0,2624.0,2289.0,3048.0,1094.0,,,,-0.087511223042266,-2.32586566557822,0.0304248911757543,,5.13640105379892,,
,7819.0,1329.0,9647.0,2622.0,2294.0,3042.0,1116.0,,,,-0.0871820818024717,-2.32549503779611,0.0310929010394324,,5.6342434816131375,,
,7819.0,1330.0,9648.0,2622.0,2271.0,3044.0,1126.0,,,,-0.0870721586251901,-2.32474446601411,0.0310197404133427,,6.11261757483949,,
,7822.0,1331.0,9648.0,2622.0,2263.0,3035.0,1124.0,,,,-0.0870519298313775,-2.32488464502211,0.031641629031161,,6.567978238436654,,
,7821.0,1331.0,9648.0,2623.0,2279.0,3036.0,1115.0,,,,-0.087106110495817,-2.32512165787944,0.0315006212067635,,6.996204885875285,,
,7818.0,1331.0,9648.0,2622.0,2283.0,3039.0,1098.0,,,,-0.0872118217619135,-2.32622798244463,0.0311711258588715,,7.392532672958805,,
,7821.0,1328.0,9649.0,2620.0,2298.0,3041.0,1100.0,,,,-0.0874384939500006,-2.32668654746404,0.0310375621450923,,7.7515525143819,,
,7818.0,1329.0,9646.0,2622.0,2279.0,3041.0,1110.0,,,,-0.0876138075072031,-2.32726255100257,0.0306616548276708,,8.067305835057425,,
,7817.0,1329.0,9648.0,2621.0,2284.0,3041.0,1119.0,,,,-0.087848393662659,-2.32829336138694,0.0301522689485538,,8.333488224027823,,
,7819.0,1328.0,9645.0,2621.0,2308.0,3043.0,1101.0,,,,-0.0881135247769218,-2.32922505762624,0.0299481619558325,,8.543759434390422,,
,7819.0,1330.0,9644.0,2622.0,2323.0,3043.0,1104.0,,,,-0.0884876309881901,-2.32969371316688,0.029614757315638,,8.692138999085651,,
,7820.0,1331.0,9648.0,2625.0,2312.0,3038.0,1101.0,,,,-0.0884806193724919,-2.32992610065574,0.0294819817169528,,8.7734508815052,,
,7820.0,1332.0,9648.0,2624.0,2289.0,3037.0,1105.0,,,,-0.0886910872081996,-2.33024482696386,0.029432611959931,,8.783769879143707,,
,7818.0,1331.0,9647.0,2625.0,2312.0,3044.0,1111.0,,,,-0.0886806457337093,-2.33057517562719,0.0289990767110595,,8.720818396862834,,
,7817.0,1328.0,9645.0,2623.0,2301.0,3046.0,1081.0,,,,-0.0887864595079578,-2.33094719716035,0.0288141979124451,,8.584265030908943,,
,7819.0,1332.0,9649.0,2624.0,2303.0,3053.0,1081.0,,,,-0.0889145733540746,-2.33064537356302,0.0286389299312788,,8.3758858109629,,
,7820.0,1331.0,9650.0,2625.0,2303.0,3046.0,1103.0,,,,-0.0890128669836129,-2.33089168120977,0.0283469340972885,,8.099564138031733,,
,7819.0,1333.0,9649.0,2627.0,2297.0,3041.0,1109.0,,,,-0.0887278245337974,-2.33051808610594,0.0283634663471907,,7.761124961337495,,
,7818.0,1329.0,9647.0,2623.0,2289.0,3045.0,1114.0,,,,-0.0889252927287341,-2.33081110909405,0.0285389865713452,,7.368019891736209,,
,7817.0,1333.0,9651.0,2625.0,2296.0,3040.0,1124.0,,,,-0.0889806643128144,-2.33130555530894,0.02840341667599,,6.928898746202873,,
,7818.0,1334.0,9650.0,2626.0,2278.0,3037.0,1104.0,,,,-0.0889781304335417,-2.33105997550215,0.0283310946727028,,6.453115243391474,,
,7819.0,1332.0,9650.0,2627.0,2284.0,3030.0,1091.0,,,,-0.0889774144686235,-2.33080202177943,0.0282936081006552,,5.9502179431254305,,
,7817.0,1333.0,9651.0,2627.0,2289.0,3042.0,1111.0,,,,-0.0889990598103704,-2.33103039642071,0.0283346827283123,,5.429472889657184,,
,7820.0,1332.0,9651.0,2624.0,2294.0,3035.0,1115.0,,,,-0.0890714865943519,-2.33123340793365,0.0283468852680837,,4.899454660723257,,
,7820.0,1332.0,9649.0,2627.0,2279.0,3041.0,1106.0,,,,-0.0891136616200799,-2.33150490212251,0.0286394364029091,,4.36773046007267,,
,7818.0,1332.0,9650.0,2629.0,2280.0,3038.0,1107.0,,,,-0.0890486965836232,-2.331816574575,0.0280267119789865,,3.840649327246828,,
,7820.0,1332.0,9649.0,2627.0,2289.0,3045.0,1117.0,,,,-0.0890752047165028,-2.33159269600323,0.0286547725472844,,3.323236738328653,,
,7820.0,1333.0,9653.0,2627.0,2311.0,3042.0,1105.0,,,,-0.0889610357015085,-2.33114586930571,0.0285056778985447,,2.819185100280688,,
,7819.0,1335.0,9652.0,2627.0,2278.0,3041.0,1102.0,,,,-0.0889847373676611,-2.33100440372619,0.028953529223024,,2.3309240135525995,,
,7821.0,1335.0,9653.0,2631.0,2285.0,3043.0,1100.0,,,,-0.0887913790926229,-2.33105302616238,0.0288813189293379,,1.8597512480513536,,
,7817.0,1333.0,9651.0,2629.0,2318.0,3045.0,1099.0,,,,-0.0887814912700445,-2.33044369931748,0.0289127994587372,,1.4060059592848633,,
,7819.0,1332.0,9653.0,2630.0,2324.0,3045.0,1123.0,,,,-0.0887476032498832,-2.3298787196038,0.0293974922556544,,0.969268753816998,,
,7822.0,1334.0,9652.0,2631.0,2323.0,3045.0,1106.0,,,,-0.0885508909883206,-2.32985618476563,0.0292189804661756,,0.548576967487696,,
,7820.0,1333.0,9656.0,2631.0,2322.0,3049.0,1100.0,,,,-0.0884997449181186,-2.32967684478172,0.0291604491263714,,0.14264587638065918,,
,7822.0,1336.0,9653.0,2631.0,2322.0,3034.0,1112.0,,,,-0.0885340194932295,-2.3297078675993,0.0294267303743919,,-0.24991356760079622,,
,7823.0,1335.0,9653.0,2632.0,2286.0,3033.0,1104.0,,,,-0.0885211675174076,-2.32964116853417,0.0290875674056851,,-0.6303917726695017,,
,7823.0,1336.0,9652.0,2633.0,2287.0,3045.0,1112.0,,,,-0.0886759921895666,-2.32969212807512,0.0293475422786394,,-0.9998053372521308,,
,7824.0,1337.0,9656.0,2632.0,2264.0,3047.0,1120.0,,,,-0.0886903842704608,-2.3296331869495,0.0290988419471129,,-1.3587626641424684,,
,7821.0,1337.0,9655.0,2635.0,2282.0,3048.0,1106.0,,,,-0.088594456638398,-2.33008900950929,0.0291184124035398,,-1.70738114540667,,
,7824.0,1334.0,9654.0,2631.0,2281.0,3048.0,1129.0,,,,-0.0887859142426466,-2.32978230370458,0.02904153696132,,-2.045262773335219,,
,7824.0,1337.0,9658.0,2635.0,2284.0,3043.0,1129.0,,,,-0.0889872933255571,-2.33017750132841,0.0288165934916406,,-2.371530000979404,,
,7824.0,1339.0,9659.0,2635.0,2285.0,3046.0,1128.0,,,,-0.0885646798163054,-2.33011240919347,0.0289188978601152,,-2.684918092822232,,
,7827.0,1338.0,9654.0,2637.0,2278.0,3041.0,1124.0,,,,-0.0886374011123716,-2.33055467884507,0.0289687376729668,,-2.983914544384386,,
,7826.0,1337.0,9656.0,2635.0,2288.0,3049.0,1147.0,,,,-0.0886925485771144,-2.33075009234558,0.0290862657885832,,-3.266930811126551,,
