TimeLabel,MEAS1_PPG1,MEAS1_PPG2,MEAS1_PPG3,MEAS1_PPG4,ACCX,ACCY,ACCZ,HR_timestamp,HR_value,radar_timestamp,phase_rx0,phase_rx1,phase_rx2,timestep,n_process,original_rate,calculated_rate
2025-07-16 20:17:47,5689.0,1191.0,5035.0,1040.0,2313.0,2489.0,1970.0,2025-07-16 20:17:47,106.0,2025/07/16 08:17:47 PM,0.0137767154712514,-1.9930340633428,0.0857362327770804,2025/07/16 08:17:47 PM,-2.052664599604487,18.096513748168945,15.955206916469473
,5687.0,1192.0,5034.0,1039.0,2315.0,2487.0,1971.0,2025-07-16 20:17:48,106.0,,0.0137138696634122,-1.9937463666937,0.0856640137143411,2025/07/16 08:17:57 PM,-1.7596102550662114,17.328519821166992,17.17741935483872
,5687.0,1191.0,5034.0,1040.0,2314.0,2487.0,1969.0,2025-07-16 20:17:49,107.0,,0.0136391781839519,-1.99436553667851,0.0855527848902172,2025/07/16 08:18:07 PM,-1.4216205928305758,17.05756950378418,17.246167060844602
,5688.0,1191.0,5037.0,1039.0,2312.0,2474.0,1972.0,2025-07-16 20:17:50,107.0,,0.0134062583463015,-1.99533245911975,0.0855386088481756,2025/07/16 08:18:17 PM,-1.0445375171836282,16.701461791992188,20.359921406739964
,5687.0,1192.0,5039.0,1041.0,2301.0,2477.0,1973.0,2025-07-16 20:17:51,108.0,,0.0132952119814855,-1.99607215370938,0.0854255436322537,2025/07/16 08:18:27 PM,-0.6354117719994657,18.223234176635746,18.118131868131872
,5686.0,1191.0,5037.0,1043.0,2340.0,2468.0,1973.0,2025-07-16 20:17:52,108.0,,0.0131826608084544,-1.99643882253802,0.0853530210262688,2025/07/16 08:18:37 PM,-0.20219724957442067,19.017433166503903,16.65709728867622
,5689.0,1192.0,5037.0,1040.0,2336.0,2472.0,1972.0,2025-07-16 20:17:53,108.0,,0.013133948117472,-1.99670891983876,0.0853911532051038,2025/07/16 08:18:47 PM,0.24654869323049877,18.195602416992188,18.994113231401364
,5689.0,1192.0,5039.0,1042.0,2312.0,2484.0,1973.0,2025-07-16 20:17:54,109.0,,0.0131250855206585,-1.99742168294462,0.0852800988681299,2025/07/16 08:18:57 PM,0.7019453306123201,17.817371368408203,15.099715099715123
,5690.0,1192.0,5040.0,1041.0,2321.0,2483.0,1980.0,2025-07-16 20:17:55,109.0,,0.0129536401234753,-1.99805960210638,0.0852526897484571,2025/07/16 08:19:07 PM,1.1550445633987367,17.045455932617188,16.795979114819676
,5692.0,1191.0,5039.0,1042.0,2318.0,2478.0,1985.0,2025-07-16 20:17:56,109.0,,0.0129590008886256,-1.99805859167805,0.0852814252769312,2025/07/16 08:19:17 PM,1.5970651562971516,16.961130142211914,16.20536326418681
,5686.0,1192.0,5038.0,1041.0,2310.0,2478.0,1995.0,2025-07-16 20:17:57,109.0,,0.0130743684574782,-1.99825794041237,0.0851464993397912,2025/07/16 08:19:27 PM,2.0196106290753058,16.191211700439453,13.815789473684191
,5687.0,1193.0,5036.0,1039.0,2308.0,2481.0,1985.0,2025-07-16 20:17:58,110.0,,0.0131380208477744,-1.99801943256269,0.0852979854953559,2025/07/16 08:19:37 PM,2.4148755021026576,15.765765190124512,15.389901529436408
,5688.0,1193.0,5036.0,1042.0,2314.0,2481.0,1977.0,2025-07-16 20:17:59,110.0,,0.0132311109635799,-1.99759968147793,0.0852924702740768,2025/07/16 08:19:47 PM,2.775841292698649,15.306122779846191,15.911485774499504
,5688.0,1192.0,5038.0,1042.0,2318.0,2487.0,1975.0,2025-07-16 20:18:00,110.0,,0.0133685005776959,-1.99707040993839,0.0853894077049411,2025/07/16 08:19:57 PM,3.096459152086356,14.946619033813477,17.5618073316283
,5687.0,1191.0,5036.0,1041.0,2321.0,2480.0,1971.0,2025-07-16 20:18:01,110.0,,0.0134738566763484,-1.9966937333726,0.0854359321325001,2025/07/16 08:20:07 PM,3.3718114306726825,16.494844436645508,16.258639910813823
,5688.0,1192.0,5037.0,1041.0,2322.0,2489.0,1968.0,2025-07-16 20:18:02,110.0,,0.0135278463756229,-1.99592178917801,0.0854280403698059,2025/07/16 08:20:17 PM,3.5982408431685915,16.73640251159668,14.737793851717889
,5688.0,1191.0,5037.0,1041.0,2315.0,2483.0,1973.0,2025-07-16 20:18:03,110.0,,0.0135719954547969,-1.99552543396626,0.0854273252685907,2025/07/16 08:20:27 PM,3.7734345194117775,16.104293823242188,17.079152731326655
,5687.0,1194.0,5039.0,1040.0,2312.0,2494.0,1967.0,2025-07-16 20:18:04,110.0,,0.013545702127902,-1.99519261018921,0.0854954207112776,2025/07/16 08:20:37 PM,3.8964520586443547,15.92115306854248,16.93106495802033
,5689.0,1192.0,5040.0,1040.0,2301.0,2494.0,1971.0,2025-07-16 20:18:05,110.0,,0.0136960854600613,-1.99497039104677,0.085498712083005,,3.967691780232751,,
,5687.0,1190.0,5036.0,1039.0,2315.0,2512.0,1965.0,2025-07-16 20:18:06,110.0,,0.0137866030403747,-1.99502196143139,0.0855127245505236,,3.988796410622606,,
,5688.0,1195.0,5038.0,1043.0,2317.0,2499.0,1975.0,2025-07-16 20:18:07,110.0,,0.0137671570235275,-1.99475214123949,0.0854971524423183,,3.9625063694996956,,
,5689.0,1193.0,5041.0,1042.0,2301.0,2485.0,1974.0,2025-07-16 20:18:08,110.0,,0.0136122119433392,-1.99513344804187,0.0854966496806057,,3.8924738272949626,,
,5691.0,1191.0,5040.0,1043.0,2303.0,2480.0,1972.0,2025-07-16 20:18:09,110.0,,0.013525704864637,-1.99512559426104,0.0855206518671506,,3.783053135914009,,
,5688.0,1192.0,5040.0,1040.0,2308.0,2480.0,1987.0,2025-07-16 20:18:10,110.0,,0.0134973465601239,-1.99531981453895,0.0855418190243111,,3.6390833075848117,,
,5691.0,1192.0,5040.0,1039.0,2301.0,2472.0,1977.0,2025-07-16 20:18:11,110.0,,0.0135003263884831,-1.99534853571944,0.0854929347006518,,3.465676347000393,,
,5692.0,1195.0,5043.0,1042.0,2291.0,2472.0,1965.0,2025-07-16 20:18:12,110.0,,0.0134953802038335,-1.99500586517764,0.0854572536813659,,3.2680218890389585,,
,5694.0,1192.0,5046.0,1044.0,2294.0,2475.0,1965.0,2025-07-16 20:18:13,110.0,,0.0135620111933826,-1.99591368769975,0.0854342844063956,,3.0512145863458167,,
,5692.0,1194.0,5042.0,1043.0,2323.0,2478.0,1977.0,2025-07-16 20:18:14,110.0,,0.0135159599956466,-1.99620825630313,0.0855206190601766,,2.820107244908692,,
,5693.0,1195.0,5046.0,1044.0,2340.0,2484.0,1979.0,2025-07-16 20:18:15,111.0,,0.0135424522388961,-1.99632189239301,0.0854026566579627,,2.5791908904839747,,
,5695.0,1195.0,5046.0,1045.0,2321.0,2478.0,1982.0,2025-07-16 20:18:16,111.0,,0.013474654284,-1.99683155997822,0.0853267289848124,,2.3325029779733364,,
,5697.0,1193.0,5048.0,1044.0,2321.0,2479.0,1976.0,2025-07-16 20:18:17,110.0,,0.0133580016103436,-1.99725413178437,0.0852919441138723,,2.0835658563829926,,
,5695.0,1195.0,5047.0,1044.0,2351.0,2473.0,1964.0,2025-07-16 20:18:18,110.0,,0.0133845906276363,-1.99765285180725,0.0853782984951489,,1.835357693770839,,
,5697.0,1195.0,5047.0,1044.0,2337.0,2471.0,1972.0,2025-07-16 20:18:19,110.0,,0.0132198721676143,-1.99793344174063,0.0852915495743553,,1.5903161660351917,,
,5696.0,1195.0,5052.0,1043.0,2333.0,2494.0,1968.0,2025-07-16 20:18:20,110.0,,0.0132345842846083,-1.99810535875237,0.0852630288235343,,1.3503715934579026,,
,5702.0,1198.0,5054.0,1044.0,2319.0,2491.0,1954.0,2025-07-16 20:18:21,110.0,,0.0134720888308705,-1.99778368903095,0.0852685571124329,,1.1170023155254898,,
,5697.0,1197.0,5055.0,1044.0,2323.0,2489.0,1955.0,2025-07-16 20:18:22,110.0,,0.0134124246988763,-1.99734310034764,0.0852711348348441,,0.8913023778252095,,
,5700.0,1197.0,5052.0,1045.0,2335.0,2488.0,1954.0,2025-07-16 20:18:23,110.0,,0.0133426989774046,-1.997403207242,0.0852729796156829,,0.67405077740807,,
,5699.0,1195.0,5053.0,1047.0,2309.0,2484.0,1969.0,2025-07-16 20:18:24,110.0,,0.0134256344955069,-1.99723211920537,0.0853285004547149,,0.4657726939418088,,
,5702.0,1200.0,5056.0,1046.0,2329.0,2477.0,1974.0,2025-07-16 20:18:25,110.0,,0.0134733609030368,-1.99706364528497,0.0853676185778614,,0.2667861743580123,,
,5702.0,1198.0,5057.0,1045.0,2328.0,2475.0,1976.0,2025-07-16 20:18:26,110.0,,0.0135592209671966,-1.99647286432361,0.0853202607091172,,0.07723219100528,,
,5699.0,1197.0,5060.0,1045.0,2331.0,2488.0,1976.0,2025-07-16 20:18:27,110.0,,0.0135752025971488,-1.99639192429896,0.0853931170050029,,-0.10290909082614168,,
,5703.0,1197.0,5060.0,1045.0,2314.0,2480.0,1971.0,2025-07-16 20:18:28,110.0,,0.0135816805937724,-1.99626468112568,0.0853550014376083,,-0.2738090607778903,,
,5704.0,1198.0,5061.0,1047.0,2329.0,2483.0,1973.0,2025-07-16 20:18:29,109.0,,0.0135777701769838,-1.99684861885075,0.0854182098222732,,-0.4357801325999709,,
,5703.0,1200.0,5062.0,1051.0,2329.0,2491.0,1973.0,2025-07-16 20:18:30,109.0,,0.0135059941918809,-1.99665798283647,0.0853417226509087,,-0.5892571204190246,,
,5703.0,1196.0,5064.0,1046.0,2323.0,2492.0,1972.0,2025-07-16 20:18:31,109.0,,0.0133030637720611,-1.99677574621007,0.085280336988346,,-0.7347674225533641,,
,5703.0,1199.0,5064.0,1049.0,2353.0,2509.0,1966.0,2025-07-16 20:18:32,108.0,,0.0133174568774013,-1.99693750646118,0.0853633347217483,,-0.8728913326894744,,
,5703.0,1198.0,5066.0,1048.0,2344.0,2499.0,1963.0,2025-07-16 20:18:33,108.0,,0.0132987978068306,-1.99728482046429,0.0853211173981572,,-1.0042176518859638,,
,5700.0,1199.0,5059.0,1047.0,2351.0,2492.0,1969.0,2025-07-16 20:18:34,108.0,,0.0131741299614208,-1.9977755325971,0.0851892551078017,,-1.1293024100351337,,
,5700.0,1198.0,5058.0,1048.0,2341.0,2497.0,1974.0,2025-07-16 20:18:35,108.0,,0.0130690665712551,-1.99833517429973,0.0852032495677451,,-1.2486395250628128,,
,5698.0,1196.0,5056.0,1044.0,2298.0,2496.0,1967.0,2025-07-16 20:18:36,108.0,,0.0130832202896448,-1.99867700573707,0.0851170652118364,,-1.362651218366859,,
,5699.0,1197.0,5055.0,1045.0,2288.0,2484.0,1979.0,2025-07-16 20:18:37,108.0,,0.0128502126573761,-1.99935714513951,0.0850390973269489,,-1.471702731231842,,
,5695.0,1197.0,5052.0,1043.0,2298.0,2478.0,1995.0,2025-07-16 20:18:38,107.0,,0.0128700223312169,-1.99956711858177,0.0850417671887184,,-1.5761406658300456,,
,5694.0,1195.0,5048.0,1047.0,2289.0,2477.0,1992.0,2025-07-16 20:18:39,107.0,,0.0127593607873023,-1.99961563133121,0.0850712591362933,,-1.676348189413207,,
,5692.0,1193.0,5045.0,1040.0,2282.0,2475.0,1984.0,2025-07-16 20:18:40,107.0,,0.0127334343586975,-1.99932240538533,0.0850144813330573,,-1.7728051185003477,,
,5689.0,1194.0,5042.0,1043.0,2286.0,2474.0,1975.0,2025-07-16 20:18:41,107.0,,0.0126518618955234,-1.99960363186694,0.0849592589289404,,-1.8661382852335444,,
,5690.0,1192.0,5039.0,1044.0,2280.0,2465.0,1968.0,2025-07-16 20:18:42,107.0,,0.0126378065737278,-2.00042528958284,0.0850654742233287,,-1.9571484437576383,,
,5687.0,1194.0,5037.0,1043.0,2296.0,2460.0,1970.0,2025-07-16 20:18:43,107.0,,0.0125541086824697,-2.00085964124497,0.0848900200854164,,-2.046803870232272,,
,5686.0,1192.0,5036.0,1039.0,2315.0,2475.0,1960.0,2025-07-16 20:18:44,106.0,,0.0124898591188769,-2.00121866110992,0.0848728018879062,,-2.1361964378247826,,
,5687.0,1193.0,5036.0,1040.0,2344.0,2485.0,1949.0,2025-07-16 20:18:45,107.0,,0.0122792952140015,-2.00196206320792,0.0848541081274697,,-2.2264618072993763,,
,5686.0,1193.0,5037.0,1043.0,2335.0,2492.0,1953.0,2025-07-16 20:18:46,107.0,,0.0123013115307655,-2.00283574391746,0.0848038355496839,,-2.3186701754591725,,
,5684.0,1192.0,5035.0,1042.0,2333.0,2492.0,1948.0,2025-07-16 20:18:47,107.0,,0.0120894618059909,-2.00336326124726,0.0847942288171294,,-2.4136968905894087,,
,5684.0,1191.0,5035.0,1041.0,2350.0,2482.0,1950.0,2025-07-16 20:18:48,108.0,,0.0120364129388753,-2.00364668188091,0.0847697232600924,,-2.5120829087315277,,
,5684.0,1192.0,5031.0,1040.0,2355.0,2479.0,1950.0,2025-07-16 20:18:49,108.0,,0.0119075619259186,-2.00364757497671,0.0847662352045025,,-2.613894008231266,,
,5686.0,1192.0,5031.0,1040.0,2351.0,2481.0,1956.0,2025-07-16 20:18:50,108.0,,0.0119124441690956,-2.00356105961617,0.0847660857049961,,-2.7185861103554014,,
,5686.0,1192.0,5035.0,1040.0,2346.0,2480.0,1952.0,2025-07-16 20:18:51,108.0,,0.0120984675763525,-2.00345496963395,0.0847902894321455,,-2.8248835689366567,,
,5686.0,1194.0,5031.0,1041.0,2341.0,2501.0,1948.0,2025-07-16 20:18:52,108.0,,0.01215797445088,-2.00279783830365,0.084846488729755,,-2.9306790353327776,,
,5685.0,1189.0,5032.0,1040.0,2303.0,2494.0,1978.0,2025-07-16 20:18:53,109.0,,0.0121619174644888,-2.00266810581309,0.0848976120120711,,-3.0329671827127505,,
,5685.0,1192.0,5032.0,1041.0,2291.0,2496.0,1982.0,2025-07-16 20:18:54,109.0,,0.0122217873546338,-2.00320925656235,0.0848605202093033,,-3.1278282889038733,,
,5686.0,1191.0,5035.0,1041.0,2295.0,2498.0,1983.0,2025-07-16 20:18:55,110.0,,0.0121650819757433,-2.00276214114903,0.0849688915908078,,-3.2104788999577907,,
,5688.0,1192.0,5034.0,1040.0,2305.0,2493.0,1988.0,2025-07-16 20:18:56,111.0,,0.0121502424912585,-2.00234083877994,0.0849038943283294,,-3.2754036431888576,,
,5686.0,1192.0,5033.0,1043.0,2320.0,2479.0,1981.0,2025-07-16 20:18:57,111.0,,0.0119893324124691,-2.00235018310342,0.084854690384836,,-3.316574227983966,,
,5686.0,1192.0,5035.0,1044.0,2326.0,2483.0,1979.0,2025-07-16 20:18:58,111.0,,0.0119773558408285,-2.00281972995679,0.0848938898877716,,-3.327749790357171,,
,5690.0,1194.0,5038.0,1046.0,2320.0,2506.0,1976.0,2025-07-16 20:18:59,110.0,,0.0118698208218281,-2.00300160263248,0.0848575470798135,,-3.3028392865796703,,
,5689.0,1195.0,5037.0,1042.0,2322.0,2499.0,1967.0,2025-07-16 20:19:00,109.0,,0.0117616898679342,-2.00318968597823,0.0849300960298809,,-3.236294531396217,,
,5691.0,1192.0,5037.0,1042.0,2320.0,2480.0,1966.0,2025-07-16 20:19:01,109.0,,0.0117256101018845,-2.00401431188974,0.0848019912197106,,-3.123494557512482,,
,5688.0,1192.0,5039.0,1043.0,2307.0,2482.0,1974.0,2025-07-16 20:19:02,109.0,,0.0117737360616196,-2.00411859291515,0.0847588811793411,,-2.9610805953432884,,
,5690.0,1194.0,5040.0,1045.0,2292.0,2477.0,1978.0,2025-07-16 20:19:03,109.0,,0.0118138297482302,-2.00399024963916,0.084674316288378,,-2.7472073895367566,,
,5690.0,1192.0,5038.0,1043.0,2304.0,2472.0,1979.0,2025-07-16 20:19:04,110.0,,0.0116911277149496,-2.00447363931162,0.0848157142267803,,-2.4816899432277775,,
,5689.0,1193.0,5037.0,1044.0,2307.0,2464.0,1972.0,2025-07-16 20:19:05,110.0,,0.0118303249485023,-2.00381489976457,0.084780338366935,,-2.1660417595451236,,
,5689.0,1193.0,5040.0,1046.0,2298.0,2471.0,1974.0,2025-07-16 20:19:06,111.0,,0.0118138372592504,-2.00447110429198,0.0848495232045628,,-1.8034164826135803,,
,5690.0,1195.0,5037.0,1045.0,2297.0,2469.0,1975.0,2025-07-16 20:19:07,111.0,,0.011819482681494,-2.00421127441445,0.0847677908416722,,-1.3984754189011195,,
,5689.0,1195.0,5041.0,1045.0,2297.0,2477.0,1973.0,2025-07-16 20:19:08,111.0,,0.0120173738577865,-2.00401184186267,0.0847700783173618,,-0.9572068517006902,,
,5689.0,1194.0,5038.0,1044.0,2292.0,2484.0,1972.0,2025-07-16 20:19:09,111.0,,0.0120274200221767,-2.00351687660439,0.0848382310890112,,-0.4867200500646772,,
,5689.0,1195.0,5040.0,1043.0,2324.0,2502.0,1980.0,2025-07-16 20:19:10,110.0,,0.012184179810299,-2.00284623816996,0.0848420105275014,,0.004970078600624429,,
,5691.0,1194.0,5041.0,1044.0,2325.0,2493.0,1981.0,2025-07-16 20:19:11,110.0,,0.0121409805945752,-2.00261748009892,0.0849145619800812,,0.5091597664342323,,
,5690.0,1197.0,5038.0,1044.0,2310.0,2491.0,1970.0,2025-07-16 20:19:12,110.0,,0.0123411946264756,-2.00196467139027,0.0849245413676267,,1.016673625956687,,
,5687.0,1194.0,5038.0,1043.0,2304.0,2488.0,1958.0,2025-07-16 20:19:13,110.0,,0.0123709206765996,-2.00186725561929,0.0849943416104421,,1.5180860243609382,,
,5688.0,1193.0,5039.0,1045.0,2302.0,2493.0,1956.0,2025-07-16 20:19:14,110.0,,0.0124943003863199,-2.0016560482269,0.0850708212627391,,2.0039518867167985,,
,5690.0,1193.0,5041.0,1045.0,2333.0,2487.0,1963.0,2025-07-16 20:19:15,110.0,,0.0125046057318356,-2.00118921471044,0.0850699485378459,,2.465050707560443,,
,5688.0,1197.0,5042.0,1044.0,2325.0,2500.0,1968.0,2025-07-16 20:19:16,109.0,,0.0125991601539931,-2.00145539018322,0.0850467625283243,,2.8926434967726884,,
,5691.0,1196.0,5041.0,1043.0,2324.0,2501.0,1973.0,2025-07-16 20:19:17,108.0,,0.012340735019007,-2.00097499868886,0.0850663319885224,,3.2787368837076687,,
,5691.0,1192.0,5039.0,1045.0,2316.0,2499.0,1979.0,2025-07-16 20:19:18,107.0,,0.0126715648057276,-2.00098386428256,0.0850087918550606,,3.6163427870375484,,
,5691.0,1195.0,5043.0,1043.0,2317.0,2504.0,1984.0,2025-07-16 20:19:19,105.0,,0.0126697399804605,-2.00052168699876,0.0850914708141203,,3.899717040406811,,
,5690.0,1197.0,5043.0,1045.0,2334.0,2523.0,1980.0,2025-07-16 20:19:20,104.0,,0.0127553808927419,-2.00073831258982,0.0850955307817515,,4.124557414076859,,
,5693.0,1195.0,5042.0,1046.0,2338.0,2514.0,1981.0,2025-07-16 20:19:21,103.0,,0.0126742815801545,-2.00059516449589,0.0850740397439965,,4.288141850972061,,
,5691.0,1194.0,5044.0,1044.0,2325.0,2486.0,1986.0,2025-07-16 20:19:22,102.0,,0.0126529318446271,-2.00081937604275,0.0851176372035229,,4.389392094174065,,
,5693.0,1197.0,5045.0,1043.0,2329.0,2490.0,1984.0,2025-07-16 20:19:23,102.0,,0.0126233462633294,-2.00051638703158,0.0850480816262822,,4.428855662914085,,
,5692.0,1196.0,5047.0,1044.0,2324.0,2481.0,1981.0,2025-07-16 20:19:24,101.0,,0.0126847095019952,-2.00084118043051,0.085090059383732,,4.408608471163498,,
,5692.0,1197.0,5046.0,1046.0,2320.0,2473.0,1977.0,2025-07-16 20:19:25,102.0,,0.0126095816222386,-2.00106939549489,0.0850694751720812,,4.33208882641345,,
,5693.0,1196.0,5047.0,1044.0,2328.0,2477.0,1977.0,2025-07-16 20:19:26,102.0,,0.0125540375658383,-2.00122686492676,0.0851322704629748,,4.203879253644146,,
,5693.0,1196.0,5049.0,1047.0,2310.0,2484.0,1978.0,2025-07-16 20:19:27,103.0,,0.0126062437491479,-2.00071344399167,0.0850285251111507,,4.029454987809046,,
,5696.0,1195.0,5050.0,1044.0,2325.0,2482.0,1963.0,2025-07-16 20:19:28,104.0,,0.012523148102884,-2.00093602447159,0.085095179323171,,3.8149174287318854,,
,5696.0,1195.0,5051.0,1047.0,2340.0,2482.0,1962.0,2025-07-16 20:19:29,104.0,,0.0125634410886973,-2.00149845549159,0.0850437044226693,,3.56672808421903,,
,5700.0,1199.0,5051.0,1047.0,2327.0,2486.0,1968.0,2025-07-16 20:19:30,105.0,,0.0124675376833979,-2.00127751684315,0.0849979947129861,,3.2914545652240323,,
,5697.0,1197.0,5050.0,1046.0,2341.0,2473.0,1963.0,2025-07-16 20:19:31,106.0,,0.0124472883294961,-2.0016234353613,0.0849606934929358,,2.9955364237586144,,
,5699.0,1198.0,5054.0,1047.0,2318.0,2497.0,1968.0,2025-07-16 20:19:32,106.0,,0.0124709069607903,-2.0012505246367,0.0850142462433515,,2.685076361534466,,
,5701.0,1200.0,5056.0,1048.0,2299.0,2495.0,1960.0,2025-07-16 20:19:33,106.0,,0.0124911583610912,-2.00116321356956,0.0850502490057361,,2.3656620969265374,,
,5699.0,1196.0,5058.0,1051.0,2320.0,2498.0,1956.0,2025-07-16 20:19:34,106.0,,0.0124504586045601,-2.00063501014239,0.0851177195226444,,2.0422252318551646,,
,5702.0,1197.0,5059.0,1048.0,2343.0,2484.0,1962.0,2025-07-16 20:19:35,107.0,,0.0123970328748487,-2.00071577500481,0.0850949007472209,,1.7189441803622383,,
,5702.0,1200.0,5057.0,1049.0,2349.0,2482.0,1959.0,2025-07-16 20:19:36,107.0,,0.012443198369458,-2.00020945413405,0.0850730676093052,,1.3991971167953794,,
,5705.0,1198.0,5060.0,1049.0,2351.0,2483.0,1967.0,2025-07-16 20:19:37,107.0,,0.012728530643969,-2.00023977158841,0.0850875394875856,,1.0855676199107913,,
,5705.0,1199.0,5060.0,1048.0,2334.0,2475.0,1971.0,2025-07-16 20:19:38,107.0,,0.0128879222888646,-1.99993920834538,0.0851098252118527,,0.7799010665150298,,
,5702.0,1199.0,5060.0,1048.0,2328.0,2485.0,1983.0,2025-07-16 20:19:39,107.0,,0.0130514452170151,-1.99953826661193,0.085116941486415,,0.48340504504981796,,
,5705.0,1198.0,5062.0,1051.0,2342.0,2486.0,1978.0,2025-07-16 20:19:40,107.0,,0.0130088865888023,-1.99948520613325,0.0851887027035846,,0.19678292037416698,,
,5707.0,1202.0,5067.0,1050.0,2361.0,2489.0,1966.0,2025-07-16 20:19:41,107.0,,0.0130054133996249,-1.99917377351375,0.0852700092613118,,-0.07961333706753787,,
,5709.0,1199.0,5066.0,1051.0,2357.0,2501.0,1960.0,2025-07-16 20:19:42,107.0,,0.012916099387817,-1.99938203546187,0.0851461803489775,,-0.345626352864996,,
,5704.0,1198.0,5066.0,1050.0,2374.0,2503.0,1954.0,2025-07-16 20:19:43,107.0,,0.0127974704817683,-1.99996276735745,0.0851741861837181,,-0.6011472634868024,,
,5704.0,1204.0,5064.0,1051.0,2340.0,2515.0,1956.0,2025-07-16 20:19:44,108.0,,0.0127826012491331,-2.00098049993996,0.0850852571269952,,-0.8459925056883072,,
,5703.0,1202.0,5063.0,1051.0,2332.0,2501.0,1960.0,2025-07-16 20:19:45,108.0,,0.0127235539869261,-2.00117998203478,0.0851048078023945,,-1.0798120519712056,,
,5706.0,1202.0,5063.0,1053.0,2322.0,2498.0,1969.0,2025-07-16 20:19:46,109.0,,0.012476654362782,-2.00207731119172,0.0850546907797889,,-1.3020342459539551,,
,5702.0,1199.0,5060.0,1050.0,2300.0,2498.0,1974.0,2025-07-16 20:19:47,109.0,,0.0124666117727727,-2.00235238910113,0.0848706698368337,,-1.5118500955341279,,
,5700.0,1198.0,5057.0,1049.0,2286.0,2472.0,1976.0,2025-07-16 20:19:48,109.0,,0.0123546847433088,-2.00257779859738,0.0848495040296875,,-1.708238701786327,,
,5701.0,1199.0,5055.0,1048.0,2257.0,2464.0,1980.0,2025-07-16 20:19:49,110.0,,0.0122502294736421,-2.00321440836046,0.0848688088489133,,-1.8900344264955393,,
,5697.0,1197.0,5054.0,1048.0,2261.0,2465.0,1979.0,2025-07-16 20:19:50,110.0,,0.012160179175896,-2.00328837245887,0.0848200368612375,,-2.056034159321591,,
,5696.0,1196.0,5053.0,1046.0,2253.0,2470.0,1979.0,2025-07-16 20:19:51,111.0,,0.0121798250838019,-2.00377309274612,0.0848186022280231,,-2.2051389554554497,,
,5692.0,1195.0,5048.0,1047.0,2278.0,2463.0,1974.0,2025-07-16 20:19:52,111.0,,0.0121753558252477,-2.0034757218581,0.0847747681603646,,-2.336518556399358,,
,5696.0,1195.0,5046.0,1045.0,2287.0,2472.0,1967.0,2025-07-16 20:19:53,112.0,,0.0120222730152776,-2.00420687809785,0.0847910201442411,,-2.449780755286637,,
,5692.0,1195.0,5045.0,1046.0,2299.0,2477.0,1956.0,2025-07-16 20:19:54,112.0,,0.012077387929055,-2.00464775402883,0.084764558228303,,-2.5451215715310225,,
2025-07-16 20:17:48,5692.0,1194.0,5041.0,1047.0,2305.0,2481.0,1959.0,2025-07-16 20:19:55,113.0,2025/07/16 08:17:48 PM,0.0119662234170031,-2.00487916233254,0.084736798870675,,-2.6234283250592862,,
,5692.0,1192.0,5042.0,1045.0,2338.0,2482.0,1958.0,2025-07-16 20:19:56,113.0,,0.011904694878615,-2.00513652579605,0.0846403728275007,,-2.6863074652392522,,
,5688.0,1194.0,5038.0,1045.0,2353.0,2495.0,1961.0,2025-07-16 20:19:57,114.0,,0.0118547803207667,-2.00577565130046,0.0845691343022305,,-2.7360137131181967,,
,5691.0,1196.0,5038.0,1046.0,2356.0,2495.0,1964.0,2025-07-16 20:19:58,114.0,,0.0116650688175995,-2.00605897347677,0.084592444489949,,-2.7752675411197827,,
,5691.0,1193.0,5040.0,1047.0,2352.0,2486.0,1964.0,2025-07-16 20:19:59,114.0,,0.0115421650626692,-2.00654935163063,0.0845266850147492,,-2.806963967743041,,
,5689.0,1193.0,5039.0,1044.0,2352.0,2488.0,1967.0,2025-07-16 20:20:00,114.0,,0.0116254538414409,-2.0066760219761,0.0845824386131402,,-2.83379506296736,,
,5688.0,1195.0,5039.0,1046.0,2350.0,2475.0,1951.0,2025-07-16 20:20:01,113.0,,0.0115488058728106,-2.00623156525013,0.084673215503252,,-2.857827648676772,,
,5688.0,1195.0,5036.0,1043.0,2327.0,2488.0,1959.0,2025-07-16 20:20:02,112.0,,0.0115502552573757,-2.00626885478495,0.0845933473575475,,-2.8800917186682558,,
,5691.0,1195.0,5039.0,1044.0,2327.0,2492.0,1966.0,2025-07-16 20:20:03,111.0,,0.0116458180160162,-2.00657698332839,0.084677552868551,,-2.900240029397108,,
,5689.0,1193.0,5038.0,1044.0,2329.0,2489.0,1973.0,2025-07-16 20:20:04,110.0,,0.0115753418837188,-2.00583425589299,0.0846786499165583,,-2.9163334434662986,,
,5692.0,1195.0,5038.0,1045.0,2333.0,2479.0,1965.0,2025-07-16 20:20:05,109.0,,0.0114668156574281,-2.00567871458763,0.0846529144434395,,-2.924791278511081,,
,5691.0,1194.0,5042.0,1045.0,2325.0,2475.0,1975.0,2025-07-16 20:20:06,109.0,,0.0114265944063988,-2.00570987019141,0.0847667807297331,,-2.9205244010172344,,
,5693.0,1196.0,5042.0,1046.0,2324.0,2482.0,1979.0,2025-07-16 20:20:07,109.0,,0.011395762271004,-2.00632341103845,0.0846389412569374,,-2.8972447782836883,,
,5692.0,1194.0,5042.0,1044.0,2329.0,2484.0,1973.0,2025-07-16 20:20:08,109.0,,0.0113131317704821,-2.00628656785394,0.0847887127020527,,-2.8479222095845222,,
,5694.0,1196.0,5042.0,1045.0,2346.0,2472.0,1966.0,2025-07-16 20:20:09,108.0,,0.0112148559810908,-2.00638428814332,0.0847030091725069,,-2.765340600296728,,
,5693.0,1195.0,5043.0,1046.0,2337.0,2477.0,1970.0,2025-07-16 20:20:10,108.0,,0.0111471051903189,-2.00676469782391,0.0846736182827031,,-2.6426956235234296,,
,5696.0,1199.0,5045.0,1048.0,2327.0,2478.0,1970.0,2025-07-16 20:20:11,108.0,,0.0109748607829959,-2.00737806110536,0.0845593474151381,,-2.474174542416212,,
,5693.0,1194.0,5044.0,1047.0,2328.0,2487.0,1972.0,2025-07-16 20:20:12,107.0,,0.0109811597302367,-2.00837664636272,0.0844595421512607,,-2.2554665736021287,,
,5694.0,1194.0,5044.0,1047.0,2305.0,2483.0,1969.0,2025-07-16 20:20:13,107.0,,0.0107889546829327,-2.00805232905782,0.0844804340760884,,-1.984165634656103,,
,5697.0,1195.0,5046.0,1049.0,2325.0,2480.0,1975.0,2025-07-16 20:20:14,107.0,,0.010674577705676,-2.00868787683597,0.0844488560740881,,-1.6600428133922838,,
,5697.0,1196.0,5045.0,1048.0,2308.0,2470.0,1977.0,2025-07-16 20:20:15,108.0,,0.0107796054201207,-2.00948945312895,0.0843313872156536,,-1.285179849675386,,
,5694.0,1196.0,5050.0,1048.0,2312.0,2467.0,1980.0,2025-07-16 20:20:16,108.0,,0.0107654628004536,-2.00955506923015,0.0844364322404399,,-0.8639651876005536,,
,5696.0,1194.0,5046.0,1046.0,2317.0,2472.0,1978.0,2025-07-16 20:20:17,108.0,,0.0106540771354474,-2.00949894302967,0.0843747884899192,,-0.40296064740826165,,
,5697.0,1194.0,5046.0,1047.0,2310.0,2473.0,1978.0,2025-07-16 20:20:18,108.0,,0.0107319630486891,-2.00993237761553,0.0843067454258757,,0.08934901796057432,,
,5697.0,1196.0,5048.0,1047.0,2288.0,2474.0,1987.0,2025-07-16 20:20:19,108.0,,0.0107526811681628,-2.0090946459095,0.0844443989671056,,0.6029076474089242,,
,5697.0,1194.0,5050.0,1047.0,2284.0,2476.0,1989.0,2025-07-16 20:20:20,109.0,,0.0108610139245554,-2.00921204349902,0.0844686140788496,,1.1265198583288794,,
,5695.0,1195.0,5049.0,1045.0,2281.0,2495.0,1981.0,2025-07-16 20:20:21,109.0,,0.0110041607389453,-2.00845060979408,0.0844226161544715,,1.6483385894857963,,
,5694.0,1194.0,5049.0,1048.0,2294.0,2490.0,1974.0,2025-07-16 20:20:22,108.0,,0.010995293112987,-2.00794465911387,0.084465490795816,,2.156378426773503,,
,5694.0,1194.0,5046.0,1049.0,2307.0,2490.0,1972.0,2025-07-16 20:20:23,108.0,,0.0110884721863544,-2.00816722315931,0.0845217883305117,,2.6390229962559277,,
,5694.0,1196.0,5049.0,1046.0,2318.0,2498.0,1975.0,2025-07-16 20:20:24,108.0,,0.0112581465441081,-2.00761871893274,0.084514121749235,,3.0854956824339674,,
,5696.0,1195.0,5047.0,1046.0,2307.0,2507.0,1964.0,2025-07-16 20:20:25,108.0,,0.0112703494841472,-2.00728294237532,0.0845784085890011,,3.4862669663209775,,
,5695.0,1196.0,5046.0,1046.0,2323.0,2500.0,1973.0,2025-07-16 20:20:26,108.0,,0.0112734224384326,-2.00716373715296,0.0846218635653974,,3.833377951591868,,
,5696.0,1196.0,5048.0,1049.0,2313.0,2483.0,1970.0,2025-07-16 20:20:27,109.0,,0.0112470793039477,-2.00686314818726,0.0845943148095716,,4.120667169113596,,
,5696.0,1196.0,5049.0,1048.0,2309.0,2493.0,1973.0,2025-07-16 20:20:28,109.0,,0.0113256969028116,-2.00667900555241,0.0846157708527925,,4.3438957104459215,,
,5697.0,1196.0,5047.0,1047.0,2317.0,2490.0,1971.0,2025-07-16 20:20:29,109.0,,0.0112622516708298,-2.00653780256944,0.0845985483035107,,4.500773521825329,,
,5695.0,1194.0,5046.0,1047.0,2312.0,2478.0,1968.0,2025-07-16 20:20:30,109.0,,0.0113941324059101,-2.00673144845027,0.0846087846557175,,4.590896714521921,,
,5696.0,1195.0,5048.0,1049.0,2340.0,2478.0,1983.0,2025-07-16 20:20:31,109.0,,0.0112346206305644,-2.00717262941223,0.0846382851733141,,4.6156112884805856,,
,5695.0,1197.0,5049.0,1048.0,2333.0,2475.0,1978.0,2025-07-16 20:20:32,109.0,,0.0112003990765612,-2.00693754406663,0.0846081901170535,,4.577821903010118,,
,5700.0,1196.0,5052.0,1045.0,2331.0,2474.0,1976.0,2025-07-16 20:20:33,109.0,,0.0110786264080276,-2.00719028291058,0.0845506653412585,,4.481764773772042,,
,5697.0,1197.0,5051.0,1048.0,2335.0,2469.0,1972.0,2025-07-16 20:20:34,109.0,,0.0111051635292114,-2.00720719221737,0.0845535848878369,,4.332761629585552,,
,5700.0,1196.0,5054.0,1048.0,2305.0,2481.0,1967.0,2025-07-16 20:20:35,109.0,,0.0110597988578182,-2.00745190912166,0.0845556139509653,,4.136967666931014,,
,5697.0,1197.0,5054.0,1049.0,2304.0,2470.0,1955.0,2025-07-16 20:20:36,110.0,,0.011137339234758,-2.0077937047954,0.0846115831797091,,3.9011215286768075,,
,5701.0,1196.0,5058.0,1050.0,2315.0,2478.0,1971.0,2025-07-16 20:20:37,110.0,,0.0111040879852235,-2.00796687737727,0.0846200287800128,,3.6323005722826247,,
,5700.0,1197.0,5056.0,1048.0,2300.0,2482.0,1972.0,2025-07-16 20:20:38,110.0,,0.0111639009639722,-2.00784811258802,0.0845179101131411,,3.3376813660095896,,
,5702.0,1197.0,5056.0,1048.0,2313.0,2482.0,1970.0,2025-07-16 20:20:39,110.0,,0.0109971889708161,-2.00810345710531,0.0846014233803462,,3.0243047134625805,,
,5702.0,1198.0,5060.0,1050.0,2340.0,2496.0,1963.0,2025-07-16 20:20:40,111.0,,0.0111355619145619,-2.0079752336299,0.0845182624965881,,2.6988471267124945,,
,5706.0,1199.0,5062.0,1050.0,2338.0,2492.0,1962.0,2025-07-16 20:20:41,111.0,,0.0111699716645488,-2.00798896178401,0.0845462319713659,,2.36740577549442,,
,5702.0,1197.0,5060.0,1051.0,2312.0,2476.0,1945.0,2025-07-16 20:20:42,111.0,,0.0110274153856062,-2.00765771093051,0.0845755388124833,,2.035309307894695,,
,5701.0,1198.0,5062.0,1049.0,2300.0,2479.0,1967.0,2025-07-16 20:20:43,111.0,,0.0110931339309324,-2.00692147753763,0.0845892917259582,,1.7069697982575818,,
,5707.0,1199.0,5066.0,1052.0,2293.0,2479.0,1980.0,2025-07-16 20:20:44,111.0,,0.0111768672443881,-2.00708997782099,0.0845576198419376,,1.3857897868569269,,
,5707.0,1199.0,5065.0,1052.0,2297.0,2471.0,1973.0,2025-07-16 20:20:45,112.0,,0.0111503958102147,-2.00711860177331,0.08464119749585,,1.0741333611910717,,
,5705.0,1200.0,5066.0,1052.0,2319.0,2467.0,1974.0,2025-07-16 20:20:46,112.0,,0.0113600707835994,-2.0067616695938,0.0846034127741217,,0.7733632430486761,,
,5706.0,1199.0,5062.0,1051.0,2312.0,2475.0,1985.0,,,,0.0112105377184307,-2.00676830938047,0.084696003083375,,0.48393857803917,,
,5707.0,1199.0,5067.0,1050.0,2324.0,2476.0,1969.0,,,,0.0112758208960907,-2.0060482050428,0.0846164628148748,,0.20556166794770703,,
,5711.0,1200.0,5071.0,1053.0,2341.0,2486.0,1966.0,,,,0.0114013180189114,-2.00544338327255,0.0846679245997102,,-0.06264296765644269,,
,5708.0,1200.0,5070.0,1052.0,2334.0,2485.0,1963.0,,,,0.0113351052232848,-2.00536350732641,0.0847519904295722,,-0.32193630180973093,,
,5708.0,1198.0,5072.0,1051.0,2340.0,2484.0,1968.0,,,,0.011328271578764,-2.00601100307716,0.0847067061562078,,-0.5737778871012265,,
,5712.0,1199.0,5073.0,1054.0,2362.0,2498.0,1969.0,,,,0.0113766046802598,-2.00630767235021,0.0847422494283995,,-0.8196593825142067,,
,5711.0,1199.0,5074.0,1054.0,2364.0,2496.0,1968.0,,,,0.0111998183593633,-2.0059679358663,0.0846998974166532,,-1.0609678751851688,,
,5712.0,1201.0,5076.0,1053.0,2351.0,2493.0,1954.0,,,,0.0111888729733089,-2.00617688452985,0.0846503083126238,,-1.2988821203435654,,
,5711.0,1200.0,5074.0,1053.0,2352.0,2501.0,1960.0,,,,0.0110604071763093,-2.00666603803402,0.0846589450245772,,-1.534299628620515,,
,5708.0,1200.0,5074.0,1052.0,2327.0,2494.0,1974.0,,,,0.0110191837954247,-2.00733770750405,0.0845204260596802,,-1.7677890598977632,,
,5708.0,1199.0,5073.0,1054.0,2311.0,2483.0,1990.0,,,,0.0109426223651236,-2.00776762249424,0.0845702051063645,,-1.999560458393828,,
,5708.0,1199.0,5070.0,1051.0,2302.0,2476.0,1991.0,,,,0.0110688842109769,-2.00805059493517,0.084525241846897,,-2.2294450282215252,,
,5707.0,1199.0,5070.0,1053.0,2293.0,2456.0,1987.0,,,,0.0110688388457464,-2.00881578445628,0.0844752235828685,,-2.456876151761168,,
,5703.0,1196.0,5065.0,1051.0,2282.0,2465.0,1983.0,,,,0.0108566363751731,-2.00871423990681,0.0845234193980891,,-2.6808642511785883,,
,5702.0,1199.0,5066.0,1051.0,2257.0,2467.0,1985.0,,,,0.0109531958357672,-2.00882003259076,0.084400711126778,,-2.899960058714757,,
,5699.0,1195.0,5060.0,1052.0,2257.0,2480.0,1960.0,,,,0.0108339780854381,-2.00884489987432,0.084418580565038,,-3.1122039634538394,,
,5699.0,1195.0,5059.0,1050.0,2264.0,2483.0,1970.0,,,,0.0108598924154222,-2.00946118794181,0.0843841076988054,,-3.3150632785478833,,
,5697.0,1195.0,5056.0,1048.0,2294.0,2481.0,1977.0,,,,0.0108521334099441,-2.00910246129156,0.0844178726227016,,-3.5053643825396277,,
,5697.0,1195.0,5055.0,1051.0,2311.0,2474.0,1973.0,,,,0.0107817715515306,-2.00920241763607,0.0844290180779962,,-3.6792324044932325,,
,5695.0,1196.0,5052.0,1049.0,2345.0,2498.0,1967.0,,,,0.0107492492619407,-2.00918652275669,0.0844823823716896,,-3.832056650231155,,
,5695.0,1195.0,5053.0,1049.0,2344.0,2507.0,1963.0,,,,0.0107137821439146,-2.00956089156732,0.0842843860955992,,-3.9585038864560507,,
,5694.0,1193.0,5050.0,1046.0,2339.0,2497.0,1942.0,,,,0.0106846895611734,-2.01027155688917,0.0843181326988498,,-4.052602188240496,,
,5695.0,1195.0,5049.0,1050.0,2329.0,2504.0,1950.0,,,,0.0105680851936358,-2.01038820746926,0.0842544293317167,,-4.107914004698003,,
,5694.0,1193.0,5050.0,1045.0,2344.0,2496.0,1961.0,,,,0.0105247638219315,-2.01082815490611,0.0842432846230875,,-4.117808105688444,,
,5692.0,1194.0,5050.0,1047.0,2355.0,2488.0,1953.0,,,,0.0103722546873461,-2.01059173004614,0.0842800875086131,,-4.075827009681025,,
,5695.0,1192.0,5047.0,1047.0,2348.0,2499.0,1939.0,,,,0.0103494642031423,-2.0104782685633,0.0843858454139512,,-3.976131253168755,,
,5694.0,1194.0,5048.0,1047.0,2339.0,2493.0,1961.0,,,,0.0104731294293278,-2.01012730542443,0.0843031800297169,,-3.8139870073840956,,
,5695.0,1194.0,5049.0,1046.0,2344.0,2484.0,1958.0,,,,0.0106987308456657,-2.01001791556445,0.0843941269289679,,-3.5862518059303787,,
,5693.0,1195.0,5050.0,1048.0,2328.0,2484.0,1964.0,,,,0.0105630442864951,-2.00952245297558,0.0845220818201698,,-3.291806965978525,,
,5693.0,1195.0,5052.0,1048.0,2315.0,2488.0,1970.0,,,,0.0107241317470503,-2.00894034664278,0.084511207314211,,-2.9318865060294668,,
,5694.0,1193.0,5049.0,1048.0,2306.0,2478.0,1960.0,,,,0.0106855800475276,-2.00857205420936,0.0844710536658387,,-2.5102616851797013,,
,5698.0,1195.0,5047.0,1046.0,2316.0,2484.0,1966.0,,,,0.0106642449372021,-2.00842688032313,0.084580606450641,,-2.033256531096094,,
,5697.0,1197.0,5052.0,1049.0,2309.0,2490.0,1974.0,,,,0.0106167977416839,-2.00831471200611,0.0845887364441878,,-1.5095896543515563,,
,5698.0,1195.0,5053.0,1049.0,2303.0,2478.0,1970.0,,,,0.0106096820603382,-2.00832084018289,0.084470704728308,,-0.9500570231751775,,
,5699.0,1194.0,5054.0,1047.0,2317.0,2469.0,1951.0,,,,0.0105498836811367,-2.00901385077479,0.0845244720697504,,-0.36708561216080143,,
,5699.0,1196.0,5057.0,1050.0,2333.0,2471.0,1959.0,,,,0.0102622294258988,-2.00975998748219,0.0844071890806512,,0.2258029283511091,,
,5700.0,1195.0,5058.0,1050.0,2321.0,2486.0,1973.0,,,,0.010365970711418,-2.0099873289861,0.0843834168964981,,0.8145764213769572,,
,5696.0,1196.0,5057.0,1049.0,2319.0,2488.0,1981.0,,,,0.0101004795124035,-2.01035483247931,0.0843707828345768,,1.3852843424965446,,
,5699.0,1195.0,5058.0,1049.0,2320.0,2480.0,1977.0,,,,0.0101285313991418,-2.01051511010405,0.0842722092158071,,1.9246245519943355,,
,5702.0,1194.0,5058.0,1049.0,2306.0,2473.0,1971.0,,,,0.0102217929211356,-2.01094556853127,0.0843045626124706,,2.420459347335176,,
,5702.0,1196.0,5059.0,1051.0,2333.0,2481.0,1968.0,,,,0.0102798910109752,-2.01115769300086,0.0843184164871295,,2.8622633588041286,,
,5700.0,1193.0,5060.0,1048.0,2319.0,2484.0,1973.0,,,,0.0103612729787113,-2.01059041546832,0.0842655487230807,,3.2414910324873567,,
,5701.0,1196.0,5060.0,1049.0,2305.0,2488.0,1981.0,,,,0.0104320792655873,-2.00982965885113,0.0844131986369818,,3.5518536023348606,,
,5699.0,1194.0,5059.0,1049.0,2312.0,2485.0,1976.0,,,,0.0105760997071232,-2.0097554414335,0.0844455607535636,,3.789495807812631,,
,5701.0,1198.0,5059.0,1051.0,2312.0,2481.0,1963.0,,,,0.0107408622713971,-2.00921642983448,0.0844601598792989,,3.9530631919218213,,
,5701.0,1195.0,5060.0,1050.0,2310.0,2481.0,1965.0,,,,0.0108747374686078,-2.00834874876866,0.084566408098301,,4.043653197150914,,
,5699.0,1195.0,5059.0,1050.0,2295.0,2498.0,1980.0,,,,0.010898407670773,-2.0081554882979,0.0845740605825984,,4.064648225406802,,
,5697.0,1194.0,5060.0,1048.0,2318.0,2495.0,1974.0,,,,0.0111096483569596,-2.0076963949471,0.0846191887882177,,4.021436394003869,,
,5700.0,1196.0,5061.0,1049.0,2308.0,2490.0,1965.0,,,,0.0111665063645583,-2.00684441407317,0.0846988200044322,,3.921035186192935,,
,5700.0,1198.0,5061.0,1049.0,2324.0,2487.0,1966.0,,,,0.011216600357783,-2.00626013721481,0.0847273231990116,,3.771643015749153,,
,5698.0,1193.0,5060.0,1050.0,2324.0,2496.0,1973.0,,,,0.0112482794499562,-2.00665843773252,0.0846980258869213,,3.58215184182163,,
,5698.0,1194.0,5059.0,1047.0,2325.0,2498.0,1978.0,,,,0.0112598904433138,-2.00675065755992,0.0846704134851692,,3.3616583713969748,,
,5698.0,1195.0,5061.0,1050.0,2315.0,2495.0,1974.0,,,,0.011360511560473,-2.0059270012517,0.084754547033416,,3.119010732238249,,
,5704.0,1195.0,5062.0,1052.0,2333.0,2489.0,1972.0,,,,0.011425466796939,-2.00566548540756,0.0847250083922064,,2.862421720909463,,
,5702.0,1195.0,5064.0,1050.0,2330.0,2484.0,1966.0,,,,0.011408116405689,-2.00528626935247,0.0847973394180531,,2.599170167384281,,
,5701.0,1194.0,5065.0,1050.0,2329.0,2485.0,1975.0,,,,0.0114793714021608,-2.00522453689963,0.0848295717025496,,2.3354007043371836,,
,5701.0,1195.0,5064.0,1051.0,2325.0,2487.0,1979.0,,,,0.0114634807143541,-2.0057139471972,0.0847404416066586,,2.076021253373283,,
,5704.0,1197.0,5066.0,1053.0,2299.0,2478.0,1971.0,,,,0.0114242640279676,-2.00542677168127,0.0847188371126213,,1.8246883211386467,,
,5703.0,1196.0,5067.0,1051.0,2289.0,2486.0,1966.0,,,,0.0115082688518744,-2.00557623840985,0.0847992890018774,,1.583863817344293,,
,5706.0,1195.0,5065.0,1050.0,2304.0,2485.0,1956.0,,,,0.0113699438226199,-2.00598901400968,0.0847184389952187,,1.3549242536888257,,
,5704.0,1198.0,5068.0,1050.0,2330.0,2499.0,1968.0,,,,0.0111977693226293,-2.00559239013473,0.0846960193731003,,1.1383039147822054,,
,5707.0,1198.0,5069.0,1051.0,2304.0,2496.0,1985.0,,,,0.0112775257841162,-2.00578988300111,0.0847438267208288,,0.9336570966809661,,
,5706.0,1196.0,5071.0,1054.0,2307.0,2497.0,1981.0,,,,0.0113237009034531,-2.00587481473024,0.084691760942267,,0.7400291533946293,,
,5709.0,1197.0,5072.0,1054.0,2319.0,2501.0,1966.0,,,,0.0112533671598999,-2.00610919916041,0.084745291658132,,0.5560299973383659,,
,5708.0,1198.0,5073.0,1052.0,2330.0,2496.0,1970.0,,,,0.011233483115273,-2.00609129416614,0.0847758388388368,,0.38000567216616893,,
,5709.0,1197.0,5074.0,1052.0,2338.0,2486.0,1961.0,,,,0.0113943569459347,-2.00557343601751,0.0847432062727068,,0.21020365604207422,,
,5710.0,1198.0,5074.0,1055.0,2324.0,2476.0,1960.0,,,,0.0112829328803526,-2.00531151350087,0.0847064694748683,,0.044926454654948295,,
,5712.0,1199.0,5078.0,1054.0,2305.0,2474.0,1964.0,,,,0.0114308204398397,-2.00486332517305,0.0847996687096493,,-0.11733331977356568,,
,5711.0,1197.0,5075.0,1053.0,2316.0,2474.0,1976.0,,,,0.0115252358488354,-2.0048978760697,0.0848239687240383,,-0.2777841246423499,,
,5712.0,1197.0,5079.0,1054.0,2335.0,2477.0,1967.0,,,,0.0116530053296732,-2.00414182634619,0.084939382938711,,-0.43726055827662913,,
,5713.0,1200.0,5081.0,1057.0,2343.0,2474.0,1964.0,,,,0.0117054906134656,-2.0038603710726,0.0848999601478049,,-0.5961882918963258,,
,5714.0,1200.0,5083.0,1054.0,2351.0,2471.0,1970.0,,,,0.0114647033970143,-2.00329544505111,0.0848809021550703,,-0.7545913757633006,,
,5712.0,1198.0,5081.0,1055.0,2320.0,2482.0,1982.0,,,,0.0117126411364973,-2.0030442679783,0.0848968291847272,,-0.9121396585762712,,
,5715.0,1201.0,5085.0,1056.0,2320.0,2486.0,1980.0,,,,0.0117537539584571,-2.00290037314867,0.0849914738693156,,-1.068229160558007,,
,5716.0,1201.0,5088.0,1057.0,2334.0,2475.0,1972.0,,,,0.0118726984176909,-2.00213126569161,0.0850431986250658,,-1.2220846710182156,,
,5717.0,1201.0,5090.0,1057.0,2326.0,2483.0,1960.0,,,,0.0121012304997674,-2.00147957539465,0.0849906241867632,,-1.3728724341306127,,
2025-07-16 20:17:49,5716.0,1201.0,5089.0,1054.0,2348.0,2503.0,1955.0,,,2025/07/16 08:17:49 PM,0.0122384650429868,-2.00172418926617,0.0850012463197233,,-1.5198113210038828,,
,5716.0,1202.0,5090.0,1056.0,2333.0,2505.0,1960.0,,,,0.0123361718425241,-2.00134473377586,0.085122155488878,,-1.6622725303300554,,
,5714.0,1202.0,5088.0,1056.0,2327.0,2497.0,1974.0,,,,0.0123023899791046,-2.00132246204509,0.085111839939213,,-1.7998598715530216,,
,5718.0,1201.0,5089.0,1057.0,2309.0,2497.0,1979.0,,,,0.0121106860840698,-2.00130313542517,0.0850061742067344,,-1.9324646330183841,,
,5715.0,1198.0,5088.0,1054.0,2295.0,2509.0,1988.0,,,,0.0122727824413944,-2.0013413269657,0.084951765636715,,-2.0602906802109233,,
,5714.0,1203.0,5085.0,1054.0,2286.0,2496.0,1987.0,,,,0.0121961878596401,-2.00175680796461,0.0849416247646484,,-2.1838466677215913,,
,5711.0,1200.0,5084.0,1057.0,2286.0,2476.0,1992.0,,,,0.0122128175637726,-2.00194536382098,0.0849176604669328,,-2.303903161369156,,
,5711.0,1199.0,5083.0,1054.0,2281.0,2466.0,1978.0,,,,0.0122536229913447,-2.00136221226365,0.084986983168442,,-2.4214133269680262,,
,5709.0,1198.0,5080.0,1056.0,2276.0,2460.0,1983.0,,,,0.0121909031831738,-2.00199382519408,0.0850268002858383,,-2.537397197463093,,
,5704.0,1198.0,5074.0,1054.0,2256.0,2468.0,1967.0,,,,0.0121335513607842,-2.00167650101088,0.0848906797487546,,-2.6527921203724847,,
,5704.0,1196.0,5075.0,1051.0,2300.0,2479.0,1966.0,,,,0.0121336986141433,-2.00153680227699,0.0849465913159492,,-2.7682761996531857,,
,5704.0,1195.0,5071.0,1053.0,2290.0,2479.0,1975.0,,,,0.0122467572330579,-2.0018384067009,0.0849474764486905,,-2.884076879958497,,
,5703.0,1196.0,5066.0,1048.0,2302.0,2474.0,1968.0,,,,0.0121651007020078,-2.00201281335826,0.0849408135261439,,-2.999782080708489,,
,5704.0,1193.0,5065.0,1050.0,2325.0,2482.0,1952.0,,,,0.0120769076560816,-2.00214241121838,0.084905560287848,,-3.1141752291066522,,
,5701.0,1195.0,5063.0,1050.0,2348.0,2483.0,1956.0,,,,0.0120607146026502,-2.00216650539443,0.084910994966676,,-3.2251172097807497,,
,5699.0,1195.0,5066.0,1051.0,2331.0,2488.0,1953.0,,,,0.0121945939890627,-2.00207193548436,0.0848733761175241,,-3.32949695515967,,
,5700.0,1192.0,5062.0,1049.0,2334.0,2489.0,1950.0,,,,0.0121282858114581,-2.00200495756021,0.0849009452053545,,-3.4232677806394127,,
,5697.0,1194.0,5063.0,1049.0,2343.0,2488.0,1969.0,,,,0.0121877955010438,-2.00174416375158,0.0849432524394899,,-3.501578767479605,,
,5699.0,1193.0,5065.0,1050.0,2361.0,2489.0,1964.0,,,,0.0120459299955378,-2.00157037139255,0.0849214572860616,,-3.5590002482195398,,
,5700.0,1196.0,5061.0,1050.0,2354.0,2473.0,1967.0,,,,0.0122207051919149,-2.00095180414199,0.0850493231012238,,-3.5898310398621156,,
,5697.0,1196.0,5064.0,1051.0,2346.0,2471.0,1960.0,,,,0.0122352784895213,-2.00029009417801,0.0851637437796858,,-3.588464247118715,,
,5700.0,1195.0,5063.0,1050.0,2343.0,2493.0,1964.0,,,,0.0123969448059536,-1.99948545109701,0.0851513636319078,,-3.54978009231203,,
,5698.0,1195.0,5063.0,1048.0,2324.0,2493.0,1952.0,,,,0.0123715150211572,-1.99877221883809,0.0853777389680001,,-3.469529680293496,,
,5699.0,1195.0,5063.0,1050.0,2322.0,2490.0,1977.0,,,,0.0125936343922045,-1.99818469122594,0.0852880022823907,,-3.344673329221643,,
,5701.0,1196.0,5063.0,1050.0,2318.0,2489.0,1980.0,,,,0.0125780238592943,-1.99764160442582,0.0853459023003248,,-3.1736408771906435,,
,5701.0,1195.0,5066.0,1049.0,2320.0,2492.0,1981.0,,,,0.0125905944860315,-1.99724518614196,0.0853524060658284,,-2.9564887858246904,,
,5702.0,1194.0,5063.0,1050.0,2320.0,2475.0,1983.0,,,,0.012540909493927,-1.99666184551835,0.0855209032127512,,-2.694939331769236,,
,5704.0,1196.0,5068.0,1051.0,2303.0,2494.0,1971.0,,,,0.0125457928753726,-1.99662908557796,0.0855228973906903,,-2.3922996512232273,,
,5704.0,1196.0,5067.0,1051.0,2306.0,2489.0,1973.0,,,,0.0125166872060138,-1.99615523963026,0.0854914714114349,,-2.0532711079460837,,
,5704.0,1193.0,5070.0,1050.0,2312.0,2493.0,1975.0,,,,0.0125435281072788,-1.99627622639663,0.0854827427555108,,-1.6836702151659488,,
,5704.0,1196.0,5070.0,1051.0,2322.0,2500.0,1966.0,,,,0.0125275587786232,-1.99665632866898,0.085517511926185,,-1.2900894570673918,,
,5704.0,1194.0,5068.0,1051.0,2317.0,2503.0,1961.0,,,,0.012453103526527,-1.99660829469431,0.0854568126686508,,-0.8795294260168659,,
,5703.0,1197.0,5074.0,1052.0,2339.0,2486.0,1966.0,,,,0.0124730365288744,-1.99671642314687,0.0854578151492823,,-0.4590335735857488,,
,5704.0,1195.0,5072.0,1053.0,2327.0,2475.0,1969.0,,,,0.0123876538113668,-1.99676171876862,0.0854101972287781,,-0.03535470532936522,,
,5703.0,1195.0,5073.0,1051.0,2311.0,2486.0,1974.0,,,,0.0125826395970049,-1.99666762046001,0.0854605892252889,,0.38532138225601387,,
,5703.0,1195.0,5073.0,1052.0,2288.0,2483.0,1976.0,,,,0.0126737485624977,-1.99716612559699,0.0854640506683059,,0.7975751702986891,,
,5704.0,1196.0,5073.0,1052.0,2282.0,2492.0,1978.0,,,,0.0126624592202738,-1.99695218687146,0.0854732825793395,,1.196862932377498,,
,5706.0,1195.0,5074.0,1051.0,2281.0,2494.0,1975.0,,,,0.0127367630409172,-1.99625930313486,0.0854802679532828,,1.5795327211111911,,
,5705.0,1198.0,5074.0,1053.0,2302.0,2486.0,1956.0,,,,0.0128738283669508,-1.99568159564481,0.0854931781860628,,1.9427530083224582,,
,5703.0,1197.0,5074.0,1052.0,2300.0,2481.0,1952.0,,,,0.0133012031124964,-1.99485005878835,0.0855975606616099,,2.284370500551331,,
,5705.0,1199.0,5074.0,1053.0,2301.0,2489.0,1975.0,,,,0.0134740325424345,-1.99386827302883,0.085627608157266,,2.6027233094203246,,
,5704.0,1196.0,5074.0,1051.0,2277.0,2500.0,1975.0,,,,0.0136559934864271,-1.99283365843791,0.0858007064421339,,2.896442921883618,,
,5705.0,1196.0,5075.0,1053.0,2275.0,2502.0,1962.0,,,,0.0139866089533358,-1.99126418724642,0.0858882062212475,,3.164281014351633,,
,5706.0,1194.0,5071.0,1051.0,2294.0,2508.0,1967.0,,,,0.0142049701775055,-1.99024285743618,0.0859316196717864,,3.4049929546435513,,
,5707.0,1197.0,5075.0,1052.0,2322.0,2484.0,1978.0,,,,0.0142858480935632,-1.99007687257756,0.0859747373307453,,3.617298129435828,,
,5705.0,1196.0,5075.0,1052.0,2326.0,2492.0,1984.0,,,,0.0144366419141465,-1.98935527790827,0.0861014433436595,,3.7999199261742946,,
,5706.0,1196.0,5077.0,1054.0,2320.0,2493.0,1987.0,,,,0.0145811946901136,-1.98803769992714,0.0861145110841416,,3.9516898538301977,,
,5707.0,1195.0,5077.0,1052.0,2319.0,2504.0,1979.0,,,,0.0148081922619597,-1.98714805511982,0.0861533757421371,,4.07168651111657,,
,5710.0,1195.0,5076.0,1051.0,2326.0,2492.0,1973.0,,,,0.0149838099871851,-1.98651940858694,0.0861723804891503,,4.159374918581113,,
,5706.0,1195.0,5077.0,1052.0,2316.0,2485.0,1978.0,,,,0.0150716385089427,-1.98592047069464,0.0861868531741317,,4.21471566799881,,
,5708.0,1197.0,5078.0,1053.0,2308.0,2481.0,1979.0,,,,0.0151490902209501,-1.98564310572865,0.0862044351343776,,4.238223726949752,,
,5708.0,1196.0,5076.0,1051.0,2323.0,2485.0,1976.0,,,,0.0153106808947781,-1.98461008609902,0.0862172375866699,,4.230969589760765,,
,5707.0,1195.0,5076.0,1052.0,2333.0,2478.0,1980.0,,,,0.0153499331191885,-1.98427356322493,0.0862348581439907,,4.19452743698942,,
,5707.0,1196.0,5080.0,1052.0,2308.0,2493.0,1972.0,,,,0.0152927069529513,-1.98456226708183,0.0862293071533492,,4.130883988376553,,
,5712.0,1198.0,5083.0,1055.0,2302.0,2490.0,1967.0,,,,0.0152973102503094,-1.98427519248063,0.0862427400992088,,4.0423266181236714,,
,5711.0,1200.0,5083.0,1054.0,2326.0,2474.0,1974.0,,,,0.0151191031380109,-1.98404961053517,0.0862066659178243,,3.9313294785780912,,
,5711.0,1195.0,5082.0,1052.0,2325.0,2483.0,1954.0,,,,0.0152540476522007,-1.98427536438461,0.0862231222602299,,3.800452340788031,,
,5713.0,1200.0,5087.0,1053.0,2342.0,2491.0,1968.0,,,,0.015247349198631,-1.98449755448746,0.0862225135737619,,3.6522603418467794,,
,5713.0,1199.0,5086.0,1055.0,2331.0,2496.0,1961.0,,,,0.0154224653683377,-1.98443847815473,0.0862313182809097,,3.489266000315403,,
,5715.0,1199.0,5088.0,1055.0,2338.0,2492.0,1958.0,,,,0.0154771079883797,-1.98361265172283,0.0862672984495191,,3.313889355681636,,
,5714.0,1197.0,5088.0,1052.0,2322.0,2486.0,1966.0,,,,0.0155596587320581,-1.98328682799108,0.0862594740443895,,3.1284288305699235,,
,5713.0,1200.0,5089.0,1056.0,2307.0,2474.0,1942.0,,,,0.015596886168681,-1.98320226940143,0.0862911455460752,,2.935034920011188,,
,5717.0,1201.0,5092.0,1056.0,2321.0,2483.0,1964.0,,,,0.0156940409752693,-1.98247746788954,0.0862839047342422,,2.735681183598754,,
,5716.0,1200.0,5091.0,1055.0,2328.0,2493.0,1967.0,,,,0.0157714770082327,-1.98269380354135,0.0862877119479909,,2.5321316438284933,,
,5720.0,1195.0,5092.0,1056.0,2339.0,2495.0,1979.0,,,,0.0158902665958648,-1.98222353244376,0.0862922584523351,,2.3259090965244247,,
,5719.0,1201.0,5098.0,1057.0,2337.0,2496.0,1974.0,,,,0.0160152742748027,-1.98198764654827,0.0863116732173472,,2.1182729054116787,,
,5721.0,1202.0,5096.0,1055.0,2334.0,2490.0,1968.0,,,,0.016056134648789,-1.98130252294053,0.0862927361976636,,1.9102156036406182,,
,5719.0,1201.0,5099.0,1054.0,2330.0,2489.0,1971.0,,,,0.0161117817358994,-1.98094026745812,0.0863080228442401,,1.702484332348639,,
,5723.0,1201.0,5101.0,1056.0,2325.0,2489.0,1980.0,,,,0.016150457331542,-1.98071782738068,0.0863646446385542,,1.4956269699833693,,
,5722.0,1201.0,5103.0,1057.0,2326.0,2474.0,1969.0,,,,0.0164547381128262,-1.97974260076984,0.0864015855499003,,1.290056167379382,,
,5724.0,1202.0,5105.0,1056.0,2345.0,2476.0,1956.0,,,,0.0164349724172644,-1.97931087550117,0.0864078416213575,,1.0861196557092823,,
,5726.0,1204.0,5106.0,1057.0,2359.0,2487.0,1962.0,,,,0.0163875761413236,-1.97921340840248,0.086414788712185,,0.8841632772862736,,
,5723.0,1203.0,5104.0,1058.0,2370.0,2491.0,1963.0,,,,0.01658426950164,-1.97909024967735,0.0864286485813215,,0.6845742997762518,,
,5722.0,1201.0,5105.0,1058.0,2353.0,2501.0,1974.0,,,,0.0165527521960803,-1.97914641803802,0.0864290654704134,,0.48779627333942427,,
,5726.0,1202.0,5103.0,1057.0,2337.0,2492.0,1974.0,,,,0.0164962411701428,-1.97897437740388,0.0864289669668564,,0.29431229484764754,,
,5724.0,1202.0,5105.0,1057.0,2298.0,2509.0,1982.0,,,,0.0166028397549287,-1.97935694795573,0.0864046770710531,,0.10460008443660915,,
,5723.0,1202.0,5101.0,1056.0,2300.0,2502.0,1981.0,,,,0.0165726181363507,-1.97959848633425,0.086412167226217,,-0.08093164590534145,,
,5718.0,1198.0,5094.0,1055.0,2306.0,2489.0,1989.0,,,,0.0165426464518119,-1.9797752673522,0.0864160669809864,,-0.262012085117586,,
,5718.0,1200.0,5098.0,1055.0,2292.0,2476.0,1992.0,,,,0.0164587077424641,-1.97981808945395,0.0863859209609394,,-0.4385682911553515,,
,5716.0,1200.0,5095.0,1055.0,2298.0,2478.0,1986.0,,,,0.0163876489513275,-1.9802104911866,0.0863682273523874,,-0.6107644560813491,,
,5713.0,1197.0,5091.0,1055.0,2293.0,2477.0,1992.0,,,,0.0164210028386461,-1.98030148736388,0.0863564594044046,,-0.7790131729074667,,
,5711.0,1196.0,5086.0,1052.0,2276.0,2473.0,1979.0,,,,0.0163475218888609,-1.98020873895925,0.0863289705697184,,-0.9439566689285538,,
,5711.0,1195.0,5085.0,1053.0,2283.0,2484.0,1972.0,,,,0.0163057141237606,-1.98044782048754,0.0863396943451459,,-1.106420886073076,,
,5710.0,1198.0,5084.0,1052.0,2283.0,2488.0,1977.0,,,,0.016261499959164,-1.98142103478189,0.0863230743080896,,-1.2673489045096216,,
,5709.0,1196.0,5081.0,1054.0,2309.0,2483.0,1978.0,,,,0.0162168886908393,-1.98165174417793,0.0862919552158267,,-1.4277218393760565,,
,5707.0,1197.0,5078.0,1050.0,2335.0,2484.0,1961.0,,,,0.0162358399604509,-1.98154867461182,0.0863210439129812,,-1.5884748322113362,,
,5706.0,1195.0,5075.0,1049.0,2326.0,2490.0,1968.0,,,,0.0162383004775252,-1.9818943580216,0.0863152054346144,,-1.750413546103683,,
,5709.0,1195.0,5077.0,1053.0,2317.0,2498.0,1959.0,,,,0.016359596351318,-1.98140625908113,0.0863203192175235,,-1.9141336347926872,,
,5706.0,1195.0,5077.0,1049.0,2346.0,2497.0,1954.0,,,,0.016410055350578,-1.98117787231014,0.0863100587402906,,-2.0799433868366495,,
,5705.0,1193.0,5074.0,1050.0,2343.0,2491.0,1957.0,,,,0.016314737313315,-1.98080853145443,0.0863190982146278,,-2.247789437447345,,
,5705.0,1194.0,5075.0,1049.0,2354.0,2483.0,1961.0,,,,0.0164198235438013,-1.98100687189951,0.0863426524610148,,-2.4171873780841753,,
,5705.0,1196.0,5075.0,1052.0,2349.0,2490.0,1967.0,,,,0.016258588708666,-1.98089088010069,0.0863810021284598,,-2.5871621722429587,,
,5707.0,1197.0,5077.0,1049.0,2329.0,2480.0,1968.0,,,,0.016377751470702,-1.98053239742819,0.0863870811583173,,-2.7562056902275374,,
,5706.0,1196.0,5076.0,1049.0,2320.0,2485.0,1962.0,,,,0.0164756879865737,-1.98072673203699,0.0863791684003494,,-2.9222589355507465,,
,5705.0,1194.0,5074.0,1050.0,2314.0,2496.0,1973.0,,,,0.0164177923693809,-1.98028881078434,0.0863680255399466,,-3.082724156395183,,
,5706.0,1195.0,5076.0,1052.0,2319.0,2495.0,1979.0,,,,0.0162534441994694,-1.98066170131216,0.0863908616326496,,-3.234507724239121,,
,5708.0,1195.0,5076.0,1051.0,2321.0,2491.0,1977.0,,,,0.0163906307776165,-1.98071563859279,0.0863682468321886,,-3.3740901536745174,,
,5708.0,1197.0,5076.0,1052.0,2296.0,2488.0,1981.0,,,,0.0161553457841414,-1.98121861027686,0.0863519285888092,,-3.4976167736514294,,
,5708.0,1196.0,5078.0,1051.0,2277.0,2503.0,1967.0,,,,0.0158950978301772,-1.98135255921293,0.0863407516830404,,-3.6010020682656725,,
,5708.0,1195.0,5076.0,1050.0,2303.0,2492.0,1975.0,,,,0.0156062507778814,-1.98242570851811,0.0863253365092128,,-3.6800419711582837,,
,5711.0,1198.0,5081.0,1053.0,2330.0,2492.0,1973.0,,,,0.015393400228817,-1.98319878287087,0.0862747357581364,,-3.73053039818125,,
,5710.0,1198.0,5081.0,1051.0,2328.0,2490.0,1967.0,,,,0.0154432714497746,-1.98415379838363,0.0862361229128259,,-3.7483783630991288,,
,5709.0,1197.0,5083.0,1054.0,2290.0,2476.0,1986.0,,,,0.0154055113267449,-1.98497795228585,0.0862213733360409,,-3.729735734628051,,
,5708.0,1195.0,5082.0,1051.0,2288.0,2485.0,1978.0,,,,0.0154089853614688,-1.98574391390727,0.0861978126886673,,-3.6711167091709562,,
,5711.0,1197.0,5082.0,1053.0,2299.0,2498.0,1970.0,,,,0.0152415576145989,-1.98592856459043,0.0861753338177772,,-3.5695301990974424,,
,5710.0,1197.0,5082.0,1053.0,2304.0,2483.0,1978.0,,,,0.0151887425007272,-1.98609818046631,0.0861752099611506,,-3.4226155755024994,,
,5712.0,1197.0,5084.0,1054.0,2303.0,2474.0,1979.0,,,,0.0151335178116601,-1.98619221474728,0.0861695733242609,,-3.228782547097648,,
,5707.0,1197.0,5083.0,1052.0,2321.0,2472.0,1980.0,,,,0.0152315631178832,-1.98579635128191,0.0861483850214901,,-2.987351330484496,,
,5711.0,1198.0,5083.0,1050.0,2311.0,2496.0,1988.0,,,,0.0151404089068678,-1.98598602313595,0.0861535891194062,,-2.698685921287597,,
,5710.0,1198.0,5085.0,1054.0,2302.0,2485.0,1982.0,,,,0.0153042701076592,-1.98589925835988,0.0861935730321075,,-2.3643101750152473,,
,5709.0,1196.0,5083.0,1053.0,2322.0,2483.0,1986.0,,,,0.0153874817627949,-1.98514333256999,0.0861856038858567,,-1.9869950009128714,,
,5708.0,1196.0,5083.0,1053.0,2307.0,2485.0,1981.0,,,,0.0155850290052529,-1.9847741102468,0.0862200953196215,,-1.5708062765148187,,
,5707.0,1197.0,5083.0,1053.0,2300.0,2470.0,1981.0,,,,0.015724970995705,-1.98358854624567,0.08622875600919,,-1.1211067063591047,,
,5710.0,1198.0,5082.0,1054.0,2327.0,2484.0,1980.0,,,,0.0159190768208348,-1.98313800524081,0.0862940367091505,,-0.6445089057913843,,
,5712.0,1198.0,5084.0,1053.0,2317.0,2485.0,1977.0,,,,0.0160385107433882,-1.98213189341292,0.0862895451998626,,-0.14877945103005244,,
,5708.0,1196.0,5082.0,1051.0,2311.0,2506.0,1972.0,,,,0.0161251760240295,-1.98240557951364,0.0863053909128392,,0.3573060740541841,,
,5709.0,1197.0,5085.0,1051.0,2313.0,2498.0,1962.0,,,,0.0160578647869639,-1.98224800215195,0.0862987128833984,,0.8641577067162192,,
,5710.0,1197.0,5084.0,1051.0,2328.0,2516.0,1975.0,,,,0.0160696005723135,-1.98205653563974,0.086304102152116,,1.3616161099813733,,
,5710.0,1198.0,5083.0,1052.0,2327.0,2506.0,1971.0,,,,0.016091249302545,-1.98219997728757,0.0863092105716435,,1.8392471233563084,,
,5713.0,1197.0,5082.0,1056.0,2291.0,2482.0,1969.0,,,,0.0161239562472125,-1.98186222675646,0.0863013590119758,,2.286681934706102,,
,5711.0,1198.0,5083.0,1051.0,2291.0,2483.0,1968.0,,,,0.0161223297570067,-1.9821524079675,0.0863305184504655,,2.69399447962349,,
,5711.0,1197.0,5087.0,1053.0,2318.0,2493.0,1973.0,,,,0.0159335124462177,-1.98256909572658,0.0863007094884461,,3.0521018050457815,,
,5715.0,1198.0,5088.0,1054.0,2333.0,2491.0,1976.0,,,,0.0158637178166656,-1.98310467682126,0.0862719740867542,,3.3531660052704595,,
,5713.0,1199.0,5089.0,1053.0,2326.0,2481.0,1979.0,,,,0.0158683516073317,-1.98294902952564,0.0862716875841695,,3.590969121137159,,
,5714.0,1195.0,5088.0,1053.0,2336.0,2494.0,1970.0,,,,0.0157368554979545,-1.98403632826061,0.0862532938848399,,3.761227525185066,,
,5714.0,1198.0,5091.0,1054.0,2321.0,2496.0,1973.0,,,,0.0156395384294917,-1.98414702926388,0.0862329971906146,,3.861812420489234,,
,5715.0,1198.0,5093.0,1055.0,2328.0,2493.0,1981.0,,,,0.0156123261933645,-1.98414266241469,0.0861805368506452,,3.89284937641358,,
,5717.0,1200.0,5093.0,1055.0,2336.0,2488.0,1981.0,,,,0.0154865414801212,-1.984616335573,0.0862080022318151,,3.8566814514807857,,
2025-07-16 20:17:50,5715.0,1197.0,5093.0,1052.0,2318.0,2482.0,1971.0,,,2025/07/16 08:17:50 PM,0.0154272828925202,-1.98494816548859,0.0862172861847278,,3.7576950705824164,,
,5717.0,1200.0,5092.0,1054.0,2322.0,2481.0,1972.0,,,,0.0156584638056009,-1.98520527619924,0.0861976051661846,,3.602022693321118,,
,5720.0,1201.0,5096.0,1055.0,2322.0,2489.0,1960.0,,,,0.0155579799199985,-1.98569757079238,0.0861998520832918,,3.3971491027686813,,
,5718.0,1199.0,5097.0,1054.0,2322.0,2487.0,1962.0,,,,0.0155043790359416,-1.98562263744231,0.0861775020523978,,3.151457213095347,,
,5719.0,1199.0,5097.0,1054.0,2329.0,2484.0,1962.0,,,,0.0154254633390821,-1.98558536168593,0.0861807269845618,,2.873753553296871,,
,5717.0,1198.0,5098.0,1054.0,2311.0,2495.0,1966.0,,,,0.0155686416550576,-1.98525458519233,0.0861769972328993,,2.572812431593644,,
,5721.0,1201.0,5103.0,1056.0,2306.0,2504.0,1969.0,,,,0.0156129926721198,-1.98547762011147,0.0862053928739445,,2.2569715030683626,,
,5722.0,1202.0,5101.0,1056.0,2312.0,2503.0,1976.0,,,,0.0155785963457381,-1.98492006909719,0.0861996289156667,,1.933801646569543,,
,5721.0,1201.0,5100.0,1058.0,2320.0,2493.0,1964.0,,,,0.0157004599039064,-1.98464428425958,0.0862227049664245,,1.6098631541127588,,
,5722.0,1203.0,5104.0,1056.0,2324.0,2479.0,1957.0,,,,0.0157011379466907,-1.98417228103089,0.0862029942500429,,1.2905503849262088,,
,5723.0,1203.0,5106.0,1060.0,2346.0,2483.0,1962.0,,,,0.015624663492857,-1.98411526752983,0.0862105712730314,,0.9800194302893448,,
,5725.0,1204.0,5109.0,1058.0,2317.0,2480.0,1967.0,,,,0.0155804013637875,-1.98382944044229,0.0862399114653059,,0.6811885146275494,,
,5722.0,1203.0,5108.0,1058.0,2314.0,2475.0,1969.0,,,,0.0156102510783667,-1.98426399331466,0.0862344849850217,,0.39579904982034,,
,5724.0,1202.0,5108.0,1056.0,2343.0,2476.0,1970.0,,,,0.015665899558461,-1.98448160975957,0.0862162045831944,,0.12452614934673223,,
,5726.0,1203.0,5110.0,1060.0,2354.0,2501.0,1971.0,,,,0.0155953816626507,-1.98486934501458,0.0862056811847795,,-0.13287023060105352,,
,5729.0,1203.0,5111.0,1059.0,2352.0,2506.0,1971.0,,,,0.0154678155908547,-1.98487253578951,0.0861879130920146,,-0.3773604773182164,,
,5725.0,1203.0,5111.0,1057.0,2348.0,2515.0,1965.0,,,,0.0155131207109857,-1.98553184325023,0.0861756102998016,,-0.6104341339095222,,
,5723.0,1202.0,5112.0,1056.0,2329.0,2512.0,1971.0,,,,0.0153835745608848,-1.98603084165861,0.0861545418953759,,-0.8338726132042622,,
,5725.0,1202.0,5109.0,1057.0,2342.0,2511.0,1966.0,,,,0.0152595909330039,-1.98651921154461,0.0861337712801535,,-1.049520434608811,,
,5723.0,1202.0,5107.0,1059.0,2347.0,2532.0,1976.0,,,,0.0152696247653515,-1.98734178228057,0.0860431413016265,,-1.2590731483223894,,
,5725.0,1202.0,5104.0,1058.0,2342.0,2529.0,1984.0,,,,0.015251164569176,-1.98805044833332,0.0859823976086101,,-1.463900896925505,,
,5718.0,1202.0,5101.0,1056.0,2289.0,2483.0,1993.0,,,,0.0152202639413556,-1.98890363359518,0.0860374533141462,,-1.6649235693261462,,
,5716.0,1200.0,5095.0,1053.0,2264.0,2473.0,1996.0,,,,0.015109295634771,-1.98901001310728,0.0859286280170009,,-1.862546843403142,,
,5715.0,1199.0,5093.0,1055.0,2259.0,2484.0,1994.0,,,,0.0150911602803996,-1.98963191356074,0.0858954213494052,,-2.0566591957775775,,
,5714.0,1199.0,5093.0,1052.0,2260.0,2477.0,1993.0,,,,0.0147955886107456,-1.99021520699907,0.0858953084963074,,-2.246679887373234,,
,5713.0,1199.0,5089.0,1054.0,2273.0,2467.0,1989.0,,,,0.0147835062397965,-1.99061887007989,0.0858400366196325,,-2.431638983362208,,
,5708.0,1197.0,5085.0,1053.0,2269.0,2481.0,1978.0,,,,0.0147060291715519,-1.9911515011151,0.0857564132969619,,-2.610264707304295,,
,5711.0,1200.0,5085.0,1053.0,2293.0,2467.0,1972.0,,,,0.0145885331747787,-1.99172706597308,0.0857671660560695,,-2.781052692406694,,
,5712.0,1200.0,5084.0,1051.0,2322.0,2476.0,1964.0,,,,0.0145176415409649,-1.99114682735306,0.085786077649067,,-2.9422967988076594,,
,5708.0,1196.0,5082.0,1051.0,2315.0,2483.0,1966.0,,,,0.0144962898786034,-1.99183377756996,0.0857546701191808,,-3.092071313929514,,
,5709.0,1195.0,5079.0,1049.0,2329.0,2485.0,1963.0,,,,0.0145924823017593,-1.99187475353808,0.0856356730323521,,-3.228167417087581,,
,5706.0,1196.0,5080.0,1049.0,2349.0,2488.0,1956.0,,,,0.0146281459686643,-1.99181026305025,0.08577365719009,,-3.348000209799507,,
,5706.0,1194.0,5077.0,1051.0,2341.0,2496.0,1959.0,,,,0.0145416031798323,-1.99098008944334,0.0858293289684884,,-3.4485139207181543,,
,5704.0,1194.0,5077.0,1050.0,2363.0,2491.0,1953.0,,,,0.0145322044000608,-1.99087909691171,0.0858064444819208,,-3.5261196941924746,,
,5705.0,1195.0,5077.0,1050.0,2351.0,2493.0,1945.0,,,,0.0145558720414684,-1.99068129715354,0.0859413439332088,,-3.576700486501059,,
,5706.0,1196.0,5076.0,1048.0,2342.0,2484.0,1966.0,,,,0.0144540993180858,-1.99047975009187,0.0859334662557483,,-3.595709774876485,,
,5706.0,1195.0,5077.0,1050.0,2322.0,2492.0,1957.0,,,,0.0144331076162143,-1.99023135621072,0.0859037674774665,,-3.5783756073424513,,
,5707.0,1197.0,5077.0,1052.0,2317.0,2489.0,1956.0,,,,0.0143521810204485,-1.9912573536222,0.0858595355245471,,-3.5200018051686786,,
,5707.0,1193.0,5078.0,1048.0,2300.0,2487.0,1966.0,,,,0.0141545532713009,-1.99134496082814,0.0858672608177112,,-3.4163384085415736,,
,5707.0,1195.0,5078.0,1049.0,2295.0,2485.0,1977.0,,,,0.0140383154508131,-1.99231185517628,0.0857844207190043,,-3.2639785146109057,,
,5708.0,1197.0,5081.0,1051.0,2285.0,2479.0,1985.0,,,,0.0141107489605621,-1.9931291393296,0.0857336762876347,,-3.060731904988324,,
,5709.0,1198.0,5081.0,1053.0,2307.0,2498.0,1974.0,,,,0.013942201365516,-1.99322067971339,0.0856650183602615,,-2.8059285128140874,,
,5709.0,1195.0,5081.0,1053.0,2312.0,2496.0,1977.0,,,,0.013861102065495,-1.99428489992727,0.0856361512240025,,-2.5006159284277962,,
,5710.0,1195.0,5079.0,1050.0,2295.0,2493.0,1962.0,,,,0.0135798819707464,-1.99425185666774,0.0856089560172679,,-2.1476320949947647,,
,5711.0,1200.0,5082.0,1054.0,2312.0,2501.0,1976.0,,,,0.0135999421176212,-1.99514346601025,0.0856235777349711,,-1.751553066620635,,
,5712.0,1198.0,5085.0,1053.0,2321.0,2497.0,1962.0,,,,0.013562897879443,-1.99573631057045,0.0854405435035421,,-1.3185317217505814,,
,5711.0,1195.0,5083.0,1052.0,2312.0,2485.0,1968.0,,,,0.0134558597017845,-1.9964594087772,0.0854727027952807,,-0.8560531369945,,
,5710.0,1196.0,5085.0,1052.0,2308.0,2479.0,1983.0,,,,0.0133784326052041,-1.99680978589938,0.08535997276853,,-0.37263467479610907,,
,5710.0,1197.0,5083.0,1052.0,2304.0,2500.0,1979.0,,,,0.0133333672208981,-1.99701904968396,0.0853887031588753,,0.12250482637594785,,
,5712.0,1197.0,5085.0,1051.0,2290.0,2498.0,1974.0,,,,0.0135554569725387,-1.99702245168562,0.0853676455523341,,0.6197886716550012,,
,5711.0,1198.0,5086.0,1052.0,2300.0,2494.0,1974.0,,,,0.0133805257521131,-1.99658088813049,0.0853545752845402,,1.1096261201013735,,
,5710.0,1197.0,5084.0,1050.0,2299.0,2491.0,1988.0,,,,0.0136081245035338,-1.9960328319907,0.0854444864155994,,1.5827466408009554,,
,5712.0,1199.0,5085.0,1049.0,2277.0,2475.0,1986.0,,,,0.0137496842784458,-1.99529413276937,0.0855175809937351,,2.0305154466755404,,
,5711.0,1198.0,5086.0,1053.0,2283.0,2492.0,1981.0,,,,0.0138644756854331,-1.99436810765693,0.0855938023569251,,2.4452206060664508,,
,5708.0,1196.0,5085.0,1051.0,2290.0,2492.0,1982.0,,,,0.0139762673475126,-1.99411828513936,0.085575346711635,,2.820321311484477,,
,5711.0,1197.0,5083.0,1049.0,2293.0,2499.0,1967.0,,,,0.0139970646036846,-1.99358682992491,0.0856868696994755,,3.1506465189250608,,
,5710.0,1196.0,5085.0,1049.0,2311.0,2499.0,1964.0,,,,0.014046036510033,-1.99326559517201,0.0856540769243191,,3.432533706251461,,
,5709.0,1198.0,5086.0,1050.0,2308.0,2479.0,1959.0,,,,0.0141318074875248,-1.99307941590869,0.085666236885993,,3.6638995017829656,,
,5710.0,1200.0,5087.0,1053.0,2316.0,2488.0,1973.0,,,,0.0141943278688886,-1.99354819671955,0.0857226516548233,,3.8442376060639134,,
,5710.0,1200.0,5087.0,1051.0,2314.0,2499.0,1977.0,,,,0.0142590072613412,-1.99362607722811,0.0856997181973755,,3.9745442268860107,,
,5706.0,1198.0,5084.0,1050.0,2321.0,2493.0,1958.0,,,,0.0139453189552488,-1.99356542460444,0.0856755202555223,,4.057175966533662,,
,5708.0,1198.0,5085.0,1052.0,2306.0,2487.0,1951.0,,,,0.0140845996367965,-1.99373919827543,0.0856343560575191,,4.095648655369884,,
,5712.0,1198.0,5087.0,1053.0,2319.0,2494.0,1967.0,,,,0.0140322535247103,-1.99419471472444,0.0856089365604058,,4.09438788547568,,
,5712.0,1198.0,5084.0,1054.0,2317.0,2490.0,1976.0,,,,0.0139802361608633,-1.99427741523314,0.0855547306768416,,4.058443668897638,,
,5709.0,1198.0,5086.0,1052.0,2324.0,2482.0,1966.0,,,,0.0139553625526619,-1.99464863016671,0.0855561779883894,,3.9931833398471093,,
,5713.0,1200.0,5086.0,1052.0,2343.0,2486.0,1979.0,,,,0.0138750369558142,-1.9952953650679,0.0854840772582239,,3.9039784896355303,,
,5712.0,1196.0,5090.0,1052.0,2334.0,2485.0,1981.0,,,,0.013571084926616,-1.995935960552,0.085470814664052,,3.7959029514679368,,
,5712.0,1196.0,5090.0,1052.0,2334.0,2490.0,1983.0,,,,0.0135335678020356,-1.99606225980859,0.0854386484541125,,3.6734593624478227,,
,5711.0,1200.0,5090.0,1052.0,2325.0,2497.0,1972.0,,,,0.0135904844705874,-1.99677084969711,0.0853485130340359,,3.5403515896158133,,
,5713.0,1197.0,5091.0,1053.0,2320.0,2486.0,1967.0,,,,0.013629931582941,-1.99676267362148,0.0855316280719992,,3.3993192842391475,,
,5712.0,1200.0,5094.0,1054.0,2333.0,2478.0,1964.0,,,,0.013627367009096,-1.99702583020754,0.0853171268756675,,3.252048650400369,,
,5715.0,1199.0,5093.0,1054.0,2338.0,2476.0,1962.0,,,,0.0136309760478646,-1.9966641136503,0.0853275280511671,,3.099169349002284,,
,5716.0,1201.0,5097.0,1054.0,2331.0,2494.0,1972.0,,,,0.0135605282076735,-1.99699048712863,0.0853789299898493,,2.9403405921864083,,
,5715.0,1200.0,5097.0,1055.0,2343.0,2493.0,1978.0,,,,0.0136380310098558,-1.99706217058223,0.0854497270505328,,2.774420315808681,,
,5715.0,1200.0,5095.0,1055.0,2331.0,2505.0,1981.0,,,,0.0135688692019711,-1.9967676117513,0.0854279129689716,,2.5997015805604047,,
,5719.0,1204.0,5100.0,1056.0,2318.0,2485.0,1978.0,,,,0.0136727264871477,-1.99703082256703,0.0853228298500685,,2.4141921481264554,,
,5719.0,1203.0,5100.0,1054.0,2329.0,2490.0,1976.0,,,,0.0136570340038151,-1.99668476419953,0.0854082400809574,,2.2159080139307097,,
,5716.0,1200.0,5102.0,1053.0,2336.0,2496.0,1964.0,,,,0.013506561864525,-1.99747697389926,0.0853672772222718,,2.0031503635620096,,
,5719.0,1202.0,5105.0,1059.0,2307.0,2492.0,1962.0,,,,0.0134184625245594,-1.99754362965685,0.0853261824836279,,1.7747382947670203,,
,5720.0,1203.0,5106.0,1056.0,2305.0,2484.0,1966.0,,,,0.0134830892373001,-1.99797007639325,0.0853832154634716,,1.530176460150674,,
,5722.0,1202.0,5105.0,1055.0,2316.0,2483.0,1975.0,,,,0.0134371358487532,-1.99776296235446,0.0853120989017351,,1.2697464250799302,,
,5721.0,1202.0,5105.0,1054.0,2333.0,2482.0,1982.0,,,,0.0133698858125673,-1.99843650529087,0.0853404629223958,,0.9945210373447883,,
,5720.0,1202.0,5106.0,1056.0,2316.0,2485.0,1973.0,,,,0.0132956633309964,-1.9982946088205,0.0852530475032361,,0.7063101537168578,,
,5721.0,1203.0,5108.0,1056.0,2334.0,2483.0,1968.0,,,,0.0132843787847077,-1.99911841093501,0.0853047850517486,,0.40755191967406434,,
,5726.0,1202.0,5113.0,1057.0,2316.0,2476.0,1953.0,,,,0.0132094283206171,-1.99914996585664,0.0851424931963602,,0.10116604093198282,,
,5723.0,1203.0,5111.0,1057.0,2319.0,2481.0,1961.0,,,,0.0131235934565051,-1.99979832603506,0.0851349417245625,,-0.20961507638229498,,
,5723.0,1203.0,5110.0,1056.0,2336.0,2483.0,1964.0,,,,0.0129786673971943,-2.00058991469435,0.085092623565101,,-0.5214235746171458,,
,5725.0,1206.0,5116.0,1059.0,2343.0,2488.0,1958.0,,,,0.0128888843349203,-2.00111035599344,0.0850248588068411,,-0.8309306766991693,,
,5724.0,1202.0,5114.0,1058.0,2347.0,2492.0,1959.0,,,,0.0127139692962617,-2.00176993814284,0.0849687140503185,,-1.13500970713391,,
,5725.0,1202.0,5112.0,1057.0,2355.0,2510.0,1961.0,,,,0.0127453745452655,-2.00299121335797,0.0848642546409596,,-1.430880184462333,,
,5721.0,1203.0,5109.0,1053.0,2343.0,2505.0,1976.0,,,,0.0125653138860942,-2.00327809648844,0.084782558520266,,-1.7162257416490427,,
,5721.0,1203.0,5108.0,1056.0,2328.0,2504.0,1987.0,,,,0.0123740588709568,-2.00355792574531,0.0847997739259347,,-1.9892778432416995,,
,5721.0,1204.0,5105.0,1056.0,2288.0,2505.0,1990.0,,,,0.012249255088256,-2.00423335017878,0.0846631819242146,,-2.2488563423258925,,
,5718.0,1202.0,5100.0,1055.0,2282.0,2509.0,1991.0,,,,0.0122095973080189,-2.00422757782735,0.0847543708487117,,-2.4943580929672957,,
,5713.0,1200.0,5100.0,1054.0,2301.0,2503.0,1989.0,,,,0.0121859911777009,-2.0047554590436,0.0846680319624785,,-2.725687184313063,,
,5713.0,1199.0,5097.0,1055.0,2278.0,2487.0,1989.0,,,,0.0122110349619307,-2.00513398229481,0.0845507138404503,,-2.9431251331812445,,
,5711.0,1200.0,5097.0,1054.0,2258.0,2469.0,1988.0,,,,0.0120094939342127,-2.00605062675512,0.084525734205392,,-3.14714588309182,,
,5708.0,1198.0,5091.0,1052.0,2272.0,2475.0,1990.0,,,,0.0120718265301565,-2.00608723784869,0.0846193226769216,,-3.3381876891305113,,
,5706.0,1196.0,5088.0,1051.0,2277.0,2477.0,1990.0,,,,0.0119918787584982,-2.00572303739349,0.0845673821951628,,-3.5164010247400586,,
,5708.0,1199.0,5090.0,1051.0,2304.0,2486.0,1976.0,,,,0.0119585301363844,-2.00676604855531,0.0845322625174867,,-3.6813976673203097,,
,5706.0,1199.0,5086.0,1052.0,2336.0,2477.0,1968.0,,,,0.0118302108734367,-2.00723266247324,0.0845199155171729,,-3.8320300486113683,,
,5707.0,1196.0,5083.0,1050.0,2341.0,2489.0,1969.0,,,,0.011760051417653,-2.00763035802297,0.0844121088641039,,-3.9662306406209598,,
,5706.0,1198.0,5083.0,1052.0,2352.0,2493.0,1957.0,,,,0.0115215025162177,-2.00762023494812,0.084402298731502,,-4.080937743422147,,
,5703.0,1196.0,5084.0,1049.0,2353.0,2488.0,1965.0,,,,0.0115490946420645,-2.00803934347823,0.0844666215932344,,-4.172126468539083,,
,5704.0,1196.0,5082.0,1049.0,2345.0,2501.0,1958.0,,,,0.0115478776324352,-2.00797221459249,0.0844602447915369,,-4.234952861352994,,
,5706.0,1195.0,5081.0,1051.0,2348.0,2495.0,1955.0,,,,0.0115246451753721,-2.00748873668187,0.0845617808157266,,-4.2640065319051415,,
,5704.0,1195.0,5080.0,1051.0,2326.0,2498.0,1934.0,,,,0.0114933254333074,-2.00770207740189,0.084460937504708,,-4.253654472859032,,
,5705.0,1195.0,5083.0,1049.0,2321.0,2485.0,1943.0,,,,0.0113413583187307,-2.00772250714927,0.0844594387173015,,-4.198447321794819,,
,5706.0,1199.0,5083.0,1051.0,2317.0,2486.0,1959.0,,,,0.011388357937189,-2.00762322733031,0.0845336084460093,,-4.09355060296662,,
,5707.0,1197.0,5084.0,1052.0,2317.0,2492.0,1973.0,,,,0.011366741589917,-2.00791692381977,0.0844194050242238,,-3.9351591265329446,,
,5708.0,1195.0,5081.0,1052.0,2315.0,2485.0,1979.0,,,,0.0112901679179831,-2.00826363974359,0.0844383070968563,,-3.720854173019773,,
,5705.0,1195.0,5081.0,1050.0,2313.0,2499.0,1989.0,,,,0.0111512752116734,-2.00846094950793,0.0844536725954219,,-3.449870709553652,,
,5708.0,1197.0,5086.0,1051.0,2321.0,2511.0,1980.0,,,,0.0111119479697662,-2.00913552006764,0.0842923335896605,,-3.123254364700404,,
,5707.0,1196.0,5085.0,1052.0,2337.0,2487.0,1972.0,,,,0.0108531001818861,-2.0094550116961,0.084340436810254,,-2.7439023669229563,,
,5709.0,1199.0,5088.0,1053.0,2322.0,2487.0,1978.0,,,,0.0107640564751133,-2.0100102606721,0.0843590688589071,,-2.3164956675032724,,
,5707.0,1196.0,5087.0,1051.0,2323.0,2494.0,1983.0,,,,0.0105695194030193,-2.01108961918965,0.0842157550684913,,-1.8473384143197062,,
,5709.0,1199.0,5086.0,1052.0,2316.0,2503.0,1954.0,,,,0.010553605296664,-2.01157483965758,0.0842486809237816,,-1.344125024265116,,
,5707.0,1201.0,5088.0,1052.0,2318.0,2494.0,1971.0,,,,0.010396290093651,-2.01208688471571,0.084089996097602,,-0.8156552052426324,,
,5709.0,1198.0,5089.0,1051.0,2311.0,2498.0,1976.0,,,,0.0103986420490137,-2.01239559065304,0.0840979192022723,,-0.2715151814144662,,
,5708.0,1196.0,5090.0,1053.0,2313.0,2482.0,1978.0,,,,0.0104056891045879,-2.01260869468107,0.0841232900891714,,0.27825909215651023,,
,5709.0,1200.0,5087.0,1052.0,2318.0,2473.0,1976.0,,,,0.0104798982723879,-2.01209104968595,0.0841160398385601,,0.8235226183489781,,
,5711.0,1199.0,5089.0,1053.0,2312.0,2475.0,1980.0,,,,0.0105796423539957,-2.01240207037924,0.0841463372326605,,1.3543526335118172,,
,5710.0,1199.0,5090.0,1053.0,2307.0,2474.0,1985.0,,,,0.0107069606472683,-2.01180360828101,0.0841632004782817,,1.8613577980927232,,
,5710.0,1199.0,5090.0,1052.0,2320.0,2473.0,1977.0,,,,0.0108487430064573,-2.01130066153981,0.084201560080816,,2.3359540547289668,,
,5706.0,1197.0,5089.0,1049.0,2314.0,2476.0,1995.0,,,,0.010944669887613,-2.0109579715957,0.0842770630741554,,2.7705985086707505,,
,5711.0,1200.0,5089.0,1050.0,2318.0,2483.0,1986.0,,,,0.0110988990120007,-2.01002966330385,0.0842689439960961,,3.158975924817246,,
,5709.0,1199.0,5087.0,1053.0,2324.0,2475.0,1974.0,,,,0.0111667268498541,-2.00964116764838,0.084362954494195,,3.496135042508329,,
,5709.0,1198.0,5092.0,1051.0,2323.0,2476.0,1976.0,,,,0.0113134621454399,-2.00924044639473,0.0843687765629086,,3.7785728587876544,,
2025-07-16 20:17:51,5707.0,1197.0,5087.0,1049.0,2301.0,2484.0,1961.0,,,2025/07/16 08:17:51 PM,0.0113483648101068,-2.00908764235189,0.0843288741809354,,4.004264551879487,,
,5708.0,1198.0,5089.0,1051.0,2338.0,2488.0,1968.0,,,,0.0114401880872717,-2.00878701181837,0.0843729605338026,,4.172636242921847,,
,5710.0,1199.0,5091.0,1053.0,2310.0,2502.0,1971.0,,,,0.0114725641042225,-2.00850782691651,0.0843810180280213,,4.284478839249828,,
,5709.0,1200.0,5088.0,1052.0,2314.0,2503.0,1971.0,,,,0.0115714042893031,-2.0082533732024,0.0845248519807047,,4.341804325047206,,
,5708.0,1200.0,5088.0,1052.0,2331.0,2499.0,1963.0,,,,0.0115214050777763,-2.00799558887969,0.0843560846734349,,4.3476505876177045,,
,5709.0,1198.0,5089.0,1051.0,2314.0,2511.0,1972.0,,,,0.0115355539564785,-2.00828809503646,0.0844852105075884,,4.305846248931688,,
,5710.0,1199.0,5091.0,1053.0,2287.0,2500.0,1968.0,,,,0.0115249483181082,-2.00834620532643,0.0845019287861146,,4.220752061710671,,
,5710.0,1199.0,5091.0,1050.0,2295.0,2483.0,1963.0,,,,0.0114396160760634,-2.00834187868803,0.0845209679978995,,4.09699930429133,,
,5709.0,1201.0,5091.0,1052.0,2311.0,2500.0,1965.0,,,,0.0115730898240289,-2.00802258924542,0.0845149327989215,,3.9392472306435136,,
,5710.0,1198.0,5091.0,1051.0,2317.0,2498.0,1971.0,,,,0.0114476105249918,-2.00835444424335,0.0844742676580803,,3.7519799430679037,,
,5712.0,1202.0,5095.0,1053.0,2319.0,2499.0,1965.0,,,,0.0114032391632063,-2.00892229429758,0.0844266667041991,,3.5393576003250495,,
,5710.0,1200.0,5094.0,1053.0,2315.0,2500.0,1966.0,,,,0.0113205924185709,-2.00889282558174,0.084470187441873,,3.3051285443881504,,
,5711.0,1200.0,5096.0,1054.0,2334.0,2489.0,1970.0,,,,0.0112163940268401,-2.00969168693706,0.084353451415187,,3.0525998307476563,,
,5713.0,1200.0,5095.0,1053.0,2311.0,2483.0,1960.0,,,,0.0111651965781201,-2.00971103316725,0.084317416871759,,2.784655966064382,,
,5713.0,1202.0,5096.0,1054.0,2321.0,2488.0,1972.0,,,,0.0112108227700985,-2.01006249885726,0.0843490800959195,,2.503810720290905,,
,5716.0,1203.0,5099.0,1054.0,2310.0,2492.0,1977.0,,,,0.0111157173345643,-2.00986119457883,0.0842726944869603,,2.2122751992175465,,
,5714.0,1204.0,5099.0,1054.0,2319.0,2491.0,1983.0,,,,0.0110812470032394,-2.0099304043208,0.0842856496562212,,1.9120270112475763,,
,5715.0,1200.0,5098.0,1053.0,2300.0,2493.0,1985.0,,,,0.0111423337212779,-2.00975634219975,0.0843762125533003,,1.6048699086879006,,
,5716.0,1204.0,5103.0,1055.0,2312.0,2487.0,1978.0,,,,0.01121323285343,-2.00987529507981,0.084331590274579,,1.2924794626398266,,
,5718.0,1204.0,5103.0,1056.0,2329.0,2503.0,1967.0,,,,0.0111667697812847,-2.00971908859557,0.0843011613482946,,0.9764361014087004,,
,5718.0,1203.0,5104.0,1054.0,2324.0,2500.0,1966.0,,,,0.0111202589218375,-2.00990486470978,0.0843527683319179,,0.6582501904230356,,
,5720.0,1201.0,5104.0,1054.0,2314.0,2489.0,1973.0,,,,0.0112942338018516,-2.00960706742314,0.0843826448838633,,0.3393839007744469,,
,5722.0,1203.0,5106.0,1056.0,2318.0,2490.0,1978.0,,,,0.011278071066968,-2.00903205492393,0.0843542216281984,,0.021272181945574054,,
,5721.0,1204.0,5108.0,1059.0,2319.0,2487.0,1983.0,,,,0.0114240107842104,-2.00865751565654,0.0843779689512345,,-0.29465804840024895,,
,5723.0,1205.0,5108.0,1056.0,2313.0,2484.0,1978.0,,,,0.0114202745850934,-2.00888896446848,0.0844325394575773,,-0.6069738243334067,,
,5721.0,1203.0,5108.0,1055.0,2310.0,2487.0,1978.0,,,,0.0115417806730192,-2.00826761444981,0.0844085673629063,,-0.914231375651829,,
,5720.0,1206.0,5113.0,1058.0,2319.0,2479.0,1971.0,,,,0.0115147649618226,-2.00853898610657,0.0844265102247611,,-1.214983959519803,,
,5725.0,1205.0,5114.0,1058.0,2321.0,2477.0,1969.0,,,,0.0114149715730988,-2.00853245009595,0.0844817268351407,,-1.5078026684402057,,
,5723.0,1205.0,5115.0,1060.0,2321.0,2476.0,1964.0,,,,0.0114113027441856,-2.00860470676577,0.0843969690338912,,-1.7913061199962028,,
,5724.0,1204.0,5115.0,1057.0,2337.0,2483.0,1956.0,,,,0.0113127089650287,-2.00890661552004,0.0844443865259792,,-2.0641899348771386,,
,5721.0,1206.0,5120.0,1059.0,2356.0,2495.0,1958.0,,,,0.0112621075060933,-2.00997274328524,0.0843698663239495,,-2.325243172604029,,
,5727.0,1205.0,5117.0,1060.0,2368.0,2487.0,1970.0,,,,0.0112304448139957,-2.00993331650345,0.0842923535474246,,-2.573338149065725,,
,5724.0,1207.0,5119.0,1058.0,2309.0,2496.0,1974.0,,,,0.0111324318510879,-2.00984123316649,0.0843214307565018,,-2.8073831205693103,,
,5722.0,1206.0,5116.0,1057.0,2307.0,2498.0,1977.0,,,,0.0110671564737226,-2.01010781042026,0.0842831899088286,,-3.0262338174491004,,
,5721.0,1204.0,5110.0,1057.0,2315.0,2511.0,1976.0,,,,0.0111915061779134,-2.01053752232442,0.0842803418949619,,-3.228568568756599,,
,5717.0,1204.0,5111.0,1057.0,2308.0,2516.0,1983.0,,,,0.0110671209050263,-2.01050476212299,0.084248650117502,,-3.412741140126968,,
,5717.0,1204.0,5109.0,1058.0,2283.0,2492.0,1990.0,,,,0.0109766757289601,-2.01083275352478,0.0842155851328378,,-3.5766334335806897,,
,5717.0,1202.0,5108.0,1056.0,2265.0,2500.0,1981.0,,,,0.0109068725297417,-2.01094054242558,0.0841935191758295,,-3.7175348828331147,,
,5713.0,1200.0,5103.0,1055.0,2281.0,2499.0,1975.0,,,,0.0107169172784601,-2.01190165990934,0.0841120362716232,,-3.8320753347121204,,
,5712.0,1200.0,5100.0,1052.0,2272.0,2482.0,1977.0,,,,0.0109022907609152,-2.01107382257464,0.0842068140296483,,-3.9162331608866343,,
,5712.0,1200.0,5097.0,1053.0,2261.0,2481.0,1979.0,,,,0.0107981037365443,-2.01151910336125,0.0840977798131619,,-3.965431283025776,,
,5711.0,1198.0,5097.0,1052.0,2269.0,2487.0,1980.0,,,,0.0108442593992943,-2.01189147073071,0.0842109514460125,,-3.9747226829311955,,
,5707.0,1197.0,5094.0,1053.0,2281.0,2507.0,1976.0,,,,0.0108134589456997,-2.01216273923084,0.0840684883921898,,-3.9390559987880636,,
,5706.0,1199.0,5091.0,1053.0,2300.0,2488.0,1967.0,,,,0.0107884808793062,-2.01233664935453,0.0840753611253093,,-3.8536026324069317,,
,5708.0,1198.0,5090.0,1052.0,2320.0,2477.0,1953.0,,,,0.0105541762135101,-2.01273555701404,0.0840031764444642,,-3.7141203299663066,,
,5705.0,1199.0,5089.0,1052.0,2328.0,2479.0,1959.0,,,,0.0106151108379667,-2.01288226560352,0.0840187816789802,,-3.5173248752214223,,
,5704.0,1198.0,5089.0,1051.0,2332.0,2480.0,1958.0,,,,0.0104838828820466,-2.01329790214295,0.0840297867004569,,-3.2612413642428795,,
,5703.0,1198.0,5088.0,1050.0,2342.0,2479.0,1945.0,,,,0.0104856377466361,-2.01333748514999,0.0839775752886615,,-2.9455089936949066,,
,5707.0,1200.0,5090.0,1054.0,2322.0,2488.0,1954.0,,,,0.0103668755751814,-2.01303674636975,0.0840510970093575,,-2.571617395194213,,
,5708.0,1200.0,5088.0,1052.0,2321.0,2485.0,1971.0,,,,0.0103042975169047,-2.01341038111047,0.0840892618533822,,-2.143057218186757,,
,5706.0,1198.0,5086.0,1051.0,2332.0,2493.0,1955.0,,,,0.0103341715730628,-2.01289934458393,0.0841458181466415,,-1.665372287726491,,
,5702.0,1198.0,5085.0,1051.0,2346.0,2484.0,1961.0,,,,0.0104673649854928,-2.01228111104605,0.0841161089246328,,-1.1461053536684394,,
,5707.0,1198.0,5087.0,1052.0,2339.0,2499.0,1973.0,,,,0.0103550898332768,-2.01197809234128,0.0842062934381419,,-0.5946347474228305,,
,5703.0,1198.0,5086.0,1050.0,2308.0,2503.0,1978.0,,,,0.010322396207936,-2.01248279661577,0.0841944066673979,,-0.021905445778561284,,
,5705.0,1200.0,5091.0,1052.0,2312.0,2504.0,1974.0,,,,0.0102405191350986,-2.01250449763786,0.0841194101832891,,0.5599352748467118,,
,5706.0,1199.0,5089.0,1052.0,2310.0,2495.0,1992.0,,,,0.0102702852419243,-2.01250511741847,0.084161399455685,,1.1379809416841338,,
,5708.0,1202.0,5093.0,1051.0,2310.0,2496.0,1986.0,,,,0.0102176139949712,-2.01254128557971,0.0840844794487553,,1.6990653630671089,,
,5707.0,1201.0,5092.0,1054.0,2310.0,2481.0,1977.0,,,,0.0100651588436755,-2.01272429382519,0.0841372268895178,,2.230291379855493,,
,5707.0,1200.0,5093.0,1055.0,2298.0,2479.0,1978.0,,,,0.0100441192442098,-2.01312920690896,0.0840894736979085,,2.719558467650367,,
,5708.0,1200.0,5092.0,1051.0,2310.0,2487.0,1976.0,,,,0.0099830367742621,-2.01389698796155,0.0840644625877146,,3.156057501072979,,
,5707.0,1201.0,5092.0,1051.0,2281.0,2477.0,1981.0,,,,0.0100046074107469,-2.013783941675,0.0840186672908005,,3.530702440483931,,
,5711.0,1201.0,5094.0,1054.0,2310.0,2482.0,1977.0,,,,0.0098879238635658,-2.01407293764386,0.0840109147085137,,3.8364729337704233,,
,5709.0,1200.0,5096.0,1054.0,2316.0,2475.0,1983.0,,,,0.0098899372864797,-2.01432779882243,0.0839431585798087,,4.068648016421495,,
,5711.0,1201.0,5095.0,1054.0,2333.0,2480.0,1983.0,,,,0.0098278351942625,-2.01459371143572,0.0839717132057024,,4.22491807416176,,
,5709.0,1202.0,5094.0,1052.0,2324.0,2493.0,1987.0,,,,0.0098980516409372,-2.0145389141556,0.0839894756836743,,4.305369535936391,,
,5709.0,1202.0,5097.0,1052.0,2286.0,2484.0,1976.0,,,,0.0099772539607662,-2.01426303712397,0.0839499999245311,,4.312344811937649,,
,5708.0,1202.0,5094.0,1055.0,2300.0,2482.0,1971.0,,,,0.0100601230011442,-2.0140413113114,0.0840196971402272,,4.250189001841438,,
,5709.0,1202.0,5097.0,1052.0,2307.0,2484.0,1960.0,,,,0.0102177409828806,-2.01337320969088,0.0840930878988977,,4.124903961190555,,
,5710.0,1199.0,5095.0,1053.0,2308.0,2488.0,1972.0,,,,0.010320759575181,-2.01310424870853,0.0840987756893724,,3.9437378219810704,,
,5707.0,1200.0,5097.0,1054.0,2311.0,2492.0,1981.0,,,,0.0104562362839403,-2.01290014588011,0.0841732139562367,,3.714742802536972,,
,5710.0,1204.0,5096.0,1055.0,2328.0,2498.0,1969.0,,,,0.0105163929157916,-2.0124828592687,0.0842131574288718,,3.4463357240199604,,
,5709.0,1200.0,5097.0,1055.0,2316.0,2495.0,1964.0,,,,0.0106768443940001,-2.01198824899316,0.0841802604420607,,3.1468940913480146,,
,5708.0,1199.0,5096.0,1055.0,2312.0,2491.0,1967.0,,,,0.0106604867736072,-2.01211073895383,0.0841345698697774,,2.8244157606507945,,
,5711.0,1201.0,5097.0,1052.0,2303.0,2482.0,1972.0,,,,0.0106981306228896,-2.0117669077494,0.0842635017008792,,2.4862619191357256,,
,5710.0,1203.0,5097.0,1054.0,2303.0,2492.0,1963.0,,,,0.0106945327231292,-2.01166374353873,0.0842250618374023,,2.1389919099648123,,
,5711.0,1201.0,5094.0,1052.0,2305.0,2493.0,1963.0,,,,0.0108413214801317,-2.01149503351344,0.0842785578791838,,1.7882861711078988,,
,5712.0,1202.0,5098.0,1055.0,2301.0,2493.0,1971.0,,,,0.0107698273502448,-2.01175043887571,0.0842556213530541,,1.4389426990864957,,
,5710.0,1199.0,5096.0,1053.0,2306.0,2482.0,1960.0,,,,0.0106454297371351,-2.01154570702881,0.0842021993642971,,1.0949249858378665,,
,5708.0,1203.0,5099.0,1055.0,2336.0,2481.0,1958.0,,,,0.0106388974314581,-2.01211933999424,0.0841612190463561,,0.7594363144208849,,
,5711.0,1202.0,5099.0,1055.0,2315.0,2497.0,1959.0,,,,0.0106053112642745,-2.01157183743671,0.0841465503281607,,0.434996881431615,,
,5713.0,1203.0,5101.0,1055.0,2301.0,2492.0,1969.0,,,,0.0106033318666022,-2.01218809545479,0.0841708700046166,,0.12350615192121303,,
,5710.0,1200.0,5098.0,1052.0,2308.0,2487.0,1975.0,,,,0.0105001250832379,-2.01242778214402,0.0842321426044475,,-0.17371781352914206,,
,5709.0,1206.0,5100.0,1054.0,2313.0,2495.0,1982.0,,,,0.0103167078994605,-2.01253976920532,0.0840654704577834,,-0.4559194899403742,,
,5712.0,1203.0,5102.0,1054.0,2323.0,2493.0,1967.0,,,,0.0103294743757879,-2.01300718348504,0.0841295105286018,,-0.7228953003710386,,
,5713.0,1205.0,5102.0,1055.0,2316.0,2495.0,1971.0,,,,0.010341944254906,-2.01311651803441,0.0840262377376217,,-0.9749733981919955,,
,5712.0,1201.0,5101.0,1054.0,2304.0,2512.0,1978.0,,,,0.0101923188108161,-2.01358287698193,0.0840821142885532,,-1.2129654142020418,,
,5715.0,1203.0,5105.0,1057.0,2305.0,2492.0,1959.0,,,,0.0102694984192711,-2.01358048877799,0.0840431232735817,,-1.4380761480025095,,
,5716.0,1205.0,5107.0,1058.0,2311.0,2490.0,1970.0,,,,0.0100921481238755,-2.01357052801089,0.0840477447339526,,-1.6517649816029336,,
,5718.0,1203.0,5106.0,1058.0,2300.0,2483.0,1974.0,,,,0.0101609074871554,-2.0135792141475,0.0839875360136441,,-1.8555622298869423,,
,5714.0,1201.0,5107.0,1055.0,2302.0,2489.0,1954.0,,,,0.0101374433581202,-2.01373440462165,0.0840730832214178,,-2.050852842022986,,
,5715.0,1206.0,5106.0,1054.0,2327.0,2488.0,1966.0,,,,0.0101616678728473,-2.01369591474912,0.0840748367571578,,-2.2386468799001835,,
,5717.0,1204.0,5110.0,1056.0,2310.0,2483.0,1983.0,,,,0.0103001291259162,-2.01419744627949,0.0839975107792696,,-2.4193594274602304,,
,5719.0,1205.0,5111.0,1056.0,2317.0,2491.0,1977.0,,,,0.0101455087001599,-2.01337276690211,0.0840687821686175,,-2.5926214809575177,,
,5719.0,1204.0,5112.0,1056.0,2294.0,2487.0,1963.0,,,,0.0101336050572176,-2.01348954091478,0.0840532163340171,,-2.7571388486490194,,
,5720.0,1204.0,5112.0,1057.0,2295.0,2486.0,1970.0,,,,0.0102989741790985,-2.01336664000583,0.0841165524026778,,-2.9106102390921063,,
,5722.0,1208.0,5117.0,1059.0,2283.0,2487.0,1981.0,,,,0.0103079703130988,-2.01309595425007,0.0840654495091225,,-3.049710744025452,,
,5719.0,1206.0,5116.0,1058.0,2302.0,2492.0,1967.0,,,,0.0103529426822217,-2.01332330809561,0.0840555140547071,,-3.1701438896746015,,
,5721.0,1205.0,5118.0,1059.0,2300.0,2489.0,1966.0,,,,0.0102826240872348,-2.01314829856106,0.0840686693907144,,-3.26676387002577,,
,5719.0,1206.0,5116.0,1057.0,2326.0,2479.0,1971.0,,,,0.0102600783225238,-2.0134475289875,0.0840140132860346,,-3.333768199280776,,
,5720.0,1206.0,5121.0,1059.0,2322.0,2485.0,1966.0,,,,0.0101541114690999,-2.01365580875174,0.0840631265108006,,-3.3649586393901205,,
,5723.0,1207.0,5122.0,1061.0,2339.0,2502.0,1966.0,,,,0.0100192145688521,-2.0141760748571,0.0839172933902446,,-3.3540642051705523,,
,5723.0,1206.0,5123.0,1060.0,2351.0,2508.0,1967.0,,,,0.0100451991944684,-2.01504671670347,0.0839033653593181,,-3.295114312623829,,
,5722.0,1208.0,5123.0,1058.0,2350.0,2510.0,1959.0,,,,0.0100063196074449,-2.01473617513221,0.083952249498417,,-3.182843434631742,,
,5721.0,1206.0,5124.0,1060.0,2361.0,2503.0,1970.0,,,,0.0099904351779175,-2.01572511844918,0.0839183205873766,,-3.0131022522047846,,
,5724.0,1209.0,5121.0,1059.0,2334.0,2501.0,1977.0,,,,0.0100460410374709,-2.01576034813181,0.0837542445992889,,-2.783245715584749,,
,5723.0,1207.0,5121.0,1059.0,2323.0,2498.0,1976.0,,,,0.0099543594235275,-2.01632532546239,0.0837774308446323,,-2.4924670016036923,,
,5717.0,1205.0,5118.0,1059.0,2328.0,2480.0,1977.0,,,,0.0098202879481739,-2.0164968648616,0.0837354166496239,,-2.142048987610207,,
,5719.0,1204.0,5118.0,1056.0,2292.0,2478.0,1980.0,,,,0.009599351680981,-2.01623154390194,0.0837162375709893,,-1.7355115349518628,,
,5718.0,1205.0,5116.0,1058.0,2292.0,2473.0,1975.0,,,,0.0097400116908844,-2.01620347886637,0.083783404941526,,-1.278642261563397,,
,5715.0,1206.0,5114.0,1057.0,2252.0,2480.0,1970.0,,,,0.0096879361215894,-2.01669001240252,0.0837072858027025,,-0.7794084183247645,,
,5715.0,1206.0,5110.0,1056.0,2253.0,2474.0,1959.0,,,,0.0097036058179321,-2.01654293711789,0.083715159294975,,-0.24775605496319833,,
,5709.0,1200.0,5105.0,1052.0,2250.0,2474.0,1977.0,,,,0.0096231068470996,-2.01824928288178,0.0836843050295241,,0.3046910630658354,,
,5710.0,1204.0,5105.0,1055.0,2228.0,2475.0,1986.0,,,,0.0095252642301796,-2.01856330357859,0.083675843466611,,0.8650164048316975,,
,5708.0,1202.0,5103.0,1054.0,2265.0,2478.0,1986.0,,,,0.0094440053360597,-2.01878420728419,0.0835051907350275,,1.4194612002199158,,
,5708.0,1202.0,5101.0,1053.0,2280.0,2484.0,1987.0,,,,0.0094289974141246,-2.01954566202103,0.0835677407698069,,1.9539218609507902,,
,5706.0,1199.0,5099.0,1054.0,2312.0,2482.0,1977.0,,,,0.0092068073595882,-2.02017507624448,0.0834932613318366,,2.454476044986468,,
,5703.0,1198.0,5099.0,1054.0,2337.0,2488.0,1967.0,,,,0.0090825143399213,-2.02012263408584,0.0835130695820104,,2.9079193300237054,,
,5705.0,1202.0,5095.0,1055.0,2346.0,2498.0,1942.0,,,,0.0089353806717231,-2.02049073300649,0.0834583059102219,,3.302293339254665,,
,5703.0,1202.0,5098.0,1052.0,2352.0,2511.0,1947.0,,,,0.0090371534161684,-2.02014806834747,0.0835223411554494,,3.6273832602894185,,
,5702.0,1202.0,5094.0,1053.0,2366.0,2499.0,1939.0,,,,0.0090525560087343,-2.01987246318203,0.0835033530579967,,3.8751589043167307,,
,5704.0,1201.0,5093.0,1053.0,2378.0,2491.0,1956.0,,,,0.0090496215663766,-2.01981664570452,0.0835234700549308,,4.040130660047602,,
,5704.0,1204.0,5099.0,1052.0,2365.0,2481.0,1969.0,,,,0.0090042659313679,-2.01984044355793,0.083608626807622,,4.11959181071308,,
,5706.0,1202.0,5094.0,1053.0,2351.0,2477.0,1965.0,,,,0.0089034309904648,-2.019686185415,0.0836632703638535,,4.113722947377848,,
,5705.0,1204.0,5097.0,1055.0,2350.0,2486.0,1963.0,,,,0.0089882189826088,-2.01964149344583,0.0836347241126159,,4.025543097028317,,
,5701.0,1199.0,5093.0,1053.0,2326.0,2499.0,1979.0,,,,0.0088493114247226,-2.01970417939949,0.0836339613178654,,3.860705277227508,,
,5703.0,1202.0,5095.0,1055.0,2313.0,2498.0,1988.0,,,,0.0088159982383447,-2.01962624128398,0.0835876430011774,,3.6271498864651397,,
,5706.0,1202.0,5097.0,1054.0,2303.0,2497.0,1979.0,,,,0.0087473348472036,-2.02004769015022,0.0836205439145332,,3.33464477078558,,
,5705.0,1202.0,5098.0,1056.0,2295.0,2497.0,1989.0,,,,0.0087559554449315,-2.01981955640537,0.0835828389763923,,2.994252439367639,,
2025-07-16 20:17:52,5704.0,1200.0,5097.0,1053.0,2298.0,2483.0,1980.0,,,2025/07/16 08:17:52 PM,0.0085730764967997,-2.02026067080975,0.0835722865617112,,2.617769769565316,,
,5705.0,1204.0,5098.0,1051.0,2314.0,2484.0,1965.0,,,,0.0084963561548713,-2.02133027632569,0.0835338792843553,,2.2171826255024656,,
,5709.0,1205.0,5103.0,1055.0,2312.0,2484.0,1972.0,,,,0.0085157879198597,-2.02106317392401,0.0834527606223732,,1.8041686906303522,,
,5706.0,1204.0,5101.0,1055.0,2309.0,2499.0,1972.0,,,,0.0085200125551281,-2.02160678012531,0.0834634617908586,,1.3896698214645264,,
,5707.0,1201.0,5101.0,1056.0,2326.0,2505.0,1975.0,,,,0.0082020385868882,-2.02186045073972,0.0834137608131586,,0.9835436255982672,,
,5707.0,1203.0,5099.0,1053.0,2306.0,2489.0,1981.0,,,,0.0081451761672978,-2.02148763749155,0.083417305407397,,0.5942947081884109,,
,5706.0,1206.0,5101.0,1055.0,2300.0,2474.0,1984.0,,,,0.0082256436657006,-2.02216234590242,0.0833320912714623,,0.22887994159368846,,
,5705.0,1205.0,5104.0,1055.0,2295.0,2473.0,1979.0,,,,0.0082991600448011,-2.02177981579808,0.0833804463106625,,-0.1074204375252495,,
,5705.0,1203.0,5103.0,1055.0,2300.0,2465.0,1986.0,,,,0.0084516410616541,-2.02199879888476,0.0834447508427684,,-0.4110730243812954,,
,5706.0,1201.0,5102.0,1055.0,2319.0,2470.0,1990.0,,,,0.0084660477471557,-2.02176883935359,0.0833281720733089,,-0.680305721390866,,
,5707.0,1203.0,5105.0,1055.0,2292.0,2478.0,1986.0,,,,0.0087409331725904,-2.02105849087228,0.0834584749572237,,-0.9150639258150285,,
,5705.0,1204.0,5104.0,1055.0,2301.0,2488.0,1985.0,,,,0.0089305317833307,-2.0208122171371,0.0835122218609465,,-1.1169015320370255,,
,5707.0,1202.0,5104.0,1056.0,2299.0,2485.0,1979.0,,,,0.0089430149080867,-2.02024998615521,0.0835691199270578,,-1.288799407617745,,
,5703.0,1200.0,5102.0,1054.0,2290.0,2506.0,1983.0,,,,0.0089777252913854,-2.02044945179907,0.08358674388296,,-1.4349087274293693,,
,5705.0,1201.0,5103.0,1054.0,2289.0,2498.0,1981.0,,,,0.0091178350032966,-2.01979241359262,0.0836341290394801,,-1.5602256007778543,,
,5703.0,1202.0,5105.0,1053.0,2328.0,2504.0,1975.0,,,,0.0091420081796695,-2.01954609564471,0.0836029741650419,,-1.6702142262384614,,
,5703.0,1203.0,5104.0,1056.0,2322.0,2502.0,1975.0,,,,0.0090093287033975,-2.01901320286139,0.083655701851361,,-1.770405069568929,,
,5704.0,1201.0,5103.0,1051.0,2305.0,2515.0,1972.0,,,,0.0091329822162879,-2.01900372681549,0.0836926848144693,,-1.865999441555628,,
,5703.0,1203.0,5101.0,1054.0,2317.0,2512.0,1960.0,,,,0.0092836180427662,-2.01894023578002,0.0837220758322056,,-1.9615109709678296,,
,5704.0,1202.0,5104.0,1055.0,2316.0,2505.0,1982.0,,,,0.0092539382881385,-2.01887195589383,0.0836435493353583,,-2.0604682627304,,
,5705.0,1203.0,5104.0,1056.0,2325.0,2503.0,1985.0,,,,0.0092570521512454,-2.01884483554777,0.0837600066046734,,-2.165193322443315,,
,5705.0,1201.0,5105.0,1052.0,2305.0,2490.0,1980.0,,,,0.0092119108995735,-2.01846169448766,0.0836259693182699,,-2.276659616250507,,
,5703.0,1204.0,5104.0,1054.0,2302.0,2478.0,1981.0,,,,0.0091344566067668,-2.0187404967931,0.08363260820485,,-2.394424571109795,,
,5706.0,1203.0,5105.0,1056.0,2323.0,2494.0,1982.0,,,,0.0091690551830382,-2.01874752946513,0.0835667907701698,,-2.516626075450512,,
,5706.0,1202.0,5106.0,1057.0,2312.0,2488.0,1982.0,,,,0.009229947279122,-2.01912592731985,0.08372085168116,,-2.6400320008235387,,
,5705.0,1202.0,5108.0,1055.0,2300.0,2499.0,1982.0,,,,0.0090797828686963,-2.01976151774294,0.0836083642815707,,-2.7601352101533254,,
,5707.0,1200.0,5108.0,1055.0,2300.0,2483.0,1977.0,,,,0.009036963541887,-2.02002781627733,0.0835910026933417,,-2.8712921381890344,,
,5705.0,1204.0,5110.0,1055.0,2282.0,2476.0,1977.0,,,,0.0089911264139896,-2.02063046226103,0.0835268252553113,,-2.9669087057001144,,
,5707.0,1205.0,5109.0,1057.0,2316.0,2495.0,1963.0,,,,0.0089821474492355,-2.0207575700508,0.0834939943997677,,-3.0396810665789946,,
,5707.0,1204.0,5110.0,1057.0,2328.0,2500.0,1967.0,,,,0.0089533004895561,-2.02126604150219,0.0835880646587389,,-3.0818988465680937,,
,5707.0,1204.0,5113.0,1056.0,2316.0,2483.0,1972.0,,,,0.0085978119760764,-2.02113316502115,0.083447317030506,,-3.0858141557552443,,
,5708.0,1203.0,5114.0,1059.0,2297.0,2486.0,1962.0,,,,0.0087772598177901,-2.0211926052425,0.0835496740702133,,-3.0440708038490434,,
,5710.0,1205.0,5115.0,1058.0,2299.0,2479.0,1968.0,,,,0.0086047585301488,-2.02099138829059,0.0834917167819726,,-2.950176076785136,,
,5711.0,1207.0,5116.0,1058.0,2298.0,2477.0,1974.0,,,,0.008870437909056,-2.02046911762568,0.0835389340808777,,-2.798984605209969,,
,5709.0,1204.0,5114.0,1055.0,2293.0,2484.0,1980.0,,,,0.0089863458472603,-2.02027091844689,0.0835057037510047,,-2.587153566331736,,
,5711.0,1202.0,5115.0,1056.0,2301.0,2496.0,1981.0,,,,0.0090579486048959,-2.01973694367433,0.0835638436219432,,-2.3135239146829725,,
,5708.0,1204.0,5119.0,1056.0,2321.0,2495.0,1976.0,,,,0.0091235563155423,-2.01936922254276,0.0835786340207539,,-1.9793854866412037,,
,5710.0,1206.0,5119.0,1059.0,2322.0,2489.0,1971.0,,,,0.0091050301226795,-2.01908730755629,0.0836846764211513,,-1.5885946176128556,,
,5712.0,1206.0,5118.0,1058.0,2317.0,2478.0,1967.0,,,,0.0091962314040019,-2.01908037701042,0.0836405529023338,,-1.1475292031222362,,
,5711.0,1206.0,5122.0,1056.0,2320.0,2480.0,1975.0,,,,0.0092351064381275,-2.01880365900799,0.0836625622011978,,-0.6648842446609854,,
,5715.0,1208.0,5122.0,1058.0,2331.0,2479.0,1978.0,,,,0.0093368530685892,-2.01850976559272,0.0836616700610333,,-0.15132688216239823,,
,5714.0,1207.0,5127.0,1059.0,2321.0,2488.0,1974.0,,,,0.0093292397233994,-2.01852997691155,0.0836054015683836,,0.3809590443850595,,
,5716.0,1207.0,5128.0,1059.0,2324.0,2494.0,1977.0,,,,0.009214130927556,-2.01895166165385,0.083718163838256,,0.9188035517127786,,
,5713.0,1207.0,5128.0,1058.0,2350.0,2497.0,1976.0,,,,0.0092882696160627,-2.01938751711175,0.0837007773840394,,1.4486203765256573,,
,5716.0,1208.0,5129.0,1061.0,2356.0,2499.0,1979.0,,,,0.0091216796730031,-2.0198217450771,0.0836147136717766,,1.9569829213736902,,
,5715.0,1208.0,5131.0,1058.0,2355.0,2494.0,1978.0,,,,0.0091258329588171,-2.02035934518096,0.0835212560152508,,2.4311768251380514,,
,5716.0,1210.0,5133.0,1060.0,2351.0,2499.0,1978.0,,,,0.0091722036246033,-2.02044910430604,0.0835280023619206,,2.85970353054606,,
,5713.0,1206.0,5128.0,1057.0,2337.0,2495.0,1980.0,,,,0.0090024981534758,-2.02077026717959,0.0834979777233588,,3.2327130105249577,,
,5712.0,1208.0,5126.0,1059.0,2322.0,2502.0,1978.0,,,,0.0089860677478661,-2.02069031546254,0.083460416941353,,3.5423478260847894,,
,5713.0,1207.0,5128.0,1061.0,2294.0,2482.0,1984.0,,,,0.008840601106825,-2.02131230362438,0.0835258967389746,,3.782984878736262,,
,5711.0,1206.0,5121.0,1057.0,2278.0,2473.0,1982.0,,,,0.0088619642318119,-2.02159637610713,0.0833671233156516,,3.9513654146182384,,
,5708.0,1205.0,5120.0,1056.0,2252.0,2472.0,1982.0,,,,0.0088030706768747,-2.02128185579923,0.0834254400993812,,4.04660829119378,,
,5705.0,1206.0,5116.0,1059.0,2258.0,2480.0,1985.0,,,,0.0089058755365368,-2.0211906154376,0.0833987773208301,,4.070106980563082,,
,5706.0,1203.0,5116.0,1056.0,2253.0,2481.0,1989.0,,,,0.0087968107987061,-2.0219923898709,0.0833559879257702,,4.02531791486241,,
,5703.0,1204.0,5112.0,1056.0,2261.0,2475.0,1991.0,,,,0.0087123436664186,-2.02174030025184,0.0832963333472459,,3.917456323494518,,
,5702.0,1203.0,5113.0,1055.0,2289.0,2498.0,1982.0,,,,0.0087487067582324,-2.02214766048989,0.0833959368087054,,3.7531240645097608,,
,5698.0,1203.0,5109.0,1052.0,2292.0,2493.0,1967.0,,,,0.008625836558504,-2.02273802165903,0.0832989813177572,,3.539899747975784,,
,5703.0,1203.0,5107.0,1054.0,2322.0,2487.0,1958.0,,,,0.0086695591156352,-2.02291878647389,0.0833121273450176,,3.2859229805931363,,
,5698.0,1201.0,5107.0,1052.0,2315.0,2504.0,1970.0,,,,0.0085806882462841,-2.02346929292538,0.0832756199203109,,2.9995017595180604,,
,5699.0,1202.0,5106.0,1055.0,2335.0,2503.0,1967.0,,,,0.0084518340817149,-2.02334205520253,0.0831430682481506,,2.6887661333178334,,
,5697.0,1199.0,5103.0,1051.0,2360.0,2503.0,1963.0,,,,0.0083744589495595,-2.02385680159942,0.0833117083795821,,2.3613837275974348,,
,5697.0,1203.0,5104.0,1056.0,2347.0,2497.0,1953.0,,,,0.0083426750279635,-2.02342471471101,0.0832926806716814,,2.024344843548677,,
,5699.0,1203.0,5103.0,1053.0,2354.0,2495.0,1957.0,,,,0.0083462118727112,-2.02298545899184,0.0832382335251294,,1.6838176516763073,,
,5697.0,1202.0,5103.0,1052.0,2358.0,2490.0,1956.0,,,,0.0085035716879692,-2.02286082547226,0.0833605479083197,,1.3450684666827628,,
,5697.0,1201.0,5103.0,1051.0,2381.0,2492.0,1952.0,,,,0.0085131954758834,-2.02208908234486,0.0833756785815698,,1.012438720000886,,
,5700.0,1203.0,5102.0,1050.0,2360.0,2493.0,1973.0,,,,0.0086012376023183,-2.02232211287285,0.0833711979440945,,0.6893687909662715,,
,5700.0,1202.0,5105.0,1054.0,2325.0,2492.0,1976.0,,,,0.0085610792573606,-2.02156381985677,0.0833949905449146,,0.3784583800441479,,
,5698.0,1202.0,5104.0,1053.0,2326.0,2492.0,1984.0,,,,0.0085100674596631,-2.02192700477635,0.0834388402584992,,0.0815526856742656,,
,5698.0,1201.0,5106.0,1055.0,2301.0,2509.0,1986.0,,,,0.0085147492769759,-2.0216702946047,0.0835016657781646,,-0.20015684077703227,,
,5700.0,1202.0,5104.0,1052.0,2277.0,2487.0,1978.0,,,,0.0085912692403936,-2.02164505789654,0.0834809565091722,,-0.46602827908974126,,
,5701.0,1203.0,5107.0,1056.0,2313.0,2480.0,1975.0,,,,0.0084361780628159,-2.02165348430517,0.0834448725744327,,-0.7158713455331326,,
,5701.0,1203.0,5109.0,1053.0,2317.0,2484.0,1975.0,,,,0.0083940690520564,-2.02172959956737,0.0833833751048251,,-0.9498629966721972,,
,5703.0,1204.0,5108.0,1056.0,2333.0,2485.0,1989.0,,,,0.0082838084017338,-2.02229642299015,0.0834764805973664,,-1.168480180891795,,
,5699.0,1200.0,5108.0,1052.0,2320.0,2497.0,1986.0,,,,0.0081590789382809,-2.02282670978973,0.0834159635629698,,-1.372449296483173,,
,5702.0,1204.0,5112.0,1054.0,2320.0,2500.0,1985.0,,,,0.008162079870476,-2.02336006998217,0.0833360539576906,,-1.5627075791964375,,
,5703.0,1201.0,5111.0,1056.0,2323.0,2487.0,1974.0,,,,0.0080485876949591,-2.02344403373016,0.0833176836366807,,-1.7403675258424882,,
,5702.0,1204.0,5113.0,1055.0,2324.0,2487.0,1976.0,,,,0.0081001572008515,-2.02390533674831,0.083245828059041,,-1.9066724136868338,,
,5703.0,1202.0,5113.0,1055.0,2308.0,2479.0,1989.0,,,,0.0081462974903867,-2.02374097698441,0.0832517012879827,,-2.062930194148748,,
,5703.0,1205.0,5112.0,1054.0,2292.0,2483.0,1990.0,,,,0.0081765675194831,-2.02320613079182,0.0833388739514376,,-2.210415442393162,,
,5703.0,1204.0,5111.0,1055.0,2273.0,2486.0,2001.0,,,,0.0084007169708583,-2.02283714688607,0.0833879019677062,,-2.3502345400602644,,
,5701.0,1205.0,5117.0,1055.0,2294.0,2477.0,1997.0,,,,0.0086924573673006,-2.02190187237719,0.0834663799732932,,-2.483156823791054,,
,5702.0,1205.0,5115.0,1052.0,2307.0,2495.0,1983.0,,,,0.0089495638968685,-2.02100711734079,0.0834665736249899,,-2.609422789934184,,
,5702.0,1206.0,5114.0,1055.0,2318.0,2479.0,1985.0,,,,0.0090055367613094,-2.02039454672891,0.0835499396936772,,-2.7285484589420794,,
,5702.0,1204.0,5115.0,1054.0,2313.0,2479.0,1965.0,,,,0.0093118639477348,-2.01923843862754,0.0836611057959106,,-2.8391513980288927,,
,5700.0,1204.0,5115.0,1053.0,2314.0,2483.0,1976.0,,,,0.0093450035201353,-2.01833749826226,0.08369773355304,,-2.9388272058551967,,
,5703.0,1202.0,5115.0,1054.0,2317.0,2491.0,1979.0,,,,0.0095538434752387,-2.01827933283837,0.0838261802234186,,-3.024104201315294,,
,5701.0,1202.0,5115.0,1053.0,2334.0,2494.0,1975.0,,,,0.0097935576218814,-2.01708723895324,0.0838407337895178,,-3.090498053172358,,
,5701.0,1204.0,5115.0,1055.0,2332.0,2488.0,1972.0,,,,0.0097648776388995,-2.01710415249396,0.0838850450791233,,-3.1326776373755636,,
,5702.0,1205.0,5116.0,1054.0,2318.0,2489.0,1965.0,,,,0.0098885204396819,-2.01663231813718,0.0838550047040494,,-3.1447401911268673,,
,5703.0,1204.0,5117.0,1056.0,2316.0,2481.0,1968.0,,,,0.009926201802664,-2.01599774537265,0.0839088942526541,,-3.120580219731773,,
,5701.0,1201.0,5117.0,1053.0,2324.0,2478.0,1967.0,,,,0.009955780784362,-2.0156611187809,0.0840117195075883,,-3.054324750326944,,
,5703.0,1204.0,5117.0,1056.0,2303.0,2482.0,1978.0,,,,0.0099614317238471,-2.01520532838356,0.0840624881243187,,-2.940798790017719,,
,5700.0,1206.0,5118.0,1055.0,2328.0,2490.0,1978.0,,,,0.0100639090940778,-2.01488106638599,0.0840267798386382,,-2.775980034701472,,
,5706.0,1206.0,5118.0,1056.0,2333.0,2489.0,1981.0,,,,0.0100110931575849,-2.01490513371584,0.0840608718998475,,-2.5574015625622115,,
,5700.0,1201.0,5120.0,1053.0,2313.0,2498.0,1976.0,,,,0.010042692139128,-2.01505159996508,0.0840242611002501,,-2.284465715339888,,
,5705.0,1207.0,5120.0,1055.0,2318.0,2488.0,1967.0,,,,0.0099923529772967,-2.01474344966895,0.0840286468538732,,-1.9586412207189672,,
,5703.0,1205.0,5122.0,1057.0,2327.0,2480.0,1987.0,,,,0.0097618659356082,-2.01513458169976,0.0840060455111401,,-1.583527459057283,,
,5706.0,1207.0,5121.0,1058.0,2328.0,2488.0,1991.0,,,,0.0099658937187015,-2.01513476711609,0.0840359186840874,,-1.164782525281926,,
,5707.0,1204.0,5121.0,1057.0,2321.0,2498.0,1984.0,,,,0.0098671546542385,-2.0151373332793,0.0840629540600615,,-0.7099234395454579,,
,5706.0,1205.0,5124.0,1055.0,2325.0,2498.0,1973.0,,,,0.0099844697133807,-2.01476516771842,0.0839462547944879,,-0.2280164591744139,,
,5710.0,1206.0,5125.0,1058.0,2314.0,2488.0,1977.0,,,,0.009913756485435,-2.01497304283685,0.0839926810827475,,0.2707173972715358,,
,5707.0,1208.0,5125.0,1058.0,2309.0,2479.0,1979.0,,,,0.0099426836871385,-2.01441049535371,0.0840584105572399,,0.775351965905482,,
,5708.0,1204.0,5126.0,1056.0,2311.0,2481.0,1970.0,,,,0.0100606826883421,-2.01404387078363,0.0841269365787341,,1.2747292370156589,,
,5707.0,1204.0,5128.0,1053.0,2303.0,2478.0,1965.0,,,,0.0101021786080843,-2.01339764132022,0.0841629237134654,,1.7579256009152975,,
,5710.0,1207.0,5130.0,1057.0,2315.0,2484.0,1961.0,,,,0.0101739618246153,-2.01357430594395,0.0842115015884317,,2.214683148912102,,
,5710.0,1208.0,5134.0,1057.0,2306.0,2485.0,1970.0,,,,0.0104486706956509,-2.01300700293326,0.0841872347387854,,2.635782840991375,,
,5713.0,1206.0,5132.0,1057.0,2309.0,2490.0,1974.0,,,,0.0106044504430336,-2.01223062979954,0.0842437971523854,,3.0133427635736436,,
,5710.0,1206.0,5134.0,1059.0,2310.0,2482.0,1976.0,,,,0.0105596505502431,-2.01163203950999,0.0842530402191843,,3.34103240145104,,
,5714.0,1208.0,5132.0,1059.0,2329.0,2476.0,1951.0,,,,0.0106791690429052,-2.01034191960047,0.084353550368376,,3.61420176536658,,
,5712.0,1209.0,5135.0,1059.0,2316.0,2482.0,1950.0,,,,0.0108214222139789,-2.00995864652679,0.0844248469803695,,3.829930704599202,,
,5715.0,1210.0,5137.0,1059.0,2315.0,2486.0,1958.0,,,,0.0108126982603079,-2.00945909799149,0.0844322515453247,,3.9870073506882475,,
,5713.0,1208.0,5136.0,1059.0,2330.0,2482.0,1966.0,,,,0.0110227327614456,-2.00918525872428,0.0844374615406365,,4.085845163202724,,
,5715.0,1208.0,5141.0,1059.0,2308.0,2485.0,1967.0,,,,0.0110042462781053,-2.00827828426427,0.0845257689122221,,4.128346678145101,,
,5717.0,1210.0,5141.0,1060.0,2328.0,2496.0,1963.0,,,,0.0110972369624512,-2.00831917358457,0.0845537269501527,,4.117720455032947,,
,5716.0,1210.0,5145.0,1059.0,2346.0,2495.0,1974.0,,,,0.011159001481708,-2.00764848969436,0.0845714670286127,,4.058256946670763,,
,5716.0,1208.0,5145.0,1059.0,2340.0,2494.0,1977.0,,,,0.0113600824160096,-2.00755187625291,0.0845258963653429,,3.9550694303257887,,
,5718.0,1206.0,5141.0,1057.0,2338.0,2500.0,1972.0,,,,0.0112914545919777,-2.00726274052661,0.084558692049956,,3.813807875936034,,
,5717.0,1209.0,5143.0,1059.0,2335.0,2498.0,1980.0,,,,0.0113236282469048,-2.0070486571093,0.0846119548769682,,3.6403567530347445,,
,5714.0,1210.0,5142.0,1059.0,2333.0,2500.0,1976.0,,,,0.0112454325021097,-2.00714796481008,0.0845546675542816,,3.4405319264271377,,
,5713.0,1207.0,5140.0,1058.0,2322.0,2485.0,1983.0,,,,0.0112316425119256,-2.00733370319727,0.0845936551471579,,3.219795833157871,,
,5712.0,1207.0,5138.0,1058.0,2300.0,2482.0,1993.0,,,,0.0112767487344893,-2.00721478775519,0.0845323793304197,,2.983012377026598,,
,5709.0,1209.0,5136.0,1057.0,2289.0,2481.0,1995.0,,,,0.0113104253315954,-2.00742961929823,0.0844989907965012,,2.73426198261495,,
,5707.0,1206.0,5135.0,1057.0,2273.0,2491.0,1992.0,,,,0.0112377362900996,-2.00692885382664,0.084543296423804,,2.4767327272434585,,
,5704.0,1206.0,5129.0,1057.0,2273.0,2491.0,1997.0,,,,0.0113901099642968,-2.00700517786266,0.084544418795271,,2.2126963267093345,,
,5702.0,1204.0,5128.0,1054.0,2262.0,2486.0,1995.0,,,,0.0113285742278427,-2.00726873159443,0.0845542395416209,,1.94356930704547,,
,5705.0,1204.0,5125.0,1055.0,2256.0,2482.0,1989.0,,,,0.0112258691499183,-2.00693050361599,0.0845742960291602,,1.6700511041411892,,
,5702.0,1203.0,5125.0,1056.0,2269.0,2483.0,1983.0,,,,0.0113727643012321,-2.00695185913648,0.0845262894989117,,1.3923232007322663,,
,5699.0,1205.0,5122.0,1052.0,2300.0,2488.0,1973.0,,,,0.0113138064360048,-2.00612786859291,0.0845465604447728,,1.1102878758443873,,
2025-07-16 20:17:53,5698.0,1203.0,5118.0,1052.0,2314.0,2499.0,1972.0,,,2025/07/16 08:17:53 PM,0.0115113026187313,-2.00639111425828,0.0845919998121203,,0.8238224570011871,,
,5696.0,1205.0,5120.0,1052.0,2335.0,2511.0,1957.0,,,,0.0116596750832424,-2.00552358070576,0.0846486758785272,,0.53302500330093,,
,5697.0,1204.0,5120.0,1056.0,2341.0,2502.0,1967.0,,,,0.0117647343023337,-2.00511508867872,0.0847190607627925,,0.2384291107322457,,
,5695.0,1204.0,5116.0,1055.0,2348.0,2504.0,1966.0,,,,0.0117905906021139,-2.00439777363049,0.0848110370870995,,-0.05883215708487873,,
,5694.0,1202.0,5115.0,1050.0,2345.0,2491.0,1948.0,,,,0.0119213303549641,-2.0039518687426,0.0848150610105936,,-0.356930674423334,,
,5695.0,1202.0,5117.0,1054.0,2323.0,2480.0,1963.0,,,,0.0121962282233684,-2.00256570965977,0.0850161943010075,,-0.653329764910301,,
,5697.0,1206.0,5120.0,1054.0,2338.0,2477.0,1959.0,,,,0.0122164188604738,-2.00144759759943,0.0850512183339267,,-0.9448603994631267,,
,5698.0,1203.0,5117.0,1053.0,2335.0,2482.0,1967.0,,,,0.0125494553442197,-2.00036722245586,0.0853016297599153,,-1.227885577167948,,
,5697.0,1204.0,5118.0,1053.0,2326.0,2491.0,1960.0,,,,0.012625715675036,-1.99957905936013,0.0853766742342811,,-1.4985405220482142,,
,5696.0,1202.0,5115.0,1052.0,2324.0,2515.0,1969.0,,,,0.0128251516408456,-1.99850376438469,0.0853743211276246,,-1.753025803260282,,
,5695.0,1204.0,5121.0,1051.0,2318.0,2505.0,1968.0,,,,0.0128775524397053,-1.99781469598274,0.0854616333683186,,-1.9879224394702377,,
,5698.0,1207.0,5120.0,1051.0,2307.0,2498.0,1977.0,,,,0.0130072317470637,-1.99736037854143,0.0855370725666558,,-2.200493900330966,,
,5697.0,1205.0,5120.0,1055.0,2303.0,2489.0,1984.0,,,,0.0130110166210999,-1.99713510219376,0.0855438485349077,,-2.3889402052931494,,
,5698.0,1205.0,5120.0,1053.0,2298.0,2489.0,1979.0,,,,0.0130058662327611,-1.99705120669205,0.0855120451420973,,-2.5525739294249314,,
,5699.0,1206.0,5122.0,1052.0,2296.0,2482.0,1975.0,,,,0.0128358769223812,-1.99714545917679,0.0856005558714559,,-2.6918962343104504,,
,5700.0,1205.0,5123.0,1053.0,2293.0,2487.0,1978.0,,,,0.0125979534642082,-1.9972833551313,0.0855269945672404,,-2.808561836111826,,
,5700.0,1205.0,5122.0,1052.0,2291.0,2481.0,1977.0,,,,0.0125796992058384,-1.99789218341834,0.0855399672484791,,-2.9052334483100664,,
,5699.0,1206.0,5122.0,1053.0,2296.0,2489.0,1978.0,,,,0.0126289909095796,-1.99721317567123,0.0854969475896885,,-2.9853371500270454,,
,5698.0,1204.0,5122.0,1054.0,2310.0,2478.0,1970.0,,,,0.0127596980425462,-1.996958280466,0.085449407159331,,-3.0527393155568947,,
,5702.0,1207.0,5124.0,1053.0,2303.0,2476.0,1975.0,,,,0.0128311765355916,-1.99698224398963,0.085474532823496,,-3.1113726163771642,,
,5699.0,1207.0,5124.0,1053.0,2304.0,2485.0,1971.0,,,,0.0128949891461093,-1.99697123625269,0.085440333118066,,-3.164842784530744,,
,5697.0,1204.0,5124.0,1051.0,2297.0,2497.0,1972.0,,,,0.0129924243809245,-1.99676858377838,0.0855006408581883,,-3.2160490807879936,,
,5698.0,1203.0,5124.0,1052.0,2313.0,2493.0,1981.0,,,,0.0131687259995906,-1.99607061731229,0.0855941881043792,,-3.266849763988218,,
,5701.0,1206.0,5126.0,1052.0,2285.0,2491.0,1982.0,,,,0.0132159888764811,-1.9953655018965,0.0856264502297654,,-3.3177996389867768,,
,5699.0,1205.0,5124.0,1055.0,2292.0,2484.0,1985.0,,,,0.0133620255965543,-1.99474048456552,0.0857030692654161,,-3.367980691506323,,
,5699.0,1207.0,5123.0,1050.0,2311.0,2487.0,1972.0,,,,0.0135752501686297,-1.99390472501399,0.0858096751043922,,-3.41493994263478,,
,5699.0,1205.0,5125.0,1053.0,2312.0,2500.0,1982.0,,,,0.0137353566430972,-1.99322872173177,0.0858487799894811,,-3.4547418731093416,,
,5699.0,1206.0,5125.0,1054.0,2294.0,2493.0,1985.0,,,,0.0140412658244424,-1.9923274521053,0.0858691109685857,,-3.4821363115107253,,
,5699.0,1205.0,5128.0,1055.0,2284.0,2488.0,1977.0,,,,0.014205344789442,-1.99099543262234,0.0859151065354748,,-3.490836167990982,,
,5698.0,1206.0,5128.0,1053.0,2287.0,2494.0,1974.0,,,,0.0142681664489963,-1.9906848829261,0.0860047029523776,,-3.4738923891090434,,
,5698.0,1205.0,5124.0,1051.0,2313.0,2498.0,1973.0,,,,0.014319058972675,-1.98974780988706,0.0860186583314591,,-3.424145966506235,,
,5698.0,1205.0,5128.0,1055.0,2313.0,2510.0,1968.0,,,,0.0145577387934488,-1.98940505917936,0.0860464451031586,,-3.334729187355462,,
,5700.0,1207.0,5128.0,1053.0,2295.0,2501.0,1962.0,,,,0.0147059848148991,-1.9890070412447,0.0860813385229135,,-3.1995814246887866,,
,5699.0,1205.0,5130.0,1054.0,2297.0,2501.0,1975.0,,,,0.0149726969518003,-1.98882754864105,0.0861599154164008,,-3.013939838507333,,
,5698.0,1205.0,5129.0,1051.0,2297.0,2500.0,1960.0,,,,0.0151434088714775,-1.98795059318696,0.086153201571638,,-2.774763840496359,,
,5700.0,1207.0,5128.0,1055.0,2306.0,2499.0,1978.0,,,,0.0150852037109948,-1.98767534343119,0.0860943817196085,,-2.4810555054883925,,
,5702.0,1208.0,5131.0,1053.0,2304.0,2492.0,1960.0,,,,0.0149699417179371,-1.98784026280149,0.0861241971972972,,-2.134047065959619,,
,5699.0,1209.0,5129.0,1054.0,2310.0,2500.0,1963.0,,,,0.0151474993906146,-1.98782883052835,0.0861127842368991,,-1.7372403600121697,,
,5702.0,1208.0,5131.0,1056.0,2317.0,2493.0,1968.0,,,,0.0150201151021905,-1.98799973040761,0.0861289480415335,,-1.2962989413897437,,
,5702.0,1206.0,5131.0,1054.0,2328.0,2487.0,1977.0,,,,0.0147683870502201,-1.98793896309212,0.0861509197441009,,-0.8188081537561315,,
,5703.0,1209.0,5132.0,1053.0,2300.0,2485.0,1982.0,,,,0.0147360725384725,-1.98802250193785,0.0861125292960314,,-0.3139293560519235,,
,5704.0,1208.0,5132.0,1054.0,2291.0,2487.0,1991.0,,,,0.014767320766764,-1.98863230109066,0.0861048327371001,,0.2080193266922497,,
,5704.0,1210.0,5134.0,1055.0,2277.0,2495.0,1986.0,,,,0.0146910231573997,-1.98819784595681,0.0861121954557589,,0.7360217592310597,,
,5705.0,1209.0,5137.0,1055.0,2281.0,2485.0,1965.0,,,,0.0146554489274571,-1.98873438407772,0.086117490090885,,1.258830433920917,,
,5705.0,1211.0,5140.0,1057.0,2315.0,2499.0,1962.0,,,,0.014787901331092,-1.98845863110332,0.0860919420925182,,1.765414636757514,,
,5706.0,1210.0,5141.0,1058.0,2301.0,2490.0,1975.0,,,,0.0147085208084963,-1.98864552945823,0.0860285260595137,,2.2453705670711908,,
,5705.0,1211.0,5141.0,1057.0,2297.0,2492.0,1966.0,,,,0.0147600616329617,-1.98858112154441,0.0860991772195895,,2.689280362896733,,
,5705.0,1210.0,5139.0,1055.0,2295.0,2482.0,1965.0,,,,0.0149928609398695,-1.98834713432325,0.0861133440807182,,3.0890117142718085,,
,5707.0,1209.0,5140.0,1057.0,2298.0,2480.0,1958.0,,,,0.0149578875523167,-1.98787716448263,0.0860902492419234,,3.437952120011558,,
,5709.0,1211.0,5143.0,1058.0,2300.0,2486.0,1958.0,,,,0.0150648695231669,-1.98756357109677,0.0861220110635016,,3.731172459575525,,
,5707.0,1212.0,5146.0,1058.0,2309.0,2495.0,1969.0,,,,0.0151576167751286,-1.98766390923854,0.086137095748787,,3.9655145552276143,,
,5710.0,1209.0,5144.0,1056.0,2331.0,2498.0,1973.0,,,,0.0151275615490115,-1.98678708070584,0.0861660899255876,,4.139597833723387,,
,5711.0,1211.0,5147.0,1057.0,2331.0,2479.0,1971.0,,,,0.0151702189771331,-1.98668408792535,0.0861493921566977,,4.253741925909849,,
,5711.0,1213.0,5147.0,1058.0,2322.0,2482.0,1984.0,,,,0.0152740056556203,-1.98631464997763,0.0861440357801368,,4.309805874128019,,
,5715.0,1212.0,5150.0,1058.0,2325.0,2478.0,1984.0,,,,0.015340745695627,-1.98577977641785,0.0861853685827474,,4.310951000123856,,
,5713.0,1212.0,5150.0,1056.0,2292.0,2481.0,1966.0,,,,0.0153674439818521,-1.98618548461282,0.086160095710856,,4.261342905069605,,
,5717.0,1214.0,5149.0,1057.0,2311.0,2480.0,1968.0,,,,0.015282104401761,-1.98579643740955,0.0861559024193363,,4.165816760913937,,
,5717.0,1214.0,5153.0,1060.0,2333.0,2487.0,1971.0,,,,0.0152686339693639,-1.98559108038328,0.0861786864321767,,4.029536404688257,,
,5717.0,1215.0,5158.0,1059.0,2344.0,2496.0,1963.0,,,,0.0153203383966097,-1.98614042468198,0.0861476359029315,,3.8576794300795054,,
,5716.0,1216.0,5155.0,1058.0,2358.0,2497.0,1958.0,,,,0.0153380465876892,-1.98625929754653,0.0861723099650859,,3.6551766749831653,,
,5714.0,1214.0,5152.0,1059.0,2334.0,2516.0,1970.0,,,,0.0153207500740481,-1.98638699141183,0.0861416923533831,,3.4265262965901035,,
,5712.0,1212.0,5155.0,1059.0,2328.0,2517.0,1965.0,,,,0.0151587586877566,-1.9864548776462,0.0861244259359294,,3.1756920377464737,,
,5712.0,1212.0,5153.0,1059.0,2297.0,2512.0,1977.0,,,,0.0152099935943184,-1.98657226594906,0.0860947092308533,,2.906084245997341,,
,5712.0,1212.0,5149.0,1058.0,2286.0,2508.0,1976.0,,,,0.0151955394213477,-1.98727927679736,0.0860652981126807,,2.6206122955614872,,
,5708.0,1211.0,5147.0,1057.0,2301.0,2499.0,1984.0,,,,0.0150113398541554,-1.98765132860883,0.086066887171359,,2.32178970294307,,
,5706.0,1212.0,5145.0,1054.0,2277.0,2491.0,1977.0,,,,0.0150606143762817,-1.98846835867153,0.0860603871772611,,2.011869501015382,,
,5706.0,1211.0,5140.0,1056.0,2247.0,2479.0,1977.0,,,,0.0149512411140216,-1.98878615998794,0.0860028632935341,,1.6929876151480225,,
,5703.0,1211.0,5139.0,1054.0,2243.0,2474.0,1984.0,,,,0.0147901958924589,-1.98880506471239,0.0859585575027824,,1.3672952305684272,,
,5700.0,1209.0,5134.0,1053.0,2252.0,2499.0,1974.0,,,,0.0148411535274291,-1.98937995566035,0.0859708528207227,,1.037065765639585,,
,5700.0,1207.0,5133.0,1053.0,2272.0,2483.0,1982.0,,,,0.0148270202629763,-1.98975074193392,0.0859255801426697,,0.7047664372269701,,
,5698.0,1208.0,5131.0,1053.0,2292.0,2478.0,1968.0,,,,0.0147921985302414,-1.98978957274711,0.0859865543743435,,0.3730878766131634,,
,5699.0,1208.0,5131.0,1054.0,2287.0,2477.0,1970.0,,,,0.0147186427486416,-1.98951472100643,0.0859260676208928,,0.0449282265047211,,
,5697.0,1205.0,5126.0,1049.0,2304.0,2488.0,1973.0,,,,0.0145958060870463,-1.98946663417116,0.0859375775538063,,-0.27666872845261653,,
,5696.0,1206.0,5125.0,1051.0,2314.0,2494.0,1952.0,,,,0.0147122618297384,-1.98968345364089,0.0859499977396863,,-0.5886183191595197,,
,5695.0,1207.0,5126.0,1049.0,2338.0,2497.0,1960.0,,,,0.0148369490290482,-1.98968437243948,0.0859207058011928,,-0.8879356936078627,,
,5696.0,1206.0,5126.0,1051.0,2339.0,2502.0,1958.0,,,,0.0148937642908917,-1.98930747372061,0.0860067740857154,,-1.1719013470800248,,
,5696.0,1208.0,5126.0,1049.0,2341.0,2503.0,1951.0,,,,0.0148141499620648,-1.98936806887501,0.085993277783179,,-1.4382359261242277,,
,5693.0,1205.0,5122.0,1050.0,2360.0,2515.0,1962.0,,,,0.0150587872896065,-1.98867995949082,0.0860812105938902,,-1.6852645278228173,,
,5697.0,1207.0,5125.0,1051.0,2329.0,2506.0,1960.0,,,,0.01486838832861,-1.98824049550906,0.0860136685350024,,-1.9120479034981048,,
,5695.0,1207.0,5126.0,1052.0,2333.0,2510.0,1958.0,,,,0.0149084040127548,-1.98818259595596,0.0861141703102326,,-2.1184580647550972,,
,5694.0,1208.0,5126.0,1052.0,2320.0,2519.0,1961.0,,,,0.0148089532135608,-1.98795617897011,0.0861099679179773,,-2.3051796547799346,,
,5692.0,1207.0,5127.0,1052.0,2331.0,2519.0,1969.0,,,,0.014847248097259,-1.9878158836222,0.0861036741765787,,-2.4736257860845603,,
,5696.0,1208.0,5126.0,1050.0,2329.0,2495.0,1975.0,,,,0.0145970505326149,-1.98833392974181,0.0861108441347162,,-2.625766704396981,,
,5698.0,1208.0,5131.0,1051.0,2295.0,2502.0,1979.0,,,,0.0144683963256309,-1.98853069946171,0.0860531184592374,,-2.763880315609075,,
,5700.0,1208.0,5129.0,1052.0,2299.0,2501.0,1971.0,,,,0.01431331450169,-1.98919301731125,0.0860697437546751,,-2.8902440877585747,,
,5699.0,1209.0,5129.0,1052.0,2294.0,2491.0,1969.0,,,,0.0142665629249783,-1.99009678295251,0.0859160679402985,,-3.006796773379258,,
,5698.0,1209.0,5128.0,1051.0,2308.0,2496.0,1969.0,,,,0.0141927311320283,-1.99075006547159,0.0859454906359371,,-3.1148043421139793,,
,5701.0,1210.0,5131.0,1054.0,2316.0,2494.0,1971.0,,,,0.0140849863959362,-1.99135327668287,0.085839858765459,,-3.214566301587044,,
,5702.0,1209.0,5132.0,1053.0,2314.0,2498.0,1977.0,,,,0.0139635377006556,-1.9921399997914,0.0857271589693806,,-3.305195784366329,,
,5700.0,1210.0,5134.0,1053.0,2289.0,2513.0,1964.0,,,,0.0139723035535867,-1.9927370297211,0.0858006182102329,,-3.3844999790438015,,
,5700.0,1207.0,5132.0,1053.0,2276.0,2495.0,1957.0,,,,0.0139673380218231,-1.99234540926748,0.085751289783467,,-3.4489781475727086,,
,5701.0,1210.0,5133.0,1053.0,2287.0,2481.0,1980.0,,,,0.0139943290341291,-1.99225013692528,0.0856987362489172,,-3.4939441969804714,,
,5700.0,1210.0,5136.0,1052.0,2305.0,2484.0,1982.0,,,,0.014272500972151,-1.9920856489208,0.0858106855567211,,-3.513770513258126,,
,5700.0,1210.0,5135.0,1052.0,2292.0,2480.0,1973.0,,,,0.0141181972417365,-1.99192366782433,0.0857541383079225,,-3.502239817284934,,
,5701.0,1212.0,5134.0,1050.0,2285.0,2487.0,1976.0,,,,0.0142063408571886,-1.99113461282603,0.0858434025375917,,-3.4529824017003734,,
,5701.0,1209.0,5134.0,1052.0,2302.0,2507.0,1984.0,,,,0.0142968080997552,-1.991238670809,0.085875250633009,,-3.359967755370765,,
,5702.0,1212.0,5134.0,1054.0,2304.0,2508.0,1987.0,,,,0.0144104403641366,-1.99043128516385,0.0859893712197286,,-3.218012939047836,,
,5700.0,1211.0,5135.0,1054.0,2296.0,2505.0,1986.0,,,,0.0145895776739056,-1.98978246239774,0.0859068267892428,,-3.0232658640292533,,
,5698.0,1211.0,5133.0,1051.0,2289.0,2489.0,1964.0,,,,0.0146491141477393,-1.99004524277509,0.085957752626785,,-2.7736206673372457,,
,5698.0,1209.0,5134.0,1053.0,2306.0,2492.0,1966.0,,,,0.0147711456008103,-1.98962633000036,0.0859937791568822,,-2.469025547818896,,
,5703.0,1211.0,5136.0,1054.0,2311.0,2502.0,1980.0,,,,0.014742207717029,-1.98961861869492,0.0859313847068193,,-2.111651434579689,,
,5701.0,1211.0,5135.0,1053.0,2313.0,2498.0,1982.0,,,,0.014844580527883,-1.99008195559103,0.0859411277506679,,-1.7059027959563988,,
,5700.0,1209.0,5132.0,1048.0,2314.0,2497.0,1980.0,,,,0.0146821456254514,-1.9903181204114,0.0858838603243471,,-1.2582685905932949,,
,5699.0,1211.0,5136.0,1053.0,2305.0,2499.0,1983.0,,,,0.0145434447453068,-1.99005396466541,0.0859122510741629,,-0.7770290715240736,,
