TimeLabel,MEAS1_PPG1,MEAS1_PPG2,MEAS1_PPG3,MEAS1_PPG4,ACCX,ACCY,ACCZ,HR_timestamp,HR_value,radar_timestamp,phase_rx0,phase_rx1,phase_rx2,timestep,n_process,original_rate,calculated_rate
2025-08-06 22:57:58,3403.0,769.0,2636.0,1061.0,1841.0,3221.0,1420.0,2025-08-06 22:58:32,76.0,2025/08/06 10:57:58 PM,-1.60152052356362,-2.98652369411108,-1.12113731055661,2025/08/06 10:57:58 PM,-2.4819422791075794,20.60439682006836,21.431989063568015
,3407.0,769.0,2640.0,1061.0,1830.0,3221.0,1426.0,2025-08-06 22:58:33,77.0,,-1.60119343924276,-2.98661669616163,-1.12195807088685,2025/08/06 10:58:08 PM,-2.5164915149649802,21.802326202392575,21.599558100997186
,3408.0,768.0,2640.0,1061.0,1832.0,3215.0,1412.0,2025-08-06 22:58:34,77.0,,-1.60132935563586,-2.98668338069786,-1.1215396312129,2025/08/06 10:58:18 PM,-2.547506759694172,21.7391300201416,23.670814479637993
,3405.0,767.0,2639.0,1063.0,1812.0,3225.0,1436.0,2025-08-06 22:58:35,77.0,,-1.6021462142865,-2.98670895605145,-1.1220406077685,2025/08/06 10:58:28 PM,-2.57474663587156,22.357723236083984,25.729746444032173
,3406.0,767.0,2639.0,1062.0,1822.0,3202.0,1452.0,2025-08-06 22:58:36,77.0,,-1.60210381014762,-2.98677391603345,-1.12180074886624,2025/08/06 10:58:38 PM,-2.5968972554970433,23.74100685119629,22.657653112703038
,3403.0,768.0,2641.0,1061.0,1821.0,3215.0,1445.0,2025-08-06 22:58:37,76.0,,-1.6024878773679,-2.98679159540215,-1.12207303175071,2025/08/06 10:58:48 PM,-2.611735695271899,24.017467498779297,22.823515371060715
,3408.0,769.0,2641.0,1063.0,1811.0,3213.0,1440.0,2025-08-06 22:58:38,76.0,,-1.60277533288989,-2.98675167312962,-1.1226615047776,2025/08/06 10:58:58 PM,-2.616312703458733,23.53780174255371,23.552057107313164
,3407.0,771.0,2639.0,1062.0,1797.0,3220.0,1455.0,2025-08-06 22:58:39,75.0,,-1.60304430887116,-2.98685408410665,-1.12239055067482,2025/08/06 10:59:08 PM,-2.6071462493612985,23.109243392944336,23.12631027253671
,3405.0,767.0,2641.0,1061.0,1821.0,3201.0,1443.0,2025-08-06 22:58:40,75.0,,-1.60286204895883,-2.98700697224637,-1.12265328996552,2025/08/06 10:59:18 PM,-2.5804205846338975,23.723939895629883,21.606403276094728
,3406.0,770.0,2641.0,1065.0,1800.0,3204.0,1479.0,2025-08-06 22:58:41,74.0,,-1.60296039266183,-2.98686458940359,-1.12210331597991,2025/08/06 10:59:28 PM,-2.5321872993146406,22.805805206298828,22.447128343354784
,3411.0,767.0,2639.0,1063.0,1803.0,3199.0,1488.0,2025-08-06 22:58:42,73.0,,-1.60254837826518,-2.98687390442207,-1.12184305592468,2025/08/06 10:59:38 PM,-2.458565534825918,22.41847801208496,22.55598175409495
,3410.0,768.0,2644.0,1062.0,1818.0,3186.0,1458.0,2025-08-06 22:58:43,72.0,,-1.60252409462751,-2.98678875743089,-1.12262369549943,2025/08/06 10:59:48 PM,-2.355938479315072,22.494888305664062,22.14731147700364
,3407.0,769.0,2642.0,1062.0,1810.0,3211.0,1448.0,2025-08-06 22:58:44,71.0,,-1.60302869653216,-2.98684533708528,-1.12258996480923,2025/08/06 10:59:58 PM,-2.221142960676487,22.438295364379883,21.757232838688978
,3408.0,769.0,2643.0,1063.0,1815.0,3224.0,1445.0,2025-08-06 22:58:45,71.0,,-1.60388641282971,-2.98698215258916,-1.12237419862784,2025/08/06 11:00:08 PM,-2.051648676640472,22.342586517333984,21.66174019684913
,3409.0,770.0,2643.0,1064.0,1811.0,3220.0,1448.0,2025-08-06 22:58:46,70.0,,-1.60436726863097,-2.98708718645776,-1.12289058492183,2025/08/06 11:00:18 PM,-1.8457234807156528,21.7864933013916,21.58225753061902
,3407.0,768.0,2644.0,1062.0,1818.0,3209.0,1439.0,2025-08-06 22:58:47,70.0,,-1.60499763600179,-2.9869888785313,-1.12360084255503,2025/08/06 11:00:28 PM,-1.6025810704144874,21.582733154296875,21.82387336069628
,3407.0,769.0,2643.0,1063.0,1804.0,3211.0,1428.0,2025-08-06 22:58:48,70.0,,-1.60558630277873,-2.98705080215904,-1.12401573476251,2025/08/06 11:00:38 PM,-1.322507161314048,21.7548942565918,22.478991596638622
,3408.0,770.0,2642.0,1064.0,1814.0,3227.0,1441.0,2025-08-06 22:58:49,70.0,,-1.6057276077695,-2.98710010528744,-1.12296755956245,2025/08/06 11:00:48 PM,-1.0069598069025896,21.802326202392575,21.08362014849454
,3407.0,770.0,2645.0,1064.0,1819.0,3223.0,1448.0,2025-08-06 22:58:50,70.0,,-1.60591931673424,-2.98714993224758,-1.12343106061212,,-0.6586395148511567,,
,3408.0,769.0,2645.0,1064.0,1823.0,3215.0,1454.0,2025-08-06 22:58:51,70.0,,-1.60646989673135,-2.98723643530024,-1.12401442918255,,-0.28152582789125624,,
,3409.0,769.0,2643.0,1064.0,1802.0,3216.0,1412.0,2025-08-06 22:58:52,71.0,,-1.60660205734061,-2.98725309180425,-1.12420779682365,,0.11912119004132891,,
,3410.0,770.0,2645.0,1065.0,1808.0,3221.0,1417.0,2025-08-06 22:58:53,71.0,,-1.60691165750593,-2.98707954102785,-1.1244181530255,,0.5367948859304412,,
,3411.0,770.0,2646.0,1066.0,1808.0,3220.0,1415.0,2025-08-06 22:58:54,73.0,,-1.60717155830991,-2.98728613212574,-1.12339059922813,,0.9638123702408485,,
,3409.0,771.0,2649.0,1067.0,1803.0,3216.0,1402.0,2025-08-06 22:58:55,73.0,,-1.60754118723474,-2.98738255426521,-1.12441889353894,,1.3914252908487916,,
,3410.0,768.0,2646.0,1067.0,1808.0,3210.0,1413.0,2025-08-06 22:58:56,75.0,,-1.60798078086558,-2.98733069958844,-1.12397258776415,,1.8099793532671034,,
,3412.0,770.0,2647.0,1066.0,1828.0,3208.0,1422.0,2025-08-06 22:58:57,76.0,,-1.60820120479275,-2.98726390659175,-1.12491787965739,,2.209134422028788,,
,3411.0,773.0,2650.0,1067.0,1831.0,3211.0,1418.0,2025-08-06 22:58:58,75.0,,-1.60823144989796,-2.98723807002007,-1.12457673748504,,2.5781572616072093,,
,3412.0,772.0,2648.0,1067.0,1838.0,3199.0,1448.0,2025-08-06 22:58:59,74.0,,-1.60884346245121,-2.98729709657236,-1.12485040554866,,2.9062941735240173,,
,3411.0,768.0,2649.0,1066.0,1811.0,3196.0,1437.0,2025-08-06 22:59:00,73.0,,-1.60830220049491,-2.98734429461146,-1.12523489807496,,3.1832207217634734,,
,3412.0,770.0,2651.0,1068.0,1816.0,3195.0,1425.0,2025-08-06 22:59:01,72.0,,-1.60770777293908,-2.98745356431068,-1.12483588998887,,3.399551801056596,,
,3414.0,770.0,2647.0,1069.0,1817.0,3203.0,1426.0,2025-08-06 22:59:02,71.0,,-1.60854283951962,-2.98730256795555,-1.12491788286509,,3.547380114893851,,
,3414.0,770.0,2649.0,1066.0,1812.0,3210.0,1430.0,2025-08-06 22:59:03,70.0,,-1.60790030436724,-2.98738899898048,-1.12481356133361,,3.620797897264803,,
,3414.0,771.0,2650.0,1069.0,1816.0,3213.0,1452.0,2025-08-06 22:59:04,70.0,,-1.6076779006818,-2.98748953676424,-1.12471006040023,,3.616348518949393,,
,3415.0,771.0,2650.0,1068.0,1820.0,3231.0,1445.0,2025-08-06 22:59:05,70.0,,-1.60858531192017,-2.98756234812886,-1.12453151589587,,3.533353851126248,,
,3416.0,770.0,2649.0,1069.0,1822.0,3229.0,1444.0,2025-08-06 22:59:06,69.0,,-1.60794423701405,-2.98760211384627,-1.1244345285916,,3.374071126610284,,
,3416.0,773.0,2652.0,1068.0,1812.0,3216.0,1441.0,2025-08-06 22:59:07,69.0,,-1.60766567110394,-2.98731419684882,-1.1245553678639,,3.143649114786902,,
,3413.0,771.0,2653.0,1066.0,1812.0,3201.0,1452.0,2025-08-06 22:59:08,69.0,,-1.60718732289868,-2.98749554854529,-1.12385457657552,,2.849875463380194,,
,3417.0,772.0,2653.0,1070.0,1819.0,3232.0,1437.0,2025-08-06 22:59:09,68.0,,-1.60757688472007,-2.98746255613318,-1.12467396849762,,2.5027314106526064,,
,3415.0,771.0,2655.0,1072.0,1813.0,3210.0,1454.0,2025-08-06 22:59:10,68.0,,-1.60744005729855,-2.98751037667811,-1.12461903934937,,2.1137925402945066,,
,3417.0,773.0,2654.0,1071.0,1810.0,3208.0,1452.0,2025-08-06 22:59:11,67.0,,-1.60755691753533,-2.98749808941411,-1.12392572401316,,1.695531098865111,,
,3417.0,774.0,2655.0,1070.0,1803.0,3201.0,1442.0,2025-08-06 22:59:12,67.0,,-1.60862397155465,-2.98749779739661,-1.12419820380628,,1.2605843015911251,,
,3415.0,772.0,2657.0,1071.0,1810.0,3204.0,1434.0,2025-08-06 22:59:13,67.0,,-1.60736731450743,-2.98775319896851,-1.12354506145796,,0.8210535766677566,,
,3417.0,774.0,2656.0,1069.0,1817.0,3230.0,1429.0,2025-08-06 22:59:14,67.0,,-1.60855019654843,-2.98752959003603,-1.124257528058,,0.3878929149722617,,
,3418.0,773.0,2656.0,1072.0,1815.0,3235.0,1427.0,2025-08-06 22:59:15,66.0,,-1.60815125805988,-2.98747604244367,-1.12447852225025,,-0.029567808409513383,,
,3417.0,773.0,2656.0,1070.0,1821.0,3222.0,1446.0,2025-08-06 22:59:16,66.0,,-1.60816171048794,-2.98767788343361,-1.12432991359242,,-0.4239346116128765,,
,3418.0,774.0,2658.0,1071.0,1829.0,3218.0,1419.0,2025-08-06 22:59:17,66.0,,-1.60752563558019,-2.987559751152,-1.1239664686017,,-0.789884191967588,,
,3417.0,772.0,2658.0,1073.0,1823.0,3218.0,1404.0,2025-08-06 22:59:18,66.0,,-1.60789788788403,-2.98766107256274,-1.12376654277876,,-1.1241276764167152,,
,3416.0,773.0,2659.0,1070.0,1823.0,3201.0,1399.0,2025-08-06 22:59:19,66.0,,-1.60776231877557,-2.98754171959251,-1.12434178119367,,-1.425225666619665,,
,3414.0,772.0,2656.0,1068.0,1822.0,3213.0,1406.0,2025-08-06 22:59:20,67.0,,-1.6082743758688,-2.98771542532656,-1.12498674573571,,-1.6932895831632346,,
,3411.0,771.0,2655.0,1070.0,1829.0,3212.0,1404.0,2025-08-06 22:59:21,67.0,,-1.60860291178737,-2.98776898418607,-1.1243859913312,,-1.9296116258459661,,
,3412.0,773.0,2655.0,1070.0,1816.0,3213.0,1410.0,2025-08-06 22:59:22,68.0,,-1.60897735709458,-2.98766968688697,-1.12377255215252,,-2.136266954035028,,
,3411.0,771.0,2653.0,1069.0,1815.0,3212.0,1431.0,2025-08-06 22:59:23,68.0,,-1.60937334846104,-2.98781548687387,-1.12518403047077,,-2.3157274245936232,,
,3406.0,770.0,2649.0,1068.0,1814.0,3216.0,1434.0,2025-08-06 22:59:24,68.0,,-1.60898353461526,-2.98773932582225,-1.12498028161171,,-2.4705177091711326,,
,3408.0,767.0,2648.0,1067.0,1804.0,3195.0,1449.0,2025-08-06 22:59:25,68.0,,-1.61006208622245,-2.98773876892348,-1.12414369454514,,-2.6029337703381787,,
,3403.0,770.0,2648.0,1065.0,1811.0,3219.0,1422.0,2025-08-06 22:59:26,68.0,,-1.61047412525794,-2.98771738971996,-1.12507797402601,,-2.7148328350636572,,
,3402.0,768.0,2648.0,1067.0,1806.0,3207.0,1420.0,2025-08-06 22:59:27,67.0,,-1.61039800234637,-2.98772343910244,-1.12490116050845,,-2.8074952083362965,,
,3399.0,764.0,2644.0,1065.0,1794.0,3195.0,1452.0,2025-08-06 22:59:28,68.0,,-1.61052715430181,-2.98783955913218,-1.12493798240792,,-2.881552440765374,,
,3398.0,768.0,2645.0,1064.0,1822.0,3201.0,1458.0,2025-08-06 22:59:29,68.0,,-1.61145816091795,-2.9879133830971,-1.12502740032536,,-2.9369731801798626,,
,3398.0,765.0,2642.0,1063.0,1818.0,3218.0,1422.0,2025-08-06 22:59:30,68.0,,-1.61071357586423,-2.98777096605065,-1.12513817698047,,-2.9730966270571106,,
,3395.0,767.0,2643.0,1063.0,1808.0,3219.0,1422.0,2025-08-06 22:59:31,68.0,,-1.61052930032069,-2.98781489910816,-1.12510327715858,,-2.9887031764578054,,
,3394.0,764.0,2641.0,1063.0,1811.0,3203.0,1430.0,2025-08-06 22:59:32,69.0,,-1.61048041386089,-2.98789275430379,-1.12543557363803,,-2.9821121813437506,,
,3393.0,764.0,2640.0,1061.0,1811.0,3200.0,1425.0,2025-08-06 22:59:33,69.0,,-1.6104206703389,-2.98793496331703,-1.12526367854664,,-2.9512975060044893,,
,3390.0,764.0,2639.0,1062.0,1814.0,3204.0,1443.0,2025-08-06 22:59:34,69.0,,-1.6097069466729,-2.98783171258955,-1.1243821131991,,-2.89401234480175,,
,3393.0,763.0,2640.0,1062.0,1814.0,3208.0,1439.0,2025-08-06 22:59:35,69.0,,-1.60999698825604,-2.98793925023004,-1.12500945665058,,-2.807915573501259,,
,3390.0,761.0,2635.0,1059.0,1801.0,3211.0,1450.0,2025-08-06 22:59:36,69.0,,-1.60970051522402,-2.98812785963958,-1.12516823414148,,-2.6906929681996408,,
,3390.0,763.0,2640.0,1060.0,1805.0,3219.0,1433.0,2025-08-06 22:59:37,68.0,,-1.61032304104468,-2.9880771468275,-1.12578213410904,,-2.5401684863475444,,
,3392.0,765.0,2638.0,1061.0,1825.0,3221.0,1418.0,2025-08-06 22:59:38,68.0,,-1.6108727600247,-2.98799554891883,-1.12574512626929,,-2.354403874267368,,
,3390.0,764.0,2637.0,1060.0,1820.0,3229.0,1409.0,2025-08-06 22:59:39,68.0,,-1.6115752709303,-2.98806433367737,-1.12612587215393,,-2.1317891026490217,,
,3389.0,763.0,2638.0,1058.0,1817.0,3224.0,1410.0,2025-08-06 22:59:40,67.0,,-1.61158116190889,-2.98815371398868,-1.12630363563175,,-1.8711306973751707,,
,3390.0,762.0,2637.0,1060.0,1812.0,3221.0,1437.0,2025-08-06 22:59:41,67.0,,-1.61114586022078,-2.98805479963043,-1.12580000127319,,-1.5717482907928582,,
,3393.0,762.0,2639.0,1062.0,1821.0,3213.0,1440.0,2025-08-06 22:59:42,68.0,,-1.61169240826295,-2.98812059270834,-1.12594723452575,,-1.2335899110458146,,
,3386.0,763.0,2637.0,1061.0,1820.0,3208.0,1441.0,2025-08-06 22:59:43,68.0,,-1.61180442414593,-2.98808226189679,-1.12577525711077,,-0.8573729040225736,,
,3388.0,762.0,2638.0,1057.0,1829.0,3216.0,1460.0,2025-08-06 22:59:44,68.0,,-1.61160746447668,-2.98830830854103,-1.12559368204262,,-0.44475079198415524,,
,3387.0,764.0,2637.0,1059.0,1816.0,3237.0,1447.0,2025-08-06 22:59:45,68.0,,-1.61145478937428,-2.98818224036395,-1.12561478765936,,0.0015014009184217306,,
,3386.0,764.0,2639.0,1061.0,1822.0,3232.0,1433.0,2025-08-06 22:59:46,69.0,,-1.61151977091612,-2.98821824459298,-1.12523361236289,,0.47729829511953464,,
,3388.0,763.0,2638.0,1063.0,1824.0,3235.0,1438.0,2025-08-06 22:59:47,69.0,,-1.61096892298083,-2.98812549650338,-1.12568471594747,,0.9770731446597021,,
,3384.0,760.0,2635.0,1060.0,1809.0,3219.0,1453.0,2025-08-06 22:59:48,68.0,,-1.61114571898829,-2.98797028857788,-1.12542046388593,,1.49365095408438,,
,3387.0,759.0,2637.0,1062.0,1823.0,3224.0,1437.0,2025-08-06 22:59:49,68.0,,-1.60975774899065,-2.98807054144957,-1.1245138467601,,2.0181946759531897,,
,3387.0,762.0,2635.0,1061.0,1833.0,3195.0,1430.0,2025-08-06 22:59:50,67.0,,-1.60983529642258,-2.9880483615184,-1.12480520743861,,2.5402529417592725,,
,3386.0,762.0,2638.0,1062.0,1829.0,3205.0,1436.0,2025-08-06 22:59:51,66.0,,-1.6098515964642,-2.98798991508772,-1.12502863646663,,3.047933349038497,,
,3383.0,758.0,2637.0,1057.0,1815.0,3207.0,1440.0,2025-08-06 22:59:52,66.0,,-1.60879413755507,-2.98806739693653,-1.12447090516702,,3.528216631778422,,
,3387.0,761.0,2635.0,1059.0,1817.0,3225.0,1431.0,2025-08-06 22:59:53,66.0,,-1.60890008143834,-2.9880660622294,-1.12472435367143,,3.967414332985195,,
,3384.0,761.0,2634.0,1059.0,1798.0,3224.0,1449.0,2025-08-06 22:59:54,66.0,,-1.60854921508468,-2.98808508741304,-1.12386644853252,,4.351756861043163,,
,3384.0,763.0,2636.0,1055.0,1811.0,3232.0,1462.0,2025-08-06 22:59:55,67.0,,-1.60874002813663,-2.98807186690979,-1.12348948363493,,4.668081835963816,,
,3382.0,758.0,2632.0,1057.0,1816.0,3224.0,1453.0,2025-08-06 22:59:56,67.0,,-1.60874819085994,-2.98794524568642,-1.12326404681116,,4.904576822777246,,
,3383.0,760.0,2634.0,1059.0,1810.0,3236.0,1422.0,2025-08-06 22:59:57,67.0,,-1.60850377206226,-2.98782417345215,-1.12329487205991,,5.051518388975368,,
,3384.0,760.0,2636.0,1057.0,1800.0,3231.0,1452.0,2025-08-06 22:59:58,67.0,,-1.60782126624154,-2.98792270821333,-1.12416575991203,,5.101942896172619,,
,3384.0,760.0,2635.0,1060.0,1803.0,3231.0,1466.0,2025-08-06 22:59:59,67.0,,-1.60761778623638,-2.98784282833134,-1.12438039331622,,5.052184789778438,,
,3380.0,759.0,2633.0,1058.0,1804.0,3237.0,1426.0,2025-08-06 23:00:00,66.0,,-1.60750760945374,-2.98809454427324,-1.123592253162,,4.902225880847942,,
,3382.0,758.0,2637.0,1059.0,1797.0,3231.0,1457.0,2025-08-06 23:00:01,66.0,,-1.60723377183982,-2.98780455594661,-1.12328541871466,,4.65581386232062,,
,3382.0,759.0,2634.0,1058.0,1792.0,3225.0,1468.0,2025-08-06 23:00:02,66.0,,-1.6069489167947,-2.98789963183228,-1.12293211983072,,4.320328779341234,,
,3382.0,760.0,2635.0,1059.0,1779.0,3226.0,1458.0,2025-08-06 23:00:03,66.0,,-1.60669154160593,-2.98795238913344,-1.12346216564159,,3.9064003977243473,,
,3380.0,758.0,2632.0,1057.0,1805.0,3222.0,1456.0,2025-08-06 23:00:04,66.0,,-1.60783289187517,-2.98796314609728,-1.12362253028191,,3.4273049172478784,,
,3381.0,759.0,2634.0,1059.0,1814.0,3225.0,1456.0,2025-08-06 23:00:05,66.0,,-1.60816427627837,-2.98817194803204,-1.12391137677006,,2.898193122284088,,
,3381.0,759.0,2637.0,1060.0,1810.0,3225.0,1432.0,2025-08-06 23:00:06,67.0,,-1.60917050340563,-2.98800863746411,-1.12419580128013,,2.3352200925419004,,
,3380.0,759.0,2632.0,1058.0,1809.0,3220.0,1439.0,2025-08-06 23:00:07,67.0,,-1.60943401283935,-2.98809737458853,-1.12368594172592,,1.754655605613946,,
,3377.0,757.0,2634.0,1057.0,1807.0,3217.0,1444.0,2025-08-06 23:00:08,67.0,,-1.60989744528512,-2.98813544869724,-1.12412857779922,,1.1720526819149792,,
,3380.0,758.0,2633.0,1058.0,1815.0,3225.0,1440.0,2025-08-06 23:00:09,68.0,,-1.60924633656884,-2.98804437508873,-1.12361247973193,,0.60154008488529,,
,3378.0,760.0,2632.0,1059.0,1815.0,3214.0,1408.0,2025-08-06 23:00:10,68.0,,-1.60995888636829,-2.9880517037331,-1.12417457478554,,0.055285667788468495,,
,3382.0,758.0,2634.0,1057.0,1822.0,3219.0,1421.0,2025-08-06 23:00:11,68.0,,-1.60967800782873,-2.98801028905926,-1.12473952939297,,-0.4568452444472354,,
,3380.0,756.0,2635.0,1059.0,1815.0,3222.0,1467.0,2025-08-06 23:00:12,68.0,,-1.61043096525923,-2.98812561196488,-1.12410422730069,,-0.9274353604697462,,
,3378.0,760.0,2633.0,1058.0,1816.0,3225.0,1480.0,2025-08-06 23:00:13,68.0,,-1.61070772050774,-2.98804645909289,-1.12496294381132,,-1.351484394263788,,
,3379.0,759.0,2634.0,1060.0,1816.0,3218.0,1472.0,2025-08-06 23:00:14,68.0,,-1.61046017465974,-2.98804609202543,-1.12484031929309,,-1.7262369765625996,,
,3377.0,758.0,2632.0,1059.0,1806.0,3219.0,1465.0,2025-08-06 23:00:15,69.0,,-1.60964995066564,-2.98793724059308,-1.1248920501312,,-2.050914416009339,,
,3379.0,760.0,2634.0,1059.0,1810.0,3229.0,1450.0,2025-08-06 23:00:16,69.0,,-1.61067819785776,-2.98812535497483,-1.1245198740788,,-2.3263972598461993,,
,3381.0,757.0,2635.0,1059.0,1806.0,3206.0,1448.0,2025-08-06 23:00:17,69.0,,-1.6092285386735,-2.98798346495386,-1.12390587057734,,-2.5549002059836257,,
,3384.0,758.0,2636.0,1057.0,1799.0,3203.0,1432.0,2025-08-06 23:00:18,69.0,,-1.60910167656248,-2.98793476604703,-1.12371395214753,,-2.739669240385947,,
,3381.0,758.0,2635.0,1060.0,1801.0,3200.0,1450.0,2025-08-06 23:00:19,69.0,,-1.60909165992535,-2.98808290547618,-1.12380055537604,,-2.8847156203907574,,
,3381.0,757.0,2634.0,1060.0,1805.0,3205.0,1453.0,2025-08-06 23:00:20,70.0,,-1.6082653389683,-2.98802820781194,-1.1241478036281,,-2.9945864211380853,,
,3381.0,758.0,2638.0,1059.0,1807.0,3217.0,1426.0,2025-08-06 23:00:21,70.0,,-1.60846979424485,-2.98783987860163,-1.12345952713889,,-3.0741605273820913,,
,3380.0,758.0,2635.0,1058.0,1817.0,3230.0,1441.0,2025-08-06 23:00:22,70.0,,-1.60820510645059,-2.98789563131979,-1.12350222311037,,-3.1284541174731815,,
,3380.0,756.0,2635.0,1060.0,1811.0,3235.0,1433.0,2025-08-06 23:00:23,70.0,,-1.60772722103321,-2.98803693393078,-1.12323939103101,,-3.16242060562853,,
,3381.0,758.0,2635.0,1057.0,1802.0,3233.0,1447.0,2025-08-06 23:00:24,71.0,,-1.60802006932395,-2.98801169130764,-1.12345484428593,,-3.1807351191461275,,
,3381.0,760.0,2637.0,1060.0,1811.0,3229.0,1445.0,2025-08-06 23:00:25,71.0,,-1.60806510359683,-2.98799929667734,-1.12248138352114,,-3.18756106787531,,
,3383.0,759.0,2636.0,1061.0,1834.0,3201.0,1420.0,2025-08-06 23:00:26,72.0,,-1.60795920665908,-2.98784813798228,-1.12256466743977,,-3.1863046428785227,,
,3383.0,760.0,2637.0,1060.0,1826.0,3197.0,1423.0,2025-08-06 23:00:27,73.0,,-1.60843760263922,-2.98779817048627,-1.12334070071042,,-3.1793708480079066,,
,3382.0,759.0,2636.0,1059.0,1823.0,3202.0,1430.0,2025-08-06 23:00:28,74.0,,-1.6088546797204,-2.98792350382277,-1.12348396506752,,-3.167940814749605,,
,3384.0,761.0,2637.0,1060.0,1814.0,3203.0,1435.0,2025-08-06 23:00:29,75.0,,-1.60873525407738,-2.98777788642499,-1.12333893518251,,-3.1517938643058065,,
,3382.0,759.0,2636.0,1060.0,1804.0,3204.0,1441.0,2025-08-06 23:00:30,74.0,,-1.60815984192188,-2.98783120594534,-1.12318789386205,,-3.1291986218582633,,
,3381.0,758.0,2637.0,1061.0,1791.0,3201.0,1442.0,2025-08-06 23:00:31,74.0,,-1.60796878194287,-2.98790556051259,-1.12353160547752,,-3.0968953194251605,,
,3383.0,759.0,2638.0,1058.0,1798.0,3228.0,1430.0,2025-08-06 23:00:32,72.0,,-1.60865407378967,-2.98799528956292,-1.12353947744406,,-3.05018632739211,,
,3383.0,757.0,2638.0,1061.0,1805.0,3220.0,1434.0,2025-08-06 23:00:33,71.0,,-1.60896574895076,-2.98801838137781,-1.1235675529274,,-2.983144273462401,,
,3385.0,759.0,2639.0,1063.0,1806.0,3225.0,1457.0,2025-08-06 23:00:34,70.0,,-1.61017109455899,-2.98797438742656,-1.12428984507606,,-2.888937507020985,,
,3387.0,762.0,2639.0,1061.0,1803.0,3212.0,1459.0,2025-08-06 23:00:35,69.0,,-1.60992806653511,-2.98802416162546,-1.12482210643589,,-2.760262068214047,,
,3384.0,759.0,2638.0,1062.0,1793.0,3225.0,1455.0,2025-08-06 23:00:36,69.0,,-1.61097902890828,-2.98808132038444,-1.12432369036337,,-2.589858786640434,,
,3382.0,759.0,2640.0,1061.0,1824.0,3206.0,1438.0,2025-08-06 23:00:37,69.0,,-1.61085403839415,-2.98798407363171,-1.12535941420684,,-2.371084870329991,,
,3382.0,759.0,2640.0,1063.0,1809.0,3212.0,1434.0,2025-08-06 23:00:38,69.0,,-1.61157725659277,-2.98815020227621,-1.12465065859576,,-2.0985026841163625,,
,3382.0,759.0,2642.0,1065.0,1814.0,3223.0,1437.0,2025-08-06 23:00:39,70.0,,-1.61153297007111,-2.98808997711887,-1.12519609347538,,-1.7684454096261102,,
2025-08-06 22:57:59,3384.0,757.0,2639.0,1061.0,1824.0,3232.0,1422.0,2025-08-06 23:00:40,69.0,2025/08/06 10:57:59 PM,-1.61192214418242,-2.9881237806939,-1.12533344175395,,-1.3795200417734603,,
,3384.0,759.0,2642.0,1062.0,1822.0,3208.0,1422.0,2025-08-06 23:00:41,69.0,,-1.61227588476462,-2.98822074226243,-1.12540571607499,,-0.9330117656984682,,
,3386.0,761.0,2643.0,1062.0,1804.0,3221.0,1430.0,2025-08-06 23:00:42,69.0,,-1.61212708915082,-2.98816496546239,-1.12519462431329,,-0.4331588954096601,,
,3387.0,764.0,2643.0,1063.0,1787.0,3211.0,1435.0,2025-08-06 23:00:43,68.0,,-1.6116028697942,-2.98813572701112,-1.12498512666069,,0.11272653232745794,,
,3384.0,761.0,2644.0,1061.0,1814.0,3219.0,1459.0,2025-08-06 23:00:44,67.0,,-1.61213852982492,-2.988178495722,-1.12606588607643,,0.694310772407681,,
,3385.0,760.0,2645.0,1062.0,1803.0,3217.0,1440.0,2025-08-06 23:00:45,66.0,,-1.61164460436642,-2.98816482749263,-1.12533080988886,,1.2984734925556436,,
,3386.0,760.0,2642.0,1063.0,1798.0,3224.0,1446.0,2025-08-06 23:00:46,66.0,,-1.61169529246028,-2.98817498655096,-1.12492126808602,,1.9097271521933477,,
,3386.0,762.0,2646.0,1063.0,1794.0,3211.0,1439.0,2025-08-06 23:00:47,65.0,,-1.61150897832429,-2.98817854296949,-1.125104378018,,2.5108106327204274,,
,3387.0,760.0,2643.0,1064.0,1810.0,3218.0,1419.0,2025-08-06 23:00:48,66.0,,-1.61159514689551,-2.98815086009947,-1.12567707854296,,3.083434458825171,,
,3390.0,762.0,2645.0,1062.0,1808.0,3217.0,1413.0,2025-08-06 23:00:49,66.0,,-1.61163594399689,-2.98809264971394,-1.12552717212986,,3.609141873800915,,
,3388.0,762.0,2646.0,1065.0,1802.0,3220.0,1425.0,2025-08-06 23:00:50,67.0,,-1.61191932754854,-2.98805931890065,-1.12490673756787,,4.070238208971013,,
,3387.0,760.0,2646.0,1064.0,1814.0,3220.0,1432.0,2025-08-06 23:00:51,67.0,,-1.61207790638962,-2.98813153438645,-1.12551593081225,,4.450732064203616,,
,3387.0,760.0,2647.0,1064.0,1832.0,3238.0,1394.0,2025-08-06 23:00:52,67.0,,-1.61176441448242,-2.98807952541481,-1.12567626420943,,4.737226753606234,,
,3389.0,761.0,2646.0,1063.0,1816.0,3234.0,1415.0,2025-08-06 23:00:53,67.0,,-1.61204608596473,-2.98808584462027,-1.12477484388662,,4.919699467075541,,
,3387.0,761.0,2647.0,1067.0,1821.0,3221.0,1401.0,2025-08-06 23:00:54,67.0,,-1.61240247577839,-2.98820789915306,-1.12538838372278,,4.9921086038346365,,
,3391.0,761.0,2648.0,1067.0,1822.0,3227.0,1408.0,2025-08-06 23:00:55,67.0,,-1.6116517401043,-2.98810650165408,-1.12542991240363,,4.952776959074159,,
,3389.0,762.0,2648.0,1062.0,1822.0,3247.0,1407.0,2025-08-06 23:00:56,67.0,,-1.61244828288582,-2.98809588918802,-1.12447946605969,,4.8045104777799486,,
,3390.0,760.0,2648.0,1065.0,1817.0,3231.0,1423.0,2025-08-06 23:00:57,67.0,,-1.61236212160015,-2.98809550995604,-1.12602066168827,,4.554429905369922,,
,3389.0,762.0,2650.0,1067.0,1826.0,3215.0,1434.0,2025-08-06 23:00:58,66.0,,-1.61260351815038,-2.98797503630769,-1.12586895368913,,4.213516231032565,,
,3391.0,763.0,2651.0,1068.0,1817.0,3222.0,1418.0,2025-08-06 23:00:59,66.0,,-1.61183062401625,-2.98815533101965,-1.12534283541638,,3.7958990732803928,,
,3390.0,760.0,2650.0,1065.0,1819.0,3208.0,1436.0,2025-08-06 23:01:00,66.0,,-1.61208920175521,-2.98805277160846,-1.12511049580243,,3.3179461257058334,,
,3390.0,762.0,2650.0,1067.0,1818.0,3214.0,1443.0,2025-08-06 23:01:01,66.0,,-1.61273771519374,-2.98812682141147,-1.12479571179756,,2.7972353758760953,,
,3390.0,763.0,2654.0,1068.0,1805.0,3218.0,1440.0,2025-08-06 23:01:02,67.0,,-1.6118336097174,-2.98810738365957,-1.12553067478477,,2.251504323221574,,
,3393.0,762.0,2651.0,1068.0,1797.0,3221.0,1415.0,2025-08-06 23:01:03,67.0,,-1.61185719594682,-2.98812964757491,-1.12643684614654,,1.6976691692633916,,
,3395.0,762.0,2651.0,1068.0,1801.0,3225.0,1414.0,2025-08-06 23:01:04,67.0,,-1.61178704108356,-2.98819309800035,-1.12508954902531,,1.1509930864582605,,
,3391.0,762.0,2653.0,1067.0,1809.0,3189.0,1441.0,2025-08-06 23:01:05,67.0,,-1.61110742633444,-2.98807344299327,-1.12499389942295,,0.6244599338936898,,
,3392.0,764.0,2653.0,1069.0,1799.0,3212.0,1436.0,2025-08-06 23:01:06,68.0,,-1.61165447030978,-2.98816098537556,-1.12538189090548,,0.1283827091789241,,
,3396.0,764.0,2655.0,1068.0,1801.0,3204.0,1440.0,2025-08-06 23:01:07,69.0,,-1.61110505619206,-2.98807550115275,-1.12516485757484,,-0.32975116355824696,,
,3392.0,761.0,2655.0,1069.0,1821.0,3210.0,1431.0,2025-08-06 23:01:08,69.0,,-1.61065050283665,-2.98812069453193,-1.12499524777937,,-0.7452193598144087,,
,3395.0,762.0,2655.0,1069.0,1797.0,3215.0,1416.0,2025-08-06 23:01:09,69.0,,-1.61117717650596,-2.98819247317729,-1.12475055585213,,-1.1158283149716743,,
,3396.0,764.0,2655.0,1068.0,1809.0,3208.0,1424.0,2025-08-06 23:01:10,70.0,,-1.60997924913819,-2.98810915668334,-1.12461435874144,,-1.441550456891902,,
,3396.0,764.0,2655.0,1070.0,1805.0,3209.0,1438.0,2025-08-06 23:01:11,70.0,,-1.61107713653953,-2.98817759328347,-1.12469971841847,,-1.7240868328287675,,
,3397.0,764.0,2657.0,1068.0,1810.0,3209.0,1427.0,2025-08-06 23:01:12,70.0,,-1.61086603458808,-2.98809780382454,-1.12456025173798,,-1.966402562846919,,
,3395.0,764.0,2655.0,1068.0,1826.0,3247.0,1424.0,2025-08-06 23:01:13,70.0,,-1.61097348726028,-2.98810789831517,-1.12467888814114,,-2.1722732521124724,,
,3398.0,765.0,2657.0,1070.0,1825.0,3254.0,1422.0,2025-08-06 23:01:14,69.0,,-1.61122688363545,-2.98806513692021,-1.12432741227455,,-2.345868841371065,,
,3391.0,764.0,2656.0,1069.0,1826.0,3249.0,1414.0,2025-08-06 23:01:15,69.0,,-1.61029913395467,-2.98813837464266,-1.12387080184678,,-2.4913901562236527,,
,3389.0,760.0,2654.0,1067.0,1823.0,3238.0,1433.0,2025-08-06 23:01:16,70.0,,-1.61102350642689,-2.98816496290631,-1.12381803784797,,-2.61276476457984,,
,3389.0,761.0,2651.0,1068.0,1817.0,3228.0,1387.0,2025-08-06 23:01:17,70.0,,-1.61122791822774,-2.98795313576161,-1.1238714608751,,-2.7134034339459077,,
,3387.0,763.0,2652.0,1067.0,1816.0,3217.0,1393.0,2025-08-06 23:01:18,70.0,,-1.61042388126275,-2.98807840764264,-1.12328648545353,,-2.7960160293483827,,
,3385.0,763.0,2650.0,1069.0,1815.0,3217.0,1418.0,2025-08-06 23:01:19,70.0,,-1.61014251831463,-2.9880944665537,-1.12403408419427,,-2.8624851483029783,,
,3381.0,760.0,2646.0,1063.0,1812.0,3209.0,1440.0,2025-08-06 23:01:20,70.0,,-1.61083058459181,-2.98817397802693,-1.1241962442695,,-2.9137962568707727,,
,3380.0,760.0,2646.0,1064.0,1816.0,3216.0,1426.0,2025-08-06 23:01:21,70.0,,-1.61097661940459,-2.98827607186235,-1.12432685763434,,-2.9500238082365766,,
,3377.0,760.0,2648.0,1063.0,1811.0,3218.0,1451.0,2025-08-06 23:01:22,70.0,,-1.61124397017603,-2.98807963867192,-1.12325304218984,,-2.9703730634336862,,
,3376.0,757.0,2645.0,1063.0,1822.0,3208.0,1450.0,2025-08-06 23:01:23,70.0,,-1.61023458672134,-2.98829276456148,-1.12388983810622,,-2.9732764966822898,,
,3374.0,756.0,2642.0,1062.0,1798.0,3220.0,1432.0,2025-08-06 23:01:24,69.0,,-1.61005898163563,-2.98818118748711,-1.12403683813625,,-2.9565415286043475,,
,3372.0,756.0,2643.0,1059.0,1799.0,3204.0,1439.0,2025-08-06 23:01:25,69.0,,-1.6093738014769,-2.98806241791147,-1.12335570023272,,-2.9175431122125985,,
,3371.0,757.0,2642.0,1062.0,1799.0,3209.0,1428.0,2025-08-06 23:01:26,69.0,,-1.60905711301605,-2.98806911300031,-1.12362242431608,,-2.853450907991856,,
,3372.0,756.0,2641.0,1061.0,1791.0,3215.0,1438.0,2025-08-06 23:01:27,69.0,,-1.60906186144679,-2.98814394732328,-1.12361108685236,,-2.7614769921722333,,
,3369.0,755.0,2640.0,1057.0,1811.0,3215.0,1433.0,2025-08-06 23:01:28,69.0,,-1.60914797449137,-2.98799394908067,-1.1231656573741,,-2.6391267808799137,,
,3371.0,756.0,2640.0,1062.0,1820.0,3219.0,1419.0,2025-08-06 23:01:29,69.0,,-1.60868925885648,-2.98805198181058,-1.12321604850321,,-2.4844336967952607,,
,3369.0,755.0,2637.0,1059.0,1834.0,3216.0,1406.0,2025-08-06 23:01:30,69.0,,-1.60882908858692,-2.98801870660975,-1.12336172356246,,-2.2961577077438937,,
,3370.0,755.0,2638.0,1058.0,1826.0,3221.0,1410.0,2025-08-06 23:01:31,69.0,,-1.60909716167695,-2.98804890235916,-1.12296586959868,,-2.0739298288513375,,
,3369.0,754.0,2638.0,1059.0,1819.0,3234.0,1434.0,,,,-1.60793322186197,-2.98805749505416,-1.12350950837491,,-1.8183294135398875,,
,3369.0,754.0,2636.0,1058.0,1803.0,3239.0,1403.0,,,,-1.60826037592216,-2.98809909003486,-1.1236935703596,,-1.5308887094037742,,
,3369.0,754.0,2638.0,1059.0,1791.0,3227.0,1392.0,,,,-1.60841680734827,-2.98788938574562,-1.12246262516784,,-1.2140292383927953,,
,3368.0,754.0,2639.0,1061.0,1795.0,3218.0,1394.0,,,,-1.60805113815473,-2.98799777475975,-1.12306918800205,,-0.8709453927399219,,
,3365.0,754.0,2635.0,1058.0,1804.0,3221.0,1440.0,,,,-1.60847711924676,-2.98797769322365,-1.12249727097706,,-0.505459468555592,,
,3367.0,753.0,2639.0,1059.0,1797.0,3227.0,1424.0,,,,-1.60846971522251,-2.9879066837365,-1.12261275877202,,-0.12187655568023868,,
,3367.0,755.0,2637.0,1058.0,1798.0,3221.0,1416.0,,,,-1.60831622047814,-2.98800729611303,-1.12279107988293,,0.27513402140358145,,
,3365.0,753.0,2639.0,1055.0,1798.0,3217.0,1431.0,,,,-1.60787538281577,-2.98802892778057,-1.12275845197501,,0.6806112903857945,,
,3364.0,753.0,2636.0,1058.0,1814.0,3232.0,1456.0,,,,-1.60813878453119,-2.98814155206677,-1.12203766045098,,1.0893210499271497,,
,3367.0,753.0,2635.0,1059.0,1818.0,3235.0,1431.0,,,,-1.60757332447685,-2.98794749628969,-1.12226135404047,,1.495724834732394,,
,3365.0,753.0,2637.0,1061.0,1809.0,3228.0,1445.0,,,,-1.6073696376795,-2.98793988581912,-1.12245954246289,,1.8939162620730807,,
,3366.0,753.0,2636.0,1058.0,1799.0,3234.0,1440.0,,,,-1.60722027286721,-2.98791864543602,-1.12221489764741,,2.2775507253710576,,
,3362.0,752.0,2634.0,1057.0,1814.0,3226.0,1420.0,,,,-1.60707888322007,-2.98780412599145,-1.12251157138901,,2.6397991101196276,,
,3365.0,755.0,2635.0,1059.0,1816.0,3208.0,1425.0,,,,-1.60620518607988,-2.98777223501578,-1.12207156949098,,2.9733560758983946,,
,3366.0,754.0,2636.0,1059.0,1809.0,3214.0,1429.0,,,,-1.60656879887,-2.98806187894176,-1.12246625433935,,3.270528818238676,,
,3365.0,752.0,2638.0,1057.0,1809.0,3214.0,1424.0,,,,-1.60580411191975,-2.98785745683184,-1.12181056163499,,3.5234237101947117,,
,3363.0,753.0,2636.0,1057.0,1799.0,3217.0,1416.0,,,,-1.6061952215446,-2.98792120502671,-1.12149144294447,,3.724236497240673,,
,3365.0,751.0,2633.0,1056.0,1790.0,3214.0,1427.0,,,,-1.60633965364876,-2.98790362561006,-1.12093759362824,,3.865637686814811,,
,3364.0,753.0,2634.0,1058.0,1796.0,3227.0,1426.0,,,,-1.60582032014622,-2.98794622617701,-1.12245149830271,,3.9412297173581003,,
,3362.0,752.0,2635.0,1057.0,1813.0,3219.0,1409.0,,,,-1.60647614954367,-2.98781884551334,-1.12239996976557,,3.946038002760182,,
,3360.0,751.0,2635.0,1056.0,1794.0,3228.0,1423.0,,,,-1.60637656441405,-2.98790210957414,-1.12227261872774,,3.876986048647735,,
,3362.0,751.0,2634.0,1058.0,1779.0,3234.0,1429.0,,,,-1.60701513873169,-2.98798493257559,-1.12270203367448,,3.7332982151336167,,
,3363.0,752.0,2633.0,1055.0,1791.0,3222.0,1441.0,,,,-1.60683406579621,-2.98812857955365,-1.12230050971325,,3.516775187721971,,
,3362.0,752.0,2634.0,1058.0,1787.0,3215.0,1432.0,,,,-1.60635003827419,-2.98811091693588,-1.12213196381234,,3.2318982848895437,,
,3359.0,750.0,2634.0,1056.0,1812.0,3224.0,1442.0,,,,-1.60680759181431,-2.98809548710781,-1.12274085784468,,2.8857381743573955,,
,3359.0,751.0,2631.0,1055.0,1810.0,3226.0,1455.0,,,,-1.60737458964822,-2.98825029136789,-1.1224982220305,,2.487667600629956,,
,3358.0,750.0,2634.0,1055.0,1795.0,3223.0,1437.0,,,,-1.60724843402508,-2.98817153898927,-1.12274573134251,,2.0489014571585153,,
,3359.0,751.0,2632.0,1055.0,1788.0,3225.0,1427.0,,,,-1.60752288528631,-2.98801928207148,-1.12314013415702,,1.5819068111204666,,
,3357.0,749.0,2633.0,1055.0,1790.0,3236.0,1414.0,,,,-1.60732387461308,-2.98830065186085,-1.12255876103435,,1.0997378470242538,,
,3358.0,749.0,2634.0,1056.0,1799.0,3227.0,1423.0,,,,-1.60700048560568,-2.98834418163918,-1.12232763958253,,0.615355241616421,,
,3360.0,752.0,2632.0,1055.0,1812.0,3227.0,1405.0,,,,-1.60711890542221,-2.98850111935043,-1.12263581407496,,0.1409864569555507,,
,3359.0,752.0,2634.0,1057.0,1817.0,3230.0,1412.0,,,,-1.60695953225121,-2.98833406529564,-1.12195365610053,,-0.3124259349660813,,
,3357.0,748.0,2630.0,1056.0,1829.0,3229.0,1414.0,,,,-1.60803556149041,-2.98840313724758,-1.12313420145953,,-0.7356544128601525,,
,3358.0,749.0,2632.0,1055.0,1826.0,3245.0,1422.0,,,,-1.60721410045011,-2.98837194898115,-1.12303656474103,,-1.1214769678664533,,
,3360.0,750.0,2633.0,1053.0,1830.0,3228.0,1407.0,,,,-1.60811368309857,-2.98829941944344,-1.12308674957554,,-1.4648240601998952,,
,3360.0,752.0,2633.0,1054.0,1829.0,3228.0,1406.0,,,,-1.60891751769161,-2.98817554799827,-1.12279727193343,,-1.7627896391616356,,
,3358.0,750.0,2633.0,1053.0,1805.0,3233.0,1426.0,,,,-1.60864554681033,-2.98850441697705,-1.12356191762191,,-2.0145211874026834,,
,3358.0,750.0,2632.0,1056.0,1818.0,3219.0,1435.0,,,,-1.60905703437988,-2.98851353895903,-1.12303714971713,,-2.2210076787174406,,
,3357.0,751.0,2634.0,1056.0,1823.0,3223.0,1421.0,,,,-1.60911399192813,-2.98836624455044,-1.12285608020036,,-2.3847863499990734,,
,3361.0,751.0,2634.0,1057.0,1817.0,3223.0,1405.0,,,,-1.60895157239468,-2.98853159243916,-1.12337171855354,,-2.5095906208409127,,
,3359.0,749.0,2635.0,1055.0,1822.0,3244.0,1421.0,,,,-1.60934210133827,-2.98855648342095,-1.12346985010233,,-2.5999626406642036,,
,3361.0,752.0,2635.0,1057.0,1817.0,3243.0,1402.0,,,,-1.60940737967859,-2.98839029326729,-1.12237639347561,,-2.660854336604635,,
,3359.0,752.0,2635.0,1055.0,1821.0,3241.0,1409.0,,,,-1.608471474018,-2.98843197704678,-1.12218695408431,,-2.697240040968133,,
,3359.0,751.0,2636.0,1058.0,1820.0,3234.0,1413.0,,,,-1.60877947854763,-2.98826577004294,-1.12156435826954,,-2.7137617758338854,,
,3357.0,751.0,2633.0,1057.0,1808.0,3248.0,1418.0,,,,-1.60798798867816,-2.98835012260393,-1.12193320384607,,-2.7144252848021915,,
,3358.0,751.0,2633.0,1057.0,1817.0,3237.0,1428.0,,,,-1.60817256166602,-2.98838660485991,-1.12194903070777,,-2.7023611041395794,,
,3363.0,751.0,2638.0,1059.0,1827.0,3236.0,1400.0,,,,-1.60739019423712,-2.98820015184741,-1.12190652980755,,-2.679660483675424,,
,3361.0,753.0,2637.0,1057.0,1822.0,3232.0,1393.0,,,,-1.60711065791212,-2.9881529471794,-1.12135951850375,,-2.6472910494977344,,
,3359.0,750.0,2635.0,1059.0,1819.0,3207.0,1412.0,,,,-1.6067986928284,-2.9883626722455,-1.12042851912685,,-2.6050921501836473,,
,3361.0,752.0,2634.0,1057.0,1823.0,3222.0,1409.0,,,,-1.60641212296407,-2.98828259274203,-1.12087316411334,,-2.5518452509851666,,
,3359.0,752.0,2634.0,1055.0,1822.0,3215.0,1416.0,,,,-1.60587937268464,-2.98819535470174,-1.12136297081336,,-2.485410791084997,,
,3363.0,752.0,2637.0,1056.0,1826.0,3206.0,1393.0,,,,-1.60548528015965,-2.98829435153142,-1.12095803924572,,-2.4029197151085806,,
,3359.0,750.0,2635.0,1055.0,1831.0,3212.0,1391.0,,,,-1.60577398911157,-2.98819848783976,-1.12053421993876,,-2.301005527163555,,
,3360.0,750.0,2635.0,1058.0,1832.0,3223.0,1419.0,,,,-1.6055175341501,-2.98821717012116,-1.1203485676068,,-2.176061300159989,,
,3363.0,755.0,2637.0,1059.0,1826.0,3224.0,1412.0,,,,-1.60527550017937,-2.98826295346607,-1.12073428244764,,-2.0245056812838955,,
,3360.0,751.0,2637.0,1059.0,1834.0,3222.0,1424.0,,,,-1.60555759902878,-2.98814408571863,-1.12017483116313,,-1.8430427139024632,,
,3360.0,753.0,2637.0,1058.0,1841.0,3212.0,1440.0,,,,-1.60613102759476,-2.98842490315864,-1.12023421520145,,-1.628902593350859,,
,3364.0,750.0,2637.0,1057.0,1834.0,3221.0,1420.0,,,,-1.60714143835915,-2.98840803872875,-1.12011681955316,,-1.3800545016504673,,
,3364.0,752.0,2637.0,1056.0,1827.0,3243.0,1438.0,,,,-1.60805095360491,-2.98840082172218,-1.12057442202236,,-1.095387823102235,,
,3363.0,752.0,2641.0,1057.0,1824.0,3232.0,1436.0,,,,-1.60821057271197,-2.98850453837897,-1.12021681939966,,-0.7748628195608966,,
,3364.0,750.0,2639.0,1057.0,1826.0,3224.0,1422.0,,,,-1.60951689345228,-2.98858714876996,-1.12024367583319,,-0.41963465589820464,,
,3362.0,749.0,2639.0,1059.0,1836.0,3223.0,1438.0,,,,-1.60948277246865,-2.98861857195554,-1.1206390093936,,-0.0321547193114563,,
,3366.0,754.0,2641.0,1060.0,1830.0,3224.0,1410.0,,,,-1.60915276618879,-2.98846036396286,-1.12111955264333,,0.3837493941286846,,
,3365.0,755.0,2642.0,1060.0,1817.0,3227.0,1409.0,,,,-1.60906785351432,-2.98860810161398,-1.12166340458588,,0.8228183111996293,,
,3366.0,752.0,2639.0,1059.0,1809.0,3236.0,1411.0,,,,-1.60933121984199,-2.9886931858247,-1.12091756124567,,1.278338105504566,,
,3364.0,755.0,2641.0,1059.0,1803.0,3219.0,1422.0,,,,-1.60964875947826,-2.98868999029267,-1.12159816788034,,1.7421635658486039,,
,3367.0,753.0,2642.0,1060.0,1802.0,3231.0,1424.0,,,,-1.60970704772514,-2.98845485785313,-1.12044287602465,,2.2048039540416995,,
,3367.0,753.0,2642.0,1062.0,1797.0,3233.0,1424.0,,,,-1.60972308336667,-2.98858434699904,-1.12168769212153,,2.6555881041580665,,
,3364.0,750.0,2640.0,1059.0,1816.0,3208.0,1447.0,,,,-1.60986810757411,-2.9886563327993,-1.12151394475949,,3.0829226586716643,,
,3363.0,751.0,2640.0,1059.0,1822.0,3231.0,1426.0,,,,-1.6095185305234,-2.98877916300996,-1.12113016034246,,3.4746506402242496,,
,3369.0,754.0,2643.0,1058.0,1813.0,3238.0,1396.0,,,,-1.60958354995864,-2.98860831751135,-1.12138481743789,,3.818507962051763,,
,3368.0,755.0,2643.0,1061.0,1822.0,3248.0,1407.0,,,,-1.60941552766239,-2.98847743913077,-1.12071729559035,,4.102663950585243,,
,3369.0,753.0,2640.0,1059.0,1812.0,3239.0,1406.0,,,,-1.60964440499676,-2.98840994370525,-1.12100580814026,,4.316319899530981,,
,3365.0,753.0,2643.0,1059.0,1829.0,3233.0,1413.0,,,,-1.60959284327034,-2.98865064626062,-1.12136546367602,,4.450328500962473,,
,3369.0,755.0,2645.0,1062.0,1829.0,3234.0,1409.0,,,,-1.60912362321253,-2.98868164113239,-1.12069357275983,,4.4977878485278975,,
,3368.0,755.0,2644.0,1060.0,1825.0,3236.0,1410.0,,,,-1.60895532489273,-2.9885848748313,-1.1204154995234,,4.454557799136305,,
2025-08-06 22:58:00,3367.0,753.0,2643.0,1060.0,1830.0,3233.0,1427.0,,,2025/08/06 10:58:00 PM,-1.60846586813287,-2.98865030738739,-1.12074497605076,,4.319645700082615,,
,3370.0,754.0,2644.0,1061.0,1816.0,3231.0,1444.0,,,,-1.60877048877758,-2.98840897592117,-1.1205806363899,,4.095415023409414,,
,3374.0,755.0,2644.0,1061.0,1806.0,3228.0,1432.0,,,,-1.60865459492248,-2.98841088678789,-1.12017228529095,,3.7875851997772587,,
,3370.0,754.0,2646.0,1062.0,1814.0,3232.0,1428.0,,,,-1.60771938287304,-2.98839364985279,-1.11941222790724,,3.4050121991231217,,
,3371.0,757.0,2646.0,1061.0,1807.0,3234.0,1427.0,,,,-1.60765380882873,-2.98842763980002,-1.12027340776591,,2.9592631190178365,,
,3371.0,754.0,2646.0,1059.0,1807.0,3232.0,1445.0,,,,-1.60756887549059,-2.98833604762901,-1.119726377618,,2.464019517715742,,
,3372.0,757.0,2647.0,1063.0,1818.0,3215.0,1412.0,,,,-1.60659467198446,-2.98840861146716,-1.11924308040607,,1.9343599369669027,,
,3372.0,753.0,2646.0,1062.0,1821.0,3215.0,1409.0,,,,-1.60703425535225,-2.98832056116409,-1.11960490512389,,1.3859804082201779,,
,3372.0,754.0,2646.0,1062.0,1813.0,3210.0,1391.0,,,,-1.60682808088962,-2.98819050975204,-1.11950754148273,,0.8344127017270602,,
,3373.0,756.0,2648.0,1061.0,1818.0,3229.0,1408.0,,,,-1.60630118162433,-2.98825969428,-1.11927165456744,,0.294294589000348,,
,3373.0,754.0,2649.0,1066.0,1826.0,3225.0,1390.0,,,,-1.60716310244653,-2.98823687764464,-1.1189181003771,,-0.22126391546870972,,
,3376.0,756.0,2648.0,1061.0,1828.0,3222.0,1412.0,,,,-1.60645052107376,-2.98827039721847,-1.11829010389485,,-0.7011872684058327,,
,3375.0,757.0,2651.0,1064.0,1818.0,3219.0,1403.0,,,,-1.60636733703428,-2.98821974624858,-1.1189693608623,,-1.1367961120973287,,
,3375.0,755.0,2649.0,1064.0,1826.0,3207.0,1409.0,,,,-1.60676621786595,-2.98815546002733,-1.11956788885766,,-1.522017388906232,,
,3376.0,755.0,2652.0,1065.0,1834.0,3201.0,1402.0,,,,-1.60628009479461,-2.98817251287793,-1.11918884713146,,-1.8534448596123483,,
,3375.0,756.0,2651.0,1063.0,1819.0,3218.0,1387.0,,,,-1.60566521840561,-2.98819981590202,-1.11893101339308,,-2.1302581161760576,,
,3377.0,756.0,2650.0,1062.0,1829.0,3212.0,1406.0,,,,-1.6068323266959,-2.98822464634736,-1.11920827116824,,-2.3540129267710306,,
,3378.0,755.0,2651.0,1063.0,1841.0,3206.0,1436.0,,,,-1.60569365340753,-2.98818114960355,-1.11880656244483,,-2.5283203482682395,,
,3378.0,757.0,2653.0,1065.0,1835.0,3226.0,1425.0,,,,-1.60609336841066,-2.98829976473413,-1.1188803374655,,-2.658436778349699,,
,3379.0,757.0,2653.0,1064.0,1834.0,3237.0,1415.0,,,,-1.60561437166397,-2.98836459291666,-1.11846727235387,,-2.7507913142539966,,
,3379.0,756.0,2652.0,1067.0,1821.0,3241.0,1393.0,,,,-1.6053750516506,-2.98823310518476,-1.11878625026447,,-2.812479496522479,,
,3375.0,753.0,2650.0,1062.0,1854.0,3242.0,1406.0,,,,-1.60475690230522,-2.98837017503735,-1.11841858335718,,-2.8507532208450748,,
,3378.0,756.0,2653.0,1066.0,1848.0,3247.0,1403.0,,,,-1.60503185865474,-2.98823023703245,-1.11769148677965,,-2.8725353323657283,,
,3377.0,756.0,2651.0,1067.0,1841.0,3262.0,1412.0,,,,-1.60355820449628,-2.98832841093976,-1.11808836015419,,-2.883984545643628,,
,3371.0,755.0,2651.0,1065.0,1824.0,3251.0,1397.0,,,,-1.60384165854817,-2.98843193882611,-1.1177390837481,,-2.890132355497721,,
,3369.0,752.0,2648.0,1062.0,1838.0,3248.0,1400.0,,,,-1.60365007896812,-2.98820098130634,-1.11827464970904,,-2.894609027884514,,
,3370.0,751.0,2646.0,1063.0,1811.0,3226.0,1388.0,,,,-1.60417448688578,-2.98828113157319,-1.11750738160441,,-2.899470975920436,,
,3368.0,752.0,2646.0,1060.0,1805.0,3218.0,1398.0,,,,-1.60319670933779,-2.98836244700291,-1.11731783014035,,-2.9051369268121645,,
,3366.0,751.0,2642.0,1060.0,1803.0,3227.0,1402.0,,,,-1.60388664859897,-2.98828262630393,-1.11814156822135,,-2.910435011410028,,
,3362.0,749.0,2643.0,1058.0,1815.0,3223.0,1406.0,,,,-1.60386387780177,-2.98819646829447,-1.11804415174754,,-2.9127568453303505,,
,3365.0,750.0,2643.0,1058.0,1816.0,3198.0,1411.0,,,,-1.60367399179606,-2.98833848956027,-1.11800461460814,,-2.908307581562751,,
,3362.0,750.0,2643.0,1061.0,1802.0,3197.0,1397.0,,,,-1.60435435828957,-2.98827414630889,-1.11712531316531,,-2.892433001467242,,
,3360.0,751.0,2640.0,1058.0,1808.0,3219.0,1377.0,,,,-1.6037702069545,-2.98821578974617,-1.11784155223124,,-2.85999680226892,,
,3358.0,747.0,2640.0,1055.0,1821.0,3216.0,1388.0,,,,-1.60414691769918,-2.98830875162075,-1.11712169818275,,-2.805774896334562,,
,3362.0,750.0,2639.0,1056.0,1815.0,3217.0,1400.0,,,,-1.60339328990018,-2.98816192527011,-1.11875168709099,,-2.7248307565616767,,
,3358.0,747.0,2639.0,1055.0,1812.0,3217.0,1408.0,,,,-1.60392888669861,-2.98811810999468,-1.11762579130761,,-2.612838151452312,,
,3359.0,749.0,2638.0,1056.0,1821.0,3210.0,1386.0,,,,-1.60344085839062,-2.98834511794679,-1.11786441259949,,-2.466325171290753,,
,3356.0,746.0,2635.0,1058.0,1836.0,3228.0,1410.0,,,,-1.60339235970628,-2.98819233019742,-1.11802092652911,,-2.2828249657299753,,
,3358.0,748.0,2637.0,1058.0,1820.0,3242.0,1401.0,,,,-1.6024351775716,-2.98804473020907,-1.11784770028306,,-2.0609320432502267,,
,3359.0,746.0,2637.0,1055.0,1816.0,3232.0,1398.0,,,,-1.60200841539286,-2.98815377698154,-1.11753622637268,,-1.8002761563474186,,
,3358.0,748.0,2639.0,1057.0,1827.0,3255.0,1392.0,,,,-1.60235836800007,-2.98813247456877,-1.11727188330719,,-1.501436655953737,,
,3355.0,746.0,2634.0,1054.0,1847.0,3238.0,1402.0,,,,-1.60271487243482,-2.98818418842077,-1.11755388605272,,-1.1658270038275416,,
,3358.0,748.0,2636.0,1057.0,1839.0,3243.0,1369.0,,,,-1.60238561812173,-2.98802592962281,-1.1174811658441,,-0.7955809365611972,,
,3359.0,746.0,2637.0,1055.0,1831.0,3243.0,1374.0,,,,-1.60183780227599,-2.9880244701531,-1.11765369576178,,-0.39346877935371644,,
,3355.0,748.0,2635.0,1059.0,1826.0,3238.0,1377.0,,,,-1.60126406709014,-2.98787071506764,-1.11779246093461,,0.0371343371083341,,
,3354.0,746.0,2634.0,1056.0,1847.0,3231.0,1379.0,,,,-1.60198157927679,-2.987926123641,-1.11777597881344,,0.4922159635032434,,
,3355.0,745.0,2635.0,1057.0,1831.0,3220.0,1385.0,,,,-1.60091609048471,-2.98782131415972,-1.11648649069664,,0.9670284066528502,,
,3356.0,745.0,2637.0,1057.0,1830.0,3219.0,1400.0,,,,-1.60003303009672,-2.98787166194447,-1.11674849170198,,1.455937014788497,,
,3358.0,748.0,2636.0,1055.0,1819.0,3237.0,1415.0,,,,-1.60073852541926,-2.98792360440479,-1.11686257147122,,1.9522396572619367,,
,3355.0,747.0,2635.0,1054.0,1830.0,3222.0,1407.0,,,,-1.60062570139322,-2.98792364373065,-1.117226907418,,2.4479947180351957,,
,3356.0,748.0,2636.0,1055.0,1815.0,3202.0,1430.0,,,,-1.59970896062617,-2.98791246268412,-1.11655724807786,,2.93390383649896,,
,3356.0,746.0,2634.0,1056.0,1803.0,3203.0,1418.0,,,,-1.59972417323184,-2.98803145101077,-1.11723797326033,,3.399298553539733,,
,3356.0,744.0,2634.0,1054.0,1831.0,3205.0,1423.0,,,,-1.5997808945948,-2.98799339298617,-1.11754365624179,,3.8322751636927626,,
,3355.0,745.0,2633.0,1054.0,1828.0,3209.0,1408.0,,,,-1.59912154529555,-2.98783221513726,-1.11756988499749,,4.220009157237518,,
,3357.0,748.0,2636.0,1056.0,1804.0,3209.0,1384.0,,,,-1.60030800895328,-2.98792172902747,-1.11654354113399,,4.549260807540982,,
,3356.0,746.0,2636.0,1057.0,1814.0,3227.0,1418.0,,,,-1.59916338105193,-2.98787621730939,-1.11616645709817,,4.807058710750031,,
,3357.0,743.0,2637.0,1055.0,1817.0,3235.0,1401.0,,,,-1.59980409743131,-2.98789182614322,-1.11652195708919,,4.981520976096355,,
,3354.0,746.0,2633.0,1054.0,1799.0,3214.0,1407.0,,,,-1.59892331228147,-2.98793517416127,-1.11574255143004,,5.062747588427326,,
,3357.0,744.0,2635.0,1053.0,1815.0,3243.0,1395.0,,,,-1.59908053560669,-2.98786996393748,-1.11644020223228,,5.043696344357695,,
,3354.0,745.0,2634.0,1055.0,1835.0,3230.0,1420.0,,,,-1.59861074522061,-2.9879061745109,-1.11548669344206,,4.920943215418186,,
,3353.0,745.0,2634.0,1055.0,1828.0,3227.0,1416.0,,,,-1.59893841297287,-2.9879947235898,-1.11630497245034,,4.695229863761987,,
,3354.0,741.0,2635.0,1054.0,1828.0,3222.0,1420.0,,,,-1.59789770978745,-2.98788160295505,-1.11538291681529,,4.371718142609432,,
,3355.0,745.0,2632.0,1056.0,1825.0,3216.0,1415.0,,,,-1.59741819917745,-2.98779969972179,-1.11529951956461,,3.959902395965154,,
,3352.0,745.0,2635.0,1054.0,1824.0,3241.0,1426.0,,,,-1.5966583265791,-2.98773693653521,-1.11491639472943,,3.473170380207346,,
,3353.0,742.0,2633.0,1055.0,1822.0,3234.0,1442.0,,,,-1.5960088129497,-2.98768922911776,-1.11474390286495,,2.9280453583968105,,
,3352.0,743.0,2633.0,1053.0,1807.0,3223.0,1441.0,,,,-1.59589458045228,-2.98764461845275,-1.11441088007042,,2.343177976555057,,
,3351.0,742.0,2633.0,1055.0,1803.0,3227.0,1417.0,,,,-1.59537791155199,-2.98758498938372,-1.11444620736703,,1.7381819209043357,,
,3355.0,746.0,2634.0,1054.0,1809.0,3227.0,1419.0,,,,-1.59462793262226,-2.98771031307389,-1.1141823149831,,1.1324202369382452,,
,3355.0,745.0,2635.0,1055.0,1818.0,3214.0,1426.0,,,,-1.59468113488384,-2.98788788027255,-1.11417185787525,,0.543849731846668,,
,3356.0,740.0,2631.0,1053.0,1814.0,3221.0,1442.0,,,,-1.59345095245378,-2.98767847097378,-1.1134780025047,,-0.011979918338733216,,
,3355.0,743.0,2633.0,1057.0,1803.0,3211.0,1435.0,,,,-1.59372445039403,-2.98762407020259,-1.11324363795873,,-0.5226959561515317,,
,3356.0,745.0,2635.0,1056.0,1813.0,3210.0,1415.0,,,,-1.59223533248253,-2.98778657728248,-1.11338953059727,,-0.9795912839411887,,
,3352.0,745.0,2635.0,1054.0,1808.0,3209.0,1406.0,,,,-1.59239947771517,-2.98762627609252,-1.11321334737249,,-1.3778110448049707,,
,3354.0,743.0,2632.0,1055.0,1807.0,3215.0,1381.0,,,,-1.59247679026351,-2.98752620742205,-1.11249872934996,,-1.7162435889748917,,
,3355.0,744.0,2634.0,1053.0,1834.0,3226.0,1392.0,,,,-1.59165596625265,-2.98762929102422,-1.11278181722735,,-1.9971462715210142,,
,3357.0,744.0,2633.0,1052.0,1817.0,3255.0,1434.0,,,,-1.59160479184647,-2.98762261353954,-1.11141876387401,,-2.225555074628167,,
,3356.0,745.0,2636.0,1057.0,1822.0,3252.0,1439.0,,,,-1.5914101171016,-2.98765149111142,-1.1117499493624,,-2.4085394988723907,,
,3356.0,744.0,2633.0,1055.0,1807.0,3227.0,1431.0,,,,-1.59052841029649,-2.98763619179206,-1.11219925351013,,-2.554370486537564,,
,3356.0,741.0,2635.0,1057.0,1824.0,3233.0,1423.0,,,,-1.59049527913873,-2.98749745162613,-1.1116698970524,,-2.671669869355824,,
,3357.0,745.0,2636.0,1056.0,1819.0,3231.0,1409.0,,,,-1.59009032013922,-2.98742991999845,-1.11126490252742,,-2.768605858612827,,
,3358.0,744.0,2636.0,1058.0,1822.0,3214.0,1409.0,,,,-1.58913185607784,-2.98756673390816,-1.11095684750456,,-2.8521912980283757,,
,3358.0,742.0,2635.0,1056.0,1834.0,3216.0,1417.0,,,,-1.58943227818065,-2.98748397075267,-1.11163918290817,,-2.9277304230460066,,
,3357.0,745.0,2635.0,1056.0,1817.0,3234.0,1420.0,,,,-1.5887678987217,-2.98741440306889,-1.11142550438978,,-2.9984461759770538,,
,3358.0,743.0,2636.0,1061.0,1805.0,3244.0,1412.0,,,,-1.58912327946687,-2.98764817313333,-1.11155201461946,,-3.0653042744405665,,
,3358.0,743.0,2638.0,1055.0,1810.0,3238.0,1409.0,,,,-1.58868487769665,-2.98759539967769,-1.11081739213394,,-3.127033242321987,,
,3358.0,743.0,2635.0,1057.0,1814.0,3231.0,1395.0,,,,-1.58943607608301,-2.98756928961217,-1.1105451599277,,-3.1803232139974433,,
,3357.0,744.0,2639.0,1058.0,1815.0,3220.0,1452.0,,,,-1.58909268233356,-2.98744604966641,-1.11077295551135,,-3.2201726899431575,,
,3361.0,745.0,2639.0,1059.0,1812.0,3232.0,1443.0,,,,-1.58888326044404,-2.98760334742681,-1.11063542897084,,-3.2403433229069076,,
,3360.0,744.0,2638.0,1058.0,1809.0,3232.0,1438.0,,,,-1.58908392325023,-2.98760165622629,-1.11094804688828,,-3.2338787928936337,,
,3358.0,743.0,2637.0,1057.0,1801.0,3229.0,1431.0,,,,-1.58903825214634,-2.98750906783212,-1.1106937936908,,-3.1936442363483506,,
,3357.0,743.0,2639.0,1058.0,1813.0,3233.0,1408.0,,,,-1.58864846152133,-2.98745724824659,-1.11051866779942,,-3.1128464683703263,,
,3361.0,746.0,2639.0,1059.0,1807.0,3241.0,1394.0,,,,-1.58880374149466,-2.98763440731333,-1.11039210997225,,-2.985501585889406,,
,3361.0,744.0,2637.0,1058.0,1813.0,3236.0,1383.0,,,,-1.58874822023486,-2.98754454782007,-1.11064750746507,,-2.806824997392454,,
,3361.0,744.0,2640.0,1056.0,1816.0,3217.0,1400.0,,,,-1.58840259167463,-2.98747859181822,-1.11050477900696,,-2.5735290292663415,,
,3363.0,746.0,2642.0,1059.0,1813.0,3226.0,1419.0,,,,-1.58905744787282,-2.98746097121675,-1.10953463940967,,-2.2840243232892434,,
,3364.0,746.0,2640.0,1060.0,1817.0,3242.0,1427.0,,,,-1.58934736337552,-2.98763639479542,-1.11048598624542,,-1.9385322418963293,,
,3364.0,748.0,2639.0,1060.0,1814.0,3234.0,1414.0,,,,-1.5900841472551,-2.98759489707858,-1.11064115474071,,-1.539124932932155,,
,3363.0,744.0,2640.0,1058.0,1802.0,3245.0,1419.0,,,,-1.59027245663015,-2.98749775613644,-1.11143137332625,,-1.0897156129680072,,
,3363.0,744.0,2639.0,1060.0,1806.0,3235.0,1423.0,,,,-1.59092997227883,-2.98760593972298,-1.11184883837367,,-0.5960221356710362,,
,3363.0,747.0,2643.0,1058.0,1812.0,3227.0,1411.0,,,,-1.59156460437627,-2.98763315064111,-1.11166677822633,,-0.06552113010852842,,
,3364.0,747.0,2642.0,1060.0,1817.0,3224.0,1430.0,,,,-1.59222841120225,-2.98778776587242,-1.11231604068756,,0.49260134033151876,,
,3363.0,743.0,2640.0,1059.0,1807.0,3229.0,1432.0,,,,-1.59238302642359,-2.98780959686107,-1.11273097256241,,1.0675111435639295,,
,3366.0,746.0,2645.0,1060.0,1808.0,3241.0,1454.0,,,,-1.59205046973525,-2.98778388494217,-1.11265975516195,,1.6468220881551672,,
,3365.0,747.0,2642.0,1062.0,1824.0,3239.0,1457.0,,,,-1.59302978111919,-2.98781874668478,-1.11305961336622,,2.216758893652082,,
,3367.0,744.0,2642.0,1059.0,1825.0,3241.0,1443.0,,,,-1.59376017836964,-2.98776607610667,-1.11344751319113,,2.7624216326132633,,
,3364.0,746.0,2642.0,1060.0,1829.0,3235.0,1440.0,,,,-1.59369323618696,-2.98769617626291,-1.11309731481549,,3.2681796355988633,,
,3366.0,746.0,2644.0,1059.0,1816.0,3232.0,1450.0,,,,-1.59360740069655,-2.98795095209786,-1.11277327410754,,3.7182084983448704,,
,3367.0,748.0,2643.0,1062.0,1810.0,3229.0,1430.0,,,,-1.59296001233295,-2.98778208742038,-1.11353739128502,,4.097163886982639,,
,3368.0,746.0,2645.0,1064.0,1808.0,3227.0,1411.0,,,,-1.59399643617445,-2.98778884739031,-1.11296064957483,,4.39096317588748,,
,3365.0,745.0,2643.0,1060.0,1822.0,3232.0,1406.0,,,,-1.59394108125454,-2.98762246898369,-1.11273514631518,,4.587623817286126,,
,3367.0,748.0,2647.0,1064.0,1803.0,3226.0,1429.0,,,,-1.59404686110189,-2.98775728914201,-1.11340359379054,,4.678089197862778,,
,3368.0,747.0,2646.0,1067.0,1813.0,3243.0,1409.0,,,,-1.59511928721203,-2.98792296269132,-1.11373395078418,,4.656961794319192,,
,3368.0,746.0,2648.0,1063.0,1807.0,3237.0,1409.0,,,,-1.59469358644845,-2.98798626586801,-1.11373584510948,,4.5230619552922855,,
,3371.0,748.0,2647.0,1064.0,1818.0,3217.0,1411.0,,,,-1.59445083442247,-2.98786615814765,-1.11389737798124,,4.279739596977557,,
,3368.0,747.0,2647.0,1062.0,1809.0,3240.0,1435.0,,,,-1.59526260148573,-2.98786068999182,-1.11315860562043,,3.9348853900423713,,
,3370.0,748.0,2648.0,1064.0,1800.0,3231.0,1419.0,,,,-1.594301038755,-2.98811343430746,-1.11371779482352,,3.500616317530757,,
,3370.0,746.0,2650.0,1065.0,1810.0,3221.0,1413.0,,,,-1.59482795430887,-2.98803420336921,-1.11353586357609,,2.9926446142854566,,
,3370.0,747.0,2650.0,1063.0,1813.0,3213.0,1430.0,,,,-1.59452852193493,-2.98804279293434,-1.11303993264604,,2.4293739832098797,,
,3371.0,748.0,2650.0,1064.0,1799.0,3220.0,1414.0,,,,-1.59499646226534,-2.9879668863991,-1.11361676111113,,1.8307971282962476,,
,3372.0,748.0,2648.0,1065.0,1795.0,3230.0,1428.0,,,,-1.59461386038798,-2.98801357231846,-1.11331803203862,,1.2172898935033387,,
,3373.0,747.0,2650.0,1067.0,1804.0,3223.0,1447.0,,,,-1.59402700978581,-2.98797943931121,-1.11394081035309,,0.6084073134343103,,
,3372.0,746.0,2649.0,1064.0,1821.0,3216.0,1442.0,,,,-1.59482676052079,-2.98806258020852,-1.11367002718765,,0.021784770489404755,,
,3373.0,748.0,2651.0,1066.0,1810.0,3217.0,1425.0,,,,-1.59480938398372,-2.98809639272936,-1.11373670939939,,-0.5277662126781105,,
,3375.0,751.0,2652.0,1067.0,1801.0,3225.0,1430.0,,,,-1.59442053973281,-2.9880725228403,-1.11323807596261,,-1.0289008926924095,,
,3375.0,747.0,2651.0,1065.0,1806.0,3226.0,1427.0,,,,-1.59515875605021,-2.9880549308423,-1.11351512457683,,-1.4740846048516052,,
,3375.0,747.0,2651.0,1068.0,1810.0,3227.0,1425.0,,,,-1.59436053395725,-2.98800694983005,-1.11367975925042,,-1.859627709389714,,
,3377.0,750.0,2654.0,1065.0,1792.0,3230.0,1410.0,,,,-1.59490115346779,-2.98810140221213,-1.11339517940945,,-2.1854307600571987,,
,3376.0,749.0,2654.0,1066.0,1798.0,3232.0,1408.0,,,,-1.59530174571843,-2.98798549108981,-1.11378121091905,,-2.4544810396278733,,
2025-08-06 22:58:01,3375.0,749.0,2654.0,1069.0,1811.0,3218.0,1409.0,,,2025/08/06 10:58:01 PM,-1.5948474764798,-2.98806023484869,-1.11315149274004,,-2.6721581495675832,,
,3377.0,749.0,2653.0,1067.0,1807.0,3223.0,1431.0,,,,-1.59542693667428,-2.98807529433224,-1.11287340380918,,-2.8454165220571213,,
,3378.0,750.0,2656.0,1069.0,1800.0,3226.0,1435.0,,,,-1.59506223599667,-2.98809716007861,-1.11377525480956,,-2.9819169045927834,,
,3378.0,748.0,2655.0,1069.0,1785.0,3237.0,1448.0,,,,-1.5946044923783,-2.98809741638691,-1.11284967963538,,-3.089177814924594,,
,3376.0,749.0,2656.0,1070.0,1796.0,3229.0,1413.0,,,,-1.59472078887795,-2.98826131111366,-1.11304065280556,,-3.1738124970501875,,
,3378.0,750.0,2655.0,1067.0,1799.0,3223.0,1437.0,,,,-1.59522209248079,-2.98812042194484,-1.11336310667467,,-3.240907645676071,,
,3381.0,751.0,2658.0,1069.0,1791.0,3244.0,1449.0,,,,-1.59566019135848,-2.98817670418555,-1.11313709384741,,-3.2935874863077266,,
,3381.0,751.0,2660.0,1070.0,1813.0,3264.0,1450.0,,,,-1.59533332513411,-2.9881788545648,-1.11295379393271,,-3.3327910098714133,,
,3382.0,750.0,2657.0,1069.0,1824.0,3253.0,1440.0,,,,-1.59573007600925,-2.98809333308349,-1.11305292720431,,-3.357271772668208,,
,3377.0,750.0,2655.0,1067.0,1815.0,3232.0,1430.0,,,,-1.59625307148986,-2.98828979572004,-1.1134962049486,,-3.3638097111962586,,
,3378.0,750.0,2656.0,1068.0,1810.0,3232.0,1407.0,,,,-1.59633007080988,-2.98838763774408,-1.11379713934619,,-3.347604748405729,,
,3375.0,749.0,2656.0,1067.0,1825.0,3228.0,1402.0,,,,-1.59637017239449,-2.98833060731626,-1.11370787347432,,-3.302805234267213,,
,3377.0,750.0,2655.0,1069.0,1826.0,3232.0,1417.0,,,,-1.5964014774377,-2.98825545999549,-1.11383472693508,,-3.2231131504244694,,
,3372.0,749.0,2653.0,1066.0,1803.0,3234.0,1438.0,,,,-1.5958398028337,-2.98826699527702,-1.11357808741939,,-3.1024042163827836,,
,3369.0,747.0,2654.0,1068.0,1807.0,3235.0,1427.0,,,,-1.59654066979594,-2.9882973631103,-1.11404696373581,,-2.935304879717895,,
,3369.0,745.0,2650.0,1066.0,1796.0,3225.0,1418.0,,,,-1.59738793708759,-2.98826727360438,-1.11402416467073,,-2.7176788313552582,,
,3369.0,744.0,2648.0,1065.0,1786.0,3218.0,1426.0,,,,-1.59684434646908,-2.98819000455996,-1.11349859211978,,-2.4469914389425194,,
,3366.0,745.0,2646.0,1062.0,1781.0,3229.0,1445.0,,,,-1.59655293652403,-2.98825993285776,-1.11395256526477,,-2.1225387488060603,,
,3366.0,745.0,2645.0,1060.0,1789.0,3208.0,1449.0,,,,-1.59609322903681,-2.98823177537409,-1.11387078123869,,-1.7455452790845551,,
,3365.0,745.0,2645.0,1063.0,1792.0,3212.0,1435.0,,,,-1.59567428258798,-2.98818652075606,-1.11350056210696,,-1.319148753792779,,
,3364.0,745.0,2644.0,1060.0,1794.0,3211.0,1430.0,,,,-1.59617794734329,-2.98833473418641,-1.1135680956017,,-0.8482984558172546,,
,3361.0,740.0,2640.0,1059.0,1795.0,3217.0,1430.0,,,,-1.5959225047258,-2.98836623858378,-1.11389530496976,,-0.33959680321410024,,
,3362.0,743.0,2643.0,1061.0,1789.0,3217.0,1453.0,,,,-1.5960553826267,-2.98833157272601,-1.11321664703656,,0.1988880583721694,,
,3361.0,742.0,2642.0,1060.0,1811.0,3219.0,1419.0,,,,-1.59585356316691,-2.98831701589139,-1.11383708413901,,0.757816271566528,,
,3360.0,743.0,2641.0,1061.0,1814.0,3223.0,1417.0,,,,-1.59544617453529,-2.98836126032014,-1.1140789347203,,1.3267626294124166,,
,3358.0,741.0,2642.0,1060.0,1799.0,3223.0,1430.0,,,,-1.59538171410878,-2.98831977923262,-1.11351375847696,,1.8943911129396311,,
,3360.0,741.0,2642.0,1060.0,1791.0,3224.0,1415.0,,,,-1.59605635724205,-2.98832294018107,-1.11400734429099,,2.4486245895591163,,
,3360.0,741.0,2639.0,1062.0,1791.0,3237.0,1419.0,,,,-1.59511434508366,-2.98841606141598,-1.11356474815678,,2.976827324871313,,
,3362.0,741.0,2639.0,1060.0,1806.0,3239.0,1427.0,,,,-1.59593101124557,-2.98825661353433,-1.11382382431574,,3.466025759096324,,
,3359.0,738.0,2639.0,1059.0,1805.0,3228.0,1424.0,,,,-1.59607566301884,-2.98844542659795,-1.11369940291146,,3.9031951893505346,,
,3360.0,741.0,2637.0,1058.0,1799.0,3238.0,1436.0,,,,-1.59595456682749,-2.98840501316249,-1.11369677496919,,4.2756346509237835,,
,3360.0,741.0,2640.0,1059.0,1829.0,3227.0,1421.0,,,,-1.59647210040416,-2.98828876172972,-1.11392819079947,,4.571439422911525,,
,3359.0,741.0,2637.0,1061.0,1820.0,3230.0,1414.0,,,,-1.59641917238789,-2.98842347187972,-1.11439864669409,,4.780062236068961,,
,3358.0,741.0,2638.0,1058.0,1794.0,3230.0,1429.0,,,,-1.5965404366353,-2.98846002549704,-1.11396129836141,,4.8929335202383495,,
,3358.0,740.0,2638.0,1059.0,1803.0,3230.0,1428.0,,,,-1.59633336312833,-2.98838644678405,-1.11443509948956,,4.904091137616813,,
,3357.0,743.0,2637.0,1059.0,1803.0,3238.0,1426.0,,,,-1.59684140593437,-2.98843753153835,-1.11358097656006,,4.810754301706196,,
,3358.0,741.0,2639.0,1060.0,1807.0,3233.0,1431.0,,,,-1.59738593169539,-2.98830345716591,-1.11398294648718,,4.613768314651281,,
,3358.0,739.0,2637.0,1057.0,1821.0,3256.0,1410.0,,,,-1.59718615956148,-2.98829379739537,-1.11354594506238,,4.317849736419248,,
,3358.0,741.0,2637.0,1058.0,1812.0,3230.0,1418.0,,,,-1.59734977320274,-2.98860077460764,-1.11459483341993,,3.9315774861388313,,
,3357.0,740.0,2638.0,1058.0,1809.0,3217.0,1438.0,,,,-1.59761661547321,-2.98846218912489,-1.11462419961739,,3.4671028456206283,,
,3358.0,740.0,2636.0,1058.0,1817.0,3219.0,1412.0,,,,-1.59760025736039,-2.98848223769369,-1.11416879901124,,2.9395853204029483,,
,3357.0,738.0,2635.0,1056.0,1815.0,3239.0,1428.0,,,,-1.59737928670161,-2.9884229691356,-1.11419421299888,,2.366394572089433,,
,3359.0,740.0,2634.0,1059.0,1792.0,3219.0,1426.0,,,,-1.59755902411648,-2.98856823625894,-1.11376332011199,,1.7661447337434804,,
,3358.0,740.0,2637.0,1060.0,1794.0,3214.0,1413.0,,,,-1.59716864811298,-2.98846319475514,-1.11443109901635,,1.157643126174355,,
,3357.0,741.0,2637.0,1056.0,1785.0,3223.0,1411.0,,,,-1.59794598959296,-2.98849854589357,-1.1144948545442,,0.5588409086311943,,
,3357.0,738.0,2636.0,1059.0,1787.0,3215.0,1386.0,,,,-1.59734087259247,-2.98851298254521,-1.11435739654781,,-0.014129671726694855,,
,3356.0,738.0,2637.0,1058.0,1801.0,3213.0,1433.0,,,,-1.59709390757761,-2.98861635636604,-1.11366947860914,,-0.5477566728932305,,
,3357.0,740.0,2635.0,1058.0,1788.0,3225.0,1424.0,,,,-1.59705362960823,-2.98862314264216,-1.11370305310428,,-1.0317300429946359,,
,3358.0,737.0,2636.0,1057.0,1798.0,3226.0,1426.0,,,,-1.59712004623307,-2.98862908430008,-1.1140412741034,,-1.4592663679781304,,
,3354.0,737.0,2634.0,1057.0,1790.0,3212.0,1442.0,,,,-1.59711517229948,-2.98843234615353,-1.11436236308467,,-1.8271636165589564,,
,3356.0,736.0,2632.0,1057.0,1795.0,3220.0,1454.0,,,,-1.59691985115627,-2.98867011219683,-1.11429629880227,,-2.135595892106156,,
,3356.0,738.0,2636.0,1056.0,1795.0,3222.0,1436.0,,,,-1.59750141479852,-2.9884228652475,-1.11409775326523,,-2.3876782894656574,,
,3357.0,738.0,2636.0,1057.0,1792.0,3223.0,1440.0,,,,-1.59621635865542,-2.98847731379331,-1.11403648202057,,-2.588847608828052,,
,3355.0,738.0,2635.0,1056.0,1793.0,3230.0,1439.0,,,,-1.59665718417701,-2.98854017459429,-1.11357492382701,,-2.74611536269823,,
,3356.0,735.0,2634.0,1057.0,1787.0,3218.0,1439.0,,,,-1.59735159964411,-2.98855320779562,-1.11397494197752,,-2.867255240383159,,
,3356.0,738.0,2635.0,1057.0,1790.0,3219.0,1431.0,,,,-1.59708890441647,-2.98859115020517,-1.11410524702144,,-2.9599883540427614,,
,3357.0,739.0,2636.0,1057.0,1790.0,3217.0,1441.0,,,,-1.59733780713562,-2.9886292604044,-1.11429216130537,,-3.031226791139866,,
,3356.0,737.0,2634.0,1056.0,1788.0,3232.0,1424.0,,,,-1.59656995190483,-2.98856945930706,-1.11388709551255,,-3.0864298915098876,,
,3360.0,736.0,2636.0,1057.0,1801.0,3225.0,1436.0,,,,-1.59648496668169,-2.98855817505317,-1.1131305917069,,-3.129118736808099,,
,3358.0,739.0,2633.0,1057.0,1793.0,3216.0,1410.0,,,,-1.59684251832135,-2.98854422047094,-1.11299998467887,,-3.160582793328268,,
,3359.0,738.0,2636.0,1059.0,1803.0,3223.0,1419.0,,,,-1.59673971194434,-2.9884770445944,-1.11373308154509,,-3.179798540339048,,
,3356.0,736.0,2632.0,1055.0,1795.0,3219.0,1444.0,,,,-1.59668597556185,-2.98848536665676,-1.11351236390583,,-3.1835634550437644,,
,3357.0,738.0,2632.0,1056.0,1789.0,3226.0,1427.0,,,,-1.59743402996689,-2.98845579287202,-1.11366100935824,,-3.166830609569018,,
,3360.0,739.0,2635.0,1055.0,1802.0,3233.0,1437.0,,,,-1.59745295848883,-2.98855768924093,-1.11397595135499,,-3.123210833764898,,
,3360.0,737.0,2638.0,1059.0,1803.0,3238.0,1437.0,,,,-1.59755284951699,-2.98862434992806,-1.11344011927914,,-3.0455932949353657,,
,3356.0,735.0,2635.0,1060.0,1788.0,3210.0,1445.0,,,,-1.59848902181806,-2.98857249256837,-1.11380050888852,,-2.926824370811306,,
,3357.0,740.0,2634.0,1058.0,1802.0,3222.0,1445.0,,,,-1.5985188443875,-2.98845820501261,-1.11407885211529,,-2.7603812526180525,,
,3359.0,739.0,2635.0,1060.0,1788.0,3231.0,1451.0,,,,-1.5978253624587,-2.98855501054392,-1.11494622094024,,-2.5409816266157628,,
,3359.0,740.0,2636.0,1059.0,1791.0,3233.0,1447.0,,,,-1.59779678836099,-2.98845535420659,-1.11445132837945,,-2.2650830339486228,,
,3360.0,738.0,2635.0,1057.0,1793.0,3231.0,1435.0,,,,-1.59850736935388,-2.98832690794414,-1.11454966366048,,-1.9312427632172773,,
,3359.0,740.0,2637.0,1057.0,1804.0,3228.0,1419.0,,,,-1.59822811784636,-2.98844102604349,-1.11448745849162,,-1.5403283120177227,,
,3361.0,739.0,2637.0,1059.0,1795.0,3224.0,1406.0,,,,-1.59888484339417,-2.98844848704973,-1.11446133827529,,-1.0955862118965307,,
,3363.0,741.0,2636.0,1061.0,1800.0,3216.0,1400.0,,,,-1.59921711539047,-2.98849115969866,-1.11451779635905,,-0.6025903057473312,,
,3359.0,739.0,2636.0,1058.0,1805.0,3221.0,1419.0,,,,-1.59797703508559,-2.98835030818887,-1.11439195825189,,-0.06909742268370453,,
,3362.0,739.0,2637.0,1059.0,1810.0,3214.0,1429.0,,,,-1.59890690091161,-2.98850750322436,-1.11456377155444,,0.49516157074537304,,
,3364.0,740.0,2638.0,1062.0,1805.0,3216.0,1439.0,,,,-1.59900776360118,-2.98839620158933,-1.1146326170271,,1.0787330323098585,,
,3366.0,743.0,2641.0,1061.0,1796.0,3217.0,1437.0,,,,-1.59900936380593,-2.98832382130158,-1.11434948646404,,1.6687211308032701,,
,3357.0,737.0,2636.0,1059.0,1795.0,3227.0,1444.0,,,,-1.59883551681336,-2.98843577390298,-1.11394397051478,,2.2510953768341597,,
,3363.0,738.0,2638.0,1060.0,1795.0,3227.0,1427.0,,,,-1.59885025724081,-2.98833928529699,-1.11453524405416,,2.81103229844702,,
,3363.0,741.0,2641.0,1061.0,1796.0,3229.0,1434.0,,,,-1.5987566913838,-2.98853272704329,-1.11348330946168,,3.333304965457174,,
,3365.0,742.0,2641.0,1062.0,1800.0,3223.0,1432.0,,,,-1.59817455787348,-2.98860872035174,-1.11426807070216,,3.8027357540696904,,
,3364.0,740.0,2639.0,1060.0,1792.0,3224.0,1414.0,,,,-1.59856949366684,-2.98854227087975,-1.11429104229972,,4.204723238993413,,
,3365.0,740.0,2641.0,1058.0,1793.0,3212.0,1441.0,,,,-1.59908434472827,-2.98854458454964,-1.11454552268633,,4.525842772661067,,
,3366.0,738.0,2640.0,1059.0,1802.0,3206.0,1430.0,,,,-1.59960450832466,-2.9883649521355,-1.1147065816046,,4.754503085835179,,
,3367.0,741.0,2640.0,1061.0,1792.0,3212.0,1444.0,,,,-1.60038214459749,-2.98857892183249,-1.11499374285833,,4.881621137026138,,
,3365.0,740.0,2640.0,1062.0,1795.0,3243.0,1443.0,,,,-1.601283833988,-2.9887664947725,-1.11558103472399,,4.901259036396313,,
,3368.0,742.0,2642.0,1063.0,1818.0,3230.0,1393.0,,,,-1.60091877489838,-2.98865283515831,-1.11489958946124,,4.811155012402599,,
,3367.0,740.0,2643.0,1061.0,1800.0,3231.0,1402.0,,,,-1.60235941245557,-2.98877404499328,-1.11589075098287,,4.613078930037798,,
,3368.0,742.0,2641.0,1061.0,1789.0,3234.0,1419.0,,,,-1.60251325399593,-2.98880296353138,-1.11656383937644,,4.3129537968872675,,
,3368.0,743.0,2643.0,1062.0,1791.0,3219.0,1450.0,,,,-1.60325782644552,-2.98864986431535,-1.11679749887222,,3.9207073363711364,,
,3367.0,740.0,2644.0,1061.0,1802.0,3226.0,1454.0,,,,-1.60307456773976,-2.98861782967903,-1.11671719816416,,3.4498482246357405,,
,3369.0,741.0,2643.0,1064.0,1798.0,3216.0,1442.0,,,,-1.60401762339706,-2.98874138781162,-1.11667740717051,,2.9167936240130956,,
,3369.0,742.0,2646.0,1062.0,1802.0,3215.0,1435.0,,,,-1.60400496134449,-2.98861130465179,-1.11724838754108,,2.3400015499806788,,
,3369.0,742.0,2644.0,1063.0,1794.0,3240.0,1422.0,,,,-1.60406557147947,-2.98880824036937,-1.11699114883607,,1.7389790501646571,,
,3370.0,739.0,2642.0,1064.0,1809.0,3234.0,1412.0,,,,-1.60393157824752,-2.98888409275657,-1.11731895299191,,1.1332442877657136,,
,3372.0,744.0,2645.0,1064.0,1789.0,3236.0,1416.0,,,,-1.60401386568754,-2.98878918380705,-1.11687041604279,,0.5413189974207262,,
,3371.0,744.0,2645.0,1064.0,1798.0,3244.0,1399.0,,,,-1.60348805902406,-2.98891370454179,-1.11673942012273,,-0.020180309881773606,,
,3371.0,741.0,2647.0,1064.0,1801.0,3235.0,1420.0,,,,-1.60417106750842,-2.98878652057638,-1.11693525220589,,-0.5372964058063288,,
,3371.0,742.0,2647.0,1065.0,1795.0,3229.0,1418.0,,,,-1.60478323214069,-2.98874326659227,-1.11641850266751,,-0.9992893389049372,,
,3373.0,742.0,2648.0,1065.0,1806.0,3224.0,1419.0,,,,-1.60378971256005,-2.98884931574208,-1.11719236443923,,-1.3989724985647025,,
,3372.0,742.0,2647.0,1065.0,1804.0,3224.0,1441.0,,,,-1.60502272904067,-2.98859277624781,-1.11720137017974,,-1.7328165853792634,,
,3372.0,741.0,2648.0,1063.0,1797.0,3218.0,1425.0,,,,-1.60491041512101,-2.98871385695767,-1.11726003926225,,-2.00082695102107,,
,3373.0,742.0,2648.0,1063.0,1790.0,3232.0,1436.0,,,,-1.60371339144559,-2.98891287786822,-1.11698451874342,,-2.2062144320142356,,
,3374.0,745.0,2648.0,1064.0,1806.0,3243.0,1402.0,,,,-1.60398863586077,-2.98875370607165,-1.11701498446067,,-2.3548921422267615,,
,3375.0,744.0,2652.0,1070.0,1804.0,3243.0,1395.0,,,,-1.60420841627306,-2.98871118965795,-1.1173638688926,,-2.454839610496174,,
,3376.0,744.0,2652.0,1067.0,1799.0,3240.0,1448.0,,,,-1.60350976716082,-2.98871113149393,-1.1169088661139,,-2.515380776704941,,
,3372.0,744.0,2650.0,1063.0,1776.0,3235.0,1424.0,,,,-1.60340587379485,-2.9886874610807,-1.11592252659604,,-2.546423991963978,,
,3378.0,743.0,2650.0,1065.0,1781.0,3233.0,1451.0,,,,-1.60355826287116,-2.98860836983178,-1.11631077036433,,-2.557710975100793,,
,3378.0,740.0,2651.0,1066.0,1787.0,3228.0,1447.0,,,,-1.60312709765639,-2.98877730806587,-1.11634195551375,,-2.558118396792308,,
,3378.0,743.0,2652.0,1065.0,1782.0,3231.0,1423.0,,,,-1.60302889336321,-2.9887739177273,-1.11604465890116,,-2.555051000209685,,
,3377.0,743.0,2650.0,1066.0,1806.0,3239.0,1432.0,,,,-1.60338131354269,-2.98873228855445,-1.11664792203085,,-2.5539592568272047,,
,3378.0,745.0,2653.0,1069.0,1816.0,3232.0,1434.0,,,,-1.60336981057565,-2.98878027117038,-1.11640085043804,,-2.5580075201803893,,
,3382.0,744.0,2655.0,1070.0,1814.0,3239.0,1428.0,,,,-1.60383399649059,-2.98888622024543,-1.11668228047091,,-2.5679103174619793,,
,3381.0,745.0,2654.0,1068.0,1814.0,3228.0,1430.0,,,,-1.60261605969505,-2.98875232256347,-1.1167519512586,,-2.5819446781144633,,
,3380.0,743.0,2654.0,1064.0,1808.0,3217.0,1457.0,,,,-1.60289599043684,-2.98868041365692,-1.11605239426757,,-2.596135313752686,,
,3380.0,745.0,2654.0,1069.0,1821.0,3240.0,1436.0,,,,-1.60387752551242,-2.98870047870265,-1.1173139327338,,-2.6045975171952147,,
,3384.0,746.0,2656.0,1069.0,1826.0,3233.0,1414.0,,,,-1.60308099435738,-2.98873300381792,-1.11689450452616,,-2.600011015581453,,
,3384.0,746.0,2657.0,1069.0,1815.0,3208.0,1435.0,,,,-1.60332263383738,-2.9887815320178,-1.11682247089847,,-2.5741885356633087,,
,3385.0,744.0,2656.0,1070.0,1825.0,3210.0,1429.0,,,,-1.60193973996082,-2.98870625668848,-1.11597239395448,,-2.518697280645604,,
,3384.0,746.0,2658.0,1071.0,1825.0,3214.0,1420.0,,,,-1.60171990533147,-2.98856286275159,-1.11648885972158,,-2.425490588728108,,
,3383.0,747.0,2660.0,1072.0,1814.0,3231.0,1402.0,,,,-1.60119829011368,-2.98848189087859,-1.11588143627842,,-2.287510213622648,,
,3383.0,748.0,2658.0,1072.0,1803.0,3218.0,1402.0,,,,-1.60121639718996,-2.98856157154703,-1.11572929842715,,-2.099225823643942,,
,3384.0,745.0,2657.0,1068.0,1817.0,3221.0,1457.0,,,,-1.60131359364593,-2.98850250153762,-1.11583902964216,,-1.8570863369318946,,
,3383.0,747.0,2656.0,1072.0,1819.0,3218.0,1450.0,,,,-1.601384009772,-2.98854823629421,-1.11568077277965,,-1.5598664414678192,,
,3387.0,743.0,2661.0,1071.0,1823.0,3226.0,1439.0,,,,-1.60077370618046,-2.98858436416037,-1.11537230035965,,-1.208899747336545,,
,3386.0,746.0,2657.0,1070.0,1818.0,3224.0,1413.0,,,,-1.60097374955139,-2.98851210623272,-1.1155918026787,,-0.8081962250395748,,
,3384.0,746.0,2661.0,1070.0,1810.0,3239.0,1430.0,,,,-1.60083987905477,-2.98851319554288,-1.11542769841518,,-0.3644452562635006,,
,3384.0,748.0,2660.0,1071.0,1808.0,3238.0,1425.0,,,,-1.60045962397815,-2.98845429447589,-1.11545006479535,,0.11309303605429091,,
2025-08-06 22:58:02,3383.0,746.0,2660.0,1069.0,1806.0,3223.0,1425.0,,,2025/08/06 10:58:02 PM,-1.6007139016018,-2.98856424310707,-1.11530708119726,,0.612805741051601,,
,3383.0,745.0,2657.0,1070.0,1818.0,3231.0,1412.0,,,,-1.6000110593107,-2.98860345938257,-1.11499386590427,,1.1210528507425073,,
,3380.0,742.0,2655.0,1068.0,1813.0,3228.0,1412.0,,,,-1.60051388282528,-2.98859977787875,-1.11457972337061,,1.6225998170770992,,
,3380.0,745.0,2657.0,1069.0,1796.0,3248.0,1421.0,,,,-1.60010034181459,-2.98855589649795,-1.11483073966024,,2.1011556531497555,,
,3379.0,745.0,2655.0,1067.0,1789.0,3225.0,1418.0,,,,-1.59996991371464,-2.98861154112019,-1.1148681810807,,2.540012612117908,,
,3378.0,744.0,2654.0,1066.0,1795.0,3221.0,1433.0,,,,-1.59920745569668,-2.98849065265092,-1.11481998028359,,2.9227774411466796,,
,3374.0,742.0,2651.0,1065.0,1802.0,3218.0,1449.0,,,,-1.59919650500022,-2.98862287161408,-1.11497568712409,,3.234173948233031,,
,3375.0,741.0,2649.0,1065.0,1791.0,3230.0,1444.0,,,,-1.59909937319067,-2.9886004622827,-1.11461278806719,,3.460882531815712,,
,3373.0,741.0,2648.0,1063.0,1804.0,3214.0,1409.0,,,,-1.59943395094198,-2.98858086767538,-1.11484618728303,,3.592366495370449,,
,3375.0,743.0,2650.0,1065.0,1803.0,3222.0,1418.0,,,,-1.59920084570886,-2.98858541779649,-1.11458003640342,,3.621620808697025,,
,3371.0,740.0,2646.0,1060.0,1804.0,3217.0,1423.0,,,,-1.59957402046175,-2.98843767820076,-1.11461087549958,,3.545770394300096,,
,3372.0,739.0,2646.0,1063.0,1801.0,3219.0,1436.0,,,,-1.59943285193188,-2.98855430543275,-1.11503212919387,,3.3664456275808554,,
,3371.0,737.0,2646.0,1061.0,1805.0,3230.0,1424.0,,,,-1.5984068392363,-2.9885082678316,-1.11533751933822,,3.089875009167311,,
,3372.0,738.0,2645.0,1065.0,1799.0,3239.0,1423.0,,,,-1.59872870808591,-2.98844888015456,-1.11404129122862,,2.7266591451812814,,
,3372.0,739.0,2643.0,1062.0,1788.0,3228.0,1410.0,,,,-1.59896263182446,-2.98844436960628,-1.1146772534216,,2.291223396639608,,
,3369.0,738.0,2644.0,1061.0,1799.0,3228.0,1405.0,,,,-1.59901004989684,-2.98860120782373,-1.11514563278056,,1.8009830146400467,,
,3371.0,740.0,2644.0,1062.0,1814.0,3227.0,1397.0,,,,-1.5983188792861,-2.9884988625823,-1.11482253605623,,1.2752872215827804,,
,3371.0,740.0,2645.0,1063.0,1810.0,3235.0,1403.0,,,,-1.59933515810792,-2.9885137227523,-1.11485869011916,,0.7342318545704156,,
,3372.0,738.0,2643.0,1060.0,1818.0,3254.0,1402.0,,,,-1.59888569255512,-2.98840143639745,-1.11506799340809,,0.1974412944261421,,
,3372.0,739.0,2645.0,1060.0,1818.0,3240.0,1397.0,,,,-1.5985611099227,-2.98851210116996,-1.11435105409251,,-0.3170800633639932,,
,3372.0,740.0,2644.0,1062.0,1801.0,3238.0,1389.0,,,,-1.59824888791149,-2.98825239343015,-1.11440043722566,,-0.7939364220931023,,
,3369.0,738.0,2643.0,1060.0,1800.0,3239.0,1391.0,,,,-1.59867978300668,-2.98859037977903,-1.11423178277284,,-1.2210958337270308,,
,3370.0,737.0,2645.0,1060.0,1798.0,3247.0,1373.0,,,,-1.5976029566024,-2.98848017178939,-1.11381440603941,,-1.590360768406032,,
,3371.0,739.0,2640.0,1060.0,1818.0,3244.0,1404.0,,,,-1.59660113343492,-2.98839819824749,-1.11415157905122,,-1.8975284384944608,,
,3371.0,740.0,2641.0,1060.0,1807.0,3245.0,1402.0,,,,-1.59748573873822,-2.98824280863699,-1.1144238343894,,-2.1422425969513488,,
,3370.0,739.0,2644.0,1061.0,1808.0,3238.0,1431.0,,,,-1.59730903665713,-2.98829722307576,-1.113779933198,,-2.3275645717258673,,
,3369.0,737.0,2639.0,1059.0,1815.0,3221.0,1414.0,,,,-1.59789965337582,-2.98832741698428,-1.11382020681867,,-2.4593133256986413,,
,3373.0,740.0,2641.0,1058.0,1810.0,3224.0,1401.0,,,,-1.59746904812201,-2.98836915345402,-1.11354900882324,,-2.5452404231880643,,
,3371.0,741.0,2643.0,1060.0,1804.0,3223.0,1423.0,,,,-1.59756451612311,-2.98819065261255,-1.11281653676708,,-2.5941151330838728,,
,3370.0,740.0,2642.0,1059.0,1810.0,3216.0,1426.0,,,,-1.59669993543683,-2.98835769187291,-1.11305585420455,,-2.614797531503617,,
,3370.0,735.0,2641.0,1058.0,1811.0,3219.0,1424.0,,,,-1.59689064244406,-2.98825587461341,-1.11353153921894,,-2.615373902056551,,
,3369.0,737.0,2641.0,1058.0,1799.0,3229.0,1426.0,,,,-1.59707595171131,-2.98830399439619,-1.11394408710117,,-2.602419863063449,,
,3371.0,738.0,2640.0,1059.0,1797.0,3220.0,1415.0,,,,-1.59666452112077,-2.98831958002977,-1.11357877397598,,-2.580443682186188,,
,3372.0,737.0,2640.0,1058.0,1789.0,3213.0,1415.0,,,,-1.59686368219839,-2.98835249925735,-1.1134997080104,,-2.5515464617053034,,
,3369.0,736.0,2639.0,1058.0,1790.0,3226.0,1409.0,,,,-1.59648157976542,-2.98835992336532,-1.11309773462862,,-2.51531840756469,,
,3369.0,735.0,2642.0,1058.0,1793.0,3225.0,1429.0,,,,-1.59584816012775,-2.98830076288568,-1.11290272505213,,-2.468972093283378,,
,3371.0,738.0,2640.0,1057.0,1783.0,3232.0,1440.0,,,,-1.596168116461,-2.98831709682088,-1.11379435212071,,-2.407695241765479,,
,3369.0,737.0,2640.0,1060.0,1783.0,3236.0,1438.0,,,,-1.59653919220835,-2.98829551652702,-1.1132163632322,,-2.32518794229293,,
,3370.0,735.0,2639.0,1057.0,1783.0,3227.0,1436.0,,,,-1.59588278448634,-2.98839455353416,-1.11261849465367,,-2.2143336643791374,,
,3371.0,736.0,2639.0,1059.0,1792.0,3215.0,1415.0,,,,-1.59584054303179,-2.98837585266096,-1.11236861346913,,-2.0679418347410987,,
,3370.0,737.0,2641.0,1058.0,1794.0,3223.0,1417.0,,,,-1.59677861800703,-2.98839516759166,-1.11319285513364,,-1.879494473945592,,
,3369.0,737.0,2640.0,1059.0,1807.0,3240.0,1411.0,,,,-1.59639531915553,-2.98840075305966,-1.11347088298697,,-1.6438322668085252,,
,3367.0,736.0,2638.0,1056.0,1793.0,3232.0,1435.0,,,,-1.5960813004669,-2.98848655897921,-1.11294467770548,,-1.357726448977805,,
,3372.0,738.0,2639.0,1057.0,1790.0,3231.0,1426.0,,,,-1.59545809774598,-2.98845774357683,-1.11319453926691,,-1.0202997543675572,,
,3373.0,737.0,2642.0,1060.0,1802.0,3222.0,1431.0,,,,-1.59642187564774,-2.98838328200082,-1.11306352975946,,-0.6332787121379985,,
,3371.0,736.0,2638.0,1058.0,1803.0,3220.0,1451.0,,,,-1.59590708903586,-2.98848718365238,-1.11240502537851,,-0.20107714531030793,,
,3371.0,735.0,2638.0,1055.0,1797.0,3233.0,1435.0,,,,-1.59532364745568,-2.9884850997528,-1.11213588306568,,0.2692758165142731,,
,3371.0,737.0,2637.0,1058.0,1804.0,3228.0,1421.0,,,,-1.5954168440636,-2.98831397616192,-1.11233919502782,,0.7683417463242916,,
,3373.0,738.0,2639.0,1058.0,1799.0,3222.0,1413.0,,,,-1.59601705912547,-2.98838389006646,-1.11181158667544,,1.2845885448190706,,
,3370.0,738.0,2639.0,1060.0,1799.0,3220.0,1404.0,,,,-1.59535387222338,-2.98829041733337,-1.11204452985902,,1.8047925279186698,,
,3370.0,737.0,2636.0,1055.0,1799.0,3223.0,1388.0,,,,-1.59517307598506,-2.9884173238613,-1.11226456579336,,2.314507785090464,,
,3371.0,736.0,2638.0,1058.0,1791.0,3220.0,1400.0,,,,-1.5948700749426,-2.98829693760679,-1.11198929521507,,2.798588638016118,,
,3372.0,738.0,2640.0,1059.0,1801.0,3217.0,1382.0,,,,-1.59527693193188,-2.98838493949921,-1.11169673028289,,3.2417554230250465,,
,3373.0,738.0,2639.0,1059.0,1810.0,3222.0,1392.0,,,,-1.59481918580373,-2.98831461308224,-1.11140267511756,,3.6291959830361114,,
,3374.0,736.0,2642.0,1057.0,1815.0,3236.0,1432.0,,,,-1.59518012260345,-2.98835368570271,-1.11163690178712,,3.94719395161857,,
,3373.0,737.0,2638.0,1058.0,1808.0,3247.0,1422.0,,,,-1.59480677326347,-2.98842500833562,-1.11107680556777,,4.18376964513641,,
,3373.0,738.0,2640.0,1058.0,1796.0,3235.0,1423.0,,,,-1.59487370251544,-2.988460864287,-1.11182485406172,,4.329310514297178,,
,3375.0,738.0,2640.0,1056.0,1802.0,3232.0,1425.0,,,,-1.59530990671242,-2.98834371494773,-1.1110205660545,,4.377156844173936,,
,3374.0,739.0,2641.0,1056.0,1821.0,3226.0,1411.0,,,,-1.59546205565752,-2.98848374500237,-1.11144791102901,,4.324097015585666,,
,3375.0,738.0,2640.0,1059.0,1815.0,3222.0,1411.0,,,,-1.59525081774916,-2.98818953073701,-1.11146642763023,,4.170718773140647,,
,3373.0,738.0,2641.0,1059.0,1815.0,3232.0,1405.0,,,,-1.59562399383961,-2.98836989396973,-1.11136539994776,,3.921562832675115,,
,3378.0,739.0,2642.0,1059.0,1817.0,3232.0,1384.0,,,,-1.59530532938948,-2.98849781744846,-1.1117045922159,,3.5850358545678893,,
,3378.0,737.0,2640.0,1056.0,1818.0,3207.0,1389.0,,,,-1.59531276117879,-2.98831830128229,-1.11146863974494,,3.17306142134123,,
,3373.0,737.0,2642.0,1058.0,1812.0,3227.0,1394.0,,,,-1.59452704327184,-2.98825466354495,-1.11057358521088,,2.7004768627289235,,
,3376.0,739.0,2644.0,1060.0,1810.0,3226.0,1407.0,,,,-1.5947693903294,-2.98828034848392,-1.11059357355836,,2.18421482406629,,
,3376.0,736.0,2640.0,1060.0,1818.0,3223.0,1408.0,,,,-1.59474855592573,-2.98832201703359,-1.11067361840311,,1.6423351747466384,,
,3374.0,738.0,2641.0,1058.0,1812.0,3222.0,1409.0,,,,-1.59442265860506,-2.98839380614127,-1.11096211711086,,1.092990391595209,,
,3376.0,736.0,2642.0,1060.0,1807.0,3231.0,1405.0,,,,-1.5943729303888,-2.9884244860693,-1.11064059166477,,0.5534134530590114,,
,3379.0,738.0,2643.0,1061.0,1804.0,3224.0,1411.0,,,,-1.59493947480175,-2.98834676024023,-1.11079471466643,,0.039011520163607934,,
,3380.0,742.0,2645.0,1059.0,1798.0,3232.0,1418.0,,,,-1.59517719465528,-2.9882876553772,-1.11046209502198,,-0.43736666091702103,,
,3377.0,739.0,2645.0,1060.0,1797.0,3240.0,1414.0,,,,-1.59520885887026,-2.98852846760204,-1.1110433394767,,-0.8659431151171159,,
,3379.0,738.0,2645.0,1060.0,1804.0,3234.0,1391.0,,,,-1.59536212168636,-2.98841001243715,-1.1117503743819,,-1.2402797398783554,,
,3380.0,739.0,2645.0,1059.0,1798.0,3244.0,1399.0,,,,-1.59583310779565,-2.98851352369478,-1.11169998973961,,-1.5573032855066289,,
,3382.0,740.0,2646.0,1062.0,1800.0,3241.0,1396.0,,,,-1.59574576979134,-2.98839975992121,-1.11124907434359,,-1.8171039788243393,,
,3380.0,737.0,2645.0,1060.0,1801.0,3226.0,1381.0,,,,-1.59678784273181,-2.98842130075983,-1.11110618811542,,-2.022539929231064,,
,3381.0,738.0,2644.0,1060.0,1819.0,3247.0,1396.0,,,,-1.59690997898442,-2.98854977579,-1.1114115074072,,-2.178689635961323,,
,3381.0,741.0,2647.0,1060.0,1814.0,3241.0,1403.0,,,,-1.59676306344529,-2.98849074261771,-1.11150316448888,,-2.2922009882963392,,
,3383.0,740.0,2647.0,1063.0,1809.0,3232.0,1398.0,,,,-1.59673736488361,-2.98860800234277,-1.11202835461421,,-2.370587127000045,,
,3382.0,741.0,2646.0,1059.0,1819.0,3240.0,1382.0,,,,-1.59770697473077,-2.98866248008369,-1.11204104679682,,-2.4215178163618387,,
,3381.0,738.0,2647.0,1060.0,1821.0,3234.0,1413.0,,,,-1.59833337963239,-2.98856342584666,-1.11239258939461,,-2.4521505693962724,,
,3385.0,739.0,2648.0,1063.0,1830.0,3220.0,1406.0,,,,-1.59829642745906,-2.98864552181115,-1.11236508129448,,-2.4685398929845626,,
,3383.0,741.0,2645.0,1062.0,1827.0,3218.0,1417.0,,,,-1.59779085685705,-2.98852945578722,-1.11119377236084,,-2.4751565360702354,,
,3383.0,740.0,2647.0,1060.0,1812.0,3207.0,1419.0,,,,-1.59846897235011,-2.9885245433153,-1.11226402804807,,-2.4745418222858224,,
,3384.0,741.0,2648.0,1061.0,1811.0,3216.0,1394.0,,,,-1.59845859196692,-2.98841166578908,-1.11240761708172,,-2.467114969995629,,
,3386.0,742.0,2648.0,1063.0,1804.0,3208.0,1417.0,,,,-1.59805318575056,-2.98856157248423,-1.11111315756344,,-2.4511436877501858,,
,3385.0,743.0,2649.0,1061.0,1801.0,3210.0,1419.0,,,,-1.59768659237982,-2.98850696465364,-1.11126382953105,,-2.422880371163635,,
,3384.0,742.0,2648.0,1062.0,1804.0,3233.0,1409.0,,,,-1.59797849875155,-2.98839328180199,-1.11186044764618,,-2.376858057665443,,
,3387.0,742.0,2647.0,1062.0,1808.0,3226.0,1426.0,,,,-1.59745853308418,-2.98847678390332,-1.11168897784185,,-2.3063319564729907,,
,3388.0,743.0,2651.0,1066.0,1822.0,3239.0,1404.0,,,,-1.59689071779887,-2.98854260108041,-1.11172429403992,,-2.203843828780743,,
,3389.0,743.0,2652.0,1064.0,1826.0,3249.0,1401.0,,,,-1.59673181550291,-2.98848506632073,-1.11073090606022,,-2.0618778557943673,,
,3388.0,740.0,2652.0,1064.0,1823.0,3259.0,1401.0,,,,-1.59646963286956,-2.98850460007607,-1.11150280467395,,-1.8735683551834952,,
,3389.0,743.0,2651.0,1066.0,1810.0,3229.0,1392.0,,,,-1.59599963123179,-2.98848620704745,-1.11071487012137,,-1.6334127112742325,,
,3388.0,745.0,2652.0,1063.0,1805.0,3246.0,1427.0,,,,-1.59612066959618,-2.98845718236409,-1.1103858954016,,-1.337938552129419,,
,3391.0,744.0,2653.0,1062.0,1808.0,3234.0,1419.0,,,,-1.5961552424803,-2.98853354605585,-1.11040102865408,,-0.9862739736695526,,
,3389.0,740.0,2652.0,1063.0,1812.0,3219.0,1395.0,,,,-1.59616716189662,-2.98844180491501,-1.11025281938445,,-0.5805741654747678,,
,3390.0,743.0,2652.0,1061.0,1800.0,3236.0,1420.0,,,,-1.59590636412285,-2.98841700139308,-1.11031569435725,,-0.1262666296414363,,
,3392.0,744.0,2656.0,1065.0,1817.0,3237.0,1391.0,,,,-1.59520638977897,-2.98832440357627,-1.11068410974792,,0.3679109239842095,,
,3391.0,745.0,2655.0,1065.0,1814.0,3250.0,1388.0,,,,-1.59559949855971,-2.98840186839998,-1.11075735593591,,0.8900921494641185,,
,3391.0,740.0,2653.0,1064.0,1809.0,3219.0,1387.0,,,,-1.59545689629496,-2.98840707721616,-1.110342118892,,1.4256805729421471,,
,3390.0,742.0,2655.0,1064.0,1820.0,3239.0,1422.0,,,,-1.59543724332055,-2.98837192803997,-1.11091369170432,,1.9579481126815068,,
,3393.0,743.0,2655.0,1065.0,1818.0,3230.0,1398.0,,,,-1.59449983176123,-2.98819285690857,-1.11035159996729,,2.4688039649593505,,
,3391.0,745.0,2656.0,1065.0,1815.0,3242.0,1399.0,,,,-1.59432998678565,-2.98835431679958,-1.11001496264483,,2.9396940790831665,,
,3395.0,744.0,2657.0,1065.0,1812.0,3243.0,1395.0,,,,-1.59470001318842,-2.98831365005811,-1.11023446228843,,3.3525836827957223,,
,3396.0,744.0,2658.0,1069.0,1817.0,3233.0,1388.0,,,,-1.59348947674046,-2.98828632235392,-1.10976868057615,,3.6909687672874534,,
,3393.0,746.0,2657.0,1066.0,1822.0,3229.0,1370.0,,,,-1.59342793136645,-2.98829041812363,-1.10955114642061,,3.940856057383446,,
,3396.0,746.0,2656.0,1068.0,1814.0,3220.0,1383.0,,,,-1.59291346200048,-2.9880703670813,-1.10955407551995,,4.091644997334992,,
,3394.0,743.0,2658.0,1066.0,1821.0,3223.0,1374.0,,,,-1.59305464032561,-2.9882833394785,-1.1095560556895,,4.136841633262752,,
,3394.0,746.0,2657.0,1065.0,1826.0,3217.0,1385.0,,,,-1.59252519462604,-2.98817190485945,-1.1094716082215,,4.0745362267283936,,
,3397.0,746.0,2661.0,1068.0,1817.0,3218.0,1394.0,,,,-1.59249076930621,-2.98809681890199,-1.10989820240297,,3.9075873387745355,,
,3398.0,747.0,2661.0,1070.0,1817.0,3228.0,1374.0,,,,-1.59291187498513,-2.98813298430105,-1.10924416230121,,3.6434767446280594,,
,3397.0,745.0,2658.0,1067.0,1827.0,3229.0,1377.0,,,,-1.59277378543142,-2.98811660145027,-1.10957100482071,,3.293830619557325,,
,3399.0,746.0,2662.0,1068.0,1810.0,3227.0,1403.0,,,,-1.59192606389651,-2.98795976890074,-1.10914997305543,,2.873638453238032,,
,3398.0,749.0,2662.0,1071.0,1839.0,3221.0,1394.0,,,,-1.59200804278295,-2.98810750354638,-1.10918816692393,,2.4002355732277194,,
,3399.0,749.0,2663.0,1069.0,1846.0,3239.0,1370.0,,,,-1.59197258590782,-2.98802091582796,-1.1092550194743,,1.8921415795871785,,
,3397.0,747.0,2661.0,1069.0,1840.0,3240.0,1373.0,,,,-1.5916064453787,-2.98810155096767,-1.10909004934116,,1.3678611256778266,,
,3396.0,745.0,2662.0,1069.0,1826.0,3231.0,1373.0,,,,-1.59144696252737,-2.9879859546405,-1.10921709617574,,0.8447541498612117,,
,3397.0,748.0,2661.0,1069.0,1843.0,3230.0,1385.0,,,,-1.59116461116844,-2.98810533025798,-1.10919921969948,,0.3380713930741082,,
,3397.0,745.0,2660.0,1066.0,1858.0,3235.0,1368.0,,,,-1.59081508261502,-2.98802027490192,-1.10871436685063,,-0.13976924920527684,,
,3391.0,744.0,2659.0,1066.0,1850.0,3232.0,1381.0,,,,-1.59043471563166,-2.9880698461011,-1.10871888955818,,-0.5796161283380439,,
,3395.0,742.0,2658.0,1065.0,1849.0,3220.0,1384.0,,,,-1.58987033743941,-2.98810058292805,-1.10818125491501,,-0.9757066759836002,,
,3392.0,743.0,2654.0,1067.0,1833.0,3209.0,1396.0,,,,-1.58995547780411,-2.98785261545747,-1.10896631753503,,-1.3254888449444682,,
,3392.0,746.0,2655.0,1066.0,1824.0,3218.0,1398.0,,,,-1.58940972090204,-2.98794334666867,-1.10834237913016,,-1.6291779193819982,,
,3391.0,744.0,2654.0,1063.0,1836.0,3210.0,1401.0,,,,-1.58871723175653,-2.9879438356479,-1.10804552694649,,-1.8891088994943743,,
,3387.0,741.0,2651.0,1062.0,1827.0,3216.0,1389.0,,,,-1.58795140537185,-2.98792611099285,-1.10752556372758,,-2.1089618059083537,,
,3388.0,743.0,2652.0,1063.0,1820.0,3213.0,1427.0,,,,-1.58794252069207,-2.98771728752643,-1.10792100268484,,-2.2929462430636844,,
,3390.0,741.0,2652.0,1063.0,1819.0,3216.0,1419.0,,,,-1.5876405630492,-2.98783684168718,-1.10761243711333,,-2.4450312491379265,,
,3389.0,740.0,2650.0,1062.0,1826.0,3225.0,1393.0,,,,-1.58738729093785,-2.98779591039051,-1.10813182397711,,-2.5682967096288336,,
,3385.0,740.0,2647.0,1061.0,1829.0,3229.0,1396.0,,,,-1.5874901451981,-2.98798515539332,-1.10735524340913,,-2.6644646725921306,,
2025-08-06 22:58:03,3389.0,742.0,2648.0,1060.0,1827.0,3233.0,1393.0,,,2025/08/06 10:58:03 PM,-1.58779954064793,-2.98785663547959,-1.10718152710761,,-2.7336456027496467,,
,3387.0,741.0,2649.0,1060.0,1821.0,3242.0,1402.0,,,,-1.58705384294385,-2.98785127894872,-1.1069544717872,,-2.7743098113157822,,
,3387.0,741.0,2647.0,1061.0,1818.0,3245.0,1411.0,,,,-1.58733740460586,-2.98783405273068,-1.1078274175755,,-2.783471591156338,,
,3387.0,741.0,2646.0,1061.0,1816.0,3254.0,1408.0,,,,-1.58685032834654,-2.98778016327886,-1.10743280425514,,-2.757055226153997,,
,3387.0,741.0,2649.0,1059.0,1814.0,3247.0,1413.0,,,,-1.58633288082816,-2.98769299094196,-1.10705906514335,,-2.6903989203559613,,
,3388.0,742.0,2647.0,1061.0,1815.0,3250.0,1408.0,,,,-1.58627439058924,-2.98786287649486,-1.10745162700277,,-2.5788449827261863,,
,3388.0,740.0,2645.0,1059.0,1820.0,3242.0,1357.0,,,,-1.58607274228677,-2.98767589722636,-1.10682802353232,,-2.4183621804787006,,
,3384.0,739.0,2646.0,1060.0,1830.0,3255.0,1381.0,,,,-1.58612439445201,-2.9878331802455,-1.10725370742636,,-2.206148485182678,,
,3389.0,741.0,2648.0,1060.0,1832.0,3250.0,1383.0,,,,-1.58617174988013,-2.98753471796404,-1.10711411915698,,-1.9411683308985117,,
,3386.0,741.0,2645.0,1059.0,1835.0,3248.0,1389.0,,,,-1.58594555545249,-2.98785751896731,-1.10620383560652,,-1.6245865051024886,,
,3390.0,740.0,2647.0,1059.0,1830.0,3250.0,1400.0,,,,-1.58628679486384,-2.98763765694253,-1.10751641354467,,-1.260069635722565,,
,3387.0,738.0,2645.0,1059.0,1826.0,3257.0,1380.0,,,,-1.58638860592422,-2.98771835322306,-1.10722186125118,,-0.8539351682721144,,
,3389.0,741.0,2645.0,1057.0,1834.0,3227.0,1380.0,,,,-1.58620282142489,-2.98749021873891,-1.10717371343012,,-0.4151363995739803,,
,3389.0,741.0,2647.0,1062.0,1827.0,3221.0,1371.0,,,,-1.58668003434234,-2.98759348235924,-1.10726565789293,,0.04491965554854614,,
,3389.0,740.0,2645.0,1059.0,1813.0,3199.0,1377.0,,,,-1.58652679815964,-2.98756814043348,-1.10689961425476,,0.5127172376521344,,
,3389.0,741.0,2643.0,1057.0,1825.0,3222.0,1371.0,,,,-1.58626980225304,-2.9875010934919,-1.10730478265787,,0.9731285504866029,,
,3389.0,740.0,2646.0,1059.0,1836.0,3261.0,1370.0,,,,-1.5861399315334,-2.98765421371398,-1.10669320148352,,1.4100448878505392,,
,3389.0,740.0,2645.0,1061.0,1833.0,3227.0,1391.0,,,,-1.58523850580488,-2.98772273077773,-1.10732162513766,,1.8071184700920344,,
,3388.0,741.0,2645.0,1061.0,1824.0,3213.0,1393.0,,,,-1.58581629896443,-2.98762891088548,-1.10725659903903,,2.1485835936143904,,
,3389.0,738.0,2644.0,1059.0,1825.0,3217.0,1387.0,,,,-1.58532414908753,-2.98767921380046,-1.10663689187286,,2.4201161311909045,,
,3389.0,739.0,2642.0,1060.0,1811.0,3222.0,1399.0,,,,-1.58509675685425,-2.98770178743241,-1.10649795033356,,2.6096798320729366,,
,3388.0,742.0,2646.0,1060.0,1827.0,3224.0,1395.0,,,,-1.58431869456704,-2.98760981516508,-1.10615428568237,,2.708298594964042,,
,3391.0,741.0,2645.0,1060.0,1826.0,3228.0,1400.0,,,,-1.58501329034327,-2.98755020286007,-1.10660420482754,,2.7106889087297494,,
,3390.0,740.0,2642.0,1059.0,1821.0,3222.0,1405.0,,,,-1.58499743887909,-2.98764419194638,-1.10634998610301,,2.6156886424805714,,
,3390.0,741.0,2646.0,1059.0,1826.0,3226.0,1416.0,,,,-1.58472406600541,-2.98764937927119,-1.10629945174464,,2.426429063593294,,
,3391.0,738.0,2644.0,1058.0,1820.0,3228.0,1385.0,,,,-1.58468429238827,-2.98759051085803,-1.1065242968128,,2.1502167899648676,,
,3389.0,739.0,2644.0,1060.0,1816.0,3232.0,1401.0,,,,-1.58419379985115,-2.98758420509902,-1.10645843200574,,1.7981199053159822,,
,3386.0,741.0,2644.0,1057.0,1818.0,3240.0,1408.0,,,,-1.58417172588813,-2.98753372409109,-1.10646551263249,,1.3842839778016436,,
,3390.0,741.0,2645.0,1060.0,1804.0,3250.0,1435.0,,,,-1.5844842725189,-2.98762651408516,-1.10626602406428,,0.9250337344356568,,
,3391.0,740.0,2644.0,1059.0,1818.0,3235.0,1441.0,,,,-1.58343314488695,-2.98744145585036,-1.10587416534606,,0.43783908557853574,,
,3392.0,740.0,2643.0,1059.0,1826.0,3233.0,1441.0,,,,-1.58346193895967,-2.987580285914,-1.10638271206672,,-0.05976356399646141,,
,3389.0,737.0,2642.0,1056.0,1826.0,3237.0,1414.0,,,,-1.58436816791027,-2.98765070051606,-1.10545917948686,,-0.5512029676373092,,
,3392.0,741.0,2644.0,1060.0,1825.0,3234.0,1424.0,,,,-1.58410870682478,-2.98747915013482,-1.105878580879,,-1.0217748934731832,,
,3393.0,741.0,2645.0,1059.0,1829.0,3227.0,1440.0,,,,-1.58435634947227,-2.98754676906868,-1.10570100427878,,-1.4593474401244946,,
,3392.0,740.0,2645.0,1059.0,1824.0,3223.0,1435.0,,,,-1.58455469602402,-2.98766309594523,-1.1062728400017,,-1.8548231465648877,,
,3390.0,736.0,2639.0,1056.0,1838.0,3226.0,1392.0,,,,-1.58529035250813,-2.98749566796012,-1.10560663380964,,-2.2023329241639122,,
,3391.0,739.0,2643.0,1058.0,1846.0,3223.0,1397.0,,,,-1.58522936174285,-2.98758536215938,-1.10678849065065,,-2.499158672142096,,
,3392.0,739.0,2645.0,1059.0,1822.0,3211.0,1381.0,,,,-1.58514812210944,-2.98746029405029,-1.1069893143401,,-2.745402766412267,,
,3394.0,739.0,2644.0,1059.0,1811.0,3202.0,1386.0,,,,-1.58574610955204,-2.98734420470848,-1.1070240139399,,-2.94344273083719,,
,3392.0,740.0,2646.0,1059.0,1811.0,3209.0,1389.0,,,,-1.58561778237167,-2.98743042092184,-1.10689277564436,,-3.0972268581778093,,
,3394.0,742.0,2644.0,1060.0,1812.0,3206.0,1398.0,,,,-1.58476992867603,-2.98740671435222,-1.10704489976992,,-3.2114794621971843,,
,3393.0,742.0,2642.0,1060.0,1816.0,3229.0,1413.0,,,,-1.58512140819724,-2.98755026134487,-1.10677073333771,,-3.2908913119127674,,
,3393.0,741.0,2645.0,1061.0,1815.0,3230.0,1387.0,,,,-1.58506903627193,-2.98751576457002,-1.10718526698652,,-3.339370945789653,,
,3395.0,741.0,2643.0,1059.0,1822.0,3232.0,1410.0,,,,-1.58559989776384,-2.98750354287768,-1.10696481815967,,-3.3594260707437695,,
,3397.0,740.0,2646.0,1061.0,1820.0,3217.0,1429.0,,,,-1.58520961012268,-2.9874234864758,-1.10695264133732,,-3.3517317577764647,,
,3395.0,743.0,2647.0,1059.0,1833.0,3225.0,1399.0,,,,-1.58587547016239,-2.98770073059032,-1.10755255439671,,-3.314924750912333,,
,3394.0,741.0,2645.0,1060.0,1834.0,3226.0,1416.0,,,,-1.58498389093704,-2.98758777651783,-1.10734710322411,,-3.2456424614922788,,
,3397.0,740.0,2644.0,1059.0,1816.0,3240.0,1426.0,,,,-1.58614351320045,-2.9874673798579,-1.10681970618651,,-3.138803059818075,,
,3396.0,742.0,2644.0,1061.0,1805.0,3226.0,1414.0,,,,-1.58623852031968,-2.98746745917616,-1.10674898973883,,-2.98810160361356,,
,3397.0,745.0,2648.0,1061.0,1793.0,3230.0,1425.0,,,,-1.58592107655909,-2.98760233769652,-1.10724469345728,,-2.78667839080581,,
,3399.0,742.0,2648.0,1062.0,1811.0,3224.0,1420.0,,,,-1.58626074008818,-2.98741596501288,-1.10771926564322,,-2.52790147049655,,
,3398.0,742.0,2647.0,1059.0,1827.0,3211.0,1401.0,,,,-1.58617868590554,-2.98753586338285,-1.10731106646055,,-2.206196798450223,,
,3398.0,741.0,2648.0,1060.0,1814.0,3227.0,1441.0,,,,-1.58602006954029,-2.98754485380608,-1.10783940418741,,-1.8178574354728563,,
,3396.0,741.0,2646.0,1062.0,1810.0,3233.0,1430.0,,,,-1.58529085878335,-2.98751486485843,-1.1074299410395,,-1.361767088129224,,
,3397.0,741.0,2648.0,1059.0,1814.0,3222.0,1421.0,,,,-1.58628953665487,-2.98749770753928,-1.1079073387554,,-0.8399819892245397,,
,3397.0,740.0,2646.0,1060.0,1821.0,3219.0,1420.0,,,,-1.58669939680958,-2.98772033601112,-1.1079345863491,,-0.25812683393018904,,
,3399.0,741.0,2648.0,1061.0,1817.0,3221.0,1426.0,,,,-1.58666131151952,-2.98751967330819,-1.10737175285532,,0.37442683975793517,,
,3400.0,745.0,2648.0,1063.0,1811.0,3222.0,1422.0,,,,-1.58644461197694,-2.98758905819903,-1.10688964502528,,1.0446195605231188,,
,3401.0,744.0,2649.0,1064.0,1811.0,3216.0,1438.0,,,,-1.58671692289905,-2.98773306126371,-1.10729796640621,,1.7360093543145794,,
,3400.0,741.0,2648.0,1063.0,1807.0,3231.0,1402.0,,,,-1.5875090760955,-2.98777312971476,-1.10783163242804,,2.4293228265223443,,
,3403.0,744.0,2651.0,1062.0,1822.0,3248.0,1437.0,,,,-1.58772436862951,-2.98780821386095,-1.10864396774782,,3.103239423369603,,
,3401.0,743.0,2650.0,1062.0,1801.0,3232.0,1429.0,,,,-1.58872681100075,-2.98777425851103,-1.10832178487396,,3.735381673608125,,
,3400.0,746.0,2651.0,1063.0,1806.0,3221.0,1431.0,,,,-1.58944847516259,-2.98775126455885,-1.10917477928846,,4.303466031985036,,
,3401.0,744.0,2648.0,1063.0,1804.0,3229.0,1421.0,,,,-1.59031664226976,-2.98771184515901,-1.10945234875012,,4.786548647297003,,
,3403.0,743.0,2652.0,1063.0,1804.0,3220.0,1420.0,,,,-1.5904330743002,-2.98784515301366,-1.10957341907133,,5.166280866191165,,
,3402.0,744.0,2652.0,1063.0,1804.0,3230.0,1379.0,,,,-1.59111768187594,-2.98783449847893,-1.11014912956299,,5.4280747032711165,,
,3404.0,744.0,2652.0,1064.0,1818.0,3236.0,1378.0,,,,-1.59139027676365,-2.98786160962383,-1.11056422008545,,5.5620734195185175,,
,3402.0,743.0,2653.0,1064.0,1821.0,3234.0,1415.0,,,,-1.59196824832913,-2.98784697970148,-1.11020433289128,,5.563830301555007,,
,3407.0,747.0,2651.0,1063.0,1818.0,3232.0,1408.0,,,,-1.59166664373612,-2.98800240653657,-1.11043437092384,,5.434620917179637,,
,3405.0,744.0,2653.0,1064.0,1822.0,3224.0,1412.0,,,,-1.59171698088944,-2.98793866694826,-1.10913531791058,,5.181348905771772,,
,3407.0,744.0,2654.0,1066.0,1822.0,3226.0,1412.0,,,,-1.59124929015333,-2.98787867449505,-1.11044774453197,,4.816048452338992,,
,3406.0,744.0,2652.0,1063.0,1815.0,3215.0,1437.0,,,,-1.59177997453132,-2.98805077236682,-1.10952254267343,,4.3550312685336525,,
,3408.0,744.0,2653.0,1065.0,1800.0,3217.0,1431.0,,,,-1.59161555128542,-2.98794096894963,-1.11032004444745,,3.817763870815906,,
,3408.0,746.0,2654.0,1066.0,1814.0,3221.0,1434.0,,,,-1.59227956561105,-2.98781309997434,-1.11043397324998,,3.2255848731208703,,
,3407.0,746.0,2654.0,1065.0,1811.0,3228.0,1432.0,,,,-1.59199048972825,-2.98794159652319,-1.10993334703779,,2.600378782210597,,
,3409.0,748.0,2656.0,1065.0,1802.0,3244.0,1419.0,,,,-1.59264167980466,-2.98796266744279,-1.11029806537545,,1.9633145804663115,,
,3409.0,747.0,2654.0,1067.0,1813.0,3224.0,1428.0,,,,-1.59228977563033,-2.98797828175223,-1.11022300906987,,1.3337394415093868,,
,3409.0,746.0,2657.0,1068.0,1814.0,3222.0,1417.0,,,,-1.59195589367005,-2.98797880017289,-1.10993959617889,,0.7282952912786408,,
,3408.0,746.0,2656.0,1065.0,1816.0,3224.0,1421.0,,,,-1.59255672185044,-2.98791850229049,-1.11025856008089,,0.16030184482632656,,
,3409.0,743.0,2656.0,1068.0,1804.0,3236.0,1439.0,,,,-1.59324178947015,-2.987949250248,-1.11100586613215,,-0.36057404804074644,,
,3410.0,747.0,2656.0,1065.0,1805.0,3238.0,1430.0,,,,-1.5922336114721,-2.98803210122148,-1.11063477770748,,-0.8283652946639296,,
,3413.0,749.0,2660.0,1067.0,1796.0,3253.0,1420.0,,,,-1.59181689786143,-2.98803631361388,-1.11036309535772,,-1.2405901688908585,,
,3413.0,747.0,2657.0,1069.0,1796.0,3249.0,1425.0,,,,-1.59236130587963,-2.98817537155634,-1.11090652213172,,-1.5978157278308942,,
,3411.0,746.0,2658.0,1065.0,1781.0,3243.0,1417.0,,,,-1.59204564214943,-2.98796675436342,-1.11057558849761,,-1.9030508237892707,,
,3413.0,747.0,2659.0,1068.0,1800.0,3232.0,1399.0,,,,-1.59223858579434,-2.98805310869302,-1.1107436738316,,-2.1610289061863215,,
,3414.0,752.0,2660.0,1071.0,1797.0,3238.0,1396.0,,,,-1.59279293321313,-2.98808818103568,-1.11136216264735,,-2.3774445887919873,,
,3414.0,748.0,2661.0,1071.0,1800.0,3236.0,1413.0,,,,-1.59252265745751,-2.98803798681949,-1.11113208780349,,-2.5582067792600833,,
,3413.0,747.0,2658.0,1068.0,1807.0,3244.0,1411.0,,,,-1.59314329909699,-2.988165727223,-1.11085465696342,,-2.7087648880125634,,
,3413.0,746.0,2661.0,1069.0,1806.0,3222.0,1426.0,,,,-1.59242355286406,-2.98814626327399,-1.11113434365234,,-2.8335537189336324,,
,3417.0,752.0,2662.0,1071.0,1818.0,3219.0,1432.0,,,,-1.59273032713031,-2.98798888473941,-1.11157475860428,,-2.9355885545109808,,
,3416.0,749.0,2663.0,1069.0,1809.0,3216.0,1419.0,,,,-1.59314845647721,-2.98814504052856,-1.1113576301524,,-3.016226929281922,,
,3418.0,750.0,2660.0,1070.0,1803.0,3230.0,1413.0,,,,-1.59355337441305,-2.98821302290827,-1.11148326615882,,-3.075099734195559,,
,3418.0,751.0,2661.0,1070.0,1804.0,3228.0,1415.0,,,,-1.59379943431399,-2.98807043235508,-1.11174348502876,,-3.1102026431801177,,
,3417.0,751.0,2663.0,1071.0,1807.0,3221.0,1435.0,,,,-1.59375736791796,-2.98798382379522,-1.11147325092356,,-3.118129353107032,,
,3419.0,750.0,2663.0,1070.0,1805.0,3213.0,1441.0,,,,-1.59433873606582,-2.98806450495576,-1.11140739651257,,-3.0944204214797355,,
,3416.0,750.0,2664.0,1070.0,1806.0,3225.0,1459.0,,,,-1.5946220904117,-2.98823375949414,-1.11171912242744,,-3.0339955752326246,,
,3417.0,751.0,2662.0,1069.0,1802.0,3236.0,1438.0,,,,-1.59436815867636,-2.98813705691046,-1.1118859345027,,-2.93163364181349,,
,3419.0,751.0,2664.0,1073.0,1811.0,3234.0,1402.0,,,,-1.59425967509774,-2.98822003467373,-1.11256875453321,,-2.7824631673281166,,
,3419.0,750.0,2666.0,1072.0,1807.0,3237.0,1407.0,,,,-1.59446282046378,-2.98804090544025,-1.11248728262506,,-2.582428647591073,,
,3417.0,752.0,2662.0,1071.0,1808.0,3217.0,1407.0,,,,-1.59463302412033,-2.98828328508694,-1.11209986448796,,-2.3287023007536534,,
,3418.0,751.0,2662.0,1074.0,1809.0,3229.0,1410.0,,,,-1.59511491714752,-2.98824258204533,-1.11342053319795,,-2.0200193998304856,,
,3418.0,749.0,2663.0,1072.0,1802.0,3232.0,1416.0,,,,-1.59482058063339,-2.98824032614526,-1.11173354066387,,-1.6569256050748946,,
,3415.0,748.0,2663.0,1071.0,1803.0,3232.0,1410.0,,,,-1.59416711912139,-2.98822756811493,-1.11173136423671,,-1.2419356556525274,,
,3414.0,747.0,2660.0,1069.0,1822.0,3231.0,1410.0,,,,-1.59423575207378,-2.98839897897181,-1.11193548433662,,-0.7796115629380492,,
,3413.0,748.0,2657.0,1068.0,1811.0,3230.0,1415.0,,,,-1.59388069544806,-2.98830806957121,-1.11189033828911,,-0.2765726416844898,,
,3412.0,750.0,2657.0,1068.0,1794.0,3221.0,1415.0,,,,-1.59433725779789,-2.98822072341345,-1.11234024707879,,0.2585518743656305,,
,3410.0,748.0,2658.0,1066.0,1796.0,3227.0,1422.0,,,,-1.59467902110551,-2.98831861351563,-1.11188078228863,,0.8152235776747174,,
,3409.0,747.0,2653.0,1066.0,1793.0,3249.0,1426.0,,,,-1.59458744626501,-2.98843568976049,-1.1123518110216,,1.3811542183692,,
,3408.0,746.0,2651.0,1065.0,1797.0,3241.0,1414.0,,,,-1.59486912494685,-2.98823018755192,-1.1124657193831,,1.9425372240782763,,
,3410.0,747.0,2655.0,1063.0,1810.0,3231.0,1421.0,,,,-1.59461801636049,-2.98839059824508,-1.11209875310647,,2.4843694113144035,,
,3411.0,746.0,2654.0,1065.0,1809.0,3215.0,1419.0,,,,-1.59380156169128,-2.98828239496588,-1.11283128558498,,2.990879664254041,,
,3409.0,745.0,2650.0,1066.0,1814.0,3227.0,1400.0,,,,-1.59377286760347,-2.98837035549285,-1.11106700190828,,3.44607425403221,,
,3406.0,745.0,2651.0,1064.0,1814.0,3222.0,1408.0,,,,-1.59459879698955,-2.98842462507373,-1.11190655459539,,3.834396096570833,,
,3409.0,746.0,2651.0,1066.0,1809.0,3230.0,1388.0,,,,-1.59392929352046,-2.98848192764858,-1.11263962354597,,4.141478736637564,,
,3409.0,746.0,2650.0,1065.0,1814.0,3238.0,1382.0,,,,-1.59371620942255,-2.98841004245376,-1.11205462630923,,4.354956967588449,,
,3409.0,747.0,2648.0,1064.0,1813.0,3242.0,1417.0,,,,-1.59274986544425,-2.98833612348317,-1.11180102650279,,4.46527733518571,,
,3409.0,747.0,2649.0,1062.0,1817.0,3233.0,1397.0,,,,-1.59329781269205,-2.98843455758172,-1.11194691558204,,4.466436669634673,,
,3410.0,746.0,2648.0,1065.0,1846.0,3220.0,1384.0,,,,-1.59363262353872,-2.98841204119942,-1.11175127753043,,4.356568874928886,,
,3409.0,746.0,2650.0,1064.0,1837.0,3223.0,1399.0,,,,-1.59366710912838,-2.98850087919796,-1.11154497454728,,4.138302642542151,,
,3408.0,746.0,2649.0,1062.0,1809.0,3227.0,1398.0,,,,-1.59391785037919,-2.98843941145882,-1.11128172745787,,3.8188273722290234,,
,3407.0,746.0,2649.0,1062.0,1811.0,3225.0,1394.0,,,,-1.59395315146636,-2.98839230220327,-1.11185935115112,,3.409631014906459,,
,3411.0,746.0,2646.0,1063.0,1802.0,3225.0,1400.0,,,,-1.59361370473681,-2.98840571725443,-1.1121870984281,,2.925908737255069,,
,3410.0,747.0,2648.0,1063.0,1807.0,3234.0,1404.0,,,,-1.59412415083017,-2.98849897320717,-1.11210214813066,,2.385679809314381,,
,3407.0,747.0,2648.0,1061.0,1806.0,3235.0,1405.0,,,,-1.59396563429687,-2.98829463030257,-1.11200485099432,,1.8086854149340115,,
,3409.0,744.0,2646.0,1061.0,1813.0,3230.0,1402.0,,,,-1.59465642385193,-2.98851297985513,-1.11201929895209,,1.2151662270097319,,
,3409.0,748.0,2645.0,1064.0,1813.0,3221.0,1398.0,,,,-1.59352348497899,-2.98828371833089,-1.11232205055068,,0.6246315482382996,,
,3409.0,746.0,2645.0,1062.0,1824.0,3225.0,1402.0,,,,-1.59449675759734,-2.98835556005013,-1.11295822414849,,0.05473027859024388,,
,3407.0,746.0,2644.0,1063.0,1823.0,3236.0,1436.0,,,,-1.59446883634563,-2.98852926889395,-1.11261190559124,,-0.47968065644800306,,
2025-08-06 22:58:04,3408.0,744.0,2644.0,1061.0,1818.0,3228.0,1403.0,,,2025/08/06 10:58:04 PM,-1.59455637710321,-2.98842724192522,-1.11234410782876,,-0.9671991533199907,,
,3409.0,745.0,2646.0,1064.0,1822.0,3242.0,1415.0,,,,-1.59488431815885,-2.98845669817833,-1.11216656468926,,-1.4002307519472459,,
,3410.0,747.0,2645.0,1063.0,1825.0,3231.0,1420.0,,,,-1.59511769799759,-2.98845920476331,-1.11237849835834,,-1.7750216109493464,,
,3410.0,746.0,2644.0,1061.0,1810.0,3222.0,1407.0,,,,-1.5953775839602,-2.9884918056204,-1.11210347443807,,-2.0913913270463595,,
,3410.0,745.0,2645.0,1060.0,1824.0,3229.0,1416.0,,,,-1.59532343542602,-2.98854667905821,-1.11124287835332,,-2.352210167823565,,
,3410.0,745.0,2645.0,1061.0,1816.0,3227.0,1406.0,,,,-1.59533425398234,-2.98853968149608,-1.11218984884969,,-2.562683816563097,,
,3408.0,744.0,2645.0,1062.0,1805.0,3232.0,1398.0,,,,-1.59531777972624,-2.98843165615665,-1.11246436484008,,-2.729520169045615,,
,3410.0,745.0,2643.0,1062.0,1803.0,3209.0,1393.0,,,,-1.59506754882201,-2.98835778927511,-1.11182499014999,,-2.8600571695696875,,
,3409.0,746.0,2644.0,1063.0,1823.0,3223.0,1395.0,,,,-1.59509267979454,-2.98854720000753,-1.11162167765696,,-2.9614286962289595,,
,3409.0,745.0,2644.0,1059.0,1813.0,3237.0,1414.0,,,,-1.59587503845643,-2.98853596130023,-1.11273224728697,,-3.039837765487027,,
,3410.0,746.0,2642.0,1061.0,1812.0,3234.0,1406.0,,,,-1.59477053939997,-2.98839936127816,-1.11217668626031,,-3.099993410245778,,
,3411.0,748.0,2643.0,1062.0,1808.0,3234.0,1439.0,,,,-1.59501702880606,-2.98852278109456,-1.11260239544778,,-3.144750126976355,,
,3407.0,745.0,2643.0,1060.0,1800.0,3235.0,1435.0,,,,-1.59487944308731,-2.98844748573896,-1.11240542736059,,-3.1749678321263732,,
,3411.0,747.0,2644.0,1062.0,1806.0,3232.0,1440.0,,,,-1.59547807302814,-2.98862075629764,-1.11234671789919,,-3.1895877262210455,,
,3411.0,744.0,2644.0,1060.0,1797.0,3238.0,1437.0,,,,-1.59564652098073,-2.98861307501815,-1.11208756420766,,-3.18589819363556,,
,3411.0,748.0,2645.0,1063.0,1796.0,3237.0,1429.0,,,,-1.59500881529322,-2.98868150934736,-1.1120969877632,,-3.1599479184797996,,
,3411.0,745.0,2642.0,1061.0,1793.0,3232.0,1443.0,,,,-1.59491907582436,-2.98871363188103,-1.11253408603258,,-3.1070527746112613,,
,3412.0,747.0,2644.0,1062.0,1795.0,3231.0,1415.0,,,,-1.59492077113934,-2.98856528628581,-1.11251619188871,,-3.0223391139850517,,
,3413.0,747.0,2644.0,1062.0,1798.0,3234.0,1427.0,,,,-1.59507172636281,-2.98861823002542,-1.11220483828923,,-2.9012681327004257,,
,3413.0,747.0,2646.0,1063.0,1775.0,3222.0,1432.0,,,,-1.59447792748917,-2.98862521484502,-1.1129643068565,,-2.7400932101824607,,
,3410.0,744.0,2643.0,1060.0,1800.0,3209.0,1433.0,,,,-1.59494822268245,-2.98874887530386,-1.11241085276328,,-2.5362138704650405,,
,3411.0,747.0,2644.0,1060.0,1796.0,3238.0,1413.0,,,,-1.59462021286734,-2.98878365156527,-1.11288024883272,,-2.2884055250175828,,
,3409.0,746.0,2644.0,1061.0,1786.0,3239.0,1439.0,,,,-1.59538934578229,-2.98862308011331,-1.11258569827019,,-1.9969219388323145,,
,3411.0,746.0,2642.0,1061.0,1798.0,3239.0,1431.0,,,,-1.59497843706661,-2.98861289212396,-1.11253731705762,,-1.6634850078801509,,
,3412.0,746.0,2642.0,1063.0,1812.0,3246.0,1436.0,,,,-1.59539160165939,-2.98856646801865,-1.11297832586813,,-1.2911909465758684,,
,3412.0,747.0,2645.0,1061.0,1803.0,3239.0,1424.0,,,,-1.59602653925058,-2.9886692293074,-1.11230766372677,,-0.8843705174022144,,
,3413.0,750.0,2643.0,1060.0,1797.0,3227.0,1428.0,,,,-1.59585512473539,-2.98864634972298,-1.11275725059066,,-0.4484416500614228,,
,3414.0,747.0,2645.0,1061.0,1817.0,3228.0,1429.0,,,,-1.59597653210502,-2.98868631506119,-1.11281778877142,,0.010214585658883803,,
,3414.0,746.0,2643.0,1060.0,1823.0,3223.0,1446.0,,,,-1.59607424817838,-2.98865269523034,-1.11187882187681,,0.48433780016236566,,
,3413.0,750.0,2645.0,1063.0,1804.0,3236.0,1429.0,,,,-1.59593798047594,-2.98873714940618,-1.11256955359951,,0.965833083099319,,
,3416.0,752.0,2647.0,1063.0,1798.0,3231.0,1428.0,,,,-1.59552071672917,-2.98869799493684,-1.11178637452517,,1.4457960363417135,,
,3417.0,749.0,2645.0,1063.0,1789.0,3242.0,1415.0,,,,-1.59528202943058,-2.98858403339648,-1.11193683402298,,1.9145510849234553,,
,3412.0,747.0,2645.0,1061.0,1791.0,3237.0,1406.0,,,,-1.59422617919795,-2.98860192533084,-1.11142310448836,,2.361742145340193,,
,3417.0,749.0,2646.0,1064.0,1805.0,3225.0,1415.0,,,,-1.59571246210779,-2.98866819897003,-1.11215838560972,,2.776511569829954,,
,3417.0,748.0,2646.0,1064.0,1817.0,3234.0,1395.0,,,,-1.59441168430033,-2.98868552875501,-1.11279230937925,,3.1477917525972834,,
,3416.0,750.0,2646.0,1064.0,1816.0,3233.0,1397.0,,,,-1.59473278258126,-2.98868074040833,-1.11135848317965,,3.4647162916599608,,
,3414.0,748.0,2644.0,1061.0,1805.0,3214.0,1402.0,,,,-1.59448134011036,-2.98865773206858,-1.11131162634816,,3.717137240574252,,
,3416.0,749.0,2647.0,1065.0,1818.0,3204.0,1426.0,,,,-1.59439540733701,-2.98845445025127,-1.11176371899058,,3.8962148110863026,,
,3419.0,751.0,2646.0,1065.0,1818.0,3223.0,1398.0,,,,-1.59483278636381,-2.98858759597778,-1.11117881411971,,3.9950285304648525,,
,3417.0,750.0,2648.0,1064.0,1818.0,3222.0,1397.0,,,,-1.59469052595971,-2.98857598603154,-1.11166085529545,,4.009146530676821,,
,3419.0,748.0,2648.0,1063.0,1828.0,3236.0,1395.0,,,,-1.59393358428437,-2.98868288664953,-1.11173698854653,,3.937084368138061,,
,3418.0,751.0,2648.0,1064.0,1805.0,3225.0,1431.0,,,,-1.594702450948,-2.98871140278347,-1.11135863962486,,3.780588456265308,,
,3419.0,752.0,2649.0,1067.0,1818.0,3220.0,1430.0,,,,-1.59518676522023,-2.98856672562236,-1.11176233091621,,3.54469329310544,,
,3421.0,752.0,2649.0,1067.0,1812.0,3232.0,1419.0,,,,-1.59670142441553,-2.98875025940136,-1.11248929511885,,3.237526086998406,,
,3418.0,749.0,2645.0,1064.0,1803.0,3236.0,1412.0,,,,-1.5971125112925,-2.98881414657078,-1.11271087575547,,2.8698640719036494,,
,3421.0,752.0,2649.0,1065.0,1780.0,3238.0,1425.0,,,,-1.5970330565052,-2.98873773286543,-1.11297178999304,,2.454482613137965,,
,3421.0,750.0,2650.0,1067.0,1786.0,3225.0,1427.0,,,,-1.59808104671181,-2.98887596035069,-1.11359684392901,,2.0053590208999976,,
,3420.0,751.0,2649.0,1065.0,1786.0,3222.0,1437.0,,,,-1.59817423540433,-2.98899173635293,-1.11393133045721,,1.5368126920437235,,
,3420.0,751.0,2648.0,1068.0,1801.0,3232.0,1438.0,,,,-1.59953507403877,-2.989049938169,-1.11439169896622,,1.0626651658887998,,
,3422.0,752.0,2651.0,1066.0,1809.0,3231.0,1420.0,,,,-1.59925202463408,-2.98901759579169,-1.11508344393133,,0.5954953734657349,,
,3424.0,752.0,2650.0,1065.0,1825.0,3228.0,1422.0,,,,-1.59993417254114,-2.9890309303434,-1.11431990557239,,0.14604904963125354,,
,3422.0,752.0,2654.0,1069.0,1823.0,3226.0,1427.0,,,,-1.60109848958312,-2.9891612006625,-1.11494158525553,,-0.2771593097829803,,
,3421.0,750.0,2649.0,1066.0,1814.0,3230.0,1434.0,,,,-1.60057540236328,-2.98913551111074,-1.11608086248408,,-0.6680352445136247,,
,3424.0,752.0,2650.0,1069.0,1808.0,3231.0,1424.0,,,,-1.60112059201631,-2.98908536662599,-1.11562200046368,,-1.022887665163349,,
,3424.0,754.0,2652.0,1068.0,1800.0,3224.0,1415.0,,,,-1.60173192616297,-2.98907981702864,-1.11594290565763,,-1.340228198976663,,
,3424.0,752.0,2651.0,1067.0,1805.0,3218.0,1425.0,,,,-1.60183407682332,-2.98907280470665,-1.11615621732476,,-1.6204217246601242,,
,3422.0,752.0,2650.0,1068.0,1812.0,3247.0,1429.0,,,,-1.60201314644868,-2.98913281463739,-1.1161351627436,,-1.8652323019930561,,
,3424.0,754.0,2652.0,1067.0,1823.0,3229.0,1454.0,,,,-1.60232618482316,-2.98911128793664,-1.11595154719763,,-2.077313030985982,,
,3426.0,755.0,2653.0,1071.0,1803.0,3232.0,1429.0,,,,-1.60248290749847,-2.98911241757123,-1.11600051777199,,-2.2596886252399355,,
,3425.0,753.0,2655.0,1072.0,1799.0,3224.0,1416.0,,,,-1.60217751677711,-2.98898771098359,-1.11577587212591,,-2.415276500529053,,
,3426.0,753.0,2654.0,1068.0,1798.0,3217.0,1379.0,,,,-1.60301165420501,-2.98908537711452,-1.11592621428965,,-2.54648654129351,,
,3427.0,756.0,2656.0,1070.0,1799.0,3232.0,1387.0,,,,-1.60217081889368,-2.98913613186006,-1.11706065651213,,-2.654931541357127,,
,3426.0,752.0,2656.0,1070.0,1793.0,3220.0,1418.0,,,,-1.60216788500811,-2.98913476305556,-1.11674984865546,,-2.741269510634405,,
,3427.0,755.0,2656.0,1071.0,1803.0,3219.0,1436.0,,,,-1.60152833739987,-2.98908548054087,-1.11587707577537,,-2.8051856598910603,,
,3425.0,755.0,2656.0,1071.0,1793.0,3228.0,1414.0,,,,-1.60227353457408,-2.98912515653182,-1.11645071632114,,-2.845506627770257,,
,3430.0,755.0,2656.0,1070.0,1800.0,3248.0,1408.0,,,,-1.6017078112836,-2.98916999522843,-1.11640486694772,,-2.8604241643240154,,
,3431.0,756.0,2657.0,1073.0,1805.0,3232.0,1433.0,,,,-1.60192834365289,-2.98910525429197,-1.11592657056116,,-2.847792703793982,,
,3430.0,756.0,2658.0,1072.0,1803.0,3233.0,1410.0,,,,-1.60147587624475,-2.98915366224614,-1.11536756739915,,-2.8054575575141336,,
,3430.0,755.0,2656.0,1072.0,1790.0,3228.0,1429.0,,,,-1.60167248114646,-2.98913739362941,-1.11607153040987,,-2.731569014592563,,
,3430.0,756.0,2657.0,1071.0,1808.0,3226.0,1430.0,,,,-1.60200479143268,-2.98905582625602,-1.11610830530315,,-2.6248421390526944,,
,3430.0,758.0,2659.0,1073.0,1823.0,3233.0,1428.0,,,,-1.60185702804913,-2.98901987358236,-1.11608702844196,,-2.484731427890887,,
,3433.0,757.0,2660.0,1073.0,1813.0,3227.0,1417.0,,,,-1.60241078136159,-2.98911056919607,-1.11591936688818,,-2.3115025547667596,,
,3430.0,755.0,2661.0,1073.0,1795.0,3227.0,1415.0,,,,-1.60217361240977,-2.98907346194543,-1.11647475355052,,-2.1061988507936,,
,3432.0,757.0,2658.0,1071.0,1797.0,3228.0,1414.0,,,,-1.60141007884908,-2.9890062623328,-1.11608986161252,,-1.870516174013798,,
,3432.0,755.0,2658.0,1073.0,1817.0,3211.0,1419.0,,,,-1.60224168116554,-2.98892083714499,-1.11585328477598,,-1.6066140697261968,,
,3432.0,759.0,2660.0,1075.0,1820.0,3206.0,1433.0,,,,-1.60168828552069,-2.98916882309015,-1.11604972751606,,-1.3169012949167562,,
,3434.0,756.0,2659.0,1071.0,1809.0,3224.0,1441.0,,,,-1.60140442988495,-2.98906847716488,-1.11645628087967,,-1.0038382598758753,,
,3434.0,760.0,2663.0,1075.0,1816.0,3232.0,1430.0,,,,-1.60152491742475,-2.98891745492909,-1.11652794948197,,-0.669797190958932,,
,3436.0,759.0,2663.0,1075.0,1815.0,3229.0,1385.0,,,,-1.60147219725319,-2.98896212013966,-1.11610214809288,,-0.3170132155234394,,
,3433.0,758.0,2664.0,1075.0,1813.0,3217.0,1398.0,,,,-1.60100854760205,-2.98902994886626,-1.11629949242089,,0.05235297880418189,,
,3433.0,757.0,2664.0,1073.0,1811.0,3220.0,1424.0,,,,-1.60159729022341,-2.98893596528758,-1.11610427299673,,0.4360365508353603,,
,3436.0,761.0,2664.0,1075.0,1827.0,3219.0,1433.0,,,,-1.60052205657766,-2.98890266004341,-1.11577002250754,,0.8313881383479317,,
,3436.0,760.0,2664.0,1076.0,1796.0,3236.0,1425.0,,,,-1.60099024182066,-2.98906057660816,-1.1159810024129,,1.2350246431697343,,
,3439.0,760.0,2666.0,1077.0,1798.0,3226.0,1421.0,,,,-1.60113398198609,-2.98897021953134,-1.11530173885828,,1.6424605772036873,,
,3437.0,761.0,2664.0,1074.0,1804.0,3223.0,1400.0,,,,-1.60032385610434,-2.98881638274947,-1.11605176799588,,2.047780703910697,,
,3438.0,758.0,2668.0,1076.0,1816.0,3228.0,1424.0,,,,-1.60003914954861,-2.98887144274692,-1.11526160767692,,2.4434183743727114,,
,3440.0,761.0,2668.0,1077.0,1808.0,3231.0,1426.0,,,,-1.60020702626953,-2.98885849920314,-1.11530287605753,,2.8200986517643867,,
,3441.0,759.0,2667.0,1078.0,1815.0,3236.0,1413.0,,,,-1.60013628747839,-2.98898902415283,-1.11584536361906,,3.1669911771184402,,
,3441.0,759.0,2665.0,1075.0,1809.0,3232.0,1387.0,,,,-1.59977433729141,-2.98910256377389,-1.11524044960653,,3.472095901549583,,
,3437.0,760.0,2667.0,1077.0,1804.0,3238.0,1398.0,,,,-1.59979645692048,-2.9888972814341,-1.11537086535537,,3.722857086906688,,
,3437.0,761.0,2665.0,1078.0,1814.0,3241.0,1405.0,,,,-1.59927951334898,-2.98882063583012,-1.11504440176984,,3.9069700125963926,,
,3438.0,758.0,2666.0,1076.0,1817.0,3252.0,1407.0,,,,-1.59931456249466,-2.98889165410495,-1.11540350853826,,4.013314579981659,,
,3435.0,758.0,2663.0,1073.0,1804.0,3253.0,1417.0,,,,-1.60016212968857,-2.98875691251981,-1.1152662317576,,4.032925497750136,,
,3434.0,759.0,2662.0,1076.0,1805.0,3230.0,1448.0,,,,-1.59930204621,-2.98880877709739,-1.11508628586087,,3.9598947795755457,,
,3435.0,759.0,2661.0,1074.0,1804.0,3221.0,1448.0,,,,-1.59854811608639,-2.98883597399372,-1.11540887940237,,3.792102007169919,,
,3433.0,759.0,2660.0,1071.0,1800.0,3210.0,1447.0,,,,-1.59944725761254,-2.98878421320964,-1.11505072757451,,3.531681882914434,,
,3430.0,757.0,2656.0,1070.0,1793.0,3233.0,1456.0,,,,-1.59877210985855,-2.98888158749579,-1.11540780076968,,3.1851653223524843,,
,3431.0,758.0,2656.0,1071.0,1789.0,3213.0,1417.0,,,,-1.59875683713932,-2.9888012531562,-1.11496670557151,,2.7632659798514503,,
,3430.0,758.0,2656.0,1072.0,1782.0,3193.0,1447.0,,,,-1.59890536165296,-2.98882311934427,-1.1153522706345,,2.2803233222879498,,
,3429.0,757.0,2653.0,1070.0,1778.0,3205.0,1447.0,,,,-1.59829568456237,-2.98872240015247,-1.11522198048958,,1.7534502428044532,,
,3428.0,757.0,2653.0,1070.0,1782.0,3200.0,1435.0,,,,-1.59887752966439,-2.98888576823497,-1.11398931310007,,1.2014628264095168,,
,3428.0,757.0,2652.0,1069.0,1779.0,3226.0,1427.0,,,,-1.5984270050549,-2.98882496330916,-1.11449576064443,,0.6436894290823832,,
,3428.0,760.0,2652.0,1068.0,1790.0,3225.0,1449.0,,,,-1.59845866835267,-2.98869072315331,-1.11428266369439,,0.09876469005550643,,
,3427.0,758.0,2652.0,1067.0,1804.0,3220.0,1453.0,,,,-1.59862443870525,-2.98871925658673,-1.11421569967614,,-0.41648868105023357,,
,3428.0,756.0,2651.0,1066.0,1805.0,3211.0,1423.0,,,,-1.59800065816604,-2.98865334182775,-1.11479874934297,,-0.8880008601306888,,
,3425.0,754.0,2650.0,1068.0,1820.0,3224.0,1392.0,,,,-1.59859661348669,-2.98875381043286,-1.11499544269892,,-1.3051509875221563,,
,3428.0,758.0,2650.0,1069.0,1820.0,3234.0,1390.0,,,,-1.59886496269478,-2.98880150277064,-1.11454409877449,,-1.661177582070647,,
,3427.0,757.0,2650.0,1069.0,1813.0,3231.0,1392.0,,,,-1.59918107736125,-2.98862814276868,-1.11466776233057,,-1.953290266034629,,
,3427.0,757.0,2652.0,1067.0,1806.0,3220.0,1401.0,,,,-1.59843463250421,-2.98874485092068,-1.11498246944809,,-2.1824950532616203,,
,3428.0,757.0,2648.0,1067.0,1821.0,3220.0,1386.0,,,,-1.59880511638379,-2.98858152772578,-1.11497594795433,,-2.3531660720850507,,
,3427.0,757.0,2651.0,1068.0,1819.0,3223.0,1416.0,,,,-1.59723550806436,-2.98858649473854,-1.11438490916638,,-2.4724116911523466,,
,3430.0,758.0,2650.0,1068.0,1813.0,3241.0,1426.0,,,,-1.5975516629106,-2.98861270167267,-1.11451079148893,,-2.5492927366803118,,
,3428.0,758.0,2647.0,1066.0,1792.0,3232.0,1423.0,,,,-1.59782220586622,-2.98877241992941,-1.11405697372545,,-2.5939555416316784,,
,3428.0,757.0,2649.0,1069.0,1807.0,3229.0,1410.0,,,,-1.59779233459526,-2.98855870132805,-1.11379316384245,,-2.61674374217434,,
,3426.0,760.0,2651.0,1070.0,1804.0,3227.0,1419.0,,,,-1.59799527434154,-2.98857126835722,-1.11422572595736,,-2.627350569852278,,
,3427.0,757.0,2650.0,1068.0,1812.0,3235.0,1402.0,,,,-1.59713727140073,-2.98851244416539,-1.11415657126016,,-2.634068145220489,,
,3426.0,757.0,2648.0,1066.0,1814.0,3246.0,1397.0,,,,-1.59696874953145,-2.98866132191695,-1.11405076313769,,-2.643182152158561,,
,3428.0,758.0,2647.0,1069.0,1796.0,3229.0,1415.0,,,,-1.59670749873378,-2.98857022443235,-1.11402324766125,,-2.6585494711698057,,
,3427.0,757.0,2649.0,1068.0,1810.0,3214.0,1430.0,,,,-1.59628910007201,-2.98872191277397,-1.11365818225307,,-2.6813830557907603,,
,3430.0,758.0,2649.0,1068.0,1809.0,3214.0,1436.0,,,,-1.59625444414591,-2.98853432530969,-1.11395471027669,,-2.710252777524584,,
,3426.0,758.0,2647.0,1068.0,1804.0,3226.0,1430.0,,,,-1.59657307875747,-2.98861386717107,-1.1136995615308,,-2.741293785164486,,
,3427.0,757.0,2646.0,1066.0,1798.0,3212.0,1405.0,,,,-1.59619731839599,-2.98843250207733,-1.11297439496129,,-2.7685966520050393,,
,3429.0,758.0,2648.0,1066.0,1807.0,3212.0,1420.0,,,,-1.5961345409734,-2.98827107308999,-1.11383180573975,,-2.784738640807337,,
,3427.0,758.0,2648.0,1069.0,1807.0,3215.0,1418.0,,,,-1.59588368521336,-2.98846633375111,-1.11355698893013,,-2.78140527445902,,
,3427.0,755.0,2648.0,1068.0,1802.0,3217.0,1431.0,,,,-1.59535585509973,-2.988392209302,-1.1128621879938,,-2.750047424101329,,
,3427.0,758.0,2645.0,1067.0,1805.0,3211.0,1423.0,,,,-1.59479091703159,-2.98840107671869,-1.11272773452395,,-2.682521139125479,,
