TimeLabel,MEAS1_PPG1,MEAS1_PPG2,MEAS1_PPG3,MEAS1_PPG4,ACCX,ACCY,ACCZ,HR_timestamp,HR_value,radar_timestamp,phase_rx0,phase_rx1,phase_rx2,timestep,n_process,original_rate,calculated_rate
2025-08-19 22:10:51,4496.0,868.0,4135.0,995.0,2229.0,2940.0,1527.0,2025-08-19 22:10:51,76.0,2025/08/19 10:10:51 PM,0.0371105712064674,-1.96547584423936,0.0745735233059217,2025/08/19 10:10:51 PM,-3.0692087603631255,19.65065574645996,22.233453129679546
,4498.0,871.0,4136.0,995.0,2233.0,2939.0,1538.0,2025-08-19 22:10:52,77.0,,0.037093954903544,-1.96514435691831,0.0747321075845884,2025/08/19 10:11:01 PM,-3.1451211464317104,22.27171516418457,23.098285855222596
,4496.0,871.0,4137.0,995.0,2260.0,2944.0,1537.0,2025-08-19 22:10:53,77.0,,0.037064094789484,-1.96502879437594,0.0747034467059528,2025/08/19 10:11:11 PM,-3.199682187440819,22.388059616088867,23.26298040583755
,4499.0,871.0,4140.0,997.0,2265.0,2930.0,1540.0,2025-08-19 22:10:54,77.0,,0.0370354242825286,-1.96488818752191,0.0746602735887779,2025/08/19 10:11:21 PM,-3.2309946031331886,22.90076446533203,22.985163683276884
,4502.0,871.0,4141.0,998.0,2280.0,2925.0,1527.0,2025-08-19 22:10:55,77.0,,0.0369673046569996,-1.96539957314389,0.0746627700415471,2025/08/19 10:11:31 PM,-3.2365399193048714,23.125436782836918,24.56825037707391
,4503.0,871.0,4140.0,996.0,2256.0,2923.0,1511.0,2025-08-19 22:10:56,76.0,,0.0370484604562746,-1.96541284064086,0.0746863944097745,2025/08/19 10:11:41 PM,-3.213424059668953,23.571428298950195,22.90919996445603
,4505.0,872.0,4141.0,997.0,2235.0,2963.0,1518.0,2025-08-19 22:10:57,76.0,,0.0370071926313423,-1.96546597650295,0.0747556890328492,2025/08/19 10:11:51 PM,-3.15864369778624,23.47083854675293,22.334887334887334
,4504.0,875.0,4139.0,998.0,2266.0,2961.0,1523.0,2025-08-19 22:10:58,75.0,,0.0369902789066908,-1.96564693193629,0.0746904105070496,2025/08/19 10:12:01 PM,-3.06935137581351,23.42086601257324,23.329643721895557
,4503.0,872.0,4137.0,999.0,2253.0,2951.0,1523.0,2025-08-19 22:10:59,75.0,,0.0369618939884703,-1.96589170662442,0.0746715939476348,2025/08/19 10:12:11 PM,-2.943099541158009,22.641510009765625,22.920478368591578
,4500.0,869.0,4131.0,993.0,2248.0,2943.0,1515.0,2025-08-19 22:11:00,75.0,,0.0369517803396153,-1.96610209764549,0.0746246026863108,2025/08/19 10:12:21 PM,-2.7780477023316954,22.67573547363281,24.622448979591837
,4498.0,868.0,4126.0,991.0,2229.0,2926.0,1518.0,2025-08-19 22:11:01,75.0,,0.0368848543611325,-1.96638060065028,0.0745329375310606,2025/08/19 10:12:31 PM,-2.573122662503855,23.45415687561035,24.265331664580714
,4494.0,870.0,4124.0,991.0,2243.0,2903.0,1532.0,2025-08-19 22:11:02,75.0,,0.0369426163789568,-1.96638710618754,0.0746391679948735,2025/08/19 10:12:41 PM,-2.32812864321093,23.68987846374512,24.44396198195593
,4491.0,867.0,4120.0,991.0,2233.0,2911.0,1539.0,2025-08-19 22:11:03,76.0,,0.0368366599064237,-1.96652013445688,0.0745307732411481,2025/08/19 10:12:51 PM,-2.0438109328919922,24.39024353027344,24.171440261865758
,4488.0,866.0,4116.0,989.0,2228.0,2913.0,1551.0,2025-08-19 22:11:04,76.0,,0.0368436891319612,-1.9667134016623,0.0744193309663869,2025/08/19 10:13:01 PM,-1.7218820052063772,24.2112979888916,23.764705882352956
,4485.0,866.0,4110.0,986.0,2222.0,2906.0,1529.0,2025-08-19 22:11:05,77.0,,0.0367917237513713,-1.96682112472963,0.0744783475610817,2025/08/19 10:13:11 PM,-1.3650215574813218,24.105186462402344,22.471968709256885
,4483.0,864.0,4108.0,986.0,2224.0,2897.0,1534.0,2025-08-19 22:11:06,77.0,,0.0367358381816197,-1.96710972793957,0.0743933304071732,2025/08/19 10:13:21 PM,-0.9768611964866176,23.521026611328125,23.08998548621189
,4478.0,862.0,4104.0,984.0,2215.0,2896.0,1536.0,2025-08-19 22:11:07,77.0,,0.0367213320471801,-1.96714253291944,0.0744140788593603,2025/08/19 10:13:31 PM,-0.5619612314853216,23.14165496826172,24.151583710407195
,4478.0,860.0,4101.0,981.0,2216.0,2913.0,1528.0,2025-08-19 22:11:08,76.0,,0.0366681403446244,-1.9677497723999,0.0743806274465894,2025/08/19 10:13:41 PM,-0.12578252118515432,23.27221298217773,22.48025659862519
,4475.0,861.0,4100.0,980.0,2202.0,2927.0,1547.0,2025-08-19 22:11:09,76.0,,0.0367018646168261,-1.96771315775335,0.0743961366923381,,0.3253482491924514,,
,4475.0,862.0,4101.0,982.0,2214.0,2927.0,1524.0,2025-08-19 22:11:10,76.0,,0.03661174651477,-1.9679317690906,0.0743107408928116,,0.7842853409217999,,
,4473.0,862.0,4098.0,981.0,2229.0,2959.0,1541.0,2025-08-19 22:11:11,76.0,,0.0365392538544301,-1.96828239779235,0.0742358747485942,,1.2431309743304728,,
,4476.0,861.0,4100.0,984.0,2228.0,2960.0,1537.0,2025-08-19 22:11:12,76.0,,0.0365347604329578,-1.96880130127434,0.0743142252000971,,1.6933321246165383,,
,4475.0,862.0,4097.0,983.0,2245.0,2952.0,1527.0,2025-08-19 22:11:13,76.0,,0.0364934559638579,-1.96894103097613,0.0742736964076456,,2.125816590692534,,
,4473.0,862.0,4100.0,981.0,2240.0,2940.0,1531.0,2025-08-19 22:11:14,76.0,,0.0364930907172239,-1.96949303733385,0.0742906958425405,,2.531176372353427,,
,4474.0,863.0,4098.0,982.0,2225.0,2932.0,1512.0,2025-08-19 22:11:15,76.0,,0.0363887598277493,-1.96940749732372,0.0741750765705518,,2.8999035432966496,,
,4476.0,860.0,4100.0,983.0,2234.0,2931.0,1516.0,2025-08-19 22:11:16,76.0,,0.0363872337922876,-1.96998293386136,0.0743029875998969,,3.2226795865041984,,
,4474.0,860.0,4100.0,983.0,2258.0,2950.0,1537.0,2025-08-19 22:11:17,76.0,,0.03624378956678,-1.97055000011791,0.0740603502699957,,3.4907136262935863,,
,4475.0,861.0,4101.0,983.0,2242.0,2941.0,1539.0,2025-08-19 22:11:18,75.0,,0.0361683323675911,-1.97098162429369,0.0739548756048323,,3.6961182938225035,,
,4475.0,860.0,4101.0,983.0,2223.0,2939.0,1541.0,2025-08-19 22:11:19,75.0,,0.0361386198796575,-1.97164102872237,0.0739869245662477,,3.8323044758698277,,
,4474.0,862.0,4101.0,984.0,2210.0,2942.0,1527.0,2025-08-19 22:11:20,74.0,,0.0360955857308986,-1.97216646757421,0.0738195323302006,,3.8943687290728466,,
,4475.0,860.0,4099.0,982.0,2215.0,2936.0,1518.0,2025-08-19 22:11:21,74.0,,0.0359527391469582,-1.97260327250883,0.0738164841057124,,3.879440937767262,,
,4472.0,859.0,4100.0,981.0,2238.0,2937.0,1544.0,2025-08-19 22:11:22,74.0,,0.0358254937555454,-1.97356464112609,0.0738191429734171,,3.786956270937275,,
,4475.0,860.0,4100.0,983.0,2252.0,2929.0,1540.0,2025-08-19 22:11:23,74.0,,0.0357992650855751,-1.97426027308815,0.0736824583973887,,3.618816014312148,,
,4475.0,862.0,4102.0,983.0,2255.0,2927.0,1546.0,2025-08-19 22:11:24,75.0,,0.0356534398830197,-1.97510023296125,0.0734963378971647,,3.379407600716097,,
,4474.0,861.0,4104.0,983.0,2245.0,2920.0,1538.0,2025-08-19 22:11:25,76.0,,0.0356004322482992,-1.97539631055709,0.0736433983183506,,3.0754657284116456,,
,4474.0,862.0,4103.0,982.0,2229.0,2933.0,1530.0,2025-08-19 22:11:26,77.0,,0.0354638388712083,-1.9763012250774,0.0734643076651871,,2.7157730838732217,,
,4474.0,861.0,4102.0,983.0,2229.0,2937.0,1534.0,2025-08-19 22:11:27,77.0,,0.0353452128626957,-1.97696092956797,0.0734587125268107,,2.3107183496181696,,
,4477.0,862.0,4104.0,983.0,2245.0,2939.0,1526.0,2025-08-19 22:11:28,77.0,,0.0352036994636503,-1.97750798633344,0.0732216177951813,,1.8717471362767564,,
,4477.0,864.0,4105.0,985.0,2235.0,2940.0,1521.0,2025-08-19 22:11:29,77.0,,0.0352074109589598,-1.97792926799363,0.0732749980843331,,1.410754508917499,,
,4478.0,863.0,4106.0,985.0,2241.0,2926.0,1534.0,2025-08-19 22:11:30,77.0,,0.0351601847676891,-1.97863565097758,0.073258129430744,,0.9394734020968144,,
,4476.0,862.0,4105.0,984.0,2237.0,2934.0,1532.0,2025-08-19 22:11:31,76.0,,0.0351487927381515,-1.9789198205231,0.0732413352110644,,0.4689108873838701,,
,4478.0,864.0,4108.0,983.0,2254.0,2937.0,1524.0,2025-08-19 22:11:32,76.0,,0.0350591058365003,-1.9783624109345,0.0731200045222042,,0.008875316661067296,,
,4479.0,866.0,4103.0,983.0,2267.0,2947.0,1529.0,2025-08-19 22:11:33,76.0,,0.035068230932596,-1.97898804626144,0.0731447998511373,,-0.43237561349708287,,
,4480.0,865.0,4107.0,986.0,2260.0,2935.0,1537.0,2025-08-19 22:11:34,76.0,,0.0350080039354171,-1.97873942612543,0.0732061110001242,,-0.8483500030842356,,
,4479.0,863.0,4106.0,984.0,2222.0,2946.0,1549.0,2025-08-19 22:11:35,76.0,,0.035090450483147,-1.97916594519667,0.0731739006315711,,-1.2343973047911714,,
,4480.0,861.0,4103.0,985.0,2225.0,2931.0,1539.0,2025-08-19 22:11:36,77.0,,0.0349800872226638,-1.9788495440856,0.0732260065574783,,-1.587652209256642,,
,4478.0,864.0,4104.0,984.0,2216.0,2934.0,1537.0,2025-08-19 22:11:37,77.0,,0.0349702894109747,-1.97900482669989,0.0730337290888277,,-1.9068628203869575,,
,4477.0,863.0,4105.0,984.0,2229.0,2926.0,1537.0,2025-08-19 22:11:38,78.0,,0.0350283518510787,-1.97942565071953,0.0731731221047461,,-2.1921249074119644,,
,4478.0,864.0,4105.0,986.0,2226.0,2929.0,1542.0,2025-08-19 22:11:39,78.0,,0.0349451747311933,-1.97946471876346,0.0730865710419328,,-2.444548268067947,,
,4475.0,863.0,4104.0,985.0,2240.0,2899.0,1531.0,2025-08-19 22:11:40,78.0,,0.0349645751034905,-1.97897741899376,0.073013622877338,,-2.665884204047388,,
,4478.0,863.0,4107.0,984.0,2229.0,2945.0,1530.0,2025-08-19 22:11:41,78.0,,0.0349107824751398,-1.97904371851411,0.0731082458597293,,-2.8581445713001914,,
,4479.0,863.0,4106.0,987.0,2218.0,2944.0,1522.0,2025-08-19 22:11:42,77.0,,0.0348698345900217,-1.97966535035441,0.0730965520057699,,-3.0232424175398678,,
,4479.0,863.0,4106.0,986.0,2234.0,2955.0,1521.0,2025-08-19 22:11:43,77.0,,0.034949138650857,-1.97986562125492,0.0730612213865402,,-3.162681692915001,,
,4480.0,861.0,4106.0,986.0,2226.0,2972.0,1515.0,2025-08-19 22:11:44,77.0,,0.0348515324570287,-1.97975756771595,0.0730395136925524,,-3.2773190687203333,,
,4478.0,865.0,4110.0,986.0,2210.0,2968.0,1528.0,2025-08-19 22:11:45,78.0,,0.0348495912461123,-1.98021351531482,0.0730062579691573,,-3.367214793299757,,
,4478.0,864.0,4112.0,986.0,2211.0,2937.0,1535.0,2025-08-19 22:11:46,78.0,,0.034851558038877,-1.9800308036275,0.0729714722756957,,-3.431582034156092,,
,4480.0,865.0,4109.0,987.0,2213.0,2921.0,1537.0,2025-08-19 22:11:47,79.0,,0.0348311613207999,-1.98012073275385,0.0730418560398143,,-3.4688357012503874,,
,4479.0,864.0,4112.0,986.0,2227.0,2908.0,1544.0,2025-08-19 22:11:48,79.0,,0.0348224916799204,-1.98062791953384,0.0730072107732017,,-3.476732958998697,,
,4479.0,865.0,4117.0,988.0,2225.0,2906.0,1546.0,2025-08-19 22:11:49,79.0,,0.0348543310273136,-1.98114610284366,0.0729591124250351,,-3.452589330339451,,
,4479.0,865.0,4117.0,988.0,2248.0,2899.0,1528.0,2025-08-19 22:11:50,79.0,,0.034829715033608,-1.98040004988198,0.0728893787754391,,-3.3935473023591793,,
,4483.0,868.0,4121.0,990.0,2248.0,2919.0,1520.0,2025-08-19 22:11:51,80.0,,0.0347113172070681,-1.98059307575889,0.0729916983490665,,-3.2968693928728783,,
,4483.0,865.0,4123.0,990.0,2225.0,2928.0,1534.0,2025-08-19 22:11:52,79.0,,0.034752829246428,-1.98037168502784,0.0729498388458484,,-3.160225359449976,,
,4484.0,866.0,4125.0,989.0,2241.0,2921.0,1544.0,2025-08-19 22:11:53,79.0,,0.0347259922634595,-1.98070733997359,0.0728265854417057,,-2.981944199406,,
,4483.0,867.0,4126.0,991.0,2218.0,2928.0,1542.0,2025-08-19 22:11:54,79.0,,0.0346892202197377,-1.98154383093826,0.0729833885120517,,-2.7612063352088585,,
,4485.0,867.0,4129.0,994.0,2232.0,2934.0,1521.0,2025-08-19 22:11:55,79.0,,0.0346856197395438,-1.981371164627,0.0727691877144762,,-2.4981601191604814,,
,4486.0,867.0,4133.0,992.0,2226.0,2929.0,1529.0,2025-08-19 22:11:56,79.0,,0.0346016519271582,-1.98126567966078,0.0727490799812262,,-2.193958779634796,,
,4488.0,869.0,4136.0,992.0,2239.0,2923.0,1542.0,2025-08-19 22:11:57,78.0,,0.0346103817939987,-1.98158638748327,0.0728608328385951,,-1.8507270431002638,,
,4490.0,869.0,4134.0,993.0,2266.0,2925.0,1524.0,2025-08-19 22:11:58,77.0,,0.0345629366178255,-1.98184780823503,0.0728550153278638,,-1.4714778480148971,,
,4494.0,873.0,4142.0,997.0,2243.0,2916.0,1518.0,2025-08-19 22:11:59,77.0,,0.0345843411541634,-1.98229931873277,0.0728058673073337,,-1.0600060070563606,,
,4495.0,870.0,4144.0,996.0,2232.0,2918.0,1519.0,2025-08-19 22:12:00,77.0,,0.0345597068257857,-1.98175217873904,0.0726820065132652,,-0.6207859397733997,,
,4495.0,869.0,4144.0,999.0,2216.0,2925.0,1532.0,2025-08-19 22:12:01,77.0,,0.0345815377606622,-1.98158736156622,0.0728021241030639,,-0.15889511129987155,,
,4495.0,870.0,4148.0,994.0,2246.0,2939.0,1519.0,2025-08-19 22:12:02,76.0,,0.0345513466343286,-1.98214072853867,0.0728182663688985,,0.3200246096921817,,
,4498.0,872.0,4150.0,997.0,2256.0,2948.0,1519.0,2025-08-19 22:12:03,76.0,,0.0345177898079427,-1.98162576433463,0.0727960237268742,,0.80976662601216,,
,4500.0,874.0,4153.0,998.0,2245.0,2934.0,1530.0,2025-08-19 22:12:04,76.0,,0.0344878101693953,-1.98184714871346,0.0728452322674495,,1.3035302459083369,,
,4500.0,871.0,4156.0,1000.0,2233.0,2942.0,1535.0,2025-08-19 22:12:05,75.0,,0.0344552521962078,-1.98171157126998,0.0727597960494939,,1.7938813359418702,,
,4500.0,873.0,4156.0,1000.0,2248.0,2946.0,1534.0,2025-08-19 22:12:06,75.0,,0.0345623558996748,-1.98184128932185,0.0728911085232563,,2.2727280523083846,,
,4502.0,874.0,4161.0,999.0,2235.0,2931.0,1534.0,2025-08-19 22:12:07,75.0,,0.0345762141879415,-1.9812416400797,0.0728463150049365,,2.731338920772676,,
,4504.0,873.0,4161.0,1000.0,2237.0,2923.0,1528.0,2025-08-19 22:12:08,75.0,,0.0346427810694077,-1.98131265452654,0.0728287840579707,,3.1604289556947878,,
,4507.0,874.0,4162.0,1003.0,2238.0,2931.0,1517.0,2025-08-19 22:12:09,75.0,,0.0346828883728783,-1.98187956032915,0.0727166397379692,,3.550334368326819,,
,4506.0,874.0,4166.0,1004.0,2238.0,2937.0,1537.0,2025-08-19 22:12:10,75.0,,0.0346103805883043,-1.9813884669978,0.0727647432784044,,3.8912878248380656,,
,4511.0,873.0,4169.0,1003.0,2237.0,2910.0,1523.0,2025-08-19 22:12:11,76.0,,0.0346752900238939,-1.98123063877825,0.0727470614014927,,4.173794378933,,
,4512.0,879.0,4174.0,1004.0,2235.0,2899.0,1518.0,2025-08-19 22:12:12,77.0,,0.0346096222666671,-1.98134700953533,0.0727860515888593,,4.389093948317156,,
,4514.0,878.0,4174.0,1007.0,2228.0,2918.0,1522.0,2025-08-19 22:12:13,78.0,,0.0345772382930515,-1.98158376539037,0.0727874489537709,,4.5296811629149065,,
,4514.0,878.0,4180.0,1007.0,2212.0,2946.0,1522.0,2025-08-19 22:12:14,80.0,,0.0345749459291951,-1.98182762426967,0.0728555204693986,,4.589839707118326,,
,4516.0,877.0,4179.0,1005.0,2232.0,2935.0,1514.0,2025-08-19 22:12:15,81.0,,0.0345771559842875,-1.98171704011907,0.07283292405817,,4.566138103504631,,
,4520.0,879.0,4182.0,1006.0,2234.0,2934.0,1527.0,2025-08-19 22:12:16,82.0,,0.0344531528743809,-1.98137902395286,0.0727339037794884,,4.457829275142922,,
,4523.0,880.0,4183.0,1009.0,2216.0,2920.0,1540.0,2025-08-19 22:12:17,83.0,,0.034522266695306,-1.98099119299388,0.0727213485239693,,4.267098861328835,,
,4523.0,880.0,4189.0,1007.0,2222.0,2917.0,1540.0,2025-08-19 22:12:18,82.0,,0.0345250321386568,-1.98113153525076,0.072874464876019,,3.999118129774069,,
,4524.0,880.0,4187.0,1008.0,2218.0,2945.0,1548.0,2025-08-19 22:12:19,82.0,,0.0346633991675931,-1.98144343108783,0.0728361546093404,,3.6618761417425674,,
,4525.0,877.0,4190.0,1010.0,2238.0,2956.0,1556.0,2025-08-19 22:12:20,81.0,,0.0346544287234153,-1.98078379073389,0.072764919835773,,3.265790480568774,,
,4528.0,881.0,4191.0,1008.0,2230.0,2953.0,1547.0,2025-08-19 22:12:21,80.0,,0.0347045903572004,-1.98079378921723,0.0728364421183763,,2.8231224541710525,,
,4529.0,881.0,4193.0,1010.0,2223.0,2961.0,1551.0,2025-08-19 22:12:22,80.0,,0.0347102119611854,-1.98077347239314,0.0729536573798695,,2.347246548782183,,
,4531.0,882.0,4194.0,1013.0,2217.0,2931.0,1542.0,2025-08-19 22:12:23,79.0,,0.0347442258204917,-1.98067305801145,0.0729714944759572,,1.8518410999224644,,
,4533.0,881.0,4199.0,1011.0,2215.0,2922.0,1544.0,2025-08-19 22:12:24,79.0,,0.0347706774664996,-1.98056528514122,0.0729059988335921,,1.350075473987066,,
,4537.0,885.0,4202.0,1015.0,2212.0,2936.0,1536.0,2025-08-19 22:12:25,78.0,,0.0347967675721579,-1.98054295337537,0.0730216544069464,,0.8538681183263933,,
,4537.0,887.0,4205.0,1015.0,2220.0,2954.0,1529.0,2025-08-19 22:12:26,78.0,,0.0348368341062103,-1.98024476754155,0.072919646311022,,0.3732804970451208,,
,4540.0,884.0,4205.0,1014.0,2221.0,2935.0,1532.0,2025-08-19 22:12:27,77.0,,0.0348442958484157,-1.97966405187171,0.0730465904098779,,-0.08390408778216747,,
,4540.0,882.0,4208.0,1012.0,2212.0,2944.0,1530.0,2025-08-19 22:12:28,77.0,,0.0349229346474673,-1.9800985625728,0.0730347926963848,,-0.5123880870350146,,
,4542.0,885.0,4209.0,1017.0,2217.0,2934.0,1520.0,2025-08-19 22:12:29,77.0,,0.0348962967034688,-1.97962023195909,0.0728903448461663,,-0.9093468494278883,,
,4544.0,885.0,4211.0,1016.0,2207.0,2924.0,1528.0,2025-08-19 22:12:30,76.0,,0.0349464699267756,-1.97970635027405,0.0729618442661075,,-1.2742092693723548,,
,4548.0,886.0,4214.0,1017.0,2221.0,2933.0,1531.0,2025-08-19 22:12:31,76.0,,0.0349586959794779,-1.97947900311794,0.0731209814678889,,-1.6082636251042528,,
,4547.0,884.0,4211.0,1018.0,2236.0,2928.0,1537.0,2025-08-19 22:12:32,76.0,,0.0350118112155183,-1.97945317277979,0.0730662576119106,,-1.91413366646381,,
,4551.0,887.0,4215.0,1021.0,2225.0,2934.0,1530.0,2025-08-19 22:12:33,76.0,,0.0349730402935536,-1.9792161881799,0.0730676134582014,,-2.1951784047146363,,
,4550.0,889.0,4222.0,1018.0,2236.0,2928.0,1524.0,2025-08-19 22:12:34,76.0,,0.0349789014134532,-1.97899602190668,0.072991001003153,,-2.454872350044542,,
,4553.0,888.0,4223.0,1020.0,2232.0,2931.0,1535.0,2025-08-19 22:12:35,76.0,,0.0350560767092667,-1.97877882141072,0.0732487824723967,,-2.6962213449266375,,
,4557.0,885.0,4224.0,1021.0,2252.0,2931.0,1517.0,2025-08-19 22:12:36,75.0,,0.0351998919702364,-1.97900483260429,0.0731567769808763,,-2.9212631339239308,,
,4557.0,889.0,4224.0,1020.0,2229.0,2920.0,1521.0,2025-08-19 22:12:37,75.0,,0.0351194065855971,-1.9785238945778,0.0731701054030152,,-3.130692103446387,,
,4561.0,889.0,4226.0,1023.0,2232.0,2931.0,1537.0,2025-08-19 22:12:38,75.0,,0.0351309793977133,-1.97833278678942,0.0731538012464782,,-3.32363508596427,,
,4562.0,891.0,4230.0,1023.0,2235.0,2937.0,1543.0,2025-08-19 22:12:39,75.0,,0.0351509725842002,-1.97831326503533,0.0732690263937305,,-3.497590794309474,,
,4564.0,890.0,4230.0,1025.0,2246.0,2932.0,1545.0,2025-08-19 22:12:40,76.0,,0.035121815464702,-1.97841319089663,0.0731558665811146,,-3.648530691833888,,
,4564.0,888.0,4228.0,1024.0,2244.0,2952.0,1539.0,2025-08-19 22:12:41,77.0,,0.0351411091971326,-1.97774063744489,0.0732332983282548,,-3.7711455262350957,,
,4562.0,889.0,4228.0,1022.0,2233.0,2962.0,1516.0,2025-08-19 22:12:42,77.0,,0.0351026915108811,-1.97794572750306,0.0731113777121745,,-3.859210702226891,,
,4563.0,892.0,4227.0,1024.0,2238.0,2970.0,1513.0,2025-08-19 22:12:43,77.0,,0.0351307859602551,-1.97802114012148,0.073169342618372,,-3.906035693865537,,
,4563.0,889.0,4227.0,1024.0,2223.0,2958.0,1520.0,2025-08-19 22:12:44,77.0,,0.0351249109772572,-1.97780130299179,0.0732447071940638,,-3.9049577179144794,,
,4562.0,888.0,4222.0,1021.0,2230.0,2952.0,1538.0,2025-08-19 22:12:45,76.0,,0.0351579157540059,-1.97766486209669,0.0732082337054977,,-3.8498378514143954,,
,4560.0,889.0,4215.0,1019.0,2227.0,2944.0,1536.0,2025-08-19 22:12:46,76.0,,0.0351504716686498,-1.97795926755566,0.0732182755025658,,-3.7355190560184632,,
,4557.0,889.0,4214.0,1020.0,2213.0,2947.0,1521.0,2025-08-19 22:12:47,76.0,,0.035173199280032,-1.97773343904782,0.0732414161833335,,-3.558210745629119,,
,4552.0,885.0,4207.0,1017.0,2219.0,2939.0,1524.0,2025-08-19 22:12:48,76.0,,0.035214430256895,-1.97793812271094,0.0732890679603389,,-3.3157737874119877,,
,4550.0,886.0,4208.0,1017.0,2241.0,2916.0,1528.0,2025-08-19 22:12:49,76.0,,0.0351762859175294,-1.97774484251866,0.0731686449056843,,-3.007892421728454,,
,4547.0,881.0,4200.0,1011.0,2222.0,2928.0,1530.0,2025-08-19 22:12:50,77.0,,0.035188755326797,-1.97791239670362,0.0730677276798155,,-2.636133699709779,,
,4544.0,884.0,4202.0,1014.0,2210.0,2921.0,1531.0,2025-08-19 22:12:51,77.0,,0.0351933911786974,-1.97763355127388,0.0731661757821639,,-2.203908111147477,,
,4544.0,883.0,4198.0,1011.0,2227.0,2937.0,1549.0,2025-08-19 22:12:52,77.0,,0.0351630822879234,-1.97778134413025,0.0731406358336474,,-1.7163545869783814,,
,4540.0,882.0,4192.0,1010.0,2231.0,2939.0,1533.0,2025-08-19 22:12:53,77.0,,0.0351066574046127,-1.97772996808401,0.0731220903331921,,-1.1801773090383598,,
,4535.0,881.0,4193.0,1008.0,2242.0,2915.0,1516.0,2025-08-19 22:12:54,76.0,,0.0351277697619962,-1.97786217552933,0.0731197456654859,,-0.6034603132846436,,
,4536.0,878.0,4192.0,1008.0,2256.0,2941.0,1497.0,2025-08-19 22:12:55,76.0,,0.0350170774205092,-1.97790331693418,0.0730957575007588,,0.004520375841126681,,
,4536.0,881.0,4194.0,1011.0,2260.0,2943.0,1503.0,2025-08-19 22:12:56,76.0,,0.0350439448159148,-1.97835601331581,0.0730546643522776,,0.6334764425228137,,
,4538.0,881.0,4196.0,1010.0,2269.0,2948.0,1513.0,2025-08-19 22:12:57,76.0,,0.0350424552993811,-1.97864140719774,0.0730018925021755,,1.27227773024429,,
,4535.0,879.0,4193.0,1009.0,2268.0,2947.0,1508.0,2025-08-19 22:12:58,76.0,,0.0349976987221523,-1.97854721559048,0.0731093856724151,,1.90912034178839,,
2025-08-19 22:10:52,4532.0,877.0,4191.0,1007.0,2253.0,2962.0,1516.0,2025-08-19 22:12:59,76.0,2025/08/19 10:10:52 PM,0.0349083232236976,-1.97914526514399,0.0729601987267754,,2.531704473935385,,
,4535.0,880.0,4193.0,1009.0,2223.0,2943.0,1510.0,2025-08-19 22:13:00,77.0,,0.0349290189600688,-1.9794584086495,0.0729441532841557,,3.1274361725733586,,
,4537.0,880.0,4195.0,1009.0,2233.0,2953.0,1523.0,2025-08-19 22:13:01,77.0,,0.0347998604583491,-1.97956319518281,0.0728998129657117,,3.6836665548751313,,
,4537.0,882.0,4196.0,1008.0,2234.0,2939.0,1521.0,2025-08-19 22:13:02,77.0,,0.034815755237247,-1.97978839490283,0.072960225747889,,4.187979126422377,,
,4537.0,880.0,4196.0,1010.0,2239.0,2940.0,1523.0,2025-08-19 22:13:03,77.0,,0.0346957407387635,-1.98057031775205,0.0730020312067925,,4.628530637865202,,
,4535.0,881.0,4197.0,1012.0,2262.0,2924.0,1531.0,2025-08-19 22:13:04,77.0,,0.0346697206255587,-1.98075034873416,0.072705608146201,,4.994443250521486,,
,4534.0,880.0,4197.0,1010.0,2246.0,2901.0,1544.0,2025-08-19 22:13:05,77.0,,0.0346105013551298,-1.98135043251312,0.0727259197307774,,5.276235928299011,,
,4538.0,881.0,4197.0,1010.0,2224.0,2921.0,1549.0,2025-08-19 22:13:06,77.0,,0.0345870462298914,-1.98141417797757,0.0726988885644136,,5.466272114979927,,
,4535.0,877.0,4199.0,1010.0,2218.0,2930.0,1537.0,2025-08-19 22:13:07,76.0,,0.0344414324535827,-1.98215185509798,0.0726456313436018,,5.559190568379918,,
,4537.0,879.0,4200.0,1010.0,2209.0,2941.0,1537.0,2025-08-19 22:13:08,77.0,,0.0344430624193069,-1.98247862079798,0.0724659619033274,,5.5522785573985605,,
,4541.0,880.0,4201.0,1012.0,2240.0,2908.0,1540.0,2025-08-19 22:13:09,77.0,,0.0344242320069431,-1.98288244248836,0.0725539621784336,,5.445743399570631,,
,4540.0,879.0,4202.0,1009.0,2229.0,2925.0,1536.0,2025-08-19 22:13:10,77.0,,0.0344612004108029,-1.98323574850612,0.0726041174930615,,5.242841228071051,,
,4539.0,881.0,4202.0,1009.0,2222.0,2893.0,1529.0,2025-08-19 22:13:11,78.0,,0.0343833595387332,-1.98362355174698,0.0724745036788585,,4.949831844681239,,
,4538.0,877.0,4201.0,1009.0,2241.0,2931.0,1536.0,2025-08-19 22:13:12,79.0,,0.0342979157308964,-1.98365260033591,0.0724623850944917,,4.575745121114548,,
,4537.0,879.0,4203.0,1014.0,2242.0,2931.0,1527.0,2025-08-19 22:13:13,79.0,,0.0342891882809863,-1.98381411543414,0.0724508772309267,,4.131965589621564,,
,4541.0,880.0,4204.0,1010.0,2238.0,2911.0,1518.0,2025-08-19 22:13:14,80.0,,0.0343085456080598,-1.98372950150811,0.0726330563737385,,3.631663915854101,,
,4539.0,882.0,4203.0,1014.0,2250.0,2909.0,1515.0,2025-08-19 22:13:15,80.0,,0.0343142568431184,-1.98400668766804,0.07254899724159,,3.0891222959452747,,
,4537.0,879.0,4201.0,1011.0,2252.0,2935.0,1527.0,2025-08-19 22:13:16,81.0,,0.0343012800150632,-1.98402600403804,0.0724932650633933,,2.5190116446022817,,
,4541.0,880.0,4204.0,1010.0,2266.0,2938.0,1527.0,2025-08-19 22:13:17,81.0,,0.0342960357748022,-1.98368263997504,0.0724612235527724,,1.9356802413270802,,
,4541.0,880.0,4205.0,1011.0,2259.0,2939.0,1542.0,2025-08-19 22:13:18,82.0,,0.0343020067409632,-1.98407542469312,0.0724845533450919,,1.3525073969565926,,
,4540.0,881.0,4206.0,1013.0,2258.0,2945.0,1543.0,2025-08-19 22:13:19,83.0,,0.0343395766487049,-1.98390041979431,0.0725278566528041,,0.781364413064154,,
,4539.0,880.0,4205.0,1012.0,2293.0,2928.0,1539.0,2025-08-19 22:13:20,83.0,,0.0343415063334005,-1.98333126606781,0.072562473181079,,0.23221157022797714,,
,4537.0,881.0,4205.0,1012.0,2289.0,2922.0,1535.0,2025-08-19 22:13:21,84.0,,0.0343536866404772,-1.9828380631315,0.0724657143137554,,-0.2871536831200392,,
,4541.0,880.0,4207.0,1011.0,2251.0,2916.0,1542.0,2025-08-19 22:13:22,85.0,,0.0344216446045031,-1.98328774994952,0.0724775076066432,,-0.7711945081359061,,
,4539.0,880.0,4205.0,1012.0,2242.0,2941.0,1532.0,2025-08-19 22:13:23,85.0,,0.0344071664800632,-1.98329826798355,0.0725949798656295,,-1.2165861155745377,,
,4540.0,880.0,4206.0,1012.0,2244.0,2930.0,1536.0,2025-08-19 22:13:24,85.0,,0.0344008308188625,-1.98288138382531,0.0723992964107873,,-1.622036950048468,,
,4536.0,879.0,4204.0,1011.0,2251.0,2942.0,1528.0,2025-08-19 22:13:25,85.0,,0.0344555916589861,-1.98267013081688,0.0725307400121926,,-1.9880017294442294,,
,4537.0,880.0,4207.0,1012.0,2231.0,2927.0,1530.0,2025-08-19 22:13:26,84.0,,0.0344347361475811,-1.98248053608632,0.0725230866990369,,-2.31631222350566,,
,4541.0,881.0,4208.0,1012.0,2222.0,2939.0,1513.0,2025-08-19 22:13:27,83.0,,0.0344509580834433,-1.98248012000022,0.0725598750460697,,-2.6097536929756107,,
,4536.0,881.0,4209.0,1011.0,2232.0,2924.0,1513.0,2025-08-19 22:13:28,82.0,,0.0344581179099329,-1.98267669273663,0.0725696838259756,,-2.871615867008445,,
,4538.0,878.0,4209.0,1012.0,2258.0,2926.0,1514.0,2025-08-19 22:13:29,81.0,,0.0345177547927338,-1.98234154054402,0.0724825534028213,,-3.1052475316946007,,
,4539.0,879.0,4208.0,1010.0,2248.0,2921.0,1515.0,2025-08-19 22:13:30,80.0,,0.0344736943353931,-1.98275726978845,0.0726272810642075,,-3.3136430385288156,,
,4542.0,879.0,4212.0,1012.0,2248.0,2930.0,1520.0,2025-08-19 22:13:31,80.0,,0.0345450391196368,-1.98244363118048,0.0725700295199722,,-3.499086857083052,,
,4541.0,880.0,4210.0,1013.0,2251.0,2919.0,1525.0,2025-08-19 22:13:32,79.0,,0.0345269382046092,-1.98210420654556,0.0725063562993157,,-3.6628784229564357,,
,4542.0,880.0,4212.0,1013.0,2232.0,2924.0,1523.0,2025-08-19 22:13:33,78.0,,0.0345834615120911,-1.98157840750896,0.0727620256785744,,-3.805154172382424,,
,4541.0,881.0,4212.0,1009.0,2239.0,2932.0,1508.0,2025-08-19 22:13:34,76.0,,0.034499218463905,-1.9820710113397,0.0726148110873316,,-3.924817324785044,,
,4540.0,882.0,4213.0,1013.0,2248.0,2915.0,1510.0,2025-08-19 22:13:35,75.0,,0.0345702491779477,-1.98176433961674,0.0725518162691074,,-4.0195791220462205,,
,4543.0,880.0,4215.0,1013.0,2254.0,2932.0,1517.0,2025-08-19 22:13:36,74.0,,0.0346216489629423,-1.98179629017964,0.0726367189854925,,-4.086108072198139,,
,4543.0,880.0,4217.0,1014.0,2250.0,2933.0,1521.0,2025-08-19 22:13:37,73.0,,0.0346331468507066,-1.98155551747772,0.07268046337074,,-4.120276389594382,,
,4543.0,880.0,4216.0,1012.0,2247.0,2921.0,1530.0,2025-08-19 22:13:38,72.0,,0.0345961155035216,-1.98170957613501,0.0726601202467084,,-4.117485488713741,,
,4544.0,882.0,4216.0,1012.0,2233.0,2956.0,1509.0,2025-08-19 22:13:39,71.0,,0.0346068716256868,-1.98141011185993,0.0726208895281067,,-4.073045499673724,,
,4545.0,879.0,4220.0,1015.0,2250.0,2936.0,1502.0,2025-08-19 22:13:40,71.0,,0.0346169260269359,-1.98105381540223,0.0727498327151939,,-3.9825779719073777,,
,4547.0,880.0,4218.0,1015.0,2267.0,2926.0,1510.0,2025-08-19 22:13:41,71.0,,0.0346771983952477,-1.98139796912787,0.0727474174886266,,-3.842407095892238,,
,4549.0,882.0,4222.0,1014.0,2263.0,2944.0,1516.0,2025-08-19 22:13:42,71.0,,0.0347324191946566,-1.98080845934609,0.0727841592424252,,-3.649904103554771,,
,4546.0,883.0,4221.0,1015.0,2277.0,2944.0,1530.0,2025-08-19 22:13:43,71.0,,0.03478676455855,-1.98063785938241,0.0728656946734133,,-3.4037533634538257,,
,4549.0,882.0,4223.0,1018.0,2239.0,2930.0,1534.0,2025-08-19 22:13:44,71.0,,0.0347936078770875,-1.980108940977,0.0727837801010314,,-3.104117783200166,,
,4549.0,884.0,4225.0,1016.0,2253.0,2904.0,1533.0,2025-08-19 22:13:45,71.0,,0.0348269467264052,-1.97983588307187,0.0728015288533151,,-2.7526945890146663,,
,4552.0,886.0,4226.0,1019.0,2259.0,2894.0,1537.0,2025-08-19 22:13:46,72.0,,0.0350030590515592,-1.97980903384128,0.0728445646208465,,-2.352667803751497,,
,4551.0,884.0,4228.0,1017.0,2233.0,2925.0,1523.0,2025-08-19 22:13:47,72.0,,0.035038377569938,-1.97959639029789,0.0728733938206551,,-1.9085775003072594,,
,4556.0,885.0,4230.0,1018.0,2242.0,2932.0,1522.0,2025-08-19 22:13:48,72.0,,0.0350665348842495,-1.97894865020461,0.073053614894222,,-1.4261353468052602,,
,4557.0,885.0,4231.0,1021.0,2259.0,2917.0,1517.0,2025-08-19 22:13:49,73.0,,0.0350523341847705,-1.97875193390602,0.073021997314269,,-0.9120194644422296,,
,4558.0,886.0,4230.0,1018.0,2258.0,2918.0,1514.0,2025-08-19 22:13:50,73.0,,0.0351054076711902,-1.97846611235286,0.0729981865988528,,-0.37367898052299037,,
,4558.0,885.0,4232.0,1021.0,2263.0,2912.0,1520.0,,,,0.0351360931929644,-1.97888006523871,0.073032155011503,,0.18082911399422041,,
,4557.0,884.0,4235.0,1020.0,2269.0,2927.0,1511.0,,,,0.0352026608700234,-1.97860724300689,0.0729660665987086,,0.7429593383377079,,
,4560.0,887.0,4235.0,1019.0,2264.0,2905.0,1516.0,,,,0.0351723314901346,-1.97879441402957,0.0729298816038841,,1.3037543346660188,,
,4561.0,888.0,4237.0,1025.0,2269.0,2901.0,1524.0,,,,0.0352009567488478,-1.97912486454957,0.0731694419905194,,1.853891514860401,,
,4564.0,887.0,4240.0,1022.0,2253.0,2905.0,1540.0,,,,0.0352063414867479,-1.97871429758123,0.0730643930123965,,2.3837218969464367,,
,4563.0,884.0,4235.0,1019.0,2269.0,2921.0,1529.0,,,,0.0352355049365479,-1.97845098883349,0.0729463589098025,,2.8833289405646805,,
,4565.0,887.0,4239.0,1023.0,2277.0,2932.0,1517.0,,,,0.0351722880084127,-1.9785897971079,0.0730067312794827,,3.342636342506601,,
,4566.0,888.0,4244.0,1023.0,2268.0,2915.0,1515.0,,,,0.0352728777056502,-1.97833897147758,0.0730437598263244,,3.751589917625542,,
,4567.0,889.0,4245.0,1024.0,2270.0,2910.0,1515.0,,,,0.0352079869307709,-1.97834591862876,0.073063778497444,,4.100429697637511,,
,4566.0,888.0,4243.0,1025.0,2264.0,2908.0,1530.0,,,,0.0351267031102155,-1.97890995527412,0.0729693229097878,,4.380054779512341,,
,4571.0,891.0,4246.0,1026.0,2252.0,2933.0,1521.0,,,,0.0351528522657667,-1.97903663351069,0.0729519167069812,,4.582466845111881,,
,4569.0,891.0,4250.0,1027.0,2256.0,2949.0,1522.0,,,,0.0351998642742294,-1.97910209340853,0.0730001522200329,,4.701261055282584,,
,4573.0,892.0,4248.0,1027.0,2256.0,2934.0,1524.0,,,,0.0351341626166157,-1.97855435558575,0.072984496134206,,4.73211785881524,,
,4573.0,891.0,4249.0,1025.0,2256.0,2895.0,1542.0,,,,0.0351984475733272,-1.97894732552461,0.0729283143080962,,4.673238803186748,,
,4574.0,891.0,4250.0,1026.0,2274.0,2909.0,1507.0,,,,0.0351586967361402,-1.97917901326266,0.0729709523116961,,4.525666260540679,,
,4575.0,891.0,4251.0,1028.0,2287.0,2936.0,1508.0,,,,0.0351182684104636,-1.97883456904607,0.0729766232294674,,4.293433221156697,,
,4575.0,893.0,4255.0,1027.0,2252.0,2948.0,1513.0,,,,0.0351694357623459,-1.97827294076831,0.0730957863845306,,3.9835057774994596,,
,4577.0,893.0,4256.0,1027.0,2255.0,2935.0,1503.0,,,,0.0352123165288896,-1.97783633412138,0.0731455155395694,,3.605506021762188,,
,4578.0,892.0,4258.0,1028.0,2248.0,2960.0,1482.0,,,,0.0352889056358678,-1.9777649585508,0.0730940530533853,,3.1712322456048057,,
,4578.0,895.0,4261.0,1029.0,2246.0,2956.0,1507.0,,,,0.0353107011952145,-1.9776268382808,0.0731461057341309,,2.694020012536006,,
,4582.0,895.0,4265.0,1029.0,2253.0,2927.0,1500.0,,,,0.0353630787815867,-1.9769244528917,0.073130771057559,,2.1880058916590746,,
,4582.0,896.0,4263.0,1030.0,2250.0,2937.0,1508.0,,,,0.0352893456335489,-1.97668854722851,0.0731442319973234,,1.6673626395047287,,
,4583.0,895.0,4264.0,1030.0,2238.0,2948.0,1506.0,,,,0.0354245878099523,-1.97677154694276,0.0732058967879634,,1.145571481698147,,
,4584.0,894.0,4264.0,1031.0,2240.0,2940.0,1490.0,,,,0.0354786850409015,-1.97626062762668,0.0731934610410242,,0.6347870158961745,,
,4586.0,897.0,4268.0,1033.0,2250.0,2933.0,1511.0,,,,0.0355230420943396,-1.97591246788687,0.0733095894646802,,0.14533617850557562,,
,4589.0,895.0,4266.0,1032.0,2238.0,2938.0,1505.0,,,,0.0355428993010551,-1.97570983481731,0.0731652637635463,,-0.3146229876297841,,
,4589.0,896.0,4269.0,1033.0,2228.0,2932.0,1511.0,,,,0.0354637464849952,-1.97592330070784,0.0732427972454276,,-0.7392724085553395,,
,4592.0,896.0,4273.0,1031.0,2254.0,2931.0,1508.0,,,,0.0355024696788742,-1.97586634238102,0.073194580786092,,-1.125138050362109,,
,4595.0,900.0,4275.0,1034.0,2260.0,2942.0,1496.0,,,,0.0354693502415531,-1.97593393443386,0.0734338947088221,,-1.4709410766118935,,
,4593.0,897.0,4273.0,1034.0,2257.0,2957.0,1523.0,,,,0.0354918243607476,-1.9754536555326,0.0733931005057174,,-1.7773187174576677,,
,4595.0,898.0,4278.0,1035.0,2264.0,2967.0,1524.0,,,,0.0354610076500715,-1.97580853902379,0.073307970393706,,-2.0464440500952708,,
,4599.0,897.0,4276.0,1035.0,2266.0,2965.0,1503.0,,,,0.0354627667022778,-1.97625445940885,0.0733869036765684,,-2.2815786183451032,,
,4598.0,896.0,4277.0,1036.0,2266.0,2937.0,1522.0,,,,0.0354201929840472,-1.97599996668636,0.0733758356222417,,-2.4865943921491653,,
,4600.0,900.0,4276.0,1033.0,2261.0,2931.0,1529.0,,,,0.0353114052015865,-1.97623982702991,0.0732355431526263,,-2.6655015901978927,,
,4599.0,898.0,4279.0,1035.0,2278.0,2926.0,1518.0,,,,0.0354267963180654,-1.97583702825975,0.0733385599710179,,-2.8220162278103604,,
,4599.0,900.0,4277.0,1036.0,2275.0,2941.0,1516.0,,,,0.035425582597828,-1.9762309571241,0.0733753083506898,,-2.9591961217413494,,
,4598.0,900.0,4270.0,1034.0,2256.0,2954.0,1531.0,,,,0.0354199158803582,-1.97626254397092,0.0731526889107273,,-3.0791669386327176,,
,4595.0,897.0,4269.0,1033.0,2245.0,2956.0,1532.0,,,,0.0353461940959475,-1.97600061416338,0.073139427579991,,-3.1829512853158555,,
,4590.0,897.0,4265.0,1030.0,2236.0,2936.0,1538.0,,,,0.0353870164611688,-1.97614254660531,0.0731373337807089,,-3.2704044559714345,,
,4590.0,896.0,4261.0,1033.0,2241.0,2923.0,1544.0,,,,0.0354428888578358,-1.97641425202994,0.0732068699936262,,-3.3402511106624058,,
,4587.0,894.0,4257.0,1029.0,2246.0,2910.0,1548.0,,,,0.0354796421158519,-1.97603410259129,0.0732641036031828,,-3.390208987022635,,
,4583.0,894.0,4252.0,1028.0,2242.0,2912.0,1516.0,,,,0.0355105103177331,-1.97593071364182,0.0732176751425387,,-3.417179892511225,,
,4579.0,892.0,4250.0,1025.0,2241.0,2916.0,1524.0,,,,0.0355625530455367,-1.97586215365954,0.0733535848652525,,-3.4174853272544103,,
,4578.0,892.0,4245.0,1026.0,2235.0,2907.0,1518.0,,,,0.0356067568896945,-1.97605877504016,0.0732381385631027,,-3.387124070361253,,
,4571.0,890.0,4241.0,1025.0,2243.0,2906.0,1496.0,,,,0.0354650091495387,-1.97617202481949,0.0733860905746408,,-3.322031490198823,,
,4569.0,888.0,4238.0,1020.0,2239.0,2930.0,1510.0,,,,0.0354553379632675,-1.97608781230727,0.0733077865005753,,-3.2183248169029857,,
,4567.0,888.0,4237.0,1020.0,2226.0,2931.0,1497.0,,,,0.0354993061742498,-1.97657497290246,0.0733263385195961,,-3.0725247572856955,,
,4565.0,888.0,4232.0,1021.0,2241.0,2939.0,1489.0,,,,0.0355608057113597,-1.97705218885728,0.0732657192170336,,-2.8817509230293252,,
,4562.0,887.0,4234.0,1019.0,2244.0,2937.0,1492.0,,,,0.0355333235714792,-1.9764674943481,0.0732668738986881,,-2.6438953121458844,,
,4562.0,887.0,4232.0,1018.0,2236.0,2921.0,1510.0,,,,0.0354721439292958,-1.97660305441506,0.0732699934931864,,-2.357782863230688,,
,4560.0,887.0,4231.0,1015.0,2260.0,2946.0,1520.0,,,,0.0354606743272268,-1.97650266582662,0.073211341900199,,-2.023329384352113,,
,4560.0,888.0,4231.0,1018.0,2264.0,2951.0,1502.0,,,,0.0354584722347097,-1.97706708286688,0.0730581091985827,,-1.6417042724721609,,
,4560.0,887.0,4230.0,1018.0,2256.0,2951.0,1502.0,,,,0.0353163600545831,-1.97764119790211,0.07309980063217,,-1.2154988704686824,,
,4559.0,887.0,4229.0,1017.0,2258.0,2933.0,1504.0,,,,0.0351941450767907,-1.97793483665487,0.0731166209891768,,-0.7488924585504021,,
,4558.0,885.0,4226.0,1016.0,2272.0,2950.0,1510.0,,,,0.0352139496353197,-1.97797484861,0.0730819603313744,,-0.2477985903367497,,
,4559.0,887.0,4231.0,1018.0,2252.0,2950.0,1506.0,,,,0.0351843803485203,-1.97802046732766,0.0729259321986641,,0.2800332935274271,,
,4559.0,886.0,4228.0,1018.0,2252.0,2920.0,1514.0,,,,0.0350945724516615,-1.97842484066131,0.073095327554815,,0.8249905768195706,,
,4556.0,886.0,4228.0,1020.0,2261.0,2915.0,1516.0,,,,0.0350826698995954,-1.97817940998374,0.0730381774766889,,1.3756743022086138,,
,4557.0,884.0,4228.0,1017.0,2239.0,2909.0,1508.0,,,,0.034987647586141,-1.97926078962122,0.0728876812145165,,1.9191055198975313,,
,4556.0,884.0,4228.0,1019.0,2246.0,2934.0,1522.0,,,,0.0350251211732863,-1.9793252715759,0.0729397785926196,,2.4410778269930695,,
,4556.0,887.0,4229.0,1018.0,2242.0,2921.0,1527.0,,,,0.0348979727632381,-1.98004324797566,0.0728757279512847,,2.926660250671294,,
,4555.0,887.0,4228.0,1019.0,2245.0,2922.0,1528.0,,,,0.0349314155618451,-1.98053516471774,0.0729195928436262,,3.360839023439771,,
,4555.0,887.0,4231.0,1018.0,2256.0,2914.0,1521.0,,,,0.034844472646866,-1.98096986310822,0.0727619447042366,,3.729269301226639,,
,4555.0,888.0,4231.0,1019.0,2236.0,2926.0,1505.0,,,,0.0347674470859999,-1.98135972087384,0.0727780910405053,,4.0190902453795845,,
,4559.0,888.0,4234.0,1018.0,2227.0,2932.0,1518.0,,,,0.0347248441000183,-1.98123102419435,0.0727158843413258,,4.219741398588134,,
,4558.0,891.0,4234.0,1020.0,2246.0,2939.0,1521.0,,,,0.0345658674612238,-1.98121952130767,0.0728297885675001,,4.323707488416114,,
,4555.0,888.0,4233.0,1018.0,2244.0,2944.0,1512.0,,,,0.0347484751070919,-1.98146116012628,0.0728464120803785,,4.327115161024316,,
,4557.0,887.0,4234.0,1018.0,2255.0,2940.0,1500.0,,,,0.0347390007196269,-1.98126390577061,0.072796275997039,,4.230110677253575,,
,4556.0,887.0,4232.0,1017.0,2266.0,2927.0,1507.0,,,,0.0346707489798057,-1.98115660877805,0.0728386062585279,,4.036963448405075,,
,4553.0,888.0,4232.0,1017.0,2257.0,2926.0,1513.0,,,,0.0347187741919858,-1.98093782082944,0.0727874773212934,,3.755866230660391,,
,4552.0,884.0,4229.0,1018.0,2254.0,2920.0,1505.0,,,,0.0346193728414987,-1.98118360522297,0.0727439039793991,,3.398436445623535,,
,4549.0,885.0,4230.0,1016.0,2248.0,2933.0,1512.0,,,,0.0346594889533627,-1.98067392107011,0.0727954838697729,,2.9789593641668417,,
,4552.0,885.0,4232.0,1018.0,2257.0,2923.0,1517.0,,,,0.0347135124297691,-1.98041327056364,0.0727984591116671,,2.5134457963057115,,
,4553.0,886.0,4231.0,1016.0,2251.0,2930.0,1511.0,,,,0.0347465725211774,-1.98086887602791,0.0728174497767899,,2.018597963665514,,
,4553.0,885.0,4231.0,1017.0,2241.0,2929.0,1505.0,,,,0.0347570302829741,-1.98022102448032,0.0728417979916679,,1.510783867328846,,
,4550.0,885.0,4228.0,1016.0,2240.0,2924.0,1526.0,,,,0.0347215292616217,-1.97999300389743,0.072889970074801,,1.0051130165497126,,
2025-08-19 22:10:53,4550.0,882.0,4227.0,1016.0,2250.0,2907.0,1514.0,,,2025/08/19 10:10:53 PM,0.0347808034642203,-1.98004219970587,0.072918927313614,,0.5146880239430605,,
,4552.0,885.0,4230.0,1019.0,2223.0,2924.0,1502.0,,,,0.0348170360069348,-1.97925912267565,0.072911814169623,,0.05008165582234893,,
,4553.0,887.0,4230.0,1020.0,2252.0,2938.0,1532.0,,,,0.0348106384286103,-1.97962698242997,0.0729716316743351,,-0.38093829073216107,,
,4552.0,885.0,4228.0,1019.0,2273.0,2935.0,1531.0,,,,0.0348204034635754,-1.97943949415914,0.0729869677959405,,-0.7734398676207196,,
,4551.0,882.0,4228.0,1015.0,2245.0,2925.0,1521.0,,,,0.0349072735171233,-1.97945212049377,0.0731213432099674,,-1.1251392067668127,,
,4550.0,887.0,4228.0,1015.0,2239.0,2936.0,1524.0,,,,0.0348401986096578,-1.97928907449421,0.0730337613490799,,-1.4360360516286885,,
,4549.0,885.0,4229.0,1017.0,2245.0,2947.0,1519.0,,,,0.0348400056759275,-1.97932910445426,0.0731055476875848,,-1.7079245226909128,,
,4548.0,887.0,4231.0,1015.0,2243.0,2955.0,1503.0,,,,0.0348345492793317,-1.97904404408958,0.0730550233064538,,-1.943834792918548,,
,4546.0,884.0,4226.0,1016.0,2266.0,2938.0,1499.0,,,,0.0349109712800132,-1.97905079904471,0.0730524559369473,,-2.147459515943075,,
,4547.0,885.0,4226.0,1016.0,2249.0,2937.0,1520.0,,,,0.0349030563739381,-1.97863457269628,0.073096940956272,,-2.3226124117503812,,
,4549.0,886.0,4229.0,1017.0,2233.0,2954.0,1517.0,,,,0.0349940858239282,-1.97880443329412,0.0730777036074745,,-2.4727566518013293,,
,4549.0,888.0,4230.0,1019.0,2240.0,2951.0,1510.0,,,,0.0349108995506908,-1.97862451800947,0.0730269530071789,,-2.6006292793777033,,
,4551.0,884.0,4230.0,1016.0,2246.0,2963.0,1519.0,,,,0.0349148446350155,-1.97885692882904,0.0731195354109751,,-2.7079766976938697,,
,4550.0,886.0,4229.0,1017.0,2248.0,2940.0,1515.0,,,,0.0349135511316925,-1.97968351245679,0.0730610598531296,,-2.7954066067804755,,
,4548.0,887.0,4230.0,1016.0,2261.0,2945.0,1505.0,,,,0.034889986509095,-1.97940611816301,0.0731134314202322,,-2.862354034680358,,
,4551.0,886.0,4234.0,1019.0,2233.0,2952.0,1512.0,,,,0.0348283605544522,-1.97948255465307,0.0729698519176425,,-2.9071528994278983,,
,4550.0,889.0,4234.0,1018.0,2239.0,2961.0,1517.0,,,,0.0348353295954585,-1.97963100092725,0.0729364062246353,,-2.927199354176318,,
,4550.0,888.0,4234.0,1018.0,2241.0,2968.0,1502.0,,,,0.0347909612619573,-1.98006089278397,0.0730173783896112,,-2.91918880350232,,
,4553.0,887.0,4233.0,1018.0,2251.0,2939.0,1514.0,,,,0.0347535867880746,-1.97976772105549,0.0731035898252095,,-2.879405052822976,,
,4553.0,888.0,4235.0,1019.0,2260.0,2943.0,1505.0,,,,0.0347027819096881,-1.97978909111396,0.0730183216491168,,-2.8040379144740375,,
,4552.0,890.0,4239.0,1021.0,2251.0,2939.0,1504.0,,,,0.034659799587399,-1.97944845260378,0.0730267086123263,,-2.6895052495557965,,
,4555.0,889.0,4239.0,1020.0,2240.0,2934.0,1520.0,,,,0.0346441957173309,-1.97964084228793,0.0729514750350769,,-2.5327573891850763,,
,4556.0,889.0,4240.0,1020.0,2241.0,2949.0,1499.0,,,,0.0346721937203917,-1.97932950505768,0.0730235484091248,,-2.331546373668057,,
,4557.0,893.0,4239.0,1024.0,2221.0,2951.0,1511.0,,,,0.0346821189420891,-1.97965785230067,0.0729907928490895,,-2.0846490278243652,,
,4556.0,891.0,4243.0,1023.0,2218.0,2933.0,1506.0,,,,0.0346967761726183,-1.97975488238708,0.0729706391495446,,-1.7920402262624135,,
,4558.0,891.0,4244.0,1020.0,2229.0,2932.0,1511.0,,,,0.0348179848098483,-1.97994215473554,0.0729366508901298,,-1.4550188243990263,,
,4558.0,889.0,4244.0,1022.0,2245.0,2928.0,1526.0,,,,0.0347288944251137,-1.9802012885445,0.0729553565567781,,-1.0762918749347425,,
,4561.0,891.0,4245.0,1023.0,2266.0,2933.0,1522.0,,,,0.0347401397314968,-1.98024833198018,0.0730352634021973,,-0.6600223418606899,,
,4562.0,892.0,4247.0,1024.0,2258.0,2937.0,1516.0,,,,0.0346453363117594,-1.97991646868179,0.0729589793077125,,-0.2118423995858778,,
,4561.0,891.0,4249.0,1022.0,2254.0,2942.0,1518.0,,,,0.0346365894120687,-1.97989621174698,0.0729925916049943,,0.26116995030970686,,
,4562.0,890.0,4250.0,1024.0,2251.0,2952.0,1526.0,,,,0.034543279580102,-1.98027246862192,0.0729915582546927,,0.7505574780196,,
,4562.0,893.0,4248.0,1023.0,2235.0,2939.0,1527.0,,,,0.0345339936936256,-1.98050938564998,0.0729093791340944,,1.2466032667349576,,
,4564.0,893.0,4249.0,1026.0,2234.0,2935.0,1517.0,,,,0.0345911318849176,-1.98083908986198,0.0728654160010708,,1.738514239596871,,
,4564.0,891.0,4250.0,1027.0,2230.0,2948.0,1513.0,,,,0.0346563108647067,-1.9811806886893,0.0728734548844138,,2.214678519840089,,
,4566.0,893.0,4253.0,1026.0,2242.0,2942.0,1492.0,,,,0.034598243421945,-1.9814034564869,0.0728006075049579,,2.6630024055133736,,
,4565.0,892.0,4254.0,1024.0,2239.0,2939.0,1499.0,,,,0.0345640492471657,-1.981292259586,0.072841692403472,,3.071325846021463,,
,4567.0,893.0,4256.0,1025.0,2245.0,2918.0,1500.0,,,,0.0344853063226097,-1.9815019737397,0.072725284124438,,3.4279061360989025,,
,4568.0,897.0,4256.0,1027.0,2234.0,2933.0,1504.0,,,,0.03446659550071,-1.9820202533422,0.0726628935184626,,3.72194914677331,,
,4569.0,896.0,4257.0,1029.0,2240.0,2947.0,1514.0,,,,0.034402214135326,-1.98228039807643,0.072661919310496,,3.9441571695012256,,
,4570.0,894.0,4257.0,1027.0,2254.0,2939.0,1506.0,,,,0.0344354817880117,-1.98229343502756,0.0726292118318535,,4.08725387139998,,
,4572.0,896.0,4260.0,1027.0,2262.0,2928.0,1512.0,,,,0.0343641975047451,-1.9823930187869,0.0726609196169725,,4.146441520561229,,
,4572.0,897.0,4262.0,1029.0,2236.0,2950.0,1524.0,,,,0.0343893634006025,-1.98298203611545,0.0726433674012198,,4.119745050276295,,
,4579.0,900.0,4267.0,1032.0,2232.0,2954.0,1525.0,,,,0.0343118896234081,-1.98326746701484,0.0726049494161723,,4.00820278175038,,
,4575.0,898.0,4266.0,1031.0,2221.0,2948.0,1527.0,,,,0.0343695256550227,-1.98371618167086,0.0725184151385435,,3.8158750027364983,,
,4578.0,898.0,4266.0,1029.0,2225.0,2956.0,1522.0,,,,0.03421537488104,-1.98414412566418,0.0725666254102849,,3.5496583811614704,,
,4580.0,899.0,4268.0,1032.0,2221.0,2943.0,1493.0,,,,0.0343006943586327,-1.98435937412624,0.072457603275139,,3.218914482669816,,
,4579.0,900.0,4268.0,1031.0,2238.0,2963.0,1495.0,,,,0.0342431663389201,-1.9844163518148,0.0725336950447261,,2.8349412916125503,,
,4580.0,901.0,4271.0,1031.0,2245.0,2956.0,1496.0,,,,0.0341723649737165,-1.98446981147649,0.0723903967946556,,2.410333694043294,,
,4580.0,897.0,4268.0,1032.0,2241.0,2946.0,1498.0,,,,0.0341651364902722,-1.98475112968538,0.0724391370967026,,1.9582890537847344,,
,4582.0,898.0,4272.0,1031.0,2236.0,2919.0,1517.0,,,,0.0341336353524399,-1.98507223276667,0.0723399019688506,,1.4919158848392957,,
,4584.0,900.0,4273.0,1034.0,2253.0,2923.0,1503.0,,,,0.0341077847574375,-1.9851188741068,0.0722763360501926,,1.023597986542095,,
,4587.0,900.0,4274.0,1034.0,2264.0,2926.0,1505.0,,,,0.0340321678602436,-1.98500722079558,0.0723297906223807,,0.5644555582274122,,
,4587.0,901.0,4274.0,1032.0,2247.0,2904.0,1510.0,,,,0.0339717344412907,-1.98591339434812,0.0723394601969456,,0.12393150616439788,,
,4589.0,899.0,4278.0,1032.0,2244.0,2926.0,1496.0,,,,0.033968304389493,-1.98610473060781,0.0723435336921143,,-0.2904822395279999,,
,4590.0,903.0,4279.0,1036.0,2264.0,2949.0,1493.0,,,,0.0338847851794602,-1.98571807069798,0.0723314463867454,,-0.6733755198018396,,
,4592.0,905.0,4282.0,1037.0,2244.0,2957.0,1510.0,,,,0.0338398234079708,-1.98563458741121,0.0722455885981676,,-1.0214146658901624,,
,4593.0,908.0,4283.0,1037.0,2252.0,2956.0,1514.0,,,,0.0337461250699125,-1.98643024065371,0.0721364865202309,,-1.3332150832313303,,
,4590.0,903.0,4283.0,1035.0,2251.0,2960.0,1533.0,,,,0.0337588239150399,-1.98668226605477,0.0722890039823819,,-1.6091102940856348,,
,4594.0,902.0,4283.0,1037.0,2253.0,2966.0,1517.0,,,,0.0337057166898,-1.98697683786155,0.0721271344157461,,-1.8508387904352952,,
,4590.0,905.0,4286.0,1039.0,2244.0,2970.0,1507.0,,,,0.033796857349367,-1.98617465548708,0.072179620991689,,-2.0611717782655266,,
,4593.0,905.0,4280.0,1035.0,2235.0,2974.0,1503.0,,,,0.0341643931967665,-1.98401918269906,0.0724428689186048,,-2.2435061880187037,,
,4588.0,903.0,4277.0,1035.0,2234.0,2978.0,1506.0,,,,0.034425244294021,-1.98184903876489,0.0727924651138687,,-2.401448151306637,,
,4584.0,900.0,4272.0,1031.0,2240.0,2965.0,1509.0,,,,0.0346541370503523,-1.9807256449364,0.0728872670875633,,-2.5384120990673864,,
,4583.0,902.0,4269.0,1032.0,2233.0,2968.0,1521.0,,,,0.034742441504265,-1.98016931287108,0.0729045892435775,,-2.65725944486185,,
,4580.0,899.0,4265.0,1029.0,2222.0,2934.0,1528.0,,,,0.0345748550905976,-1.9806556794204,0.0728775599145976,,-2.759998509886261,,
,4574.0,896.0,4259.0,1027.0,2226.0,2921.0,1531.0,,,,0.0346998965804762,-1.98107789546615,0.0728189624849455,,-2.8475640710849035,,
,4570.0,894.0,4253.0,1026.0,2214.0,2899.0,1529.0,,,,0.0345816221018492,-1.98136119797521,0.0727653975512272,,-2.9196907064154054,,
,4565.0,893.0,4247.0,1024.0,2225.0,2911.0,1521.0,,,,0.0346401633146433,-1.98180931902092,0.0727851227952404,,-2.974888881518395,,
,4566.0,891.0,4247.0,1022.0,2216.0,2918.0,1527.0,,,,0.034612412983461,-1.98166537174118,0.0727985902670045,,-3.010526405688411,,
,4557.0,894.0,4244.0,1022.0,2208.0,2912.0,1519.0,,,,0.0345449804008182,-1.98218230079437,0.0726385957895169,,-3.0230105937805747,,
,4555.0,891.0,4239.0,1019.0,2208.0,2914.0,1509.0,,,,0.0344835858077571,-1.98210681034899,0.0727484746015167,,-3.0080585632916623,,
,4554.0,892.0,4238.0,1018.0,2210.0,2916.0,1515.0,,,,0.0344809613606721,-1.98320656256192,0.0726901441413459,,-2.9610351895986073,,
,4551.0,890.0,4237.0,1018.0,2230.0,2930.0,1517.0,,,,0.0344449084259606,-1.98300560294197,0.0725554668105261,,-2.877331226092601,,
,4550.0,891.0,4236.0,1018.0,2214.0,2952.0,1513.0,,,,0.0343525957789024,-1.98322499446741,0.072459440794274,,-2.752749205748255,,
,4545.0,890.0,4233.0,1019.0,2221.0,2941.0,1504.0,,,,0.0343100164124377,-1.98348591824691,0.0725660160276811,,-2.5838635089983333,,
,4544.0,889.0,4233.0,1018.0,2220.0,2942.0,1526.0,,,,0.0343068807629651,-1.98362691458331,0.0726043953585728,,-2.3683246732192185,,
,4546.0,888.0,4234.0,1018.0,2228.0,2947.0,1518.0,,,,0.0342893660501359,-1.98371807026443,0.0725648756375454,,-2.105086691087119,,
,4542.0,891.0,4233.0,1016.0,2203.0,2966.0,1522.0,,,,0.0343961143471474,-1.9836291812127,0.072497363817365,,-1.7945480809219059,,
,4544.0,889.0,4232.0,1016.0,2209.0,2963.0,1523.0,,,,0.0343165465870976,-1.98344390314423,0.0724662794710982,,-1.4386101119615464,,
,4539.0,889.0,4231.0,1016.0,2225.0,2950.0,1533.0,,,,0.0342567521079913,-1.98391547723882,0.0723024922550647,,-1.0406658426753668,,
,4540.0,889.0,4231.0,1016.0,2235.0,2973.0,1534.0,,,,0.0342071669212621,-1.98460716275962,0.0724241387087474,,-0.6055395842030569,,
,4544.0,889.0,4232.0,1016.0,2208.0,2985.0,1511.0,,,,0.0341034745911389,-1.98458745299488,0.0722979429868994,,-0.13939730081346058,,
,4543.0,889.0,4232.0,1018.0,2217.0,2960.0,1504.0,,,,0.0340140119557067,-1.98505011671007,0.0722738097815378,,0.35035538463532834,,
,4541.0,887.0,4232.0,1016.0,2228.0,2945.0,1506.0,,,,0.0340168850723934,-1.98559141117668,0.0722213467906701,,0.8551784823871543,,
,4537.0,888.0,4234.0,1015.0,2233.0,2923.0,1519.0,,,,0.0339578019043661,-1.98596959887253,0.0722196622623922,,1.3655068175888692,,
,4539.0,891.0,4232.0,1017.0,2221.0,2936.0,1517.0,,,,0.0338991142903206,-1.98585696699317,0.0722712033891889,,1.8708733921561593,,
,4541.0,891.0,4235.0,1017.0,2218.0,2941.0,1523.0,,,,0.0337779082295061,-1.98656237935979,0.0720789875084901,,2.360064663282839,,
,4536.0,889.0,4235.0,1015.0,2209.0,2936.0,1518.0,,,,0.0338511761299091,-1.98701511954726,0.0721337430308196,,2.8213288935593055,,
,4539.0,889.0,4234.0,1015.0,2226.0,2926.0,1518.0,,,,0.0338046064330281,-1.98777681595438,0.0720246952060054,,3.2426572462310967,,
,4539.0,889.0,4234.0,1014.0,2250.0,2928.0,1519.0,,,,0.0337270685173309,-1.98809231162207,0.0720219780171167,,3.612150848195678,,
,4540.0,892.0,4237.0,1018.0,2227.0,2944.0,1529.0,,,,0.0337030081565228,-1.98858977949093,0.0720818658884321,,3.9184760176587816,,
,4538.0,889.0,4237.0,1016.0,2225.0,2944.0,1535.0,,,,0.0336189565679963,-1.98872066870448,0.0720102509934819,,4.15139511903736,,
,4536.0,893.0,4238.0,1020.0,2226.0,2955.0,1544.0,,,,0.0335360092394771,-1.9888113632916,0.0719968754980356,,4.302343740620589,,
,4535.0,889.0,4235.0,1016.0,2217.0,2950.0,1514.0,,,,0.0334999020002725,-1.98921107020626,0.0720593232861808,,4.365008698017551,,
,4535.0,890.0,4239.0,1018.0,2230.0,2957.0,1514.0,,,,0.0335378010136201,-1.98919717667433,0.0718930150970559,,4.335848940402331,,
,4537.0,890.0,4236.0,1016.0,2241.0,2967.0,1527.0,,,,0.0335572981564933,-1.9895892813187,0.0719228905054146,,4.214495939063484,,
,4536.0,891.0,4235.0,1018.0,2231.0,2958.0,1536.0,,,,0.0335081834010064,-1.98944457006566,0.0720087650824642,,4.00397400059491,,
,4536.0,892.0,4237.0,1017.0,2226.0,2937.0,1533.0,,,,0.0333884655638799,-1.98961592417207,0.0718799306783995,,3.7106951458897246,,
,4533.0,888.0,4236.0,1019.0,2252.0,2927.0,1534.0,,,,0.0333652211119357,-1.98979448761798,0.0717574163391155,,3.3442066272945654,,
,4533.0,891.0,4237.0,1017.0,2229.0,2950.0,1522.0,,,,0.0335208700657595,-1.98959926569045,0.0718026574377742,,2.916698382008328,,
,4532.0,890.0,4238.0,1016.0,2204.0,2958.0,1525.0,,,,0.0334893073716741,-1.98998119112553,0.0718605030888072,,2.442307453372624,,
,4528.0,891.0,4234.0,1015.0,2208.0,2949.0,1545.0,,,,0.0334641112059115,-1.98915940229037,0.071786447099127,,1.9362809540112378,,
,4530.0,890.0,4232.0,1016.0,2209.0,2928.0,1540.0,,,,0.0334142337626588,-1.98961291579124,0.0718545186610016,,1.414074314055754,,
,4528.0,888.0,4234.0,1016.0,2203.0,2966.0,1531.0,,,,0.0334524988799269,-1.98959932928896,0.0717790978139741,,0.890465962460588,,
,4530.0,890.0,4235.0,1015.0,2205.0,2939.0,1525.0,,,,0.0334815560925515,-1.99016835518236,0.0717847833027501,,0.37876437632274484,,
,4528.0,892.0,4234.0,1016.0,2208.0,2930.0,1522.0,,,,0.0334510476205379,-1.99062440836244,0.0717722639736356,,-0.10982909143715418,,
,4526.0,889.0,4231.0,1013.0,2226.0,2947.0,1531.0,,,,0.0334265187418981,-1.98991663462625,0.0718629395350682,,-0.5666557719490639,,
,4529.0,889.0,4234.0,1015.0,2206.0,2931.0,1527.0,,,,0.0333781704732418,-1.99010538288269,0.0719628584785917,,-0.9858084401576352,,
,4531.0,890.0,4236.0,1015.0,2218.0,2943.0,1532.0,,,,0.0334338168944624,-1.98992949085324,0.0717688018209233,,-1.3641097707160126,,
,4526.0,888.0,4235.0,1014.0,2223.0,2946.0,1527.0,,,,0.0334341300675387,-1.98984288115379,0.0717320473493872,,-1.7008775498467568,,
,4528.0,890.0,4238.0,1013.0,2229.0,2946.0,1510.0,,,,0.0334018098997104,-1.99032118951942,0.0717691888434493,,-1.9975111948472244,,
,4528.0,889.0,4238.0,1015.0,2219.0,2954.0,1511.0,,,,0.0333410357225622,-1.98979991964713,0.0718231978605237,,-2.256947165027611,,
,4530.0,890.0,4240.0,1017.0,2227.0,2930.0,1507.0,,,,0.0334339397659246,-1.98981342431236,0.0717314716457619,,-2.483038736179317,,
,4530.0,891.0,4241.0,1017.0,2231.0,2917.0,1515.0,,,,0.0334491075195859,-1.99018258353972,0.0717945647498391,,-2.6799182921776876,,
,4531.0,894.0,4244.0,1017.0,2221.0,2933.0,1523.0,,,,0.0333706474142847,-1.99024410720226,0.0718756394366309,,-2.851398103855338,,
,4527.0,890.0,4242.0,1017.0,2238.0,2951.0,1528.0,,,,0.0334028409580897,-1.99042147148717,0.0717984284406606,,-3.0004590844975936,,
,4530.0,892.0,4242.0,1015.0,2233.0,2935.0,1517.0,,,,0.0333677165360024,-1.99058269896245,0.0717332834990693,,-3.1288669786496484,,
,4530.0,892.0,4245.0,1018.0,2221.0,2951.0,1532.0,,,,0.0333526915642493,-1.99094524674015,0.0718512803947883,,-3.23694275865727,,
,4530.0,892.0,4245.0,1021.0,2212.0,2961.0,1515.0,,,,0.0334132324524603,-1.99122033908819,0.0717457597785566,,-3.3234996342129333,,
,4532.0,893.0,4246.0,1021.0,2221.0,2957.0,1512.0,,,,0.0333964329369375,-1.99074767520511,0.0717987466174048,,-3.3859439676932857,,
,4530.0,890.0,4247.0,1017.0,2216.0,2949.0,1530.0,,,,0.033372348184249,-1.99083099803356,0.0715918126285579,,-3.420522567690769,,
,4534.0,894.0,4250.0,1019.0,2227.0,2944.0,1510.0,,,,0.0334011809975011,-1.99096964418835,0.0717356798213763,,-3.4226856788863307,,
,4539.0,895.0,4253.0,1023.0,2227.0,2939.0,1525.0,,,,0.0333927040281485,-1.99039807232993,0.0718067320685458,,-3.387525198036238,,
,4539.0,894.0,4254.0,1021.0,2228.0,2942.0,1531.0,,,,0.0332950610683626,-1.99053893459027,0.071688518021295,,-3.3102427193836306,,
,4537.0,891.0,4254.0,1022.0,2231.0,2949.0,1536.0,,,,0.0333673380344279,-1.99090522990055,0.0717508234111759,,-3.1866025970674543,,
,4539.0,896.0,4257.0,1022.0,2225.0,2943.0,1507.0,,,,0.033374973258408,-1.99035594172973,0.071683430957994,,-3.013330973285592,,
,4538.0,894.0,4257.0,1024.0,2211.0,2942.0,1501.0,,,,0.0333362774040696,-1.9908504076534,0.0717401607733055,,-2.7884316874773463,,
,4537.0,895.0,4257.0,1021.0,2216.0,2945.0,1511.0,,,,0.033335817509346,-1.99059857065398,0.0716818788178428,,-2.5114028056076245,,
2025-08-19 22:10:54,4538.0,896.0,4259.0,1020.0,2215.0,2946.0,1514.0,,,2025/08/19 10:10:54 PM,0.0334000835407991,-1.99015040339316,0.0717324865185911,,-2.183351407708533,,
,4542.0,895.0,4260.0,1022.0,2209.0,2944.0,1518.0,,,,0.0334187864737743,-1.99065325956539,0.0716495706524301,,-1.8070170067616806,,
,4541.0,896.0,4263.0,1025.0,2225.0,2943.0,1524.0,,,,0.0333787807088163,-1.99045130381033,0.0717761891740824,,-1.3867232339093094,,
,4545.0,899.0,4265.0,1026.0,2207.0,2954.0,1517.0,,,,0.0334470002916291,-1.99055680661477,0.0716127845319066,,-0.9282815355823586,,
,4546.0,897.0,4268.0,1027.0,2207.0,2941.0,1524.0,,,,0.0333887117785367,-1.99121454125499,0.0716635041720528,,-0.43886910861924355,,
,4543.0,898.0,4267.0,1025.0,2213.0,2940.0,1521.0,,,,0.0333370557538821,-1.9910940180905,0.0716593169743776,,0.07310302777286139,,
,4546.0,900.0,4268.0,1026.0,2204.0,2935.0,1513.0,,,,0.0333131287837825,-1.99109901000128,0.0717226925687822,,0.5981253037752304,,
,4548.0,898.0,4269.0,1027.0,2221.0,2945.0,1514.0,,,,0.033330655877031,-1.99107259936158,0.0715236131367015,,1.1257320204808718,,
,4550.0,900.0,4270.0,1028.0,2228.0,2948.0,1506.0,,,,0.0333054037402683,-1.9914660460373,0.0715695918744529,,1.6446639802036236,,
,4550.0,899.0,4269.0,1026.0,2209.0,2937.0,1532.0,,,,0.0333663039918355,-1.99150495066034,0.0715552898787136,,2.1430707267271147,,
,4552.0,900.0,4271.0,1027.0,2210.0,2958.0,1524.0,,,,0.0333645250110509,-1.9915489411608,0.0715621884279611,,2.6087735689045286,,
,4549.0,902.0,4276.0,1029.0,2203.0,2958.0,1523.0,,,,0.0333005382652657,-1.99182883658554,0.0715327071627302,,3.029606608345468,,
,4551.0,901.0,4275.0,1026.0,2199.0,2945.0,1517.0,,,,0.0332819889126589,-1.99183948472366,0.0715583658968321,,3.3938431842985257,,
,4555.0,904.0,4276.0,1029.0,2219.0,2937.0,1527.0,,,,0.0332415516162639,-1.99189002848946,0.0715186317038965,,3.6907005584177583,,
,4556.0,901.0,4278.0,1027.0,2222.0,2941.0,1532.0,,,,0.0331837308145843,-1.99236270583192,0.0714217531699518,,3.910898320292304,,
,4556.0,903.0,4279.0,1030.0,2220.0,2947.0,1516.0,,,,0.0331837816563107,-1.99246804097353,0.0714854306262369,,4.047228623087336,,
,4557.0,902.0,4281.0,1031.0,2235.0,2951.0,1511.0,,,,0.0331604763212217,-1.99216003751493,0.0714399361788479,,4.095082178886326,,
,4557.0,902.0,4282.0,1028.0,2236.0,2963.0,1520.0,,,,0.0331638257846293,-1.9921861950846,0.0714855249097409,,4.052866308712004,,
,4561.0,903.0,4283.0,1030.0,2224.0,2945.0,1518.0,,,,0.0330757651076203,-1.99212227683194,0.0714609384709235,,3.922253087850834,,
,4562.0,903.0,4284.0,1032.0,2210.0,2930.0,1517.0,,,,0.0331105349670377,-1.99253840075158,0.0714590311050376,,3.708208268891832,,
,4561.0,907.0,4286.0,1033.0,2229.0,2930.0,1537.0,,,,0.0330819947141086,-1.99259777221749,0.0713651557098476,,3.4187746226114215,,
,4567.0,907.0,4290.0,1031.0,2223.0,2932.0,1545.0,,,,0.0331512044326135,-1.99273373410334,0.0714514563822236,,3.0646134714799858,,
,4567.0,905.0,4292.0,1033.0,2224.0,2940.0,1536.0,,,,0.0330527961012245,-1.99212984934869,0.0715526123094213,,2.6583401230312864,,
,4566.0,906.0,4292.0,1033.0,2222.0,2923.0,1524.0,,,,0.0330488962008564,-1.99240746365943,0.0714947983741392,,2.2137164267008407,,
,4569.0,907.0,4294.0,1036.0,2238.0,2931.0,1522.0,,,,0.0330240126553008,-1.99281125212492,0.0714837757686454,,1.744781756277621,,
,4570.0,905.0,4294.0,1036.0,2225.0,2946.0,1525.0,,,,0.0331108198456567,-1.99264647917186,0.0714207668361432,,1.2650099195461761,,
,4571.0,906.0,4297.0,1034.0,2217.0,2954.0,1516.0,,,,0.033024688887636,-1.99249963363465,0.071373444946471,,0.7865738978873967,,
,4573.0,908.0,4299.0,1037.0,2217.0,2961.0,1529.0,,,,0.0331644753925593,-1.99233724488206,0.071460338003822,,0.31978465704101483,,
,4573.0,910.0,4301.0,1037.0,2243.0,2969.0,1538.0,,,,0.0330878630932427,-1.99198049316096,0.0714235138026059,,-0.12725267992591022,,
,4577.0,910.0,4306.0,1039.0,2219.0,2955.0,1527.0,,,,0.0330748084405247,-1.99208167916457,0.0714231488308132,,-0.5487487045634273,,
,4576.0,912.0,4306.0,1039.0,2213.0,2960.0,1511.0,,,,0.0331137538671451,-1.9923212076158,0.0714980048828884,,-0.9411156312614216,,
,4579.0,910.0,4304.0,1036.0,2232.0,2954.0,1516.0,,,,0.0333044598702717,-1.992359431392,0.0714760804214228,,-1.3026622401067953,,
,4578.0,911.0,4304.0,1036.0,2242.0,2950.0,1511.0,,,,0.0332030871330639,-1.99233886411841,0.071479159610829,,-1.6331478464365667,,
,4578.0,909.0,4304.0,1039.0,2239.0,2967.0,1514.0,,,,0.0333403822915088,-1.99192967364657,0.0714696920015634,,-1.9332550943374234,,
,4578.0,911.0,4301.0,1039.0,2222.0,2969.0,1522.0,,,,0.0333533989611684,-1.99198299446898,0.0714298838447911,,-2.204043936426344,,
,4574.0,910.0,4297.0,1036.0,2213.0,2966.0,1518.0,,,,0.0331728860404472,-1.9915458592809,0.0714299726927434,,-2.4464452752869286,,
,4571.0,905.0,4289.0,1034.0,2205.0,2972.0,1529.0,,,,0.033263568348455,-1.99147311226412,0.0715127007003154,,-2.6608437274708354,,
,4567.0,907.0,4288.0,1032.0,2204.0,2959.0,1526.0,,,,0.03327260304996,-1.99180401127355,0.071484226247045,,-2.846786346850229,,
,4564.0,905.0,4283.0,1029.0,2190.0,2941.0,1538.0,,,,0.0333564622142838,-1.99123225759727,0.0715476181378447,,-3.002839310849001,,
,4558.0,904.0,4278.0,1029.0,2182.0,2939.0,1541.0,,,,0.0333811063712234,-1.99161972800791,0.0716095304124607,,-3.126598715388979,,
,4555.0,904.0,4273.0,1027.0,2186.0,2932.0,1528.0,,,,0.0333922839877008,-1.99159963780538,0.0715394425651873,,-3.2148458152892165,,
,4549.0,900.0,4273.0,1025.0,2177.0,2943.0,1529.0,,,,0.0333354406606682,-1.99096659319419,0.0715671073595217,,-3.2638223741493873,,
,4546.0,902.0,4268.0,1026.0,2194.0,2951.0,1526.0,,,,0.0334865616228384,-1.99079513465571,0.0714930475764401,,-3.269589479627227,,
,4543.0,901.0,4265.0,1025.0,2202.0,2955.0,1530.0,,,,0.0334447165952001,-1.99018014594823,0.0715741783608644,,-3.2284247491214613,,
,4543.0,902.0,4264.0,1021.0,2215.0,2943.0,1530.0,,,,0.0334314594445487,-1.99047606176707,0.07162689197726,,-3.1372099768234287,,
,4535.0,896.0,4256.0,1019.0,2220.0,2931.0,1512.0,,,,0.0335112221071484,-1.99050397038371,0.0716524544861569,,-2.9937651851026637,,
,4533.0,897.0,4255.0,1021.0,2225.0,2960.0,1526.0,,,,0.033444948799528,-1.9905022600513,0.0717175011277505,,-2.797095740507085,,
,4531.0,900.0,4256.0,1019.0,2226.0,2971.0,1517.0,,,,0.0334945537035455,-1.98997612081435,0.0716471405316661,,-2.5475350696268237,,
,4531.0,895.0,4255.0,1018.0,2234.0,2970.0,1513.0,,,,0.0335699998102523,-1.99055915547941,0.0716203237701167,,-2.2467835468298394,,
,4527.0,895.0,4253.0,1017.0,2245.0,2948.0,1503.0,,,,0.0335530467459117,-1.99012040829458,0.0716183314559456,,-1.897860584725392,,
,4526.0,893.0,4251.0,1017.0,2239.0,2947.0,1501.0,,,,0.0335718436826483,-1.9901283263038,0.0717386409646287,,-1.5049984222950281,,
,4527.0,895.0,4251.0,1017.0,2232.0,2964.0,1503.0,,,,0.0335207903535396,-1.98997054086849,0.0716074154608,,-1.0735105207335616,,
,4525.0,896.0,4252.0,1017.0,2213.0,2965.0,1524.0,,,,0.0334561476692052,-1.99057511648539,0.0717245240005947,,-0.6096646545848504,,
,4523.0,894.0,4252.0,1015.0,2220.0,2965.0,1528.0,,,,0.033498936561036,-1.99023733203422,0.0716469142645417,,-0.12058214815351233,,
,4520.0,894.0,4254.0,1014.0,2228.0,2958.0,1518.0,,,,0.0335403884482757,-1.99041398739591,0.0715962326868357,,0.3858274672347392,,
,4523.0,894.0,4253.0,1017.0,2252.0,2935.0,1504.0,,,,0.0335415811411561,-1.99105724070392,0.071635799031871,,0.9009004341529263,,
,4523.0,895.0,4254.0,1018.0,2233.0,2936.0,1499.0,,,,0.0335470299798103,-1.99046427493664,0.0716435010201828,,1.415237884704998,,
,4523.0,897.0,4255.0,1019.0,2222.0,2933.0,1510.0,,,,0.0336006759483711,-1.99125253802044,0.0716080698067319,,1.9187364756254799,,
,4521.0,894.0,4256.0,1015.0,2220.0,2947.0,1509.0,,,,0.0335320041384642,-1.99110575037345,0.0716508612306513,,2.4006629145267366,,
,4519.0,894.0,4256.0,1018.0,2215.0,2940.0,1522.0,,,,0.0334535131293948,-1.99129803533957,0.0715753171411604,,2.8498055964458353,,
,4522.0,896.0,4255.0,1018.0,2228.0,2918.0,1535.0,,,,0.0332975267766666,-1.99141540889965,0.0716952863981965,,3.254731144550158,,
,4521.0,894.0,4258.0,1018.0,2234.0,2910.0,1539.0,,,,0.0332115736239199,-1.99152689526254,0.071511231769266,,3.6041613895953,,
,4520.0,893.0,4259.0,1016.0,2206.0,2928.0,1531.0,,,,0.0333022456889159,-1.99211502521124,0.0715070602132537,,3.887467957448031,,
,4517.0,890.0,4255.0,1016.0,2205.0,2938.0,1537.0,,,,0.0333418461112353,-1.99168876123639,0.0716126571763637,,4.095259467842246,,
,4519.0,893.0,4256.0,1017.0,2228.0,2945.0,1527.0,,,,0.0333432743823512,-1.9916543063781,0.0714448242969285,,4.2200138944394725,,
,4517.0,895.0,4255.0,1019.0,2227.0,2932.0,1531.0,,,,0.0333725705498202,-1.99185217278497,0.071520362341868,,4.256690026243121,,
,4519.0,895.0,4254.0,1016.0,2233.0,2942.0,1528.0,,,,0.0333707436586217,-1.99182493255865,0.0715965401324956,,4.203241398448863,,
,4517.0,892.0,4255.0,1015.0,2230.0,2937.0,1517.0,,,,0.0333947880610454,-1.99180882034346,0.0715758562195412,,4.060957048749509,,
,4518.0,894.0,4256.0,1017.0,2237.0,2946.0,1529.0,,,,0.0333992766774387,-1.99168573373957,0.0714324728574885,,3.8345677967313234,,
,4517.0,892.0,4254.0,1016.0,2227.0,2949.0,1518.0,,,,0.0333745816185466,-1.9918627715013,0.0716157694251233,,3.532083450021381,,
,4517.0,893.0,4255.0,1015.0,2234.0,2958.0,1526.0,,,,0.0333849827238717,-1.99104085340619,0.0715840374304748,,3.1643611373217717,,
,4516.0,895.0,4257.0,1017.0,2231.0,2948.0,1525.0,,,,0.0334051252869674,-1.99102185702867,0.0716707741666596,,2.744440958956817,,
,4513.0,893.0,4256.0,1015.0,2244.0,2937.0,1518.0,,,,0.0333887790985234,-1.99089781520725,0.0716048282624529,,2.286714893059489,,
,4511.0,892.0,4257.0,1017.0,2243.0,2927.0,1502.0,,,,0.0334045126354149,-1.99051568609138,0.0717281792488378,,1.8060131119246468,,
,4510.0,893.0,4254.0,1013.0,2223.0,2941.0,1506.0,,,,0.0335370332456493,-1.99034038231668,0.0716669170927919,,1.3166970200038908,,
,4511.0,892.0,4253.0,1015.0,2224.0,2941.0,1502.0,,,,0.0335266843161479,-1.99030970551772,0.0718301467455796,,0.831842102588127,,
,4510.0,893.0,4252.0,1014.0,2230.0,2936.0,1504.0,,,,0.0336416368276195,-1.99023292764309,0.0715860730191918,,0.3625790316757539,,
,4511.0,892.0,4253.0,1014.0,2222.0,2951.0,1510.0,,,,0.0336864656508973,-1.98978045159632,0.0716884511505628,,-0.08235875081258807,,
,4507.0,891.0,4252.0,1015.0,2224.0,2950.0,1526.0,,,,0.0336987582645979,-1.98989273935722,0.0716919628681818,,-0.4968559487451559,,
,4506.0,891.0,4252.0,1016.0,2224.0,2947.0,1521.0,,,,0.0336674293385409,-1.99006921363277,0.0718408881727795,,-0.877403318507241,,
,4507.0,893.0,4256.0,1014.0,2199.0,2941.0,1531.0,,,,0.0336585937524184,-1.98995403240102,0.0717516424562768,,-1.2228724316650599,,
,4507.0,894.0,4253.0,1014.0,2201.0,2948.0,1511.0,,,,0.0336578564494408,-1.98923238931333,0.0717174840614409,,-1.5341145598063188,,
,4506.0,893.0,4253.0,1014.0,2208.0,2954.0,1510.0,,,,0.0336839072999893,-1.98966626582419,0.0717588643365378,,-1.8134333655879342,,
,4506.0,894.0,4256.0,1015.0,2211.0,2954.0,1523.0,,,,0.0337074795873193,-1.98961666976186,0.0719617926551144,,-2.063988194246136,,
,4506.0,894.0,4257.0,1015.0,2221.0,2945.0,1516.0,,,,0.0336732317997612,-1.98974272047196,0.0717885421093041,,-2.2891866622911103,,
,4504.0,891.0,4253.0,1017.0,2213.0,2969.0,1510.0,,,,0.0336620392236654,-1.98947882381881,0.0716199005189826,,-2.492122267195347,,
,4508.0,893.0,4256.0,1016.0,2213.0,2952.0,1512.0,,,,0.0337713094683037,-1.9894198688617,0.0717403830030782,,-2.6751054416230513,,
,4506.0,890.0,4259.0,1013.0,2219.0,2966.0,1513.0,,,,0.033640439138973,-1.98986174989577,0.0718388442998261,,-2.839325648667306,,
,4507.0,893.0,4258.0,1014.0,2216.0,2968.0,1515.0,,,,0.0337286360964001,-1.98988460365265,0.0718293407839993,,-2.984668748769702,,
,4506.0,893.0,4257.0,1016.0,2217.0,2959.0,1500.0,,,,0.0336614667271726,-1.98985692926797,0.0717844112927605,,-3.1096989803226154,,
,4504.0,890.0,4260.0,1016.0,2212.0,2948.0,1488.0,,,,0.0337042767493261,-1.98950491492667,0.0717635448705549,,-3.2117994276205737,,
,4506.0,890.0,4261.0,1019.0,2226.0,2951.0,1507.0,,,,0.0337926338908331,-1.98956458227949,0.0717970074218557,,-3.2874498190326564,,
,4506.0,890.0,4259.0,1016.0,2226.0,2957.0,1519.0,,,,0.0337859861824605,-1.98930045206436,0.0718705218050106,,-3.332607278874768,,
,4506.0,890.0,4259.0,1016.0,2221.0,2948.0,1502.0,,,,0.0337882575448041,-1.98889025709764,0.0719098616456245,,-3.3431458885840915,,
,4508.0,892.0,4264.0,1016.0,2220.0,2948.0,1505.0,,,,0.0338577425269983,-1.9889498356891,0.0719026096291623,,-3.31530589273218,,
,4511.0,892.0,4266.0,1018.0,2240.0,2933.0,1492.0,,,,0.0339579752105733,-1.98889920493276,0.0718908573273629,,-3.246103613326477,,
,4510.0,896.0,4270.0,1017.0,2230.0,2947.0,1502.0,,,,0.0338764884983191,-1.98846832303231,0.0718310087504102,,-3.133658523951518,,
,4509.0,891.0,4267.0,1016.0,2232.0,2943.0,1508.0,,,,0.0339288331416724,-1.98836929748487,0.071753851795625,,-2.9774041842490697,,
,4510.0,893.0,4269.0,1018.0,2242.0,2940.0,1525.0,,,,0.0340094818171243,-1.98820162814148,0.0719151991907455,,-2.77816422424211,,
,4510.0,893.0,4271.0,1020.0,2264.0,2918.0,1513.0,,,,0.0339445607840825,-1.98785643875923,0.0719986456567216,,-2.5380918979650384,,
,4513.0,894.0,4274.0,1019.0,2254.0,2941.0,1510.0,,,,0.0340552597829921,-1.98733759117702,0.0720634343398706,,-2.2604895397283467,,
,4510.0,896.0,4269.0,1019.0,2243.0,2947.0,1511.0,,,,0.0340618392552792,-1.9868211750504,0.0721427582344242,,-1.94953969233168,,
,4513.0,894.0,4272.0,1019.0,2229.0,2948.0,1501.0,,,,0.0341495877103314,-1.98681244970687,0.0721607334623131,,-1.6099902267586859,,
,4514.0,895.0,4274.0,1017.0,2238.0,2956.0,1510.0,,,,0.0342336622698218,-1.98642822092462,0.0721387091938859,,-1.246839964145043,,
,4509.0,894.0,4277.0,1020.0,2258.0,2966.0,1513.0,,,,0.034231780855431,-1.98651093481903,0.0721325119121697,,-0.8650688531970427,,
,4515.0,894.0,4275.0,1022.0,2239.0,2945.0,1517.0,,,,0.0342275685840253,-1.98631300502563,0.0722868051773104,,-0.4694483030203701,,
,4512.0,893.0,4275.0,1021.0,2237.0,2948.0,1513.0,,,,0.0342884839041691,-1.98596891556427,0.0722773181032938,,-0.06445412386038558,,
,4516.0,894.0,4277.0,1019.0,2260.0,2920.0,1484.0,,,,0.0343576565196405,-1.98591551073373,0.0722627733289373,,0.3457115042761874,,
,4514.0,895.0,4278.0,1021.0,2262.0,2933.0,1491.0,,,,0.0342738697761604,-1.985374117437,0.0722421399979224,,0.756999283906659,,
,4517.0,896.0,4281.0,1023.0,2241.0,2952.0,1504.0,,,,0.0343336615302081,-1.98545595770492,0.0722595023425626,,1.1653184644279124,,
,4516.0,895.0,4282.0,1021.0,2233.0,2949.0,1506.0,,,,0.0343143970288627,-1.98558900933692,0.072190260187551,,1.5663054317639034,,
,4516.0,895.0,4281.0,1022.0,2229.0,2957.0,1507.0,,,,0.0344187610567326,-1.98514205539275,0.0722977647771469,,1.9550982997972834,,
,4519.0,894.0,4281.0,1021.0,2242.0,2955.0,1506.0,,,,0.0343835410350566,-1.98512468527281,0.0722285759655948,,2.3261617866391684,,
,4519.0,898.0,4283.0,1023.0,2266.0,2934.0,1517.0,,,,0.034371747701644,-1.98504938279899,0.0724171673370433,,2.67320228987363,,
,4521.0,897.0,4285.0,1023.0,2273.0,2945.0,1495.0,,,,0.0344329735300162,-1.98479983302548,0.0723196545616947,,2.989203492194906,,
,4523.0,894.0,4286.0,1022.0,2254.0,2927.0,1516.0,,,,0.0344587018347725,-1.98472853612221,0.0723713228973223,,3.2665990982166044,,
,4522.0,895.0,4286.0,1021.0,2232.0,2952.0,1538.0,,,,0.0344419567878565,-1.98464675800762,0.0724670631323094,,3.4975829350230394,,
,4523.0,896.0,4288.0,1024.0,2237.0,2961.0,1525.0,,,,0.0344315003952651,-1.98445174205276,0.0725199979664936,,3.674539269281414,,
,4524.0,898.0,4290.0,1025.0,2227.0,2950.0,1514.0,,,,0.034453592447693,-1.98394802475304,0.0725003246101275,,3.7905594576428663,,
,4523.0,900.0,4291.0,1026.0,2221.0,2931.0,1515.0,,,,0.0345078685848588,-1.98420529708303,0.0725168443040298,,3.8399967038315386,,
,4523.0,895.0,4291.0,1023.0,2224.0,2933.0,1497.0,,,,0.0345573391469348,-1.98375896862461,0.0725089944034719,,3.819000614658938,,
,4525.0,898.0,4295.0,1027.0,2254.0,2930.0,1504.0,,,,0.0346098058420921,-1.98386078119315,0.0725585092156299,,3.7259693072596627,,
,4528.0,899.0,4295.0,1027.0,2247.0,2933.0,1516.0,,,,0.0346438642915855,-1.98312514470649,0.072612325841143,,3.561860584219515,,
,4530.0,900.0,4295.0,1028.0,2248.0,2937.0,1514.0,,,,0.0346918213628628,-1.98325856568729,0.072567206955906,,3.330315909581927,,
,4531.0,898.0,4298.0,1027.0,2245.0,2929.0,1506.0,,,,0.0346995039629152,-1.98291074148957,0.0725653254001534,,3.0375710289480558,,
,4531.0,898.0,4298.0,1026.0,2228.0,2908.0,1499.0,,,,0.0347794762298113,-1.98275259183415,0.0725425120660272,,2.69215285485779,,
,4531.0,899.0,4297.0,1027.0,2262.0,2922.0,1509.0,,,,0.0348052343736846,-1.98209680720881,0.0726349117389343,,2.304389685562049,,
,4530.0,900.0,4299.0,1027.0,2239.0,2944.0,1510.0,,,,0.0348038831673048,-1.98221892053162,0.0726289283331595,,1.8857857207789186,,
2025-08-19 22:10:55,4534.0,901.0,4303.0,1028.0,2239.0,2953.0,1517.0,,,2025/08/19 10:10:55 PM,0.034757558691169,-1.98132969580795,0.072789619660263,,1.4483262686624334,,
,4532.0,899.0,4301.0,1026.0,2224.0,2956.0,1529.0,,,,0.0347376151881006,-1.98124645107939,0.0727876271612556,,1.0037843234877004,,
,4535.0,900.0,4303.0,1027.0,2227.0,2958.0,1524.0,,,,0.0348166004564965,-1.98125305287402,0.0727970952947697,,0.5630928274666035,,
,4537.0,902.0,4304.0,1028.0,2236.0,2946.0,1513.0,,,,0.0348657846294589,-1.98139119534138,0.0727369569875381,,0.13583286791616694,,
,4537.0,902.0,4306.0,1030.0,2231.0,2960.0,1523.0,,,,0.0348924879083264,-1.98067100534545,0.072806101553407,,-0.27012983620021414,,
,4535.0,901.0,4304.0,1029.0,2230.0,2950.0,1526.0,,,,0.0349648453626492,-1.98035352629708,0.072859343379023,,-0.6488460626149423,,
,4536.0,899.0,4302.0,1028.0,2224.0,2968.0,1513.0,,,,0.0350001988925506,-1.98056854429911,0.0727848860853094,,-0.9963239568836161,,
,4533.0,898.0,4303.0,1028.0,2238.0,2981.0,1522.0,,,,0.0350399228942686,-1.98024408625394,0.072925732458211,,-1.310424805241163,,
,4530.0,903.0,4298.0,1030.0,2254.0,2969.0,1511.0,,,,0.0350525796839432,-1.97986818783535,0.072910119361622,,-1.5906384404557765,,
,4528.0,900.0,4292.0,1026.0,2249.0,2964.0,1512.0,,,,0.0350885650231214,-1.97980512459724,0.0729694763935946,,-1.8377691482300085,,
,4524.0,897.0,4287.0,1021.0,2226.0,2965.0,1492.0,,,,0.0350598454345443,-1.97966819309922,0.0730070885551996,,-2.053565681184934,,
,4518.0,895.0,4280.0,1022.0,2218.0,2960.0,1519.0,,,,0.0351147668899491,-1.97932542223099,0.0728100806836968,,-2.2403286505920534,,
,4515.0,895.0,4275.0,1019.0,2210.0,2948.0,1508.0,,,,0.0351018524367374,-1.97959766183226,0.0728426547373669,,-2.400525951026734,,
,4513.0,894.0,4272.0,1019.0,2209.0,2941.0,1521.0,,,,0.0351379889417804,-1.97958954890449,0.0729886545502046,,-2.5364429021293855,,
,4505.0,890.0,4266.0,1012.0,2211.0,2947.0,1509.0,,,,0.0352086256920058,-1.97934850006131,0.0729283556876358,,-2.6498890349819453,,
,4499.0,888.0,4262.0,1014.0,2219.0,2950.0,1513.0,,,,0.0351536673167594,-1.97906858741891,0.0730479862207503,,-2.7419781007493818,,
,4494.0,889.0,4256.0,1010.0,2221.0,2948.0,1497.0,,,,0.0351166490082803,-1.97929038019752,0.0730618643903924,,-2.8129920431554845,,
,4492.0,889.0,4257.0,1010.0,2231.0,2953.0,1511.0,,,,0.0351573670011627,-1.97935776884606,0.0729893488587565,,-2.8623335619822727,,
,4489.0,886.0,4254.0,1009.0,2229.0,2955.0,1511.0,,,,0.0351169515748186,-1.97861000534876,0.0729896317595103,,-2.8885657878449633,,
,4486.0,885.0,4246.0,1006.0,2229.0,2949.0,1495.0,,,,0.0351043437792743,-1.97874267774263,0.0729186160455813,,-2.8895317637634483,,
,4484.0,885.0,4246.0,1007.0,2245.0,2959.0,1485.0,,,,0.0351545898365229,-1.97842874493323,0.073019786016835,,-2.8625411263668625,,
,4481.0,886.0,4245.0,1005.0,2254.0,2956.0,1486.0,,,,0.0351760346214749,-1.97828357932073,0.0730976207846921,,-2.8046068787224656,,
,4482.0,885.0,4246.0,1006.0,2269.0,2948.0,1483.0,,,,0.0351926423508492,-1.97856496760204,0.0730332144492103,,-2.712711868141619,,
,4479.0,883.0,4241.0,1004.0,2257.0,2944.0,1485.0,,,,0.0352919553721212,-1.97841959722876,0.0730597788065207,,-2.584083073740089,,
,4480.0,882.0,4243.0,1007.0,2258.0,2962.0,1479.0,,,,0.0352430132149277,-1.97856410989763,0.0730253626744781,,-2.4164525453931436,,
,4478.0,885.0,4244.0,1006.0,2262.0,2962.0,1477.0,,,,0.0352848866630185,-1.97885789469809,0.0730743863946585,,-2.2082869648289103,,
,4476.0,885.0,4243.0,1008.0,2278.0,2953.0,1488.0,,,,0.0352869024482096,-1.97885785940347,0.0731086727958432,,-1.9589730426826135,,
,4476.0,884.0,4241.0,1004.0,2272.0,2947.0,1491.0,,,,0.0352537723992313,-1.97911750093834,0.0730249791760647,,-1.668952647318726,,
,4471.0,884.0,4239.0,1002.0,2272.0,2958.0,1491.0,,,,0.03530004022008,-1.97840376966808,0.0730376698916404,,-1.3398085646246662,,
,4473.0,881.0,4237.0,1002.0,2266.0,2949.0,1498.0,,,,0.0352919088603115,-1.97872337574833,0.0730584142532592,,-0.974307583363145,,
,4473.0,881.0,4240.0,1002.0,2238.0,2962.0,1499.0,,,,0.035200752196154,-1.97867315851867,0.0730459445035309,,-0.5764107182101917,,
,4472.0,883.0,4240.0,1004.0,2232.0,2953.0,1500.0,,,,0.0352130355985656,-1.97889094046399,0.0731904277904259,,-0.15126012953103032,,
,4471.0,882.0,4238.0,1003.0,2238.0,2936.0,1513.0,,,,0.0352022933685651,-1.97902827618384,0.0730820687630149,,0.2948509622682886,,
,4469.0,883.0,4240.0,1004.0,2241.0,2931.0,1525.0,,,,0.0352105177227597,-1.97918825626615,0.0729809767742934,,0.754524281517997,,
,4473.0,880.0,4241.0,1005.0,2264.0,2954.0,1528.0,,,,0.0351237540098891,-1.97939320753295,0.0729462788980145,,1.2193232494407267,,
,4471.0,884.0,4239.0,1004.0,2262.0,2946.0,1526.0,,,,0.0351647588780145,-1.98010683124442,0.0729022082472565,,1.6798707351031357,,
,4467.0,884.0,4239.0,1003.0,2247.0,2921.0,1509.0,,,,0.0350105643233692,-1.97960078887392,0.0729577799187049,,2.125991865707439,,
,4467.0,881.0,4237.0,1002.0,2240.0,2905.0,1511.0,,,,0.0350319474922856,-1.9802839846623,0.0728370626656991,,2.5469171167497513,,
,4467.0,884.0,4239.0,1006.0,2245.0,2943.0,1513.0,,,,0.0350431481364937,-1.98033453766757,0.0729323567548985,,2.931558647330557,,
,4465.0,884.0,4239.0,1003.0,2231.0,2943.0,1515.0,,,,0.0350478246136885,-1.98063897551913,0.0728306909173355,,3.2688669606749543,,
,4464.0,884.0,4237.0,1004.0,2238.0,2948.0,1509.0,,,,0.0350428933541865,-1.98060993813966,0.0728755617163497,,3.5482658526460025,,
,4461.0,882.0,4235.0,1001.0,2238.0,2952.0,1517.0,,,,0.0350699303486598,-1.97995747635861,0.0729935340448027,,3.7601520205241394,,
,4463.0,882.0,4233.0,1000.0,2279.0,2956.0,1517.0,,,,0.035163067854003,-1.98004587079167,0.0729047422421643,,3.8964326432810625,,
,4463.0,882.0,4235.0,1001.0,2249.0,2949.0,1512.0,,,,0.0351851219968058,-1.97975351494366,0.0729742492189846,,3.9510612766479922,,
,4461.0,880.0,4232.0,1002.0,2238.0,2944.0,1504.0,,,,0.0351715836093885,-1.98008957781806,0.0729579396191306,,3.920521911997519,,
,4457.0,880.0,4228.0,1000.0,2238.0,2966.0,1529.0,,,,0.0352339916364502,-1.97928862284078,0.0729184631959177,,3.804205834752858,,
,4456.0,878.0,4229.0,1001.0,2239.0,2932.0,1519.0,,,,0.0351659008614225,-1.97928201559013,0.0728621611064572,,3.6046283934888272,,
,4454.0,877.0,4230.0,1001.0,2228.0,2928.0,1513.0,,,,0.0352971398404028,-1.97937374249884,0.0730068736646414,,3.327444223700608,,
,4455.0,879.0,4232.0,998.0,2235.0,2930.0,1515.0,,,,0.0352164700368364,-1.97901024607476,0.0730010439300122,,2.9812393999272686,,
,4454.0,880.0,4229.0,999.0,2233.0,2925.0,1515.0,,,,0.0353227894747609,-1.97896259556508,0.0730457783879991,,2.577104775284422,,
,4451.0,880.0,4227.0,998.0,2220.0,2959.0,1515.0,,,,0.0353422350126493,-1.97880695892528,0.0730420147629473,,2.1280217765446934,,
,4452.0,879.0,4227.0,1000.0,2217.0,2938.0,1504.0,,,,0.0353011236334642,-1.97900490030536,0.0729972291438951,,1.6481148087082809,,
,4449.0,880.0,4226.0,1000.0,2245.0,2944.0,1498.0,,,,0.0353304461336041,-1.97836835908711,0.0731431739327601,,1.1518389931517,,
,4449.0,879.0,4227.0,998.0,2254.0,2934.0,1508.0,,,,0.0353640064089609,-1.97862539232583,0.0729806735288772,,0.6531765082251497,,
,4449.0,875.0,4226.0,998.0,2235.0,2933.0,1516.0,,,,0.0353870119830232,-1.97822668692092,0.073090878868945,,0.164910131488494,,
,4448.0,877.0,4227.0,1000.0,2237.0,2929.0,1506.0,,,,0.0354138244351791,-1.97843232949607,0.0731382425742128,,-0.301969023672147,,
,4448.0,880.0,4227.0,999.0,2255.0,2947.0,1497.0,,,,0.0354296989580988,-1.978523938574,0.0730751011386871,,-0.7386786456631312,,
,4448.0,878.0,4226.0,999.0,2237.0,2950.0,1500.0,,,,0.0353029799224019,-1.97836073870385,0.0730315771317609,,-1.1388647790908384,,
,4446.0,879.0,4225.0,999.0,2244.0,2948.0,1496.0,,,,0.0353753560437194,-1.97879140517306,0.0730544182073881,,-1.4986204893186794,,
,4449.0,877.0,4225.0,997.0,2256.0,2955.0,1504.0,,,,0.035348351965843,-1.97835415736848,0.0730848189322259,,-1.8163183777588499,,
,4449.0,878.0,4227.0,998.0,2250.0,2970.0,1495.0,,,,0.0353465524035631,-1.97860935324388,0.0730322147815177,,-2.0922868764724556,,
,4448.0,878.0,4228.0,998.0,2240.0,2947.0,1494.0,,,,0.0353183546804685,-1.97839704253139,0.073080941096692,,-2.328371299550092,,
,4449.0,879.0,4231.0,998.0,2240.0,2936.0,1493.0,,,,0.0353282278617353,-1.97849463831912,0.0731139925349177,,-2.5274270067434292,,
,4449.0,880.0,4229.0,1000.0,2254.0,2948.0,1500.0,,,,0.0352876753119373,-1.97879014981389,0.0730760541368001,,-2.6927938222004286,,
,4448.0,881.0,4227.0,1000.0,2238.0,2968.0,1491.0,,,,0.0353093270817096,-1.97869737159751,0.0729743297091382,,-2.8277984743639513,,
,4447.0,879.0,4227.0,1000.0,2246.0,2930.0,1497.0,,,,0.0353742443650393,-1.97853295223523,0.0729882687553401,,-2.935325890095972,,
,4449.0,880.0,4230.0,1000.0,2249.0,2924.0,1491.0,,,,0.0354572870037063,-1.97834312195024,0.0730902576281884,,-3.0174913894789404,,
,4451.0,878.0,4232.0,999.0,2240.0,2933.0,1487.0,,,,0.0354007394549096,-1.97841025051606,0.0730939612921419,,-3.075434938821737,,
,4447.0,879.0,4232.0,999.0,2237.0,2940.0,1492.0,,,,0.0353819724532869,-1.97838228380587,0.0730905523522238,,-3.109246433313211,,
,4450.0,880.0,4232.0,1000.0,2249.0,2933.0,1503.0,,,,0.0352618626000842,-1.9774358439766,0.0731708066801024,,-3.1180183663402183,,
,4449.0,882.0,4236.0,1001.0,2240.0,2935.0,1496.0,,,,0.0353645871398403,-1.97758579023309,0.073156599798847,,-3.1000101394650357,,
,4450.0,880.0,4232.0,998.0,2244.0,2925.0,1500.0,,,,0.0353623604970897,-1.97745432872788,0.073164387266437,,-3.0528977834969444,,
,4450.0,879.0,4232.0,999.0,2255.0,2950.0,1494.0,,,,0.0355036070447953,-1.97742389050078,0.0731674783946526,,-2.974075365201985,,
,4451.0,878.0,4232.0,1001.0,2262.0,2935.0,1487.0,,,,0.035627414827005,-1.97729497949529,0.0732123169488378,,-2.860971219423008,,
,4453.0,880.0,4236.0,1001.0,2253.0,2921.0,1488.0,,,,0.0355021614816048,-1.97683696082224,0.0731468020619024,,-2.711344150294345,,
,4451.0,881.0,4237.0,1003.0,2251.0,2926.0,1501.0,,,,0.0356448517538325,-1.97615672969881,0.0733141575859603,,-2.523531662836047,,
,4454.0,882.0,4236.0,1001.0,2252.0,2935.0,1506.0,,,,0.0356284784581097,-1.97668964073874,0.0732554586131372,,-2.2966329751611747,,
,4455.0,878.0,4235.0,1003.0,2251.0,2936.0,1507.0,,,,0.0357082801184378,-1.97626672162234,0.073235878528289,,-2.030622203700854,,
,4453.0,881.0,4239.0,1002.0,2252.0,2935.0,1509.0,,,,0.0355908845276972,-1.976504795802,0.0732395935478307,,-1.7263993793439805,,
,4455.0,881.0,4238.0,1003.0,2267.0,2945.0,1501.0,,,,0.0356902152846706,-1.97595072086577,0.0733247669209146,,-1.3857963680438417,,
,4455.0,883.0,4238.0,1004.0,2278.0,2930.0,1501.0,,,,0.0356452784119426,-1.97610611386294,0.0733405505952404,,-1.0115594414717866,,
,4453.0,882.0,4240.0,1001.0,2269.0,2930.0,1521.0,,,,0.0357306852893387,-1.97562707210856,0.0733586665626084,,-0.607329501295401,,
,4455.0,883.0,4241.0,1002.0,2265.0,2930.0,1512.0,,,,0.0355838516774746,-1.97571350032746,0.0734629886558047,,-0.17763542087980236,,
,4457.0,884.0,4243.0,1004.0,2247.0,2956.0,1505.0,,,,0.0356171298780787,-1.97530304306217,0.0734036503616097,,0.27209293097755155,,
,4458.0,883.0,4240.0,1002.0,2235.0,2939.0,1510.0,,,,0.0357057191774675,-1.97527311302418,0.0733941964262556,,0.7354959515405969,,
,4459.0,884.0,4244.0,1005.0,2225.0,2923.0,1504.0,,,,0.0357171605670622,-1.97548479203056,0.0733456438424303,,1.2052542678600477,,
,4458.0,883.0,4243.0,1004.0,2237.0,2933.0,1499.0,,,,0.0357448839780709,-1.97529488263744,0.073472767197025,,1.6730805301313811,,
,4462.0,884.0,4245.0,1005.0,2243.0,2951.0,1498.0,,,,0.0357629726522084,-1.97559683782674,0.0734738097350094,,2.1297614658253816,,
,4457.0,884.0,4245.0,1005.0,2254.0,2954.0,1501.0,,,,0.0356644231590619,-1.97557782631668,0.073523458008568,,2.5652790042390596,,
,4463.0,884.0,4246.0,1002.0,2235.0,2930.0,1497.0,,,,0.035588117977259,-1.97545625580883,0.0734496646983377,,2.9690339132207364,,
,4462.0,883.0,4248.0,1004.0,2228.0,2937.0,1511.0,,,,0.0355493490433994,-1.97541765642392,0.0735097218980295,,3.3301845943834056,,
,4465.0,886.0,4248.0,1005.0,2225.0,2941.0,1492.0,,,,0.0355969791277807,-1.97477984250325,0.0734316332754636,,3.638098737960129,,
,4463.0,885.0,4250.0,1007.0,2245.0,2937.0,1495.0,,,,0.0354797456653432,-1.97544128488616,0.073474416791064,,3.8828982009846977,,
,4466.0,884.0,4251.0,1005.0,2248.0,2940.0,1488.0,,,,0.0354749873800854,-1.97498748182635,0.0733709292751661,,4.056059800346773,,
,4467.0,883.0,4250.0,1005.0,2243.0,2951.0,1477.0,,,,0.0354297558339523,-1.97530948740808,0.0734784910913728,,4.1510191391066815,,
,4466.0,883.0,4249.0,1007.0,2229.0,2961.0,1496.0,,,,0.0355106400977491,-1.97537347499398,0.07341381052215,,4.16371385988892,,
,4466.0,886.0,4252.0,1009.0,2249.0,2934.0,1505.0,,,,0.0354819347840565,-1.97569199962157,0.0735738596346512,,4.092999575409951,,
,4469.0,887.0,4255.0,1010.0,2250.0,2933.0,1505.0,,,,0.035441279857688,-1.97553811399942,0.073408201801229,,3.9408782860837483,,
,4468.0,884.0,4254.0,1008.0,2254.0,2947.0,1478.0,,,,0.035450054389662,-1.97541911864011,0.073457280309563,,3.712496047391989,,
,4470.0,886.0,4257.0,1008.0,2246.0,2958.0,1499.0,,,,0.0355921705700124,-1.9753663148113,0.0733499253762388,,3.4158924825322,,
,4471.0,886.0,4257.0,1012.0,2252.0,2971.0,1502.0,,,,0.0355900994579679,-1.97597611215302,0.0734098330290523,,3.0615155935843505,,
,4474.0,889.0,4259.0,1012.0,2246.0,2970.0,1507.0,,,,0.035630671610242,-1.97580400120585,0.073355526565946,,2.661545807836926,,
,4475.0,887.0,4258.0,1010.0,2251.0,2971.0,1503.0,,,,0.0355778216769498,-1.9755624750217,0.0734463984353093,,2.2290977509542036,,
,4473.0,888.0,4258.0,1010.0,2276.0,2958.0,1512.0,,,,0.0356412213387439,-1.97563741630872,0.073407939610088,,1.7773825209721343,,
,4472.0,886.0,4256.0,1010.0,2269.0,2962.0,1518.0,,,,0.0355768462091614,-1.97494283282081,0.0735418523910597,,1.3189151109417487,,
,4470.0,888.0,4256.0,1009.0,2261.0,2978.0,1526.0,,,,0.035602741385044,-1.97462743889824,0.0735023221834806,,0.8648416162789038,,
,4468.0,888.0,4250.0,1009.0,2238.0,2974.0,1524.0,,,,0.0356520137411207,-1.97475808174473,0.0734626627906265,,0.42444179636949714,,
,4463.0,884.0,4248.0,1006.0,2225.0,2974.0,1522.0,,,,0.0357021645201609,-1.97442940989542,0.0734036639926916,,0.004838503627633811,,
,4461.0,886.0,4242.0,1003.0,2217.0,2962.0,1523.0,,,,0.0356488550941692,-1.97453004429573,0.0735359478627303,,-0.3890794383895154,,
,4456.0,884.0,4235.0,1002.0,2214.0,2955.0,1506.0,,,,0.0356660716705908,-1.97463432672838,0.0734635516875591,,-0.754536758007286,,
,4451.0,879.0,4232.0,1000.0,2222.0,2935.0,1524.0,,,,0.0356754439996398,-1.97489659860771,0.0735100816871941,,-1.0905871829322225,,
,4447.0,879.0,4226.0,1003.0,2222.0,2946.0,1519.0,,,,0.0357016458992696,-1.97500863734203,0.0734952787422313,,-1.397710164390183,,
,4443.0,878.0,4217.0,994.0,2222.0,2947.0,1509.0,,,,0.0356957465159789,-1.97490072773247,0.0735116456949713,,-1.6773400816982038,,
,4438.0,876.0,4215.0,994.0,2220.0,2939.0,1505.0,,,,0.0356679536525683,-1.974737867353,0.0735577420810367,,-1.9313794935911603,,
,4433.0,879.0,4211.0,993.0,2241.0,2933.0,1512.0,,,,0.0356539463542632,-1.9747021254364,0.0734157653369082,,-2.1617437298163185,,
,4428.0,874.0,4204.0,988.0,2248.0,2939.0,1515.0,,,,0.0355817140182598,-1.97462266007048,0.0735645269258403,,-2.369976256899724,,
,4421.0,872.0,4202.0,989.0,2246.0,2932.0,1489.0,,,,0.0355731978596667,-1.97451616890192,0.0734509224609037,,-2.5569638853294974,,
,4420.0,873.0,4200.0,986.0,2220.0,2955.0,1500.0,,,,0.0356279802760165,-1.97507332497909,0.073467252598198,,-2.722768999138472,,
,4417.0,871.0,4197.0,988.0,2243.0,2935.0,1505.0,,,,0.0356197058037981,-1.97480713185781,0.0733694536415826,,-2.866583526467264,,
,4417.0,872.0,4197.0,989.0,2249.0,2941.0,1495.0,,,,0.0354310206167299,-1.97520433519319,0.0733209923432575,,-2.9867974202239274,,
,4413.0,871.0,4193.0,986.0,2254.0,2942.0,1478.0,,,,0.0354897111445134,-1.97532473311763,0.0733673595476744,,-3.081164199204917,,
,4412.0,869.0,4191.0,984.0,2266.0,2970.0,1494.0,,,,0.035515252831872,-1.97570633473733,0.0734665181417028,,-3.14703853939111,,
,4411.0,873.0,4191.0,985.0,2239.0,2955.0,1491.0,,,,0.0355267531772975,-1.97589997102263,0.0733192457797921,,-3.181656270716233,,
,4411.0,871.0,4193.0,986.0,2241.0,2939.0,1500.0,,,,0.0354082734280151,-1.97660943415192,0.073285734160808,,-3.182425226680667,,
,4411.0,868.0,4190.0,984.0,2260.0,2947.0,1501.0,,,,0.0353893503497913,-1.97656762074188,0.0732929411048676,,-3.14719603858591,,
,4407.0,868.0,4189.0,984.0,2245.0,2950.0,1509.0,,,,0.0352759419575283,-1.97717765923112,0.0731739628434485,,-3.074485209806607,,
,4409.0,868.0,4189.0,985.0,2241.0,2959.0,1492.0,,,,0.0352087296765182,-1.97760148430068,0.0731354629526693,,-2.963628713813307,,
,4409.0,870.0,4190.0,984.0,2238.0,2963.0,1515.0,,,,0.0350679409675576,-1.97796372854777,0.0730597902464692,,-2.814852728088063,,
2025-08-19 22:10:56,4406.0,873.0,4190.0,983.0,2234.0,2957.0,1523.0,,,2025/08/19 10:10:56 PM,0.0350263305787065,-1.97872961526797,0.072938564747568,,-2.6292583182581106,,
,4404.0,866.0,4188.0,982.0,2230.0,2943.0,1512.0,,,,0.0350049335622645,-1.97921489814696,0.0729431884030584,,-2.408727873595053,,
,4402.0,869.0,4185.0,983.0,2239.0,2932.0,1516.0,,,,0.0349587823514364,-1.97933310117781,0.0729667970733772,,-2.155771478751887,,
,4404.0,869.0,4189.0,983.0,2248.0,2941.0,1521.0,,,,0.0349393251174794,-1.97982349102805,0.0728726179449204,,-1.8733396005261407,,
,4402.0,869.0,4189.0,982.0,2253.0,2925.0,1508.0,,,,0.0348622265089596,-1.98012402083987,0.0728319109451737,,-1.5646329329367652,,
,4403.0,867.0,4190.0,982.0,2234.0,2925.0,1516.0,,,,0.0348493667403091,-1.98075126599779,0.0727512963345796,,-1.2329399027570085,,
,4400.0,867.0,4188.0,983.0,2228.0,2911.0,1536.0,,,,0.0346398900030512,-1.98164157819233,0.0726696107912621,,-0.8815270906494176,,
,4400.0,869.0,4186.0,983.0,2227.0,2925.0,1522.0,,,,0.0345616604389421,-1.98227182083238,0.0727058112919064,,-0.5135988014085279,,
,4401.0,868.0,4185.0,984.0,2235.0,2946.0,1514.0,,,,0.0345441346526482,-1.98258050808809,0.072578865800306,,-0.13233115629085476,,
,4400.0,866.0,4185.0,983.0,2241.0,2950.0,1505.0,,,,0.0344529934573638,-1.98309801355106,0.0726387732838589,,0.2590247999113086,,
,4396.0,868.0,4182.0,984.0,2248.0,2935.0,1511.0,,,,0.0344443996144062,-1.983355418442,0.0725991207864647,,0.6569862343885525,,
,4396.0,867.0,4181.0,980.0,2255.0,2936.0,1517.0,,,,0.0344203724364532,-1.98333084998022,0.0725571593661052,,1.0576511013973473,,
,4398.0,867.0,4183.0,980.0,2249.0,2939.0,1510.0,,,,0.034408363803508,-1.9831555529808,0.0725338462827501,,1.4565089293027018,,
,4396.0,868.0,4183.0,982.0,2240.0,2953.0,1521.0,,,,0.0344020158505035,-1.98319368748751,0.0725676983516107,,1.8482813642046625,,
,4397.0,865.0,4181.0,980.0,2241.0,2953.0,1520.0,,,,0.03435132431892,-1.983552940746,0.0725175389303391,,2.226823717125686,,
,4393.0,866.0,4179.0,980.0,2255.0,2967.0,1501.0,,,,0.0344431031742236,-1.98346118312825,0.0725905041110815,,2.5851152191469287,,
,4396.0,867.0,4183.0,982.0,2257.0,2946.0,1510.0,,,,0.0344159202209975,-1.98333772004915,0.0724398353536473,,2.915358824503978,,
,4392.0,868.0,4180.0,981.0,2227.0,2946.0,1504.0,,,,0.0343617396347388,-1.98333447963412,0.0726584824569265,,3.2092014107233413,,
,4390.0,866.0,4177.0,980.0,2223.0,2960.0,1508.0,,,,0.0342834821923328,-1.9831790087805,0.0724831525402529,,3.4580726883505792,,
,4389.0,867.0,4177.0,980.0,2243.0,2968.0,1507.0,,,,0.0343463802011224,-1.98344203718734,0.0725159520349188,,3.6536269990632215,,
,4390.0,865.0,4177.0,979.0,2227.0,2956.0,1530.0,,,,0.0344643067682556,-1.98306161866873,0.0726960669624468,,3.7882577862149933,,
,4389.0,867.0,4176.0,979.0,2212.0,2968.0,1526.0,,,,0.0344837639218871,-1.98286637421984,0.0726117944494881,,3.8556416389556927,,
,4388.0,865.0,4177.0,980.0,2225.0,2955.0,1519.0,,,,0.0345355406382221,-1.98247637123604,0.0726756459147622,,3.851259450117061,,
,4387.0,865.0,4176.0,979.0,2222.0,2965.0,1507.0,,,,0.0344812600039111,-1.9827079019369,0.0727602992194226,,3.7728381899616625,,
,4386.0,864.0,4173.0,977.0,2236.0,2952.0,1490.0,,,,0.0345394931492752,-1.98222964458629,0.0726032847980912,,3.6206594246498036,,
,4387.0,865.0,4174.0,979.0,2253.0,2963.0,1496.0,,,,0.0345311659961198,-1.98177838321887,0.072637469496007,,3.397690902498798,,
,4388.0,866.0,4176.0,979.0,2241.0,2985.0,1519.0,,,,0.0345791160521405,-1.98156670764812,0.0727252130706992,,3.1095154061404826,,
,4387.0,862.0,4176.0,979.0,2233.0,2984.0,1519.0,,,,0.0346554675286479,-1.9821822294116,0.0726966820902737,,2.7640550251111686,,
,4387.0,864.0,4177.0,977.0,2238.0,2968.0,1512.0,,,,0.0346908932131717,-1.98135452776449,0.0728278018369198,,2.3711151858450332,,
,4387.0,864.0,4177.0,980.0,2232.0,2954.0,1509.0,,,,0.0345941999561578,-1.98170282358497,0.0728546688026089,,1.9417958755922706,,
,4388.0,866.0,4183.0,981.0,2232.0,2931.0,1508.0,,,,0.0345774840423327,-1.98096558483075,0.0727763906947653,,1.4878326591250641,,
,4391.0,865.0,4179.0,981.0,2233.0,2934.0,1512.0,,,,0.0346356555403497,-1.98133811417689,0.072815665950328,,1.0209347480287068,,
,4390.0,866.0,4179.0,982.0,2233.0,2951.0,1518.0,,,,0.034732888617094,-1.98117178396856,0.0727729758686751,,0.5521819145461911,,
,4390.0,867.0,4179.0,981.0,2246.0,2962.0,1513.0,,,,0.0347196468817843,-1.98110058329697,0.0727293384667042,,0.09152901070984949,,
,4389.0,867.0,4181.0,979.0,2238.0,2952.0,1508.0,,,,0.0346802177273242,-1.98094154796383,0.0727394742504498,,-0.3525503292590307,,
,4390.0,865.0,4183.0,979.0,2232.0,2955.0,1519.0,,,,0.0346697194705479,-1.98122088738634,0.0727811386024497,,-0.7732673391336489,,
,4392.0,869.0,4181.0,981.0,2235.0,2953.0,1509.0,,,,0.034590535394095,-1.98143892651435,0.0728293695119541,,-1.165572087318926,,
,4391.0,865.0,4182.0,981.0,2250.0,2952.0,1518.0,,,,0.0346515339798564,-1.98136331863473,0.0727403427934921,,-1.526073541083128,,
,4393.0,868.0,4184.0,982.0,2234.0,2942.0,1495.0,,,,0.0346768829862186,-1.98099549573499,0.0728159320414764,,-1.8528497654207834,,
,4395.0,869.0,4188.0,984.0,2219.0,2948.0,1507.0,,,,0.0345768112831161,-1.98130647125859,0.0727499554978435,,-2.145176381500813,,
,4394.0,868.0,4190.0,981.0,2222.0,2955.0,1505.0,,,,0.03471044473171,-1.98071169841393,0.0729253788832924,,-2.4032027534242513,,
,4396.0,869.0,4189.0,983.0,2216.0,2951.0,1506.0,,,,0.0346599125009021,-1.9808544741587,0.0728230137944356,,-2.627605361982587,,
,4396.0,866.0,4185.0,981.0,2223.0,2950.0,1517.0,,,,0.0346262676069325,-1.98096316503041,0.072897835281851,,-2.819247005134082,,
,4397.0,868.0,4189.0,983.0,2237.0,2951.0,1510.0,,,,0.0346310271313764,-1.98090871563002,0.0728160949527998,,-2.978868626598525,,
,4398.0,867.0,4190.0,985.0,2220.0,2961.0,1500.0,,,,0.0346501497169017,-1.9804144236972,0.0728340676422984,,-3.106837337568289,,
,4397.0,871.0,4192.0,985.0,2219.0,2956.0,1498.0,,,,0.0347832715376555,-1.98049976848083,0.0729702919827261,,-3.2029694279024077,,
,4398.0,868.0,4192.0,983.0,2206.0,2953.0,1478.0,,,,0.0347478314834229,-1.97997234998753,0.0728427437620108,,-3.266441006999565,,
,4399.0,870.0,4195.0,986.0,2237.0,2955.0,1511.0,,,,0.0347917056703469,-1.98022374478232,0.0730417871905421,,-3.295791658858399,,
,4400.0,871.0,4195.0,987.0,2227.0,2958.0,1517.0,,,,0.034837265242788,-1.98009012490772,0.0729603840957343,,-3.2890185189800807,,
,4403.0,873.0,4196.0,988.0,2229.0,2946.0,1510.0,,,,0.0347924393367903,-1.98042502932008,0.0728559089554588,,-3.243750047904183,,
,4402.0,870.0,4198.0,985.0,2229.0,2934.0,1521.0,,,,0.0347363099511754,-1.98042201419334,0.0729327116840286,,-3.157481348229343,,
,4405.0,871.0,4198.0,986.0,2232.0,2943.0,1514.0,,,,0.0347982501735536,-1.98020218557457,0.0728152230286097,,-3.0278472415662394,,
,4405.0,872.0,4197.0,987.0,2229.0,2943.0,1506.0,,,,0.0347987821977415,-1.97991729167847,0.0729265652489621,,-2.8529065395182025,,
,4408.0,872.0,4201.0,987.0,2228.0,2937.0,1518.0,,,,0.0347921191819016,-1.97985088077713,0.0728500959017552,,-2.631411662568201,,
,4406.0,872.0,4198.0,988.0,2228.0,2945.0,1511.0,,,,0.0347808736214507,-1.98014895500712,0.0728649537583909,,-2.36304197775747,,
,4407.0,870.0,4200.0,986.0,2226.0,2952.0,1508.0,,,,0.0348877141892774,-1.98030971949818,0.0728215822208416,,-2.048586183842998,,
,4408.0,873.0,4203.0,989.0,2215.0,2958.0,1506.0,,,,0.0347469140377689,-1.98033175274645,0.0728728355521718,,-1.6900672925294111,,
,4410.0,872.0,4203.0,990.0,2223.0,2948.0,1507.0,,,,0.034788077486507,-1.98002598746859,0.07289793930381,,-1.2908112660376891,,
,4412.0,870.0,4203.0,989.0,2232.0,2951.0,1506.0,,,,0.0347374221581645,-1.98008686314383,0.0728090725166615,,-0.8554653739260848,,
,4414.0,871.0,4206.0,988.0,2245.0,2951.0,1523.0,,,,0.0347090430582003,-1.98023575902405,0.0729258394409516,,-0.3899740351976761,,
,4412.0,873.0,4205.0,992.0,2227.0,2943.0,1515.0,,,,0.034782892617211,-1.98044825943934,0.07292519091062,,0.09848123167672254,,
,4417.0,874.0,4211.0,992.0,2249.0,2944.0,1500.0,,,,0.034744797422199,-1.98028805867997,0.0728849268218315,,0.6015740255770078,,
,4420.0,875.0,4210.0,994.0,2247.0,2948.0,1500.0,,,,0.0347039916499746,-1.98033321615999,0.0727844840684081,,1.1099573486926242,,
,4418.0,875.0,4209.0,992.0,2220.0,2916.0,1507.0,,,,0.0346564524795459,-1.98062778042847,0.0729804168293899,,1.6134234432086465,,
,4418.0,874.0,4211.0,993.0,2219.0,2941.0,1522.0,,,,0.0346652694607236,-1.98096883194912,0.0727480859134442,,2.101105468052639,,
,4421.0,876.0,4217.0,993.0,2221.0,2937.0,1505.0,,,,0.034736519468887,-1.98086665898084,0.0728838392857144,,2.5617285420965072,,
,4425.0,875.0,4216.0,996.0,2221.0,2953.0,1525.0,,,,0.0346107961243668,-1.98088217229415,0.0728583337324649,,2.983916550327078,,
,4425.0,877.0,4217.0,995.0,2219.0,2940.0,1524.0,,,,0.0346757221888728,-1.98086001064058,0.0728114321471451,,3.356557073079502,,
,4425.0,876.0,4219.0,993.0,2231.0,2940.0,1516.0,,,,0.0346279026617421,-1.98112879164386,0.0728037227914089,,3.6692198747690417,,
,4427.0,881.0,4220.0,997.0,2240.0,2958.0,1505.0,,,,0.034682241036286,-1.98138296353655,0.0727696175557384,,3.9126152622799615,,
,4426.0,877.0,4220.0,995.0,2237.0,2960.0,1508.0,,,,0.0346758024728048,-1.98131863853491,0.0729052165386662,,4.079068444496262,,
,4432.0,880.0,4225.0,998.0,2233.0,2961.0,1510.0,,,,0.0346700101434224,-1.9814819721561,0.0727859187661543,,4.162976193243803,,
,4428.0,876.0,4221.0,996.0,2245.0,2935.0,1515.0,,,,0.034581100936201,-1.98178985580681,0.0727184566368566,,4.161204368885411,,
,4431.0,878.0,4222.0,996.0,2238.0,2980.0,1506.0,,,,0.0345631083911197,-1.98175924730609,0.0727288117234913,,4.073381462047322,,
,4431.0,881.0,4223.0,996.0,2233.0,2990.0,1498.0,,,,0.0345264227927961,-1.9817307551778,0.0728402129596013,,3.9020464687997367,,
,4430.0,879.0,4220.0,997.0,2242.0,2986.0,1519.0,,,,0.0345334649651518,-1.9820149340874,0.0727349824585204,,3.6526203251555147,,
,4431.0,878.0,4215.0,994.0,2225.0,2978.0,1519.0,,,,0.0346014337708627,-1.98182989744731,0.0727710605528671,,3.333187870363922,,
,4426.0,874.0,4212.0,996.0,2214.0,2977.0,1507.0,,,,0.0346239949249956,-1.98186896320643,0.0727564946085503,,2.9540988328782984,,
,4423.0,878.0,4208.0,991.0,2214.0,2965.0,1497.0,,,,0.0346744961995074,-1.98204849159456,0.0727479950022321,,2.5274173950446595,,
,4421.0,876.0,4202.0,991.0,2224.0,2938.0,1503.0,,,,0.0345839755910971,-1.98180138501718,0.0727674544369524,,2.066266511918856,,
,4416.0,878.0,4197.0,989.0,2201.0,2948.0,1514.0,,,,0.0346332344860351,-1.98220971911791,0.0726020346759162,,1.5841228041900546,,
,4411.0,872.0,4191.0,986.0,2207.0,2942.0,1513.0,,,,0.0345651471031941,-1.98193785072549,0.0726509169191756,,1.0941198616414864,,
,4406.0,871.0,4187.0,985.0,2202.0,2941.0,1518.0,,,,0.034509365803002,-1.98212578086938,0.0726482041655378,,0.6084131193013401,,
,4402.0,871.0,4181.0,984.0,2194.0,2932.0,1502.0,,,,0.0343771092637054,-1.98220416117351,0.0725864598872993,,0.1376500095631271,,
,4398.0,869.0,4181.0,983.0,2209.0,2939.0,1510.0,,,,0.034454161806054,-1.98245771072997,0.0726604035450096,,-0.3094229323869303,,
,4393.0,868.0,4173.0,978.0,2214.0,2950.0,1523.0,,,,0.034553248030765,-1.98256600814125,0.0727002839619279,,-0.7261970225327703,,
,4390.0,864.0,4169.0,978.0,2217.0,2953.0,1523.0,,,,0.0345726108959229,-1.98222858364519,0.0725548227545791,,-1.108275712720617,,
,4390.0,863.0,4166.0,977.0,2200.0,2976.0,1531.0,,,,0.0345095245210947,-1.98212192978663,0.0726154776164203,,-1.4533910305084614,,
,4385.0,865.0,4167.0,977.0,2201.0,2968.0,1526.0,,,,0.0345149354892504,-1.98279831773045,0.0726491646366692,,-1.761177773477766,,
,4386.0,864.0,4163.0,975.0,2206.0,2975.0,1516.0,,,,0.0345399948757805,-1.98261098807634,0.0727065065770786,,-2.032830538420153,,
,4383.0,863.0,4162.0,975.0,2233.0,2957.0,1512.0,,,,0.0345548357022773,-1.98205263926532,0.0725510332694281,,-2.2706760008526286,,
,4381.0,863.0,4162.0,976.0,2224.0,2967.0,1513.0,,,,0.0345294670899055,-1.98236240603036,0.0725998483802516,,-2.4776974968806673,,
,4382.0,865.0,4163.0,974.0,2232.0,2973.0,1508.0,,,,0.034518417798063,-1.98244666020643,0.0725670262752314,,-2.6570508923048957,,
,4381.0,863.0,4160.0,976.0,2225.0,2966.0,1512.0,,,,0.0345836458453945,-1.98244385406974,0.0725689661975445,,-2.811610140205178,,
,4379.0,862.0,4159.0,972.0,2218.0,2965.0,1525.0,,,,0.0345295162489457,-1.98298170763063,0.0726322453365641,,-2.94357790348691,,
,4380.0,862.0,4157.0,974.0,2204.0,2973.0,1509.0,,,,0.0344717156219404,-1.98290216781855,0.0726528235062585,,-3.0541911982158814,,
,4378.0,863.0,4159.0,973.0,2208.0,2952.0,1525.0,,,,0.0344631772325645,-1.98391898853615,0.0725363028165144,,-3.143544374105304,,
,4377.0,862.0,4160.0,973.0,2219.0,2940.0,1515.0,,,,0.0343938066061258,-1.9840148118946,0.0724221512802568,,-3.2105422304172144,,
,4379.0,864.0,4155.0,974.0,2213.0,2933.0,1507.0,,,,0.0343752436681154,-1.98406856044629,0.0725029022457759,,-3.252985148956394,,
,4375.0,860.0,4156.0,972.0,2200.0,2943.0,1525.0,,,,0.0343453161999086,-1.98465766795707,0.0724638605686609,,-3.2677764199308266,,
,4376.0,863.0,4156.0,971.0,2189.0,2955.0,1514.0,,,,0.0344077153428138,-1.98454741486927,0.0724448760918723,,-3.251230223153927,,
,4379.0,861.0,4156.0,974.0,2201.0,2952.0,1525.0,,,,0.0342804890538507,-1.98410723123572,0.0725012836120983,,-3.1994481142873683,,
,4373.0,862.0,4157.0,973.0,2196.0,2937.0,1524.0,,,,0.0342466368457216,-1.98498279253663,0.0723788287300763,,-3.108723936598989,,
,4373.0,861.0,4152.0,973.0,2220.0,2936.0,1528.0,,,,0.0341776415452884,-1.98545191459826,0.0723319076642838,,-2.975933702250051,,
,4373.0,862.0,4155.0,971.0,2227.0,2962.0,1534.0,,,,0.034084415392752,-1.98567307223735,0.0723553308101198,,-2.7988696296402202,,
,4377.0,863.0,4153.0,972.0,2223.0,2939.0,1520.0,,,,0.0340466990033348,-1.98648621118445,0.0722637790130576,,-2.576486459035003,,
,4375.0,863.0,4156.0,972.0,2225.0,2930.0,1515.0,,,,0.0340836920597662,-1.98687842461663,0.0722426516576447,,-2.309042175063493,,
,4375.0,861.0,4154.0,970.0,2229.0,2944.0,1516.0,,,,0.0339146478231848,-1.98708804482381,0.0720210482346295,,-1.9981318847634135,,
,4373.0,863.0,4155.0,973.0,2245.0,2955.0,1526.0,,,,0.033949839770784,-1.98748746372867,0.0720654842810881,,-1.6466296989839848,,
,4375.0,864.0,4153.0,970.0,2243.0,2949.0,1530.0,,,,0.0339292726734303,-1.9875530589503,0.0721679480736256,,-1.2585659587119167,,
,4374.0,862.0,4152.0,974.0,2221.0,2942.0,1515.0,,,,0.0338329291650418,-1.98790132380564,0.0721280853762341,,-0.8389737649827527,,
,4372.0,861.0,4153.0,971.0,2205.0,2936.0,1522.0,,,,0.0338443784570742,-1.98796791553387,0.0721568862868174,,-0.3937385174446783,,
,4371.0,860.0,4148.0,970.0,2201.0,2963.0,1528.0,,,,0.0338694294593029,-1.98817266207495,0.072011007860458,,0.07052264828480152,,
,4370.0,861.0,4149.0,972.0,2219.0,2968.0,1531.0,,,,0.0339125488741688,-1.98805554836036,0.07204460864486,,0.5465366235298454,,
,4370.0,861.0,4150.0,972.0,2225.0,2971.0,1518.0,,,,0.0338703747810497,-1.98819785971748,0.0720902438752706,,1.0264054197384274,,
,4369.0,862.0,4149.0,967.0,2229.0,2967.0,1521.0,,,,0.0338208649892752,-1.98777103049878,0.0720703447705071,,1.5016082906184587,,
,4370.0,861.0,4147.0,971.0,2232.0,2946.0,1514.0,,,,0.0338714113115943,-1.98797451152171,0.0720928719046204,,1.9630040316942605,,
,4372.0,860.0,4147.0,970.0,2217.0,2962.0,1524.0,,,,0.0338806204678629,-1.98728871345604,0.0720297613300867,,2.4008711897003185,,
,4369.0,860.0,4147.0,970.0,2223.0,2945.0,1519.0,,,,0.0337363798312083,-1.98738452115772,0.0720919494794252,,2.8050251914117816,,
,4372.0,862.0,4145.0,970.0,2202.0,2955.0,1512.0,,,,0.0338072179816967,-1.98731711210326,0.0721156076856179,,3.165044155010106,,
,4370.0,862.0,4147.0,972.0,2199.0,2967.0,1517.0,,,,0.033823625554016,-1.98779504106419,0.0721742673852188,,3.4706200519154216,,
,4370.0,860.0,4145.0,968.0,2217.0,2962.0,1521.0,,,,0.0338059919780542,-1.98745417909562,0.0720895172902641,,3.712031248583354,,
,4369.0,859.0,4144.0,970.0,2203.0,2952.0,1530.0,,,,0.0338367119049434,-1.98730387870573,0.0721826437856763,,3.880709480849424,,
,4368.0,861.0,4145.0,972.0,2199.0,2953.0,1528.0,,,,0.0338309092529536,-1.98754598232264,0.0721642263057057,,3.96985261629545,,
,4371.0,862.0,4149.0,974.0,2210.0,2951.0,1518.0,,,,0.0338603659469393,-1.98707907256548,0.0721308592991539,,3.9750178250367414,,
,4370.0,859.0,4146.0,970.0,2211.0,2932.0,1531.0,,,,0.0339307861168431,-1.98699527330369,0.0722158981174044,,3.8946212128583864,,
,4371.0,860.0,4145.0,970.0,2213.0,2953.0,1533.0,,,,0.0338646676426356,-1.98661408300834,0.0721692701489723,,3.7302718007827,,
,4372.0,861.0,4151.0,969.0,2213.0,2989.0,1517.0,,,,0.0339912442601928,-1.9870487858841,0.0720968786042059,,3.4868809057266987,,
2025-08-19 22:10:57,4373.0,864.0,4149.0,973.0,2204.0,2962.0,1508.0,,,2025/08/19 10:10:57 PM,0.0339774287440832,-1.98627775802894,0.0721480925158567,,3.1725117315401983,,
,4373.0,866.0,4148.0,973.0,2206.0,2964.0,1515.0,,,,0.0339657489436316,-1.9865389404098,0.0721906346909213,,2.7979654245826477,,
,4372.0,861.0,4146.0,969.0,2194.0,2970.0,1529.0,,,,0.0341392428920147,-1.98648083527937,0.072377879914674,,2.376134108850215,,
,4373.0,862.0,4151.0,973.0,2220.0,2982.0,1533.0,,,,0.0341057961979831,-1.98630135917691,0.0722920626109874,,1.9211825509088045,,
,4376.0,863.0,4152.0,973.0,2222.0,2986.0,1519.0,,,,0.0341602949586394,-1.9864914708408,0.0722841341812171,,1.4476424100698266,,
,4379.0,865.0,4155.0,975.0,2220.0,2988.0,1521.0,,,,0.0340950093142449,-1.98612404273634,0.0722075831831776,,0.9695124776325962,,
,4376.0,864.0,4153.0,972.0,2200.0,2980.0,1512.0,,,,0.0341414636006858,-1.98569663582641,0.0722227942250381,,0.4994537955552056,,
,4377.0,863.0,4152.0,973.0,2191.0,2970.0,1509.0,,,,0.03417849837263,-1.98589814740151,0.0722780511147429,,0.04815217259773261,,
,4381.0,865.0,4156.0,974.0,2201.0,2951.0,1493.0,,,,0.0342539581960166,-1.98612911171965,0.0722944993818701,,-0.37610336887091167,,
,4379.0,866.0,4158.0,977.0,2197.0,2952.0,1505.0,,,,0.0341155371578272,-1.9854834447948,0.0723262982547805,,-0.7676045705561347,,
,4382.0,862.0,4155.0,974.0,2214.0,2983.0,1501.0,,,,0.0341658755087815,-1.9854963548562,0.0723889114011922,,-1.1231745623223284,,
,4380.0,864.0,4156.0,971.0,2208.0,2977.0,1514.0,,,,0.0341292918188225,-1.98480862359857,0.0724064946382916,,-1.4419115264006066,,
,4384.0,865.0,4160.0,977.0,2202.0,2958.0,1503.0,,,,0.0342522050693645,-1.98490600365217,0.0723905109229224,,-1.724768746250401,,
,4385.0,866.0,4161.0,976.0,2208.0,2971.0,1517.0,,,,0.0342228924505584,-1.98468031616808,0.0723425399076078,,-1.9740253935552479,,
,4386.0,865.0,4162.0,978.0,2219.0,2978.0,1519.0,,,,0.0342878858035764,-1.98495975634822,0.0724546949883895,,-2.1927072939909857,,
,4387.0,864.0,4162.0,977.0,2225.0,2966.0,1522.0,,,,0.0341860989541744,-1.98439436422087,0.0724919574344548,,-2.384015951565795,,
,4389.0,866.0,4162.0,977.0,2218.0,2960.0,1515.0,,,,0.0342758793943732,-1.98432656020385,0.0723614450639612,,-2.5508179678072858,,
,4391.0,868.0,4163.0,978.0,2201.0,2951.0,1522.0,,,,0.0342870107736096,-1.98446637789594,0.072322079735781,,-2.6952365881465625,,
,4392.0,867.0,4164.0,977.0,2205.0,2943.0,1530.0,,,,0.0343108934328646,-1.98449031669954,0.0724695700171974,,-2.8183735629277695,,
,4393.0,868.0,4164.0,979.0,2212.0,2953.0,1534.0,,,,0.0343411286838018,-1.98438450509143,0.0725491783594867,,-2.9201742692879296,,
,4392.0,866.0,4168.0,978.0,2195.0,2966.0,1533.0,,,,0.0343987386875156,-1.98425990707352,0.0724188413658576,,-2.999433924244504,,
,4397.0,870.0,4170.0,979.0,2205.0,2964.0,1515.0,,,,0.0344751882900599,-1.98404562166624,0.0725420772499403,,-3.053929538756686,,
,4397.0,871.0,4172.0,980.0,2210.0,2978.0,1527.0,,,,0.0344872493374825,-1.98390841129328,0.0724892742405619,,-3.0806521977636296,,
,4397.0,870.0,4172.0,978.0,2213.0,2981.0,1525.0,,,,0.0345238884069282,-1.98365558146181,0.0725453060100232,,-3.0761076805637813,,
,4398.0,869.0,4172.0,982.0,2207.0,2969.0,1510.0,,,,0.0345035986739254,-1.98399975352301,0.0726194789539617,,-3.036650378374016,,
,4400.0,868.0,4171.0,980.0,2222.0,2985.0,1523.0,,,,0.0345223070030945,-1.98421845390466,0.0726325392428257,,-2.958816026230846,,
,4402.0,872.0,4174.0,986.0,2230.0,2988.0,1538.0,,,,0.0345156705988046,-1.98349099637257,0.0725091208681274,,-2.839623077421133,,
,4402.0,872.0,4172.0,982.0,2235.0,2986.0,1527.0,,,,0.0344983645943128,-1.98336186892317,0.0725406603179448,,-2.6768203743078454,,
,4403.0,869.0,4172.0,982.0,2216.0,2932.0,1519.0,,,,0.0345375817151875,-1.98341632650051,0.0726499577428133,,-2.469069176087712,,
,4403.0,869.0,4176.0,982.0,2225.0,2931.0,1515.0,,,,0.0345608423384634,-1.98329233795342,0.0725880021729172,,-2.216058925089008,,
,4405.0,872.0,4178.0,983.0,2237.0,2936.0,1502.0,,,,0.0346676289714416,-1.98337183662736,0.0725598753312636,,-1.9185662732312074,,
,4408.0,872.0,4178.0,983.0,2245.0,2952.0,1481.0,,,,0.0346257970186979,-1.98336354316479,0.0725669389973926,,-1.5784738529863689,,
,4409.0,874.0,4181.0,988.0,2232.0,2951.0,1504.0,,,,0.034624701088666,-1.9830933415776,0.0725658649745957,,-1.1987676833378944,,
,4410.0,871.0,4183.0,986.0,2231.0,2948.0,1500.0,,,,0.0345471655361498,-1.98341321558557,0.0726294636548082,,-0.7835295715116325,,
,4411.0,871.0,4184.0,985.0,2220.0,2952.0,1497.0,,,,0.0345344550045485,-1.98291804469158,0.0725863652827787,,-0.3379342514327662,,
,4413.0,873.0,4184.0,985.0,2228.0,2950.0,1506.0,,,,0.0345381705158183,-1.98385668412428,0.0724996758955973,,0.13174781171742656,,
,4415.0,874.0,4189.0,986.0,2222.0,2947.0,1505.0,,,,0.0346045874753448,-1.98300726110518,0.0725666807692149,,0.6181498431388162,,
,4419.0,872.0,4190.0,988.0,2219.0,2924.0,1519.0,,,,0.0346185155464146,-1.98325430392606,0.0726783419905044,,1.11282551737473,,
,4420.0,873.0,4189.0,989.0,2219.0,2923.0,1514.0,,,,0.0346505486549381,-1.98295013137131,0.0726750079813718,,1.6063029040216743,,
,4420.0,874.0,4192.0,989.0,2238.0,2948.0,1522.0,,,,0.0346314018714087,-1.98283307175516,0.0725366802899532,,2.0881971623505096,,
,4421.0,875.0,4192.0,989.0,2235.0,2943.0,1519.0,,,,0.0346454375821973,-1.98220676833115,0.0726637731852435,,2.547401784676055,,
,4423.0,875.0,4194.0,987.0,2217.0,2948.0,1522.0,,,,0.0347354970856071,-1.98236608707257,0.0727032835605956,,2.9723727216915505,,
,4423.0,876.0,4196.0,991.0,2253.0,2941.0,1499.0,,,,0.0347726760616004,-1.98228130052454,0.0727321008329125,,3.351510692220456,,
,4426.0,878.0,4200.0,991.0,2251.0,2957.0,1510.0,,,,0.034787788020789,-1.98185865086179,0.0726610797351623,,3.6736349440676674,,
,4425.0,877.0,4199.0,992.0,2254.0,2961.0,1522.0,,,,0.0349056759010199,-1.98182707882691,0.0726385313943146,,3.928527733786797,,
,4428.0,876.0,4200.0,992.0,2270.0,2959.0,1522.0,,,,0.0348547188160378,-1.98139664392394,0.0727718537219906,,4.107514418534546,,
,4425.0,875.0,4195.0,989.0,2263.0,2972.0,1526.0,,,,0.0349077312711164,-1.98206327388134,0.072802980122806,,4.204031403811508,,
,4428.0,877.0,4196.0,992.0,2280.0,2954.0,1531.0,,,,0.0349842784471407,-1.98157297559448,0.0728326458136582,,4.214125720962986,,
,4423.0,874.0,4192.0,989.0,2255.0,2973.0,1525.0,,,,0.0349319784887975,-1.98149424179955,0.0728797098582145,,4.136828159496753,,
,4424.0,873.0,4188.0,988.0,2251.0,2970.0,1530.0,,,,0.0348442706677096,-1.98127162022164,0.0728278063193718,,3.9743484373772997,,
,4417.0,873.0,4184.0,986.0,2228.0,2949.0,1537.0,,,,0.0348967370266096,-1.98104623889761,0.0727732806052828,,3.732056250082305,,
,4414.0,872.0,4178.0,984.0,2234.0,2947.0,1535.0,,,,0.0349348795653033,-1.9809298372259,0.0728031675569404,,3.418234740734024,,
,4411.0,868.0,4173.0,983.0,2252.0,2945.0,1520.0,,,,0.0349810480038431,-1.98071717607585,0.0728255283277917,,3.043619693443634,,
,4409.0,871.0,4171.0,981.0,2232.0,2919.0,1514.0,,,,0.0351172597255513,-1.98084579429304,0.0728556168799227,,2.6207639587815783,,
,4402.0,868.0,4165.0,981.0,2226.0,2910.0,1521.0,,,,0.0351707961279034,-1.98042924620618,0.0729293555424175,,2.1632874043382326,,
,4396.0,865.0,4158.0,978.0,2227.0,2929.0,1511.0,,,,0.035027750737258,-1.98000582170693,0.0728842844412249,,1.6850843716591488,,
,4393.0,866.0,4156.0,978.0,2230.0,2931.0,1492.0,,,,0.0351493860756023,-1.98060995957868,0.0728774572135343,,1.1995618324749089,,
,4391.0,865.0,4153.0,975.0,2229.0,2913.0,1488.0,,,,0.035158708227706,-1.97989958281596,0.0729761662831649,,0.7189731418461889,,
,4389.0,864.0,4150.0,972.0,2221.0,2914.0,1505.0,,,,0.0351506775305771,-1.97961521557629,0.0730635779335112,,0.2538969988256954,,
,4385.0,860.0,4144.0,969.0,2234.0,2938.0,1503.0,,,,0.0350948992557679,-1.97974981003844,0.0730070288637848,,-0.187107946556631,,
,4384.0,862.0,4144.0,972.0,2236.0,2934.0,1506.0,,,,0.0351180520546752,-1.97931533473732,0.072968201895334,,-0.5976624253430655,,
,4382.0,861.0,4146.0,971.0,2253.0,2953.0,1515.0,,,,0.0351682836178939,-1.97957066651408,0.0729790619020751,,-0.9735477143573907,,
,4380.0,859.0,4142.0,968.0,2259.0,2958.0,1506.0,,,,0.0351778614070396,-1.97991439246523,0.0730077387731677,,-1.3125312449653537,,
,4379.0,858.0,4140.0,967.0,2247.0,2959.0,1505.0,,,,0.0351858477645139,-1.98009164769762,0.0730215668387409,,-1.6140693365970058,,
,4378.0,858.0,4139.0,967.0,2260.0,2949.0,1502.0,,,,0.0351185943217347,-1.97994810779712,0.0731078609731859,,-1.8789249688342522,,
,4377.0,858.0,4139.0,966.0,2232.0,2960.0,1504.0,,,,0.0350713604831337,-1.98005172026308,0.0730158438024573,,-2.1087395539622227,,
,4378.0,856.0,4138.0,971.0,2242.0,2959.0,1501.0,,,,0.0350896009830921,-1.98007240810742,0.0729786832285695,,-2.3055957483398934,,
,4376.0,857.0,4137.0,971.0,2242.0,2967.0,1495.0,,,,0.0350566337242276,-1.98011723970397,0.0730142363832178,,-2.4716046359331005,,
,4372.0,859.0,4136.0,968.0,2239.0,2946.0,1505.0,,,,0.0350883035256751,-1.98014578839901,0.0730731957896953,,-2.6085457892847654,,
,4374.0,859.0,4136.0,967.0,2239.0,2947.0,1526.0,,,,0.0350355123873334,-1.98044082820342,0.0728873478667865,,-2.717582921991828,,
,4375.0,860.0,4136.0,970.0,2218.0,2934.0,1513.0,,,,0.0351148840336068,-1.98057976214641,0.0729964851538673,,-2.799071185864179,,
,4372.0,857.0,4135.0,966.0,2223.0,2933.0,1505.0,,,,0.0350569410877267,-1.98071625325753,0.0730907862469516,,-2.852464946814015,,
,4373.0,856.0,4135.0,967.0,2230.0,2945.0,1503.0,,,,0.0349893825336708,-1.98103547821875,0.0729859174139014,,-2.876327574105771,,
,4372.0,858.0,4134.0,965.0,2219.0,2949.0,1527.0,,,,0.0349400327496121,-1.9811975539235,0.0728188182000921,,-2.868437893653844,,
,4372.0,856.0,4135.0,968.0,2231.0,2929.0,1528.0,,,,0.0348143011724069,-1.9809436598619,0.0729203703830205,,-2.8259819337552345,,
,4374.0,860.0,4135.0,969.0,2206.0,2925.0,1527.0,,,,0.0349070794239133,-1.98144874069903,0.0729332000229229,,-2.7458138119733624,,
,4373.0,856.0,4134.0,966.0,2207.0,2929.0,1522.0,,,,0.0348577522847778,-1.98174246332027,0.0728211843370997,,-2.624766369765763,,
,4370.0,853.0,4134.0,965.0,2208.0,2940.0,1512.0,,,,0.0347872127279582,-1.98189804920678,0.0728471144428451,,-2.45999060638765,,
,4367.0,854.0,4133.0,967.0,2239.0,2957.0,1520.0,,,,0.0347647234886147,-1.9817449116138,0.0727429256780229,,-2.249302971187221,,
,4370.0,855.0,4132.0,966.0,2231.0,2953.0,1529.0,,,,0.0347955602277581,-1.98205348547219,0.0728702662684797,,-1.991520644094911,,
,4369.0,855.0,4134.0,966.0,2222.0,2936.0,1537.0,,,,0.0348205725450372,-1.98147652205244,0.0728026320566092,,-1.6867663704622307,,
,4368.0,855.0,4130.0,965.0,2239.0,2935.0,1531.0,,,,0.0347175552852428,-1.98177232429846,0.0728314871659247,,-1.3367257914861925,,
,4368.0,856.0,4132.0,965.0,2240.0,2927.0,1531.0,,,,0.0347468057227685,-1.98154679404655,0.0727338334896277,,-0.9448416397747635,,
,4370.0,855.0,4132.0,969.0,2237.0,2939.0,1519.0,,,,0.0347871472457442,-1.98138510982026,0.0729063719253229,,-0.5164310084493998,,
,4370.0,855.0,4129.0,965.0,2242.0,2935.0,1515.0,,,,0.0347983884177416,-1.9818897995643,0.0727674808835104,,-0.05871428031976358,,
,4366.0,857.0,4127.0,965.0,2244.0,2934.0,1495.0,,,,0.0347701678545333,-1.98160767299928,0.0728703495735911,,0.4192529297443933,,
,4364.0,853.0,4126.0,963.0,2251.0,2931.0,1519.0,,,,0.0348460487180116,-1.98173558220679,0.0728703447044827,,0.9067504389312222,,
,4363.0,854.0,4130.0,964.0,2232.0,2961.0,1507.0,,,,0.0347478142799508,-1.98146628637131,0.0728334893936441,,1.3916689799946524,,
,4365.0,855.0,4126.0,964.0,2217.0,2934.0,1516.0,,,,0.0347653250071833,-1.98138839080995,0.0728764818932464,,1.860888577602688,,
,4364.0,854.0,4128.0,964.0,2220.0,2935.0,1517.0,,,,0.0348130783780188,-1.98188401834229,0.0729835207466495,,2.3007526120379924,,
,4360.0,854.0,4125.0,964.0,2222.0,2947.0,1508.0,,,,0.0347634948435644,-1.98169250395525,0.0728459209656204,,2.697623720188044,,
,4363.0,852.0,4123.0,963.0,2224.0,2936.0,1518.0,,,,0.0348411429905829,-1.98150174921954,0.0727904310165019,,3.0384997595631384,,
,4363.0,855.0,4126.0,965.0,2231.0,2935.0,1500.0,,,,0.0347564091854404,-1.98180881387406,0.072853852917622,,3.31165926624607,,
,4361.0,854.0,4124.0,965.0,2243.0,2938.0,1495.0,,,,0.0347760648164439,-1.98121339492602,0.0728893474598804,,3.5072969917915953,,
,4361.0,853.0,4125.0,961.0,2253.0,2912.0,1513.0,,,,0.0348859594524599,-1.98145882981558,0.0727832067297216,,3.618102652371172,,
,4359.0,850.0,4120.0,962.0,2245.0,2911.0,1502.0,,,,0.034870681263309,-1.98091026960496,0.0729463015288747,,3.639732037706797,,
,4360.0,851.0,4124.0,962.0,2263.0,2913.0,1505.0,,,,0.0349148291878401,-1.98128566064839,0.0729342567296912,,3.571121275660408,,
,4361.0,852.0,4125.0,963.0,2289.0,2905.0,1498.0,,,,0.0348926733244671,-1.98139234528145,0.0727965049910748,,3.41460380419782,,
,4362.0,853.0,4123.0,962.0,2275.0,2921.0,1499.0,,,,0.0348643176762221,-1.98097075147574,0.0728848448367149,,3.1758057400050927,,
,4359.0,851.0,4122.0,962.0,2251.0,2928.0,1506.0,,,,0.0348053601231775,-1.98111709142557,0.0728343078378394,,2.8633176848857236,,
,4358.0,853.0,4123.0,965.0,2245.0,2937.0,1501.0,,,,0.0347934748873825,-1.9808478502648,0.0728909717393665,,2.488166648824927,,
,4360.0,853.0,4126.0,964.0,2265.0,2926.0,1504.0,,,,0.0347595932756818,-1.98099940927381,0.0730037851623383,,2.0631360416796336,,
,4362.0,854.0,4125.0,963.0,2258.0,2918.0,1509.0,,,,0.0347767520672054,-1.98113822158099,0.0728567858336858,,1.6019994368906398,,
,4361.0,854.0,4125.0,963.0,2270.0,2944.0,1518.0,,,,0.0347033353956603,-1.98112283119052,0.072927312276238,,1.1187414136660148,,
,4362.0,853.0,4125.0,963.0,2274.0,2936.0,1516.0,,,,0.0347769191165607,-1.98099994199583,0.0729808781607651,,0.6268355238453049,,
,4363.0,854.0,4129.0,965.0,2263.0,2945.0,1510.0,,,,0.0347560599352705,-1.9808165174994,0.0728674830127811,,0.13863729250976342,,
,4365.0,853.0,4130.0,966.0,2256.0,2954.0,1505.0,,,,0.0347962656307363,-1.98115634857301,0.0728601137457602,,-0.3350675111659317,,
,4364.0,854.0,4129.0,966.0,2234.0,2944.0,1511.0,,,,0.0348492956530024,-1.98084567235532,0.0728950128798179,,-0.7853389456602143,,
,4365.0,855.0,4125.0,962.0,2245.0,2961.0,1517.0,,,,0.0348327007179696,-1.98106422362844,0.0730090162675276,,-1.2051822197201993,,
,4365.0,853.0,4128.0,965.0,2242.0,2957.0,1520.0,,,,0.0347714643479882,-1.98047193636089,0.0728884651525799,,-1.58948588592939,,
,4365.0,852.0,4131.0,964.0,2276.0,2938.0,1520.0,,,,0.0348153718097662,-1.98044927912657,0.0729972845874196,,-1.9348272514654405,,
,4370.0,855.0,4130.0,965.0,2277.0,2936.0,1525.0,,,,0.0349414511884856,-1.98040936432039,0.0729977247851071,,-2.239181372009262,,
,4368.0,855.0,4132.0,965.0,2240.0,2945.0,1519.0,,,,0.0349102720606652,-1.97947943997843,0.0730324621478541,,-2.5015734194601364,,
,4369.0,852.0,4131.0,966.0,2256.0,2944.0,1525.0,,,,0.0349444431492346,-1.97969729840106,0.0730705906649913,,-2.721713900704372,,
,4370.0,854.0,4134.0,967.0,2249.0,2948.0,1540.0,,,,0.0349434847883839,-1.97948640852091,0.0730025283583423,,-2.8996532056308966,,
