TimeLabel,MEAS1_PPG1,MEAS1_PPG2,MEAS1_PPG3,MEAS1_PPG4,ACCX,ACCY,ACCZ,HR_timestamp,HR_value,radar_timestamp,phase_rx0,phase_rx1,phase_rx2,timestep,n_process,original_rate,calculated_rate
2025-07-15 22:33:08,9075.0,1339.0,7067.0,2064.0,2234.0,3272.0,351.0,2025-07-15 22:33:08,90.0,2025/07/15 10:33:08 PM,-0.938159587937666,-2.95785265026885,-1.17679552001538,2025/07/15 10:33:08 PM,-11.237278047646942,10.46755027770996,9.8
,9079.0,1341.0,7071.0,2064.0,2249.0,3273.0,388.0,2025-07-15 22:33:09,90.0,,-0.938435255609234,-2.95776147451115,-1.17625683245393,2025/07/15 10:33:18 PM,-11.220005723305531,9.836065292358398,10.870634530250861
,9080.0,1342.0,7073.0,2066.0,2246.0,3265.0,393.0,2025-07-15 22:33:10,89.0,,-0.938686890507943,-2.95772210292643,-1.17540844116048,2025/07/15 10:33:28 PM,-11.173541929027904,10.535557746887209,8.82352941176471
,9084.0,1339.0,7077.0,2066.0,2216.0,3247.0,379.0,2025-07-15 22:33:11,88.0,,-0.939450229705086,-2.95784028189894,-1.1759399653424,2025/07/15 10:33:38 PM,-11.100609098319472,10.217983245849608,8.637116818558406
,9090.0,1342.0,7078.0,2067.0,2237.0,3241.0,385.0,2025-07-15 22:33:12,88.0,,-0.939706808972544,-2.95785754171308,-1.17587728492444,2025/07/15 10:33:48 PM,-11.005102755317845,9.740259170532225,9.090909090909099
,9093.0,1342.0,7081.0,2070.0,2224.0,3263.0,382.0,2025-07-15 22:33:13,87.0,,-0.939929568012532,-2.9578045582981,-1.17537481348019,2025/07/15 10:33:58 PM,-10.892043394022153,8.817046165466307,8.963210702341133
,9099.0,1344.0,7083.0,2069.0,2228.0,3273.0,380.0,2025-07-15 22:33:14,86.0,,-0.940096587807324,-2.95780073858675,-1.1743670487934,2025/07/15 10:34:08 PM,-10.76745471885446,9.029345512390137,10.810810810810816
,9103.0,1340.0,7089.0,2072.0,2228.0,3244.0,393.0,2025-07-15 22:33:15,86.0,,-0.940087383386647,-2.95786639620573,-1.17572730716293,2025/07/15 10:34:18 PM,-10.638163885783312,9.411764144897461,9.966914805624485
,9102.0,1343.0,7088.0,2073.0,2231.0,3249.0,397.0,2025-07-15 22:33:16,85.0,,-0.9399643776182,-2.95773105056964,-1.17581974980695,2025/07/15 10:34:28 PM,-10.511521419620335,10.006670951843262,10.092905405405403
,9107.0,1343.0,7090.0,2076.0,2235.0,3240.0,397.0,2025-07-15 22:33:17,85.0,,-0.939903173783603,-2.95766106914163,-1.175664613093,2025/07/15 10:34:38 PM,-10.395042248229515,10.37165069580078,11.538461538461533
,9110.0,1346.0,7093.0,2076.0,2240.0,3255.0,408.0,2025-07-15 22:33:18,85.0,,-0.940383990525941,-2.95771596979252,-1.17530233963513,2025/07/15 10:34:48 PM,-10.295975399215576,10.204081535339355,9.790301441677585
,9116.0,1343.0,7096.0,2076.0,2220.0,3266.0,420.0,2025-07-15 22:33:19,85.0,,-0.939698005315295,-2.95785091822495,-1.17493305011148,2025/07/15 10:34:58 PM,-10.220818007716494,10.323468208312988,9.677419354838705
,9118.0,1344.0,7096.0,2077.0,2207.0,3247.0,401.0,2025-07-15 22:33:20,85.0,,-0.940256118768402,-2.95781687819323,-1.17438363669138,2025/07/15 10:35:08 PM,-10.174798004493777,10.118043899536133,9.090909090909099
,9120.0,1344.0,7098.0,2077.0,2204.0,3237.0,387.0,2025-07-15 22:33:21,86.0,,-0.940792690734253,-2.95779034372955,-1.1742778081767,2025/07/15 10:35:18 PM,-10.161357257118835,9.230769157409668,9.596023958200597
,9121.0,1344.0,7094.0,2079.0,2194.0,3267.0,386.0,2025-07-15 22:33:22,85.0,,-0.941270815005652,-2.95775760763097,-1.17444346252297,2025/07/15 10:35:28 PM,-10.181671594454507,9.661835670471191,8.633093525179834
,9122.0,1344.0,7097.0,2077.0,2202.0,3279.0,383.0,2025-07-15 22:33:23,85.0,,-0.942078554246689,-2.95761244424012,-1.17355711025166,2025/07/15 10:35:38 PM,-10.234246012760284,9.216589927673342,10.135708227311287
,9119.0,1342.0,7091.0,2075.0,2199.0,3265.0,364.0,2025-07-15 22:33:24,86.0,,-0.942706914695457,-2.95765699270498,-1.17351197204261,2025/07/15 10:35:48 PM,-10.31462358690678,10.006670951843262,9.302325581395325
,9118.0,1343.0,7090.0,2072.0,2200.0,3281.0,393.0,2025-07-15 22:33:25,86.0,,-0.943795950553199,-2.95766042556684,-1.17337501446284,2025/07/15 10:35:58 PM,-10.415246135454863,9.419152259826658,9.565548780487818
,9114.0,1342.0,7088.0,2072.0,2202.0,3253.0,402.0,2025-07-15 22:33:26,87.0,,-0.94438998219817,-2.95772900935041,-1.17247680990266,,-10.525502739423427,,
,9109.0,1343.0,7084.0,2069.0,2208.0,3256.0,408.0,2025-07-15 22:33:27,87.0,,-0.944958376423894,-2.95774295210407,-1.17143285794786,,-10.631996228909548,,
,9100.0,1337.0,7074.0,2063.0,2200.0,3270.0,382.0,2025-07-15 22:33:28,87.0,,-0.945577190993856,-2.95772853012074,-1.17036078689766,,-10.719045080858681,,
,9098.0,1340.0,7072.0,2065.0,2214.0,3269.0,401.0,2025-07-15 22:33:29,86.0,,-0.946339627562291,-2.95758161138414,-1.17004524370375,,-10.76941804750491,,
,9088.0,1337.0,7065.0,2062.0,2198.0,3262.0,409.0,2025-07-15 22:33:30,86.0,,-0.947579527643661,-2.95760136923298,-1.1689086712969,,-10.765273042752488,,
,9075.0,1336.0,7059.0,2057.0,2196.0,3257.0,420.0,2025-07-15 22:33:31,86.0,,-0.947751018458129,-2.95749199831531,-1.16943817974736,,-10.689244032444533,,
,9066.0,1336.0,7050.0,2052.0,2217.0,3255.0,406.0,2025-07-15 22:33:32,86.0,,-0.948210555823838,-2.95743395667265,-1.16899551277518,,-10.525594374529708,,
,9059.0,1333.0,7046.0,2051.0,2225.0,3245.0,413.0,2025-07-15 22:33:33,86.0,,-0.948128908387612,-2.9574891499294,-1.16828698617667,,-10.261336581602936,,
,9052.0,1333.0,7039.0,2049.0,2221.0,3240.0,393.0,2025-07-15 22:33:34,85.0,,-0.947745777710066,-2.95749220002339,-1.16819668994271,,-9.887210477189644,,
,9044.0,1336.0,7036.0,2047.0,2220.0,3240.0,377.0,2025-07-15 22:33:35,85.0,,-0.947903514897117,-2.95749456972963,-1.1684849278657,,-9.39841680118273,,
,9042.0,1337.0,7031.0,2044.0,2219.0,3235.0,368.0,2025-07-15 22:33:36,86.0,,-0.947329323186872,-2.9574803422158,-1.16916254076784,,-8.795022732754665,,
,9037.0,1336.0,7030.0,2044.0,2225.0,3237.0,375.0,2025-07-15 22:33:37,86.0,,-0.947079889186272,-2.95752420166452,-1.16873621046622,,-8.08198883183185,,
,9038.0,1335.0,7030.0,2044.0,2220.0,3257.0,393.0,2025-07-15 22:33:38,87.0,,-0.946808413427854,-2.95752321635965,-1.1694085475319,,-7.268810079444201,,
,9034.0,1335.0,7029.0,2043.0,2221.0,3258.0,399.0,2025-07-15 22:33:39,88.0,,-0.946165758878405,-2.95749988043101,-1.17059603052854,,-6.368810337454158,,
,9032.0,1335.0,7029.0,2042.0,2218.0,3258.0,341.0,2025-07-15 22:33:40,87.0,,-0.945714399437165,-2.95754025348417,-1.17023547421744,,-5.39817074042032,,
,9028.0,1332.0,7029.0,2041.0,2227.0,3261.0,357.0,2025-07-15 22:33:41,86.0,,-0.94624413859843,-2.95755515372689,-1.17101523515236,,-4.374800076623815,,
,9030.0,1332.0,7032.0,2043.0,2221.0,3256.0,378.0,2025-07-15 22:33:42,86.0,,-0.946235478130609,-2.95761317648927,-1.17193403554198,,-3.3171650334448968,,
,9030.0,1332.0,7032.0,2042.0,2235.0,3258.0,363.0,2025-07-15 22:33:43,86.0,,-0.946517571022959,-2.95773531461383,-1.17203697802892,,-2.2431914484273996,,
,9031.0,1336.0,7036.0,2045.0,2248.0,3265.0,374.0,2025-07-15 22:33:44,86.0,,-0.946624804805407,-2.9576824628815,-1.17260653286807,,-1.1693288289943744,,
,9030.0,1335.0,7034.0,2044.0,2244.0,3261.0,386.0,2025-07-15 22:33:45,86.0,,-0.94769513461399,-2.95771714865216,-1.17297550140651,,-0.10984414385425117,,
,9031.0,1336.0,7036.0,2046.0,2232.0,3256.0,366.0,2025-07-15 22:33:46,85.0,,-0.947847354642771,-2.95761284712008,-1.17212263072443,,0.9236189814238867,,
,9035.0,1333.0,7041.0,2047.0,2220.0,3258.0,369.0,2025-07-15 22:33:47,85.0,,-0.94811972153449,-2.95763226772771,-1.17181640125078,,1.9222101307852264,,
,9038.0,1336.0,7040.0,2047.0,2216.0,3259.0,375.0,2025-07-15 22:33:48,86.0,,-0.94864856912796,-2.95764892004443,-1.17007847370449,,2.8797944629539773,,
,9037.0,1337.0,7041.0,2046.0,2238.0,3250.0,379.0,2025-07-15 22:33:49,86.0,,-0.950331538300818,-2.95758728690924,-1.17001777384178,,3.7926762103903253,,
,9040.0,1337.0,7045.0,2048.0,2232.0,3248.0,387.0,2025-07-15 22:33:50,87.0,,-0.950939827990248,-2.95760032552206,-1.16769571698365,,4.659190946409566,,
,9043.0,1336.0,7048.0,2051.0,2217.0,3259.0,367.0,2025-07-15 22:33:51,88.0,,-0.951671126817827,-2.95756144923574,-1.1671077556167,,5.479244139798558,,
,9044.0,1335.0,7048.0,2049.0,2230.0,3253.0,376.0,2025-07-15 22:33:52,87.0,,-0.952852031410087,-2.95746633038618,-1.16583171624677,,6.253871718424955,,
,9046.0,1337.0,7050.0,2050.0,2232.0,3243.0,400.0,2025-07-15 22:33:53,87.0,,-0.952548564100566,-2.95738134193696,-1.16501747172088,,6.984884307552095,,
,9050.0,1337.0,7052.0,2054.0,2222.0,3250.0,389.0,2025-07-15 22:33:54,86.0,,-0.952904854623571,-2.95730077850477,-1.16486893472988,,7.67463299380595,,
,9053.0,1340.0,7055.0,2054.0,2234.0,3254.0,370.0,2025-07-15 22:33:55,86.0,,-0.953515411120977,-2.95724486155202,-1.16462359834179,,8.325905890516513,,
,9054.0,1338.0,7055.0,2053.0,2235.0,3247.0,371.0,2025-07-15 22:33:56,86.0,,-0.953254305466489,-2.95732344185786,-1.16392398421898,,8.941937052353083,,
,9051.0,1334.0,7054.0,2052.0,2211.0,3245.0,411.0,2025-07-15 22:33:57,86.0,,-0.952944056976551,-2.95720194147624,-1.16338561914812,,9.52648686314803,,
,9059.0,1338.0,7058.0,2053.0,2214.0,3255.0,390.0,2025-07-15 22:33:58,85.0,,-0.952597476231091,-2.95730699247678,-1.16327776803724,,10.083938635347149,,
,9059.0,1337.0,7058.0,2055.0,2182.0,3261.0,384.0,2025-07-15 22:33:59,85.0,,-0.952561233669683,-2.95725611822678,-1.16299452750994,,10.619351197418254,,
,9057.0,1339.0,7059.0,2055.0,2192.0,3254.0,380.0,2025-07-15 22:34:00,86.0,,-0.951717888967691,-2.9573201313673,-1.16367782137733,,11.138412176232848,,
,9056.0,1338.0,7058.0,2056.0,2210.0,3243.0,393.0,2025-07-15 22:34:01,86.0,,-0.951207956667211,-2.95725743805175,-1.16441981889475,,11.647251141675454,,
,9060.0,1337.0,7061.0,2057.0,2206.0,3226.0,392.0,2025-07-15 22:34:02,86.0,,-0.949700905413071,-2.95716405296327,-1.16489530161195,,12.15209441119199,,
,9059.0,1339.0,7059.0,2058.0,2206.0,3243.0,405.0,2025-07-15 22:34:03,87.0,,-0.948878689162958,-2.95731028644723,-1.16458249171918,,12.65877145341788,,
,9061.0,1339.0,7060.0,2056.0,2229.0,3263.0,405.0,2025-07-15 22:34:04,87.0,,-0.94759084617496,-2.95726686963039,-1.16500216322447,,13.172112273360218,,
,9060.0,1338.0,7063.0,2057.0,2233.0,3274.0,403.0,2025-07-15 22:34:05,86.0,,-0.947064403817704,-2.95720461101414,-1.16516535756994,,13.695300576144598,,
,9059.0,1338.0,7062.0,2055.0,2223.0,3269.0,416.0,2025-07-15 22:34:06,86.0,,-0.945702769119026,-2.95721431326346,-1.16432220789395,,14.22926391108217,,
,9063.0,1340.0,7063.0,2058.0,2229.0,3270.0,397.0,2025-07-15 22:34:07,86.0,,-0.946155117236384,-2.95713091175388,-1.16520984225041,,14.772186406823435,,
,9062.0,1338.0,7064.0,2057.0,2213.0,3268.0,377.0,2025-07-15 22:34:08,86.0,,-0.944781382915663,-2.95711066248404,-1.16452049211711,,15.319221579289726,,
,9063.0,1339.0,7065.0,2056.0,2220.0,3271.0,397.0,2025-07-15 22:34:09,86.0,,-0.945678174997643,-2.95708768288491,-1.16389403665452,,15.862463039354466,,
,9061.0,1339.0,7064.0,2054.0,2224.0,3282.0,401.0,2025-07-15 22:34:10,86.0,,-0.944911675089893,-2.95701188691896,-1.16359291471503,,16.39120144438832,,
,9065.0,1339.0,7065.0,2058.0,2235.0,3261.0,393.0,2025-07-15 22:34:11,87.0,,-0.944765223251525,-2.95693330225796,-1.16212647480601,,16.892459546509155,,
,9066.0,1340.0,7068.0,2057.0,2231.0,3257.0,394.0,2025-07-15 22:34:12,88.0,,-0.945355434450202,-2.95703729852828,-1.16279883611276,,17.351758874146075,,
,9069.0,1339.0,7067.0,2060.0,2244.0,3260.0,382.0,2025-07-15 22:34:13,89.0,,-0.945093402506706,-2.95690635975283,-1.16248437491557,,17.754038949546704,,
,9068.0,1338.0,7067.0,2056.0,2219.0,3244.0,361.0,2025-07-15 22:34:14,89.0,,-0.944595753739364,-2.95707103154597,-1.16268073034118,,18.08463040597439,,
,9072.0,1340.0,7072.0,2058.0,2238.0,3271.0,351.0,2025-07-15 22:34:15,89.0,,-0.944793699582705,-2.95689336635937,-1.16198008769736,,18.330181018508284,,
,9073.0,1340.0,7075.0,2060.0,2236.0,3245.0,363.0,2025-07-15 22:34:16,89.0,,-0.944339927921359,-2.95690738127577,-1.16270958424874,,18.479447652210148,,
,9076.0,1339.0,7075.0,2062.0,2231.0,3240.0,370.0,2025-07-15 22:34:17,88.0,,-0.944613210392109,-2.95702553464417,-1.16240873394434,,18.523892434660777,,
,9076.0,1338.0,7074.0,2060.0,2231.0,3254.0,365.0,2025-07-15 22:34:18,87.0,,-0.945281608021382,-2.95687569993101,-1.16110436405615,,18.458051252433847,,
,9078.0,1342.0,7076.0,2062.0,2207.0,3249.0,369.0,2025-07-15 22:34:19,87.0,,-0.945590298612498,-2.95692199760116,-1.16197246811151,,18.279671014233816,,
,9081.0,1344.0,7083.0,2066.0,2212.0,3256.0,385.0,2025-07-15 22:34:20,87.0,,-0.945350656183167,-2.95685550058137,-1.16069729521261,,17.989635511534292,,
,9085.0,1341.0,7083.0,2063.0,2214.0,3247.0,384.0,2025-07-15 22:34:21,88.0,,-0.944917780816165,-2.95683450084994,-1.15976550884225,,17.591716673054293,,
,9086.0,1342.0,7085.0,2066.0,2215.0,3269.0,392.0,2025-07-15 22:34:22,88.0,,-0.945474046063229,-2.95693171587782,-1.16077376274474,,17.09219773389415,,
,9088.0,1343.0,7086.0,2066.0,2206.0,3248.0,398.0,2025-07-15 22:34:23,88.0,,-0.944912903988444,-2.95674064180694,-1.16002430541448,,16.49941671510456,,
,9090.0,1344.0,7091.0,2069.0,2213.0,3275.0,407.0,2025-07-15 22:34:24,89.0,,-0.944544013929113,-2.95679673343732,-1.15866166455246,,15.82327315440862,,
,9095.0,1344.0,7091.0,2070.0,2221.0,3266.0,419.0,2025-07-15 22:34:25,90.0,,-0.944698169033246,-2.95669997854522,-1.15974491130493,,15.074730597032975,,
,9101.0,1345.0,7097.0,2067.0,2226.0,3275.0,408.0,2025-07-15 22:34:26,91.0,,-0.943795586750473,-2.95669264027039,-1.15889417054976,,14.265335559977757,,
,9105.0,1343.0,7099.0,2071.0,2217.0,3277.0,415.0,2025-07-15 22:34:27,91.0,,-0.943022058426434,-2.95662941377388,-1.15907548590188,,13.406764154323687,,
,9106.0,1345.0,7102.0,2072.0,2204.0,3283.0,390.0,2025-07-15 22:34:28,90.0,,-0.942399873262333,-2.95668430665337,-1.15881665596586,,12.510402792665202,,
,9110.0,1347.0,7105.0,2075.0,2206.0,3276.0,399.0,2025-07-15 22:34:29,89.0,,-0.941555448904389,-2.95667604275179,-1.15868245138271,,11.58696982471846,,
,9113.0,1346.0,7108.0,2073.0,2210.0,3252.0,400.0,2025-07-15 22:34:30,87.0,,-0.941465846947891,-2.95662431014014,-1.15990469460472,,10.646188392123005,,
,9115.0,1347.0,7111.0,2074.0,2216.0,3255.0,374.0,2025-07-15 22:34:31,86.0,,-0.940711607157598,-2.95657365400088,-1.16000409766653,,9.696523611872056,,
,9121.0,1347.0,7114.0,2079.0,2219.0,3243.0,376.0,2025-07-15 22:34:32,87.0,,-0.940493097710953,-2.9566556549115,-1.15956924883369,,8.744996594159451,,
,9122.0,1351.0,7118.0,2080.0,2229.0,3233.0,380.0,2025-07-15 22:34:33,88.0,,-0.940479561232912,-2.95674862544277,-1.15959071626821,,7.79708359256795,,
,9128.0,1349.0,7121.0,2082.0,2241.0,3237.0,388.0,2025-07-15 22:34:34,88.0,,-0.940412087301586,-2.95663433472374,-1.15970489549274,,6.85670262566596,,
,9133.0,1351.0,7123.0,2080.0,2224.0,3236.0,394.0,2025-07-15 22:34:35,89.0,,-0.940656357087476,-2.95661353693202,-1.15945297048905,,5.926284249807746,,
,9134.0,1349.0,7124.0,2083.0,2231.0,3275.0,416.0,2025-07-15 22:34:36,88.0,,-0.941061445331952,-2.95673165576051,-1.1594484830744,,5.00691903195391,,
,9140.0,1351.0,7130.0,2084.0,2238.0,3264.0,402.0,2025-07-15 22:34:37,88.0,,-0.941086698455529,-2.9566332675756,-1.15973664948804,,4.098572025844729,,
,9141.0,1352.0,7129.0,2084.0,2240.0,3259.0,402.0,2025-07-15 22:34:38,88.0,,-0.941328454192463,-2.95666802723924,-1.15882789100411,,3.2003535501381335,,
,9144.0,1352.0,7131.0,2085.0,2214.0,3266.0,406.0,2025-07-15 22:34:39,89.0,,-0.941980596759604,-2.9566067741753,-1.15845466128362,,2.310834185805859,,
,9149.0,1352.0,7135.0,2087.0,2216.0,3269.0,402.0,2025-07-15 22:34:40,90.0,,-0.942769008689734,-2.95663571152668,-1.15717052191799,,1.4283887315328083,,
,9154.0,1352.0,7139.0,2087.0,2231.0,3278.0,409.0,2025-07-15 22:34:41,90.0,,-0.943070715793954,-2.95668688577958,-1.15741586122211,,0.5515492683818721,,
,9157.0,1355.0,7140.0,2091.0,2227.0,3273.0,415.0,2025-07-15 22:34:42,90.0,,-0.943649925888728,-2.95652950471713,-1.15657454975745,,-0.320656250393951,,
,9161.0,1351.0,7142.0,2089.0,2246.0,3250.0,429.0,2025-07-15 22:34:43,90.0,,-0.943922396631631,-2.95655106377516,-1.15553981494111,,-1.1884042113697884,,
,9167.0,1352.0,7142.0,2094.0,2229.0,3242.0,416.0,2025-07-15 22:34:44,89.0,,-0.944415732761344,-2.95648968327702,-1.15534893612554,,-2.0508364902407568,,
,9169.0,1352.0,7149.0,2094.0,2232.0,3224.0,409.0,2025-07-15 22:34:45,88.0,,-0.94464239818035,-2.95646503768628,-1.15456865568088,,-2.9059015608824437,,
,9172.0,1354.0,7150.0,2091.0,2249.0,3229.0,402.0,2025-07-15 22:34:46,88.0,,-0.945094633842079,-2.95638855419915,-1.15417990689555,,-3.7502920597709988,,
,9176.0,1354.0,7151.0,2094.0,2250.0,3240.0,394.0,2025-07-15 22:34:47,88.0,,-0.944576569126996,-2.95641588638364,-1.15318045376312,,-4.57949251694978,,
,9184.0,1354.0,7154.0,2099.0,2228.0,3242.0,382.0,2025-07-15 22:34:48,88.0,,-0.944947471016755,-2.95649521545375,-1.15294171899934,,-5.387945506401041,,
,9185.0,1355.0,7159.0,2096.0,2239.0,3241.0,381.0,2025-07-15 22:34:49,88.0,,-0.945004005240421,-2.95640125386395,-1.15234624742523,,-6.169334585153704,,
,9189.0,1352.0,7161.0,2098.0,2244.0,3241.0,374.0,2025-07-15 22:34:50,87.0,,-0.944911571778413,-2.95650308690116,-1.15212055125101,,-6.916968511817846,,
,9192.0,1353.0,7161.0,2097.0,2227.0,3240.0,350.0,2025-07-15 22:34:51,87.0,,-0.945264764312325,-2.95644520952766,-1.15187331935109,,-7.624236078059288,,
,9196.0,1353.0,7166.0,2100.0,2214.0,3234.0,376.0,2025-07-15 22:34:52,87.0,,-0.944892230553255,-2.95621425881177,-1.15266314939321,,-8.285088510932482,,
,9200.0,1354.0,7167.0,2101.0,2258.0,3252.0,373.0,2025-07-15 22:34:53,87.0,,-0.94407783970347,-2.95634927915619,-1.15296596384203,,-8.894500509854737,,
,9204.0,1359.0,7168.0,2100.0,2244.0,3256.0,369.0,2025-07-15 22:34:54,86.0,,-0.94422536544346,-2.95630690037471,-1.15279701384259,,-9.448863004550082,,
,9202.0,1355.0,7169.0,2102.0,2235.0,3241.0,355.0,2025-07-15 22:34:55,86.0,,-0.943643880937265,-2.95634976711716,-1.15354749587368,,-9.946269096305166,,
,9204.0,1353.0,7168.0,2101.0,2257.0,3262.0,383.0,2025-07-15 22:34:56,85.0,,-0.943307595298268,-2.95638828618954,-1.15327585977337,,-10.38666621459123,,
,9205.0,1352.0,7170.0,2103.0,2241.0,3257.0,379.0,2025-07-15 22:34:57,85.0,,-0.942856930868474,-2.95627680776959,-1.1540878739595,,-10.771859987027552,,
,9203.0,1355.0,7165.0,2101.0,2224.0,3263.0,403.0,2025-07-15 22:34:58,85.0,,-0.942746541665681,-2.95626158648461,-1.1540352025012,,-11.105368402001817,,
,9202.0,1354.0,7164.0,2100.0,2220.0,3253.0,399.0,2025-07-15 22:34:59,85.0,,-0.942663524012259,-2.95631567508682,-1.15408482985623,,-11.392139025728408,,
,9197.0,1350.0,7158.0,2096.0,2208.0,3246.0,382.0,2025-07-15 22:35:00,85.0,,-0.942546986640241,-2.95626217230819,-1.153140312263,,-11.638156446486269,,
,9191.0,1352.0,7154.0,2095.0,2214.0,3238.0,368.0,2025-07-15 22:35:01,85.0,,-0.943059603445862,-2.95626515486064,-1.15318913302183,,-11.849979106675537,,
,9188.0,1348.0,7150.0,2091.0,2209.0,3236.0,401.0,2025-07-15 22:35:02,85.0,,-0.942430830763351,-2.95633010279721,-1.15335391137497,,-12.034251524215495,,
,9179.0,1346.0,7144.0,2089.0,2206.0,3248.0,390.0,2025-07-15 22:35:03,85.0,,-0.942402700440553,-2.95627064336516,-1.15269854882114,,-12.197238475555437,,
,9171.0,1347.0,7139.0,2086.0,2216.0,3272.0,424.0,2025-07-15 22:35:04,85.0,,-0.942694169588668,-2.95634837200131,-1.1530818646005,,-12.344422580401062,,
,9164.0,1348.0,7135.0,2086.0,2208.0,3281.0,435.0,2025-07-15 22:35:05,86.0,,-0.942460225827331,-2.9563494059529,-1.15313921446325,,-12.480197335313743,,
,9159.0,1345.0,7128.0,2084.0,2204.0,3269.0,427.0,2025-07-15 22:35:06,86.0,,-0.941866771591275,-2.95634292433873,-1.15269987878267,,-12.607675695201314,,
,9152.0,1349.0,7124.0,2081.0,2194.0,3278.0,430.0,2025-07-15 22:35:07,86.0,,-0.942028272167374,-2.95627167798522,-1.1535253815408,,-12.728621481370594,,
,9142.0,1345.0,7117.0,2077.0,2184.0,3269.0,437.0,2025-07-15 22:35:08,86.0,,-0.941633451661766,-2.95631983574234,-1.15429901276998,,-12.843498574564414,,
,9140.0,1344.0,7115.0,2079.0,2195.0,3243.0,429.0,2025-07-15 22:35:09,86.0,,-0.941390197177977,-2.95637274964722,-1.15394514538979,,-12.951621826593954,,
,9134.0,1346.0,7113.0,2077.0,2202.0,3241.0,435.0,2025-07-15 22:35:10,86.0,,-0.941490183410764,-2.9564098635358,-1.15496630621474,,-13.051384242566158,,
,9132.0,1347.0,7113.0,2075.0,2200.0,3230.0,428.0,2025-07-15 22:35:11,86.0,,-0.940807803247275,-2.9565028159677,-1.15517105714434,,-13.140527779817635,,
,9130.0,1344.0,7114.0,2075.0,2199.0,3233.0,409.0,2025-07-15 22:35:12,85.0,,-0.94106375458207,-2.95645682925931,-1.1560143806806,,-13.216421336589436,,
,9129.0,1344.0,7112.0,2073.0,2216.0,3237.0,410.0,2025-07-15 22:35:13,85.0,,-0.941558720411863,-2.95640005585327,-1.15548031453837,,-13.276310768425974,,
,9130.0,1348.0,7112.0,2073.0,2229.0,3232.0,385.0,2025-07-15 22:35:14,84.0,,-0.941458079226199,-2.95639734666192,-1.15648845999656,,-13.31751274351972,,
,9128.0,1346.0,7113.0,2073.0,2233.0,3243.0,377.0,2025-07-15 22:35:15,84.0,,-0.941275292039493,-2.95658856399624,-1.15620761957188,,-13.337535656345382,,
2025-07-15 22:33:09,9132.0,1346.0,7119.0,2074.0,2215.0,3229.0,361.0,2025-07-15 22:35:16,84.0,2025/07/15 10:33:09 PM,-0.942291671774574,-2.95652433059358,-1.15741208880849,,-13.334123869071217,,
,9132.0,1347.0,7117.0,2074.0,2228.0,3235.0,362.0,2025-07-15 22:35:17,85.0,,-0.942301107284545,-2.95664790001647,-1.15703870403465,,-13.30523342988786,,
,9134.0,1348.0,7120.0,2076.0,2229.0,3254.0,328.0,2025-07-15 22:35:18,85.0,,-0.942461430505003,-2.95657475906197,-1.15659729699196,,-13.248956404600472,,
,9136.0,1346.0,7126.0,2077.0,2235.0,3256.0,309.0,2025-07-15 22:35:19,85.0,,-0.943046661505793,-2.95658356651304,-1.15765743230141,,-13.163416459958695,,
,9134.0,1349.0,7128.0,2075.0,2250.0,3266.0,318.0,2025-07-15 22:35:20,85.0,,-0.943929764260116,-2.95663807621372,-1.15698542915806,,-13.046660449681363,,
,9141.0,1350.0,7129.0,2075.0,2232.0,3252.0,328.0,2025-07-15 22:35:21,85.0,,-0.944089855355264,-2.95662250285334,-1.15642844952645,,-12.89656991039665,,
,9143.0,1349.0,7133.0,2078.0,2240.0,3274.0,313.0,2025-07-15 22:35:22,85.0,,-0.944123158065554,-2.95651634910319,-1.1553957640137,,-12.710813052034835,,
,9145.0,1348.0,7135.0,2080.0,2245.0,3287.0,334.0,2025-07-15 22:35:23,86.0,,-0.94463963527474,-2.9566014341657,-1.15513163922061,,-12.486852313158353,,
,9148.0,1349.0,7140.0,2081.0,2254.0,3280.0,337.0,2025-07-15 22:35:24,86.0,,-0.944645086242546,-2.956580708094,-1.15457385336843,,-12.222015028747862,,
,9150.0,1350.0,7140.0,2082.0,2254.0,3264.0,358.0,2025-07-15 22:35:25,87.0,,-0.945759438722614,-2.95651198424164,-1.15347061683198,,-11.913625739333755,,
,9151.0,1350.0,7144.0,2082.0,2256.0,3273.0,351.0,2025-07-15 22:35:26,88.0,,-0.946480231212722,-2.9565191694547,-1.15369822221874,,-11.55918944822956,,
,9154.0,1349.0,7144.0,2084.0,2237.0,3262.0,373.0,2025-07-15 22:35:27,88.0,,-0.947607274635139,-2.95649704528039,-1.15250338030259,,-11.156607731864511,,
,9157.0,1351.0,7147.0,2085.0,2224.0,3252.0,377.0,2025-07-15 22:35:28,89.0,,-0.947488842002519,-2.95641207450032,-1.15212351254307,,-10.704405844690756,,
,9157.0,1350.0,7149.0,2085.0,2212.0,3254.0,376.0,2025-07-15 22:35:29,90.0,,-0.948093631643191,-2.9563816749296,-1.15166439522845,,-10.201949082035021,,
,9158.0,1349.0,7152.0,2086.0,2223.0,3256.0,392.0,2025-07-15 22:35:30,89.0,,-0.948250893490405,-2.95634853412924,-1.15129064978078,,-9.649629041856532,,
,9162.0,1353.0,7151.0,2088.0,2232.0,3233.0,403.0,2025-07-15 22:35:31,89.0,,-0.948208986298695,-2.9563604252306,-1.15088824732163,,-9.049002970818417,,
,9165.0,1351.0,7153.0,2088.0,2230.0,3230.0,402.0,2025-07-15 22:35:32,90.0,,-0.94830510525312,-2.95633613429891,-1.15075287345877,,-8.402871241195799,,
,9164.0,1350.0,7154.0,2087.0,2212.0,3241.0,401.0,2025-07-15 22:35:33,90.0,,-0.94785336775565,-2.95637281281526,-1.1507141263017,,-7.71527992588912,,
,9165.0,1349.0,7154.0,2088.0,2223.0,3239.0,428.0,2025-07-15 22:35:34,90.0,,-0.947606102018388,-2.95636841533388,-1.1512036218271,,-6.991438956790509,,
,9166.0,1349.0,7155.0,2090.0,2220.0,3237.0,409.0,2025-07-15 22:35:35,90.0,,-0.947351049747858,-2.95636263900649,-1.1508453341141,,-6.237552833897013,,
,9168.0,1351.0,7155.0,2089.0,2219.0,3235.0,414.0,2025-07-15 22:35:36,89.0,,-0.947339991746928,-2.9563911864688,-1.15104812830212,,-5.460570642597475,,
,9169.0,1349.0,7153.0,2087.0,2208.0,3237.0,436.0,2025-07-15 22:35:37,89.0,,-0.94706960072175,-2.95637167502639,-1.15061656547999,,-4.667873822285945,,
,9168.0,1349.0,7154.0,2086.0,2208.0,3243.0,453.0,2025-07-15 22:35:38,89.0,,-0.947122898080561,-2.95624359375173,-1.15135460791596,,-3.8669304968792444,,
,9172.0,1350.0,7157.0,2088.0,2222.0,3253.0,451.0,2025-07-15 22:35:39,89.0,,-0.9466859647309,-2.9563407477086,-1.15124497368467,,-3.0649504934304064,,
,9171.0,1348.0,7157.0,2089.0,2226.0,3246.0,437.0,2025-07-15 22:35:40,89.0,,-0.947066918438488,-2.9563575249383,-1.1511370135953,,-2.268573411519734,,
,9174.0,1352.0,7159.0,2088.0,2219.0,3257.0,426.0,2025-07-15 22:35:41,90.0,,-0.946638816440106,-2.95625020916594,-1.15139246185247,,-1.48361446901818,,
,9175.0,1349.0,7159.0,2089.0,2208.0,3231.0,440.0,2025-07-15 22:35:42,90.0,,-0.946216457270592,-2.95629056561766,-1.14976514668553,,-0.714883006756911,,
,9175.0,1351.0,7164.0,2088.0,2219.0,3240.0,429.0,2025-07-15 22:35:43,90.0,,-0.946608121863727,-2.95626139545625,-1.15116879049623,,0.033920007468080056,,
,9177.0,1354.0,7164.0,2090.0,2223.0,3244.0,432.0,2025-07-15 22:35:44,91.0,,-0.946397461208016,-2.95636954720779,-1.1504020276569,,0.7602250626834469,,
,9177.0,1352.0,7168.0,2089.0,2213.0,3248.0,415.0,2025-07-15 22:35:45,92.0,,-0.946639666474343,-2.95633918336947,-1.1502631959403,,1.462541411356651,,
,9179.0,1353.0,7169.0,2090.0,2239.0,3246.0,398.0,2025-07-15 22:35:46,93.0,,-0.946727022064054,-2.95635545456875,-1.14985819643393,,2.140335746027978,,
,9182.0,1351.0,7173.0,2090.0,2227.0,3225.0,415.0,2025-07-15 22:35:47,94.0,,-0.947200377933101,-2.9562855669332,-1.15026489803916,,2.793853195675976,,
,9185.0,1351.0,7177.0,2091.0,2246.0,3229.0,408.0,2025-07-15 22:35:48,93.0,,-0.947495067495035,-2.95629029217712,-1.14903054204745,,3.423895701802472,,
,9185.0,1348.0,7180.0,2089.0,2240.0,3227.0,406.0,2025-07-15 22:35:49,92.0,,-0.947766376631557,-2.95634868254354,-1.1494348634257,,4.031576689259338,,
,9186.0,1347.0,7182.0,2091.0,2277.0,3230.0,388.0,2025-07-15 22:35:50,91.0,,-0.947929316291916,-2.95633069924486,-1.14990607171174,,4.618073832769233,,
,9190.0,1351.0,7184.0,2091.0,2283.0,3218.0,378.0,2025-07-15 22:35:51,90.0,,-0.94816710510894,-2.9563007574957,-1.14942980602996,,5.18440321627629,,
,9195.0,1353.0,7190.0,2093.0,2285.0,3259.0,390.0,2025-07-15 22:35:52,89.0,,-0.947791629382785,-2.95611788780789,-1.14937546744875,,5.731238294643583,,
,9193.0,1352.0,7191.0,2094.0,2273.0,3260.0,393.0,2025-07-15 22:35:53,89.0,,-0.946238406868357,-2.95614465966818,-1.14840528233521,,6.258795753601707,,
,9198.0,1351.0,7195.0,2095.0,2264.0,3241.0,362.0,2025-07-15 22:35:54,88.0,,-0.945198751680632,-2.95603840914455,-1.14790751021559,,6.76680678079315,,
,9198.0,1351.0,7202.0,2098.0,2274.0,3242.0,364.0,2025-07-15 22:35:55,87.0,,-0.946259900667655,-2.95618343111924,-1.14819187652181,,7.254584747912016,,
,9203.0,1352.0,7201.0,2098.0,2270.0,3250.0,380.0,2025-07-15 22:35:56,86.0,,-0.946389619317579,-2.95616550336912,-1.14703774892069,,7.721187785946412,,
,9205.0,1353.0,7205.0,2098.0,2267.0,3264.0,377.0,2025-07-15 22:35:57,85.0,,-0.946274681268093,-2.95615136607944,-1.14701861872313,,8.165658592952637,,
,9203.0,1352.0,7208.0,2098.0,2274.0,3241.0,396.0,2025-07-15 22:35:58,85.0,,-0.945798719138327,-2.95607099066212,-1.14658545255387,,8.587308123698907,,
,9208.0,1351.0,7214.0,2101.0,2272.0,3243.0,392.0,2025-07-15 22:35:59,86.0,,-0.945742148653559,-2.9561286333917,-1.14788438950478,,8.985999261598279,,
,9210.0,1355.0,7215.0,2101.0,2259.0,3241.0,378.0,2025-07-15 22:36:00,87.0,,-0.94616365116469,-2.95602898813049,-1.146644022904,,9.362383859594662,,
,9213.0,1354.0,7220.0,2102.0,2251.0,3261.0,371.0,2025-07-15 22:36:01,88.0,,-0.946009550218054,-2.95615434974136,-1.14668596633208,,9.718051354551262,,
,9213.0,1351.0,7221.0,2100.0,2234.0,3260.0,363.0,2025-07-15 22:36:02,87.0,,-0.945683903208629,-2.9561387615444,-1.14738785331247,,10.055557190227464,,
,9217.0,1353.0,7226.0,2104.0,2246.0,3259.0,340.0,2025-07-15 22:36:03,87.0,,-0.944840684415955,-2.95616458597816,-1.14734913600367,,10.378312065515793,,
,9218.0,1355.0,7227.0,2101.0,2237.0,3258.0,364.0,2025-07-15 22:36:04,86.0,,-0.944970827230684,-2.95624751324563,-1.14787664249378,,10.690327276702874,,
,9222.0,1353.0,7231.0,2105.0,2254.0,3244.0,374.0,2025-07-15 22:36:05,86.0,,-0.94530534088432,-2.95607041421061,-1.14848282443825,,10.995827005211234,,
,9224.0,1354.0,7234.0,2106.0,2227.0,3238.0,378.0,2025-07-15 22:36:06,85.0,,-0.944751032559799,-2.95618689946655,-1.14767896464256,,11.298755210700268,,
,9226.0,1353.0,7235.0,2105.0,2226.0,3239.0,355.0,2025-07-15 22:36:07,85.0,,-0.945172431983394,-2.9560713945479,-1.1469595440996,,11.602221545853896,,
,9227.0,1356.0,7239.0,2109.0,2223.0,3253.0,354.0,,,,-0.944924624623872,-2.95606788536787,-1.14739375730993,,11.907944519106602,,
,9233.0,1354.0,7240.0,2109.0,2215.0,3260.0,363.0,,,,-0.944343982829594,-2.95601946950647,-1.14723030604153,,12.215757285049058,,
,9230.0,1354.0,7242.0,2111.0,2221.0,3262.0,373.0,,,,-0.944494069663272,-2.95600231291004,-1.14786817001483,,12.523239302186763,,
,9233.0,1356.0,7246.0,2111.0,2221.0,3258.0,392.0,,,,-0.944578020109232,-2.95601688194055,-1.14705527918697,,12.825525772414395,,
,9240.0,1355.0,7247.0,2112.0,2199.0,3264.0,395.0,,,,-0.944216955648842,-2.95598757166619,-1.14608639684259,,13.115328875874159,,
,9242.0,1357.0,7249.0,2113.0,2221.0,3253.0,383.0,,,,-0.944907358062322,-2.95602782695203,-1.1464335129119,,13.383183478327922,,
,9244.0,1355.0,7251.0,2114.0,2210.0,3245.0,374.0,,,,-0.944328112915022,-2.95609324426851,-1.14660369468273,,13.617907459887205,,
,9243.0,1354.0,7251.0,2112.0,2196.0,3267.0,391.0,,,,-0.943890284779405,-2.95598351630889,-1.14601187570035,,13.807244777396917,,
,9250.0,1357.0,7257.0,2117.0,2203.0,3269.0,409.0,,,,-0.943881077521717,-2.95601638985253,-1.14620280460667,,13.938639765721296,,
,9251.0,1355.0,7257.0,2118.0,2201.0,3294.0,403.0,,,,-0.943589549256855,-2.95599425750159,-1.14544416924726,,14.000076195944121,,
,9257.0,1356.0,7260.0,2119.0,2204.0,3301.0,406.0,,,,-0.943769340262734,-2.95603172332506,-1.14569506639296,,13.980906222534301,,
,9256.0,1355.0,7261.0,2118.0,2195.0,3296.0,411.0,,,,-0.943355183599943,-2.95599165851046,-1.14598149508579,,13.87259406305251,,
,9260.0,1356.0,7264.0,2121.0,2203.0,3270.0,405.0,,,,-0.943650863003454,-2.95588478703636,-1.14625120633853,,13.669307796864535,,
,9265.0,1359.0,7267.0,2122.0,2190.0,3288.0,397.0,,,,-0.943711435110133,-2.95598801273792,-1.14515777862633,,13.368309442739275,,
,9267.0,1357.0,7267.0,2126.0,2184.0,3276.0,400.0,,,,-0.942824388906625,-2.95599775273763,-1.14605212901758,,12.97011604489328,,
,9268.0,1358.0,7268.0,2122.0,2196.0,3273.0,408.0,,,,-0.942626474560889,-2.95599969293225,-1.14654696034697,,12.478428956821952,,
,9271.0,1355.0,7268.0,2124.0,2200.0,3256.0,417.0,,,,-0.942866103795771,-2.95597313858557,-1.14592620770779,,11.899850962243868,,
,9273.0,1358.0,7269.0,2126.0,2175.0,3261.0,427.0,,,,-0.942955168295243,-2.95589767148125,-1.14516001278889,,11.24342894772978,,
,9275.0,1356.0,7273.0,2128.0,2177.0,3255.0,435.0,,,,-0.942406906680342,-2.9559473938336,-1.14544416616168,,10.520072731931887,,
,9275.0,1357.0,7270.0,2126.0,2162.0,3258.0,434.0,,,,-0.942559184088306,-2.95589111128383,-1.14499867646994,,9.741907743047163,,
,9277.0,1355.0,7272.0,2126.0,2176.0,3257.0,444.0,,,,-0.941948429568884,-2.95589168653668,-1.14462741727312,,8.921619397054613,,
,9276.0,1356.0,7268.0,2125.0,2157.0,3280.0,439.0,,,,-0.941654290049318,-2.95592888202283,-1.14634966376378,,8.071839741275392,,
,9271.0,1353.0,7265.0,2120.0,2161.0,3277.0,437.0,,,,-0.940657096935324,-2.9559817542642,-1.14567317697634,,7.204613677430655,,
,9271.0,1354.0,7262.0,2121.0,2165.0,3267.0,422.0,,,,-0.940535878908451,-2.95592116570754,-1.14688951617478,,6.330966250848678,,
,9267.0,1353.0,7255.0,2117.0,2165.0,3257.0,424.0,,,,-0.940652637613807,-2.95589216164538,-1.14632515093356,,5.460577978365775,,
,9264.0,1354.0,7253.0,2117.0,2168.0,3276.0,433.0,,,,-0.94023919249423,-2.95600131320523,-1.1479400412989,,4.601565024606665,,
,9258.0,1351.0,7252.0,2115.0,2171.0,3275.0,437.0,,,,-0.940630721660386,-2.95603199204054,-1.14865474684768,,3.7603565860370285,,
,9253.0,1353.0,7247.0,2113.0,2176.0,3284.0,440.0,,,,-0.940715726606889,-2.95600002636753,-1.14761491931071,,2.9416623120443743,,
,9245.0,1352.0,7242.0,2109.0,2170.0,3259.0,432.0,,,,-0.940944013088755,-2.95609125294234,-1.14906364035944,,2.1485251557131946,,
,9240.0,1352.0,7237.0,2107.0,2175.0,3255.0,423.0,,,,-0.940889565464248,-2.95598284050802,-1.14784939826874,,1.3824561650994192,,
,9234.0,1351.0,7234.0,2105.0,2188.0,3254.0,434.0,,,,-0.940333301157466,-2.95610136451972,-1.14782441262155,,0.6436452653117996,,
,9230.0,1349.0,7231.0,2101.0,2183.0,3234.0,441.0,,,,-0.941026065980725,-2.95607707415114,-1.14742693566372,,-0.06876351724638262,,
,9220.0,1347.0,7230.0,2099.0,2203.0,3258.0,426.0,,,,-0.94170827453973,-2.95601839096794,-1.14873878967471,,-0.7563505608531335,,
,9219.0,1346.0,7231.0,2099.0,2204.0,3268.0,410.0,,,,-0.941644956658955,-2.95598309323255,-1.14831261663787,,-1.4210767495970147,,
,9215.0,1348.0,7230.0,2099.0,2203.0,3274.0,406.0,,,,-0.941381236561711,-2.95600232717561,-1.14736919653608,,-2.0649447796419036,,
,9213.0,1348.0,7231.0,2098.0,2208.0,3270.0,394.0,,,,-0.941900201902985,-2.95603092523418,-1.1473147180951,,-2.689694470007168,,
,9209.0,1347.0,7229.0,2097.0,2201.0,3270.0,358.0,,,,-0.941512273198524,-2.95604686503969,-1.1481641514556,,-3.2965588628524833,,
,9208.0,1346.0,7231.0,2097.0,2211.0,3278.0,365.0,,,,-0.941983125359793,-2.95605976809048,-1.14808835886897,,-3.886102364966609,,
,9210.0,1348.0,7237.0,2096.0,2228.0,3246.0,376.0,,,,-0.942126026973609,-2.95609552630244,-1.14905483629753,,-4.4581535983400356,,
,9208.0,1347.0,7235.0,2097.0,2224.0,3251.0,370.0,,,,-0.942316412330893,-2.95610161114236,-1.14985453183588,,-5.011835067701565,,
,9210.0,1348.0,7238.0,2097.0,2228.0,3283.0,361.0,,,,-0.941779337731274,-2.95611180743975,-1.14991110176032,,-5.545680431727373,,
,9209.0,1350.0,7244.0,2099.0,2240.0,3290.0,365.0,,,,-0.941281104602892,-2.9562405805165,-1.1516167503676,,-6.057819354266247,,
,9209.0,1348.0,7247.0,2100.0,2232.0,3276.0,385.0,,,,-0.941679866469207,-2.95625643575378,-1.15284999901102,,-6.546201298323067,,
,9213.0,1348.0,7249.0,2099.0,2232.0,3270.0,376.0,,,,-0.940408326777441,-2.95628637999136,-1.15266845099868,,-7.008825371603415,,
,9212.0,1346.0,7248.0,2101.0,2244.0,3261.0,381.0,,,,-0.940421218442155,-2.95627723916633,-1.15331115550244,,-7.443945091734121,,
,9213.0,1348.0,7253.0,2101.0,2250.0,3263.0,365.0,,,,-0.941289111111934,-2.95629317581197,-1.15339083950159,,-7.8502244056607315,,
,9219.0,1350.0,7260.0,2101.0,2246.0,3243.0,369.0,,,,-0.941720442949267,-2.95643454723582,-1.15242784350338,,-8.226832016971,,
,9222.0,1352.0,7261.0,2103.0,2239.0,3237.0,364.0,,,,-0.942033707775768,-2.95633402603222,-1.15301857144933,,-8.573471990345794,,
,9225.0,1351.0,7265.0,2106.0,2249.0,3272.0,359.0,,,,-0.942852256532456,-2.95641988838753,-1.15251213939041,,-8.890357662339927,,
,9222.0,1349.0,7268.0,2108.0,2250.0,3243.0,378.0,,,,-0.943301263549764,-2.95628663874979,-1.15191847087754,,-9.178142286363013,,
,9230.0,1352.0,7270.0,2110.0,2238.0,3250.0,392.0,,,,-0.943207163788187,-2.95641574642017,-1.15144043820691,,-9.437823401789784,,
,9230.0,1349.0,7271.0,2110.0,2230.0,3259.0,388.0,,,,-0.943449371824574,-2.95641687189654,-1.15215466205631,,-9.670638714995164,,
,9230.0,1351.0,7274.0,2111.0,2227.0,3255.0,393.0,,,,-0.942903280012856,-2.95635743385275,-1.15157105379974,,-9.877969611438129,,
,9232.0,1348.0,7274.0,2112.0,2228.0,3249.0,392.0,,,,-0.94378903998315,-2.95637000153225,-1.15269056857704,,-10.061264727422992,,
,9234.0,1351.0,7278.0,2112.0,2216.0,3278.0,400.0,,,,-0.943009119833862,-2.95633321563151,-1.15158341453239,,-10.221990702799031,,
,9238.0,1349.0,7280.0,2113.0,2211.0,3268.0,395.0,,,,-0.943062414737662,-2.95634234474039,-1.15253419671359,,-10.36161068237242,,
,9235.0,1351.0,7280.0,2112.0,2210.0,3264.0,382.0,,,,-0.942994004507233,-2.95645419685685,-1.15169207195326,,-10.481584058121982,,
,9239.0,1349.0,7279.0,2112.0,2216.0,3253.0,383.0,,,,-0.942207602029735,-2.95634422845207,-1.15294336372936,,-10.583374877539969,,
,9242.0,1350.0,7279.0,2115.0,2224.0,3262.0,404.0,,,,-0.941882330017324,-2.9562597968797,-1.15362043883113,,-10.668453337335302,,
,9238.0,1350.0,7282.0,2115.0,2221.0,3265.0,418.0,,,,-0.941678631263141,-2.95641046637692,-1.15361656453636,,-10.738276133935715,,
,9241.0,1351.0,7283.0,2113.0,2215.0,3259.0,409.0,,,,-0.940134487096445,-2.95642139580846,-1.15495174366522,,-10.794236615839736,,
,9238.0,1347.0,7281.0,2113.0,2228.0,3249.0,412.0,,,,-0.939657471508976,-2.95648587689609,-1.15515022291926,,-10.837582682225388,,
,9239.0,1351.0,7281.0,2114.0,2226.0,3241.0,420.0,,,,-0.938895423566978,-2.9565655409622,-1.15573908533246,,-10.869307117913857,,
,9241.0,1351.0,7283.0,2115.0,2224.0,3244.0,408.0,,,,-0.938585333167411,-2.9566040133232,-1.15658886052712,,-10.890020335013848,,
,9239.0,1347.0,7280.0,2114.0,2223.0,3240.0,407.0,,,,-0.937595269907111,-2.95646576964282,-1.15775245218326,,-10.899818949235518,,
,9242.0,1349.0,7280.0,2114.0,2227.0,3264.0,398.0,,,,-0.937254053146117,-2.95650241013162,-1.15780099808584,,-10.898165295202858,,
,9242.0,1349.0,7284.0,2113.0,2221.0,3274.0,414.0,,,,-0.936856629444005,-2.95661328112847,-1.15853404350045,,-10.883792991507182,,
,9242.0,1349.0,7285.0,2113.0,2208.0,3252.0,400.0,,,,-0.936925044544294,-2.95659711385395,-1.15825111341303,,-10.85465208118185,,
,9245.0,1350.0,7286.0,2116.0,2209.0,3246.0,400.0,,,,-0.936401561489605,-2.95661880765522,-1.15876004461906,,-10.807904123360236,,
,9243.0,1348.0,7288.0,2114.0,2212.0,3274.0,389.0,,,,-0.93679644025232,-2.95657760218845,-1.15898879132303,,-10.739972906231563,,
,9245.0,1350.0,7288.0,2118.0,2221.0,3267.0,416.0,,,,-0.936632630822386,-2.95660745198953,-1.15932713728296,,-10.64665037548713,,
,9247.0,1349.0,7291.0,2116.0,2223.0,3257.0,409.0,,,,-0.93682576696435,-2.95662148018582,-1.15996465989424,,-10.523250669215823,,
,9246.0,1349.0,7294.0,2115.0,2218.0,3261.0,396.0,,,,-0.936425769254159,-2.9565306943319,-1.15873533715789,,-10.364799377515277,,
,9246.0,1348.0,7290.0,2115.0,2221.0,3272.0,375.0,,,,-0.936287097543805,-2.95675842236934,-1.15992000268018,,-10.166242234867907,,
,9250.0,1349.0,7295.0,2118.0,2221.0,3272.0,391.0,,,,-0.936140649709838,-2.95665321509773,-1.16042115216514,,-9.922658478928655,,
,9251.0,1351.0,7297.0,2118.0,2217.0,3282.0,377.0,,,,-0.936476882834817,-2.9566465943197,-1.16093597477816,,-9.629468245237858,,
2025-07-15 22:33:10,9256.0,1353.0,7297.0,2119.0,2216.0,3275.0,370.0,,,2025/07/15 10:33:10 PM,-0.936349883370385,-2.95672593925339,-1.16102344108341,,-9.282628236487815,,
,9254.0,1350.0,7300.0,2120.0,2215.0,3273.0,377.0,,,,-0.936210766868728,-2.95657244506766,-1.16106321505831,,-8.878813129027524,,
,9256.0,1351.0,7301.0,2118.0,2202.0,3248.0,388.0,,,,-0.936605819154829,-2.95655896456682,-1.16052961139811,,-8.415580692033592,,
,9259.0,1352.0,7306.0,2123.0,2193.0,3260.0,362.0,,,,-0.937176058715364,-2.95658073253993,-1.16040358729455,,-7.891516851163397,,
,9261.0,1353.0,7309.0,2124.0,2193.0,3268.0,362.0,,,,-0.93776444502601,-2.95662560664536,-1.16006827032414,,-7.306354385861082,,
,9265.0,1352.0,7307.0,2124.0,2204.0,3263.0,385.0,,,,-0.937707010251381,-2.95664253832532,-1.15973003511519,,-6.661057352324411,,
,9268.0,1352.0,7308.0,2125.0,2196.0,3246.0,403.0,,,,-0.937918186029155,-2.95661613539645,-1.15927684115633,,-5.957863908233936,,
,9268.0,1352.0,7312.0,2126.0,2216.0,3243.0,400.0,,,,-0.937981504376265,-2.95664845305863,-1.15931315105746,,-5.200283032873392,,
,9273.0,1356.0,7312.0,2128.0,2199.0,3256.0,393.0,,,,-0.937895217974507,-2.95671299146852,-1.15870030315969,,-4.3930444909301904,,
,9277.0,1354.0,7317.0,2127.0,2209.0,3269.0,378.0,,,,-0.93741086164335,-2.95667311474116,-1.15892714061763,,-3.542004651728297,,
,9274.0,1351.0,7315.0,2127.0,2231.0,3263.0,392.0,,,,-0.937233439099066,-2.95654221628952,-1.15863795439829,,-2.6540125763379554,,
,9281.0,1354.0,7316.0,2129.0,2208.0,3243.0,407.0,,,,-0.937490254021231,-2.95652049222295,-1.15919513166144,,-1.7367414702706263,,
,9282.0,1355.0,7320.0,2128.0,2212.0,3269.0,393.0,,,,-0.937252819493615,-2.95666739167281,-1.15836767349886,,-0.7984909917145402,,
,9290.0,1354.0,7325.0,2130.0,2217.0,3268.0,400.0,,,,-0.937349693270452,-2.95660920358478,-1.15909405832078,,0.1520337007552464,,
,9289.0,1354.0,7322.0,2130.0,2213.0,3258.0,372.0,,,,-0.936815670214669,-2.95667812049467,-1.15829398572322,,1.1059601528548149,,
,9294.0,1359.0,7329.0,2134.0,2212.0,3243.0,398.0,,,,-0.936560899925127,-2.95650570875869,-1.1580388583848,,2.054498288348597,,
,9295.0,1356.0,7327.0,2133.0,2222.0,3244.0,380.0,,,,-0.936579600508827,-2.95644447969253,-1.15731724862158,,2.989195833532213,,
,9300.0,1357.0,7334.0,2135.0,2235.0,3246.0,399.0,,,,-0.93701467912665,-2.95644813310463,-1.15772410258465,,3.9021929828198725,,
,9300.0,1358.0,7331.0,2138.0,2228.0,3240.0,372.0,,,,-0.936996050320422,-2.95641604614779,-1.15752658822594,,4.786467842772737,,
,9303.0,1361.0,7337.0,2138.0,2220.0,3274.0,369.0,,,,-0.937439855208044,-2.95641312385289,-1.15628103532803,,5.636061397939421,,
,9306.0,1359.0,7338.0,2136.0,2216.0,3255.0,375.0,,,,-0.937655242342173,-2.95627582031324,-1.15625335524686,,6.446268029843281,,
,9309.0,1359.0,7339.0,2136.0,2203.0,3250.0,374.0,,,,-0.936978327000816,-2.95624847571281,-1.15552103451764,,7.213776309445374,,
,9314.0,1359.0,7341.0,2138.0,2204.0,3236.0,364.0,,,,-0.937063011472169,-2.95635067574789,-1.15596607773217,,7.936746008401123,,
,9315.0,1360.0,7344.0,2141.0,2218.0,3248.0,388.0,,,,-0.937572633594432,-2.95640033896547,-1.1558602751735,,8.614811129005577,,
,9320.0,1360.0,7346.0,2141.0,2243.0,3246.0,373.0,,,,-0.938006260896999,-2.95636288327859,-1.15537440185661,,9.249003905444601,,
,9321.0,1360.0,7350.0,2141.0,2245.0,3246.0,383.0,,,,-0.9379432168251,-2.95635141029662,-1.15506887103254,,9.84159922804342,,
,9326.0,1360.0,7352.0,2141.0,2226.0,3237.0,381.0,,,,-0.938597489268894,-2.9563329479672,-1.15557175720766,,10.395881785542215,,
,9328.0,1361.0,7354.0,2141.0,2236.0,3236.0,393.0,,,,-0.938112125430102,-2.95632030153739,-1.15476797176614,,10.915840227117044,,
,9330.0,1362.0,7358.0,2143.0,2244.0,3256.0,400.0,,,,-0.93830677456445,-2.95637484576136,-1.1549436000831,,11.405795665928947,,
,9336.0,1362.0,7359.0,2145.0,2232.0,3251.0,381.0,,,,-0.937788466087426,-2.95635448444479,-1.15475240854877,,11.869977031436616,,
,9337.0,1361.0,7362.0,2147.0,2227.0,3267.0,368.0,,,,-0.937665109101072,-2.95628787611724,-1.15397172938244,,12.31206262342815,,
,9340.0,1360.0,7363.0,2148.0,2228.0,3268.0,374.0,,,,-0.93767273906649,-2.95623736081231,-1.15386156877815,,12.734714140042476,,
,9338.0,1361.0,7364.0,2150.0,2234.0,3258.0,374.0,,,,-0.937636595786047,-2.95621859444797,-1.1519741215275,,13.139134945357531,,
,9341.0,1360.0,7365.0,2148.0,2233.0,3254.0,385.0,,,,-0.937924476652046,-2.95622367625204,-1.15185355913862,,13.524687632301804,,
,9336.0,1356.0,7361.0,2149.0,2236.0,3237.0,381.0,,,,-0.937889828059429,-2.95629150961932,-1.15145994400835,,13.888607077376687,,
,9338.0,1360.0,7360.0,2146.0,2248.0,3245.0,388.0,,,,-0.937755023462403,-2.95621547717889,-1.15159748626306,,14.225844814192305,,
,9336.0,1360.0,7358.0,2146.0,2216.0,3266.0,401.0,,,,-0.937652989362844,-2.95613480771383,-1.15131428484317,,14.52907894375799,,
,9332.0,1356.0,7355.0,2143.0,2209.0,3255.0,412.0,,,,-0.937475393617212,-2.95611795975626,-1.15167369204932,,14.788919586258395,,
,9329.0,1357.0,7353.0,2140.0,2202.0,3254.0,417.0,,,,-0.937175454760056,-2.95611544076882,-1.15156597065569,,14.994329964244407,,
,9318.0,1353.0,7346.0,2136.0,2193.0,3251.0,419.0,,,,-0.936946308629553,-2.95617658225742,-1.15089739114547,,15.133264661325656,,
,9315.0,1354.0,7344.0,2133.0,2193.0,3268.0,412.0,,,,-0.936827812169203,-2.95610756847021,-1.15157752183916,,15.193499405501472,,
,9306.0,1352.0,7338.0,2135.0,2203.0,3253.0,394.0,,,,-0.936904643213413,-2.95613832245016,-1.15140313876238,,15.163595009616547,,
,9300.0,1354.0,7334.0,2131.0,2203.0,3242.0,410.0,,,,-0.93666728888225,-2.95610796775363,-1.15091518994263,,15.033908809000218,,
,9296.0,1350.0,7331.0,2127.0,2192.0,3249.0,393.0,,,,-0.936889499742777,-2.95607750343682,-1.15104712546544,,14.797547299124322,,
,9294.0,1349.0,7328.0,2128.0,2216.0,3273.0,381.0,,,,-0.936518871372443,-2.95612561170052,-1.15004171632091,,14.451149109103058,,
,9290.0,1349.0,7326.0,2128.0,2227.0,3263.0,383.0,,,,-0.936811209804441,-2.95617668995876,-1.14992166124225,,13.99540011418336,,
,9285.0,1352.0,7326.0,2128.0,2217.0,3254.0,372.0,,,,-0.9358077151545,-2.95598645934891,-1.14981081186733,,13.43521062921221,,
,9281.0,1349.0,7321.0,2126.0,2207.0,3254.0,387.0,,,,-0.936453920487972,-2.95603548892691,-1.14946120524182,,12.779523383172997,,
,9281.0,1348.0,7322.0,2127.0,2197.0,3255.0,385.0,,,,-0.936756376482933,-2.95594407699551,-1.14911759724063,,12.040764467997443,,
,9278.0,1350.0,7321.0,2123.0,2220.0,3263.0,379.0,,,,-0.935991954855405,-2.95599241302699,-1.14788786177308,,11.233992103584507,,
,9278.0,1351.0,7324.0,2126.0,2223.0,3262.0,364.0,,,,-0.935745509617345,-2.95584820499992,-1.14864522446026,,10.375834259463016,,
,9279.0,1349.0,7328.0,2124.0,2223.0,3283.0,347.0,,,,-0.935927185321958,-2.9559407540459,-1.1498517668723,,9.48333005892576,,
,9278.0,1349.0,7326.0,2125.0,2231.0,3263.0,354.0,,,,-0.935736274689076,-2.95589608773977,-1.15000815188824,,8.572797071021762,,
,9280.0,1350.0,7330.0,2124.0,2233.0,3277.0,370.0,,,,-0.935252538369866,-2.95589184428422,-1.14961679974168,,7.658836562671242,,
,9278.0,1348.0,7331.0,2125.0,2243.0,3282.0,357.0,,,,-0.934762548550272,-2.9558912741783,-1.14893435094332,,6.753565158905765,,
,9279.0,1350.0,7333.0,2126.0,2230.0,3257.0,363.0,,,,-0.934929746417989,-2.9558506460552,-1.14921239923171,,5.8661296425595975,,
,9277.0,1348.0,7337.0,2125.0,2234.0,3260.0,335.0,,,,-0.934760696394947,-2.95588761533945,-1.14871762403786,,5.002526921274757,,
,9282.0,1349.0,7340.0,2128.0,2223.0,3267.0,341.0,,,,-0.934791188534769,-2.95586291746524,-1.14904643384168,,4.165717603810282,,
,9286.0,1352.0,7343.0,2131.0,2231.0,3268.0,336.0,,,,-0.93500335858835,-2.95586619702347,-1.14948022242601,,3.355992571833938,,
,9290.0,1354.0,7343.0,2133.0,2225.0,3261.0,355.0,,,,-0.936236583624242,-2.95583981087963,-1.14915499706708,,2.571530127356773,,
,9289.0,1348.0,7342.0,2129.0,2220.0,3286.0,360.0,,,,-0.936916132336444,-2.95584362422943,-1.14933039032783,,1.8090684638272279,,
,9292.0,1350.0,7350.0,2130.0,2219.0,3263.0,353.0,,,,-0.93686761406455,-2.9558252227082,-1.14818982275686,,1.0646150155668783,,
,9293.0,1355.0,7350.0,2133.0,2205.0,3281.0,374.0,,,,-0.937659145797403,-2.9557932218241,-1.14804634815654,,0.3341203594248295,,
,9296.0,1352.0,7352.0,2135.0,2206.0,3274.0,368.0,,,,-0.938743236818218,-2.95588269745566,-1.14769944421749,,-0.38594180591440763,,
,9298.0,1353.0,7356.0,2137.0,2214.0,3249.0,388.0,,,,-0.938769842345979,-2.95577034006702,-1.14690795617656,,-1.098128663060721,,
,9300.0,1353.0,7357.0,2135.0,2219.0,3251.0,397.0,,,,-0.93989964909914,-2.95571968313037,-1.14690454788336,,-1.8037374706735834,,
,9305.0,1354.0,7358.0,2138.0,2204.0,3261.0,393.0,,,,-0.939444671884466,-2.9558575516364,-1.14464317720568,,-2.5026751071328777,,
,9306.0,1353.0,7359.0,2139.0,2199.0,3265.0,389.0,,,,-0.940291225978964,-2.95577417777762,-1.1445796641349,,-3.1934807445313114,,
,9301.0,1354.0,7358.0,2139.0,2210.0,3277.0,365.0,,,,-0.940692295866977,-2.95579340250632,-1.14403678496724,,-3.873484757177668,,
,9304.0,1354.0,7363.0,2139.0,2222.0,3268.0,379.0,,,,-0.94141665714834,-2.95571625514375,-1.14289388977374,,-4.539078939549882,,
,9307.0,1353.0,7361.0,2140.0,2212.0,3268.0,380.0,,,,-0.942457953109801,-2.95574023037666,-1.14047316711834,,-5.186066685415677,,
,9305.0,1352.0,7362.0,2142.0,2213.0,3254.0,380.0,,,,-0.94374769907709,-2.95567646536413,-1.13926660065672,,-5.810057575407891,,
,9303.0,1351.0,7362.0,2140.0,2233.0,3246.0,390.0,,,,-0.944064957045399,-2.95555612701268,-1.13729699855341,,-6.406869239872375,,
,9305.0,1354.0,7362.0,2139.0,2242.0,3255.0,362.0,,,,-0.944508622681858,-2.95556022396067,-1.13551209136442,,-6.972900306277376,,
,9306.0,1352.0,7364.0,2138.0,2241.0,3267.0,385.0,,,,-0.945416296347816,-2.95540292953937,-1.13359598665609,,-7.505441404315519,,
,9306.0,1353.0,7363.0,2140.0,2232.0,3272.0,391.0,,,,-0.945469313252284,-2.95542946933629,-1.13280110312621,,-8.002896369517464,,
,9302.0,1351.0,7360.0,2137.0,2240.0,3260.0,387.0,,,,-0.94512760216817,-2.95536728673794,-1.13171949609691,,-8.464892845438005,,
,9304.0,1351.0,7362.0,2139.0,2227.0,3231.0,409.0,,,,-0.944348844701454,-2.95527425686591,-1.13121812039548,,-8.892270494247168,,
,9305.0,1351.0,7362.0,2139.0,2238.0,3252.0,400.0,,,,-0.94334186830476,-2.95520212316806,-1.13000298498275,,-9.286946315638353,,
,9306.0,1353.0,7363.0,2139.0,2244.0,3248.0,401.0,,,,-0.943291991821196,-2.95524230384285,-1.13088229698327,,-9.651670203487225,,
,9307.0,1353.0,7361.0,2139.0,2234.0,3236.0,390.0,,,,-0.942126272258497,-2.95520222908811,-1.13160735318,,-9.989698402176236,,
,9306.0,1351.0,7362.0,2137.0,2229.0,3251.0,368.0,,,,-0.941054653357706,-2.95518050145146,-1.13224497643163,,-10.304424618468673,,
,9305.0,1353.0,7362.0,2140.0,2227.0,3247.0,368.0,,,,-0.940024870723912,-2.95510922076611,-1.13275083088136,,-10.599014505456198,,
,9306.0,1351.0,7362.0,2140.0,2233.0,3250.0,388.0,,,,-0.939789064223746,-2.95528816069462,-1.13399484897746,,-10.876087281786306,,
,9307.0,1353.0,7365.0,2142.0,2231.0,3258.0,386.0,,,,-0.939279479854775,-2.95513319204674,-1.1341642053596,,-11.137479348122287,,
,9307.0,1352.0,7363.0,2139.0,2225.0,3253.0,386.0,,,,-0.938901763621215,-2.95519544810385,-1.13369475447998,,-11.38411161624775,,
,9311.0,1353.0,7366.0,2142.0,2225.0,3259.0,390.0,,,,-0.938283210791365,-2.95509240333194,-1.13337215009,,-11.615967766641356,,
,9312.0,1356.0,7364.0,2141.0,2230.0,3268.0,380.0,,,,-0.938630550640455,-2.9551462275435,-1.13310763170126,,-11.832176967678857,,
,9310.0,1352.0,7362.0,2143.0,2234.0,3278.0,380.0,,,,-0.938869605774075,-2.95512479133331,-1.13290623799809,,-12.03118300337302,,
,9311.0,1354.0,7367.0,2142.0,2247.0,3261.0,396.0,,,,-0.939939848160733,-2.95514950746883,-1.13263143335413,,-12.210972842813973,,
,9316.0,1353.0,7366.0,2144.0,2232.0,3258.0,399.0,,,,-0.940559863570119,-2.95512063151611,-1.13232565281098,,-12.36933171751329,,
,9318.0,1357.0,7369.0,2145.0,2227.0,3242.0,408.0,,,,-0.940479092935139,-2.95526134737803,-1.13271955880235,,-12.504089325632277,,
,9319.0,1358.0,7368.0,2147.0,2222.0,3248.0,406.0,,,,-0.940588301954441,-2.95518794008899,-1.13201826129097,,-12.613324077114694,,
,9320.0,1355.0,7370.0,2146.0,2222.0,3262.0,391.0,,,,-0.941641181358619,-2.95510385313559,-1.13166167744038,,-12.695500552219036,,
,9323.0,1355.0,7369.0,2147.0,2197.0,3249.0,392.0,,,,-0.941783359133078,-2.95517413498104,-1.1309838901809,,-12.749529212811293,,
,9327.0,1355.0,7373.0,2145.0,2213.0,3267.0,381.0,,,,-0.94216041059306,-2.95520057003397,-1.13085366043371,,-12.774753928473537,,
,9327.0,1357.0,7373.0,2150.0,2219.0,3270.0,391.0,,,,-0.943044566836155,-2.95516920804917,-1.13024327441934,,-12.770887399781124,,
,9330.0,1354.0,7374.0,2149.0,2219.0,3274.0,380.0,,,,-0.942862729987779,-2.95511635061311,-1.13063566732935,,-12.737922996701313,,
,9331.0,1355.0,7375.0,2151.0,2215.0,3268.0,386.0,,,,-0.942494167004124,-2.95515996864979,-1.13059037513658,,-12.676052206854948,,
,9333.0,1357.0,7374.0,2151.0,2231.0,3266.0,391.0,,,,-0.943183204018815,-2.95517495340257,-1.13227680315847,,-12.585610732494594,,
,9337.0,1358.0,7376.0,2153.0,2222.0,3251.0,373.0,,,,-0.942310425596317,-2.95524867260667,-1.13191999041524,,-12.46706574178726,,
,9337.0,1355.0,7377.0,2154.0,2192.0,3260.0,388.0,,,,-0.942003830158344,-2.9552642586389,-1.13252163174332,,-12.321044639976613,,
,9341.0,1357.0,7379.0,2153.0,2208.0,3271.0,374.0,,,,-0.941529170354966,-2.95525293961923,-1.1337253325139,,-12.148394305591815,,
,9340.0,1358.0,7380.0,2155.0,2201.0,3242.0,376.0,,,,-0.941076918257083,-2.95538681260846,-1.13474767810695,,-11.950250564532247,,
,9347.0,1358.0,7380.0,2157.0,2201.0,3231.0,377.0,,,,-0.940231412031114,-2.95523304723805,-1.13553610338857,,-11.72809152661063,,
,9347.0,1357.0,7382.0,2155.0,2208.0,3248.0,363.0,,,,-0.939784823627736,-2.95528049902878,-1.13634237926886,,-11.483745892921137,,
,9350.0,1358.0,7383.0,2154.0,2211.0,3237.0,374.0,,,,-0.938718476351184,-2.95540748987096,-1.13673262608591,,-11.219329641194054,,
,9354.0,1359.0,7384.0,2158.0,2234.0,3244.0,370.0,,,,-0.937598217922869,-2.95539784162284,-1.13698585515476,,-10.937093158747231,,
,9355.0,1359.0,7386.0,2160.0,2234.0,3253.0,356.0,,,,-0.937215695928881,-2.95523595574528,-1.13875140911656,,-10.639176217967073,,
,9357.0,1357.0,7390.0,2159.0,2225.0,3259.0,358.0,,,,-0.935794764768088,-2.95534278434407,-1.13896110255632,,-10.327287722209464,,
,9358.0,1358.0,7388.0,2158.0,2227.0,3267.0,379.0,,,,-0.934322710726753,-2.95536996840766,-1.13948155172145,,-10.002346196470405,,
,9364.0,1359.0,7390.0,2160.0,2235.0,3286.0,378.0,,,,-0.933287030203208,-2.95532678469737,-1.14006475055298,,-9.664130864456071,,
,9365.0,1360.0,7390.0,2162.0,2220.0,3279.0,396.0,,,,-0.931953908559233,-2.95532465006107,-1.1398727462816,,-9.310999050652102,,
,9369.0,1360.0,7394.0,2161.0,2220.0,3284.0,391.0,,,,-0.930770763866255,-2.95529804441185,-1.14078326157154,,-8.9397229960314,,
,9370.0,1359.0,7394.0,2160.0,2224.0,3268.0,387.0,,,,-0.929665411493182,-2.9552200013663,-1.14129635948314,,-8.545488869747224,,
,9369.0,1359.0,7395.0,2163.0,2242.0,3262.0,392.0,,,,-0.92896635852999,-2.95528790838241,-1.1412423586226,,-8.122084361489192,,
,9374.0,1362.0,7394.0,2163.0,2219.0,3254.0,394.0,,,,-0.927156624524201,-2.9551821312227,-1.14119387097273,,-7.662280494872821,,
,9374.0,1361.0,7394.0,2162.0,2226.0,3249.0,381.0,,,,-0.927039132689782,-2.9552724474603,-1.14138404438508,,-7.158389887690082,,
,9366.0,1358.0,7390.0,2160.0,2219.0,3257.0,372.0,,,,-0.926625892030348,-2.95520562102633,-1.14237778858956,,-6.602959331945271,,
,9368.0,1359.0,7387.0,2162.0,2200.0,3244.0,366.0,,,,-0.925973239856412,-2.95519970004084,-1.14305060633743,,-5.9895316499593525,,
,9364.0,1358.0,7382.0,2158.0,2187.0,3230.0,375.0,,,,-0.925354907285987,-2.95513751715804,-1.14350573148292,,-5.3133938639056675,,
,9359.0,1355.0,7379.0,2155.0,2192.0,3222.0,387.0,,,,-0.92426662801983,-2.95521649266475,-1.14323066361314,,-4.572220054913331,,
,9353.0,1355.0,7372.0,2152.0,2202.0,3229.0,383.0,,,,-0.924061969661774,-2.95531736989764,-1.14352943541232,,-3.7665211413490445,,
,9347.0,1358.0,7368.0,2151.0,2197.0,3241.0,361.0,,,,-0.923493270825214,-2.95526926076231,-1.14359841127528,,-2.8998309472097628,,
,9342.0,1355.0,7363.0,2148.0,2192.0,3248.0,374.0,,,,-0.923405453778813,-2.95517487228877,-1.14456636212305,,-1.9785867697253388,,
,9334.0,1355.0,7360.0,2145.0,2192.0,3249.0,366.0,,,,-0.922478697404863,-2.95531056639639,-1.14456329495201,,-1.0117002814156875,,
,9328.0,1352.0,7353.0,2143.0,2208.0,3243.0,382.0,,,,-0.922299905557691,-2.95524803573193,-1.14481565982964,,-0.009857037417407968,,
,9323.0,1351.0,7343.0,2138.0,2248.0,3255.0,381.0,,,,-0.922237940508173,-2.95528448368538,-1.14537247178618,,1.015375746228618,,
2025-07-15 22:33:11,9317.0,1354.0,7342.0,2140.0,2244.0,3252.0,375.0,,,2025/07/15 10:33:11 PM,-0.922436405564131,-2.9551850470819,-1.14365858468975,,2.052521051510345,,
,9313.0,1353.0,7339.0,2137.0,2253.0,3256.0,385.0,,,,-0.922046720115928,-2.95522652860285,-1.14441671034992,,3.0911161076801554,,
,9311.0,1352.0,7337.0,2138.0,2260.0,3248.0,372.0,,,,-0.922713221596139,-2.9551981317705,-1.14523580084693,,4.122467827465697,,
,9302.0,1349.0,7329.0,2134.0,2271.0,3256.0,372.0,,,,-0.922826444946303,-2.95525535414884,-1.14484199189911,,5.140146884475181,,
,9302.0,1352.0,7330.0,2135.0,2272.0,3260.0,366.0,,,,-0.923319263060012,-2.95522403763394,-1.14376169767774,,6.1401713010005565,,
,9295.0,1352.0,7329.0,2133.0,2271.0,3248.0,344.0,,,,-0.923597558689591,-2.95526433996521,-1.14410453603898,,7.120880487103929,,
,9296.0,1351.0,7328.0,2132.0,2267.0,3240.0,350.0,,,,-0.923627715841202,-2.95521568370235,-1.14373757779524,,8.082547181334697,,
,9291.0,1353.0,7328.0,2131.0,2265.0,3228.0,369.0,,,,-0.924299940499526,-2.95518956757981,-1.14400633517447,,9.026808991387226,,
,9293.0,1353.0,7327.0,2133.0,2272.0,3229.0,349.0,,,,-0.923853422984526,-2.95536645485964,-1.14382665489248,,9.956017920002541,,
,9291.0,1353.0,7329.0,2134.0,2260.0,3228.0,337.0,,,,-0.924899834765093,-2.95521042305141,-1.14406377728479,,10.872604422376462,,
,9291.0,1353.0,7330.0,2133.0,2255.0,3222.0,337.0,,,,-0.924949420061765,-2.95529174893876,-1.14471829243929,,11.778534648392965,,
,9291.0,1352.0,7326.0,2134.0,2243.0,3242.0,358.0,,,,-0.925218475297046,-2.95523341952639,-1.14414536051147,,12.674910004767954,,
,9291.0,1350.0,7327.0,2132.0,2248.0,3245.0,373.0,,,,-0.925633237192838,-2.95521444866227,-1.14381329077849,,13.561723006290993,,
,9292.0,1353.0,7328.0,2134.0,2251.0,3231.0,346.0,,,,-0.926752967433307,-2.95525581779295,-1.14347183936665,,14.437750193612056,,
,9294.0,1355.0,7331.0,2138.0,2249.0,3237.0,358.0,,,,-0.926771837546433,-2.95533423959676,-1.14308669307184,,15.3005395857635,,
,9294.0,1351.0,7331.0,2135.0,2241.0,3242.0,356.0,,,,-0.927504744887957,-2.95531278816956,-1.14304997883331,,16.146441981307753,,
,9297.0,1353.0,7333.0,2134.0,2226.0,3232.0,372.0,,,,-0.927652816743128,-2.95532975993576,-1.14393251221937,,16.970642832849286,,
,9298.0,1353.0,7332.0,2135.0,2210.0,3261.0,368.0,,,,-0.928970380528337,-2.95535141005857,-1.14271769249548,,17.767170205818065,,
,9302.0,1354.0,7333.0,2137.0,2219.0,3256.0,359.0,,,,-0.92988414096437,-2.95531736201788,-1.14198027649253,,18.528877871079906,,
,9304.0,1354.0,7332.0,2139.0,2232.0,3246.0,369.0,,,,-0.930533999657925,-2.9554551042111,-1.14362714429368,,19.247424169262956,,
,9302.0,1354.0,7329.0,2137.0,2218.0,3238.0,368.0,,,,-0.931326396320784,-2.95542242919791,-1.14351742613014,,19.913281795210025,,
,9305.0,1356.0,7333.0,2143.0,2220.0,3253.0,375.0,,,,-0.932469302002788,-2.95547138927653,-1.14472165765158,,20.515818517993992,,
,9304.0,1354.0,7331.0,2141.0,2221.0,3244.0,383.0,,,,-0.932011481536265,-2.95548984307647,-1.14573656119117,,21.043484299310848,,
,9306.0,1355.0,7333.0,2142.0,2206.0,3255.0,400.0,,,,-0.932015780164881,-2.95563468685873,-1.14659564132941,,21.484128505934073,,
,9305.0,1352.0,7329.0,2139.0,2212.0,3248.0,389.0,,,,-0.932515022012333,-2.95560223890903,-1.14718165060012,,21.82545464052734,,
,9307.0,1357.0,7329.0,2141.0,2227.0,3255.0,389.0,,,,-0.932897640990625,-2.95564500324081,-1.14872635837679,,22.05560138295984,,
,9309.0,1355.0,7329.0,2141.0,2234.0,3256.0,380.0,,,,-0.932529901746981,-2.95585225606366,-1.14964464177145,,22.163819305665957,,
,9305.0,1353.0,7326.0,2140.0,2231.0,3258.0,371.0,,,,-0.932040392556071,-2.95596736451467,-1.1509375004714,,22.141194003616853,,
,9303.0,1353.0,7325.0,2141.0,2237.0,3248.0,389.0,,,,-0.931924776895456,-2.95591774753561,-1.15125191547892,,21.981350706459345,,
,9305.0,1354.0,7324.0,2138.0,2228.0,3259.0,371.0,,,,-0.931521043574653,-2.9559419363512,-1.15105173291785,,21.681065559029168,,
,9304.0,1355.0,7325.0,2142.0,2237.0,3259.0,376.0,,,,-0.931142351303754,-2.95596624084591,-1.15129396643199,,21.240707943626727,,
,9303.0,1352.0,7320.0,2139.0,2240.0,3257.0,371.0,,,,-0.930538270943048,-2.95591038347512,-1.15198145178589,,20.664449206712522,,
,9298.0,1354.0,7319.0,2137.0,2260.0,3256.0,371.0,,,,-0.929892611776335,-2.9558800605829,-1.15191752880586,,19.96019650735462,,
,9303.0,1353.0,7316.0,2139.0,2276.0,3266.0,368.0,,,,-0.928993729797941,-2.95583379452474,-1.15285059106187,,19.139243336633243,,
,9299.0,1354.0,7316.0,2136.0,2235.0,3255.0,370.0,,,,-0.927583296149255,-2.95591677082214,-1.15373172665573,,18.215664524651455,,
,9301.0,1353.0,7317.0,2139.0,2234.0,3253.0,378.0,,,,-0.926352430381376,-2.95601550960472,-1.15349617097428,,17.205516086511974,,
,9295.0,1353.0,7312.0,2138.0,2246.0,3256.0,356.0,,,,-0.925280344788749,-2.95599328749979,-1.15516328919972,,16.125923173187296,,
,9298.0,1353.0,7316.0,2136.0,2229.0,3249.0,329.0,,,,-0.924137504011097,-2.95595135000676,-1.1556258356441,,14.994149360034402,,
,9301.0,1355.0,7316.0,2137.0,2213.0,3257.0,324.0,,,,-0.922164325093212,-2.95602304184754,-1.15626416303694,,13.826736855829717,,
,9298.0,1355.0,7315.0,2138.0,2211.0,3254.0,313.0,,,,-0.921920831883726,-2.95605364635444,-1.15782053747521,,12.638791718434025,,
,9298.0,1355.0,7313.0,2136.0,2226.0,3236.0,348.0,,,,-0.919837622635554,-2.95603981863733,-1.15770475584566,,11.443464608665936,,
,9297.0,1355.0,7309.0,2138.0,2233.0,3241.0,350.0,,,,-0.918853863931798,-2.9560445132715,-1.1585405507112,,10.251650764341383,,
,9301.0,1357.0,7312.0,2138.0,2245.0,3233.0,353.0,,,,-0.91740953147235,-2.95589393727707,-1.15879469844978,,9.071907098208957,,
,9300.0,1354.0,7310.0,2137.0,2236.0,3234.0,345.0,,,,-0.916565120955913,-2.95593498964504,-1.15899818003397,,7.910562747303825,,
,9300.0,1355.0,7309.0,2139.0,2248.0,3244.0,339.0,,,,-0.91550508175474,-2.9559326239177,-1.15960098436278,,6.771983869035877,,
,9302.0,1355.0,7309.0,2137.0,2234.0,3252.0,349.0,,,,-0.914953687006329,-2.95600669139446,-1.15899773057033,,5.6589447620687325,,
,9303.0,1355.0,7313.0,2140.0,2250.0,3239.0,346.0,,,,-0.914499119016566,-2.9558788582916,-1.15817906368644,,4.573055172829432,,
,9304.0,1355.0,7314.0,2141.0,2249.0,3245.0,355.0,,,,-0.914463132087266,-2.95586016509411,-1.158247859654,,3.5151964018422106,,
,9303.0,1357.0,7312.0,2140.0,2227.0,3227.0,353.0,,,,-0.914067756198091,-2.95593090838307,-1.15801539514544,,2.485924285220914,,
,9306.0,1356.0,7310.0,2138.0,2241.0,3236.0,344.0,,,,-0.913913489401793,-2.95590400075718,-1.15818399089276,,1.4858037780636295,,
,9311.0,1358.0,7311.0,2140.0,2230.0,3233.0,352.0,,,,-0.913229326871747,-2.95590179048877,-1.15824141087774,,0.5156482253210561,,
,9312.0,1357.0,7315.0,2143.0,2238.0,3233.0,371.0,,,,-0.913471501457205,-2.95589851493626,-1.15856137437599,,-0.4233518011655553,,
,9312.0,1360.0,7311.0,2142.0,2231.0,3236.0,379.0,,,,-0.91368353548009,-2.9558813662471,-1.1599940548211,,-1.3296097724328575,,
,9313.0,1358.0,7312.0,2141.0,2233.0,3253.0,401.0,,,,-0.913421643207907,-2.95596903561708,-1.16003442680094,,-2.2012181290112234,,
,9314.0,1356.0,7315.0,2143.0,2242.0,3248.0,353.0,,,,-0.913518256371629,-2.95595734014048,-1.16033132559056,,-3.036088422186742,,
,9318.0,1360.0,7315.0,2142.0,2250.0,3254.0,349.0,,,,-0.913649570492441,-2.95595794501148,-1.16146908942222,,-3.8321238992981383,,
,9320.0,1360.0,7319.0,2143.0,2244.0,3260.0,345.0,,,,-0.913784359180065,-2.95596599781401,-1.16218084816006,,-4.587395319931164,,
,9318.0,1357.0,7315.0,2143.0,2236.0,3254.0,340.0,,,,-0.913782730682193,-2.95609210281811,-1.16235166236783,,-5.300299392335674,,
,9325.0,1359.0,7319.0,2144.0,2243.0,3250.0,340.0,,,,-0.912816649211277,-2.95612533115629,-1.16258812668901,,-5.969688745627978,,
,9323.0,1361.0,7321.0,2147.0,2269.0,3249.0,346.0,,,,-0.913251340989015,-2.95611396398767,-1.16321258323076,,-6.59496931260607,,
,9326.0,1359.0,7323.0,2145.0,2262.0,3244.0,336.0,,,,-0.913491456517295,-2.95614612285008,-1.16377719875879,,-7.176163767485591,,
,9329.0,1362.0,7320.0,2145.0,2248.0,3257.0,318.0,,,,-0.913482776217485,-2.9561925089338,-1.16343901137155,,-7.713938960033482,,
,9327.0,1361.0,7321.0,2149.0,2258.0,3232.0,327.0,,,,-0.913658298220031,-2.9561878500055,-1.16294572803666,,-8.209593715099592,,
,9330.0,1358.0,7323.0,2149.0,2245.0,3240.0,367.0,,,,-0.914091311710606,-2.95613390586295,-1.16409631390215,,-8.665003793266019,,
,9333.0,1362.0,7325.0,2148.0,2253.0,3241.0,355.0,,,,-0.914063040916606,-2.95616531608109,-1.16414596820603,,-9.08252438791638,,
,9334.0,1361.0,7324.0,2148.0,2254.0,3257.0,345.0,,,,-0.913832275360226,-2.95621703556705,-1.16442433589352,,-9.464856116139106,,
,9335.0,1361.0,7326.0,2149.0,2275.0,3236.0,330.0,,,,-0.913178171029402,-2.9562107037819,-1.1658092383111,,-9.814885908479726,,
,9336.0,1364.0,7326.0,2151.0,2272.0,3248.0,355.0,,,,-0.912747461839892,-2.95630965493996,-1.16605757476362,,-10.135517997675631,,
,9340.0,1361.0,7325.0,2150.0,2270.0,3258.0,340.0,,,,-0.912770761110382,-2.95625219260679,-1.16483448032294,,-10.429511850557354,,
,9340.0,1361.0,7323.0,2150.0,2246.0,3259.0,350.0,,,,-0.912266191438681,-2.95625203044869,-1.16629129792504,,-10.6993434285304,,
,9341.0,1360.0,7324.0,2150.0,2252.0,3253.0,343.0,,,,-0.912472708908291,-2.95630267294866,-1.16601237477634,,-10.94710382818454,,
,9339.0,1361.0,7324.0,2150.0,2236.0,3258.0,345.0,,,,-0.913186476923871,-2.9563185673265,-1.16649479878768,,-11.174445470346633,,
,9338.0,1358.0,7321.0,2149.0,2240.0,3250.0,340.0,,,,-0.913220313826216,-2.95629629583623,-1.16605972955161,,-11.382580898256036,,
,9335.0,1360.0,7316.0,2145.0,2229.0,3241.0,318.0,,,,-0.912593473879125,-2.95623275853395,-1.16583662234609,,-11.572333150093481,,
,9329.0,1358.0,7309.0,2143.0,2224.0,3224.0,337.0,,,,-0.912834203341156,-2.95630607606225,-1.16583175835416,,-11.744229926394222,,
,9324.0,1357.0,7304.0,2144.0,2237.0,3234.0,338.0,,,,-0.912308876540695,-2.95625984357241,-1.16610274199832,,-11.898627259136786,,
,9318.0,1357.0,7296.0,2144.0,2219.0,3221.0,339.0,,,,-0.912205625171164,-2.95632823166868,-1.16569697384198,,-12.035843750661172,,
,9312.0,1355.0,7287.0,2138.0,2211.0,3231.0,346.0,,,,-0.912048064829016,-2.95622538318892,-1.16477729935338,,-12.156285513609959,,
,9301.0,1353.0,7280.0,2133.0,2213.0,3230.0,345.0,,,,-0.912468957836052,-2.95627183902632,-1.16445278413804,,-12.260545436835352,,
,9290.0,1354.0,7273.0,2131.0,2217.0,3222.0,337.0,,,,-0.912137204550858,-2.95618224024139,-1.16452133435078,,-12.349467177731666,,
,9284.0,1353.0,7265.0,2130.0,2238.0,3242.0,338.0,,,,-0.912638919195519,-2.95616812460423,-1.16437974634186,,-12.42417197988729,,
,9275.0,1351.0,7257.0,2125.0,2238.0,3243.0,324.0,,,,-0.912888803827123,-2.9561143457277,-1.16450762675623,,-12.486052886619971,,
,9262.0,1351.0,7246.0,2119.0,2253.0,3244.0,352.0,,,,-0.913237574336884,-2.95613180182669,-1.16422499008648,,-12.536745039541994,,
,9257.0,1349.0,7243.0,2120.0,2262.0,3245.0,348.0,,,,-0.913648549062679,-2.95620795650734,-1.16314050012181,,-12.578082315384897,,
,9246.0,1349.0,7234.0,2118.0,2264.0,3244.0,363.0,,,,-0.913800501707867,-2.95614894733604,-1.16298726097989,,-12.61204988599038,,
,9240.0,1348.0,7231.0,2114.0,2268.0,3255.0,354.0,,,,-0.913950036818536,-2.95606061288316,-1.16263166620787,,-12.640739957281493,,
,9234.0,1348.0,7227.0,2112.0,2271.0,3246.0,315.0,,,,-0.914256954060681,-2.95606584111843,-1.16220686071858,,-12.666314593687002,,
,9227.0,1347.0,7223.0,2112.0,2286.0,3246.0,350.0,,,,-0.915017048075973,-2.95603810916313,-1.16240761696704,,-12.690975704512477,,
,9219.0,1346.0,7218.0,2112.0,2261.0,3238.0,355.0,,,,-0.914825442567219,-2.95600505213946,-1.16245721526785,,-12.716938351518046,,
,9220.0,1347.0,7220.0,2109.0,2264.0,3238.0,343.0,,,,-0.914455504876435,-2.95603014045446,-1.16190260953626,,-12.746400032673236,,
,9214.0,1345.0,7212.0,2109.0,2275.0,3249.0,335.0,,,,-0.914402810281884,-2.95608344995262,-1.1611242542736,,-12.781496528582828,,
,9211.0,1347.0,7211.0,2111.0,2273.0,3255.0,343.0,,,,-0.914740696826367,-2.95609230406634,-1.16188908166543,,-12.82423573509487,,
,9208.0,1346.0,7212.0,2109.0,2280.0,3239.0,327.0,,,,-0.914535020590409,-2.9560951647965,-1.16058844414203,,-12.876405524325827,,
,9208.0,1345.0,7208.0,2110.0,2277.0,3231.0,333.0,,,,-0.915154907636893,-2.95608439265495,-1.16070097416148,,-12.939459108112404,,
,9202.0,1344.0,7208.0,2109.0,2251.0,3254.0,364.0,,,,-0.915228670643338,-2.95598740512968,-1.16060705991581,,-13.014388807911931,,
,9203.0,1345.0,7207.0,2108.0,2251.0,3227.0,343.0,,,,-0.91508343484691,-2.95595908261106,-1.16169897529429,,-13.101603484430923,,
,9204.0,1346.0,7207.0,2110.0,2250.0,3229.0,362.0,,,,-0.914657059761033,-2.95606523352737,-1.15991320973275,,-13.20082462211873,,
,9202.0,1346.0,7208.0,2111.0,2271.0,3239.0,370.0,,,,-0.914497938127994,-2.95596198593285,-1.1593344939328,,-13.311011809217261,,
,9205.0,1343.0,7208.0,2113.0,2266.0,3246.0,386.0,,,,-0.914463240566837,-2.95593223104307,-1.15951639067745,,-13.430322145736435,,
,9201.0,1345.0,7206.0,2111.0,2250.0,3250.0,369.0,,,,-0.914401161108137,-2.95594540452812,-1.16005942136908,,-13.55610231755158,,
,9205.0,1348.0,7205.0,2111.0,2223.0,3247.0,372.0,,,,-0.913414318586318,-2.9559074561846,-1.1596802465414,,-13.684908426552452,,
,9205.0,1346.0,7206.0,2113.0,2230.0,3230.0,379.0,,,,-0.912946272491746,-2.95590609226067,-1.16053902911801,,-13.812547568295008,,
,9202.0,1345.0,7206.0,2114.0,2244.0,3228.0,379.0,,,,-0.911751941127009,-2.95591535867247,-1.16033636554587,,-13.934135591518165,,
,9202.0,1344.0,7202.0,2113.0,2238.0,3241.0,380.0,,,,-0.911472687258496,-2.95597968369705,-1.16001844527645,,-14.044165889096359,,
,9202.0,1344.0,7204.0,2113.0,2249.0,3238.0,370.0,,,,-0.911229248601028,-2.95590456665875,-1.16052984483815,,-14.136583699656379,,
,9203.0,1344.0,7199.0,2113.0,2240.0,3218.0,370.0,,,,-0.910014548996973,-2.95590069938625,-1.16148690957517,,-14.204860009820312,,
,9202.0,1346.0,7203.0,2114.0,2239.0,3224.0,356.0,,,,-0.909197841054447,-2.95592374903052,-1.16284098711815,,-14.24206025636754,,
,9202.0,1344.0,7199.0,2111.0,2237.0,3251.0,365.0,,,,-0.907010326154081,-2.95592093202536,-1.16319896686929,,-14.240906300659484,,
,9199.0,1345.0,7201.0,2113.0,2251.0,3234.0,381.0,,,,-0.905336028580395,-2.95610372746343,-1.16357765560818,,-14.193834608666252,,
,9199.0,1346.0,7198.0,2113.0,2238.0,3225.0,375.0,,,,-0.905049989564453,-2.95608855123143,-1.16597493795111,,-14.093057431098176,,
,9197.0,1345.0,7197.0,2112.0,2236.0,3213.0,379.0,,,,-0.903666022531041,-2.95628006566176,-1.16687368132871,,-13.930635916178554,,
,9195.0,1342.0,7194.0,2109.0,2249.0,3207.0,359.0,,,,-0.901989270717834,-2.95636888997747,-1.16879918360136,,-13.698574638190637,,
,9195.0,1342.0,7191.0,2108.0,2247.0,3226.0,360.0,,,,-0.902109283532668,-2.95646505062181,-1.17038866006769,,-13.388946822640404,,
,9192.0,1343.0,7193.0,2110.0,2235.0,3242.0,387.0,,,,-0.901235739657082,-2.95649189829537,-1.17230219173963,,-12.994059362655403,,
,9192.0,1343.0,7187.0,2111.0,2239.0,3242.0,384.0,,,,-0.900964910717741,-2.95661731476932,-1.17297895971038,,-12.506666872963415,,
,9185.0,1343.0,7187.0,2108.0,2230.0,3254.0,354.0,,,,-0.901011351101764,-2.95662764131625,-1.17444799496231,,-11.920244084241734,,
,9186.0,1343.0,7184.0,2110.0,2233.0,3244.0,356.0,,,,-0.899962823388329,-2.95680333379457,-1.17418971537682,,-11.229324329811972,,
,9182.0,1343.0,7182.0,2108.0,2232.0,3265.0,339.0,,,,-0.89929288779769,-2.95682000247455,-1.1751613703578,,-10.429906512493272,,
,9180.0,1342.0,7180.0,2109.0,2251.0,3257.0,344.0,,,,-0.898772457542083,-2.95677649169686,-1.17610755224709,,-9.519922278896107,,
,9183.0,1341.0,7178.0,2108.0,2255.0,3241.0,371.0,,,,-0.898187488989545,-2.95683330829444,-1.17689787306418,,-8.4997397043146,,
,9176.0,1343.0,7178.0,2105.0,2266.0,3265.0,368.0,,,,-0.898086596588275,-2.95685776906548,-1.17665123088254,,-7.372662011976949,,
,9176.0,1344.0,7176.0,2110.0,2244.0,3247.0,360.0,,,,-0.897877145393423,-2.95688226421212,-1.1766900364499,,-6.145362910571632,,
,9176.0,1342.0,7174.0,2107.0,2249.0,3237.0,339.0,,,,-0.898351367263678,-2.95682198889789,-1.17733759278352,,-4.828187497497136,,
,9175.0,1342.0,7175.0,2110.0,2250.0,3233.0,357.0,,,,-0.897624327009993,-2.95692349616302,-1.17647244722418,,-3.435243395728562,,
,9174.0,1340.0,7175.0,2105.0,2251.0,3247.0,351.0,,,,-0.897530135853938,-2.9568755467853,-1.17730618962252,,-1.984215427956926,,
,9176.0,1342.0,7173.0,2106.0,2250.0,3239.0,345.0,,,,-0.897270626748474,-2.95689411897154,-1.1773978857565,,-0.4958622112069301,,
,9178.0,1342.0,7171.0,2110.0,2247.0,3231.0,355.0,,,,-0.896698229347812,-2.95678957904116,-1.17675729757134,,1.0068056442092346,,
,9175.0,1341.0,7173.0,2108.0,2244.0,3237.0,352.0,,,,-0.896352439773068,-2.95684879772907,-1.17720108003831,,2.499614952724149,,
2025-07-15 22:33:12,9177.0,1343.0,7173.0,2107.0,2235.0,3249.0,343.0,,,2025/07/15 10:33:12 PM,-0.895706948896958,-2.95684359211171,-1.17817295561091,,3.9584879161724116,,
,9179.0,1341.0,7175.0,2108.0,2227.0,3239.0,378.0,,,,-0.89559357260837,-2.95696121124827,-1.17880248364274,,5.360738575334971,,
,9178.0,1341.0,7172.0,2106.0,2252.0,3234.0,363.0,,,,-0.895130006790677,-2.95693285016643,-1.17734808208012,,6.686273404313191,,
,9178.0,1344.0,7173.0,2108.0,2243.0,3245.0,359.0,,,,-0.894782280871546,-2.95687422216036,-1.17882652317663,,7.918583502190393,,
,9178.0,1341.0,7171.0,2107.0,2236.0,3228.0,364.0,,,,-0.894325509398655,-2.95686028812036,-1.17805507541446,,9.045454215581989,,
,9178.0,1341.0,7173.0,2109.0,2229.0,3242.0,334.0,,,,-0.893905696272241,-2.9568691474234,-1.17832996917384,,10.059360204912684,,
,9181.0,1344.0,7174.0,2111.0,2224.0,3254.0,352.0,,,,-0.893907426376024,-2.95683046048604,-1.17845549504705,,10.95754977454218,,
,9181.0,1346.0,7177.0,2110.0,2234.0,3249.0,355.0,,,,-0.892856092778075,-2.95685200763782,-1.17844798763303,,11.741847018131265,,
,9183.0,1344.0,7174.0,2108.0,2249.0,3256.0,355.0,,,,-0.892690114534828,-2.95688839731628,-1.17747733579922,,12.41821421354524,,
,9181.0,1343.0,7174.0,2110.0,2242.0,3263.0,356.0,,,,-0.892723218358887,-2.9568443305132,-1.17844061001304,,12.996122948902366,,
,9181.0,1344.0,7176.0,2112.0,2260.0,3232.0,346.0,,,,-0.892897367497305,-2.95677486169186,-1.17806136904677,,13.487784488542326,,
,9185.0,1345.0,7177.0,2111.0,2263.0,3239.0,353.0,,,,-0.893336739765647,-2.95684094641955,-1.17734249605523,,13.907291089847218,,
,9186.0,1344.0,7176.0,2111.0,2257.0,3257.0,388.0,,,,-0.893836242621317,-2.95687980221005,-1.1775453231207,,14.269721835944214,,
,9187.0,1343.0,7176.0,2111.0,2251.0,3248.0,358.0,,,,-0.893850984252683,-2.95688706993824,-1.17756333045157,,14.590268298161524,,
,9189.0,1347.0,7179.0,2112.0,2242.0,3272.0,380.0,,,,-0.89409454460929,-2.95690662439919,-1.17722890751182,,14.883434596932348,,
,9189.0,1343.0,7179.0,2113.0,2208.0,3244.0,374.0,,,,-0.894410552635004,-2.95690769418004,-1.17769741286034,,15.162360697969769,,
,9189.0,1345.0,7177.0,2113.0,2213.0,3244.0,353.0,,,,-0.894234134645946,-2.9568805085411,-1.17675204718357,,15.438305907693907,,
,9191.0,1345.0,7179.0,2113.0,2220.0,3244.0,344.0,,,,-0.895012138540206,-2.95690402630983,-1.17730756010537,,15.72031233788331,,
,9194.0,1348.0,7179.0,2115.0,2233.0,3251.0,354.0,,,,-0.895076819779777,-2.95695328084191,-1.17728826858379,,16.015048263613213,,
,9194.0,1343.0,7180.0,2116.0,2264.0,3239.0,362.0,,,,-0.894973748852228,-2.9569225182391,-1.17739045005224,,16.326812509773383,,
,9196.0,1344.0,7182.0,2117.0,2267.0,3243.0,363.0,,,,-0.895079412101451,-2.95690976380131,-1.1769613830864,,16.657666571559353,,
,9195.0,1343.0,7179.0,2116.0,2267.0,3241.0,362.0,,,,-0.895252264645862,-2.95683762192087,-1.17770742483709,,17.007652723321247,,
,9198.0,1345.0,7180.0,2118.0,2272.0,3237.0,376.0,,,,-0.894905595843531,-2.95690121991492,-1.17646816604247,,17.375053770253942,,
,9198.0,1345.0,7182.0,2118.0,2258.0,3241.0,391.0,,,,-0.895390870527662,-2.95688758511241,-1.17691783257763,,17.756652507641135,,
,9197.0,1345.0,7181.0,2119.0,2268.0,3227.0,382.0,,,,-0.895286244001464,-2.95688947848557,-1.17647519184361,,18.14795585743593,,
,9200.0,1344.0,7183.0,2117.0,2271.0,3240.0,366.0,,,,-0.895144286992613,-2.95693383909716,-1.17648810876132,,18.543360062239945,,
,9199.0,1343.0,7179.0,2117.0,2252.0,3224.0,388.0,,,,-0.895093845453973,-2.95689303347515,-1.17674987697626,,18.936249070208113,,
,9193.0,1343.0,7177.0,2116.0,2241.0,3243.0,360.0,,,,-0.895433500581182,-2.95684856513091,-1.17727472522057,,19.319036893295767,,
,9192.0,1342.0,7172.0,2115.0,2230.0,3251.0,368.0,,,,-0.895839822618286,-2.95690212405371,-1.17692903771854,,19.68318281571288,,
,9188.0,1341.0,7163.0,2109.0,2211.0,3246.0,371.0,,,,-0.895975923175907,-2.95691957998559,-1.17737832311267,,20.019221011590176,,
,9179.0,1341.0,7159.0,2110.0,2208.0,3230.0,377.0,,,,-0.895415319219058,-2.9569917909361,-1.17601005243669,,20.316849225651772,,
,9174.0,1338.0,7151.0,2107.0,2226.0,3238.0,360.0,,,,-0.89609603933931,-2.95696624039416,-1.17718232289581,,20.565113440175846,,
,9163.0,1337.0,7141.0,2104.0,2229.0,3242.0,356.0,,,,-0.895039570265252,-2.9569684171525,-1.17686527698766,,20.752709069693104,,
,9151.0,1336.0,7134.0,2101.0,2240.0,3210.0,375.0,,,,-0.895324326225204,-2.95703552067595,-1.17795702081449,,20.86839817467301,,
,9137.0,1334.0,7125.0,2095.0,2234.0,3232.0,357.0,,,,-0.89492756234274,-2.95685976871791,-1.17746176102875,,20.901520437529246,,
,9128.0,1335.0,7114.0,2094.0,2250.0,3227.0,356.0,,,,-0.895024176622877,-2.9570573823177,-1.1783454538373,,20.842556671974933,,
,9114.0,1333.0,7106.0,2091.0,2256.0,3224.0,347.0,,,,-0.895334562214785,-2.95698371172271,-1.17744989975391,,20.683690638100202,,
,9106.0,1331.0,7098.0,2086.0,2239.0,3233.0,346.0,,,,-0.895704963751142,-2.95696514795935,-1.17830955814475,,20.41931047406952,,
,9097.0,1328.0,7090.0,2081.0,2232.0,3238.0,356.0,,,,-0.895106133824368,-2.95696831069211,-1.17881982067997,,20.046396197357815,,
,9086.0,1330.0,7086.0,2083.0,2255.0,3226.0,369.0,,,,-0.895468216362313,-2.95699513839084,-1.17806397093802,,19.564753524164196,,
,9081.0,1326.0,7078.0,2078.0,2267.0,3243.0,339.0,,,,-0.895661261809798,-2.95707211820777,-1.17844879225816,,18.977073810602583,,
,9073.0,1330.0,7076.0,2078.0,2275.0,3243.0,345.0,,,,-0.896272076513138,-2.95709904906061,-1.17821397838959,,18.288820950288038,,
,9066.0,1324.0,7068.0,2073.0,2266.0,3221.0,348.0,,,,-0.896093462966266,-2.95699753672957,-1.17983898164127,,17.507964131392388,,
,9059.0,1324.0,7066.0,2075.0,2266.0,3237.0,344.0,,,,-0.896729096977886,-2.95711849955613,-1.17969976802221,,16.64458754906746,,
,9055.0,1324.0,7067.0,2075.0,2258.0,3253.0,344.0,,,,-0.896392670726028,-2.95704665020342,-1.18059475408352,,15.710413951557495,,
,9051.0,1324.0,7062.0,2074.0,2262.0,3261.0,361.0,,,,-0.896786563324636,-2.95714503030508,-1.18010811733045,,14.718279322392112,,
,9043.0,1321.0,7063.0,2070.0,2288.0,3271.0,337.0,,,,-0.896641310504923,-2.9571830312665,-1.18016748497492,,13.68159236984501,,
,9046.0,1323.0,7061.0,2072.0,2275.0,3251.0,321.0,,,,-0.896500070617459,-2.95717621172191,-1.18032792521019,,12.613806018198595,,
,9042.0,1327.0,7061.0,2074.0,2269.0,3236.0,349.0,,,,-0.896392149863984,-2.95708964283707,-1.18111304864587,,11.527920371473517,,
,9037.0,1323.0,7063.0,2073.0,2268.0,3230.0,333.0,,,,-0.896877886817859,-2.95716882368216,-1.18032024304297,,10.436029714510806,,
,9034.0,1322.0,7059.0,2070.0,2271.0,3228.0,324.0,,,,-0.896619227921766,-2.9571918984873,-1.1800398990045,,9.348921934354495,,
,9033.0,1322.0,7059.0,2071.0,2273.0,3237.0,335.0,,,,-0.896699559347958,-2.95718084136787,-1.18043523188475,,8.275738388641994,,
,9031.0,1321.0,7057.0,2072.0,2255.0,3244.0,331.0,,,,-0.896549796024745,-2.95730873547144,-1.18097093341973,,7.22370560209884,,
,9032.0,1324.0,7061.0,2073.0,2250.0,3241.0,338.0,,,,-0.896265260822476,-2.95721002040841,-1.18079718205936,,6.197955429858729,,
,9030.0,1321.0,7060.0,2073.0,2244.0,3262.0,348.0,,,,-0.895546130019893,-2.95732189597754,-1.18191386310749,,5.20145389245088,,
,9030.0,1323.0,7058.0,2076.0,2248.0,3251.0,341.0,,,,-0.89553545024519,-2.95721760200998,-1.18184304993907,,4.235056746528358,,
,9030.0,1322.0,7059.0,2076.0,2239.0,3239.0,356.0,,,,-0.894587352767078,-2.95731343026247,-1.18251649652186,,3.297700182637183,,
,9030.0,1323.0,7061.0,2076.0,2229.0,3237.0,365.0,,,,-0.894065681765124,-2.95729561673887,-1.18325396262588,,2.386719862579262,,
,9029.0,1323.0,7058.0,2077.0,2240.0,3264.0,355.0,,,,-0.893549511378644,-2.95734791990307,-1.18357630588556,,1.498275537316913,,
,9024.0,1319.0,7056.0,2074.0,2234.0,3242.0,374.0,,,,-0.893747721646986,-2.95738736085454,-1.18380656134029,,0.6278460832186645,,
,9025.0,1319.0,7057.0,2076.0,2228.0,3240.0,371.0,,,,-0.892953463681455,-2.95737271780049,-1.18503502585306,,-0.22924709582104216,,
,9023.0,1322.0,7057.0,2076.0,2256.0,3246.0,346.0,,,,-0.892384361963595,-2.95743866753944,-1.18505637970653,,-1.077331927314653,,
,9023.0,1320.0,7055.0,2074.0,2237.0,3251.0,355.0,,,,-0.893439647538523,-2.95743727991343,-1.18550753059659,,-1.9199336487856122,,
,9019.0,1319.0,7056.0,2073.0,2225.0,3241.0,341.0,,,,-0.89342042285405,-2.95737883593346,-1.18539148180361,,-2.759413550028873,,
,9020.0,1319.0,7055.0,2075.0,2232.0,3240.0,349.0,,,,-0.893046496127538,-2.95744409601278,-1.18459134248911,,-3.596724139122778,,
,9018.0,1321.0,7052.0,2074.0,2248.0,3227.0,375.0,,,,-0.894202981259306,-2.95746694264737,-1.1855597699097,,-4.431295200975155,,
,9013.0,1319.0,7051.0,2071.0,2243.0,3231.0,358.0,,,,-0.894208371238206,-2.95749374623805,-1.18445678614622,,-5.261052547334021,,
,9010.0,1319.0,7048.0,2074.0,2259.0,3225.0,348.0,,,,-0.894751312314378,-2.95751491891492,-1.18563770904139,,-6.082558495710657,,
,9010.0,1317.0,7049.0,2071.0,2255.0,3222.0,367.0,,,,-0.894888448361706,-2.95751130772932,-1.18621628977773,,-6.891252454521641,,
,9006.0,1316.0,7042.0,2072.0,2244.0,3224.0,356.0,,,,-0.895438123165044,-2.95752166512808,-1.18587919357116,,-7.681763548228811,,
,9004.0,1317.0,7043.0,2071.0,2240.0,3219.0,377.0,,,,-0.895753457712945,-2.95753000146256,-1.18537041015152,,-8.448265563141328,,
,8998.0,1314.0,7039.0,2068.0,2269.0,3231.0,358.0,,,,-0.895689633485735,-2.95767221319599,-1.18498995589885,,-9.184846171102748,,
,8999.0,1316.0,7043.0,2071.0,2274.0,3236.0,362.0,,,,-0.895542487816841,-2.95760235023858,-1.18529149957507,,-9.885865136673562,,
,8997.0,1317.0,7041.0,2070.0,2258.0,3238.0,346.0,,,,-0.896199359456191,-2.957661222143,-1.1864519217381,,-10.546278795305382,,
,8994.0,1316.0,7040.0,2070.0,2259.0,3236.0,338.0,,,,-0.895412765448068,-2.95767703158157,-1.18699634970157,,-11.161910940323086,,
,8993.0,1317.0,7039.0,2071.0,2257.0,3257.0,346.0,,,,-0.895568375166558,-2.95764710307404,-1.18633578171495,,-11.729654574900525,,
,8992.0,1317.0,7038.0,2069.0,2272.0,3241.0,380.0,,,,-0.894701805093729,-2.95775101212895,-1.18814217556757,,-12.24759536318846,,
,8993.0,1318.0,7038.0,2069.0,2265.0,3265.0,365.0,,,,-0.895189814249075,-2.9578318281558,-1.18855539161898,,-12.715055373719977,,
,8992.0,1316.0,7039.0,2072.0,2264.0,3255.0,351.0,,,,-0.894899006626966,-2.9577819760765,-1.18887384459173,,-13.132563191778482,,
,8991.0,1314.0,7034.0,2073.0,2268.0,3243.0,360.0,,,,-0.894490121163428,-2.9578312633277,-1.18939355659107,,-13.501761855233639,,
,8988.0,1315.0,7037.0,2073.0,2271.0,3251.0,340.0,,,,-0.894838165336787,-2.95777258893541,-1.18879404383397,,-13.825268187189083,,
,8992.0,1317.0,7037.0,2071.0,2270.0,3248.0,335.0,,,,-0.894411977699099,-2.95782652335372,-1.18858881528531,,-14.106496131254541,,
,8993.0,1314.0,7035.0,2070.0,2279.0,3241.0,320.0,,,,-0.894924789572876,-2.9578675053745,-1.18912995658614,,-14.349454268890984,,
,8992.0,1315.0,7035.0,2072.0,2289.0,3237.0,340.0,,,,-0.895090525660655,-2.95785859330537,-1.18857954367132,,-14.558526083377263,,
,8990.0,1314.0,7038.0,2073.0,2269.0,3239.0,339.0,,,,-0.895656098383479,-2.95779268455662,-1.18777246677427,,-14.738242119804628,,
,8992.0,1315.0,7038.0,2073.0,2236.0,3242.0,329.0,,,,-0.895607966363177,-2.9578025666147,-1.1872506058814,,-14.893055489641188,,
,8993.0,1315.0,7039.0,2075.0,2246.0,3220.0,336.0,,,,-0.895438843866182,-2.95774517147819,-1.18673505104612,,-15.027134390041395,,
,8991.0,1315.0,7037.0,2076.0,2249.0,3220.0,328.0,,,,-0.896304000415567,-2.95774924683162,-1.18608477123663,,-15.144185868792402,,
,8990.0,1313.0,7039.0,2072.0,2240.0,3258.0,317.0,,,,-0.896169231880484,-2.9577501094577,-1.1862469053966,,-15.247323487415423,,
,8993.0,1313.0,7042.0,2076.0,2246.0,3243.0,320.0,,,,-0.896773912773735,-2.95773892236629,-1.18645226259397,,-15.338988179062246,,
,8994.0,1316.0,7042.0,2079.0,2258.0,3247.0,317.0,,,,-0.896450582790595,-2.95780888864057,-1.18659811909675,,-15.420927053931218,,
,8995.0,1314.0,7041.0,2075.0,2247.0,3236.0,325.0,,,,-0.896642780842805,-2.95778132217081,-1.18660747541928,,-15.494229736831338,,
,8995.0,1313.0,7039.0,2076.0,2239.0,3234.0,361.0,,,,-0.896696504575014,-2.95785024082334,-1.18726877161198,,-15.559416520746632,,
,8995.0,1313.0,7041.0,2078.0,2241.0,3254.0,358.0,,,,-0.896725838160674,-2.95797493454489,-1.18800479272163,,-15.616567490102652,,
,8996.0,1314.0,7043.0,2079.0,2232.0,3250.0,359.0,,,,-0.896692664963859,-2.95792038085538,-1.1877195614043,,-15.665476927126672,,
,8998.0,1313.0,7045.0,2079.0,2229.0,3245.0,351.0,,,,-0.896963016036461,-2.95783020400652,-1.18871252211522,,-15.705813071349565,,
,9000.0,1313.0,7045.0,2080.0,2237.0,3244.0,372.0,,,,-0.896891051950859,-2.9579311434966,-1.18891681731048,,-15.737260628708341,,
,8998.0,1315.0,7044.0,2080.0,2254.0,3253.0,356.0,,,,-0.897250924889545,-2.95798082799547,-1.18967762210045,,-15.759623887988313,,
,9000.0,1316.0,7048.0,2081.0,2230.0,3252.0,369.0,,,,-0.897852146583486,-2.95794533214889,-1.18914218141132,,-15.772873098089246,,
,9004.0,1315.0,7047.0,2082.0,2227.0,3244.0,370.0,,,,-0.897573138843813,-2.95794387726819,-1.19041093006801,,-15.777125541202839,,
,9004.0,1314.0,7049.0,2084.0,2240.0,3245.0,374.0,,,,-0.898004339490742,-2.95798409957294,-1.18849827941277,,-15.772563455164205,,
,9006.0,1316.0,7051.0,2082.0,2248.0,3258.0,368.0,,,,-0.898539704038691,-2.95804748882016,-1.18886690464229,,-15.759301033350573,,
,9008.0,1316.0,7055.0,2085.0,2254.0,3254.0,357.0,,,,-0.898302254429677,-2.95795465642373,-1.18979291322077,,-15.737220333713818,,
,9006.0,1313.0,7053.0,2083.0,2234.0,3257.0,356.0,,,,-0.898796401520277,-2.95790498043877,-1.18997056958027,,-15.705800283690726,,
,9010.0,1317.0,7054.0,2085.0,2224.0,3246.0,365.0,,,,-0.898557016168719,-2.95794920348718,-1.18878240006242,,-15.663963963421708,,
,9011.0,1314.0,7055.0,2083.0,2230.0,3253.0,366.0,,,,-0.898898811221002,-2.95799115881428,-1.18942768798638,,-15.609967233987769,,
,9013.0,1317.0,7058.0,2085.0,2234.0,3255.0,357.0,,,,-0.899461303346242,-2.95801030310555,-1.18948381621491,,-15.541347040684764,,
,9015.0,1315.0,7060.0,2088.0,2252.0,3259.0,343.0,,,,-0.899376192825601,-2.95799560522251,-1.1896524707995,,-15.454940894663565,,
,9015.0,1313.0,7063.0,2087.0,2253.0,3252.0,362.0,,,,-0.899477475306152,-2.95790060684271,-1.18870089327001,,-15.346980476626458,,
,9017.0,1314.0,7064.0,2088.0,2234.0,3242.0,378.0,,,,-0.900264579029673,-2.95795639744056,-1.18879365839868,,-15.213252332363622,,
,9017.0,1314.0,7062.0,2090.0,2234.0,3243.0,348.0,,,,-0.900947964358897,-2.95793802138754,-1.18820244979127,,-15.049308160347026,,
,9018.0,1316.0,7065.0,2088.0,2240.0,3242.0,352.0,,,,-0.901062613227019,-2.95797575111503,-1.1892218851688,,-14.850698387822112,,
,9016.0,1314.0,7060.0,2089.0,2232.0,3251.0,364.0,,,,-0.901657761539727,-2.95803926055079,-1.1892211485947,,-14.613198580813823,,
,9014.0,1311.0,7059.0,2088.0,2243.0,3258.0,342.0,,,,-0.900984633346818,-2.9580987438355,-1.18897607512627,,-14.333000786109771,,
,9011.0,1312.0,7054.0,2085.0,2236.0,3249.0,360.0,,,,-0.900935049675886,-2.95798588913702,-1.18930598494038,,-14.006850688578266,,
,9005.0,1311.0,7051.0,2084.0,2240.0,3253.0,359.0,,,,-0.900661171922132,-2.9581507466338,-1.18881277143762,,-13.63212370430551,,
,9000.0,1310.0,7045.0,2081.0,2231.0,3240.0,359.0,,,,-0.900871773899135,-2.95799063247774,-1.18974110242895,,-13.206845315345397,,
,8991.0,1309.0,7040.0,2079.0,2248.0,3229.0,355.0,,,,-0.900415898460646,-2.95806080080862,-1.18897093284498,,-12.729670242023682,,
,8979.0,1309.0,7029.0,2074.0,2235.0,3238.0,351.0,,,,-0.90013784478101,-2.95809650861772,-1.18958661308817,,-12.199839835299867,,
,8968.0,1306.0,7019.0,2073.0,2230.0,3247.0,373.0,,,,-0.900361843262776,-2.95804908028835,-1.19011572623621,,-11.617137154854825,,
,8957.0,1304.0,7011.0,2070.0,2247.0,3231.0,370.0,,,,-0.900333007471484,-2.95812674643535,-1.18968166323376,,-10.981855644984329,,
,8945.0,1302.0,7003.0,2066.0,2261.0,3237.0,358.0,,,,-0.900499688918696,-2.95807154393074,-1.19011083779937,,-10.294791708185604,,
,8930.0,1300.0,6994.0,2061.0,2265.0,3231.0,362.0,,,,-0.900228401189096,-2.95815044574981,-1.19001670940451,,-9.55726492172712,,
,8919.0,1298.0,6986.0,2057.0,2263.0,3219.0,385.0,,,,-0.900423140283151,-2.95809297556331,-1.18869948928548,,-8.77116255984194,,
,8914.0,1299.0,6984.0,2057.0,2249.0,3219.0,354.0,,,,-0.901307250535416,-2.95809809705686,-1.18970207575819,,-7.938997910530818,,
,8903.0,1298.0,6976.0,2051.0,2253.0,3226.0,346.0,,,,-0.901213761299105,-2.9580880207031,-1.18920598269186,,-7.063965878632443,,
,8893.0,1293.0,6969.0,2050.0,2278.0,3221.0,335.0,,,,-0.901791203153268,-2.95805139791072,-1.1878667641454,,-6.149976434724299,,
,8885.0,1296.0,6966.0,2051.0,2278.0,3260.0,333.0,,,,-0.902022191778909,-2.95801556461474,-1.18846999652117,,-5.201647863787661,,
2025-07-15 22:33:13,8881.0,1291.0,6964.0,2050.0,2282.0,3257.0,348.0,,,2025/07/15 10:33:13 PM,-0.902184128018107,-2.95807637020921,-1.18916871782568,,-4.224247161275364,,
,8878.0,1294.0,6963.0,2045.0,2272.0,3245.0,348.0,,,,-0.901990073654423,-2.95810366020928,-1.18852303966322,,-3.223572792028168,,
,8869.0,1289.0,6958.0,2047.0,2258.0,3246.0,367.0,,,,-0.902173763288378,-2.95800270525163,-1.18865394428023,,-2.2057837717819613,,
,8866.0,1292.0,6957.0,2044.0,2269.0,3247.0,359.0,,,,-0.90133312628384,-2.95804562745568,-1.18840667271148,,-1.1771875333497115,,
,8864.0,1291.0,6960.0,2047.0,2270.0,3253.0,340.0,,,,-0.901550347391514,-2.95809749931007,-1.18747483006791,,-0.14400635335784776,,
,8860.0,1289.0,6959.0,2047.0,2281.0,3246.0,355.0,,,,-0.901755647313072,-2.95802595365101,-1.18786312782553,,0.8878528892149549,,
,8859.0,1289.0,6959.0,2046.0,2286.0,3250.0,324.0,,,,-0.901584956853501,-2.95799571667222,-1.18815038875263,,1.9129992510273648,,
,8855.0,1288.0,6957.0,2047.0,2294.0,3240.0,340.0,,,,-0.901341041230616,-2.95795217877935,-1.18712580954872,,2.926704498947394,,
,8858.0,1291.0,6959.0,2048.0,2258.0,3222.0,321.0,,,,-0.901624025552871,-2.95800260144312,-1.18667647706821,,3.9249781225093843,,
,8855.0,1289.0,6960.0,2048.0,2270.0,3229.0,330.0,,,,-0.90141048357756,-2.95793390600011,-1.1868471748844,,4.904561789041648,,
,8854.0,1288.0,6962.0,2049.0,2280.0,3225.0,337.0,,,,-0.901025868861657,-2.95798947281581,-1.18647062066225,,5.862845728736654,,
,8853.0,1289.0,6963.0,2049.0,2248.0,3221.0,356.0,,,,-0.90174269948006,-2.95799552883851,-1.18666163416077,,6.797721050637502,,
,8853.0,1289.0,6964.0,2051.0,2249.0,3220.0,364.0,,,,-0.901076277424752,-2.95789620821022,-1.18587561756657,,7.707391309423468,,
,8852.0,1288.0,6966.0,2051.0,2244.0,3214.0,362.0,,,,-0.901814698483995,-2.95788284350121,-1.18624874581606,,8.59017192442471,,
,8853.0,1289.0,6967.0,2053.0,2248.0,3216.0,365.0,,,,-0.901675487463586,-2.95794047997098,-1.18617975742255,,9.444307027740143,,
,8852.0,1288.0,6966.0,2052.0,2248.0,3227.0,359.0,,,,-0.901736698922492,-2.95793561384853,-1.18623195282364,,10.267830909117505,,
,8849.0,1287.0,6971.0,2053.0,2252.0,3231.0,356.0,,,,-0.9025961331343,-2.95790797025777,-1.18567765689027,,11.058496344232564,,
,8850.0,1289.0,6971.0,2053.0,2251.0,3242.0,372.0,,,,-0.902253398715471,-2.95790524381661,-1.18590608669443,,11.813785006089129,,
,8849.0,1287.0,6968.0,2052.0,2234.0,3235.0,372.0,,,,-0.902481882247617,-2.95790726334903,-1.18589655565513,,12.53100576524365,,
,8846.0,1287.0,6966.0,2052.0,2241.0,3249.0,378.0,,,,-0.902416537824458,-2.95809917549949,-1.186771798443,,13.207475206523,,
,8848.0,1286.0,6969.0,2053.0,2220.0,3230.0,371.0,,,,-0.903035319949729,-2.95804150777276,-1.18754320478943,,13.840762369590594,,
,8844.0,1287.0,6969.0,2053.0,2236.0,3240.0,359.0,,,,-0.903774113239284,-2.9579735397386,-1.1862151129649,,14.4289691124558,,
,8844.0,1289.0,6973.0,2054.0,2229.0,3245.0,355.0,,,,-0.904301646159502,-2.95802289733193,-1.18638625380515,,14.971011696948203,,
,8841.0,1285.0,6970.0,2054.0,2244.0,3253.0,368.0,,,,-0.905002027555761,-2.95790716743527,-1.18713473531844,,15.466869937462688,,
,8837.0,1286.0,6971.0,2053.0,2257.0,3229.0,378.0,,,,-0.905053670669795,-2.95800965834156,-1.1868136194185,,15.917776275791203,,
,8836.0,1286.0,6972.0,2053.0,2273.0,3264.0,377.0,,,,-0.906409387493334,-2.95795362381081,-1.18563139797656,,16.32632465745242,,
,8836.0,1286.0,6970.0,2051.0,2285.0,3256.0,378.0,,,,-0.906452255631953,-2.95793271226175,-1.18580561651446,,16.696484430047562,,
,8834.0,1285.0,6970.0,2051.0,2249.0,3249.0,384.0,,,,-0.906448870166221,-2.95796388731465,-1.18581182156536,,17.033506736802067,,
,8833.0,1283.0,6967.0,2051.0,2255.0,3250.0,402.0,,,,-0.906500381167003,-2.95793135558128,-1.18636589136457,,17.343712072604372,,
,8834.0,1284.0,6969.0,2052.0,2280.0,3263.0,401.0,,,,-0.906688295718495,-2.95799252103464,-1.18536142310117,,17.634150800424674,,
,8830.0,1285.0,6968.0,2052.0,2291.0,3250.0,386.0,,,,-0.906614168636211,-2.95789211770658,-1.18624313454951,,17.912135447554903,,
,8833.0,1283.0,6967.0,2051.0,2304.0,3257.0,379.0,,,,-0.906609103364501,-2.95807492325897,-1.18594381344684,,18.18465487628927,,
,8829.0,1281.0,6966.0,2050.0,2276.0,3230.0,389.0,,,,-0.906506168376308,-2.95790540287828,-1.18548199953799,,18.457695172471997,,
,8832.0,1284.0,6967.0,2051.0,2291.0,3234.0,387.0,,,,-0.906682655338605,-2.95788827172017,-1.18504273963253,,18.7355089280487,,
,8830.0,1282.0,6970.0,2053.0,2268.0,3235.0,349.0,,,,-0.907336124560967,-2.95786554711195,-1.18487345195586,,19.019891763998682,,
,8828.0,1283.0,6968.0,2051.0,2270.0,3227.0,329.0,,,,-0.907375927713289,-2.95783581004311,-1.18398176701561,,19.309540242731405,,
,8827.0,1280.0,6965.0,2050.0,2277.0,3219.0,336.0,,,,-0.907559690686832,-2.95778811378666,-1.18389324081881,,19.59957569379902,,
,8829.0,1283.0,6966.0,2053.0,2282.0,3203.0,329.0,,,,-0.908259966714275,-2.95777447157368,-1.18409627048758,,19.881319806886538,,
,8830.0,1283.0,6971.0,2052.0,2272.0,3221.0,318.0,,,,-0.908053497882636,-2.95781363346639,-1.18265375671334,,20.14239587420878,,
,8830.0,1284.0,6969.0,2054.0,2268.0,3221.0,301.0,,,,-0.908456270994112,-2.95785311161108,-1.18282082075227,,20.36720218973144,,
,8831.0,1280.0,6968.0,2053.0,2249.0,3214.0,300.0,,,,-0.909175312406789,-2.95777376312739,-1.18255078488039,,20.53776347512497,,
,8832.0,1282.0,6971.0,2054.0,2259.0,3229.0,275.0,,,,-0.909915349476005,-2.95771774157532,-1.18245858744766,,20.63491843436722,,
,8834.0,1282.0,6972.0,2058.0,2244.0,3235.0,277.0,,,,-0.90970209338564,-2.95775903869174,-1.18209909437338,,20.639754362167835,,
,8833.0,1281.0,6974.0,2055.0,2243.0,3238.0,264.0,,,,-0.910696569728635,-2.95766855224775,-1.18135545293886,,20.535160246538684,,
,8836.0,1282.0,6976.0,2056.0,2266.0,3249.0,282.0,,,,-0.91129258008263,-2.95778802548857,-1.18114255885112,,20.307343885647914,,
,8836.0,1281.0,6980.0,2059.0,2283.0,3228.0,309.0,,,,-0.911624562629606,-2.95779356201375,-1.18063035967217,,19.947150864086222,,
,8836.0,1284.0,6980.0,2061.0,2273.0,3218.0,297.0,,,,-0.911569849263747,-2.95783874255243,-1.18120004693385,,19.451036579875275,,
,8839.0,1281.0,6981.0,2060.0,2267.0,3223.0,339.0,,,,-0.912151488958419,-2.95777483594783,-1.18146348875495,,18.82157654195159,,
,8839.0,1279.0,6985.0,2061.0,2269.0,3239.0,374.0,,,,-0.911936458860703,-2.95778450838085,-1.18143462703936,,18.06745092781275,,
,8843.0,1282.0,6987.0,2061.0,2286.0,3227.0,372.0,,,,-0.91210454407937,-2.95788258628252,-1.18199683090297,,17.202899950709018,,
,8845.0,1283.0,6990.0,2062.0,2314.0,3235.0,393.0,,,,-0.911992299337867,-2.95780644537008,-1.18126852395019,,16.246708005399203,,
,8846.0,1282.0,6990.0,2064.0,2293.0,3219.0,398.0,,,,-0.91163705997697,-2.95782072397151,-1.18188413746853,,15.220827180513025,,
,8849.0,1284.0,6993.0,2065.0,2313.0,3220.0,399.0,,,,-0.9117694052805,-2.95797508525326,-1.18159750547141,,14.14878619761764,,
,8850.0,1281.0,6995.0,2066.0,2308.0,3216.0,377.0,,,,-0.912050981222861,-2.95785393869287,-1.18219267698167,,13.054044753960085,,
,8855.0,1282.0,6998.0,2067.0,2299.0,3221.0,397.0,,,,-0.912621786228638,-2.95780252527205,-1.18118623481176,,11.958446397419541,,
,8856.0,1282.0,7003.0,2069.0,2290.0,3206.0,402.0,,,,-0.913226028372539,-2.95784936028631,-1.18237799661179,,10.880900016030544,,
,8862.0,1283.0,7001.0,2069.0,2285.0,3213.0,396.0,,,,-0.9140452005089,-2.95782753909913,-1.1815584262969,,9.836386474845822,,
,8862.0,1282.0,7005.0,2067.0,2293.0,3230.0,379.0,,,,-0.91404965969111,-2.95788664044364,-1.18091229647084,,8.835348033058514,,
,8867.0,1282.0,7006.0,2071.0,2284.0,3234.0,376.0,,,,-0.914513830018544,-2.95784734299657,-1.18023484410142,,7.88347820427853,,
,8870.0,1283.0,7010.0,2072.0,2305.0,3225.0,382.0,,,,-0.91546918531765,-2.95787901566981,-1.18053467873002,,6.981892288353064,,
,8871.0,1282.0,7010.0,2074.0,2298.0,3225.0,384.0,,,,-0.915520249510313,-2.95779459127002,-1.17984555251109,,6.12762715123347,,
,8875.0,1283.0,7014.0,2074.0,2295.0,3222.0,399.0,,,,-0.9160010483217,-2.95774614835989,-1.17959164425412,,5.3143959974446116,,
,8874.0,1282.0,7013.0,2073.0,2290.0,3228.0,375.0,,,,-0.915968177778738,-2.95789023673483,-1.18009666508983,,4.533512116485697,,
,8882.0,1281.0,7018.0,2074.0,2270.0,3214.0,385.0,,,,-0.916469107459862,-2.95782097798635,-1.18005866674582,,3.774895077744516,,
,8881.0,1283.0,7016.0,2077.0,2260.0,3227.0,389.0,,,,-0.916187950757016,-2.95785632258336,-1.18108840034546,,3.0280808697987958,,
,8883.0,1284.0,7021.0,2077.0,2272.0,3232.0,403.0,,,,-0.915559683067574,-2.95797771555868,-1.18041378399275,,2.2831691765436886,,
,8888.0,1284.0,7023.0,2078.0,2259.0,3227.0,379.0,,,,-0.915728698371992,-2.95789602403296,-1.18029048910665,,1.5316519484461275,,
,8890.0,1282.0,7022.0,2080.0,2284.0,3224.0,392.0,,,,-0.916470735851855,-2.95781559919356,-1.18010753797875,,0.7670764198185441,,
,8894.0,1281.0,7028.0,2079.0,2291.0,3207.0,406.0,,,,-0.9165144083636,-2.95785740973851,-1.1802166749796,,-0.014494990757151972,,
,8896.0,1282.0,7027.0,2080.0,2300.0,3217.0,411.0,,,,-0.916409964246388,-2.95795885712336,-1.18047368824586,,-0.8142526504388127,,
,8898.0,1280.0,7029.0,2079.0,2285.0,3212.0,427.0,,,,-0.916719462761103,-2.95779750701473,-1.18008500375097,,-1.6306427268080703,,
,8900.0,1283.0,7030.0,2083.0,2306.0,3220.0,416.0,,,,-0.916441568900412,-2.95779780388296,-1.18047415703877,,-2.4595917466546964,,
,8901.0,1283.0,7030.0,2081.0,2296.0,3216.0,395.0,,,,-0.916819128219584,-2.95786747834897,-1.17951440468651,,-3.294919045387778,,
,8899.0,1282.0,7028.0,2081.0,2290.0,3216.0,389.0,,,,-0.916957241893711,-2.95782445081297,-1.17947883010098,,-4.128887738763106,,
,8896.0,1277.0,7026.0,2079.0,2298.0,3213.0,402.0,,,,-0.917409385844479,-2.95776079445377,-1.17989769909719,,-4.952836236510933,,
,8893.0,1281.0,7027.0,2078.0,2288.0,3212.0,405.0,,,,-0.917377744544307,-2.95793620336259,-1.18043059453692,,-5.757831225078025,,
,8887.0,1279.0,7019.0,2076.0,2275.0,3214.0,394.0,,,,-0.916588890572039,-2.95797496867326,-1.18122062693096,,-6.535287805635166,,
,8882.0,1278.0,7013.0,2075.0,2270.0,3225.0,396.0,,,,-0.916796474645531,-2.95788067706666,-1.18209524111526,,-7.277510719046464,,
,8874.0,1275.0,7006.0,2069.0,2278.0,3227.0,382.0,,,,-0.917259007010021,-2.95803356616817,-1.18196237862413,,-7.978120740612255,,
,8864.0,1270.0,6999.0,2066.0,2279.0,3221.0,359.0,,,,-0.916735511046422,-2.95798862546378,-1.18283082249194,,-8.632341930693833,,
,8851.0,1274.0,6990.0,2064.0,2238.0,3219.0,394.0,,,,-0.91701747076336,-2.95801525429781,-1.18240771881335,,-9.23713848645391,,
,8841.0,1270.0,6978.0,2057.0,2233.0,3228.0,393.0,,,,-0.917691414165115,-2.95815315168201,-1.18383046520663,,-9.791204047321516,,
,8826.0,1270.0,6972.0,2055.0,2243.0,3210.0,413.0,,,,-0.917160261731558,-2.95819382077343,-1.18350054181466,,-10.294820110277607,,
,8818.0,1268.0,6964.0,2051.0,2244.0,3205.0,412.0,,,,-0.917034989721691,-2.95810865885932,-1.18380234535862,,-10.749611696934082,,
,8806.0,1267.0,6959.0,2049.0,2244.0,3216.0,416.0,,,,-0.916448854391789,-2.95816072973134,-1.18436930702766,,-11.158235919950206,,
,8797.0,1267.0,6950.0,2046.0,2266.0,3217.0,413.0,,,,-0.915908343986715,-2.95821559170314,-1.18485147840223,,-11.524041994168133,,
,8787.0,1264.0,6945.0,2042.0,2280.0,3224.0,380.0,,,,-0.915386883912071,-2.95820302592036,-1.1851009009329,,-11.850739763128546,,
,8780.0,1260.0,6941.0,2041.0,2261.0,3222.0,366.0,,,,-0.915886492335223,-2.95821888556821,-1.18616295966605,,-12.142108644404821,,
,8777.0,1264.0,6939.0,2041.0,2263.0,3215.0,396.0,,,,-0.915323871099873,-2.95833359439022,-1.18545413140674,,-12.401770921839043,,
,8771.0,1263.0,6935.0,2037.0,2285.0,3228.0,372.0,,,,-0.915797516505143,-2.95833006753074,-1.18646972803518,,-12.633043394682906,,
,8766.0,1265.0,6936.0,2041.0,2264.0,3230.0,363.0,,,,-0.915861949873484,-2.95828835257026,-1.18639808249047,,-12.838870245928847,,
,8763.0,1260.0,6932.0,2037.0,2268.0,3237.0,366.0,,,,-0.915759755716102,-2.95839892344459,-1.18739040032674,,-13.02182847989214,,
,8762.0,1261.0,6934.0,2036.0,2275.0,3240.0,360.0,,,,-0.914318103658629,-2.95835834623509,-1.18718624214951,,-13.184186985667242,,
,8761.0,1262.0,6935.0,2039.0,2274.0,3212.0,387.0,,,,-0.914711826054719,-2.95835242284899,-1.18678250627384,,-13.327993470525795,,
,8760.0,1264.0,6934.0,2037.0,2261.0,3222.0,389.0,,,,-0.914745220832717,-2.95836364744433,-1.18747332338351,,-13.455162009996881,,
,8758.0,1260.0,6936.0,2038.0,2272.0,3239.0,371.0,,,,-0.914455450381192,-2.95846892792522,-1.18838851022258,,-13.567537901401407,,
,8759.0,1261.0,6939.0,2036.0,2310.0,3228.0,341.0,,,,-0.913717504375512,-2.95846194086464,-1.18786465658062,,-13.666924178809566,,
,8757.0,1263.0,6938.0,2039.0,2308.0,3204.0,361.0,,,,-0.914055134927506,-2.95843575391035,-1.18831801799322,,-13.75506316218169,,
,8757.0,1261.0,6941.0,2040.0,2309.0,3216.0,360.0,,,,-0.913860448593225,-2.95844986544198,-1.18876864248881,,-13.833574904068318,,
,8759.0,1261.0,6943.0,2037.0,2327.0,3211.0,357.0,,,,-0.914495418059096,-2.95846945077266,-1.18919978510277,,-13.90386134441295,,
,8759.0,1261.0,6943.0,2040.0,2312.0,3218.0,344.0,,,,-0.914344793741019,-2.95851105405781,-1.18881985735057,,-13.966989916654478,,
,8759.0,1260.0,6947.0,2039.0,2321.0,3232.0,373.0,,,,-0.913404701102627,-2.95848228911406,-1.18932402170308,,-14.023573053694438,,
,8759.0,1262.0,6943.0,2040.0,2316.0,3229.0,381.0,,,,-0.913490696226344,-2.95860671128576,-1.19011087868742,,-14.07366043750425,,
,8762.0,1260.0,6948.0,2039.0,2307.0,3218.0,376.0,,,,-0.912916480593394,-2.95861311267523,-1.19057396497388,,-14.116658891439979,,
,8760.0,1261.0,6951.0,2043.0,2320.0,3223.0,367.0,,,,-0.91234127431997,-2.95868114153296,-1.19133664207853,,-14.151290633754549,,
,8763.0,1260.0,6950.0,2043.0,2290.0,3225.0,393.0,,,,-0.913008632550409,-2.95876898920559,-1.19251505538708,,-14.17559481127123,,
,8762.0,1262.0,6950.0,2044.0,2285.0,3233.0,402.0,,,,-0.913008185553061,-2.95872099663416,-1.19274004195117,,-14.186971315807371,,
,8761.0,1257.0,6951.0,2041.0,2290.0,3219.0,405.0,,,,-0.913295887952454,-2.95878071561144,-1.19158109464009,,-14.182261859129888,,
,8763.0,1259.0,6950.0,2040.0,2289.0,3223.0,389.0,,,,-0.913623919983489,-2.95875114349276,-1.19176081545629,,-14.157862339353663,,
,8762.0,1259.0,6951.0,2045.0,2293.0,3233.0,396.0,,,,-0.913517989217123,-2.95870698481438,-1.19279608868979,,-14.109862000986915,,
,8759.0,1260.0,6951.0,2044.0,2302.0,3232.0,420.0,,,,-0.913881498895949,-2.95875299040623,-1.19277535770818,,-14.03420672439758,,
,8761.0,1258.0,6953.0,2043.0,2282.0,3227.0,409.0,,,,-0.91333229720851,-2.958716283711,-1.19342347730884,,-13.926884109522026,,
,8759.0,1256.0,6947.0,2042.0,2268.0,3222.0,415.0,,,,-0.912760902514081,-2.95873828544183,-1.19284402369101,,-13.784126218024872,,
,8757.0,1258.0,6949.0,2042.0,2281.0,3214.0,410.0,,,,-0.91217820563316,-2.95883267044867,-1.19287683995599,,-13.6026224867566,,
,8755.0,1257.0,6948.0,2042.0,2302.0,3221.0,412.0,,,,-0.911783730760561,-2.95885545522662,-1.19439255549957,,-13.379731639045888,,
,8758.0,1256.0,6949.0,2041.0,2292.0,3211.0,415.0,,,,-0.911351432561449,-2.9588500367447,-1.1945669251587,,-13.11367867970804,,
,8754.0,1256.0,6947.0,2040.0,2258.0,3213.0,422.0,,,,-0.91049446752218,-2.95888285293294,-1.19510943885567,,-12.803722057432537,,
,8754.0,1258.0,6950.0,2039.0,2252.0,3209.0,417.0,,,,-0.909342271045123,-2.95891927109377,-1.19517815750416,,-12.450276794674272,,
,8755.0,1258.0,6948.0,2043.0,2285.0,3215.0,394.0,,,,-0.909337416165526,-2.9589749880946,-1.19679147658851,,-12.054981369703384,,
,8753.0,1256.0,6950.0,2042.0,2287.0,3216.0,414.0,,,,-0.908304833821582,-2.95903521526076,-1.19739851334104,,-11.620699386694891,,
,8753.0,1253.0,6947.0,2041.0,2268.0,3224.0,386.0,,,,-0.908034702900581,-2.95910973379966,-1.19823964028083,,-11.151452292469441,,
,8752.0,1254.0,6947.0,2039.0,2272.0,3219.0,376.0,,,,-0.907594614094121,-2.95912847712503,-1.19874441087627,,-10.652286968984384,,
,8752.0,1257.0,6950.0,2042.0,2273.0,3233.0,363.0,,,,-0.907241537095315,-2.95910039697331,-1.1994764806214,,-10.129090694889651,,
,8753.0,1255.0,6949.0,2043.0,2249.0,3225.0,360.0,,,,-0.907214964044348,-2.95909722832373,-1.2005135131548,,-9.58837301593583,,
,8753.0,1255.0,6950.0,2044.0,2256.0,3230.0,368.0,,,,-0.906492932427788,-2.95921628549086,-1.20118684428494,,-9.037037062622108,,
,8754.0,1255.0,6950.0,2043.0,2265.0,3228.0,385.0,,,,-0.906462928871692,-2.95913103236498,-1.20056097925787,,-8.482161124574544,,
,8756.0,1255.0,6952.0,2043.0,2256.0,3233.0,370.0,,,,-0.906259962050757,-2.95926114440469,-1.20155210663452,,-7.9308058128424905,,
,8759.0,1254.0,6954.0,2045.0,2266.0,3225.0,371.0,,,,-0.906328878558867,-2.95918539918437,-1.20121771077914,,-7.389854510588779,,
2025-07-15 22:33:14,8761.0,1256.0,6957.0,2046.0,2270.0,3216.0,373.0,,,2025/07/15 10:33:14 PM,-0.906309482973751,-2.95926952444699,-1.20227339196838,,-6.865886413621449,,
,8761.0,1253.0,6954.0,2043.0,2250.0,3229.0,366.0,,,,-0.90655365443458,-2.95928996377831,-1.20124198831633,,-6.365073259552162,,
,8763.0,1255.0,6960.0,2047.0,2247.0,3214.0,372.0,,,,-0.906080048027119,-2.95926572613379,-1.20174135113965,,-5.893083700786448,,
,8766.0,1255.0,6960.0,2047.0,2258.0,3228.0,389.0,,,,-0.906283851875949,-2.95923977444757,-1.20132181283474,,-5.45497448697647,,
,8768.0,1256.0,6967.0,2050.0,2263.0,3238.0,394.0,,,,-0.905798813854855,-2.95929038246477,-1.20142974579227,,-5.055047059157295,,
,8768.0,1254.0,6963.0,2049.0,2264.0,3232.0,371.0,,,,-0.906087852997634,-2.95930745577433,-1.20290745125132,,-4.696653454731212,,
,8771.0,1257.0,6968.0,2048.0,2263.0,3218.0,361.0,,,,-0.90601014005264,-2.95924736181634,-1.20172119142085,,-4.381946614181174,,
,8772.0,1257.0,6965.0,2051.0,2258.0,3238.0,379.0,,,,-0.906398331865825,-2.95929752881375,-1.20279538959901,,-4.1115852035428455,,
,8775.0,1256.0,6971.0,2052.0,2258.0,3245.0,378.0,,,,-0.906824282559459,-2.95946413840233,-1.20245685220975,,-3.884418737561685,,
,8776.0,1255.0,6972.0,2049.0,2246.0,3230.0,390.0,,,,-0.906702374857025,-2.95944123074669,-1.20316777994354,,-3.697192122424708,,
,8779.0,1256.0,6973.0,2052.0,2244.0,3235.0,385.0,,,,-0.906189937439588,-2.95929467919626,-1.20278386804468,,-3.5443174294941096,,
,8782.0,1253.0,6974.0,2051.0,2261.0,3237.0,375.0,,,,-0.905948479665475,-2.95932904626689,-1.20290120206951,,-3.417763004286455,,
,8784.0,1257.0,6978.0,2054.0,2252.0,3227.0,370.0,,,,-0.906406266177136,-2.9593540122011,-1.20357238417495,,-3.307104735353329,,
,8787.0,1255.0,6976.0,2055.0,2250.0,3229.0,402.0,,,,-0.906243731337814,-2.95948495495152,-1.20271535556909,,-3.1997712948650254,,
,8789.0,1256.0,6979.0,2056.0,2244.0,3232.0,369.0,,,,-0.905877368237212,-2.95935972879847,-1.2026904159646,,-3.0814957332748754,,
,8793.0,1257.0,6984.0,2058.0,2244.0,3243.0,371.0,,,,-0.90593832948066,-2.95951645657932,-1.20343835358893,,-2.9369628185439334,,
,8797.0,1256.0,6990.0,2058.0,2239.0,3244.0,371.0,,,,-0.906065014144219,-2.95950010017602,-1.20245192926795,,-2.750618758004417,,
,8797.0,1255.0,6988.0,2058.0,2238.0,3248.0,373.0,,,,-0.906421714639273,-2.95949652044746,-1.20337697208048,,-2.5075909820668145,,
,8799.0,1255.0,6989.0,2058.0,2231.0,3237.0,400.0,,,,-0.906720799425232,-2.95938340404853,-1.20409602906285,,-2.194652463742299,,
,8803.0,1258.0,6995.0,2062.0,2246.0,3226.0,402.0,,,,-0.906217766259651,-2.9593983123726,-1.20388139719994,,-1.801157449522026,,
,8808.0,1258.0,6996.0,2060.0,2263.0,3226.0,404.0,,,,-0.906402763333509,-2.95940397200965,-1.20361472017149,,-1.3198722431791208,,
,8809.0,1257.0,6998.0,2062.0,2253.0,3227.0,422.0,,,,-0.905735276806123,-2.95950219768735,-1.20327746894951,,-0.7476252509085302,,
,8813.0,1258.0,6998.0,2063.0,2284.0,3228.0,417.0,,,,-0.906502609392404,-2.9594890871306,-1.20420082380234,,-0.08570592969470167,,
,8817.0,1258.0,7001.0,2066.0,2277.0,3230.0,404.0,,,,-0.906149039195791,-2.95953020166774,-1.20378051427392,,0.6600451860221556,,
,8817.0,1257.0,7008.0,2066.0,2267.0,3223.0,401.0,,,,-0.906196061455008,-2.95937375708344,-1.20375006033016,,1.479491379026012,,
,8822.0,1257.0,7007.0,2068.0,2259.0,3226.0,400.0,,,,-0.906290069137009,-2.95946132506013,-1.20441006412747,,2.3588037526050116,,
,8822.0,1257.0,7008.0,2066.0,2236.0,3222.0,392.0,,,,-0.905868101138802,-2.959413530799,-1.20316015920767,,3.2813792395317147,,
,8826.0,1258.0,7010.0,2070.0,2248.0,3223.0,372.0,,,,-0.90633598435457,-2.95936096563528,-1.20387696856168,,4.228997371630211,,
,8830.0,1260.0,7014.0,2072.0,2246.0,3216.0,379.0,,,,-0.905848553962518,-2.95934135781306,-1.20351568436825,,5.183108499313837,,
,8836.0,1260.0,7018.0,2071.0,2256.0,3209.0,391.0,,,,-0.905198132596639,-2.95943536191231,-1.20322547023595,,6.126129239687877,,
,8836.0,1259.0,7017.0,2069.0,2257.0,3221.0,389.0,,,,-0.90467714489614,-2.95932571260847,-1.20372625733868,,7.042621459170124,,
,8840.0,1259.0,7015.0,2070.0,2236.0,3234.0,390.0,,,,-0.905072655705855,-2.95937206814343,-1.20334306628881,,7.920247205367164,,
,8843.0,1259.0,7022.0,2072.0,2258.0,3234.0,388.0,,,,-0.904193669001034,-2.95928688258665,-1.20417520040532,,8.750420061683805,,
,8848.0,1260.0,7026.0,2073.0,2266.0,3239.0,392.0,,,,-0.904072716484867,-2.9593195533091,-1.20386195182374,,9.528609067067567,,
,8848.0,1259.0,7026.0,2071.0,2269.0,3237.0,397.0,,,,-0.904035721037225,-2.9593546196149,-1.20443560073164,,10.254289354596336,,
,8849.0,1260.0,7025.0,2074.0,2262.0,3235.0,419.0,,,,-0.903319668144777,-2.95938339737566,-1.2046155984203,,10.930568302751315,,
,8850.0,1260.0,7029.0,2077.0,2255.0,3235.0,410.0,,,,-0.903264980004011,-2.95939299677862,-1.20511460742087,,11.563542802258617,,
,8851.0,1257.0,7029.0,2073.0,2263.0,3235.0,399.0,,,,-0.902999931037332,-2.95932765556179,-1.20558226447841,,12.161460508454372,,
,8845.0,1260.0,7025.0,2072.0,2244.0,3245.0,382.0,,,,-0.902605172102328,-2.95940364892842,-1.2051759750631,,12.733766706155546,,
,8844.0,1256.0,7019.0,2068.0,2249.0,3236.0,398.0,,,,-0.902349299335619,-2.95944682181044,-1.20556468544356,,13.290120935592233,,
,8840.0,1256.0,7016.0,2068.0,2242.0,3235.0,383.0,,,,-0.902552969066748,-2.95957041538349,-1.20506806420369,,13.839465328943374,,
,8836.0,1256.0,7011.0,2066.0,2237.0,3238.0,385.0,,,,-0.902134813454854,-2.95951660225266,-1.2054179953154,,14.38921927590726,,
,8827.0,1255.0,7005.0,2063.0,2230.0,3254.0,393.0,,,,-0.902135806371028,-2.95938508772324,-1.20605959599778,,14.944660825835218,,
,8817.0,1250.0,6995.0,2057.0,2244.0,3234.0,400.0,,,,-0.902650516071719,-2.959533901696,-1.20622796711282,,15.508533133835984,,
,8806.0,1251.0,6991.0,2055.0,2242.0,3235.0,414.0,,,,-0.902093802789963,-2.9594822855038,-1.20546121796538,,16.0808859985744,,
,8792.0,1249.0,6980.0,2051.0,2218.0,3230.0,396.0,,,,-0.903504262622874,-2.9594946803766,-1.20639656815355,,16.659132787846392,,
,8786.0,1248.0,6977.0,2049.0,2224.0,3226.0,400.0,,,,-0.903833164606502,-2.95948801867233,-1.20565809180683,,17.238277695135793,,
,8777.0,1246.0,6966.0,2044.0,2227.0,3224.0,414.0,,,,-0.903912485063392,-2.95947764857611,-1.20508387549572,,17.81125241524285,,
,8768.0,1247.0,6963.0,2044.0,2229.0,3224.0,403.0,,,,-0.904110451755693,-2.95937211243755,-1.20518878328714,,18.369298131066127,,
,8761.0,1245.0,6956.0,2040.0,2240.0,3229.0,397.0,,,,-0.904166657854521,-2.95936969526322,-1.20428604359747,,18.902338798434357,,
,8755.0,1247.0,6955.0,2041.0,2246.0,3238.0,417.0,,,,-0.903718598871628,-2.95935558285698,-1.20517088666316,,19.39931282029751,,
,8748.0,1246.0,6951.0,2034.0,2241.0,3240.0,398.0,,,,-0.903417993729247,-2.95934653736588,-1.20421822160777,,19.84845740107627,,
,8741.0,1243.0,6947.0,2034.0,2242.0,3249.0,417.0,,,,-0.903772612627565,-2.95931770468193,-1.20471684143387,,20.237566724839787,,
,8741.0,1243.0,6946.0,2035.0,2226.0,3243.0,422.0,,,,-0.903947218232892,-2.95942937001623,-1.20451734176669,,20.5542649119047,,
,8736.0,1246.0,6947.0,2038.0,2229.0,3252.0,431.0,,,,-0.90321435255251,-2.95935780579568,-1.20411241930129,,20.786341637624837,,
,8736.0,1243.0,6946.0,2035.0,2251.0,3251.0,433.0,,,,-0.903114270947737,-2.95937610987795,-1.20497463608281,,20.922188907196308,,
,8732.0,1243.0,6945.0,2033.0,2241.0,3243.0,399.0,,,,-0.903506496460941,-2.95942915967798,-1.20601315766874,,20.951352751946278,,
,8733.0,1242.0,6947.0,2033.0,2258.0,3251.0,383.0,,,,-0.903576389678792,-2.95940147079639,-1.2048850911442,,20.865179661370615,,
,8736.0,1242.0,6947.0,2034.0,2263.0,3246.0,370.0,,,,-0.903250240940617,-2.95940765427424,-1.20443414282575,,20.657503512931346,,
,8733.0,1242.0,6948.0,2033.0,2249.0,3262.0,381.0,,,,-0.903142709303556,-2.95939849128395,-1.20554623504106,,20.32529310800888,,
,8733.0,1243.0,6948.0,2033.0,2267.0,3251.0,317.0,,,,-0.903184110829453,-2.95947252678709,-1.20565145668538,,19.869168702638063,,
,8735.0,1242.0,6953.0,2036.0,2263.0,3256.0,344.0,,,,-0.903384632272623,-2.95938738148658,-1.20585187349219,,19.293700369509995,,
,8736.0,1245.0,6953.0,2038.0,2259.0,3250.0,362.0,,,,-0.903211627695194,-2.95939748715073,-1.205757463114,,18.607420939631062,,
,8736.0,1243.0,6952.0,2039.0,2244.0,3248.0,378.0,,,,-0.903611642695865,-2.95943867444612,-1.20615471810427,,17.82251845084038,,
,8738.0,1242.0,6953.0,2038.0,2244.0,3236.0,404.0,,,,-0.903946937822644,-2.95929194389827,-1.20662801733389,,16.95421268626753,,
,8739.0,1245.0,6954.0,2036.0,2240.0,3256.0,397.0,,,,-0.904145654808789,-2.95932981160681,-1.2064280581964,,16.01986211327051,,
,8743.0,1243.0,6957.0,2037.0,2252.0,3241.0,401.0,,,,-0.90431181799196,-2.95931210880944,-1.20544969351675,,15.037885494377486,,
,8744.0,1244.0,6957.0,2041.0,2256.0,3234.0,393.0,,,,-0.904937047586013,-2.95937724197748,-1.20509767041035,,14.026610086279984,,
,8741.0,1241.0,6956.0,2038.0,2244.0,3229.0,402.0,,,,-0.904322496890747,-2.95940095746832,-1.20493383436532,,13.003169135452088,,
,8743.0,1242.0,6961.0,2041.0,2251.0,3231.0,423.0,,,,-0.904083540735336,-2.95922047473893,-1.20475244872133,,11.98256143927332,,
,8746.0,1243.0,6960.0,2041.0,2235.0,3256.0,421.0,,,,-0.904386466234724,-2.95932558312,-1.20460168914321,,10.976956953270738,,
,8745.0,1241.0,6958.0,2040.0,2234.0,3252.0,400.0,,,,-0.903565967081479,-2.95921433095245,-1.20397540487531,,9.995292677712285,,
,8743.0,1243.0,6961.0,2041.0,2228.0,3246.0,401.0,,,,-0.903749207194891,-2.95915356126184,-1.20400442770104,,9.04316247303554,,
,8747.0,1243.0,6961.0,2041.0,2224.0,3234.0,407.0,,,,-0.903234517474931,-2.95909598996492,-1.20353457604728,,8.12297081013346,,
,8744.0,1243.0,6961.0,2043.0,2222.0,3240.0,382.0,,,,-0.903576413677381,-2.95911767439668,-1.20305101201326,,7.234297337905302,,
,8745.0,1242.0,6963.0,2040.0,2218.0,3238.0,384.0,,,,-0.903385373014416,-2.95911412374656,-1.20379227229847,,6.374406851979346,,
,8742.0,1242.0,6960.0,2042.0,2218.0,3222.0,365.0,,,,-0.903022384929457,-2.95916061176583,-1.20410730927617,,5.538836562681901,,
,8743.0,1242.0,6961.0,2040.0,2229.0,3232.0,396.0,,,,-0.902351914164753,-2.95908869060882,-1.20331675958089,,4.721998025830092,,
,8742.0,1242.0,6962.0,2040.0,2230.0,3227.0,410.0,,,,-0.901643267797041,-2.95912703266833,-1.20334366460942,,3.917743409493453,,
,8743.0,1241.0,6962.0,2040.0,2240.0,3246.0,405.0,,,,-0.901459309251442,-2.95902555430493,-1.20388648650235,,3.11986335851273,,
,8743.0,1241.0,6960.0,2039.0,2245.0,3245.0,400.0,,,,-0.900987347224232,-2.95913634437645,-1.20349534669356,,2.3225038838520375,,
,8742.0,1238.0,6960.0,2042.0,2234.0,3253.0,392.0,,,,-0.901056511104454,-2.9591024233411,-1.20283706845154,,1.5205080131545916,,
,8743.0,1240.0,6962.0,2038.0,2241.0,3246.0,414.0,,,,-0.900573999933548,-2.95904299392359,-1.20210905040111,,0.7096990049834131,,
,8743.0,1242.0,6962.0,2043.0,2236.0,3250.0,413.0,,,,-0.90098267921659,-2.95902055895258,-1.20214631755815,,-0.11287795834285574,,
,8745.0,1241.0,6965.0,2040.0,2228.0,3254.0,388.0,,,,-0.901195137037916,-2.95897312003541,-1.20223797655422,,-0.9487486618137541,,
,8743.0,1237.0,6962.0,2041.0,2233.0,3236.0,384.0,,,,-0.901050353963956,-2.95891885626399,-1.20213231622812,,-1.7978448960693214,,
,8746.0,1240.0,6965.0,2040.0,2248.0,3261.0,412.0,,,,-0.900926863982678,-2.95891973111325,-1.20165938524561,,-2.6584013280647367,,
,8746.0,1242.0,6964.0,2041.0,2250.0,3249.0,439.0,,,,-0.901186623857958,-2.95900574887362,-1.20162072496235,,-3.526939124528896,,
,8749.0,1240.0,6965.0,2043.0,2254.0,3247.0,436.0,,,,-0.90131046824609,-2.95886269793793,-1.20092785663907,,-4.398358571985573,,
,8748.0,1239.0,6967.0,2042.0,2234.0,3266.0,410.0,,,,-0.901024853066622,-2.95887180682268,-1.20048070127003,,-5.266153653779232,,
,8751.0,1240.0,6969.0,2043.0,2244.0,3253.0,407.0,,,,-0.901658842627976,-2.95870137601302,-1.1993505943713,,-6.1227479114006105,,
,8755.0,1241.0,6972.0,2045.0,2251.0,3255.0,403.0,,,,-0.901791971303341,-2.95877174136471,-1.19914733803302,,-6.959935434876514,,
,8759.0,1242.0,6973.0,2046.0,2254.0,3251.0,401.0,,,,-0.901626221736065,-2.95875189658504,-1.19938710062332,,-7.769395961861476,,
,8760.0,1241.0,6972.0,2046.0,2248.0,3244.0,402.0,,,,-0.901964316500649,-2.95876490621344,-1.20061023993545,,-8.543241033203515,,
,8760.0,1243.0,6975.0,2044.0,2231.0,3234.0,426.0,,,,-0.902379539255294,-2.95868055708103,-1.19873804326412,,-9.274540680258022,,
,8764.0,1245.0,6978.0,2047.0,2247.0,3231.0,441.0,,,,-0.902747203537889,-2.95876804779852,-1.19848241302125,,-9.957778332383537,,
,8767.0,1241.0,6978.0,2047.0,2251.0,3229.0,439.0,,,,-0.90226215268979,-2.95870765819067,-1.19868928983419,,-10.589186207959132,,
,8771.0,1244.0,6982.0,2049.0,2275.0,3250.0,445.0,,,,-0.903486997824153,-2.95878002683615,-1.19909656435015,,-11.166924749989805,,
,8771.0,1242.0,6982.0,2050.0,2235.0,3245.0,425.0,,,,-0.903601244340615,-2.95868829360708,-1.19785670447678,,-11.691087285767244,,
,8775.0,1243.0,6985.0,2049.0,2250.0,3235.0,421.0,,,,-0.904270845722857,-2.95860966238326,-1.19681725376444,,-12.163532945983798,,
,8781.0,1245.0,6988.0,2051.0,2254.0,3237.0,409.0,,,,-0.90482736884558,-2.95852912121091,-1.19563340976632,,-12.587572993336169,,
,8785.0,1244.0,6992.0,2051.0,2237.0,3235.0,426.0,,,,-0.905252063836309,-2.95851273331816,-1.19465705369791,,-12.96755350903201,,
,8788.0,1242.0,6991.0,2052.0,2237.0,3245.0,422.0,,,,-0.906835549841851,-2.95844487313655,-1.19415976531454,,-13.308387630614554,,
,8789.0,1243.0,6993.0,2051.0,2240.0,3242.0,398.0,,,,-0.907917248440811,-2.95849692463925,-1.19154869158063,,-13.615092296261047,,
,8791.0,1245.0,6996.0,2056.0,2241.0,3234.0,420.0,,,,-0.908825013186933,-2.95829885855564,-1.18954859183636,,-13.892378721933728,,
,8797.0,1245.0,6999.0,2054.0,2249.0,3231.0,415.0,,,,-0.910369575233704,-2.95815161096041,-1.18833172248916,,-14.144334690802907,,
,8799.0,1244.0,7002.0,2055.0,2240.0,3232.0,390.0,,,,-0.91015960892095,-2.95814005528892,-1.18690325640581,,-14.374222660018187,,
,8803.0,1248.0,7002.0,2057.0,2234.0,3216.0,422.0,,,,-0.910444594010661,-2.95808395247656,-1.18470678524076,,-14.584402951993358,,
,8804.0,1246.0,7005.0,2057.0,2230.0,3234.0,419.0,,,,-0.911514566141815,-2.95788052118677,-1.18487034296433,,-14.77637728503195,,
,8810.0,1248.0,7008.0,2058.0,2219.0,3235.0,410.0,,,,-0.911472136796672,-2.95779211777799,-1.18374582402421,,-14.950935047423572,,
,8812.0,1245.0,7009.0,2057.0,2223.0,3251.0,393.0,,,,-0.91191635196449,-2.95772894666491,-1.18068132372624,,-15.108373286151977,,
,8815.0,1248.0,7013.0,2059.0,2223.0,3233.0,406.0,,,,-0.912534551259165,-2.95760744430094,-1.18002558008596,,-15.248752429604465,,
,8820.0,1250.0,7014.0,2061.0,2232.0,3224.0,382.0,,,,-0.913097412146818,-2.95755425113239,-1.17904071437159,,-15.37214536250069,,
,8823.0,1247.0,7016.0,2064.0,2223.0,3222.0,392.0,,,,-0.913877096910218,-2.95735511727853,-1.17830128031964,,-15.478839621560994,,
,8827.0,1246.0,7019.0,2061.0,2234.0,3243.0,402.0,,,,-0.913879896916041,-2.95732818880892,-1.17701630508246,,-15.569461452308778,,
,8827.0,1246.0,7023.0,2062.0,2223.0,3247.0,408.0,,,,-0.913709986869939,-2.95719501254899,-1.17543228625436,,-15.645004157501814,,
,8835.0,1249.0,7024.0,2066.0,2217.0,3245.0,426.0,,,,-0.913540408412943,-2.95712201172831,-1.17421230675876,,-15.706758238824921,,
,8836.0,1249.0,7026.0,2064.0,2219.0,3246.0,424.0,,,,-0.913267304285581,-2.95704556838188,-1.17264535730121,,-15.75615446318087,,
,8841.0,1251.0,7029.0,2068.0,2217.0,3249.0,423.0,,,,-0.913999127659512,-2.95693642119141,-1.17167352126766,,-15.794541675742465,,
,8841.0,1248.0,7028.0,2067.0,2203.0,3241.0,407.0,,,,-0.914937004321336,-2.95673141700212,-1.16982068130179,,-15.82292847045795,,
