TimeLabel,MEAS1_PPG1,MEAS1_PPG2,MEAS1_PPG3,MEAS1_PPG4,ACCX,ACCY,ACCZ,HR_timestamp,HR_value,radar_timestamp,phase_rx0,phase_rx1,phase_rx2,timestep,n_process,original_rate,calculated_rate
2025-08-19 21:00:28,10078.0,2067.0,9719.0,2505.0,-46.0,1189.0,3804.0,2025-08-19 21:00:28,89.0,2025/08/19 09:00:28 PM,-2.35724529519327,-3.00873852910496,-2.14435635630446,2025/08/19 09:00:28 PM,-3.6391118250147727,19.21708106994629,18.637368526830574
,10079.0,2066.0,9718.0,2503.0,-40.0,1181.0,3788.0,2025-08-19 21:00:29,89.0,,-2.35592133152917,-3.00866822458285,-2.14626933647619,2025/08/19 09:00:38 PM,-3.4869835483386433,19.494585037231445,17.929454390451824
,10081.0,2067.0,9719.0,2505.0,-31.0,1192.0,3763.0,2025-08-19 21:00:30,89.0,,-2.35710525666255,-3.00870708131397,-2.14649073318707,2025/08/19 09:00:48 PM,-3.2833615669123026,18.140588760375977,18.668561952144042
,10082.0,2066.0,9722.0,2507.0,-27.0,1167.0,3786.0,2025-08-19 21:00:31,88.0,,-2.35784520903817,-3.00875694462591,-2.14772253060732,2025/08/19 09:00:58 PM,-3.0270184836984257,18.75,18.583965844402286
,10084.0,2068.0,9722.0,2506.0,-14.0,1165.0,3790.0,2025-08-19 21:00:32,88.0,,-2.35864622917853,-3.00867947428945,-2.14925584852001,2025/08/19 09:01:08 PM,-2.7188504549457835,18.620689392089844,19.78865096935527
,10085.0,2069.0,9722.0,2504.0,-11.0,1163.0,3787.0,2025-08-19 21:00:33,88.0,,-2.35811634577844,-3.0088120889281,-2.15026035858028,2025/08/19 09:01:18 PM,-2.3617699997752326,18.9739990234375,18.097570932843436
,10087.0,2068.0,9724.0,2506.0,-25.0,1165.0,3782.0,2025-08-19 21:00:34,88.0,,-2.35838920197819,-3.00881673718734,-2.15035687198615,2025/08/19 09:01:28 PM,-1.9604237711704124,18.828453063964844,18.79243563454092
,10086.0,2069.0,9724.0,2506.0,-30.0,1165.0,3782.0,2025-08-19 21:00:35,88.0,,-2.3584307274537,-3.00885167393508,-2.15104526733194,2025/08/19 09:01:38 PM,-1.520790413466962,18.841590881347656,19.706564317720073
,10090.0,2071.0,9725.0,2508.0,-35.0,1184.0,3803.0,2025-08-19 21:00:36,88.0,,-2.35974550305142,-3.00877867608999,-2.15083052853363,2025/08/19 09:01:48 PM,-1.0497288465975072,19.054340362548828,19.258989952406147
,10088.0,2072.0,9726.0,2506.0,-21.0,1176.0,3784.0,2025-08-19 21:00:37,89.0,,-2.35938308989921,-3.00885202424892,-2.15056674161722,2025/08/19 09:01:58 PM,-0.5545492753013923,19.65065574645996,20.261136712749607
,10090.0,2071.0,9725.0,2505.0,-11.0,1180.0,3772.0,2025-08-19 21:00:38,89.0,,-2.35708352206488,-3.00880537474844,-2.15050944913273,2025/08/19 09:02:08 PM,-0.04266727290591933,19.940916061401367,20.699048175670047
,10096.0,2073.0,9727.0,2507.0,-43.0,1193.0,3783.0,2025-08-19 21:00:39,89.0,,-2.35747414616404,-3.00878339094921,-2.15092375132091,2025/08/19 09:02:18 PM,0.47862212705317675,19.882179260253903,17.439729990356764
,10091.0,2073.0,9729.0,2508.0,-35.0,1188.0,3791.0,2025-08-19 21:00:40,88.0,,-2.35694077757121,-3.00880946150578,-2.15080061048915,2025/08/19 09:02:28 PM,1.0022426969879752,19.72242546081543,19.081035923141187
,10098.0,2077.0,9729.0,2508.0,-36.0,1190.0,3787.0,2025-08-19 21:00:41,88.0,,-2.35799818707766,-3.00878359632453,-2.1502071718727,2025/08/19 09:02:38 PM,1.5213275788191325,19.340972900390625,17.002044060867604
,10099.0,2074.0,9730.0,2507.0,-40.0,1183.0,3798.0,2025-08-19 21:00:42,88.0,,-2.35746830997306,-3.0087512260475,-2.15049230123315,2025/08/19 09:02:48 PM,2.0291411101447645,18.072288513183597,19.514534833924312
,10102.0,2076.0,9732.0,2508.0,-37.0,1198.0,3798.0,2025-08-19 21:00:43,88.0,,-2.35776542633798,-3.00880151388425,-2.15018178812339,2025/08/19 09:02:58 PM,2.518978124805551,18.126888275146484,20.354581925778618
,10102.0,2076.0,9730.0,2508.0,-18.0,1188.0,3786.0,2025-08-19 21:00:44,88.0,,-2.35794576597149,-3.0088546447661,-2.15082823552904,2025/08/19 09:03:08 PM,2.9840833166934195,18.841590881347656,20.985128904474337
,10107.0,2077.0,9734.0,2509.0,-18.0,1175.0,3803.0,2025-08-19 21:00:45,88.0,,-2.35804854170396,-3.0087865858214,-2.15031718240204,2025/08/19 09:03:18 PM,3.4176222087154717,20.224720001220703,19.064645308924472
,10108.0,2079.0,9733.0,2509.0,-20.0,1161.0,3795.0,2025-08-19 21:00:46,88.0,,-2.35778219302026,-3.00872590357287,-2.15063973591727,,3.8127208385000073,,
,10109.0,2080.0,9732.0,2510.0,-21.0,1164.0,3800.0,2025-08-19 21:00:47,88.0,,-2.35733165421879,-3.0087743648468,-2.15016508408056,,4.162576888264768,,
,10112.0,2079.0,9734.0,2512.0,-30.0,1185.0,3803.0,2025-08-19 21:00:48,88.0,,-2.35707734669834,-3.00877920730426,-2.14903319169667,,4.460633017872115,,
,10115.0,2084.0,9735.0,2511.0,-30.0,1185.0,3795.0,2025-08-19 21:00:49,88.0,,-2.35652980008924,-3.00868877466672,-2.14873916826714,,4.700794995344716,,
,10115.0,2081.0,9737.0,2505.0,-39.0,1183.0,3778.0,2025-08-19 21:00:50,88.0,,-2.35607209712615,-3.00880090621912,-2.14836096461595,,4.877673554837103,,
,10116.0,2081.0,9736.0,2510.0,-37.0,1166.0,3761.0,2025-08-19 21:00:51,88.0,,-2.35555158685637,-3.00863236493225,-2.14820899073395,,4.986829818065141,,
,10121.0,2083.0,9736.0,2510.0,-30.0,1171.0,3787.0,2025-08-19 21:00:52,88.0,,-2.35534996848224,-3.00862910115633,-2.14740582324072,,5.025008590885121,,
,10122.0,2085.0,9740.0,2511.0,-28.0,1179.0,3798.0,2025-08-19 21:00:53,88.0,,-2.35325064488467,-3.00863957115211,-2.14662103173147,,4.990349374592674,,
,10126.0,2086.0,9740.0,2512.0,-35.0,1180.0,3806.0,2025-08-19 21:00:54,87.0,,-2.35304861549164,-3.0086394889095,-2.14614909767329,,4.882568218203632,,
,10126.0,2086.0,9737.0,2509.0,-23.0,1179.0,3797.0,2025-08-19 21:00:55,87.0,,-2.35339877328067,-3.00864890588351,-2.14583793537906,,4.703102603154922,,
,10130.0,2088.0,9739.0,2509.0,-14.0,1166.0,3811.0,2025-08-19 21:00:56,87.0,,-2.35223596916444,-3.00863350783781,-2.14487985347483,,4.455207319399333,,
,10132.0,2089.0,9742.0,2512.0,-31.0,1165.0,3790.0,2025-08-19 21:00:57,87.0,,-2.35296576626865,-3.00858551543278,-2.14456124642673,,4.1439849136595575,,
,10134.0,2091.0,9742.0,2512.0,-34.0,1156.0,3788.0,2025-08-19 21:00:58,87.0,,-2.3533392175316,-3.00857870737338,-2.14428084595843,,3.7763328718371465,,
,10133.0,2091.0,9741.0,2512.0,-24.0,1163.0,3794.0,2025-08-19 21:00:59,87.0,,-2.3525590746872,-3.00853590415415,-2.14445342429808,,3.360792615299835,,
,10139.0,2091.0,9742.0,2511.0,-22.0,1185.0,3756.0,2025-08-19 21:01:00,87.0,,-2.35277326389376,-3.0086102376442,-2.14309951461847,,2.9072923048839714,,
,10140.0,2092.0,9742.0,2511.0,-17.0,1190.0,3753.0,2025-08-19 21:01:01,87.0,,-2.35229993252376,-3.00851069237702,-2.14361232149126,,2.426785244332437,,
,10143.0,2093.0,9743.0,2512.0,-24.0,1197.0,3766.0,2025-08-19 21:01:02,88.0,,-2.35187416560576,-3.00860133526333,-2.14329657234219,,1.9307971544163867,,
,10140.0,2090.0,9741.0,2509.0,-32.0,1186.0,3778.0,2025-08-19 21:01:03,88.0,,-2.35193874746276,-3.00856648064663,-2.14259710178069,,1.430907592330325,,
,10145.0,2091.0,9742.0,2510.0,-36.0,1174.0,3790.0,2025-08-19 21:01:04,88.0,,-2.35236605028532,-3.00856772588485,-2.14327909288567,,0.9382020961011537,,
,10146.0,2088.0,9740.0,2509.0,-30.0,1171.0,3800.0,2025-08-19 21:01:05,88.0,,-2.3505461664235,-3.00855294510355,-2.14248111432264,,0.4627405979822772,,
,10143.0,2085.0,9738.0,2512.0,-35.0,1170.0,3789.0,2025-08-19 21:01:06,88.0,,-2.35064148594011,-3.00861707702081,-2.14232180567803,,0.013091812548056615,,
,10141.0,2079.0,9733.0,2507.0,-13.0,1159.0,3792.0,2025-08-19 21:01:07,88.0,,-2.35117926772471,-3.00860105003864,-2.14236745594966,,-0.4040199712672276,,
,10138.0,2077.0,9733.0,2508.0,-26.0,1170.0,3801.0,2025-08-19 21:01:08,88.0,,-2.3510058815629,-3.00856067897324,-2.14195503079948,,-0.7839208884025212,,
,10138.0,2074.0,9730.0,2507.0,-24.0,1162.0,3795.0,2025-08-19 21:01:09,87.0,,-2.35040429942146,-3.00854953433698,-2.14161698307578,,-1.1240294378160773,,
,10130.0,2072.0,9729.0,2507.0,-20.0,1171.0,3780.0,2025-08-19 21:01:10,87.0,,-2.35178814336724,-3.00855780898277,-2.14226853862581,,-1.42373788332542,,
,10127.0,2066.0,9729.0,2503.0,-19.0,1196.0,3770.0,2025-08-19 21:01:11,87.0,,-2.35186862442297,-3.00844978949306,-2.14190188144662,,-1.684155568248388,,
,10122.0,2062.0,9725.0,2502.0,-18.0,1189.0,3763.0,2025-08-19 21:01:12,86.0,,-2.35206404941353,-3.0085284074701,-2.14159666283969,,-1.9077514580971164,,
,10117.0,2061.0,9722.0,2505.0,-18.0,1199.0,3760.0,2025-08-19 21:01:13,86.0,,-2.35082756181373,-3.00850863526668,-2.14134473744904,,-2.0979425789629897,,
,10116.0,2060.0,9719.0,2502.0,-22.0,1185.0,3761.0,2025-08-19 21:01:14,85.0,,-2.35137917990618,-3.00842715697759,-2.14170504426317,,-2.258678227938217,,
,10109.0,2061.0,9719.0,2504.0,-41.0,1182.0,3780.0,2025-08-19 21:01:15,85.0,,-2.35188596371517,-3.00843539389679,-2.14167579135052,,-2.394066758582778,,
,10105.0,2056.0,9716.0,2500.0,-42.0,1170.0,3790.0,2025-08-19 21:01:16,85.0,,-2.35306169195975,-3.0085096071174,-2.14199160291819,,-2.5080826665201092,,
,10102.0,2057.0,9720.0,2500.0,-45.0,1162.0,3786.0,2025-08-19 21:01:17,84.0,,-2.35330189248408,-3.00855307613874,-2.1422358802924,,-2.6043773321263832,,
,10101.0,2057.0,9716.0,2501.0,-47.0,1167.0,3795.0,2025-08-19 21:01:18,85.0,,-2.35437930720666,-3.00857724658257,-2.14206998064875,,-2.6861984527068534,,
,10096.0,2056.0,9716.0,2502.0,-44.0,1170.0,3788.0,2025-08-19 21:01:19,85.0,,-2.35464636511769,-3.00862809094048,-2.14277419854634,,-2.7564033061102835,,
,10095.0,2052.0,9713.0,2500.0,-30.0,1184.0,3798.0,2025-08-19 21:01:20,85.0,,-2.35688643570023,-3.00857718230337,-2.14129905040817,,-2.8175332665889954,,
,10094.0,2052.0,9715.0,2501.0,-37.0,1172.0,3797.0,2025-08-19 21:01:21,86.0,,-2.35684191045498,-3.00850430859556,-2.14162854556675,,-2.871905849801111,,
,10092.0,2054.0,9718.0,2502.0,-41.0,1175.0,3781.0,2025-08-19 21:01:22,86.0,,-2.35841695446099,-3.00848327797315,-2.1405496413679,,-2.9216792621525394,,
,10091.0,2052.0,9716.0,2502.0,-37.0,1171.0,3769.0,2025-08-19 21:01:23,86.0,,-2.35792375929811,-3.00857709406133,-2.14155956014421,,-2.9688533464386886,,
,10086.0,2050.0,9714.0,2500.0,-37.0,1167.0,3801.0,2025-08-19 21:01:24,86.0,,-2.35896017922453,-3.00858896535828,-2.14085224872827,,-3.0151873447705726,,
,10082.0,2053.0,9715.0,2502.0,-31.0,1171.0,3787.0,2025-08-19 21:01:25,86.0,,-2.35684762705221,-3.00858365048034,-2.14072688896219,,-3.0620350079227734,,
,10085.0,2051.0,9714.0,2501.0,-17.0,1170.0,3760.0,2025-08-19 21:01:26,86.0,,-2.35823711235845,-3.00854304498395,-2.14076521499378,,-3.110117443819856,,
,10080.0,2050.0,9716.0,2502.0,-19.0,1171.0,3769.0,2025-08-19 21:01:27,86.0,,-2.35897140410351,-3.00859822051183,-2.14173126451246,,-3.1592706824865724,,
,10079.0,2051.0,9716.0,2499.0,-20.0,1175.0,3786.0,2025-08-19 21:01:28,86.0,,-2.35773508825559,-3.00855816799087,-2.14226306797671,,-3.208215825596772,,
,10077.0,2049.0,9713.0,2501.0,-27.0,1189.0,3761.0,2025-08-19 21:01:29,86.0,,-2.35788813366464,-3.00851831451727,-2.14136847327849,,-3.2544029732118362,,
,10079.0,2051.0,9715.0,2502.0,-38.0,1193.0,3770.0,2025-08-19 21:01:30,86.0,,-2.35807077396076,-3.00856754857466,-2.14208537755704,,-3.293974805560916,,
,10079.0,2050.0,9717.0,2502.0,-39.0,1183.0,3758.0,2025-08-19 21:01:31,85.0,,-2.35736845265787,-3.00861428167328,-2.14168911888193,,-3.3218817370690803,,
,10076.0,2052.0,9716.0,2503.0,-35.0,1170.0,3790.0,2025-08-19 21:01:32,86.0,,-2.35731541509162,-3.00866075834512,-2.14124135886665,,-3.332159192059528,,
,10074.0,2050.0,9715.0,2501.0,-31.0,1162.0,3813.0,2025-08-19 21:01:33,86.0,,-2.35706920784515,-3.00855344619422,-2.14165638905343,,-3.318351587032036,,
,10078.0,2053.0,9717.0,2504.0,-31.0,1166.0,3791.0,2025-08-19 21:01:34,86.0,,-2.3566520154543,-3.00857078093436,-2.14139819738027,,-3.274041639482211,,
,10077.0,2051.0,9718.0,2502.0,-36.0,1179.0,3798.0,2025-08-19 21:01:35,87.0,,-2.3557387726752,-3.00856190962961,-2.14036429244909,,-3.1934232643472917,,
,10076.0,2050.0,9718.0,2502.0,-27.0,1167.0,3780.0,2025-08-19 21:01:36,87.0,,-2.35573048967335,-3.00846375118651,-2.14126342618792,,-3.0718462261116817,,
,10075.0,2049.0,9716.0,2501.0,-29.0,1168.0,3770.0,2025-08-19 21:01:37,87.0,,-2.35553682444931,-3.00854314637739,-2.14012843830023,,-2.9062627876569667,,
,10074.0,2051.0,9719.0,2503.0,-34.0,1166.0,3778.0,2025-08-19 21:01:38,87.0,,-2.35742885462836,-3.0085209253965,-2.14077973099489,,-2.6955197882957025,,
,10077.0,2050.0,9719.0,2503.0,-40.0,1170.0,3790.0,2025-08-19 21:01:39,86.0,,-2.35559182479512,-3.0084679987857,-2.14154427336936,,-2.4404611313273414,,
,10077.0,2052.0,9719.0,2502.0,-28.0,1181.0,3797.0,2025-08-19 21:01:40,86.0,,-2.35556278952451,-3.008591485933,-2.14106879779912,,-2.1438322294067587,,
,10071.0,2053.0,9719.0,2501.0,-28.0,1198.0,3794.0,2025-08-19 21:01:41,86.0,,-2.3560332704728,-3.00850481812964,-2.14154196504319,,-1.810005827864479,,
,10078.0,2051.0,9721.0,2503.0,-32.0,1169.0,3805.0,2025-08-19 21:01:42,85.0,,-2.35600936422069,-3.00854248528589,-2.14072255887363,,-1.4445736017606283,,
,10076.0,2052.0,9717.0,2502.0,-36.0,1168.0,3795.0,2025-08-19 21:01:43,85.0,,-2.35531188245816,-3.0085609977875,-2.14119257546691,,-1.0538658038240718,,
,10079.0,2051.0,9716.0,2502.0,-42.0,1166.0,3806.0,2025-08-19 21:01:44,85.0,,-2.35422064250634,-3.00850877479892,-2.14116423182517,,-0.6444687546910332,,
,10075.0,2051.0,9719.0,2501.0,-36.0,1179.0,3809.0,2025-08-19 21:01:45,85.0,,-2.35443931272297,-3.00853056695672,-2.14099792169597,,-0.22280548434376765,,
,10075.0,2051.0,9721.0,2502.0,-32.0,1166.0,3820.0,2025-08-19 21:01:46,85.0,,-2.35423194611688,-3.00851359841469,-2.14076509307783,,0.20517110653031198,,
,10080.0,2052.0,9724.0,2503.0,-30.0,1185.0,3799.0,2025-08-19 21:01:47,85.0,,-2.35514284417904,-3.00850370202731,-2.14053856883711,,0.6341473235201786,,
,10079.0,2051.0,9722.0,2503.0,-30.0,1185.0,3779.0,2025-08-19 21:01:48,85.0,,-2.35448538550031,-3.00854761624006,-2.14114383544769,,1.059481195849812,,
,10076.0,2052.0,9721.0,2502.0,-26.0,1176.0,3789.0,2025-08-19 21:01:49,84.0,,-2.35457010820338,-3.00860694408159,-2.14106957648531,,1.4771217786698496,,
,10078.0,2050.0,9720.0,2501.0,-35.0,1181.0,3768.0,2025-08-19 21:01:50,84.0,,-2.35456384952436,-3.00851777333533,-2.14068906665662,,1.8834519174010635,,
,10081.0,2053.0,9721.0,2503.0,-34.0,1192.0,3787.0,2025-08-19 21:01:51,84.0,,-2.35385686744688,-3.00859837644392,-2.14326800091678,,2.2750948798630284,,
,10083.0,2053.0,9724.0,2504.0,-32.0,1181.0,3789.0,2025-08-19 21:01:52,84.0,,-2.35485107404459,-3.00860724725734,-2.1427688449284,,2.648721551226713,,
,10079.0,2051.0,9721.0,2502.0,-40.0,1177.0,3776.0,2025-08-19 21:01:53,84.0,,-2.35441414200215,-3.0085066494124,-2.14301369539622,,3.0008869025817932,,
,10081.0,2055.0,9725.0,2504.0,-34.0,1197.0,3798.0,2025-08-19 21:01:54,84.0,,-2.35478295579113,-3.00858932899854,-2.1434234578965,,3.3279148693949443,,
,10081.0,2054.0,9724.0,2505.0,-33.0,1168.0,3818.0,2025-08-19 21:01:55,84.0,,-2.35495953628508,-3.00859070642406,-2.14304327725738,,3.625841389186237,,
,10082.0,2053.0,9726.0,2507.0,-32.0,1173.0,3805.0,2025-08-19 21:01:56,85.0,,-2.35548073398438,-3.00861042953763,-2.14326507444958,,3.890417262061776,,
,10083.0,2055.0,9727.0,2504.0,-34.0,1180.0,3802.0,2025-08-19 21:01:57,85.0,,-2.35566114799412,-3.00856629607764,-2.14268487199498,,4.117166464280241,,
,10083.0,2055.0,9726.0,2503.0,-33.0,1173.0,3774.0,2025-08-19 21:01:58,85.0,,-2.35633212140836,-3.00858377421599,-2.14330251789422,,4.301492084040937,,
,10087.0,2057.0,9728.0,2505.0,-21.0,1168.0,3778.0,2025-08-19 21:01:59,85.0,,-2.35654793514614,-3.00868266491469,-2.14261726402805,,4.438821475374379,,
,10087.0,2056.0,9728.0,2507.0,-28.0,1185.0,3780.0,2025-08-19 21:02:00,85.0,,-2.35653585941357,-3.00866307833687,-2.14364092835336,,4.524784368771437,,
,10087.0,2057.0,9728.0,2506.0,-41.0,1182.0,3785.0,2025-08-19 21:02:01,85.0,,-2.35574681032673,-3.00857276675353,-2.14427828884924,,4.555421143789342,,
,10089.0,2059.0,9731.0,2504.0,-36.0,1187.0,3776.0,2025-08-19 21:02:02,85.0,,-2.35676342812554,-3.00862786762771,-2.14380238441279,,4.527420389308,,
,10092.0,2056.0,9728.0,2507.0,-35.0,1175.0,3779.0,2025-08-19 21:02:03,85.0,,-2.35771811387253,-3.00848896347939,-2.14470701436932,,4.438382331859099,,
,10095.0,2060.0,9731.0,2508.0,-27.0,1167.0,3787.0,2025-08-19 21:02:04,86.0,,-2.35663764085576,-3.00860643940801,-2.14464279791236,,4.287097061222151,,
,10093.0,2061.0,9730.0,2506.0,-30.0,1166.0,3785.0,2025-08-19 21:02:05,86.0,,-2.35697892932566,-3.00865601067683,-2.14463329795919,,4.0738161799173405,,
,10095.0,2059.0,9731.0,2506.0,-43.0,1166.0,3789.0,2025-08-19 21:02:06,86.0,,-2.35707109922027,-3.00865637966174,-2.14488133817727,,3.8004875104956097,,
,10097.0,2064.0,9735.0,2508.0,-39.0,1175.0,3805.0,2025-08-19 21:02:07,86.0,,-2.35735730187828,-3.00865525052216,-2.14536505898423,,3.4709179592151767,,
,10099.0,2061.0,9733.0,2509.0,-32.0,1174.0,3805.0,2025-08-19 21:02:08,86.0,,-2.35637675535095,-3.00863756308959,-2.14568622095644,,3.0908308111847393,,
,10104.0,2063.0,9735.0,2508.0,-29.0,1171.0,3805.0,2025-08-19 21:02:09,86.0,,-2.35813027829162,-3.00869596103198,-2.14599910260962,,2.667790436071605,,
,10102.0,2065.0,9736.0,2508.0,-33.0,1174.0,3773.0,2025-08-19 21:02:10,85.0,,-2.35793178078811,-3.00862789790797,-2.14657778567163,,2.2109788646027555,,
,10104.0,2066.0,9735.0,2507.0,-18.0,1165.0,3772.0,2025-08-19 21:02:11,85.0,,-2.35769111327364,-3.008596588864,-2.14655618580253,,1.730823955463796,,
,10108.0,2067.0,9736.0,2509.0,-20.0,1160.0,3781.0,2025-08-19 21:02:12,85.0,,-2.35625713440093,-3.0085550090995,-2.14646678903843,,1.2384965554236895,,
,10109.0,2068.0,9738.0,2508.0,-31.0,1163.0,3785.0,2025-08-19 21:02:13,85.0,,-2.35690630766833,-3.0087214868337,-2.14662371976578,,0.7453123810129968,,
,10110.0,2070.0,9739.0,2508.0,-35.0,1187.0,3776.0,2025-08-19 21:02:14,85.0,,-2.35694016864868,-3.00860747884645,-2.14643339822875,,0.2620908865254516,,
,10113.0,2070.0,9739.0,2510.0,-26.0,1177.0,3799.0,2025-08-19 21:02:15,86.0,,-2.35650318455676,-3.00856193072641,-2.14661812163676,,-0.20146525335397836,,
,10117.0,2075.0,9745.0,2510.0,-28.0,1175.0,3798.0,2025-08-19 21:02:16,86.0,,-2.3559255189387,-3.00867267746258,-2.14702334482241,,-0.6373038177879234,,
,10118.0,2074.0,9743.0,2512.0,-28.0,1167.0,3808.0,2025-08-19 21:02:17,87.0,,-2.35633873802353,-3.00866431492828,-2.14713578304583,,-1.0394115872248806,,
,10120.0,2074.0,9743.0,2508.0,-32.0,1156.0,3819.0,2025-08-19 21:02:18,87.0,,-2.35620371605012,-3.00870736095358,-2.14749204132333,,-1.4040166358029786,,
,10121.0,2074.0,9742.0,2510.0,-37.0,1167.0,3801.0,2025-08-19 21:02:19,87.0,,-2.35771716343535,-3.00865021206368,-2.14758478090103,,-1.7295859908605336,,
,10125.0,2077.0,9745.0,2510.0,-32.0,1165.0,3741.0,2025-08-19 21:02:20,87.0,,-2.35635908551559,-3.00864519778303,-2.14709363516928,,-2.016624538328512,,
,10127.0,2078.0,9747.0,2512.0,-38.0,1182.0,3758.0,2025-08-19 21:02:21,87.0,,-2.35618061735504,-3.00865902671382,-2.1466247332728,,-2.2673033736345136,,
,10129.0,2077.0,9747.0,2511.0,-24.0,1176.0,3782.0,2025-08-19 21:02:22,87.0,,-2.35651755654828,-3.00860040724994,-2.14652651244181,,-2.4849636282364282,,
,10128.0,2077.0,9744.0,2509.0,-22.0,1192.0,3777.0,2025-08-19 21:02:23,87.0,,-2.35536563741168,-3.00861153250483,-2.14555358799744,,-2.6735534209000575,,
,10134.0,2079.0,9744.0,2510.0,-29.0,1187.0,3801.0,2025-08-19 21:02:24,86.0,,-2.35470057572676,-3.00865496532308,-2.14577975789545,,-2.837060102933294,,
,10135.0,2081.0,9749.0,2510.0,-26.0,1185.0,3827.0,2025-08-19 21:02:25,86.0,,-2.3553147698563,-3.00854453027197,-2.14540933770316,,-2.978997304017214,,
,10137.0,2079.0,9747.0,2512.0,-30.0,1188.0,3825.0,2025-08-19 21:02:26,86.0,,-2.3548695551073,-3.00856300580129,-2.14479866215245,,-3.1019969210924567,,
,10137.0,2084.0,9746.0,2511.0,-42.0,1177.0,3791.0,2025-08-19 21:02:27,86.0,,-2.3558207993284,-3.00857992837234,-2.14532186028609,,-3.2075409926248946,,
,10140.0,2082.0,9748.0,2514.0,-33.0,1176.0,3779.0,2025-08-19 21:02:28,85.0,,-2.35419082335503,-3.00861138100287,-2.14468582518225,,-3.2958489869124605,,
,10143.0,2082.0,9750.0,2511.0,-19.0,1188.0,3781.0,2025-08-19 21:02:29,85.0,,-2.35295481448353,-3.0085378734691,-2.14446853223506,,-3.3659154229086834,,
,10143.0,2083.0,9751.0,2513.0,-17.0,1187.0,3788.0,2025-08-19 21:02:30,86.0,,-2.35389276858558,-3.00855592467437,-2.1441773933515,,-3.415675037770598,,
,10145.0,2080.0,9745.0,2511.0,-20.0,1177.0,3784.0,2025-08-19 21:02:31,86.0,,-2.35235860607663,-3.00861755665905,-2.14321095535739,,-3.4422613583946013,,
,10145.0,2082.0,9747.0,2512.0,-24.0,1171.0,3785.0,2025-08-19 21:02:32,87.0,,-2.35305158030335,-3.00848391793371,-2.14310410567844,,-3.4423205549810563,,
,10148.0,2082.0,9747.0,2512.0,-30.0,1156.0,3772.0,2025-08-19 21:02:33,88.0,,-2.35210894020829,-3.00855952677665,-2.14238112440535,,-3.4123444160791925,,
,10149.0,2080.0,9742.0,2511.0,-30.0,1158.0,3779.0,2025-08-19 21:02:34,88.0,,-2.3523537252392,-3.00848521703391,-2.14186789768928,,-3.3489917351740908,,
,10144.0,2075.0,9738.0,2510.0,-43.0,1153.0,3802.0,2025-08-19 21:02:35,87.0,,-2.3535268877817,-3.00842453277105,-2.14312061063387,,-3.249374350283118,,
2025-08-19 21:00:29,10144.0,2072.0,9739.0,2508.0,-44.0,1155.0,3813.0,2025-08-19 21:02:36,87.0,2025/08/19 09:00:29 PM,-2.35339638200032,-3.00854613901358,-2.14212238064551,,-3.1112914832515646,,
,10143.0,2067.0,9737.0,2506.0,-40.0,1180.0,3795.0,2025-08-19 21:02:37,87.0,,-2.35273942057247,-3.00846716903263,-2.14143542224092,,-2.9334033470989134,,
,10138.0,2064.0,9735.0,2508.0,-41.0,1190.0,3794.0,2025-08-19 21:02:38,87.0,,-2.3524637663575,-3.00851695959238,-2.14134142745398,,-2.7153416718351164,,
,10138.0,2061.0,9732.0,2507.0,-36.0,1169.0,3780.0,2025-08-19 21:02:39,87.0,,-2.35213157357297,-3.00850319291032,-2.14123731032768,,-2.45776019744902,,
,10129.0,2059.0,9728.0,2507.0,-37.0,1170.0,3791.0,2025-08-19 21:02:40,88.0,,-2.35089062651163,-3.00848129583352,-2.141016981562,,-2.162331708146016,,
,10127.0,2060.0,9728.0,2507.0,-41.0,1178.0,3777.0,2025-08-19 21:02:41,89.0,,-2.3524602105385,-3.00849642415745,-2.14065727115681,,-1.831699401830637,,
,10126.0,2057.0,9728.0,2505.0,-35.0,1172.0,3788.0,2025-08-19 21:02:42,89.0,,-2.35114719605636,-3.00854407646384,-2.14150989588884,,-1.4693894316873342,,
,10121.0,2054.0,9727.0,2503.0,-32.0,1167.0,3790.0,2025-08-19 21:02:43,89.0,,-2.3521678099827,-3.0085189838818,-2.14141318750175,,-1.0796896371176699,,
,10116.0,2051.0,9726.0,2503.0,-29.0,1172.0,3800.0,2025-08-19 21:02:44,89.0,,-2.35378222487642,-3.00853055494047,-2.14117735879927,,-0.6674989953245062,,
,10114.0,2053.0,9724.0,2503.0,-33.0,1169.0,3785.0,2025-08-19 21:02:45,89.0,,-2.35426925011509,-3.00858508281863,-2.14245218267884,,-0.23815461474556357,,
,10113.0,2054.0,9723.0,2505.0,-29.0,1169.0,3786.0,2025-08-19 21:02:46,88.0,,-2.35559540751979,-3.00854742205417,-2.14265822196715,,0.2027524543730018,,
,10113.0,2052.0,9722.0,2504.0,-31.0,1176.0,3781.0,2025-08-19 21:02:47,88.0,,-2.35691353432857,-3.0085986758948,-2.14217243358854,,0.6495568346723581,,
,10108.0,2053.0,9721.0,2505.0,-33.0,1184.0,3780.0,2025-08-19 21:02:48,89.0,,-2.35813955722607,-3.0085076185252,-2.1427669567671,,1.0966756771616015,,
,10107.0,2052.0,9723.0,2505.0,-25.0,1169.0,3810.0,2025-08-19 21:02:49,89.0,,-2.35853478819762,-3.00864202758268,-2.14303667075416,,1.5387252147827783,,
,10108.0,2052.0,9723.0,2504.0,-31.0,1166.0,3802.0,2025-08-19 21:02:50,90.0,,-2.35912305134938,-3.00860299551596,-2.14241411214722,,1.9705831614259453,,
,10106.0,2051.0,9723.0,2503.0,-37.0,1172.0,3800.0,2025-08-19 21:02:51,90.0,,-2.35992028129595,-3.00847625167353,-2.14166929759519,,2.3873893653141933,,
,10103.0,2050.0,9724.0,2501.0,-29.0,1179.0,3795.0,2025-08-19 21:02:52,89.0,,-2.3600316833297,-3.00858730997718,-2.14187405079941,,2.7844854676045174,,
,10102.0,2050.0,9722.0,2504.0,-31.0,1187.0,3778.0,2025-08-19 21:02:53,89.0,,-2.35975818920835,-3.00853174213249,-2.14184177608944,,3.1573042873629826,,
,10102.0,2054.0,9724.0,2505.0,-38.0,1175.0,3781.0,2025-08-19 21:02:54,88.0,,-2.35973243357239,-3.00853629066418,-2.14172278293909,,3.5012306197597654,,
,10103.0,2049.0,9720.0,2504.0,-37.0,1173.0,3786.0,2025-08-19 21:02:55,87.0,,-2.35978882010999,-3.00866903950398,-2.14307843565852,,3.811465792283916,,
,10101.0,2049.0,9724.0,2503.0,-27.0,1168.0,3793.0,2025-08-19 21:02:56,85.0,,-2.36079238871332,-3.00868456442517,-2.14354702281276,,4.082936074989142,,
,10099.0,2052.0,9723.0,2504.0,-32.0,1170.0,3796.0,2025-08-19 21:02:57,85.0,,-2.36227205117047,-3.00870819603108,-2.14449562148618,,4.310286130782428,,
,10100.0,2052.0,9724.0,2504.0,-33.0,1171.0,3792.0,2025-08-19 21:02:58,84.0,,-2.36061401224959,-3.00874054056958,-2.14510551258817,,4.4879900012674,,
,10099.0,2052.0,9724.0,2504.0,-37.0,1178.0,3787.0,2025-08-19 21:02:59,84.0,,-2.35993298929151,-3.00869239260095,-2.14534626596417,,4.61059362251152,,
,10096.0,2050.0,9723.0,2503.0,-37.0,1186.0,3781.0,2025-08-19 21:03:00,85.0,,-2.36068229207064,-3.00870817877985,-2.14560292373956,,4.6730783174431645,,
,10098.0,2049.0,9725.0,2504.0,-31.0,1178.0,3787.0,2025-08-19 21:03:01,85.0,,-2.36060680291774,-3.00872484850374,-2.14469645519984,,4.671309881296719,,
,10098.0,2049.0,9726.0,2506.0,-24.0,1184.0,3797.0,2025-08-19 21:03:02,85.0,,-2.35940585016095,-3.00872221940552,-2.14493149545059,,4.60251807060407,,
,10102.0,2052.0,9726.0,2505.0,-29.0,1187.0,3772.0,2025-08-19 21:03:03,85.0,,-2.36109152887237,-3.00862293991462,-2.1450323160703,,4.465740090026736,,
,10099.0,2051.0,9727.0,2506.0,-28.0,1183.0,3770.0,2025-08-19 21:03:04,85.0,,-2.35965878314818,-3.00875401696053,-2.14464020249639,,4.2621608315745085,,
,10099.0,2052.0,9724.0,2504.0,-45.0,1177.0,3792.0,2025-08-19 21:03:05,85.0,,-2.35944495055365,-3.0086192698866,-2.14409654893503,,3.9952924838700645,,
,10099.0,2052.0,9728.0,2507.0,-27.0,1178.0,3795.0,2025-08-19 21:03:06,85.0,,-2.35960024748609,-3.0086415185506,-2.14451981341534,,3.670955649390019,,
,10099.0,2053.0,9726.0,2508.0,-27.0,1177.0,3780.0,2025-08-19 21:03:07,85.0,,-2.35865769397596,-3.0085853310623,-2.14339884804286,,3.2970508021088802,,
,10098.0,2053.0,9729.0,2506.0,-32.0,1172.0,3774.0,2025-08-19 21:03:08,86.0,,-2.35700307504721,-3.00857533187604,-2.14273287611917,,2.8831388123812234,,
,10100.0,2053.0,9727.0,2504.0,-42.0,1185.0,3792.0,2025-08-19 21:03:09,86.0,,-2.35807605935355,-3.00868123840597,-2.14383590805585,,2.4398769726207785,,
,10099.0,2051.0,9728.0,2505.0,-39.0,1181.0,3802.0,2025-08-19 21:03:10,86.0,,-2.35891873016727,-3.0086210184871,-2.14416482846694,,1.978376605491616,,
,10104.0,2054.0,9727.0,2505.0,-37.0,1179.0,3786.0,2025-08-19 21:03:11,86.0,,-2.35923791924714,-3.00864731252017,-2.1444233776493,,1.5095557792110217,,
,10104.0,2053.0,9728.0,2505.0,-41.0,1176.0,3784.0,2025-08-19 21:03:12,86.0,,-2.36037589345279,-3.00864395005827,-2.14471778949326,,1.0435554184518023,,
,10101.0,2054.0,9731.0,2503.0,-27.0,1162.0,3787.0,2025-08-19 21:03:13,85.0,,-2.35981883489882,-3.00859349984659,-2.14504357289507,,0.589272103070507,,
,10104.0,2052.0,9729.0,2503.0,-37.0,1167.0,3773.0,2025-08-19 21:03:14,85.0,,-2.35958261704018,-3.00867803426337,-2.14502554364007,,0.15404035037823893,,
,10104.0,2055.0,9732.0,2507.0,-35.0,1180.0,3785.0,2025-08-19 21:03:15,85.0,,-2.35979493494036,-3.00865499098022,-2.14395985220994,,-0.2565249689079368,,
,10106.0,2055.0,9731.0,2509.0,-37.0,1178.0,3773.0,2025-08-19 21:03:16,86.0,,-2.35774614971587,-3.00862366425729,-2.14478567846578,,-0.6385362468634881,,
,10103.0,2054.0,9732.0,2506.0,-37.0,1164.0,3789.0,2025-08-19 21:03:17,86.0,,-2.35854819825225,-3.0085610147112,-2.14503168604677,,-0.9897180560257429,,
,10105.0,2054.0,9732.0,2507.0,-35.0,1167.0,3785.0,2025-08-19 21:03:18,86.0,,-2.3589891213432,-3.00859765791455,-2.14455701892836,,-1.3092080824198415,,
,10106.0,2058.0,9731.0,2505.0,-31.0,1163.0,3803.0,2025-08-19 21:03:19,86.0,,-2.35890358547112,-3.00863369370217,-2.14475483610069,,-1.5973172571710736,,
,10108.0,2057.0,9732.0,2508.0,-26.0,1179.0,3799.0,2025-08-19 21:03:20,86.0,,-2.35888918763519,-3.00865573455501,-2.14513385831696,,-1.8552892596889052,,
,10109.0,2055.0,9732.0,2507.0,-26.0,1176.0,3791.0,2025-08-19 21:03:21,86.0,,-2.35994355783702,-3.00868636064339,-2.14516665717377,,-2.0850894470672525,,
,10107.0,2056.0,9733.0,2507.0,-33.0,1168.0,3780.0,2025-08-19 21:03:22,85.0,,-2.35880191824207,-3.008671431542,-2.14513004112105,,-2.2892376588406482,,
,10109.0,2056.0,9731.0,2508.0,-32.0,1171.0,3781.0,2025-08-19 21:03:23,85.0,,-2.36035946137115,-3.00851559033079,-2.14483109144416,,-2.4706816951124453,,
,10109.0,2056.0,9734.0,2509.0,-23.0,1181.0,3779.0,2025-08-19 21:03:24,84.0,,-2.35965251824854,-3.00868939403356,-2.14496430477862,,-2.6326934129762303,,
,10112.0,2060.0,9735.0,2509.0,-22.0,1168.0,3763.0,2025-08-19 21:03:25,84.0,,-2.35920416217083,-3.00853218074767,-2.14461205426358,,-2.7787615633439136,,
,10110.0,2058.0,9736.0,2507.0,-29.0,1176.0,3785.0,2025-08-19 21:03:26,84.0,,-2.36091271969935,-3.00870192030974,-2.14426963335819,,-2.9124562262554203,,
,10114.0,2062.0,9737.0,2507.0,-38.0,1179.0,3793.0,2025-08-19 21:03:27,85.0,,-2.35904614240919,-3.00862554951218,-2.14551090477946,,-3.037247600580599,,
,10114.0,2062.0,9735.0,2509.0,-38.0,1190.0,3798.0,,,,-2.35926356782198,-3.00859458520907,-2.14430673644766,,-3.1562741300340953,,
,10115.0,2062.0,9739.0,2508.0,-36.0,1204.0,3793.0,,,,-2.35939780459916,-3.00867473982956,-2.14432705918583,,-3.272068761689612,,
,10112.0,2065.0,9737.0,2507.0,-42.0,1200.0,3806.0,,,,-2.35836036860045,-3.0086329546489,-2.14435175487246,,-3.3862654233971843,,
,10116.0,2061.0,9739.0,2507.0,-41.0,1184.0,3804.0,,,,-2.35901721148581,-3.00861462095737,-2.14427976650123,,-3.4993188074284847,,
,10119.0,2064.0,9740.0,2510.0,-46.0,1201.0,3775.0,,,,-2.35968790362071,-3.00867977951222,-2.14498851030923,,-3.610277512772755,,
,10121.0,2067.0,9741.0,2511.0,-39.0,1195.0,3779.0,,,,-2.35976143647523,-3.00867250205432,-2.14469539994827,,-3.716651896590771,,
,10120.0,2064.0,9743.0,2509.0,-30.0,1176.0,3787.0,,,,-2.35869371810427,-3.00872154261284,-2.14569579232623,,-3.8144124220996263,,
,10122.0,2066.0,9741.0,2509.0,-29.0,1177.0,3795.0,,,,-2.35920962371075,-3.00864066912376,-2.14535173676237,,-3.8981414341447005,,
,10122.0,2068.0,9745.0,2508.0,-39.0,1178.0,3787.0,,,,-2.35965467112546,-3.00866779229373,-2.1451924487845,,-3.961342020354869,,
,10127.0,2068.0,9743.0,2509.0,-40.0,1179.0,3781.0,,,,-2.3577449796626,-3.00862631358198,-2.14543498712598,,-3.9968847749067304,,
,10129.0,2069.0,9744.0,2509.0,-43.0,1180.0,3776.0,,,,-2.3576086021212,-3.00872968534863,-2.14566475118239,,-3.9975515527503123,,
,10129.0,2069.0,9747.0,2511.0,-44.0,1167.0,3764.0,,,,-2.35847329804888,-3.00870591181246,-2.14596845911879,,-3.956619586819744,,
,10131.0,2072.0,9746.0,2512.0,-45.0,1189.0,3784.0,,,,-2.35807702033372,-3.00868307823646,-2.14551201448517,,-3.8684226765299137,,
,10136.0,2071.0,9747.0,2513.0,-27.0,1174.0,3775.0,,,,-2.35800525740525,-3.0086878606371,-2.14526711231589,,-3.728828876019801,,
,10136.0,2075.0,9747.0,2512.0,-30.0,1173.0,3760.0,,,,-2.35773945823574,-3.00863740764166,-2.14584786269057,,-3.5355846961985415,,
,10137.0,2072.0,9748.0,2511.0,-23.0,1174.0,3781.0,,,,-2.35703358653579,-3.00861923753702,-2.14610503015301,,-3.288492317852428,,
,10142.0,2075.0,9749.0,2512.0,-24.0,1172.0,3777.0,,,,-2.35686306235804,-3.00866368003021,-2.14568992195468,,-2.9894068994311414,,
,10144.0,2079.0,9752.0,2511.0,-37.0,1167.0,3782.0,,,,-2.35691459300983,-3.00864826246871,-2.1466825544513,,-2.6420636867202694,,
,10144.0,2079.0,9752.0,2517.0,-41.0,1172.0,3788.0,,,,-2.35747319858702,-3.00863349010999,-2.14567873460413,,-2.2517663081623027,,
,10146.0,2078.0,9748.0,2512.0,-36.0,1162.0,3777.0,,,,-2.35542904675457,-3.00854563180901,-2.14524287096529,,-1.824984559562972,,
,10147.0,2082.0,9753.0,2514.0,-35.0,1180.0,3778.0,,,,-2.35557690900643,-3.00861953301259,-2.14436758325317,,-1.368918429105029,,
,10148.0,2082.0,9753.0,2514.0,-38.0,1174.0,3787.0,,,,-2.35703521937801,-3.00860509148905,-2.14476359528165,,-0.8910827785030481,,
,10149.0,2083.0,9754.0,2514.0,-38.0,1173.0,3797.0,,,,-2.35612261925319,-3.00855283404227,-2.14440170217662,,-0.3989544378098535,,
,10153.0,2083.0,9751.0,2512.0,-35.0,1198.0,3749.0,,,,-2.35605590466954,-3.00864432869324,-2.1440467040427,,0.10029552065367899,,
,10153.0,2083.0,9751.0,2513.0,-29.0,1201.0,3754.0,,,,-2.35588725612284,-3.00856669628516,-2.14388159667177,,0.5999804691235647,,
,10155.0,2084.0,9751.0,2513.0,-32.0,1177.0,3776.0,,,,-2.35507231031851,-3.00856344456945,-2.14328355862485,,1.0939971729911162,,
,10156.0,2080.0,9751.0,2513.0,-30.0,1166.0,3791.0,,,,-2.35452956030594,-3.0085635698745,-2.14281272572109,,1.5768597774229598,,
,10156.0,2077.0,9747.0,2515.0,-30.0,1182.0,3795.0,,,,-2.35500590167434,-3.00857572293222,-2.14273687643167,,2.043683290239179,,
,10153.0,2075.0,9747.0,2509.0,-28.0,1184.0,3775.0,,,,-2.35342739848739,-3.00856482960676,-2.14209516179995,,2.4901283057529087,,
,10155.0,2073.0,9743.0,2513.0,-29.0,1168.0,3785.0,,,,-2.3532985638492,-3.00851354263623,-2.14208530974837,,2.9123161842802814,,
,10152.0,2069.0,9742.0,2510.0,-25.0,1182.0,3795.0,,,,-2.35266964793006,-3.00854174335875,-2.14250086581791,,3.3067225856651397,,
,10152.0,2068.0,9739.0,2511.0,-34.0,1191.0,3787.0,,,,-2.35433183596206,-3.00860887947831,-2.14196641991639,,3.67005724547434,,
,10147.0,2064.0,9740.0,2508.0,-43.0,1204.0,3761.0,,,,-2.35315634862986,-3.00844435039284,-2.14124519804069,,3.9991391043282696,,
,10143.0,2057.0,9737.0,2508.0,-38.0,1196.0,3779.0,,,,-2.35285641918322,-3.00850629863383,-2.14166663515485,,4.290778319826821,,
,10141.0,2061.0,9735.0,2506.0,-31.0,1201.0,3809.0,,,,-2.352943091971,-3.00857270186656,-2.14135897965519,,4.541680119195869,,
,10135.0,2057.0,9731.0,2509.0,-36.0,1192.0,3786.0,,,,-2.35349910862581,-3.00860686534424,-2.14186950938221,,4.748389133127419,,
,10131.0,2056.0,9731.0,2507.0,-37.0,1165.0,3759.0,,,,-2.35358244489482,-3.00850029124821,-2.14161703517711,,4.907294934301205,,
,10129.0,2057.0,9733.0,2507.0,-24.0,1173.0,3766.0,,,,-2.35371459385646,-3.0084559695646,-2.14268903333591,,5.014717216888194,,
,10126.0,2056.0,9732.0,2509.0,-30.0,1181.0,3777.0,,,,-2.35462074133141,-3.00850320562494,-2.14327154121336,,5.067080358303248,,
,10125.0,2056.0,9733.0,2506.0,-35.0,1175.0,3765.0,,,,-2.35395352385898,-3.0085918970269,-2.14416755384258,,5.06117270897843,,
,10122.0,2054.0,9733.0,2506.0,-28.0,1185.0,3770.0,,,,-2.35444014994819,-3.00858007270031,-2.14447900926006,,4.994469471282586,,
,10118.0,2052.0,9728.0,2506.0,-25.0,1183.0,3762.0,,,,-2.35488674004346,-3.00861557048513,-2.14446438393045,,4.865483938114212,,
,10120.0,2054.0,9730.0,2508.0,-28.0,1177.0,3783.0,,,,-2.35353448532062,-3.00856712207378,-2.14431778459163,,4.6741032846673125,,
,10119.0,2052.0,9733.0,2508.0,-33.0,1176.0,3787.0,,,,-2.35447390205787,-3.00857260977521,-2.14437164622881,,4.421863078362978,,
,10114.0,2054.0,9730.0,2507.0,-41.0,1184.0,3778.0,,,,-2.3544126665302,-3.00857533730395,-2.14419224248192,,4.1121188594166735,,
,10111.0,2051.0,9730.0,2506.0,-29.0,1169.0,3791.0,,,,-2.355696690688,-3.00862112154394,-2.14481531003512,,3.750082880944954,,
,10114.0,2052.0,9734.0,2507.0,-33.0,1184.0,3795.0,,,,-2.35633930494657,-3.00862537390429,-2.14430711997682,,3.342708790742265,,
,10114.0,2052.0,9733.0,2507.0,-34.0,1187.0,3776.0,,,,-2.35873406873122,-3.00853963772215,-2.14444705614815,,2.8984257892853726,,
,10110.0,2054.0,9732.0,2508.0,-31.0,1167.0,3793.0,,,,-2.35971912093444,-3.00862366542481,-2.14483580811922,,2.4267445783484822,,
,10110.0,2053.0,9729.0,2508.0,-24.0,1162.0,3800.0,,,,-2.36031112567673,-3.00876854894428,-2.14371053399175,,1.9377764284899799,,
,10108.0,2055.0,9731.0,2508.0,-23.0,1190.0,3791.0,,,,-2.35966813099987,-3.0087126784312,-2.14309201598582,,1.4417190949999996,,
,10109.0,2056.0,9731.0,2507.0,-24.0,1177.0,3797.0,,,,-2.3600845125414,-3.00863566771756,-2.1423176179776,,0.948365598799157,,
,10107.0,2055.0,9733.0,2508.0,-30.0,1181.0,3806.0,,,,-2.36147493120292,-3.00862706476886,-2.14197400000216,,0.46668402552654836,,
,10105.0,2053.0,9734.0,2506.0,-37.0,1201.0,3780.0,,,,-2.36092392472846,-3.0087733168249,-2.14276731937737,,0.0045015451403378325,,
,10108.0,2054.0,9732.0,2509.0,-38.0,1192.0,3765.0,,,,-2.36067719135754,-3.00859400271407,-2.1426586175424,,-0.43169218752180233,,
,10108.0,2054.0,9737.0,2509.0,-33.0,1181.0,3750.0,,,,-2.36033739971877,-3.00864934036235,-2.14397654413233,,-0.8368249143247664,,
,10110.0,2056.0,9735.0,2508.0,-39.0,1176.0,3766.0,,,,-2.35932589547287,-3.00864442615944,-2.14310325680199,,-1.2072228190800323,,
,10109.0,2056.0,9736.0,2509.0,-37.0,1195.0,3798.0,,,,-2.35950800562865,-3.00859906647344,-2.14359170994103,,-1.540521404379035,,
,10109.0,2056.0,9734.0,2509.0,-30.0,1183.0,3807.0,,,,-2.35900988098175,-3.00870392281361,-2.14362153923881,,-1.8355398430767227,,
,10109.0,2056.0,9738.0,2506.0,-31.0,1167.0,3803.0,,,,-2.35954535478336,-3.00867695365735,-2.14359442164945,,-2.092150939720532,,
,10110.0,2060.0,9739.0,2508.0,-29.0,1161.0,3791.0,,,,-2.35873762221889,-3.00861504810113,-2.14377815083086,,-2.311171093694919,,
,10108.0,2057.0,9738.0,2506.0,-36.0,1189.0,3783.0,,,,-2.35825246611864,-3.00862740519421,-2.14238663450645,,-2.49428184528443,,
,10112.0,2058.0,9735.0,2507.0,-41.0,1196.0,3772.0,,,,-2.35977218337146,-3.00866865039718,-2.14348934593087,,-2.6439789654568093,,
,10109.0,2057.0,9739.0,2510.0,-36.0,1180.0,3779.0,,,,-2.3579480800876,-3.00867696725404,-2.14283439511475,,-2.763530232038807,,
,10108.0,2061.0,9739.0,2510.0,-27.0,1183.0,3782.0,,,,-2.35948309392003,-3.00861435834606,-2.14295860963908,,-2.8569133663240778,,
,10110.0,2060.0,9741.0,2511.0,-22.0,1200.0,3797.0,,,,-2.35854097945296,-3.00863833728433,-2.14359279026073,,-2.928704261633181,,
,10108.0,2058.0,9738.0,2506.0,-20.0,1206.0,3791.0,,,,-2.35725761855824,-3.00862661932445,-2.14255756593571,,-2.9838929271421186,,
,10108.0,2057.0,9741.0,2510.0,-39.0,1199.0,3800.0,,,,-2.35714161623428,-3.00853568459032,-2.14307508570198,,-3.0276181249953265,,
,10111.0,2058.0,9742.0,2508.0,-30.0,1197.0,3787.0,,,,-2.35815468296559,-3.00855826314872,-2.14249431901388,,-3.0648280817845035,,
,10110.0,2058.0,9742.0,2511.0,-27.0,1182.0,3783.0,,,,-2.35744339027775,-3.0086074408104,-2.14263532660991,,-3.0998908542221124,,
,10106.0,2059.0,9739.0,2508.0,-16.0,1193.0,3791.0,,,,-2.35734888700242,-3.0087162783818,-2.14237522134871,,-3.1361916063621003,,
,10108.0,2059.0,9742.0,2509.0,-24.0,1182.0,3778.0,,,,-2.35659465275129,-3.00861561644657,-2.14281065805256,,-3.1757633264761354,,
,10111.0,2058.0,9744.0,2509.0,-31.0,1175.0,3759.0,,,,-2.35705050212085,-3.00862784526378,-2.14257789935787,,-3.219000674119261,,
,10110.0,2060.0,9745.0,2511.0,-33.0,1168.0,3751.0,,,,-2.35685650810232,-3.00850042411233,-2.14255986239111,,-3.2645024258366098,,
,10108.0,2057.0,9743.0,2510.0,-36.0,1177.0,3772.0,,,,-2.35676959558999,-3.00856921195789,-2.14233897829003,,-3.3090760189531694,,
,10110.0,2059.0,9748.0,2510.0,-17.0,1173.0,3769.0,,,,-2.35796858789693,-3.00862647377797,-2.14314281434956,,-3.3479188554800396,,
2025-08-19 21:00:30,10113.0,2060.0,9745.0,2509.0,-24.0,1175.0,3766.0,,,2025/08/19 09:00:30 PM,-2.35612544206311,-3.0086064001962,-2.14244795457758,,-3.3749676836920557,,
,10109.0,2060.0,9747.0,2509.0,-23.0,1176.0,3778.0,,,,-2.35747274692687,-3.00857004448235,-2.14247363932591,,-3.383383537045235,,
,10112.0,2060.0,9746.0,2510.0,-40.0,1180.0,3800.0,,,,-2.35688617455008,-3.00853725480745,-2.14362587629864,,-3.366120390370812,,
,10111.0,2061.0,9746.0,2509.0,-36.0,1177.0,3748.0,,,,-2.35720703697228,-3.00858042828608,-2.14385347411541,,-3.3165150195123188,,
,10116.0,2062.0,9747.0,2512.0,-35.0,1164.0,3781.0,,,,-2.35763735947375,-3.00860026068314,-2.14474435995111,,-3.2288349535366705,,
,10114.0,2063.0,9748.0,2510.0,-24.0,1171.0,3797.0,,,,-2.35718710652574,-3.00857818846952,-2.14394688355486,,-3.0987295260138863,,
,10113.0,2062.0,9747.0,2510.0,-34.0,1187.0,3812.0,,,,-2.35796090474075,-3.00860155710854,-2.14414225441997,,-2.92354318711028,,
,10116.0,2065.0,9751.0,2511.0,-30.0,1183.0,3797.0,,,,-2.35703262742455,-3.00866864334303,-2.14435419133256,,-2.7024679638423885,,
,10116.0,2065.0,9754.0,2509.0,-34.0,1193.0,3776.0,,,,-2.35724821805082,-3.0087005230498,-2.14428884681053,,-2.436531417671013,,
,10119.0,2065.0,9752.0,2509.0,-29.0,1185.0,3790.0,,,,-2.35902033684471,-3.00868447328589,-2.14470215332776,,-2.1284358797083525,,
,10120.0,2067.0,9753.0,2513.0,-36.0,1201.0,3796.0,,,,-2.35750892533805,-3.00863720071643,-2.14404065465738,,-1.7822818603906985,,
,10121.0,2065.0,9752.0,2508.0,-27.0,1207.0,3815.0,,,,-2.35732403757362,-3.00866931453822,-2.1445292484763,,-1.4032206206260458,,
,10122.0,2068.0,9753.0,2511.0,-37.0,1179.0,3821.0,,,,-2.35876456116387,-3.00869634202862,-2.14425104214769,,-0.9970854618739541,,
,10120.0,2069.0,9754.0,2512.0,-39.0,1182.0,3811.0,,,,-2.35743414472104,-3.00853811101766,-2.14375304852211,,-0.5700470151737823,,
,10124.0,2068.0,9758.0,2512.0,-32.0,1190.0,3803.0,,,,-2.35732076359731,-3.00859366519472,-2.14462071242281,,-0.1283256367852359,,
,10124.0,2069.0,9755.0,2514.0,-34.0,1185.0,3803.0,,,,-2.35819547108831,-3.00867377400725,-2.1446782268911,,0.3220222942400602,,
,10129.0,2071.0,9758.0,2513.0,-28.0,1186.0,3813.0,,,,-2.35827802087806,-3.00865837545293,-2.14581682852686,,0.7752425851929137,,
,10131.0,2071.0,9760.0,2515.0,-36.0,1185.0,3810.0,,,,-2.35825624610953,-3.00866599645837,-2.14493603793823,,1.2259545059857917,,
,10129.0,2073.0,9760.0,2512.0,-45.0,1184.0,3815.0,,,,-2.35732523244655,-3.00863807755951,-2.14465259705687,,1.6691679967571764,,
,10134.0,2073.0,9758.0,2513.0,-33.0,1178.0,3780.0,,,,-2.35742660177581,-3.00862244666712,-2.14435304433126,,2.10025983728455,,
,10133.0,2075.0,9761.0,2515.0,-24.0,1187.0,3777.0,,,,-2.35685258294181,-3.00866112430619,-2.14472988954034,,2.514920158379302,,
,10136.0,2075.0,9761.0,2516.0,-17.0,1187.0,3794.0,,,,-2.35709284101389,-3.00860822342696,-2.14405951997551,,2.909078837955969,,
,10139.0,2073.0,9761.0,2514.0,-23.0,1188.0,3800.0,,,,-2.35676659965734,-3.00861837512364,-2.14471131184761,,3.2788200371700107,,
,10136.0,2075.0,9762.0,2514.0,-32.0,1185.0,3809.0,,,,-2.35896910459811,-3.00863811742527,-2.14424926983193,,3.6202926595556346,,
,10141.0,2077.0,9761.0,2515.0,-25.0,1184.0,3814.0,,,,-2.35719310568884,-3.0086557079606,-2.14492008246586,,3.9296250289737795,,
,10142.0,2078.0,9764.0,2516.0,-29.0,1169.0,3802.0,,,,-2.35793787965485,-3.00856242052541,-2.14436748780389,,4.202853706630599,,
,10145.0,2079.0,9765.0,2513.0,-31.0,1171.0,3776.0,,,,-2.35644319936809,-3.00862804203397,-2.14519083025488,,4.4358790549733715,,
,10145.0,2082.0,9763.0,2513.0,-32.0,1173.0,3768.0,,,,-2.35717221274595,-3.00865281048285,-2.14475920224522,,4.624463377559544,,
,10148.0,2080.0,9763.0,2516.0,-38.0,1182.0,3784.0,,,,-2.3574193771105,-3.00866534811784,-2.14424382231472,,4.764289629275762,,
,10152.0,2081.0,9767.0,2518.0,-30.0,1197.0,3798.0,,,,-2.35613325785338,-3.00862786560734,-2.14372459324097,,4.851097010342207,,
,10153.0,2081.0,9766.0,2516.0,-27.0,1198.0,3787.0,,,,-2.35620141215162,-3.0085457020591,-2.1448892053712,,4.880901674315876,,
,10152.0,2081.0,9765.0,2517.0,-31.0,1195.0,3752.0,,,,-2.35568126510194,-3.00851527534852,-2.14368848688284,,4.850296353558888,,
,10152.0,2077.0,9760.0,2514.0,-42.0,1177.0,3753.0,,,,-2.3547100019798,-3.00863579842119,-2.14318753798546,,4.7568054008000935,,
,10152.0,2079.0,9762.0,2514.0,-34.0,1177.0,3781.0,,,,-2.35441835031181,-3.00862102931063,-2.1434087442257,,4.599256551075372,,
,10151.0,2076.0,9759.0,2513.0,-38.0,1182.0,3804.0,,,,-2.35334567612104,-3.00850027164402,-2.14303726910377,,4.3781214898558884,,
,10150.0,2072.0,9755.0,2514.0,-41.0,1188.0,3805.0,,,,-2.35335066360566,-3.0086055915288,-2.14267091422057,,4.095775621157914,,
,10146.0,2066.0,9753.0,2509.0,-33.0,1172.0,3813.0,,,,-2.35496477293122,-3.00852584611447,-2.1430454199201,,3.7566330299774138,,
,10144.0,2063.0,9752.0,2510.0,-36.0,1176.0,3789.0,,,,-2.35457865275164,-3.00848807854955,-2.14142722332942,,3.3671246289556054,,
,10138.0,2061.0,9753.0,2510.0,-30.0,1203.0,3777.0,,,,-2.35442385501411,-3.00859500311665,-2.14195040324764,,2.9355048617511645,,
,10135.0,2057.0,9750.0,2510.0,-30.0,1210.0,3772.0,,,,-2.35346362012853,-3.00850656209833,-2.14251102054829,,2.4714936968251844,,
,10126.0,2054.0,9745.0,2507.0,-28.0,1201.0,3792.0,,,,-2.35415665160822,-3.00853549743329,-2.14172968848929,,1.9857835239814396,,
,10121.0,2053.0,9747.0,2505.0,-31.0,1216.0,3791.0,,,,-2.35267553392951,-3.0085287928152,-2.14212780665623,,1.4894610164978017,,
,10118.0,2054.0,9744.0,2507.0,-30.0,1177.0,3809.0,,,,-2.35521511070804,-3.00860645415069,-2.14200734403755,,0.9934071704239709,,
,10114.0,2051.0,9742.0,2507.0,-36.0,1178.0,3812.0,,,,-2.35479306327538,-3.00856977098117,-2.14286671117379,,0.507740795411447,,
,10112.0,2048.0,9742.0,2507.0,-36.0,1182.0,3798.0,,,,-2.35378256469024,-3.00851281368424,-2.14330557171159,,0.041361196407872204,,
,10107.0,2050.0,9744.0,2506.0,-27.0,1181.0,3808.0,,,,-2.35247375251654,-3.00855937613068,-2.14245809355553,,-0.3983723626990449,,
,10103.0,2046.0,9741.0,2508.0,-37.0,1188.0,3780.0,,,,-2.35457318656289,-3.00858471268498,-2.14358637156313,,-0.8058088585620535,,
,10102.0,2046.0,9740.0,2503.0,-34.0,1185.0,3758.0,,,,-2.35623315221314,-3.00857281673338,-2.14307278644314,,-1.177027183062487,,
,10099.0,2047.0,9741.0,2505.0,-21.0,1170.0,3777.0,,,,-2.35423949992648,-3.00855084890644,-2.14300538314286,,-1.5097344901777006,,
,10097.0,2046.0,9739.0,2505.0,-24.0,1178.0,3783.0,,,,-2.35532839637333,-3.00852276322078,-2.14317773252695,,-1.8030760886983699,,
,10092.0,2043.0,9742.0,2507.0,-29.0,1187.0,3789.0,,,,-2.35522194069982,-3.00854113975297,-2.14297247950415,,-2.0573972768813427,,
,10088.0,2048.0,9743.0,2507.0,-17.0,1169.0,3793.0,,,,-2.35730175265538,-3.00854802036872,-2.14318778152867,,-2.2739970941291694,,
,10087.0,2045.0,9738.0,2506.0,-22.0,1177.0,3799.0,,,,-2.35855378369183,-3.00852848258513,-2.14297266514994,,-2.454908073102421,,
,10084.0,2045.0,9737.0,2504.0,-21.0,1186.0,3783.0,,,,-2.35885968366975,-3.00860019304175,-2.14170515593822,,-2.6027253504168004,,
,10083.0,2043.0,9738.0,2506.0,-27.0,1190.0,3792.0,,,,-2.36031883889478,-3.00857495418048,-2.14118950405922,,-2.7204939038458003,,
,10082.0,2043.0,9741.0,2505.0,-32.0,1202.0,3787.0,,,,-2.35945777959678,-3.00850323877643,-2.14066207727895,,-2.811646132505215,,
,10080.0,2045.0,9739.0,2505.0,-28.0,1206.0,3778.0,,,,-2.35946865992112,-3.00858250935427,-2.14026618213686,,-2.8799668943685535,,
,10077.0,2043.0,9741.0,2506.0,-28.0,1189.0,3796.0,,,,-2.35998723097838,-3.0086226248896,-2.14028559111292,,-2.9295537072520856,,
,10074.0,2043.0,9739.0,2504.0,-29.0,1154.0,3802.0,,,,-2.35951594960786,-3.00864114625737,-2.13919004940178,,-2.9647390973602192,,
,10075.0,2045.0,9741.0,2506.0,-28.0,1158.0,3789.0,,,,-2.35877231506503,-3.00859636675939,-2.13990070833404,,-2.98995010822141,,
,10075.0,2043.0,9741.0,2506.0,-37.0,1158.0,3783.0,,,,-2.36001321405942,-3.00856130623222,-2.14015667287403,,-3.009494237909557,,
,10073.0,2042.0,9740.0,2505.0,-36.0,1162.0,3784.0,,,,-2.35958760727912,-3.00854517748713,-2.1404677775185,,-3.0272781031063296,,
,10071.0,2044.0,9740.0,2506.0,-33.0,1158.0,3807.0,,,,-2.36027996102677,-3.00862791373799,-2.14063510346523,,-3.0464818664450046,,
,10072.0,2045.0,9745.0,2506.0,-29.0,1188.0,3783.0,,,,-2.3594973454413,-3.00853195703061,-2.14014074473319,,-3.06922649143074,,
,10071.0,2042.0,9742.0,2506.0,-34.0,1182.0,3791.0,,,,-2.35811632610519,-3.00851569723715,-2.14040467012471,,-3.096280112254183,,
,10070.0,2044.0,9746.0,2505.0,-30.0,1184.0,3795.0,,,,-2.35836177346379,-3.00852071934293,-2.1397251987299,,-3.126852329127356,,
,10068.0,2042.0,9744.0,2507.0,-28.0,1185.0,3795.0,,,,-2.35845808671365,-3.0084853066426,-2.14059698140373,,-3.158519773501719,,
,10068.0,2047.0,9749.0,2507.0,-28.0,1179.0,3784.0,,,,-2.35782982185647,-3.00856846122948,-2.14040150988497,,-3.187312655470238,,
,10068.0,2047.0,9746.0,2510.0,-37.0,1171.0,3783.0,,,,-2.35823884162271,-3.00847057241735,-2.14075224513303,,-3.207971376803155,,
,10069.0,2045.0,9747.0,2507.0,-33.0,1171.0,3778.0,,,,-2.35768902411119,-3.00853947924122,-2.14069088102967,,-3.2143573453470617,,
,10068.0,2044.0,9745.0,2507.0,-27.0,1182.0,3771.0,,,,-2.35778650354089,-3.00853147578558,-2.1410553328352,,-3.199977186977412,,
,10067.0,2047.0,9747.0,2509.0,-27.0,1184.0,3767.0,,,,-2.35727643639148,-3.00857322893273,-2.14012458033308,,-3.1585599472967254,,
,10067.0,2046.0,9749.0,2507.0,-27.0,1199.0,3806.0,,,,-2.35706275994895,-3.00851980936764,-2.14027428986216,,-3.0846170861039237,,
,10068.0,2046.0,9746.0,2507.0,-36.0,1205.0,3807.0,,,,-2.35703755209166,-3.00849784927817,-2.1395126898288,,-2.9739169057435872,,
,10066.0,2045.0,9747.0,2509.0,-28.0,1202.0,3814.0,,,,-2.35783678874421,-3.00863917523375,-2.13988991160996,,-2.823817449695797,,
,10066.0,2046.0,9746.0,2508.0,-20.0,1196.0,3794.0,,,,-2.35751062108552,-3.00849543188312,-2.13986377149608,,-2.633422161771711,,
,10067.0,2047.0,9749.0,2508.0,-26.0,1190.0,3802.0,,,,-2.35834841409687,-3.00861617455245,-2.14032771331601,,-2.403547629217083,,
,10065.0,2045.0,9751.0,2507.0,-35.0,1177.0,3789.0,,,,-2.35710041637863,-3.00850025810445,-2.13989639641968,,-2.136519309286778,,
,10065.0,2045.0,9751.0,2509.0,-27.0,1176.0,3773.0,,,,-2.35607072161089,-3.00846047643832,-2.13949345054424,,-1.8358354786248086,,
,10066.0,2047.0,9749.0,2509.0,-30.0,1175.0,3787.0,,,,-2.35666973608293,-3.0085996679931,-2.13975985405407,,-1.505757601672209,,
,10065.0,2048.0,9752.0,2510.0,-34.0,1176.0,3792.0,,,,-2.35695918450348,-3.00853390844404,-2.14053788461415,,-1.150893438400188,,
,10066.0,2048.0,9753.0,2508.0,-36.0,1178.0,3798.0,,,,-2.35623869624035,-3.00862207795583,-2.14049114145732,,-0.7758357812087033,,
,10066.0,2046.0,9750.0,2509.0,-26.0,1183.0,3788.0,,,,-2.35716225302748,-3.00845972586588,-2.14087823076183,,-0.3849051444664761,,
,10065.0,2047.0,9752.0,2507.0,-13.0,1179.0,3795.0,,,,-2.35673063164914,-3.00855587037776,-2.14175944860621,,0.017978170922764238,,
,10066.0,2047.0,9753.0,2509.0,-17.0,1193.0,3786.0,,,,-2.35741256353319,-3.00856297873299,-2.14181366552241,,0.42929318501356967,,
,10069.0,2048.0,9754.0,2510.0,-39.0,1186.0,3777.0,,,,-2.35734064211721,-3.00843885796365,-2.14272889287128,,0.8458115913428604,,
,10068.0,2049.0,9753.0,2509.0,-42.0,1182.0,3789.0,,,,-2.35718698276785,-3.00858542952527,-2.14171973995535,,1.264422480806227,,
,10068.0,2050.0,9756.0,2509.0,-51.0,1192.0,3798.0,,,,-2.35671243814809,-3.00856227546137,-2.14145543722116,,1.6819297350366778,,
,10068.0,2050.0,9757.0,2509.0,-39.0,1164.0,3793.0,,,,-2.35698967967879,-3.00859727910479,-2.14122135186598,,2.0948595708164115,,
,10070.0,2051.0,9760.0,2513.0,-22.0,1169.0,3802.0,,,,-2.35759759552299,-3.00851207212374,-2.14196485295527,,2.499307136165917,,
,10067.0,2052.0,9758.0,2508.0,-16.0,1172.0,3802.0,,,,-2.35766233522769,-3.00861396761413,-2.14212358443554,,2.890840591333976,,
,10071.0,2052.0,9758.0,2510.0,-24.0,1176.0,3810.0,,,,-2.35918582818737,-3.00844700269638,-2.14330573592627,,3.2644707559139694,,
,10071.0,2053.0,9760.0,2511.0,-28.0,1168.0,3786.0,,,,-2.35916653476283,-3.00855967402604,-2.14413139909782,,3.614685552333058,,
,10071.0,2056.0,9762.0,2512.0,-30.0,1169.0,3774.0,,,,-2.35865442023268,-3.00858880997347,-2.1440704166374,,3.9355421759591884,,
,10072.0,2056.0,9762.0,2512.0,-32.0,1174.0,3796.0,,,,-2.35932609357204,-3.00865214865203,-2.1443608546079,,4.220806841332836,,
,10072.0,2057.0,9762.0,2511.0,-19.0,1170.0,3809.0,,,,-2.35918519146356,-3.00857687422724,-2.14500047272051,,4.464132266605444,,
,10077.0,2057.0,9761.0,2512.0,-32.0,1175.0,3803.0,,,,-2.36035220907065,-3.00859489899123,-2.14522407471911,,4.65926631533733,,
,10076.0,2060.0,9766.0,2513.0,-35.0,1166.0,3780.0,,,,-2.35936115159893,-3.00865241831685,-2.14555873769739,,4.800289856567235,,
,10074.0,2057.0,9765.0,2512.0,-24.0,1171.0,3772.0,,,,-2.36010757930692,-3.00875202264196,-2.14573615815252,,4.881884903296148,,
,10079.0,2059.0,9767.0,2510.0,-18.0,1180.0,3760.0,,,,-2.35986412086054,-3.00869525252925,-2.1461190170132,,4.89963212476568,,
,10080.0,2059.0,9765.0,2514.0,-34.0,1172.0,3787.0,,,,-2.3605267039598,-3.0086949920464,-2.14701941454526,,4.850328831227112,,
,10083.0,2062.0,9764.0,2515.0,-37.0,1185.0,3814.0,,,,-2.36030414649678,-3.00874021041162,-2.1463093854659,,4.732307015197421,,
,10083.0,2065.0,9770.0,2513.0,-37.0,1181.0,3819.0,,,,-2.35933820721383,-3.00867971081091,-2.14706885185006,,4.545720541910526,,
,10082.0,2061.0,9768.0,2512.0,-37.0,1170.0,3813.0,,,,-2.36081974942774,-3.00872140842522,-2.14798903881056,,4.292764879522447,,
,10085.0,2064.0,9768.0,2513.0,-20.0,1171.0,3807.0,,,,-2.3609524349695,-3.00870500455418,-2.14846542992718,,3.977793323645305,,
,10087.0,2064.0,9771.0,2516.0,-37.0,1161.0,3782.0,,,,-2.36084050747529,-3.0087577036082,-2.14848897642577,,3.6073001049583135,,
,10088.0,2066.0,9771.0,2518.0,-36.0,1180.0,3777.0,,,,-2.36217424449379,-3.00875207019684,-2.14921185044352,,3.1897520146157103,,
,10091.0,2068.0,9773.0,2515.0,-39.0,1182.0,3764.0,,,,-2.36097335839862,-3.00876386564017,-2.15028700278292,,2.7352651928694636,,
,10090.0,2069.0,9773.0,2514.0,-44.0,1179.0,3731.0,,,,-2.36152628898401,-3.00876220359037,-2.15046015144719,,2.255141309881705,,
,10091.0,2068.0,9774.0,2514.0,-43.0,1185.0,3757.0,,,,-2.36247873801461,-3.00872570263944,-2.15024349136747,,1.7612957326100638,,
,10095.0,2072.0,9777.0,2518.0,-30.0,1193.0,3788.0,,,,-2.36162691897064,-3.00877324673921,-2.1505079454111,,1.2656266462927765,,
,10096.0,2071.0,9776.0,2516.0,-23.0,1194.0,3796.0,,,,-2.36162635588035,-3.00872503819003,-2.15047020733255,,0.7793848426184999,,
,10100.0,2072.0,9775.0,2516.0,-29.0,1192.0,3818.0,,,,-2.36038936880981,-3.00876745771358,-2.15056059128284,,0.31260573887969634,,
,10100.0,2072.0,9780.0,2515.0,-29.0,1172.0,3831.0,,,,-2.36221248998937,-3.00876999845706,-2.15067548011913,,-0.1263428538997827,,
,10099.0,2073.0,9779.0,2515.0,-41.0,1169.0,3787.0,,,,-2.36033387808348,-3.0086720259809,-2.15015240671098,,-0.5310597085212879,,
,10103.0,2075.0,9779.0,2517.0,-43.0,1168.0,3773.0,,,,-2.3598509673183,-3.00866208280122,-2.14902369510407,,-0.897238703084055,,
,10102.0,2075.0,9781.0,2516.0,-40.0,1175.0,3789.0,,,,-2.3603754628529,-3.00868238276749,-2.14953466393922,,-1.222630587288582,,
,10106.0,2075.0,9778.0,2516.0,-35.0,1185.0,3776.0,,,,-2.36073726647112,-3.00869528445854,-2.14945624585462,,-1.506860338395395,,
,10108.0,2077.0,9780.0,2516.0,-33.0,1208.0,3783.0,,,,-2.35950157729888,-3.00862853593555,-2.14952197923124,,-1.7511367822746635,,
,10108.0,2075.0,9775.0,2518.0,-34.0,1202.0,3774.0,,,,-2.35979327865415,-3.00867710971931,-2.1486019979157,,-1.957899743173058,,
,10108.0,2076.0,9778.0,2516.0,-31.0,1191.0,3785.0,,,,-2.35928518783162,-3.00869973509438,-2.14932650812986,,-2.1304520684733794,,
,10108.0,2072.0,9772.0,2513.0,-29.0,1166.0,3793.0,,,,-2.3585166977279,-3.0087432637496,-2.1488079548244,,-2.272619391135644,,
,10107.0,2068.0,9772.0,2514.0,-38.0,1165.0,3784.0,,,,-2.35854086588529,-3.00874402926771,-2.1485714571691,,-2.388469938293311,,
,10106.0,2067.0,9771.0,2515.0,-33.0,1161.0,3778.0,,,,-2.3594017539091,-3.00872263086728,-2.14840483641436,,-2.482111150786241,,
,10104.0,2062.0,9769.0,2513.0,-40.0,1162.0,3790.0,,,,-2.35935062555749,-3.00878681363851,-2.14901160629151,,-2.557561533909197,,
,10099.0,2056.0,9765.0,2510.0,-36.0,1169.0,3812.0,,,,-2.35944718248596,-3.00869045604413,-2.14865219751129,,-2.6186787417047044,,
,10095.0,2053.0,9767.0,2512.0,-36.0,1180.0,3788.0,,,,-2.35930105616439,-3.00868826108172,-2.1481973714097,,-2.6691129463274916,,
,10089.0,2051.0,9763.0,2510.0,-35.0,1170.0,3801.0,,,,-2.35852531254504,-3.00864587749624,-2.14747367071659,,-2.712251469820295,,
2025-08-19 21:00:31,10087.0,2049.0,9762.0,2510.0,-37.0,1176.0,3798.0,,,2025/08/19 09:00:31 PM,-2.35802499212113,-3.00871553428046,-2.14727456921244,,-2.7511270298174035,,
,10078.0,2045.0,9758.0,2507.0,-24.0,1185.0,3793.0,,,,-2.35728080592801,-3.00867048609458,-2.14758404277829,,-2.7882754874578977,,
,10073.0,2046.0,9756.0,2508.0,-31.0,1174.0,3794.0,,,,-2.35711604881974,-3.0086531007281,-2.14696044013314,,-2.825545981808069,,
,10070.0,2044.0,9758.0,2505.0,-45.0,1174.0,3789.0,,,,-2.35729892822594,-3.00863577326853,-2.14755637350159,,-2.863883155216051,,
,10062.0,2044.0,9755.0,2508.0,-48.0,1174.0,3803.0,,,,-2.36003455696396,-3.0087561687323,-2.14733924958278,,-2.903114871116263,,
,10060.0,2040.0,9754.0,2505.0,-41.0,1175.0,3799.0,,,,-2.36045368557711,-3.00868627072255,-2.14773168189238,,-2.9417870930242556,,
,10054.0,2037.0,9751.0,2503.0,-40.0,1176.0,3815.0,,,,-2.36195472114673,-3.00871159260712,-2.14806894699968,,-2.977088703525514,,
,10053.0,2038.0,9754.0,2507.0,-30.0,1168.0,3770.0,,,,-2.3627945008922,-3.0087859870272,-2.14801346799794,,-3.004902056801215,,
,10048.0,2038.0,9753.0,2508.0,-28.0,1179.0,3767.0,,,,-2.36370386792257,-3.00879920989648,-2.14740602575859,,-3.020000097335666,,
,10044.0,2038.0,9754.0,2506.0,-27.0,1184.0,3762.0,,,,-2.36394582538138,-3.00866273170359,-2.14597548511452,,-3.0163893549253995,,
,10042.0,2037.0,9751.0,2508.0,-31.0,1179.0,3765.0,,,,-2.36452389931487,-3.00869471853879,-2.14525687220279,,-2.9877731231142826,,
,10039.0,2038.0,9749.0,2505.0,-29.0,1177.0,3771.0,,,,-2.36245736396878,-3.00867545087411,-2.14551601801155,,-2.928085551908429,,
,10035.0,2037.0,9751.0,2508.0,-34.0,1170.0,3787.0,,,,-2.36205233606421,-3.00862935976146,-2.14347010536253,,-2.8320310037089578,,
,10032.0,2036.0,9750.0,2507.0,-33.0,1175.0,3775.0,,,,-2.36245156173141,-3.00865449494628,-2.14287725403561,,-2.6955583135494243,,
,10028.0,2035.0,9750.0,2504.0,-33.0,1170.0,3792.0,,,,-2.36165477302968,-3.00862742994827,-2.14412879495028,,-2.5162078897673816,,
,10023.0,2038.0,9747.0,2505.0,-31.0,1161.0,3800.0,,,,-2.36262848486324,-3.00865190546617,-2.14361383299163,,-2.29328894044904,,
,10023.0,2036.0,9749.0,2506.0,-36.0,1158.0,3788.0,,,,-2.36392711863361,-3.00856049687355,-2.14442813123328,,-2.0278706195678335,,
,10024.0,2032.0,9750.0,2505.0,-26.0,1170.0,3776.0,,,,-2.36280352835852,-3.00863154333715,-2.14413738605056,,-1.72260000274017,,
,10018.0,2033.0,9748.0,2502.0,-26.0,1167.0,3812.0,,,,-2.36182877400577,-3.00859233272577,-2.14375267520331,,-1.3813867682667935,,
,10017.0,2032.0,9749.0,2507.0,-34.0,1167.0,3800.0,,,,-2.36072983042675,-3.00865471322519,-2.14388478302011,,-1.0090145772362253,,
,10016.0,2035.0,9751.0,2507.0,-33.0,1155.0,3776.0,,,,-2.36058218925628,-3.00860079716731,-2.14362516589023,,-0.6107486323502874,,
,10013.0,2033.0,9753.0,2507.0,-32.0,1152.0,3765.0,,,,-2.35993598190372,-3.00861615298881,-2.14334243184232,,-0.19200590451853208,,
,10009.0,2034.0,9749.0,2505.0,-42.0,1174.0,3792.0,,,,-2.36090879821871,-3.00861284310353,-2.14315514069318,,0.2418604957379841,,
,10009.0,2033.0,9748.0,2504.0,-40.0,1170.0,3774.0,,,,-2.36141774365768,-3.0085815755553,-2.14279163331347,,0.6856358222017934,,
,10009.0,2033.0,9752.0,2505.0,-38.0,1173.0,3788.0,,,,-2.36032957322889,-3.0086149680209,-2.14197381013425,,1.1341796350949902,,
,10010.0,2035.0,9752.0,2506.0,-39.0,1188.0,3789.0,,,,-2.36049259609478,-3.00855312227119,-2.14257651603477,,1.582254320091726,,
,10007.0,2034.0,9754.0,2506.0,-39.0,1186.0,3804.0,,,,-2.36012414573885,-3.0085971493042,-2.14203996538266,,2.024298678311235,,
,10006.0,2033.0,9750.0,2505.0,-41.0,1181.0,3829.0,,,,-2.36056016092487,-3.00851040938768,-2.14229469664105,,2.4542089390473283,,
,10007.0,2035.0,9752.0,2507.0,-33.0,1189.0,3797.0,,,,-2.36041980365686,-3.00854566107664,-2.14349632770379,,2.865187120681235,,
,10005.0,2037.0,9755.0,2508.0,-30.0,1176.0,3795.0,,,,-2.36104588204293,-3.00853805780603,-2.14366778389664,,3.249704220971004,,
,10005.0,2038.0,9757.0,2509.0,-34.0,1185.0,3771.0,,,,-2.36090060213031,-3.00864833968629,-2.14422876066758,,3.599606803460356,,
,10005.0,2034.0,9753.0,2506.0,-31.0,1173.0,3810.0,,,,-2.36083257780305,-3.00854338627231,-2.14341217800645,,3.9063734893270734,,
,9999.0,2035.0,9756.0,2508.0,-26.0,1181.0,3807.0,,,,-2.36077660894225,-3.0086467446498,-2.14391403516048,,4.161505382012734,,
,10003.0,2039.0,9755.0,2505.0,-31.0,1183.0,3775.0,,,,-2.36049801647711,-3.00860142455856,-2.14292745768516,,4.357014030185037,,
,10002.0,2037.0,9756.0,2509.0,-27.0,1178.0,3765.0,,,,-2.35859846027282,-3.00853571384492,-2.14275603899702,,4.485954723334625,,
,10000.0,2036.0,9758.0,2506.0,-40.0,1186.0,3770.0,,,,-2.3608565962124,-3.0085623559032,-2.14345583532674,,4.542944162710825,,
,10001.0,2037.0,9759.0,2508.0,-35.0,1174.0,3779.0,,,,-2.358845069108,-3.00867571098545,-2.14350776247175,,4.52460180006087,,
,10001.0,2038.0,9757.0,2508.0,-23.0,1180.0,3791.0,,,,-2.35831741557179,-3.00860002162676,-2.14291238661789,,4.429864212680071,,
,9997.0,2038.0,9756.0,2507.0,-22.0,1180.0,3803.0,,,,-2.35926028639546,-3.00862639423074,-2.14384113445908,,4.260140470147451,,
,9997.0,2036.0,9754.0,2505.0,-21.0,1173.0,3806.0,,,,-2.35956290523015,-3.00850199658897,-2.14429615943181,,4.019299399691777,,
,9998.0,2037.0,9760.0,2506.0,-20.0,1176.0,3814.0,,,,-2.35973055303315,-3.00867001559753,-2.14455286760018,,3.713501099103554,,
,9995.0,2037.0,9761.0,2509.0,-32.0,1176.0,3803.0,,,,-2.35973946688061,-3.00865827622859,-2.14510814981375,,3.35090012579765,,
,9996.0,2038.0,9758.0,2510.0,-31.0,1181.0,3785.0,,,,-2.36030523717535,-3.00862412761123,-2.14467365339666,,2.941254818371961,,
,9996.0,2037.0,9761.0,2508.0,-27.0,1179.0,3784.0,,,,-2.36047197290799,-3.0086497541973,-2.14478347089828,,2.495477489506373,,
,9996.0,2038.0,9765.0,2509.0,-32.0,1170.0,3787.0,,,,-2.36089518008853,-3.00859262211897,-2.14530720343497,,2.025156302657374,,
,9997.0,2040.0,9765.0,2509.0,-35.0,1185.0,3802.0,,,,-2.36056038161955,-3.00864852804501,-2.14609774918491,,1.5420737450071795,,
,9998.0,2038.0,9765.0,2509.0,-27.0,1179.0,3789.0,,,,-2.3607199135962,-3.00870120728962,-2.14450342736083,,1.0577403012706337,,
,9998.0,2038.0,9763.0,2508.0,-21.0,1164.0,3780.0,,,,-2.36156257378081,-3.00859809388664,-2.14490666070232,,0.5829564585103478,,
,9997.0,2039.0,9763.0,2509.0,-40.0,1181.0,3784.0,,,,-2.359990616882,-3.00866214058297,-2.14538570117418,,0.12741265159210055,,
,10001.0,2040.0,9767.0,2510.0,-25.0,1169.0,3770.0,,,,-2.36092185604135,-3.00867007387631,-2.14590437479362,,-0.3006639750004525,,
,10000.0,2042.0,9765.0,2510.0,-26.0,1179.0,3756.0,,,,-2.36163329936435,-3.00863346482121,-2.14577445295005,,-0.6948048326154476,,
,10001.0,2043.0,9768.0,2510.0,-24.0,1184.0,3758.0,,,,-2.36047317685283,-3.00860810742264,-2.14489234850368,,-1.0505215977781732,,
,9999.0,2043.0,9767.0,2510.0,-16.0,1181.0,3776.0,,,,-2.36082285954642,-3.00870413671556,-2.14519091756585,,-1.365434608942518,,
,10002.0,2044.0,9769.0,2510.0,-27.0,1180.0,3790.0,,,,-2.36076802636231,-3.00865088012243,-2.14617964410786,,-1.6392875653464642,,
,10004.0,2045.0,9768.0,2513.0,-41.0,1184.0,3797.0,,,,-2.36033340391275,-3.00872334339151,-2.14596181317317,,-1.873833284294456,,
,10004.0,2046.0,9771.0,2512.0,-44.0,1178.0,3805.0,,,,-2.3609256929198,-3.00869468312663,-2.14680450965817,,-2.07258584053237,,
,10004.0,2046.0,9770.0,2509.0,-24.0,1172.0,3804.0,,,,-2.36030189757211,-3.00870667186596,-2.14663148922025,,-2.240447980537122,,
,10008.0,2047.0,9775.0,2510.0,-27.0,1194.0,3815.0,,,,-2.35971542101976,-3.00872046774089,-2.14708642966058,,-2.383236436884845,,
,10007.0,2049.0,9772.0,2512.0,-37.0,1198.0,3793.0,,,,-2.35976108063648,-3.0085989690759,-2.14698925058379,,-2.507139545449249,,
,10011.0,2053.0,9772.0,2512.0,-39.0,1184.0,3783.0,,,,-2.35993807709362,-3.00872724504972,-2.14713549290611,,-2.6181501206365727,,
,10014.0,2050.0,9773.0,2513.0,-38.0,1184.0,3767.0,,,,-2.36066009538817,-3.00868554005083,-2.147655608562,,-2.721521108095721,,
,10011.0,2050.0,9775.0,2510.0,-32.0,1207.0,3789.0,,,,-2.360257824774,-3.00867071996485,-2.14744079053474,,-2.8212916104384416,,
,10015.0,2053.0,9779.0,2514.0,-36.0,1183.0,3787.0,,,,-2.35960332464634,-3.00872633617067,-2.14756449164148,,-2.9199262103392876,,
,10017.0,2055.0,9778.0,2517.0,-37.0,1177.0,3788.0,,,,-2.35916631810162,-3.00871738012846,-2.14663302339712,,-3.0181010869071407,,
,10016.0,2055.0,9779.0,2514.0,-34.0,1160.0,3794.0,,,,-2.3591151962375,-3.00861878890711,-2.1476215310461,,-3.114656502112702,,
,10017.0,2056.0,9781.0,2513.0,-42.0,1170.0,3780.0,,,,-2.3599412666255,-3.00869687282774,-2.1474745770114,,-3.2067176796543633,,
,10020.0,2057.0,9780.0,2516.0,-42.0,1174.0,3787.0,,,,-2.3600175487163,-3.00873049828739,-2.14800688955072,,-3.289966949712673,,
,10020.0,2057.0,9782.0,2514.0,-39.0,1173.0,3785.0,,,,-2.35847729175016,-3.00866011937564,-2.14689293765138,,-3.3590327262920887,,
,10023.0,2059.0,9781.0,2516.0,-29.0,1185.0,3782.0,,,,-2.35901512414351,-3.00867399095246,-2.147150741926,,-3.4079492706526278,,
,10026.0,2057.0,9781.0,2513.0,-37.0,1176.0,3792.0,,,,-2.35936232090564,-3.00867707586734,-2.14694854546371,,-3.4306376589307463,,
,10027.0,2060.0,9782.0,2513.0,-32.0,1182.0,3764.0,,,,-2.35953806171451,-3.00870698039633,-2.14612576041554,,-3.421362583387787,,
,10030.0,2062.0,9783.0,2515.0,-17.0,1174.0,3779.0,,,,-2.35799022019514,-3.00868675670387,-2.14667021908545,,-3.375129039412084,,
,10032.0,2064.0,9785.0,2514.0,-19.0,1172.0,3800.0,,,,-2.3579501725182,-3.0085305610157,-2.14668541054498,,-3.287994534761581,,
,10030.0,2064.0,9784.0,2513.0,-16.0,1180.0,3816.0,,,,-2.35749229627832,-3.00857394301378,-2.14503684374139,,-3.1572839846819782,,
,10034.0,2062.0,9786.0,2516.0,-3.0,1172.0,3803.0,,,,-2.35663449333339,-3.00854710226107,-2.14525981780673,,-2.981704738754423,,
,10036.0,2065.0,9786.0,2516.0,-15.0,1181.0,3791.0,,,,-2.3584693484855,-3.0086238319802,-2.14551007091283,,-2.761367635163483,,
,10038.0,2065.0,9787.0,2517.0,-18.0,1176.0,3796.0,,,,-2.35695575158716,-3.00868404470306,-2.14536508586607,,-2.4977263646833747,,
,10037.0,2063.0,9787.0,2515.0,-29.0,1168.0,3803.0,,,,-2.35751908466791,-3.00857983449248,-2.14569104080479,,-2.1934518045047002,,
,10040.0,2066.0,9787.0,2516.0,-37.0,1179.0,3781.0,,,,-2.3574235348001,-3.00863446563281,-2.14484096744077,,-1.8522603578339554,,
,10043.0,2068.0,9783.0,2516.0,-33.0,1171.0,3770.0,,,,-2.35614870999233,-3.00861476078327,-2.14476799176701,,-1.4787153845054564,,
,10045.0,2068.0,9787.0,2517.0,-34.0,1170.0,3787.0,,,,-2.35747375909536,-3.00850233600933,-2.14374840648855,,-1.078018362242298,,
,10044.0,2065.0,9786.0,2515.0,-44.0,1177.0,3781.0,,,,-2.35566359542735,-3.0085890761195,-2.14352737353287,,-0.6558023370371486,,
,10042.0,2063.0,9783.0,2515.0,-38.0,1185.0,3767.0,,,,-2.35432254207282,-3.00851974729823,-2.14423932347478,,-0.2179363167409114,,
,10043.0,2063.0,9782.0,2515.0,-23.0,1177.0,3795.0,,,,-2.35602015165624,-3.00848574033496,-2.14338156097528,,0.22965289456835974,,
,10042.0,2056.0,9780.0,2514.0,-25.0,1184.0,3811.0,,,,-2.35794611674595,-3.00851032000337,-2.14332574272973,,0.6811349906038406,,
,10037.0,2054.0,9776.0,2513.0,-24.0,1167.0,3808.0,,,,-2.35678470703914,-3.00858926518184,-2.14492451481003,,1.130899048081319,,
,10032.0,2049.0,9774.0,2512.0,-35.0,1158.0,3805.0,,,,-2.35611443876963,-3.00858092193453,-2.14445786930756,,1.5736367695465292,,
,10030.0,2048.0,9773.0,2512.0,-42.0,1166.0,3781.0,,,,-2.35627369278184,-3.00856826125706,-2.14477536164423,,2.004378936812846,,
,10025.0,2045.0,9772.0,2509.0,-42.0,1177.0,3789.0,,,,-2.35585162957306,-3.00843052620309,-2.14381533309314,,2.418481272339473,,
,10018.0,2042.0,9771.0,2508.0,-43.0,1182.0,3790.0,,,,-2.35468309195372,-3.00859040846171,-2.14439225766817,,2.8115611542670282,,
,10013.0,2038.0,9765.0,2507.0,-44.0,1176.0,3786.0,,,,-2.3559147588718,-3.00849715456587,-2.1443178911874,,3.179393175003303,,
,10008.0,2037.0,9763.0,2508.0,-39.0,1170.0,3793.0,,,,-2.35710625549801,-3.00863934022021,-2.14412088132778,,3.517778898982956,,
,10003.0,2036.0,9764.0,2506.0,-35.0,1165.0,3797.0,,,,-2.35771733548531,-3.00863400218021,-2.14484067541634,,3.822413952433572,,
,10000.0,2036.0,9765.0,2507.0,-21.0,1167.0,3798.0,,,,-2.36008454155518,-3.00857897006249,-2.14502572725434,,4.088782871561185,,
,9995.0,2034.0,9763.0,2507.0,-35.0,1170.0,3798.0,,,,-2.36036695106308,-3.00862943855649,-2.14501744556662,,4.312116790016697,,
,9989.0,2031.0,9764.0,2505.0,-44.0,1170.0,3802.0,,,,-2.36274483300957,-3.00867682763234,-2.1450881507994,,4.487447628301309,,
,9988.0,2032.0,9761.0,2506.0,-36.0,1180.0,3783.0,,,,-2.36233641351941,-3.00865787855248,-2.14563746493013,,4.609781962562756,,
,9984.0,2034.0,9761.0,2506.0,-27.0,1172.0,3792.0,,,,-2.36393524801301,-3.00874528213011,-2.14504413043556,,4.674398216240294,,
,9982.0,2032.0,9760.0,2506.0,-29.0,1178.0,3777.0,,,,-2.36467853511596,-3.00863733707029,-2.14463357643945,,4.6772461878515825,,
,9977.0,2033.0,9762.0,2506.0,-36.0,1179.0,3782.0,,,,-2.36384775358584,-3.00864998217524,-2.14460236060337,,4.615404344289075,,
,9975.0,2032.0,9761.0,2507.0,-35.0,1160.0,3790.0,,,,-2.3640682692592,-3.0087258472781,-2.14442567225035,,4.487533422654609,,
,9974.0,2033.0,9762.0,2510.0,-40.0,1159.0,3799.0,,,,-2.36390236841961,-3.00871027981004,-2.14520985482459,,4.294258222229146,,
,9971.0,2031.0,9762.0,2509.0,-27.0,1172.0,3770.0,,,,-2.36379713622022,-3.00862855407603,-2.14454575193757,,4.038414203393683,,
,9969.0,2031.0,9759.0,2505.0,-39.0,1170.0,3800.0,,,,-2.3637422037989,-3.00866167834204,-2.14471769140632,,3.7251109263156494,,
,9968.0,2031.0,9760.0,2509.0,-35.0,1174.0,3804.0,,,,-2.36282568767918,-3.0086375678202,-2.14481431062535,,3.3615883064534677,,
,9963.0,2032.0,9758.0,2508.0,-25.0,1179.0,3798.0,,,,-2.36202916554638,-3.00864578739437,-2.14450162228988,,2.9568707560157406,,
,9964.0,2029.0,9763.0,2508.0,-18.0,1182.0,3799.0,,,,-2.36203701409285,-3.00865436908094,-2.14352593349914,,2.521253982747198,,
,9958.0,2029.0,9760.0,2504.0,-28.0,1154.0,3796.0,,,,-2.36133465320212,-3.00872539114307,-2.14462007942753,,2.0656840062066895,,
,9957.0,2033.0,9763.0,2507.0,-34.0,1170.0,3810.0,,,,-2.36126048343641,-3.00861423340915,-2.14424513045517,,1.601102302031949,,
,9958.0,2032.0,9764.0,2509.0,-26.0,1171.0,3791.0,,,,-2.36192431403667,-3.00859467859864,-2.14380406323567,,1.137831577349634,,
,9956.0,2031.0,9765.0,2509.0,-26.0,1179.0,3789.0,,,,-2.36273594744992,-3.00866263591538,-2.14405832090955,,0.6850643322114096,,
,9952.0,2031.0,9763.0,2507.0,-35.0,1197.0,3790.0,,,,-2.36341997131809,-3.00866565813461,-2.14448600454215,,0.25049556009237406,,
,9954.0,2030.0,9763.0,2509.0,-31.0,1184.0,3762.0,,,,-2.36219180401638,-3.00866547017724,-2.14367709765149,,-0.1598826928810778,,
,9951.0,2033.0,9764.0,2509.0,-31.0,1184.0,3755.0,,,,-2.36197265125699,-3.00858730058394,-2.14366560956852,,-0.5418291943977419,,
,9953.0,2033.0,9765.0,2509.0,-42.0,1176.0,3766.0,,,,-2.36141600399487,-3.00866307009748,-2.14327624223032,,-0.8927658810421674,,
,9952.0,2034.0,9769.0,2509.0,-23.0,1158.0,3789.0,,,,-2.36211391893863,-3.00854419563345,-2.14284124750613,,-1.2115891069154796,,
,9952.0,2032.0,9766.0,2506.0,-22.0,1175.0,3776.0,,,,-2.36092708518285,-3.00859010466429,-2.14311244620084,,-1.4984205949692295,,
,9952.0,2034.0,9769.0,2510.0,-26.0,1178.0,3797.0,,,,-2.36172254599363,-3.00854719985461,-2.14198921423602,,-1.7543392438341694,,
,9952.0,2036.0,9769.0,2509.0,-23.0,1191.0,3787.0,,,,-2.36093024606834,-3.00861399206425,-2.14240545581944,,-1.9811293874077054,,
,9949.0,2035.0,9770.0,2509.0,-42.0,1167.0,3778.0,,,,-2.35978438607376,-3.00852537680337,-2.14267782510222,,-2.1810701215151673,,
,9949.0,2035.0,9768.0,2509.0,-34.0,1162.0,3778.0,,,,-2.36088184899944,-3.00858026713459,-2.14265320388081,,-2.3567751302056537,,
,9949.0,2037.0,9768.0,2510.0,-31.0,1171.0,3787.0,,,,-2.36006166923811,-3.00859480861009,-2.14108940273918,,-2.5110758316079216,,
,9950.0,2035.0,9770.0,2510.0,-23.0,1170.0,3790.0,,,,-2.3603571133368,-3.00860130651507,-2.14190265034907,,-2.646926928697237,,
,9944.0,2037.0,9770.0,2508.0,-25.0,1159.0,3771.0,,,,-2.36048009783036,-3.0085647492527,-2.14153522654235,,-2.767306815469367,,
,9945.0,2034.0,9767.0,2507.0,-25.0,1162.0,3784.0,,,,-2.35786806622707,-3.00859862133491,-2.14209878296297,,-2.8750876851216476,,
,9944.0,2033.0,9771.0,2508.0,-26.0,1165.0,3780.0,,,,-2.3602100434933,-3.00857264096044,-2.14176541253272,,-2.972860447499892,,
,9947.0,2037.0,9772.0,2508.0,-16.0,1158.0,3789.0,,,,-2.36038894716769,-3.0085699892646,-2.14145205870127,,-3.0627144799559076,,
,9948.0,2037.0,9770.0,2511.0,-21.0,1157.0,3788.0,,,,-2.36044485654445,-3.00849233039555,-2.14305512366217,,-3.145988210071065,,
2025-08-19 21:00:32,9944.0,2033.0,9772.0,2510.0,-27.0,1162.0,3776.0,,,2025/08/19 09:00:32 PM,-2.35936483713594,-3.00850748108251,-2.14294721248854,,-3.2230205493703297,,
,9944.0,2032.0,9772.0,2509.0,-45.0,1162.0,3806.0,,,,-2.36001837039751,-3.00865850011202,-2.14351842190904,,-3.2929429152066407,,
,9945.0,2036.0,9774.0,2511.0,-35.0,1161.0,3788.0,,,,-2.35904215036287,-3.0085166093548,-2.14312905367367,,-3.353555077746401,,
,9946.0,2037.0,9775.0,2511.0,-32.0,1157.0,3792.0,,,,-2.36141767740834,-3.00849025983453,-2.14242349854072,,-3.4013239704876814,,
,9943.0,2036.0,9775.0,2511.0,-34.0,1171.0,3769.0,,,,-2.36039127736408,-3.00852068013638,-2.14292948904602,,-3.431532467653337,,
,9945.0,2035.0,9775.0,2511.0,-37.0,1166.0,3761.0,,,,-2.35993424165407,-3.00868468009305,-2.14241145915749,,-3.4385857795649533,,
,9948.0,2037.0,9776.0,2511.0,-41.0,1156.0,3799.0,,,,-2.36133811787744,-3.00859443796093,-2.14277669627804,,-3.4164588496525643,,
,9945.0,2041.0,9777.0,2513.0,-24.0,1157.0,3772.0,,,,-2.36051195496826,-3.00857358431985,-2.14255825511088,,-3.3592429669888144,,
,9946.0,2039.0,9777.0,2510.0,-26.0,1175.0,3785.0,,,,-2.35981463354294,-3.00857442636935,-2.14270998553738,,-3.2617291022757517,,
,9945.0,2038.0,9778.0,2511.0,-17.0,1186.0,3781.0,,,,-2.3605532570127,-3.00866612037073,-2.14391118354255,,-3.1199544001759625,,
,9947.0,2040.0,9780.0,2511.0,-29.0,1173.0,3768.0,,,,-2.3602955222157,-3.0085521479397,-2.14318578146713,,-2.9316397858001984,,
,9948.0,2043.0,9780.0,2513.0,-28.0,1185.0,3778.0,,,,-2.35949593815584,-3.00863083821373,-2.14256134762421,,-2.696460634179906,,
,9949.0,2042.0,9780.0,2514.0,-32.0,1181.0,3789.0,,,,-2.35940783492418,-3.00855647268247,-2.14373522950583,,-2.416116280167552,,
,9948.0,2042.0,9779.0,2510.0,-31.0,1175.0,3789.0,,,,-2.36066010473444,-3.0086036527232,-2.14356209074966,,-2.094193787870177,,
,9952.0,2045.0,9783.0,2513.0,-35.0,1191.0,3778.0,,,,-2.36036322655817,-3.00857115109617,-2.14319180241259,,-1.7358520441546432,,
,9954.0,2048.0,9783.0,2512.0,-23.0,1171.0,3791.0,,,,-2.36134556389382,-3.00859919001964,-2.14301400620156,,-1.3473786013780646,,
,9956.0,2048.0,9781.0,2513.0,-20.0,1167.0,3792.0,,,,-2.36042971784936,-3.00859989121933,-2.1442591751322,,-0.935688801994859,,
,9953.0,2047.0,9783.0,2512.0,-40.0,1177.0,3808.0,,,,-2.35882899553812,-3.00864109491287,-2.14378819177078,,-0.5078412472381668,,
,9955.0,2048.0,9786.0,2514.0,-42.0,1172.0,3782.0,,,,-2.35996544039639,-3.0086387935376,-2.14383378994714,,-0.07063489059726849,,
,9957.0,2051.0,9785.0,2515.0,-40.0,1195.0,3774.0,,,,-2.35990273254563,-3.00866836216244,-2.14485829825055,,0.36966707281181815,,
,9957.0,2052.0,9787.0,2516.0,-36.0,1189.0,3794.0,,,,-2.35894732948726,-3.00852535520742,-2.14340633580358,,0.8074683257344387,,
,9962.0,2052.0,9789.0,2516.0,-37.0,1170.0,3791.0,,,,-2.35942796394846,-3.00864920833974,-2.14440233842106,,1.2378348470792175,,
,9964.0,2053.0,9789.0,2514.0,-30.0,1170.0,3790.0,,,,-2.35944681994746,-3.00858725356857,-2.14446760050808,,1.656385431117299,,
,9964.0,2053.0,9789.0,2517.0,-23.0,1181.0,3799.0,,,,-2.35874081375293,-3.00856501220512,-2.14433030278752,,2.0591196861850594,,
,9964.0,2056.0,9789.0,2516.0,-34.0,1184.0,3774.0,,,,-2.35727308765874,-3.00862331754565,-2.14482763570209,,2.442227431153843,,
,9969.0,2057.0,9789.0,2518.0,-34.0,1182.0,3773.0,,,,-2.35958880480899,-3.00858202761828,-2.14444681501231,,2.8019175019830422,,
,9968.0,2058.0,9791.0,2514.0,-36.0,1198.0,3775.0,,,,-2.35756801407294,-3.00854904933544,-2.14458393914488,,3.134293759304795,,
,9969.0,2057.0,9791.0,2515.0,-26.0,1199.0,3794.0,,,,-2.35872208483583,-3.00856335564085,-2.14441192661748,,3.4352940464648816,,
,9973.0,2059.0,9792.0,2517.0,-28.0,1169.0,3791.0,,,,-2.35956746423624,-3.00848689469304,-2.14456545717716,,3.7006959117131446,,
,9977.0,2060.0,9794.0,2518.0,-30.0,1163.0,3795.0,,,,-2.35867998069358,-3.00859433450593,-2.14433881517582,,3.926182866102019,,
,9978.0,2060.0,9793.0,2515.0,-39.0,1175.0,3789.0,,,,-2.35833708703326,-3.00859543464894,-2.14489703042246,,4.107458491666883,,
,9979.0,2064.0,9797.0,2520.0,-42.0,1159.0,3784.0,,,,-2.35885581175076,-3.00856270692386,-2.14556323314426,,4.240393989063918,,
,9981.0,2064.0,9797.0,2519.0,-30.0,1178.0,3776.0,,,,-2.35822706424408,-3.00854335305362,-2.14530703100547,,4.321197666655481,,
,9980.0,2066.0,9797.0,2520.0,-37.0,1182.0,3784.0,,,,-2.35871229031503,-3.00857076587385,-2.14493905772497,,4.346600435152042,,
,9984.0,2066.0,9795.0,2518.0,-41.0,1165.0,3807.0,,,,-2.35873029657973,-3.00857243239874,-2.14485471231291,,4.314055904554399,,
,9986.0,2067.0,9794.0,2518.0,-23.0,1167.0,3804.0,,,,-2.35758041092408,-3.0085268519959,-2.1441275668378,,4.221953686229268,,
,9990.0,2070.0,9797.0,2519.0,-23.0,1172.0,3813.0,,,,-2.35844515859482,-3.00860788542392,-2.14479100170378,,4.069839092809975,,
,9990.0,2069.0,9801.0,2518.0,-29.0,1165.0,3809.0,,,,-2.35785024414929,-3.00858436223839,-2.14459144786653,,3.858623920402846,,
,9992.0,2072.0,9798.0,2519.0,-36.0,1177.0,3780.0,,,,-2.35825057366317,-3.00853329185556,-2.14405433300357,,3.5907651474207616,,
,9992.0,2071.0,9798.0,2517.0,-29.0,1174.0,3802.0,,,,-2.35920236591179,-3.00853597944819,-2.14405783694598,,3.2703841039437407,,
,9995.0,2074.0,9800.0,2522.0,-33.0,1177.0,3808.0,,,,-2.35853578551738,-3.00850557023502,-2.14357940632797,,2.9032990685581903,,
,9998.0,2076.0,9798.0,2521.0,-31.0,1171.0,3787.0,,,,-2.35761250257435,-3.00848756564571,-2.14413426205272,,2.4969491468474208,,
,9999.0,2075.0,9801.0,2521.0,-31.0,1179.0,3780.0,,,,-2.35839233077761,-3.0085978546232,-2.14401027535429,,2.060195986490865,,
,9999.0,2074.0,9800.0,2518.0,-32.0,1199.0,3782.0,,,,-2.35769519284544,-3.0084618565544,-2.14450579673324,,1.603001498600304,,
,10001.0,2074.0,9797.0,2521.0,-38.0,1201.0,3781.0,,,,-2.35867984742967,-3.00858191296136,-2.14298589526167,,1.1359932638215668,,
,10002.0,2076.0,9796.0,2519.0,-38.0,1185.0,3773.0,,,,-2.35646699758663,-3.00849415855373,-2.14304966463709,,0.6699436819368162,,
,10003.0,2072.0,9795.0,2520.0,-39.0,1181.0,3770.0,,,,-2.3569658203422,-3.00852594872061,-2.14308248825777,,0.21520285809452966,,
,9998.0,2069.0,9792.0,2518.0,-35.0,1169.0,3783.0,,,,-2.35696759164721,-3.00854378906622,-2.14319740203243,,-0.21886367882433827,,
,10000.0,2065.0,9792.0,2517.0,-36.0,1179.0,3791.0,,,,-2.35590891845261,-3.00862185955247,-2.14319038412368,,-0.6243764532625209,,
,9997.0,2061.0,9789.0,2516.0,-34.0,1182.0,3799.0,,,,-2.35546338925541,-3.00856331384252,-2.14376694814893,,-0.9953306820922313,,
,9994.0,2057.0,9787.0,2511.0,-33.0,1191.0,3799.0,,,,-2.356964367645,-3.00852562380903,-2.14293600081863,,-1.3278326030327936,,
,9992.0,2055.0,9783.0,2514.0,-37.0,1177.0,3807.0,,,,-2.35820169962036,-3.00852795720616,-2.14294699543369,,-1.62016230468814,,
,9988.0,2051.0,9785.0,2509.0,-21.0,1190.0,3785.0,,,,-2.35780413810281,-3.00856799429505,-2.14278260809169,,-1.8726621262590686,,
,9982.0,2048.0,9781.0,2512.0,-35.0,1188.0,3806.0,,,,-2.35943471760363,-3.00860222123618,-2.14390668325968,,-2.0874688548788094,,
,9981.0,2048.0,9783.0,2514.0,-39.0,1180.0,3799.0,,,,-2.36151445892741,-3.00858433104695,-2.14365691003596,,-2.268123919424388,,
,9976.0,2046.0,9780.0,2513.0,-42.0,1172.0,3803.0,,,,-2.36079230122475,-3.00866654561373,-2.14333548177198,,-2.4191070607098353,,
,9969.0,2043.0,9777.0,2512.0,-31.0,1171.0,3797.0,,,,-2.36210931287534,-3.00861741139775,-2.14385524608831,,-2.545344412304349,,
,9971.0,2045.0,9778.0,2512.0,-30.0,1180.0,3776.0,,,,-2.36401836010625,-3.00866541882409,-2.14323392324511,,-2.6517409352352246,,
,9968.0,2046.0,9779.0,2512.0,-21.0,1165.0,3787.0,,,,-2.36459386493042,-3.00861918071394,-2.14261289508248,,-2.7427798058066157,,
,9966.0,2044.0,9780.0,2513.0,-28.0,1163.0,3789.0,,,,-2.36553924918497,-3.00852060274835,-2.142050669635,,-2.8222184751763524,,
,9962.0,2041.0,9776.0,2510.0,-38.0,1170.0,3791.0,,,,-2.36378068383185,-3.00863117587173,-2.14305355269608,,-2.892894408849126,,
,9956.0,2039.0,9776.0,2510.0,-30.0,1177.0,3790.0,,,,-2.36444731867039,-3.00860101486751,-2.14170528163765,,-2.9566359767379278,,
,9954.0,2044.0,9776.0,2513.0,-29.0,1180.0,3763.0,,,,-2.36430232038085,-3.00851476817413,-2.142877529609,,-3.0142596694938457,,
,9954.0,2041.0,9774.0,2512.0,-34.0,1170.0,3775.0,,,,-2.36369990927088,-3.00867530316058,-2.14266335456624,,-3.0656273303153667,,
,9953.0,2041.0,9776.0,2511.0,-37.0,1163.0,3797.0,,,,-2.36505729247062,-3.00861422454134,-2.14331882570073,,-3.109737570195839,,
,9948.0,2040.0,9778.0,2510.0,-33.0,1162.0,3794.0,,,,-2.36395017827441,-3.00865626505921,-2.14285865067747,,-3.144832262026324,,
,9947.0,2041.0,9777.0,2514.0,-30.0,1163.0,3799.0,,,,-2.36358996934842,-3.00863259289149,-2.14272588850505,,-3.1685086838913423,,
,9946.0,2043.0,9779.0,2512.0,-33.0,1166.0,3817.0,,,,-2.36322849102267,-3.00860653677697,-2.14282488871611,,-3.177837355613023,,
,9945.0,2040.0,9778.0,2513.0,-27.0,1174.0,3836.0,,,,-2.36190209491824,-3.00864865450836,-2.14240246124824,,-3.169492773034465,,
,9939.0,2041.0,9779.0,2510.0,-19.0,1172.0,3812.0,,,,-2.36274574369578,-3.00858601480165,-2.14167364277294,,-3.1399078680929424,,
,9943.0,2042.0,9779.0,2511.0,-35.0,1170.0,3807.0,,,,-2.36283132596118,-3.00860740411703,-2.14192394943773,,-3.0854623967346084,,
,9940.0,2042.0,9776.0,2511.0,-27.0,1171.0,3810.0,,,,-2.36302451872101,-3.0085616798599,-2.14181354765506,,-3.002710409880683,,
,9938.0,2041.0,9777.0,2512.0,-28.0,1171.0,3797.0,,,,-2.3614924226695,-3.00856204497776,-2.1408018649454,,-2.8886430549947475,,
,9938.0,2042.0,9775.0,2512.0,-21.0,1178.0,3778.0,,,,-2.36210478975919,-3.00850555861741,-2.14161726510024,,-2.7409714748133345,,
,9939.0,2045.0,9779.0,2512.0,-27.0,1185.0,3781.0,,,,-2.36160028988519,-3.00863047003554,-2.14102755313539,,-2.5584025947031677,,
,9938.0,2044.0,9781.0,2514.0,-27.0,1195.0,3768.0,,,,-2.36167675079433,-3.00853733554224,-2.13997457775177,,-2.3408712256056137,,
,9937.0,2044.0,9780.0,2513.0,-35.0,1190.0,3776.0,,,,-2.36011379192928,-3.00856944889249,-2.14118223633984,,-2.0896888794260855,,
,9936.0,2043.0,9780.0,2512.0,-37.0,1175.0,3792.0,,,,-2.36029864412905,-3.00855352393814,-2.14035733643315,,-1.8075756796818239,,
,9937.0,2045.0,9780.0,2515.0,-35.0,1164.0,3811.0,,,,-2.36045436037272,-3.00855919962692,-2.14055882579268,,-1.4985565377980994,,
,9938.0,2044.0,9783.0,2514.0,-39.0,1177.0,3765.0,,,,-2.35993460496666,-3.00862502470261,-2.14039442480109,,-1.1677229926325503,,
,9936.0,2046.0,9782.0,2512.0,-37.0,1166.0,3754.0,,,,-2.36128790253382,-3.00849124769735,-2.13995490276678,,-0.8208829273579611,,
,9933.0,2043.0,9781.0,2513.0,-32.0,1172.0,3801.0,,,,-2.36137705558997,-3.00851570566067,-2.13935276866637,,-0.464137604664425,,
,9936.0,2044.0,9782.0,2514.0,-32.0,1175.0,3795.0,,,,-2.3590587650896,-3.00847608197099,-2.13947628070809,,-0.10343669466669787,,
,9933.0,2045.0,9783.0,2513.0,-34.0,1176.0,3799.0,,,,-2.35935218958355,-3.00842733473175,-2.13956596361518,,0.25583372289548434,,
,9938.0,2045.0,9784.0,2516.0,-36.0,1174.0,3805.0,,,,-2.36033645008979,-3.00849943922152,-2.13969472851008,,0.6091780549941103,,
,9936.0,2045.0,9781.0,2513.0,-32.0,1167.0,3801.0,,,,-2.3611419872608,-3.00850555041723,-2.13952610588002,,0.9531907198086372,,
,9935.0,2043.0,9784.0,2512.0,-31.0,1174.0,3787.0,,,,-2.35980376342586,-3.00852718052243,-2.14068758772542,,1.2856022336338027,,
,9935.0,2048.0,9784.0,2516.0,-35.0,1190.0,3786.0,,,,-2.35972776523987,-3.00855985560302,-2.14086940688661,,1.60516702303083,,
,9936.0,2046.0,9783.0,2516.0,-22.0,1169.0,3790.0,,,,-2.35925399133675,-3.00856847745244,-2.14049765953995,,1.911411939753897,,
,9937.0,2049.0,9784.0,2516.0,-20.0,1165.0,3789.0,,,,-2.35912070192255,-3.00857725779399,-2.14072481982187,,2.2042867460416056,,
,9933.0,2047.0,9784.0,2513.0,-35.0,1189.0,3799.0,,,,-2.36106441501258,-3.00859420846767,-2.14036096521955,,2.4837733709021346,,
,9938.0,2049.0,9788.0,2514.0,-31.0,1172.0,3786.0,,,,-2.36075549859311,-3.00848713304735,-2.13980633485279,,2.7495154218384568,,
,9936.0,2049.0,9785.0,2512.0,-41.0,1188.0,3793.0,,,,-2.36025992516695,-3.00853690285311,-2.1401192270813,,3.0005225602693235,,
,9937.0,2051.0,9787.0,2515.0,-45.0,1173.0,3794.0,,,,-2.36048713466541,-3.00843791405349,-2.14076782156862,,3.2349886540571866,,
,9934.0,2048.0,9786.0,2517.0,-25.0,1170.0,3778.0,,,,-2.36043277779273,-3.00846147314359,-2.14013895756706,,3.4502424427613896,,
,9936.0,2048.0,9788.0,2513.0,-15.0,1177.0,3789.0,,,,-2.35911006982324,-3.00851159501627,-2.1399683515364,,3.642828813197941,,
,9936.0,2049.0,9785.0,2515.0,-23.0,1176.0,3785.0,,,,-2.35993874938027,-3.00850951123098,-2.13981486717525,,3.8087006180317506,,
,9938.0,2051.0,9790.0,2518.0,-25.0,1181.0,3794.0,,,,-2.3604161531948,-3.00852801576995,-2.13916281432554,,3.943487345977284,,
,9936.0,2049.0,9787.0,2514.0,-36.0,1186.0,3793.0,,,,-2.36062185615563,-3.00858826841344,-2.14008252062597,,4.042799476703928,,
,9936.0,2052.0,9789.0,2514.0,-31.0,1198.0,3760.0,,,,-2.36016385093416,-3.00855497944633,-2.14021809752009,,4.10252716598312,,
,9940.0,2052.0,9791.0,2517.0,-25.0,1182.0,3782.0,,,,-2.35990835827561,-3.00853928678216,-2.14033209019772,,4.119099312271923,,
,9940.0,2056.0,9791.0,2517.0,-33.0,1182.0,3783.0,,,,-2.36033497549453,-3.00850281217781,-2.1411851121089,,4.0896829600673765,,
,9941.0,2054.0,9792.0,2515.0,-33.0,1174.0,3774.0,,,,-2.36026563148658,-3.00849105108672,-2.14134592159231,,4.012320212001566,,
,9938.0,2055.0,9792.0,2515.0,-38.0,1186.0,3787.0,,,,-2.3603145200344,-3.0085033361965,-2.14185815312098,,3.8860151094267614,,
,9943.0,2056.0,9790.0,2515.0,-33.0,1173.0,3801.0,,,,-2.36006910507661,-3.0084720341059,-2.14135230619078,,3.7107909576588134,,
,9944.0,2060.0,9793.0,2516.0,-32.0,1177.0,3798.0,,,,-2.35991143035853,-3.00847420956942,-2.14143277389184,,3.487736949102657,,
,9947.0,2059.0,9796.0,2518.0,-29.0,1182.0,3800.0,,,,-2.36013032003584,-3.00855997738174,-2.1422943507061,,3.219053620630915,,
,9946.0,2058.0,9796.0,2519.0,-29.0,1171.0,3813.0,,,,-2.35981691999865,-3.00858016312706,-2.14181496809821,,2.908094239291146,,
,9951.0,2060.0,9796.0,2520.0,-34.0,1186.0,3787.0,,,,-2.35908447242136,-3.0085205159314,-2.14235348197279,,2.559388060402555,,
,9948.0,2061.0,9795.0,2516.0,-35.0,1168.0,3791.0,,,,-2.35874181245482,-3.00862262428824,-2.14222960575675,,2.1786242956226567,,
,9950.0,2062.0,9796.0,2519.0,-24.0,1168.0,3786.0,,,,-2.35841599319001,-3.0087427929973,-2.14311265334794,,1.772573714114339,,
,9951.0,2065.0,9799.0,2519.0,-14.0,1187.0,3791.0,,,,-2.35840776866597,-3.00859979368203,-2.14278467269125,,1.3489282567574405,,
,9953.0,2064.0,9798.0,2519.0,-33.0,1182.0,3793.0,,,,-2.35894070054438,-3.00848302740417,-2.14269683281296,,0.9160474903460892,,
,9956.0,2065.0,9800.0,2520.0,-21.0,1173.0,3764.0,,,,-2.3582091738058,-3.00853643224296,-2.14241582691217,,0.48261335805324224,,
,9957.0,2067.0,9802.0,2523.0,-21.0,1173.0,3759.0,,,,-2.35762772576482,-3.00850592056486,-2.14260599935665,,0.05721017975890831,,
,9957.0,2067.0,9801.0,2518.0,-28.0,1196.0,3766.0,,,,-2.35881551575487,-3.00856100380662,-2.14179361811233,,-0.3521370643037354,,
,9960.0,2069.0,9803.0,2521.0,-20.0,1188.0,3763.0,,,,-2.35760885364801,-3.00853017548447,-2.14213617415169,,-0.7384200880069135,,
,9960.0,2070.0,9807.0,2521.0,-25.0,1173.0,3784.0,,,,-2.35634648236845,-3.00842876934557,-2.14156214783644,,-1.0960482215653682,,
,9964.0,2073.0,9803.0,2522.0,-29.0,1176.0,3783.0,,,,-2.35706189016735,-3.00853268414647,-2.14212328249662,,-1.42114415372527,,
,9967.0,2074.0,9809.0,2522.0,-34.0,1167.0,3797.0,,,,-2.35682595945032,-3.00848181774366,-2.14174108242988,,-1.7116975167303656,,
,9969.0,2072.0,9802.0,2520.0,-40.0,1153.0,3781.0,,,,-2.35591675171699,-3.00842382819358,-2.14112549024755,,-1.9675564580990677,,
,9970.0,2075.0,9805.0,2521.0,-40.0,1159.0,3793.0,,,,-2.35609700975193,-3.00852914695814,-2.14064907841183,,-2.190256494376348,,
,9974.0,2077.0,9809.0,2522.0,-29.0,1191.0,3768.0,,,,-2.35659070385446,-3.00850983967929,-2.1409039357844,,-2.382704622769503,,
,9972.0,2074.0,9806.0,2521.0,-36.0,1194.0,3766.0,,,,-2.35547029229436,-3.00851621176327,-2.14163637261575,,-2.5487529596843013,,
,9974.0,2077.0,9808.0,2520.0,-30.0,1175.0,3762.0,,,,-2.35673539249778,-3.00846495709943,-2.14051979617092,,-2.6927083429174927,,
,9979.0,2078.0,9805.0,2520.0,-31.0,1186.0,3760.0,,,,-2.35561593447382,-3.00833765984884,-2.14001823542557,,-2.818830895563911,,
,9980.0,2080.0,9808.0,2523.0,-24.0,1182.0,3783.0,,,,-2.35442399930695,-3.00841598548177,-2.13988864566797,,-2.9308745880491167,,
,9982.0,2080.0,9809.0,2522.0,-24.0,1177.0,3787.0,,,,-2.35500633532946,-3.0084347231878,-2.13909757050347,,-3.031716121810718,,
2025-08-19 21:00:33,9984.0,2083.0,9809.0,2521.0,-25.0,1174.0,3760.0,,,2025/08/19 09:00:33 PM,-2.35299445475097,-3.0084050192164,-2.13899783103571,,-3.1231054459183545,,
,9984.0,2084.0,9809.0,2523.0,-17.0,1183.0,3781.0,,,,-2.35382552934654,-3.00834708839265,-2.13851641005601,,-3.205553343033089,,
,9988.0,2084.0,9812.0,2523.0,-21.0,1189.0,3753.0,,,,-2.35371042298034,-3.00830857659789,-2.13855128851716,,-3.278351765544167,,
,9992.0,2086.0,9811.0,2523.0,-29.0,1187.0,3768.0,,,,-2.35317584998395,-3.00837640449358,-2.13742862625627,,-3.339705313696786,,
,9991.0,2086.0,9807.0,2522.0,-22.0,1185.0,3799.0,,,,-2.35295940055777,-3.00839922217659,-2.13747865455987,,-3.3869415053834397,,
,9992.0,2087.0,9808.0,2521.0,-26.0,1186.0,3787.0,,,,-2.35265807851523,-3.00828586301724,-2.13725432832495,,-3.416765023453403,,
,9995.0,2088.0,9809.0,2523.0,-40.0,1195.0,3807.0,,,,-2.35256515312022,-3.00845929308394,-2.138065047954,,-3.425525640199581,,
,9996.0,2087.0,9807.0,2524.0,-34.0,1161.0,3795.0,,,,-2.35264368021456,-3.00830646413758,-2.1381680739829,,-3.409477884430191,,
,9999.0,2084.0,9805.0,2525.0,-39.0,1155.0,3774.0,,,,-2.35234344489727,-3.00839827421119,-2.13832162925793,,-3.365019623569222,,
,9996.0,2080.0,9804.0,2519.0,-44.0,1155.0,3775.0,,,,-2.35347004376359,-3.00833534199381,-2.13845650997472,,-3.288904505530108,,
,9997.0,2077.0,9801.0,2520.0,-20.0,1158.0,3789.0,,,,-2.35159794413415,-3.00841405164237,-2.13837798462379,,-3.1784284953654565,,
,9996.0,2074.0,9803.0,2519.0,-24.0,1184.0,3787.0,,,,-2.35287386926451,-3.0083696581985,-2.13832556893799,,-3.0315929203181313,,
,9993.0,2069.0,9801.0,2520.0,-24.0,1183.0,3793.0,,,,-2.35186132379672,-3.00827326835886,-2.13880193752677,,-2.8472454142008545,,
,9989.0,2066.0,9796.0,2518.0,-25.0,1188.0,3807.0,,,,-2.35075471641116,-3.00835664407755,-2.1381621231641,,-2.62519658740676,,
,9988.0,2064.0,9795.0,2518.0,-33.0,1183.0,3787.0,,,,-2.35285956974584,-3.00842870798767,-2.13851184039982,,-2.3663053981831683,,
,9985.0,2063.0,9797.0,2519.0,-29.0,1176.0,3793.0,,,,-2.35279682208696,-3.00840409317019,-2.13756358586212,,-2.07252159027329,,
,9983.0,2060.0,9795.0,2516.0,-31.0,1184.0,3788.0,,,,-2.35503098273696,-3.00843574554446,-2.13809859294228,,-1.7468709718762467,,
,9979.0,2055.0,9795.0,2517.0,-21.0,1170.0,3769.0,,,,-2.35605204597612,-3.00842761697288,-2.13811950476944,,-1.3933707115083274,,
,9974.0,2059.0,9793.0,2513.0,-33.0,1176.0,3806.0,,,,-2.35661289348146,-3.00846677618795,-2.13796631113896,,-1.016868505001154,,
,9972.0,2056.0,9790.0,2518.0,-42.0,1175.0,3797.0,,,,-2.35650545466052,-3.00841767245694,-2.13729314877311,,-0.6228107893371754,,
,9970.0,2056.0,9794.0,2515.0,-39.0,1182.0,3794.0,,,,-2.35779513950461,-3.00841289519285,-2.13765443394945,,-0.21695839979977477,,
,9967.0,2056.0,9792.0,2516.0,-12.0,1187.0,3771.0,,,,-2.35742353214942,-3.00842213462522,-2.13747276633946,,0.19492040452380827,,
,9965.0,2054.0,9790.0,2516.0,-17.0,1184.0,3775.0,,,,-2.35884239241612,-3.00841698703943,-2.13723689952985,,0.6073426205046322,,
,9964.0,2057.0,9792.0,2518.0,-34.0,1166.0,3759.0,,,,-2.35907500962741,-3.00846031320009,-2.13704974625207,,1.015350799119094,,
,9962.0,2054.0,9791.0,2518.0,-31.0,1168.0,3767.0,,,,-2.35905065347939,-3.00846346828074,-2.13838432293329,,1.4146676136212333,,
,9959.0,2055.0,9794.0,2516.0,-36.0,1175.0,3775.0,,,,-2.35772170802256,-3.00854511700692,-2.13810391530606,,1.8017413731071874,,
,9958.0,2055.0,9793.0,2517.0,-29.0,1172.0,3779.0,,,,-2.35850640445547,-3.00845600881489,-2.13819999558277,,2.17367343999512,,
,9958.0,2055.0,9790.0,2517.0,-29.0,1163.0,3787.0,,,,-2.35869800676833,-3.00846425458907,-2.13828343094782,,2.528035678321725,,
,9956.0,2058.0,9791.0,2519.0,-37.0,1185.0,3809.0,,,,-2.35979079271886,-3.00853915683038,-2.13879344122995,,2.8626044492978093,,
,9955.0,2056.0,9791.0,2516.0,-36.0,1192.0,3801.0,,,,-2.35905178261921,-3.00845244652768,-2.13884120453208,,3.1750549655065643,,
,9952.0,2056.0,9791.0,2518.0,-24.0,1171.0,3789.0,,,,-2.35942986179498,-3.00853849196875,-2.13833587858653,,3.4626723610230723,,
,9952.0,2054.0,9789.0,2517.0,-32.0,1169.0,3809.0,,,,-2.35759871046747,-3.00848471662241,-2.13842469009338,,3.7221391164783717,,
,9952.0,2057.0,9794.0,2518.0,-42.0,1159.0,3801.0,,,,-2.35795730665541,-3.00847905705293,-2.13868235571749,,3.949449543905343,,
,9950.0,2057.0,9794.0,2519.0,-36.0,1168.0,3787.0,,,,-2.35775444136572,-3.00850524770209,-2.1390460727655,,4.13998183790782,,
,9951.0,2056.0,9795.0,2516.0,-30.0,1167.0,3779.0,,,,-2.35755356048996,-3.00840941914438,-2.13881010899717,,4.28873137008324,,
,9952.0,2058.0,9796.0,2520.0,-37.0,1166.0,3796.0,,,,-2.35825885967001,-3.00844271581248,-2.13932449074511,,4.390681388644001,,
,9951.0,2060.0,9796.0,2521.0,-36.0,1162.0,3789.0,,,,-2.35707938888068,-3.00850113479261,-2.13886732035519,,4.441264104719597,,
,9951.0,2058.0,9797.0,2517.0,-31.0,1173.0,3783.0,,,,-2.35635621795131,-3.00850224478472,-2.13868571598124,,4.436849573201696,,
,9948.0,2059.0,9798.0,2518.0,-36.0,1193.0,3774.0,,,,-2.35640428526638,-3.0084282826738,-2.13825854297534,,4.375193645880526,,
,9949.0,2057.0,9795.0,2518.0,-39.0,1197.0,3781.0,,,,-2.35703396318672,-3.00840916851156,-2.13813749468833,,4.25578047212726,,
,9950.0,2061.0,9799.0,2518.0,-41.0,1184.0,3781.0,,,,-2.35663387793278,-3.00845747611606,-2.13679019157293,,4.080009473768535,,
,9952.0,2061.0,9798.0,2519.0,-31.0,1189.0,3805.0,,,,-2.3561733546589,-3.00841488548689,-2.13677556945008,,3.8511999677913082,,
,9950.0,2057.0,9797.0,2517.0,-33.0,1180.0,3791.0,,,,-2.35667863877894,-3.00843425961349,-2.13586147909951,,3.5744152840693646,,
,9950.0,2057.0,9797.0,2518.0,-31.0,1178.0,3781.0,,,,-2.35668384278096,-3.00844518307096,-2.1360719350009,,3.256136837100286,,
,9950.0,2059.0,9799.0,2517.0,-35.0,1195.0,3788.0,,,,-2.3553393907878,-3.00837571376901,-2.1366326595963,,2.903840523691634,,
,9951.0,2060.0,9799.0,2519.0,-21.0,1179.0,3776.0,,,,-2.35603441955803,-3.00831626514315,-2.13605247819592,,2.525537775707303,,
,9953.0,2062.0,9801.0,2521.0,-27.0,1185.0,3762.0,,,,-2.35433472520861,-3.00842007990206,-2.13630887471768,,2.12934026874477,,
,9952.0,2059.0,9802.0,2518.0,-25.0,1183.0,3780.0,,,,-2.35374807338861,-3.00828783373137,-2.13648607596994,,1.7230935561853404,,
,9950.0,2063.0,9799.0,2519.0,-29.0,1185.0,3786.0,,,,-2.3552838681848,-3.00844056525906,-2.13646421412297,,1.314105743889857,,
,9949.0,2062.0,9802.0,2520.0,-15.0,1188.0,3775.0,,,,-2.35478489890794,-3.00849374577071,-2.1360032350217,,0.9089774301651993,,
,9951.0,2062.0,9805.0,2519.0,-13.0,1187.0,3773.0,,,,-2.35398938355033,-3.00846500163154,-2.13624643569424,,0.513521863434396,,
,9951.0,2060.0,9805.0,2519.0,-33.0,1191.0,3778.0,,,,-2.35442468187828,-3.00831103222965,-2.13539491175378,,0.13275174198844958,,
,9950.0,2061.0,9803.0,2517.0,-44.0,1183.0,3782.0,,,,-2.35435131270418,-3.00829918859972,-2.13627323577835,,-0.22909751025434555,,
,9950.0,2063.0,9805.0,2521.0,-31.0,1180.0,3784.0,,,,-2.35478008177717,-3.00833035349994,-2.13563229187037,,-0.5685384279756034,,
,9951.0,2062.0,9805.0,2517.0,-24.0,1175.0,3794.0,,,,-2.35566455207025,-3.00841510096999,-2.13613315850499,,-0.8828208194375974,,
,9951.0,2060.0,9803.0,2519.0,-29.0,1183.0,3781.0,,,,-2.35566256737114,-3.00839753420374,-2.13485622266704,,-1.1699534320430853,,
,9951.0,2061.0,9804.0,2518.0,-22.0,1180.0,3800.0,,,,-2.35398597747165,-3.00839663073827,-2.13658448599579,,-1.4287572682445029,,
,9950.0,2061.0,9806.0,2520.0,-36.0,1190.0,3794.0,,,,-2.35535462053639,-3.00843348664065,-2.13603935979085,,-1.6589350315238858,,
,9955.0,2064.0,9807.0,2519.0,-32.0,1183.0,3770.0,,,,-2.35575856325312,-3.00834437295637,-2.13623672202726,,-1.8611300608261385,,
,9954.0,2064.0,9808.0,2521.0,-35.0,1188.0,3766.0,,,,-2.35665672439239,-3.00840690654718,-2.13663239500131,,-2.0369441765508105,,
,9953.0,2062.0,9807.0,2518.0,-28.0,1183.0,3775.0,,,,-2.35710532911746,-3.00832267781525,-2.13761384412415,,-2.1888881226230663,,
,9955.0,2066.0,9809.0,2520.0,-21.0,1172.0,3780.0,,,,-2.35577663642181,-3.00840133699515,-2.13696715517389,,-2.3202489460299933,,
,9956.0,2065.0,9809.0,2519.0,-30.0,1199.0,3777.0,,,,-2.35527087024154,-3.00850903013993,-2.13712791811974,,-2.4348724977579517,,
,9956.0,2066.0,9809.0,2520.0,-36.0,1189.0,3766.0,,,,-2.35665287110694,-3.00845459136701,-2.13772073662473,,-2.53687328418453,,
,9957.0,2066.0,9806.0,2521.0,-27.0,1190.0,3792.0,,,,-2.35673008914753,-3.00837080699332,-2.13788624323939,,-2.630296061509049,,
,9955.0,2066.0,9811.0,2521.0,-32.0,1174.0,3774.0,,,,-2.35696434444602,-3.00847846051782,-2.13813091286761,,-2.7187624762210127,,
,9957.0,2066.0,9808.0,2521.0,-34.0,1170.0,3778.0,,,,-2.35424759752071,-3.00849565736191,-2.13865820152063,,-2.805140695847748,,
,9960.0,2069.0,9813.0,2521.0,-32.0,1172.0,3783.0,,,,-2.35593688244722,-3.00850426436636,-2.13854348972878,,-2.891275604776922,,
,9958.0,2069.0,9811.0,2522.0,-32.0,1181.0,3785.0,,,,-2.35560774778993,-3.00845918470531,-2.13876005070712,,-2.977811422545229,,
,9962.0,2070.0,9813.0,2521.0,-21.0,1181.0,3779.0,,,,-2.35518158337857,-3.00851413673829,-2.13921638675744,,-3.064127743169597,,
,9964.0,2073.0,9812.0,2522.0,-43.0,1180.0,3789.0,,,,-2.35594210482091,-3.00851280382195,-2.14014108164024,,-3.1483949943678358,,
,9965.0,2072.0,9814.0,2523.0,-36.0,1176.0,3776.0,,,,-2.35560474053891,-3.0084401446758,-2.14019487210474,,-3.227738412421729,,
,9969.0,2074.0,9815.0,2524.0,-24.0,1165.0,3788.0,,,,-2.35556059291653,-3.00842295256783,-2.14007694044208,,-3.298484404908331,,
,9969.0,2075.0,9815.0,2521.0,-31.0,1169.0,3797.0,,,,-2.35463849014986,-3.00850108465958,-2.14029259292022,,-3.3564535213399243,,
,9971.0,2075.0,9819.0,2522.0,-40.0,1188.0,3786.0,,,,-2.35566307917469,-3.00848811206182,-2.14032316961444,,-3.397262445125946,,
,9972.0,2076.0,9821.0,2525.0,-42.0,1176.0,3811.0,,,,-2.35623586739946,-3.0085279110109,-2.14037701329443,,-3.4166029283177353,,
,9973.0,2078.0,9819.0,2522.0,-39.0,1166.0,3802.0,,,,-2.35602659004198,-3.00848374175846,-2.13980038809316,,-3.410475707956257,,
,9973.0,2079.0,9818.0,2522.0,-37.0,1173.0,3795.0,,,,-2.35504832836389,-3.00852521700312,-2.13978427381015,,-3.3753689435316896,,
,9977.0,2076.0,9820.0,2524.0,-27.0,1178.0,3770.0,,,,-2.35567626635932,-3.00844164811955,-2.13976075522478,,-3.3083810981961532,,
,9977.0,2080.0,9822.0,2525.0,-22.0,1180.0,3792.0,,,,-2.35462313623887,-3.00839565050294,-2.1391150999374,,-3.2072959609872678,,
,9982.0,2080.0,9822.0,2526.0,-28.0,1184.0,3785.0,,,,-2.35342058096142,-3.00832413193043,-2.13887193657868,,-3.0706219358900877,,
,9981.0,2081.0,9820.0,2522.0,-31.0,1178.0,3790.0,,,,-2.35416127908939,-3.00839937756932,-2.13804693301993,,-2.8976086595149173,,
,9979.0,2080.0,9821.0,2522.0,-22.0,1168.0,3796.0,,,,-2.35320495936119,-3.00836154135062,-2.1377964743674,,-2.6882519026878122,,
,9986.0,2085.0,9825.0,2526.0,-20.0,1166.0,3799.0,,,,-2.35188542897323,-3.0085444948914,-2.13797544400551,,-2.443293411233711,,
,9987.0,2086.0,9822.0,2523.0,-27.0,1159.0,3798.0,,,,-2.35337180671199,-3.00840310860902,-2.13792189627898,,-2.1642167467027402,,
,9990.0,2087.0,9824.0,2524.0,-31.0,1163.0,3802.0,,,,-2.35249591416387,-3.00848360789684,-2.13688360063542,,-1.8532343421748025,,
,9989.0,2085.0,9823.0,2522.0,-40.0,1183.0,3787.0,,,,-2.35275041930699,-3.00846206260652,-2.13693585929661,,-1.5132565980442694,,
,9992.0,2087.0,9826.0,2527.0,-33.0,1175.0,3766.0,,,,-2.35244439974475,-3.00840754894757,-2.13726168408664,,-1.147833071310513,,
,9994.0,2084.0,9824.0,2525.0,-36.0,1183.0,3796.0,,,,-2.35173510827624,-3.00843538618205,-2.13727621757268,,-0.7610598342299204,,
,9995.0,2084.0,9824.0,2526.0,-33.0,1184.0,3793.0,,,,-2.35203529247177,-3.00832084600736,-2.13668251842917,,-0.35745488105664064,,
,9994.0,2084.0,9816.0,2523.0,-21.0,1179.0,3780.0,,,,-2.35251071197094,-3.00831424835669,-2.13707623106027,,0.058187651812041045,,
,9995.0,2079.0,9822.0,2522.0,-27.0,1163.0,3769.0,,,,-2.35221070281555,-3.00837582084218,-2.13715430742342,,0.48094653529512976,,
,9994.0,2079.0,9817.0,2522.0,-30.0,1159.0,3799.0,,,,-2.35166295214954,-3.00838402927836,-2.13761968836701,,0.9059042323437929,,
,9992.0,2073.0,9816.0,2524.0,-30.0,1181.0,3798.0,,,,-2.35311855637399,-3.00835434979998,-2.13676287973306,,1.3282384132844436,,
,9988.0,2069.0,9815.0,2520.0,-35.0,1193.0,3786.0,,,,-2.3524977703523,-3.00838288864558,-2.1367896027427,,1.743257744071681,,
,9982.0,2066.0,9812.0,2519.0,-19.0,1204.0,3772.0,,,,-2.35227732342768,-3.00828963774721,-2.13748101936207,,2.146373577642639,,
,9981.0,2064.0,9811.0,2520.0,-29.0,1185.0,3784.0,,,,-2.35153901036799,-3.00834648863394,-2.13697809423602,,2.5330100692934754,,
,9975.0,2061.0,9810.0,2520.0,-31.0,1198.0,3788.0,,,,-2.35175354535977,-3.00835375711051,-2.13788026215851,,2.89846797601463,,
,9973.0,2060.0,9806.0,2517.0,-27.0,1186.0,3767.0,,,,-2.35290182589451,-3.00839499527176,-2.13802067403622,,3.23777077366231,,
,9966.0,2057.0,9805.0,2515.0,-21.0,1170.0,3760.0,,,,-2.35298459832753,-3.00842797524693,-2.13824043462213,,3.5455336438333256,,
,9962.0,2054.0,9807.0,2517.0,-20.0,1172.0,3785.0,,,,-2.35189086528967,-3.00842636837778,-2.13848465927822,,3.8159026732607506,,
,9955.0,2056.0,9805.0,2517.0,-26.0,1170.0,3786.0,,,,-2.35235207771943,-3.00842119246037,-2.13796367697298,,4.042608928066453,,
,9952.0,2056.0,9804.0,2513.0,-30.0,1183.0,3795.0,,,,-2.3535299654846,-3.00848552120163,-2.13808199180478,,4.219167672866506,,
,9950.0,2052.0,9804.0,2514.0,-31.0,1174.0,3796.0,,,,-2.35444000860221,-3.00843050633461,-2.13812207715054,,4.339228851142812,,
,9948.0,2054.0,9804.0,2514.0,-33.0,1177.0,3817.0,,,,-2.35194335447766,-3.00836099301211,-2.13832189416933,,4.397056393196196,,
,9945.0,2054.0,9803.0,2515.0,-22.0,1153.0,3799.0,,,,-2.35474383541205,-3.00842131342649,-2.13738630761884,,4.388087162316516,,
,9942.0,2054.0,9804.0,2518.0,-25.0,1152.0,3802.0,,,,-2.35648794423991,-3.00845461040793,-2.13760609759522,,4.309500360187507,,
,9938.0,2052.0,9802.0,2512.0,-37.0,1159.0,3793.0,,,,-2.3569779855765,-3.00846776727454,-2.13708155405422,,4.16071817233313,,
,9935.0,2051.0,9802.0,2516.0,-29.0,1150.0,3771.0,,,,-2.35735005841131,-3.00844080590005,-2.13680751787809,,3.94376007283079,,
,9936.0,2052.0,9805.0,2515.0,-42.0,1166.0,3795.0,,,,-2.35936211845942,-3.00848446886663,-2.1363380366352,,3.663387029440855,,
,9932.0,2052.0,9805.0,2516.0,-43.0,1174.0,3788.0,,,,-2.35809268916767,-3.00849635327978,-2.13603723525112,,3.3269968473105935,,
,9932.0,2049.0,9801.0,2517.0,-43.0,1183.0,3803.0,,,,-2.35868429915571,-3.0083820869777,-2.13635499400555,,2.944265151734372,,
,9926.0,2050.0,9804.0,2515.0,-38.0,1183.0,3800.0,,,,-2.35947514311558,-3.00854460718625,-2.13618619226834,,2.5265631251164806,,
,9927.0,2051.0,9805.0,2516.0,-36.0,1176.0,3792.0,,,,-2.35992233052328,-3.00845363275425,-2.13739599793095,,2.086216441891825,,
,9926.0,2052.0,9806.0,2516.0,-33.0,1178.0,3808.0,,,,-2.36018158672313,-3.00852070545576,-2.1369338850419,,1.6356927168222652,,
,9921.0,2051.0,9803.0,2515.0,-40.0,1172.0,3815.0,,,,-2.36107406586446,-3.00846733890228,-2.13752631963483,,1.1868120135185036,,
,9923.0,2051.0,9807.0,2518.0,-30.0,1161.0,3790.0,,,,-2.35920261795851,-3.00855244885641,-2.13773349894611,,0.7500658270201767,,
,9923.0,2051.0,9804.0,2518.0,-36.0,1159.0,3778.0,,,,-2.35874335239872,-3.00850329909317,-2.13762667489659,,0.334108291207287,,
,9923.0,2054.0,9808.0,2519.0,-31.0,1165.0,3777.0,,,,-2.35952705928079,-3.00849763359445,-2.13829069959255,,-0.054544841367837625,,
,9917.0,2053.0,9807.0,2519.0,-37.0,1191.0,3798.0,,,,-2.3588932388884,-3.00842331475688,-2.13747789408198,,-0.4116030715596568,,
,9919.0,2052.0,9806.0,2519.0,-31.0,1182.0,3789.0,,,,-2.35882138724438,-3.00851172931536,-2.13756497119887,,-0.7348935554584383,,
,9920.0,2054.0,9809.0,2518.0,-27.0,1183.0,3795.0,,,,-2.35821557494352,-3.00841586984356,-2.13821279132374,,-1.0240989513820418,,
,9917.0,2054.0,9810.0,2518.0,-32.0,1166.0,3807.0,,,,-2.35783521537598,-3.00846690234993,-2.13761021456281,,-1.2803934377348085,,
,9917.0,2056.0,9809.0,2518.0,-38.0,1168.0,3801.0,,,,-2.35760198444432,-3.0083627232982,-2.13738128704452,,-1.5060343253209305,,
,9915.0,2053.0,9809.0,2514.0,-34.0,1166.0,3777.0,,,,-2.35685785275033,-3.00841593903831,-2.13684076132807,,-1.7039633310186342,,
,9920.0,2055.0,9812.0,2521.0,-27.0,1177.0,3778.0,,,,-2.35627479601395,-3.00835448578022,-2.13690884427046,,-1.8774607567171997,,
,9917.0,2057.0,9810.0,2518.0,-23.0,1189.0,3799.0,,,,-2.35585244868441,-3.00836628281653,-2.13613952986738,,-2.0298788022790957,,
,9920.0,2055.0,9814.0,2520.0,-30.0,1178.0,3792.0,,,,-2.35681930654532,-3.0083527698729,-2.13600443452968,,-2.164459644611825,,
2025-08-19 21:00:34,9920.0,2057.0,9814.0,2518.0,-33.0,1176.0,3789.0,,,2025/08/19 09:00:34 PM,-2.35567634853744,-3.00839004347696,-2.1361404702021,,-2.2842240748196834,,
,9919.0,2055.0,9814.0,2518.0,-37.0,1178.0,3793.0,,,,-2.35638155151505,-3.0083643748403,-2.13609511705764,,-2.3919024858706877,,
,9915.0,2056.0,9811.0,2517.0,-34.0,1186.0,3780.0,,,,-2.3552993977805,-3.00843011045354,-2.13600904544166,,-2.4898754011361333,,
,9919.0,2058.0,9812.0,2518.0,-38.0,1190.0,3775.0,,,,-2.35528374227086,-3.00838187530118,-2.1355786811691,,-2.5800958380133623,,
,9917.0,2056.0,9813.0,2516.0,-46.0,1179.0,3794.0,,,,-2.35541142601526,-3.00838934583598,-2.13638096895658,,-2.663978020241607,,
,9916.0,2053.0,9811.0,2519.0,-32.0,1166.0,3762.0,,,,-2.35399269510103,-3.00830711870956,-2.13524428293378,,-2.742252531833718,,
,9916.0,2059.0,9813.0,2520.0,-36.0,1168.0,3784.0,,,,-2.35563901908144,-3.00837226862363,-2.13546482785024,,-2.8148034923946734,,
,9918.0,2058.0,9814.0,2522.0,-36.0,1168.0,3788.0,,,,-2.35452548502402,-3.00845959191904,-2.13524161834865,,-2.8805160554709044,,
,9914.0,2056.0,9810.0,2518.0,-28.0,1179.0,3819.0,,,,-2.35452867149401,-3.00842287040751,-2.13590463615642,,-2.937170407491544,,
,9916.0,2056.0,9815.0,2518.0,-41.0,1179.0,3795.0,,,,-2.35533652728757,-3.00846351274862,-2.13715496249259,,-2.981419845521194,,
,9920.0,2060.0,9820.0,2519.0,-36.0,1174.0,3803.0,,,,-2.35651706659397,-3.00852397260324,-2.13746726239143,,-3.0088845160344335,,
,9920.0,2057.0,9818.0,2523.0,-17.0,1154.0,3774.0,,,,-2.35591078413679,-3.0083592539188,-2.13792202690202,,-3.014379108182202,,
,9920.0,2057.0,9818.0,2521.0,-18.0,1156.0,3781.0,,,,-2.35600427244548,-3.00847237686237,-2.13818151876766,,-2.9922734085710356,,
,9918.0,2059.0,9815.0,2518.0,-33.0,1155.0,3806.0,,,,-2.35728909107309,-3.00851537105211,-2.13932051512316,,-2.936961518761081,,
,9920.0,2059.0,9817.0,2520.0,-20.0,1176.0,3798.0,,,,-2.35770209887347,-3.00841341128601,-2.13906716611633,,-2.843392601130817,,
,9920.0,2060.0,9818.0,2520.0,-5.0,1183.0,3798.0,,,,-2.35816606420821,-3.0084946042274,-2.13924950592563,,-2.7075985582887965,,
,9922.0,2062.0,9819.0,2521.0,-6.0,1184.0,3779.0,,,,-2.35798904991055,-3.00858032820934,-2.14032492583579,,-2.527147375269641,,
,9923.0,2063.0,9821.0,2521.0,-17.0,1180.0,3784.0,,,,-2.35779564060816,-3.00848097122275,-2.13945635439828,,-2.301457920378952,,
,9923.0,2061.0,9821.0,2521.0,-32.0,1193.0,3796.0,,,,-2.35708259135042,-3.00851751104442,-2.1405324365505,,-2.0319318028820095,,
,9926.0,2063.0,9823.0,2523.0,-25.0,1174.0,3781.0,,,,-2.35792512380021,-3.00848388588715,-2.14016142379121,,-1.721885843094154,,
,9926.0,2064.0,9821.0,2523.0,-35.0,1171.0,3775.0,,,,-2.35857620113523,-3.00848890961688,-2.13927684284462,,-1.3762986594960083,,
,9927.0,2066.0,9824.0,2523.0,-38.0,1165.0,3779.0,,,,-2.35756039150749,-3.00851059760406,-2.14012466735049,,-1.0014112361799403,,
,9928.0,2065.0,9822.0,2520.0,-35.0,1157.0,3776.0,,,,-2.35923553659706,-3.00852259116059,-2.14094855478662,,-0.6042402963878167,,
,9929.0,2068.0,9826.0,2522.0,-36.0,1174.0,3781.0,,,,-2.35954628896708,-3.00853052301339,-2.14082086512836,,-0.1920728559278641,,
,9933.0,2067.0,9825.0,2524.0,-36.0,1181.0,3758.0,,,,-2.36010843554043,-3.0085596741595,-2.14145431676681,,0.22799024282248653,,
,9931.0,2067.0,9825.0,2524.0,-35.0,1188.0,3781.0,,,,-2.36000054019048,-3.00849163537508,-2.14234989236759,,0.6493842990940508,,
,9934.0,2070.0,9825.0,2522.0,-26.0,1189.0,3802.0,,,,-2.35846242085459,-3.00864280026055,-2.14274968112061,,1.0662852162721561,,
,9937.0,2069.0,9827.0,2525.0,-34.0,1180.0,3800.0,,,,-2.35870729406076,-3.00853939714013,-2.14187572509248,,1.473653863987489,,
,9940.0,2073.0,9831.0,2525.0,-34.0,1175.0,3815.0,,,,-2.35876956535952,-3.00857664975757,-2.14262083021016,,1.8671328725822025,,
,9940.0,2071.0,9827.0,2524.0,-32.0,1178.0,3795.0,,,,-2.35930708473324,-3.00848232255808,-2.14275876909796,,2.2428337452204077,,
,9939.0,2072.0,9826.0,2522.0,-32.0,1167.0,3801.0,,,,-2.35931174901631,-3.00855932652372,-2.14314175973945,,2.597070359697274,,
,9944.0,2075.0,9827.0,2524.0,-36.0,1171.0,3786.0,,,,-2.35883009541824,-3.00859887197618,-2.14338180352933,,2.9261017194295094,,
,9947.0,2073.0,9829.0,2525.0,-16.0,1170.0,3799.0,,,,-2.3586200558941,-3.00859014642035,-2.14240134498684,,3.2259412914165995,,
,9948.0,2079.0,9832.0,2525.0,-14.0,1168.0,3783.0,,,,-2.35982450276267,-3.00862908089717,-2.1438375799487,,3.492274979968003,,
,9948.0,2077.0,9831.0,2524.0,-24.0,1191.0,3777.0,,,,-2.35916854282882,-3.008619623017,-2.14277331437918,,3.720508929838805,,
,9953.0,2079.0,9833.0,2527.0,-32.0,1180.0,3794.0,,,,-2.35932190163101,-3.00853594348842,-2.144843139521,,3.9059459127501905,,
,9959.0,2082.0,9836.0,2527.0,-17.0,1169.0,3808.0,,,,-2.35975804492716,-3.00862538807256,-2.14466004718997,,4.044068064015201,,
,9954.0,2080.0,9835.0,2526.0,-21.0,1176.0,3809.0,,,,-2.35944325527773,-3.00853464431698,-2.14436314655394,,4.130886609442359,,
,9959.0,2083.0,9836.0,2528.0,-25.0,1190.0,3799.0,,,,-2.35939660471942,-3.00870664385077,-2.14451855890878,,4.163308150324543,,
,9962.0,2082.0,9840.0,2526.0,-32.0,1179.0,3787.0,,,,-2.35864235834668,-3.0085901238877,-2.1448648526978,,4.139463831830305,,
,9964.0,2084.0,9836.0,2528.0,-37.0,1198.0,3754.0,,,,-2.35853729801894,-3.00859290395364,-2.14492012178652,,4.058953146476191,,
,9965.0,2085.0,9839.0,2529.0,-35.0,1176.0,3763.0,,,,-2.35802763118474,-3.00859415254393,-2.14420152308222,,3.922967848636686,,
,9969.0,2087.0,9839.0,2529.0,-41.0,1167.0,3804.0,,,,-2.35883091810993,-3.00852808496477,-2.14452227796963,,3.734281626123345,,
,9968.0,2087.0,9837.0,2525.0,-26.0,1172.0,3827.0,,,,-2.35849074194714,-3.00859839783474,-2.14455480355611,,3.4971139304741894,,
,9972.0,2089.0,9837.0,2527.0,-28.0,1164.0,3828.0,,,,-2.3576317483329,-3.00850024980213,-2.14399133934853,,3.216896098829847,,
,9974.0,2089.0,9839.0,2528.0,-33.0,1166.0,3821.0,,,,-2.35933855151643,-3.00855049432581,-2.14388397199981,,2.8999793825370945,,
,9978.0,2089.0,9839.0,2528.0,-35.0,1169.0,3811.0,,,,-2.35804268668574,-3.00853013489122,-2.1433856246043,,2.5533256465392418,,
,9977.0,2091.0,9841.0,2528.0,-21.0,1158.0,3791.0,,,,-2.35693577021899,-3.00850770006356,-2.14325032345074,,2.184214168256609,,
,9982.0,2091.0,9841.0,2527.0,-32.0,1177.0,3780.0,,,,-2.35780812310825,-3.00852859612324,-2.14357222831321,,1.799986182039938,,
,9983.0,2093.0,9840.0,2529.0,-30.0,1188.0,3784.0,,,,-2.35687288555581,-3.00857212757097,-2.14433952721389,,1.40783635568855,,
,9987.0,2093.0,9843.0,2528.0,-29.0,1184.0,3790.0,,,,-2.35696279789284,-3.00851699092702,-2.1446501333631,,1.0146494835042665,,
,9985.0,2094.0,9839.0,2529.0,-26.0,1187.0,3789.0,,,,-2.35686782565512,-3.00859440790657,-2.14446112324645,,0.6268723641668182,,
,9990.0,2093.0,9838.0,2526.0,-22.0,1174.0,3802.0,,,,-2.35611702518752,-3.00851999176213,-2.14461050151805,,0.2504058186115059,,
,9991.0,2092.0,9841.0,2529.0,-28.0,1165.0,3796.0,,,,-2.35754525189807,-3.00851194001733,-2.14495875583481,,-0.10949920572011884,,
,9993.0,2090.0,9838.0,2526.0,-33.0,1166.0,3784.0,,,,-2.35655455684613,-3.00849365918103,-2.14471060861072,,-0.44835408498497015,,
,9994.0,2086.0,9831.0,2526.0,-6.0,1164.0,3791.0,,,,-2.35863787366956,-3.00852800752273,-2.14521236264604,,-0.7625584400162869,,
,9991.0,2081.0,9831.0,2522.0,-14.0,1160.0,3792.0,,,,-2.35870638613535,-3.00850022689613,-2.14492498295253,,-1.0495333474528996,,
,9990.0,2080.0,9832.0,2524.0,-29.0,1152.0,3813.0,,,,-2.35769155496096,-3.00852557844151,-2.14361980450867,,-1.3078434791042455,,
,9987.0,2076.0,9831.0,2525.0,-39.0,1175.0,3799.0,,,,-2.35808468606577,-3.00851823664182,-2.14467827597365,,-1.5372802427509658,,
,9984.0,2073.0,9829.0,2521.0,-29.0,1175.0,3786.0,,,,-2.35878844208398,-3.00854467723658,-2.14580879586897,,-1.738874854117585,,
,9978.0,2067.0,9826.0,2520.0,-18.0,1185.0,3804.0,,,,-2.36073652247461,-3.00859552076785,-2.14456374666381,,-1.9148153411222169,,
,9978.0,2066.0,9824.0,2521.0,-25.0,1200.0,3786.0,,,,-2.36157711586167,-3.00854093753466,-2.1451448683736,,-2.0682535706788427,,
,9972.0,2069.0,9826.0,2521.0,-25.0,1185.0,3771.0,,,,-2.36251603988686,-3.00854876712422,-2.14510737961471,,-2.203004361929599,,
,9968.0,2063.0,9824.0,2522.0,-24.0,1185.0,3784.0,,,,-2.36319658876572,-3.00862031443028,-2.14533483428962,,-2.3231553029640124,,
,9964.0,2060.0,9821.0,2519.0,-36.0,1166.0,3774.0,,,,-2.36280951029521,-3.00869437636801,-2.14390156768818,,-2.432620519823481,,
,9961.0,2060.0,9819.0,2519.0,-31.0,1170.0,3783.0,,,,-2.36527289438576,-3.00871023161445,-2.14458618108249,,-2.534682675953648,,
,9956.0,2057.0,9819.0,2518.0,-29.0,1191.0,3788.0,,,,-2.36498521747839,-3.00857578964199,-2.14365484702679,,-2.6315736636556744,,
,9956.0,2059.0,9821.0,2517.0,-29.0,1195.0,3773.0,,,,-2.36546527700379,-3.00861947907325,-2.14382255163677,,-2.7241447512812753,,
,9949.0,2059.0,9818.0,2518.0,-23.0,1175.0,3753.0,,,,-2.36568308765477,-3.00870199279022,-2.14362678274415,,-2.8116706583353515,,
,9947.0,2057.0,9817.0,2519.0,-24.0,1162.0,3778.0,,,,-2.36549001549804,-3.00858344475934,-2.14393139503899,,-2.8918190048478642,,
,9948.0,2056.0,9818.0,2521.0,-27.0,1160.0,3779.0,,,,-2.36535417223783,-3.00858783414774,-2.14414006418586,,-2.960797527479975,,
,9942.0,2055.0,9819.0,2520.0,-23.0,1162.0,3796.0,,,,-2.36563765753913,-3.00875289519935,-2.14446677452741,,-3.013668366640724,,
,9940.0,2057.0,9817.0,2520.0,-21.0,1168.0,3788.0,,,,-2.36562862514167,-3.00859775308027,-2.14532633325529,,-3.044795273449486,,
,9935.0,2056.0,9817.0,2518.0,-27.0,1197.0,3793.0,,,,-2.36393718923569,-3.00860971209828,-2.14491830361317,,-3.048370589826957,,
,9934.0,2055.0,9817.0,2517.0,-21.0,1175.0,3791.0,,,,-2.36405336428408,-3.00862551266445,-2.14467318844584,,-3.0189585322978996,,
,9933.0,2054.0,9819.0,2520.0,-30.0,1177.0,3775.0,,,,-2.36507815358505,-3.00867858548472,-2.1445321958477,,-2.951991401937801,,
,9933.0,2054.0,9819.0,2522.0,-32.0,1187.0,3792.0,,,,-2.36395624493711,-3.00863034179879,-2.1443615663541,,-2.8441647575787954,,
,9930.0,2054.0,9821.0,2519.0,-27.0,1177.0,3792.0,,,,-2.36368892020063,-3.00862091581064,-2.14474856517979,,-2.6936936149777293,,
,9926.0,2055.0,9819.0,2519.0,-30.0,1176.0,3803.0,,,,-2.3634196505633,-3.00852707980388,-2.14519842072794,,-2.500411529263753,,
,9927.0,2055.0,9820.0,2520.0,-37.0,1177.0,3832.0,,,,-2.36229723334401,-3.00861357371942,-2.14413264055876,,-2.2657155849385022,,
,9926.0,2054.0,9820.0,2519.0,-28.0,1177.0,3820.0,,,,-2.36290252514504,-3.00856626603072,-2.14420658694341,,-1.9923805034767204,,
,9924.0,2052.0,9820.0,2519.0,-33.0,1160.0,3809.0,,,,-2.36318512658707,-3.00868865258127,-2.14424116088164,,-1.6842815494068473,,
,9923.0,2052.0,9821.0,2518.0,-36.0,1187.0,3802.0,,,,-2.36311949273471,-3.00862987555748,-2.14397360956784,,-1.3460758652939449,,
,9923.0,2051.0,9818.0,2518.0,-35.0,1174.0,3768.0,,,,-2.36341321214507,-3.0085928037816,-2.14399987653757,,-0.9828931964096924,,
,9922.0,2053.0,9822.0,2523.0,-30.0,1176.0,3768.0,,,,-2.36208626363272,-3.00856637383943,-2.14421851584377,,-0.6000790201016073,,
,9922.0,2057.0,9820.0,2520.0,-15.0,1171.0,3773.0,,,,-2.3613084085545,-3.00854282919078,-2.14445193526052,,-0.20301729756079867,,
,9918.0,2053.0,9819.0,2521.0,-18.0,1164.0,3747.0,,,,-2.36129991522604,-3.00860896564873,-2.14361607700305,,0.20295973993832936,,
,9920.0,2055.0,9823.0,2520.0,-25.0,1180.0,3780.0,,,,-2.36159730768836,-3.00856401458992,-2.144062246176,,0.6125857960859568,,
,9926.0,2057.0,9822.0,2519.0,-26.0,1176.0,3788.0,,,,-2.36052226116655,-3.00851046131349,-2.14432056727159,,1.0206222322075003,,
,9923.0,2058.0,9825.0,2520.0,-30.0,1174.0,3793.0,,,,-2.36070874526507,-3.00854823845566,-2.14324673717695,,1.4217956920243813,,
,9920.0,2056.0,9823.0,2520.0,-45.0,1178.0,3791.0,,,,-2.35966726396972,-3.00860771598974,-2.14388797723604,,1.8107383736153866,,
,9922.0,2054.0,9823.0,2522.0,-31.0,1187.0,3797.0,,,,-2.36064716328216,-3.00858937269519,-2.1435195433451,,2.181951982315817,,
,9922.0,2059.0,9829.0,2522.0,-36.0,1171.0,3802.0,,,,-2.35984304276645,-3.00855079806581,-2.14416865632801,,2.5298088940164507,,
,9922.0,2056.0,9827.0,2522.0,-36.0,1170.0,3802.0,,,,-2.36082013572463,-3.00859568282017,-2.14415996602595,,2.8485963652880075,,
,9923.0,2055.0,9824.0,2522.0,-36.0,1160.0,3797.0,,,,-2.36096623587625,-3.00857072033839,-2.14376225364064,,3.1326027986140343,,
,9921.0,2057.0,9824.0,2522.0,-26.0,1164.0,3788.0,,,,-2.36179327533289,-3.0085811724237,-2.14415942063672,,3.3762399016609375,,
,9923.0,2058.0,9823.0,2521.0,-26.0,1163.0,3772.0,,,,-2.36162441612821,-3.00859380313053,-2.14444022939417,,3.5741917432759434,,
,9924.0,2059.0,9826.0,2521.0,-25.0,1154.0,3789.0,,,,-2.36077104652897,-3.00859967349469,-2.14438242784402,,3.721581681021562,,
,9921.0,2057.0,9824.0,2521.0,-38.0,1172.0,3811.0,,,,-2.36085767544061,-3.00859134117363,-2.14428658709095,,3.8141507824538112,,
,9923.0,2057.0,9825.0,2518.0,-46.0,1175.0,3813.0,,,,-2.36109160231444,-3.00858918767024,-2.14472869301959,,3.8484452397748,,
,9920.0,2059.0,9826.0,2522.0,-35.0,1193.0,3790.0,,,,-2.36077631517402,-3.00859885056589,-2.14541385653048,,3.822012530044828,,
,9924.0,2059.0,9828.0,2522.0,-34.0,1166.0,3799.0,,,,-2.36113225672148,-3.00866138614584,-2.14491115159397,,3.733603988558134,,
,9922.0,2058.0,9828.0,2524.0,-36.0,1162.0,3791.0,,,,-2.36062679836149,-3.00860514650103,-2.1451322092236,,3.5833747690404985,,
,9923.0,2056.0,9830.0,2522.0,-30.0,1168.0,3794.0,,,,-2.36106622608264,-3.0086655570198,-2.1444331220813,,3.3730635815997716,,
,9924.0,2060.0,9833.0,2523.0,-32.0,1163.0,3812.0,,,,-2.36136907355807,-3.0085528025105,-2.14485015713455,,3.10612789471122,,
,9926.0,2061.0,9832.0,2524.0,-35.0,1174.0,3803.0,,,,-2.3616755077201,-3.00864299080874,-2.14444357806561,,2.787807877443571,,
,9926.0,2063.0,9833.0,2525.0,-42.0,1171.0,3816.0,,,,-2.36010506190151,-3.00861212062712,-2.144038119236,,2.4250945635826975,,
,9926.0,2061.0,9833.0,2521.0,-32.0,1175.0,3807.0,,,,-2.36093606287973,-3.00856065041609,-2.14481751425156,,2.0265836795493417,,
,9928.0,2060.0,9829.0,2523.0,-25.0,1182.0,3782.0,,,,-2.3595941228104,-3.00870779063535,-2.14465310068999,,1.6022054124933167,,
,9929.0,2061.0,9834.0,2523.0,-28.0,1183.0,3787.0,,,,-2.35960880035089,-3.00861587281168,-2.14506189914639,,1.1628315762301726,,
,9930.0,2061.0,9834.0,2525.0,-30.0,1179.0,3783.0,,,,-2.36005332857667,-3.00855760825351,-2.14519214141281,,0.7197747583451864,,
,9930.0,2063.0,9834.0,2524.0,-38.0,1171.0,3798.0,,,,-2.35933000073175,-3.00857933241516,-2.14514618409886,,0.2842085201453407,,
,9930.0,2062.0,9835.0,2523.0,-26.0,1182.0,3798.0,,,,-2.35869205049376,-3.00863658540877,-2.14524919388697,,-0.13344771854535067,,
,9933.0,2065.0,9835.0,2524.0,-31.0,1175.0,3789.0,,,,-2.35942330118556,-3.00853883936545,-2.14559275620655,,-0.5241235781945904,,
,9936.0,2066.0,9836.0,2526.0,-28.0,1174.0,3782.0,,,,-2.36017729329961,-3.00860955897066,-2.14554868580368,,-0.8806115259319843,,
,9935.0,2066.0,9837.0,2525.0,-34.0,1183.0,3783.0,,,,-2.36035593428961,-3.00853491550302,-2.14571400632996,,-1.1979429402474875,,
,9934.0,2066.0,9837.0,2525.0,-27.0,1178.0,3783.0,,,,-2.35958462802776,-3.00858199580571,-2.14530974349978,,-1.4735836323657072,,
,9938.0,2068.0,9840.0,2528.0,-30.0,1166.0,3776.0,,,,-2.35923880127831,-3.0085836788608,-2.14522627815325,,-1.7074266278918833,,
,9941.0,2071.0,9840.0,2525.0,-40.0,1155.0,3810.0,,,,-2.35797482427796,-3.00861749682644,-2.1449332227357,,-1.9015833927353898,,
,9941.0,2069.0,9838.0,2527.0,-39.0,1152.0,3814.0,,,,-2.35890300424476,-3.00847588313291,-2.14395473925658,,-2.0599972781002776,,
,9944.0,2069.0,9840.0,2526.0,-36.0,1165.0,3788.0,,,,-2.35834429905826,-3.0085328854349,-2.1448363279002,,-2.1879220457459847,,
,9945.0,2074.0,9839.0,2523.0,-13.0,1184.0,3789.0,,,,-2.35735570284235,-3.00859350422426,-2.14454029410333,,-2.2913218933032717,,
,9948.0,2074.0,9843.0,2528.0,-12.0,1176.0,3795.0,,,,-2.35815174107668,-3.00855840117541,-2.14436229840647,,-2.3762560036476184,,
