TimeLabel,MEAS1_PPG1,MEAS1_PPG2,MEAS1_PPG3,MEAS1_PPG4,ACCX,ACCY,ACCZ,HR_timestamp,HR_value,radar_timestamp,phase_rx0,phase_rx1,phase_rx2,timestep,n_process,original_rate,calculated_rate
2025-07-23 17:21:41,6420.0,1299.0,7821.0,1460.0,1805.0,2075.0,2846.0,2025-07-23 17:22:01,63.0,2025/07/23 05:21:41 PM,-0.374321066037832,-2.8142902339939,-0.411598889663671,2025/07/23 05:21:41 PM,-4.889397120864534,16.666667938232422,13.955375253549693
,6422.0,1298.0,7826.0,1461.0,1819.0,2090.0,2851.0,2025-07-23 17:22:02,63.0,,-0.374183031577956,-2.81418537594985,-0.410851395437844,2025/07/23 05:21:51 PM,-4.924356079628083,15.195369720458984,19.71752948774601
,6425.0,1299.0,7829.0,1462.0,1823.0,2090.0,2847.0,2025-07-23 17:22:03,62.0,,-0.37433185764368,-2.8143371960789,-0.410210161167391,2025/07/23 05:22:01 PM,-4.969457993839459,16.216215133666992,13.002042205582033
,6424.0,1300.0,7830.0,1459.0,1818.0,2076.0,2832.0,2025-07-23 17:22:04,62.0,,-0.374299655516821,-2.81427693584796,-0.410932179166514,2025/07/23 05:22:11 PM,-5.026349252539092,16.01067352294922,10.582750582750581
,6423.0,1301.0,7833.0,1459.0,1800.0,2070.0,2816.0,2025-07-23 17:22:05,62.0,,-0.374749657661478,-2.81417020039319,-0.410550230265761,2025/07/23 05:22:21 PM,-5.095479549623716,15.254237174987791,12.998146431881374
,6422.0,1302.0,7835.0,1461.0,1794.0,2079.0,2832.0,2025-07-23 17:22:06,61.0,,-0.374629366581416,-2.81429422795789,-0.411118210588263,2025/07/23 05:22:31 PM,-5.175940021715365,11.971268653869627,14.896551724137918
,6426.0,1301.0,7834.0,1461.0,1796.0,2070.0,2813.0,2025-07-23 17:22:07,61.0,,-0.374815346147654,-2.81436891601675,-0.411767240169748,2025/07/23 05:22:41 PM,-5.265363300888601,12.5,16.20553359683795
,6427.0,1301.0,7837.0,1460.0,1801.0,2075.0,2820.0,2025-07-23 17:22:08,61.0,,-0.375274717175835,-2.81449537765093,-0.412535034790105,2025/07/23 05:22:51 PM,-5.35988691020589,14.747191429138184,18.666065117678006
,6427.0,1301.0,7838.0,1463.0,1792.0,2092.0,2844.0,2025-07-23 17:22:09,61.0,,-0.374986670628339,-2.81453129028248,-0.413014067467705,2025/07/23 05:23:01 PM,-5.454176446912302,16.494844436645508,15.680881554469636
,6425.0,1300.0,7837.0,1459.0,1798.0,2063.0,2839.0,2025-07-23 17:22:10,61.0,,-0.374992192129771,-2.81460380596737,-0.412496157966817,2025/07/23 05:23:11 PM,-5.541502556705734,17.485427856445312,17.77310924369749
,6426.0,1299.0,7837.0,1461.0,1805.0,2052.0,2825.0,2025-07-23 17:22:11,61.0,,-0.375203650123695,-2.81456549784042,-0.412768056958822,2025/07/23 05:23:21 PM,-5.6138667647499965,17.069700241088867,15.179817498658077
,6426.0,1304.0,7838.0,1461.0,1809.0,2073.0,2823.0,2025-07-23 17:22:12,61.0,,-0.375072700092618,-2.81482997839647,-0.413248643394458,2025/07/23 05:23:31 PM,-5.662174534665613,16.153846740722656,14.214046822742471
,6425.0,1299.0,7835.0,1462.0,1796.0,2075.0,2825.0,2025-07-23 17:22:13,61.0,,-0.375820778886428,-2.81489088022695,-0.414180457351506,2025/07/23 05:23:41 PM,-5.676456839325687,15.272727012634276,16.00808829724494
,6424.0,1299.0,7833.0,1459.0,1818.0,2075.0,2823.0,2025-07-23 17:22:14,61.0,,-0.376105096667676,-2.81512938180958,-0.413792335838813,2025/07/23 05:23:51 PM,-5.646141875051934,14.693877220153809,16.14801535493676
,6426.0,1299.0,7835.0,1461.0,1816.0,2061.0,2823.0,2025-07-23 17:22:15,61.0,,-0.376251673507931,-2.81532587977861,-0.415790340988419,2025/07/23 05:24:01 PM,-5.560375727586823,15.429831504821776,18.61174675819985
,6425.0,1302.0,7838.0,1462.0,1815.0,2064.0,2840.0,2025-07-23 17:22:16,62.0,,-0.37663167766825,-2.81560926508166,-0.415406979954971,2025/07/23 05:24:11 PM,-5.40838561308914,17.045454025268555,15.911485774499448
,6428.0,1301.0,7837.0,1461.0,1818.0,2066.0,2843.0,2025-07-23 17:22:17,62.0,,-0.377207156059062,-2.81566998411747,-0.417119578514045,2025/07/23 05:24:21 PM,-5.179873275355923,16.913320541381836,13.761405840613781
,6427.0,1298.0,7839.0,1459.0,1809.0,2077.0,2843.0,2025-07-23 17:22:18,61.0,,-0.377833624407071,-2.81604760868632,-0.417933137139521,2025/07/23 05:24:31 PM,-4.865420960909947,16.50943374633789,13.484848484848477
,6428.0,1300.0,7840.0,1459.0,1825.0,2087.0,2819.0,2025-07-23 17:22:19,61.0,,-0.378077402034467,-2.81606957730801,-0.419262244911469,,-4.456889974663102,,
,6429.0,1303.0,7841.0,1462.0,1822.0,2080.0,2797.0,2025-07-23 17:22:20,62.0,,-0.378283660697195,-2.81628437604829,-0.419479426738981,,-3.947793750404498,,
,6427.0,1301.0,7842.0,1462.0,1821.0,2086.0,2812.0,2025-07-23 17:22:21,62.0,,-0.378519826183536,-2.8165372473964,-0.419541656787044,,-3.3336341209213174,,
,6429.0,1300.0,7845.0,1457.0,1792.0,2080.0,2839.0,2025-07-23 17:22:22,62.0,,-0.37877061585539,-2.8167246282901,-0.420145220067016,,-2.612199536254685,,
,6428.0,1302.0,7848.0,1463.0,1794.0,2095.0,2825.0,2025-07-23 17:22:23,62.0,,-0.379354267451426,-2.81689121957346,-0.421227974072369,,-1.7838338940068177,,
,6433.0,1300.0,7851.0,1462.0,1819.0,2074.0,2823.0,2025-07-23 17:22:24,62.0,,-0.379402752589316,-2.81675231910712,-0.422038610990225,,-0.8516900681619892,,
,6434.0,1302.0,7857.0,1462.0,1820.0,2072.0,2829.0,2025-07-23 17:22:25,63.0,,-0.379767548190091,-2.81697928714356,-0.422201424886667,,0.17802039204643647,,
,6434.0,1301.0,7857.0,1462.0,1813.0,2119.0,2838.0,2025-07-23 17:22:26,63.0,,-0.37974814189583,-2.81712520106309,-0.421776512251931,,1.2957816549110899,,
,6434.0,1302.0,7862.0,1463.0,1791.0,2098.0,2847.0,2025-07-23 17:22:27,64.0,,-0.379726053372914,-2.81704686033941,-0.422686470397179,,2.488550839861465,,
,6436.0,1303.0,7867.0,1467.0,1801.0,2073.0,2851.0,2025-07-23 17:22:28,65.0,,-0.379859926453998,-2.81714293171174,-0.422619209014433,,3.7395968115309337,,
,6437.0,1303.0,7873.0,1466.0,1807.0,2093.0,2856.0,2025-07-23 17:22:29,65.0,,-0.379724783530567,-2.81717163257518,-0.423278825017989,,5.02845473584438,,
,6440.0,1303.0,7873.0,1467.0,1814.0,2067.0,2823.0,2025-07-23 17:22:30,65.0,,-0.379630713383914,-2.81716437576672,-0.423689807196954,,6.331057285775545,,
,6441.0,1302.0,7876.0,1465.0,1794.0,2056.0,2844.0,2025-07-23 17:22:31,66.0,,-0.379641913555544,-2.81715937556509,-0.422838381028364,,7.62009942411745,,
,6441.0,1305.0,7884.0,1466.0,1804.0,2072.0,2833.0,2025-07-23 17:22:32,66.0,,-0.37971056563691,-2.81698966288833,-0.422365215182701,,8.865679056158354,,
,6443.0,1303.0,7886.0,1467.0,1800.0,2059.0,2817.0,2025-07-23 17:22:33,67.0,,-0.379752356018276,-2.81699979610591,-0.422740652626046,,10.036231618387724,,
,6447.0,1307.0,7892.0,1467.0,1798.0,2081.0,2830.0,2025-07-23 17:22:34,67.0,,-0.379717531709441,-2.81712999377755,-0.422425888563144,,11.099744930971216,,
,6449.0,1303.0,7893.0,1468.0,1802.0,2080.0,2829.0,2025-07-23 17:22:35,66.0,,-0.379818287007986,-2.81717776236799,-0.423112784668931,,12.025204653006712,,
,6452.0,1304.0,7896.0,1469.0,1800.0,2084.0,2846.0,2025-07-23 17:22:36,66.0,,-0.379912015083669,-2.81719893246933,-0.422591906881656,,12.784184798879396,,
,6453.0,1308.0,7904.0,1474.0,1810.0,2096.0,2828.0,2025-07-23 17:22:37,65.0,,-0.38023191705906,-2.8173677214296,-0.42363451108115,,13.352466929584123,,
,6457.0,1309.0,7906.0,1472.0,1807.0,2093.0,2830.0,2025-07-23 17:22:38,65.0,,-0.380616776129841,-2.81755635467091,-0.423406488773252,,13.711550657875579,,
,6454.0,1307.0,7907.0,1472.0,1811.0,2070.0,2826.0,2025-07-23 17:22:39,65.0,,-0.380743336291682,-2.81763688294032,-0.424386293362995,,13.849911243647044,,
,6457.0,1307.0,7912.0,1472.0,1810.0,2073.0,2813.0,2025-07-23 17:22:40,65.0,,-0.380780812942343,-2.81769881786715,-0.42419137673925,,13.763870526414726,,
,6460.0,1309.0,7916.0,1475.0,1803.0,2078.0,2817.0,2025-07-23 17:22:41,65.0,,-0.381393799548913,-2.81792243642603,-0.424259701409469,,13.457976723184748,,
,6462.0,1310.0,7922.0,1475.0,1798.0,2077.0,2819.0,2025-07-23 17:22:42,66.0,,-0.381244692806229,-2.81794810622446,-0.4247643744439,,12.944835240619712,,
,6467.0,1309.0,7922.0,1473.0,1803.0,2048.0,2827.0,2025-07-23 17:22:43,66.0,,-0.381354151227911,-2.81810782751745,-0.424858433038263,,12.244390957145123,,
,6467.0,1309.0,7925.0,1473.0,1804.0,2058.0,2831.0,2025-07-23 17:22:44,66.0,,-0.381210243942764,-2.81816376554397,-0.425053125264973,,11.382722779948855,,
,6468.0,1312.0,7930.0,1478.0,1797.0,2065.0,2834.0,2025-07-23 17:22:45,65.0,,-0.381211483561312,-2.81806450957197,-0.424681454693763,,10.390462782260451,,
,6472.0,1313.0,7934.0,1478.0,1794.0,2065.0,2828.0,2025-07-23 17:22:46,65.0,,-0.380736959339329,-2.81805421258425,-0.424263713252108,,9.300986746642359,,
,6473.0,1312.0,7937.0,1478.0,1814.0,2060.0,2821.0,2025-07-23 17:22:47,64.0,,-0.380879781734727,-2.81786499417917,-0.424221085326405,,8.148537381102384,,
,6474.0,1313.0,7939.0,1479.0,1820.0,2067.0,2823.0,2025-07-23 17:22:48,62.0,,-0.38121419377094,-2.81806582036826,-0.42358857914896,,6.966436938773028,,
,6476.0,1313.0,7944.0,1481.0,1819.0,2067.0,2814.0,2025-07-23 17:22:49,61.0,,-0.380932630467388,-2.81782087056531,-0.424641756169792,,5.7855255043779215,,
,6479.0,1313.0,7949.0,1480.0,1821.0,2079.0,2822.0,2025-07-23 17:22:50,61.0,,-0.381178294761585,-2.81791117360748,-0.424592095315834,,4.632928475046879,,
,6479.0,1315.0,7951.0,1481.0,1819.0,2078.0,2831.0,2025-07-23 17:22:51,61.0,,-0.381324563106072,-2.81805043159672,-0.424178377976309,,3.5312160315393517,,
,6482.0,1315.0,7954.0,1483.0,1811.0,2063.0,2846.0,2025-07-23 17:22:52,60.0,,-0.38157013155158,-2.81795423323939,-0.424813702125195,,2.4979736586631183,,
,6483.0,1316.0,7956.0,1482.0,1796.0,2068.0,2833.0,2025-07-23 17:22:53,60.0,,-0.382006314948562,-2.818081568028,-0.424991365623308,,1.5457612258695712,,
,6485.0,1315.0,7962.0,1486.0,1791.0,2095.0,2833.0,2025-07-23 17:22:54,60.0,,-0.38193125708095,-2.81828766403227,-0.425653679751621,,0.682403348198879,,
,6487.0,1318.0,7963.0,1484.0,1798.0,2088.0,2829.0,2025-07-23 17:22:55,61.0,,-0.382429001380009,-2.81848611255161,-0.425468936225947,,-0.08847098397880704,,
,6490.0,1316.0,7969.0,1486.0,1794.0,2065.0,2855.0,2025-07-23 17:22:56,61.0,,-0.382494702708912,-2.81839769878767,-0.426289195202215,,-0.766734394473361,,
,6494.0,1317.0,7968.0,1486.0,1791.0,2056.0,2835.0,2025-07-23 17:22:57,61.0,,-0.383031294579789,-2.81851537480347,-0.426707468462982,,-1.3550082901845553,,
,6496.0,1320.0,7975.0,1488.0,1809.0,2065.0,2853.0,2025-07-23 17:22:58,61.0,,-0.383448344514874,-2.81870699126537,-0.427015655119778,,-1.8579361687670148,,
,6497.0,1322.0,7975.0,1489.0,1800.0,2081.0,2844.0,2025-07-23 17:22:59,61.0,,-0.383731144034372,-2.81871731659922,-0.426798843618009,,-2.2815481774461404,,
,6495.0,1319.0,7979.0,1487.0,1796.0,2079.0,2820.0,2025-07-23 17:23:00,61.0,,-0.38436629454087,-2.8188787709506,-0.427783276239732,,-2.6327559645551273,,
,6499.0,1320.0,7984.0,1490.0,1803.0,2059.0,2824.0,2025-07-23 17:23:01,61.0,,-0.384715099518595,-2.81910727354746,-0.428582835696848,,-2.9189886570814343,,
,6502.0,1322.0,7985.0,1490.0,1805.0,2073.0,2840.0,2025-07-23 17:23:02,61.0,,-0.385021330329302,-2.81921057785288,-0.428796011359441,,-3.147955364491637,,
,6505.0,1320.0,7988.0,1491.0,1807.0,2065.0,2831.0,2025-07-23 17:23:03,60.0,,-0.385337466828097,-2.81923462528914,-0.429582949291925,,-3.3275014728037164,,
,6506.0,1323.0,7992.0,1495.0,1812.0,2065.0,2831.0,2025-07-23 17:23:04,60.0,,-0.385761471562765,-2.81936326702276,-0.430265027653177,,-3.465517599824349,,
,6507.0,1322.0,7995.0,1493.0,1812.0,2065.0,2833.0,2025-07-23 17:23:05,59.0,,-0.38598684128715,-2.8193871728186,-0.430630589844828,,-3.569861140051984,,
,6509.0,1322.0,8000.0,1492.0,1803.0,2073.0,2824.0,2025-07-23 17:23:06,59.0,,-0.386006053862116,-2.81947502101427,-0.431355891202911,,-3.648258629971475,,
,6513.0,1323.0,8003.0,1497.0,1804.0,2077.0,2830.0,2025-07-23 17:23:07,59.0,,-0.385983439387267,-2.81960425443961,-0.431070969215477,,-3.7081698586389686,,
,6514.0,1323.0,8005.0,1496.0,1805.0,2093.0,2834.0,2025-07-23 17:23:08,59.0,,-0.385915285127119,-2.81941601951937,-0.431125601390757,,-3.756608932856117,,
,6516.0,1324.0,8007.0,1496.0,1810.0,2097.0,2846.0,2025-07-23 17:23:09,59.0,,-0.385850072864311,-2.81952827648917,-0.431633041286246,,-3.799930812722061,,
,6518.0,1323.0,8008.0,1499.0,1811.0,2071.0,2829.0,2025-07-23 17:23:10,59.0,,-0.385518509411758,-2.81953305773636,-0.431109434829857,,-3.8436020903148194,,
,6521.0,1324.0,8015.0,1497.0,1807.0,2095.0,2855.0,2025-07-23 17:23:11,59.0,,-0.386145304623233,-2.81950723216068,-0.432303517475733,,-3.891980918850928,,
,6522.0,1325.0,8014.0,1501.0,1813.0,2080.0,2848.0,2025-07-23 17:23:12,60.0,,-0.385887240898304,-2.81954169757793,-0.431431619497695,,-3.948133141370333,,
,6523.0,1326.0,8021.0,1500.0,1815.0,2049.0,2831.0,2025-07-23 17:23:13,61.0,,-0.386058473611039,-2.81967857119906,-0.430660901639013,,-4.013710628682295,,
,6526.0,1328.0,8023.0,1501.0,1801.0,2055.0,2824.0,2025-07-23 17:23:14,61.0,,-0.386042763330148,-2.81945994146219,-0.43185391346362,,-4.08891428992982,,
,6528.0,1328.0,8024.0,1503.0,1796.0,2073.0,2858.0,2025-07-23 17:23:15,62.0,,-0.386060278270811,-2.81961235661655,-0.431101642054617,,-4.172558310609501,,
,6528.0,1330.0,8029.0,1503.0,1799.0,2068.0,2866.0,2025-07-23 17:23:16,65.0,,-0.386138490737902,-2.81962074803291,-0.431498554499586,,-4.262243717393246,,
,6531.0,1329.0,8034.0,1505.0,1788.0,2061.0,2848.0,2025-07-23 17:23:17,66.0,,-0.386227117461715,-2.81988922286362,-0.431876446239375,,-4.3546383133981,,
,6532.0,1329.0,8035.0,1505.0,1794.0,2069.0,2827.0,2025-07-23 17:23:18,66.0,,-0.386433169285531,-2.8197601976648,-0.432348197793385,,-4.445846922123814,,
,6538.0,1331.0,8039.0,1508.0,1818.0,2069.0,2826.0,2025-07-23 17:23:19,66.0,,-0.386545718321879,-2.81974020850527,-0.432628583788886,,-4.5318422982531015,,
,6537.0,1335.0,8042.0,1509.0,1797.0,2065.0,2849.0,2025-07-23 17:23:20,65.0,,-0.386946517614188,-2.82003669992687,-0.431890932976246,,-4.608915702312201,,
,6540.0,1333.0,8045.0,1506.0,1806.0,2071.0,2864.0,2025-07-23 17:23:21,64.0,,-0.386595690085795,-2.81983440589442,-0.43188402066844,,-4.674100056133481,,
,6541.0,1332.0,8045.0,1508.0,1807.0,2093.0,2865.0,2025-07-23 17:23:22,64.0,,-0.386550767660712,-2.81997480012923,-0.432318477887002,,-4.7255197472349515,,
,6544.0,1333.0,8048.0,1510.0,1792.0,2083.0,2838.0,2025-07-23 17:23:23,64.0,,-0.386863839064775,-2.81984737150223,-0.432750640435088,,-4.762629278955442,,
,6545.0,1334.0,8055.0,1512.0,1809.0,2087.0,2844.0,2025-07-23 17:23:24,63.0,,-0.386961345007029,-2.81982424869332,-0.432578304732624,,-4.786315855520335,,
,6549.0,1333.0,8056.0,1513.0,1822.0,2091.0,2850.0,2025-07-23 17:23:25,62.0,,-0.386793029830056,-2.81987810396037,-0.431983208575323,,-4.798855714849503,,
,6547.0,1334.0,8058.0,1513.0,1818.0,2092.0,2873.0,2025-07-23 17:23:26,61.0,,-0.386709591164777,-2.81977373437319,-0.431844134723204,,-4.803728124607878,,
,6550.0,1334.0,8057.0,1512.0,1818.0,2093.0,2882.0,2025-07-23 17:23:27,60.0,,-0.386716746836248,-2.81963164667526,-0.432294505831557,,-4.8053030039357685,,
,6550.0,1334.0,8053.0,1514.0,1814.0,2098.0,2859.0,2025-07-23 17:23:28,59.0,,-0.386529768017826,-2.81992251507636,-0.431753046035954,,-4.808427622609123,,
,6549.0,1333.0,8048.0,1512.0,1808.0,2089.0,2837.0,2025-07-23 17:23:29,59.0,,-0.386766201299274,-2.81976995871294,-0.43210768902879,,-4.817944814093134,,
,6546.0,1333.0,8041.0,1508.0,1798.0,2076.0,2834.0,2025-07-23 17:23:30,58.0,,-0.386396144591291,-2.81984842152282,-0.430993705821738,,-4.838179844775393,,
,6541.0,1332.0,8030.0,1507.0,1795.0,2075.0,2819.0,2025-07-23 17:23:31,58.0,,-0.386538377485241,-2.81992918137636,-0.431932137204915,,-4.872435653050366,,
,6538.0,1333.0,8015.0,1510.0,1798.0,2082.0,2823.0,2025-07-23 17:23:32,58.0,,-0.38667744956009,-2.81992291800455,-0.432048058094698,,-4.922536578701378,,
,6530.0,1331.0,7997.0,1505.0,1795.0,2089.0,2819.0,2025-07-23 17:23:33,59.0,,-0.38658348778299,-2.81984430922298,-0.43176311553372,,-4.98845875046795,,
,6528.0,1332.0,7978.0,1505.0,1798.0,2114.0,2836.0,2025-07-23 17:23:34,59.0,,-0.386502647890841,-2.81990273911636,-0.431995555849949,,-5.068080644391881,,
,6520.0,1326.0,7957.0,1499.0,1814.0,2078.0,2824.0,2025-07-23 17:23:35,60.0,,-0.386447902003065,-2.82011383216305,-0.432018033882501,,-5.157079534665193,,
,6515.0,1326.0,7943.0,1498.0,1800.0,2065.0,2833.0,2025-07-23 17:23:36,60.0,,-0.38670780317424,-2.82007257441115,-0.432376920755005,,-5.24898835918228,,
,6506.0,1326.0,7930.0,1498.0,1804.0,2064.0,2848.0,2025-07-23 17:23:37,60.0,,-0.386726625997388,-2.82004516672398,-0.431838362062074,,-5.3354133059230655,,
,6500.0,1324.0,7914.0,1494.0,1794.0,2072.0,2863.0,2025-07-23 17:23:38,60.0,,-0.386673677066079,-2.82021939459751,-0.432439664622377,,-5.406396811684214,,
,6496.0,1320.0,7902.0,1491.0,1797.0,2075.0,2843.0,2025-07-23 17:23:39,59.0,,-0.386804319035376,-2.82023020381682,-0.433371741049285,,-5.450896467589569,,
,6490.0,1321.0,7891.0,1488.0,1794.0,2071.0,2831.0,2025-07-23 17:23:40,58.0,,-0.386930666435474,-2.82027671010258,-0.433112294360906,,-5.457340395735698,,
,6490.0,1322.0,7883.0,1487.0,1796.0,2083.0,2854.0,2025-07-23 17:23:41,58.0,,-0.387522288586807,-2.82033769667816,-0.433435671584814,,-5.414215268469045,,
,6483.0,1319.0,7873.0,1483.0,1799.0,2081.0,2860.0,2025-07-23 17:23:42,58.0,,-0.387662656414708,-2.82029471766747,-0.433040369478848,,-5.310643481279901,,
,6479.0,1319.0,7869.0,1483.0,1813.0,2084.0,2848.0,2025-07-23 17:23:43,59.0,,-0.387463477836648,-2.82043875194718,-0.433410617745401,,-5.136909272882189,,
,6475.0,1319.0,7862.0,1479.0,1786.0,2088.0,2854.0,2025-07-23 17:23:44,59.0,,-0.387346980233029,-2.8204714544924,-0.433741745659286,,-4.884898572089265,,
,6474.0,1318.0,7861.0,1481.0,1783.0,2065.0,2849.0,2025-07-23 17:23:45,59.0,,-0.387377578124245,-2.82049350592588,-0.433667422868422,,-4.548424094375765,,
,6472.0,1316.0,7859.0,1480.0,1790.0,2061.0,2825.0,2025-07-23 17:23:46,59.0,,-0.387308508237179,-2.82052061025835,-0.433098746568797,,-4.123416720777345,,
,6470.0,1315.0,7855.0,1480.0,1781.0,2083.0,2821.0,2025-07-23 17:23:47,58.0,,-0.387865691461436,-2.8205414405955,-0.434181320454928,,-3.6079774788401893,,
,6467.0,1315.0,7856.0,1478.0,1797.0,2081.0,2848.0,2025-07-23 17:23:48,57.0,,-0.387370872315199,-2.82040844148343,-0.433993796077545,,-3.002301582673919,,
,6464.0,1317.0,7853.0,1479.0,1804.0,2085.0,2809.0,2025-07-23 17:23:49,57.0,,-0.387543644385331,-2.82042829270242,-0.433750895312095,,-2.3085054663163986,,
,6466.0,1314.0,7857.0,1480.0,1818.0,2087.0,2815.0,2025-07-23 17:23:50,57.0,,-0.387466712471753,-2.82051858586024,-0.432978960663334,,-1.5304062101738416,,
,6465.0,1316.0,7855.0,1475.0,1806.0,2094.0,2826.0,2025-07-23 17:23:51,57.0,,-0.387714167349687,-2.82061875172827,-0.433389147065718,,-0.6733154671768339,,
,6463.0,1314.0,7852.0,1475.0,1813.0,2078.0,2830.0,2025-07-23 17:23:52,57.0,,-0.387546029570649,-2.82064776302963,-0.433543115841112,,0.25608788306514374,,
,6464.0,1314.0,7852.0,1476.0,1815.0,2090.0,2835.0,2025-07-23 17:23:53,57.0,,-0.38744466233113,-2.82057571286459,-0.433703373274141,,1.2497537948525905,,
,6462.0,1314.0,7855.0,1475.0,1801.0,2083.0,2808.0,2025-07-23 17:23:54,57.0,,-0.387349105318928,-2.82059859406368,-0.434039121207587,,2.298099033585776,,
,6461.0,1314.0,7855.0,1475.0,1801.0,2070.0,2790.0,2025-07-23 17:23:55,57.0,,-0.38742017042619,-2.82053682918558,-0.433875499384224,,3.389696977438545,,
,6460.0,1314.0,7854.0,1476.0,1804.0,2083.0,2794.0,2025-07-23 17:23:56,57.0,,-0.387238696001695,-2.82051919343305,-0.433593445562945,,4.510870371470313,,
,6462.0,1312.0,7855.0,1473.0,1803.0,2068.0,2833.0,2025-07-23 17:23:57,57.0,,-0.387673995155702,-2.82057241115312,-0.434277048688397,,5.645275097564195,,
,6461.0,1314.0,7852.0,1474.0,1804.0,2057.0,2807.0,2025-07-23 17:23:58,57.0,,-0.387718694017977,-2.8207242136083,-0.433984813577751,,6.773586698483921,,
,6457.0,1313.0,7855.0,1473.0,1805.0,2067.0,2819.0,2025-07-23 17:23:59,57.0,,-0.38790813622687,-2.82072390255915,-0.434276711359722,,7.873405728184443,,
,6460.0,1313.0,7856.0,1473.0,1811.0,2089.0,2825.0,2025-07-23 17:24:00,57.0,,-0.388015472685665,-2.82078835417806,-0.434845353832579,,8.919481787145903,,
,6459.0,1313.0,7856.0,1475.0,1805.0,2088.0,2820.0,2025-07-23 17:24:01,58.0,,-0.387641070157007,-2.82067544278658,-0.434117996596798,,9.884322419667125,,
,6461.0,1314.0,7860.0,1472.0,1794.0,2092.0,2853.0,2025-07-23 17:24:02,58.0,,-0.387698555563292,-2.82061621622952,-0.434353112555692,,10.73920718881733,,
,6461.0,1313.0,7861.0,1476.0,1788.0,2065.0,2854.0,2025-07-23 17:24:03,58.0,,-0.387540623745966,-2.82080837071351,-0.433889035474941,,11.455575102300513,,
,6460.0,1314.0,7862.0,1474.0,1801.0,2072.0,2848.0,2025-07-23 17:24:04,59.0,,-0.387772929907028,-2.82063090014485,-0.433565224347356,,12.00670100853447,,
,6458.0,1312.0,7864.0,1472.0,1800.0,2094.0,2859.0,2025-07-23 17:24:05,60.0,,-0.387717787587819,-2.8206041596257,-0.434309844360845,,12.369529292341362,,
,6458.0,1313.0,7866.0,1474.0,1811.0,2067.0,2845.0,2025-07-23 17:24:06,60.0,,-0.387905812536948,-2.82091342360572,-0.433882072000566,,12.526496646042736,,
,6458.0,1311.0,7867.0,1474.0,1806.0,2063.0,2844.0,2025-07-23 17:24:07,60.0,,-0.387963733623826,-2.82092110817872,-0.43416960829728,,12.467155119148766,,
,6461.0,1313.0,7865.0,1475.0,1809.0,2061.0,2837.0,2025-07-23 17:24:08,62.0,,-0.388002068681196,-2.8208996696557,-0.434678307534316,,12.189406834522543,,
2025-07-23 17:21:42,6458.0,1312.0,7867.0,1471.0,1789.0,2078.0,2855.0,2025-07-23 17:24:09,62.0,2025/07/23 05:21:42 PM,-0.388163489395126,-2.82090622588425,-0.43480425327488,,11.700186290669661,,
,6460.0,1313.0,7867.0,1473.0,1812.0,2080.0,2833.0,2025-07-23 17:24:10,62.0,,-0.388355015268251,-2.82110203889446,-0.434066131889983,,11.015475878777147,,
,6459.0,1314.0,7870.0,1472.0,1823.0,2101.0,2842.0,2025-07-23 17:24:11,64.0,,-0.38859175006449,-2.82091919526053,-0.435387902009902,,10.159611042344412,,
,6461.0,1312.0,7868.0,1474.0,1831.0,2096.0,2842.0,2025-07-23 17:24:12,66.0,,-0.388267443215974,-2.82107151058088,-0.435195914089676,,9.163913415945347,,
,6458.0,1312.0,7866.0,1475.0,1808.0,2094.0,2845.0,2025-07-23 17:24:13,67.0,,-0.388267837952505,-2.82089466902948,-0.435637752295259,,8.064769432525836,,
,6459.0,1311.0,7868.0,1472.0,1809.0,2074.0,2872.0,2025-07-23 17:24:14,67.0,,-0.388079714588184,-2.82097988624166,-0.4362134004387,,6.901334838231532,,
,6459.0,1312.0,7867.0,1473.0,1807.0,2075.0,2833.0,2025-07-23 17:24:15,67.0,,-0.388019834943527,-2.82084758321562,-0.435329161142809,,5.713083076361294,,
,6459.0,1311.0,7867.0,1473.0,1796.0,2060.0,2827.0,2025-07-23 17:24:16,67.0,,-0.387984240770919,-2.82112512510398,-0.435693351422934,,4.537424022483018,,
,6459.0,1313.0,7866.0,1473.0,1786.0,2059.0,2836.0,2025-07-23 17:24:17,67.0,,-0.388457805649089,-2.8210335351141,-0.435032918923336,,3.407600576732001,,
,6458.0,1312.0,7866.0,1472.0,1796.0,2061.0,2845.0,2025-07-23 17:24:18,66.0,,-0.388667869671303,-2.82123552142449,-0.435534531054378,,2.3510294008402064,,
,6459.0,1315.0,7870.0,1474.0,1808.0,2079.0,2828.0,2025-07-23 17:24:19,66.0,,-0.388791303472304,-2.82135619689116,-0.4353819796659,,1.3881961722963934,,
,6459.0,1314.0,7870.0,1473.0,1819.0,2078.0,2831.0,2025-07-23 17:24:20,66.0,,-0.389233501939248,-2.82153105630226,-0.436276569947142,,0.5321535368179655,,
,6459.0,1313.0,7867.0,1473.0,1805.0,2071.0,2838.0,2025-07-23 17:24:21,66.0,,-0.389631533730462,-2.82160344846417,-0.437958291204191,,-0.2113905125328086,,
,6459.0,1310.0,7868.0,1471.0,1805.0,2065.0,2840.0,2025-07-23 17:24:22,66.0,,-0.390135471277924,-2.82201303233591,-0.437674911495006,,-0.8434582489260306,,
,6459.0,1312.0,7870.0,1474.0,1802.0,2091.0,2846.0,2025-07-23 17:24:23,67.0,,-0.390783989049156,-2.8221040091603,-0.438507164138638,,-1.3707656085144122,,
,6460.0,1312.0,7872.0,1474.0,1794.0,2065.0,2834.0,2025-07-23 17:24:24,67.0,,-0.391088995324299,-2.82221518781805,-0.438574800326652,,-1.804391580075929,,
,6458.0,1312.0,7875.0,1475.0,1807.0,2060.0,2833.0,2025-07-23 17:24:25,67.0,,-0.391760845082387,-2.82233243930323,-0.439595608367521,,-2.1582912812036223,,
,6459.0,1312.0,7872.0,1474.0,1815.0,2056.0,2830.0,2025-07-23 17:24:26,66.0,,-0.391531459510032,-2.82250905549091,-0.439434859211644,,-2.4477868182883684,,
,6460.0,1313.0,7879.0,1473.0,1806.0,2064.0,2822.0,2025-07-23 17:24:27,65.0,,-0.391737841223689,-2.82245786641023,-0.440088358595163,,-2.6881563447895322,,
,6461.0,1315.0,7879.0,1474.0,1801.0,2072.0,2812.0,2025-07-23 17:24:28,64.0,,-0.392187361578164,-2.82268032600961,-0.440674780985501,,-2.893421157812955,,
,6461.0,1314.0,7883.0,1473.0,1799.0,2077.0,2829.0,2025-07-23 17:24:29,63.0,,-0.392048877358928,-2.82275225054045,-0.440614356405274,,-3.075405815317767,,
,6462.0,1313.0,7887.0,1473.0,1805.0,2090.0,2811.0,2025-07-23 17:24:30,62.0,,-0.392259435383112,-2.82269747881623,-0.44154560678948,,-3.243118845911679,,
,6462.0,1313.0,7890.0,1472.0,1810.0,2080.0,2811.0,2025-07-23 17:24:31,62.0,,-0.392543174932891,-2.82246988560864,-0.440651522495169,,-3.4024727540057866,,
,6466.0,1314.0,7893.0,1476.0,1802.0,2072.0,2831.0,2025-07-23 17:24:32,62.0,,-0.392530252059896,-2.8225625201538,-0.44117251379554,,-3.5563327341429423,,
,6465.0,1314.0,7896.0,1476.0,1793.0,2091.0,2827.0,2025-07-23 17:24:33,63.0,,-0.392401965609962,-2.82238458228009,-0.440813481205029,,-3.7048554794408117,,
,6469.0,1314.0,7898.0,1476.0,1798.0,2081.0,2827.0,2025-07-23 17:24:34,63.0,,-0.391600618293862,-2.8223878297371,-0.439088789975356,,-3.8460554649269274,,
,6466.0,1313.0,7897.0,1476.0,1790.0,2075.0,2821.0,2025-07-23 17:24:35,63.0,,-0.39111682619101,-2.82249323343709,-0.439572904642596,,-3.9765195327083864,,
,6470.0,1314.0,7907.0,1474.0,1791.0,2073.0,2826.0,2025-07-23 17:24:36,62.0,,-0.391105754087255,-2.8222081884657,-0.438738046249765,,-4.092184107567834,,
,6473.0,1317.0,7909.0,1477.0,1798.0,2079.0,2834.0,2025-07-23 17:24:37,61.0,,-0.391070585709367,-2.82247117774081,-0.43986039628928,,-4.189093206634179,,
,6473.0,1318.0,7911.0,1479.0,1792.0,2090.0,2838.0,2025-07-23 17:24:38,61.0,,-0.391390552066487,-2.8223604553517,-0.439696001879814,,-4.264067403694432,,
,6474.0,1316.0,7915.0,1480.0,1784.0,2110.0,2826.0,2025-07-23 17:24:39,61.0,,-0.391438432994023,-2.8224000903738,-0.43939550459708,,-4.315230731211414,,
,6475.0,1319.0,7917.0,1476.0,1795.0,2108.0,2817.0,2025-07-23 17:24:40,60.0,,-0.391233802850147,-2.82237680327261,-0.439855631303607,,-4.342361066514986,,
,6477.0,1317.0,7926.0,1481.0,1801.0,2114.0,2829.0,2025-07-23 17:24:41,61.0,,-0.391698797958732,-2.82237086421756,-0.439809589397613,,-4.347047668603002,,
,6479.0,1317.0,7927.0,1483.0,1791.0,2115.0,2843.0,2025-07-23 17:24:42,61.0,,-0.392210262410398,-2.82248711164342,-0.43935112742609,,-4.332655881481661,,
,6482.0,1315.0,7929.0,1481.0,1790.0,2095.0,2857.0,2025-07-23 17:24:43,63.0,,-0.391786444311349,-2.82255438996203,-0.440338395529788,,-4.304112851737132,,
,6481.0,1315.0,7932.0,1483.0,1796.0,2092.0,2828.0,2025-07-23 17:24:44,64.0,,-0.391817711437107,-2.82252557433114,-0.440637027636635,,-4.267539096827531,,
,6483.0,1319.0,7936.0,1483.0,1801.0,2096.0,2845.0,2025-07-23 17:24:45,64.0,,-0.392033276815358,-2.82254328312299,-0.440659713061848,,-4.229758972862992,,
,6485.0,1319.0,7940.0,1483.0,1806.0,2096.0,2824.0,2025-07-23 17:24:46,63.0,,-0.392606996004748,-2.82278545588137,-0.440459433648285,,-4.1977288563126445,,
,6490.0,1322.0,7944.0,1485.0,1805.0,2095.0,2837.0,2025-07-23 17:24:47,62.0,,-0.392005571690537,-2.82270694366226,-0.440623843635346,,-4.177925510303715,,
,6488.0,1319.0,7945.0,1484.0,1802.0,2090.0,2837.0,2025-07-23 17:24:48,61.0,,-0.392282871420672,-2.82284262393794,-0.439981918503671,,-4.175738802828194,,
,6490.0,1320.0,7949.0,1483.0,1795.0,2087.0,2836.0,2025-07-23 17:24:49,61.0,,-0.392583830172543,-2.82296376182836,-0.441106904722079,,-4.194912593835071,,
,6494.0,1319.0,7948.0,1484.0,1801.0,2079.0,2834.0,2025-07-23 17:24:50,61.0,,-0.392372575443249,-2.8228444046589,-0.441423945790959,,-4.237074926894654,,
,6493.0,1324.0,7955.0,1488.0,1805.0,2081.0,2836.0,2025-07-23 17:24:51,61.0,,-0.392498046380057,-2.82301283119296,-0.44121842767566,,-4.3013932785811715,,
,6495.0,1321.0,7957.0,1486.0,1799.0,2082.0,2835.0,2025-07-23 17:24:52,61.0,,-0.392749578674182,-2.82302004466469,-0.4411694573705,,-4.384382284757814,,
,6496.0,1323.0,7958.0,1488.0,1806.0,2076.0,2839.0,2025-07-23 17:24:53,62.0,,-0.392648595768852,-2.82289816760958,-0.441790669337065,,-4.4798802914775795,,
,6498.0,1322.0,7963.0,1490.0,1811.0,2079.0,2839.0,2025-07-23 17:24:54,63.0,,-0.392551159796414,-2.82318511178402,-0.441320476750433,,-4.57919838795645,,
,6500.0,1324.0,7966.0,1490.0,1807.0,2087.0,2838.0,2025-07-23 17:24:55,64.0,,-0.392908172273319,-2.82312675344477,-0.442134592422628,,-4.67143341963802,,
,6501.0,1325.0,7966.0,1488.0,1811.0,2100.0,2827.0,2025-07-23 17:24:56,64.0,,-0.392748615624655,-2.82316998228325,-0.441704678788912,,-4.74392722530428,,
,6502.0,1324.0,7973.0,1492.0,1802.0,2090.0,2843.0,2025-07-23 17:24:57,66.0,,-0.392814572421722,-2.82307471753534,-0.441354638767673,,-4.782849078146005,,
,6505.0,1323.0,7972.0,1491.0,1801.0,2085.0,2850.0,2025-07-23 17:24:58,67.0,,-0.392803049769383,-2.8231574858556,-0.442336250954333,,-4.773875980752415,,
,6506.0,1324.0,7977.0,1492.0,1803.0,2064.0,2834.0,2025-07-23 17:24:59,69.0,,-0.393115124697595,-2.82320199303215,-0.441726875738558,,-4.7029436254468235,,
,6508.0,1325.0,7979.0,1493.0,1796.0,2073.0,2832.0,2025-07-23 17:25:00,70.0,,-0.393179237695322,-2.82319907279832,-0.442514274609648,,-4.5570373354513425,,
,6508.0,1324.0,7982.0,1492.0,1812.0,2100.0,2841.0,,,,-0.393403964245666,-2.82319023751696,-0.442520105382328,,-4.3249865695378436,,
,6513.0,1324.0,7984.0,1492.0,1809.0,2069.0,2843.0,,,,-0.393567906864064,-2.82321864627834,-0.443061217140605,,-3.998219816132124,,
,6515.0,1326.0,7991.0,1495.0,1808.0,2080.0,2839.0,,,,-0.393803944454906,-2.82361294010909,-0.443135237815894,,-3.5714313587871716,,
,6515.0,1328.0,7990.0,1496.0,1821.0,2068.0,2823.0,,,,-0.394089132315756,-2.82355458354555,-0.443576640529481,,-3.0431103470646512,,
,6518.0,1325.0,7990.0,1493.0,1824.0,2071.0,2823.0,,,,-0.394131382319128,-2.82381891392997,-0.444091657079354,,-2.415888360003078,,
,6519.0,1327.0,7997.0,1497.0,1813.0,2054.0,2839.0,,,,-0.394395053418112,-2.82368264430541,-0.444344502361246,,-1.6966752353566106,,
,6520.0,1330.0,7999.0,1500.0,1804.0,2046.0,2836.0,,,,-0.394436335922482,-2.82372940354703,-0.444332372129066,,-0.8965728438710381,,
,6522.0,1327.0,8001.0,1499.0,1801.0,2061.0,2826.0,,,,-0.394250670728242,-2.82370442479801,-0.443349973148286,,-0.03057858170058154,,
,6522.0,1329.0,8002.0,1500.0,1795.0,2072.0,2844.0,,,,-0.394224118148051,-2.82363691431701,-0.44406423347738,,0.8828906834538387,,
,6524.0,1331.0,8006.0,1497.0,1797.0,2069.0,2829.0,,,,-0.393696660751481,-2.82359225855939,-0.443915994039945,,1.8226120293126629,,
,6529.0,1331.0,8010.0,1502.0,1801.0,2089.0,2830.0,,,,-0.393865959283184,-2.82368908982778,-0.443845201676239,,2.76526313045684,,
,6530.0,1331.0,8013.0,1503.0,1812.0,2081.0,2837.0,,,,-0.393830732371813,-2.82348732510215,-0.44323127953926,,3.686184832310033,,
,6532.0,1329.0,8017.0,1502.0,1804.0,2068.0,2830.0,,,,-0.393676131889913,-2.82358723350297,-0.443648416463348,,4.560174844046361,,
,6532.0,1333.0,8019.0,1503.0,1804.0,2066.0,2812.0,,,,-0.394105598798496,-2.82358187372304,-0.442825394819818,,5.3623014305652275,,
,6531.0,1333.0,8021.0,1505.0,1812.0,2076.0,2839.0,,,,-0.393983598989216,-2.82363009216283,-0.443381355801295,,6.068736085299151,,
,6537.0,1334.0,8025.0,1504.0,1815.0,2086.0,2839.0,,,,-0.394010728179721,-2.82362879730631,-0.444055802232935,,6.657606803922764,,
,6538.0,1333.0,8030.0,1506.0,1819.0,2087.0,2832.0,,,,-0.394420713526305,-2.82352795825896,-0.443570864578992,,7.109866823287836,,
,6539.0,1331.0,8031.0,1504.0,1797.0,2083.0,2832.0,,,,-0.394082330441808,-2.8237873020881,-0.443621118767191,,7.410158519817165,,
,6544.0,1338.0,8036.0,1507.0,1795.0,2094.0,2833.0,,,,-0.394188067567786,-2.82384318363717,-0.443426540194467,,7.547632353455635,,
,6544.0,1334.0,8035.0,1507.0,1805.0,2083.0,2835.0,,,,-0.394062188734673,-2.82361853721258,-0.443871092605384,,7.5166614523916975,,
,6545.0,1336.0,8040.0,1509.0,1807.0,2065.0,2841.0,,,,-0.394051668094203,-2.82373845966041,-0.443499674185451,,7.3173787302123285,,
,6547.0,1336.0,8041.0,1510.0,1788.0,2057.0,2841.0,,,,-0.394196246066119,-2.82372273296504,-0.443166693511554,,6.955959662885532,,
,6549.0,1335.0,8045.0,1510.0,1787.0,2074.0,2837.0,,,,-0.393960815475719,-2.82376996733498,-0.443424212889697,,6.444583377161864,,
,6552.0,1338.0,8049.0,1513.0,1788.0,2058.0,2844.0,,,,-0.394109091634636,-2.82372810859991,-0.443149816164417,,5.801029003185708,,
,6555.0,1339.0,8050.0,1512.0,1779.0,2066.0,2830.0,,,,-0.393863567258594,-2.8237488544067,-0.443497729536335,,5.047901361507539,,
,6553.0,1338.0,8052.0,1510.0,1811.0,2069.0,2839.0,,,,-0.394108919252069,-2.82395433325226,-0.443896811187899,,4.211523572735628,,
,6558.0,1340.0,8056.0,1515.0,1801.0,2073.0,2851.0,,,,-0.394535698174755,-2.82389669878145,-0.443901236398116,,3.3205746576883928,,
,6560.0,1340.0,8061.0,1516.0,1809.0,2078.0,2832.0,,,,-0.394511711134543,-2.8238700557657,-0.444365560764267,,2.4045789063750473,,
,6561.0,1342.0,8062.0,1515.0,1818.0,2098.0,2842.0,,,,-0.394404216970086,-2.82384081963564,-0.444044072976165,,1.4923660758331874,,
,6562.0,1340.0,8067.0,1513.0,1807.0,2087.0,2858.0,,,,-0.394048220380125,-2.82402438167773,-0.444083273305663,,0.6106175269883453,,
,6561.0,1341.0,8064.0,1516.0,1798.0,2080.0,2842.0,,,,-0.394455527904464,-2.82385101894121,-0.443972737770041,,-0.21740310497708748,,
,6565.0,1342.0,8063.0,1516.0,1804.0,2072.0,2845.0,,,,-0.393973644312056,-2.82380995057537,-0.444122261755619,,-0.9728599940891137,,
,6561.0,1339.0,8058.0,1518.0,1821.0,2090.0,2851.0,,,,-0.394097187285182,-2.82387166060117,-0.443956727364264,,-1.6420473252550427,,
,6560.0,1340.0,8049.0,1514.0,1822.0,2083.0,2860.0,,,,-0.394114981181377,-2.82373189046166,-0.443851309829986,,-2.216759286615695,,
,6554.0,1338.0,8036.0,1510.0,1801.0,2084.0,2851.0,,,,-0.393865627564993,-2.82376090421535,-0.44358699852147,,-2.6943241723894293,,
,6550.0,1339.0,8022.0,1509.0,1793.0,2067.0,2851.0,,,,-0.394000627276719,-2.82388386809351,-0.443127598522373,,-3.0773161659154926,,
,6546.0,1337.0,8005.0,1509.0,1800.0,2071.0,2832.0,,,,-0.393949772095063,-2.82395193141937,-0.443266317827789,,-3.3729734850840782,,
,6540.0,1337.0,7987.0,1507.0,1790.0,2081.0,2852.0,,,,-0.393821529665737,-2.82377041405224,-0.443129233134581,,-3.5923651443516866,,
,6530.0,1330.0,7967.0,1503.0,1796.0,2081.0,2840.0,,,,-0.394157151155785,-2.82372076405865,-0.44380380254133,,-3.74935994371291,,
,6526.0,1332.0,7950.0,1501.0,1794.0,2071.0,2829.0,,,,-0.393980955985814,-2.82402834667037,-0.443202984995464,,-3.8594593263484107,,
,6520.0,1331.0,7936.0,1497.0,1802.0,2075.0,2854.0,,,,-0.394127407152497,-2.82371815779542,-0.442845230574314,,-3.9385599780613414,,
,6514.0,1331.0,7920.0,1495.0,1794.0,2079.0,2839.0,,,,-0.393659931691282,-2.82372759183454,-0.443281369631355,,-4.001712867869517,,
,6506.0,1327.0,7909.0,1494.0,1809.0,2077.0,2840.0,,,,-0.393653700678738,-2.82366763913086,-0.443603732386486,,-4.061943681750565,,
,6502.0,1325.0,7898.0,1492.0,1807.0,2091.0,2835.0,,,,-0.393709119334505,-2.82376935406042,-0.44187524800089,,-4.129196075464292,,
,6499.0,1323.0,7887.0,1489.0,1807.0,2091.0,2831.0,,,,-0.393622539935262,-2.82357748163227,-0.443123099523476,,-4.209454401196329,,
,6493.0,1324.0,7879.0,1487.0,1785.0,2095.0,2828.0,,,,-0.393172375628596,-2.82367696848961,-0.442646970005548,,-4.304096779396763,,
,6490.0,1322.0,7873.0,1485.0,1781.0,2090.0,2832.0,,,,-0.393035878461657,-2.82353494646962,-0.442034197762011,,-4.4095225315805395,,
,6484.0,1321.0,7866.0,1484.0,1800.0,2108.0,2850.0,,,,-0.392929338514503,-2.82350653234637,-0.442115925819254,,-4.517089716780922,,
,6482.0,1318.0,7865.0,1481.0,1796.0,2101.0,2843.0,,,,-0.392710022757385,-2.82348791167993,-0.441918121570433,,-4.613388208554193,,
,6483.0,1322.0,7864.0,1482.0,1808.0,2075.0,2819.0,,,,-0.392195705516077,-2.82341358724201,-0.440902070742136,,-4.680860556630747,,
,6477.0,1318.0,7857.0,1481.0,1802.0,2076.0,2818.0,,,,-0.392186936684182,-2.82328812001513,-0.44114389695456,,-4.698765843514518,,
,6477.0,1316.0,7856.0,1477.0,1810.0,2109.0,2823.0,,,,-0.391711754846311,-2.82309568022202,-0.44137465460219,,-4.644460212544365,,
,6473.0,1318.0,7855.0,1478.0,1798.0,2092.0,2836.0,,,,-0.391172044178374,-2.82293016170975,-0.439802635825614,,-4.494941957899068,,
,6476.0,1318.0,7858.0,1480.0,1777.0,2079.0,2826.0,,,,-0.390601668959499,-2.82287382726227,-0.438532994812306,,-4.228580731248653,,
,6471.0,1317.0,7852.0,1477.0,1781.0,2077.0,2825.0,,,,-0.390223374781956,-2.822614342712,-0.438076730878527,,-3.8269229581602042,,
,6472.0,1319.0,7857.0,1477.0,1816.0,2083.0,2820.0,,,,-0.38973828974178,-2.82242426568906,-0.437572716783171,,-3.276444004551625,,
,6467.0,1316.0,7855.0,1477.0,1811.0,2075.0,2820.0,,,,-0.388990215654845,-2.82207726619953,-0.436267943472881,,-2.570107711183145,,
,6469.0,1320.0,7854.0,1476.0,1788.0,2082.0,2819.0,,,,-0.388454062710041,-2.82174865611226,-0.434532540696478,,-1.7085998668603442,,
,6470.0,1316.0,7854.0,1477.0,1810.0,2100.0,2840.0,,,,-0.387455317111467,-2.82168790433442,-0.434355594452498,,-0.7011242915551475,,
,6466.0,1316.0,7855.0,1473.0,1812.0,2092.0,2862.0,,,,-0.387029310330557,-2.82107658975105,-0.432781865816898,,0.4343160217631067,,
,6464.0,1317.0,7850.0,1473.0,1814.0,2070.0,2836.0,,,,-0.386242467483605,-2.82095355578207,-0.432216125318531,,1.6711920115188577,,
,6465.0,1315.0,7851.0,1475.0,1817.0,2090.0,2850.0,,,,-0.38551377382134,-2.82073069728299,-0.431142284232032,,2.975278873631728,,
,6465.0,1317.0,7855.0,1473.0,1808.0,2071.0,2841.0,,,,-0.384816051144988,-2.82053636092847,-0.430582118626992,,4.306015106944546,,
,6463.0,1315.0,7855.0,1476.0,1796.0,2071.0,2825.0,,,,-0.384451176403609,-2.81998067429664,-0.429549241515627,,5.618334454868143,,
,6461.0,1314.0,7854.0,1473.0,1801.0,2067.0,2829.0,,,,-0.383725227236552,-2.81979966237936,-0.428523885302017,,6.864889108447623,,
,6464.0,1314.0,7857.0,1474.0,1809.0,2084.0,2835.0,,,,-0.383093355739732,-2.81965487688967,-0.426559635701174,,7.998555631485135,,
,6462.0,1314.0,7857.0,1472.0,1818.0,2072.0,2830.0,,,,-0.38248300838898,-2.81941131395879,-0.426297487794005,,8.975086133306126,,
,6465.0,1315.0,7856.0,1473.0,1818.0,2065.0,2840.0,,,,-0.381991474439421,-2.81913677649011,-0.424661206946546,,9.755738327589766,,
,6462.0,1314.0,7858.0,1472.0,1806.0,2072.0,2850.0,,,,-0.381187517126032,-2.81901511145093,-0.424977822335608,,10.309694868245241,,
,6464.0,1314.0,7858.0,1472.0,1791.0,2075.0,2837.0,,,,-0.380830625095632,-2.81877965367678,-0.42365455604553,,10.616072290382613,,
,6464.0,1316.0,7860.0,1473.0,1795.0,2082.0,2849.0,,,,-0.379923325423141,-2.81848516045013,-0.42241029299009,,10.66532964969486,,
,6464.0,1314.0,7863.0,1472.0,1796.0,2073.0,2856.0,,,,-0.379319643806423,-2.81805381308655,-0.42204104570206,,10.45992062835109,,
,6464.0,1315.0,7863.0,1474.0,1793.0,2062.0,2831.0,,,,-0.378869236779563,-2.81785118839862,-0.420399912617652,,10.014091661383198,,
,6462.0,1314.0,7863.0,1471.0,1799.0,2071.0,2827.0,,,,-0.377915334349226,-2.81766574547247,-0.418938668054287,,9.352809655064197,,
,6461.0,1314.0,7865.0,1475.0,1804.0,2072.0,2853.0,,,,-0.377573822484275,-2.81732149941344,-0.418847492289499,,8.509896984123685,,
,6464.0,1314.0,7863.0,1471.0,1804.0,2075.0,2852.0,,,,-0.377009692077727,-2.81708716532187,-0.416573575839971,,7.5255431403940465,,
2025-07-23 17:21:43,6463.0,1315.0,7864.0,1474.0,1795.0,2081.0,2854.0,,,2025/07/23 05:21:43 PM,-0.37663757606568,-2.81698680449048,-0.416200440486777,,6.4434337805152175,,
,6459.0,1313.0,7861.0,1469.0,1788.0,2100.0,2853.0,,,,-0.376157446003636,-2.81671999571944,-0.415286867397427,,5.307775220428913,,
,6461.0,1313.0,7863.0,1473.0,1783.0,2080.0,2845.0,,,,-0.375931800930112,-2.81657165803186,-0.415343845783497,,4.160490718904863,,
,6461.0,1314.0,7864.0,1474.0,1790.0,2067.0,2866.0,,,,-0.375872773329425,-2.81644251555619,-0.414438830407038,,3.0388283369203877,,
,6462.0,1316.0,7864.0,1472.0,1783.0,2075.0,2846.0,,,,-0.375588324998163,-2.81641584975751,-0.414556672452458,,1.973558623635255,,
,6459.0,1310.0,7862.0,1470.0,1785.0,2075.0,2849.0,,,,-0.375170804254034,-2.81651417235789,-0.413159290383588,,0.9878653920010882,,
,6458.0,1312.0,7860.0,1469.0,1774.0,2084.0,2841.0,,,,-0.375076974018332,-2.8161501082769,-0.412432720934372,,0.09695503071453034,,
,6460.0,1312.0,7863.0,1472.0,1797.0,2105.0,2844.0,,,,-0.3745151557179,-2.81582172940722,-0.41134103756749,,-0.6916620174691881,,
,6459.0,1315.0,7861.0,1472.0,1800.0,2095.0,2843.0,,,,-0.374137597962867,-2.81571040896516,-0.411937839906165,,-1.3773229198775176,,
,6459.0,1312.0,7865.0,1469.0,1778.0,2064.0,2852.0,,,,-0.373744225259983,-2.81553800654062,-0.410932908115517,,-1.9649439760422138,,
,6460.0,1311.0,7865.0,1469.0,1803.0,2071.0,2830.0,,,,-0.373405657510431,-2.81546031770334,-0.409682950391953,,-2.463500577477179,,
,6461.0,1314.0,7865.0,1471.0,1808.0,2061.0,2833.0,,,,-0.373089166191566,-2.81526776555081,-0.409581608230625,,-2.8844271324618123,,
,6461.0,1313.0,7870.0,1471.0,1810.0,2069.0,2837.0,,,,-0.372953928559425,-2.81503785702219,-0.409282930449072,,-3.240095101872918,,
,6459.0,1314.0,7870.0,1472.0,1795.0,2065.0,2852.0,,,,-0.372642605495055,-2.81485910015507,-0.408878479344309,,-3.5425011539422644,,
,6458.0,1310.0,7867.0,1472.0,1814.0,2068.0,2862.0,,,,-0.372066248683065,-2.81436807926182,-0.407145710856182,,-3.8022622886285666,,
,6462.0,1312.0,7872.0,1471.0,1831.0,2091.0,2850.0,,,,-0.371601375466351,-2.81409298857944,-0.406778678158015,,-4.027974117145414,,
,6460.0,1313.0,7877.0,1470.0,1803.0,2076.0,2834.0,,,,-0.371377557512655,-2.81396551148416,-0.405270974943011,,-4.225945672585042,,
,6465.0,1314.0,7879.0,1471.0,1797.0,2076.0,2837.0,,,,-0.370887412982648,-2.81386804574076,-0.404893426471854,,-4.400282749550474,,
,6464.0,1312.0,7880.0,1470.0,1789.0,2072.0,2827.0,,,,-0.370852695495491,-2.81379313387889,-0.404569399412656,,-4.553255900587363,,
,6463.0,1312.0,7883.0,1471.0,1798.0,2077.0,2821.0,,,,-0.37028037423914,-2.81351119173962,-0.403859154724999,,-4.685863102897079,,
,6466.0,1314.0,7886.0,1473.0,1804.0,2076.0,2802.0,,,,-0.369773436130862,-2.81322003815558,-0.402844988254786,,-4.798483906963121,,
,6468.0,1317.0,7892.0,1473.0,1814.0,2084.0,2814.0,,,,-0.369727050470108,-2.81315817254403,-0.401918200612987,,-4.891522244615169,,
,6467.0,1313.0,7895.0,1472.0,1794.0,2096.0,2831.0,,,,-0.36938548545131,-2.81305489072869,-0.401407832868209,,-4.965946961956988,,
,6469.0,1315.0,7898.0,1476.0,1799.0,2088.0,2848.0,,,,-0.369058193529343,-2.81291885977642,-0.401392105166055,,-5.023659010469509,,
,6470.0,1314.0,7900.0,1476.0,1819.0,2100.0,2837.0,,,,-0.368854942438647,-2.81277252721597,-0.400202359252765,,-5.0676385379436715,,
,6471.0,1317.0,7905.0,1475.0,1820.0,2092.0,2836.0,,,,-0.368357815708772,-2.81275110462332,-0.400514168284459,,-5.101851158979714,,
,6474.0,1316.0,7907.0,1475.0,1819.0,2082.0,2834.0,,,,-0.368223849793757,-2.81256915000613,-0.399597381449576,,-5.130918593814421,,
,6474.0,1315.0,7910.0,1476.0,1815.0,2081.0,2851.0,,,,-0.367826487805025,-2.81244532059844,-0.399459712064578,,-5.1595832384237506,,
,6476.0,1316.0,7911.0,1477.0,1800.0,2076.0,2843.0,,,,-0.367529035490592,-2.81223221554414,-0.398002901542894,,-5.192017796452407,,
,6477.0,1318.0,7918.0,1476.0,1804.0,2060.0,2836.0,,,,-0.367042765215606,-2.81201163660142,-0.398077048755204,,-5.231048715152554,,
,6477.0,1317.0,7921.0,1477.0,1805.0,2061.0,2832.0,,,,-0.366894682763132,-2.81187056789084,-0.397259669044706,,-5.277374858981021,,
,6477.0,1316.0,7923.0,1477.0,1798.0,2070.0,2838.0,,,,-0.366239686521428,-2.81151435259079,-0.3957431148362,,-5.328869726943541,,
,6484.0,1317.0,7930.0,1479.0,1803.0,2093.0,2824.0,,,,-0.365630943839464,-2.81116706685109,-0.394952947783697,,-5.380055582014089,,
,6485.0,1318.0,7931.0,1481.0,1799.0,2082.0,2840.0,,,,-0.365143255983858,-2.81091333602354,-0.394372523991175,,-5.421830103712792,,
,6482.0,1319.0,7935.0,1480.0,1802.0,2082.0,2837.0,,,,-0.364719782550369,-2.81058103791535,-0.392822840804251,,-5.441509865488788,,
,6483.0,1317.0,7935.0,1481.0,1798.0,2094.0,2829.0,,,,-0.36432472176569,-2.81029084199263,-0.391718091555643,,-5.423230004199987,,
,6487.0,1320.0,7940.0,1482.0,1813.0,2089.0,2827.0,,,,-0.36347510989519,-2.8099768371475,-0.390953226872614,,-5.348706919519265,,
,6491.0,1321.0,7942.0,1484.0,1823.0,2060.0,2816.0,,,,-0.362858048182167,-2.80955875028616,-0.389436682517926,,-5.198333249842399,,
,6490.0,1319.0,7946.0,1481.0,1822.0,2058.0,2822.0,,,,-0.362562197122452,-2.80931455190429,-0.388706641792671,,-4.952535958656329,,
,6489.0,1319.0,7947.0,1482.0,1808.0,2084.0,2823.0,,,,-0.361927271300647,-2.80922512655624,-0.387921540352253,,-4.5932949506101615,,
,6492.0,1319.0,7951.0,1482.0,1818.0,2093.0,2840.0,,,,-0.36175020598634,-2.80887675837059,-0.387059457804374,,-4.105697675514771,,
,6494.0,1323.0,7955.0,1485.0,1813.0,2100.0,2839.0,,,,-0.360938460731157,-2.80879138305362,-0.385929288883044,,-3.4793995979572023,,
,6495.0,1322.0,7959.0,1484.0,1821.0,2102.0,2835.0,,,,-0.360690887939428,-2.80843333368615,-0.384583666506837,,-2.709872137364893,,
,6497.0,1321.0,7959.0,1487.0,1823.0,2090.0,2817.0,,,,-0.360428043013014,-2.808258563011,-0.383802593761815,,-1.7993447287053237,,
,6498.0,1323.0,7960.0,1481.0,1800.0,2078.0,2829.0,,,,-0.360134727228012,-2.80798608202961,-0.383544302457116,,-0.7573786490599916,,
,6499.0,1323.0,7965.0,1487.0,1813.0,2069.0,2820.0,,,,-0.359737058995507,-2.80777251971717,-0.382540921399221,,0.3989603958846022,,
,6502.0,1323.0,7968.0,1488.0,1792.0,2073.0,2797.0,,,,-0.359379880086473,-2.8075437397562,-0.382024112270894,,1.6453410813022589,,
,6504.0,1323.0,7971.0,1489.0,1785.0,2065.0,2795.0,,,,-0.358968609459724,-2.80733930530279,-0.381055804662474,,2.9508113003741157,,
,6506.0,1321.0,7970.0,1488.0,1806.0,2100.0,2816.0,,,,-0.358422838882329,-2.80701946750501,-0.379902295400365,,4.278832988833974,,
,6506.0,1326.0,7974.0,1490.0,1806.0,2098.0,2831.0,,,,-0.35791566004693,-2.80663525094401,-0.378985201999888,,5.588681121032011,,
,6506.0,1326.0,7980.0,1491.0,1797.0,2081.0,2845.0,,,,-0.357060116331424,-2.80634678185652,-0.378148597585623,,6.837168426872356,,
,6509.0,1326.0,7982.0,1491.0,1804.0,2082.0,2861.0,,,,-0.356501030162918,-2.80595322074537,-0.37671902829718,,7.980639353882214,,
,6511.0,1327.0,7985.0,1491.0,1798.0,2087.0,2849.0,,,,-0.356335001930824,-2.80558987149701,-0.375971316925628,,8.97715269227522,,
,6510.0,1325.0,7985.0,1492.0,1790.0,2093.0,2851.0,,,,-0.355479666501097,-2.80550283299103,-0.375435725596293,,9.78874371529508,,
,6513.0,1325.0,7991.0,1491.0,1813.0,2065.0,2847.0,,,,-0.35537907721442,-2.80463778400144,-0.374271150791375,,10.383627771898833,,
,6516.0,1326.0,7992.0,1492.0,1821.0,2061.0,2847.0,,,,-0.354587657497566,-2.80421038758941,-0.37250309493176,,10.738184141440481,,
,6518.0,1328.0,7996.0,1492.0,1798.0,2068.0,2820.0,,,,-0.354326027321734,-2.80377488546318,-0.371823458373174,,10.838548588366752,,
,6519.0,1326.0,8000.0,1494.0,1796.0,2094.0,2808.0,,,,-0.353503796675132,-2.80354797038622,-0.370897447073114,,10.681651585718672,,
,6522.0,1327.0,8001.0,1494.0,1818.0,2096.0,2834.0,,,,-0.353158983167258,-2.80277842532161,-0.368901915770202,,10.275570365849335,,
,6522.0,1329.0,8004.0,1498.0,1822.0,2068.0,2822.0,,,,-0.352517377784504,-2.80219505300855,-0.368669270109888,,9.63911709254856,,
,6526.0,1328.0,8005.0,1493.0,1813.0,2055.0,2814.0,,,,-0.351987602661584,-2.80192461126835,-0.368185372557697,,8.800658637744354,,
,6525.0,1328.0,8007.0,1496.0,1799.0,2060.0,2821.0,,,,-0.351614200543972,-2.80169097179885,-0.367197173657526,,7.79624699930842,,
,6528.0,1329.0,8014.0,1495.0,1803.0,2060.0,2835.0,,,,-0.351021883309103,-2.80125453774041,-0.366260619036749,,6.667220062781892,,
,6529.0,1329.0,8013.0,1500.0,1819.0,2073.0,2843.0,,,,-0.350641805999238,-2.80091805022345,-0.364819174553138,,5.457494990196327,,
,6529.0,1331.0,8019.0,1500.0,1819.0,2073.0,2850.0,,,,-0.350057550392683,-2.80032478641016,-0.364173261301702,,4.210808731473777,,
,6532.0,1332.0,8019.0,1500.0,1815.0,2063.0,2829.0,,,,-0.349484378246266,-2.79965071731533,-0.362961730932107,,2.9681569071839253,,
,6533.0,1332.0,8026.0,1501.0,1813.0,2075.0,2846.0,,,,-0.349111818858487,-2.79933591332211,-0.362146663775808,,1.7656465471038525,,
,6538.0,1335.0,8030.0,1502.0,1795.0,2080.0,2836.0,,,,-0.34855892654697,-2.79912354684361,-0.360857338140288,,0.6329184315084367,,
,6537.0,1335.0,8029.0,1501.0,1794.0,2069.0,2832.0,,,,-0.348385127853078,-2.79864508482926,-0.360258308974944,,-0.40777802868916185,,
,6540.0,1332.0,8034.0,1503.0,1789.0,2095.0,2835.0,,,,-0.347624995661711,-2.79831732421531,-0.359535013696519,,-1.34184938942253,,
,6541.0,1334.0,8034.0,1504.0,1810.0,2095.0,2835.0,,,,-0.347417619593175,-2.79798324368645,-0.358398745481819,,-2.162021810051422,,
,6546.0,1334.0,8041.0,1504.0,1810.0,2065.0,2830.0,,,,-0.34728960659472,-2.79768874254363,-0.358003647305769,,-2.867516239401939,,
,6544.0,1337.0,8040.0,1504.0,1827.0,2060.0,2832.0,,,,-0.347128084276652,-2.79744306837909,-0.356794982698981,,-3.4628817401717957,,
,6544.0,1335.0,8044.0,1507.0,1828.0,2041.0,2817.0,,,,-0.346545439315855,-2.79696965798521,-0.356331614976954,,-3.9566473484538864,,
,6548.0,1336.0,8046.0,1505.0,1810.0,2070.0,2828.0,,,,-0.345949636432947,-2.79664256403728,-0.356076362007749,,-4.359947336192575,,
,6547.0,1336.0,8046.0,1506.0,1825.0,2095.0,2819.0,,,,-0.3455653211057,-2.79642164527491,-0.354922647328158,,-4.685252492019145,,
,6549.0,1337.0,8047.0,1508.0,1807.0,2084.0,2831.0,,,,-0.34515178445613,-2.79606734404662,-0.354299906952849,,-4.945305039158869,,
,6545.0,1336.0,8041.0,1506.0,1810.0,2064.0,2829.0,,,,-0.344706350368702,-2.79569815528628,-0.353720706001078,,-5.152312522352382,,
,6542.0,1335.0,8033.0,1504.0,1827.0,2061.0,2823.0,,,,-0.344479283798905,-2.79548280430143,-0.353005340074527,,-5.3174131901691775,,
,6538.0,1336.0,8021.0,1504.0,1822.0,2072.0,2844.0,,,,-0.344125138409774,-2.79528084738686,-0.353002525816043,,-5.450388865130131,,
,6536.0,1333.0,8004.0,1500.0,1816.0,2060.0,2814.0,,,,-0.344145798743301,-2.7952148127901,-0.351303097029278,,-5.559575732887844,,
,6529.0,1330.0,7985.0,1497.0,1811.0,2070.0,2808.0,,,,-0.343812102852816,-2.79519706660459,-0.3515791804773,,-5.651910199514657,,
,6523.0,1328.0,7966.0,1494.0,1816.0,2072.0,2835.0,,,,-0.343364615723661,-2.79480922411631,-0.351069462833832,,-5.733044441436333,,
,6518.0,1332.0,7949.0,1495.0,1805.0,2074.0,2838.0,,,,-0.343368715684636,-2.79483758997878,-0.350191257880798,,-5.807471860041155,,
,6512.0,1328.0,7935.0,1490.0,1784.0,2058.0,2838.0,,,,-0.343516179447761,-2.79434823782203,-0.350855120726343,,-5.878613930856491,,
,6505.0,1328.0,7921.0,1490.0,1792.0,2056.0,2830.0,,,,-0.343056854555537,-2.79462773696444,-0.350633572130162,,-5.948835077608577,,
,6498.0,1324.0,7903.0,1485.0,1815.0,2063.0,2837.0,,,,-0.343033265414732,-2.79446545546589,-0.349958587643621,,-6.019369698742882,,
,6490.0,1321.0,7891.0,1481.0,1814.0,2063.0,2825.0,,,,-0.342862969884257,-2.79409116835638,-0.349721397880637,,-6.090163771108544,,
,6487.0,1322.0,7885.0,1481.0,1812.0,2085.0,2833.0,,,,-0.342522399135109,-2.79406018973929,-0.350197448369046,,-6.159650830679812,,
,6483.0,1320.0,7875.0,1478.0,1810.0,2093.0,2818.0,,,,-0.342256114529251,-2.79391446381372,-0.349385920132746,,-6.224496894228556,,
,6477.0,1319.0,7868.0,1479.0,1794.0,2060.0,2838.0,,,,-0.342184654782154,-2.79345813108153,-0.348992394228346,,-6.279359649756739,,
,6472.0,1319.0,7861.0,1475.0,1812.0,2059.0,2842.0,,,,-0.342305287145493,-2.79350126757968,-0.348873961246584,,-6.316713031491018,,
,6471.0,1319.0,7857.0,1475.0,1830.0,2101.0,2823.0,,,,-0.342299032995585,-2.79356964252784,-0.349334757125398,,-6.326788505446313,,
,6465.0,1317.0,7851.0,1470.0,1826.0,2083.0,2816.0,,,,-0.342072931436293,-2.79344735162816,-0.349170864167598,,-6.297678723341285,,
,6463.0,1317.0,7851.0,1472.0,1835.0,2063.0,2821.0,,,,-0.341847758760401,-2.79339586564608,-0.348468944305441,,-6.215637651205897,,
,6462.0,1314.0,7847.0,1470.0,1823.0,2058.0,2820.0,,,,-0.341832841326258,-2.79331681086897,-0.348295156460789,,-6.065594247661681,,
,6459.0,1315.0,7842.0,1469.0,1806.0,2070.0,2833.0,,,,-0.342034391699126,-2.79339046127823,-0.348487108887239,,-5.831875304047728,,
,6459.0,1315.0,7843.0,1469.0,1819.0,2076.0,2820.0,,,,-0.341745942696797,-2.79338627090532,-0.348255176487207,,-5.499109199965362,,
,6460.0,1314.0,7843.0,1466.0,1829.0,2081.0,2824.0,,,,-0.341524508303243,-2.7933939724359,-0.34793326641344,,-5.053259355284731,,
,6455.0,1311.0,7843.0,1467.0,1814.0,2085.0,2814.0,,,,-0.341298688097191,-2.79326263460514,-0.347329069706323,,-4.482718209242985,,
,6454.0,1311.0,7841.0,1465.0,1826.0,2069.0,2799.0,,,,-0.341122415465677,-2.79313072067665,-0.347179109122623,,-3.779383110083869,,
,6453.0,1313.0,7841.0,1464.0,1822.0,2092.0,2798.0,,,,-0.340993578626775,-2.79311515138645,-0.347238978905663,,-2.9396355034239106,,
,6451.0,1311.0,7839.0,1468.0,1826.0,2099.0,2811.0,,,,-0.341062989661139,-2.7931802876826,-0.347314153494815,,-1.9651521746724416,,
,6452.0,1312.0,7839.0,1465.0,1822.0,2080.0,2814.0,,,,-0.340985693852126,-2.79300156877829,-0.347545297551726,,-0.863488412608617,,
,6449.0,1311.0,7839.0,1463.0,1809.0,2068.0,2827.0,,,,-0.341078459037394,-2.79332587805287,-0.346975608112821,,0.35161516938867415,,
,6450.0,1312.0,7839.0,1464.0,1828.0,2064.0,2825.0,,,,-0.341204078820659,-2.79314747855583,-0.347344498698205,,1.6602390087497334,,
,6450.0,1313.0,7840.0,1466.0,1813.0,2081.0,2828.0,,,,-0.34124339595201,-2.7932776752527,-0.347594851716902,,3.0366297317491298,,
,6447.0,1312.0,7842.0,1463.0,1794.0,2078.0,2847.0,,,,-0.341381556211041,-2.79360447750139,-0.347447525442308,,4.44989727130049,,
,6448.0,1310.0,7841.0,1461.0,1811.0,2085.0,2837.0,,,,-0.341519090720002,-2.79368849887743,-0.348376441088539,,5.8650621068021795,,
,6450.0,1311.0,7842.0,1462.0,1811.0,2091.0,2839.0,,,,-0.341711318613993,-2.79395765051871,-0.348328825830828,,7.244430972365919,,
,6447.0,1311.0,7844.0,1461.0,1824.0,2077.0,2839.0,,,,-0.341856178541832,-2.79423400991301,-0.349420191420342,,8.549253275996765,,
,6450.0,1311.0,7842.0,1463.0,1818.0,2078.0,2834.0,,,,-0.341901971468072,-2.79420856478969,-0.349651224516356,,9.741578296150088,,
,6448.0,1309.0,7844.0,1461.0,1800.0,2074.0,2829.0,,,,-0.342180515593244,-2.79431188890724,-0.349882445894753,,10.786198449885568,,
,6449.0,1309.0,7846.0,1463.0,1816.0,2067.0,2836.0,,,,-0.342568891400657,-2.79448357972244,-0.350291363826628,,11.652533901032763,,
,6448.0,1312.0,7848.0,1463.0,1824.0,2075.0,2819.0,,,,-0.342511415767156,-2.79472428560493,-0.350088844440746,,12.316298296468611,,
,6448.0,1311.0,7850.0,1464.0,1820.0,2088.0,2813.0,,,,-0.343064530945889,-2.79544860577237,-0.351530704610172,,12.760792605101539,,
,6445.0,1310.0,7848.0,1462.0,1821.0,2072.0,2830.0,,,,-0.343383204383701,-2.7956033898644,-0.351223133513806,,12.977705688476005,,
,6447.0,1311.0,7848.0,1460.0,1825.0,2081.0,2846.0,,,,-0.343671480687497,-2.79569861988515,-0.35219569404963,,12.967350494344384,,
,6446.0,1311.0,7851.0,1462.0,1811.0,2063.0,2832.0,,,,-0.343997739249513,-2.79656730690272,-0.352995730608629,,12.738323251086673,,
,6445.0,1310.0,7849.0,1461.0,1810.0,2084.0,2828.0,,,,-0.344646645327361,-2.79658338742329,-0.354257475875646,,12.30662986530464,,
,6445.0,1309.0,7852.0,1461.0,1813.0,2085.0,2833.0,,,,-0.345030027771434,-2.79705203755691,-0.35576908328884,,11.694372586071594,,
,6446.0,1308.0,7846.0,1460.0,1812.0,2079.0,2829.0,,,,-0.34595402873868,-2.79751897216173,-0.356345567090781,,10.928127574472402,,
,6443.0,1309.0,7846.0,1460.0,1810.0,2081.0,2823.0,,,,-0.346260323727011,-2.7978499236099,-0.356819423334537,,10.037167590901037,,
,6443.0,1310.0,7845.0,1460.0,1812.0,2071.0,2806.0,,,,-0.346613794384076,-2.79833305681263,-0.357198720278515,,9.051690701323103,,
,6442.0,1310.0,7843.0,1461.0,1810.0,2081.0,2812.0,,,,-0.346903117236711,-2.79842041538645,-0.359036406937419,,8.001204254687183,,
,6442.0,1308.0,7844.0,1459.0,1815.0,2056.0,2819.0,,,,-0.347250205739689,-2.7988214588962,-0.35998007395429,,6.913185061091028,,
,6441.0,1310.0,7841.0,1458.0,1827.0,2059.0,2824.0,,,,-0.347565304825681,-2.79921678492068,-0.359981221375878,,5.8120962695616765,,
,6442.0,1311.0,7844.0,1459.0,1820.0,2078.0,2821.0,,,,-0.347703512113937,-2.79937024515682,-0.360083762130759,,4.718794869378163,,
2025-07-23 17:21:44,6442.0,1307.0,7843.0,1457.0,1826.0,2079.0,2806.0,,,2025/07/23 05:21:44 PM,-0.347630253238332,-2.79938098955849,-0.36036828532239,,3.6503172777839192,,
,6437.0,1307.0,7841.0,1457.0,1818.0,2063.0,2786.0,,,,-0.347761077222697,-2.79948527306972,-0.360867253715092,,2.6199902223707245,,
,6438.0,1308.0,7840.0,1456.0,1814.0,2088.0,2823.0,,,,-0.348073186434926,-2.79939253860363,-0.36051877410404,,1.637785210740821,,
,6439.0,1306.0,7840.0,1458.0,1823.0,2073.0,2834.0,,,,-0.348175660177156,-2.79948747083312,-0.361321708664833,,0.7108202224820279,,
,6438.0,1306.0,7844.0,1456.0,1820.0,2060.0,2812.0,,,,-0.348881698303038,-2.79982429032644,-0.36128611892605,,-0.15608797981558328,,
,6435.0,1308.0,7844.0,1458.0,1828.0,2078.0,2808.0,,,,-0.348869289689668,-2.79992576941628,-0.361963930985416,,-0.9599051907432906,,
,6437.0,1306.0,7845.0,1455.0,1834.0,2077.0,2815.0,,,,-0.348885905953474,-2.7999731435194,-0.362464712935432,,-1.698956928629189,,
,6438.0,1310.0,7844.0,1456.0,1840.0,2082.0,2827.0,,,,-0.349444314344441,-2.80014242186608,-0.362479662566643,,-2.372635246491812,,
,6438.0,1308.0,7846.0,1455.0,1827.0,2053.0,2837.0,,,,-0.350276261345048,-2.80033458236433,-0.364032798815399,,-2.981238868895239,,
,6440.0,1308.0,7849.0,1457.0,1819.0,2047.0,2840.0,,,,-0.350445739891604,-2.80070868356724,-0.364787405315809,,-3.525923779796453,,
,6438.0,1306.0,7853.0,1454.0,1833.0,2041.0,2827.0,,,,-0.351079361095626,-2.80103952758819,-0.36551351999567,,-4.008723446366915,,
,6441.0,1309.0,7854.0,1457.0,1843.0,2055.0,2818.0,,,,-0.350890655865408,-2.80148966264865,-0.366235926591875,,-4.432591283643564,,
,6441.0,1307.0,7858.0,1455.0,1834.0,2076.0,2808.0,,,,-0.351293438547825,-2.80166227326149,-0.366232457573135,,-4.801421990999482,,
,6440.0,1310.0,7860.0,1458.0,1828.0,2076.0,2829.0,,,,-0.35189114882569,-2.80203452029898,-0.367186234556461,,-5.120019533614689,,
,6441.0,1306.0,7863.0,1456.0,1816.0,2084.0,2820.0,,,,-0.352319224662141,-2.80230777162101,-0.367693328060676,,-5.393993609153552,,
,6442.0,1307.0,7863.0,1457.0,1827.0,2054.0,2829.0,,,,-0.352945905855263,-2.80235682394778,-0.368843663500343,,-5.629580226184798,,
,6443.0,1309.0,7868.0,1460.0,1836.0,2073.0,2801.0,,,,-0.353227493841048,-2.80253960548445,-0.369956529366574,,-5.83339383441208,,
,6447.0,1309.0,7875.0,1459.0,1843.0,2076.0,2804.0,,,,-0.353554163158281,-2.80282837365326,-0.370199734134784,,-6.012127714800851,,
,6446.0,1308.0,7876.0,1460.0,1853.0,2081.0,2806.0,,,,-0.354122345879918,-2.80347615492447,-0.370773920563526,,-6.172225961847906,,
,6446.0,1308.0,7877.0,1459.0,1831.0,2083.0,2811.0,,,,-0.354242637854378,-2.8036289752196,-0.371951560372978,,-6.319554370910445,,
,6447.0,1309.0,7881.0,1460.0,1830.0,2086.0,2832.0,,,,-0.354694156600303,-2.80400013792432,-0.373319429055996,,-6.459098918571508,,
,6450.0,1310.0,7886.0,1462.0,1828.0,2080.0,2849.0,,,,-0.355212374930324,-2.80442544888354,-0.373896426189201,,-6.5947193907829575,,
,6450.0,1310.0,7884.0,1463.0,1836.0,2095.0,2839.0,,,,-0.355584437966574,-2.80475594414144,-0.373968876931867,,-6.728982210637998,,
,6452.0,1311.0,7888.0,1459.0,1834.0,2100.0,2830.0,,,,-0.356228138903488,-2.8051933242225,-0.375585013508473,,-6.86309079808628,,
,6452.0,1314.0,7891.0,1464.0,1824.0,2083.0,2818.0,,,,-0.356293067921872,-2.80552362322084,-0.37617651435048,,-6.996924007565733,,
,6456.0,1311.0,7896.0,1461.0,1829.0,2074.0,2805.0,,,,-0.356927699026963,-2.80603641463665,-0.376741900442796,,-7.129183475660512,,
,6456.0,1312.0,7897.0,1463.0,1839.0,2062.0,2804.0,,,,-0.357275375676916,-2.80617565894928,-0.377444933089777,,-7.257639286301904,,
,6455.0,1311.0,7899.0,1461.0,1835.0,2077.0,2818.0,,,,-0.35764123082512,-2.80662552947769,-0.37833085551834,,-7.379450817473331,,
,6453.0,1310.0,7905.0,1465.0,1856.0,2073.0,2821.0,,,,-0.357848772305327,-2.80678482757395,-0.379310638300037,,-7.4915274155213405,,
,6457.0,1312.0,7904.0,1463.0,1856.0,2059.0,2831.0,,,,-0.358129732302181,-2.80703075558069,-0.380084637130459,,-7.590884221408136,,
,6461.0,1313.0,7907.0,1465.0,1838.0,2061.0,2840.0,,,,-0.358469583236911,-2.80714528168198,-0.380144305810488,,-7.6749451182333965,,
,6460.0,1312.0,7909.0,1464.0,1839.0,2064.0,2846.0,,,,-0.358478669224001,-2.80719704723563,-0.380420938219246,,-7.741749367214148,,
,6458.0,1311.0,7909.0,1464.0,1829.0,2070.0,2824.0,,,,-0.358728031433654,-2.80730224062698,-0.380187483859866,,-7.790030658921334,,
,6464.0,1316.0,7915.0,1466.0,1821.0,2057.0,2808.0,,,,-0.358898433431653,-2.80733749486879,-0.380932160765348,,-7.819154466345491,,
,6463.0,1316.0,7917.0,1465.0,1823.0,2051.0,2810.0,,,,-0.358876353506996,-2.80734311190284,-0.38099415728429,,-7.828918356019953,,
,6463.0,1315.0,7922.0,1467.0,1823.0,2058.0,2818.0,,,,-0.358886498532586,-2.80743000293957,-0.38140830789747,,-7.819237362365562,,
,6463.0,1313.0,7919.0,1465.0,1837.0,2052.0,2819.0,,,,-0.35910015088801,-2.80745618233004,-0.381908874435753,,-7.789750783630814,,
,6467.0,1316.0,7926.0,1467.0,1837.0,2047.0,2828.0,,,,-0.359259755028254,-2.80757164674942,-0.3816260738058,,-7.739396939774948,,
,6467.0,1317.0,7927.0,1469.0,1823.0,2059.0,2808.0,,,,-0.359417112433259,-2.80754071118008,-0.382198551964344,,-7.666008287131038,,
,6468.0,1316.0,7930.0,1468.0,1824.0,2064.0,2806.0,,,,-0.359625250985732,-2.80752143298896,-0.382365291094887,,-7.5659807809890145,,
,6470.0,1315.0,7931.0,1468.0,1849.0,2050.0,2814.0,,,,-0.359759217768533,-2.80779941757006,-0.382279597964887,,-7.434068402363735,,
,6470.0,1317.0,7935.0,1467.0,1834.0,2067.0,2853.0,,,,-0.359899725448842,-2.80788907399704,-0.383203042679407,,-7.263345967735903,,
,6473.0,1318.0,7935.0,1468.0,1820.0,2074.0,2796.0,,,,-0.360184193870097,-2.80805390547115,-0.383554396942064,,-7.0453703528724585,,
,6472.0,1318.0,7936.0,1470.0,1833.0,2061.0,2802.0,,,,-0.360302653701173,-2.80799234132772,-0.384317881476049,,-6.770552320326949,,
,6472.0,1317.0,7939.0,1468.0,1826.0,2069.0,2829.0,,,,-0.36048909733404,-2.80825187696826,-0.384917837232321,,-6.428729609532338,,
,6475.0,1317.0,7940.0,1472.0,1857.0,2038.0,2817.0,,,,-0.36113097491067,-2.80847294306613,-0.386516620865321,,-6.0099092688189755,,
,6477.0,1318.0,7943.0,1473.0,1849.0,2027.0,2786.0,,,,-0.361725957088196,-2.80867131483778,-0.386711343250398,,-5.505126339680454,,
,6477.0,1319.0,7945.0,1469.0,1840.0,2041.0,2787.0,,,,-0.362162738425275,-2.80871051683137,-0.387670991134733,,-4.907349732246381,,
,6476.0,1318.0,7946.0,1470.0,1830.0,2053.0,2800.0,,,,-0.362740631767401,-2.80912681773943,-0.388659915606047,,-4.2123565645092045,,
,6479.0,1316.0,7947.0,1472.0,1848.0,2060.0,2835.0,,,,-0.362854265100623,-2.80928435716837,-0.389189283467096,,-3.4194946739304886,,
,6482.0,1319.0,7952.0,1473.0,1848.0,2059.0,2820.0,,,,-0.363434968597852,-2.80954287216185,-0.389753314400253,,-2.5322599426321784,,
,6483.0,1320.0,7956.0,1474.0,1835.0,2061.0,2830.0,,,,-0.363516519561453,-2.80966657158708,-0.389825896810433,,-1.5586298159325291,,
,6483.0,1322.0,7954.0,1476.0,1841.0,2063.0,2831.0,,,,-0.363545707066365,-2.80967377572356,-0.390343470185356,,-0.5111145780405533,,
,6483.0,1320.0,7959.0,1473.0,1825.0,2056.0,2819.0,,,,-0.363599382777195,-2.80980868181922,-0.391462502970817,,0.5934899654967584,,
,6484.0,1321.0,7960.0,1473.0,1824.0,2069.0,2830.0,,,,-0.363935381950714,-2.80999348966795,-0.392302974429061,,1.734643905645284,,
,6485.0,1323.0,7963.0,1476.0,1828.0,2062.0,2817.0,,,,-0.364334977924146,-2.81011523310131,-0.392692666631512,,2.888876036512971,,
,6489.0,1321.0,7964.0,1477.0,1827.0,2066.0,2808.0,,,,-0.364705091374805,-2.81039519549189,-0.392778129694949,,4.030829339198818,,
,6489.0,1323.0,7967.0,1475.0,1846.0,2074.0,2836.0,,,,-0.364759395312697,-2.81048870747465,-0.393191354647302,,5.134485589886009,,
,6490.0,1321.0,7970.0,1475.0,1842.0,2064.0,2833.0,,,,-0.365207072295776,-2.81075129230299,-0.394304200575121,,6.1745014617006175,,
,6491.0,1323.0,7973.0,1480.0,1834.0,2064.0,2841.0,,,,-0.365338375046292,-2.81078446157483,-0.39455986418884,,7.127576026324423,,
,6493.0,1322.0,7972.0,1478.0,1849.0,2060.0,2838.0,,,,-0.365760221057711,-2.81085292067398,-0.395249049471195,,7.973760388068353,,
,6491.0,1323.0,7969.0,1476.0,1836.0,2063.0,2811.0,,,,-0.366265939311731,-2.81118640716596,-0.39580840585993,,8.697615943643259,,
,6488.0,1319.0,7962.0,1474.0,1843.0,2076.0,2819.0,,,,-0.366621820311808,-2.81135264742816,-0.396215624675251,,9.289129580099765,,
,6486.0,1323.0,7953.0,1476.0,1832.0,2036.0,2806.0,,,,-0.366565175832896,-2.81145477803025,-0.397583587324222,,9.744302760441204,,
,6481.0,1321.0,7941.0,1475.0,1836.0,2043.0,2801.0,,,,-0.367125934614104,-2.81165366371133,-0.398577979896469,,10.065347646418534,,
,6477.0,1320.0,7927.0,1470.0,1821.0,2058.0,2789.0,,,,-0.367388610421269,-2.81188649426743,-0.398506043739252,,10.26044787471258,,
,6474.0,1316.0,7909.0,1467.0,1830.0,2048.0,2810.0,,,,-0.367731034580899,-2.81204408153517,-0.398486123813832,,10.343074406013908,,
,6467.0,1317.0,7895.0,1468.0,1828.0,2052.0,2828.0,,,,-0.36841834312496,-2.81231122872893,-0.400510432748986,,10.330886542270708,,
,6464.0,1315.0,7881.0,1465.0,1851.0,2083.0,2830.0,,,,-0.369038026444979,-2.81272130973616,-0.40110588362057,,10.2442910576027,,
,6455.0,1316.0,7867.0,1463.0,1843.0,2072.0,2824.0,,,,-0.369973444035066,-2.81295049313704,-0.402914108665399,,10.104772563217683,,
,6452.0,1309.0,7857.0,1459.0,1829.0,2082.0,2825.0,,,,-0.370323391597086,-2.81326250417762,-0.402825839189073,,9.933138941151254,,
,6447.0,1309.0,7844.0,1454.0,1849.0,2068.0,2822.0,,,,-0.370501104698273,-2.8136239416205,-0.404609645035521,,9.747841201031877,,
,6443.0,1311.0,7837.0,1456.0,1838.0,2086.0,2830.0,,,,-0.370804067058932,-2.81378552070676,-0.405852769667758,,9.563524431560198,,
,6436.0,1307.0,7825.0,1453.0,1829.0,2077.0,2839.0,,,,-0.371310474369066,-2.81403676032268,-0.406572401710429,,9.389945874353357,,
,6431.0,1307.0,7820.0,1450.0,1831.0,2097.0,2821.0,,,,-0.371769432523874,-2.81426425885724,-0.407412123469589,,9.23136047372729,,
,6430.0,1305.0,7813.0,1449.0,1814.0,2101.0,2809.0,,,,-0.372283739485443,-2.8143442788965,-0.407542416294334,,9.086428183202507,,
,6425.0,1304.0,7809.0,1448.0,1820.0,2078.0,2796.0,,,,-0.372560697241064,-2.81481738292607,-0.408878046517285,,8.94864625464961,,
,6421.0,1306.0,7804.0,1446.0,1839.0,2079.0,2813.0,,,,-0.372608081774521,-2.81465758672732,-0.408317944231371,,8.807259201985163,,
,6419.0,1302.0,7798.0,1448.0,1853.0,2086.0,2811.0,,,,-0.372953046782201,-2.8148519075395,-0.409054253689007,,8.648554162985803,,
,6420.0,1304.0,7799.0,1444.0,1821.0,2075.0,2789.0,,,,-0.373166666312152,-2.81478487598202,-0.410007866331936,,8.457414159871409,,
,6416.0,1302.0,7795.0,1444.0,1835.0,2085.0,2810.0,,,,-0.373176331606225,-2.81484031596808,-0.410458042287892,,8.218979351192399,,
,6416.0,1302.0,7795.0,1445.0,1819.0,2078.0,2785.0,,,,-0.373412474968105,-2.81494913288265,-0.410502206269562,,7.920258597834526,,
,6415.0,1304.0,7798.0,1446.0,1831.0,2066.0,2794.0,,,,-0.373568295555335,-2.81523020762623,-0.410857794947996,,7.551541006577102,,
,6415.0,1303.0,7794.0,1443.0,1815.0,2063.0,2834.0,,,,-0.373633577060607,-2.81501777955172,-0.411201462870337,,7.107478641275567,,
,6413.0,1301.0,7796.0,1444.0,1820.0,2064.0,2813.0,,,,-0.373659326152801,-2.81522078242464,-0.410686057154415,,6.5877451216382426,,
,6409.0,1302.0,7793.0,1444.0,1823.0,2080.0,2798.0,,,,-0.37364021843742,-2.81531443601686,-0.410657872249287,,5.997217219517268,,
,6412.0,1300.0,7797.0,1442.0,1820.0,2075.0,2802.0,,,,-0.373907450914595,-2.81546484577525,-0.411245620853394,,5.345673897969065,,
,6409.0,1302.0,7798.0,1440.0,1811.0,2061.0,2802.0,,,,-0.374061089786339,-2.81553159272551,-0.411288843536976,,4.647054773754117,,
,6409.0,1299.0,7796.0,1445.0,1812.0,2068.0,2834.0,,,,-0.374059287927161,-2.81553400357337,-0.411697786265714,,3.9183622802476403,,
,6411.0,1303.0,7800.0,1443.0,1815.0,2067.0,2828.0,,,,-0.373918426173678,-2.81562195103164,-0.411281349286054,,3.1783236731232227,,
,6409.0,1301.0,7801.0,1441.0,1821.0,2064.0,2825.0,,,,-0.374129850879709,-2.81557094779243,-0.412184948924241,,2.4459469691103783,,
,6412.0,1299.0,7802.0,1441.0,1827.0,2083.0,2814.0,,,,-0.37420991363825,-2.81571262352697,-0.412142349962577,,1.7391079595840604,,
,6412.0,1300.0,7804.0,1442.0,1824.0,2047.0,2827.0,,,,-0.374485275136416,-2.81585040482068,-0.412626041499951,,1.0732946852199958,,
,6410.0,1302.0,7807.0,1440.0,1824.0,2058.0,2803.0,,,,-0.375019661059474,-2.81596546757879,-0.413514427266021,,0.46061344899969137,,
,6413.0,1302.0,7810.0,1443.0,1826.0,2068.0,2807.0,,,,-0.37508094703999,-2.81614736305569,-0.413608342829333,,-0.09087042155028274,,
,6414.0,1301.0,7809.0,1442.0,1825.0,2057.0,2814.0,,,,-0.375448708013607,-2.816363346883,-0.415016564800342,,-0.5774195796416997,,
,6410.0,1299.0,7814.0,1439.0,1833.0,2073.0,2817.0,,,,-0.375646668374679,-2.81651372323213,-0.415561298958024,,-0.999538428652104,,
,6412.0,1300.0,7817.0,1443.0,1838.0,2080.0,2829.0,,,,-0.375806071633244,-2.81660132260618,-0.416843300535778,,-1.361546012761586,,
,6410.0,1302.0,7817.0,1440.0,1833.0,2081.0,2857.0,,,,-0.376527267288578,-2.81678267094053,-0.4170841011677,,-1.6708676603784574,,
,6410.0,1302.0,7820.0,1441.0,1831.0,2085.0,2851.0,,,,-0.376755776709438,-2.81677918165107,-0.417694877658397,,-1.937124519642064,,
,6411.0,1299.0,7818.0,1440.0,1824.0,2085.0,2839.0,,,,-0.377246665465107,-2.81702933276572,-0.418465774235597,,-2.171111408176365,,
,6414.0,1301.0,7819.0,1443.0,1808.0,2087.0,2844.0,,,,-0.377507253321194,-2.81690904299636,-0.418713597650263,,-2.383756750895942,,
,6414.0,1301.0,7820.0,1441.0,1808.0,2063.0,2839.0,,,,-0.377678560178892,-2.81708492022358,-0.419183538013323,,-2.58515430823462,,
,6415.0,1302.0,7822.0,1443.0,1822.0,2061.0,2837.0,,,,-0.377812727371851,-2.81730913284022,-0.418884009149935,,-2.7837454272531326,,
,6413.0,1300.0,7820.0,1443.0,1836.0,2071.0,2818.0,,,,-0.377981463118547,-2.81733239634521,-0.420166591782208,,-2.9857133872878814,,
,6410.0,1299.0,7819.0,1440.0,1818.0,2070.0,2812.0,,,,-0.377849151844488,-2.81737260007796,-0.420060951610845,,-3.1946291733167986,,
,6411.0,1302.0,7819.0,1441.0,1830.0,2073.0,2816.0,,,,-0.377952984669644,-2.81760277301485,-0.420312255921973,,-3.4113623328238174,,
,6411.0,1298.0,7818.0,1442.0,1809.0,2077.0,2811.0,,,,-0.378078286627696,-2.81747830798937,-0.420739525900124,,-3.6342437825181837,,
,6410.0,1298.0,7814.0,1441.0,1817.0,2062.0,2818.0,,,,-0.378297388853245,-2.81751787239867,-0.420500941185075,,-3.859442742427282,,
,6408.0,1298.0,7814.0,1439.0,1810.0,2076.0,2809.0,,,,-0.378384151686599,-2.81752790776454,-0.421483006408004,,-4.0815011985738705,,
,6409.0,1298.0,7814.0,1441.0,1832.0,2053.0,2813.0,,,,-0.378639625672431,-2.81740995752348,-0.422077517241415,,-4.293959579712245,,
,6409.0,1301.0,7816.0,1439.0,1817.0,2072.0,2819.0,,,,-0.37845360553316,-2.81757473556358,-0.421033121647061,,-4.490007531395224,,
,6408.0,1298.0,7813.0,1439.0,1814.0,2073.0,2833.0,,,,-0.378775920378263,-2.81739339353428,-0.421311127623557,,-4.663101859519635,,
,6409.0,1297.0,7815.0,1439.0,1816.0,2062.0,2819.0,,,,-0.37890748443175,-2.81748856056591,-0.421113556751813,,-4.807506429516729,,
,6409.0,1297.0,7815.0,1439.0,1822.0,2068.0,2819.0,,,,-0.37889669565607,-2.81750886572951,-0.422081212153534,,-4.918722809608034,,
,6409.0,1299.0,7817.0,1440.0,1824.0,2057.0,2824.0,,,,-0.378808834399085,-2.81745524617868,-0.422044843537098,,-4.993793667106347,,
,6410.0,1299.0,7820.0,1441.0,1810.0,2057.0,2813.0,,,,-0.37914156528109,-2.8175926429143,-0.422481045330893,,-5.031472330840494,,
,6410.0,1297.0,7821.0,1441.0,1822.0,2068.0,2813.0,,,,-0.379353593880482,-2.81797322202973,-0.422353903275118,,-5.032260995102038,,
,6409.0,1297.0,7824.0,1440.0,1834.0,2065.0,2839.0,,,,-0.379289418079208,-2.81788887178216,-0.422992083658324,,-4.998326519652627,,
,6411.0,1297.0,7824.0,1441.0,1808.0,2088.0,2832.0,,,,-0.379315541747786,-2.81794003451107,-0.42347508821917,,-4.933306868902456,,
,6413.0,1299.0,7827.0,1441.0,1804.0,2088.0,2837.0,,,,-0.379372006980554,-2.81796554408247,-0.42319883146982,,-4.842023689470127,,
,6411.0,1300.0,7828.0,1443.0,1794.0,2090.0,2833.0,,,,-0.37959635771079,-2.81795739243857,-0.423676758775367,,-4.730118511600931,,
,6412.0,1299.0,7833.0,1440.0,1805.0,2065.0,2826.0,,,,-0.379657743267946,-2.81786908592162,-0.423762420734362,,-4.603632743235024,,
,6416.0,1299.0,7836.0,1441.0,1811.0,2060.0,2846.0,,,,-0.379798780670973,-2.81801858488999,-0.424230375136242,,-4.468555730431255,,
,6416.0,1304.0,7840.0,1443.0,1816.0,2069.0,2830.0,,,,-0.37974921283446,-2.81805948755629,-0.424374513613486,,-4.330370650925447,,
,6418.0,1298.0,7844.0,1443.0,1815.0,2070.0,2819.0,,,,-0.379538298262097,-2.81803431663671,-0.423223968527941,,-4.193634005007389,,
,6419.0,1299.0,7845.0,1441.0,1812.0,2069.0,2818.0,,,,-0.379424799210913,-2.81800389286956,-0.423112071066679,,-4.061629302272421,,
,6420.0,1303.0,7850.0,1447.0,1807.0,2074.0,2805.0,,,,-0.379729853503022,-2.81780465090886,-0.423250485308605,,-3.936136881103107,,
2025-07-23 17:21:45,6424.0,1302.0,7857.0,1444.0,1806.0,2091.0,2815.0,,,2025/07/23 05:21:45 PM,-0.37978450453562,-2.81783372063315,-0.42341198877497,,-3.8173569993067957,,
,6426.0,1302.0,7859.0,1444.0,1808.0,2088.0,2821.0,,,,-0.379855075311056,-2.81768486486195,-0.423221407375515,,-3.704010481534249,,
,6424.0,1302.0,7860.0,1444.0,1815.0,2075.0,2841.0,,,,-0.379951222907653,-2.81772764203395,-0.422587894432587,,-3.5936206341292185,,
,6422.0,1302.0,7864.0,1447.0,1808.0,2082.0,2833.0,,,,-0.379512397176903,-2.81775476147646,-0.422787205160438,,-3.482955187851162,,
,6428.0,1302.0,7871.0,1447.0,1797.0,2091.0,2820.0,,,,-0.379383246482175,-2.81769927435847,-0.42255562374531,,-3.368583000258775,,
,6429.0,1304.0,7872.0,1445.0,1803.0,2086.0,2810.0,,,,-0.379342774916928,-2.81759363136681,-0.422403001748786,,-3.2474821552571282,,
,6432.0,1304.0,7876.0,1447.0,1817.0,2076.0,2840.0,,,,-0.378877082792463,-2.81752926959868,-0.421319812751706,,-3.117626980198437,,
,6431.0,1303.0,7879.0,1448.0,1790.0,2083.0,2837.0,,,,-0.378632687780993,-2.81780665634058,-0.421042468393209,,-2.9784821527258036,,
,6435.0,1306.0,7886.0,1449.0,1797.0,2099.0,2831.0,,,,-0.378605355346982,-2.81766518397057,-0.421667049700441,,-2.8313416511497502,,
,6437.0,1306.0,7885.0,1452.0,1805.0,2091.0,2846.0,,,,-0.37843828069672,-2.8174305930024,-0.420640170782069,,-2.6794670196158297,,
,6437.0,1307.0,7891.0,1451.0,1831.0,2094.0,2840.0,,,,-0.378394521429776,-2.8176162037584,-0.421100554219525,,-2.5280009334308384,,
,6437.0,1305.0,7894.0,1451.0,1815.0,2082.0,2826.0,,,,-0.378283079883408,-2.81737822961312,-0.420696741254587,,-2.383655775809281,,
,6442.0,1306.0,7898.0,1451.0,1813.0,2054.0,2823.0,,,,-0.378210060461953,-2.81729038556938,-0.420390781297741,,-2.254200428579294,,
,6441.0,1307.0,7902.0,1452.0,1807.0,2068.0,2856.0,,,,-0.377908435880952,-2.817131738461,-0.419955714548938,,-2.1477898739168593,,
,6442.0,1305.0,7904.0,1454.0,1814.0,2077.0,2842.0,,,,-0.377717556043948,-2.81717673273848,-0.419260614117748,,-2.072200368617802,,
,6446.0,1305.0,7903.0,1453.0,1816.0,2076.0,2822.0,,,,-0.377327511659095,-2.81698777580668,-0.418425797042753,,-2.0340467245681415,,
,6447.0,1306.0,7911.0,1457.0,1812.0,2061.0,2841.0,,,,-0.377241271025759,-2.81691606078418,-0.418232350598655,,-2.0380650341145468,,
,6453.0,1309.0,7915.0,1457.0,1829.0,2074.0,2831.0,,,,-0.376820249076005,-2.81664750727919,-0.417950546396048,,-2.0865400856928065,,
,6451.0,1309.0,7919.0,1457.0,1826.0,2068.0,2828.0,,,,-0.376367568794995,-2.81666131590374,-0.41706093122444,,-2.178939343513259,,
,6452.0,1309.0,7921.0,1457.0,1823.0,2082.0,2811.0,,,,-0.37635169030238,-2.81657906635495,-0.417321837416245,,-2.3117871347832257,,
,6455.0,1308.0,7922.0,1458.0,1819.0,2084.0,2815.0,,,,-0.376201131439813,-2.81655338417879,-0.416472085288684,,-2.4787804456273,,
,6459.0,1311.0,7927.0,1461.0,1810.0,2071.0,2842.0,,,,-0.375923076488889,-2.8164516785652,-0.41564382649306,,-2.6711187910807186,,
,6460.0,1311.0,7931.0,1461.0,1810.0,2080.0,2854.0,,,,-0.375889482614992,-2.81644554326123,-0.416517593800836,,-2.877999185441903,,
,6462.0,1311.0,7932.0,1460.0,1823.0,2079.0,2828.0,,,,-0.375839716515267,-2.81643890745658,-0.416197160895256,,-3.0872141474518027,,
,6460.0,1311.0,7936.0,1461.0,1837.0,2063.0,2822.0,,,,-0.375801564794467,-2.81644754851229,-0.416042150832966,,-3.285785827576263,,
,6463.0,1313.0,7936.0,1460.0,1808.0,2084.0,2804.0,,,,-0.37581766681209,-2.81653183984486,-0.416438045921731,,-3.4605733689310805,,
,6466.0,1313.0,7941.0,1464.0,1815.0,2074.0,2811.0,,,,-0.376056835562287,-2.81651308549099,-0.416074672436453,,-3.598803894507833,,
,6469.0,1311.0,7944.0,1462.0,1835.0,2051.0,2785.0,,,,-0.376223820343173,-2.81659625132591,-0.416760734783106,,-3.688498124620295,,
,6469.0,1315.0,7945.0,1463.0,1826.0,2056.0,2815.0,,,,-0.376223076605165,-2.81649897550333,-0.417102179995968,,-3.718784876671898,,
,6470.0,1315.0,7950.0,1465.0,1816.0,2069.0,2832.0,,,,-0.376233849498636,-2.81664589959188,-0.417282808875428,,-3.680118900770018,,
,6473.0,1316.0,7952.0,1464.0,1811.0,2062.0,2831.0,,,,-0.376407408560059,-2.81674171260576,-0.417007067323753,,-3.564429430777069,,
,6475.0,1317.0,7955.0,1467.0,1807.0,2057.0,2812.0,,,,-0.376573667787819,-2.81663164668947,-0.416379728200529,,-3.365231018565184,,
,6476.0,1314.0,7958.0,1465.0,1812.0,2075.0,2819.0,,,,-0.376021468034093,-2.81659962066037,-0.41757644744071,,-3.0777246295738308,,
,6479.0,1313.0,7961.0,1466.0,1820.0,2068.0,2857.0,,,,-0.376066498300144,-2.81674746722642,-0.417757048740138,,-2.698907919831628,,
,6483.0,1316.0,7965.0,1470.0,1804.0,2082.0,2860.0,,,,-0.376106149197937,-2.81679802317869,-0.417212281201992,,-2.2277020050997955,,
,6481.0,1316.0,7967.0,1468.0,1802.0,2077.0,2859.0,,,,-0.376237872865931,-2.81655235272639,-0.417948111156325,,-1.6650910220181392,,
,6484.0,1316.0,7970.0,1469.0,1821.0,2061.0,2851.0,,,,-0.376157761644081,-2.81669403381141,-0.417711204848487,,-1.0142631965598778,,
,6486.0,1317.0,7972.0,1469.0,1820.0,2067.0,2844.0,,,,-0.376284584426877,-2.81669431460357,-0.417896754817972,,-0.2807395769980801,,
,6489.0,1318.0,7976.0,1473.0,1825.0,2082.0,2841.0,,,,-0.376639191644373,-2.81666896917847,-0.417518182465631,,0.5275213915819496,,
,6487.0,1318.0,7978.0,1471.0,1822.0,2089.0,2847.0,,,,-0.376713760467592,-2.81679480892758,-0.418086892372467,,1.4000512855906848,,
,6487.0,1318.0,7972.0,1471.0,1821.0,2108.0,2828.0,,,,-0.376888397006558,-2.81679639583342,-0.418382044449367,,2.323836822319902,,
,6485.0,1316.0,7961.0,1468.0,1829.0,2089.0,2822.0,,,,-0.376939727088725,-2.81693040557185,-0.418334981418329,,3.2833314009747125,,
,6483.0,1317.0,7953.0,1468.0,1810.0,2068.0,2819.0,,,,-0.377174968076867,-2.81705662951281,-0.419341702059101,,4.260530809078999,,
,6479.0,1314.0,7938.0,1465.0,1812.0,2074.0,2835.0,,,,-0.377361345027861,-2.81703348398857,-0.419551722375138,,5.235143429793256,,
,6473.0,1314.0,7920.0,1465.0,1805.0,2092.0,2827.0,,,,-0.377487097235439,-2.81725586836579,-0.419679157370254,,6.184896247784612,,
,6470.0,1313.0,7906.0,1462.0,1795.0,2089.0,2843.0,,,,-0.377546467770825,-2.81745396720881,-0.420460901440703,,7.086021123135855,,
,6465.0,1310.0,7890.0,1461.0,1790.0,2101.0,2833.0,,,,-0.378102203895538,-2.81757180598634,-0.420905819742912,,7.9139564645336735,,
,6458.0,1311.0,7874.0,1458.0,1802.0,2080.0,2853.0,,,,-0.37814619931455,-2.81768281049234,-0.422056503831721,,8.644276329767703,,
,6454.0,1308.0,7860.0,1454.0,1809.0,2070.0,2851.0,,,,-0.37850539817566,-2.81779447653729,-0.421956744882893,,9.25382487424967,,
,6449.0,1306.0,7846.0,1452.0,1803.0,2060.0,2823.0,,,,-0.378964746653149,-2.81784603625818,-0.42160637870951,,9.72199470188489,,
,6442.0,1306.0,7833.0,1451.0,1811.0,2086.0,2816.0,,,,-0.379039022880213,-2.81790248630199,-0.423001498081913,,10.032050206075969,,
,6434.0,1302.0,7825.0,1448.0,1806.0,2069.0,2827.0,,,,-0.37901057139665,-2.81793651586187,-0.423484778560981,,10.172368793041278,,
,6432.0,1303.0,7817.0,1448.0,1798.0,2081.0,2819.0,,,,-0.379193604759671,-2.81801700933905,-0.423313490924931,,10.137460641866825,,
,6429.0,1301.0,7809.0,1447.0,1790.0,2095.0,2841.0,,,,-0.379363931053356,-2.81798781823763,-0.422988750783312,,9.928636198985958,,
,6425.0,1300.0,7803.0,1442.0,1796.0,2075.0,2835.0,,,,-0.379780421536098,-2.81813726872095,-0.424177972004866,,9.554221252315266,,
,6423.0,1300.0,7797.0,1443.0,1800.0,2084.0,2813.0,,,,-0.37967618405849,-2.81824281104125,-0.423754716613186,,9.029268633844085,,
,6418.0,1301.0,7795.0,1441.0,1811.0,2084.0,2818.0,,,,-0.379733542805255,-2.81824527146598,-0.424404477153859,,8.374774960163045,,
,6417.0,1300.0,7790.0,1438.0,1807.0,2086.0,2853.0,,,,-0.379715155947312,-2.81824986475801,-0.424691156962937,,7.6164690730601565,,
,6411.0,1296.0,7785.0,1437.0,1809.0,2075.0,2843.0,,,,-0.379703058792617,-2.81825937475798,-0.425085484172678,,6.78328522969788,,
,6412.0,1299.0,7785.0,1439.0,1811.0,2085.0,2842.0,,,,-0.380019701390943,-2.81844101044841,-0.424791815593703,,5.905661571507573,,
,6408.0,1296.0,7785.0,1438.0,1798.0,2083.0,2835.0,,,,-0.379978398457131,-2.81836258799963,-0.424862716697196,,5.013811159395641,,
,6407.0,1294.0,7783.0,1437.0,1790.0,2074.0,2841.0,,,,-0.379956323622517,-2.81844239178087,-0.424209490086612,,4.136101737371791,,
,6408.0,1293.0,7784.0,1437.0,1816.0,2074.0,2817.0,,,,-0.379696182946091,-2.81862845811943,-0.424229006953633,,3.297656956021588,,
,6406.0,1296.0,7781.0,1438.0,1804.0,2081.0,2815.0,,,,-0.379786930734888,-2.81837284861615,-0.424250086247766,,2.5192621272292657,,
,6407.0,1294.0,7781.0,1436.0,1807.0,2085.0,2835.0,,,,-0.379711749391326,-2.81832907779371,-0.423810650054794,,1.8166263396260456,,
,6403.0,1297.0,7782.0,1435.0,1810.0,2097.0,2831.0,,,,-0.379631601559115,-2.81819882435432,-0.423889106303464,,1.2000222796569653,,
,6403.0,1294.0,7780.0,1434.0,1805.0,2095.0,2832.0,,,,-0.379321689459635,-2.81804642605992,-0.424830517108907,,0.6742961829928815,,
,6405.0,1294.0,7784.0,1436.0,1821.0,2077.0,2818.0,,,,-0.37901352418937,-2.81801658693472,-0.422291169172276,,0.239213959187684,,
,6404.0,1295.0,7784.0,1433.0,1820.0,2086.0,2808.0,,,,-0.379047236292105,-2.81805319873732,-0.423253642351992,,-0.10991230377365185,,
,6404.0,1294.0,7782.0,1435.0,1811.0,2082.0,2820.0,,,,-0.37894719408924,-2.81799369844096,-0.421500483799069,,-0.3813882194804107,,
,6401.0,1293.0,7783.0,1436.0,1810.0,2094.0,2844.0,,,,-0.379042109747181,-2.81809695677774,-0.422495971927593,,-0.5861689795979492,,
,6401.0,1293.0,7782.0,1431.0,1798.0,2078.0,2836.0,,,,-0.37881971673566,-2.81825305358181,-0.422246080387066,,-0.7368360662925371,,
,6405.0,1295.0,7785.0,1435.0,1821.0,2072.0,2827.0,,,,-0.379272710005888,-2.81819894371608,-0.42328555410304,,-0.8465891106130209,,
,6403.0,1296.0,7790.0,1434.0,1805.0,2075.0,2834.0,,,,-0.379230444966376,-2.81819062455796,-0.422637860839707,,-0.9283131768064256,,
,6402.0,1292.0,7790.0,1434.0,1802.0,2078.0,2830.0,,,,-0.379132970946998,-2.81840461491574,-0.423379753353111,,-0.9937700841696634,,
,6401.0,1293.0,7788.0,1432.0,1796.0,2076.0,2833.0,,,,-0.379123341737608,-2.81825906564704,-0.422371240770797,,-1.052950246319911,,
,6402.0,1291.0,7794.0,1433.0,1804.0,2072.0,2845.0,,,,-0.37959101514146,-2.81830834111536,-0.422697736018092,,-1.1136094974117041,,
,6402.0,1295.0,7796.0,1433.0,1804.0,2060.0,2838.0,,,,-0.379178628352452,-2.81841626715474,-0.423056758483388,,-1.181003771659203,,
,6402.0,1293.0,7795.0,1436.0,1806.0,2053.0,2825.0,,,,-0.379421451808776,-2.81862110977732,-0.423963593939726,,-1.2578235862405376,,
,6401.0,1292.0,7797.0,1433.0,1813.0,2080.0,2833.0,,,,-0.379528336595135,-2.81858019260898,-0.423986869946939,,-1.3443203659414686,,
,6403.0,1292.0,7799.0,1432.0,1785.0,2063.0,2852.0,,,,-0.379485301064842,-2.81876360060112,-0.423022337951801,,-1.4386077936774124,,
,6402.0,1295.0,7799.0,1435.0,1801.0,2051.0,2835.0,,,,-0.379679216681838,-2.81881876964185,-0.423777223784274,,-1.5371130150279284,,
,6405.0,1295.0,7802.0,1437.0,1814.0,2049.0,2852.0,,,,-0.380032761841113,-2.81880830903727,-0.424613969156477,,-1.6351435978240185,,
,6402.0,1293.0,7798.0,1431.0,1821.0,2068.0,2846.0,,,,-0.380223729401176,-2.81891751217956,-0.424982469181273,,-1.7275259242834695,,
,6401.0,1292.0,7798.0,1433.0,1826.0,2086.0,2829.0,,,,-0.380622518321954,-2.81893722231358,-0.42476995432482,,-1.809260126645902,,
,6403.0,1293.0,7800.0,1433.0,1821.0,2080.0,2850.0,,,,-0.380706328729832,-2.81926767949691,-0.425552444652704,,-1.876129053272058,,
,6405.0,1294.0,7802.0,1432.0,1834.0,2063.0,2853.0,,,,-0.381218140571835,-2.81931674490762,-0.425955002973912,,-1.9251984540690856,,
,6405.0,1293.0,7801.0,1433.0,1815.0,2075.0,2848.0,,,,-0.381500994328667,-2.81971655184685,-0.426976529586157,,-1.955155473650504,,
,6401.0,1293.0,7799.0,1431.0,1813.0,2071.0,2849.0,,,,-0.381878140408145,-2.81953909016991,-0.427508145238547,,-1.9664521316630403,,
,6405.0,1295.0,7798.0,1435.0,1807.0,2042.0,2841.0,,,,-0.381933802104301,-2.81964981770442,-0.427223065163247,,-1.9612460808761232,,
,6404.0,1293.0,7800.0,1434.0,1808.0,2067.0,2835.0,,,,-0.382238592091895,-2.81963413623947,-0.427257055263798,,-1.9431573166582,,
,6402.0,1292.0,7801.0,1434.0,1808.0,2055.0,2834.0,,,,-0.382335370223595,-2.81967880623044,-0.428432075233001,,-1.9168814867923725,,
,6401.0,1290.0,7800.0,1431.0,1805.0,2059.0,2829.0,,,,-0.382082190424584,-2.81965547279396,-0.427443452401255,,-1.8877141902319508,,
,6403.0,1293.0,7800.0,1433.0,1805.0,2069.0,2830.0,,,,-0.381822688513544,-2.8196755254056,-0.427460287229406,,-1.8610446303740817,,
,6404.0,1293.0,7804.0,1433.0,1822.0,2075.0,2844.0,,,,-0.382128105396265,-2.81953034591358,-0.427674624097536,,-1.841872236610373,,
,6404.0,1293.0,7802.0,1433.0,1827.0,2065.0,2842.0,,,,-0.381985257543434,-2.81944132509634,-0.427359959399776,,-1.834389246296915,,
,6402.0,1292.0,7804.0,1431.0,1827.0,2057.0,2859.0,,,,-0.382256148267513,-2.81951747655985,-0.428798942277375,,-1.8416591145204833,,
,6402.0,1290.0,7810.0,1430.0,1825.0,2053.0,2843.0,,,,-0.38221365361145,-2.81942149081981,-0.427480139123649,,-1.865407767455573,,
,6403.0,1295.0,7812.0,1433.0,1829.0,2065.0,2848.0,,,,-0.382233686275771,-2.8196113169775,-0.428417975779833,,-1.9059338468787412,,
,6403.0,1292.0,7810.0,1433.0,1820.0,2062.0,2840.0,,,,-0.382408050694721,-2.81961036201646,-0.427962935175773,,-1.9621358260228325,,
,6403.0,1292.0,7815.0,1432.0,1822.0,2054.0,2813.0,,,,-0.382419677895683,-2.81964383185255,-0.428278468910771,,-2.031647878497009,,
,6406.0,1293.0,7820.0,1432.0,1822.0,2056.0,2806.0,,,,-0.38274284586338,-2.81955530420923,-0.428677229746104,,-2.1110716500375357,,
,6408.0,1296.0,7824.0,1435.0,1815.0,2076.0,2850.0,,,,-0.383169662339614,-2.81974640019474,-0.429351704919105,,-2.196286419780624,,
,6410.0,1294.0,7825.0,1435.0,1815.0,2085.0,2838.0,,,,-0.383676982146512,-2.82000538011204,-0.4288336200077,,-2.282814731898162,,
,6410.0,1298.0,7830.0,1436.0,1821.0,2084.0,2818.0,,,,-0.383829298927823,-2.81997104731888,-0.430326018819209,,-2.36621453334968,,
,6411.0,1295.0,7830.0,1437.0,1822.0,2087.0,2806.0,,,,-0.38391468536043,-2.82009786885801,-0.430151408147914,,-2.4424634975089434,,
,6412.0,1297.0,7836.0,1437.0,1813.0,2086.0,2806.0,,,,-0.384277883941399,-2.8202388951015,-0.431022618550745,,-2.5082988043771204,,
,6412.0,1294.0,7840.0,1437.0,1807.0,2101.0,2839.0,,,,-0.384285627593487,-2.82035426937377,-0.429977977511341,,-2.5614782013224455,,
,6414.0,1295.0,7843.0,1435.0,1799.0,2106.0,2841.0,,,,-0.384402627806433,-2.82057512124917,-0.43093882908987,,-2.6009360925928857,,
,6418.0,1296.0,7848.0,1438.0,1812.0,2082.0,2837.0,,,,-0.384320948486954,-2.82039633272464,-0.431580575750662,,-2.626820214698286,,
,6418.0,1297.0,7851.0,1436.0,1820.0,2072.0,2826.0,,,,-0.384460913837617,-2.82024022040556,-0.43141710399437,,-2.640407768382172,,
,6418.0,1297.0,7856.0,1439.0,1805.0,2062.0,2825.0,,,,-0.384300240954431,-2.820338445971,-0.431246017690872,,-2.6439125936990147,,
,6421.0,1299.0,7861.0,1442.0,1804.0,2070.0,2821.0,,,,-0.38467789330912,-2.820422589527,-0.431428757945721,,-2.64020569168445,,
,6421.0,1299.0,7860.0,1442.0,1804.0,2089.0,2816.0,,,,-0.384195134845663,-2.82024671557069,-0.43130014279323,,-2.6324792366907963,,
,6424.0,1299.0,7864.0,1441.0,1812.0,2088.0,2816.0,,,,-0.384536336664406,-2.8204363126453,-0.431533311151342,,-2.623888621876643,,
,6425.0,1299.0,7869.0,1442.0,1811.0,2089.0,2812.0,,,,-0.384545399726545,-2.8203507132082,-0.431176042374624,,-2.6172078304989457,,
,6428.0,1297.0,7874.0,1442.0,1821.0,2068.0,2824.0,,,,-0.385040213127496,-2.82036484408045,-0.431843264342011,,-2.6145308496435935,,
,6428.0,1297.0,7876.0,1442.0,1818.0,2059.0,2827.0,,,,-0.385140581380434,-2.82022304422394,-0.43155397792104,,-2.6170467562859634,,
,6425.0,1297.0,7874.0,1443.0,1798.0,2081.0,2829.0,,,,-0.385352138461456,-2.8202947108296,-0.431634615066437,,-2.624909487350078,,
,6430.0,1302.0,7882.0,1444.0,1801.0,2093.0,2844.0,,,,-0.384736399090446,-2.82036959385527,-0.431255604416745,,-2.6372159036887837,,
,6430.0,1300.0,7885.0,1442.0,1803.0,2089.0,2822.0,,,,-0.385063978880674,-2.8204697481239,-0.432179365810793,,-2.6520978819790004,,
,6432.0,1300.0,7887.0,1445.0,1792.0,2092.0,2826.0,,,,-0.385084537329011,-2.82057809491192,-0.43184675602157,,-2.6669257377820936,,
,6435.0,1301.0,7889.0,1445.0,1791.0,2062.0,2827.0,,,,-0.385483072404959,-2.82067667737185,-0.432433887577566,,-2.678611031706672,,
,6434.0,1302.0,7895.0,1447.0,1811.0,2068.0,2828.0,,,,-0.385325853916766,-2.82052085016241,-0.432337680794468,,-2.6839865084953956,,
,6437.0,1302.0,7898.0,1448.0,1808.0,2089.0,2834.0,,,,-0.385633798078037,-2.82058861858309,-0.433014682934686,,-2.6802296701344237,,
,6439.0,1302.0,7904.0,1449.0,1795.0,2092.0,2839.0,,,,-0.385545153323039,-2.82082443440776,-0.433518211759518,,-2.665285355757381,,
,6441.0,1303.0,7904.0,1447.0,1793.0,2078.0,2847.0,,,,-0.386134975104998,-2.82079681785631,-0.43399425351879,,-2.6382343529090746,,
,6442.0,1301.0,7906.0,1446.0,1798.0,2097.0,2813.0,,,,-0.386282190067315,-2.82089271735225,-0.433411922968316,,-2.5995531842783524,,
2025-07-23 17:21:46,6442.0,1303.0,7910.0,1452.0,1818.0,2087.0,2822.0,,,2025/07/23 05:21:46 PM,-0.386527953498857,-2.82092447305093,-0.433804437574362,,-2.5512174167972734,,
,6447.0,1306.0,7911.0,1452.0,1792.0,2094.0,2822.0,,,,-0.386646763781698,-2.82098246561538,-0.433822960678656,,-2.4966167914196795,,
,6448.0,1302.0,7918.0,1454.0,1801.0,2101.0,2848.0,,,,-0.386740745401262,-2.82127105897292,-0.433575792127283,,-2.44027202593535,,
,6445.0,1303.0,7919.0,1451.0,1811.0,2091.0,2832.0,,,,-0.386509033024793,-2.82117376567136,-0.43381233922134,,-2.38736614390416,,
,6451.0,1307.0,7922.0,1454.0,1817.0,2106.0,2846.0,,,,-0.386448493006631,-2.82113043338959,-0.433443141336442,,-2.3431243036413907,,
,6451.0,1307.0,7929.0,1453.0,1825.0,2092.0,2851.0,,,,-0.386546645479482,-2.82113217099946,-0.434829982081919,,-2.3120935563773286,,
,6454.0,1306.0,7929.0,1455.0,1823.0,2085.0,2843.0,,,,-0.386290266755911,-2.82114381106538,-0.434388240008546,,-2.2973870374607133,,
,6454.0,1305.0,7930.0,1455.0,1818.0,2067.0,2840.0,,,,-0.385812250522643,-2.82107825954065,-0.433191736098112,,-2.2999653529393416,,
,6454.0,1306.0,7933.0,1452.0,1812.0,2081.0,2845.0,,,,-0.386221810995257,-2.82105595607052,-0.43394587927379,,-2.3180308657305426,,
,6458.0,1308.0,7935.0,1457.0,1814.0,2084.0,2825.0,,,,-0.386348480085319,-2.82104811737964,-0.433359615278308,,-2.346607714515813,,
,6462.0,1308.0,7940.0,1458.0,1805.0,2085.0,2826.0,,,,-0.38643871046419,-2.82086821545876,-0.433785631328198,,-2.377371343265348,,
,6463.0,1309.0,7942.0,1458.0,1803.0,2076.0,2852.0,,,,-0.386207711089244,-2.82100318251258,-0.432825194554209,,-2.3987759139940503,,
,6465.0,1310.0,7946.0,1458.0,1817.0,2070.0,2836.0,,,,-0.385896441578048,-2.82094433319069,-0.433217135210716,,-2.3965063527421853,,
,6468.0,1309.0,7950.0,1463.0,1844.0,2046.0,2812.0,,,,-0.385347454784015,-2.82093976584828,-0.432543779373326,,-2.3542544839971553,,
,6468.0,1309.0,7952.0,1462.0,1838.0,2034.0,2820.0,,,,-0.385120103846208,-2.82090469207822,-0.432829637631989,,-2.254786891017016,,
,6471.0,1312.0,7954.0,1461.0,1818.0,2045.0,2815.0,,,,-0.385324980517611,-2.82094506587821,-0.433165586356826,,-2.0812379411660404,,
,6469.0,1309.0,7957.0,1462.0,1817.0,2064.0,2792.0,,,,-0.385543629427766,-2.82096072963835,-0.433140659524718,,-1.8185284961884731,,
,6475.0,1313.0,7962.0,1462.0,1802.0,2072.0,2828.0,,,,-0.385849801053621,-2.82112302067444,-0.433710454928345,,-1.4547846171217984,,
,6477.0,1314.0,7962.0,1465.0,1802.0,2071.0,2837.0,,,,-0.385580793918145,-2.82105460192879,-0.433147495347391,,-0.9826175650817593,,
,6478.0,1314.0,7967.0,1464.0,1804.0,2075.0,2844.0,,,,-0.385467757795587,-2.82122927026328,-0.43255589133016,,-0.40013196547706537,,
,6481.0,1313.0,7969.0,1465.0,1809.0,2083.0,2833.0,,,,-0.38537672850484,-2.82117539477811,-0.43314854578396,,0.2884455244569068,,
,6480.0,1316.0,7974.0,1468.0,1808.0,2077.0,2837.0,,,,-0.385679050459499,-2.821156789601,-0.433240015947737,,1.072583538351618,,
,6484.0,1316.0,7976.0,1467.0,1816.0,2076.0,2862.0,,,,-0.385664010166093,-2.82122000451165,-0.432822789640553,,1.9357273343805628,,
,6486.0,1316.0,7981.0,1467.0,1822.0,2082.0,2844.0,,,,-0.385628961446791,-2.82120200896678,-0.433394516432864,,2.8560156627349387,,
,6489.0,1313.0,7980.0,1465.0,1821.0,2065.0,2813.0,,,,-0.385929776113113,-2.82132935920168,-0.433342213260433,,3.8073672739844864,,
,6489.0,1317.0,7986.0,1468.0,1827.0,2068.0,2841.0,,,,-0.385770381132856,-2.82130450867026,-0.434172597914049,,4.7608463331552295,,
,6491.0,1316.0,7988.0,1470.0,1831.0,2093.0,2845.0,,,,-0.386624556708586,-2.82141824672207,-0.434335311510218,,5.686203847117397,,
,6490.0,1318.0,7988.0,1472.0,1826.0,2090.0,2862.0,,,,-0.386507516910835,-2.82147178993064,-0.43413966067268,,6.553490487293819,,
,6489.0,1316.0,7987.0,1470.0,1811.0,2086.0,2818.0,,,,-0.386600861840549,-2.82150927692459,-0.434292748230687,,7.334641313507728,,
,6492.0,1315.0,7982.0,1468.0,1811.0,2071.0,2843.0,,,,-0.386466064344499,-2.82168547443874,-0.434214702906565,,8.004941053467016,,
,6489.0,1316.0,7973.0,1469.0,1815.0,2059.0,2832.0,,,,-0.386606028067384,-2.82154433361144,-0.434518076898846,,8.544286996873833,,
,6486.0,1315.0,7958.0,1469.0,1809.0,2068.0,2836.0,,,,-0.386773700809744,-2.82167032831704,-0.43472535551066,,8.938174637031098,,
,6480.0,1313.0,7944.0,1465.0,1804.0,2061.0,2813.0,,,,-0.387462804946572,-2.82179814444537,-0.434433834282608,,9.178340924086607,,
,6475.0,1312.0,7922.0,1462.0,1796.0,2075.0,2827.0,,,,-0.387364294674554,-2.8218796379646,-0.435402857781724,,9.2630152732148,,
,6470.0,1311.0,7907.0,1460.0,1817.0,2053.0,2838.0,,,,-0.387741905064778,-2.82210852999449,-0.435530521049311,,9.196753149911634,,
,6464.0,1310.0,7890.0,1460.0,1801.0,2061.0,2855.0,,,,-0.387876547745116,-2.82210608211924,-0.436387175953416,,8.989862026743431,,
,6458.0,1308.0,7876.0,1458.0,1804.0,2070.0,2847.0,,,,-0.388342967862012,-2.82211029398899,-0.437746589514509,,8.65747047508526,,
,6451.0,1304.0,7861.0,1451.0,1813.0,2068.0,2851.0,,,,-0.388431130266855,-2.8223567387872,-0.436612073513351,,8.218329406819565,,
,6448.0,1305.0,7846.0,1450.0,1797.0,2071.0,2807.0,,,,-0.388423462257876,-2.82253166137499,-0.437671412518547,,7.693460833470477,,
,6442.0,1304.0,7836.0,1448.0,1808.0,2080.0,2841.0,,,,-0.388695815283295,-2.82239987366397,-0.438160360832603,,7.104778607113335,,
,6437.0,1304.0,7824.0,1448.0,1800.0,2082.0,2838.0,,,,-0.388929271226535,-2.82249789092557,-0.437543807631376,,6.473797678324089,,
,6431.0,1300.0,7815.0,1443.0,1815.0,2094.0,2844.0,,,,-0.389135994858006,-2.82262041981276,-0.438841232644934,,5.820527979057218,,
,6428.0,1298.0,7808.0,1442.0,1805.0,2098.0,2830.0,,,,-0.389241288584332,-2.82281305788304,-0.439071906698805,,5.1626218701574675,,
,6422.0,1299.0,7801.0,1439.0,1804.0,2072.0,2837.0,,,,-0.389754531003523,-2.82282906981952,-0.439301096950168,,4.514814482896526,,
,6419.0,1298.0,7795.0,1439.0,1799.0,2080.0,2840.0,,,,-0.38962887674981,-2.82294934132857,-0.439389701270964,,3.8886665529133033,,
,6418.0,1299.0,7795.0,1435.0,1819.0,2057.0,2836.0,,,,-0.390014037695437,-2.82309465350284,-0.439258461628827,,3.2925911147930402,,
,6414.0,1296.0,7789.0,1434.0,1799.0,2065.0,2825.0,,,,-0.390122964931358,-2.82301356540295,-0.439746811755217,,2.7321207300099783,,
,6411.0,1296.0,7788.0,1435.0,1800.0,2083.0,2852.0,,,,-0.389877415558545,-2.82319356876748,-0.439763217019151,,2.210353133143263,,
,6410.0,1296.0,7785.0,1436.0,1806.0,2082.0,2845.0,,,,-0.390145465161278,-2.82294550994908,-0.43922219424423,,1.7285022678843405,,
,6409.0,1293.0,7784.0,1434.0,1801.0,2083.0,2803.0,,,,-0.390124271932793,-2.82307625633609,-0.439772437248125,,1.286479477335029,,
,6405.0,1293.0,7783.0,1432.0,1797.0,2072.0,2810.0,,,,-0.389989387584601,-2.82304872645017,-0.438608807122901,,0.8834355485088398,,
,6407.0,1294.0,7779.0,1432.0,1798.0,2090.0,2818.0,,,,-0.389824482856931,-2.82298426301663,-0.439838291608222,,0.5182069259958136,,
,6407.0,1295.0,7784.0,1433.0,1804.0,2093.0,2816.0,,,,-0.389463985495618,-2.82289418440363,-0.43934742050792,,0.18962711310122626,,
,6403.0,1295.0,7780.0,1430.0,1807.0,2091.0,2818.0,,,,-0.389637492495391,-2.82288377446019,-0.43886612318208,,-0.10331446820687222,,
,6400.0,1291.0,7777.0,1429.0,1807.0,2084.0,2827.0,,,,-0.389553562378855,-2.82300577407392,-0.438401841884371,,-0.36146105831227887,,
,6399.0,1292.0,7781.0,1429.0,1813.0,2101.0,2803.0,,,,-0.38914168999965,-2.82291704548723,-0.438505056290526,,-0.5855980318933534,,
,6401.0,1293.0,7780.0,1430.0,1802.0,2113.0,2811.0,,,,-0.389067906572706,-2.82274296165453,-0.437734349040698,,-0.7766404050223016,,
,6400.0,1294.0,7780.0,1430.0,1808.0,2099.0,2821.0,,,,-0.388817657162701,-2.8227332471174,-0.437583721305059,,-0.9358476094296886,,
,6398.0,1291.0,7778.0,1430.0,1817.0,2076.0,2856.0,,,,-0.388621984544394,-2.82265860934453,-0.437035040244289,,-1.0650162965822478,,
,6398.0,1290.0,7776.0,1429.0,1820.0,2058.0,2842.0,,,,-0.388394422591903,-2.82264744946416,-0.437229715279101,,-1.1666112562635162,,
,6398.0,1292.0,7780.0,1429.0,1802.0,2058.0,2825.0,,,,-0.388581181375479,-2.82263245782085,-0.437049636128969,,-1.2438084051660503,,
,6398.0,1291.0,7779.0,1429.0,1803.0,2079.0,2824.0,,,,-0.38828172375692,-2.8223293880594,-0.437366491757331,,-1.3004390219358626,,
,6397.0,1290.0,7779.0,1427.0,1791.0,2088.0,2840.0,,,,-0.388248791548048,-2.82253600552893,-0.43687365787794,,-1.340838767571891,,
,6396.0,1289.0,7779.0,1426.0,1799.0,2086.0,2845.0,,,,-0.387875719396992,-2.82251926638585,-0.435817293362848,,-1.3696172862982177,,
,6395.0,1291.0,7779.0,1429.0,1804.0,2065.0,2859.0,,,,-0.387843803570587,-2.82237950481751,-0.436556139834064,,-1.3913735956343642,,
,6396.0,1292.0,7782.0,1428.0,1813.0,2081.0,2884.0,,,,-0.387774995182163,-2.82253006659538,-0.43610585733092,,-1.4103885882496363,,
,6393.0,1290.0,7781.0,1427.0,1809.0,2079.0,2872.0,,,,-0.387707508648669,-2.82250225014796,-0.436750981721627,,-1.4303286523856942,,
,6395.0,1289.0,7781.0,1426.0,1792.0,2067.0,2823.0,,,,-0.388227397570532,-2.8227702824243,-0.436390643807589,,-1.453993848878308,,
,6396.0,1291.0,7782.0,1426.0,1776.0,2081.0,2837.0,,,,-0.38873947731079,-2.82256613736235,-0.43665837516586,,-1.4831405416033125,,
,6397.0,1290.0,7787.0,1429.0,1788.0,2079.0,2847.0,,,,-0.388318809355904,-2.82273471900964,-0.436458377839562,,-1.51840207578913,,
,6396.0,1289.0,7787.0,1427.0,1782.0,2066.0,2833.0,,,,-0.388264236135374,-2.82262459736479,-0.4365407945888,,-1.5593221531542085,,
,6396.0,1289.0,7787.0,1427.0,1788.0,2066.0,2846.0,,,,-0.388575451747667,-2.82278612538822,-0.436640742298144,,-1.6045040742959302,,
,6395.0,1288.0,7786.0,1426.0,1782.0,2080.0,2845.0,,,,-0.388781058203399,-2.82307763780191,-0.437796799985344,,-1.6518653337875984,,
,6395.0,1289.0,7784.0,1426.0,1774.0,2083.0,2833.0,,,,-0.389099553233534,-2.82308407580728,-0.438056600024516,,-1.698972125056557,,
,6396.0,1290.0,7788.0,1428.0,1803.0,2071.0,2832.0,,,,-0.389201668861823,-2.82317219390349,-0.438353468509287,,-1.7434142231188916,,
,6395.0,1285.0,7785.0,1428.0,1801.0,2081.0,2848.0,,,,-0.389297223969265,-2.82319274683001,-0.438432715746387,,-1.7831707334606,,
,6393.0,1286.0,7785.0,1427.0,1793.0,2083.0,2829.0,,,,-0.389498540537355,-2.82329322088399,-0.438893529493314,,-1.8169147785197628,,
,6394.0,1288.0,7783.0,1426.0,1806.0,2072.0,2836.0,,,,-0.389563529448064,-2.8231965749915,-0.438359305703822,,-1.8442120997212907,,
,6396.0,1289.0,7785.0,1428.0,1810.0,2069.0,2826.0,,,,-0.389885512546089,-2.82345146156117,-0.439229905584166,,-1.8655836749451937,,
,6394.0,1289.0,7785.0,1427.0,1798.0,2033.0,2836.0,,,,-0.390240937567271,-2.82342735693564,-0.440202023640219,,-1.8824225261113139,,
,6392.0,1287.0,7785.0,1425.0,1809.0,2064.0,2841.0,,,,-0.390597400196991,-2.82352717848195,-0.44016343597894,,-1.896776221664903,,
,6393.0,1286.0,7785.0,1426.0,1797.0,2059.0,2814.0,,,,-0.390567241094889,-2.82350805062375,-0.44094068210781,,-1.9110260867204867,,
,6392.0,1288.0,7786.0,1428.0,1803.0,2077.0,2834.0,,,,-0.390880787025025,-2.82344478633713,-0.440578806667268,,-1.9275093026750494,,
,6394.0,1285.0,7789.0,1426.0,1795.0,2088.0,2855.0,,,,-0.390420676914436,-2.8234016307597,-0.440383213776745,,-1.9481385889674738,,
,6390.0,1285.0,7787.0,1424.0,1816.0,2097.0,2847.0,,,,-0.390832462423448,-2.8234245923881,-0.440473534506554,,-1.9740741522055858,,
,6395.0,1289.0,7789.0,1426.0,1815.0,2064.0,2841.0,,,,-0.390469832170679,-2.82327130681865,-0.440717501961917,,-2.005493635051827,,
,6396.0,1286.0,7791.0,1426.0,1811.0,2081.0,2831.0,,,,-0.390495704320429,-2.82328153272854,-0.439821998408048,,-2.0414897540171864,,
,6396.0,1287.0,7797.0,1428.0,1816.0,2076.0,2824.0,,,,-0.390075468290482,-2.82324657722908,-0.4406937113801,,-2.0801061141239754,,
,6395.0,1289.0,7795.0,1426.0,1822.0,2071.0,2847.0,,,,-0.390481951110808,-2.82324743500913,-0.440514104754957,,-2.118503861262832,,
,6397.0,1288.0,7801.0,1425.0,1832.0,2074.0,2831.0,,,,-0.39046731629005,-2.82316093174332,-0.440327630111242,,-2.153238478038297,,
,6396.0,1291.0,7806.0,1427.0,1820.0,2084.0,2806.0,,,,-0.390560730799865,-2.82324984423606,-0.44161986003038,,-2.1806175438420343,,
,6401.0,1290.0,7805.0,1428.0,1813.0,2088.0,2810.0,,,,-0.390792948137404,-2.82323416627038,-0.441425375362121,,-2.197104839729422,,
,6400.0,1289.0,7807.0,1427.0,1797.0,2113.0,2794.0,,,,-0.39086080023479,-2.82344777393235,-0.44094455320935,,-2.1997317702461077,,
,6399.0,1288.0,7812.0,1427.0,1813.0,2077.0,2809.0,,,,-0.391170212069717,-2.82345990531626,-0.441441505324293,,-2.1864736412283916,,
,6402.0,1289.0,7815.0,1429.0,1819.0,2077.0,2815.0,,,,-0.391146126297283,-2.82362986187703,-0.441351331022601,,-2.156548084552839,,
,6402.0,1292.0,7819.0,1428.0,1809.0,2066.0,2828.0,,,,-0.391317035006789,-2.82358576711413,-0.442402976426994,,-2.1105983664395525,,
,6402.0,1289.0,7821.0,1429.0,1807.0,2074.0,2826.0,,,,-0.391820633269098,-2.8236080546441,-0.442625882275792,,-2.050736035991813,,
,6404.0,1288.0,7825.0,1430.0,1810.0,2054.0,2839.0,,,,-0.39164541038671,-2.82376480976844,-0.442593921746195,,-1.9804335585301223,,
,6404.0,1293.0,7830.0,1431.0,1810.0,2068.0,2841.0,,,,-0.392240225397495,-2.82369387930986,-0.442496955562055,,-1.9042751077153552,,
,6410.0,1290.0,7836.0,1431.0,1803.0,2083.0,2846.0,,,,-0.391895284002913,-2.82399446220057,-0.44322250377828,,-1.82758943291791,,
,6409.0,1294.0,7835.0,1431.0,1809.0,2095.0,2842.0,,,,-0.39211023668848,-2.82368031609426,-0.442602894662823,,-1.756000491881851,,
,6408.0,1291.0,7840.0,1431.0,1800.0,2086.0,2836.0,,,,-0.39221046731727,-2.82363014743052,-0.442421445698041,,-1.6949385306365046,,
,6411.0,1290.0,7844.0,1431.0,1798.0,2072.0,2850.0,,,,-0.39208282135458,-2.82355107091911,-0.441148289629302,,-1.6491568672269008,,
,6415.0,1292.0,7849.0,1435.0,1801.0,2062.0,2845.0,,,,-0.391838175179308,-2.8234702244321,-0.44184051275342,,-1.6222987036697316,,
,6416.0,1294.0,7850.0,1435.0,1802.0,2062.0,2840.0,,,,-0.391739278463113,-2.82353456992153,-0.441945843280744,,-1.6165546110980107,,
,6418.0,1292.0,7855.0,1437.0,1823.0,2086.0,2841.0,,,,-0.390697907985153,-2.82339405994252,-0.44189992453199,,-1.632445079642813,,
,6418.0,1292.0,7857.0,1434.0,1809.0,2071.0,2825.0,,,,-0.390974982118188,-2.82329705103314,-0.441421659796453,,-1.6687533222144775,,
,6420.0,1293.0,7861.0,1438.0,1807.0,2072.0,2825.0,,,,-0.390717433101808,-2.82317805658197,-0.440718604748417,,-1.7226209346978376,,
,6424.0,1296.0,7863.0,1438.0,1787.0,2082.0,2819.0,,,,-0.390717944000474,-2.82331062482077,-0.440707572284075,,-1.7898032310535357,,
,6422.0,1295.0,7866.0,1439.0,1781.0,2048.0,2818.0,,,,-0.390643884464662,-2.82317790017212,-0.441222804612359,,-1.865063512855532,,
,6423.0,1294.0,7868.0,1437.0,1792.0,2057.0,2829.0,,,,-0.390757864430587,-2.82335064422518,-0.440989934023847,,-1.942669018434647,,
,6425.0,1296.0,7873.0,1437.0,1786.0,2073.0,2831.0,,,,-0.390740201738435,-2.82335035344634,-0.440187793791936,,-2.0169392347512467,,
,6431.0,1296.0,7877.0,1440.0,1812.0,2070.0,2843.0,,,,-0.391129135077191,-2.82347561754011,-0.441094513095219,,-2.082792037285966,,
,6428.0,1298.0,7880.0,1437.0,1807.0,2076.0,2840.0,,,,-0.391051663654477,-2.82343991152264,-0.441708113765794,,-2.1362349557801714,,
,6429.0,1295.0,7880.0,1439.0,1811.0,2068.0,2802.0,,,,-0.391582611759424,-2.82349937133034,-0.441414668849314,,-2.174756062053716,,
,6435.0,1296.0,7884.0,1442.0,1800.0,2078.0,2824.0,,,,-0.391557314880839,-2.82366050513552,-0.44140489410616,,-2.1975793234949115,,
,6435.0,1299.0,7890.0,1443.0,1802.0,2094.0,2834.0,,,,-0.391786408134867,-2.82363057012886,-0.44205220298493,,-2.205761123160013,,
,6436.0,1298.0,7892.0,1440.0,1801.0,2089.0,2835.0,,,,-0.391847988035971,-2.82361962988778,-0.44190714221048,,-2.202117092054855,,
,6438.0,1298.0,7892.0,1442.0,1795.0,2087.0,2856.0,,,,-0.391929754507079,-2.82376114135304,-0.441722671443782,,-2.1909808312505064,,
,6438.0,1299.0,7898.0,1443.0,1812.0,2076.0,2861.0,,,,-0.39212808467769,-2.82371025703559,-0.441909056186329,,-2.1778080379948825,,
,6441.0,1298.0,7897.0,1444.0,1799.0,2087.0,2852.0,,,,-0.391771301097222,-2.82366948737177,-0.441270144193305,,-2.1686506269892956,,
,6443.0,1302.0,7902.0,1447.0,1787.0,2092.0,2845.0,,,,-0.391710200003537,-2.82377452487537,-0.441998378704684,,-2.169535243565814,,
,6444.0,1301.0,7904.0,1447.0,1797.0,2086.0,2851.0,,,,-0.391842771622546,-2.82370796397002,-0.44190360193452,,-2.1857883718931124,,
,6444.0,1301.0,7907.0,1445.0,1786.0,2068.0,2834.0,,,,-0.391757561597847,-2.82367968112291,-0.441399785175368,,-2.2213550413523744,,
,6449.0,1302.0,7912.0,1446.0,1786.0,2051.0,2830.0,,,,-0.391640088538526,-2.82368354095402,-0.441861105496832,,-2.2781591055052446,,
,6449.0,1304.0,7913.0,1447.0,1793.0,2075.0,2828.0,,,,-0.391007310752661,-2.82349882328151,-0.440172529400804,,-2.3555502622907474,,
,6453.0,1302.0,7917.0,1450.0,1804.0,2085.0,2831.0,,,,-0.390931770583913,-2.82336673947551,-0.44114311392895,,-2.449877800304031,,
,6452.0,1303.0,7921.0,1450.0,1805.0,2070.0,2837.0,,,,-0.39079616064444,-2.82344026631154,-0.440669112448941,,-2.5542258259251183,,
2025-07-23 17:21:47,6454.0,1301.0,7923.0,1448.0,1778.0,2079.0,2834.0,,,2025/07/23 05:21:47 PM,-0.390663990402098,-2.82347792784608,-0.44011785402199,,-2.6583412184127626,,
,6456.0,1305.0,7925.0,1450.0,1797.0,2068.0,2827.0,,,,-0.390516965241174,-2.82328872807908,-0.439596296484499,,-2.748783467559133,,
,6457.0,1305.0,7928.0,1452.0,1808.0,2057.0,2823.0,,,,-0.390185842399014,-2.82338083964796,-0.439146208383211,,-2.809322405045933,,
,6457.0,1305.0,7932.0,1452.0,1813.0,2074.0,2840.0,,,,-0.390040116263802,-2.82302413438818,-0.43958028971846,,-2.821602437234712,,
,6460.0,1303.0,7935.0,1454.0,1813.0,2072.0,2816.0,,,,-0.389642468898094,-2.82311390359416,-0.438662250603668,,-2.7660778763202774,,
,6466.0,1306.0,7940.0,1453.0,1804.0,2071.0,2819.0,,,,-0.389904495711496,-2.82318386953343,-0.438666729851536,,-2.623202670007905,,
,6465.0,1308.0,7943.0,1455.0,1805.0,2073.0,2818.0,,,,-0.390063391587502,-2.82311487176809,-0.438690011107666,,-2.374830364329459,,
,6466.0,1307.0,7943.0,1456.0,1814.0,2061.0,2817.0,,,,-0.390004872225096,-2.82308928900304,-0.438379137741938,,-2.005749305295845,,
,6466.0,1307.0,7949.0,1458.0,1797.0,2064.0,2828.0,,,,-0.389335384729925,-2.823082287288,-0.438183535031863,,-1.5052481067915766,,
,6472.0,1309.0,7953.0,1460.0,1813.0,2055.0,2829.0,,,,-0.38902880756828,-2.82299922629643,-0.43819362333163,,-0.8685823026182431,,
,6474.0,1311.0,7953.0,1459.0,1792.0,2070.0,2826.0,,,,-0.38914421024356,-2.82294865698702,-0.438537214140652,,-0.09819979774281037,,
,6475.0,1310.0,7956.0,1460.0,1786.0,2078.0,2828.0,,,,-0.388737416106308,-2.82280446227578,-0.437537971456312,,0.7954158956476058,,
,6475.0,1311.0,7960.0,1458.0,1797.0,2088.0,2828.0,,,,-0.388382177692394,-2.82262941783086,-0.436396846378221,,1.7934078126597595,,
,6479.0,1315.0,7964.0,1460.0,1799.0,2095.0,2833.0,,,,-0.387952185480953,-2.82267645533859,-0.436452180097613,,2.8688028795045573,,
,6481.0,1312.0,7964.0,1460.0,1811.0,2073.0,2842.0,,,,-0.387341108443121,-2.82264778384947,-0.435433166246508,,3.987408563219181,,
,6483.0,1314.0,7970.0,1462.0,1807.0,2074.0,2845.0,,,,-0.387199877224092,-2.82247324954991,-0.434919148479938,,5.109339061424802,,
,6483.0,1312.0,7971.0,1461.0,1823.0,2075.0,2845.0,,,,-0.386810052619674,-2.82223316706034,-0.434989427840773,,6.191103264261838,,
,6485.0,1312.0,7976.0,1463.0,1824.0,2112.0,2854.0,,,,-0.386239637906548,-2.82204573846542,-0.434019063850992,,7.1881292155684005,,
,6486.0,1315.0,7977.0,1467.0,1829.0,2091.0,2840.0,,,,-0.386086433521418,-2.82204761388348,-0.434100662564472,,8.057548596663597,,
,6487.0,1317.0,7971.0,1463.0,1819.0,2085.0,2833.0,,,,-0.385389889978527,-2.82183395088655,-0.433615723063871,,8.761026121277238,,
,6484.0,1312.0,7967.0,1462.0,1818.0,2074.0,2807.0,,,,-0.385011739738467,-2.82189406201595,-0.432586084269374,,9.267398036810977,,
,6479.0,1313.0,7955.0,1461.0,1803.0,2061.0,2808.0,,,,-0.38449756629908,-2.8215389511645,-0.432786904666602,,9.554885065956144,,
,6478.0,1309.0,7942.0,1461.0,1805.0,2068.0,2818.0,,,,-0.384261037208362,-2.82143218561563,-0.431081135844618,,9.612670528515363,,
,6474.0,1309.0,7925.0,1458.0,1803.0,2072.0,2821.0,,,,-0.383586621749739,-2.82121478826878,-0.430695703289046,,9.441684594671026,,
,6468.0,1307.0,7909.0,1456.0,1804.0,2082.0,2815.0,,,,-0.383279931072808,-2.82101959860607,-0.430570161475682,,9.054508005246355,,
,6463.0,1305.0,7890.0,1453.0,1800.0,2064.0,2828.0,,,,-0.38296675475669,-2.82089584837406,-0.429132408762195,,8.474395968361137,,
,6459.0,1305.0,7874.0,1453.0,1791.0,2087.0,2825.0,,,,-0.382624416465219,-2.82078838056032,-0.428166096563829,,7.7335134687771445,,
,6453.0,1308.0,7860.0,1452.0,1796.0,2071.0,2815.0,,,,-0.382028058622541,-2.82061309817763,-0.428638551628025,,6.8705526955629885,,
,6449.0,1305.0,7843.0,1447.0,1802.0,2062.0,2821.0,,,,-0.381397317358421,-2.82043860540886,-0.42735986325137,,5.927959392299054,,
,6442.0,1299.0,7831.0,1443.0,1805.0,2066.0,2842.0,,,,-0.381254026391093,-2.82031468106744,-0.427222910173623,,4.9490212326400185,,
,6437.0,1299.0,7822.0,1443.0,1806.0,2064.0,2849.0,,,,-0.380620235967192,-2.82013225986523,-0.426398407402572,,3.97506824591269,,
,6434.0,1299.0,7810.0,1441.0,1819.0,2054.0,2831.0,,,,-0.379879681506084,-2.8197079053544,-0.424811286622215,,3.043007658689918,,
,6427.0,1299.0,7804.0,1439.0,1817.0,2062.0,2831.0,,,,-0.37939991339017,-2.81956719325751,-0.424349615231924,,2.183369252383914,,
,6425.0,1296.0,7797.0,1436.0,1811.0,2078.0,2833.0,,,,-0.379214964860266,-2.81936321001734,-0.423645914143368,,1.4189784374213348,,
,6421.0,1293.0,7788.0,1434.0,1804.0,2084.0,2833.0,,,,-0.378491291351942,-2.81899947290979,-0.422901381055931,,0.7643091982072826,,
,6418.0,1296.0,7785.0,1436.0,1802.0,2087.0,2852.0,,,,-0.378164712519531,-2.81889158029975,-0.422985914087357,,0.22550501458655792,,
,6416.0,1295.0,7781.0,1433.0,1810.0,2088.0,2841.0,,,,-0.377662811618375,-2.81869071786513,-0.420456464284739,,-0.19900040686329062,,
,6410.0,1295.0,7779.0,1434.0,1815.0,2082.0,2831.0,,,,-0.377292181154379,-2.81858100731172,-0.41946740256658,,-0.517374188945504,,
,6409.0,1292.0,7775.0,1430.0,1809.0,2111.0,2831.0,,,,-0.377113548318308,-2.81837477726741,-0.41994696388036,,-0.7429266658663394,,
,6409.0,1291.0,7774.0,1429.0,1812.0,2113.0,2844.0,,,,-0.376676481468056,-2.81824301108448,-0.418373916717151,,-0.8924567355862517,,
,6409.0,1292.0,7773.0,1428.0,1794.0,2089.0,2842.0,,,,-0.376358482113961,-2.818027192046,-0.417872859260903,,-0.9845494935813849,,
,6405.0,1291.0,7773.0,1430.0,1800.0,2098.0,2825.0,,,,-0.376049019742479,-2.81783568543766,-0.417307906237744,,-1.0379612290427918,,
,6405.0,1292.0,7772.0,1427.0,1818.0,2069.0,2811.0,,,,-0.375875352454788,-2.81773335893809,-0.417090512232714,,-1.0702039223647632,,
,6402.0,1290.0,7772.0,1426.0,1806.0,2064.0,2816.0,,,,-0.375401591718793,-2.81734388933865,-0.416269352293517,,-1.0964130831710315,,
,6402.0,1290.0,7772.0,1427.0,1808.0,2073.0,2831.0,,,,-0.374896418659557,-2.817112408709,-0.415029541790734,,-1.1285521971070531,,
,6400.0,1290.0,7770.0,1427.0,1807.0,2064.0,2826.0,,,,-0.37448887166855,-2.81686606529197,-0.415518075357244,,-1.174976694873769,,
,6401.0,1288.0,7770.0,1428.0,1808.0,2098.0,2822.0,,,,-0.374288534245881,-2.81662801678677,-0.413478780626356,,-1.240351931718597,,
,6399.0,1287.0,7768.0,1425.0,1797.0,2071.0,2829.0,,,,-0.373748459548408,-2.8163416497441,-0.413274402302646,,-1.3258941245004627,,
,6400.0,1290.0,7772.0,1425.0,1817.0,2082.0,2838.0,,,,-0.373306933501418,-2.81636799519507,-0.412028952836363,,-1.4298809933214072,,
,6400.0,1290.0,7768.0,1422.0,1811.0,2086.0,2858.0,,,,-0.372648383009014,-2.8160195375141,-0.410832501504774,,-1.5483604843817962,,
,6398.0,1290.0,7770.0,1423.0,1792.0,2088.0,2853.0,,,,-0.372327793472099,-2.81573296689797,-0.409591866651997,,-1.6759726319410282,,
,6397.0,1289.0,7770.0,1424.0,1794.0,2070.0,2834.0,,,,-0.371821669462865,-2.81545190783402,-0.40782526009313,,-1.8067936240259896,,
,6395.0,1288.0,7772.0,1424.0,1808.0,2067.0,2863.0,,,,-0.370822926224566,-2.81511068453773,-0.406448604170217,,-1.9351148783781982,,
,6399.0,1290.0,7775.0,1426.0,1802.0,2055.0,2857.0,,,,-0.369858274834964,-2.81466791292245,-0.40597396922416,,-2.0560840418971003,,
,6398.0,1290.0,7777.0,1426.0,1803.0,2057.0,2857.0,,,,-0.369294263211695,-2.8143635372489,-0.40423295676051,,-2.1661570517359565,,
,6395.0,1288.0,7774.0,1425.0,1814.0,2068.0,2843.0,,,,-0.369180888114251,-2.8138485594186,-0.403600838055238,,-2.2633365378767794,,
,6398.0,1289.0,7775.0,1423.0,1802.0,2064.0,2833.0,,,,-0.368565885811842,-2.81357087244444,-0.402004610704346,,-2.34719766588785,,
,6400.0,1292.0,7780.0,1425.0,1820.0,2062.0,2836.0,,,,-0.368019323795083,-2.81339056527616,-0.401346391553571,,-2.4187249609082873,,
,6397.0,1290.0,7780.0,1424.0,1822.0,2058.0,2839.0,,,,-0.367239358427365,-2.81333145348583,-0.399932937635838,,-2.4800009144951383,,
,6396.0,1290.0,7783.0,1425.0,1810.0,2076.0,2833.0,,,,-0.366809026108253,-2.81302897551255,-0.400141546583012,,-2.5337982545318853,,
,6397.0,1289.0,7784.0,1427.0,1814.0,2080.0,2844.0,,,,-0.36676648155889,-2.81305586846799,-0.400419245003432,,-2.583132280861478,,
,6399.0,1288.0,7783.0,1425.0,1808.0,2086.0,2839.0,,,,-0.366571877835298,-2.8128825420769,-0.39876711233233,,-2.6308280576815704,,
,6399.0,1291.0,7783.0,1427.0,1814.0,2085.0,2817.0,,,,-0.366452614429474,-2.81281530159563,-0.398996384228175,,-2.6791507085381716,,
,6396.0,1289.0,7783.0,1425.0,1798.0,2075.0,2832.0,,,,-0.366234708574703,-2.81265888118848,-0.398216102728949,,-2.7295370979156828,,
,6398.0,1289.0,7784.0,1425.0,1796.0,2082.0,2845.0,,,,-0.365855062537247,-2.81239794474632,-0.398423106389123,,-2.7824551067734076,,
,6398.0,1289.0,7785.0,1425.0,1787.0,2077.0,2856.0,,,,-0.365535352389514,-2.81247566448263,-0.397754254692744,,-2.837403378806795,,
,6398.0,1288.0,7784.0,1425.0,1790.0,2077.0,2827.0,,,,-0.365688667275711,-2.8123585367018,-0.396510691336789,,-2.893050306791865,,
,6397.0,1288.0,7785.0,1425.0,1800.0,2060.0,2819.0,,,,-0.365822017407391,-2.81227292662004,-0.397865755278915,,-2.9474964296591195,,
,6395.0,1290.0,7782.0,1426.0,1805.0,2054.0,2820.0,,,,-0.366031050670959,-2.81238361626674,-0.396834579241189,,-2.9986297069426113,,
,6398.0,1290.0,7787.0,1425.0,1785.0,2059.0,2847.0,,,,-0.365443802039069,-2.81225945807048,-0.397708496494802,,-3.044529244408395,,
,6397.0,1289.0,7783.0,1424.0,1798.0,2083.0,2849.0,,,,-0.365483897185779,-2.81231931245213,-0.397259259411755,,-3.083861902739489,,
,6395.0,1289.0,7783.0,1425.0,1807.0,2080.0,2848.0,,,,-0.365481934211088,-2.81225842162432,-0.396539263377206,,-3.1162108435386116,,
,6394.0,1286.0,7784.0,1422.0,1823.0,2053.0,2835.0,,,,-0.365332006713174,-2.81230156919851,-0.397341728850031,,-3.1422784383495124,,
,6397.0,1288.0,7785.0,1425.0,1825.0,2056.0,2817.0,,,,-0.365040088473639,-2.81200702249708,-0.396749131589221,,-3.163919103184665,,
,6398.0,1291.0,7789.0,1425.0,1810.0,2057.0,2836.0,,,,-0.364843571501082,-2.81203939093221,-0.396126759677058,,-3.1839785092583,,
,6398.0,1288.0,7789.0,1423.0,1813.0,2069.0,2821.0,,,,-0.364295794452977,-2.81182685743327,-0.396184098404532,,-3.2059401762586255,,
,6397.0,1288.0,7791.0,1424.0,1819.0,2063.0,2820.0,,,,-0.364244816955866,-2.8116781429047,-0.395618155007734,,-3.233404523413577,,
,6401.0,1289.0,7794.0,1424.0,1809.0,2074.0,2821.0,,,,-0.363976893346391,-2.8114351323764,-0.395571842043938,,-3.2694461213231607,,
,6400.0,1289.0,7797.0,1424.0,1804.0,2073.0,2840.0,,,,-0.363876976758866,-2.81132098165281,-0.394349345302089,,-3.3159105694456157,,
,6399.0,1291.0,7799.0,1425.0,1805.0,2076.0,2855.0,,,,-0.36344493457106,-2.81140151070857,-0.392734788279198,,-3.3727223758334897,,
,6401.0,1291.0,7800.0,1424.0,1814.0,2074.0,2843.0,,,,-0.362969555365874,-2.81114948504275,-0.392861540692087,,-3.4372791373442237,,
,6399.0,1290.0,7804.0,1424.0,1801.0,2056.0,2834.0,,,,-0.362457868337963,-2.81089305390254,-0.392167705201606,,-3.5040051716414577,,
,6404.0,1290.0,7807.0,1426.0,1805.0,2077.0,2822.0,,,,-0.362256658076036,-2.8107115627979,-0.391455530273327,,-3.564129643762355,,
,6407.0,1291.0,7814.0,1427.0,1809.0,2080.0,2816.0,,,,-0.36199286544619,-2.81042611468486,-0.391028583535442,,-3.6057403664280656,,
,6407.0,1292.0,7813.0,1426.0,1805.0,2087.0,2814.0,,,,-0.361318158573454,-2.81010335350761,-0.390156489566469,,-3.6141452423006384,,
,6406.0,1289.0,7818.0,1426.0,1807.0,2089.0,2822.0,,,,-0.360978376945565,-2.81000006387881,-0.389441283270254,,-3.5725495377773173,,
,6409.0,1292.0,7822.0,1429.0,1793.0,2076.0,2824.0,,,,-0.360720971214095,-2.8097472624566,-0.388301409831034,,-3.4630300545257517,,
,6410.0,1292.0,7828.0,1431.0,1804.0,2081.0,2826.0,,,,-0.360343313205552,-2.80967006440351,-0.388482047425316,,-3.2677584229060193,,
,6412.0,1295.0,7834.0,1429.0,1816.0,2087.0,2835.0,,,,-0.360397434757483,-2.80948352929034,-0.387875655497583,,-2.9703972504299054,,
,6412.0,1292.0,7837.0,1430.0,1818.0,2077.0,2844.0,,,,-0.36020711194056,-2.80940701545092,-0.38713833085715,,-2.5575674523061203,,
,6412.0,1290.0,7842.0,1430.0,1809.0,2088.0,2860.0,,,,-0.359913550733157,-2.80935452337508,-0.387261998284091,,-2.020266376271384,,
,6415.0,1295.0,7846.0,1432.0,1801.0,2084.0,2842.0,,,,-0.359862350607554,-2.80926596348053,-0.386382514084142,,-1.3551085120733655,,
,6418.0,1293.0,7849.0,1433.0,1805.0,2079.0,2835.0,,,,-0.359307834165437,-2.80918481108179,-0.386142188116569,,-0.5652670976479987,,
,6419.0,1294.0,7850.0,1431.0,1802.0,2088.0,2829.0,,,,-0.359210971634201,-2.80893089722246,-0.385246080425139,,0.33898363579835195,,
,6420.0,1293.0,7855.0,1433.0,1797.0,2078.0,2839.0,,,,-0.358973766814702,-2.80877581980682,-0.384605620089309,,1.340192913219131,,
,6422.0,1292.0,7859.0,1435.0,1814.0,2078.0,2844.0,,,,-0.358537420028889,-2.80849380875786,-0.384362025869597,,2.414153438071945,,
,6424.0,1298.0,7864.0,1434.0,1820.0,2073.0,2833.0,,,,-0.358015778659235,-2.80825502199525,-0.383281070221119,,3.530807495034446,,
,6427.0,1296.0,7863.0,1435.0,1816.0,2076.0,2838.0,,,,-0.357585639658041,-2.80808155073714,-0.382235109320369,,4.6555946378873125,,
,6427.0,1295.0,7868.0,1435.0,1820.0,2080.0,2848.0,,,,-0.357316869235113,-2.80780717369942,-0.381633325056941,,5.751165825975084,,
,6427.0,1300.0,7875.0,1436.0,1807.0,2074.0,2835.0,,,,-0.356697776056482,-2.8074816730905,-0.380515515162737,,6.779362618690143,,
,6431.0,1297.0,7876.0,1438.0,1822.0,2092.0,2840.0,,,,-0.356177367215691,-2.80720928669028,-0.379253685177444,,7.703338447698113,,
,6432.0,1299.0,7879.0,1438.0,1823.0,2082.0,2839.0,,,,-0.355475945918982,-2.80698386559635,-0.379172440057946,,8.489682978104243,,
,6433.0,1296.0,7882.0,1438.0,1814.0,2060.0,2834.0,,,,-0.355441128313434,-2.80688035856797,-0.377527418112399,,9.1104015792513,,
,6436.0,1302.0,7885.0,1440.0,1810.0,2061.0,2851.0,,,,-0.355225291818458,-2.80656687040889,-0.376093360803165,,9.544601843812204,,
,6435.0,1297.0,7891.0,1439.0,1811.0,2059.0,2840.0,,,,-0.354674855053641,-2.80646126718595,-0.376599325938363,,9.779750218957783,,
,6440.0,1298.0,7891.0,1443.0,1814.0,2067.0,2845.0,,,,-0.35472962809104,-2.80616820690138,-0.376624054428702,,9.812386317170972,,
