TimeLabel,MEAS1_PPG1,MEAS1_PPG2,MEAS1_PPG3,MEAS1_PPG4,ACCX,ACCY,ACCZ,HR_timestamp,HR_value,radar_timestamp,phase_rx0,phase_rx1,phase_rx2,timestep,n_process,original_rate,calculated_rate
2025-08-05 16:12:26,7244.0,828.0,5228.0,1023.0,-345.0,1493.0,3634.0,2025-08-05 16:13:00,82.0,2025/08/05 04:12:26 PM,0.033204042432138,-2.07551652134699,0.0412162469097356,2025/08/05 04:12:26 PM,-2.19929977598431,19.636363983154297,20.786716206061616
,7243.0,825.0,5228.0,1023.0,-330.0,1503.0,3640.0,2025-08-05 16:13:01,82.0,,0.0331831905069492,-2.07486046962252,0.0413061830806632,2025/08/05 04:12:36 PM,-2.2602070657280176,20.19446563720703,20.49102177022088
,7241.0,821.0,5226.0,1022.0,-336.0,1498.0,3654.0,2025-08-05 16:13:02,81.0,,0.0332758575449004,-2.07519883042692,0.0416349437106967,2025/08/05 04:12:46 PM,-2.3177995171792745,20.44989776611328,19.099016619886854
,7244.0,827.0,5226.0,1022.0,-325.0,1498.0,3658.0,2025-08-05 16:13:03,81.0,,0.0332416506790775,-2.07514595218381,0.0413381279049382,2025/08/05 04:12:56 PM,-2.3683264741556815,20.463848114013672,19.963288272833314
,7240.0,824.0,5225.0,1024.0,-336.0,1497.0,3638.0,2025-08-05 16:13:04,81.0,,0.0332814308199522,-2.07480921284978,0.0413834232210245,2025/08/05 04:13:06 PM,-2.4073845703250627,19.78022003173828,18.28619909502262
,7240.0,823.0,5224.0,1022.0,-330.0,1496.0,3638.0,2025-08-05 16:13:05,81.0,,0.0332937224069251,-2.07478302730135,0.0414381236963598,2025/08/05 04:13:16 PM,-2.430061908761993,19.24447631835937,18.190045248868792
,7237.0,821.0,5218.0,1020.0,-324.0,1500.0,3642.0,2025-08-05 16:13:06,82.0,,0.0332283548431284,-2.07522758057632,0.0412279690520517,2025/08/05 04:13:26 PM,-2.431101491549166,19.032514572143555,19.490884219975634
,7240.0,825.0,5222.0,1023.0,-333.0,1493.0,3655.0,2025-08-05 16:13:07,82.0,,0.0332399873308042,-2.07521378527209,0.0410505889770549,2025/08/05 04:13:36 PM,-2.4050950009972487,18.90756225585937,20.479895208986594
,7241.0,823.0,5222.0,1022.0,-334.0,1496.0,3640.0,2025-08-05 16:13:08,82.0,,0.0332985718328224,-2.07526463992732,0.0414166801767043,2025/08/05 04:13:46 PM,-2.3467146898999323,19.313304901123047,19.81123714994684
,7241.0,825.0,5221.0,1021.0,-337.0,1496.0,3636.0,2025-08-05 16:13:09,82.0,,0.0333131319069255,-2.0753056389448,0.0414061801114443,2025/08/05 04:13:56 PM,-2.2509846725214993,19.72242546081543,20.706075533661735
,7241.0,822.0,5218.0,1020.0,-334.0,1494.0,3643.0,2025-08-05 16:13:10,82.0,,0.033254661725568,-2.07505896286238,0.041475968539242,2025/08/05 04:14:06 PM,-2.1135848627176563,20.3389835357666,19.894415115309783
,7240.0,824.0,5218.0,1021.0,-324.0,1496.0,3627.0,2025-08-05 16:13:11,82.0,,0.033239709983953,-2.07539202843165,0.0413841466972108,2025/08/05 04:14:16 PM,-1.9311730131803808,20.16430282592773,22.111111111111157
,7242.0,823.0,5221.0,1024.0,-322.0,1506.0,3633.0,2025-08-05 16:13:12,83.0,,0.0332601122451534,-2.07557392824726,0.0413641865264467,2025/08/05 04:14:26 PM,-1.7017043580136548,21.023124694824215,20.835945663531856
,7243.0,823.0,5221.0,1024.0,-314.0,1508.0,3650.0,2025-08-05 16:13:13,83.0,,0.0332007772347323,-2.07581587792622,0.0414546748321798,2025/08/05 04:14:36 PM,-1.4247250457064495,21.037868499755856,20.694939570472126
,7246.0,823.0,5223.0,1022.0,-318.0,1500.0,3645.0,2025-08-05 16:13:14,83.0,,0.0332151016307704,-2.07586892190472,0.0413105166745008,2025/08/05 04:14:46 PM,-1.101614811669439,21.44388771057129,21.962754226905204
,7244.0,824.0,5221.0,1022.0,-335.0,1486.0,3638.0,2025-08-05 16:13:15,84.0,,0.0332871752162497,-2.07629998986874,0.0413866366759675,2025/08/05 04:14:56 PM,-0.7357558161370468,21.00840377807617,21.09703208749816
,7249.0,824.0,5222.0,1023.0,-350.0,1495.0,3632.0,2025-08-05 16:13:16,84.0,,0.0333049838866857,-2.07586730155116,0.0411589061023044,2025/08/05 04:15:06 PM,-0.3326081837802458,21.18644142150879,22.034646364338506
,7248.0,827.0,5227.0,1026.0,-350.0,1496.0,3626.0,2025-08-05 16:13:17,84.0,,0.0332118794714691,-2.07594460654005,0.0410250049005321,2025/08/05 04:15:16 PM,0.10032145871312316,21.582733154296875,22.835164835164893
,7252.0,824.0,5227.0,1025.0,-343.0,1500.0,3636.0,2025-08-05 16:13:18,84.0,,0.0332222572032607,-2.07640216212699,0.0412934706272133,,0.5536248849775891,,
,7251.0,824.0,5229.0,1027.0,-331.0,1505.0,3633.0,2025-08-05 16:13:19,84.0,,0.0332724185146278,-2.07594981050881,0.0411475283279753,,1.0162496778524546,,
,7254.0,826.0,5229.0,1026.0,-328.0,1500.0,3623.0,2025-08-05 16:13:20,84.0,,0.0331982207812223,-2.07567537090185,0.0408165364469162,,1.4758619333043728,,
,7256.0,827.0,5231.0,1027.0,-333.0,1492.0,3622.0,2025-08-05 16:13:21,84.0,,0.0332537489335422,-2.07555151602184,0.0410227671249558,,1.9193019890891971,,
,7259.0,827.0,5231.0,1027.0,-335.0,1495.0,3630.0,2025-08-05 16:13:22,83.0,,0.0331209198869402,-2.07573714431034,0.0411901711369193,,2.3331163053484976,,
,7260.0,824.0,5232.0,1029.0,-320.0,1500.0,3640.0,2025-08-05 16:13:23,83.0,,0.0331474225402866,-2.0754079262866,0.0412357362484295,,2.7041436514900608,,
,7267.0,828.0,5236.0,1027.0,-321.0,1503.0,3652.0,2025-08-05 16:13:24,83.0,,0.0332696788792053,-2.0753155388282,0.0411346508308202,,3.0201281479632907,,
,7268.0,825.0,5237.0,1030.0,-328.0,1501.0,3651.0,2025-08-05 16:13:25,83.0,,0.0332566700996747,-2.07609476095496,0.0411043740287928,,3.270325991290626,,
,7270.0,827.0,5239.0,1030.0,-330.0,1497.0,3656.0,2025-08-05 16:13:26,82.0,,0.0332142472726121,-2.07531470865609,0.0412605743859998,,3.44606811399716,,
,7271.0,827.0,5240.0,1029.0,-335.0,1505.0,3646.0,2025-08-05 16:13:27,82.0,,0.0333194180213929,-2.07581486139034,0.0414445905062218,,3.5412392597185356,,
,7273.0,826.0,5242.0,1028.0,-331.0,1510.0,3650.0,2025-08-05 16:13:28,82.0,,0.0333452495410989,-2.07581434028458,0.0412926998691322,,3.552636371455115,,
,7277.0,831.0,5246.0,1031.0,-328.0,1506.0,3637.0,2025-08-05 16:13:29,82.0,,0.0333902511868864,-2.0753663087965,0.0413459031371672,,3.480176149135778,,
,7280.0,830.0,5249.0,1033.0,-323.0,1500.0,3645.0,2025-08-05 16:13:30,82.0,,0.0333706912191136,-2.07536772441012,0.0415207378849031,,3.3269321413353663,,
,7282.0,829.0,5247.0,1032.0,-319.0,1487.0,3643.0,2025-08-05 16:13:31,82.0,,0.0333952814834502,-2.07532318780466,0.0418866009089685,,3.0989940413344166,,
,7284.0,827.0,5250.0,1031.0,-326.0,1493.0,3637.0,2025-08-05 16:13:32,82.0,,0.0332627236804813,-2.07506815066259,0.041184497646456,,2.8051546088230768,,
,7287.0,831.0,5251.0,1034.0,-339.0,1498.0,3644.0,2025-08-05 16:13:33,82.0,,0.0333640764681928,-2.07474360548932,0.0416054800580855,,2.4564423842790366,,
,7291.0,829.0,5255.0,1035.0,-315.0,1500.0,3627.0,2025-08-05 16:13:34,82.0,,0.033423386796693,-2.07462233291506,0.0416549010734024,,2.065530705175533,,
,7292.0,830.0,5254.0,1036.0,-310.0,1500.0,3627.0,2025-08-05 16:13:35,82.0,,0.0333600515714471,-2.07429590701432,0.0418845290876325,,1.6460641253738428,,
,7295.0,830.0,5256.0,1038.0,-315.0,1506.0,3630.0,2025-08-05 16:13:36,82.0,,0.0334337155583993,-2.07415602004752,0.0414981465152137,,1.2119501594442492,,
,7298.0,831.0,5259.0,1038.0,-333.0,1501.0,3623.0,2025-08-05 16:13:37,82.0,,0.0333754781707713,-2.07426095152779,0.0412874119292016,,0.776665804176357,,
,7299.0,831.0,5263.0,1038.0,-336.0,1491.0,3652.0,2025-08-05 16:13:38,82.0,,0.0334420531659234,-2.0740096517288,0.0415539638999089,,0.352624272533589,,
,7302.0,831.0,5263.0,1040.0,-342.0,1492.0,3656.0,2025-08-05 16:13:39,81.0,,0.0334328472749727,-2.07414281361463,0.0416423303342775,,-0.04936124101610361,,
,7307.0,834.0,5263.0,1040.0,-347.0,1489.0,3643.0,2025-08-05 16:13:40,81.0,,0.0335334310471776,-2.07383582279631,0.0418993792882573,,-0.42049132772914904,,
,7310.0,831.0,5266.0,1041.0,-330.0,1491.0,3638.0,2025-08-05 16:13:41,81.0,,0.0334834792852712,-2.07335418657093,0.0417164197656344,,-0.7542579935396713,,
,7309.0,831.0,5268.0,1040.0,-308.0,1482.0,3632.0,2025-08-05 16:13:42,81.0,,0.0334980329797176,-2.07355143906535,0.0417111238293651,,-1.0465822937246474,,
,7314.0,831.0,5272.0,1041.0,-309.0,1483.0,3631.0,2025-08-05 16:13:43,81.0,,0.0335288148187671,-2.07311221126727,0.0422149696671388,,-1.2958146267544868,,
,7317.0,834.0,5272.0,1044.0,-307.0,1479.0,3639.0,2025-08-05 16:13:44,80.0,,0.0335438341653421,-2.07305546301958,0.0417021652694733,,-1.5026039463925662,,
,7320.0,833.0,5274.0,1041.0,-315.0,1499.0,3651.0,2025-08-05 16:13:45,80.0,,0.0335906874048835,-2.07299650682151,0.0417336608157878,,-1.6696448772402188,,
,7323.0,834.0,5275.0,1044.0,-303.0,1507.0,3647.0,2025-08-05 16:13:46,81.0,,0.0336243532942323,-2.07306534181112,0.0418128284148519,,-1.8013158210343143,,
,7324.0,836.0,5277.0,1045.0,-328.0,1497.0,3642.0,2025-08-05 16:13:47,81.0,,0.033601454106766,-2.07299296708032,0.041865318009269,,-1.9032273817715233,,
,7326.0,835.0,5280.0,1045.0,-334.0,1488.0,3635.0,2025-08-05 16:13:48,81.0,,0.0336436915501504,-2.07284694558295,0.0418163723273682,,-1.981707610141232,,
,7327.0,837.0,5280.0,1044.0,-340.0,1489.0,3640.0,2025-08-05 16:13:49,81.0,,0.0336230854172663,-2.07294602481766,0.0420493548440301,,-2.0432566161605283,,
,7331.0,836.0,5279.0,1047.0,-325.0,1495.0,3646.0,2025-08-05 16:13:50,81.0,,0.0336565096190167,-2.0725157802837,0.0420040770940555,,-2.094006575205447,,
,7326.0,835.0,5281.0,1048.0,-333.0,1506.0,3646.0,2025-08-05 16:13:51,81.0,,0.033507823167514,-2.07210172357413,0.0416769832737464,,-2.1392237334963857,,
,7321.0,833.0,5276.0,1044.0,-334.0,1509.0,3640.0,2025-08-05 16:13:52,81.0,,0.0335701298939106,-2.07265863569843,0.0421200041265562,,-2.182887053331587,,
,7316.0,831.0,5271.0,1041.0,-340.0,1500.0,3630.0,2025-08-05 16:13:53,81.0,,0.0336581646372969,-2.07213010035335,0.042108518752257,,-2.2273740182785526,,
,7307.0,831.0,5266.0,1040.0,-328.0,1501.0,3644.0,2025-08-05 16:13:54,80.0,,0.0336571005815049,-2.07249558837876,0.0419735589708001,,-2.2732779867445676,,
,7300.0,831.0,5263.0,1037.0,-340.0,1499.0,3635.0,2025-08-05 16:13:55,80.0,,0.0336817158827697,-2.0719660472627,0.0419944985576669,,-2.319373208550032,,
,7292.0,831.0,5253.0,1037.0,-339.0,1495.0,3634.0,2025-08-05 16:13:56,80.0,,0.0336866630095898,-2.07192253355397,0.0417410104920409,,-2.362732929653002,,
,7284.0,829.0,5242.0,1034.0,-325.0,1494.0,3642.0,2025-08-05 16:13:57,80.0,,0.0336456150294655,-2.07224209484922,0.0423096609734694,,-2.3989928707280694,,
,7273.0,823.0,5231.0,1029.0,-329.0,1490.0,3624.0,2025-08-05 16:13:58,81.0,,0.0336941330492899,-2.07304179940805,0.0420658403960243,,-2.4227376356271106,,
,7262.0,825.0,5223.0,1028.0,-344.0,1495.0,3632.0,2025-08-05 16:13:59,81.0,,0.0337587109348344,-2.07242559011786,0.0419294258220459,,-2.4279735372844122,,
,7251.0,825.0,5215.0,1027.0,-341.0,1501.0,3659.0,2025-08-05 16:14:00,81.0,,0.033730180792316,-2.07299694688953,0.0422789711407667,,-2.4086411431365637,,
,7241.0,823.0,5206.0,1022.0,-331.0,1501.0,3661.0,2025-08-05 16:14:01,82.0,,0.0337111233894127,-2.07197647485814,0.0418775885374905,,-2.3591171791830514,,
,7234.0,823.0,5199.0,1019.0,-313.0,1500.0,3653.0,2025-08-05 16:14:02,82.0,,0.0337050197835113,-2.07209194399748,0.0421179649502807,,-2.2746587939063976,,
,7226.0,820.0,5193.0,1019.0,-326.0,1503.0,3655.0,2025-08-05 16:14:03,82.0,,0.0337059136533933,-2.07196310485457,0.0420424784519606,,-2.1517519369468845,,
,7220.0,820.0,5189.0,1017.0,-341.0,1497.0,3643.0,2025-08-05 16:14:04,82.0,,0.0337184788799441,-2.07232235697448,0.0421128516748678,,-1.98833753334678,,
,7218.0,818.0,5184.0,1015.0,-344.0,1494.0,3642.0,2025-08-05 16:14:05,82.0,,0.0336320142234863,-2.07283664280588,0.0415311723654486,,-1.7839028293002408,,
,7211.0,816.0,5178.0,1012.0,-325.0,1487.0,3625.0,2025-08-05 16:14:06,82.0,,0.0336035857295144,-2.07316790818423,0.0416896025039946,,-1.5394401739525228,,
,7210.0,818.0,5171.0,1013.0,-319.0,1497.0,3625.0,2025-08-05 16:14:07,82.0,,0.0335206924753122,-2.07404186622506,0.0415156138134746,,-1.2572908914662118,,
,7204.0,817.0,5172.0,1013.0,-323.0,1504.0,3645.0,2025-08-05 16:14:08,82.0,,0.0334369751534788,-2.0752274442038,0.0410814737908869,,-0.9409062032117467,,
,7206.0,815.0,5165.0,1011.0,-336.0,1504.0,3651.0,2025-08-05 16:14:09,82.0,,0.0332823601222398,-2.07606193580036,0.040907570207139,,-0.5945679036021293,,
,7200.0,818.0,5165.0,1012.0,-323.0,1499.0,3640.0,2025-08-05 16:14:10,81.0,,0.033208252910602,-2.07603463529406,0.0407329738704587,,-0.22311599585835573,,
,7198.0,814.0,5162.0,1008.0,-319.0,1489.0,3655.0,2025-08-05 16:14:11,81.0,,0.0331663979242336,-2.07672497170173,0.0406125491738729,,0.16827315835097584,,
,7196.0,815.0,5159.0,1008.0,-326.0,1494.0,3632.0,2025-08-05 16:14:12,81.0,,0.0331333996303604,-2.07701933902426,0.0404361145776386,,0.5742267204011771,,
,7196.0,817.0,5158.0,1008.0,-317.0,1493.0,3649.0,2025-08-05 16:14:13,81.0,,0.0331207046693706,-2.07708403075594,0.0405536228695474,,0.9892205182555557,,
,7196.0,816.0,5157.0,1009.0,-324.0,1497.0,3653.0,2025-08-05 16:14:14,81.0,,0.03307888233392,-2.07710709889518,0.040194770405065,,1.4075380007137321,,
,7193.0,815.0,5152.0,1006.0,-324.0,1505.0,3640.0,2025-08-05 16:14:15,81.0,,0.0330641595460607,-2.07719423047009,0.0403857368308171,,1.8231704753826496,,
,7194.0,817.0,5155.0,1009.0,-336.0,1495.0,3637.0,2025-08-05 16:14:16,81.0,,0.0330117889045015,-2.07765375212389,0.0404885584164609,,2.2296984370226514,,
,7194.0,818.0,5155.0,1009.0,-349.0,1492.0,3641.0,2025-08-05 16:14:17,81.0,,0.0329029146853342,-2.0776713122463,0.0402667638075167,,2.620197762210079,,
,7195.0,815.0,5154.0,1008.0,-349.0,1498.0,3643.0,2025-08-05 16:14:18,81.0,,0.0330124729419046,-2.07695473898243,0.0402316229737378,,2.987210868329653,,
,7197.0,814.0,5153.0,1009.0,-340.0,1498.0,3639.0,2025-08-05 16:14:19,80.0,,0.0330172638070035,-2.07669931439101,0.0404648273496329,,3.3228135785292503,,
,7195.0,816.0,5156.0,1009.0,-343.0,1488.0,3652.0,2025-08-05 16:14:20,81.0,,0.0329578062796081,-2.07708971954544,0.040604260324215,,3.6187953391789462,,
,7198.0,814.0,5155.0,1009.0,-335.0,1483.0,3654.0,2025-08-05 16:14:21,81.0,,0.0330727887659634,-2.07706929707875,0.0407355838336657,,3.866955019898963,,
,7200.0,815.0,5157.0,1010.0,-328.0,1488.0,3644.0,2025-08-05 16:14:22,81.0,,0.0331146936338423,-2.07727118170729,0.040746799946729,,4.0594979036345515,,
,7197.0,814.0,5151.0,1007.0,-324.0,1499.0,3633.0,2025-08-05 16:14:23,81.0,,0.0331408475796915,-2.07649095143228,0.0406373724237975,,4.1895029660104015,,
,7198.0,814.0,5154.0,1012.0,-332.0,1509.0,3634.0,2025-08-05 16:14:24,81.0,,0.033147075405701,-2.07614826433399,0.0408555394390623,,4.251415144775415,,
,7203.0,818.0,5152.0,1010.0,-334.0,1505.0,3647.0,2025-08-05 16:14:25,81.0,,0.0332208006566303,-2.07653219837195,0.0409526877530536,,4.241507791067936,,
,7203.0,819.0,5156.0,1012.0,-348.0,1498.0,3647.0,2025-08-05 16:14:26,81.0,,0.0332388162337828,-2.07584774563654,0.0411395919851722,,4.158258827231542,,
,7203.0,817.0,5154.0,1011.0,-353.0,1494.0,3643.0,2025-08-05 16:14:27,81.0,,0.0332496063092504,-2.07574475285432,0.0412080076346472,,4.002592121320292,,
,7202.0,816.0,5153.0,1009.0,-324.0,1491.0,3649.0,2025-08-05 16:14:28,81.0,,0.0331250150954838,-2.07536323891867,0.040904699176664,,3.7779525113421397,,
,7204.0,816.0,5153.0,1012.0,-312.0,1491.0,3639.0,2025-08-05 16:14:29,81.0,,0.0332894687115112,-2.07460824612289,0.0412449824239065,,3.490205089875826,,
,7206.0,816.0,5153.0,1012.0,-326.0,1489.0,3643.0,2025-08-05 16:14:30,81.0,,0.0333020085654941,-2.07438545598469,0.0413742358329212,,3.1473713436944593,,
,7204.0,816.0,5152.0,1008.0,-331.0,1492.0,3642.0,2025-08-05 16:14:31,81.0,,0.0333362177465378,-2.07428276007914,0.0414183890843846,,2.7592317336083143,,
,7203.0,816.0,5147.0,1010.0,-331.0,1489.0,3648.0,2025-08-05 16:14:32,81.0,,0.0334107897065688,-2.07449786606175,0.0415347146876573,,2.336834148626852,,
,7202.0,816.0,5149.0,1009.0,-329.0,1494.0,3636.0,2025-08-05 16:14:33,81.0,,0.0334078702403676,-2.07446938680653,0.0414125602213892,,1.8919510121294087,,
,7199.0,816.0,5146.0,1008.0,-325.0,1501.0,3638.0,2025-08-05 16:14:34,81.0,,0.0334991222117797,-2.0743421776513,0.0415144545295461,,1.436526554824473,,
,7201.0,816.0,5147.0,1011.0,-323.0,1501.0,3640.0,2025-08-05 16:14:35,82.0,,0.0335600178946621,-2.07372806308918,0.0416725795125529,,0.9821514692450634,,
,7200.0,814.0,5143.0,1010.0,-325.0,1481.0,3634.0,2025-08-05 16:14:36,82.0,,0.0335203778124145,-2.07324507930442,0.0417469111806047,,0.5395955504208743,,
,7199.0,813.0,5140.0,1008.0,-315.0,1493.0,3627.0,2025-08-05 16:14:37,82.0,,0.0334867851697852,-2.07348452964457,0.041423133490724,,0.11842031005208305,,
,7200.0,817.0,5142.0,1011.0,-325.0,1500.0,3627.0,2025-08-05 16:14:38,82.0,,0.0334467745872121,-2.0736086984547,0.0417728289605933,,-0.2733165129975001,,
,7201.0,815.0,5141.0,1008.0,-326.0,1499.0,3641.0,2025-08-05 16:14:39,82.0,,0.0334932969258314,-2.07368420458473,0.041750763663928,,-0.6292628367584859,,
,7201.0,815.0,5140.0,1006.0,-329.0,1499.0,3650.0,2025-08-05 16:14:40,83.0,,0.0334284863549151,-2.07341920571689,0.0416291253327754,,-0.9448871684162181,,
,7199.0,813.0,5139.0,1008.0,-329.0,1497.0,3631.0,2025-08-05 16:14:41,83.0,,0.0333294003923477,-2.0733761158739,0.0419046052438342,,-1.2175177532723016,,
,7200.0,816.0,5137.0,1008.0,-334.0,1487.0,3645.0,2025-08-05 16:14:42,84.0,,0.0333936162368438,-2.07375858783804,0.0416989228967553,,-1.446316829679196,,
,7199.0,815.0,5140.0,1009.0,-335.0,1496.0,3664.0,2025-08-05 16:14:43,84.0,,0.033390898421118,-2.07401738146352,0.0417112449618431,,-1.6321966581906138,,
,7200.0,816.0,5137.0,1007.0,-325.0,1501.0,3669.0,2025-08-05 16:14:44,84.0,,0.0335397959278904,-2.07413903103877,0.0414678827911962,,-1.7776784559773395,,
,7199.0,813.0,5136.0,1007.0,-307.0,1497.0,3649.0,2025-08-05 16:14:45,84.0,,0.0334643189321847,-2.07394074580218,0.0413812919645763,,-1.88669185834485,,
,7200.0,816.0,5138.0,1005.0,-308.0,1497.0,3635.0,2025-08-05 16:14:46,83.0,,0.0334778988401869,-2.07385152529531,0.0415140968871784,,-1.9643132936415248,,
,7202.0,816.0,5140.0,1011.0,-325.0,1493.0,3648.0,2025-08-05 16:14:47,83.0,,0.0334361551521214,-2.07391520545886,0.0416165691938389,,-2.016446566442651,,
,7204.0,816.0,5140.0,1011.0,-325.0,1493.0,3648.0,2025-08-05 16:14:48,82.0,,0.03334387745436,-2.07440960053165,0.0414176966259779,,-2.0494559427421786,,
,7205.0,816.0,5139.0,1009.0,-326.0,1495.0,3649.0,2025-08-05 16:14:49,82.0,,0.033402212180558,-2.0737032797827,0.0415342029389074,,-2.069768762498589,,
,7207.0,814.0,5139.0,1008.0,-327.0,1500.0,3640.0,2025-08-05 16:14:50,82.0,,0.0334961137659897,-2.07365549115565,0.0416629285373772,,-2.0834696373200807,,
,7208.0,818.0,5140.0,1009.0,-328.0,1499.0,3638.0,2025-08-05 16:14:51,82.0,,0.0334624238746321,-2.07393968592091,0.0415357313486437,,-2.0959112288277764,,
,7210.0,817.0,5142.0,1012.0,-311.0,1498.0,3634.0,2025-08-05 16:14:52,83.0,,0.0334709586242985,-2.07369636172758,0.0414895992245036,,-2.111367527216171,,
,7212.0,817.0,5146.0,1010.0,-316.0,1495.0,3631.0,2025-08-05 16:14:53,83.0,,0.0334163458585579,-2.07375248542453,0.041534093006117,,-2.132754525821085,,
,7215.0,815.0,5142.0,1011.0,-308.0,1492.0,3640.0,2025-08-05 16:14:54,83.0,,0.0334868659482048,-2.07361094760106,0.0413367797690788,,-2.1614401284327087,,
,7218.0,817.0,5146.0,1014.0,-318.0,1491.0,3644.0,2025-08-05 16:14:55,83.0,,0.0335184060317023,-2.0737729706054,0.0415922766083142,,-2.1971598446661273,,
,7220.0,820.0,5149.0,1014.0,-331.0,1502.0,3650.0,2025-08-05 16:14:56,83.0,,0.0334703817000339,-2.07368622849064,0.0415172598434563,,-2.2380471610661425,,
,7222.0,818.0,5150.0,1014.0,-325.0,1502.0,3643.0,2025-08-05 16:14:57,83.0,,0.0334359934292943,-2.07393211746283,0.0413674550033612,,-2.2807775439063698,,
,7225.0,818.0,5149.0,1014.0,-335.0,1495.0,3656.0,2025-08-05 16:14:58,83.0,,0.0335306050908401,-2.07347354026884,0.0416311127186138,,-2.320813680728112,,
,7228.0,820.0,5151.0,1014.0,-325.0,1496.0,3635.0,2025-08-05 16:14:59,83.0,,0.0334545747973071,-2.07339621813795,0.0418222992840522,,-2.352728733783678,,
,7231.0,819.0,5158.0,1017.0,-333.0,1501.0,3622.0,2025-08-05 16:15:00,83.0,,0.0334429765561887,-2.07356044651725,0.0415291524804288,,-2.3705767621907023,,
,7232.0,817.0,5155.0,1016.0,-341.0,1498.0,3636.0,2025-08-05 16:15:01,83.0,,0.0335170374524439,-2.07279358447193,0.0416547597521719,,-2.3682772120453697,,
,7236.0,818.0,5155.0,1017.0,-331.0,1493.0,3631.0,2025-08-05 16:15:02,84.0,,0.0336488985041692,-2.07286020328829,0.0418836076675913,,-2.339983580477818,,
,7234.0,818.0,5158.0,1017.0,-333.0,1485.0,3618.0,2025-08-05 16:15:03,84.0,,0.0336205950018118,-2.07293319860952,0.041835256840918,,-2.280413039656399,,
,7242.0,820.0,5157.0,1019.0,-325.0,1488.0,3645.0,2025-08-05 16:15:04,85.0,,0.0336663943860552,-2.07246495013818,0.0419139250985747,,-2.185121415463099,,
,7243.0,819.0,5161.0,1021.0,-322.0,1498.0,3636.0,2025-08-05 16:15:05,85.0,,0.0335001169536444,-2.07289870083296,0.0420627436568905,,-2.05071492202442,,
,7248.0,824.0,5162.0,1023.0,-325.0,1496.0,3639.0,2025-08-05 16:15:06,85.0,,0.0335073582319571,-2.07280567620803,0.0418462430648674,,-1.8749962592363738,,
,7247.0,820.0,5164.0,1022.0,-326.0,1501.0,3656.0,2025-08-05 16:15:07,85.0,,0.0335946857006024,-2.07238018740815,0.0418859811679616,,-1.657048557877465,,
2025-08-05 16:12:27,7253.0,824.0,5167.0,1021.0,-338.0,1502.0,3635.0,2025-08-05 16:15:08,85.0,2025/08/05 04:12:27 PM,0.0336326616932385,-2.07199344916213,0.0422318566579695,,-1.3972665190024156,,
,7255.0,822.0,5165.0,1023.0,-339.0,1484.0,3619.0,2025-08-05 16:15:09,85.0,,0.0336770937826154,-2.07221250998963,0.042225381532569,,-1.097349476699238,,
,7254.0,822.0,5169.0,1024.0,-346.0,1487.0,3628.0,2025-08-05 16:15:10,85.0,,0.033662224335391,-2.07239875311061,0.0421499654615004,,-0.7602745395796192,,
,7260.0,821.0,5170.0,1025.0,-331.0,1494.0,3641.0,2025-08-05 16:15:11,85.0,,0.0336910076008303,-2.07146627967366,0.0421143238722199,,-0.3902673992809656,,
,7265.0,823.0,5172.0,1025.0,-322.0,1498.0,3633.0,2025-08-05 16:15:12,85.0,,0.0336310218643252,-2.0711942426278,0.0422818688918948,,0.0072176106031325415,,
,7266.0,824.0,5174.0,1024.0,-320.0,1491.0,3643.0,2025-08-05 16:15:13,85.0,,0.0337380451114281,-2.07158423834068,0.0422039809977556,,0.42550768346509366,,
,7267.0,825.0,5176.0,1024.0,-334.0,1495.0,3626.0,2025-08-05 16:15:14,86.0,,0.0337303736957589,-2.07159868837038,0.0422098777819413,,0.8567248543451672,,
,7272.0,825.0,5179.0,1027.0,-341.0,1488.0,3624.0,2025-08-05 16:15:15,86.0,,0.0337870915671173,-2.07114932012001,0.0422189525583796,,1.2918270076226581,,
,7273.0,825.0,5180.0,1025.0,-336.0,1485.0,3632.0,2025-08-05 16:15:16,86.0,,0.0338608826388227,-2.07146527784402,0.0424228826061935,,1.720707083876186,,
,7277.0,825.0,5180.0,1030.0,-314.0,1497.0,3634.0,2025-08-05 16:15:17,87.0,,0.033757235585228,-2.07086897783506,0.0423506006998244,,2.132379471191759,,
,7281.0,827.0,5182.0,1031.0,-323.0,1501.0,3652.0,2025-08-05 16:15:18,86.0,,0.0338073683245227,-2.07096449105827,0.0424535400904286,,2.5152741705238846,,
,7284.0,825.0,5184.0,1030.0,-332.0,1498.0,3641.0,2025-08-05 16:15:19,86.0,,0.0338199063609487,-2.07110327419486,0.0422515107814573,,2.85764608222386,,
,7284.0,824.0,5187.0,1030.0,-333.0,1501.0,3643.0,2025-08-05 16:15:20,86.0,,0.0337894437283175,-2.07026911443668,0.0422667161786949,,3.148090890541118,,
,7291.0,827.0,5190.0,1033.0,-328.0,1495.0,3632.0,2025-08-05 16:15:21,86.0,,0.0338193390957954,-2.07046883016155,0.0421598082963456,,3.376142360450051,,
,7294.0,829.0,5191.0,1033.0,-329.0,1502.0,3652.0,2025-08-05 16:15:22,86.0,,0.0338259487833795,-2.07061595999883,0.0422675012854049,,3.5329099805353485,,
,7293.0,827.0,5193.0,1035.0,-319.0,1505.0,3670.0,2025-08-05 16:15:23,86.0,,0.0338562439156394,-2.07097839515334,0.0423607154413792,,3.611702474059256,,
,7297.0,827.0,5194.0,1034.0,-311.0,1511.0,3669.0,2025-08-05 16:15:24,86.0,,0.0337517764105961,-2.07102606816763,0.0425263928276736,,3.608573815767753,,
,7302.0,827.0,5197.0,1034.0,-326.0,1490.0,3646.0,2025-08-05 16:15:25,86.0,,0.0338507316055481,-2.07048119467628,0.0424050123125074,,3.5227264260913262,,
,7302.0,830.0,5198.0,1036.0,-337.0,1491.0,3628.0,2025-08-05 16:15:26,86.0,,0.0337768228131834,-2.0707620934,0.0420895020705753,,3.3567134593307104,,
,7299.0,828.0,5197.0,1036.0,-344.0,1494.0,3632.0,2025-08-05 16:15:27,86.0,,0.0337851774278709,-2.07066810308832,0.0422463470147141,,3.1163998666380324,,
,7298.0,826.0,5195.0,1033.0,-333.0,1523.0,3638.0,2025-08-05 16:15:28,85.0,,0.0337896172466455,-2.07052146322012,0.0423842918674888,,2.8106692900439736,,
,7293.0,824.0,5191.0,1034.0,-310.0,1520.0,3642.0,2025-08-05 16:15:29,85.0,,0.0338335919624222,-2.07045341930133,0.0423318121576928,,2.4508967210632098,,
,7285.0,824.0,5189.0,1031.0,-331.0,1504.0,3641.0,2025-08-05 16:15:30,84.0,,0.0338870542395776,-2.07087149504576,0.0427733897462285,,2.050238322330329,,
,7281.0,827.0,5182.0,1032.0,-336.0,1495.0,3637.0,2025-08-05 16:15:31,83.0,,0.0338606325737523,-2.07061850078279,0.0420844832785143,,1.6228125360271366,,
,7273.0,823.0,5173.0,1027.0,-340.0,1493.0,3644.0,2025-08-05 16:15:32,83.0,,0.0339243795904919,-2.07084002822028,0.0426482589715871,,1.1828560174808354,,
,7261.0,820.0,5163.0,1024.0,-336.0,1490.0,3635.0,2025-08-05 16:15:33,83.0,,0.0338972895854178,-2.07086387577172,0.0423797615700974,,0.7439337886353693,,
,7253.0,819.0,5159.0,1021.0,-341.0,1495.0,3649.0,2025-08-05 16:15:34,83.0,,0.0339253955078771,-2.07037654105283,0.0425552525388317,,0.3182683791815169,,
,7244.0,821.0,5148.0,1019.0,-326.0,1488.0,3670.0,2025-08-05 16:15:35,83.0,,0.0340163410345139,-2.06993132271111,0.0425648257910461,,-0.08376813194565431,,
,7237.0,816.0,5140.0,1019.0,-326.0,1486.0,3654.0,2025-08-05 16:15:36,83.0,,0.0339199181200494,-2.07014470875032,0.0421974628267904,,-0.4539783893969123,,
,7226.0,815.0,5134.0,1018.0,-336.0,1492.0,3644.0,2025-08-05 16:15:37,83.0,,0.0338163954295376,-2.07077303508873,0.0422906721967847,,-0.7864817418869062,,
,7222.0,815.0,5127.0,1011.0,-338.0,1491.0,3643.0,2025-08-05 16:15:38,83.0,,0.0337917462667237,-2.07142489119318,0.0419226523779143,,-1.0776940284429346,,
,7213.0,817.0,5121.0,1013.0,-337.0,1507.0,3640.0,2025-08-05 16:15:39,83.0,,0.0337032615281862,-2.07289387106167,0.0415381439194792,,-1.3261785861748547,,
,7208.0,815.0,5116.0,1008.0,-334.0,1501.0,3640.0,2025-08-05 16:15:40,82.0,,0.0335535833593714,-2.07349131464602,0.041521116576676,,-1.532408513813062,,
,7203.0,813.0,5113.0,1007.0,-337.0,1503.0,3645.0,2025-08-05 16:15:41,82.0,,0.033462285193617,-2.07430702819898,0.0413905419312291,,-1.6984795879462786,,
,7196.0,811.0,5106.0,1006.0,-326.0,1496.0,3623.0,2025-08-05 16:15:42,82.0,,0.0332938615997214,-2.07481861897519,0.0412661195213706,,-1.8278058831839854,,
,7195.0,813.0,5105.0,1005.0,-325.0,1489.0,3620.0,2025-08-05 16:15:43,82.0,,0.0333052661901391,-2.07594892039595,0.0409739641633413,,-1.9248181290130026,,
,7192.0,812.0,5102.0,1005.0,-319.0,1502.0,3632.0,2025-08-05 16:15:44,83.0,,0.0331579766536668,-2.07611796167042,0.0409442634424869,,-1.994671697969657,,
,7191.0,813.0,5098.0,1006.0,-316.0,1512.0,3641.0,2025-08-05 16:15:45,83.0,,0.033093981888447,-2.07642874774298,0.0407013325373749,,-2.04296101745987,,
,7187.0,810.0,5092.0,1001.0,-321.0,1514.0,3637.0,2025-08-05 16:15:46,84.0,,0.033108753298959,-2.07651027325782,0.0404046379602502,,-2.0754330217772674,,
,7186.0,813.0,5093.0,1003.0,-340.0,1500.0,3637.0,2025-08-05 16:15:47,84.0,,0.0331227436620359,-2.07749098394988,0.0404297581957915,,-2.097694182850062,,
,7186.0,811.0,5090.0,1002.0,-343.0,1497.0,3620.0,2025-08-05 16:15:48,85.0,,0.0329948420555278,-2.07759720907436,0.0406948018164102,,-2.114911509780524,,
,7185.0,812.0,5092.0,1004.0,-330.0,1491.0,3620.0,2025-08-05 16:15:49,85.0,,0.0330276574040918,-2.0775185430209,0.0406461529200036,,-2.131514933523514,,
,7186.0,813.0,5092.0,1004.0,-320.0,1493.0,3642.0,2025-08-05 16:15:50,85.0,,0.0330356316232407,-2.07754905469515,0.040067333798833,,-2.150914793045774,,
,7183.0,810.0,5088.0,1004.0,-317.0,1499.0,3643.0,2025-08-05 16:15:51,85.0,,0.0329728594511669,-2.07731512267647,0.0403621908832167,,-2.1752529012343436,,
,7185.0,811.0,5091.0,1003.0,-312.0,1503.0,3647.0,2025-08-05 16:15:52,85.0,,0.0329305281994617,-2.07740315821992,0.0406031446607346,,-2.205208607505675,,
,7187.0,814.0,5090.0,1004.0,-317.0,1499.0,3643.0,2025-08-05 16:15:53,85.0,,0.032930288888161,-2.07756113767847,0.0405289171711481,,-2.2398820827767216,,
,7187.0,811.0,5088.0,1002.0,-329.0,1482.0,3637.0,2025-08-05 16:15:54,85.0,,0.0330055201941301,-2.07719561782566,0.0405091575422773,,-2.276775244486063,,
,7187.0,809.0,5088.0,1001.0,-349.0,1494.0,3640.0,2025-08-05 16:15:55,85.0,,0.0329772211331554,-2.07694580563736,0.0408515352701233,,-2.3118857671853106,,
,7191.0,810.0,5090.0,1002.0,-343.0,1497.0,3651.0,2025-08-05 16:15:56,86.0,,0.0329274113234419,-2.07648804011821,0.0408969065344472,,-2.3399211134840945,,
,7189.0,813.0,5091.0,1003.0,-327.0,1494.0,3651.0,2025-08-05 16:15:57,86.0,,0.0330317114380322,-2.07623326307653,0.0408514636981584,,-2.354627583800281,,
,7195.0,814.0,5093.0,1006.0,-330.0,1492.0,3648.0,2025-08-05 16:15:58,87.0,,0.0330625808653779,-2.07638089325016,0.0406683220004254,,-2.3492150272359127,,
,7194.0,811.0,5094.0,1005.0,-339.0,1483.0,3634.0,2025-08-05 16:15:59,87.0,,0.0330801144665868,-2.07622934703391,0.0408745649387254,,-2.3168433858163784,,
,7195.0,811.0,5091.0,1003.0,-341.0,1491.0,3628.0,,,,0.0330888291833513,-2.07548584927526,0.0412882644505155,,-2.2511261766815713,,
,7197.0,813.0,5095.0,1004.0,-322.0,1513.0,3658.0,,,,0.0331911803147532,-2.07564346390459,0.0411762290806718,,-2.146601852832928,,
,7198.0,813.0,5095.0,1005.0,-318.0,1516.0,3657.0,,,,0.0332084256852858,-2.07587326275797,0.0411121626076065,,-1.9991283183577182,,
,7200.0,811.0,5094.0,1005.0,-314.0,1510.0,3660.0,,,,0.0332278802560001,-2.0758307127929,0.0411598226272122,,-1.8061675388049299,,
,7199.0,810.0,5097.0,1005.0,-324.0,1486.0,3635.0,,,,0.0332892543439302,-2.07552783482564,0.041437703932163,,-1.5669431990162548,,
,7201.0,814.0,5097.0,1007.0,-330.0,1490.0,3629.0,,,,0.0333301292182269,-2.07517566126975,0.0413213663825766,,-1.282471464588739,,
,7203.0,816.0,5096.0,1005.0,-329.0,1492.0,3632.0,,,,0.0332787580444682,-2.07549812312509,0.0413859880950149,,-0.9554803668183401,,
,7198.0,812.0,5095.0,1006.0,-320.0,1493.0,3631.0,,,,0.0333096010661804,-2.07504511555985,0.0414171576754027,,-0.5902451223448902,,
,7200.0,811.0,5095.0,1003.0,-313.0,1507.0,3644.0,,,,0.0333582799637844,-2.07517943921045,0.0411049508536764,,-0.19237359547790497,,
,7199.0,813.0,5096.0,1006.0,-332.0,1499.0,3631.0,,,,0.0333405183491311,-2.07503644099582,0.0412882185772779,,0.23142241702507582,,
,7203.0,812.0,5095.0,1006.0,-321.0,1492.0,3630.0,,,,0.0333493538615278,-2.07501805664777,0.041313099034916,,0.6735385738021057,,
,7201.0,812.0,5095.0,1006.0,-320.0,1498.0,3645.0,,,,0.0333802867552968,-2.07529514128699,0.0416678522092264,,1.1256502948981157,,
,7201.0,813.0,5091.0,1006.0,-351.0,1498.0,3649.0,,,,0.0332872362108849,-2.07482169743478,0.0412462994436619,,1.5788386541950779,,
,7200.0,812.0,5094.0,1005.0,-336.0,1503.0,3652.0,,,,0.0333814108582095,-2.07500741018686,0.0413444996678775,,2.0236794026324088,,
,7200.0,814.0,5096.0,1006.0,-325.0,1492.0,3650.0,,,,0.0333494490198466,-2.07587672940681,0.041051517932738,,2.450320478276579,,
,7201.0,815.0,5092.0,1005.0,-326.0,1498.0,3644.0,,,,0.0332967315379527,-2.07560366164327,0.0410816410506781,,2.8485839229334537,,
,7199.0,812.0,5090.0,1004.0,-313.0,1486.0,3619.0,,,,0.0333715011098092,-2.07512009649318,0.0412163461929935,,3.2081299589530206,,
,7201.0,812.0,5091.0,1004.0,-320.0,1493.0,3631.0,,,,0.0333210515538699,-2.07497475588842,0.0407780452386086,,3.518712926226671,,
,7202.0,814.0,5096.0,1006.0,-318.0,1513.0,3636.0,,,,0.033261526969469,-2.07529836164662,0.0412985472490775,,3.7705426081539803,,
,7201.0,811.0,5092.0,1007.0,-317.0,1512.0,3634.0,,,,0.0332529614583155,-2.07539731204945,0.0411902362676448,,3.95474386667542,,
,7204.0,812.0,5097.0,1005.0,-326.0,1518.0,3639.0,,,,0.0331906563302262,-2.07576799266026,0.040984758769105,,4.063886403578062,,
,7202.0,808.0,5093.0,1005.0,-331.0,1508.0,3646.0,,,,0.0332162635945298,-2.07590395832485,0.0409792600544202,,4.092538098975972,,
,7207.0,812.0,5097.0,1006.0,-337.0,1506.0,3636.0,,,,0.0332064768452629,-2.07585309487029,0.0408732787875992,,4.037782192644375,,
,7207.0,813.0,5098.0,1006.0,-318.0,1510.0,3633.0,,,,0.0332635329107839,-2.07643400505474,0.0407160140024971,,3.899632500428416,,
,7209.0,815.0,5101.0,1010.0,-298.0,1505.0,3639.0,,,,0.033226099872789,-2.07662873056002,0.040591107286673,,3.681283420092326,,
,7210.0,813.0,5101.0,1008.0,-314.0,1501.0,3660.0,,,,0.0331994193123533,-2.0765078935885,0.0404471773807424,,3.3891435657815943,,
,7212.0,811.0,5103.0,1008.0,-312.0,1505.0,3644.0,,,,0.0331396531614137,-2.07621481244776,0.0406679458844376,,3.032623237169053,,
,7214.0,816.0,5107.0,1009.0,-323.0,1507.0,3632.0,,,,0.0331220599619328,-2.07676088656492,0.0407353637759452,,2.623674656923986,,
,7214.0,813.0,5106.0,1009.0,-328.0,1503.0,3639.0,,,,0.0332640041290137,-2.07658645869856,0.0408513079770906,,2.176116054338764,,
,7218.0,815.0,5109.0,1011.0,-336.0,1497.0,3656.0,,,,0.0332229078621139,-2.07636817755203,0.0410322794015334,,1.7048005176862313,,
,7219.0,814.0,5111.0,1012.0,-327.0,1508.0,3657.0,,,,0.0332401881097649,-2.07619203897318,0.040612323816683,,1.224711864464922,,
,7225.0,814.0,5113.0,1013.0,-330.0,1498.0,3639.0,,,,0.0332500427696688,-2.07615865332934,0.0405393493736379,,0.7500780092628216,,
,7228.0,817.0,5116.0,1012.0,-337.0,1494.0,3621.0,,,,0.033223014367322,-2.07632251390464,0.0407524963884305,,0.2935863118417555,,
,7230.0,819.0,5117.0,1015.0,-331.0,1493.0,3631.0,,,,0.0332488779564218,-2.07614682490107,0.0410476286121619,,-0.1342323405932494,,
,7231.0,816.0,5122.0,1015.0,-313.0,1507.0,3639.0,,,,0.0333284185937346,-2.07576014781032,0.0409080410819723,,-0.5254087201649875,,
,7233.0,818.0,5123.0,1015.0,-319.0,1499.0,3646.0,,,,0.0332663694784445,-2.07578622444338,0.0406410023709693,,-0.8747144867215199,,
,7237.0,819.0,5125.0,1014.0,-320.0,1503.0,3647.0,,,,0.0332069115796294,-2.07634745960274,0.0405815481906908,,-1.1796249742731062,,
,7241.0,818.0,5128.0,1015.0,-319.0,1489.0,3636.0,,,,0.0331314335321362,-2.07600053499928,0.0409219883235813,,-1.4400950963321635,,
,7244.0,817.0,5129.0,1014.0,-330.0,1486.0,3643.0,,,,0.033207606293569,-2.07495696834141,0.0408945566621231,,-1.6581917851167203,,
,7245.0,819.0,5132.0,1017.0,-323.0,1495.0,3641.0,,,,0.0332350561237254,-2.07529267842428,0.0409661458403207,,-1.8376334056625836,,
,7248.0,818.0,5136.0,1018.0,-320.0,1505.0,3639.0,,,,0.0332935201302247,-2.07579035690101,0.0413674808679923,,-1.9832867498543307,,
,7252.0,821.0,5138.0,1020.0,-332.0,1503.0,3634.0,,,,0.0332628990297369,-2.07532924743392,0.0413765860757233,,-2.1006660607701937,,
,7258.0,819.0,5141.0,1023.0,-335.0,1505.0,3653.0,,,,0.0332395153544871,-2.07506621633128,0.0414389616904324,,-2.195467421514226,,
,7260.0,819.0,5144.0,1018.0,-339.0,1491.0,3639.0,,,,0.0332756897517238,-2.0745596253041,0.0411423603439667,,-2.273158226921761,,
,7264.0,821.0,5147.0,1025.0,-328.0,1493.0,3627.0,,,,0.0333332553387299,-2.07462651754025,0.0414613099057853,,-2.3386287732803495,,
,7264.0,823.0,5149.0,1023.0,-315.0,1501.0,3650.0,,,,0.0333376577924028,-2.07473272978838,0.0414831652511204,,-2.3959046284565857,,
,7266.0,822.0,5152.0,1024.0,-318.0,1501.0,3643.0,,,,0.0333214761250897,-2.07454134054154,0.0412674409276376,,-2.4479160962789557,,
,7271.0,820.0,5152.0,1024.0,-299.0,1505.0,3643.0,,,,0.0333925588154549,-2.0742342047173,0.0413242022405893,,-2.4963238830253687,,
,7276.0,822.0,5155.0,1026.0,-321.0,1492.0,3633.0,,,,0.0332880511592708,-2.07372680859492,0.0414074286759313,,-2.5414052308992177,,
,7275.0,822.0,5160.0,1026.0,-332.0,1512.0,3624.0,,,,0.0333660493626671,-2.07404317504763,0.041483859211407,,-2.5820093405238094,,
,7281.0,826.0,5163.0,1026.0,-333.0,1509.0,3617.0,,,,0.0333973882499332,-2.07383555536094,0.0413480752247786,,-2.6155929787595262,,
,7284.0,824.0,5164.0,1026.0,-339.0,1507.0,3624.0,,,,0.0334308899875413,-2.07383933039768,0.0412468064741681,,-2.638346096609594,,
,7286.0,825.0,5166.0,1029.0,-329.0,1509.0,3649.0,,,,0.0334415529963996,-2.0735310591472,0.0412947734032282,,-2.6454131211453045,,
,7291.0,825.0,5169.0,1029.0,-325.0,1494.0,3650.0,,,,0.0334155056841758,-2.07383773826824,0.0415799218926623,,-2.6312086710636367,,
,7291.0,825.0,5174.0,1033.0,-320.0,1493.0,3645.0,,,,0.0334493646273843,-2.07335788037197,0.0414380312195426,,-2.5898172508830064,,
,7295.0,825.0,5173.0,1033.0,-334.0,1498.0,3641.0,,,,0.0334613762152225,-2.07331649212273,0.0414957064218614,,-2.515455681687497,,
,7299.0,826.0,5174.0,1030.0,-315.0,1519.0,3639.0,,,,0.0334351688233801,-2.073821913367,0.0415250757279545,,-2.4029657048581883,,
,7304.0,827.0,5181.0,1032.0,-321.0,1520.0,3642.0,,,,0.0335028810693931,-2.07324967123876,0.0414119952947894,,-2.2482941055591987,,
,7304.0,825.0,5182.0,1032.0,-312.0,1507.0,3654.0,,,,0.0334714887867639,-2.07310674855706,0.0417760827483255,,-2.0489114783673137,,
,7308.0,829.0,5183.0,1035.0,-316.0,1506.0,3654.0,,,,0.0334179935852114,-2.07311920018231,0.0414544626194915,,-1.8041215963675918,,
,7310.0,826.0,5188.0,1035.0,-308.0,1497.0,3638.0,,,,0.0335212644728605,-2.07315996710421,0.0415931538773721,,-1.5152236168466302,,
,7310.0,826.0,5191.0,1037.0,-314.0,1496.0,3634.0,,,,0.0333342441537622,-2.07284224560933,0.0414503437951725,,-1.1855085139707096,,
,7311.0,828.0,5191.0,1035.0,-320.0,1501.0,3644.0,,,,0.0334262351430053,-2.07368895823848,0.0414771286815959,,-0.8200948745062757,,
,7313.0,830.0,5193.0,1038.0,-320.0,1504.0,3637.0,,,,0.0333797603985886,-2.07338656896809,0.041499600108602,,-0.4256312938566744,,
,7309.0,828.0,5191.0,1034.0,-316.0,1509.0,3638.0,,,,0.0333857349434206,-2.07308496624649,0.0415736786071682,,-0.009907982636468141,,
,7305.0,828.0,5189.0,1032.0,-323.0,1505.0,3657.0,,,,0.0334706798675839,-2.07337916967885,0.0414923502814456,,0.4185732667654785,,
,7302.0,828.0,5185.0,1032.0,-333.0,1505.0,3641.0,,,,0.0334815092071152,-2.07321384929116,0.0415111942249011,,0.8510232513806204,,
,7293.0,824.0,5177.0,1030.0,-335.0,1510.0,3637.0,,,,0.0334964848170188,-2.07342011055637,0.041371170441891,,1.2787438603863306,,
,7287.0,822.0,5171.0,1028.0,-333.0,1504.0,3637.0,,,,0.0334980483415669,-2.0730804881853,0.0414434309083849,,1.6934324064277215,,
,7276.0,820.0,5166.0,1025.0,-334.0,1504.0,3640.0,,,,0.0335858994025094,-2.07312216852613,0.0416929590958575,,2.087396196696907,,
,7270.0,821.0,5161.0,1023.0,-328.0,1494.0,3629.0,,,,0.033573327833584,-2.07325723378032,0.0417324254327902,,2.453675015017521,,
,7263.0,823.0,5153.0,1022.0,-321.0,1492.0,3649.0,,,,0.033537666202631,-2.07329228530561,0.0416136287525809,,2.786082016886119,,
,7254.0,819.0,5147.0,1019.0,-310.0,1502.0,3651.0,,,,0.0334960216367826,-2.07304540855238,0.0413298578317341,,3.0791849919923617,,
,7249.0,818.0,5141.0,1017.0,-318.0,1510.0,3650.0,,,,0.0334492231613682,-2.07295652686139,0.0412648112059327,,3.3282583025348207,,
,7239.0,818.0,5135.0,1016.0,-302.0,1517.0,3668.0,,,,0.0334516362972826,-2.07401162003996,0.0409872095549072,,3.529238746184435,,
,7236.0,818.0,5132.0,1016.0,-311.0,1507.0,3636.0,,,,0.0332939992745407,-2.07489547507171,0.0412815502282141,,3.6787144434826304,,
2025-08-05 16:12:28,7232.0,816.0,5129.0,1014.0,-316.0,1503.0,3642.0,,,2025/08/05 04:12:28 PM,0.0332229627714318,-2.07573623422438,0.0408163279324971,,3.7739650020633184,,
,7226.0,816.0,5124.0,1010.0,-319.0,1499.0,3636.0,,,,0.0331146911764796,-2.0759422084728,0.0405442832726255,,3.8130564036700507,,
,7221.0,816.0,5120.0,1012.0,-322.0,1504.0,3638.0,,,,0.0330260426901934,-2.07688907037406,0.0403500576266157,,3.7949791933917845,,
,7219.0,816.0,5120.0,1010.0,-310.0,1500.0,3647.0,,,,0.0329192425801258,-2.07715904094005,0.040363315900846,,3.719807010643606,,
,7218.0,816.0,5119.0,1010.0,-314.0,1505.0,3629.0,,,,0.0328891582693054,-2.07757028860314,0.0399854594341057,,3.5888461436232504,,
,7217.0,815.0,5119.0,1010.0,-324.0,1503.0,3621.0,,,,0.0328254425497585,-2.07835586334815,0.0399612258983493,,3.4047458666145043,,
,7216.0,813.0,5116.0,1009.0,-325.0,1507.0,3622.0,,,,0.0328185131154736,-2.07869111247349,0.0399165059975411,,3.1715429646310094,,
,7217.0,813.0,5117.0,1010.0,-319.0,1507.0,3651.0,,,,0.0328793235450405,-2.07861897971022,0.039853808039426,,2.8946207349516557,,
,7216.0,816.0,5119.0,1008.0,-319.0,1508.0,3653.0,,,,0.0328124865149191,-2.07846732123386,0.0398343163163796,,2.580571766284984,,
,7217.0,816.0,5114.0,1008.0,-313.0,1505.0,3644.0,,,,0.0327570265595205,-2.07837971931046,0.0397916095791361,,2.2369644176409307,,
,7216.0,816.0,5117.0,1007.0,-315.0,1507.0,3641.0,,,,0.0327990954149699,-2.07837307015218,0.0400249817893913,,1.8720249123290624,,
,7217.0,815.0,5115.0,1010.0,-327.0,1499.0,3631.0,,,,0.032761240901701,-2.07828673221039,0.0396970631846911,,1.4942593833812998,,
,7220.0,815.0,5121.0,1012.0,-325.0,1500.0,3654.0,,,,0.0327925221467573,-2.0783997541591,0.0404257605654143,,1.112050667274092,,
,7221.0,818.0,5122.0,1009.0,-319.0,1500.0,3647.0,,,,0.0328100366809022,-2.07811141693257,0.039937606695963,,0.733269937633717,,
,7220.0,818.0,5123.0,1008.0,-322.0,1495.0,3644.0,,,,0.0328179516216786,-2.07851981652825,0.040331720114505,,0.36494125186515813,,
,7222.0,816.0,5122.0,1011.0,-327.0,1504.0,3661.0,,,,0.0328904473316144,-2.07800690639098,0.0399687457554857,,0.012988175073949523,,
,7227.0,819.0,5126.0,1011.0,-327.0,1490.0,3648.0,,,,0.0328612259671972,-2.07789877933512,0.040394144082709,,-0.3179214099610319,,
,7229.0,818.0,5127.0,1013.0,-329.0,1501.0,3627.0,,,,0.0328963952813736,-2.07770520641723,0.0403589287506278,,-0.6244299735388913,,
,7230.0,819.0,5130.0,1013.0,-322.0,1500.0,3620.0,,,,0.0329674957985762,-2.07715098291073,0.0404929869879661,,-0.9044540298837513,,
,7226.0,817.0,5128.0,1010.0,-326.0,1503.0,3628.0,,,,0.0329943511639577,-2.07703307310058,0.0406017683291659,,-1.157074996107967,,
,7232.0,817.0,5132.0,1014.0,-323.0,1502.0,3626.0,,,,0.0330626187298496,-2.07711329226134,0.0404746946129586,,-1.3823803036141475,,
,7235.0,821.0,5134.0,1015.0,-305.0,1510.0,3630.0,,,,0.0329771762899899,-2.0769044810116,0.0406730214613772,,-1.5812791548781941,,
,7233.0,820.0,5136.0,1013.0,-312.0,1512.0,3637.0,,,,0.0330363541982452,-2.07651324440983,0.0404424360151883,,-1.7553151364460242,,
,7234.0,818.0,5133.0,1014.0,-322.0,1500.0,3650.0,,,,0.0330835324075121,-2.07632976045616,0.0408871428816599,,-1.906492398757898,,
,7233.0,821.0,5135.0,1015.0,-320.0,1502.0,3649.0,,,,0.0330850356835731,-2.07635222314062,0.0409540777182876,,-2.0371237987656197,,
,7234.0,820.0,5137.0,1014.0,-321.0,1502.0,3644.0,,,,0.0331314381325744,-2.07651340662437,0.0406441105677935,,-2.149699589012736,,
,7237.0,818.0,5137.0,1015.0,-334.0,1501.0,3649.0,,,,0.033128208486767,-2.07631083524601,0.0405514748616864,,-2.246766336845562,,
,7235.0,819.0,5136.0,1013.0,-321.0,1508.0,3637.0,,,,0.0331717983070534,-2.07562917380853,0.0409250696995771,,-2.330800814209947,,
,7231.0,819.0,5136.0,1012.0,-333.0,1505.0,3622.0,,,,0.0332316150429212,-2.07571553728741,0.0409514828823768,,-2.4040648659609367,,
,7233.0,820.0,5135.0,1013.0,-332.0,1497.0,3629.0,,,,0.0332304016098001,-2.07542484920826,0.0409617441221594,,-2.468434676461619,,
,7231.0,820.0,5136.0,1016.0,-322.0,1504.0,3634.0,,,,0.0332554174068184,-2.07521688304306,0.0410797243746072,,-2.5252089016614803,,
,7233.0,820.0,5136.0,1012.0,-328.0,1508.0,3634.0,,,,0.0332716750773693,-2.07577984174003,0.0409876696142387,,-2.57491138111927,,
,7231.0,819.0,5133.0,1010.0,-326.0,1504.0,3647.0,,,,0.0332368666535928,-2.07577318925243,0.0405149818308253,,-2.6171128679829083,,
,7232.0,821.0,5136.0,1012.0,-330.0,1494.0,3651.0,,,,0.0332839381183251,-2.07554174095823,0.0410866192104471,,-2.650300917854915,,
,7230.0,821.0,5137.0,1012.0,-317.0,1484.0,3646.0,,,,0.0332424481070943,-2.0749545025671,0.0407814890589573,,-2.6718271562712896,,
,7233.0,820.0,5137.0,1012.0,-326.0,1489.0,3644.0,,,,0.0332372301047635,-2.07524432704269,0.0409272124341779,,-2.6779565221165447,,
,7229.0,819.0,5137.0,1010.0,-313.0,1499.0,3625.0,,,,0.033290506117662,-2.07554540791125,0.0407903170952197,,-2.664034071859938,,
,7229.0,817.0,5134.0,1013.0,-314.0,1505.0,3623.0,,,,0.0332471176875386,-2.07548337737629,0.0412088917694092,,-2.624772180884832,,
,7233.0,820.0,5137.0,1012.0,-316.0,1499.0,3629.0,,,,0.0332134481550209,-2.07602910401896,0.0409038433692707,,-2.5546455255399634,,
,7234.0,820.0,5136.0,1013.0,-324.0,1501.0,3639.0,,,,0.0332031140884432,-2.07590069946372,0.040922602913994,,-2.4483646985417162,,
,7231.0,819.0,5138.0,1011.0,-345.0,1491.0,3637.0,,,,0.0331629634750548,-2.07590567439377,0.0408808402498218,,-2.301384239650319,,
,7233.0,818.0,5137.0,1010.0,-329.0,1498.0,3630.0,,,,0.0332138978391382,-2.07599288563771,0.0409267982603662,,-2.110390736973813,,
,7235.0,820.0,5141.0,1015.0,-333.0,1497.0,3637.0,,,,0.0332219723619881,-2.07563185111802,0.0409400160770826,,-1.8737150112348455,,
,7237.0,820.0,5141.0,1012.0,-333.0,1490.0,3635.0,,,,0.0331542487130818,-2.07642295379798,0.0407909141585841,,-1.59162097514693,,
,7237.0,820.0,5143.0,1013.0,-332.0,1492.0,3630.0,,,,0.0331086096944291,-2.07636222758357,0.0411015032305354,,-1.266441043237582,,
,7237.0,821.0,5144.0,1015.0,-320.0,1500.0,3627.0,,,,0.0331118395837125,-2.0763043792287,0.0407845044103298,,-0.902549619442245,,
,7240.0,821.0,5146.0,1015.0,-313.0,1499.0,3630.0,,,,0.0331419883304046,-2.07678306575657,0.0406981601290068,,-0.5061870951498401,,
,7244.0,822.0,5148.0,1016.0,-334.0,1496.0,3639.0,,,,0.0331751709510572,-2.07648013412678,0.0407097823081112,,-0.08516303317437278,,
,7249.0,821.0,5149.0,1016.0,-338.0,1496.0,3634.0,,,,0.0331652528774191,-2.07612748276819,0.0408302880179017,,0.3515230783659255,,
,7245.0,822.0,5149.0,1016.0,-331.0,1492.0,3633.0,,,,0.0331097148744044,-2.0767560248244,0.0406234002007593,,0.7941019859565318,,
,7247.0,821.0,5152.0,1016.0,-335.0,1503.0,3636.0,,,,0.033225179081118,-2.07613526738857,0.0405157345459959,,1.2324566116760662,,
,7253.0,824.0,5158.0,1019.0,-320.0,1496.0,3626.0,,,,0.0331503815337548,-2.07579136024253,0.0406898013989174,,1.656513179888725,,
,7256.0,822.0,5156.0,1018.0,-310.0,1495.0,3631.0,,,,0.0330936297254481,-2.07590289899073,0.0406106025786524,,2.0565784865927,,
,7252.0,822.0,5157.0,1019.0,-340.0,1499.0,3640.0,,,,0.033103052716176,-2.07577083812361,0.0407732640558651,,2.4236119104933413,,
,7256.0,820.0,5160.0,1018.0,-330.0,1497.0,3637.0,,,,0.0330629504605103,-2.076033800808,0.0409482832523862,,2.749433303604578,,
,7259.0,825.0,5165.0,1022.0,-319.0,1495.0,3635.0,,,,0.0331004780451092,-2.07548449772207,0.0409898005751024,,3.0268793440391413,,
,7263.0,825.0,5166.0,1020.0,-331.0,1520.0,3641.0,,,,0.0332353922304499,-2.07561428857098,0.0408314295350381,,3.249928520395739,,
,7266.0,826.0,5169.0,1024.0,-340.0,1510.0,3639.0,,,,0.0332043294265827,-2.07532117027103,0.0410651826676273,,3.413816092254263,,
,7265.0,826.0,5170.0,1019.0,-331.0,1498.0,3633.0,,,,0.0332207416870491,-2.07507653607519,0.0408240109661075,,3.5151543174276476,,
,7270.0,826.0,5173.0,1022.0,-333.0,1490.0,3633.0,,,,0.0332026517682602,-2.07558119050729,0.0410424614367079,,3.552061709801512,,
,7272.0,826.0,5177.0,1023.0,-317.0,1481.0,3619.0,,,,0.0332581800542298,-2.07565447011093,0.04088054602654,,3.5242917508163227,,
,7277.0,826.0,5176.0,1025.0,-305.0,1487.0,3615.0,,,,0.0332636444088873,-2.07514512658662,0.0410218368583046,,3.4333402360205825,,
,7278.0,825.0,5177.0,1026.0,-323.0,1493.0,3622.0,,,,0.0332096487447489,-2.07491114677748,0.0408680322052941,,3.282504050418018,,
,7283.0,831.0,5183.0,1026.0,-333.0,1501.0,3634.0,,,,0.0332978751735013,-2.07485820663472,0.0411027663768893,,3.076863712544512,,
,7282.0,827.0,5185.0,1028.0,-339.0,1499.0,3636.0,,,,0.0332921588957762,-2.07495662334554,0.0409442574838681,,2.8231671400097653,,
,7288.0,829.0,5190.0,1029.0,-342.0,1494.0,3641.0,,,,0.0333240234690364,-2.07477635217388,0.0409342612870231,,2.5296015441081714,,
,7290.0,829.0,5189.0,1028.0,-352.0,1498.0,3640.0,,,,0.0333356375746535,-2.07482672004316,0.0412867154199672,,2.205452755372921,,
,7291.0,828.0,5192.0,1027.0,-342.0,1497.0,3638.0,,,,0.0333909823896155,-2.07443871091258,0.0415790066380201,,1.8606654650907297,,
,7297.0,830.0,5193.0,1030.0,-322.0,1492.0,3628.0,,,,0.0334062273390068,-2.07408836071567,0.0412616879103027,,1.5053327378752703,,
,7298.0,829.0,5196.0,1029.0,-333.0,1490.0,3627.0,,,,0.0334157088477825,-2.07403480799625,0.0415202742650113,,1.1491569167156825,,
,7303.0,832.0,5198.0,1032.0,-334.0,1492.0,3627.0,,,,0.0334464134571364,-2.07447355856757,0.0413396744823889,,0.8009337617462533,,
,7302.0,831.0,5201.0,1031.0,-336.0,1498.0,3652.0,,,,0.0334660919612227,-2.07422496559243,0.0415051482952397,,0.46811389538923864,,
,7307.0,832.0,5205.0,1033.0,-332.0,1498.0,3631.0,,,,0.0335305455699605,-2.07384228581143,0.0413359786884112,,0.1564881862927381,,
,7310.0,831.0,5205.0,1033.0,-314.0,1502.0,3645.0,,,,0.0335036287318452,-2.07421661889747,0.041468264273905,,-0.12997264583618415,,
,7311.0,832.0,5210.0,1036.0,-313.0,1503.0,3636.0,,,,0.0335635477749477,-2.07383427992655,0.0416761818658515,,-0.3891154102993058,,
,7314.0,832.0,5210.0,1035.0,-338.0,1495.0,3640.0,,,,0.0335348986112633,-2.07380273064577,0.0415164962005549,,-0.6204516445386222,,
,7315.0,833.0,5213.0,1034.0,-325.0,1499.0,3629.0,,,,0.0335521661833324,-2.07337229628285,0.0416128272214953,,-0.8248851362906668,,
,7316.0,830.0,5215.0,1036.0,-328.0,1493.0,3638.0,,,,0.0334410677414043,-2.07321889772662,0.0413533943864929,,-1.0043617667697586,,
,7317.0,833.0,5215.0,1035.0,-319.0,1500.0,3651.0,,,,0.0334768813196109,-2.07327736639626,0.0418907838845949,,-1.161488473054015,,
,7317.0,832.0,5214.0,1033.0,-318.0,1507.0,3645.0,,,,0.0336592620702314,-2.07288664657201,0.0415162136480682,,-1.29916681409079,,
,7308.0,831.0,5211.0,1034.0,-311.0,1502.0,3638.0,,,,0.0336302125416916,-2.07288892385007,0.0417512935846271,,-1.4202802816582234,,
,7308.0,833.0,5209.0,1033.0,-315.0,1503.0,3622.0,,,,0.033563020958206,-2.07282138164322,0.0416310036548769,,-1.5274642037228172,,
,7299.0,830.0,5203.0,1031.0,-329.0,1504.0,3622.0,,,,0.0336317219772414,-2.07308009994619,0.0418872733774262,,-1.6229736931989849,,
,7291.0,829.0,5200.0,1028.0,-326.0,1501.0,3629.0,,,,0.0336021752114285,-2.0732164989339,0.041603342515437,,-1.7086495208784171,,
,7282.0,827.0,5189.0,1027.0,-318.0,1506.0,3647.0,,,,0.0336852223047687,-2.07215524288011,0.0419712375962408,,-1.7859656510152595,,
,7277.0,830.0,5187.0,1023.0,-326.0,1499.0,3634.0,,,,0.0336529917006709,-2.07235649792863,0.0418663429590924,,-1.8561281675172272,,
,7266.0,828.0,5179.0,1022.0,-321.0,1489.0,3647.0,,,,0.0336156919998626,-2.07242768679154,0.0420171201790418,,-1.9201868053496498,,
,7257.0,821.0,5173.0,1019.0,-320.0,1493.0,3659.0,,,,0.0336244016318583,-2.07260905207804,0.0417135047705957,,-1.9791199472879206,,
,7248.0,825.0,5165.0,1017.0,-320.0,1493.0,3656.0,,,,0.033685000539887,-2.07277192559539,0.0417395812103498,,-2.033862148370629,,
,7241.0,823.0,5161.0,1015.0,-322.0,1505.0,3635.0,,,,0.0336598320746567,-2.072012481247,0.041957243056419,,-2.085257741256828,,
,7236.0,822.0,5157.0,1015.0,-323.0,1500.0,3653.0,,,,0.0337697541130813,-2.07218754195566,0.0420090500503222,,-2.133941073344628,,
,7231.0,824.0,5156.0,1012.0,-330.0,1494.0,3645.0,,,,0.0336480722053029,-2.07210271555899,0.0420769077853838,,-2.180159829061045,,
,7227.0,819.0,5150.0,1011.0,-322.0,1499.0,3615.0,,,,0.0336378307183978,-2.07300399634395,0.0419549633695677,,-2.223570285479007,,
,7222.0,820.0,5146.0,1007.0,-319.0,1506.0,3637.0,,,,0.0336225997236334,-2.07300728237105,0.0413694814057015,,-2.2630410329674366,,
,7219.0,821.0,5143.0,1007.0,-323.0,1509.0,3651.0,,,,0.0335387409494678,-2.07385204982114,0.0417636438062891,,-2.2965042190818714,,
,7216.0,821.0,5141.0,1011.0,-324.0,1497.0,3629.0,,,,0.0335041735374742,-2.07455010730789,0.0414248849203839,,-2.320890669460371,,
,7216.0,820.0,5142.0,1005.0,-330.0,1493.0,3627.0,,,,0.0334245811102802,-2.07551971102858,0.0408421823963924,,-2.3321774226243175,,
,7211.0,818.0,5140.0,1003.0,-331.0,1488.0,3634.0,,,,0.033294417544679,-2.07581202207281,0.0409315390708364,,-2.3255635894174658,,
,7210.0,818.0,5142.0,1005.0,-318.0,1500.0,3616.0,,,,0.0332504838844708,-2.07630400177326,0.0408047451559096,,-2.2957736934352138,,
,7209.0,821.0,5138.0,1007.0,-324.0,1497.0,3624.0,,,,0.0332082567235262,-2.07698906538836,0.0407062531609986,,-2.237468218772964,,
,7211.0,821.0,5139.0,1005.0,-325.0,1500.0,3640.0,,,,0.0331375987072901,-2.07671473149978,0.0405961421007612,,-2.1457216630228992,,
,7209.0,819.0,5136.0,1005.0,-327.0,1507.0,3641.0,,,,0.0330353373432535,-2.07766393619624,0.0405137577691137,,-2.016512990000942,,
,7208.0,818.0,5137.0,1004.0,-326.0,1505.0,3621.0,,,,0.0330583334158102,-2.0778754474563,0.0401652878889274,,-1.847166468035215,,
,7210.0,821.0,5136.0,1004.0,-327.0,1497.0,3641.0,,,,0.0329046751214465,-2.07798143133254,0.0404525287985955,,-1.63668535962961,,
,7211.0,823.0,5138.0,1008.0,-319.0,1501.0,3638.0,,,,0.0328568136270911,-2.07801204152926,0.0403405466758115,,-1.3859363589407852,,
,7211.0,821.0,5139.0,1006.0,-312.0,1510.0,3647.0,,,,0.0329574349562602,-2.07753733151713,0.0404003539361055,,-1.0976653595609538,,
,7210.0,820.0,5141.0,1003.0,-324.0,1492.0,3662.0,,,,0.032914407480697,-2.07741741825753,0.0404064759586838,,-0.7763498365545912,,
,7216.0,822.0,5141.0,1006.0,-332.0,1490.0,3642.0,,,,0.0328556843100728,-2.07821579688683,0.0401568198870284,,-0.42791497375102483,,
,7215.0,819.0,5142.0,1006.0,-327.0,1493.0,3635.0,,,,0.0329686756876469,-2.07830239155677,0.0403345423652535,,-0.059356306980604095,,
,7217.0,822.0,5144.0,1006.0,-335.0,1493.0,3628.0,,,,0.0329909261250641,-2.07791608559286,0.0404206489029916,,0.32168043652789935,,
,7216.0,821.0,5143.0,1007.0,-340.0,1491.0,3651.0,,,,0.0329469092311578,-2.07786727983468,0.0404874483904477,,0.7073113951709032,,
,7218.0,822.0,5145.0,1007.0,-318.0,1494.0,3654.0,,,,0.0329663788141752,-2.0779920868902,0.0404693079008379,,1.0897740658044,,
,7221.0,824.0,5146.0,1008.0,-310.0,1504.0,3646.0,,,,0.0329270022926721,-2.07749629975516,0.0404971563742866,,1.4617015661467025,,
,7221.0,822.0,5146.0,1005.0,-323.0,1505.0,3641.0,,,,0.0331065605293033,-2.07708428702685,0.0406837532380421,,1.8162947654413242,,
,7222.0,822.0,5147.0,1006.0,-344.0,1500.0,3609.0,,,,0.0330964494152127,-2.07699656392074,0.0407953882081451,,2.147393444995811,,
,7221.0,821.0,5146.0,1005.0,-321.0,1493.0,3619.0,,,,0.0331584856833366,-2.07685454042643,0.0410441057501065,,2.449465569946583,,
,7222.0,822.0,5146.0,1006.0,-330.0,1496.0,3647.0,,,,0.0332053704665868,-2.07677393396643,0.0409677057606662,,2.7175481725126795,,
,7223.0,823.0,5149.0,1008.0,-326.0,1501.0,3653.0,,,,0.033179276623354,-2.07634174173792,0.0406535306642154,,2.947180716823181,,
,7223.0,824.0,5149.0,1008.0,-323.0,1501.0,3653.0,,,,0.0332094162977711,-2.07615464981243,0.040812347343586,,3.134369956656946,,
,7220.0,821.0,5149.0,1005.0,-333.0,1496.0,3642.0,,,,0.0332283483627401,-2.0756921055357,0.0410087576505318,,3.275614721588427,,
,7222.0,824.0,5147.0,1008.0,-327.0,1499.0,3634.0,,,,0.0332659770676051,-2.07598983642521,0.0411090620991279,,3.368002793992808,,
,7225.0,823.0,5146.0,1008.0,-316.0,1506.0,3651.0,,,,0.0332793525347485,-2.07630486342293,0.041386943973791,,3.4093740417031664,,
,7220.0,821.0,5149.0,1006.0,-311.0,1505.0,3664.0,,,,0.0333240468577976,-2.07541984205774,0.0410877553682986,,3.398527740886952,,
,7219.0,819.0,5146.0,1007.0,-321.0,1504.0,3643.0,,,,0.0332724927939145,-2.07520114311466,0.0411133034579127,,3.3354401338627544,,
,7221.0,821.0,5146.0,1006.0,-325.0,1503.0,3638.0,,,,0.0333117523294133,-2.07470694312352,0.0411287316038793,,3.2214523438565257,,
,7223.0,824.0,5148.0,1009.0,-328.0,1492.0,3647.0,,,,0.0332828239506519,-2.07513762119371,0.041016430962378,,3.059389358675552,,
,7220.0,823.0,5147.0,1009.0,-336.0,1498.0,3645.0,,,,0.0332272073209317,-2.07506899961807,0.0410995399290396,,2.853577479319964,,
,7219.0,821.0,5146.0,1005.0,-329.0,1506.0,3650.0,,,,0.0332066579740734,-2.0753933927815,0.0408778727746894,,2.6097395159060635,,
2025-08-05 16:12:29,7221.0,821.0,5146.0,1005.0,-322.0,1506.0,3665.0,,,2025/08/05 04:12:29 PM,0.0332611081101566,-2.07597821453845,0.0410490656998619,,2.334763022144929,,
,7221.0,824.0,5151.0,1007.0,-312.0,1498.0,3656.0,,,,0.0333323114327175,-2.07586753512422,0.041146922402456,,2.0363554261186065,,
,7221.0,824.0,5152.0,1011.0,-326.0,1491.0,3630.0,,,,0.0332500199239976,-2.07646561915108,0.0409383957688083,,1.7226183988480712,,
,7221.0,823.0,5151.0,1008.0,-340.0,1488.0,3622.0,,,,0.0332397880135391,-2.07601281810891,0.0410879571152632,,1.401588331146633,,
,7222.0,821.0,5153.0,1006.0,-336.0,1487.0,3623.0,,,,0.0332554178156387,-2.0760891819047,0.0413313224272301,,1.080796315823176,,
,7224.0,824.0,5151.0,1009.0,-311.0,1496.0,3617.0,,,,0.0331959666201058,-2.07633060146992,0.0408294781150925,,0.7668974012854907,,
,7225.0,823.0,5155.0,1007.0,-323.0,1503.0,3653.0,,,,0.0332191823297715,-2.07622778609538,0.0411957887394314,,0.4654062332416317,,
,7231.0,824.0,5154.0,1009.0,-333.0,1505.0,3660.0,,,,0.0330272605940274,-2.07658078479684,0.0408249661708692,,0.18055832563984575,,
,7226.0,822.0,5155.0,1008.0,-336.0,1500.0,3657.0,,,,0.0329778902284447,-2.07676463558097,0.0410188053395736,,-0.08470246876859917,,
,7228.0,824.0,5159.0,1008.0,-333.0,1488.0,3653.0,,,,0.0329961741853535,-2.07673924304697,0.0409132287953647,,-0.32862581960564147,,
,7234.0,827.0,5160.0,1010.0,-331.0,1492.0,3651.0,,,,0.0330446289646028,-2.07668905008111,0.0406434652357098,,-0.550473432593706,,
,7236.0,825.0,5164.0,1012.0,-325.0,1496.0,3655.0,,,,0.0330516165670605,-2.0771766678784,0.0403960345999134,,-0.7502885408327029,,
,7238.0,826.0,5164.0,1011.0,-315.0,1493.0,3638.0,,,,0.0329778923246379,-2.07681937793222,0.0407746955718531,,-0.9286530690244268,,
,7239.0,826.0,5165.0,1011.0,-320.0,1488.0,3628.0,,,,0.0329976559587406,-2.07672806732316,0.0406563730457606,,-1.0864671609934675,,
,7242.0,824.0,5169.0,1010.0,-316.0,1495.0,3627.0,,,,0.0329667505233945,-2.07723567344344,0.0407613891164093,,-1.224779542734202,,
,7244.0,824.0,5169.0,1013.0,-314.0,1504.0,3624.0,,,,0.0329689308194049,-2.07687772944283,0.0406336458524071,,-1.3446870096932102,,
,7246.0,827.0,5172.0,1013.0,-311.0,1513.0,3639.0,,,,0.0330243051378792,-2.07761446896798,0.040754988033752,,-1.4473079887112468,,
,7250.0,825.0,5173.0,1012.0,-312.0,1514.0,3657.0,,,,0.0330507309935136,-2.07712762642915,0.0405315310407864,,-1.53382050675789,,
,7250.0,825.0,5177.0,1014.0,-332.0,1500.0,3648.0,,,,0.0330273332875243,-2.07758431100336,0.0405293896273504,,-1.6055420085410406,,
,7254.0,828.0,5180.0,1016.0,-337.0,1491.0,3632.0,,,,0.0331107723220803,-2.07724937616151,0.0408228833784716,,-1.6640205957153145,,
,7258.0,828.0,5181.0,1016.0,-338.0,1490.0,3627.0,,,,0.0331243087843897,-2.0765817535642,0.040664364273415,,-1.7111063895740473,,
,7261.0,828.0,5183.0,1016.0,-334.0,1492.0,3655.0,,,,0.0330061557169158,-2.07664212641598,0.040703149248374,,-1.748977373751352,,
,7262.0,829.0,5184.0,1017.0,-322.0,1503.0,3654.0,,,,0.0330259043160606,-2.07668228953544,0.0407628593513777,,-1.7801037822553498,,
,7267.0,832.0,5192.0,1020.0,-313.0,1501.0,3644.0,,,,0.033092691909181,-2.07692527400975,0.0405644052495647,,-1.8071460236443897,,
,7268.0,832.0,5193.0,1021.0,-319.0,1497.0,3648.0,,,,0.0331126975736777,-2.07665612801553,0.0405495731596105,,-1.8327913799330848,,
,7272.0,830.0,5192.0,1019.0,-323.0,1494.0,3657.0,,,,0.033080314652158,-2.07687854572548,0.0405766891449753,,-1.8595434833141242,,
,7275.0,831.0,5196.0,1020.0,-323.0,1491.0,3644.0,,,,0.0330637363453836,-2.07715009670046,0.0407583596373499,,-1.889485557721775,,
,7277.0,831.0,5200.0,1023.0,-323.0,1502.0,3656.0,,,,0.0329830804560509,-2.07725396372188,0.0411034254850738,,-1.924043305793236,,
,7281.0,831.0,5203.0,1023.0,-322.0,1498.0,3657.0,,,,0.0329993299031815,-2.07736230099232,0.0406722059954979,,-1.9637756335293408,,
,7283.0,833.0,5206.0,1021.0,-324.0,1499.0,3649.0,,,,0.0330412221534535,-2.07685283872701,0.0408201241080038,,-2.0082205156594406,,
,7284.0,832.0,5205.0,1022.0,-344.0,1494.0,3632.0,,,,0.0330985503454121,-2.07634660836959,0.0407397393898294,,-2.055818639341695,,
,7288.0,833.0,5210.0,1023.0,-337.0,1491.0,3625.0,,,,0.033155154885242,-2.07633512797241,0.0408547960299112,,-2.103928849997598,,
,7290.0,835.0,5212.0,1024.0,-353.0,1493.0,3636.0,,,,0.033079420060056,-2.07626862148432,0.0406441931940259,,-2.148937669309779,,
,7293.0,834.0,5212.0,1026.0,-348.0,1501.0,3637.0,,,,0.0331548607233901,-2.07630297355923,0.040958421954886,,-2.1864525204899596,,
,7295.0,833.0,5214.0,1025.0,-337.0,1498.0,3638.0,,,,0.0330131366737789,-2.07608158481713,0.0410006537798803,,-2.2115580688447443,,
,7299.0,832.0,5217.0,1026.0,-319.0,1494.0,3623.0,,,,0.033149369692473,-2.07548441691305,0.0412069479499982,,-2.2191099357323347,,
,7302.0,835.0,5217.0,1028.0,-322.0,1493.0,3637.0,,,,0.0331592826712531,-2.07523997636238,0.0410642465117958,,-2.20404032714416,,
,7305.0,838.0,5223.0,1028.0,-311.0,1487.0,3643.0,,,,0.0332229551746396,-2.07550126856952,0.0413353844863379,,-2.1616538418543882,,
,7306.0,837.0,5224.0,1028.0,-297.0,1484.0,3660.0,,,,0.0332014242051952,-2.0750382884229,0.0413438825251208,,-2.0878962117382236,,
,7308.0,834.0,5226.0,1029.0,-297.0,1486.0,3663.0,,,,0.0332513208602743,-2.07473667033294,0.0412136948901408,,-1.9795823577510012,,
,7314.0,837.0,5228.0,1032.0,-324.0,1495.0,3644.0,,,,0.0332658004572241,-2.07601294321526,0.0412070487067543,,-1.8345728798546637,,
,7313.0,836.0,5232.0,1031.0,-334.0,1492.0,3641.0,,,,0.0332613467229446,-2.0751920182444,0.0413211937583453,,-1.6518909261432737,,
,7313.0,836.0,5232.0,1034.0,-331.0,1494.0,3639.0,,,,0.0332897267924678,-2.07497554769123,0.0414884909660232,,-1.4317754557582059,,
,7317.0,837.0,5231.0,1033.0,-333.0,1500.0,3658.0,,,,0.0332553478446752,-2.07516813371693,0.041416035443004,,-1.175672717699926,,
,7313.0,838.0,5232.0,1031.0,-334.0,1499.0,3659.0,,,,0.0332456121872918,-2.07477155198772,0.0412833676148092,,-0.8861745201749754,,
,7307.0,836.0,5232.0,1029.0,-331.0,1493.0,3648.0,,,,0.0332480523731424,-2.0745503647274,0.0412801329126237,,-0.5669174665411446,,
,7302.0,839.0,5228.0,1028.0,-331.0,1495.0,3641.0,,,,0.0333037956631439,-2.07428289056334,0.0414557847423891,,-0.2224593722947509,,
,7297.0,833.0,5221.0,1026.0,-320.0,1495.0,3629.0,,,,0.0333087686588847,-2.07452112652321,0.0413078711692932,,0.14185357284196876,,
,7285.0,831.0,5219.0,1022.0,-323.0,1501.0,3625.0,,,,0.0333102452717647,-2.07488302412983,0.0413484772924368,,0.5200214451442359,,
,7278.0,833.0,5214.0,1022.0,-315.0,1501.0,3634.0,,,,0.0333059710746105,-2.07448255938244,0.0415144345540001,,0.9055260910377254,,
,7269.0,833.0,5210.0,1017.0,-315.0,1505.0,3648.0,,,,0.0333677220319526,-2.07431452437155,0.0415931482173948,,1.2914705608256034,,
,7261.0,830.0,5203.0,1016.0,-300.0,1496.0,3667.0,,,,0.0333455063029991,-2.07433041088223,0.04169007943072,,1.670726115201446,,
,7253.0,830.0,5198.0,1013.0,-313.0,1487.0,3647.0,,,,0.0334219483450508,-2.07408752689857,0.0416489046620145,,2.036088773179807,,
,7246.0,829.0,5194.0,1011.0,-332.0,1472.0,3640.0,,,,0.0333664086655982,-2.07400795351781,0.0415358064429547,,2.3804452030230125,,
,7237.0,826.0,5187.0,1011.0,-326.0,1488.0,3651.0,,,,0.0333396816032185,-2.07382100628419,0.041554623774744,,2.6969460358797446,,
,7233.0,828.0,5184.0,1008.0,-325.0,1488.0,3649.0,,,,0.0333078779124042,-2.07455008416113,0.0412248996819872,,2.979183309749409,,
,7224.0,826.0,5179.0,1004.0,-323.0,1501.0,3646.0,,,,0.0333099292628067,-2.07473770168455,0.0412612592944717,,3.221367200154794,,
,7217.0,827.0,5177.0,1004.0,-334.0,1506.0,3638.0,,,,0.0332194491127935,-2.07526595857488,0.0411333387606896,,3.4184951504755245,,
,7216.0,825.0,5176.0,1003.0,-337.0,1501.0,3627.0,,,,0.0332138182792987,-2.07630133436841,0.0408739022181171,,3.5665042928478536,,
,7210.0,825.0,5175.0,1003.0,-345.0,1503.0,3631.0,,,,0.033089142107812,-2.07680731302434,0.0405611481069071,,3.6623966717178864,,
,7209.0,825.0,5172.0,1000.0,-327.0,1504.0,3631.0,,,,0.033006531813204,-2.07708833214786,0.0408485745183928,,3.7043275778430798,,
,7208.0,826.0,5170.0,1001.0,-316.0,1500.0,3637.0,,,,0.0329362369335591,-2.07822053965558,0.0401944724027342,,3.6916510832217564,,
,7203.0,826.0,5171.0,1000.0,-317.0,1492.0,3634.0,,,,0.0329616509014798,-2.07888109785358,0.0403201615263989,,3.6249230816634515,,
,7203.0,822.0,5169.0,999.0,-316.0,1485.0,3630.0,,,,0.0328346293449877,-2.0787704333873,0.0400182165435358,,3.505868612167768,,
,7202.0,823.0,5167.0,1000.0,-334.0,1479.0,3635.0,,,,0.032802675749811,-2.07886702612213,0.0400715699984104,,3.3373240698659976,,
,7198.0,825.0,5168.0,999.0,-330.0,1491.0,3640.0,,,,0.032791270838342,-2.07946737476602,0.0400034794632367,,3.1231642166324725,,
,7200.0,824.0,5166.0,999.0,-321.0,1493.0,3651.0,,,,0.0326880620660438,-2.07969286863188,0.0400168807250695,,2.8682190996056898,,
,7200.0,825.0,5167.0,999.0,-338.0,1495.0,3669.0,,,,0.032634862673523,-2.07935793522003,0.039632305044128,,2.5781794262158453,,
,7198.0,824.0,5166.0,1000.0,-342.0,1493.0,3660.0,,,,0.0326087008591433,-2.07939781833812,0.0401801498321715,,2.2594834680324425,,
,7196.0,822.0,5166.0,998.0,-332.0,1498.0,3641.0,,,,0.032532066351946,-2.07926970193272,0.039967584701177,,1.9191761568629944,,
,7197.0,825.0,5167.0,996.0,-329.0,1491.0,3644.0,,,,0.0325062429789745,-2.07907325423869,0.0399687171646517,,1.564732284553138,,
,7200.0,824.0,5169.0,1000.0,-320.0,1496.0,3652.0,,,,0.0325768261020537,-2.0795462037209,0.039971242928238,,1.2038400034475842,,
,7202.0,827.0,5169.0,1000.0,-327.0,1491.0,3653.0,,,,0.0326977062772542,-2.07918726770489,0.0401823384915895,,0.8441469065833186,,
,7200.0,824.0,5168.0,999.0,-327.0,1493.0,3659.0,,,,0.0327077957483392,-2.0787819523483,0.0398273254652034,,0.49297764630869695,,
,7200.0,823.0,5169.0,999.0,-319.0,1493.0,3647.0,,,,0.0327127645255344,-2.07846787805483,0.0402003889921379,,0.15703855118218943,,
,7201.0,825.0,5170.0,997.0,-322.0,1489.0,3636.0,,,,0.0328458593952638,-2.07824736690277,0.0402106028526989,,-0.15786946932913512,,
,7206.0,825.0,5172.0,998.0,-333.0,1489.0,3631.0,,,,0.0327973818527851,-2.07815583093527,0.04035968136055,,-0.4471040500947166,,
,7203.0,826.0,5172.0,999.0,-328.0,1489.0,3627.0,,,,0.0328257007961147,-2.07836925444174,0.0405192828203992,,-0.7073733736324732,,
,7203.0,824.0,5172.0,1000.0,-312.0,1497.0,3632.0,,,,0.0328441167525109,-2.07822067748984,0.0403683979790534,,-0.9368431321299694,,
,7205.0,828.0,5176.0,1001.0,-313.0,1505.0,3640.0,,,,0.0327959972151815,-2.07793007321346,0.0404180856259408,,-1.1351431422267477,,
,7207.0,823.0,5175.0,999.0,-310.0,1500.0,3630.0,,,,0.0328803341824301,-2.07801120607275,0.0405103824810363,,-1.3032708093814687,,
,7208.0,824.0,5176.0,1001.0,-309.0,1501.0,3637.0,,,,0.032898296943759,-2.07764460713843,0.040425081259105,,-1.4434018966849573,,
,7209.0,825.0,5176.0,999.0,-321.0,1497.0,3631.0,,,,0.0328285651876721,-2.07731197947692,0.0409673187108081,,-1.5586299569770954,,
,7207.0,825.0,5178.0,1000.0,-317.0,1504.0,3638.0,,,,0.0328926870745804,-2.07718067744227,0.0407681086098245,,-1.6526625550278706,,
,7208.0,828.0,5179.0,1000.0,-322.0,1493.0,3650.0,,,,0.0328690062029271,-2.07690801609893,0.0407459375984554,,-1.729504733221831,,
,7210.0,827.0,5178.0,1002.0,-323.0,1494.0,3642.0,,,,0.0329725341975132,-2.07677473938972,0.04064154126451,,-1.7931586294698314,,
,7208.0,826.0,5177.0,998.0,-335.0,1498.0,3635.0,,,,0.0330043222115758,-2.0769628928257,0.0408896436088312,,-1.8473635884232744,,
,7206.0,825.0,5180.0,1003.0,-335.0,1498.0,3646.0,,,,0.032976037467043,-2.07712192402877,0.04086517157335,,-1.8953943274364522,,
,7206.0,825.0,5179.0,1000.0,-325.0,1504.0,3654.0,,,,0.0330182027663952,-2.07726260626036,0.0409554625355386,,-1.9399263624902718,,
,7205.0,827.0,5179.0,999.0,-322.0,1510.0,3657.0,,,,0.0329702260408535,-2.07675130037991,0.0408303961742436,,-1.98296848501739,,
,7205.0,825.0,5176.0,998.0,-309.0,1507.0,3652.0,,,,0.0329485630499731,-2.07660393281345,0.0407158263462708,,-2.025852356111134,,
,7207.0,828.0,5178.0,996.0,-320.0,1493.0,3653.0,,,,0.0329792254886426,-2.07656153856814,0.0409911206926198,,-2.0692607172736754,,
,7207.0,827.0,5178.0,998.0,-346.0,1495.0,3649.0,,,,0.0330286128026585,-2.0766031757997,0.0408247401311141,,-2.113270623560279,,
,7208.0,827.0,5180.0,1000.0,-334.0,1495.0,3641.0,,,,0.0329503496719721,-2.07733225700591,0.0408091139404102,,-2.1573887895490844,,
,7205.0,828.0,5180.0,1000.0,-328.0,1501.0,3653.0,,,,0.0329349747764637,-2.0768190992588,0.0410223776435628,,-2.200563256836157,,
,7208.0,827.0,5181.0,999.0,-324.0,1503.0,3643.0,,,,0.0328873266025852,-2.07700088541654,0.0403113691214453,,-2.2411672518209267,,
,7206.0,827.0,5181.0,1000.0,-321.0,1502.0,3632.0,,,,0.0329009500208442,-2.07752520519376,0.0404139178397545,,-2.276963763559551,,
,7209.0,825.0,5185.0,998.0,-331.0,1501.0,3637.0,,,,0.0328380203277349,-2.07728998461899,0.0404760546111406,,-2.3050696482313877,,
,7211.0,828.0,5188.0,1001.0,-338.0,1501.0,3636.0,,,,0.0328315747301683,-2.07774565306496,0.040758261689782,,-2.321943876986832,,
,7210.0,830.0,5187.0,1000.0,-336.0,1506.0,3640.0,,,,0.0328671791722959,-2.07774891265981,0.0406542280463518,,-2.3234251632585767,,
,7210.0,829.0,5188.0,1001.0,-330.0,1494.0,3644.0,,,,0.032803022896684,-2.07813552599169,0.0404002303712473,,-2.3048398204970977,,
,7215.0,829.0,5189.0,1002.0,-326.0,1485.0,3639.0,,,,0.0327606749045696,-2.07798022262045,0.040561168874297,,-2.2611920597691455,,
,7216.0,828.0,5191.0,1003.0,-321.0,1485.0,3638.0,,,,0.0328402319303716,-2.07793035996161,0.0406566403567629,,-2.1874371964773474,,
,7218.0,828.0,5191.0,1003.0,-323.0,1485.0,3642.0,,,,0.0328306424256338,-2.07771934547381,0.0405466616434028,,-2.0788248535819265,,
,7221.0,830.0,5195.0,1003.0,-326.0,1501.0,3648.0,,,,0.0329191698994288,-2.07803649375681,0.040798254483497,,-1.9312859215949516,,
,7222.0,831.0,5197.0,1003.0,-320.0,1496.0,3644.0,,,,0.0328063049687139,-2.07857582912663,0.0401731436916612,,-1.7418258098489243,,
,7226.0,832.0,5199.0,1003.0,-320.0,1504.0,3648.0,,,,0.0328759470671245,-2.07866191209322,0.0401451738902768,,-1.5088799267139417,,
,7229.0,829.0,5200.0,1004.0,-326.0,1501.0,3645.0,,,,0.0328205661120687,-2.07798109848325,0.0403099457311384,,-1.2325879495742444,,
,7232.0,831.0,5203.0,1004.0,-336.0,1497.0,3636.0,,,,0.0328761865889824,-2.07800995662712,0.0405457567807155,,-0.9149526030508899,,
,7233.0,830.0,5206.0,1007.0,-324.0,1492.0,3618.0,,,,0.0329194519824071,-2.07792241363866,0.0403511517818802,,-0.5598649431392229,,
,7239.0,831.0,5208.0,1008.0,-326.0,1495.0,3621.0,,,,0.0329282101442377,-2.07818417334397,0.0404556181109547,,-0.17299740595043925,,
,7237.0,831.0,5211.0,1007.0,-330.0,1497.0,3630.0,,,,0.0328518894441998,-2.07805728827762,0.0403755935634879,,0.23841689317821027,,
,7241.0,830.0,5212.0,1009.0,-324.0,1493.0,3660.0,,,,0.0328177361044109,-2.07777797321704,0.0402670270051801,,0.6658885583354845,,
,7245.0,833.0,5214.0,1008.0,-327.0,1500.0,3652.0,,,,0.0329356541161497,-2.07731126700843,0.0402550494807521,,1.1000252602656015,,
,7248.0,834.0,5215.0,1010.0,-328.0,1501.0,3653.0,,,,0.0329132749538433,-2.07756487319681,0.0408755194977143,,1.5309006807262253,,
,7250.0,833.0,5220.0,1011.0,-326.0,1501.0,3651.0,,,,0.0328782496693209,-2.07746515920173,0.0405536035272153,,1.948411444519815,,
,7251.0,834.0,5221.0,1012.0,-321.0,1491.0,3659.0,,,,0.03292547926066,-2.07734752352154,0.0407666061509169,,2.342602622365694,,
,7256.0,835.0,5223.0,1013.0,-324.0,1491.0,3629.0,,,,0.032862241207739,-2.07767812486212,0.040741632774523,,2.7039515002341616,,
,7260.0,837.0,5228.0,1013.0,-315.0,1497.0,3638.0,,,,0.032872493048598,-2.07703808126651,0.0407483188826798,,3.023608315184721,,
,7264.0,837.0,5231.0,1014.0,-323.0,1500.0,3645.0,,,,0.0328921008468715,-2.07705052577176,0.0406657512476107,,3.293600762629716,,
,7268.0,836.0,5234.0,1013.0,-319.0,1505.0,3635.0,,,,0.0329530413927821,-2.07723693981581,0.0410264309643759,,3.5070152388027953,,
,7268.0,834.0,5235.0,1015.0,-314.0,1509.0,3655.0,,,,0.0329655394332572,-2.07734557712927,0.0405993071902967,,3.65817039941148,,
,7271.0,836.0,5237.0,1018.0,-320.0,1500.0,3670.0,,,,0.0329680109918901,-2.07732360910592,0.0408669589994661,,3.7427959439882095,,
,7273.0,837.0,5242.0,1017.0,-321.0,1496.0,3651.0,,,,0.0329354397671407,-2.07756399556108,0.0408118181720648,,3.7582209018383064,,
,7277.0,838.0,5244.0,1017.0,-330.0,1500.0,3650.0,,,,0.0329566502498529,-2.07670104028619,0.0405917757114298,,3.70356273454453,,
,7282.0,838.0,5248.0,1018.0,-323.0,1504.0,3644.0,,,,0.0329572287428891,-2.07638336008945,0.0409307188410808,,3.5798951378899653,,
,7283.0,836.0,5247.0,1017.0,-319.0,1500.0,3630.0,,,,0.0329867245307588,-2.07659176626897,0.0408893077905266,,3.3903629463685516,,
,7288.0,841.0,5250.0,1021.0,-321.0,1508.0,3640.0,,,,0.0330786123015293,-2.07625058219166,0.0407623516424958,,3.1402100732812923,,
2025-08-05 16:12:30,7288.0,841.0,5253.0,1021.0,-318.0,1510.0,3645.0,,,2025/08/05 04:12:30 PM,0.0330341492467665,-2.07617185890629,0.0409547922133789,,2.836691708920772,,
,7292.0,838.0,5255.0,1023.0,-346.0,1493.0,3644.0,,,,0.0331145830970703,-2.07584486685405,0.0408355799942654,,2.488853683546447,,
,7295.0,840.0,5258.0,1021.0,-342.0,1496.0,3646.0,,,,0.0330895925139346,-2.07666435729102,0.04083789041045,,2.1071773451267175,,
,7299.0,840.0,5261.0,1024.0,-338.0,1498.0,3644.0,,,,0.0330769375590521,-2.0763846742149,0.0409427800709514,,1.7031046587628085,,
,7302.0,841.0,5264.0,1023.0,-339.0,1509.0,3649.0,,,,0.0330788201657691,-2.07655963353421,0.040995267155111,,1.2884732913018504,,
,7306.0,842.0,5268.0,1025.0,-330.0,1500.0,3646.0,,,,0.0331372522394814,-2.07627308687476,0.0410098501781613,,0.8749038011160608,,
,7310.0,841.0,5270.0,1024.0,-332.0,1492.0,3647.0,,,,0.033118333298944,-2.07627858108005,0.0410652145155967,,0.47318964124529356,,
,7309.0,843.0,5272.0,1028.0,-320.0,1501.0,3639.0,,,,0.033084078806716,-2.07649624834694,0.0412700188550265,,0.0927441893819489,,
,7314.0,842.0,5274.0,1029.0,-305.0,1502.0,3635.0,,,,0.0331232071951195,-2.07594695493366,0.0408699651889379,,-0.25884410216613174,,
,7318.0,847.0,5280.0,1029.0,-303.0,1503.0,3645.0,,,,0.0331658991468065,-2.07610219714882,0.0409506206995082,,-0.5761079569858271,,
,7321.0,844.0,5281.0,1029.0,-309.0,1485.0,3646.0,,,,0.0330671805894159,-2.0766359284741,0.0410328315263212,,-0.8558255452307859,,
,7321.0,844.0,5284.0,1030.0,-312.0,1497.0,3637.0,,,,0.0330956356226627,-2.07606320539818,0.0412449355118274,,-1.0969698613634484,,
,7325.0,844.0,5287.0,1031.0,-333.0,1502.0,3647.0,,,,0.033113471768485,-2.07596444005178,0.0409855545204192,,-1.3005001087601513,,
,7327.0,847.0,5287.0,1031.0,-327.0,1504.0,3643.0,,,,0.0331836551379598,-2.07553503253837,0.041541616275574,,-1.4690278174582265,,
,7326.0,847.0,5289.0,1033.0,-317.0,1490.0,3664.0,,,,0.0332454885573787,-2.07556431278207,0.0408996780300535,,-1.606400420025092,,
,7321.0,844.0,5289.0,1028.0,-309.0,1497.0,3633.0,,,,0.0331203449528746,-2.07591304049943,0.0413026885647202,,-1.7172487502670988,,
,7320.0,845.0,5284.0,1028.0,-315.0,1498.0,3621.0,,,,0.0331675739232102,-2.07563153538598,0.0411669554889855,,-1.8065429540232336,,
,7314.0,845.0,5282.0,1027.0,-322.0,1500.0,3626.0,,,,0.0332091991138485,-2.07569608038424,0.0412961611743044,,-1.879194675768332,,
,7307.0,842.0,5280.0,1028.0,-327.0,1496.0,3640.0,,,,0.0331756727675586,-2.07527498491503,0.0409916067183329,,-1.9397333068822926,,
,7299.0,841.0,5276.0,1023.0,-311.0,1506.0,3667.0,,,,0.0331546887168768,-2.07547481423286,0.0414349854768203,,-1.992071662659032,,
,7292.0,841.0,5274.0,1021.0,-323.0,1499.0,3656.0,,,,0.0330902720668398,-2.07585917967737,0.0408786131961902,,-2.0393628272529956,,
,7283.0,842.0,5269.0,1018.0,-325.0,1498.0,3651.0,,,,0.0330923387546687,-2.07666701743485,0.0410469345708638,,-2.0839366383485673,,
,7276.0,841.0,5265.0,1015.0,-320.0,1499.0,3647.0,,,,0.0329961437078524,-2.07708608361893,0.0406165687957657,,-2.1272937388247413,,
,7268.0,840.0,5262.0,1013.0,-335.0,1492.0,3645.0,,,,0.0329181266229244,-2.07787889738631,0.0405610609963438,,-2.170130055327084,,
,7264.0,837.0,5258.0,1012.0,-325.0,1490.0,3655.0,,,,0.0328127249597237,-2.07865212332934,0.0403712656731977,,-2.212366708724192,,
,7259.0,837.0,5257.0,1011.0,-308.0,1516.0,3632.0,,,,0.0327449356353708,-2.07940511401013,0.0401938391766623,,-2.2531690597760288,,
,7254.0,838.0,5254.0,1011.0,-314.0,1515.0,3642.0,,,,0.0326817765616701,-2.08049450899173,0.0397203955153286,,-2.2909508745472964,,
,7247.0,835.0,5250.0,1006.0,-316.0,1500.0,3669.0,,,,0.032607975242238,-2.08125147739455,0.0393682958790526,,-2.323371706660717,,
,7245.0,838.0,5248.0,1007.0,-334.0,1500.0,3641.0,,,,0.0325842686086246,-2.08141017827175,0.0395718375315136,,-2.3473446213975047,,
,7242.0,837.0,5248.0,1007.0,-341.0,1501.0,3638.0,,,,0.0325309289807245,-2.08181562922656,0.0395240162799675,,-2.359075864646255,,
,7241.0,839.0,5251.0,1005.0,-320.0,1506.0,3647.0,,,,0.0324089665106199,-2.08144991120025,0.0396143689886127,,-2.354157677258134,,
,7239.0,835.0,5250.0,1006.0,-313.0,1509.0,3633.0,,,,0.0325008440688311,-2.08177201517195,0.0395671545092367,,-2.3277304775967136,,
,7234.0,833.0,5246.0,1004.0,-319.0,1500.0,3620.0,,,,0.0324032400577261,-2.08166735749937,0.0394078669667763,,-2.2747217977381227,,
,7236.0,836.0,5248.0,1002.0,-326.0,1506.0,3635.0,,,,0.032436256862957,-2.08142845957216,0.0396050141639056,,-2.1901577275685047,,
,7235.0,836.0,5249.0,1005.0,-323.0,1502.0,3649.0,,,,0.0324633570822317,-2.08123827999195,0.0395574495216278,,-2.06952957114746,,
,7236.0,836.0,5249.0,1002.0,-313.0,1499.0,3643.0,,,,0.0324539429932195,-2.08128020233925,0.0394703966722398,,-1.9091857174996854,,
,7237.0,837.0,5248.0,1002.0,-316.0,1503.0,3646.0,,,,0.032456309249842,-2.08135535026233,0.0395622423353808,,-1.7067087388026183,,
,7239.0,836.0,5248.0,1002.0,-329.0,1498.0,3623.0,,,,0.0324759248222551,-2.08126706705372,0.0396854272277062,,-1.4612333490230383,,
,7236.0,837.0,5250.0,1002.0,-322.0,1493.0,3620.0,,,,0.0324476052149497,-2.0815807714043,0.0390795460341169,,-1.1736646080725415,,
,7237.0,837.0,5249.0,1004.0,-324.0,1497.0,3628.0,,,,0.0324297912803835,-2.08103803874567,0.0399124359055484,,-0.8467681423033486,,
,7239.0,838.0,5254.0,1005.0,-332.0,1507.0,3630.0,,,,0.0325021510464022,-2.08074809032598,0.0395993835802953,,-0.48512253543083045,,
,7239.0,833.0,5254.0,1001.0,-320.0,1509.0,3641.0,,,,0.0325460570176638,-2.0806281691045,0.0398417126496587,,-0.09494347800038343,,
,7241.0,837.0,5256.0,1005.0,-326.0,1505.0,3653.0,,,,0.0325266454089366,-2.08071570922623,0.0396988625051242,,0.3161950694504236,,
,7245.0,839.0,5259.0,1005.0,-318.0,1505.0,3657.0,,,,0.0325361133774565,-2.08051867159679,0.0395250132542184,,0.7397081955521038,,
,7245.0,839.0,5258.0,1005.0,-321.0,1502.0,3660.0,,,,0.0325856838353965,-2.08009045410905,0.0396288753869678,,1.1663787115347664,,
,7244.0,839.0,5259.0,1005.0,-327.0,1500.0,3646.0,,,,0.0326035535479009,-2.08010344140375,0.039892236272455,,1.5867327817282895,,
,7247.0,842.0,5263.0,1007.0,-324.0,1511.0,3629.0,,,,0.0326790509608436,-2.07996425793432,0.0398434264427581,,1.9913845379953943,,
,7251.0,838.0,5264.0,1006.0,-323.0,1505.0,3619.0,,,,0.032610373228527,-2.08023562217671,0.0397684891173098,,2.371330444670681,,
,7251.0,840.0,5265.0,1005.0,-320.0,1505.0,3629.0,,,,0.0326102148395171,-2.0801959953585,0.0402382287984126,,2.7181843161527555,,
,7254.0,839.0,5265.0,1005.0,-330.0,1493.0,3633.0,,,,0.0326398069121009,-2.08027964297848,0.03997316002362,,3.0243546093555262,,
,7254.0,839.0,5267.0,1007.0,-320.0,1489.0,3621.0,,,,0.0326434070406767,-2.07982084553877,0.0400235773038611,,3.2831755954431996,,
,7257.0,841.0,5269.0,1007.0,-307.0,1498.0,3642.0,,,,0.0327425510759519,-2.07972042609163,0.0404171800862909,,3.4890111423975636,,
,7260.0,840.0,5270.0,1005.0,-309.0,1498.0,3636.0,,,,0.0326737112346822,-2.07966877584881,0.0402285757373794,,3.637351740462548,,
,7257.0,839.0,5269.0,1006.0,-326.0,1501.0,3642.0,,,,0.0326714528223674,-2.07980740994533,0.0401027489762484,,3.7249207115200145,,
,7257.0,840.0,5271.0,1007.0,-328.0,1500.0,3635.0,,,,0.0327446195335845,-2.07958427273449,0.0402486870485622,,3.7497950885870277,,
,7258.0,840.0,5272.0,1007.0,-317.0,1500.0,3626.0,,,,0.0327650621454246,-2.07901290275496,0.0400228711052416,,3.711533531511543,,
,7260.0,841.0,5271.0,1009.0,-318.0,1505.0,3625.0,,,,0.0327198592745278,-2.0789260718318,0.0402018632684599,,3.611291943703933,,
,7258.0,839.0,5273.0,1006.0,-319.0,1511.0,3635.0,,,,0.0327648846157773,-2.07935036708214,0.0402293616712203,,3.4519004903897397,,
,7258.0,840.0,5272.0,1007.0,-303.0,1515.0,3646.0,,,,0.032709538522463,-2.07930347803756,0.0403933017313637,,3.2378749307063885,,
,7258.0,839.0,5277.0,1007.0,-324.0,1507.0,3634.0,,,,0.0327872451527566,-2.07899352541337,0.0402108928258108,,2.975340062972776,,
,7260.0,840.0,5276.0,1008.0,-319.0,1498.0,3634.0,,,,0.0327818120280537,-2.0793415163458,0.0403142067558709,,2.6718519517915893,,
,7264.0,842.0,5280.0,1007.0,-323.0,1501.0,3640.0,,,,0.0327888340387375,-2.07909541647344,0.0403514275609069,,2.336116606626563,,
,7259.0,843.0,5279.0,1006.0,-326.0,1511.0,3653.0,,,,0.0327698029233896,-2.07891597314425,0.0400348700403248,,1.9776146542162718,,
,7258.0,840.0,5279.0,1006.0,-312.0,1500.0,3659.0,,,,0.0326193087301475,-2.07875588533458,0.0402706133515078,,1.6061536480753482,,
,7263.0,842.0,5282.0,1008.0,-313.0,1501.0,3649.0,,,,0.0325832107365312,-2.07930992668132,0.0401917851266959,,1.2313812529346722,,
,7264.0,842.0,5283.0,1008.0,-331.0,1491.0,3636.0,,,,0.0325086190498583,-2.07924588692014,0.0399896185648448,,0.8623019513439207,,
,7263.0,843.0,5282.0,1007.0,-334.0,1501.0,3632.0,,,,0.0326216945350506,-2.07979352760397,0.0399533106306202,,0.50684440733438,,
,7264.0,839.0,5285.0,1006.0,-340.0,1500.0,3630.0,,,,0.032628214943745,-2.07935144280299,0.0400983299508792,,0.17152355970734717,,
,7271.0,844.0,5286.0,1008.0,-330.0,1514.0,3650.0,,,,0.0326072979363156,-2.07964485933685,0.0401822591052287,,-0.13876977255280457,,
,7269.0,841.0,5288.0,1009.0,-323.0,1509.0,3658.0,,,,0.0325916071002784,-2.07913541938813,0.0401622075381691,,-0.42083634326653113,,
,7268.0,843.0,5289.0,1009.0,-336.0,1499.0,3656.0,,,,0.0325465327056075,-2.07967565799036,0.040175826684334,,-0.6730969257676115,,
,7272.0,842.0,5292.0,1008.0,-333.0,1495.0,3641.0,,,,0.0324510218516102,-2.07971092410981,0.0400295707814981,,-0.8954030021015239,,
,7274.0,844.0,5293.0,1009.0,-333.0,1500.0,3623.0,,,,0.0324819210106687,-2.0798731983385,0.0398683081144393,,-1.088763470627484,,
,7277.0,847.0,5296.0,1011.0,-321.0,1495.0,3625.0,,,,0.0324908402441496,-2.07933886377111,0.0400817648577246,,-1.2550277899654594,,
,7279.0,845.0,5295.0,1012.0,-311.0,1496.0,3633.0,,,,0.0325056465569678,-2.07952509477696,0.0399612896468033,,-1.3965668849815112,,
,7281.0,844.0,5297.0,1010.0,-302.0,1496.0,3642.0,,,,0.0325045801679094,-2.0794429678853,0.0399224319764561,,-1.5159890930593087,,
,7281.0,845.0,5299.0,1010.0,-316.0,1497.0,3634.0,,,,0.0324815147836832,-2.07992037037672,0.0399245348688515,,-1.6159202795050087,,
,7286.0,844.0,5302.0,1012.0,-316.0,1498.0,3623.0,,,,0.0325215455225826,-2.07964682858713,0.0400436550558923,,-1.6988656912140638,,
,7289.0,847.0,5303.0,1013.0,-321.0,1505.0,3631.0,,,,0.0326454069673386,-2.07875532008508,0.039769269290071,,-1.767156931937671,,
,7291.0,845.0,5306.0,1016.0,-319.0,1510.0,3633.0,,,,0.0326860684787382,-2.07902769293871,0.0400363772937524,,-1.8229721153000726,,
,7295.0,844.0,5308.0,1016.0,-322.0,1517.0,3629.0,,,,0.0326367050427395,-2.07899723149042,0.0402060661373118,,-1.8684034362746003,,
,7297.0,847.0,5310.0,1016.0,-329.0,1512.0,3622.0,,,,0.0327319995193547,-2.07877593509192,0.0402160008903113,,-1.9055375481528218,,
,7301.0,848.0,5313.0,1018.0,-345.0,1507.0,3625.0,,,,0.032740662990469,-2.07906468446647,0.0402374891897597,,-1.9365129822672318,,
,7305.0,848.0,5316.0,1019.0,-338.0,1509.0,3621.0,,,,0.0327117981035728,-2.0790115755488,0.0399009805457826,,-1.96352574873899,,
,7308.0,849.0,5319.0,1018.0,-338.0,1509.0,3630.0,,,,0.0326693268374637,-2.07830949553019,0.0400099894276599,,-1.9887668663411473,,
,7311.0,850.0,5321.0,1018.0,-329.0,1502.0,3658.0,,,,0.032734667403836,-2.07865532453586,0.040138666840005,,-2.014290279980932,,
,7313.0,851.0,5323.0,1019.0,-320.0,1497.0,3666.0,,,,0.03278408042398,-2.07823689493344,0.0403667398601715,,-2.041823356652403,,
,7315.0,849.0,5327.0,1020.0,-318.0,1494.0,3662.0,,,,0.0328136236509873,-2.07815977099401,0.0405707320955142,,-2.0725431331318576,,
,7322.0,852.0,5328.0,1021.0,-341.0,1479.0,3640.0,,,,0.0327431718007394,-2.07817982582078,0.0404060390390689,,-2.1068489382294353,,
,7322.0,849.0,5330.0,1022.0,-327.0,1492.0,3634.0,,,,0.0328201644908376,-2.07831209856763,0.0407444684467332,,-2.144165574054952,,
,7326.0,851.0,5333.0,1024.0,-320.0,1498.0,3636.0,,,,0.0328349439559422,-2.07796785328793,0.0402756188801545,,-2.1828107162616313,,
,7328.0,852.0,5336.0,1024.0,-321.0,1507.0,3637.0,,,,0.032794244455623,-2.07796504342487,0.0403522846177288,,-2.219955443249776,,
,7331.0,854.0,5339.0,1024.0,-323.0,1511.0,3644.0,,,,0.0328543319130187,-2.07793088353957,0.040431758494228,,-2.2516977282312647,,
,7334.0,852.0,5338.0,1025.0,-335.0,1493.0,3628.0,,,,0.0328452311940794,-2.07750647398938,0.0405775291344068,,-2.273255509818048,,
,7340.0,853.0,5342.0,1027.0,-331.0,1489.0,3622.0,,,,0.0329613275402989,-2.0776462056328,0.0403468017624917,,-2.2792696304397384,,
,7340.0,854.0,5347.0,1027.0,-325.0,1497.0,3638.0,,,,0.0330026409099659,-2.077363512837,0.0405665535522165,,-2.264189918412559,,
,7342.0,855.0,5348.0,1030.0,-306.0,1508.0,3646.0,,,,0.0329501635049091,-2.07717709899153,0.0405667408916945,,-2.222703642526057,,
,7344.0,854.0,5348.0,1025.0,-318.0,1511.0,3656.0,,,,0.0329993078177417,-2.07703449168322,0.0405878143422879,,-2.150158055954404,,
,7347.0,856.0,5352.0,1029.0,-349.0,1508.0,3637.0,,,,0.0329660476010138,-2.07664208712186,0.0405594096323115,,-2.042929439244797,,
,7351.0,854.0,5354.0,1030.0,-341.0,1501.0,3645.0,,,,0.0329629629018253,-2.07614679361328,0.0408692267052039,,-1.8986990755200144,,
,7355.0,856.0,5357.0,1031.0,-333.0,1500.0,3640.0,,,,0.0329995083299953,-2.07668104389381,0.0405954180806263,,-1.7166096534301183,,
,7357.0,856.0,5360.0,1032.0,-327.0,1497.0,3637.0,,,,0.0329412821319119,-2.07638093591778,0.0407546175934153,,-1.4972914662224404,,
,7359.0,855.0,5361.0,1031.0,-307.0,1505.0,3637.0,,,,0.0328293547134833,-2.07694388812515,0.0407822137143404,,-1.2427646622546722,,
,7365.0,857.0,5360.0,1034.0,-300.0,1499.0,3633.0,,,,0.0329160924739409,-2.07684324829602,0.0408512226772679,,-0.9562398748233059,,
,7364.0,859.0,5365.0,1036.0,-318.0,1492.0,3630.0,,,,0.0330434092388259,-2.07750779779732,0.040812364279999,,-0.6418527307891255,,
,7370.0,858.0,5370.0,1035.0,-328.0,1495.0,3624.0,,,,0.0329942276034294,-2.07663080690476,0.0406073121499407,,-0.3043759590197215,,
,7371.0,858.0,5367.0,1034.0,-314.0,1505.0,3636.0,,,,0.0329935184864262,-2.07645267522798,0.0408857512421377,,0.051045547964752414,,
,7376.0,860.0,5373.0,1039.0,-320.0,1512.0,3651.0,,,,0.0330172765717118,-2.07693080642951,0.0409255463646443,,0.4190972996951028,,
,7378.0,860.0,5375.0,1039.0,-324.0,1507.0,3646.0,,,,0.0330651667885722,-2.07697868362085,0.0406732727166797,,0.7944094165159156,,
,7381.0,859.0,5378.0,1038.0,-335.0,1504.0,3647.0,,,,0.0329896933325653,-2.07705495120454,0.0406205991957258,,1.17157572514532,,
,7381.0,859.0,5376.0,1038.0,-341.0,1492.0,3638.0,,,,0.0329951519299884,-2.07639141042825,0.0406604613548641,,1.5450922981869142,,
,7380.0,861.0,5378.0,1038.0,-323.0,1512.0,3640.0,,,,0.0329394088467344,-2.07707687834834,0.0408370949117614,,1.9092483650486562,,
,7382.0,860.0,5379.0,1039.0,-317.0,1511.0,3656.0,,,,0.032903078387079,-2.07690284309328,0.0409301631216704,,2.2580134986778666,,
,7381.0,859.0,5380.0,1038.0,-319.0,1512.0,3667.0,,,,0.0330111124164742,-2.07658355698942,0.0405804307637137,,2.5849666231750885,,
,7373.0,859.0,5376.0,1036.0,-322.0,1529.0,3629.0,,,,0.0331062617294918,-2.07685456455975,0.0407072951420978,,2.8833056317855443,,
,7367.0,856.0,5371.0,1032.0,-332.0,1498.0,3629.0,,,,0.0330685093798541,-2.07630648580146,0.0407621389499227,,3.1459637732814025,,
,7363.0,859.0,5369.0,1032.0,-331.0,1501.0,3626.0,,,,0.0330797737863006,-2.0760788967901,0.0409123277565133,,3.365842939151996,,
,7357.0,858.0,5366.0,1030.0,-321.0,1507.0,3627.0,,,,0.0330352314337865,-2.07611532805529,0.0410218941105569,,3.536156321979111,,
,7350.0,855.0,5363.0,1029.0,-314.0,1510.0,3635.0,,,,0.0329633932976917,-2.07637173258273,0.0405724411098635,,3.6508550058461533,,
,7342.0,855.0,5360.0,1023.0,-323.0,1504.0,3668.0,,,,0.0329734389985635,-2.0766726307448,0.0404921412444741,,3.7050966052755085,,
,7337.0,855.0,5354.0,1024.0,-324.0,1498.0,3647.0,,,,0.0328584979136626,-2.07735420214539,0.0402864923238261,,3.6957014940567428,,
,7332.0,856.0,5352.0,1023.0,-336.0,1494.0,3635.0,,,,0.0328041421204148,-2.07824070799198,0.0401507691219568,,3.6215363371793843,,
,7328.0,855.0,5349.0,1020.0,-328.0,1496.0,3637.0,,,,0.0326668370164776,-2.07924028504354,0.0399393939639415,,3.4837681238884803,,
,7324.0,854.0,5345.0,1020.0,-311.0,1517.0,3657.0,,,,0.0325239137469901,-2.08017543942341,0.040052324301138,,3.285945807500913,,
,7321.0,855.0,5344.0,1018.0,-305.0,1517.0,3665.0,,,,0.0325821211147685,-2.07993326913414,0.0394792060894459,,3.0338895323733897,,
,7318.0,852.0,5343.0,1017.0,-332.0,1502.0,3663.0,,,,0.0325791663026394,-2.08028026385443,0.0394101745412648,,2.7353948426069166,,
,7313.0,853.0,5343.0,1017.0,-328.0,1501.0,3650.0,,,,0.0325356433514085,-2.08117762867368,0.0395011805268712,,2.3997848922550293,,
,7311.0,854.0,5340.0,1017.0,-346.0,1500.0,3634.0,,,,0.0324287902632066,-2.08123114714738,0.0394685906261359,,2.03736177035447,,
2025-08-05 16:12:31,7312.0,852.0,5340.0,1013.0,-322.0,1494.0,3636.0,,,2025/08/05 04:12:31 PM,0.0323822571910869,-2.08159169403749,0.0392930877640928,,1.6588158292236401,,
,7312.0,856.0,5342.0,1015.0,-321.0,1501.0,3643.0,,,,0.0322587853581194,-2.08138669210059,0.0391866382223055,,1.2746500028382863,,
,7311.0,853.0,5339.0,1014.0,-321.0,1502.0,3646.0,,,,0.0323320175007448,-2.08140660180327,0.0393697180027186,,0.8946671200618376,,
,7309.0,855.0,5338.0,1014.0,-328.0,1500.0,3644.0,,,,0.0323068483386515,-2.08147993184947,0.0393352909270117,,0.5275549544711737,,
,7309.0,853.0,5337.0,1013.0,-339.0,1500.0,3624.0,,,,0.0323118719367677,-2.08126211229023,0.0392580372015315,,0.18058850482275282,,
,7311.0,854.0,5340.0,1014.0,-324.0,1506.0,3617.0,,,,0.0322860663798702,-2.08207384773377,0.0394288389603492,,-0.14054628385785556,,
,7313.0,854.0,5342.0,1014.0,-313.0,1506.0,3631.0,,,,0.032376703754308,-2.08143216840474,0.0396136886861505,,-0.43181664010631937,,
,7312.0,855.0,5339.0,1013.0,-316.0,1508.0,3637.0,,,,0.0323111770756025,-2.08180240955831,0.0396185442736856,,-0.6908142259157403,,
,7311.0,854.0,5340.0,1013.0,-333.0,1518.0,3644.0,,,,0.0323917134097346,-2.08072434814131,0.0395062095780184,,-0.9166580445657676,,
,7316.0,851.0,5343.0,1015.0,-318.0,1499.0,3643.0,,,,0.0324592062949693,-2.08105138336017,0.0396268440447029,,-1.1098531882161504,,
,7320.0,855.0,5344.0,1016.0,-328.0,1489.0,3641.0,,,,0.0324872029494416,-2.0808960961038,0.0395929474643147,,-1.2721240570133283,,
,7320.0,858.0,5347.0,1016.0,-327.0,1494.0,3647.0,,,,0.0324881647313853,-2.08050225645292,0.0396300418547108,,-1.406231625012632,,
,7320.0,855.0,5347.0,1017.0,-316.0,1496.0,3663.0,,,,0.0324566209589587,-2.08027698438334,0.0396558623158497,,-1.515775036566852,,
,7324.0,854.0,5346.0,1016.0,-344.0,1506.0,3656.0,,,,0.0325535852622246,-2.08008755815312,0.0400934360160201,,-1.604971931087539,,
,7326.0,856.0,5348.0,1018.0,-339.0,1504.0,3643.0,,,,0.0326178481733321,-2.08010455378681,0.0395432740962185,,-1.6784115079222075,,
,7328.0,858.0,5353.0,1018.0,-335.0,1498.0,3631.0,,,,0.0326416223564123,-2.07959783154341,0.0403266823463176,,-1.7407789454777713,,
,7330.0,857.0,5353.0,1018.0,-333.0,1498.0,3636.0,,,,0.032695136681311,-2.08006911531333,0.040027350101128,,-1.7965570280029888,,
,7332.0,857.0,5352.0,1017.0,-329.0,1503.0,3635.0,,,,0.032690500260187,-2.07993594736203,0.0400491250200592,,-1.849718199400607,,
,7335.0,858.0,5353.0,1017.0,-321.0,1505.0,3648.0,,,,0.0326709201575534,-2.0795870822276,0.0400727551335137,,-1.9034261800139234,,
,7335.0,859.0,5356.0,1018.0,-342.0,1510.0,3634.0,,,,0.0328353495990531,-2.07920566505398,0.040123122682361,,-1.9597701072269864,,
,7336.0,860.0,5356.0,1019.0,-347.0,1497.0,3644.0,,,,0.0328954263450234,-2.07931262661477,0.0403921341696615,,-2.019555674571777,,
,7336.0,856.0,5356.0,1020.0,-341.0,1480.0,3645.0,,,,0.0327868370360693,-2.07880707207831,0.0404141617069546,,-2.08217677691816,,
,7338.0,856.0,5353.0,1015.0,-341.0,1491.0,3654.0,,,,0.0327841185912256,-2.07872602469362,0.0401930812440712,,-2.145587468040802,,
,7336.0,858.0,5355.0,1018.0,-318.0,1499.0,3647.0,,,,0.0328556577126536,-2.07842801032034,0.0402461638543105,,-2.206387266401673,,
,7338.0,860.0,5356.0,1020.0,-318.0,1500.0,3651.0,,,,0.0329243305809873,-2.07872824002841,0.0401968026977245,,-2.260022805265612,,
,7336.0,858.0,5356.0,1019.0,-322.0,1483.0,3639.0,,,,0.0328432469072288,-2.0784546094204,0.0404701499842707,,-2.3010959670628766,,
,7336.0,857.0,5353.0,1018.0,-318.0,1490.0,3638.0,,,,0.0329012604225686,-2.07905866023927,0.0400873115269162,,-2.323754668730876,,
,7339.0,860.0,5357.0,1019.0,-320.0,1503.0,3626.0,,,,0.0328827461111696,-2.07934628258611,0.040376803292702,,-2.3221303962756115,,
,7337.0,862.0,5355.0,1019.0,-335.0,1520.0,3645.0,,,,0.0329164378299193,-2.07863032987494,0.0405173914415017,,-2.2907797140758506,,
,7338.0,858.0,5355.0,1016.0,-327.0,1520.0,3644.0,,,,0.0327636217495413,-2.07861667279619,0.0402975547542464,,-2.2250870582452893,,
,7336.0,858.0,5353.0,1016.0,-319.0,1502.0,3652.0,,,,0.0327775555844798,-2.07926142884851,0.0403062065989596,,-2.1215924749067154,,
,7339.0,859.0,5354.0,1017.0,-334.0,1493.0,3647.0,,,,0.0327447262026983,-2.07916404939977,0.0402800975740845,,-1.978218378768352,,
,7339.0,858.0,5357.0,1017.0,-341.0,1480.0,3624.0,,,,0.0327431734611623,-2.07911117385317,0.0401353387953357,,-1.7943818319956248,,
,7342.0,857.0,5357.0,1021.0,-332.0,1483.0,3629.0,,,,0.0326929575373074,-2.07926804253844,0.0404245747561759,,-1.5709921011708152,,
,7342.0,859.0,5356.0,1018.0,-329.0,1493.0,3643.0,,,,0.0327695712466736,-2.07917356201842,0.0403078728601509,,-1.3103465465004966,,
,7341.0,856.0,5351.0,1017.0,-327.0,1501.0,3655.0,,,,0.0329373715855702,-2.07871184667774,0.0405982326182679,,-1.0159500281559668,,
,7345.0,860.0,5355.0,1020.0,-331.0,1503.0,3644.0,,,,0.032879658172037,-2.07864116752344,0.0404862990557063,,-0.6922921035599027,,
,7344.0,860.0,5358.0,1019.0,-324.0,1498.0,3637.0,,,,0.0329043149729959,-2.07882665637734,0.0399520492457062,,-0.34462016387273847,,
,7349.0,862.0,5359.0,1019.0,-323.0,1496.0,3643.0,,,,0.0329963818573505,-2.07852727877566,0.0402909191650089,,0.021256417137096206,,
,7346.0,859.0,5358.0,1019.0,-314.0,1504.0,3648.0,,,,0.0329080333875939,-2.07863017556583,0.040174192650053,,0.3991065080630397,,
,7348.0,861.0,5357.0,1021.0,-331.0,1502.0,3652.0,,,,0.032980884813275,-2.07855651635343,0.0404954452593196,,0.7823534735761524,,
,7352.0,860.0,5360.0,1020.0,-310.0,1490.0,3640.0,,,,0.0328490829155832,-2.07789017587689,0.0404494386848343,,1.1640975231935153,,
,7355.0,862.0,5362.0,1021.0,-310.0,1490.0,3640.0,,,,0.0329245593632925,-2.07794287717914,0.0405647433376109,,1.53711000394618,,
,7356.0,861.0,5361.0,1020.0,-321.0,1496.0,3638.0,,,,0.032987128049138,-2.0777981329732,0.0402313786843945,,1.8938346472851348,,
,7357.0,861.0,5364.0,1021.0,-329.0,1502.0,3657.0,,,,0.0330158734867542,-2.07774909166559,0.0404578421576692,,2.226431714394095,,
,7362.0,863.0,5364.0,1023.0,-323.0,1510.0,3637.0,,,,0.0330249088236724,-2.07761985039422,0.0403643637624868,,2.5268945598521806,,
,7363.0,863.0,5366.0,1025.0,-318.0,1505.0,3637.0,,,,0.0330545778877788,-2.07755194385833,0.040390970147466,,2.78725646335773,,
,7369.0,864.0,5367.0,1024.0,-316.0,1505.0,3638.0,,,,0.0330200031219309,-2.0777557108939,0.0406941090829283,,2.999890784921538,,
,7366.0,861.0,5367.0,1023.0,-325.0,1500.0,3643.0,,,,0.0330325581558791,-2.07676415368447,0.0406714621790878,,3.157891340357721,,
,7374.0,862.0,5370.0,1023.0,-312.0,1495.0,3639.0,,,,0.0329248306595025,-2.07716728556398,0.0406822944197619,,3.2555040384070706,,
,7375.0,864.0,5371.0,1028.0,-313.0,1501.0,3641.0,,,,0.0329547947086859,-2.07729647233127,0.0407836979028477,,3.288567160019404,,
,7376.0,867.0,5375.0,1028.0,-311.0,1499.0,3653.0,,,,0.0329266513760841,-2.07746542124131,0.0404638011551768,,3.2549084048518577,,
,7376.0,865.0,5374.0,1027.0,-306.0,1507.0,3654.0,,,,0.0329708768853176,-2.07740677398331,0.0406298651053868,,3.1546443519521032,,
,7383.0,865.0,5375.0,1029.0,-319.0,1499.0,3643.0,,,,0.0330025565911483,-2.07784016313851,0.0405369425775032,,2.990334278456196,,
,7387.0,866.0,5378.0,1030.0,-324.0,1505.0,3652.0,,,,0.0330562304840294,-2.07731173863867,0.0404558006273774,,2.7669559753144477,,
,7389.0,870.0,5379.0,1031.0,-319.0,1504.0,3641.0,,,,0.0330614760756175,-2.07781552133227,0.040562717181833,,2.4916944328360193,,
,7390.0,868.0,5380.0,1030.0,-327.0,1508.0,3650.0,,,,0.0330467986140539,-2.0776205832625,0.0402949465356353,,2.173560387841838,,
,7394.0,867.0,5385.0,1032.0,-325.0,1503.0,3640.0,,,,0.0330287346662061,-2.07742293279799,0.0403053855695858,,1.8228785845327107,,
,7397.0,869.0,5386.0,1032.0,-344.0,1500.0,3644.0,,,,0.0330471903868448,-2.07746091154818,0.0407524656380354,,1.4507000947258397,,
,7397.0,870.0,5385.0,1034.0,-333.0,1498.0,3635.0,,,,0.0330707598896729,-2.07780248630674,0.0406532945867002,,1.0681971574598013,,
,7400.0,870.0,5389.0,1033.0,-325.0,1490.0,3635.0,,,,0.0330244971107165,-2.07702491606852,0.040432286129121,,0.6860939640406696,,
,7404.0,866.0,5390.0,1034.0,-333.0,1499.0,3651.0,,,,0.0329954819546494,-2.07714256551599,0.0403680069870316,,0.3141756134741399,,
,7408.0,871.0,5390.0,1035.0,-330.0,1500.0,3656.0,,,,0.0329916649171121,-2.07713877553633,0.0404480534709015,,-0.039096801151098676,,
,7411.0,869.0,5390.0,1035.0,-333.0,1496.0,3647.0,,,,0.0330792848394642,-2.07667663432586,0.0406286552541794,,-0.3668518696067812,,
,7413.0,872.0,5394.0,1036.0,-342.0,1488.0,3636.0,,,,0.0331037271124033,-2.07692720938389,0.0408017521016486,,-0.6639548379109077,,
,7414.0,871.0,5394.0,1036.0,-329.0,1492.0,3633.0,,,,0.0331058352853648,-2.07694744670115,0.040862808634067,,-0.9270475053108842,,
,7419.0,869.0,5396.0,1037.0,-328.0,1492.0,3640.0,,,,0.0331638749520948,-2.07640359265107,0.0410155785348981,,-1.1545001580750842,,
,7420.0,872.0,5399.0,1039.0,-323.0,1504.0,3641.0,,,,0.0332157950444591,-2.07679985650174,0.0407954004274447,,-1.3462976379804723,,
,7425.0,873.0,5400.0,1039.0,-323.0,1505.0,3640.0,,,,0.0331686570628749,-2.07640001909237,0.0407185202188864,,-1.5038796678181798,,
,7427.0,871.0,5401.0,1039.0,-321.0,1494.0,3628.0,,,,0.0332018923452876,-2.07599692841662,0.0409626452361904,,-1.6299492029541787,,
,7429.0,872.0,5404.0,1041.0,-326.0,1503.0,3628.0,,,,0.0331924929274606,-2.0762943714659,0.0407517970931116,,-1.7282539567339152,,
,7434.0,874.0,5406.0,1042.0,-335.0,1498.0,3640.0,,,,0.0331937846719782,-2.07607157566459,0.0411758221859324,,-1.8033387419486244,,
,7435.0,873.0,5408.0,1041.0,-332.0,1499.0,3652.0,,,,0.0331923335945092,-2.07653409560237,0.0409054976290423,,-1.8602632025520298,,
,7439.0,873.0,5407.0,1043.0,-327.0,1491.0,3674.0,,,,0.033182853846704,-2.07646819121441,0.0411260241562464,,-1.9042823179746056,,
,7439.0,873.0,5408.0,1043.0,-317.0,1482.0,3645.0,,,,0.0332204177618533,-2.07661385847108,0.040885826595946,,-1.9404945313451187,,
,7444.0,875.0,5412.0,1045.0,-341.0,1499.0,3634.0,,,,0.033136052566474,-2.07599681798827,0.0408965318177218,,-1.9734716594025894,,
,7442.0,875.0,5413.0,1047.0,-338.0,1494.0,3646.0,,,,0.0331675977258378,-2.07582754507868,0.0406551922990211,,-2.0068931923945095,,
,7442.0,874.0,5411.0,1044.0,-332.0,1498.0,3658.0,,,,0.0331109696278424,-2.07633786861268,0.0407873878508537,,-2.0432135529567987,,
,7441.0,873.0,5405.0,1043.0,-324.0,1510.0,3644.0,,,,0.0332177050615298,-2.07634316233703,0.0408766847898326,,-2.0833936756630442,,
,7436.0,872.0,5405.0,1040.0,-322.0,1502.0,3658.0,,,,0.0331727716761099,-2.07644356717733,0.0407405676877398,,-2.1267276904227774,,
,7430.0,871.0,5397.0,1039.0,-327.0,1502.0,3648.0,,,,0.0332065938663768,-2.07607199416102,0.0408466017934266,,-2.1707914618446265,,
,7426.0,871.0,5395.0,1039.0,-328.0,1502.0,3647.0,,,,0.0332207888145473,-2.0757299497518,0.0409496373622212,,-2.2115321502095457,,
,7418.0,871.0,5392.0,1036.0,-318.0,1484.0,3645.0,,,,0.0331893140607285,-2.07553807281808,0.0411419859855511,,-2.2435067193770464,,
,7410.0,867.0,5385.0,1033.0,-325.0,1501.0,3626.0,,,,0.0331096236263448,-2.07579022323464,0.0408902249394324,,-2.2602625828655505,,
,7407.0,870.0,5376.0,1032.0,-319.0,1488.0,3633.0,,,,0.0331027837694699,-2.07546236210326,0.0410115759757633,,-2.2548362976890486,,
,7397.0,869.0,5372.0,1028.0,-321.0,1493.0,3639.0,,,,0.0331618237393139,-2.07586583498242,0.0407302102243443,,-2.22032869794042,,
,7389.0,866.0,5367.0,1025.0,-326.0,1499.0,3653.0,,,,0.0331148662049914,-2.07642678501261,0.0407844471729134,,-2.150500792601462,,
,7385.0,866.0,5362.0,1022.0,-319.0,1509.0,3659.0,,,,0.0330594382173895,-2.07637510662033,0.0406913400833185,,-2.0403280588553168,,
,7382.0,864.0,5357.0,1022.0,-329.0,1505.0,3654.0,,,,0.0330799023685928,-2.07646888327294,0.0404768457193924,,-1.8864537709109528,,
,7379.0,864.0,5353.0,1022.0,-324.0,1499.0,3657.0,,,,0.0329457613976398,-2.07687382484953,0.040245047203458,,-1.6874943597854746,,
,7374.0,866.0,5350.0,1020.0,-321.0,1495.0,3644.0,,,,0.0328347824266796,-2.07783181517201,0.0404136805672143,,-1.4441689721762974,,
,7371.0,863.0,5343.0,1017.0,-326.0,1493.0,3632.0,,,,0.0327643129707025,-2.07862134872894,0.0400367103766442,,-1.1592480096683795,,
,7371.0,864.0,5342.0,1016.0,-329.0,1483.0,3640.0,,,,0.0327256505530202,-2.07928658248103,0.0400035658338748,,-0.8373381255871992,,
,7366.0,863.0,5338.0,1016.0,-323.0,1487.0,3646.0,,,,0.0325905826069032,-2.07991767896389,0.0395899793617694,,-0.48454077735555057,,
,7366.0,865.0,5338.0,1016.0,-327.0,1493.0,3645.0,,,,0.032526464713753,-2.08086888075796,0.0393520230437208,,-0.10803517750818624,,
,7362.0,862.0,5335.0,1013.0,-329.0,1498.0,3637.0,,,,0.0325050982183153,-2.08089781211992,0.0389392361307191,,0.28435761811013477,,
,7364.0,862.0,5332.0,1014.0,-330.0,1501.0,3649.0,,,,0.0324885714736215,-2.08119855769969,0.0394538969768187,,0.6845754513601936,,
,7365.0,864.0,5331.0,1015.0,-330.0,1491.0,3654.0,,,,0.0324246827695398,-2.08172128016279,0.0392641195392287,,1.0846374167998125,,
,7364.0,866.0,5331.0,1013.0,-329.0,1492.0,3648.0,,,,0.0324159706020547,-2.08134866516272,0.0391691448925323,,1.476861990233884,,
,7365.0,863.0,5331.0,1012.0,-323.0,1491.0,3648.0,,,,0.0323517734122251,-2.08183136434861,0.0389765558571738,,1.853976432741433,,
,7366.0,861.0,5328.0,1012.0,-327.0,1503.0,3627.0,,,,0.0323430629562737,-2.08256574457683,0.0393732250028378,,2.209134628871555,,
,7366.0,864.0,5331.0,1012.0,-320.0,1495.0,3627.0,,,,0.0322852247394206,-2.08202410921039,0.0389434469394672,,2.5358780952038042,,
,7367.0,866.0,5329.0,1013.0,-334.0,1496.0,3635.0,,,,0.0322537850629703,-2.08154526868901,0.0392591779885087,,2.82808439471294,,
,7367.0,863.0,5328.0,1014.0,-336.0,1488.0,3651.0,,,,0.0323391559286629,-2.08114220963537,0.0390541663703824,,3.079946656424192,,
,7368.0,864.0,5324.0,1015.0,-330.0,1485.0,3661.0,,,,0.032451143241828,-2.08089320707506,0.0394608174849124,,3.286018261360522,,
,7372.0,862.0,5327.0,1013.0,-328.0,1484.0,3648.0,,,,0.0324421466499102,-2.08163376174224,0.0393675051907926,,3.441341033586348,,
,7370.0,862.0,5325.0,1013.0,-325.0,1485.0,3640.0,,,,0.0324600252596525,-2.08089622925973,0.0395146429378053,,3.541656948390822,,
,7376.0,866.0,5327.0,1015.0,-321.0,1489.0,3637.0,,,,0.0324352995994221,-2.08070178045137,0.0396104003592441,,3.5836853216766924,,
,7378.0,864.0,5326.0,1014.0,-328.0,1494.0,3633.0,,,,0.0324321293801467,-2.08052926521025,0.0394514510506299,,3.565431891799978,,
,7378.0,864.0,5328.0,1014.0,-310.0,1495.0,3651.0,,,,0.0324910930245569,-2.08048882452382,0.0396653276348021,,3.4864850838453885,,
,7378.0,867.0,5331.0,1015.0,-317.0,1504.0,3643.0,,,,0.0325040301109656,-2.08024268422566,0.039420459288317,,3.3482499087647803,,
,7378.0,865.0,5330.0,1013.0,-324.0,1505.0,3649.0,,,,0.0324907801287401,-2.08075408851562,0.0396119478284025,,3.154072906440442,,
,7381.0,866.0,5326.0,1015.0,-321.0,1490.0,3650.0,,,,0.0324782668092637,-2.08045282057722,0.0396498988612373,,2.9092228927831205,,
,7383.0,866.0,5328.0,1013.0,-335.0,1487.0,3641.0,,,,0.0324794715487805,-2.08002431008872,0.0397981308537655,,2.620711127854755,,
,7383.0,865.0,5328.0,1017.0,-334.0,1495.0,3650.0,,,,0.0325794514114665,-2.07979294184237,0.0397333687275485,,2.2969581612543273,,
,7383.0,867.0,5329.0,1017.0,-322.0,1492.0,3644.0,,,,0.032639597341365,-2.07935337160816,0.0401127223535965,,1.9473385559800944,,
,7384.0,865.0,5329.0,1015.0,-323.0,1496.0,3645.0,,,,0.0326968004245334,-2.07934088471663,0.0401125919571837,,1.5816535668031442,,
,7384.0,865.0,5325.0,1016.0,-325.0,1499.0,3638.0,,,,0.0327229461295235,-2.07928571842567,0.0399867584786385,,1.2095911567949378,,
,7385.0,862.0,5325.0,1013.0,-321.0,1494.0,3635.0,,,,0.0326159674385371,-2.07909915294497,0.0403402490524037,,0.8402307447445406,,
,7385.0,868.0,5327.0,1016.0,-326.0,1501.0,3655.0,,,,0.032731211899414,-2.07884609930053,0.0398640332487318,,0.4816384372316212,,
,7386.0,867.0,5324.0,1016.0,-326.0,1502.0,3660.0,,,,0.0326503703135313,-2.07870564025488,0.0400081021411475,,0.14058113113061435,,
,7383.0,865.0,5325.0,1014.0,-319.0,1493.0,3639.0,,,,0.0327299369879109,-2.07853471393629,0.0402170667480471,,-0.17763092646690623,,
,7386.0,863.0,5322.0,1015.0,-336.0,1495.0,3639.0,,,,0.0326469609585314,-2.07889218711091,0.0399353544308244,,-0.4691804478546,,
,7386.0,866.0,5323.0,1015.0,-317.0,1504.0,3653.0,,,,0.03267821852588,-2.07848218398016,0.0400303766313772,,-0.7316786649922803,,
,7387.0,868.0,5321.0,1016.0,-317.0,1504.0,3643.0,,,,0.0326816305028665,-2.0784137132903,0.0399285115270106,,-0.9640288109841338,,
,7384.0,864.0,5321.0,1015.0,-318.0,1503.0,3656.0,,,,0.0327125702950109,-2.07860146452138,0.039901421680253,,-1.1662494564221724,,
,7387.0,865.0,5319.0,1014.0,-317.0,1501.0,3650.0,,,,0.0326966385965123,-2.07859230015805,0.0399922546808379,,-1.3392879276068,,
,7387.0,866.0,5320.0,1014.0,-318.0,1500.0,3657.0,,,,0.032611305239825,-2.07881473099605,0.0400825756953472,,-1.48484765861201,,
2025-08-05 16:12:32,7389.0,865.0,5319.0,1013.0,-334.0,1499.0,3658.0,,,2025/08/05 04:12:32 PM,0.0326216549662928,-2.07906820924498,0.0398094806392386,,-1.605243043022384,,
,7390.0,866.0,5316.0,1014.0,-345.0,1491.0,3643.0,,,,0.0325613443436506,-2.0793413187814,0.0398213147430287,,-1.7032827418846035,,
,7391.0,864.0,5318.0,1013.0,-344.0,1486.0,3645.0,,,,0.0325524323399463,-2.07922855070714,0.0397481024426483,,-1.7821701709235533,,
,7394.0,866.0,5320.0,1016.0,-318.0,1495.0,3645.0,,,,0.0325404980243624,-2.07977760729927,0.0399425506547601,,-1.84540150683779,,
,7395.0,867.0,5319.0,1017.0,-310.0,1505.0,3641.0,,,,0.0325214628313208,-2.07997946114675,0.0400328218723118,,-1.8966398910652,,
,7395.0,868.0,5318.0,1014.0,-312.0,1500.0,3646.0,,,,0.0325372715472491,-2.08026300443632,0.0398191604089044,,-1.9395501202128351,,
,7397.0,865.0,5318.0,1015.0,-334.0,1504.0,3647.0,,,,0.0325680711050936,-2.07990427917097,0.0396833770871305,,-1.9775888223889708,,
,7397.0,866.0,5317.0,1016.0,-335.0,1496.0,3642.0,,,,0.0326804187843807,-2.0793468445964,0.0401909445425487,,-2.0137574632354447,,
,7403.0,867.0,5320.0,1018.0,-323.0,1491.0,3647.0,,,,0.0326972136103255,-2.07943121516406,0.0396131301143806,,-2.0503365680899344,,
,7404.0,869.0,5323.0,1018.0,-324.0,1495.0,3650.0,,,,0.0326870660584639,-2.07980191445279,0.0401264844949433,,-2.0886276308759637,,
,7404.0,865.0,5320.0,1018.0,-316.0,1500.0,3641.0,,,,0.0326527320650132,-2.07958855707887,0.0397838218043185,,-2.128733656434178,,
,7407.0,868.0,5320.0,1018.0,-317.0,1499.0,3629.0,,,,0.0326518344476461,-2.07913739333084,0.0398654451074041,,-2.169409985178821,,
,7411.0,870.0,5328.0,1021.0,-327.0,1491.0,3626.0,,,,0.0326839892387158,-2.07901413085393,0.0400382390671305,,-2.208013926542642,,
,7413.0,868.0,5327.0,1020.0,-332.0,1493.0,3649.0,,,,0.032693805583909,-2.07937173603827,0.0398697010239242,,-2.2405746640065054,,
,7417.0,869.0,5325.0,1020.0,-333.0,1502.0,3654.0,,,,0.0326410906408809,-2.07913680221171,0.0401270555633923,,-2.261993782000195,,
,7418.0,868.0,5325.0,1019.0,-329.0,1501.0,3647.0,,,,0.0327217788725854,-2.07901132116814,0.0400767232207922,,-2.2663719201027437,,
,7421.0,869.0,5326.0,1021.0,-326.0,1492.0,3632.0,,,,0.0326436891055742,-2.07928903476206,0.0397496611885727,,-2.247439852595953,,
,7426.0,870.0,5330.0,1023.0,-335.0,1488.0,3628.0,,,,0.0327105196181289,-2.07854052852,0.0400496257260467,,-2.1990555890734584,,
,7425.0,872.0,5330.0,1025.0,-327.0,1482.0,3623.0,,,,0.0327178986818883,-2.07882526835081,0.0402659334550872,,-2.115716857406061,,
,7431.0,869.0,5332.0,1022.0,-334.0,1489.0,3631.0,,,,0.0327497110252163,-2.07866758722889,0.0403602933486103,,-1.9930340648006963,,
,7433.0,871.0,5333.0,1024.0,-316.0,1497.0,3636.0,,,,0.0327090271464451,-2.07829573851963,0.0400152487376311,,-1.8281138214681873,,
,7435.0,870.0,5335.0,1028.0,-326.0,1499.0,3658.0,,,,0.0327721228745875,-2.07823167396887,0.0400952979933546,,-1.6198159699949908,,
,7437.0,873.0,5338.0,1028.0,-320.0,1499.0,3650.0,,,,0.0328175677172639,-2.0783474999283,0.0401597866495624,,-1.368864776630788,,
,7440.0,873.0,5338.0,1028.0,-327.0,1486.0,3632.0,,,,0.0328022897277426,-2.07794004062415,0.0399932548991064,,-1.0778142124930725,,
,7444.0,873.0,5339.0,1027.0,-349.0,1491.0,3633.0,,,,0.032795292335924,-2.07790819773015,0.0403664582184391,,-0.750885195794744,,
,7448.0,875.0,5343.0,1029.0,-333.0,1487.0,3654.0,,,,0.032786231550947,-2.07811150043699,0.0402988451946907,,-0.393706906306568,,
,7452.0,875.0,5343.0,1029.0,-322.0,1491.0,3651.0,,,,0.0327771413801679,-2.07820104645313,0.0403417670898503,,-0.01300300966032975,,
,7454.0,873.0,5341.0,1028.0,-320.0,1499.0,3651.0,,,,0.0328090160951651,-2.0777023397244,0.0403368756709257,,0.38373423467120843,,
,7455.0,872.0,5345.0,1031.0,-314.0,1499.0,3648.0,,,,0.0327927575257165,-2.07765886257465,0.0403262784041874,,0.7885436951710086,,
,7460.0,875.0,5347.0,1032.0,-325.0,1497.0,3624.0,,,,0.0329013295136798,-2.07778980356601,0.0404135083422478,,1.1932415352649541,,
,7463.0,876.0,5350.0,1033.0,-323.0,1499.0,3638.0,,,,0.0329281123888562,-2.0776474760496,0.0403040752936037,,1.5896020417516552,,
,7465.0,876.0,5352.0,1034.0,-328.0,1502.0,3646.0,,,,0.0329019367866011,-2.07756265498967,0.0405125368399773,,1.9694790201815322,,
,7468.0,877.0,5353.0,1032.0,-339.0,1494.0,3656.0,,,,0.0329532589794635,-2.07752606665971,0.0402848266432799,,2.324889715083003,,
,7471.0,874.0,5354.0,1034.0,-338.0,1490.0,3634.0,,,,0.0329453589745994,-2.07763381248861,0.040159958778752,,2.64809345635797,,
,7476.0,879.0,5355.0,1040.0,-322.0,1494.0,3622.0,,,,0.0329024948298864,-2.07755412140681,0.040408420385255,,2.931698583459761,,
,7478.0,876.0,5357.0,1037.0,-328.0,1491.0,3627.0,,,,0.0328806188667305,-2.07711933579524,0.0401560996649568,,3.1688232287820517,,
,7478.0,877.0,5358.0,1037.0,-326.0,1493.0,3638.0,,,,0.0329711324145604,-2.07724363726045,0.0405397251891736,,3.3533207200357755,,
,7479.0,877.0,5358.0,1037.0,-319.0,1494.0,3653.0,,,,0.0329066882751419,-2.07712873164429,0.040454692916228,,3.4800626918575954,,
,7487.0,877.0,5361.0,1039.0,-325.0,1505.0,3634.0,,,,0.032871776392591,-2.07712960508638,0.0402304617612813,,3.5452562916674406,,
,7489.0,876.0,5360.0,1039.0,-329.0,1497.0,3643.0,,,,0.0329335165477324,-2.07757118342765,0.0404104920382805,,3.546758865939086,,
,7492.0,879.0,5365.0,1039.0,-330.0,1503.0,3639.0,,,,0.0329680756725429,-2.07738697525689,0.0408932350239722,,3.4843459397698853,,
,7495.0,878.0,5366.0,1040.0,-336.0,1496.0,3650.0,,,,0.0329552715428538,-2.07725958254679,0.0407609537947158,,3.3598872329580054,,
,7497.0,879.0,5369.0,1040.0,-321.0,1492.0,3648.0,,,,0.0329834814691233,-2.07731934685533,0.0405101070229151,,3.1773915226835836,,
,7500.0,880.0,5372.0,1043.0,-326.0,1484.0,3651.0,,,,0.0329792163475065,-2.07724649840839,0.0404966132278148,,2.9428943698912695,,
,7500.0,879.0,5371.0,1041.0,-321.0,1484.0,3644.0,,,,0.0329398443889914,-2.07680164478183,0.0406470120907719,,2.6641820157143683,,
,7498.0,877.0,5368.0,1042.0,-341.0,1478.0,3625.0,,,,0.0329884796668841,-2.07747004541632,0.0406447420006659,,2.3503676471185755,,
,7500.0,878.0,5366.0,1043.0,-337.0,1488.0,3623.0,,,,0.0330591772299025,-2.07722754216355,0.0404518630817913,,2.0113588094167487,,
,7499.0,879.0,5367.0,1043.0,-316.0,1502.0,3660.0,,,,0.032987455220435,-2.07699559182856,0.0405920138646579,,1.6572721904832637,,
,7493.0,878.0,5362.0,1041.0,-321.0,1512.0,3655.0,,,,0.0329809868882309,-2.07650994682284,0.0406412561132392,,1.29785995913559,,
,7486.0,878.0,5353.0,1039.0,-333.0,1517.0,3668.0,,,,0.0329830919484819,-2.07705995909236,0.0402995014529162,,0.9420082723928219,,
,7480.0,875.0,5348.0,1034.0,-327.0,1496.0,3649.0,,,,0.0329901470499514,-2.07716456022815,0.0406237821410359,,0.5973548108037372,,
,7474.0,875.0,5344.0,1032.0,-336.0,1482.0,3644.0,,,,0.0329265207141173,-2.07690530594534,0.0406136550437931,,0.27005220862146956,,
,7468.0,872.0,5335.0,1032.0,-331.0,1495.0,3629.0,,,,0.0329075396036362,-2.07758291347907,0.0402918239834626,,-0.03531731801840334,,
,7461.0,874.0,5327.0,1030.0,-322.0,1501.0,3642.0,,,,0.032856734363893,-2.07808270322153,0.0404715749137182,,-0.31569018497497175,,
,7451.0,870.0,5315.0,1025.0,-319.0,1507.0,3645.0,,,,0.0328180531480825,-2.07846544923439,0.0401771811648817,,-0.5693613354035157,,
,7449.0,870.0,5313.0,1022.0,-311.0,1512.0,3640.0,,,,0.0326670829587826,-2.07861377303375,0.0399321555796439,,-0.7957538811261079,,
,7444.0,869.0,5308.0,1023.0,-329.0,1505.0,3662.0,,,,0.0326132321370114,-2.07991986000613,0.0398165673518614,,-0.9951599954298136,,
,7439.0,870.0,5301.0,1021.0,-334.0,1506.0,3653.0,,,,0.0324473174693494,-2.08035293851515,0.0396615789224093,,-1.168492381784685,,
,7433.0,867.0,5296.0,1017.0,-325.0,1506.0,3644.0,,,,0.0324285465059077,-2.08127657166852,0.039456142510329,,-1.3170781876489657,,
,7431.0,868.0,5290.0,1014.0,-314.0,1496.0,3655.0,,,,0.032298302186132,-2.081564436887,0.0394993664258991,,-1.4425152335354843,,
,7432.0,868.0,5285.0,1016.0,-310.0,1493.0,3641.0,,,,0.032273863439468,-2.0820955061524,0.0391468131394641,,-1.5465954722101265,,
,7429.0,866.0,5281.0,1017.0,-319.0,1488.0,3628.0,,,,0.0323270801194767,-2.08210901185944,0.0394376757118825,,-1.631285467462247,,
,7427.0,868.0,5280.0,1015.0,-319.0,1479.0,3645.0,,,,0.0322783870481429,-2.08259712831287,0.0392056667061102,,-1.6987419623060211,,
,7424.0,867.0,5276.0,1010.0,-340.0,1486.0,3647.0,,,,0.0322513787079742,-2.0827314364975,0.0390357528512814,,-1.7513352318114566,,
,7423.0,865.0,5273.0,1013.0,-346.0,1491.0,3641.0,,,,0.0323527761580699,-2.08247110511403,0.0393654108458741,,-1.7916546400677527,,
,7424.0,869.0,5275.0,1013.0,-337.0,1485.0,3642.0,,,,0.0323733131332138,-2.08249570606688,0.0390459880419942,,-1.8224779523641879,,
,7423.0,868.0,5274.0,1013.0,-329.0,1488.0,3634.0,,,,0.0323295831686426,-2.0820630476489,0.0396288600917272,,-1.8466955899872164,,
,7422.0,863.0,5268.0,1011.0,-338.0,1485.0,3617.0,,,,0.0324130410378526,-2.08166321063047,0.0392123355226546,,-1.8671905997530898,,
,7423.0,867.0,5268.0,1012.0,-305.0,1479.0,3637.0,,,,0.0323445409756202,-2.08155666061852,0.0394058500884482,,-1.8866831955195653,,
,7423.0,868.0,5269.0,1014.0,-317.0,1487.0,3648.0,,,,0.0323898657833378,-2.08141372909198,0.0395044906742203,,-1.9075548197951466,,
,7424.0,866.0,5267.0,1010.0,-322.0,1491.0,3639.0,,,,0.0324333657360625,-2.08134894472416,0.0393817589788441,,-1.931670700648617,,
,7422.0,865.0,5262.0,1011.0,-329.0,1505.0,3641.0,,,,0.032482373064039,-2.08128881547695,0.0392954388480035,,-1.960221759467849,,
,7424.0,865.0,5262.0,1010.0,-328.0,1490.0,3634.0,,,,0.0325448762352271,-2.08097393080569,0.0396321822522159,,-1.993606159205441,,
,7427.0,866.0,5263.0,1011.0,-339.0,1472.0,3642.0,,,,0.0324451729271638,-2.08058271264223,0.0398836009468226,,-2.031367328442251,,
,7427.0,867.0,5263.0,1011.0,-338.0,1476.0,3649.0,,,,0.032515785608316,-2.08067318958242,0.0397735853503184,,-2.072198717631781,,
,7429.0,866.0,5261.0,1011.0,-324.0,1483.0,3656.0,,,,0.0324763850192066,-2.08051532923526,0.0397522045783639,,-2.114016310629327,,
,7430.0,865.0,5262.0,1011.0,-311.0,1498.0,3639.0,,,,0.0324965082809778,-2.08023337685591,0.0397725586826151,,-2.1540896321253995,,
,7433.0,866.0,5262.0,1012.0,-320.0,1495.0,3639.0,,,,0.0325596468696028,-2.08037330397968,0.0397659081485143,,-2.1892133428367573,,
,7432.0,866.0,5261.0,1012.0,-317.0,1496.0,3629.0,,,,0.0325166806317983,-2.08003162989883,0.039857828766173,,-2.2158972631020877,,
,7435.0,867.0,5263.0,1013.0,-335.0,1499.0,3633.0,,,,0.032543009857163,-2.08024522296851,0.0399054117274906,,-2.2305540313910144,,
,7436.0,866.0,5263.0,1008.0,-319.0,1501.0,3636.0,,,,0.0326061978846316,-2.07998536548858,0.0399070501353266,,-2.229669354736134,,
,7436.0,868.0,5263.0,1012.0,-308.0,1502.0,3656.0,,,,0.0326069794262788,-2.08078482515287,0.0398286656265081,,-2.209947067363392,,
,7438.0,866.0,5262.0,1014.0,-334.0,1497.0,3653.0,,,,0.0325776610488108,-2.08035611481674,0.0400908719131083,,-2.168427287103488,,
,7438.0,869.0,5261.0,1014.0,-329.0,1490.0,3650.0,,,,0.0325879044710673,-2.08002334278021,0.0400519904702237,,-2.102579549477769,,
,7439.0,865.0,5257.0,1010.0,-340.0,1495.0,3635.0,,,,0.0325812985004116,-2.07960153285938,0.0398242249432688,,-2.010373956852845,,
,7441.0,866.0,5259.0,1013.0,-334.0,1483.0,3638.0,,,,0.0325991174206425,-2.08066536977061,0.0398178714246581,,-1.8903328994429331,,
,7437.0,866.0,5259.0,1014.0,-310.0,1496.0,3650.0,,,,0.0326069994223119,-2.07965905763417,0.0401279752663964,,-1.7415649247347245,,
,7438.0,866.0,5256.0,1014.0,-316.0,1501.0,3659.0,,,,0.0325966862199614,-2.07955288983488,0.0398664236045634,,-1.5637820249591108,,
,7438.0,866.0,5256.0,1013.0,-341.0,1499.0,3657.0,,,,0.0325510310794248,-2.08004180718672,0.0398590358757053,,-1.3573026267871118,,
,7437.0,867.0,5255.0,1013.0,-342.0,1499.0,3641.0,,,,0.0325484126448684,-2.07953621020309,0.0398880359834136,,-1.1230444798034498,,
,7439.0,866.0,5252.0,1013.0,-338.0,1500.0,3636.0,,,,0.0325409014596005,-2.07981573605523,0.0398165247018256,,-0.8625130220001677,,
,7438.0,867.0,5254.0,1013.0,-330.0,1500.0,3638.0,,,,0.0324982315750742,-2.08008111084295,0.0397153622052747,,-0.5777901267615979,,
,7439.0,864.0,5251.0,1010.0,-321.0,1500.0,3653.0,,,,0.0326037808718909,-2.0805224197402,0.0399527580290555,,-0.27152506613037675,,
,7438.0,863.0,5250.0,1010.0,-326.0,1493.0,3648.0,,,,0.0325493926789374,-2.08073655421425,0.0396766749602196,,0.053074526066920286,,
,7439.0,867.0,5248.0,1011.0,-331.0,1493.0,3640.0,,,,0.0325157842163699,-2.08043850977813,0.039678258848955,,0.39225672426466085,,
,7439.0,866.0,5247.0,1012.0,-330.0,1490.0,3639.0,,,,0.0324379678450148,-2.08086439672329,0.0396226774933926,,0.7417497808812121,,
,7440.0,865.0,5246.0,1013.0,-326.0,1482.0,3637.0,,,,0.0324091231293561,-2.08108098887207,0.0393553976737682,,1.0968007663677135,,
,7439.0,864.0,5244.0,1010.0,-315.0,1498.0,3651.0,,,,0.0324398745233327,-2.08065372471615,0.0397353696056651,,1.4522301764744001,,
,7441.0,868.0,5244.0,1014.0,-333.0,1502.0,3650.0,,,,0.0324455108700462,-2.08068414864839,0.039675957451243,,1.8025031104514284,,
,7444.0,867.0,5246.0,1013.0,-324.0,1497.0,3633.0,,,,0.0324852098169662,-2.08078494821131,0.0393910809454458,,2.141817316348329,,
,7447.0,868.0,5248.0,1012.0,-330.0,1494.0,3627.0,,,,0.0324400774336475,-2.0806031632866,0.039545031111801,,2.4642083176306,,
,7445.0,864.0,5245.0,1013.0,-338.0,1492.0,3623.0,,,,0.0324357788444367,-2.08072976905527,0.0396394447272581,,2.7636712112751805,,
,7447.0,869.0,5245.0,1014.0,-324.0,1504.0,3657.0,,,,0.0324610974387348,-2.08077024982056,0.0397244709037722,,3.0342972474264656,,
,7450.0,867.0,5248.0,1016.0,-317.0,1501.0,3652.0,,,,0.0324429945380631,-2.08092910785951,0.0398070159770261,,3.2704213820242756,,
,7451.0,867.0,5249.0,1014.0,-321.0,1495.0,3655.0,,,,0.0324803115327432,-2.08079540555149,0.0396244871663148,,3.466775628019575,,
,7453.0,870.0,5248.0,1016.0,-309.0,1479.0,3651.0,,,,0.0324018349271115,-2.08053626698457,0.0396429452772558,,3.6186431783053292,,
,7454.0,868.0,5250.0,1016.0,-331.0,1484.0,3638.0,,,,0.0325120748829173,-2.08043289931026,0.0397218814101819,,3.7220100824095375,,
,7456.0,866.0,5251.0,1015.0,-324.0,1491.0,3643.0,,,,0.0325010254270058,-2.0805943152578,0.0396976586976903,,3.773713603559357,,
,7460.0,868.0,5250.0,1016.0,-308.0,1498.0,3639.0,,,,0.0325300003003758,-2.08052848675176,0.0395421179830602,,3.7715872701245123,,
,7461.0,867.0,5251.0,1016.0,-303.0,1500.0,3655.0,,,,0.0324936117953941,-2.08031233559359,0.0396753689192889,,3.7146005548415713,,
,7465.0,867.0,5250.0,1017.0,-315.0,1498.0,3656.0,,,,0.0325646013121157,-2.08065243811243,0.0397728160178981,,3.602986367042511,,
,7467.0,869.0,5253.0,1019.0,-332.0,1482.0,3653.0,,,,0.0325872537069717,-2.08047682757931,0.0397289253627561,,3.438344202754807,,
