TimeLabel,MEAS1_PPG1,MEAS1_PPG2,MEAS1_PPG3,MEAS1_PPG4,ACCX,ACCY,ACCZ,HR_timestamp,HR_value,radar_timestamp,phase_rx0,phase_rx1,phase_rx2,timestep,n_process,original_rate,calculated_rate
2025-06-30 23:07:55,5945.0,831.0,5661.0,1468.0,2278.0,3205.0,-728.0,2025-06-30 23:07:55,83.0,2025/06/30 11:07:55 PM,-2.50202694602398,-3.00209255999831,-1.51886328531398,2025/06/30 11:07:55 PM,5.331486283840444,11.645962715148926,11.11492281303602
,5950.0,833.0,5665.0,1470.0,2270.0,3199.0,-739.0,2025-06-30 23:07:56,83.0,,-2.50006459675715,-3.00202653844916,-1.51896588772389,2025/06/30 11:08:05 PM,6.029777515618307,11.565150260925291,10.810810810810809
,5950.0,834.0,5669.0,1471.0,2272.0,3202.0,-727.0,2025-06-30 23:07:57,83.0,,-2.50088157856496,-3.00202106938181,-1.51933966039095,2025/06/30 11:08:15 PM,6.696706404109501,11.252813339233398,11.899852724595
,5953.0,834.0,5671.0,1472.0,2281.0,3197.0,-741.0,2025-06-30 23:07:58,83.0,,-2.50026468640862,-3.00201588283794,-1.51851072986347,2025/06/30 11:08:25 PM,7.33359354268792,11.583011627197266,11.134977231720935
,5953.0,834.0,5673.0,1470.0,2301.0,3209.0,-778.0,2025-06-30 23:07:59,84.0,,-2.49915351317263,-3.00184661929145,-1.51947048429989,2025/06/30 11:08:35 PM,7.9419998260271605,12.008005142211914,12.373737373737367
,5955.0,836.0,5675.0,1474.0,2320.0,3201.0,-766.0,2025-06-30 23:08:00,84.0,,-2.49903090427463,-3.00194428477268,-1.51943663606451,2025/06/30 11:08:45 PM,8.523572872391364,11.40684413909912,11.825242718446612
,5958.0,836.0,5675.0,1473.0,2308.0,3198.0,-779.0,2025-06-30 23:08:01,84.0,,-2.49805390519615,-3.0019755974478,-1.51997153793671,2025/06/30 11:08:55 PM,9.079900829048983,11.700468063354492,11.493629709948486
,5954.0,837.0,5675.0,1474.0,2295.0,3190.0,-769.0,2025-06-30 23:08:02,84.0,,-2.49829852187921,-3.00190204859406,-1.51998771561833,2025/06/30 11:09:05 PM,9.612372337732383,12.106537818908691,11.881188118811888
,5954.0,836.0,5674.0,1472.0,2311.0,3207.0,-770.0,2025-06-30 23:08:03,85.0,,-2.49859560184492,-3.00200466804818,-1.52061306208828,2025/06/30 11:09:15 PM,10.122045594137653,11.60092830657959,12.058823529411764
,5954.0,835.0,5671.0,1471.0,2298.0,3203.0,-752.0,2025-06-30 23:08:04,85.0,,-2.5001840162879,-3.00200286286593,-1.52016066129614,2025/06/30 11:09:25 PM,10.60953380064606,11.60092830657959,11.12637362637363
,5953.0,838.0,5673.0,1472.0,2305.0,3201.0,-729.0,2025-06-30 23:08:05,85.0,,-2.50064373455804,-3.00209150421542,-1.52105172429875,2025/06/30 11:09:35 PM,11.074917358911513,11.511896133422852,11.445181215369244
,5950.0,836.0,5669.0,1469.0,2298.0,3208.0,-730.0,2025-06-30 23:08:06,86.0,,-2.50211177820789,-3.00218420728539,-1.5211636351396,2025/06/30 11:09:45 PM,11.517693763617665,11.811023712158203,11.616161616161625
,5947.0,837.0,5667.0,1465.0,2303.0,3208.0,-726.0,2025-06-30 23:08:07,87.0,,-2.50367831318245,-3.00207823564977,-1.52130995554241,2025/06/30 11:09:55 PM,11.936773613558293,11.363636016845703,10.607476635514026
,5942.0,835.0,5661.0,1462.0,2294.0,3203.0,-743.0,2025-06-30 23:08:08,87.0,,-2.5034422799813,-3.00195129900339,-1.52147238825273,2025/06/30 11:10:05 PM,12.330525079415334,11.169024467468262,10.422619942848536
,5942.0,836.0,5661.0,1459.0,2298.0,3196.0,-717.0,2025-06-30 23:08:09,88.0,,-2.50420661506398,-3.00190357159948,-1.5211868237606,2025/06/30 11:10:15 PM,12.696860136824476,10.91901683807373,11.576994434137283
,5937.0,837.0,5660.0,1463.0,2260.0,3204.0,-743.0,2025-06-30 23:08:10,89.0,,-2.50487773934882,-3.00204397700181,-1.52246231230882,2025/06/30 11:10:25 PM,13.0333459494947,10.733452796936035,11.009174311926628
,5934.0,838.0,5656.0,1458.0,2261.0,3205.0,-752.0,2025-06-30 23:08:11,89.0,,-2.50616934254584,-3.00185287204003,-1.52171140904474,2025/06/30 11:10:35 PM,13.33731690234332,10.956902503967283,10.762548262548258
,5932.0,834.0,5655.0,1454.0,2248.0,3197.0,-745.0,2025-06-30 23:08:12,90.0,,-2.50701379577523,-3.00201582982116,-1.52210295368506,2025/06/30 11:10:45 PM,13.605959476811636,11.169024467468262,10.514233241505977
,5931.0,834.0,5653.0,1454.0,2227.0,3193.0,-753.0,2025-06-30 23:08:13,91.0,,-2.50892408662301,-3.00193385316854,-1.52241645153257,,13.836344877751486,,
,5929.0,836.0,5653.0,1452.0,2253.0,3210.0,-767.0,2025-06-30 23:08:14,91.0,,-2.50803530800372,-3.00194859316457,-1.52281299483143,,14.025393304534688,,
,5929.0,837.0,5652.0,1453.0,2258.0,3213.0,-774.0,2025-06-30 23:08:15,92.0,,-2.50820519694264,-3.00188977226084,-1.52395862724823,,14.169767836295856,,
,5926.0,836.0,5650.0,1452.0,2265.0,3204.0,-770.0,2025-06-30 23:08:16,92.0,,-2.50861094243525,-3.00193510416619,-1.52324320400775,,14.265712436410805,,
,5927.0,837.0,5649.0,1451.0,2258.0,3182.0,-747.0,2025-06-30 23:08:17,92.0,,-2.50923042078995,-3.00176867216632,-1.52331508675342,,14.308864324328301,,
,5926.0,837.0,5649.0,1452.0,2258.0,3191.0,-779.0,2025-06-30 23:08:18,91.0,,-2.50910125047601,-3.00189449160187,-1.52341980821472,,14.294083349242472,,
,5927.0,837.0,5653.0,1453.0,2248.0,3186.0,-769.0,2025-06-30 23:08:19,91.0,,-2.50827466442725,-3.00181588801224,-1.52273618152356,,14.215348392259767,,
,5924.0,838.0,5652.0,1454.0,2263.0,3203.0,-778.0,2025-06-30 23:08:20,90.0,,-2.50828269049752,-3.00172317202779,-1.52337124959701,,14.065771492239543,,
,5927.0,836.0,5651.0,1454.0,2259.0,3197.0,-778.0,2025-06-30 23:08:21,90.0,,-2.5073818596559,-3.00180574256672,-1.52311399709387,,13.837772184083919,,
,5926.0,838.0,5652.0,1454.0,2282.0,3197.0,-776.0,2025-06-30 23:08:22,89.0,,-2.5071571518256,-3.00178483282473,-1.52321533391113,,13.523436483275777,,
,5930.0,841.0,5657.0,1457.0,2293.0,3206.0,-746.0,2025-06-30 23:08:23,89.0,,-2.50479583188205,-3.00174097988539,-1.52227898707826,,13.115058987966194,,
,5930.0,841.0,5660.0,1455.0,2294.0,3204.0,-738.0,2025-06-30 23:08:24,88.0,,-2.50373099070101,-3.00152014697788,-1.52268549617586,,12.605837180707045,,
,5931.0,839.0,5662.0,1457.0,2268.0,3207.0,-737.0,2025-06-30 23:08:25,88.0,,-2.50085417237994,-3.00162834707639,-1.52214333952264,,11.99065939005992,,
,5937.0,840.0,5666.0,1458.0,2295.0,3202.0,-733.0,2025-06-30 23:08:26,89.0,,-2.49764889086201,-3.00156045147891,-1.52180705711349,,11.266906649173876,,
,5934.0,840.0,5666.0,1459.0,2283.0,3211.0,-759.0,2025-06-30 23:08:27,89.0,,-2.49600385171843,-3.00149607322863,-1.52082283116129,,10.43517742945097,,
,5935.0,842.0,5668.0,1460.0,2282.0,3189.0,-764.0,2025-06-30 23:08:28,90.0,,-2.4905941832352,-3.00150146501459,-1.52063134963857,,9.499844874331897,,
,5938.0,841.0,5671.0,1458.0,2290.0,3191.0,-792.0,2025-06-30 23:08:29,91.0,,-2.48854475522829,-3.00152680492809,-1.5200213221392,,8.469368609580071,,
,5936.0,839.0,5671.0,1462.0,2303.0,3184.0,-767.0,2025-06-30 23:08:30,92.0,,-2.48464907925764,-3.00145508989996,-1.5190974224694,,7.356305681162841,,
,5942.0,842.0,5673.0,1466.0,2306.0,3191.0,-768.0,2025-06-30 23:08:31,93.0,,-2.48150618175897,-3.0013195953427,-1.51799184633023,,6.176995050590886,,
,5945.0,843.0,5676.0,1465.0,2313.0,3188.0,-741.0,2025-06-30 23:08:32,95.0,,-2.4786105916808,-3.00130685709618,-1.51847956942304,,4.9509243712830795,,
,5947.0,843.0,5677.0,1465.0,2305.0,3189.0,-731.0,2025-06-30 23:08:33,93.0,,-2.47475185254673,-3.00149274674686,-1.51838549155,,3.699822932105362,,
,5945.0,842.0,5678.0,1465.0,2271.0,3205.0,-755.0,2025-06-30 23:08:34,92.0,,-2.47248504096645,-3.00133865747007,-1.51802907583484,,2.44655622600112,,
,5948.0,842.0,5677.0,1468.0,2270.0,3185.0,-736.0,2025-06-30 23:08:35,91.0,,-2.4703699050162,-3.00123949977701,-1.51762598432912,,1.2139205180136683,,
,5951.0,844.0,5680.0,1467.0,2278.0,3185.0,-733.0,2025-06-30 23:08:36,90.0,,-2.4667087307785,-3.00119404584786,-1.51736742450027,,0.02344582705281645,,
,5951.0,843.0,5681.0,1468.0,2278.0,3193.0,-734.0,2025-06-30 23:08:37,89.0,,-2.46445893915266,-3.00125312038901,-1.51685467151379,,-1.1056885902124527,,
,5951.0,841.0,5681.0,1468.0,2285.0,3201.0,-743.0,2025-06-30 23:08:38,88.0,,-2.46313202947393,-3.00134355753369,-1.51755689447882,,-2.1575388874095616,,
,5955.0,841.0,5680.0,1467.0,2252.0,3213.0,-756.0,2025-06-30 23:08:39,86.0,,-2.46323596986032,-3.00135263538829,-1.5179858459135,,-3.120018945409657,,
,5954.0,844.0,5682.0,1469.0,2280.0,3197.0,-721.0,2025-06-30 23:08:40,85.0,,-2.46170398037763,-3.00125560104359,-1.5176927022457,,-3.985226590308781,,
,5955.0,841.0,5680.0,1467.0,2263.0,3204.0,-734.0,2025-06-30 23:08:41,84.0,,-2.46000612931175,-3.00120549522632,-1.51770332520367,,-4.74946911678732,,
,5959.0,843.0,5680.0,1469.0,2273.0,3209.0,-745.0,2025-06-30 23:08:42,84.0,,-2.45975298927144,-3.00124393845363,-1.51764290097129,,-5.413010833691307,,
,5956.0,841.0,5679.0,1467.0,2301.0,3201.0,-730.0,2025-06-30 23:08:43,84.0,,-2.45924343720398,-3.00132706843416,-1.51872283417074,,-5.979588758648509,,
,5960.0,843.0,5681.0,1470.0,2285.0,3184.0,-720.0,2025-06-30 23:08:44,83.0,,-2.46002024245642,-3.00141192876848,-1.51928529549,,-6.455759965351239,,
,5959.0,842.0,5680.0,1469.0,2292.0,3189.0,-741.0,2025-06-30 23:08:45,84.0,,-2.460215230155,-3.0012909546152,-1.52022374184817,,-6.8501534421279455,,
,5960.0,843.0,5680.0,1469.0,2287.0,3193.0,-739.0,2025-06-30 23:08:46,84.0,,-2.45997181149522,-3.00120997836769,-1.52145205186017,,-7.172699418458285,,
,5959.0,840.0,5678.0,1470.0,2280.0,3180.0,-736.0,2025-06-30 23:08:47,85.0,,-2.46138555854169,-3.00135431472624,-1.52161702136898,,-7.433900178571896,,
,5960.0,840.0,5676.0,1470.0,2296.0,3203.0,-748.0,2025-06-30 23:08:48,86.0,,-2.46026757897092,-3.00137441546302,-1.52200698275172,,-7.6441906285581736,,
,5963.0,843.0,5676.0,1469.0,2278.0,3205.0,-727.0,2025-06-30 23:08:49,88.0,,-2.46216235661673,-3.00149882453075,-1.52235982506182,,-7.813418260311295,,
,5966.0,844.0,5676.0,1470.0,2285.0,3197.0,-736.0,2025-06-30 23:08:50,89.0,,-2.46129590729943,-3.00125191072581,-1.52132205648422,,-7.9504547758259525,,
,5967.0,845.0,5678.0,1472.0,2321.0,3190.0,-751.0,2025-06-30 23:08:51,90.0,,-2.46051912414039,-3.00133045182074,-1.52236895267075,,-8.06293798857963,,
,5967.0,843.0,5674.0,1471.0,2320.0,3189.0,-780.0,2025-06-30 23:08:52,91.0,,-2.46010608597393,-3.00117525036477,-1.52279211430171,,-8.157133152507859,,
,5967.0,845.0,5676.0,1473.0,2300.0,3183.0,-766.0,2025-06-30 23:08:53,92.0,,-2.45918343355302,-3.00138425466424,-1.52339479769275,,-8.237896949311645,,
,5972.0,844.0,5676.0,1475.0,2299.0,3211.0,-770.0,2025-06-30 23:08:54,93.0,,-2.45914035726734,-3.00128851783711,-1.52307812231574,,-8.308724323102615,,
,5970.0,843.0,5676.0,1476.0,2283.0,3213.0,-779.0,2025-06-30 23:08:55,94.0,,-2.45993058090887,-3.0012842640623,-1.52395258334192,,-8.37185782733682,,
,5972.0,843.0,5676.0,1473.0,2298.0,3218.0,-774.0,2025-06-30 23:08:56,95.0,,-2.46001697958651,-3.0012106106774,-1.52357433358748,,-8.428440858325661,,
,5974.0,846.0,5678.0,1474.0,2313.0,3224.0,-781.0,2025-06-30 23:08:57,96.0,,-2.4600459972122,-3.00126125185091,-1.52377820922055,,-8.478699505357287,,
,5977.0,846.0,5679.0,1476.0,2271.0,3209.0,-768.0,2025-06-30 23:08:58,97.0,,-2.45806867957581,-3.00126070483852,-1.52360701974196,,-8.522141673963782,,
,5977.0,846.0,5679.0,1480.0,2264.0,3210.0,-763.0,2025-06-30 23:08:59,97.0,,-2.45528348796692,-3.00111374820251,-1.5232469751073,,-8.557765276248784,,
,5979.0,846.0,5675.0,1481.0,2253.0,3204.0,-758.0,2025-06-30 23:09:00,98.0,,-2.4538840911234,-3.00126255578091,-1.5237818368899,,-8.584268555767771,,
,5980.0,845.0,5675.0,1477.0,2265.0,3192.0,-754.0,2025-06-30 23:09:01,98.0,,-2.45127776617735,-3.0011377704849,-1.52490859677261,,-8.600254875322781,,
,5984.0,844.0,5678.0,1479.0,2257.0,3186.0,-760.0,2025-06-30 23:09:02,98.0,,-2.45314100854189,-3.00137817162142,-1.52470431941418,,-8.604422614846786,,
,5985.0,848.0,5680.0,1483.0,2290.0,3181.0,-742.0,2025-06-30 23:09:03,98.0,,-2.45455472536463,-3.0012185505089,-1.5253419870657,,-8.595730039503124,,
,5987.0,847.0,5682.0,1485.0,2297.0,3192.0,-745.0,2025-06-30 23:09:04,98.0,,-2.45509931575917,-3.00119921570441,-1.52563994338104,,-8.573526501608505,,
,5988.0,847.0,5678.0,1483.0,2291.0,3202.0,-745.0,2025-06-30 23:09:05,99.0,,-2.45479211010911,-3.00109060586891,-1.52540325402413,,-8.537645009873634,,
,5992.0,847.0,5683.0,1487.0,2288.0,3198.0,-755.0,2025-06-30 23:09:06,99.0,,-2.45227119280995,-3.00110611588828,-1.52629929727999,,-8.488455505136443,,
,5993.0,846.0,5683.0,1488.0,2280.0,3196.0,-756.0,2025-06-30 23:09:07,100.0,,-2.45031767553876,-3.00108612660988,-1.52543454659728,,-8.426881386570155,,
,5995.0,848.0,5683.0,1489.0,2283.0,3204.0,-745.0,2025-06-30 23:09:08,101.0,,-2.44918966737906,-3.00095337758343,-1.52611163249866,,-8.35438311038734,,
,5997.0,848.0,5681.0,1489.0,2283.0,3215.0,-721.0,2025-06-30 23:09:09,102.0,,-2.44779511051194,-3.00084621299309,-1.52632667231107,,-8.272912332730776,,
,5999.0,848.0,5683.0,1492.0,2270.0,3198.0,-741.0,2025-06-30 23:09:10,104.0,,-2.44945559895577,-3.00091544874784,-1.52699542659436,,-8.184839003800574,,
,6001.0,849.0,5685.0,1491.0,2282.0,3207.0,-751.0,2025-06-30 23:09:11,105.0,,-2.45174706672869,-3.0009224385574,-1.52716125807388,,-8.092852931781247,,
,6002.0,850.0,5686.0,1494.0,2278.0,3225.0,-735.0,2025-06-30 23:09:12,106.0,,-2.45236821242845,-3.00091145669024,-1.52802087662118,,-7.999841059790164,,
,6006.0,848.0,5685.0,1493.0,2259.0,3207.0,-732.0,2025-06-30 23:09:13,105.0,,-2.45321900834825,-3.00088821207676,-1.52891505354563,,-7.908741898298567,,
,6004.0,848.0,5687.0,1494.0,2273.0,3221.0,-753.0,2025-06-30 23:09:14,104.0,,-2.45244428411524,-3.00088019064106,-1.5291182692934,,-7.822378754068568,,
,6006.0,850.0,5689.0,1498.0,2277.0,3226.0,-729.0,2025-06-30 23:09:15,103.0,,-2.45189115684875,-3.00084642285241,-1.5293718327007,,-7.743273331263554,,
,6010.0,851.0,5691.0,1498.0,2246.0,3212.0,-751.0,2025-06-30 23:09:16,102.0,,-2.45203084205588,-3.00084202479816,-1.52946950391281,,-7.673441448060877,,
,6009.0,849.0,5694.0,1499.0,2243.0,3208.0,-756.0,2025-06-30 23:09:17,101.0,,-2.45295973169921,-3.0008686592609,-1.53055150201204,,-7.614174230257598,,
,6008.0,849.0,5693.0,1498.0,2245.0,3215.0,-740.0,2025-06-30 23:09:18,100.0,,-2.45447448110141,-3.0009142006723,-1.53222179184222,,-7.5658122346795365,,
,6009.0,850.0,5695.0,1500.0,2246.0,3202.0,-719.0,2025-06-30 23:09:19,98.0,,-2.45622784966122,-3.00088987208278,-1.53225563725956,,-7.527526288847456,,
,6015.0,853.0,5698.0,1503.0,2231.0,3212.0,-756.0,2025-06-30 23:09:20,97.0,,-2.45625861225809,-3.0009847875076,-1.5320145235901,,-7.497125787699534,,
,6017.0,853.0,5703.0,1505.0,2229.0,3201.0,-758.0,2025-06-30 23:09:21,96.0,,-2.4533014791714,-3.00076305099183,-1.53335822758639,,-7.470920561787372,,
,6019.0,851.0,5701.0,1506.0,2238.0,3207.0,-763.0,2025-06-30 23:09:22,95.0,,-2.45360402478714,-3.00079363019413,-1.53212009492979,,-7.443664357163126,,
,6018.0,851.0,5704.0,1504.0,2247.0,3200.0,-739.0,2025-06-30 23:09:23,94.0,,-2.45238462335893,-3.0007786230128,-1.53308353046677,,-7.408605399071007,,
,6023.0,855.0,5706.0,1509.0,2275.0,3215.0,-739.0,2025-06-30 23:09:24,93.0,,-2.45161880974827,-3.00115522768562,-1.53368149225165,,-7.357662322896002,,
,6022.0,854.0,5710.0,1508.0,2261.0,3225.0,-748.0,2025-06-30 23:09:25,91.0,,-2.45090198882713,-3.00091270799666,-1.53260884252438,,-7.2817325500801955,,
,6028.0,853.0,5710.0,1507.0,2267.0,3223.0,-747.0,2025-06-30 23:09:26,90.0,,-2.44952799787041,-3.00087253975035,-1.53356807671579,,-7.171125931391445,,
,6024.0,852.0,5710.0,1508.0,2280.0,3222.0,-756.0,2025-06-30 23:09:27,89.0,,-2.44852943362414,-3.00080067099208,-1.53205346512174,,-7.016100331133028,,
,6029.0,853.0,5709.0,1510.0,2305.0,3215.0,-731.0,2025-06-30 23:09:28,88.0,,-2.44629309401122,-3.00081964896765,-1.53222657369567,,-6.807459472640475,,
,6031.0,854.0,5714.0,1514.0,2283.0,3221.0,-760.0,2025-06-30 23:09:29,86.0,,-2.44411803225351,-3.00096993095503,-1.53232000498515,,-6.537159604551031,,
,6031.0,856.0,5713.0,1512.0,2280.0,3215.0,-766.0,2025-06-30 23:09:30,85.0,,-2.44254602221574,-3.0008120829555,-1.53184926140722,,-6.1988641749939415,,
,6030.0,853.0,5711.0,1512.0,2270.0,3217.0,-771.0,2025-06-30 23:09:31,85.0,,-2.44058862009102,-3.00085636606091,-1.53174261068059,,-5.788388063599595,,
,6031.0,854.0,5709.0,1512.0,2279.0,3204.0,-775.0,2025-06-30 23:09:32,85.0,,-2.44011305178766,-3.00098220369119,-1.53109843840932,,-5.303985824716682,,
,6032.0,852.0,5709.0,1511.0,2276.0,3214.0,-759.0,2025-06-30 23:09:33,85.0,,-2.43754364189496,-3.00077355632868,-1.53071630674931,,-4.7464591563013405,,
,6030.0,854.0,5709.0,1509.0,2272.0,3203.0,-758.0,2025-06-30 23:09:34,86.0,,-2.43581164014481,-3.00098413910875,-1.53056693065473,,-4.1190824423091215,,
,6026.0,852.0,5700.0,1506.0,2264.0,3196.0,-734.0,2025-06-30 23:09:35,86.0,,-2.43439920917395,-3.00094945092049,-1.53066170224527,,-3.427366759144632,,
,6023.0,850.0,5695.0,1503.0,2294.0,3193.0,-728.0,2025-06-30 23:09:36,87.0,,-2.43341342047478,-3.00063025948955,-1.53130963978084,,-2.6786988668084213,,
,6019.0,854.0,5691.0,1501.0,2287.0,3180.0,-722.0,2025-06-30 23:09:37,87.0,,-2.4304141152693,-3.00093007613421,-1.53129136762743,,-1.8819009122013532,,
,6016.0,852.0,5690.0,1500.0,2284.0,3186.0,-722.0,2025-06-30 23:09:38,88.0,,-2.42840884607761,-3.00087779265602,-1.5302404990923,,-1.0467585571041085,,
,6014.0,853.0,5685.0,1497.0,2292.0,3187.0,-738.0,2025-06-30 23:09:39,88.0,,-2.42644616145969,-3.00077038705986,-1.52933237835566,,-0.18356043048454107,,
,6008.0,849.0,5682.0,1491.0,2296.0,3185.0,-749.0,2025-06-30 23:09:40,89.0,,-2.42394571043771,-3.00083101869991,-1.52963191410035,,0.6973187450967758,,
,6009.0,850.0,5680.0,1495.0,2286.0,3180.0,-730.0,2025-06-30 23:09:41,90.0,,-2.42006734022781,-3.00069353391655,-1.52849629822341,,1.5857733625472996,,
,6008.0,851.0,5677.0,1492.0,2278.0,3188.0,-740.0,2025-06-30 23:09:42,91.0,,-2.41693218995479,-3.00083323236037,-1.52846680864329,,2.472257597857597,,
,6004.0,853.0,5675.0,1492.0,2305.0,3207.0,-733.0,2025-06-30 23:09:43,92.0,,-2.41511271979015,-3.0006402982141,-1.52664340567674,,3.348020638425738,,
,6001.0,850.0,5673.0,1492.0,2328.0,3212.0,-708.0,2025-06-30 23:09:44,93.0,,-2.41149932059736,-3.00074723626158,-1.52752969628226,,4.205301062804868,,
,5999.0,852.0,5671.0,1489.0,2334.0,3200.0,-735.0,2025-06-30 23:09:45,93.0,,-2.40985901383691,-3.00058245207894,-1.52623263888896,,5.037492979446232,,
,6000.0,852.0,5671.0,1491.0,2335.0,3205.0,-733.0,2025-06-30 23:09:46,93.0,,-2.40918258594948,-3.00058184538334,-1.52594440729079,,5.839289104478208,,
,6001.0,854.0,5671.0,1490.0,2319.0,3210.0,-722.0,2025-06-30 23:09:47,93.0,,-2.40780688059127,-3.00077961783847,-1.52620623992832,,6.606796770206036,,
,6000.0,852.0,5671.0,1488.0,2320.0,3201.0,-730.0,2025-06-30 23:09:48,92.0,,-2.40400612012905,-3.00058311242472,-1.52576208856397,,7.337615180360301,,
,6001.0,851.0,5668.0,1486.0,2313.0,3188.0,-737.0,2025-06-30 23:09:49,92.0,,-2.39853492190175,-3.00056866977493,-1.52516384323442,,8.030857815855033,,
,5998.0,854.0,5670.0,1489.0,2285.0,3192.0,-733.0,2025-06-30 23:09:50,92.0,,-2.39566782239863,-3.00051319175865,-1.52500603414313,,8.687103153322088,,
,5998.0,854.0,5672.0,1491.0,2293.0,3195.0,-759.0,2025-06-30 23:09:51,93.0,,-2.39184839658741,-3.00039828376061,-1.52426738573306,,9.3082596254656,,
,6001.0,855.0,5674.0,1492.0,2284.0,3195.0,-744.0,2025-06-30 23:09:52,93.0,,-2.38945861046418,-3.00059461389942,-1.52371548656685,,9.897336845744551,,
,6001.0,853.0,5672.0,1491.0,2303.0,3189.0,-720.0,2025-06-30 23:09:53,94.0,,-2.38671441396174,-3.00022474091803,-1.52304316273059,,10.458124219450095,,
,6001.0,854.0,5671.0,1491.0,2307.0,3184.0,-735.0,2025-06-30 23:09:54,94.0,,-2.38423628251816,-3.00059267905882,-1.52348130753628,,10.994789094955143,,
,6003.0,855.0,5672.0,1492.0,2276.0,3188.0,-741.0,2025-06-30 23:09:55,94.0,,-2.3818534821551,-3.0002065906102,-1.52295434294569,,11.511417387568004,,
,6005.0,855.0,5673.0,1493.0,2263.0,3197.0,-746.0,2025-06-30 23:09:56,94.0,,-2.37964142590587,-3.00037509493531,-1.52264681015824,,12.011527500076124,,
,6007.0,856.0,5674.0,1495.0,2262.0,3214.0,-747.0,2025-06-30 23:09:57,94.0,,-2.37775549123344,-3.00055901546629,-1.52251326891011,,12.497591768054809,,
,6005.0,854.0,5672.0,1493.0,2257.0,3223.0,-750.0,2025-06-30 23:09:58,94.0,,-2.37564469778121,-3.00036737467964,-1.52181121272658,,12.97059890426608,,
,6009.0,858.0,5676.0,1497.0,2286.0,3218.0,-754.0,2025-06-30 23:09:59,94.0,,-2.37301681533382,-3.00030098924103,-1.52142958983375,,13.429687598234528,,
,6009.0,858.0,5675.0,1496.0,2260.0,3224.0,-756.0,2025-06-30 23:10:00,94.0,,-2.37221011123466,-3.0002953168456,-1.52191147325382,,13.871877041715193,,
,6011.0,856.0,5674.0,1497.0,2265.0,3226.0,-732.0,2025-06-30 23:10:01,94.0,,-2.3699279130603,-3.00034770344239,-1.52120454341372,,14.291915464439137,,
,6016.0,857.0,5671.0,1499.0,2247.0,3200.0,-721.0,2025-06-30 23:10:02,94.0,,-2.36905930848155,-3.00021151885761,-1.52135720065027,,14.68226297454711,,
2025-06-30 23:07:56,6016.0,857.0,5677.0,1498.0,2232.0,3223.0,-723.0,2025-06-30 23:10:03,94.0,2025/06/30 11:07:56 PM,-2.3677795298013,-3.00011279744781,-1.52121997429368,,15.033220023171843,,
,6017.0,857.0,5677.0,1501.0,2229.0,3223.0,-736.0,2025-06-30 23:10:04,94.0,,-2.36675948051527,-3.00019316769529,-1.52115680536036,,15.333207590602507,,
,6017.0,858.0,5676.0,1503.0,2237.0,3218.0,-729.0,2025-06-30 23:10:05,95.0,,-2.36582698816342,-3.0001126918699,-1.52141304583228,,15.569199854068094,,
,6020.0,857.0,5676.0,1500.0,2249.0,3196.0,-738.0,2025-06-30 23:10:06,95.0,,-2.36664402722412,-3.00017776348456,-1.52196637575188,,15.727304476173687,,
,6022.0,858.0,5679.0,1503.0,2256.0,3213.0,-735.0,2025-06-30 23:10:07,94.0,,-2.36593497885064,-3.00032947689798,-1.52262752122016,,15.79347843457564,,
,6021.0,857.0,5678.0,1504.0,2267.0,3213.0,-711.0,2025-06-30 23:10:08,94.0,,-2.36603652115409,-3.00037054164197,-1.52332855270472,,15.754356227610941,,
,6028.0,858.0,5678.0,1506.0,2260.0,3195.0,-714.0,2025-06-30 23:10:09,93.0,,-2.36594814838372,-3.00024688179639,-1.52412595051844,,15.59815101152013,,
,6027.0,861.0,5680.0,1503.0,2253.0,3192.0,-712.0,2025-06-30 23:10:10,92.0,,-2.36669809388745,-3.00029859324925,-1.52402911681162,,15.315569594522811,,
,6023.0,859.0,5678.0,1503.0,2255.0,3201.0,-719.0,2025-06-30 23:10:11,91.0,,-2.36743963200149,-3.00026141207842,-1.52534044036382,,14.90066429728681,,
,6027.0,859.0,5678.0,1504.0,2247.0,3194.0,-719.0,2025-06-30 23:10:12,90.0,,-2.36647907925729,-3.00048048487285,-1.52567697513311,,14.35153422160503,,
,6029.0,860.0,5680.0,1504.0,2284.0,3195.0,-731.0,2025-06-30 23:10:13,90.0,,-2.36704919500376,-3.00025713998187,-1.52706029437182,,13.670789408427352,,
,6029.0,861.0,5681.0,1505.0,2303.0,3191.0,-728.0,2025-06-30 23:10:14,90.0,,-2.36749016682026,-3.00021911654128,-1.52656258380272,,12.865705640370077,,
,6028.0,859.0,5678.0,1503.0,2308.0,3205.0,-721.0,2025-06-30 23:10:15,91.0,,-2.36799509522866,-3.00031772789506,-1.52716799969147,,11.94802564560061,,
,6028.0,862.0,5679.0,1506.0,2315.0,3212.0,-764.0,2025-06-30 23:10:16,92.0,,-2.36957660377803,-3.00030363719517,-1.52729444936367,,10.933402382338262,,
,6029.0,862.0,5680.0,1504.0,2298.0,3202.0,-737.0,2025-06-30 23:10:17,93.0,,-2.37159398874406,-3.00030196589416,-1.52854462489417,,9.840526757945199,,
,6027.0,861.0,5679.0,1507.0,2300.0,3206.0,-746.0,2025-06-30 23:10:18,94.0,,-2.37127525193864,-3.00024929191031,-1.52996187302481,,8.690027083388806,,
,6031.0,860.0,5680.0,1506.0,2307.0,3201.0,-712.0,2025-06-30 23:10:19,95.0,,-2.37017535140744,-3.00054006752238,-1.52969029977161,,7.503260852823638,,
,6028.0,860.0,5680.0,1506.0,2308.0,3198.0,-732.0,2025-06-30 23:10:20,95.0,,-2.36752640960016,-3.00046583506294,-1.52922814903025,,6.301132815245556,,
,6033.0,862.0,5682.0,1510.0,2330.0,3196.0,-731.0,2025-06-30 23:10:21,95.0,,-2.36629529832899,-3.00018188383839,-1.52941778093708,,5.103063232049274,,
,6032.0,863.0,5686.0,1507.0,2349.0,3199.0,-707.0,2025-06-30 23:10:22,95.0,,-2.36393114160622,-3.00030319399476,-1.52872061179254,,3.9261992990122194,,
,6035.0,861.0,5685.0,1507.0,2347.0,3190.0,-719.0,2025-06-30 23:10:23,94.0,,-2.36338885253956,-3.00026559103491,-1.52921308118917,,2.784918770393589,,
,6033.0,859.0,5686.0,1505.0,2335.0,3177.0,-717.0,2025-06-30 23:10:24,94.0,,-2.36176155452669,-3.00047853066396,-1.53000957049199,,1.6906280380292318,,
,6036.0,860.0,5690.0,1507.0,2342.0,3183.0,-714.0,2025-06-30 23:10:25,94.0,,-2.36039922283509,-3.00024553729759,-1.52995406705421,,0.6518166727641843,,
,6036.0,861.0,5689.0,1512.0,2339.0,3195.0,-727.0,2025-06-30 23:10:26,94.0,,-2.36144447618677,-3.00048596553063,-1.52967549800941,,-0.32569667370212585,,
,6036.0,864.0,5691.0,1511.0,2334.0,3193.0,-730.0,2025-06-30 23:10:27,95.0,,-2.36273795848998,-3.00032770500001,-1.53025165464488,,-1.2384030392924499,,
,6037.0,862.0,5695.0,1513.0,2317.0,3189.0,-726.0,2025-06-30 23:10:28,96.0,,-2.36045699337723,-3.00037844791671,-1.52946652578021,,-2.0846981304467787,,
,6036.0,863.0,5697.0,1511.0,2314.0,3187.0,-729.0,2025-06-30 23:10:29,98.0,,-2.35746060829968,-3.00028812162766,-1.52881270438646,,-2.864489269565708,,
,6041.0,865.0,5698.0,1516.0,2353.0,3184.0,-706.0,2025-06-30 23:10:30,99.0,,-2.35535306737771,-3.00042913428897,-1.52915617735355,,-3.578849049374031,,
,6042.0,865.0,5699.0,1515.0,2326.0,3185.0,-740.0,2025-06-30 23:10:31,101.0,,-2.35352797404778,-3.00036449778717,-1.52842884749175,,-4.229729921648956,,
,6043.0,865.0,5702.0,1518.0,2333.0,3185.0,-737.0,2025-06-30 23:10:32,103.0,,-2.35139913327539,-3.00031888429116,-1.52851926947173,,-4.819737850158771,,
,6040.0,865.0,5703.0,1516.0,2353.0,3188.0,-752.0,2025-06-30 23:10:33,103.0,,-2.34872319036715,-3.00026125652663,-1.52749296438804,,-5.351953296809702,,
,6044.0,866.0,5706.0,1518.0,2337.0,3190.0,-749.0,2025-06-30 23:10:34,104.0,,-2.34746828340911,-3.00018453426095,-1.52589466597335,,-5.82978456390961,,
,6045.0,866.0,5705.0,1520.0,2346.0,3192.0,-724.0,2025-06-30 23:10:35,103.0,,-2.34550824697343,-3.00013918834972,-1.52655399929936,,-6.2568410895753015,,
,6043.0,868.0,5710.0,1521.0,2334.0,3185.0,-724.0,2025-06-30 23:10:36,102.0,,-2.34456859644779,-2.99997447096054,-1.52470596326765,,-6.636820435786426,,
,6045.0,868.0,5710.0,1520.0,2307.0,3181.0,-735.0,2025-06-30 23:10:37,101.0,,-2.34275184339422,-3.00016279197891,-1.52535501764195,,-6.973409105580505,,
,6046.0,866.0,5713.0,1522.0,2286.0,3209.0,-743.0,2025-06-30 23:10:38,100.0,,-2.3423697514205,-3.00000230348836,-1.52517564401386,,-7.2702011769116455,,
,6048.0,868.0,5714.0,1522.0,2298.0,3196.0,-712.0,2025-06-30 23:10:39,97.0,,-2.33964186239817,-3.00004584953688,-1.52353982384401,,-7.530639147671546,,
,6048.0,871.0,5717.0,1526.0,2310.0,3197.0,-721.0,2025-06-30 23:10:40,95.0,,-2.34042667597392,-3.00005646806817,-1.52368623134464,,-7.757979287456072,,
,6050.0,868.0,5718.0,1527.0,2309.0,3204.0,-736.0,2025-06-30 23:10:41,93.0,,-2.33981306502276,-3.00016643279514,-1.52396129160335,,-7.955280824800169,,
,6052.0,867.0,5720.0,1527.0,2305.0,3200.0,-722.0,2025-06-30 23:10:42,92.0,,-2.33851627485556,-3.00007594443305,-1.52400581401172,,-8.125415689683855,,
,6050.0,872.0,5723.0,1528.0,2285.0,3183.0,-743.0,2025-06-30 23:10:43,90.0,,-2.33762031767793,-3.00000701537909,-1.52393490361401,,-8.271093627698582,,
,6055.0,870.0,5725.0,1530.0,2291.0,3182.0,-719.0,2025-06-30 23:10:44,90.0,,-2.33642743978795,-3.00007372165141,-1.52321349665602,,-8.394896005118659,,
,6054.0,873.0,5728.0,1532.0,2281.0,3184.0,-715.0,2025-06-30 23:10:45,89.0,,-2.33456784131147,-3.00009223694899,-1.52347575412564,,-8.499310218125297,,
,6054.0,873.0,5729.0,1529.0,2276.0,3194.0,-717.0,2025-06-30 23:10:46,89.0,,-2.33399888486275,-3.00011509020528,-1.52342464757449,,-8.586755564717679,,
,6055.0,871.0,5731.0,1533.0,2284.0,3191.0,-712.0,2025-06-30 23:10:47,89.0,,-2.33241587235408,-3.00005276723336,-1.52274567109026,,-8.659591707723772,,
,6061.0,874.0,5733.0,1534.0,2267.0,3204.0,-721.0,2025-06-30 23:10:48,89.0,,-2.32946229732459,-2.99999711642904,-1.52205122773664,,-8.720103558569912,,
,6061.0,875.0,5740.0,1538.0,2273.0,3201.0,-714.0,2025-06-30 23:10:49,90.0,,-2.3289379803954,-3.00016905865122,-1.52244120393944,,-8.770461742865718,,
,6061.0,874.0,5739.0,1537.0,2270.0,3200.0,-717.0,2025-06-30 23:10:50,91.0,,-2.32753478426206,-3.0000010065155,-1.52275581390298,,-8.812664470156397,,
,6063.0,874.0,5741.0,1538.0,2285.0,3206.0,-726.0,2025-06-30 23:10:51,91.0,,-2.32650137376478,-2.99996639569251,-1.52260671323142,,-8.848472391548146,,
,6065.0,874.0,5744.0,1541.0,2269.0,3218.0,-713.0,2025-06-30 23:10:52,90.0,,-2.32553578980275,-3.00009048946206,-1.5222477512461,,-8.879351004296982,,
,6070.0,875.0,5748.0,1541.0,2273.0,3215.0,-700.0,2025-06-30 23:10:53,90.0,,-2.32241989479979,-3.00014932254996,-1.52204717912161,,-8.906434647393226,,
,6071.0,878.0,5750.0,1544.0,2267.0,3223.0,-695.0,2025-06-30 23:10:54,89.0,,-2.32090029849112,-2.99996126443684,-1.52181814125131,,-8.93052253449473,,
,6072.0,875.0,5749.0,1541.0,2240.0,3216.0,-698.0,,,,-2.31989289523608,-3.00003418831713,-1.52175235277046,,-8.952111587144394,,
,6074.0,878.0,5753.0,1544.0,2252.0,3217.0,-695.0,,,,-2.31818551542129,-3.00011761189535,-1.52252224235993,,-8.971464181411635,,
,6073.0,879.0,5754.0,1543.0,2235.0,3226.0,-646.0,,,,-2.31572525558839,-3.00009424308911,-1.52256673118936,,-8.988702273746739,,
,6075.0,880.0,5753.0,1546.0,2243.0,3242.0,-646.0,,,,-2.31420072968721,-2.99995426835919,-1.52150450637467,,-9.003913495571249,,
,6074.0,879.0,5752.0,1542.0,2234.0,3241.0,-696.0,,,,-2.31186826838061,-3.00003721031869,-1.52101665704808,,-9.017250489005889,,
,6074.0,878.0,5751.0,1542.0,2242.0,3225.0,-687.0,,,,-2.30891906635779,-2.99981029616973,-1.520557217471,,-9.02900309941653,,
,6077.0,882.0,5749.0,1541.0,2260.0,3218.0,-682.0,,,,-2.30756464313014,-2.99987389112611,-1.5203427474688,,-9.0396252925158,,
,6073.0,881.0,5749.0,1540.0,2250.0,3206.0,-693.0,,,,-2.30692321109634,-3.00003052433965,-1.52128392793871,,-9.04970534659646,,
,6073.0,882.0,5746.0,1536.0,2231.0,3207.0,-710.0,,,,-2.30485556002032,-2.99992734135109,-1.52192706817085,,-9.059877888810105,,
,6068.0,879.0,5743.0,1532.0,2225.0,3200.0,-717.0,,,,-2.30389456579823,-2.99989053329639,-1.52129578196734,,-9.070687070984247,,
,6066.0,882.0,5740.0,1531.0,2268.0,3204.0,-704.0,,,,-2.30359977968353,-2.99974436439419,-1.52156363808259,,-9.082418614924057,,
,6067.0,881.0,5738.0,1531.0,2249.0,3185.0,-707.0,,,,-2.30189667699199,-2.99999228304626,-1.52197116313569,,-9.094922608765762,,
,6063.0,880.0,5736.0,1527.0,2260.0,3201.0,-701.0,,,,-2.30165723686799,-2.99978255637338,-1.52176071789618,,-9.107448528321308,,
,6062.0,881.0,5735.0,1526.0,2269.0,3231.0,-736.0,,,,-2.30089975903598,-2.99991269822996,-1.52296305286942,,-9.118510164884015,,
,6061.0,879.0,5734.0,1525.0,2247.0,3219.0,-727.0,,,,-2.30007453178404,-2.99991176634748,-1.52258409694842,,-9.125792710649613,,
,6060.0,881.0,5734.0,1526.0,2260.0,3211.0,-734.0,,,,-2.30013791838794,-2.99977096988167,-1.52243540149641,,-9.126108633487595,,
,6059.0,881.0,5731.0,1525.0,2276.0,3214.0,-735.0,,,,-2.30330917977456,-3.00010363628901,-1.52311079270991,,-9.115403955017017,,
,6057.0,880.0,5732.0,1523.0,2290.0,3210.0,-717.0,,,,-2.30320105734925,-2.99986443359515,-1.52312308918086,,-9.088812512980484,,
,6055.0,882.0,5731.0,1524.0,2294.0,3202.0,-720.0,,,,-2.30120883225785,-2.99982541920429,-1.52223437285759,,-9.040753176013046,,
,6057.0,883.0,5735.0,1525.0,2292.0,3213.0,-770.0,,,,-2.29928664473526,-2.99978425264755,-1.52279184058606,,-8.965064361043284,,
,6055.0,882.0,5734.0,1523.0,2291.0,3197.0,-764.0,,,,-2.29933108838208,-3.00002465405626,-1.52327853555605,,-8.855171788712196,,
,6054.0,883.0,5735.0,1525.0,2278.0,3192.0,-757.0,,,,-2.29821946514139,-2.99993529550641,-1.5228204467393,,-8.704288406657701,,
,6055.0,881.0,5737.0,1526.0,2281.0,3184.0,-765.0,,,,-2.29722383016293,-2.9998744339714,-1.52197661480227,,-8.50564806949154,,
,6056.0,885.0,5736.0,1526.0,2315.0,3184.0,-747.0,,,,-2.2954308073428,-2.99976366692871,-1.52169261122051,,-8.252775082769114,,
,6057.0,886.0,5739.0,1524.0,2305.0,3195.0,-750.0,,,,-2.29459909409851,-2.99976343807172,-1.52173372070297,,-7.939789160344473,,
,6055.0,884.0,5741.0,1527.0,2317.0,3198.0,-727.0,,,,-2.29210665888757,-2.99985157708092,-1.52189210014299,,-7.561739903928537,,
,6051.0,886.0,5744.0,1527.0,2297.0,3216.0,-726.0,,,,-2.29016305750701,-2.9998536478576,-1.52057051280453,,-7.114957586732306,,
,6056.0,885.0,5746.0,1529.0,2284.0,3208.0,-752.0,,,,-2.28876337007801,-2.99972970456914,-1.52040830209418,,-6.597399076592323,,
,6057.0,887.0,5750.0,1529.0,2284.0,3204.0,-747.0,,,,-2.28744350337061,-2.9997896532627,-1.51993105442603,,-6.008960283977725,,
,6057.0,886.0,5751.0,1530.0,2287.0,3212.0,-740.0,,,,-2.28523941838879,-2.99991826440964,-1.5189585874297,,-5.351720550202954,,
,6058.0,888.0,5750.0,1532.0,2281.0,3203.0,-704.0,,,,-2.28519609099912,-2.9996097549927,-1.51814516865846,,-4.630081277288583,,
,6058.0,887.0,5754.0,1532.0,2265.0,3213.0,-724.0,,,,-2.28318578708565,-2.99963455838248,-1.51818012896965,,-3.8507630613432138,,
,6060.0,888.0,5755.0,1533.0,2257.0,3219.0,-719.0,,,,-2.28067363891067,-2.99959435868909,-1.5178584217842,,-3.022635116310254,,
,6061.0,888.0,5756.0,1535.0,2258.0,3231.0,-704.0,,,,-2.27994220023524,-2.99957080882099,-1.51702776800416,,-2.156368795056932,,
,6060.0,886.0,5758.0,1537.0,2258.0,3231.0,-703.0,,,,-2.27877842129514,-2.99957454028901,-1.51710756029613,,-1.2639310746237524,,
,6061.0,887.0,5757.0,1536.0,2258.0,3210.0,-707.0,,,,-2.27651524722159,-2.99972894393456,-1.51694819488547,,-0.3579582306233996,,
,6063.0,888.0,5761.0,1536.0,2291.0,3217.0,-693.0,,,,-2.27525308673363,-2.99954823104756,-1.51732394898376,,0.5489319218213063,,
,6065.0,887.0,5765.0,1538.0,2271.0,3204.0,-700.0,,,,-2.27516617861317,-2.99961937648164,-1.5168295107345,,1.4448230077952586,,
,6063.0,889.0,5765.0,1539.0,2246.0,3196.0,-699.0,,,,-2.2742657898403,-2.99965162271657,-1.51784320838659,,2.3191149223970937,,
,6066.0,889.0,5765.0,1535.0,2261.0,3195.0,-683.0,,,,-2.27389221206721,-2.9996793812255,-1.51813362747707,,3.1630183150913824,,
,6065.0,888.0,5768.0,1538.0,2259.0,3204.0,-676.0,,,,-2.27385033197054,-2.99966246569964,-1.51862108507246,,3.969892901195955,,
,6067.0,889.0,5769.0,1541.0,2251.0,3206.0,-698.0,,,,-2.27330244880109,-2.99975251789455,-1.5199841817681,,4.7354125355913785,,
,6066.0,891.0,5768.0,1540.0,2253.0,3210.0,-674.0,,,,-2.27332196733421,-2.99963038310703,-1.51989660152178,,5.4575587322019405,,
,6067.0,889.0,5772.0,1541.0,2249.0,3218.0,-679.0,,,,-2.27252608568139,-2.99975317287803,-1.51964139166287,,6.1364606163733155,,
,6066.0,890.0,5770.0,1536.0,2264.0,3205.0,-701.0,,,,-2.27150856721077,-2.99972998051052,-1.52037330200925,,6.774110662206668,,
,6066.0,891.0,5772.0,1540.0,2280.0,3208.0,-721.0,,,,-2.26987872180363,-2.99962363456622,-1.51992451523205,,7.373990288181721,,
,6067.0,893.0,5774.0,1542.0,2295.0,3219.0,-704.0,,,,-2.26702854746662,-2.9996129676131,-1.52039828534007,,7.940637831657329,,
,6064.0,891.0,5775.0,1542.0,2297.0,3220.0,-704.0,,,,-2.26556590208306,-2.99980130697433,-1.52042273876797,,8.47918637858012,,
,6062.0,889.0,5777.0,1539.0,2275.0,3225.0,-686.0,,,,-2.26391899012655,-2.99979203995174,-1.52004031559227,,8.994894070210465,,
,6066.0,890.0,5777.0,1542.0,2276.0,3208.0,-685.0,,,,-2.26189516027215,-2.9997122773439,-1.52065011728803,,9.492687015319076,,
,6067.0,893.0,5781.0,1544.0,2286.0,3209.0,-681.0,,,,-2.25982799315414,-2.99959204160571,-1.52025978208444,,9.976734342743985,,
,6068.0,893.0,5777.0,1544.0,2291.0,3204.0,-694.0,,,,-2.25740429137162,-2.99951177374035,-1.52032554229117,,10.450074263164508,,
,6067.0,891.0,5781.0,1544.0,2302.0,3208.0,-707.0,,,,-2.25470275892189,-2.99958235124721,-1.51919363425779,,10.914307753851455,,
,6067.0,890.0,5781.0,1541.0,2286.0,3204.0,-726.0,,,,-2.25119152436663,-2.99965786276625,-1.51998795939876,,11.369372507005185,,
,6066.0,892.0,5788.0,1545.0,2301.0,3191.0,-720.0,,,,-2.24645971033101,-2.99941564720513,-1.51961190491779,,11.813405008571932,,
,6069.0,894.0,5787.0,1546.0,2303.0,3188.0,-722.0,,,,-2.24217896956064,-2.99946892356184,-1.51935178169475,,12.242694333065002,,
,6068.0,893.0,5788.0,1545.0,2297.0,3196.0,-719.0,,,,-2.23804297501286,-2.9996752872975,-1.5179203096645,,12.65172859454896,,
,6068.0,892.0,5789.0,1547.0,2281.0,3211.0,-708.0,,,,-2.23426542751455,-2.99948730940298,-1.5178026143473,,13.033334446255683,,
,6070.0,892.0,5792.0,1548.0,2306.0,3215.0,-692.0,,,,-2.23092333677899,-2.99943793963588,-1.51831202295172,,13.37891095623777,,
,6069.0,896.0,5793.0,1550.0,2322.0,3211.0,-727.0,,,,-2.22784460409651,-2.99943307554481,-1.51767357593336,,13.678760012811843,,
,6071.0,896.0,5798.0,1552.0,2317.0,3207.0,-723.0,,,,-2.22578224516337,-2.99937997440203,-1.51744390175169,,13.922514087659051,,
,6068.0,896.0,5796.0,1548.0,2307.0,3201.0,-709.0,,,,-2.22360059405062,-2.99948815349345,-1.51691823932795,,14.099656961420354,,
,6073.0,895.0,5797.0,1550.0,2325.0,3200.0,-713.0,,,,-2.22150133464661,-2.99955990082716,-1.51701960861516,,14.200123331089161,,
,6071.0,897.0,5800.0,1552.0,2292.0,3187.0,-724.0,,,,-2.22078023019864,-2.99940987994638,-1.51600517508767,,14.214950222097464,,
,6073.0,895.0,5801.0,1555.0,2294.0,3172.0,-697.0,,,,-2.22028111312355,-2.99920381139651,-1.51711919687639,,14.136939376657807,,
,6073.0,895.0,5803.0,1556.0,2313.0,3175.0,-703.0,,,,-2.21860276737693,-2.99926391659111,-1.5152447435464,,13.961278359384162,,
,6071.0,894.0,5806.0,1556.0,2277.0,3196.0,-719.0,,,,-2.21661509678164,-2.99934701881262,-1.51548876060105,,13.686061741845656,,
,6077.0,897.0,5809.0,1556.0,2273.0,3192.0,-691.0,,,,-2.21565848872392,-2.99934953998664,-1.51490164568257,,13.312654057423373,,
,6078.0,899.0,5812.0,1558.0,2262.0,3210.0,-697.0,,,,-2.21471868929765,-2.99936376081616,-1.51462022838238,,12.845843462936715,,
,6078.0,900.0,5813.0,1560.0,2276.0,3217.0,-690.0,,,,-2.21348498421856,-2.99912335360967,-1.51351539343266,,12.29374856093566,,
,6079.0,899.0,5816.0,1560.0,2301.0,3229.0,-707.0,,,,-2.21342046676088,-2.99928514062635,-1.51517319039841,,11.667460425404599,,
,6080.0,899.0,5815.0,1560.0,2272.0,3219.0,-707.0,,,,-2.2138919377234,-2.99944722127937,-1.5144473593711,,10.980427900024168,,
,6083.0,900.0,5821.0,1563.0,2279.0,3200.0,-701.0,,,,-2.21546472399397,-2.999454480798,-1.51615153506594,,10.247625491518813,,
,6084.0,901.0,5822.0,1563.0,2277.0,3207.0,-690.0,,,,-2.21583024038164,-2.99938530664692,-1.51586502845318,,9.484574613053429,,
,6084.0,900.0,5824.0,1566.0,2262.0,3192.0,-680.0,,,,-2.21454475214455,-2.99958242340821,-1.51532886648169,,8.70631264461462,,
,6084.0,898.0,5824.0,1564.0,2258.0,3201.0,-687.0,,,,-2.21289370712921,-2.99952338311829,-1.51510570487203,,7.926413556570967,,
2025-06-30 23:07:57,6086.0,902.0,5829.0,1565.0,2253.0,3219.0,-685.0,,,2025/06/30 11:07:57 PM,-2.2133020963069,-2.99971992456549,-1.51493098865061,,7.156156522631812,,
,6089.0,902.0,5833.0,1569.0,2260.0,3212.0,-698.0,,,,-2.21076258596143,-2.99947351718028,-1.51468384768256,,6.403917760485711,,
,6086.0,904.0,5834.0,1568.0,2262.0,3208.0,-695.0,,,,-2.21027088828217,-2.99962036257411,-1.51420978800533,,5.674831660901421,,
,6088.0,902.0,5836.0,1568.0,2288.0,3228.0,-708.0,,,,-2.20931182846878,-2.99948523931645,-1.51485230745414,,4.970736763573478,,
,6092.0,902.0,5840.0,1570.0,2287.0,3222.0,-697.0,,,,-2.20892981500937,-2.99967582402564,-1.51383060484414,,4.290395509774642,,
,6092.0,903.0,5846.0,1572.0,2295.0,3201.0,-650.0,,,,-2.2096400915054,-2.99972103965753,-1.51446946624908,,3.6299562229151867,,
,6094.0,901.0,5844.0,1573.0,2293.0,3215.0,-657.0,,,,-2.21033179831464,-2.99962998561623,-1.51472151865335,,2.983610806455944,,
,6095.0,901.0,5847.0,1572.0,2278.0,3236.0,-656.0,,,,-2.20920375390801,-2.99982640279299,-1.51478714232725,,2.3443901704599974,,
,6094.0,903.0,5850.0,1573.0,2285.0,3223.0,-652.0,,,,-2.20964970218866,-2.99976955055445,-1.51409268896543,,1.70503006544085,,
,6096.0,903.0,5849.0,1575.0,2293.0,3240.0,-688.0,,,,-2.20948800403425,-2.99980442322025,-1.51268540925242,,1.0588335140555292,,
,6098.0,906.0,5854.0,1576.0,2270.0,3236.0,-654.0,,,,-2.20846655334648,-2.99987002580295,-1.5127528314413,,0.4004547633644081,,
,6098.0,905.0,5855.0,1578.0,2260.0,3234.0,-650.0,,,,-2.20801302962104,-3.00001070071374,-1.51368477920612,,-0.27346410717164443,,
,6096.0,904.0,5856.0,1576.0,2235.0,3238.0,-627.0,,,,-2.20846267567893,-2.99998468475825,-1.51346056435436,,-0.963858688013859,,
,6097.0,905.0,5855.0,1575.0,2238.0,3226.0,-649.0,,,,-2.20938234190013,-3.00008468101059,-1.51313739365087,,-1.6690444010366376,,
,6096.0,908.0,5855.0,1573.0,2254.0,3199.0,-639.0,,,,-2.20997016550635,-3.0001246207191,-1.51303380587606,,-2.384766475491115,,
,6091.0,906.0,5849.0,1569.0,2258.0,3187.0,-643.0,,,,-2.21130522144902,-3.00012963171577,-1.51444400329836,,-3.104485235262955,,
,6087.0,905.0,5848.0,1567.0,2268.0,3211.0,-671.0,,,,-2.21164136780248,-3.00014170147811,-1.51367779980752,,-3.8198625252632485,,
,6086.0,905.0,5844.0,1564.0,2257.0,3204.0,-688.0,,,,-2.21348113569715,-3.00015985110718,-1.51413818390132,,-4.5213970444649245,,
,6083.0,906.0,5843.0,1561.0,2265.0,3212.0,-725.0,,,,-2.21484557034771,-3.00011863575341,-1.5137978328174,,-5.199143322118578,,
,6079.0,908.0,5845.0,1561.0,2275.0,3223.0,-708.0,,,,-2.21605830608911,-3.00016337876041,-1.51370009832392,,-5.843442690731883,,
,6076.0,906.0,5838.0,1558.0,2255.0,3225.0,-685.0,,,,-2.21817792468503,-3.00031778404952,-1.51323597198302,,-6.445596371694542,,
,6072.0,906.0,5838.0,1555.0,2267.0,3217.0,-674.0,,,,-2.21887920439062,-3.00014892512596,-1.51302993510733,,-6.998420942921496,,
,6068.0,908.0,5836.0,1551.0,2286.0,3222.0,-670.0,,,,-2.21722481134294,-3.00024303145671,-1.51286864459669,,-7.496643148591825,,
,6067.0,907.0,5837.0,1552.0,2278.0,3203.0,-642.0,,,,-2.21700124796415,-3.00046233748973,-1.5121980965136,,-7.937110868253992,,
,6060.0,904.0,5834.0,1551.0,2280.0,3197.0,-661.0,,,,-2.21679994773916,-3.00042837894049,-1.5127328844082,,-8.318816858473964,,
,6058.0,905.0,5834.0,1548.0,2270.0,3198.0,-706.0,,,,-2.21940268623033,-3.00039787446742,-1.51293973476946,,-8.642749743513168,,
,6055.0,907.0,5836.0,1550.0,2293.0,3198.0,-676.0,,,,-2.22254113733631,-3.00038836396312,-1.51273893374574,,-8.911601980421597,,
,6052.0,907.0,5835.0,1548.0,2296.0,3206.0,-702.0,,,,-2.22580732836984,-3.0004994254569,-1.51239623086453,,-9.129376651925739,,
,6053.0,908.0,5836.0,1548.0,2297.0,3212.0,-703.0,,,,-2.22849981692075,-3.0004537124931,-1.51280206407645,,-9.300942910490313,,
,6049.0,907.0,5835.0,1545.0,2278.0,3185.0,-741.0,,,,-2.23010502560589,-3.00051883283129,-1.51325734366636,,-9.431592275468127,,
,6050.0,906.0,5837.0,1548.0,2269.0,3196.0,-735.0,,,,-2.23126025488774,-3.00057146652697,-1.51410622262534,,-9.526643669034438,,
,6048.0,906.0,5839.0,1550.0,2278.0,3190.0,-745.0,,,,-2.2316554366817,-3.00056392894137,-1.51320631858423,,-9.591134140293939,,
,6043.0,909.0,5838.0,1548.0,2266.0,3190.0,-730.0,,,,-2.23397732020029,-3.00069611433272,-1.51276739248122,,-9.629616436754945,,
,6044.0,909.0,5840.0,1548.0,2261.0,3200.0,-723.0,,,,-2.23729368505312,-3.00083579508663,-1.51319699548811,,-9.646067167514925,,
,6042.0,907.0,5842.0,1547.0,2250.0,3192.0,-690.0,,,,-2.23770443601239,-3.00070190796955,-1.51299040019164,,-9.643893835967313,,
,6042.0,908.0,5843.0,1550.0,2222.0,3195.0,-668.0,,,,-2.23864629004588,-3.00070445027648,-1.51282336157802,,-9.626017904522858,,
,6041.0,911.0,5847.0,1552.0,2231.0,3202.0,-696.0,,,,-2.23798010409703,-3.00072834843868,-1.51281051551645,,-9.59500473523664,,
,6041.0,912.0,5850.0,1552.0,2234.0,3214.0,-698.0,,,,-2.23923168260069,-3.00085221205891,-1.51244381722081,,-9.553208801638718,,
,6040.0,910.0,5850.0,1550.0,2213.0,3223.0,-686.0,,,,-2.24043978869482,-3.00077239814636,-1.51261034870947,,-9.502902953399602,,
,6040.0,910.0,5853.0,1552.0,2213.0,3244.0,-694.0,,,,-2.24146966561116,-3.00081462000469,-1.51236402106252,,-9.446363403004883,,
,6040.0,911.0,5855.0,1553.0,2224.0,3251.0,-667.0,,,,-2.2422320591058,-3.00088340766134,-1.5121055009441,,-9.385887823819127,,
,6041.0,911.0,5857.0,1553.0,2200.0,3243.0,-659.0,,,,-2.24293788463157,-3.00092402512438,-1.51258643680345,,-9.323732868415146,,
,6041.0,911.0,5861.0,1553.0,2190.0,3241.0,-658.0,,,,-2.24436204616185,-3.00097246779944,-1.51296887958712,,-9.261969165807066,,
,6038.0,909.0,5859.0,1553.0,2197.0,3241.0,-630.0,,,,-2.24506808313994,-3.00095990707466,-1.51265252056617,,-9.202264967908256,,
,6038.0,913.0,5865.0,1555.0,2215.0,3253.0,-626.0,,,,-2.2456642584902,-3.000980831716,-1.51278651291029,,-9.145621876434792,,
,6038.0,911.0,5868.0,1555.0,2206.0,3238.0,-627.0,,,,-2.24582558796415,-3.00119055314129,-1.51157149047062,,-9.09209531458603,,
,6038.0,912.0,5866.0,1555.0,2208.0,3228.0,-635.0,,,,-2.24578324999768,-3.00110526828189,-1.51211644676494,,-9.040537154318962,,
,6036.0,911.0,5869.0,1555.0,2205.0,3213.0,-627.0,,,,-2.24732316387123,-3.00107457882367,-1.51123167049035,,-8.988397813932847,,
,6037.0,908.0,5871.0,1556.0,2205.0,3221.0,-625.0,,,,-2.24741947653374,-3.00110651279372,-1.51142485793091,,-8.931620912034994,,
,6040.0,911.0,5872.0,1556.0,2212.0,3222.0,-643.0,,,,-2.24947401608235,-3.00129106327612,-1.51155018013478,,-8.864656320131425,,
,6035.0,909.0,5876.0,1558.0,2228.0,3234.0,-658.0,,,,-2.25036497405476,-3.00116110599695,-1.51115020660725,,-8.780607855840172,,
,6033.0,912.0,5874.0,1556.0,2246.0,3229.0,-673.0,,,,-2.25089040885508,-3.00153368564358,-1.51143919047099,,-8.671519985426492,,
,6034.0,911.0,5874.0,1556.0,2243.0,3223.0,-616.0,,,,-2.2480421919175,-3.00135736259622,-1.51100002713732,,-8.52879403831816,,
,6033.0,910.0,5878.0,1557.0,2241.0,3223.0,-620.0,,,,-2.24622530028026,-3.00126834539151,-1.51056610279467,,-8.343709724404626,,
,6033.0,912.0,5879.0,1556.0,2221.0,3221.0,-606.0,,,,-2.2473877330712,-3.00139598906307,-1.51103551180908,,-8.10801404036998,,
,6033.0,910.0,5879.0,1555.0,2238.0,3220.0,-595.0,,,,-2.24892850115054,-3.00145543329855,-1.51023054642644,,-7.814528867834324,,
,6030.0,911.0,5877.0,1553.0,2249.0,3236.0,-605.0,,,,-2.24684081460979,-3.00144914772488,-1.51005057669004,,-7.457722226781756,,
,6033.0,912.0,5882.0,1555.0,2246.0,3239.0,-624.0,,,,-2.24702498259924,-3.00147453555972,-1.50946061558773,,-7.034187315174589,,
,6031.0,914.0,5883.0,1552.0,2255.0,3229.0,-613.0,,,,-2.2460646064565,-3.00154781274673,-1.50943337585596,,-6.542978794749627,,
,6029.0,911.0,5885.0,1555.0,2254.0,3228.0,-629.0,,,,-2.24571334590735,-3.00155084257462,-1.50864659439542,,-5.985767449190381,,
,6029.0,912.0,5887.0,1557.0,2264.0,3228.0,-650.0,,,,-2.24423165819043,-3.00167637038856,-1.50795935331292,,-5.366791829804589,,
,6027.0,909.0,5888.0,1556.0,2269.0,3215.0,-698.0,,,,-2.24366594962729,-3.00157886138812,-1.50792748313736,,-4.692607345309603,,
,6027.0,912.0,5889.0,1554.0,2273.0,3213.0,-661.0,,,,-2.2427058492034,-3.00157888149538,-1.50629487701997,,-3.971656791957907,,
,6030.0,912.0,5891.0,1555.0,2277.0,3210.0,-665.0,,,,-2.2424085655638,-3.00162219317242,-1.50624631471337,,-3.2137078402279817,,
,6033.0,916.0,5897.0,1558.0,2273.0,3215.0,-648.0,,,,-2.24175090400253,-3.0014778999207,-1.50471311694158,,-2.429218549957293,,
,6029.0,911.0,5898.0,1555.0,2259.0,3227.0,-675.0,,,,-2.24010280304039,-3.00158262981736,-1.50458929077149,,-1.6286987232322783,,
,6027.0,912.0,5899.0,1555.0,2267.0,3207.0,-676.0,,,,-2.24023675245339,-3.00162711059178,-1.5044607358098,,-0.8221320184579862,,
,6031.0,912.0,5904.0,1558.0,2280.0,3215.0,-672.0,,,,-2.23948402156227,-3.00155940337195,-1.50418453659332,,-0.01851245726957834,,
,6032.0,912.0,5904.0,1560.0,2291.0,3214.0,-670.0,,,,-2.23878858265983,-3.00163630643494,-1.50248361318953,,0.7744683554512011,,
,6030.0,912.0,5907.0,1559.0,2282.0,3201.0,-648.0,,,,-2.23813655150034,-3.00150986770146,-1.50165110115707,,1.5505676847737921,,
,6031.0,909.0,5906.0,1557.0,2291.0,3199.0,-666.0,,,,-2.23755309902234,-3.00150065118257,-1.50274745345938,,2.3049777806242107,,
,6034.0,912.0,5911.0,1560.0,2285.0,3200.0,-688.0,,,,-2.23816091406233,-3.00164761956611,-1.50135698289145,,3.0341776547670714,,
,6036.0,914.0,5912.0,1560.0,2263.0,3225.0,-681.0,,,,-2.23755566538727,-3.00146766057399,-1.50088324261047,,3.735692495041683,,
,6036.0,912.0,5914.0,1558.0,2272.0,3225.0,-671.0,,,,-2.23711565760355,-3.0016292118863,-1.50044737387404,,4.40781257647006,,
,6038.0,912.0,5916.0,1559.0,2268.0,3223.0,-681.0,,,,-2.23664672882593,-3.0015380499023,-1.50013742467243,,5.049325929223292,,
,6038.0,911.0,5918.0,1562.0,2268.0,3230.0,-693.0,,,,-2.23587732221111,-3.00141984092807,-1.49964648392448,,5.659313299763017,,
,6042.0,913.0,5925.0,1564.0,2263.0,3247.0,-674.0,,,,-2.23608567480196,-3.0014926401766,-1.50047886941499,,6.237040521374585,,
,6042.0,913.0,5924.0,1564.0,2253.0,3246.0,-673.0,,,,-2.23562723006132,-3.00148826209912,-1.49942901004641,,6.781964179566003,,
,6044.0,913.0,5924.0,1563.0,2252.0,3240.0,-685.0,,,,-2.23486992745683,-3.00145398749848,-1.50047972993884,,7.29384459987054,,
,6048.0,913.0,5929.0,1565.0,2248.0,3223.0,-678.0,,,,-2.23348990303539,-3.0014018178339,-1.49984524564743,,7.772939376270076,,
,6050.0,914.0,5930.0,1563.0,2232.0,3221.0,-653.0,,,,-2.23383984483094,-3.00150105032129,-1.49903175399182,,8.220234124451286,,
,6050.0,913.0,5936.0,1566.0,2240.0,3256.0,-645.0,,,,-2.23285775237364,-3.00146670826919,-1.49974062332106,,8.637657077176833,,
,6052.0,913.0,5936.0,1567.0,2238.0,3259.0,-658.0,,,,-2.23289066140157,-3.00158550058967,-1.49865031348925,,9.028221646103482,,
,6053.0,913.0,5939.0,1566.0,2231.0,3253.0,-651.0,,,,-2.23119866724848,-3.00152667267306,-1.49887278703065,,9.396046501176215,,
,6054.0,913.0,5940.0,1567.0,2238.0,3249.0,-662.0,,,,-2.22991614524885,-3.00145562768139,-1.49899596547734,,9.74621595570568,,
,6058.0,915.0,5948.0,1569.0,2227.0,3238.0,-690.0,,,,-2.22836094891485,-3.00148948635314,-1.49900198682845,,10.08446383110744,,
,6060.0,915.0,5948.0,1571.0,2225.0,3241.0,-698.0,,,,-2.22849860879044,-3.00159240811006,-1.49920867008613,,10.416689699784312,,
,6058.0,913.0,5949.0,1569.0,2218.0,3238.0,-685.0,,,,-2.22624512979138,-3.00146410848879,-1.49866539291631,,10.748343876191983,,
,6061.0,914.0,5953.0,1570.0,2243.0,3249.0,-667.0,,,,-2.22622660766523,-3.00155152946973,-1.49896692322177,,11.083741611052734,,
,6067.0,915.0,5955.0,1573.0,2252.0,3244.0,-664.0,,,,-2.22507986310553,-3.00149152484214,-1.49884752671675,,11.425382519079921,,
,6065.0,914.0,5956.0,1570.0,2255.0,3232.0,-643.0,,,,-2.22387040937995,-3.00153257011164,-1.49840706402811,,11.773355239062358,,
,6070.0,915.0,5959.0,1572.0,2255.0,3245.0,-670.0,,,,-2.22329941665815,-3.00161973531007,-1.49869165026511,,12.124899595491998,,
,6073.0,914.0,5960.0,1573.0,2237.0,3220.0,-654.0,,,,-2.22299833795494,-3.00157614897526,-1.49858407416523,,12.474181421620958,,
,6074.0,914.0,5964.0,1574.0,2263.0,3222.0,-685.0,,,,-2.2241749570601,-3.00172989756547,-1.49871777552533,,12.812312103838888,,
,6076.0,915.0,5968.0,1574.0,2250.0,3231.0,-684.0,,,,-2.2240905289991,-3.00152941721264,-1.49906712733815,,13.127619279321294,,
,6079.0,915.0,5969.0,1576.0,2254.0,3245.0,-691.0,,,,-2.22211414732585,-3.00155690782422,-1.4988184306859,,13.406150199714581,,
,6079.0,917.0,5972.0,1573.0,2243.0,3258.0,-672.0,,,,-2.22292545496776,-3.00152697401458,-1.49870664985138,,13.632368086084679,,
,6078.0,915.0,5971.0,1575.0,2231.0,3245.0,-706.0,,,,-2.22212900746125,-3.00163637611056,-1.49797438889385,,13.789986862812452,,
,6079.0,918.0,5975.0,1574.0,2231.0,3236.0,-672.0,,,,-2.22235077363165,-3.00164954188288,-1.4978278155716,,13.862882226952745,,
,6077.0,916.0,5974.0,1571.0,2220.0,3239.0,-675.0,,,,-2.22098410905051,-3.00149795796969,-1.49715015128105,,13.836016417095152,,
,6073.0,914.0,5971.0,1566.0,2233.0,3210.0,-638.0,,,,-2.21989567995037,-3.00144021684339,-1.49815918882116,,13.696317932052569,,
,6070.0,915.0,5969.0,1563.0,2240.0,3228.0,-639.0,,,,-2.21881720193203,-3.00157031129198,-1.49721331863431,,13.433463297005353,,
,6067.0,914.0,5966.0,1561.0,2255.0,3227.0,-635.0,,,,-2.21723279462691,-3.00166721033054,-1.49717296512781,,13.040515114922918,,
,6060.0,913.0,5967.0,1555.0,2244.0,3232.0,-639.0,,,,-2.21587534528009,-3.0015793469451,-1.49693740339847,,12.51438046553515,,
,6055.0,916.0,5966.0,1552.0,2264.0,3227.0,-644.0,,,,-2.21420052048581,-3.00154798794493,-1.49663010115991,,11.856067194295521,,
,6051.0,913.0,5961.0,1548.0,2261.0,3207.0,-657.0,,,,-2.21162900463305,-3.00158575856815,-1.49626853779862,,11.070731019972614,,
,6043.0,911.0,5963.0,1548.0,2274.0,3206.0,-636.0,,,,-2.21145343599232,-3.00146066611004,-1.49622523268106,,10.167520096161791,,
,6045.0,912.0,5958.0,1544.0,2265.0,3209.0,-646.0,,,,-2.21101351915827,-3.00142249095399,-1.49635578971097,,9.159233112522866,,
,6036.0,909.0,5961.0,1543.0,2267.0,3207.0,-651.0,,,,-2.20971540054607,-3.00157938588999,-1.49561997117802,,8.06181225284175,,
,6029.0,908.0,5957.0,1536.0,2271.0,3212.0,-654.0,,,,-2.20982111703016,-3.0015397020817,-1.49569183290298,,6.89369547317185,,
,6026.0,908.0,5957.0,1535.0,2292.0,3233.0,-650.0,,,,-2.20915830597238,-3.0014566378806,-1.4960469619786,,5.675056399959756,,
,6024.0,907.0,5960.0,1536.0,2321.0,3224.0,-654.0,,,,-2.20915997657833,-3.00147289571825,-1.496388124377,,4.426966589348283,,
,6019.0,905.0,5957.0,1532.0,2326.0,3226.0,-669.0,,,,-2.2085656635831,-3.00150104622846,-1.49510380644769,,3.1705237354141795,,
,6018.0,908.0,5958.0,1530.0,2319.0,3228.0,-660.0,,,,-2.20854860809958,-3.001408718876,-1.49542427893398,,1.9259979135137002,,
,6013.0,903.0,5957.0,1529.0,2311.0,3207.0,-617.0,,,,-2.20943717707272,-3.00141214692048,-1.49576476369922,,0.7120518409785264,,
,6011.0,906.0,5961.0,1530.0,2318.0,3205.0,-664.0,,,,-2.20978151713016,-3.00166197485901,-1.49477553216039,,-0.4549129095707091,,
,6009.0,908.0,5961.0,1529.0,2327.0,3203.0,-665.0,,,,-2.2091906552615,-3.0015114026032,-1.49510966275956,,-1.5612439708133514,,
,6005.0,910.0,5962.0,1526.0,2319.0,3223.0,-659.0,,,,-2.20980912550496,-3.00159368509042,-1.49590396299956,,-2.5963379290343926,,
,6002.0,907.0,5963.0,1527.0,2312.0,3212.0,-660.0,,,,-2.2085658856753,-3.0015179412141,-1.49495836524834,,-3.552747265596556,,
,6005.0,908.0,5964.0,1527.0,2296.0,3213.0,-649.0,,,,-2.20905836706547,-3.00145817375807,-1.49504954378173,,-4.426106120737134,,
,5999.0,906.0,5966.0,1527.0,2278.0,3218.0,-630.0,,,,-2.20902618643995,-3.00175359839755,-1.49351020696998,,-5.214899474468136,,
,5999.0,907.0,5967.0,1526.0,2279.0,3224.0,-646.0,,,,-2.20917254266167,-3.00156970947578,-1.49461076244979,,-5.920109757142964,,
,5998.0,907.0,5969.0,1525.0,2293.0,3222.0,-664.0,,,,-2.20907460869658,-3.00179513408552,-1.49404390965095,,-6.5447804964763225,,
,5997.0,906.0,5968.0,1526.0,2295.0,3233.0,-631.0,,,,-2.2081756576528,-3.0015857892768,-1.49424786333845,,-7.093538210706925,,
,5998.0,907.0,5973.0,1526.0,2270.0,3208.0,-625.0,,,,-2.20737331424844,-3.00140871569233,-1.49389895100139,,-7.57211149280085,,
,5997.0,907.0,5975.0,1529.0,2285.0,3212.0,-641.0,,,,-2.20647012874726,-3.00155063640642,-1.49343192139427,,-7.986880492202603,,
,5997.0,909.0,5974.0,1529.0,2282.0,3221.0,-629.0,,,,-2.20490903950816,-3.0014614014023,-1.49331549282559,,-8.344481397024666,,
,5998.0,907.0,5976.0,1527.0,2273.0,3228.0,-640.0,,,,-2.20426993027246,-3.00151181776291,-1.4934965913745,,-8.651480118053527,,
2025-06-30 23:07:58,5996.0,908.0,5979.0,1527.0,2253.0,3224.0,-614.0,,,2025/06/30 11:07:58 PM,-2.20195290493327,-3.00156322761044,-1.49352411279411,,-8.914119064504215,,
,5998.0,907.0,5982.0,1530.0,2245.0,3211.0,-621.0,,,,-2.20067946986237,-3.00145543175103,-1.4922425183356,,-9.138133071357647,,
,5998.0,910.0,5984.0,1528.0,2244.0,3213.0,-641.0,,,,-2.20096040240085,-3.00155943116783,-1.49307330080989,,-9.328626801315377,,
,5996.0,908.0,5987.0,1530.0,2269.0,3213.0,-630.0,,,,-2.19939866731716,-3.00142539079432,-1.49227132458509,,-9.49000601910245,,
,5995.0,909.0,5988.0,1526.0,2270.0,3223.0,-653.0,,,,-2.19947478383856,-3.00150662503972,-1.49294635987176,,-9.625957152110992,,
,5996.0,909.0,5990.0,1526.0,2258.0,3235.0,-656.0,,,,-2.20007293507288,-3.00165342777589,-1.49350838068639,,-9.739471389406562,,
,6000.0,911.0,5992.0,1531.0,2297.0,3213.0,-639.0,,,,-2.20244312598643,-3.00151218049156,-1.49327093649279,,-9.83290990095765,,
,5997.0,909.0,5995.0,1529.0,2293.0,3210.0,-625.0,,,,-2.20307276262796,-3.00166699742399,-1.49364902942954,,-9.908105255959804,,
,5995.0,909.0,5995.0,1527.0,2276.0,3233.0,-620.0,,,,-2.20520654447621,-3.00158356953855,-1.49414767990645,,-9.966491239893681,,
,5993.0,909.0,5995.0,1528.0,2283.0,3220.0,-618.0,,,,-2.20652894379028,-3.00164259534165,-1.49298452330982,,-10.009249917985919,,
,5993.0,909.0,6000.0,1527.0,2273.0,3218.0,-623.0,,,,-2.20864414644792,-3.00182442351354,-1.49437034621252,,-10.037461892055756,,
,5993.0,907.0,6000.0,1526.0,2264.0,3228.0,-629.0,,,,-2.21061211152924,-3.00167757087756,-1.49544112613963,,-10.052243796900115,,
,5992.0,909.0,6001.0,1526.0,2281.0,3206.0,-629.0,,,,-2.21313264963193,-3.00188081665368,-1.49582862561179,,-10.05485628743318,,
,5991.0,908.0,6004.0,1523.0,2298.0,3223.0,-657.0,,,,-2.21339229154148,-3.00191234155746,-1.49592016256239,,-10.046766135116519,,
,5992.0,909.0,6006.0,1525.0,2268.0,3238.0,-651.0,,,,-2.21504230209509,-3.00193265281313,-1.49650613947197,,-10.029648122133084,,
,5991.0,909.0,6007.0,1525.0,2265.0,3218.0,-652.0,,,,-2.21527413360139,-3.00182439881954,-1.49636225287391,,-10.005317185390945,,
,5993.0,911.0,6007.0,1525.0,2272.0,3231.0,-632.0,,,,-2.2161480179678,-3.00180747428722,-1.49764231664735,,-9.975589249608214,,
,5990.0,907.0,6009.0,1525.0,2282.0,3243.0,-645.0,,,,-2.21639564794932,-3.00182505569785,-1.49787627144515,,-9.942079505848579,,
,5987.0,911.0,6012.0,1525.0,2268.0,3241.0,-639.0,,,,-2.21530247507366,-3.0018788376812,-1.49837087429357,,-9.90595733808518,,
,5991.0,909.0,6015.0,1525.0,2272.0,3229.0,-650.0,,,,-2.21512312078124,-3.00157062429096,-1.4983173342145,,-9.867685315679196,,
,5990.0,910.0,6017.0,1525.0,2273.0,3225.0,-654.0,,,,-2.21421215419113,-3.00173776935082,-1.49810921579025,,-9.826774237397732,,
,5990.0,910.0,6020.0,1526.0,2271.0,3212.0,-668.0,,,,-2.21436059292328,-3.00164096731756,-1.49765636531645,,-9.781586924218756,,
,5990.0,908.0,6022.0,1524.0,2269.0,3205.0,-672.0,,,,-2.21257353447281,-3.00181689723162,-1.49786084504236,,-9.72922083019801,,
,5992.0,909.0,6024.0,1525.0,2234.0,3210.0,-667.0,,,,-2.21268697711733,-3.00182473540763,-1.49726580906067,,-9.66549410894599,,
,5991.0,912.0,6027.0,1525.0,2230.0,3195.0,-667.0,,,,-2.21241183575555,-3.00172870846936,-1.49859375508675,,-9.585051610626959,,
,5993.0,911.0,6029.0,1527.0,2244.0,3213.0,-667.0,,,,-2.21239064897074,-3.00182227099224,-1.49826668722218,,-9.48159603435901,,
,5991.0,909.0,6031.0,1527.0,2254.0,3209.0,-667.0,,,,-2.21221013351564,-3.00164461264192,-1.4976885647948,,-9.34823496406632,,
,5994.0,910.0,6035.0,1528.0,2271.0,3229.0,-658.0,,,,-2.21158324985648,-3.00158174504538,-1.49728202149486,,-9.177917748224406,,
,5993.0,911.0,6039.0,1530.0,2270.0,3220.0,-657.0,,,,-2.21046729610158,-3.0015883335276,-1.49660481577657,,-8.96391993954842,,
,5994.0,910.0,6039.0,1529.0,2275.0,3226.0,-659.0,,,,-2.21059055883462,-3.00192117703202,-1.49727262209521,,-8.700321616654138,,
,5992.0,910.0,6040.0,1527.0,2269.0,3229.0,-648.0,,,,-2.20981604411907,-3.00170712486312,-1.49646629127064,,-8.382423630733767,,
,5993.0,909.0,6044.0,1530.0,2281.0,3238.0,-637.0,,,,-2.21016771176018,-3.00164554459736,-1.49646199853482,,-8.007054746112516,,
,5997.0,911.0,6049.0,1531.0,2273.0,3229.0,-652.0,,,,-2.20884369602318,-3.00159213371547,-1.49620026310702,,-7.572741508137309,,
,5994.0,910.0,6048.0,1533.0,2276.0,3222.0,-639.0,,,,-2.20925755308002,-3.00168545273659,-1.49657286025746,,-7.079737188205523,,
,5996.0,911.0,6051.0,1529.0,2271.0,3224.0,-645.0,,,,-2.20779101589211,-3.0016672209003,-1.49666090502754,,-6.529930331063893,,
,5999.0,909.0,6054.0,1531.0,2262.0,3226.0,-640.0,,,,-2.20833378363817,-3.00166870401679,-1.49687875238674,,-5.926671289641531,,
,5997.0,912.0,6056.0,1532.0,2251.0,3233.0,-614.0,,,,-2.20834814910423,-3.0015890219542,-1.49662736354078,,-5.274562539609626,,
,6001.0,914.0,6059.0,1536.0,2259.0,3230.0,-638.0,,,,-2.20760906583604,-3.00162359452614,-1.49562561744117,,-4.579254473951594,,
,6001.0,911.0,6063.0,1535.0,2257.0,3230.0,-654.0,,,,-2.20762051113768,-3.00165003971682,-1.49642444143364,,-3.847274845010684,,
,6002.0,912.0,6064.0,1533.0,2265.0,3215.0,-642.0,,,,-2.20735984710271,-3.00154878209174,-1.4964897301495,,-3.085901136357784,,
,6001.0,911.0,6065.0,1535.0,2281.0,3219.0,-657.0,,,,-2.20752999387967,-3.001667885,-1.49570130478597,,-2.3030657148091427,,
,6005.0,915.0,6067.0,1537.0,2250.0,3218.0,-627.0,,,,-2.2071185053043,-3.00157102662094,-1.49521944308152,,-1.5072682502979384,,
,6006.0,913.0,6071.0,1538.0,2254.0,3228.0,-616.0,,,,-2.20665526684641,-3.00153381156002,-1.49562506326903,,-0.7074624003577373,,
,6007.0,912.0,6073.0,1536.0,2267.0,3220.0,-628.0,,,,-2.20615820790677,-3.00141060773789,-1.49533768813267,,0.08711387554421536,,
,6011.0,912.0,6074.0,1538.0,2282.0,3215.0,-635.0,,,,-2.20561475205502,-3.00141975641046,-1.4954023928947,,0.8671838392615859,,
,6010.0,914.0,6076.0,1542.0,2286.0,3212.0,-626.0,,,,-2.20423701256581,-3.00159730214368,-1.49587179007566,,1.6237568848311579,,
,6013.0,914.0,6080.0,1541.0,2290.0,3210.0,-624.0,,,,-2.20418658307434,-3.00149755483233,-1.49539164581211,,2.3485205503831383,,
,6013.0,913.0,6084.0,1542.0,2300.0,3208.0,-664.0,,,,-2.20320553595582,-3.00145085319245,-1.49592307165972,,3.0342745080519133,,
,6012.0,914.0,6087.0,1541.0,2288.0,3216.0,-646.0,,,,-2.20305879087068,-3.00133887493054,-1.49591586889927,,3.675371825276123,,
,6012.0,916.0,6087.0,1542.0,2303.0,3204.0,-669.0,,,,-2.20161707735014,-3.00140309087431,-1.49578526925072,,4.268125695538167,,
,6016.0,915.0,6092.0,1543.0,2302.0,3201.0,-655.0,,,,-2.20060648299516,-3.00125793259984,-1.49516148856088,,4.811135739439253,,
,6017.0,914.0,6094.0,1543.0,2310.0,3193.0,-653.0,,,,-2.2008984250453,-3.0014014779493,-1.49600158670171,,5.305489294917615,,
,6016.0,915.0,6098.0,1544.0,2322.0,3210.0,-625.0,,,,-2.20086598718606,-3.00124011028937,-1.49480705582441,,5.754802400842913,,
,6017.0,914.0,6100.0,1544.0,2327.0,3208.0,-630.0,,,,-2.19957427687821,-3.00130452431838,-1.49584774335033,,6.165082537174285,,
,6020.0,917.0,6102.0,1549.0,2309.0,3215.0,-603.0,,,,-2.20057911832915,-3.00143169988855,-1.49522365283688,,6.544417133676223,,
,6021.0,916.0,6104.0,1547.0,2299.0,3215.0,-617.0,,,,-2.20092938244643,-3.00134021726464,-1.49528388458173,,6.902512529591718,,
,6022.0,917.0,6105.0,1548.0,2307.0,3211.0,-638.0,,,,-2.20089153116488,-3.00130562742421,-1.49410584257568,,7.2501220528312205,,
,6022.0,915.0,6106.0,1547.0,2305.0,3209.0,-634.0,,,,-2.19935884415534,-3.00134932124626,-1.49554186025729,,7.5984069679137285,,
,6025.0,917.0,6109.0,1548.0,2302.0,3216.0,-654.0,,,,-2.19952914860475,-3.00127749393879,-1.49417095225676,,7.958271851219597,,
,6026.0,916.0,6107.0,1546.0,2306.0,3228.0,-659.0,,,,-2.1998632088329,-3.00130431714371,-1.4955208959907,,8.339710116536342,,
,6020.0,916.0,6107.0,1546.0,2296.0,3238.0,-663.0,,,,-2.19828574876042,-3.00118136418105,-1.49480580166723,,8.751188959351577,,
,6017.0,914.0,6108.0,1541.0,2280.0,3231.0,-668.0,,,,-2.19808711105866,-3.00137216556959,-1.49476024113481,,9.199097327542976,,
,6016.0,915.0,6105.0,1539.0,2292.0,3221.0,-644.0,,,,-2.1963326439142,-3.00124746302847,-1.49458200415438,,9.687276149300274,,
,6012.0,917.0,6104.0,1537.0,2263.0,3229.0,-644.0,,,,-2.19462637486327,-3.00120091768427,-1.49523684310946,,10.216647187941724,,
,6008.0,912.0,6097.0,1531.0,2264.0,3233.0,-661.0,,,,-2.19388534605935,-3.0012573052599,-1.49387127780371,,10.784955387033138,,
,6002.0,913.0,6092.0,1526.0,2252.0,3228.0,-690.0,,,,-2.19317600555526,-3.00138982163025,-1.49468411375024,,11.386638777192392,,
,5994.0,913.0,6090.0,1521.0,2257.0,3229.0,-642.0,,,,-2.19424015239689,-3.00133188314042,-1.4941622124447,,12.012839160381466,,
,5992.0,914.0,6090.0,1518.0,2301.0,3206.0,-642.0,,,,-2.19322986113767,-3.00125444096527,-1.4949723659556,,12.651564914464869,,
,5986.0,912.0,6086.0,1513.0,2300.0,3208.0,-642.0,,,,-2.19418738431309,-3.00108347884589,-1.49458008333237,,13.288012666733705,,
,5981.0,912.0,6083.0,1511.0,2304.0,3202.0,-647.0,,,,-2.1939882148868,-3.00114284673958,-1.49511163889085,,13.905045163880345,,
,5978.0,910.0,6080.0,1507.0,2283.0,3222.0,-652.0,,,,-2.19535698874699,-3.00130799558518,-1.49419168136088,,14.483808084643071,,
,5969.0,913.0,6078.0,1509.0,2275.0,3207.0,-676.0,,,,-2.19436843414127,-3.00122801427968,-1.49462662895031,,15.004452368462204,,
,5968.0,912.0,6076.0,1506.0,2288.0,3205.0,-646.0,,,,-2.19496354167451,-3.0011042925644,-1.49590622229694,,15.446917266722597,,
,5962.0,914.0,6075.0,1504.0,2285.0,3213.0,-624.0,,,,-2.19468002031458,-3.00121356540005,-1.49538042515811,,15.791727531958596,,
,5963.0,909.0,6074.0,1501.0,2270.0,3217.0,-662.0,,,,-2.19614944499942,-3.00108508812071,-1.4963427137394,,16.02076533917876,,
,5960.0,910.0,6074.0,1500.0,2288.0,3202.0,-671.0,,,,-2.19396446982372,-3.0011638792444,-1.49560608286631,,16.11798841974119,,
,5957.0,912.0,6074.0,1502.0,2304.0,3202.0,-680.0,,,,-2.19438681826947,-3.0012321070314,-1.4959739090695,,16.07007473177242,,
,5955.0,911.0,6075.0,1502.0,2298.0,3204.0,-690.0,,,,-2.19474770100978,-3.00127940622587,-1.49597533437508,,15.866978195624425,,
,5952.0,908.0,6076.0,1497.0,2296.0,3215.0,-656.0,,,,-2.19492910600431,-3.00119010284181,-1.49591563651791,,15.502380629717551,,
,5950.0,910.0,6078.0,1496.0,2300.0,3214.0,-664.0,,,,-2.19478652730068,-3.00126891555427,-1.49643290073165,,14.974024535547867,,
,5949.0,910.0,6079.0,1499.0,2301.0,3213.0,-680.0,,,,-2.19436769406841,-3.00124846879209,-1.4961793255062,,14.283911458630548,,
,5949.0,911.0,6080.0,1498.0,2295.0,3215.0,-661.0,,,,-2.19377921247494,-3.00120747610568,-1.49607680725602,,13.438351593950618,,
,5953.0,910.0,6082.0,1497.0,2302.0,3215.0,-675.0,,,,-2.19249515082952,-3.00118141226741,-1.4972160254292,,12.447852181380643,,
,5950.0,910.0,6084.0,1497.0,2300.0,3215.0,-649.0,,,,-2.19244559646843,-3.00107583960906,-1.49608755000478,,11.326836140955626,,
,5949.0,913.0,6083.0,1499.0,2261.0,3210.0,-611.0,,,,-2.1921056864375,-3.00112600973278,-1.49744661936784,,10.093190216400217,,
,5946.0,914.0,6086.0,1498.0,2273.0,3209.0,-601.0,,,,-2.19227807431544,-3.00114219372432,-1.49828272574105,,8.767654379603089,,
,5948.0,914.0,6085.0,1497.0,2278.0,3205.0,-599.0,,,,-2.19316284553243,-3.00125513526952,-1.49734398385149,,7.3730792702952,,
,5945.0,910.0,6086.0,1498.0,2310.0,3212.0,-620.0,,,,-2.1925797540054,-3.00133097389733,-1.49777578057252,,5.933591567683732,,
,5946.0,912.0,6090.0,1499.0,2276.0,3216.0,-621.0,,,,-2.19255048022874,-3.00126917827668,-1.4980624038051,,4.473714343043947,,
,5944.0,913.0,6094.0,1501.0,2287.0,3216.0,-625.0,,,,-2.19356436179416,-3.00138481333728,-1.49956295093397,,3.0174893996740324,,
,5947.0,914.0,6093.0,1501.0,2291.0,3223.0,-631.0,,,,-2.19193760274705,-3.00129071929184,-1.49913178930117,,1.5876434147079064,,
,5946.0,912.0,6093.0,1502.0,2282.0,3243.0,-635.0,,,,-2.19198126398745,-3.0012701266449,-1.49943016305911,,0.2048330720232413,,
,5945.0,912.0,6095.0,1498.0,2296.0,3227.0,-662.0,,,,-2.19300731236691,-3.00139185822629,-1.49977343452847,,-1.1130005831222145,,
,5945.0,911.0,6099.0,1502.0,2283.0,3229.0,-635.0,,,,-2.19347554549723,-3.00125985391085,-1.49975317270747,,-2.351140762399253,,
,5948.0,915.0,6099.0,1500.0,2271.0,3228.0,-631.0,,,,-2.19300134285678,-3.00132418071884,-1.50077438797711,,-3.498440275119577,,
,5947.0,913.0,6100.0,1501.0,2273.0,3232.0,-630.0,,,,-2.19293310142843,-3.00135843997072,-1.50127151521099,,-4.547481213853935,,
,5945.0,912.0,6099.0,1502.0,2269.0,3217.0,-632.0,,,,-2.19391423401741,-3.00141968958339,-1.50130855173157,,-5.494535577551877,,
,5943.0,915.0,6099.0,1500.0,2286.0,3213.0,-623.0,,,,-2.1939432850333,-3.0014129173724,-1.50212464407256,,-6.3393279235066,,
,5944.0,914.0,6102.0,1502.0,2262.0,3214.0,-609.0,,,,-2.19511411774755,-3.00140221588395,-1.5022979453411,,-7.084618798165976,,
,5943.0,915.0,6104.0,1501.0,2279.0,3218.0,-609.0,,,,-2.19534762033706,-3.00124015915148,-1.50313731094594,,-7.735644797628544,,
,5940.0,915.0,6103.0,1502.0,2278.0,3206.0,-601.0,,,,-2.19678235294278,-3.00145627401114,-1.50301220315652,,-8.2994644425372,,
,5938.0,911.0,6103.0,1498.0,2281.0,3209.0,-621.0,,,,-2.19788732587702,-3.00148085832215,-1.50404352425841,,-8.784266722144192,,
,5941.0,913.0,6104.0,1499.0,2290.0,3218.0,-617.0,,,,-2.1989898827868,-3.0013871221231,-1.50334026056036,,-9.19870045884488,,
,5942.0,913.0,6104.0,1499.0,2295.0,3225.0,-631.0,,,,-2.19902155142068,-3.00150215389344,-1.50457770159262,,-9.551277724902729,,
,5938.0,913.0,6105.0,1501.0,2291.0,3233.0,-617.0,,,,-2.19976562365127,-3.0013561147253,-1.50538161249337,,-9.849894183673417,,
,5937.0,911.0,6105.0,1499.0,2304.0,3221.0,-624.0,,,,-2.20062737922421,-3.00146966625876,-1.50540099602922,,-10.101494650318243,,
,5938.0,914.0,6106.0,1499.0,2302.0,3213.0,-651.0,,,,-2.2005693119631,-3.00139762647973,-1.5057466236442,,-10.311895010670717,,
,5936.0,914.0,6106.0,1499.0,2316.0,3216.0,-647.0,,,,-2.20087087687257,-3.00148760789593,-1.50516484628313,,-10.485754059927482,,
,5937.0,914.0,6111.0,1501.0,2302.0,3210.0,-633.0,,,,-2.19996090388178,-3.00144427922716,-1.50524868962787,,-10.62667346310366,,
,5935.0,913.0,6110.0,1495.0,2296.0,3228.0,-643.0,,,,-2.20108169921311,-3.00144885971507,-1.50553471935751,,-10.737393451649629,,
,5936.0,912.0,6109.0,1499.0,2271.0,3235.0,-648.0,,,,-2.2015576764825,-3.00156993364286,-1.50430347848349,,-10.82004746292485,,
,5935.0,914.0,6112.0,1500.0,2286.0,3233.0,-655.0,,,,-2.2017925739655,-3.00160386122739,-1.50434034848053,,-10.876440162748997,,
,5936.0,917.0,6115.0,1501.0,2293.0,3223.0,-642.0,,,,-2.20231607394221,-3.00156991120611,-1.50502637877201,,-10.90831801780564,,
,5936.0,912.0,6116.0,1498.0,2307.0,3212.0,-643.0,,,,-2.20219883896101,-3.00153011961791,-1.50425735359162,,-10.917607360416081,,
,5936.0,912.0,6112.0,1498.0,2305.0,3205.0,-641.0,,,,-2.2013042943314,-3.00148456718562,-1.50374137671227,,-10.906600171539948,,
,5937.0,916.0,6119.0,1501.0,2307.0,3211.0,-626.0,,,,-2.20086842848897,-3.00143733341043,-1.50383538069462,,-10.878072292610428,,
,5934.0,918.0,6121.0,1503.0,2280.0,3226.0,-639.0,,,,-2.20007979997998,-3.00158568344001,-1.50388957926752,,-10.835323008934107,,
,5937.0,915.0,6120.0,1503.0,2263.0,3216.0,-665.0,,,,-2.20018208192948,-3.00147539219674,-1.50331337823641,,-10.782129684127815,,
,5938.0,913.0,6122.0,1503.0,2250.0,3218.0,-689.0,,,,-2.19955610177766,-3.0013237353336,-1.50261196445556,,-10.722616713956992,,
,5940.0,916.0,6123.0,1504.0,2267.0,3212.0,-672.0,,,,-2.19804584935583,-3.00137952175429,-1.50392856762557,,-10.661044068687874,,
,5940.0,916.0,6125.0,1504.0,2273.0,3220.0,-654.0,,,,-2.19799213590779,-3.00147166914607,-1.50218525441015,,-10.601526151171576,,
,5940.0,917.0,6126.0,1504.0,2279.0,3227.0,-644.0,,,,-2.1984482528647,-3.00149897362117,-1.50357620333365,,-10.54769617825247,,
,5942.0,916.0,6129.0,1506.0,2255.0,3242.0,-606.0,,,,-2.19728626810105,-3.00134460844653,-1.50350770032479,,-10.502335651636708,,
,5943.0,917.0,6129.0,1505.0,2266.0,3236.0,-618.0,,,,-2.19717388414592,-3.00134367908187,-1.50376379749589,,-10.46699406972575,,
,5946.0,918.0,6132.0,1507.0,2251.0,3238.0,-634.0,,,,-2.19653492994671,-3.00108142395411,-1.50358696442104,,-10.4416308318068,,
,5949.0,916.0,6138.0,1511.0,2239.0,3246.0,-614.0,,,,-2.19635358733538,-3.00136518360293,-1.50401765002702,,-10.424317159381223,,
,5946.0,919.0,6134.0,1511.0,2259.0,3242.0,-634.0,,,,-2.1957912002092,-3.00122336638472,-1.50407690023826,,-10.411037850520806,,
,5947.0,915.0,6136.0,1509.0,2258.0,3232.0,-629.0,,,,-2.19522398480182,-3.00131175569111,-1.50350148374319,,-10.395629001046732,,
2025-06-30 23:07:59,5953.0,918.0,6140.0,1510.0,2252.0,3235.0,-622.0,,,2025/06/30 11:07:59 PM,-2.19527423439048,-3.00130314664586,-1.50194212700166,,-10.36987857939893,,
,5953.0,916.0,6142.0,1513.0,2277.0,3220.0,-657.0,,,,-2.19618356982021,-3.00123201321244,-1.50404913217419,,-10.323803189138065,,
,5953.0,918.0,6144.0,1511.0,2275.0,3209.0,-670.0,,,,-2.19569489566584,-3.00108936978135,-1.5025398670375,,-10.246097836078146,,
,5955.0,918.0,6144.0,1513.0,2271.0,3224.0,-640.0,,,,-2.19595865045527,-3.00123898670083,-1.50242791488273,,-10.12473706295438,,
,5956.0,917.0,6147.0,1515.0,2283.0,3234.0,-650.0,,,,-2.19532529739988,-3.00117636102384,-1.50305221098249,,-9.947686632246201,,
,5961.0,919.0,6150.0,1516.0,2253.0,3245.0,-628.0,,,,-2.1965431676545,-3.00120004424249,-1.50324715825677,,-9.703667428853688,,
,5962.0,919.0,6151.0,1517.0,2265.0,3245.0,-621.0,,,,-2.19668645903363,-3.00114679997346,-1.50257112583134,,-9.382901487461714,,
,5964.0,918.0,6153.0,1516.0,2275.0,3221.0,-608.0,,,,-2.19696313056117,-3.00120317561301,-1.50360267177945,,-8.977768554510162,,
,5964.0,917.0,6153.0,1518.0,2283.0,3229.0,-648.0,,,,-2.19658637502783,-3.00107328680427,-1.50405755654178,,-8.483312667795605,,
,5965.0,918.0,6156.0,1519.0,2289.0,3229.0,-640.0,,,,-2.19643105613399,-3.00129247563669,-1.50395467716708,,-7.897559782948012,,
,5969.0,920.0,6157.0,1520.0,2263.0,3231.0,-624.0,,,,-2.19645295105574,-3.00124931611486,-1.50363264839643,,-7.221633562761358,,
,5972.0,920.0,6161.0,1519.0,2268.0,3226.0,-644.0,,,,-2.1956618456995,-3.00126139643664,-1.5050566520221,,-6.4596804189842585,,
,5970.0,918.0,6160.0,1520.0,2252.0,3227.0,-632.0,,,,-2.1955857393484,-3.00137743118584,-1.50407858984179,,-5.618632473850648,,
,5972.0,920.0,6162.0,1521.0,2275.0,3224.0,-619.0,,,,-2.19490698018416,-3.00127946013317,-1.50401989421661,,-4.707847174134783,,
,5978.0,922.0,6165.0,1523.0,2277.0,3229.0,-657.0,,,,-2.19427942386605,-3.00126169710188,-1.50415081706536,,-3.7386655303571676,,
,5980.0,921.0,6166.0,1523.0,2275.0,3223.0,-643.0,,,,-2.19375267586776,-3.00117513145258,-1.50489753539408,,-2.723928159831842,,
,5981.0,921.0,6168.0,1525.0,2282.0,3218.0,-635.0,,,,-2.19423633669801,-3.00128023400228,-1.50449806901995,,-1.6774800399957752,,
,5981.0,921.0,6167.0,1526.0,2290.0,3214.0,-651.0,,,,-2.19484361892669,-3.00117233101658,-1.50475618616235,,-0.61368265025848,,
,5986.0,923.0,6172.0,1528.0,2286.0,3212.0,-665.0,,,,-2.19369881580938,-3.00114048004181,-1.50306107705667,,0.45306039195791453,,
,5986.0,924.0,6172.0,1527.0,2293.0,3215.0,-655.0,,,,-2.19344664934625,-3.00123446252078,-1.50415517238164,,1.5087662049438282,,
,5988.0,920.0,6169.0,1526.0,2299.0,3223.0,-653.0,,,,-2.19362041303811,-3.00121988026143,-1.50364218582152,,2.5403264560010794,,
,5985.0,922.0,6167.0,1523.0,2278.0,3211.0,-647.0,,,,-2.19372422728273,-3.00112465866106,-1.50402225167042,,3.5359478412586633,,
,5981.0,922.0,6164.0,1522.0,2277.0,3222.0,-653.0,,,,-2.19412031002013,-3.00120785529957,-1.50327687873322,,4.485564911445966,,
,5981.0,922.0,6163.0,1518.0,2285.0,3211.0,-673.0,,,,-2.19420569023959,-3.00128071889435,-1.50354930742275,,5.38120194278487,,
,5977.0,918.0,6156.0,1516.0,2293.0,3202.0,-658.0,,,,-2.19396125481374,-3.00124091459833,-1.50489664998303,,6.217255517737711,,
,5972.0,920.0,6152.0,1507.0,2298.0,3199.0,-584.0,,,,-2.19447920596391,-3.00129365630865,-1.50445475972003,,6.99066934671197,,
,5968.0,919.0,6150.0,1505.0,2296.0,3213.0,-604.0,,,,-2.19483074211803,-3.00117205801719,-1.50371015853072,,7.700977370373991,,
,5964.0,919.0,6141.0,1501.0,2275.0,3225.0,-638.0,,,,-2.19456198348785,-3.00131302954024,-1.50399741782059,,8.35019955728862,,
,5955.0,918.0,6140.0,1498.0,2263.0,3211.0,-630.0,,,,-2.19466435631983,-3.00128748736725,-1.50428957945911,,8.942585975765288,,
,5948.0,919.0,6131.0,1496.0,2266.0,3216.0,-616.0,,,,-2.19395283802082,-3.00133797467793,-1.50389352693474,,9.484217172991434,,
,5945.0,917.0,6128.0,1493.0,2264.0,3213.0,-632.0,,,,-2.19573546230285,-3.00117289058415,-1.50478899616775,,9.982480801192184,,
,5942.0,917.0,6127.0,1491.0,2281.0,3218.0,-644.0,,,,-2.1946514576514,-3.00129696280703,-1.5048499996203,,10.445454248832906,,
,5937.0,916.0,6121.0,1486.0,2284.0,3214.0,-658.0,,,,-2.1952329289808,-3.00140397183693,-1.50414079433148,,10.881230179097571,,
,5934.0,915.0,6121.0,1488.0,2278.0,3205.0,-633.0,,,,-2.19675577321838,-3.00144656315323,-1.50403329283723,,11.297226551945558,,
,5930.0,914.0,6119.0,1484.0,2259.0,3225.0,-643.0,,,,-2.19561440805486,-3.00131136523413,-1.50411400268965,,11.699525081147872,,
,5928.0,915.0,6117.0,1485.0,2280.0,3227.0,-657.0,,,,-2.19624090437307,-3.00128915243466,-1.50387821046497,,12.092281909625928,,
,5924.0,913.0,6115.0,1480.0,2289.0,3218.0,-657.0,,,,-2.19697962800705,-3.00127972673985,-1.50404282177343,,12.47725148968064,,
,5923.0,915.0,6113.0,1479.0,2283.0,3219.0,-643.0,,,,-2.1970172149769,-3.00139527972359,-1.5041306630992,,12.853460003168687,,
,5919.0,913.0,6113.0,1479.0,2278.0,3224.0,-619.0,,,,-2.19773186441867,-3.00144944376616,-1.50362681227719,,13.217059371808922,,
,5919.0,912.0,6112.0,1479.0,2285.0,3224.0,-646.0,,,,-2.19762997626916,-3.00141394715518,-1.50450207662424,,13.561387107992033,,
,5919.0,914.0,6113.0,1479.0,2284.0,3219.0,-642.0,,,,-2.19849314143136,-3.00136119820693,-1.50355791987556,,13.877248882070631,,
,5918.0,915.0,6115.0,1482.0,2268.0,3210.0,-647.0,,,,-2.19761106077181,-3.00148469291561,-1.50398197351994,,14.153426522475536,,
,5914.0,913.0,6113.0,1480.0,2267.0,3225.0,-627.0,,,,-2.19708780871966,-3.00146338391543,-1.50388165363839,,14.377392660600378,,
,5918.0,913.0,6111.0,1479.0,2289.0,3231.0,-622.0,,,,-2.19721543454533,-3.00141123808214,-1.50390029700794,,14.536186755889867,,
,5917.0,913.0,6114.0,1480.0,2287.0,3232.0,-596.0,,,,-2.19751848492782,-3.00153883442166,-1.50280429655834,,14.617381673869033,,
,5914.0,913.0,6115.0,1479.0,2291.0,3224.0,-601.0,,,,-2.19700373731178,-3.0014187596012,-1.5032964925846,,14.610051860662564,,
,5914.0,915.0,6114.0,1478.0,2292.0,3215.0,-604.0,,,,-2.19712800197209,-3.00150125804329,-1.50404848793786,,14.505647748278134,,
,5915.0,912.0,6115.0,1482.0,2296.0,3211.0,-593.0,,,,-2.19757808817858,-3.00138598165115,-1.50318807726299,,14.298687450300196,,
,5914.0,911.0,6113.0,1480.0,2312.0,3216.0,-608.0,,,,-2.19793430766949,-3.00128953508674,-1.50347861301183,,13.98719469723599,,
,5915.0,913.0,6116.0,1482.0,2295.0,3210.0,-623.0,,,,-2.19743475755923,-3.00156092498504,-1.50273624520287,,13.572838551657775,,
,5917.0,914.0,6118.0,1483.0,2285.0,3207.0,-626.0,,,,-2.19808068209856,-3.00152712184095,-1.50316770187009,,13.060762526751738,,
,5916.0,915.0,6117.0,1481.0,2253.0,3225.0,-634.0,,,,-2.19891401295719,-3.00150566148717,-1.50308832399241,,12.459125211685677,,
,5918.0,913.0,6118.0,1481.0,2258.0,3207.0,-630.0,,,,-2.198255946221,-3.00150146728629,-1.50303213458184,,11.778407973708411,,
,5918.0,912.0,6116.0,1483.0,2259.0,3225.0,-646.0,,,,-2.19988595911832,-3.00138773364009,-1.50347280289923,,11.030572976776151,,
,5918.0,917.0,6120.0,1485.0,2258.0,3233.0,-653.0,,,,-2.19945598831173,-3.00157008824615,-1.5034634250179,,10.228170905083568,,
,5917.0,915.0,6120.0,1486.0,2244.0,3237.0,-638.0,,,,-2.2002777836578,-3.00156972526269,-1.50401653710066,,9.383498565653987,,
,5918.0,914.0,6118.0,1484.0,2230.0,3224.0,-612.0,,,,-2.20122603329039,-3.00142908323354,-1.50301037575765,,8.507892531432013,,
,5919.0,915.0,6121.0,1484.0,2222.0,3217.0,-605.0,,,,-2.20112184547453,-3.00175280665159,-1.50227696298312,,7.611220568568112,,
,5919.0,916.0,6121.0,1485.0,2237.0,3214.0,-595.0,,,,-2.20257431244234,-3.00172102708846,-1.50320105686855,,6.701603273421125,,
,5917.0,916.0,6120.0,1486.0,2251.0,3215.0,-597.0,,,,-2.20378218665621,-3.00171066105268,-1.50274413836017,,5.7853686812385146,,
,5915.0,915.0,6121.0,1484.0,2268.0,3217.0,-609.0,,,,-2.20566499629449,-3.00149080238113,-1.50378276723249,,4.867215873295487,,
,5918.0,914.0,6118.0,1482.0,2290.0,3240.0,-621.0,,,,-2.20696744885013,-3.00157126214632,-1.50436423232557,,3.9505423245264017,,
,5916.0,915.0,6121.0,1484.0,2315.0,3240.0,-617.0,,,,-2.20919088047691,-3.00156758248319,-1.50434789022526,,3.037875922389831,,
,5917.0,915.0,6120.0,1485.0,2274.0,3221.0,-602.0,,,,-2.20953497347118,-3.00174373101955,-1.50557667704143,,2.1313473711606554,,
,5916.0,916.0,6121.0,1486.0,2277.0,3218.0,-609.0,,,,-2.21094444144839,-3.00160626596125,-1.50669460021991,,1.233141696865848,,
,5913.0,917.0,6120.0,1483.0,2290.0,3225.0,-622.0,,,,-2.21204207509954,-3.00184656014755,-1.50653375928482,,0.3458769058260519,,
,5916.0,915.0,6119.0,1483.0,2274.0,3222.0,-634.0,,,,-2.2125701939111,-3.00197217500097,-1.50661887880028,,-0.5271289626439636,,
,5915.0,915.0,6123.0,1484.0,2286.0,3209.0,-622.0,,,,-2.21277696283683,-3.00174720354885,-1.50659668985373,,-1.3817260834739515,,
,5915.0,915.0,6122.0,1485.0,2279.0,3219.0,-634.0,,,,-2.21308445894878,-3.00169520148696,-1.50606291190029,,-2.2129443380738465,,
,5917.0,915.0,6122.0,1482.0,2284.0,3231.0,-630.0,,,,-2.21318866528638,-3.0017487829602,-1.5060612256811,,-3.015140633858582,,
,5915.0,914.0,6123.0,1483.0,2271.0,3226.0,-646.0,,,,-2.2136435061362,-3.00177151258408,-1.50643050826419,,-3.7822610580127356,,
,5917.0,916.0,6124.0,1485.0,2264.0,3218.0,-618.0,,,,-2.21376851683779,-3.00187632310675,-1.50624351756444,,-4.508186448963263,,
,5920.0,917.0,6124.0,1486.0,2254.0,3227.0,-633.0,,,,-2.21402716754808,-3.00156023725612,-1.5066762457821,,-5.18712348250616,,
,5919.0,916.0,6126.0,1486.0,2257.0,3230.0,-646.0,,,,-2.21372162685644,-3.00179184083251,-1.50608517394048,,-5.814000956816995,,
,5920.0,915.0,6123.0,1486.0,2261.0,3223.0,-631.0,,,,-2.21324137786255,-3.00164952573407,-1.50591562224241,,-6.3848322795231605,,
,5919.0,916.0,6128.0,1486.0,2252.0,3227.0,-626.0,,,,-2.21306326161936,-3.00183655939346,-1.50610637597533,,-6.897009461871885,,
,5921.0,915.0,6127.0,1487.0,2281.0,3239.0,-598.0,,,,-2.21172656742666,-3.0018559589438,-1.50545232995421,,-7.349500275814655,,
,5925.0,915.0,6128.0,1488.0,2274.0,3227.0,-603.0,,,,-2.21077177691781,-3.00186694317779,-1.50524190575449,,-7.742928095808645,,
,5922.0,916.0,6127.0,1488.0,2290.0,3236.0,-611.0,,,,-2.21109781033191,-3.00171161999871,-1.50515523787854,,-8.079523595707936,,
,5923.0,917.0,6130.0,1489.0,2282.0,3231.0,-626.0,,,,-2.21106890537744,-3.00188906266652,-1.50577233409095,,-8.362949425461368,,
,5927.0,917.0,6135.0,1491.0,2269.0,3224.0,-637.0,,,,-2.21027747658368,-3.00180102836821,-1.50462619935162,,-8.598012791014702,,
,5927.0,917.0,6131.0,1491.0,2282.0,3221.0,-640.0,,,,-2.2094989474811,-3.00189610429064,-1.50559730465556,,-8.790294397696561,,
,5930.0,916.0,6134.0,1493.0,2276.0,3233.0,-626.0,,,,-2.20975609314103,-3.00181715841141,-1.50565263925627,,-8.945732507420697,,
,5926.0,915.0,6132.0,1492.0,2271.0,3228.0,-621.0,,,,-2.20941593918746,-3.00184021806612,-1.50532609742145,,-9.070205618580038,,
,5935.0,918.0,6135.0,1491.0,2278.0,3225.0,-642.0,,,,-2.20991681762478,-3.00180777817925,-1.50516694293534,,-9.169155949542546,,
,5937.0,917.0,6138.0,1494.0,2266.0,3227.0,-631.0,,,,-2.21056849422649,-3.0018619903395,-1.50580554444679,,-9.247289506269876,,
,5936.0,917.0,6137.0,1494.0,2275.0,3227.0,-627.0,,,,-2.21044046515991,-3.00173462492125,-1.50502778568311,,-9.308378752938404,,
,5936.0,916.0,6139.0,1494.0,2257.0,3214.0,-606.0,,,,-2.21111471178529,-3.00175588131758,-1.50526570815305,,-9.355182365017923,,
,5939.0,916.0,6142.0,1497.0,2293.0,3200.0,-637.0,,,,-2.21228152056026,-3.00180892636755,-1.50462509939129,,-9.389484291710719,,
,5940.0,917.0,6143.0,1499.0,2288.0,3222.0,-633.0,,,,-2.21282779479528,-3.00164740903792,-1.50499685681727,,-9.412242021871162,,
,5944.0,914.0,6144.0,1500.0,2289.0,3234.0,-625.0,,,,-2.21381037197151,-3.0016777716709,-1.50508501136217,,-9.42382212809701,,
,5945.0,918.0,6145.0,1500.0,2255.0,3233.0,-613.0,,,,-2.21496617002493,-3.00168283622584,-1.50467094810539,,-9.424290817374827,,
,5944.0,920.0,6150.0,1501.0,2288.0,3231.0,-621.0,,,,-2.21469987281476,-3.00177465558303,-1.50446287830235,,-9.413719831227084,,
,5949.0,917.0,6151.0,1503.0,2295.0,3230.0,-599.0,,,,-2.21418210132452,-3.00176933940044,-1.50512418636106,,-9.392465339691586,,
,5951.0,921.0,6149.0,1502.0,2287.0,3237.0,-609.0,,,,-2.21504978183525,-3.00178474672964,-1.50536323894686,,-9.361380626060084,,
,5952.0,918.0,6152.0,1504.0,2286.0,3233.0,-623.0,,,,-2.21485082953855,-3.00169256781947,-1.5054977338699,,-9.321932131329126,,
,5954.0,919.0,6155.0,1503.0,2271.0,3214.0,-634.0,,,,-2.21503590819558,-3.0018058280228,-1.50577323071172,,-9.276201130970872,,
,5955.0,919.0,6155.0,1505.0,2265.0,3208.0,-663.0,,,,-2.21430092728506,-3.00196569366855,-1.50646098416475,,-9.22676764845222,,
,5956.0,920.0,6159.0,1505.0,2278.0,3208.0,-650.0,,,,-2.21367239697716,-3.00173664982237,-1.50605230990163,,-9.176487186037635,,
,5959.0,918.0,6156.0,1505.0,2274.0,3207.0,-624.0,,,,-2.21438159216115,-3.00175480109991,-1.50553910578691,,-9.128183138680916,,
,5960.0,918.0,6158.0,1510.0,2255.0,3210.0,-628.0,,,,-2.21275719205396,-3.00177986103434,-1.50669843554313,,-9.084287467673914,,
,5963.0,917.0,6164.0,1505.0,2268.0,3222.0,-606.0,,,,-2.21408321948443,-3.00180625545498,-1.50605959775968,,-9.046468658535472,,
,5966.0,919.0,6164.0,1509.0,2260.0,3217.0,-637.0,,,,-2.21359564037568,-3.00181932999422,-1.50598877143378,,-9.015288631114819,,
,5969.0,919.0,6168.0,1509.0,2263.0,3210.0,-638.0,,,,-2.21401265613473,-3.00173334666929,-1.50554088771978,,-8.989928787453126,,
,5968.0,920.0,6169.0,1511.0,2258.0,3233.0,-632.0,,,,-2.21420016402834,-3.00177546089742,-1.50601401716923,,-8.968019676887707,,
,5971.0,919.0,6170.0,1512.0,2238.0,3216.0,-622.0,,,,-2.2142734164133,-3.00184895904395,-1.50688318333358,,-8.945598929602872,,
,5973.0,919.0,6170.0,1513.0,2269.0,3229.0,-644.0,,,,-2.21376660732996,-3.00183235825467,-1.50673457938108,,-8.917208658394541,,
,5974.0,919.0,6172.0,1514.0,2299.0,3227.0,-688.0,,,,-2.21320052457545,-3.00170810307658,-1.50642822156412,,-8.87612782355652,,
,5979.0,918.0,6173.0,1514.0,2298.0,3234.0,-708.0,,,,-2.21343817405689,-3.00188122688173,-1.50738114046885,,-8.814719551287192,,
,5976.0,919.0,6169.0,1512.0,2262.0,3227.0,-673.0,,,,-2.21397644016003,-3.00187569607771,-1.50774028403448,,-8.724860934767769,,
,5977.0,920.0,6170.0,1512.0,2246.0,3238.0,-641.0,,,,-2.21251362516815,-3.00178002420228,-1.50657953473988,,-8.59841539555065,,
,5976.0,918.0,6168.0,1509.0,2262.0,3233.0,-642.0,,,,-2.21294508382153,-3.00177266724048,-1.50691385423847,,-8.427705694437062,,
,5972.0,918.0,6162.0,1508.0,2264.0,3234.0,-637.0,,,,-2.21178931338286,-3.00176465034944,-1.50680433148729,,-8.205948563139783,,
,5968.0,919.0,6155.0,1501.0,2241.0,3239.0,-628.0,,,,-2.21176287974641,-3.00166841531703,-1.50760396087238,,-7.927618801072318,,
,5963.0,917.0,6151.0,1500.0,2240.0,3224.0,-624.0,,,,-2.21104512901024,-3.00158903861939,-1.50747486577734,,-7.588720591249467,,
,5959.0,916.0,6147.0,1495.0,2234.0,3213.0,-621.0,,,,-2.2109006115607,-3.00180967360215,-1.50731222408408,,-7.186955456636661,,
,5954.0,919.0,6144.0,1493.0,2222.0,3222.0,-605.0,,,,-2.21129252526542,-3.0017721483228,-1.50708281193803,,-6.721787948769509,,
,5948.0,914.0,6135.0,1488.0,2225.0,3221.0,-599.0,,,,-2.2110282818196,-3.00180430623893,-1.50709694259771,,-6.194419849893372,,
,5945.0,914.0,6129.0,1483.0,2234.0,3214.0,-598.0,,,,-2.2117627342583,-3.00183828750173,-1.50705706884433,,-5.607689676381946,,
,5943.0,913.0,6127.0,1480.0,2251.0,3211.0,-595.0,,,,-2.21343489497914,-3.00179274527036,-1.50800535286709,,-4.965915693766771,,
,5940.0,915.0,6128.0,1481.0,2243.0,3217.0,-626.0,,,,-2.21344616176673,-3.00169708895508,-1.5073758314864,,-4.2746977966465405,,
,5936.0,912.0,6119.0,1476.0,2247.0,3227.0,-635.0,,,,-2.21421911638298,-3.00190359588111,-1.50758193311958,,-3.540688160868847,,
,5933.0,910.0,6116.0,1478.0,2257.0,3244.0,-599.0,,,,-2.2135471985949,-3.00181304863404,-1.50745623600819,,-2.7713352928891517,,
,5929.0,912.0,6113.0,1476.0,2276.0,3225.0,-628.0,,,,-2.21391391186869,-3.00177926042815,-1.50783090030762,,-1.974603744626878,,
,5932.0,911.0,6115.0,1477.0,2286.0,3244.0,-676.0,,,,-2.21529638822383,-3.00189477521926,-1.50720316500859,,-1.1586736759936205,,
,5928.0,912.0,6113.0,1476.0,2290.0,3245.0,-668.0,,,,-2.21495060733762,-3.0018568436525,-1.50701201889777,,-0.33162976259414406,,
,5929.0,911.0,6113.0,1474.0,2282.0,3233.0,-684.0,,,,-2.21424993898611,-3.00173898730429,-1.50705695203704,,0.4988447783387475,,
,5925.0,910.0,6112.0,1473.0,2281.0,3235.0,-671.0,,,,-2.21359658611447,-3.00181199455136,-1.50715853544032,,1.3257484344082588,,
2025-06-30 23:08:00,5927.0,912.0,6111.0,1474.0,2280.0,3222.0,-668.0,,,2025/06/30 11:08:00 PM,-2.2138724590697,-3.00178381002379,-1.5067866281157,,2.1429931409160163,,
,5922.0,910.0,6112.0,1475.0,2284.0,3208.0,-666.0,,,,-2.21361475061685,-3.00198164128691,-1.50682569791095,,2.9455655280162936,,
,5926.0,913.0,6109.0,1474.0,2266.0,3210.0,-681.0,,,,-2.21515497043908,-3.00168079100074,-1.5058329647752,,3.7295995263853228,,
,5926.0,910.0,6111.0,1473.0,2268.0,3218.0,-674.0,,,,-2.21394562893606,-3.00183499642648,-1.50613837265581,,4.492349074744465,,
,5927.0,913.0,6109.0,1474.0,2294.0,3216.0,-636.0,,,,-2.21337495858427,-3.00192002795441,-1.50638235812499,,5.232058903626193,,
,5926.0,913.0,6114.0,1477.0,2285.0,3224.0,-628.0,,,,-2.21380379115929,-3.00189082009009,-1.50529423267755,,5.947741710341066,,
,5925.0,913.0,6111.0,1476.0,2296.0,3226.0,-622.0,,,,-2.21313975896905,-3.00194383323834,-1.50617099245665,,6.638880721048174,,
,5928.0,909.0,6114.0,1476.0,2302.0,3233.0,-603.0,,,,-2.21360511612239,-3.0018248577531,-1.50598903888028,,7.305087726184579,,
,5926.0,911.0,6110.0,1478.0,2273.0,3212.0,-623.0,,,,-2.212992593007,-3.0018511176967,-1.50637427755499,,7.94575791396815,,
,5930.0,912.0,6112.0,1478.0,2276.0,3223.0,-638.0,,,,-2.21345438978015,-3.00190273958045,-1.50585597482517,,8.559772057723006,,
,5929.0,912.0,6113.0,1478.0,2269.0,3226.0,-645.0,,,,-2.21475320608841,-3.00170555205717,-1.505505518671,,9.14529978102193,,
,5929.0,913.0,6116.0,1479.0,2268.0,3222.0,-635.0,,,,-2.21464798588971,-3.00194874715258,-1.50651805492326,,9.699750791601891,,
,5930.0,910.0,6115.0,1477.0,2269.0,3228.0,-646.0,,,,-2.21391156825909,-3.00186096901297,-1.50579094227723,,10.21990280160884,,
,5936.0,913.0,6118.0,1479.0,2267.0,3221.0,-627.0,,,,-2.21453016788302,-3.00174733417252,-1.5056771069737,,10.702207614950513,,
,5935.0,912.0,6118.0,1483.0,2242.0,3231.0,-626.0,,,,-2.21417291975604,-3.00194863141834,-1.50485635529021,,11.143245592958857,,
,5934.0,912.0,6117.0,1481.0,2239.0,3230.0,-617.0,,,,-2.21558434046873,-3.00185840769395,-1.50484121650763,,11.540269476660562,,
,5939.0,914.0,6121.0,1482.0,2249.0,3229.0,-632.0,,,,-2.21561939183896,-3.00206789920303,-1.50581716943523,,11.891756793362237,,
,5938.0,913.0,6116.0,1482.0,2244.0,3230.0,-619.0,,,,-2.21696041604082,-3.00168152001526,-1.50594652015312,,12.197879373202593,,
,5939.0,912.0,6117.0,1485.0,2243.0,3210.0,-600.0,,,,-2.21847333186396,-3.0018075142526,-1.50614277159905,,12.460800171035261,,
,5937.0,914.0,6119.0,1484.0,2251.0,3219.0,-586.0,,,,-2.21980851432302,-3.00196462410419,-1.50564408044983,,12.68472148165088,,
,5941.0,916.0,6119.0,1484.0,2256.0,3220.0,-600.0,,,,-2.22072302141828,-3.00187281812688,-1.50723467539165,,12.875634100061987,,
,5939.0,913.0,6119.0,1483.0,2268.0,3211.0,-613.0,,,,-2.22156605797675,-3.00195610008387,-1.50800301660761,,13.040752682043673,,
,5937.0,914.0,6120.0,1483.0,2275.0,3226.0,-604.0,,,,-2.22371510969298,-3.00195497532634,-1.50885289681533,,13.187665338110858,,
,5941.0,913.0,6120.0,1484.0,2286.0,3235.0,-621.0,,,,-2.2244462843732,-3.00203429398424,-1.50789535804567,,13.323269808503582,,
,5940.0,914.0,6121.0,1483.0,2280.0,3223.0,-636.0,,,,-2.22495801842392,-3.00202897251359,-1.50776258397201,,13.452607435164937,,
,5939.0,912.0,6117.0,1481.0,2261.0,3211.0,-653.0,,,,-2.22543083566702,-3.0018914354585,-1.50792757881638,,13.577732861055459,,
,5943.0,912.0,6119.0,1482.0,2244.0,3240.0,-647.0,,,,-2.22556298732276,-3.0020066576988,-1.50874687280647,,13.696766988175632,,
,5943.0,913.0,6121.0,1483.0,2266.0,3233.0,-660.0,,,,-2.22529908571985,-3.00192663823857,-1.50672350346105,,13.803270741245939,,
,5943.0,914.0,6119.0,1484.0,2253.0,3243.0,-654.0,,,,-2.22644228266068,-3.00192125030614,-1.50773824020418,,13.886047910055238,,
,5943.0,913.0,6121.0,1485.0,2271.0,3241.0,-632.0,,,,-2.2252807391229,-3.00185397637601,-1.50710720519635,,13.929440258922677,,
,5942.0,913.0,6117.0,1482.0,2271.0,3223.0,-645.0,,,,-2.22643002456154,-3.00193576002035,-1.50563849304779,,13.914123992759848,,
,5946.0,915.0,6122.0,1486.0,2273.0,3228.0,-650.0,,,,-2.22608012606002,-3.00193449371376,-1.50622438764045,,13.818362133219512,,
,5948.0,916.0,6120.0,1485.0,2271.0,3233.0,-628.0,,,,-2.22563845224787,-3.00180104016438,-1.50607954054199,,13.619619601699817,,
,5945.0,915.0,6124.0,1486.0,2268.0,3239.0,-642.0,,,,-2.22629292055652,-3.00196720501757,-1.50525233838436,,13.296410460409405,,
,5945.0,911.0,6121.0,1487.0,2267.0,3210.0,-647.0,,,,-2.22521891170773,-3.00195002307355,-1.50603894233641,,12.830220586548938,,
,5950.0,913.0,6123.0,1484.0,2288.0,3219.0,-661.0,,,,-2.2249804480747,-3.00188542562744,-1.50606156813355,,12.207334460699212,,
,5953.0,915.0,6124.0,1488.0,2290.0,3210.0,-639.0,,,,-2.22428222981875,-3.0016511648258,-1.50492432429822,,11.42039348916616,,
,5953.0,916.0,6124.0,1489.0,2290.0,3210.0,-633.0,,,,-2.22417141341222,-3.00193466683146,-1.50604221519416,,10.46952796538792,,
,5954.0,915.0,6123.0,1487.0,2283.0,3210.0,-678.0,,,,-2.22439193766965,-3.00168200098967,-1.50515686853669,,9.362937025953512,,
,5953.0,916.0,6128.0,1488.0,2285.0,3218.0,-648.0,,,,-2.22464724690378,-3.00171426992951,-1.50553635248507,,8.116839750589193,,
,5955.0,916.0,6127.0,1491.0,2286.0,3214.0,-654.0,,,,-2.22429134896447,-3.00154433686499,-1.50495505152612,,6.754781605488272,,
,5960.0,916.0,6131.0,1491.0,2265.0,3221.0,-642.0,,,,-2.22511025208201,-3.00166227218514,-1.5048432525672,,5.306346456464462,,
,5961.0,917.0,6133.0,1493.0,2246.0,3219.0,-626.0,,,,-2.2255091575181,-3.00161195631834,-1.50466291117334,,3.8053862717193145,,
,5961.0,915.0,6131.0,1492.0,2265.0,3199.0,-651.0,,,,-2.22541844044768,-3.00153050666659,-1.50536628714413,,2.2879294973884297,,
,5962.0,915.0,6134.0,1496.0,2263.0,3222.0,-630.0,,,,-2.22545518861544,-3.00151385051704,-1.50413994365325,,0.7899583937808431,,
,5965.0,918.0,6135.0,1496.0,2248.0,3219.0,-652.0,,,,-2.22620454241297,-3.00157866392389,-1.5042470634135,,-0.6547475787908986,,
,5966.0,915.0,6135.0,1496.0,2265.0,3218.0,-622.0,,,,-2.22666091440179,-3.00163658202234,-1.50346295310953,,-2.0165203106975493,,
,5968.0,915.0,6135.0,1496.0,2282.0,3247.0,-609.0,,,,-2.2268539135648,-3.00148132407819,-1.5044998631702,,-3.2713150940911895,,
,5968.0,917.0,6139.0,1498.0,2279.0,3225.0,-641.0,,,,-2.2264393075664,-3.00145512227138,-1.5039252446931,,-4.401724744421488,,
,5971.0,916.0,6142.0,1501.0,2282.0,3215.0,-641.0,,,,-2.22677503093824,-3.00154668554378,-1.5034165186098,,-5.3974487741719726,,
,5972.0,919.0,6140.0,1499.0,2284.0,3219.0,-639.0,,,,-2.22669729393769,-3.00156414284694,-1.50422928346513,,-6.2552258168502926,,
,5974.0,918.0,6145.0,1502.0,2281.0,3229.0,-648.0,,,,-2.22684288305005,-3.00145514461248,-1.50472251296747,,-6.978286726245189,,
,5975.0,917.0,6143.0,1500.0,2270.0,3221.0,-636.0,,,,-2.22650995379948,-3.00147142023851,-1.50371504520595,,-7.575422904011407,,
,5980.0,920.0,6146.0,1504.0,2243.0,3213.0,-637.0,,,,-2.22629992504082,-3.00146934172128,-1.50416176357702,,-8.059785461830103,,
,5982.0,919.0,6149.0,1502.0,2247.0,3237.0,-635.0,,,,-2.22726168116363,-3.00152679375886,-1.50361224259175,,-8.447535447684022,,
,5984.0,918.0,6152.0,1507.0,2241.0,3233.0,-634.0,,,,-2.22653097817886,-3.00130016903804,-1.50530490597106,,-8.756457179887368,,
,5981.0,917.0,6150.0,1507.0,2252.0,3209.0,-620.0,,,,-2.22594616964332,-3.00142889833563,-1.50451018271829,,-9.004631494947702,,
,5983.0,919.0,6150.0,1506.0,2266.0,3207.0,-622.0,,,,-2.22571359958563,-3.00132841113941,-1.5050152744259,,-9.20924809144791,,
,5989.0,920.0,6155.0,1509.0,2261.0,3216.0,-637.0,,,,-2.22600821396435,-3.00139695349323,-1.50524555986895,,-9.38561785154325,,
,5990.0,922.0,6158.0,1509.0,2262.0,3221.0,-637.0,,,,-2.22465650265464,-3.00133009161025,-1.50469537715771,,-9.546426789684507,,
,5991.0,919.0,6158.0,1510.0,2272.0,3239.0,-621.0,,,,-2.22375918862097,-3.00112837786902,-1.50563698554264,,-9.701253105128027,,
,5996.0,919.0,6159.0,1510.0,2258.0,3242.0,-622.0,,,,-2.22427576994241,-3.00133379753722,-1.50587123464519,,-9.856349057888487,,
,5997.0,920.0,6161.0,1513.0,2256.0,3245.0,-601.0,,,,-2.22232328046021,-3.00116520860574,-1.50491026461147,,-10.014672292034863,,
,5998.0,920.0,6164.0,1513.0,2282.0,3234.0,-633.0,,,,-2.22341096150417,-3.0012404049463,-1.50565306536017,,-10.176138709261965,,
,6003.0,922.0,6165.0,1516.0,2295.0,3226.0,-646.0,,,,-2.22186762519324,-3.00101207092855,-1.50552430189079,,-10.338061597803568,,
,6002.0,919.0,6164.0,1515.0,2298.0,3230.0,-624.0,,,,-2.22309907850912,-3.00149222866273,-1.50556432379331,,-10.49573824769874,,
,6004.0,920.0,6164.0,1514.0,2290.0,3225.0,-644.0,,,,-2.22102765911957,-3.00135986952565,-1.50510696713209,,-10.643143201280488,,
,6006.0,922.0,6165.0,1518.0,2287.0,3221.0,-644.0,,,,-2.22034890120429,-3.00109722049942,-1.50653304865502,,-10.773683913537834,,
,6004.0,923.0,6167.0,1515.0,2298.0,3233.0,-644.0,,,,-2.22004674262959,-3.00119787978322,-1.50667385407207,,-10.880968645094697,,
,6005.0,919.0,6161.0,1513.0,2277.0,3215.0,-617.0,,,,-2.21936971898496,-3.0012674552309,-1.5073099747691,,-10.959529063675156,,
,6002.0,920.0,6160.0,1510.0,2265.0,3216.0,-630.0,,,,-2.21927234427757,-3.00112492164156,-1.50654365443759,,-11.005434754336994,,
,6003.0,921.0,6156.0,1509.0,2283.0,3218.0,-602.0,,,,-2.21693295130626,-3.00109258010231,-1.50625746791045,,-11.016737910860234,,
,5996.0,919.0,6152.0,1508.0,2243.0,3213.0,-608.0,,,,-2.21622787712279,-3.00119264364537,-1.50779202798816,,-10.993696915853183,,
,5995.0,920.0,6146.0,1503.0,2232.0,3220.0,-605.0,,,,-2.21441593371195,-3.00107700352298,-1.50673580014632,,-10.93874740054724,,
,5989.0,917.0,6140.0,1500.0,2232.0,3213.0,-613.0,,,,-2.21353586175162,-3.00118193883681,-1.50688428191601,,-10.856215581052357,,
,5987.0,917.0,6136.0,1497.0,2237.0,3214.0,-612.0,,,,-2.21388071808341,-3.00114588264569,-1.50649040802143,,-10.751796393123266,,
,5983.0,916.0,6131.0,1495.0,2261.0,3216.0,-621.0,,,,-2.21354415485169,-3.00129597682553,-1.50702622847575,,-10.631844153385206,,
,5982.0,917.0,6124.0,1492.0,2275.0,3209.0,-623.0,,,,-2.21316103295388,-3.00103071188535,-1.50766704119428,,-10.502544289275248,,
,5975.0,916.0,6121.0,1487.0,2259.0,3214.0,-631.0,,,,-2.21291313044085,-3.00121114321457,-1.50755352420435,,-10.36905070611891,,
,5970.0,914.0,6116.0,1486.0,2261.0,3217.0,-655.0,,,,-2.21254638740279,-3.00117789381192,-1.50714879179775,,-10.234683887059184,,
,5971.0,917.0,6115.0,1486.0,2287.0,3239.0,-660.0,,,,-2.21369885434709,-3.0009769766083,-1.5075959038965,,-10.100287647890461,,
,5969.0,916.0,6112.0,1484.0,2291.0,3242.0,-649.0,,,,-2.21465095638141,-3.0011002109316,-1.50781502213779,,-9.963834211569155,,
,5966.0,916.0,6112.0,1482.0,2296.0,3245.0,-666.0,,,,-2.21452461499396,-3.00110934816343,-1.50824285097659,,-9.820345110259694,,
,5963.0,913.0,6107.0,1480.0,2279.0,3222.0,-643.0,,,,-2.21530964977697,-3.00094354880122,-1.50846899664016,,-9.662159433976825,,
,5965.0,916.0,6106.0,1484.0,2253.0,3212.0,-656.0,,,,-2.21482742831654,-3.00112221250267,-1.50858328449301,,-9.479535437279159,,
,5965.0,914.0,6109.0,1484.0,2268.0,3232.0,-654.0,,,,-2.21508193584388,-3.00094893809304,-1.50852934823642,,-9.261524413501213,,
,5962.0,915.0,6107.0,1483.0,2263.0,3218.0,-648.0,,,,-2.21526634483029,-3.00104473923699,-1.50863707703454,,-8.99701638193588,,
,5963.0,913.0,6105.0,1480.0,2270.0,3207.0,-641.0,,,,-2.21402014524271,-3.00103852511256,-1.50889918969392,,-8.67583359909778,,
,5962.0,914.0,6105.0,1485.0,2268.0,3224.0,-655.0,,,,-2.21297252829223,-3.00098733891739,-1.50767641404692,,-8.28974466811034,,
,5965.0,915.0,6106.0,1482.0,2283.0,3244.0,-648.0,,,,-2.21223096997684,-3.00094311965559,-1.50927621508736,,-7.833288466477616,,
,5964.0,916.0,6107.0,1487.0,2289.0,3231.0,-625.0,,,,-2.21047329719665,-3.00089148496729,-1.50886151190563,,-7.304327951590261,,
,5965.0,914.0,6108.0,1487.0,2292.0,3222.0,-611.0,,,,-2.20996559396402,-3.00093968073645,-1.50924689055609,,-6.704291541648695,,
,5964.0,915.0,6106.0,1485.0,2286.0,3207.0,-625.0,,,,-2.20904235442144,-3.00075952272825,-1.50888869589927,,-6.0380972366712085,,
,5967.0,917.0,6107.0,1486.0,2293.0,3219.0,-664.0,,,,-2.20834792483563,-3.00066725818083,-1.50872388413955,,-5.313787259066823,,
,5966.0,916.0,6108.0,1487.0,2266.0,3229.0,-634.0,,,,-2.20712881317851,-3.00075823259456,-1.50921187909429,,-4.541926333919098,,
,5966.0,916.0,6108.0,1487.0,2280.0,3231.0,-619.0,,,,-2.20705150003002,-3.00072520486099,-1.50985306647358,,-3.7348339267150985,,
,5969.0,917.0,6110.0,1489.0,2274.0,3241.0,-607.0,,,,-2.20616422857419,-3.00073506759984,-1.50967588902405,,-2.9057298912075944,,
,5972.0,916.0,6109.0,1490.0,2267.0,3223.0,-619.0,,,,-2.20608825029903,-3.00065252767343,-1.50931624948544,,-2.067874488565202,,
,5972.0,918.0,6111.0,1493.0,2260.0,3220.0,-595.0,,,,-2.20454311729404,-3.00053288909501,-1.50973980277086,,-1.2337779345973905,,
,5974.0,918.0,6112.0,1492.0,2258.0,3225.0,-607.0,,,,-2.20342755532507,-3.00044695613517,-1.50952893049249,,-0.4145418395258235,,
,5973.0,919.0,6113.0,1494.0,2258.0,3250.0,-648.0,,,,-2.20341791538206,-3.0006261062492,-1.50924682318976,,0.3806238484601338,,
,5975.0,918.0,6112.0,1494.0,2246.0,3235.0,-647.0,,,,-2.20190908660813,-3.00042903942905,-1.50976092734542,,1.1446872650438469,,
,5975.0,919.0,6114.0,1495.0,2253.0,3243.0,-640.0,,,,-2.20193140897048,-3.00046199921926,-1.50939029547128,,1.8728863338029054,,
,5980.0,921.0,6114.0,1498.0,2258.0,3241.0,-618.0,,,,-2.20252661588638,-3.00059336615448,-1.51010840785215,,2.5626481017909364,,
,5977.0,921.0,6115.0,1500.0,2244.0,3245.0,-614.0,,,,-2.20117874268395,-3.0004385790108,-1.51009945172564,,3.213373455126686,,
,5981.0,920.0,6113.0,1501.0,2273.0,3235.0,-603.0,,,,-2.20270185927391,-3.00039227059652,-1.51020156937986,,3.826133846930952,,
,5983.0,919.0,6114.0,1497.0,2266.0,3237.0,-605.0,,,,-2.2038101231667,-3.00051822310117,-1.51142887799295,,4.403328379404006,,
,5986.0,921.0,6115.0,1499.0,2268.0,3232.0,-630.0,,,,-2.20191856490278,-3.00063844638224,-1.51189276503428,,4.948344419992322,,
,5986.0,921.0,6115.0,1500.0,2269.0,3225.0,-618.0,,,,-2.20158973516934,-3.00070826399032,-1.51326698578293,,5.465254380975463,,
,5986.0,919.0,6113.0,1499.0,2265.0,3221.0,-611.0,,,,-2.20077657771481,-3.00058722085165,-1.51360932839633,,5.958567731698356,,
,5984.0,921.0,6113.0,1501.0,2273.0,3226.0,-631.0,,,,-2.20008607266361,-3.00049993167898,-1.51275237656071,,6.433043329759019,,
,5988.0,923.0,6113.0,1502.0,2263.0,3214.0,-642.0,,,,-2.19957124884253,-3.00051653535084,-1.5128737692193,,6.8935551055321405,,
,5989.0,922.0,6110.0,1501.0,2256.0,3230.0,-616.0,,,,-2.19861704899028,-3.00053727920996,-1.51256638665935,,7.344995985361483,,
,5991.0,922.0,6112.0,1501.0,2256.0,3224.0,-607.0,,,,-2.19738614307688,-3.00054312169162,-1.51271264867009,,7.792201784393747,,
,5990.0,920.0,6112.0,1500.0,2257.0,3221.0,-607.0,,,,-2.19627611734113,-3.00049138777688,-1.51299788788936,,8.239878026132766,,
,5990.0,919.0,6111.0,1503.0,2263.0,3221.0,-623.0,,,,-2.19550068118324,-3.00053153057144,-1.51295781806106,,8.692515869498836,,
,5994.0,924.0,6112.0,1502.0,2273.0,3231.0,-639.0,,,,-2.1941148246685,-3.00052783106525,-1.51280188196462,,9.154285822084153,,
,5994.0,925.0,6112.0,1504.0,2280.0,3244.0,-641.0,,,,-2.19443499799038,-3.00062549406991,-1.51295845462914,,9.628898663385101,,
,5994.0,921.0,6111.0,1503.0,2270.0,3229.0,-601.0,,,,-2.19300557759972,-3.00038063627345,-1.51272719503625,,10.119423477189738,,
,5996.0,922.0,6112.0,1504.0,2288.0,3220.0,-603.0,,,,-2.19303250133899,-3.00045285305094,-1.51224230035809,,10.628055570488089,,
,5998.0,923.0,6112.0,1506.0,2281.0,3212.0,-622.0,,,,-2.1912564577722,-3.00029803231016,-1.51228576942109,,11.155833889675199,,
,6001.0,923.0,6114.0,1509.0,2259.0,3220.0,-654.0,,,,-2.19116812650454,-3.0003068921855,-1.51203703195559,,11.702317629068203,,
,6001.0,922.0,6112.0,1509.0,2258.0,3214.0,-648.0,,,,-2.19006288942674,-3.00034771313866,-1.512798152206,,12.265242896895648,,
,6001.0,921.0,6110.0,1509.0,2260.0,3213.0,-622.0,,,,-2.18916748142991,-3.00029307913623,-1.51260630651516,,12.840190343168153,,
,6005.0,925.0,6113.0,1507.0,2259.0,3224.0,-621.0,,,,-2.18777526035852,-3.00025102399474,-1.51311696531558,,13.420301980778124,,
,6008.0,924.0,6113.0,1513.0,2263.0,3215.0,-621.0,,,,-2.18721414734639,-3.00026061407823,-1.51322775119086,,13.996089201591968,,
,6007.0,925.0,6114.0,1511.0,2262.0,3215.0,-635.0,,,,-2.18695722387805,-3.00033122679125,-1.5133870206699,,14.555374107859596,,
,6008.0,923.0,6113.0,1512.0,2293.0,3230.0,-647.0,,,,-2.18630635045226,-3.00019021556903,-1.5135645960618,,15.08340305971583,,
2025-06-30 23:08:01,6011.0,923.0,6114.0,1512.0,2284.0,3223.0,-633.0,,,2025/06/30 11:08:01 PM,-2.18563115360804,-3.00025825690425,-1.51337845360428,,15.563164608952267,,
,6014.0,925.0,6114.0,1513.0,2266.0,3215.0,-629.0,,,,-2.18536234043707,-3.00021497731979,-1.51242519113583,,15.975932419507997,,
,6013.0,925.0,6113.0,1515.0,2270.0,3221.0,-635.0,,,,-2.18595339656486,-3.00014885417838,-1.51336631114946,,16.302035556035484,,
,6016.0,926.0,6114.0,1516.0,2266.0,3214.0,-625.0,,,,-2.18551880529022,-3.00011129462408,-1.51322011061991,,16.521833332707086,,
,6017.0,924.0,6115.0,1517.0,2245.0,3225.0,-628.0,,,,-2.18496318308665,-3.00012628808978,-1.51353689903912,,16.61684246026319,,
,6022.0,927.0,6115.0,1518.0,2253.0,3205.0,-636.0,,,,-2.18604959908815,-3.00014071498765,-1.51322827506513,,16.570935633411523,,
,6023.0,927.0,6117.0,1520.0,2262.0,3227.0,-639.0,,,,-2.18628348768651,-3.00004229657522,-1.51408561160062,,16.371508421090596,,
,6026.0,928.0,6115.0,1521.0,2275.0,3237.0,-651.0,,,,-2.18715031704936,-3.00018435186269,-1.51422249004399,,16.010499771235857,,
,6025.0,925.0,6116.0,1519.0,2294.0,3241.0,-652.0,,,,-2.18741956517191,-3.00026927010188,-1.51463569069051,,15.485153814188052,,
,6030.0,926.0,6118.0,1521.0,2267.0,3251.0,-647.0,,,,-2.18819634181307,-3.00024975596798,-1.51449004277849,,14.798428666172564,,
,6032.0,927.0,6118.0,1526.0,2263.0,3228.0,-643.0,,,,-2.18952454839274,-3.0002493578739,-1.51586239120242,,13.958991079742596,,
,6036.0,927.0,6119.0,1526.0,2265.0,3226.0,-629.0,,,,-2.19215237082316,-3.00008304933484,-1.51645595830844,,12.980780806864507,,
,6038.0,928.0,6120.0,1527.0,2271.0,3219.0,-625.0,,,,-2.19350478342624,-3.000266306745,-1.51756578885006,,11.88217953739115,,
,6039.0,926.0,6118.0,1528.0,2278.0,3220.0,-633.0,,,,-2.1933925812934,-3.00033991503583,-1.518329239174,,10.684868331363393,,
,6040.0,931.0,6118.0,1529.0,2263.0,3218.0,-622.0,,,,-2.19454662017067,-3.00023267759999,-1.51900859870095,,9.412495934526655,,
,6044.0,927.0,6120.0,1530.0,2270.0,3217.0,-652.0,,,,-2.19690514525262,-3.00034136040002,-1.52011989856308,,8.089300811128382,,
,6046.0,929.0,6122.0,1530.0,2280.0,3215.0,-650.0,,,,-2.20015831320735,-3.00034154321607,-1.52103063125182,,6.738828012890022,,
,6048.0,929.0,6121.0,1530.0,2284.0,3222.0,-659.0,,,,-2.20149175477421,-3.00060015018307,-1.52023127565997,,5.382858954607932,,
,6051.0,931.0,6123.0,1537.0,2292.0,3231.0,-649.0,,,,-2.20288866943015,-3.00060625396473,-1.52207503302293,,4.040633672323615,,
,6053.0,930.0,6122.0,1536.0,2268.0,3230.0,-633.0,,,,-2.2047506344129,-3.00061902607258,-1.52288312122571,,2.7283999630792306,,
,6052.0,932.0,6123.0,1539.0,2274.0,3242.0,-636.0,,,,-2.20845388530186,-3.00073777321797,-1.52344426367473,,1.4592803181369398,,
,6057.0,930.0,6124.0,1539.0,2265.0,3248.0,-618.0,,,,-2.21122474353444,-3.00061517518943,-1.5244873905649,,0.24341166615233598,,
,6058.0,930.0,6123.0,1538.0,2279.0,3244.0,-627.0,,,,-2.21645529658521,-3.00071648978471,-1.52628943138852,,-0.9117121140967615,,
,6063.0,932.0,6125.0,1541.0,2270.0,3231.0,-622.0,,,,-2.21938230058891,-3.00074454443901,-1.52701662466945,,-2.0007779752883685,,
,6065.0,935.0,6124.0,1542.0,2269.0,3230.0,-650.0,,,,-2.22104423024999,-3.00100454241375,-1.52711491110738,,-3.0201561430906727,,
,6066.0,932.0,6126.0,1543.0,2270.0,3226.0,-668.0,,,,-2.22140736272088,-3.00077588454074,-1.52823928312198,,-3.967442471438439,,
,6065.0,930.0,6121.0,1542.0,2268.0,3214.0,-647.0,,,,-2.22264678177292,-3.00103963237694,-1.52998645161503,,-4.841098329064363,,
,6065.0,933.0,6120.0,1542.0,2267.0,3217.0,-644.0,,,,-2.22471680902306,-3.00087861800817,-1.52994603865502,,-5.640221866150352,,
,6063.0,934.0,6118.0,1539.0,2266.0,3216.0,-609.0,,,,-2.22814753124892,-3.00097817603061,-1.53131936418369,,-6.36445767981777,,
,6067.0,934.0,6112.0,1538.0,2241.0,3220.0,-630.0,,,,-2.23196880684107,-3.00107357991199,-1.53145718637141,,-7.014025907523368,,
,6062.0,933.0,6107.0,1531.0,2234.0,3221.0,-624.0,,,,-2.23419591699164,-3.0010286556436,-1.53257776504471,,-7.5898311688236335,,
,6059.0,931.0,6102.0,1531.0,2246.0,3207.0,-637.0,,,,-2.23524008712248,-3.00110864284333,-1.53315785331565,,-8.093600703765555,,
,6056.0,931.0,6098.0,1531.0,2233.0,3196.0,-631.0,,,,-2.2363397295982,-3.00113478435918,-1.53409667461656,,-8.528001486106984,,
,6054.0,932.0,6092.0,1526.0,2241.0,3209.0,-638.0,,,,-2.23867193523634,-3.00112142651273,-1.53418385796688,,-8.896696567093597,,
,6048.0,931.0,6088.0,1521.0,2234.0,3218.0,-645.0,,,,-2.23990976227502,-3.00109725606817,-1.53556828326976,,-9.204317243928648,,
,6045.0,929.0,6082.0,1519.0,2254.0,3217.0,-628.0,,,,-2.24214082697965,-3.00108238657099,-1.53568708739189,,-9.456345029838264,,
,6043.0,928.0,6075.0,1517.0,2258.0,3214.0,-637.0,,,,-2.24633678040438,-3.0009158222134,-1.53633927366547,,-9.658912219289414,,
,6041.0,930.0,6073.0,1519.0,2274.0,3224.0,-662.0,,,,-2.24733306463937,-3.00116051693684,-1.53756886747825,,-9.81854032408458,,
,6036.0,929.0,6067.0,1518.0,2267.0,3233.0,-650.0,,,,-2.25005620689985,-3.00131441460139,-1.53788197646257,,-9.941841577865691,,
,6038.0,929.0,6065.0,1516.0,2259.0,3235.0,-648.0,,,,-2.2490648766978,-3.00137798167134,-1.53814238663987,,-10.0352107715333,,
,6032.0,929.0,6060.0,1512.0,2263.0,3242.0,-650.0,,,,-2.24975926869128,-3.00108501848499,-1.53864326827466,,-10.104533910738336,,
,6033.0,930.0,6055.0,1513.0,2283.0,3241.0,-661.0,,,,-2.25100275410165,-3.00126975802043,-1.53982319424159,,-10.154937389708284,,
,6029.0,927.0,6052.0,1515.0,2284.0,3229.0,-686.0,,,,-2.2520133733261,-3.00124967195184,-1.53988087914705,,-10.190596900695155,,
,6030.0,929.0,6054.0,1514.0,2254.0,3220.0,-658.0,,,,-2.25156964553494,-3.0009842584457,-1.5401384252502,,-10.214619254049826,,
,6032.0,931.0,6051.0,1513.0,2278.0,3232.0,-644.0,,,,-2.25158487242621,-3.0012382986464,-1.54047382240394,,-10.229003097937346,,
,6027.0,928.0,6049.0,1515.0,2281.0,3245.0,-656.0,,,,-2.25313457483628,-3.00120497508,-1.54143155989567,,-10.234677319060578,,
,6030.0,927.0,6050.0,1516.0,2264.0,3232.0,-673.0,,,,-2.25561041070014,-3.00122466480131,-1.54111695350495,,-10.231610216556595,,
,6030.0,929.0,6047.0,1515.0,2261.0,3223.0,-658.0,,,,-2.2580952396014,-3.00122814929477,-1.54238680592552,,-10.218979436839192,,
,6028.0,930.0,6047.0,1513.0,2247.0,3208.0,-640.0,,,,-2.25905195962513,-3.00114388522943,-1.54180864208637,,-10.1953918785323,,
,6029.0,928.0,6047.0,1514.0,2243.0,3230.0,-626.0,,,,-2.25795290133661,-3.00133274110321,-1.54137674818433,,-10.159142791096372,,
,6030.0,929.0,6047.0,1517.0,2244.0,3217.0,-622.0,,,,-2.25905539127944,-3.00123670104285,-1.5421213985361,,-10.1085023253612,,
,6032.0,930.0,6045.0,1518.0,2239.0,3215.0,-620.0,,,,-2.2588855051644,-3.00110173275077,-1.54235714520395,,-10.04201494715719,,
,6033.0,929.0,6045.0,1522.0,2242.0,3228.0,-618.0,,,,-2.25933277768392,-3.00125456524253,-1.54215451349257,,-9.958792754638619,,
,6034.0,929.0,6045.0,1521.0,2263.0,3220.0,-615.0,,,,-2.25961518479949,-3.00137599489586,-1.54299472417063,,-9.858779133146724,,
,6037.0,932.0,6045.0,1524.0,2262.0,3230.0,-597.0,,,,-2.25971453950964,-3.00120191347679,-1.54250162248371,,-9.742955896033004,,
,6035.0,930.0,6045.0,1522.0,2248.0,3237.0,-591.0,,,,-2.25999882203946,-3.00142715327615,-1.54340001435504,,-9.613466288216307,,
,6037.0,929.0,6047.0,1523.0,2254.0,3232.0,-609.0,,,,-2.26090381361572,-3.00142295758161,-1.54438589684216,,-9.473628484398814,,
,6034.0,930.0,6046.0,1522.0,2247.0,3240.0,-614.0,,,,-2.26239721751904,-3.00133528652383,-1.54518747776051,,-9.32781949860344,,
,6038.0,934.0,6048.0,1526.0,2239.0,3248.0,-601.0,,,,-2.26222811789155,-3.00138807763264,-1.54517222026655,,-9.181217718155832,,
,6040.0,933.0,6045.0,1526.0,2243.0,3227.0,-602.0,,,,-2.26406755655055,-3.00140694345147,-1.5468244291045,,-9.0394038884723,,
,6040.0,932.0,6045.0,1526.0,2240.0,3215.0,-590.0,,,,-2.26472345891676,-3.00148812920117,-1.54664432808664,,-8.907835701150873,,
,6043.0,932.0,6041.0,1527.0,2254.0,3216.0,-581.0,,,,-2.26435379330773,-3.00146822542367,-1.54800636282346,,-8.791229783340633,,
,6041.0,931.0,6041.0,1529.0,2251.0,3221.0,-565.0,,,,-2.26544143120541,-3.00141666941593,-1.54735579713141,,-8.692904641462041,,
,6045.0,932.0,6042.0,1528.0,2254.0,3207.0,-563.0,,,,-2.26636263035207,-3.00155825845938,-1.54758212281961,,-8.61415481199321,,
,6049.0,933.0,6038.0,1529.0,2244.0,3219.0,-563.0,,,,-2.26732878138378,-3.00168942006816,-1.5475381109753,,-8.553735332905012,,
,6047.0,935.0,6040.0,1529.0,2247.0,3242.0,-584.0,,,,-2.27142832385036,-3.0016567010511,-1.54884774396368,,-8.507533252718469,,
,6049.0,933.0,6038.0,1530.0,2248.0,3234.0,-579.0,,,,-2.27498748363447,-3.00160698784891,-1.54904856481234,,-8.468488372947197,,
,6052.0,932.0,6038.0,1530.0,2246.0,3222.0,-609.0,,,,-2.27660413973798,-3.00163646809967,-1.54950149283854,,-8.426800383506784,,
,6051.0,932.0,6036.0,1532.0,2225.0,3240.0,-636.0,,,,-2.27605312848899,-3.00174936440184,-1.54975966321885,,-8.3704273727881,,
,6053.0,932.0,6034.0,1529.0,2225.0,3242.0,-631.0,,,,-2.27418739744655,-3.001579222111,-1.54924312788819,,-8.28584578257472,,
,6054.0,932.0,6034.0,1529.0,2232.0,3239.0,-611.0,,,,-2.27349711952448,-3.00171646611712,-1.55018478803381,,-8.159009021130002,,
,6059.0,932.0,6031.0,1531.0,2254.0,3229.0,-637.0,,,,-2.27361064577024,-3.00155198468701,-1.54970247857041,,-7.976415668229795,,
,6062.0,935.0,6030.0,1532.0,2269.0,3222.0,-633.0,,,,-2.27198622514292,-3.00161331186458,-1.54906383839452,,-7.726182187045886,,
,6059.0,935.0,6030.0,1534.0,2291.0,3230.0,-623.0,,,,-2.27003877382218,-3.00165950877072,-1.54946297376271,,-7.3990117338005525,,
,6064.0,934.0,6028.0,1530.0,2292.0,3227.0,-631.0,,,,-2.27002804718109,-3.00173145272425,-1.54951038844345,,-6.988960958836643,,
,6063.0,934.0,6026.0,1534.0,2267.0,3216.0,-611.0,,,,-2.27148916271548,-3.0015586628922,-1.55035905908185,,-6.493929720058103,,
,6070.0,933.0,6027.0,1534.0,2265.0,3206.0,-643.0,,,,-2.27607444290936,-3.00163753293347,-1.55070116346465,,-5.915831137391092,,
,6072.0,937.0,6027.0,1534.0,2265.0,3224.0,-663.0,,,,-2.28017730608569,-3.00177155465092,-1.55168790001746,,-5.260435910238975,,
,6075.0,938.0,6028.0,1535.0,2281.0,3219.0,-653.0,,,,-2.28044073689229,-3.00170600630259,-1.552187254565,,-4.536919123479274,,
,6075.0,934.0,6028.0,1537.0,2287.0,3212.0,-650.0,,,,-2.27873355598692,-3.00175435151064,-1.55177057445271,,-3.757165281652285,,
,6081.0,937.0,6027.0,1537.0,2309.0,3211.0,-662.0,,,,-2.27905321820628,-3.00169061315957,-1.55238353364104,,-2.934906069314561,,
,6080.0,937.0,6027.0,1538.0,2278.0,3192.0,-663.0,,,,-2.27907992272645,-3.00170743264793,-1.55263752952588,,-2.0847752914416358,,
,6083.0,936.0,6026.0,1539.0,2261.0,3200.0,-682.0,,,,-2.27868979085972,-3.00172541770206,-1.55288711397469,,-1.2213671439888134,,
,6088.0,936.0,6025.0,1538.0,2295.0,3211.0,-664.0,,,,-2.27894619861353,-3.00168859935928,-1.55323293221186,,-0.3583777877937272,,
,6086.0,934.0,6028.0,1540.0,2267.0,3212.0,-682.0,,,,-2.27846329485554,-3.00168131832462,-1.55267549581477,,0.49210347748287125,,
,6091.0,936.0,6026.0,1541.0,2262.0,3213.0,-661.0,,,,-2.27996490847031,-3.00156914742138,-1.55292846959323,,1.3201071853919986,,
,6096.0,938.0,6025.0,1541.0,2265.0,3230.0,-681.0,,,,-2.27952142801622,-3.00170865725838,-1.55287967228429,,2.1180783926331803,,
,6099.0,936.0,6027.0,1543.0,2281.0,3223.0,-694.0,,,,-2.28091795483585,-3.00191822512318,-1.55272183256799,,2.880954572959903,,
,6098.0,936.0,6023.0,1542.0,2269.0,3216.0,-677.0,,,,-2.28146900303579,-3.00155150722852,-1.55184382344509,,3.6060486853636515,,
,6101.0,935.0,6023.0,1545.0,2279.0,3225.0,-657.0,,,,-2.28188377660315,-3.00171728429446,-1.55249083097788,,4.292774220462731,,
,6107.0,938.0,6026.0,1547.0,2248.0,3229.0,-696.0,,,,-2.28373335115242,-3.00168382102301,-1.55230656166025,,4.942257776309946,,
,6110.0,937.0,6024.0,1548.0,2254.0,3216.0,-695.0,,,,-2.28448739107086,-3.00176113221539,-1.55283606936565,,5.556888583102056,,
,6109.0,935.0,6026.0,1546.0,2264.0,3206.0,-685.0,,,,-2.28566170127843,-3.00170012969672,-1.55242237250771,,6.139854925049597,,
,6114.0,937.0,6025.0,1549.0,2253.0,3211.0,-629.0,,,,-2.28789849742817,-3.00186778946136,-1.55384465101099,,6.694714498051327,,
,6117.0,936.0,6026.0,1552.0,2264.0,3196.0,-629.0,,,,-2.28835599876494,-3.00193457768316,-1.55446160186282,,7.225037371453295,,
,6121.0,938.0,6025.0,1555.0,2268.0,3197.0,-629.0,,,,-2.28812047216751,-3.00200777520486,-1.55469524599478,,7.734144885088878,,
,6123.0,937.0,6025.0,1552.0,2274.0,3218.0,-601.0,,,,-2.29010090645226,-3.00219139364264,-1.55502634180244,,8.22494727678836,,
,6125.0,937.0,6024.0,1553.0,2270.0,3221.0,-640.0,,,,-2.29295874047344,-3.00209930734873,-1.55708014828507,,8.69986226975092,,
,6127.0,936.0,6027.0,1556.0,2318.0,3216.0,-651.0,,,,-2.29526304893617,-3.0021922578736,-1.55738280942563,,9.160782322335788,,
,6128.0,938.0,6024.0,1557.0,2286.0,3206.0,-627.0,,,,-2.30373042011186,-3.00225054207517,-1.55791573084119,,9.60905380910255,,
,6132.0,938.0,6022.0,1556.0,2283.0,3208.0,-633.0,,,,-2.3141156417936,-3.00237456858975,-1.56144862584056,,10.045437526574789,,
,6132.0,938.0,6022.0,1556.0,2282.0,3219.0,-641.0,,,,-2.32468011835729,-3.00238708434091,-1.56193126607337,,10.470033624420736,,
,6135.0,938.0,6024.0,1560.0,2279.0,3224.0,-663.0,,,,-2.33308422445071,-3.00244950270203,-1.5630681366824,,10.882170473095744,,
,6140.0,941.0,6023.0,1562.0,2281.0,3228.0,-654.0,,,,-2.34257923316111,-3.00268117993431,-1.56360262441708,,11.280271462939478,,
,6141.0,939.0,6023.0,1562.0,2284.0,3227.0,-649.0,,,,-2.34811391009201,-3.002569122939,-1.56496676489266,,11.661723413164435,,
,6141.0,939.0,6023.0,1563.0,2274.0,3215.0,-631.0,,,,-2.35491870866146,-3.00257229676453,-1.56560662783416,,12.022774167021181,,
,6144.0,940.0,6022.0,1564.0,2288.0,3219.0,-625.0,,,,-2.36399323207433,-3.00264085423598,-1.56561382359537,,12.358485396976025,,
,6146.0,938.0,6023.0,1561.0,2281.0,3229.0,-630.0,,,,-2.37218155714639,-3.00277023104837,-1.56727628463504,,12.662760866388064,,
,6147.0,939.0,6022.0,1565.0,2292.0,3220.0,-636.0,,,,-2.37992440413996,-3.00265897493549,-1.56747535645252,,12.928462037530899,,
,6151.0,937.0,6016.0,1561.0,2292.0,3211.0,-648.0,,,,-2.38648631142557,-3.00283236382969,-1.56791182943873,,13.147613350062933,,
,6145.0,938.0,6014.0,1561.0,2281.0,3211.0,-624.0,,,,-2.39072368596904,-3.00262003140853,-1.5680597600795,,13.31168959133541,,
,6147.0,937.0,6009.0,1558.0,2274.0,3219.0,-610.0,,,,-2.39278995935375,-3.00269587771484,-1.56798322230362,,13.41196848482717,,
,6142.0,937.0,6003.0,1557.0,2249.0,3196.0,-613.0,,,,-2.39404375806731,-3.00274970325906,-1.56765872870786,,13.439924348297263,,
,6142.0,936.0,5998.0,1553.0,2274.0,3185.0,-626.0,,,,-2.39505386363176,-3.0028452238742,-1.56711075467004,,13.387634738975402,,
,6138.0,935.0,5990.0,1550.0,2279.0,3189.0,-640.0,,,,-2.395949035962,-3.00279843486344,-1.56710399943052,,13.248171844495369,,
,6132.0,934.0,5983.0,1545.0,2254.0,3194.0,-635.0,,,,-2.39662845073561,-3.00290363536042,-1.56669136427069,,13.015953594320294,,
,6129.0,935.0,5976.0,1545.0,2259.0,3226.0,-651.0,,,,-2.39688850519043,-3.0028287782412,-1.56658939288007,,12.687035401962016,,
,6129.0,932.0,5970.0,1540.0,2274.0,3208.0,-631.0,,,,-2.39836219052882,-3.00267197226327,-1.56602197179083,,12.25933121459327,,
,6126.0,934.0,5963.0,1537.0,2284.0,3202.0,-620.0,,,,-2.39878447187212,-3.00281914189035,-1.56498491552869,,11.732760585345432,,
,6120.0,930.0,5955.0,1535.0,2302.0,3195.0,-607.0,,,,-2.39858750506444,-3.00275360275092,-1.5649878774595,,11.109324851378117,,
,6120.0,931.0,5954.0,1536.0,2320.0,3208.0,-598.0,,,,-2.39936762184126,-3.00278691188638,-1.56466994969041,,10.39311895498595,,
,6113.0,931.0,5945.0,1531.0,2297.0,3235.0,-622.0,,,,-2.39888262910641,-3.0029225616874,-1.56339659141145,,9.59028602222099,,
,6112.0,929.0,5940.0,1530.0,2304.0,3238.0,-630.0,,,,-2.400482964931,-3.00279755685261,-1.56328389197669,,8.708920354412374,,
,6110.0,930.0,5937.0,1529.0,2305.0,3222.0,-633.0,,,,-2.40011142445107,-3.00276642665953,-1.56281105651897,,7.758922051714482,,
,6110.0,928.0,5933.0,1528.0,2299.0,3212.0,-613.0,,,,-2.40072401637056,-3.00283572380334,-1.56317774005872,,6.751804287355274,,
,6108.0,929.0,5930.0,1528.0,2309.0,3221.0,-625.0,,,,-2.40276061488886,-3.00296425281479,-1.56278759030555,,5.700453471276467,,
,6108.0,929.0,5926.0,1529.0,2287.0,3218.0,-638.0,,,,-2.4027549759735,-3.00287645574014,-1.56258678644826,,4.61884353735802,,
,6109.0,929.0,5926.0,1528.0,2293.0,3226.0,-613.0,,,,-2.40392424269698,-3.00292697991368,-1.56103473372755,,3.5217073101644663,,
