TimeLabel,MEAS1_PPG1,MEAS1_PPG2,MEAS1_PPG3,MEAS1_PPG4,ACCX,ACCY,ACCZ,HR_timestamp,HR_value,radar_timestamp,phase_rx0,phase_rx1,phase_rx2,timestep,n_process,original_rate,calculated_rate
2025-07-15 19:41:48,6118.0,1295.0,8666.0,2289.0,870.0,2472.0,2903.0,2025-07-15 19:41:48,70.0,2025/07/15 07:41:48 PM,-0.643002342668837,-2.84181460097505,-0.842107432943024,2025/07/15 07:41:48 PM,8.269433197118369,18.556699752807617,17.395510835913313
,6121.0,1294.0,8665.0,2287.0,866.0,2470.0,2925.0,2025-07-15 19:41:49,71.0,,-0.643239752742727,-2.84185818842825,-0.841493356411951,2025/07/15 07:41:58 PM,7.15662985710798,17.045455932617188,20.76732405398581
,6122.0,1299.0,8668.0,2289.0,860.0,2472.0,2954.0,2025-07-15 19:41:50,71.0,,-0.643413919846157,-2.84174449346364,-0.842323585478616,2025/07/15 07:42:08 PM,5.97560788393429,19.08127212524414,20.03341687552214
,6130.0,1299.0,8670.0,2289.0,866.0,2467.0,2920.0,2025-07-15 19:41:51,71.0,,-0.643720939238221,-2.84178230045351,-0.842938806181456,2025/07/15 07:42:18 PM,4.767257352443382,19.21537208557129,18.181148131396878
,6132.0,1302.0,8671.0,2290.0,865.0,2462.0,2918.0,2025-07-15 19:41:51,71.0,,-0.643866623591581,-2.84158535109551,-0.843377322313586,2025/07/15 07:42:28 PM,3.56966461961982,19.28571510314941,18.190045248868792
,6134.0,1302.0,8673.0,2293.0,860.0,2487.0,2916.0,2025-07-15 19:41:53,70.0,,-0.64346646699318,-2.84162872094543,-0.842906469629116,2025/07/15 07:42:38 PM,2.416145654555866,18.63354110717773,20.479895208986594
,6138.0,1302.0,8674.0,2292.0,865.0,2487.0,2941.0,2025-07-15 19:41:53,69.0,,-0.643982998070805,-2.84178900381193,-0.84362482796686,2025/07/15 07:42:48 PM,1.333784451814126,18.723995208740234,19.844720496894436
,6142.0,1301.0,8672.0,2292.0,858.0,2477.0,2934.0,2025-07-15 19:41:54,68.0,,-0.644370462346924,-2.84190363408057,-0.842724743815742,2025/07/15 07:42:58 PM,0.34256043180716883,19.271947860717773,19.926015603981696
,6146.0,1304.0,8673.0,2294.0,865.0,2472.0,2930.0,2025-07-15 19:41:55,67.0,,-0.644088252595873,-2.8418372861892,-0.842768260895212,2025/07/15 07:43:08 PM,-0.5449151748303186,20.19446563720703,15.337023770758726
,6149.0,1303.0,8673.0,2294.0,855.0,2468.0,2923.0,2025-07-15 19:41:56,66.0,,-0.644477436474265,-2.84180661051144,-0.843730406940528,2025/07/15 07:43:18 PM,-1.323092547579957,17.751480102539062,20.408163265306115
,6151.0,1304.0,8672.0,2295.0,847.0,2474.0,2925.0,2025-07-15 19:41:57,66.0,,-0.644765529589397,-2.84196447528788,-0.842559544718796,2025/07/15 07:43:28 PM,-1.9926927316081653,18.447347640991207,19.090267077555207
,6156.0,1306.0,8673.0,2297.0,854.0,2477.0,2950.0,2025-07-15 19:41:58,66.0,,-0.644425074635162,-2.84194983638318,-0.843846433000995,2025/07/15 07:43:38 PM,-2.5595543542664356,18.60785675048828,14.52173913043479
,6161.0,1306.0,8674.0,2296.0,875.0,2472.0,2938.0,2025-07-15 19:41:59,65.0,,-0.644483191806712,-2.84189883621294,-0.844063539651064,2025/07/15 07:43:48 PM,-3.0332579184782276,17.96407127380371,14.450124343741358
,6163.0,1309.0,8676.0,2297.0,869.0,2477.0,2943.0,2025-07-15 19:42:00,66.0,,-0.64493573762598,-2.84194155814718,-0.844564039340112,2025/07/15 07:43:58 PM,-3.4256722013561802,15.92115306854248,20.632266284440202
,6167.0,1307.0,8676.0,2297.0,875.0,2485.0,2953.0,2025-07-15 19:42:01,66.0,,-0.645331712813198,-2.84198125061892,-0.844429878407162,2025/07/15 07:44:08 PM,-3.7495579458974397,16.150739669799805,17.16388702281158
,6172.0,1309.0,8676.0,2296.0,868.0,2478.0,2933.0,2025-07-15 19:42:02,66.0,,-0.645309303870378,-2.84203291973664,-0.844805663264328,2025/07/15 07:44:18 PM,-4.017343921539572,17.00404930114746,19.10138567672816
,6176.0,1313.0,8679.0,2298.0,856.0,2483.0,2936.0,2025-07-15 19:42:03,66.0,,-0.645049374240171,-2.84204448613774,-0.844866983325058,2025/07/15 07:44:28 PM,-4.240162947170855,18.711017608642575,22.2373717926278
,6180.0,1313.0,8677.0,2301.0,867.0,2472.0,2932.0,2025-07-15 19:42:04,65.0,,-0.64528299444678,-2.84203430946204,-0.844644876959873,2025/07/15 07:44:38 PM,-4.427203865631489,19.21708106994629,19.642857142857178
,6183.0,1313.0,8679.0,2302.0,870.0,2469.0,2944.0,2025-07-15 19:42:06,65.0,,-0.645393477756963,-2.84217350121967,-0.844989036557261,,-4.585402303117137,,
,6188.0,1312.0,8680.0,2301.0,869.0,2475.0,2949.0,2025-07-15 19:42:06,65.0,,-0.645283610007052,-2.84225648532951,-0.844133534368476,,-4.719460227954977,,
,6191.0,1314.0,8680.0,2301.0,867.0,2474.0,2932.0,2025-07-15 19:42:07,65.0,,-0.645166101146602,-2.84223343817829,-0.843938304953147,,-4.832153520794623,,
,6198.0,1315.0,8682.0,2305.0,871.0,2487.0,2941.0,2025-07-15 19:42:09,66.0,,-0.645903407995404,-2.842370604238,-0.844541553370854,,-4.924860042900596,,
,6201.0,1317.0,8682.0,2305.0,871.0,2492.0,2928.0,2025-07-15 19:42:09,67.0,,-0.646097772523362,-2.84229224751559,-0.845412046499703,,-4.998220658145445,,
,6204.0,1318.0,8682.0,2304.0,867.0,2479.0,2919.0,2025-07-15 19:42:10,68.0,,-0.645500772584653,-2.84214919915859,-0.845210259249744,,-5.0528349336712814,,
,6208.0,1319.0,8682.0,2305.0,875.0,2479.0,2955.0,2025-07-15 19:42:12,68.0,,-0.645438711149754,-2.8422445697594,-0.84582153968642,,-5.089893334418787,,
,6214.0,1321.0,8685.0,2307.0,867.0,2468.0,2926.0,2025-07-15 19:42:13,69.0,,-0.645497235145422,-2.84210223451168,-0.844526145656541,,-5.111658306303441,,
,6217.0,1322.0,8683.0,2308.0,871.0,2463.0,2941.0,2025-07-15 19:42:14,69.0,,-0.645564898820979,-2.84232919794719,-0.844698433055913,,-5.121725769508203,,
,6222.0,1322.0,8683.0,2309.0,866.0,2485.0,2956.0,2025-07-15 19:42:14,68.0,,-0.645800155373325,-2.84209605539827,-0.845188680159576,,-5.125023670615065,,
,6224.0,1322.0,8683.0,2306.0,864.0,2482.0,2929.0,2025-07-15 19:42:15,68.0,,-0.645353786612902,-2.84221343049866,-0.844651043905963,,-5.127533016690151,,
,6227.0,1323.0,8685.0,2309.0,872.0,2475.0,2937.0,2025-07-15 19:42:17,68.0,,-0.645992641374853,-2.84222304566901,-0.845469480828868,,-5.135747087005602,,
,6229.0,1322.0,8687.0,2308.0,863.0,2462.0,2918.0,2025-07-15 19:42:17,67.0,,-0.646019937365044,-2.84212204922663,-0.845084341237459,,-5.155913953078198,,
,6227.0,1325.0,8682.0,2307.0,859.0,2466.0,2922.0,2025-07-15 19:42:18,67.0,,-0.646204379345611,-2.84238194286617,-0.845709718383369,,-5.193133415193083,,
,6216.0,1324.0,8683.0,2301.0,869.0,2464.0,2924.0,2025-07-15 19:42:19,66.0,,-0.646084936569952,-2.84229728534215,-0.845553729080569,,-5.250399437759257,,
,6200.0,1322.0,8682.0,2300.0,866.0,2471.0,2939.0,2025-07-15 19:42:21,66.0,,-0.646371122736515,-2.84235881364532,-0.845543265824774,,-5.32769110779141,,
,6181.0,1320.0,8679.0,2295.0,866.0,2486.0,2925.0,2025-07-15 19:42:21,65.0,,-0.646095621083763,-2.84238402524189,-0.845782504651296,,-5.421217770131043,,
,6157.0,1316.0,8676.0,2292.0,861.0,2493.0,2939.0,2025-07-15 19:42:23,65.0,,-0.646104543671498,-2.84236464763097,-0.845452225149169,,-5.522916848942605,,
,6127.0,1310.0,8673.0,2283.0,862.0,2476.0,2916.0,2025-07-15 19:42:24,64.0,,-0.645839586751649,-2.84256179489605,-0.845152023543928,,-5.6202863158883645,,
,6104.0,1304.0,8667.0,2273.0,871.0,2469.0,2929.0,2025-07-15 19:42:25,64.0,,-0.646122169699677,-2.84248286375956,-0.845896350423851,,-5.696608892684376,,
,6083.0,1301.0,8665.0,2267.0,860.0,2456.0,2929.0,2025-07-15 19:42:25,64.0,,-0.646169032837217,-2.84238430753544,-0.846072331842792,,-5.731593418099993,,
,6060.0,1296.0,8660.0,2261.0,859.0,2457.0,2936.0,2025-07-15 19:42:26,63.0,,-0.646361300186212,-2.84246493467299,-0.845121186367556,,-5.702422196909674,,
,6043.0,1292.0,8657.0,2256.0,860.0,2459.0,2931.0,2025-07-15 19:42:28,63.0,,-0.646377319086924,-2.84218605947079,-0.845594226046067,,-5.585153906437775,,
,6024.0,1286.0,8648.0,2247.0,859.0,2474.0,2941.0,2025-07-15 19:42:29,63.0,,-0.645973240974847,-2.84247801525277,-0.84536707786272,,-5.356393089826163,,
,6008.0,1284.0,8645.0,2242.0,858.0,2482.0,2964.0,2025-07-15 19:42:29,62.0,,-0.646033594853408,-2.84223065539788,-0.846239461647867,,-4.995103982719829,,
,6000.0,1282.0,8640.0,2238.0,863.0,2481.0,2955.0,2025-07-15 19:42:31,62.0,,-0.645920827648387,-2.84224260273926,-0.845215744669513,,-4.484423603559153,,
,5988.0,1279.0,8637.0,2234.0,867.0,2485.0,2944.0,2025-07-15 19:42:31,62.0,,-0.645921424111718,-2.8423285970396,-0.845900657629242,,-3.813321126647665,,
,5980.0,1274.0,8631.0,2230.0,869.0,2492.0,2939.0,2025-07-15 19:42:33,62.0,,-0.645904181315603,-2.84235054968985,-0.846100503929562,,-2.977959833224337,,
,5973.0,1275.0,8629.0,2231.0,870.0,2476.0,2958.0,2025-07-15 19:42:34,62.0,,-0.646090614290492,-2.84223931401315,-0.845669653339205,,-1.9826436872557247,,
,5971.0,1271.0,8626.0,2230.0,867.0,2485.0,2919.0,2025-07-15 19:42:34,62.0,,-0.645559802361432,-2.84235069269168,-0.845761475914073,,-0.840268702225997,,
,5963.0,1271.0,8624.0,2227.0,865.0,2474.0,2914.0,2025-07-15 19:42:35,62.0,,-0.645928754667175,-2.84225580908546,-0.845764141949384,,0.42775732913663367,,
,5963.0,1271.0,8628.0,2229.0,865.0,2478.0,2938.0,2025-07-15 19:42:37,62.0,,-0.645909592021288,-2.8424941628108,-0.846198607009211,,1.7921222269199208,,
,5961.0,1269.0,8621.0,2227.0,883.0,2471.0,2910.0,2025-07-15 19:42:38,63.0,,-0.645716810839766,-2.84230232316104,-0.846268901960717,,3.21670605527179,,
,5960.0,1269.0,8622.0,2231.0,875.0,2480.0,2920.0,2025-07-15 19:42:39,63.0,,-0.645641293987009,-2.84247862949091,-0.846338721853845,,4.660104381010777,,
,5961.0,1268.0,8622.0,2234.0,876.0,2468.0,2926.0,2025-07-15 19:42:39,64.0,,-0.646292282795625,-2.84222357314441,-0.846155316826863,,6.077497711739075,,
,5961.0,1271.0,8624.0,2233.0,870.0,2467.0,2928.0,2025-07-15 19:42:40,63.0,,-0.646241686542503,-2.84238603879973,-0.845182923472111,,7.422773083064193,,
,5960.0,1267.0,8620.0,2233.0,865.0,2469.0,2910.0,2025-07-15 19:42:42,63.0,,-0.645811025767433,-2.8425090979164,-0.847339845327587,,8.650792116193937,,
,5961.0,1270.0,8621.0,2233.0,873.0,2467.0,2896.0,2025-07-15 19:42:42,62.0,,-0.645376850285783,-2.84238348441826,-0.846456706807169,,9.719688879664837,,
,5962.0,1268.0,8623.0,2235.0,859.0,2470.0,2888.0,2025-07-15 19:42:43,61.0,,-0.645843067311936,-2.84230779636922,-0.846326537836563,,10.593070888923744,,
,5964.0,1268.0,8622.0,2237.0,856.0,2470.0,2881.0,2025-07-15 19:42:45,60.0,,-0.646499776522835,-2.8423204757488,-0.846004586332745,,11.241989718604696,,
,5966.0,1270.0,8623.0,2236.0,855.0,2488.0,2920.0,2025-07-15 19:42:45,59.0,,-0.646189933934046,-2.84236775066709,-0.845367358281463,,11.646547487789448,,
,5964.0,1265.0,8621.0,2235.0,865.0,2480.0,2915.0,2025-07-15 19:42:46,59.0,,-0.646485787330999,-2.84241070288334,-0.845945312241516,,11.797015463153032,,
,5966.0,1269.0,8625.0,2239.0,868.0,2479.0,2898.0,2025-07-15 19:42:48,59.0,,-0.646406844574998,-2.84223692913687,-0.846237522188688,,11.694363392003915,,
,5966.0,1267.0,8624.0,2239.0,870.0,2467.0,2924.0,2025-07-15 19:42:49,60.0,,-0.646127151926159,-2.84230920788587,-0.844878125183475,,11.35013336473499,,
,5968.0,1272.0,8627.0,2243.0,873.0,2468.0,2917.0,2025-07-15 19:42:50,60.0,,-0.645254507477933,-2.84237622078727,-0.845767256952446,,10.785639394281477,,
,5971.0,1267.0,8625.0,2242.0,868.0,2471.0,2922.0,2025-07-15 19:42:51,61.0,,-0.645290795967426,-2.84239670064697,-0.845381398575639,,10.030531733877707,,
,5972.0,1269.0,8628.0,2242.0,875.0,2479.0,2937.0,2025-07-15 19:42:51,61.0,,-0.646198287459494,-2.84226088171077,-0.845464981894118,,9.120828403632705,,
,5974.0,1269.0,8627.0,2245.0,878.0,2486.0,2926.0,2025-07-15 19:42:53,62.0,,-0.645584410410524,-2.84215691215319,-0.846064978888476,,8.096575889360038,,
,5978.0,1271.0,8628.0,2245.0,877.0,2487.0,2938.0,2025-07-15 19:42:53,63.0,,-0.645697285774912,-2.84234767646871,-0.846328803378041,,6.999343917261785,,
,5979.0,1273.0,8630.0,2246.0,877.0,2471.0,2923.0,2025-07-15 19:42:54,63.0,,-0.645560584649254,-2.84242787694282,-0.845871856904482,,5.869774975075292,,
,5978.0,1269.0,8630.0,2245.0,876.0,2474.0,2948.0,2025-07-15 19:42:55,64.0,,-0.645982612208813,-2.84245595853948,-0.846041734209444,,4.745394012464917,,
,5980.0,1270.0,8630.0,2248.0,872.0,2479.0,2947.0,2025-07-15 19:42:57,65.0,,-0.645494825907016,-2.84224846293313,-0.846277931194209,,3.658841801093748,,
,5982.0,1272.0,8633.0,2248.0,865.0,2467.0,2936.0,2025-07-15 19:42:58,66.0,,-0.645259986244711,-2.84243529621277,-0.846121615855381,,2.6366367260795176,,
,5982.0,1271.0,8628.0,2249.0,870.0,2476.0,2940.0,2025-07-15 19:42:58,67.0,,-0.64509302011719,-2.84243906999396,-0.84524153358274,,1.698505900185163,,
,5981.0,1270.0,8629.0,2250.0,870.0,2484.0,2908.0,2025-07-15 19:42:59,67.0,,-0.645397382701526,-2.84241614336726,-0.84652704603573,,0.8572672893641909,,
,5978.0,1271.0,8632.0,2248.0,862.0,2471.0,2925.0,2025-07-15 19:43:01,67.0,,-0.644838456072055,-2.84232959936435,-0.844240538384697,,0.11919643794577522,,
,5977.0,1271.0,8635.0,2250.0,860.0,2472.0,2948.0,2025-07-15 19:43:01,67.0,,-0.645390159176232,-2.84228122239704,-0.84509421714631,,-0.5152226333030347,,
,5979.0,1274.0,8632.0,2249.0,857.0,2477.0,2951.0,2025-07-15 19:43:03,67.0,,-0.64530172912799,-2.84221182639626,-0.845408877733519,,-1.050282106231819,,
,5976.0,1270.0,8631.0,2247.0,857.0,2488.0,2957.0,2025-07-15 19:43:04,67.0,,-0.645391154537384,-2.84214520972936,-0.845906567696771,,-1.4938955374038363,,
,5974.0,1270.0,8630.0,2247.0,854.0,2492.0,2940.0,2025-07-15 19:43:04,67.0,,-0.645099070800705,-2.84219406799739,-0.844416198863153,,-1.8564205420634279,,
,5976.0,1270.0,8629.0,2248.0,861.0,2480.0,2961.0,2025-07-15 19:43:06,67.0,,-0.645225018415436,-2.8421752343029,-0.845942561368859,,-2.14955702163437,,
,5972.0,1271.0,8632.0,2246.0,872.0,2476.0,2931.0,2025-07-15 19:43:06,66.0,,-0.644587986755252,-2.842258248582,-0.845075438197797,,-2.3853923603414517,,
,5969.0,1269.0,8629.0,2246.0,871.0,2476.0,2927.0,2025-07-15 19:43:07,66.0,,-0.645060578442104,-2.84226783209766,-0.846058237639427,,-2.5756356324409633,,
,5971.0,1268.0,8629.0,2245.0,871.0,2475.0,2906.0,2025-07-15 19:43:09,65.0,,-0.644756965089141,-2.84208443691415,-0.845068413567396,,-2.731055568898136,,
,5968.0,1267.0,8627.0,2246.0,866.0,2475.0,2915.0,2025-07-15 19:43:09,64.0,,-0.645039166914886,-2.84202351433404,-0.845659237796957,,-2.8611150456277623,,
,5967.0,1269.0,8630.0,2246.0,865.0,2466.0,2946.0,2025-07-15 19:43:11,64.0,,-0.645027077335082,-2.84215359077039,-0.844671816027505,,-2.9737791649769694,,
,5969.0,1268.0,8629.0,2244.0,870.0,2474.0,2939.0,2025-07-15 19:43:11,63.0,,-0.644707082137326,-2.84202053250497,-0.844715378302803,,-3.0754642161910892,,
,5970.0,1266.0,8629.0,2248.0,862.0,2469.0,2921.0,2025-07-15 19:43:12,63.0,,-0.644385093782458,-2.84211752580404,-0.844277627021495,,-3.171090257843782,,
,5968.0,1266.0,8630.0,2244.0,865.0,2466.0,2909.0,2025-07-15 19:43:13,63.0,,-0.64420652681527,-2.84206887987171,-0.845244401282177,,-3.2642002373014223,,
,5970.0,1269.0,8629.0,2246.0,876.0,2464.0,2937.0,2025-07-15 19:43:14,63.0,,-0.644342228621698,-2.84203149346776,-0.844513611910593,,-3.357112837306637,,
,5970.0,1268.0,8631.0,2246.0,882.0,2482.0,2938.0,2025-07-15 19:43:15,63.0,,-0.644417132874136,-2.84188465395564,-0.844515431684752,,-3.4510836465089056,,
,5970.0,1269.0,8629.0,2247.0,881.0,2488.0,2926.0,2025-07-15 19:43:17,63.0,,-0.643957989441087,-2.84204480006321,-0.844726562413995,,-3.546458475054435,,
,5972.0,1269.0,8628.0,2248.0,869.0,2493.0,2919.0,2025-07-15 19:43:18,63.0,,-0.64382429783173,-2.84191014182245,-0.843443237713255,,-3.64281227486162,,
,5975.0,1269.0,8633.0,2248.0,869.0,2494.0,2929.0,2025-07-15 19:43:18,63.0,,-0.643784373064245,-2.84176779307184,-0.844971004029391,,-3.7390758845839933,,
,5981.0,1269.0,8632.0,2251.0,867.0,2481.0,2918.0,2025-07-15 19:43:19,63.0,,-0.643516635046503,-2.84181397743459,-0.844617164028951,,-3.8336595593329568,,
,5982.0,1271.0,8634.0,2251.0,863.0,2480.0,2918.0,2025-07-15 19:43:20,64.0,,-0.643486894013888,-2.84188419296832,-0.844104038517293,,-3.9245860113439255,,
,5983.0,1271.0,8633.0,2251.0,867.0,2472.0,2898.0,2025-07-15 19:43:21,64.0,,-0.643553574142907,-2.84171806297695,-0.843968844522642,,-4.009645836340116,,
,5986.0,1271.0,8633.0,2252.0,861.0,2483.0,2906.0,2025-07-15 19:43:22,64.0,,-0.643793075958304,-2.84193100034202,-0.844757815993302,,-4.086584510395762,,
,5992.0,1273.0,8636.0,2255.0,867.0,2472.0,2912.0,2025-07-15 19:43:24,64.0,,-0.643764442675958,-2.84190053086715,-0.843939212414808,,-4.153322870084243,,
,5993.0,1275.0,8635.0,2257.0,863.0,2470.0,2913.0,2025-07-15 19:43:25,64.0,,-0.643541563006771,-2.84186727333238,-0.844703973189792,,-4.208202928161017,,
,5997.0,1272.0,8637.0,2256.0,871.0,2462.0,2918.0,2025-07-15 19:43:25,64.0,,-0.643601593299803,-2.84174845863557,-0.843844945789486,,-4.250239468576719,,
,5999.0,1272.0,8638.0,2257.0,859.0,2466.0,2928.0,2025-07-15 19:43:26,63.0,,-0.643177317327923,-2.84192455126229,-0.844864130548033,,-4.279347279652898,,
,6001.0,1278.0,8640.0,2261.0,865.0,2479.0,2913.0,2025-07-15 19:43:28,63.0,,-0.643296200888067,-2.84191805203706,-0.844707280517181,,-4.296506824990017,,
,6008.0,1278.0,8639.0,2262.0,877.0,2486.0,2922.0,2025-07-15 19:43:28,62.0,,-0.642876748074899,-2.84188621299428,-0.84370790079218,,-4.303830091633517,,
,6009.0,1277.0,8641.0,2263.0,874.0,2488.0,2911.0,2025-07-15 19:43:30,62.0,,-0.643347388978771,-2.84186199884833,-0.844578170072716,,-4.304494450853856,,
,6013.0,1277.0,8641.0,2262.0,860.0,2476.0,2888.0,2025-07-15 19:43:31,61.0,,-0.642463770724294,-2.84181419699391,-0.843631406756438,,-4.3025248879485645,,
,6017.0,1278.0,8643.0,2266.0,865.0,2477.0,2901.0,2025-07-15 19:43:31,61.0,,-0.642815907573473,-2.8416979203492,-0.843274993748471,,-4.302421775996849,,
,6021.0,1280.0,8642.0,2265.0,871.0,2474.0,2930.0,2025-07-15 19:43:33,61.0,,-0.642460523733558,-2.84173763661279,-0.842778886625017,,-4.3086500154563865,,
,6025.0,1279.0,8643.0,2268.0,873.0,2477.0,2936.0,2025-07-15 19:43:34,61.0,,-0.64229058560976,-2.84162430079246,-0.843198636670296,,-4.325023713596907,,
,6029.0,1281.0,8644.0,2267.0,891.0,2495.0,2943.0,2025-07-15 19:43:34,61.0,,-0.642168024521352,-2.84153012192948,-0.842799846698233,,-4.35403682675141,,
,6035.0,1281.0,8645.0,2267.0,878.0,2478.0,2927.0,2025-07-15 19:43:35,62.0,,-0.642229086790182,-2.84164174953915,-0.841743303417126,,-4.396202541881096,,
,6033.0,1282.0,8649.0,2269.0,879.0,2471.0,2928.0,2025-07-15 19:43:37,62.0,,-0.641937189338368,-2.84156624936787,-0.842597517489167,,-4.449470898251035,,
,6038.0,1284.0,8647.0,2270.0,875.0,2471.0,2934.0,2025-07-15 19:43:37,63.0,,-0.64220813016499,-2.841628596872,-0.842557823253497,,-4.50879402056331,,
,6042.0,1285.0,8648.0,2272.0,868.0,2480.0,2936.0,2025-07-15 19:43:39,63.0,,-0.642059831104759,-2.84154786766993,-0.842911504530715,,-4.5659010414146515,,
,6043.0,1284.0,8645.0,2272.0,872.0,2482.0,2903.0,2025-07-15 19:43:39,63.0,,-0.642240278199355,-2.841626289177,-0.842568852982888,,-4.609330940668897,,
,6050.0,1287.0,8651.0,2272.0,878.0,2468.0,2913.0,2025-07-15 19:43:40,62.0,,-0.642181379593146,-2.8414935029804,-0.842889866453087,,-4.6247523437155,,
,6052.0,1288.0,8653.0,2274.0,876.0,2464.0,2907.0,2025-07-15 19:43:42,62.0,,-0.642141997364081,-2.84151471728853,-0.841558887307015,,-4.595576318703248,,
,6055.0,1286.0,8652.0,2274.0,874.0,2469.0,2911.0,2025-07-15 19:43:43,62.0,,-0.642045355211278,-2.84163132022599,-0.84258355707715,,-4.503843016723128,,
,6058.0,1287.0,8653.0,2277.0,876.0,2479.0,2908.0,2025-07-15 19:43:43,62.0,,-0.642318859377284,-2.84145845760836,-0.842012185772306,,-4.331337273807203,,
,6061.0,1291.0,8653.0,2275.0,881.0,2470.0,2906.0,2025-07-15 19:43:45,62.0,,-0.642438274328683,-2.84154599505935,-0.842296515760404,,-4.060863878481617,,
,6066.0,1291.0,8656.0,2280.0,874.0,2469.0,2916.0,2025-07-15 19:43:45,62.0,,-0.642222621338575,-2.84140163127687,-0.84222252055338,,-3.6775924430029883,,
,6068.0,1292.0,8657.0,2277.0,870.0,2492.0,2937.0,2025-07-15 19:43:46,63.0,,-0.642673793814633,-2.84141744618116,-0.842500279320198,,-3.170367816640882,,
,6069.0,1292.0,8653.0,2278.0,870.0,2485.0,2958.0,2025-07-15 19:43:48,63.0,,-0.642403455520318,-2.8413985640029,-0.842035521034971,,-2.5328783003607698,,
,6072.0,1290.0,8655.0,2278.0,877.0,2478.0,2938.0,2025-07-15 19:43:48,64.0,,-0.642611342718084,-2.84146414141883,-0.842501664912924,,-1.764583127500458,,
,6077.0,1292.0,8658.0,2280.0,869.0,2477.0,2920.0,2025-07-15 19:43:49,64.0,,-0.642757422839269,-2.84147063625106,-0.843720251006867,,-0.8713223270519284,,
,6080.0,1293.0,8661.0,2283.0,876.0,2475.0,2922.0,2025-07-15 19:43:50,64.0,,-0.642515779381423,-2.84150131302855,-0.841971745240276,,0.13443815064893655,,
,6086.0,1296.0,8660.0,2282.0,866.0,2473.0,2925.0,2025-07-15 19:43:51,64.0,,-0.642573192705773,-2.84156344231198,-0.84310823465524,,1.2337420007633124,,
,6089.0,1294.0,8660.0,2281.0,872.0,2471.0,2925.0,2025-07-15 19:43:53,64.0,,-0.642994899808932,-2.84165728805403,-0.842230962790089,,2.4016481882839287,,
,6091.0,1294.0,8657.0,2281.0,877.0,2486.0,2929.0,2025-07-15 19:43:53,64.0,,-0.643313613187548,-2.84151670465331,-0.843918265964744,,3.608076875476513,,
,6089.0,1296.0,8660.0,2283.0,871.0,2495.0,2945.0,2025-07-15 19:43:54,64.0,,-0.642961226482667,-2.84147582190963,-0.84237926601745,,4.8189538090083746,,
2025-07-15 19:41:49,6096.0,1298.0,8662.0,2282.0,871.0,2485.0,2934.0,2025-07-15 19:43:55,63.0,2025/07/15 07:41:49 PM,-0.643676019607837,-2.84168883600581,-0.843532610094162,,5.99760374395246,,
,6098.0,1298.0,8665.0,2284.0,871.0,2484.0,2949.0,2025-07-15 19:43:57,64.0,,-0.643709293878617,-2.84168267677513,-0.842604977390819,,7.106337356784792,,
,6101.0,1298.0,8661.0,2283.0,875.0,2477.0,2920.0,2025-07-15 19:43:58,65.0,,-0.643837856726403,-2.84188584579242,-0.843471198618607,,8.108168990681689,,
,6105.0,1301.0,8665.0,2288.0,872.0,2479.0,2923.0,2025-07-15 19:43:58,67.0,,-0.643921159807616,-2.84161834160235,-0.84355485279705,,8.968593304778526,,
,6105.0,1301.0,8666.0,2286.0,864.0,2479.0,2927.0,2025-07-15 19:43:59,68.0,,-0.64368732107224,-2.84172508891212,-0.843933407480352,,9.657337745356044,,
,6108.0,1303.0,8665.0,2290.0,871.0,2484.0,2924.0,2025-07-15 19:44:01,69.0,,-0.643820117515728,-2.84171746817775,-0.843757055281744,,10.149996293519914,,
,6110.0,1301.0,8662.0,2285.0,872.0,2485.0,2930.0,2025-07-15 19:44:02,70.0,,-0.643786434978672,-2.84154382971506,-0.842669787639026,,10.429440655526598,,
,6116.0,1301.0,8665.0,2287.0,871.0,2478.0,2902.0,2025-07-15 19:44:03,69.0,,-0.643925159340804,-2.84176093582552,-0.843602131334064,,10.486901003716826,,
,6118.0,1304.0,8666.0,2288.0,868.0,2469.0,2899.0,2025-07-15 19:44:04,69.0,,-0.644358408985748,-2.84175640101971,-0.843675574556349,,10.3226130066706,,
,6121.0,1305.0,8668.0,2289.0,857.0,2471.0,2912.0,2025-07-15 19:44:05,68.0,,-0.644295264156883,-2.8417349866967,-0.844136330696474,,9.945944831206589,,
,6123.0,1307.0,8668.0,2290.0,860.0,2474.0,2916.0,2025-07-15 19:44:05,67.0,,-0.644557848865156,-2.84183269607676,-0.844779869571848,,9.374949926376248,,
,6126.0,1305.0,8665.0,2287.0,876.0,2466.0,2907.0,2025-07-15 19:44:07,66.0,,-0.644262338081973,-2.84202322103392,-0.843342922299759,,8.635339006747785,,
,6129.0,1310.0,8671.0,2292.0,876.0,2483.0,2926.0,2025-07-15 19:44:07,66.0,,-0.644104643041865,-2.84201668919354,-0.844174530252223,,7.758923587705946,,
,6132.0,1310.0,8670.0,2293.0,871.0,2481.0,2909.0,2025-07-15 19:44:09,66.0,,-0.64473076804286,-2.84202861869153,-0.844862360439941,,6.781644576461484,,
,6138.0,1308.0,8672.0,2294.0,864.0,2482.0,2902.0,2025-07-15 19:44:09,66.0,,-0.645034041597094,-2.84208501062235,-0.845632492999482,,5.741350616128818,,
,6140.0,1310.0,8669.0,2291.0,874.0,2477.0,2904.0,2025-07-15 19:44:10,66.0,,-0.64484438542805,-2.84205242937037,-0.844889268690234,,4.675520974218655,,
,6145.0,1313.0,8671.0,2293.0,870.0,2474.0,2952.0,2025-07-15 19:44:11,66.0,,-0.644697827675534,-2.84229124304518,-0.84491861318333,,3.6191308139415583,,
,6146.0,1313.0,8675.0,2294.0,871.0,2475.0,2952.0,2025-07-15 19:44:13,66.0,,-0.645615052044636,-2.84233223322554,-0.845687790028679,,2.6028335909417857,,
,6150.0,1311.0,8672.0,2293.0,872.0,2481.0,2950.0,2025-07-15 19:44:13,66.0,,-0.645599050657505,-2.84222280701125,-0.845654834249837,,1.6515923962647054,,
,6154.0,1311.0,8674.0,2294.0,870.0,2483.0,2930.0,2025-07-15 19:44:14,64.0,,-0.64569044559964,-2.8423635293759,-0.845848581176591,,0.7838381192453364,,
,6157.0,1311.0,8673.0,2293.0,881.0,2485.0,2940.0,2025-07-15 19:44:15,63.0,,-0.645845032822542,-2.84244761688695,-0.845819370450792,,0.011176036481715923,,
,6160.0,1313.0,8673.0,2297.0,885.0,2466.0,2915.0,2025-07-15 19:44:16,62.0,,-0.646504816900833,-2.84243670320999,-0.846109181432113,,-0.6613890992748688,,
,6160.0,1314.0,8674.0,2296.0,882.0,2468.0,2928.0,2025-07-15 19:44:18,61.0,,-0.646502277987884,-2.84256479124793,-0.84661472192137,,-1.2347814854116574,,
,6160.0,1315.0,8674.0,2296.0,879.0,2469.0,2934.0,2025-07-15 19:44:18,61.0,,-0.646675602342659,-2.84249211762664,-0.846784626219406,,-1.7148385278315277,,
,6149.0,1310.0,8672.0,2292.0,869.0,2467.0,2948.0,2025-07-15 19:44:19,61.0,,-0.646661418824084,-2.84269074210198,-0.84611321114029,,-2.111071235640802,,
,6136.0,1311.0,8672.0,2288.0,872.0,2472.0,2927.0,2025-07-15 19:44:20,61.0,,-0.647257374316512,-2.8427154729992,-0.847499400965831,,-2.4353272569163145,,
,6118.0,1309.0,8670.0,2286.0,865.0,2476.0,2930.0,2025-07-15 19:44:22,61.0,,-0.647212250252588,-2.84267548251747,-0.847010938384134,,-2.700478485523453,,
,6100.0,1304.0,8667.0,2281.0,860.0,2474.0,2931.0,2025-07-15 19:44:22,62.0,,-0.647184192888719,-2.84275976119221,-0.84664844944915,,-2.9192410616596827,,
,6075.0,1300.0,8662.0,2272.0,865.0,2472.0,2949.0,2025-07-15 19:44:23,63.0,,-0.646864372360022,-2.84255911119711,-0.847061943323923,,-3.1032134276859,,
,6053.0,1294.0,8656.0,2263.0,861.0,2476.0,2947.0,2025-07-15 19:44:25,63.0,,-0.646998282510993,-2.84262592084669,-0.847363150464356,,-3.262189814350731,,
,6032.0,1290.0,8652.0,2256.0,870.0,2473.0,2920.0,2025-07-15 19:44:25,63.0,,-0.647466089064274,-2.84260368506401,-0.846427410628558,,-3.403774810875321,,
,6015.0,1289.0,8651.0,2251.0,867.0,2469.0,2958.0,2025-07-15 19:44:27,64.0,,-0.647375294457649,-2.84278210693224,-0.846566155057861,,-3.5332930231414283,,
,5997.0,1284.0,8645.0,2244.0,870.0,2470.0,2955.0,2025-07-15 19:44:27,64.0,,-0.64742747103924,-2.84265426035287,-0.847242717957316,,-3.6539599464511436,,
,5981.0,1278.0,8634.0,2237.0,862.0,2479.0,2919.0,2025-07-15 19:44:29,65.0,,-0.647376905374549,-2.84272334639938,-0.847526828191506,,-3.7672588162610956,,
,5969.0,1276.0,8633.0,2232.0,862.0,2474.0,2934.0,2025-07-15 19:44:29,66.0,,-0.647517085691116,-2.84258384580937,-0.847414072199564,,-3.873454428565321,,
,5958.0,1272.0,8625.0,2229.0,872.0,2482.0,2933.0,2025-07-15 19:44:31,67.0,,-0.647638322082229,-2.84268763005278,-0.847450773988797,,-3.9721685282537367,,
,5947.0,1269.0,8620.0,2225.0,871.0,2484.0,2938.0,2025-07-15 19:44:31,69.0,,-0.647377528601694,-2.8429804563649,-0.847207360949259,,-4.062941742106926,,
,5936.0,1267.0,8616.0,2223.0,873.0,2474.0,2944.0,2025-07-15 19:44:33,69.0,,-0.647781375701116,-2.84290595951078,-0.847921329909113,,-4.145713640423152,,
,5932.0,1263.0,8611.0,2221.0,872.0,2487.0,2908.0,2025-07-15 19:44:33,70.0,,-0.648428412232691,-2.84306126083418,-0.848124496623648,,-4.221164693776933,,
,5932.0,1266.0,8614.0,2221.0,878.0,2479.0,2915.0,2025-07-15 19:44:34,69.0,,-0.64844407752367,-2.84312278377558,-0.847490837893093,,-4.290880548850534,,
,5925.0,1264.0,8607.0,2221.0,866.0,2482.0,2921.0,2025-07-15 19:44:36,69.0,,-0.648567010275897,-2.84300989074703,-0.848972654555488,,-4.357318588891251,,
,5922.0,1261.0,8608.0,2219.0,867.0,2471.0,2920.0,2025-07-15 19:44:37,69.0,,-0.648627126795085,-2.84313888608585,-0.848966481724005,,-4.4235773817216035,,
,5919.0,1258.0,8606.0,2217.0,875.0,2471.0,2914.0,2025-07-15 19:44:37,69.0,,-0.649104361749286,-2.84316659007454,-0.848471024947231,,-4.492989711587996,,
,5917.0,1261.0,8606.0,2224.0,871.0,2476.0,2920.0,2025-07-15 19:44:39,69.0,,-0.649460668527504,-2.84332245505177,-0.849715695769785,,-4.568578089704975,,
,5917.0,1260.0,8604.0,2223.0,881.0,2479.0,2912.0,2025-07-15 19:44:39,70.0,,-0.64969727076707,-2.84341643976003,-0.850128926455209,,-4.652426804586944,,
,5918.0,1261.0,8607.0,2223.0,881.0,2475.0,2925.0,2025-07-15 19:44:40,70.0,,-0.649737518296418,-2.84340768458509,-0.849307557043819,,-4.745035647519285,,
,5918.0,1262.0,8605.0,2224.0,871.0,2485.0,2918.0,2025-07-15 19:44:42,71.0,,-0.649916086778792,-2.84360558781284,-0.849502651162475,,-4.844726385048418,,
,5917.0,1260.0,8603.0,2221.0,865.0,2483.0,2894.0,2025-07-15 19:44:42,71.0,,-0.650110211639754,-2.84346634832661,-0.851105984479436,,-4.947172863741267,,
,5919.0,1262.0,8606.0,2227.0,870.0,2470.0,2901.0,2025-07-15 19:44:43,71.0,,-0.650183521430482,-2.8438237849579,-0.850322000046834,,-5.0451185971649775,,
,5920.0,1257.0,8604.0,2226.0,863.0,2467.0,2939.0,2025-07-15 19:44:45,70.0,,-0.65005846978402,-2.84350147607082,-0.850446683289068,,-5.128331717001409,,
,5924.0,1259.0,8610.0,2227.0,863.0,2462.0,2952.0,2025-07-15 19:44:46,69.0,,-0.650358687131742,-2.84357559548513,-0.851192443550487,,-5.183827224708646,,
,5921.0,1260.0,8607.0,2230.0,863.0,2490.0,2934.0,2025-07-15 19:44:46,67.0,,-0.650833544861279,-2.84370330426533,-0.850768776015917,,-5.196362614690289,,
,5925.0,1260.0,8606.0,2232.0,861.0,2477.0,2929.0,,,,-0.650683051913893,-2.84381861726465,-0.851826246537375,,-5.149187820462388,,
,5927.0,1261.0,8609.0,2231.0,866.0,2479.0,2933.0,,,,-0.651311598589271,-2.84384997109955,-0.852009992266097,,-5.025006575168792,,
,5932.0,1261.0,8610.0,2235.0,867.0,2473.0,2944.0,,,,-0.650879648268147,-2.84379114393962,-0.852112694191117,,-4.807085709148684,,
,5930.0,1261.0,8609.0,2233.0,874.0,2485.0,2944.0,,,,-0.651234741204497,-2.84390895735329,-0.852401170235021,,-4.480433552087096,,
,5934.0,1260.0,8609.0,2235.0,862.0,2484.0,2937.0,,,,-0.651056440646127,-2.84400290687364,-0.854089793459276,,-4.032960683558163,,
,5935.0,1263.0,8612.0,2238.0,860.0,2478.0,2933.0,,,,-0.651310047512536,-2.84380795180736,-0.852900641850308,,-3.4565378678132994,,
,5938.0,1264.0,8614.0,2240.0,868.0,2472.0,2931.0,,,,-0.651345400037212,-2.84401624990404,-0.851919179562059,,-2.7478777067430675,,
,5940.0,1263.0,8614.0,2240.0,872.0,2472.0,2916.0,,,,-0.65087901256162,-2.84382970011466,-0.853034198780074,,-1.9091861173748872,,
,5942.0,1261.0,8613.0,2240.0,857.0,2468.0,2923.0,,,,-0.65179196432129,-2.844134173814,-0.852835720596657,,-0.9485522559117664,,
,5944.0,1263.0,8613.0,2241.0,869.0,2473.0,2932.0,,,,-0.652057409406316,-2.84421930322946,-0.853524193103906,,0.11993470558216118,,
,5947.0,1263.0,8615.0,2243.0,866.0,2483.0,2934.0,,,,-0.652057622316388,-2.8441162260321,-0.85427276673655,,1.2763404836260446,,
,5949.0,1265.0,8620.0,2243.0,871.0,2472.0,2937.0,,,,-0.652082187724795,-2.84422505333495,-0.85316039098171,,2.4953054814939186,,
,5946.0,1263.0,8615.0,2245.0,866.0,2476.0,2933.0,,,,-0.652420819929291,-2.84445792290845,-0.854608226095791,,3.7467232586063512,,
,5943.0,1264.0,8615.0,2243.0,864.0,2485.0,2924.0,,,,-0.652868718152366,-2.84438360331624,-0.855366563849252,,4.9966740609789015,,
,5944.0,1263.0,8618.0,2245.0,863.0,2474.0,2921.0,,,,-0.652708840096117,-2.8444108748699,-0.85517447109173,,6.208609761992345,,
,5945.0,1263.0,8618.0,2242.0,852.0,2473.0,2931.0,,,,-0.653132016234195,-2.84471382825884,-0.85560931377499,,7.344779434979158,,
,5943.0,1265.0,8617.0,2243.0,852.0,2471.0,2946.0,,,,-0.652945854789635,-2.84460083564944,-0.855793695170782,,8.367867442064536,,
,5940.0,1261.0,8615.0,2241.0,852.0,2476.0,2943.0,,,,-0.653159724984328,-2.8445076129674,-0.855413498161073,,9.242787666281457,,
,5939.0,1262.0,8617.0,2244.0,858.0,2485.0,2967.0,,,,-0.653325213161571,-2.84449470293405,-0.855094536833378,,9.938541352060764,,
,5940.0,1263.0,8617.0,2244.0,842.0,2476.0,2949.0,,,,-0.653622684820819,-2.8445912749259,-0.856070442044798,,10.430009529357974,,
,5939.0,1262.0,8617.0,2240.0,850.0,2494.0,2945.0,,,,-0.653877313863839,-2.84467871754295,-0.856190738812714,,10.699524976095791,,
,5939.0,1261.0,8614.0,2241.0,868.0,2511.0,2939.0,,,,-0.653783805002973,-2.84451118009986,-0.856048085623063,,10.738063188612456,,
,5937.0,1261.0,8617.0,2240.0,873.0,2477.0,2955.0,,,,-0.653516154625637,-2.84457592660916,-0.855063258108105,,10.545912142791035,,
,5939.0,1262.0,8614.0,2242.0,876.0,2469.0,2943.0,,,,-0.653402584991706,-2.84437671242234,-0.855613372176894,,10.132725823881568,,
,5937.0,1261.0,8616.0,2242.0,880.0,2477.0,2949.0,,,,-0.653295351400935,-2.8445896838057,-0.855364601134341,,9.516930599827772,,
,5938.0,1263.0,8616.0,2241.0,865.0,2481.0,2925.0,,,,-0.653820092068312,-2.84455750267202,-0.855251230176214,,8.724526889857959,,
,5937.0,1260.0,8614.0,2240.0,855.0,2475.0,2913.0,,,,-0.653655534102425,-2.84437753320516,-0.855156364750311,,7.787398965016745,,
,5942.0,1262.0,8615.0,2243.0,865.0,2480.0,2919.0,,,,-0.653183321132977,-2.84450015700284,-0.855678772518713,,6.741300051612092,,
,5943.0,1264.0,8615.0,2246.0,870.0,2472.0,2936.0,,,,-0.653083896265521,-2.84442565675236,-0.854243942369006,,5.623707912286948,,
,5943.0,1262.0,8615.0,2245.0,865.0,2475.0,2934.0,,,,-0.653256111934434,-2.84439499307584,-0.855250335942289,,4.4717439107480805,,
,5946.0,1264.0,8617.0,2243.0,857.0,2480.0,2944.0,,,,-0.653531036688681,-2.8442720556837,-0.855685467765018,,3.320319940200478,,
,5947.0,1262.0,8621.0,2247.0,861.0,2489.0,2948.0,,,,-0.653291763309383,-2.84446038507508,-0.855360062344922,,2.2006316580007517,,
,5953.0,1264.0,8620.0,2248.0,863.0,2476.0,2967.0,,,,-0.653202074820662,-2.84436180959071,-0.854769286507015,,1.1390641664245982,,
,5956.0,1264.0,8622.0,2251.0,869.0,2471.0,2976.0,,,,-0.652831150087464,-2.84424500266436,-0.855050230690042,,0.1565272137331568,,
,5955.0,1266.0,8623.0,2250.0,866.0,2465.0,2948.0,,,,-0.652823433161099,-2.84426449501201,-0.854389563633272,,-0.7318025046388226,,
,5961.0,1265.0,8626.0,2253.0,865.0,2490.0,2937.0,,,,-0.652503840913421,-2.84430913781958,-0.853409737413071,,-1.516381917799708,,
,5966.0,1263.0,8623.0,2253.0,865.0,2474.0,2909.0,,,,-0.65202703016843,-2.84412276666283,-0.853599245191161,,-2.1929115834153383,,
,5971.0,1270.0,8626.0,2253.0,859.0,2466.0,2924.0,,,,-0.651598368745508,-2.84400448375283,-0.853510547984145,,-2.7617298289604553,,
,5972.0,1268.0,8626.0,2256.0,859.0,2465.0,2920.0,,,,-0.651604050573396,-2.84393129920599,-0.853299456004634,,-3.227067610666619,,
,5976.0,1270.0,8623.0,2255.0,853.0,2471.0,2922.0,,,,-0.651477480556877,-2.84399578015437,-0.852787022301011,,-3.596237339616108,,
,5983.0,1271.0,8627.0,2260.0,852.0,2491.0,2925.0,,,,-0.650785981902783,-2.84376989549905,-0.850952626398032,,-3.87882082959538,,
,5985.0,1273.0,8627.0,2259.0,844.0,2475.0,2925.0,,,,-0.650542605900291,-2.84377637148828,-0.852196040871882,,-4.0859093050258375,,
,5988.0,1269.0,8629.0,2261.0,851.0,2474.0,2925.0,,,,-0.650849725887894,-2.84365865527308,-0.852747173126327,,-4.229433313990418,,
,5991.0,1275.0,8630.0,2262.0,860.0,2476.0,2938.0,,,,-0.650442969234416,-2.8436668153008,-0.850672843164052,,-4.3216040808715315,,
,5997.0,1274.0,8630.0,2263.0,867.0,2498.0,2953.0,,,,-0.650464069758424,-2.84364921704648,-0.850773614987387,,-4.374471895483439,,
,6000.0,1273.0,8632.0,2266.0,866.0,2499.0,2943.0,,,,-0.649442368183817,-2.84343139975883,-0.850893495637972,,-4.399592805800718,,
,6008.0,1274.0,8631.0,2266.0,866.0,2481.0,2961.0,,,,-0.64946996218113,-2.84342416457301,-0.850595404979339,,-4.407783166124149,,
,6010.0,1275.0,8632.0,2267.0,865.0,2476.0,2973.0,,,,-0.649281327417314,-2.84317798039193,-0.849430641440681,,-4.408933507116851,,
,6015.0,1278.0,8633.0,2270.0,866.0,2486.0,2954.0,,,,-0.64894718213803,-2.84341252127413,-0.849140202177415,,-4.411849732602015,,
,6018.0,1278.0,8635.0,2272.0,874.0,2502.0,2932.0,,,,-0.648577145248604,-2.84316624504413,-0.849836061864308,,-4.424091481661209,,
,6026.0,1281.0,8638.0,2271.0,873.0,2488.0,2906.0,,,,-0.648098026965645,-2.84305771858215,-0.848886113850116,,-4.451784616508958,,
,6030.0,1280.0,8638.0,2273.0,871.0,2478.0,2902.0,,,,-0.648404934707202,-2.84306951507456,-0.84894534928695,,-4.499396244541436,,
,6029.0,1282.0,8634.0,2271.0,869.0,2474.0,2915.0,,,,-0.648133909627134,-2.84291831107941,-0.848282186912409,,-4.56947446506253,,
,6035.0,1280.0,8638.0,2273.0,872.0,2469.0,2886.0,,,,-0.647724856509924,-2.8426711054544,-0.848415970414763,,-4.662368519050032,,
,6042.0,1284.0,8639.0,2276.0,862.0,2480.0,2898.0,,,,-0.647934420822001,-2.84273417798654,-0.848050121584397,,-4.775955915530033,,
,6047.0,1285.0,8644.0,2275.0,870.0,2472.0,2904.0,,,,-0.64792636659042,-2.84278720853496,-0.847566127562188,,-4.905410421104745,,
,6050.0,1285.0,8642.0,2276.0,863.0,2478.0,2912.0,,,,-0.647847241549573,-2.8426228048286,-0.846837308158504,,-5.0430488719015205,,
,6052.0,1285.0,8642.0,2276.0,861.0,2491.0,2916.0,,,,-0.647139009739117,-2.84242185495651,-0.846891711999153,,-5.178296220984662,,
,6059.0,1286.0,8643.0,2277.0,857.0,2496.0,2935.0,,,,-0.646724906635979,-2.84238546300283,-0.846016528147055,,-5.297806974023451,,
,6061.0,1289.0,8643.0,2277.0,849.0,2494.0,2929.0,,,,-0.645959458982702,-2.84218163114649,-0.845523549870719,,-5.385776367388371,,
,6069.0,1289.0,8648.0,2280.0,845.0,2487.0,2929.0,,,,-0.646098508279257,-2.84218564109289,-0.845855574716418,,-5.424465395989188,,
,6071.0,1290.0,8645.0,2281.0,852.0,2475.0,2903.0,,,,-0.646024935542347,-2.8421871726902,-0.845524593854271,,-5.394949651499103,,
,6073.0,1288.0,8644.0,2278.0,866.0,2477.0,2931.0,,,,-0.645228092814228,-2.84189107987336,-0.845682114470461,,-5.27808312223207,,
,6079.0,1292.0,8650.0,2283.0,854.0,2483.0,2933.0,,,,-0.645756733403491,-2.84196558605572,-0.845429368884468,,-5.055645675398266,,
,6087.0,1292.0,8651.0,2285.0,858.0,2487.0,2915.0,,,,-0.645334677186221,-2.84178941619854,-0.844747159075669,,-4.711618841325958,,
,6087.0,1295.0,8649.0,2285.0,857.0,2478.0,2918.0,,,,-0.644871037458151,-2.84194449562254,-0.844682380910844,,-4.2335116069635115,,
,6088.0,1293.0,8649.0,2284.0,861.0,2479.0,2942.0,,,,-0.645123225777712,-2.84188348447216,-0.844292098989634,,-3.613639776879713,,
,6095.0,1295.0,8649.0,2286.0,863.0,2481.0,2937.0,,,,-0.644304924823683,-2.84179126840406,-0.844379740188731,,-2.8502528713237134,,
,6101.0,1298.0,8652.0,2287.0,858.0,2487.0,2945.0,,,,-0.644259743275866,-2.84160887735158,-0.843626288699253,,-1.9484044926468889,,
,6103.0,1298.0,8652.0,2286.0,858.0,2487.0,2941.0,,,,-0.644030906749254,-2.84163330565506,-0.843126733400179,,-0.9204763220350876,,
,6106.0,1299.0,8653.0,2288.0,859.0,2494.0,2967.0,,,,-0.644095075503351,-2.84174704851417,-0.843992149841095,,0.213710041759196,,
,6109.0,1297.0,8650.0,2288.0,857.0,2473.0,2938.0,,,,-0.643795041878974,-2.84154163134632,-0.842766258519574,,1.4272301059629153,,
,6112.0,1300.0,8655.0,2288.0,864.0,2476.0,2930.0,,,,-0.643747945657441,-2.84155132029615,-0.84334304810086,,2.6868496302228544,,
,6120.0,1303.0,8658.0,2290.0,864.0,2484.0,2935.0,,,,-0.643951726314277,-2.84163916764208,-0.842843658973713,,3.9542536142179454,,
,6124.0,1304.0,8658.0,2291.0,864.0,2476.0,2926.0,,,,-0.64393226201742,-2.84162774675001,-0.843568118455885,,5.187664894409103,,
,6124.0,1304.0,8656.0,2290.0,865.0,2479.0,2936.0,,,,-0.643917216170679,-2.84146019342816,-0.842792392345941,,6.343780862569741,,
2025-07-15 19:41:50,6130.0,1305.0,8657.0,2294.0,859.0,2477.0,2918.0,,,2025/07/15 07:41:50 PM,-0.643766379144917,-2.84158191403506,-0.843343301347949,,7.379932558508403,,
,6135.0,1306.0,8658.0,2291.0,875.0,2480.0,2903.0,,,,-0.643641856298123,-2.84143235973453,-0.842219882072796,,8.256348548096721,,
,6139.0,1308.0,8660.0,2293.0,870.0,2484.0,2891.0,,,,-0.643450317298706,-2.84144981518783,-0.841912658516965,,8.938388213455198,,
,6143.0,1308.0,8660.0,2295.0,865.0,2480.0,2880.0,,,,-0.642926266439745,-2.84149455410061,-0.842106927106324,,9.398597034941876,,
,6146.0,1308.0,8658.0,2294.0,869.0,2467.0,2892.0,,,,-0.643678945409086,-2.84137187234596,-0.842368102380771,,9.618432334979147,,
,6148.0,1312.0,8663.0,2295.0,853.0,2481.0,2910.0,,,,-0.642940725238652,-2.84160249184971,-0.841618426054757,,9.58951474693085,,
,6154.0,1310.0,8663.0,2297.0,839.0,2480.0,2921.0,,,,-0.642852052337358,-2.84139617504878,-0.843203754195814,,9.31428170144307,,
,6160.0,1312.0,8663.0,2298.0,844.0,2480.0,2933.0,,,,-0.642648705419057,-2.84133644731132,-0.841382090330788,,8.805957062875299,,
,6159.0,1313.0,8662.0,2297.0,862.0,2476.0,2964.0,,,,-0.642378250357876,-2.84111910743429,-0.841377760159945,,8.087805630500288,,
,6164.0,1315.0,8666.0,2300.0,872.0,2482.0,2959.0,,,,-0.642331386520404,-2.84120711003151,-0.841988427030624,,7.191707776002339,,
,6169.0,1317.0,8669.0,2298.0,872.0,2501.0,2945.0,,,,-0.642208836589708,-2.84122042409417,-0.841811379764638,,6.156158040935161,,
,6175.0,1316.0,8668.0,2298.0,873.0,2491.0,2935.0,,,,-0.642721701979697,-2.84122533666654,-0.841319184649408,,5.023849473397794,,
,6179.0,1318.0,8667.0,2300.0,870.0,2469.0,2949.0,,,,-0.642425094136262,-2.84135966267763,-0.842401349989491,,3.8390425307386886,,
,6181.0,1318.0,8668.0,2300.0,865.0,2461.0,2942.0,,,,-0.642534329927482,-2.8411996366282,-0.841881433352878,,2.6449294472361373,,
,6187.0,1322.0,8667.0,2304.0,861.0,2483.0,2916.0,,,,-0.642200090748025,-2.84120448145487,-0.840761376831953,,1.4811945170130547,,
,6188.0,1321.0,8667.0,2304.0,868.0,2496.0,2893.0,,,,-0.642602915610588,-2.8410990273519,-0.84147600486704,,0.3819436705025496,,
,6185.0,1320.0,8667.0,2303.0,865.0,2496.0,2892.0,,,,-0.64279530295032,-2.84110650552513,-0.841947346036804,,-0.6258611211747729,,
,6179.0,1319.0,8666.0,2300.0,866.0,2480.0,2923.0,,,,-0.642419566010843,-2.84147620702382,-0.84131488342074,,-1.5233713676593554,,
,6169.0,1320.0,8665.0,2298.0,862.0,2463.0,2925.0,,,,-0.642754817557986,-2.84132606108735,-0.842780409026555,,-2.300181790763564,,
,6148.0,1318.0,8666.0,2293.0,869.0,2464.0,2936.0,,,,-0.642538367285286,-2.84134493903795,-0.841432448354989,,-2.954024459016124,,
,6125.0,1314.0,8662.0,2288.0,864.0,2469.0,2921.0,,,,-0.643032747828032,-2.84143733484134,-0.841796519648779,,-3.489876950186429,,
,6098.0,1309.0,8656.0,2281.0,863.0,2486.0,2938.0,,,,-0.643034558591168,-2.84145402537728,-0.841791935756855,,-3.918574369053808,,
,6078.0,1303.0,8655.0,2274.0,856.0,2481.0,2922.0,,,,-0.642983355312002,-2.84146674988653,-0.84217254052241,,-4.2550476924538465,,
,6055.0,1299.0,8652.0,2268.0,857.0,2484.0,2937.0,,,,-0.643059815510603,-2.84133592201215,-0.842173719044875,,-4.516334443407513,,
,6037.0,1297.0,8646.0,2262.0,859.0,2474.0,2944.0,,,,-0.642670491879108,-2.84137968353569,-0.841697938418057,,-4.719521408837297,,
,6016.0,1290.0,8640.0,2254.0,861.0,2478.0,2953.0,,,,-0.643051358870947,-2.84149874301286,-0.841714632546339,,-4.8797828506421475,,
,5999.0,1286.0,8638.0,2249.0,866.0,2486.0,2959.0,,,,-0.643062624878153,-2.84149793560833,-0.840894099571135,,-5.008671342040009,,
,5985.0,1286.0,8634.0,2244.0,856.0,2495.0,2954.0,,,,-0.642380141293353,-2.84143794799822,-0.841844445525496,,-5.112801817941108,,
,5973.0,1280.0,8625.0,2238.0,859.0,2498.0,2939.0,,,,-0.64275773947213,-2.84157977919807,-0.842047479497111,,-5.193042667837319,,
,5965.0,1281.0,8623.0,2237.0,858.0,2490.0,2936.0,,,,-0.642621148343999,-2.8414263305351,-0.840493669631649,,-5.244291377749592,,
,5956.0,1274.0,8616.0,2231.0,851.0,2487.0,2936.0,,,,-0.642452295150304,-2.84141032286997,-0.84253918947751,,-5.255867849547133,,
,5949.0,1274.0,8619.0,2232.0,851.0,2480.0,2912.0,,,,-0.642915298608565,-2.84149511817692,-0.841507420667895,,-5.212508339511359,,
,5944.0,1273.0,8615.0,2231.0,856.0,2479.0,2934.0,,,,-0.642450547496208,-2.84128655659348,-0.841385971638713,,-5.095889962349137,,
,5940.0,1270.0,8611.0,2228.0,855.0,2476.0,2935.0,,,,-0.642308227089843,-2.84126611366925,-0.841244593448976,,-4.886563989563589,,
,5938.0,1270.0,8609.0,2229.0,866.0,2476.0,2914.0,,,,-0.642631377571275,-2.84115900832105,-0.841797877432816,,-4.566131215125681,,
,5932.0,1266.0,8610.0,2228.0,858.0,2479.0,2920.0,,,,-0.642195167819779,-2.84130672388025,-0.841506736095893,,-4.11946103722301,,
,5935.0,1269.0,8613.0,2229.0,866.0,2485.0,2936.0,,,,-0.642115104612235,-2.84128398987663,-0.841111134340128,,-3.5367439258142284,,
,5933.0,1270.0,8610.0,2230.0,868.0,2484.0,2931.0,,,,-0.642186418564069,-2.84135743417059,-0.840635904928398,,-2.815178459652921,,
,5933.0,1270.0,8608.0,2231.0,865.0,2480.0,2920.0,,,,-0.64196661071153,-2.8411992622459,-0.8421602233981,,-1.9601285914321713,,
,5935.0,1268.0,8608.0,2232.0,860.0,2480.0,2942.0,,,,-0.641882259581211,-2.84131092813766,-0.841214198623129,,-0.9856391022340223,,
,5934.0,1268.0,8608.0,2230.0,862.0,2469.0,2920.0,,,,-0.642391465726408,-2.84120336696711,-0.841017211760928,,0.08574070168755653,,
,5935.0,1270.0,8613.0,2235.0,871.0,2474.0,2907.0,,,,-0.641601888116192,-2.84112625626604,-0.840625789807757,,1.2238116180457237,,
,5940.0,1268.0,8611.0,2234.0,868.0,2477.0,2907.0,,,,-0.642135183180411,-2.84107515018782,-0.841480354258755,,2.3921865751928535,,
,5937.0,1267.0,8609.0,2237.0,871.0,2487.0,2918.0,,,,-0.641624000564353,-2.84108158750169,-0.840881084672231,,3.5502425986134667,,
,5936.0,1268.0,8609.0,2238.0,858.0,2472.0,2911.0,,,,-0.641858969224959,-2.84133944061103,-0.840673989451578,,4.655412519202269,,
,5942.0,1270.0,8614.0,2239.0,863.0,2478.0,2922.0,,,,-0.641737511496981,-2.84097303640904,-0.841450221207822,,5.6656478907516075,,
,5941.0,1269.0,8612.0,2240.0,874.0,2473.0,2951.0,,,,-0.641392687177015,-2.84115442918206,-0.841191152123424,,6.541879520030313,,
,5945.0,1269.0,8616.0,2241.0,871.0,2478.0,2953.0,,,,-0.641636307413557,-2.84102044907821,-0.84095464775095,,7.250308195681218,,
,5944.0,1270.0,8613.0,2240.0,863.0,2490.0,2928.0,,,,-0.641632003031764,-2.84112423013891,-0.841081893311174,,7.7643735449746405,,
,5948.0,1268.0,8614.0,2240.0,871.0,2494.0,2923.0,,,,-0.641552491132789,-2.84106705484465,-0.840223228822502,,8.066271692102456,,
,5952.0,1271.0,8619.0,2244.0,865.0,2475.0,2932.0,,,,-0.641598973129436,-2.84109733453313,-0.840601104776226,,8.147921202197985,,
,5954.0,1272.0,8617.0,2247.0,869.0,2476.0,2934.0,,,,-0.641710749927016,-2.84104095627497,-0.840320284621342,,8.011310852922273,,
,5955.0,1271.0,8619.0,2246.0,858.0,2480.0,2915.0,,,,-0.641671136282023,-2.84102925496565,-0.839910939266207,,7.668201772386141,,
,5954.0,1268.0,8619.0,2245.0,865.0,2486.0,2920.0,,,,-0.641393817620744,-2.84094181235929,-0.840657092851248,,7.139200169081634,,
,5957.0,1273.0,8619.0,2247.0,870.0,2479.0,2920.0,,,,-0.641699707567465,-2.84106754619441,-0.840695561101497,,6.452264145214002,,
,5960.0,1272.0,8621.0,2249.0,860.0,2478.0,2927.0,,,,-0.641181207528063,-2.84104967619167,-0.840389372903098,,5.640755956242027,,
,5961.0,1273.0,8622.0,2250.0,862.0,2481.0,2931.0,,,,-0.641365603724378,-2.84081678824879,-0.840890387599603,,4.741194150317914,,
,5959.0,1271.0,8621.0,2247.0,866.0,2474.0,2930.0,,,,-0.641397448177368,-2.84083069335402,-0.840467077386321,,3.7908909198685556,,
,5959.0,1273.0,8620.0,2250.0,858.0,2474.0,2945.0,,,,-0.64131213842291,-2.84096399059937,-0.839577795834953,,2.825671490566508,,
,5960.0,1273.0,8623.0,2251.0,850.0,2473.0,2931.0,,,,-0.640939239168202,-2.84096331547505,-0.83972476180526,,1.877860574694442,,
,5958.0,1271.0,8623.0,2249.0,857.0,2470.0,2934.0,,,,-0.640701975884541,-2.84088343102188,-0.839503761190112,,0.9746873768944502,,
,5956.0,1270.0,8622.0,2250.0,849.0,2471.0,2928.0,,,,-0.640446531763076,-2.84088477005452,-0.839125654548228,,0.13721158861843838,,
,5955.0,1273.0,8622.0,2248.0,849.0,2480.0,2910.0,,,,-0.64084803861907,-2.84082877871488,-0.839987866137807,,-0.620183521671133,,
,5954.0,1273.0,8623.0,2249.0,853.0,2483.0,2923.0,,,,-0.640815109076154,-2.84094188122761,-0.839156545507899,,-1.2897406077616793,,
,5951.0,1271.0,8622.0,2249.0,858.0,2484.0,2925.0,,,,-0.641358408908907,-2.84099426837361,-0.839219901041828,,-1.8697791507464698,,
,5951.0,1273.0,8620.0,2249.0,854.0,2477.0,2920.0,,,,-0.641017047902069,-2.84085811688564,-0.839319815249883,,-2.363745039144945,,
,5952.0,1270.0,8623.0,2247.0,857.0,2490.0,2908.0,,,,-0.641326043697171,-2.8408835168479,-0.839930747226273,,-2.7789818557579173,,
,5951.0,1270.0,8620.0,2250.0,866.0,2482.0,2903.0,,,,-0.64119718611147,-2.84077834780299,-0.83973555868479,,-3.125359517103396,,
,5953.0,1269.0,8624.0,2247.0,847.0,2475.0,2930.0,,,,-0.641118265208973,-2.84092716296265,-0.839083807024172,,-3.413895959452575,,
,5952.0,1271.0,8625.0,2249.0,852.0,2482.0,2939.0,,,,-0.641090973174747,-2.8409222441499,-0.839353340955936,,-3.6554963045390996,,
,5953.0,1270.0,8624.0,2248.0,849.0,2466.0,2920.0,,,,-0.641168112559897,-2.84087365435923,-0.839143553859758,,-3.859913074265236,,
,5953.0,1269.0,8621.0,2250.0,856.0,2477.0,2935.0,,,,-0.640841706138078,-2.84086831014223,-0.838792935386786,,-4.035002583856192,,
,5956.0,1271.0,8624.0,2251.0,867.0,2480.0,2925.0,,,,-0.640569665228272,-2.84080215058552,-0.839202463841931,,-4.186318956977941,,
,5956.0,1272.0,8625.0,2250.0,875.0,2478.0,2928.0,,,,-0.64040416101581,-2.84060230699385,-0.838240062355516,,-4.317051007546779,,
,5958.0,1271.0,8624.0,2251.0,866.0,2487.0,2937.0,,,,-0.640546812310636,-2.84079531217001,-0.838908972514635,,-4.428271812512762,,
,5959.0,1272.0,8625.0,2253.0,868.0,2482.0,2904.0,,,,-0.639937377285385,-2.84083782528211,-0.838790862424451,,-4.519439979998965,,
,5962.0,1273.0,8626.0,2252.0,869.0,2470.0,2912.0,,,,-0.639989110272514,-2.84065418410531,-0.837970506450758,,-4.589069152035039,,
,5966.0,1273.0,8629.0,2254.0,872.0,2476.0,2926.0,,,,-0.639729091707681,-2.84069751982544,-0.837269634028968,,-4.6354706967213275,,
,5968.0,1276.0,8628.0,2255.0,878.0,2480.0,2918.0,,,,-0.640110244547079,-2.84057787384762,-0.837224987698438,,-4.65747423499375,,
,5970.0,1273.0,8628.0,2255.0,881.0,2477.0,2913.0,,,,-0.639464213817058,-2.84041531148456,-0.838083248073655,,-4.655040032107947,,
,5972.0,1273.0,8630.0,2257.0,868.0,2472.0,2920.0,,,,-0.640021826329689,-2.84063101725771,-0.838239170185676,,-4.629693805083111,,
,5977.0,1276.0,8631.0,2259.0,868.0,2464.0,2915.0,,,,-0.639442435097175,-2.84057302128812,-0.838036023145378,,-4.584735579361092,,
,5981.0,1276.0,8632.0,2260.0,865.0,2468.0,2928.0,,,,-0.639411247316888,-2.8404756730439,-0.838126138568625,,-4.525197679510925,,
,5986.0,1279.0,8635.0,2262.0,860.0,2469.0,2944.0,,,,-0.639053041788057,-2.84056682889051,-0.837264155459471,,-4.457550889801564,,
,5988.0,1277.0,8630.0,2260.0,865.0,2468.0,2908.0,,,,-0.638878300668215,-2.84057956061303,-0.837445899177332,,-4.389180609784974,,
,5991.0,1278.0,8635.0,2263.0,869.0,2483.0,2923.0,,,,-0.639179859350506,-2.84030486190994,-0.837663678490043,,-4.327675126388621,,
,5995.0,1279.0,8638.0,2265.0,870.0,2475.0,2912.0,,,,-0.638733252287583,-2.840282376645,-0.837290169059356,,-4.279985120222668,,
,5999.0,1279.0,8639.0,2266.0,864.0,2481.0,2905.0,,,,-0.638514760001153,-2.84039836367558,-0.836169852229368,,-4.251526838710495,,
,6003.0,1279.0,8636.0,2266.0,857.0,2490.0,2911.0,,,,-0.638306065355816,-2.84036850300261,-0.837739578500527,,-4.245310625786446,,
,6006.0,1280.0,8637.0,2267.0,864.0,2482.0,2919.0,,,,-0.638206276599809,-2.84044162585633,-0.836297750889569,,-4.261180935025996,,
,6013.0,1283.0,8642.0,2271.0,868.0,2493.0,2920.0,,,,-0.638356293102948,-2.84030903444278,-0.83699284805424,,-4.295252371184327,,
,6017.0,1283.0,8639.0,2272.0,863.0,2488.0,2918.0,,,,-0.638403514544516,-2.840040082435,-0.835632841217418,,-4.339617396547948,,
,6018.0,1285.0,8643.0,2271.0,866.0,2489.0,2934.0,,,,-0.637897230664418,-2.84005751339148,-0.836424619214933,,-4.3823842394388945,,
,6022.0,1282.0,8643.0,2270.0,870.0,2491.0,2930.0,,,,-0.638117583206792,-2.84012371514624,-0.836759940460502,,-4.408078353147707,,
,6027.0,1286.0,8645.0,2274.0,857.0,2472.0,2950.0,,,,-0.637644724323954,-2.84002277145389,-0.837119789093515,,-4.39840884364753,,
,6032.0,1290.0,8644.0,2276.0,858.0,2481.0,2929.0,,,,-0.637883511240037,-2.83981010584942,-0.835818784032605,,-4.333365264435679,,
,6034.0,1289.0,8644.0,2276.0,863.0,2480.0,2913.0,,,,-0.63753570533163,-2.83993147396076,-0.835603230595517,,-4.192573943044774,,
,6039.0,1288.0,8647.0,2276.0,860.0,2487.0,2913.0,,,,-0.636798278393656,-2.83988692753531,-0.83526406140804,,-3.956811383995987,,
,6042.0,1290.0,8648.0,2276.0,862.0,2482.0,2917.0,,,,-0.637525040187849,-2.83985133352398,-0.835257090057809,,-3.6095503465532466,,
,6046.0,1289.0,8647.0,2278.0,854.0,2481.0,2912.0,,,,-0.637111635827464,-2.83991649589723,-0.834815601741205,,-3.138406031938073,,
,6051.0,1291.0,8649.0,2282.0,853.0,2481.0,2923.0,,,,-0.637155535518362,-2.83993822779479,-0.835081789403115,,-2.5363574436652896,,
,6053.0,1291.0,8649.0,2278.0,851.0,2480.0,2935.0,,,,-0.637348946339732,-2.83982302964307,-0.83512996879843,,-1.8026417087142341,,
,6056.0,1291.0,8649.0,2277.0,862.0,2486.0,2936.0,,,,-0.637316723521623,-2.83994872008059,-0.834852629968822,,-0.9432534969457594,,
,6061.0,1296.0,8651.0,2281.0,863.0,2483.0,2926.0,,,,-0.636955633647245,-2.83974577682388,-0.834218096750921,,0.028978182475723195,,
,6063.0,1295.0,8653.0,2284.0,874.0,2474.0,2931.0,,,,-0.636766188881423,-2.8397256844443,-0.833163676254517,,1.0947246175407643,,
,6069.0,1296.0,8651.0,2281.0,866.0,2474.0,2939.0,,,,-0.636677253759943,-2.83972173171275,-0.833866716032796,,2.2288608622075614,,
,6069.0,1295.0,8651.0,2281.0,859.0,2473.0,2943.0,,,,-0.636235135437849,-2.83964076683137,-0.834295851490317,,3.401475257046597,,
,6075.0,1300.0,8654.0,2285.0,865.0,2474.0,2924.0,,,,-0.636240427932823,-2.8395256949526,-0.834137513330669,,4.579113774698972,,
,6081.0,1301.0,8654.0,2284.0,863.0,2471.0,2947.0,,,,-0.635585901435598,-2.83943499926269,-0.833818625337406,,5.726188978663169,,
,6084.0,1299.0,8655.0,2285.0,860.0,2469.0,2954.0,,,,-0.636146881195332,-2.8395488980671,-0.833900933070172,,6.806489860613455,,
,6084.0,1297.0,8655.0,2285.0,845.0,2481.0,2922.0,,,,-0.635285326434235,-2.83972245225682,-0.833825316465545,,7.784736286639615,,
,6090.0,1298.0,8654.0,2284.0,854.0,2489.0,2930.0,,,,-0.6357225814906,-2.83950164295033,-0.83454853427319,,8.628126546016437,,
,6093.0,1301.0,8659.0,2288.0,860.0,2479.0,2914.0,,,,-0.635630234737681,-2.83951268448398,-0.833444270072629,,9.307826574764693,,
,6096.0,1302.0,8658.0,2288.0,862.0,2487.0,2932.0,,,,-0.635783873278733,-2.83933517433366,-0.834782526622622,,9.800344861691043,,
,6100.0,1306.0,8658.0,2289.0,866.0,2500.0,2942.0,,,,-0.636145415227585,-2.83945490463527,-0.834868339343588,,10.088729641552483,,
,6101.0,1305.0,8658.0,2287.0,873.0,2480.0,2915.0,,,,-0.636376120383924,-2.83970397072911,-0.835610829737162,,10.163517706775814,,
,6108.0,1306.0,8661.0,2289.0,872.0,2478.0,2926.0,,,,-0.637021025952231,-2.83978060043516,-0.835732165292111,,10.023360448043764,,
,6109.0,1306.0,8660.0,2288.0,868.0,2477.0,2918.0,,,,-0.637028272511486,-2.83995182216959,-0.835999774776684,,9.675255879728516,,
,6116.0,1308.0,8662.0,2292.0,864.0,2478.0,2907.0,,,,-0.637486648046566,-2.83995270877639,-0.835847138979901,,9.134328458737757,,
,6116.0,1307.0,8661.0,2291.0,871.0,2485.0,2920.0,,,,-0.637508221837529,-2.83988378298422,-0.836116875259839,,8.4231241149944,,
,6122.0,1307.0,8665.0,2292.0,856.0,2471.0,2929.0,,,,-0.638138187670788,-2.83998889326854,-0.836584518333017,,7.570427127732105,,
,6129.0,1309.0,8666.0,2292.0,876.0,2471.0,2933.0,,,,-0.637890060732513,-2.83998028958817,-0.836644517551378,,6.609655265488198,,
,6127.0,1311.0,8665.0,2295.0,874.0,2473.0,2936.0,,,,-0.637619359918261,-2.840070129263,-0.836529055865192,,5.576941498415924,,
,6130.0,1310.0,8666.0,2293.0,870.0,2486.0,2945.0,,,,-0.638555970509375,-2.84001379034876,-0.836640749866791,,4.509053042086381,,
,6135.0,1313.0,8665.0,2292.0,867.0,2483.0,2941.0,,,,-0.638149095132999,-2.84016755235346,-0.836942280290469,,3.441321703605777,,
,6137.0,1312.0,8665.0,2296.0,869.0,2475.0,2959.0,,,,-0.638777123484116,-2.84038592363342,-0.838126783560328,,2.4057590785534746,,
,6144.0,1313.0,8669.0,2297.0,876.0,2474.0,2930.0,,,,-0.639254688344895,-2.84048305902822,-0.838073984696324,,1.4295075603088938,,
,6148.0,1315.0,8668.0,2296.0,873.0,2470.0,2920.0,,,,-0.638295919318235,-2.84028278362207,-0.837394829252527,,0.5337388235051569,,
2025-07-15 19:41:51,6148.0,1316.0,8666.0,2298.0,855.0,2469.0,2923.0,,,2025/07/15 07:41:51 PM,-0.638602653495109,-2.84044455656143,-0.837661994631348,,-0.266937548331324,,
,6156.0,1318.0,8670.0,2298.0,863.0,2473.0,2924.0,,,,-0.638466215108157,-2.84047220535875,-0.837129245926913,,-0.9645445064466208,,
,6161.0,1319.0,8671.0,2298.0,869.0,2480.0,2932.0,,,,-0.639055504397747,-2.84041231997371,-0.837735481800341,,-1.5573253405972007,,
,6163.0,1320.0,8671.0,2301.0,872.0,2484.0,2925.0,,,,-0.638816599073935,-2.84050425889871,-0.83735086797002,,-2.0489289529956487,,
,6168.0,1319.0,8671.0,2300.0,857.0,2477.0,2950.0,,,,-0.638565622166295,-2.84056931623353,-0.837958768965581,,-2.447304000083122,,
,6170.0,1320.0,8669.0,2300.0,859.0,2484.0,2965.0,,,,-0.638787522529008,-2.8405662146241,-0.838293957416311,,-2.763431778110218,,
,6178.0,1325.0,8673.0,2302.0,851.0,2483.0,2966.0,,,,-0.638617934839583,-2.84052157368269,-0.837724429945095,,-3.010032041518882,,
,6181.0,1324.0,8674.0,2302.0,865.0,2476.0,2957.0,,,,-0.639004080678617,-2.8405139054822,-0.838707088466466,,-3.200365788393179,,
,6184.0,1325.0,8674.0,2305.0,864.0,2477.0,2961.0,,,,-0.63923793794611,-2.84049893240581,-0.838682140871315,,-3.3472355896594146,,
,6187.0,1323.0,8675.0,2302.0,871.0,2477.0,2959.0,,,,-0.638995411459572,-2.84038405630812,-0.83890622620042,,-3.4622503374351825,,
,6190.0,1323.0,8675.0,2303.0,881.0,2497.0,2950.0,,,,-0.639951899991637,-2.84064121387669,-0.838738327530343,,-3.555382224293433,,
,6194.0,1328.0,8677.0,2307.0,869.0,2483.0,2933.0,,,,-0.639759287093764,-2.84066160398112,-0.83919749940358,,-3.634805089126207,,
,6195.0,1328.0,8674.0,2304.0,871.0,2475.0,2915.0,,,,-0.640062885017489,-2.84068121655215,-0.840473106450077,,-3.706970059542132,,
,6198.0,1327.0,8675.0,2303.0,851.0,2470.0,2905.0,,,,-0.639992222226627,-2.84071563654448,-0.839133821155109,,-3.776849982901866,,
,6192.0,1325.0,8674.0,2304.0,864.0,2474.0,2916.0,,,,-0.640492766544319,-2.84101466207804,-0.839668596266285,,-3.8482700017039813,,
,6185.0,1324.0,8675.0,2301.0,863.0,2477.0,2929.0,,,,-0.640597108709164,-2.84085980688102,-0.840450708445113,,-3.924238314713893,,
,6169.0,1325.0,8675.0,2299.0,857.0,2471.0,2931.0,,,,-0.6409789740258,-2.8410245767808,-0.841704716360031,,-4.007198668863991,,
,6152.0,1321.0,8671.0,2293.0,857.0,2466.0,2929.0,,,,-0.641073607344623,-2.84093723623835,-0.840845565979146,,-4.099143721800152,,
,6123.0,1316.0,8667.0,2287.0,855.0,2468.0,2931.0,,,,-0.641408697454696,-2.84110170083641,-0.840203905763716,,-4.201554167959046,,
,6098.0,1312.0,8663.0,2280.0,858.0,2468.0,2936.0,,,,-0.64155358021442,-2.84097110735903,-0.840369696499795,,-4.315159159191126,,
,6078.0,1309.0,8659.0,2277.0,864.0,2467.0,2939.0,,,,-0.641401947107141,-2.84107795795184,-0.840936682788078,,-4.439544950210405,,
,6056.0,1303.0,8656.0,2268.0,859.0,2471.0,2935.0,,,,-0.641299504582388,-2.84107603746856,-0.840648184116418,,-4.572666714320022,,
,6037.0,1297.0,8648.0,2262.0,855.0,2492.0,2924.0,,,,-0.641366813320006,-2.84113025719723,-0.840813720945809,,-4.710339632888449,,
,6018.0,1292.0,8641.0,2255.0,865.0,2481.0,2933.0,,,,-0.641789034216751,-2.84130108958131,-0.840968025322781,,-4.845797221735141,,
,6006.0,1294.0,8639.0,2249.0,865.0,2487.0,2940.0,,,,-0.642426112088705,-2.84114014685505,-0.842260050204234,,-4.969406100861068,,
,5992.0,1285.0,8635.0,2244.0,870.0,2481.0,2941.0,,,,-0.642295159507972,-2.84125774505624,-0.841404503726413,,-5.068616761285259,,
,5979.0,1283.0,8630.0,2239.0,864.0,2492.0,2920.0,,,,-0.642356336679313,-2.84134566296263,-0.841955212752245,,-5.128209934741957,,
,5968.0,1281.0,8622.0,2234.0,860.0,2492.0,2938.0,,,,-0.642655889103235,-2.84123787133008,-0.842407120727098,,-5.130869318362826,,
,5962.0,1277.0,8619.0,2234.0,864.0,2479.0,2923.0,,,,-0.642704368154924,-2.84139600263269,-0.842203625634167,,-5.058075897397323,,
,5957.0,1276.0,8618.0,2233.0,864.0,2481.0,2912.0,,,,-0.642785874933714,-2.84164089225267,-0.841922880318849,,-4.8912802556419095,,
,5952.0,1276.0,8615.0,2230.0,865.0,2476.0,2911.0,,,,-0.643100176307031,-2.8415675873121,-0.841507919167654,,-4.613271609321991,,
,5948.0,1273.0,8617.0,2229.0,846.0,2485.0,2904.0,,,,-0.643486347289767,-2.84160522019245,-0.842946744587867,,-4.209631450972071,,
,5944.0,1273.0,8614.0,2231.0,854.0,2482.0,2934.0,,,,-0.643114772957099,-2.84180257648395,-0.843329890112176,,-3.670141363611935,,
,5943.0,1272.0,8611.0,2232.0,866.0,2486.0,2931.0,,,,-0.642912324057606,-2.84163164641659,-0.844049468317913,,-2.9900128813067557,,
,5941.0,1272.0,8611.0,2232.0,859.0,2489.0,2934.0,,,,-0.643596238160944,-2.84165864550695,-0.843664068735245,,-2.1708231556922475,,
,5940.0,1270.0,8612.0,2232.0,864.0,2486.0,2912.0,,,,-0.643237415261603,-2.84168559374983,-0.844582557701687,,-1.221070815093404,,
,5942.0,1269.0,8609.0,2231.0,864.0,2473.0,2895.0,,,,-0.643717885082379,-2.84181458781681,-0.843081400056083,,-0.15630579704222392,,
,5944.0,1270.0,8613.0,2235.0,860.0,2484.0,2907.0,,,,-0.643384916496478,-2.84174640523543,-0.842347905024883,,1.0011725323742104,,
,5944.0,1271.0,8614.0,2236.0,870.0,2485.0,2889.0,,,,-0.644376038011181,-2.84157921903779,-0.843389007665831,,2.2230201000266083,,
,5945.0,1271.0,8612.0,2239.0,867.0,2483.0,2885.0,,,,-0.644315628755206,-2.8417144943377,-0.843155174934716,,3.475902669168729,,
,5946.0,1271.0,8612.0,2235.0,864.0,2460.0,2890.0,,,,-0.644700528110514,-2.84198802411223,-0.843925646746459,,4.7228341613473415,,
,5949.0,1269.0,8614.0,2237.0,862.0,2470.0,2894.0,,,,-0.64413861778624,-2.84183022704728,-0.844264204406169,,5.924728353079493,,
,5950.0,1272.0,8616.0,2241.0,858.0,2476.0,2915.0,,,,-0.644243131126565,-2.84186697007045,-0.844263058538164,,7.042093829007567,,
,5950.0,1272.0,8618.0,2241.0,862.0,2481.0,2923.0,,,,-0.644433872005274,-2.84183056379902,-0.843268149013945,,8.036803063446099,,
,5951.0,1271.0,8614.0,2242.0,861.0,2479.0,2926.0,,,,-0.644703940595261,-2.84181232719749,-0.844780476362298,,8.873865379555173,,
,5953.0,1269.0,8614.0,2243.0,866.0,2478.0,2899.0,,,,-0.644523086297385,-2.84190192770794,-0.845000922939525,,9.523129115088404,,
,5955.0,1272.0,8619.0,2243.0,878.0,2473.0,2885.0,,,,-0.64455310140108,-2.8419952752016,-0.844353177248397,,9.960831332565142,,
,5960.0,1272.0,8621.0,2247.0,866.0,2485.0,2922.0,,,,-0.644262459273912,-2.84195016079561,-0.844429331070498,,10.17090646119904,,
,5961.0,1272.0,8620.0,2247.0,861.0,2487.0,2930.0,,,,-0.644722417118959,-2.84209241447163,-0.844065182609566,,10.145962180316051,,
,5964.0,1271.0,8622.0,2246.0,855.0,2488.0,2947.0,,,,-0.644809647658158,-2.84215142865719,-0.84476405254839,,9.887835497481296,,
,5963.0,1270.0,8621.0,2249.0,856.0,2478.0,2930.0,,,,-0.645390405656494,-2.8420982691492,-0.845366961359484,,9.407657157940006,,
,5964.0,1271.0,8624.0,2250.0,870.0,2482.0,2933.0,,,,-0.645165634614065,-2.84212540219528,-0.844644288005854,,8.72537975774599,,
,5965.0,1274.0,8622.0,2248.0,877.0,2489.0,2933.0,,,,-0.645189766329561,-2.84211975507685,-0.845108778230753,,7.868764467606407,,
,5967.0,1272.0,8621.0,2251.0,870.0,2476.0,2919.0,,,,-0.645023167467974,-2.8423225153861,-0.845429899387038,,6.871871137068103,,
,5966.0,1272.0,8624.0,2251.0,864.0,2472.0,2934.0,,,,-0.644778542228327,-2.84221684858124,-0.845269096548243,,5.773150628984267,,
,5967.0,1272.0,8623.0,2251.0,857.0,2479.0,2925.0,,,,-0.645271227011809,-2.84217841591639,-0.845775559850451,,4.613286018351591,,
,5968.0,1274.0,8624.0,2252.0,862.0,2475.0,2905.0,,,,-0.645216859247147,-2.84219610902144,-0.845113640964103,,3.4329592963514237,,
,5964.0,1273.0,8622.0,2250.0,854.0,2474.0,2906.0,,,,-0.644929991616122,-2.84224077136893,-0.844828250344854,,2.2707250988584935,,
,5963.0,1270.0,8622.0,2248.0,845.0,2481.0,2909.0,,,,-0.645402442626523,-2.84229923834603,-0.845819477697322,,1.1611524295027473,,
,5962.0,1272.0,8623.0,2250.0,858.0,2486.0,2930.0,,,,-0.644681660857418,-2.84233771183648,-0.845550127549705,,0.1333554397329392,,
,5963.0,1272.0,8625.0,2251.0,860.0,2489.0,2924.0,,,,-0.645174269088987,-2.84230538426869,-0.84580665804636,,-0.7900155205558576,,
,5959.0,1271.0,8625.0,2251.0,864.0,2477.0,2922.0,,,,-0.64537645522028,-2.84206832162042,-0.845613384388995,,-1.5933017189046799,,
,5961.0,1268.0,8622.0,2249.0,869.0,2493.0,2919.0,,,,-0.645900834521311,-2.84218380008113,-0.845786993325396,,-2.2679054320356067,,
,5961.0,1273.0,8623.0,2250.0,867.0,2478.0,2916.0,,,,-0.646202414682213,-2.84236606257401,-0.845399560278352,,-2.811956036954661,,
,5959.0,1274.0,8625.0,2252.0,862.0,2483.0,2908.0,,,,-0.645825794536751,-2.84223335371025,-0.846297687145402,,-3.2296475833289646,,
,5960.0,1272.0,8625.0,2252.0,853.0,2483.0,2919.0,,,,-0.645617057844609,-2.84224624234932,-0.84590283015273,,-3.530330355479046,,
,5961.0,1272.0,8623.0,2249.0,850.0,2482.0,2931.0,,,,-0.645861930374711,-2.84229544181271,-0.845957225043592,,-3.7274374813305684,,
,5959.0,1270.0,8621.0,2250.0,865.0,2474.0,2950.0,,,,-0.645884316795504,-2.84218910558408,-0.846314515876805,,-3.837320909198307,,
,5962.0,1270.0,8627.0,2250.0,855.0,2471.0,2937.0,,,,-0.646402883579473,-2.84232046823554,-0.846106042366105,,-3.878063024322419,,
,5961.0,1270.0,8623.0,2251.0,867.0,2485.0,2932.0,,,,-0.646454945353694,-2.84218907907014,-0.8471722691683,,-3.8683238091031935,,
,5964.0,1271.0,8627.0,2252.0,865.0,2478.0,2925.0,,,,-0.646758406490729,-2.84229579331968,-0.847771486787939,,-3.8262798156290283,,
,5965.0,1271.0,8624.0,2250.0,857.0,2478.0,2936.0,,,,-0.646232765638181,-2.8425090315039,-0.848098953533914,,-3.7687087025735715,,
,5965.0,1274.0,8629.0,2252.0,861.0,2490.0,2934.0,,,,-0.646351437530983,-2.84250734400624,-0.847273177974489,,-3.710267711899092,,
,5969.0,1273.0,8627.0,2256.0,868.0,2497.0,2924.0,,,,-0.64641721826682,-2.8426234120335,-0.847868654560558,,-3.6630020036650532,,
,5971.0,1276.0,8629.0,2257.0,864.0,2504.0,2930.0,,,,-0.646492121114514,-2.84262369737329,-0.847959459142752,,-3.6360978018102137,,
,5972.0,1275.0,8632.0,2258.0,856.0,2494.0,2915.0,,,,-0.646612165282096,-2.84266492659892,-0.847674579969127,,-3.635868685279441,,
,5976.0,1273.0,8630.0,2257.0,862.0,2488.0,2922.0,,,,-0.646917609486486,-2.84247947565128,-0.848564923352432,,-3.6659368848132607,,
,5979.0,1274.0,8628.0,2259.0,871.0,2478.0,2923.0,,,,-0.647163264914512,-2.84271474755557,-0.84870848005286,,-3.7275509641431697,,
,5986.0,1277.0,8631.0,2261.0,861.0,2476.0,2923.0,,,,-0.646998141355866,-2.84252165601191,-0.848897866197585,,-3.8199704105262855,,
,5988.0,1276.0,8632.0,2263.0,860.0,2480.0,2924.0,,,,-0.646827472796795,-2.8426822257342,-0.848196927967237,,-3.94084733283063,,
,5990.0,1276.0,8633.0,2264.0,864.0,2492.0,2921.0,,,,-0.646949573450198,-2.84246310919717,-0.848838956116091,,-4.086544670064873,,
,5992.0,1277.0,8634.0,2263.0,868.0,2476.0,2904.0,,,,-0.646889807232072,-2.8425444024323,-0.848296567948567,,-4.252347222146713,,
,5998.0,1279.0,8637.0,2267.0,865.0,2476.0,2890.0,,,,-0.646979420182588,-2.8426122751792,-0.848475344733668,,-4.432544279876523,,
,6001.0,1279.0,8636.0,2265.0,872.0,2479.0,2903.0,,,,-0.646632315834817,-2.84247622323802,-0.84865251196684,,-4.62038817697112,,
,6004.0,1280.0,8639.0,2268.0,856.0,2493.0,2913.0,,,,-0.646828325668415,-2.842673980938,-0.848621721330657,,-4.80795876264,,
,6007.0,1281.0,8637.0,2267.0,868.0,2474.0,2904.0,,,,-0.647079182583255,-2.8426447426749,-0.849721837850723,,-4.9859861866035295,,
,6013.0,1282.0,8638.0,2271.0,863.0,2473.0,2903.0,,,,-0.646760438128861,-2.84264795640529,-0.848669741585038,,-5.143699946926873,,
,6016.0,1282.0,8641.0,2270.0,857.0,2469.0,2918.0,,,,-0.646840913091328,-2.84272596919067,-0.848373952851323,,-5.268777771188863,,
,6021.0,1286.0,8642.0,2271.0,855.0,2481.0,2914.0,,,,-0.646770127622024,-2.84264177326711,-0.84971601380285,,-5.347461655797733,,
,6023.0,1285.0,8642.0,2272.0,852.0,2502.0,2948.0,,,,-0.64590164869073,-2.84263077318187,-0.849020408824013,,-5.364890217437157,,
,6027.0,1285.0,8644.0,2274.0,858.0,2500.0,2918.0,,,,-0.646587550239939,-2.84258589591516,-0.848238984572125,,-5.305668572967762,,
,6034.0,1288.0,8644.0,2276.0,865.0,2479.0,2912.0,,,,-0.646768287432241,-2.84257923252744,-0.848677029285948,,-5.1546632787757805,,
,6037.0,1286.0,8643.0,2275.0,868.0,2481.0,2911.0,,,,-0.647211666559782,-2.84265579516966,-0.849578934395466,,-4.897975338669227,,
,6041.0,1288.0,8646.0,2274.0,874.0,2473.0,2921.0,,,,-0.647126107097084,-2.84266623739482,-0.849461809947377,,-4.524013870470707,,
,6045.0,1289.0,8648.0,2277.0,855.0,2483.0,2926.0,,,,-0.646879766898554,-2.84255035447839,-0.848893087203808,,-4.024571393006162,,
,6049.0,1289.0,8648.0,2280.0,859.0,2480.0,2933.0,,,,-0.6474622779918,-2.84260422489953,-0.848970012328474,,-3.3957930796514613,,
,6053.0,1292.0,8651.0,2279.0,864.0,2482.0,2924.0,,,,-0.646953837482579,-2.84271516239155,-0.849817900771413,,-2.63893950991641,,
,6055.0,1293.0,8651.0,2281.0,859.0,2486.0,2917.0,,,,-0.646703807439202,-2.8428134635522,-0.849495992725717,,-1.7608651711862844,,
,6059.0,1291.0,8648.0,2278.0,866.0,2491.0,2930.0,,,,-0.646988046083702,-2.84258770561615,-0.849360026269761,,-0.7741688518950044,,
,6060.0,1295.0,8651.0,2280.0,861.0,2482.0,2915.0,,,,-0.646661956959333,-2.84270008685631,-0.84936394104638,,0.3029905369873483,,
,6067.0,1294.0,8652.0,2282.0,871.0,2480.0,2923.0,,,,-0.647276947057132,-2.84286374612282,-0.850898497875373,,1.4473865860850723,,
,6071.0,1296.0,8654.0,2282.0,873.0,2486.0,2921.0,,,,-0.647348780116086,-2.84268142696702,-0.850115726037027,,2.631478528115266,,
,6075.0,1296.0,8655.0,2284.0,862.0,2489.0,2925.0,,,,-0.647180700615133,-2.84275900131842,-0.849881336069502,,3.824367895022844,,
,6074.0,1296.0,8652.0,2284.0,866.0,2483.0,2888.0,,,,-0.647798140411249,-2.84275844695894,-0.849737023864708,,4.992903444668944,,
,6081.0,1301.0,8654.0,2287.0,870.0,2468.0,2889.0,,,,-0.648005288826865,-2.84283208792563,-0.850179096890918,,6.102887479187003,,
,6087.0,1301.0,8656.0,2286.0,872.0,2475.0,2899.0,,,,-0.647948975055342,-2.84267371096933,-0.85036965852498,,7.120346947301515,,
,6086.0,1300.0,8657.0,2287.0,872.0,2476.0,2900.0,,,,-0.647820959887216,-2.84285131530148,-0.850023977847753,,8.012840716422094,,
,6089.0,1301.0,8654.0,2287.0,861.0,2478.0,2912.0,,,,-0.647690047347229,-2.84302737783407,-0.8504971530751,,8.750776768689327,,
,6093.0,1303.0,8661.0,2288.0,864.0,2480.0,2908.0,,,,-0.648182987877626,-2.84289163572627,-0.851311305205877,,9.308707547040017,,
,6096.0,1302.0,8657.0,2290.0,864.0,2495.0,2891.0,,,,-0.647915378498116,-2.84303104952824,-0.850616839854896,,9.666557879885547,,
,6099.0,1303.0,8659.0,2290.0,862.0,2505.0,2903.0,,,,-0.648176556739795,-2.84303017354216,-0.850472090392605,,9.810720547172311,,
,6103.0,1304.0,8657.0,2287.0,867.0,2491.0,2930.0,,,,-0.648085274639853,-2.84305673452394,-0.85168277002911,,9.734935731702565,,
,6106.0,1306.0,8659.0,2290.0,864.0,2485.0,2940.0,,,,-0.648534335634581,-2.84310139234794,-0.851851301615959,,9.440860378467374,,
,6111.0,1308.0,8661.0,2292.0,872.0,2491.0,2931.0,,,,-0.648098659983777,-2.84311837297834,-0.852315488708013,,8.938239066815429,,
,6112.0,1310.0,8661.0,2292.0,865.0,2494.0,2938.0,,,,-0.648227142067346,-2.84308658234326,-0.852528391854141,,8.24461309256325,,
,6115.0,1313.0,8662.0,2292.0,860.0,2493.0,2919.0,,,,-0.648679181394108,-2.84307249819763,-0.851600620466187,,7.384547609575604,,
,6116.0,1310.0,8661.0,2292.0,870.0,2490.0,2929.0,,,,-0.648519608283206,-2.84327173492087,-0.852703888604181,,6.3884108630070155,,
,6124.0,1312.0,8661.0,2294.0,864.0,2481.0,2915.0,,,,-0.648709625925154,-2.84301961193989,-0.852695841730322,,5.290793476722317,,
,6126.0,1312.0,8662.0,2295.0,868.0,2479.0,2922.0,,,,-0.649113642083196,-2.8431146313326,-0.851944689247895,,4.128697329222728,,
,6132.0,1314.0,8664.0,2295.0,870.0,2478.0,2921.0,,,,-0.648587829054585,-2.84311514521983,-0.852229583456668,,2.9396441472624106,,
,6133.0,1313.0,8664.0,2295.0,870.0,2482.0,2926.0,,,,-0.649350204356349,-2.84323999912936,-0.852734166755647,,1.759851243804658,,
,6138.0,1314.0,8664.0,2295.0,860.0,2494.0,2916.0,,,,-0.649570804157728,-2.84327967027378,-0.852132946852384,,0.622599679256425,,
,6143.0,1317.0,8666.0,2297.0,867.0,2482.0,2939.0,,,,-0.649850816402576,-2.84326785218673,-0.853068060672116,,-0.44311391395384353,,
,6144.0,1319.0,8663.0,2297.0,865.0,2484.0,2922.0,,,,-0.649733017933236,-2.84323976971503,-0.852186410154575,,-1.4135883207279665,,
,6145.0,1316.0,8667.0,2300.0,867.0,2479.0,2920.0,,,,-0.649308908201556,-2.84318183771632,-0.852711716822269,,-2.2710727187983126,,
,6151.0,1318.0,8670.0,2297.0,862.0,2467.0,2939.0,,,,-0.649046222729622,-2.84321409154861,-0.851788768759267,,-3.0040742552072297,,
,6157.0,1317.0,8667.0,2300.0,857.0,2472.0,2943.0,,,,-0.649139582513396,-2.84329298747463,-0.853026261107344,,-3.6073454657677364,,
,6159.0,1321.0,8670.0,2300.0,867.0,2470.0,2935.0,,,,-0.64887386821511,-2.84326166187419,-0.852281276339391,,-4.081589484914938,,
2025-07-15 19:41:52,6163.0,1322.0,8669.0,2302.0,869.0,2478.0,2920.0,,,2025/07/15 07:41:52 PM,-0.648620221935939,-2.84313985509596,-0.851177587624549,,-4.432926288973284,,
,6165.0,1323.0,8669.0,2304.0,875.0,2489.0,2933.0,,,,-0.648277759540221,-2.84306746151655,-0.851284149411926,,-4.672165682088018,,
,6168.0,1324.0,8671.0,2303.0,881.0,2484.0,2932.0,,,,-0.648994758464497,-2.84298838464452,-0.851728207830897,,-4.81393367630524,,
,6178.0,1324.0,8672.0,2305.0,882.0,2483.0,2925.0,,,,-0.64868588575478,-2.84329295933451,-0.851778360739903,,-4.875698302398544,,
,6180.0,1325.0,8673.0,2304.0,882.0,2486.0,2933.0,,,,-0.648921589100582,-2.84324434241576,-0.8522167775352,,-4.876738321124667,,
,6183.0,1327.0,8673.0,2307.0,866.0,2471.0,2914.0,,,,-0.649205948537216,-2.84321017142019,-0.85184539321974,,-4.837093886231066,,
,6187.0,1325.0,8672.0,2304.0,866.0,2488.0,2928.0,,,,-0.649185468910341,-2.84335263882874,-0.851504041064219,,-4.776532690201854,,
,6191.0,1328.0,8674.0,2305.0,868.0,2486.0,2928.0,,,,-0.649498480620449,-2.84331081086103,-0.85161836355308,,-4.713559605100157,,
,6192.0,1328.0,8676.0,2309.0,858.0,2496.0,2909.0,,,,-0.649515461161706,-2.84344093714344,-0.851036762969946,,-4.664493441731594,,
,6195.0,1327.0,8675.0,2307.0,862.0,2480.0,2902.0,,,,-0.649330357098738,-2.84327513590146,-0.852647707419316,,-4.642632160628923,,
,6190.0,1326.0,8676.0,2305.0,854.0,2466.0,2910.0,,,,-0.649467783006798,-2.84336382214572,-0.851532313489649,,-4.65752831732863,,
,6183.0,1329.0,8673.0,2303.0,859.0,2471.0,2934.0,,,,-0.649164704081785,-2.84338096185335,-0.851564348452082,,-4.714399645282948,,
,6168.0,1326.0,8671.0,2299.0,858.0,2488.0,2939.0,,,,-0.649470551801639,-2.84334606589961,-0.851331355368272,,-4.813704338658114,,
,6148.0,1326.0,8668.0,2297.0,861.0,2490.0,2930.0,,,,-0.649073236958028,-2.84343441390363,-0.852059867315057,,-4.950914747781921,,
,6126.0,1319.0,8667.0,2290.0,865.0,2483.0,2918.0,,,,-0.649505449611919,-2.84339117974432,-0.852553763014909,,-5.11652456083027,,
,6104.0,1318.0,8666.0,2285.0,862.0,2482.0,2933.0,,,,-0.649221537677275,-2.84340614642345,-0.851236921544556,,-5.296321197513022,,
,6079.0,1312.0,8657.0,2280.0,866.0,2486.0,2957.0,,,,-0.649512199378223,-2.84338921142745,-0.850632245291128,,-5.471945706777857,,
,6064.0,1309.0,8658.0,2276.0,872.0,2478.0,2925.0,,,,-0.649290520995999,-2.84332899195205,-0.852737274100712,,-5.621746301696277,,
,6042.0,1303.0,8651.0,2265.0,870.0,2478.0,2924.0,,,,-0.649184297242346,-2.84307503605581,-0.851817134329207,,-5.7219094905565795,,
,6022.0,1298.0,8645.0,2259.0,859.0,2480.0,2933.0,,,,-0.648786929736947,-2.84314040933244,-0.850847728174397,,-5.747827074401272,,
,6013.0,1295.0,8639.0,2255.0,875.0,2481.0,2955.0,,,,-0.648978357861388,-2.84315193250238,-0.850780336972747,,-5.675631691927629,,
,5997.0,1293.0,8635.0,2251.0,884.0,2498.0,2935.0,,,,-0.648682794467214,-2.84293040138187,-0.85183146938079,,-5.4838112520975315,,
,5986.0,1287.0,8631.0,2248.0,883.0,2493.0,2913.0,,,,-0.649105402082942,-2.8431567416463,-0.850528657037295,,-5.154795267033903,,
,5977.0,1287.0,8626.0,2247.0,877.0,2502.0,2894.0,,,,-0.648541438951886,-2.8428633346133,-0.850953730524089,,-4.676395051167672,,
,5969.0,1283.0,8626.0,2241.0,880.0,2498.0,2916.0,,,,-0.648707527635079,-2.84312083800333,-0.850702275597255,,-4.042977497248763,,
,5967.0,1285.0,8625.0,2242.0,879.0,2489.0,2916.0,,,,-0.648210016555283,-2.8428080111971,-0.850624650889072,,-3.2562626264781245,,
,5962.0,1282.0,8623.0,2240.0,865.0,2488.0,2913.0,,,,-0.648254176274621,-2.84309438352865,-0.850954299673008,,-2.325661378053209,,
,5957.0,1281.0,8623.0,2240.0,865.0,2491.0,2920.0,,,,-0.648284566285203,-2.84302628457075,-0.850396084151592,,-1.268111148826735,,
,5957.0,1280.0,8617.0,2238.0,874.0,2497.0,2906.0,,,,-0.647731402869768,-2.84280230594194,-0.850819888118086,,-0.10741623152636358,,
,5954.0,1279.0,8620.0,2239.0,878.0,2500.0,2907.0,,,,-0.647894880921949,-2.84281857563417,-0.850157159249569,,1.126850784831533,,
,5956.0,1278.0,8616.0,2240.0,873.0,2490.0,2923.0,,,,-0.647831493833828,-2.84267623352442,-0.849759982721344,,2.400791029901613,,
,5953.0,1279.0,8618.0,2240.0,873.0,2492.0,2916.0,,,,-0.647574097806295,-2.8427559628051,-0.849523324524021,,3.6778441547366296,,
,5956.0,1280.0,8618.0,2243.0,878.0,2483.0,2902.0,,,,-0.647400237697912,-2.84279017470014,-0.849063040765693,,4.920546328113612,,
,5952.0,1281.0,8617.0,2243.0,872.0,2481.0,2906.0,,,,-0.647410622711724,-2.84279094230295,-0.849760827125894,,6.0922578493921,,
,5956.0,1278.0,8617.0,2244.0,873.0,2470.0,2891.0,,,,-0.647146203160588,-2.84279809023295,-0.848095061492384,,7.158755203379372,,
,5957.0,1279.0,8621.0,2243.0,878.0,2471.0,2873.0,,,,-0.647587375351649,-2.84270298455584,-0.849056451443443,,8.089609310067688,,
,5959.0,1277.0,8622.0,2247.0,872.0,2479.0,2868.0,,,,-0.647341783296959,-2.84281472456259,-0.849071568235064,,8.8593020814541,,
,5960.0,1278.0,8620.0,2246.0,876.0,2495.0,2869.0,,,,-0.647264101402669,-2.84260946173022,-0.848866981616326,,9.448061484769426,,
,5963.0,1279.0,8620.0,2249.0,878.0,2470.0,2900.0,,,,-0.647008507836163,-2.84259257706082,-0.848551665070467,,9.842416388298258,,
,5965.0,1280.0,8625.0,2252.0,869.0,2476.0,2908.0,,,,-0.646654439438763,-2.8425467815545,-0.847803849518938,,10.03548446941709,,
,5966.0,1278.0,8624.0,2249.0,870.0,2474.0,2898.0,,,,-0.646600048136368,-2.8425580273124,-0.847876791928879,,10.027010519151304,,
,5967.0,1279.0,8625.0,2250.0,865.0,2474.0,2912.0,,,,-0.646621375626381,-2.84260431361567,-0.846162771005767,,9.82317187895026,,
,5971.0,1279.0,8623.0,2253.0,864.0,2496.0,2935.0,,,,-0.646392564078511,-2.84249307088245,-0.847012861171412,,9.436166318927718,,
,5974.0,1280.0,8628.0,2255.0,864.0,2502.0,2918.0,,,,-0.646127134944179,-2.84242525591017,-0.84686096946429,,8.883598518750203,,
,5975.0,1281.0,8630.0,2256.0,873.0,2485.0,2941.0,,,,-0.646176016018533,-2.84236442961046,-0.846699018530507,,8.187686176053942,,
,5975.0,1282.0,8628.0,2258.0,869.0,2481.0,2941.0,,,,-0.646245037313949,-2.84238196608106,-0.846652797990946,,7.374315526815638,,
,5975.0,1280.0,8629.0,2257.0,861.0,2479.0,2927.0,,,,-0.646142576054195,-2.84232994913449,-0.847185128193355,,6.471986410404647,,
,5977.0,1281.0,8629.0,2257.0,856.0,2474.0,2924.0,,,,-0.645824468996999,-2.84235144328467,-0.847314179594803,,5.51069505213998,,
,5979.0,1282.0,8631.0,2259.0,865.0,2479.0,2935.0,,,,-0.645211519098926,-2.84218760728159,-0.846929528046676,,4.52080495798128,,
,5979.0,1281.0,8633.0,2259.0,870.0,2481.0,2930.0,,,,-0.645072969142627,-2.84227806000098,-0.846761876026186,,3.531951712899184,,
,5975.0,1281.0,8634.0,2258.0,863.0,2489.0,2908.0,,,,-0.645058959639641,-2.84225620836392,-0.846889426938052,,2.5720180804522084,,
,5977.0,1282.0,8630.0,2260.0,870.0,2491.0,2923.0,,,,-0.645222556948845,-2.84224804434904,-0.845673434582097,,1.666205472359324,,
,5978.0,1281.0,8631.0,2258.0,864.0,2495.0,2944.0,,,,-0.645091067969198,-2.84237816092571,-0.846438795254728,,0.8362204586173768,,
,5974.0,1283.0,8634.0,2258.0,865.0,2481.0,2919.0,,,,-0.644646080497742,-2.84225599103473,-0.846197683132377,,0.09959291061444153,,
,5974.0,1281.0,8630.0,2258.0,867.0,2472.0,2922.0,,,,-0.644649963192883,-2.84201632253875,-0.846379496956338,,-0.5308544407016167,,
,5970.0,1278.0,8631.0,2255.0,848.0,2475.0,2910.0,,,,-0.644534785780919,-2.84216495223722,-0.844036413237906,,-1.047359563154684,,
,5969.0,1279.0,8631.0,2260.0,854.0,2474.0,2901.0,,,,-0.644452386485742,-2.84193746560943,-0.845487638665936,,-1.4473686966621344,,
,5969.0,1280.0,8631.0,2259.0,863.0,2485.0,2900.0,,,,-0.644652847340313,-2.84218382929591,-0.845329272800059,,-1.7334513921986938,,
,5967.0,1280.0,8632.0,2257.0,863.0,2480.0,2899.0,,,,-0.644293204811645,-2.84200935413316,-0.845620025941432,,-1.912966769380277,,
,5963.0,1277.0,8631.0,2257.0,866.0,2477.0,2902.0,,,,-0.64444982059464,-2.84194262367015,-0.845018323751927,,-1.997481411452888,,
,5965.0,1278.0,8631.0,2254.0,867.0,2485.0,2917.0,,,,-0.644473843395687,-2.84179964244823,-0.845279411148777,,-2.001959467045862,,
,5966.0,1282.0,8633.0,2259.0,863.0,2490.0,2913.0,,,,-0.644187408405481,-2.84182982912138,-0.843730615551285,,-1.9437664547206268,,
,5967.0,1279.0,8633.0,2258.0,864.0,2486.0,2933.0,,,,-0.64370962469906,-2.84176579863902,-0.844658442134976,,-1.8415479855132695,,
,5962.0,1277.0,8629.0,2258.0,866.0,2481.0,2933.0,,,,-0.643637670101064,-2.84183412136174,-0.843779229750852,,-1.7140613299259313,,
,5965.0,1277.0,8632.0,2255.0,862.0,2474.0,2917.0,,,,-0.643661969626353,-2.84179793280314,-0.844531564178697,,-1.5790489507934231,,
,5969.0,1280.0,8633.0,2261.0,873.0,2478.0,2917.0,,,,-0.643818402864271,-2.84184706130231,-0.844279272109819,,-1.4522454130542382,,
,5968.0,1277.0,8632.0,2258.0,870.0,2476.0,2941.0,,,,-0.644154143918418,-2.84172192035685,-0.84587678305394,,-1.3465994529125742,,
,5972.0,1279.0,8633.0,2259.0,868.0,2481.0,2925.0,,,,-0.644028484014907,-2.84169871938278,-0.84375270650533,,-1.2717708142238127,,
,5970.0,1277.0,8632.0,2259.0,858.0,2478.0,2900.0,,,,-0.644007131931806,-2.84183777513361,-0.845080814711854,,-1.2339296091370564,,
,5974.0,1280.0,8633.0,2260.0,866.0,2471.0,2906.0,,,,-0.643832323855497,-2.84201661341073,-0.84492982781429,,-1.2358501354322131,,
,5979.0,1278.0,8635.0,2261.0,864.0,2470.0,2887.0,,,,-0.644642605961749,-2.84206281740713,-0.844729840406041,,-1.277257972297418,,
,5981.0,1283.0,8637.0,2264.0,862.0,2470.0,2899.0,,,,-0.644603973941164,-2.84194727478872,-0.844518453962822,,-1.3553644943300467,,
,5984.0,1281.0,8637.0,2264.0,865.0,2494.0,2903.0,,,,-0.64488315115054,-2.84198765488064,-0.845901517732776,,-1.4655100104421357,,
,5987.0,1281.0,8638.0,2263.0,868.0,2483.0,2904.0,,,,-0.644293009681885,-2.84194257479618,-0.844529685540062,,-1.6018360788429036,,
,5987.0,1283.0,8636.0,2266.0,868.0,2479.0,2894.0,,,,-0.644336014556907,-2.8419952813639,-0.845668405079256,,-1.7579176840776434,,
,5993.0,1284.0,8639.0,2268.0,856.0,2474.0,2918.0,,,,-0.644256666400007,-2.84212854594875,-0.845041463075307,,-1.9273043298904948,,
,5994.0,1283.0,8640.0,2269.0,862.0,2477.0,2903.0,,,,-0.644744357797397,-2.84210459407542,-0.845353708512611,,-2.103942114278038,,
,5997.0,1283.0,8639.0,2270.0,860.0,2496.0,2889.0,,,,-0.645139898509745,-2.84209705570436,-0.845960477220947,,-2.2824717938023933,,
,6004.0,1285.0,8642.0,2269.0,867.0,2480.0,2890.0,,,,-0.645251529735887,-2.84210575369036,-0.845916433768462,,-2.4584160455781214,,
,6010.0,1287.0,8643.0,2274.0,868.0,2473.0,2908.0,,,,-0.645404065438694,-2.84216093224943,-0.845409919097922,,-2.6282797997640475,,
,6010.0,1286.0,8645.0,2274.0,867.0,2480.0,2919.0,,,,-0.645027721826106,-2.84201541368508,-0.84614869232714,,-2.7895903266903153,,
,6015.0,1288.0,8644.0,2273.0,864.0,2466.0,2909.0,,,,-0.644713306028492,-2.84215380627215,-0.845141658666832,,-2.9409000453134477,,
,6017.0,1287.0,8645.0,2274.0,866.0,2478.0,2906.0,,,,-0.644976190618022,-2.84198248544172,-0.846009147835535,,-3.081766764010689,,
,6024.0,1289.0,8649.0,2278.0,864.0,2481.0,2934.0,,,,-0.644787884100567,-2.84193338540563,-0.846258295299191,,-3.212715594561749,,
,6028.0,1292.0,8650.0,2278.0,867.0,2477.0,2929.0,,,,-0.644448763494232,-2.84212712467637,-0.846038252942348,,-3.3351766848394537,,
,6030.0,1290.0,8649.0,2278.0,867.0,2478.0,2905.0,,,,-0.644587898165591,-2.84202140284203,-0.84562408190227,,-3.451385665720626,,
,6033.0,1292.0,8649.0,2278.0,862.0,2478.0,2921.0,,,,-0.644544455356687,-2.84203536904586,-0.846205328422433,,-3.5642309617587067,,
,6036.0,1292.0,8649.0,2278.0,867.0,2487.0,2915.0,,,,-0.643867439768442,-2.84200959542761,-0.845378494793973,,-3.677034255980007,,
,6040.0,1295.0,8651.0,2282.0,868.0,2479.0,2940.0,,,,-0.644024611471192,-2.84178170025404,-0.845875950541296,,-3.793256648141119,,
,6048.0,1297.0,8653.0,2281.0,872.0,2472.0,2941.0,,,,-0.643682045269229,-2.84201893132436,-0.844931617520706,,-3.9161319342772907,,
,6051.0,1296.0,8653.0,2282.0,849.0,2470.0,2924.0,,,,-0.643460786236336,-2.8416552877127,-0.844808732126605,,-4.048238326242859,,
,6051.0,1293.0,8653.0,2282.0,861.0,2475.0,2911.0,,,,-0.642870233809485,-2.84163682195217,-0.843401493458322,,-4.191029559333639,,
,6056.0,1298.0,8655.0,2285.0,860.0,2483.0,2917.0,,,,-0.643191954436887,-2.84162957735927,-0.843690452624059,,-4.344355197408484,,
,6062.0,1299.0,8658.0,2286.0,862.0,2478.0,2928.0,,,,-0.643054944432942,-2.84169832896382,-0.844871820362627,,-4.50600802414536,,
,6065.0,1300.0,8657.0,2287.0,856.0,2484.0,2921.0,,,,-0.642837970083749,-2.84180454018028,-0.845297827982947,,-4.671343286723022,,
,6067.0,1301.0,8656.0,2285.0,868.0,2490.0,2896.0,,,,-0.642850736503366,-2.84179530292903,-0.844136001572853,,-4.833018821936133,,
,6069.0,1299.0,8656.0,2288.0,871.0,2494.0,2935.0,,,,-0.643303205778062,-2.84179174347234,-0.845158484645834,,-4.98090480208373,,
,6073.0,1302.0,8660.0,2287.0,873.0,2496.0,2913.0,,,,-0.643645639077383,-2.84170972922811,-0.844196449225301,,-5.102205545953501,,
,6079.0,1302.0,8661.0,2288.0,875.0,2494.0,2910.0,,,,-0.642944394170544,-2.84172416115155,-0.844062531400028,,-5.181823208203797,,
,6082.0,1305.0,8660.0,2287.0,875.0,2475.0,2897.0,,,,-0.643170467708413,-2.84159001963451,-0.843452146373588,,-5.202974797499174,,
,6080.0,1302.0,8658.0,2289.0,860.0,2463.0,2918.0,,,,-0.643169656925241,-2.84163977065703,-0.844621443202676,,-5.148051019512542,,
,6088.0,1303.0,8662.0,2291.0,869.0,2464.0,2906.0,,,,-0.643303504828344,-2.84156330799611,-0.844417781817172,,-4.99967954028562,,
,6091.0,1305.0,8664.0,2291.0,864.0,2496.0,2919.0,,,,-0.643013409615576,-2.84159377627802,-0.843510937921795,,-4.741928986297171,,
,6094.0,1306.0,8663.0,2290.0,868.0,2511.0,2915.0,,,,-0.643409504718486,-2.84141449261061,-0.844962634632547,,-4.361567014662662,,
,6097.0,1307.0,8664.0,2291.0,862.0,2496.0,2906.0,,,,-0.643028088758311,-2.84159017892545,-0.844437816802346,,-3.8492702994886043,,
,6100.0,1309.0,8663.0,2293.0,862.0,2481.0,2894.0,,,,-0.643605096979271,-2.84154972457275,-0.844144529810188,,-3.200679898672381,,
,6104.0,1309.0,8665.0,2293.0,862.0,2484.0,2931.0,,,,-0.643342564774947,-2.8414785800685,-0.844693083455875,,-2.4172041029808886,,
,6105.0,1306.0,8663.0,2296.0,857.0,2493.0,2940.0,,,,-0.643114686151805,-2.84148977153806,-0.843283849727728,,-1.506491980703523,,
,6110.0,1311.0,8667.0,2295.0,867.0,2497.0,2927.0,,,,-0.643160182241421,-2.84152388506123,-0.844077509114125,,-0.48253129078311663,,
,6112.0,1308.0,8667.0,2293.0,862.0,2476.0,2925.0,,,,-0.642974653443063,-2.84153244801667,-0.8436570145666,,0.6346407305790341,,
,6117.0,1311.0,8669.0,2293.0,862.0,2475.0,2934.0,,,,-0.643009438763791,-2.84165677859211,-0.845808011220823,,1.819591579577795,,
,6121.0,1312.0,8667.0,2297.0,857.0,2473.0,2922.0,,,,-0.643129467296478,-2.84156422471128,-0.845185186295766,,3.042463149843579,,
,6126.0,1311.0,8671.0,2297.0,852.0,2468.0,2916.0,,,,-0.643125234857389,-2.84166678146158,-0.844904488971272,,4.270189499075005,,
,6125.0,1313.0,8669.0,2297.0,860.0,2484.0,2949.0,,,,-0.64314465853416,-2.84156182936467,-0.84359492708684,,5.467887930830689,,
,6129.0,1310.0,8673.0,2299.0,865.0,2484.0,2942.0,,,,-0.643192234458919,-2.84157110514364,-0.844352765334248,,6.600349490810985,,
,6133.0,1315.0,8670.0,2299.0,863.0,2495.0,2922.0,,,,-0.642822882013708,-2.8415104895878,-0.843857784815535,,7.6335603237246294,,
,6139.0,1315.0,8674.0,2299.0,862.0,2493.0,2903.0,,,,-0.642851317152513,-2.84162768591104,-0.843332339605324,,8.536191257189152,,
,6145.0,1315.0,8673.0,2299.0,853.0,2485.0,2936.0,,,,-0.642606953020546,-2.84148458571774,-0.844143360152343,,9.280996878348747,,
,6144.0,1317.0,8672.0,2300.0,857.0,2475.0,2939.0,,,,-0.642698848089458,-2.84144325979949,-0.843689199438243,,9.846066289211281,,
,6151.0,1319.0,8673.0,2303.0,862.0,2481.0,2956.0,,,,-0.64298747053613,-2.84140784297582,-0.843254802870593,,10.215866112782699,,
,6154.0,1317.0,8674.0,2304.0,858.0,2482.0,2906.0,,,,-0.642698766107481,-2.84154177225396,-0.84443695616871,,10.382013859033624,,
,6156.0,1322.0,8677.0,2301.0,865.0,2492.0,2891.0,,,,-0.643211567088929,-2.84142029500787,-0.843531293733313,,10.343719394925047,,
,6160.0,1319.0,8675.0,2304.0,873.0,2488.0,2949.0,,,,-0.6430468402595,-2.84131154603048,-0.843112578845899,,10.107837972879357,,
,6167.0,1320.0,8678.0,2307.0,861.0,2477.0,2963.0,,,,-0.643032028417386,-2.84131817620724,-0.842842468353964,,9.68849421566955,,
,6171.0,1324.0,8680.0,2306.0,871.0,2496.0,2938.0,,,,-0.642753513710216,-2.84136732170037,-0.842438329254676,,9.106265482219076,,
,6173.0,1323.0,8679.0,2305.0,869.0,2505.0,2941.0,,,,-0.642711200436755,-2.8412918534735,-0.843211718227474,,8.386954677611516,,
,6179.0,1324.0,8679.0,2307.0,862.0,2491.0,2924.0,,,,-0.642853090392807,-2.8413327335042,-0.842096403960068,,7.560031262941742,,
,6181.0,1324.0,8677.0,2307.0,871.0,2478.0,2909.0,,,,-0.642622960281286,-2.84134266884931,-0.842180856265152,,6.65686463152834,,
2025-07-15 19:41:53,6187.0,1325.0,8681.0,2309.0,860.0,2487.0,2911.0,,,2025/07/15 07:41:53 PM,-0.642152016778832,-2.84142497234627,-0.84319418262908,,5.708904519404069,,
,6189.0,1329.0,8681.0,2310.0,863.0,2475.0,2910.0,,,,-0.642264451595624,-2.84133743467027,-0.843217335712874,,4.745970635576818,,
,6186.0,1329.0,8682.0,2309.0,859.0,2484.0,2907.0,,,,-0.642031669706963,-2.84133851993525,-0.84288198049306,,3.7947966643220807,,
,6180.0,1326.0,8681.0,2307.0,865.0,2485.0,2918.0,,,,-0.642076794362434,-2.84132173477369,-0.843031459975857,,2.8779367965089224,,
,6173.0,1322.0,8680.0,2305.0,854.0,2478.0,2909.0,,,,-0.642224384651421,-2.84132742334773,-0.842213341651645,,2.0130942931447304,,
,6158.0,1322.0,8677.0,2303.0,855.0,2484.0,2949.0,,,,-0.642072265494509,-2.8413361882238,-0.842743464977031,,1.2128806626139292,,
,6136.0,1319.0,8675.0,2297.0,850.0,2487.0,2941.0,,,,-0.641962620418929,-2.84134613804228,-0.842049641901493,,0.48496922960896627,,
,6114.0,1317.0,8671.0,2292.0,840.0,2479.0,2916.0,,,,-0.641951352240853,-2.8413260194444,-0.843393039860207,,-0.16742615623839238,,
,6092.0,1311.0,8666.0,2283.0,851.0,2481.0,2903.0,,,,-0.641719892779056,-2.84140015050536,-0.841503082162676,,-0.7448358767387486,,
,6070.0,1310.0,8663.0,2279.0,854.0,2483.0,2895.0,,,,-0.641957476861653,-2.84132938444158,-0.842579417138955,,-1.2506784229020733,,
,6053.0,1303.0,8664.0,2275.0,857.0,2479.0,2900.0,,,,-0.641891989196089,-2.84129916644735,-0.842652700993972,,-1.6903566535389205,,
,6032.0,1299.0,8652.0,2265.0,857.0,2477.0,2891.0,,,,-0.641608641637057,-2.84132832200531,-0.841585636240703,,-2.0703903943095994,,
,6015.0,1293.0,8650.0,2258.0,860.0,2474.0,2905.0,,,,-0.641563895342161,-2.84126705798935,-0.840892245390163,,-2.397654726731565,,
,6003.0,1291.0,8649.0,2256.0,853.0,2481.0,2928.0,,,,-0.642095840503558,-2.84129106864726,-0.841833762366754,,-2.6787744795118904,,
,5991.0,1286.0,8644.0,2252.0,861.0,2482.0,2913.0,,,,-0.641595770828181,-2.84125925827268,-0.841800285519985,,-2.9197037915995985,,
,5981.0,1285.0,8639.0,2249.0,864.0,2488.0,2924.0,,,,-0.64205549633442,-2.84123403421584,-0.843470188807704,,-3.125497479929249,,
,5972.0,1283.0,8635.0,2244.0,862.0,2495.0,2934.0,,,,-0.641375572210966,-2.84114515668624,-0.841710945655424,,-3.3002612262768745,,
,5964.0,1280.0,8632.0,2241.0,854.0,2480.0,2918.0,,,,-0.641558095313003,-2.84108690631587,-0.840893288640167,,-3.44725265941764,,
,5964.0,1280.0,8634.0,2244.0,862.0,2480.0,2928.0,,,,-0.640837621247324,-2.84121625858126,-0.841072404911984,,-3.5690959677440404,,
,5958.0,1279.0,8630.0,2241.0,866.0,2478.0,2928.0,,,,-0.641114986374864,-2.84122762744743,-0.84179784347043,,-3.6680678687249166,,
,5953.0,1277.0,8629.0,2241.0,864.0,2469.0,2909.0,,,,-0.640873721229731,-2.84082556917737,-0.840025844280256,,-3.7464112892376558,,
,5955.0,1275.0,8627.0,2242.0,868.0,2482.0,2939.0,,,,-0.640889907206866,-2.84100036937914,-0.841143830358832,,-3.8066342537235434,,
,5952.0,1277.0,8626.0,2241.0,867.0,2483.0,2914.0,,,,-0.640705413971712,-2.84095516547249,-0.841114702331414,,-3.8517551378613306,,
,5950.0,1277.0,8629.0,2241.0,860.0,2479.0,2907.0,,,,-0.640418262593116,-2.84090337396029,-0.841894518663274,,-3.8854615997442896,,
,5947.0,1274.0,8628.0,2242.0,860.0,2483.0,2907.0,,,,-0.640158960860716,-2.8407716040379,-0.841172378034521,,-3.9121587860046287,,
,5949.0,1274.0,8626.0,2242.0,865.0,2478.0,2905.0,,,,-0.640848911454614,-2.84087725092991,-0.840711446124359,,-3.936892180894616,,
,5948.0,1272.0,8626.0,2245.0,867.0,2473.0,2907.0,,,,-0.640360599796813,-2.84088656338122,-0.83982948916912,,-3.9651410995909457,,
,5952.0,1275.0,8630.0,2247.0,867.0,2476.0,2914.0,,,,-0.640638739904806,-2.84093172531725,-0.840648141943136,,-4.002489863074646,,
,5951.0,1276.0,8627.0,2245.0,863.0,2478.0,2913.0,,,,-0.640683195038658,-2.84088904525159,-0.840990783474634,,-4.054194683772365,,
,5948.0,1272.0,8630.0,2246.0,865.0,2488.0,2934.0,,,,-0.640872731478867,-2.84108439423044,-0.841540549314178,,-4.124674616705374,,
,5951.0,1273.0,8630.0,2247.0,853.0,2475.0,2914.0,,,,-0.641067617909622,-2.84105642481148,-0.840769916332096,,-4.216963762896023,,
,5953.0,1276.0,8632.0,2248.0,865.0,2472.0,2913.0,,,,-0.641305015232964,-2.84102239042273,-0.840350478029008,,-4.332168329936904,,
,5953.0,1275.0,8630.0,2251.0,863.0,2470.0,2930.0,,,,-0.640239953583432,-2.84089431237782,-0.840748998359687,,-4.468975404697725,,
,5959.0,1275.0,8634.0,2252.0,860.0,2481.0,2908.0,,,,-0.640508570406361,-2.84101832695077,-0.841377540429958,,-4.623260181108828,,
,5960.0,1277.0,8632.0,2252.0,850.0,2481.0,2913.0,,,,-0.640398443847836,-2.84086047437769,-0.839982103774819,,-4.7878354647857675,,
,5964.0,1276.0,8632.0,2254.0,867.0,2479.0,2930.0,,,,-0.640216775054487,-2.84088277434919,-0.840419699780519,,-4.952382339971179,,
,5965.0,1275.0,8636.0,2254.0,874.0,2492.0,2919.0,,,,-0.640189084421575,-2.84087346399482,-0.83952321615951,,-5.103593994090259,,
,5969.0,1277.0,8637.0,2256.0,875.0,2492.0,2917.0,,,,-0.639619765832426,-2.84107616158703,-0.841254464244799,,-5.225554840637685,,
,5971.0,1275.0,8637.0,2255.0,857.0,2486.0,2933.0,,,,-0.640670157405325,-2.84079151583997,-0.840297478065831,,-5.300363086117523,,
,5970.0,1277.0,8636.0,2258.0,869.0,2491.0,2928.0,,,,-0.640001632523177,-2.84091797242504,-0.840400659475829,,-5.308986668058392,,
,5973.0,1279.0,8638.0,2257.0,856.0,2483.0,2910.0,,,,-0.640038392545481,-2.84082126526915,-0.840324206462772,,-5.232321402676074,,
,5973.0,1277.0,8642.0,2261.0,861.0,2471.0,2899.0,,,,-0.640394963735531,-2.84077605194435,-0.840641209571158,,-5.05239836717179,,
,5972.0,1277.0,8641.0,2261.0,861.0,2472.0,2895.0,,,,-0.640437138276933,-2.84072682282841,-0.839375226862165,,-4.75366724159368,,
,5973.0,1277.0,8643.0,2260.0,855.0,2473.0,2889.0,,,,-0.640037334746954,-2.84069310468655,-0.840094994921796,,-4.324265860595578,,
,5973.0,1278.0,8639.0,2260.0,856.0,2490.0,2942.0,,,,-0.639985590721826,-2.84059264020076,-0.839661221000704,,-3.757176395065861,,
,5973.0,1277.0,8640.0,2261.0,862.0,2483.0,2921.0,,,,-0.640174019086125,-2.84068500215456,-0.839642631141345,,-3.051168710482026,,
,5972.0,1278.0,8642.0,2263.0,850.0,2479.0,2937.0,,,,-0.639801973011378,-2.84075273514201,-0.839274242994412,,-2.2114442111210786,,
,5968.0,1273.0,8640.0,2259.0,859.0,2482.0,2962.0,,,,-0.639765587900643,-2.84070740680048,-0.839582727880406,,-1.2499189509939654,,
,5967.0,1275.0,8636.0,2259.0,864.0,2482.0,2935.0,,,,-0.639990409819423,-2.84067645042776,-0.838855126229439,,-0.18511893818943492,,
,5966.0,1275.0,8640.0,2258.0,864.0,2488.0,2944.0,,,,-0.639092819451718,-2.84058246911797,-0.839973801576733,,0.958304157311504,,
,5967.0,1274.0,8639.0,2258.0,863.0,2501.0,2944.0,,,,-0.638829948395058,-2.84059261133085,-0.839600037538057,,2.1504001906386736,,
,5964.0,1274.0,8639.0,2261.0,856.0,2507.0,2933.0,,,,-0.639102876353921,-2.84065883270886,-0.838848354679699,,3.3570367987331324,,
,5963.0,1274.0,8638.0,2260.0,860.0,2493.0,2935.0,,,,-0.639532294316476,-2.8404409964096,-0.839753240717796,,4.541244648038978,,
,5967.0,1277.0,8639.0,2258.0,859.0,2478.0,2946.0,,,,-0.639092758058431,-2.84050389747102,-0.839643599696124,,5.664732007467764,,
,5965.0,1277.0,8643.0,2261.0,866.0,2469.0,2932.0,,,,-0.639202696679318,-2.84047701359115,-0.839680035319322,,6.68951119736849,,
,5966.0,1274.0,8641.0,2262.0,856.0,2473.0,2916.0,,,,-0.638904465475136,-2.84056726667167,-0.838938936547774,,7.5795801187236025,,
,5964.0,1272.0,8639.0,2260.0,849.0,2494.0,2929.0,,,,-0.638907545288581,-2.8405314028951,-0.838891880465778,,8.302599485971001,,
,5965.0,1274.0,8640.0,2260.0,862.0,2476.0,2941.0,,,,-0.639120056395427,-2.84038166332453,-0.839352596302476,,8.831500035802673,,
,5969.0,1277.0,8642.0,2264.0,869.0,2489.0,2922.0,,,,-0.638719989398459,-2.84035475380925,-0.838773972802995,,9.145944448608525,,
,5967.0,1276.0,8641.0,2263.0,868.0,2480.0,2907.0,,,,-0.638428438228712,-2.84044143570946,-0.838759874505832,,9.23355812434983,,
,5970.0,1274.0,8642.0,2264.0,862.0,2493.0,2927.0,,,,-0.638594934363269,-2.84052760328898,-0.838631964011448,,9.090835117855043,,
,5971.0,1273.0,8643.0,2262.0,872.0,2481.0,2927.0,,,,-0.639076108500365,-2.84040104202637,-0.839270459906425,,8.723625486799016,,
,5975.0,1273.0,8646.0,2262.0,872.0,2478.0,2895.0,,,,-0.638617261488443,-2.84035905816582,-0.837897605160945,,8.147123073405908,,
,5977.0,1277.0,8644.0,2265.0,875.0,2481.0,2923.0,,,,-0.638172099062567,-2.84015921480274,-0.839101487941421,,7.385301486126468,,
,5978.0,1278.0,8644.0,2267.0,871.0,2477.0,2913.0,,,,-0.637969481967892,-2.84032385655456,-0.83843889440366,,6.469789928453943,,
,5981.0,1277.0,8645.0,2268.0,871.0,2468.0,2915.0,,,,-0.638315752981047,-2.84021826286354,-0.839289766888669,,5.438233643072684,,
,5983.0,1280.0,8647.0,2269.0,869.0,2466.0,2886.0,,,,-0.638130731278592,-2.84029469347852,-0.837474191705442,,4.332236649837747,,
,5989.0,1281.0,8650.0,2271.0,868.0,2479.0,2881.0,,,,-0.637860584033417,-2.84044667680057,-0.83703517840041,,3.1950278734136344,,
,5993.0,1280.0,8648.0,2271.0,874.0,2484.0,2885.0,,,,-0.637510096807896,-2.84021905137458,-0.837528329514286,,2.0690198441708754,,
,5995.0,1279.0,8649.0,2272.0,871.0,2487.0,2887.0,,,,-0.637749096561936,-2.84030735555944,-0.838285356265714,,0.9934399524264281,,
,5997.0,1281.0,8651.0,2271.0,864.0,2486.0,2924.0,,,,-0.637413167024169,-2.84019106403662,-0.83783200092571,,0.0022079669029673207,,
,6004.0,1284.0,8653.0,2274.0,872.0,2482.0,2918.0,,,,-0.63714731030855,-2.84016768973145,-0.837568068087196,,-0.8777884592940737,,
,6009.0,1284.0,8654.0,2275.0,865.0,2481.0,2929.0,,,,-0.637152692571471,-2.84012394862264,-0.836730433553828,,-1.627903389672991,,
,6008.0,1282.0,8654.0,2275.0,862.0,2487.0,2932.0,,,,-0.637255724875762,-2.84020482290751,-0.837288697856226,,-2.2383534704346557,,
,6015.0,1285.0,8655.0,2279.0,860.0,2500.0,2906.0,,,,-0.63771746853538,-2.84000536998879,-0.837242389288108,,-2.70822248934578,,
,6018.0,1285.0,8657.0,2278.0,869.0,2484.0,2939.0,,,,-0.636965192794798,-2.84001562524182,-0.836925339139995,,-3.044867604482517,,
,6021.0,1287.0,8659.0,2280.0,862.0,2469.0,2936.0,,,,-0.636848815309724,-2.83999937532406,-0.83671447065619,,-3.2627877615470995,,
,6027.0,1289.0,8657.0,2282.0,854.0,2467.0,2924.0,,,,-0.636938321847046,-2.8399941111863,-0.837159677105477,,-3.382053009129959,,
,6031.0,1287.0,8660.0,2279.0,862.0,2475.0,2929.0,,,,-0.636693694414542,-2.83999295493021,-0.836716698053376,,-3.426425547263875,,
,6034.0,1288.0,8660.0,2281.0,874.0,2487.0,2934.0,,,,-0.636562487549653,-2.83975222673734,-0.836731672014346,,-3.4213263027918024,,
,6037.0,1292.0,8660.0,2282.0,871.0,2485.0,2924.0,,,,-0.63630208445299,-2.83995261022741,-0.836899621823704,,-3.3918104353376815,,
,6040.0,1292.0,8662.0,2287.0,866.0,2484.0,2921.0,,,,-0.636568654535266,-2.84005990642509,-0.836171336207376,,-3.360708142017763,,
,6046.0,1293.0,8664.0,2282.0,866.0,2473.0,2930.0,,,,-0.636429358480546,-2.83991321625631,-0.836642030886765,,-3.347063401465767,,
,6050.0,1292.0,8661.0,2285.0,864.0,2475.0,2948.0,,,,-0.635889473689938,-2.83977473574748,-0.836446284697828,,-3.3649668278144946,,
,6056.0,1295.0,8663.0,2286.0,874.0,2476.0,2938.0,,,,-0.636313962859715,-2.8396999777542,-0.836414814510413,,-3.4228359738002205,,
,6059.0,1296.0,8669.0,2286.0,871.0,2481.0,2915.0,,,,-0.636206003532125,-2.83965410262539,-0.835072328222038,,-3.5231536021827266,,
,6061.0,1294.0,8666.0,2289.0,857.0,2476.0,2930.0,,,,-0.635848570613888,-2.83969844461605,-0.835333610855711,,-3.6626364493387054,,
,6062.0,1295.0,8664.0,2288.0,862.0,2472.0,2925.0,,,,-0.635789865350151,-2.83974183672243,-0.834601553501865,,-3.832776887606689,,
,6067.0,1298.0,8666.0,2288.0,862.0,2470.0,2917.0,,,,-0.635875059305264,-2.83951050363106,-0.835159546815258,,-4.020679423504825,,
,6075.0,1299.0,8672.0,2290.0,874.0,2473.0,2929.0,,,,-0.635676529552204,-2.83970542478385,-0.834761162844486,,-4.210103850591173,,
,6077.0,1300.0,8668.0,2291.0,862.0,2495.0,2919.0,,,,-0.635796396578202,-2.83951933403221,-0.835808791907915,,-4.382626436294266,,
,6081.0,1300.0,8669.0,2291.0,858.0,2494.0,2901.0,,,,-0.635758596866147,-2.83943769343144,-0.835595070502194,,-4.518837575530185,,
,6081.0,1300.0,8668.0,2291.0,853.0,2483.0,2918.0,,,,-0.63580471108481,-2.83968015101117,-0.835046132472701,,-4.59950586601622,,
,6086.0,1300.0,8672.0,2292.0,849.0,2484.0,2942.0,,,,-0.636064738111075,-2.8396655789108,-0.835070136757754,,-4.606651794431721,,
,6092.0,1302.0,8672.0,2296.0,857.0,2479.0,2944.0,,,,-0.636331092644849,-2.83955342004269,-0.83528771103079,,-4.524487378569557,,
,6093.0,1302.0,8675.0,2295.0,867.0,2480.0,2921.0,,,,-0.636110934413924,-2.8394177636147,-0.834347956769965,,-4.340190409295009,,
,6099.0,1303.0,8674.0,2293.0,856.0,2480.0,2912.0,,,,-0.636189128474387,-2.83955570011078,-0.834652636334773,,-4.044493387651681,,
,6103.0,1303.0,8674.0,2292.0,873.0,2485.0,2932.0,,,,-0.635640388111988,-2.83952829522411,-0.834750131548622,,-3.632078489923121,,
,6104.0,1306.0,8675.0,2297.0,864.0,2471.0,2940.0,,,,-0.635598724756178,-2.83955806258176,-0.834993360506292,,-3.10178186732264,,
,6109.0,1305.0,8676.0,2297.0,858.0,2475.0,2923.0,,,,-0.635691040214792,-2.83947104367646,-0.83577877756988,,-2.4566237290597797,,
,6110.0,1307.0,8677.0,2299.0,862.0,2481.0,2925.0,,,,-0.63563534639735,-2.83958444175001,-0.834487303073134,,-1.7036937664202398,,
,6113.0,1307.0,8673.0,2298.0,868.0,2483.0,2932.0,,,,-0.635640838512426,-2.83953735970049,-0.835357751451913,,-0.8539313603036187,,
,6118.0,1309.0,8679.0,2299.0,867.0,2482.0,2933.0,,,,-0.635819957302019,-2.83966539494233,-0.835889357096602,,0.07815738776533813,,
,6122.0,1311.0,8680.0,2300.0,866.0,2474.0,2941.0,,,,-0.636088470636922,-2.83962025240658,-0.835327800030075,,1.0748112793057032,,
,6126.0,1311.0,8678.0,2301.0,873.0,2477.0,2956.0,,,,-0.636389198602089,-2.83965461815984,-0.835590916648848,,2.1153371242909302,,
,6129.0,1311.0,8681.0,2302.0,868.0,2482.0,2946.0,,,,-0.635977374209803,-2.83962448077645,-0.835323234481375,,3.17645038312651,,
,6133.0,1312.0,8682.0,2303.0,864.0,2497.0,2953.0,,,,-0.636727039382938,-2.83968863331844,-0.835744293889207,,4.232662096920273,,
,6135.0,1315.0,8682.0,2305.0,852.0,2492.0,2949.0,,,,-0.63680727076339,-2.83965625354542,-0.836328001813287,,5.256756539940484,,
,6142.0,1313.0,8682.0,2304.0,862.0,2478.0,2923.0,,,,-0.63665437803788,-2.83978335260299,-0.835859144845143,,6.220408292912383,,
,6148.0,1315.0,8682.0,2302.0,856.0,2472.0,2905.0,,,,-0.636988110661782,-2.83980025350219,-0.836498515274922,,7.094978725227996,,
,6150.0,1312.0,8684.0,2302.0,847.0,2476.0,2923.0,,,,-0.636728054419813,-2.83982221370787,-0.8368005055705,,7.852510958810178,,
,6154.0,1317.0,8684.0,2304.0,865.0,2495.0,2940.0,,,,-0.637081023194149,-2.8398863494241,-0.837012856147277,,8.466911648344341,,
,6159.0,1318.0,8683.0,2307.0,871.0,2494.0,2950.0,,,,-0.63732086482349,-2.83982800002494,-0.836101969509765,,8.915271121081345,,
,6163.0,1321.0,8686.0,2308.0,875.0,2493.0,2946.0,,,,-0.637062362409635,-2.84000481781995,-0.837054081845816,,9.17923575893713,,
,6162.0,1320.0,8686.0,2304.0,862.0,2489.0,2918.0,,,,-0.637545380776957,-2.83991116804534,-0.837650299648867,,9.246314311006868,,
,6169.0,1318.0,8684.0,2306.0,865.0,2478.0,2941.0,,,,-0.63755944198974,-2.84007492837893,-0.837080135968108,,9.110979772551206,,
,6172.0,1321.0,8687.0,2307.0,864.0,2476.0,2942.0,,,,-0.637833024908861,-2.84017089967915,-0.838242699444022,,8.775426373148823,,
,6174.0,1324.0,8687.0,2309.0,855.0,2476.0,2924.0,,,,-0.637675262563801,-2.84015447076215,-0.837275371170221,,8.249860748434362,,
,6181.0,1326.0,8690.0,2310.0,856.0,2476.0,2910.0,,,,-0.637557292981563,-2.8400713644056,-0.83798119602076,,7.552247751822445,,
,6185.0,1323.0,8691.0,2310.0,855.0,2476.0,2898.0,,,,-0.637419158971177,-2.84015351885722,-0.837184128885085,,6.707490111799281,,
,6190.0,1326.0,8691.0,2311.0,854.0,2477.0,2916.0,,,,-0.637597036409144,-2.84000261576467,-0.836603442350481,,5.746087690871739,,
,6194.0,1328.0,8691.0,2311.0,859.0,2475.0,2907.0,,,,-0.637646004251224,-2.84002979385126,-0.837802331762014,,4.702383899483411,,
,6198.0,1327.0,8690.0,2312.0,857.0,2474.0,2916.0,,,,-0.6377845542179,-2.84007566255996,-0.838475373966699,,3.6125527185316684,,
,6201.0,1325.0,8689.0,2311.0,859.0,2489.0,2932.0,,,,-0.637906027857982,-2.84001929633813,-0.838040413193681,,2.512503708519184,,
,6207.0,1330.0,8693.0,2316.0,864.0,2481.0,2935.0,,,,-0.637842379902653,-2.8399748145284,-0.836887284011324,,1.435883726027911,,
,6210.0,1333.0,8693.0,2314.0,873.0,2483.0,2937.0,,,,-0.638301639001701,-2.84008817809672,-0.83808490152007,,0.4123358452025263,,
,6213.0,1334.0,8696.0,2317.0,867.0,2481.0,2936.0,,,,-0.638237957376103,-2.84019088866624,-0.837759829372189,,-0.5338570626058023,,
,6219.0,1332.0,8693.0,2316.0,865.0,2481.0,2916.0,,,,-0.638315861733817,-2.84013636695646,-0.838200897329286,,-1.3846592628047238,,
2025-07-15 19:41:54,6221.0,1332.0,8693.0,2315.0,866.0,2475.0,2926.0,,,2025/07/15 07:41:54 PM,-0.638099541625529,-2.84021300801152,-0.837830045963246,,-2.1286619931988486,,
,6224.0,1334.0,8695.0,2317.0,868.0,2484.0,2939.0,,,,-0.638180868939018,-2.84019908204422,-0.836560365713305,,-2.7609659185185755,,
,6221.0,1335.0,8698.0,2318.0,857.0,2472.0,2918.0,,,,-0.637871909623371,-2.84029679485113,-0.837264092222871,,-3.2826192649028667,,
,6218.0,1334.0,8694.0,2312.0,850.0,2469.0,2905.0,,,,-0.637995274146155,-2.84009382200265,-0.838028310681195,,-3.699700244917074,,
,6206.0,1330.0,8692.0,2308.0,864.0,2469.0,2935.0,,,,-0.637840788964781,-2.84003178808814,-0.837217516984383,,-4.0221569181586805,,
,6188.0,1330.0,8692.0,2309.0,871.0,2474.0,2919.0,,,,-0.637731481264594,-2.8402298799921,-0.837520675095086,,-4.262529147950985,,
,6164.0,1328.0,8688.0,2303.0,869.0,2478.0,2928.0,,,,-0.638685267399646,-2.84004778337103,-0.839069467578259,,-4.434675544063259,,
,6138.0,1323.0,8685.0,2296.0,867.0,2479.0,2923.0,,,,-0.638560315007998,-2.84030805518788,-0.837362826831955,,-4.552614677002179,,
,6117.0,1317.0,8680.0,2291.0,867.0,2477.0,2938.0,,,,-0.638402588339109,-2.84024063475466,-0.838783088851735,,-4.629567027471019,,
,6092.0,1311.0,8673.0,2285.0,852.0,2475.0,2949.0,,,,-0.638747451517484,-2.84041935192734,-0.837004537767324,,-4.677255170464369,,
,6074.0,1307.0,8676.0,2280.0,853.0,2468.0,2929.0,,,,-0.638752773044715,-2.84052017138864,-0.837690549681202,,-4.7054876300395945,,
,6052.0,1305.0,8670.0,2271.0,857.0,2481.0,2910.0,,,,-0.638911373872504,-2.84034448766273,-0.838855335898566,,-4.722019552868178,,
,6038.0,1300.0,8664.0,2266.0,861.0,2488.0,2922.0,,,,-0.63895743440831,-2.84036939102037,-0.839021929296401,,-4.732653713650706,,
,6022.0,1292.0,8657.0,2259.0,870.0,2477.0,2928.0,,,,-0.638831087679972,-2.84023495317427,-0.83916949892151,,-4.7415214463389,,
,6007.0,1290.0,8653.0,2255.0,853.0,2478.0,2914.0,,,,-0.638958626608504,-2.84020716560091,-0.838530343023728,,-4.751467864918626,,
,5997.0,1288.0,8649.0,2252.0,864.0,2485.0,2925.0,,,,-0.638562059294092,-2.84028467577572,-0.837703450399105,,-4.764461164961708,,
,5987.0,1284.0,8646.0,2249.0,865.0,2488.0,2929.0,,,,-0.638913322269553,-2.84007236513865,-0.837714802005942,,-4.781951876068838,,
,5979.0,1284.0,8642.0,2245.0,864.0,2506.0,2916.0,,,,-0.638567421794058,-2.84027032927959,-0.837878901192442,,-4.805122633434194,,
,5975.0,1281.0,8642.0,2244.0,858.0,2497.0,2930.0,,,,-0.638705640365307,-2.8402327470886,-0.8377644896766,,-4.834989354718911,,
,5971.0,1280.0,8640.0,2244.0,864.0,2506.0,2948.0,,,,-0.638293916710806,-2.84023671701475,-0.838494167635089,,-4.872337879927528,,
,5966.0,1280.0,8638.0,2246.0,877.0,2493.0,2940.0,,,,-0.638634952119308,-2.84025463259434,-0.838206340410512,,-4.917503999725521,,
,5965.0,1279.0,8637.0,2243.0,862.0,2487.0,2925.0,,,,-0.638798750066949,-2.84013884163357,-0.838546999861569,,-4.970027437276828,,
,5963.0,1275.0,8634.0,2242.0,862.0,2479.0,2938.0,,,,-0.638589469102011,-2.8401541427496,-0.837755453740266,,-5.028229702214944,,
,5963.0,1278.0,8636.0,2245.0,859.0,2488.0,2900.0,,,,-0.638472465802678,-2.84015741278622,-0.838075372383072,,-5.088779761537979,,
,5963.0,1279.0,8639.0,2248.0,868.0,2484.0,2911.0,,,,-0.638529680784153,-2.84021802803157,-0.838463314654923,,-5.146318610275778,,
,5963.0,1278.0,8637.0,2245.0,871.0,2484.0,2920.0,,,,-0.63843705949306,-2.84016362079052,-0.839155357567333,,-5.193213232185522,,
,5961.0,1275.0,8637.0,2244.0,878.0,2471.0,2892.0,,,,-0.638141143643175,-2.84011915452706,-0.83750866347749,,-5.219501857291678,,
,5962.0,1276.0,8636.0,2247.0,873.0,2477.0,2889.0,,,,-0.638334513158043,-2.84012424939007,-0.837038338421499,,-5.213076015406921,,
,5963.0,1275.0,8638.0,2249.0,870.0,2471.0,2888.0,,,,-0.638424811930751,-2.84017036451546,-0.838407723412459,,-5.160121355236032,,
,5961.0,1275.0,8636.0,2249.0,866.0,2471.0,2904.0,,,,-0.63850649762901,-2.8402075284773,-0.838032936457472,,-5.045810080005322,,
,5965.0,1277.0,8639.0,2249.0,867.0,2477.0,2919.0,,,,-0.638715334977686,-2.84018771873641,-0.838124321524873,,-4.855205826620673,,
,5964.0,1275.0,8635.0,2249.0,866.0,2491.0,2910.0,,,,-0.638552700253185,-2.84010362785917,-0.839040893019975,,-4.57431097609159,,
,5965.0,1274.0,8637.0,2250.0,860.0,2486.0,2897.0,,,,-0.638007495114449,-2.84012800067879,-0.838456634281112,,-4.191162110426878,,
,5964.0,1275.0,8641.0,2251.0,855.0,2485.0,2920.0,,,,-0.63785494253467,-2.84013987788569,-0.837627623816919,,-3.6968672855714213,,
,5967.0,1273.0,8640.0,2252.0,864.0,2483.0,2922.0,,,,-0.637795573340757,-2.84034355825222,-0.838454772718144,,-3.086482956722864,,
,5969.0,1277.0,8641.0,2256.0,864.0,2481.0,2939.0,,,,-0.637774660805933,-2.84031207352368,-0.83765944839047,,-2.3596491194992564,,
,5970.0,1273.0,8639.0,2255.0,855.0,2472.0,2924.0,,,,-0.637914069438352,-2.84013654893667,-0.837361650924704,,-1.5209344356816776,,
,5972.0,1278.0,8645.0,2256.0,859.0,2495.0,2926.0,,,,-0.637964304962601,-2.84025377290622,-0.837108847337888,,-0.5798811928258716,,
,5973.0,1277.0,8645.0,2258.0,856.0,2480.0,2933.0,,,,-0.637868249015489,-2.84016556397146,-0.837558726399044,,0.44922587003980213,,
,5975.0,1277.0,8645.0,2257.0,861.0,2472.0,2925.0,,,,-0.638182767021061,-2.84027365807916,-0.837369834344532,,1.5478195957752163,,
,5974.0,1274.0,8644.0,2256.0,858.0,2485.0,2952.0,,,,-0.638449792221396,-2.84020884350911,-0.837414970783117,,2.693682803725183,,
,5976.0,1276.0,8643.0,2260.0,865.0,2481.0,2962.0,,,,-0.638852941210871,-2.8402023925803,-0.837542050816442,,3.861699902940805,,
,5978.0,1277.0,8649.0,2260.0,860.0,2481.0,2956.0,,,,-0.638723710290707,-2.8402629452311,-0.83677861719053,,5.024685865963855,,
,5977.0,1275.0,8646.0,2261.0,868.0,2478.0,2949.0,,,,-0.638495975485014,-2.84030413636798,-0.837023809616026,,6.1542643707802505,,
,5975.0,1276.0,8648.0,2259.0,864.0,2475.0,2943.0,,,,-0.638691994468396,-2.84017986136577,-0.837856329626509,,7.221778476837073,,
,5975.0,1276.0,8647.0,2262.0,861.0,2478.0,2928.0,,,,-0.638541793022621,-2.84024104848447,-0.837823559571524,,8.199224049519607,,
,5976.0,1276.0,8648.0,2262.0,860.0,2477.0,2927.0,,,,-0.638480508968783,-2.84019859125672,-0.837320659086372,,9.060197404332154,,
,5974.0,1277.0,8648.0,2263.0,858.0,2475.0,2935.0,,,,-0.637973328966522,-2.83995979507691,-0.836708081028099,,9.780844581379975,,
,5974.0,1277.0,8645.0,2263.0,859.0,2480.0,2937.0,,,,-0.637759287461289,-2.84022692182605,-0.837197797547271,,10.340791198369072,,
,5971.0,1271.0,8646.0,2257.0,860.0,2483.0,2942.0,,,,-0.638108726739056,-2.84005595619236,-0.835746587598485,,10.7240202113194,,
,5972.0,1275.0,8646.0,2258.0,857.0,2482.0,2929.0,,,,-0.638252836233994,-2.84006089106687,-0.836618540842543,,10.919651692980285,,
,5968.0,1275.0,8647.0,2263.0,857.0,2499.0,2922.0,,,,-0.638294611318952,-2.84013674669183,-0.837539141765987,,10.922566224117396,,
,5971.0,1274.0,8649.0,2260.0,862.0,2486.0,2919.0,,,,-0.637376547342239,-2.8402188967766,-0.836205129443219,,10.73380538485013,,
,5969.0,1272.0,8645.0,2261.0,869.0,2492.0,2906.0,,,,-0.637453957269988,-2.84010342649996,-0.836258999746244,,10.360684102663402,,
,5969.0,1273.0,8647.0,2262.0,872.0,2481.0,2932.0,,,,-0.63743954207048,-2.84000570926235,-0.836844442316367,,9.816564781589085,,
,5968.0,1273.0,8650.0,2265.0,866.0,2483.0,2923.0,,,,-0.637907053377961,-2.84003382581294,-0.837103204691681,,9.120273473715724,,
,5972.0,1274.0,8650.0,2260.0,863.0,2479.0,2916.0,,,,-0.637846948518122,-2.83998432171111,-0.836423795782961,,8.295179694141824,,
,5969.0,1272.0,8648.0,2261.0,865.0,2477.0,2927.0,,,,-0.637257650612171,-2.83992811258157,-0.836288663734188,,7.368004616261625,,
,5971.0,1271.0,8648.0,2263.0,866.0,2485.0,2913.0,,,,-0.637332998513672,-2.83996148317377,-0.83553432410568,,6.367456596630371,,
,5971.0,1273.0,8648.0,2263.0,868.0,2493.0,2931.0,,,,-0.637020291303501,-2.83988656489456,-0.837118904772793,,5.322810590389211,,
,5970.0,1274.0,8648.0,2263.0,868.0,2498.0,2922.0,,,,-0.637197609784454,-2.83992848914556,-0.836471623216612,,4.262546908729435,,
,5976.0,1274.0,8650.0,2265.0,866.0,2488.0,2907.0,,,,-0.637027658214989,-2.83980796594537,-0.83582032636842,,3.213147817033223,,
,5979.0,1273.0,8650.0,2263.0,870.0,2484.0,2925.0,,,,-0.637068010232296,-2.83979255599891,-0.837122233832788,,2.198123247372144,,
,5981.0,1275.0,8651.0,2264.0,864.0,2487.0,2946.0,,,,-0.636857206170969,-2.83998373594654,-0.835083958482847,,1.2373054309913625,,
,5984.0,1276.0,8653.0,2269.0,865.0,2478.0,2938.0,,,,-0.636689448601409,-2.83980870381339,-0.835978779047416,,0.34642176271969155,,
,5984.0,1277.0,8653.0,2267.0,867.0,2489.0,2941.0,,,,-0.636380259907708,-2.839652556789,-0.835318381285065,,-0.4630703265861567,,
,5988.0,1275.0,8653.0,2270.0,863.0,2502.0,2943.0,,,,-0.636458012262621,-2.83968074397459,-0.835413531162485,,-1.1839206622544423,,
,5990.0,1278.0,8653.0,2270.0,858.0,2494.0,2889.0,,,,-0.636484517468746,-2.83966634069781,-0.835083437073649,,-1.8128392707760979,,
,5995.0,1278.0,8657.0,2270.0,861.0,2473.0,2905.0,,,,-0.636373701101774,-2.83974881681915,-0.83566624842903,,-2.350109982637722,,
,5998.0,1281.0,8657.0,2272.0,861.0,2473.0,2903.0,,,,-0.636279977770495,-2.83961580365514,-0.83555605692152,,-2.7991060093963185,,
,6002.0,1278.0,8656.0,2274.0,857.0,2476.0,2920.0,,,,-0.636118305399373,-2.83950536801424,-0.835845766846435,,-3.1657432642227046,,
,6004.0,1280.0,8659.0,2275.0,866.0,2471.0,2918.0,,,,-0.635893553669899,-2.83974191669226,-0.834822250468364,,-3.457902337524333,,
,6008.0,1281.0,8659.0,2274.0,866.0,2482.0,2920.0,,,,-0.636758231781725,-2.83973882573836,-0.834828822902667,,-3.6848466255542522,,
,6015.0,1282.0,8661.0,2277.0,861.0,2488.0,2952.0,,,,-0.636236451519623,-2.83957232579848,-0.835001833024124,,-3.856661401393971,,
,6016.0,1284.0,8664.0,2278.0,865.0,2489.0,2946.0,,,,-0.635613285923378,-2.83942426848863,-0.833365306816475,,-3.9837354972051573,,
,6020.0,1283.0,8661.0,2280.0,866.0,2471.0,2936.0,,,,-0.635554500039648,-2.83941325020659,-0.834379202470672,,-4.0763031222169674,,
,6024.0,1281.0,8662.0,2279.0,871.0,2483.0,2956.0,,,,-0.635407179811885,-2.8393641887493,-0.834775226003536,,-4.144058231103828,,
,6029.0,1285.0,8664.0,2280.0,866.0,2483.0,2949.0,,,,-0.635395823231474,-2.83945366910995,-0.834288238694717,,-4.19584822794232,,
,6032.0,1285.0,8666.0,2281.0,857.0,2489.0,2941.0,,,,-0.635723318005704,-2.83949277150275,-0.834370386981489,,-4.239448197569429,,
,6036.0,1287.0,8668.0,2284.0,862.0,2482.0,2942.0,,,,-0.635084452190115,-2.83950455310296,-0.834643067209041,,-4.281411852546021,,
,6036.0,1285.0,8664.0,2283.0,870.0,2469.0,2919.0,,,,-0.635025517192296,-2.83949776290217,-0.834477800446845,,-4.326991451505451,,
,6045.0,1288.0,8669.0,2283.0,864.0,2480.0,2940.0,,,,-0.634909861498408,-2.83949586373416,-0.83372476710889,,-4.380116369399513,,
,6049.0,1287.0,8672.0,2285.0,871.0,2481.0,2926.0,,,,-0.634739336297059,-2.83934451615084,-0.834465335281347,,-4.443418768128351,,
,6050.0,1290.0,8671.0,2286.0,867.0,2478.0,2919.0,,,,-0.634680119764235,-2.8392676619941,-0.834224244701814,,-4.518294630542851,,
,6053.0,1288.0,8669.0,2287.0,867.0,2483.0,2912.0,,,,-0.634894993790024,-2.83935347000436,-0.833615806830536,,-4.604988838513252,,
,6055.0,1290.0,8671.0,2284.0,862.0,2483.0,2934.0,,,,-0.634757823780682,-2.83918880731566,-0.833753812101849,,-4.702693573926373,,
,6063.0,1293.0,8674.0,2289.0,861.0,2484.0,2928.0,,,,-0.634428392597692,-2.83930177486833,-0.833808294478053,,-4.809649837762407,,
,6066.0,1297.0,8674.0,2291.0,866.0,2477.0,2917.0,,,,-0.634281868126513,-2.83913603667989,-0.833466574577889,,-4.923242359211894,,
,6070.0,1295.0,8676.0,2289.0,865.0,2471.0,2924.0,,,,-0.634368408738118,-2.83922193389907,-0.832984698859252,,-5.040079080995074,,
,6068.0,1293.0,8674.0,2290.0,860.0,2480.0,2917.0,,,,-0.634295661625174,-2.8392749962051,-0.833991991761699,,-5.156048542649095,,
,6076.0,1296.0,8674.0,2292.0,870.0,2485.0,2916.0,,,,-0.634648239911941,-2.83936113987969,-0.833108687312114,,-5.266352370144659,,
,6080.0,1297.0,8678.0,2295.0,856.0,2481.0,2910.0,,,,-0.63517111646407,-2.83925884821435,-0.833531072125316,,-5.365515409247177,,
,6084.0,1297.0,8677.0,2294.0,853.0,2482.0,2926.0,,,,-0.634940834920992,-2.83930032694691,-0.833434014176697,,-5.447381745190887,,
,6085.0,1296.0,8679.0,2291.0,856.0,2475.0,2906.0,,,,-0.634514805407257,-2.83914005352584,-0.832526450226972,,-5.505109836930163,,
,6091.0,1300.0,8676.0,2295.0,863.0,2484.0,2920.0,,,,-0.634990626512483,-2.83922688346867,-0.833106868540339,,-5.531183712568352,,
,6094.0,1301.0,8679.0,2294.0,867.0,2492.0,2939.0,,,,-0.63508068806814,-2.8391074700167,-0.832979326277227,,-5.517459459847981,,
,6098.0,1301.0,8682.0,2297.0,857.0,2488.0,2953.0,,,,-0.634957431775105,-2.83922887808896,-0.834434983569614,,-5.455266726093231,,
,6100.0,1301.0,8681.0,2296.0,854.0,2482.0,2949.0,,,,-0.634452470975466,-2.83925181131626,-0.832323930166325,,-5.335582801632067,,
,6102.0,1301.0,8681.0,2296.0,862.0,2478.0,2930.0,,,,-0.634653382959024,-2.83919331232027,-0.833969693510382,,-5.149291344153286,,
,6107.0,1303.0,8685.0,2298.0,863.0,2493.0,2944.0,,,,-0.63423746076435,-2.83928780442638,-0.832904507644937,,-4.887528979718506,,
,6111.0,1305.0,8684.0,2298.0,858.0,2473.0,2922.0,,,,-0.634542044395498,-2.83934560014658,-0.83313637278135,,-4.5421121736626535,,
,6113.0,1304.0,8684.0,2298.0,862.0,2471.0,2911.0,,,,-0.634951105362634,-2.83909395435284,-0.833438775812004,,-4.106026190428278,,
,6117.0,1305.0,8683.0,2299.0,863.0,2486.0,2934.0,,,,-0.634915703900568,-2.8392509688809,-0.833375337006921,,-3.57395025942552,,
,6119.0,1306.0,8686.0,2299.0,865.0,2483.0,2935.0,,,,-0.635711770864436,-2.83932362387383,-0.833644292782799,,-2.942790086060961,,
,6122.0,1306.0,8684.0,2302.0,857.0,2490.0,2908.0,,,,-0.63560548639739,-2.8393746821817,-0.834575138337863,,-2.212190545344037,,
,6127.0,1307.0,8687.0,2301.0,866.0,2487.0,2900.0,,,,-0.63567750790432,-2.83927827164343,-0.834602344265907,,-1.3850054319556198,,
,6131.0,1311.0,8686.0,2302.0,863.0,2488.0,2905.0,,,,-0.635687178065795,-2.83929701047288,-0.834764950582523,,-0.46770401635905917,,
,6133.0,1306.0,8685.0,2302.0,865.0,2490.0,2908.0,,,,-0.636047845299877,-2.83958988736354,-0.834760408504065,,0.529306607609387,,
,6136.0,1313.0,8688.0,2303.0,855.0,2498.0,2917.0,,,,-0.636233743185303,-2.83943747846693,-0.834077152560857,,1.5914687520836996,,
,6141.0,1311.0,8687.0,2305.0,865.0,2491.0,2933.0,,,,-0.636671720083607,-2.83959579349499,-0.835160223744366,,2.700002211450725,,
,6146.0,1314.0,8688.0,2303.0,866.0,2489.0,2914.0,,,,-0.636044916033007,-2.83954346265672,-0.835265430603395,,3.8320097074230106,,
,6148.0,1313.0,8690.0,2305.0,864.0,2473.0,2927.0,,,,-0.635817219691426,-2.83959786198113,-0.834478961907151,,4.960799357866469,,
,6151.0,1315.0,8689.0,2306.0,861.0,2489.0,2928.0,,,,-0.636738295362633,-2.83972299690544,-0.835229157698138,,6.056463261253196,,
,6157.0,1315.0,8691.0,2308.0,863.0,2485.0,2939.0,,,,-0.636381609067675,-2.83972116293289,-0.834759021541631,,7.086744469277745,,
