TimeLabel,MEAS1_PPG1,MEAS1_PPG2,MEAS1_PPG3,MEAS1_PPG4,ACCX,ACCY,ACCZ,HR_timestamp,HR_value,radar_timestamp,phase_rx0,phase_rx1,phase_rx2,timestep,n_process,original_rate,calculated_rate
2025-06-30 19:45:00,4947.0,1641.0,5696.0,1886.0,2207.0,2465.0,2010.0,2025-06-30 19:45:00,101.0,2025/06/30 07:45:00 PM,-0.78109940021621,-2.96439641040929,-1.27131377915482,2025/06/30 07:45:00 PM,0.43407266957918944,19.10828018188477,19.034189956275853
,4946.0,1641.0,5698.0,1885.0,2218.0,2477.0,2009.0,2025-06-30 19:45:01,100.0,,-0.780858336934918,-2.96436713933205,-1.2727494620768,2025/06/30 07:45:10 PM,0.16124417847103642,17.05756950378418,19.49494949494949
,4949.0,1641.0,5697.0,1884.0,2227.0,2480.0,2010.0,2025-06-30 19:45:02,100.0,,-0.780955429032488,-2.96447651623697,-1.27204887123274,2025/06/30 07:45:20 PM,-0.11223899308486379,19.522777557373047,17.313257207353242
,4947.0,1640.0,5692.0,1883.0,2238.0,2473.0,2013.0,2025-06-30 19:45:03,99.0,,-0.780898517194848,-2.96434420544638,-1.27161727059315,2025/06/30 07:45:30 PM,-0.38583968030685784,18.590240478515625,17.485053296197655
,4946.0,1642.0,5696.0,1885.0,2217.0,2482.0,2020.0,2025-06-30 19:45:04,100.0,,-0.780639300654526,-2.96444536870588,-1.27153916757566,2025/06/30 07:45:40 PM,-0.6586932056915491,18.53281784057617,17.15686274509804
,4948.0,1645.0,5698.0,1885.0,2240.0,2483.0,2014.0,2025-06-30 19:45:05,100.0,,-0.780256127584847,-2.96442442217727,-1.27162014676664,2025/06/30 07:45:50 PM,-0.9295715720094208,17.26618766784668,15.204497814465151
,4948.0,1642.0,5699.0,1883.0,2248.0,2481.0,2011.0,2025-06-30 19:45:06,100.0,,-0.780046264331181,-2.96434553053183,-1.27185365185134,2025/06/30 07:46:00 PM,-1.1969001556292564,16.759777069091797,20.404312668463604
,4947.0,1641.0,5696.0,1884.0,2238.0,2477.0,2007.0,2025-06-30 19:45:07,100.0,,-0.780604866475806,-2.964275590886,-1.27141212401398,2025/06/30 07:46:10 PM,-1.4588374918133593,17.27861785888672,15.63799055872614
,4947.0,1644.0,5697.0,1885.0,2222.0,2482.0,2005.0,2025-06-30 19:45:08,101.0,,-0.780171466023479,-2.96431101404112,-1.27178094057357,2025/06/30 07:46:20 PM,-1.7134158538259787,16.853933334350586,16.955223880597032
,4949.0,1645.0,5697.0,1885.0,2207.0,2475.0,2010.0,2025-06-30 19:45:09,101.0,,-0.779949564622359,-2.96430769177796,-1.27158408888164,2025/06/30 07:46:30 PM,-1.9587250831164669,17.467248916625977,19.40610450037001
,4950.0,1645.0,5698.0,1886.0,2208.0,2477.0,2011.0,2025-06-30 19:45:10,102.0,,-0.780112409929568,-2.96429608735425,-1.27152303431395,2025/06/30 07:46:40 PM,-2.1931094924132517,17.1184024810791,22.853292260300325
,4948.0,1646.0,5698.0,1883.0,2198.0,2480.0,2007.0,2025-06-30 19:45:11,102.0,,-0.779520695372114,-2.96433018823667,-1.27127216971777,2025/06/30 07:46:50 PM,-2.4153418173917256,19.59361457824707,19.101816284914914
,4951.0,1649.0,5699.0,1884.0,2206.0,2481.0,2017.0,2025-06-30 19:45:12,102.0,,-0.780427223898796,-2.96424100065343,-1.27119973907828,2025/06/30 07:47:00 PM,-2.6247402695470963,20.547945022583008,15.74705182300117
,4950.0,1652.0,5700.0,1887.0,2237.0,2474.0,2019.0,2025-06-30 19:45:13,102.0,,-0.780401172171583,-2.96434199736081,-1.27192005359467,2025/06/30 07:47:10 PM,-2.8212028975858794,18.77607727050781,15.999556466237173
,4957.0,1651.0,5699.0,1890.0,2223.0,2470.0,2013.0,2025-06-30 19:45:14,102.0,,-0.780637983870281,-2.96437088550989,-1.27080394651016,2025/06/30 07:47:20 PM,-3.005145193339567,15.8490571975708,15.5
,4954.0,1653.0,5698.0,1886.0,2261.0,2473.0,2008.0,2025-06-30 19:45:15,102.0,,-0.780116315213216,-2.96427816041054,-1.27125771567736,2025/06/30 07:47:30 PM,-3.1773405582179244,15.730337142944336,21.85275640801248
,4956.0,1654.0,5700.0,1886.0,2240.0,2471.0,2013.0,2025-06-30 19:45:16,102.0,,-0.78056111204799,-2.96436859046303,-1.2714109996564,2025/06/30 07:47:40 PM,-3.338677545107356,18.012008666992188,21.08516483516479
,4958.0,1659.0,5703.0,1887.0,2229.0,2470.0,2003.0,2025-06-30 19:45:17,102.0,,-0.781242820154382,-2.96436473213156,-1.27205676888007,2025/06/30 07:47:50 PM,-3.489860787018452,19.76573944091797,19.292485642771837
,4958.0,1657.0,5701.0,1889.0,2225.0,2472.0,1998.0,2025-06-30 19:45:18,103.0,,-0.78227934988021,-2.96448625469764,-1.27202900565311,,-3.6310919775294246,,
,4959.0,1659.0,5703.0,1889.0,2250.0,2459.0,2006.0,2025-06-30 19:45:19,104.0,,-0.782586536809443,-2.96459574427964,-1.27331557763527,,-3.7617714207262254,,
,4960.0,1661.0,5703.0,1888.0,2226.0,2458.0,2005.0,2025-06-30 19:45:20,104.0,,-0.783436328012622,-2.96451449384341,-1.27393484640853,,-3.880258771700663,,
,4963.0,1665.0,5704.0,1889.0,2240.0,2464.0,2002.0,2025-06-30 19:45:21,104.0,,-0.784482387434454,-2.96459635018318,-1.27392211545172,,-3.9837241682308915,,
,4963.0,1666.0,5704.0,1890.0,2243.0,2469.0,2007.0,2025-06-30 19:45:22,105.0,,-0.7842312355982,-2.96462270860878,-1.27471074576127,,-4.068109796193662,,
,4964.0,1667.0,5705.0,1890.0,2231.0,2483.0,2015.0,2025-06-30 19:45:23,105.0,,-0.785098564757933,-2.96458687783184,-1.27468526477921,,-4.128209564609783,,
,4965.0,1669.0,5704.0,1890.0,2247.0,2483.0,2004.0,2025-06-30 19:45:24,104.0,,-0.784796324975495,-2.96474486242703,-1.27567911895478,,-4.157863461445561,,
,4966.0,1669.0,5705.0,1891.0,2248.0,2492.0,2020.0,2025-06-30 19:45:25,104.0,,-0.785058883445429,-2.96475581840423,-1.27491677826488,,-4.150255046597399,,
,4970.0,1672.0,5705.0,1892.0,2237.0,2494.0,2011.0,2025-06-30 19:45:26,103.0,,-0.784942626136022,-2.9647424262625,-1.27564030770151,,-4.098295826825704,,
,4967.0,1674.0,5704.0,1893.0,2233.0,2492.0,2008.0,2025-06-30 19:45:27,102.0,,-0.785023349055001,-2.96473966511708,-1.27536806395981,,-3.995077784098616,,
,4968.0,1675.0,5703.0,1890.0,2243.0,2489.0,2001.0,2025-06-30 19:45:28,102.0,,-0.784655646832393,-2.96457463071321,-1.27513249316421,,-3.8343729877477113,,
,4972.0,1678.0,5706.0,1891.0,2217.0,2478.0,2011.0,2025-06-30 19:45:29,101.0,,-0.78453896769523,-2.9646924922287,-1.27508847597698,,-3.6111552792970194,,
,4974.0,1677.0,5708.0,1892.0,2237.0,2476.0,2008.0,2025-06-30 19:45:30,101.0,,-0.783970225857141,-2.96460984667646,-1.27431072551709,,-3.322113006211872,,
,4974.0,1677.0,5705.0,1892.0,2225.0,2476.0,1997.0,2025-06-30 19:45:31,101.0,,-0.783925907511879,-2.96471507184661,-1.27406740278139,,-2.9661145091405463,,
,4974.0,1678.0,5707.0,1890.0,2227.0,2474.0,2001.0,2025-06-30 19:45:32,101.0,,-0.783700569069438,-2.96470195995837,-1.2742388664155,,-2.5445814690035906,,
,4977.0,1682.0,5709.0,1894.0,2249.0,2481.0,2002.0,2025-06-30 19:45:33,101.0,,-0.78351408250704,-2.96466681146323,-1.27394962139428,,-2.0617223671742955,,
,4979.0,1679.0,5709.0,1895.0,2231.0,2481.0,2006.0,2025-06-30 19:45:34,101.0,,-0.783752078228215,-2.9646419926027,-1.27429663972673,,-1.524582765020985,,
,4974.0,1677.0,5705.0,1895.0,2231.0,2490.0,2010.0,2025-06-30 19:45:35,101.0,,-0.783869022910951,-2.96453470555198,-1.27396029151689,,-0.9428830579478795,,
,4972.0,1668.0,5704.0,1892.0,2244.0,2494.0,2007.0,2025-06-30 19:45:36,100.0,,-0.783559350855308,-2.96462947069294,-1.2737252724112,,-0.32863689474169716,,
,4967.0,1663.0,5705.0,1893.0,2257.0,2484.0,2010.0,2025-06-30 19:45:37,99.0,,-0.784019832102693,-2.96462210906049,-1.27404999442318,,0.30442931891116315,,
,4962.0,1655.0,5704.0,1893.0,2243.0,2470.0,2018.0,2025-06-30 19:45:38,98.0,,-0.783758402978166,-2.96461228922572,-1.27427167423763,,0.9416087458043102,,
,4957.0,1644.0,5703.0,1889.0,2221.0,2472.0,2019.0,2025-06-30 19:45:39,98.0,,-0.783970888515911,-2.9646939606537,-1.27436956409454,,1.5680300948684824,,
,4948.0,1632.0,5696.0,1887.0,2198.0,2485.0,2011.0,2025-06-30 19:45:40,97.0,,-0.784071961251021,-2.96459170883432,-1.27468125272683,,2.1694773652872774,,
,4943.0,1627.0,5696.0,1883.0,2188.0,2482.0,2023.0,2025-06-30 19:45:41,97.0,,-0.783894197671234,-2.96462584589251,-1.27348388387017,,2.733133115678604,,
,4938.0,1622.0,5697.0,1883.0,2189.0,2479.0,2025.0,2025-06-30 19:45:42,97.0,,-0.783794146874447,-2.96457667577157,-1.27405962238708,,3.248176010684713,,
,4934.0,1615.0,5694.0,1883.0,2203.0,2477.0,2024.0,2025-06-30 19:45:43,97.0,,-0.783605944324961,-2.96459001238582,-1.27399209166791,,3.7061841533618867,,
,4929.0,1609.0,5694.0,1879.0,2198.0,2471.0,2014.0,2025-06-30 19:45:44,97.0,,-0.783513736603477,-2.9646303707077,-1.27379312567973,,4.101323377372223,,
,4927.0,1605.0,5692.0,1877.0,2188.0,2479.0,2011.0,2025-06-30 19:45:45,97.0,,-0.783035480838409,-2.96447963308909,-1.27352043499068,,4.4303298827575315,,
,4926.0,1604.0,5690.0,1877.0,2184.0,2476.0,2014.0,2025-06-30 19:45:46,96.0,,-0.783151592468149,-2.96460755834932,-1.27354577686937,,4.692323517992556,,
,4921.0,1601.0,5690.0,1876.0,2207.0,2471.0,2009.0,2025-06-30 19:45:47,96.0,,-0.783272982269125,-2.96454337895197,-1.27356172319205,,4.888505778526779,,
,4921.0,1599.0,5689.0,1871.0,2226.0,2492.0,2007.0,2025-06-30 19:45:48,96.0,,-0.78369367833428,-2.96464153663906,-1.27425911055365,,5.021801469677194,,
,4918.0,1595.0,5687.0,1869.0,2252.0,2478.0,2001.0,2025-06-30 19:45:49,96.0,,-0.784060124019997,-2.96460716535222,-1.27463655439183,,5.096494634491979,,
,4918.0,1595.0,5687.0,1870.0,2269.0,2478.0,2001.0,2025-06-30 19:45:50,96.0,,-0.784683563335673,-2.9645911395155,-1.27402710489485,,5.117891022654357,,
,4917.0,1599.0,5692.0,1871.0,2281.0,2484.0,2001.0,2025-06-30 19:45:51,96.0,,-0.785164538114516,-2.96459539939605,-1.27480796788153,,5.092017254458423,,
,4917.0,1596.0,5687.0,1869.0,2271.0,2471.0,2001.0,2025-06-30 19:45:52,96.0,,-0.784735273840539,-2.96465348742396,-1.27489868800465,,5.0253481196909435,,
,4919.0,1598.0,5688.0,1871.0,2241.0,2472.0,2001.0,2025-06-30 19:45:53,97.0,,-0.785173334657949,-2.96477332578162,-1.27525604771615,,4.9245436556252535,,
,4915.0,1597.0,5687.0,1868.0,2254.0,2474.0,1990.0,2025-06-30 19:45:54,97.0,,-0.785600804449305,-2.96479369094307,-1.27554635093184,,4.796178829792026,,
,4917.0,1599.0,5688.0,1870.0,2235.0,2484.0,2007.0,2025-06-30 19:45:55,97.0,,-0.785301372415597,-2.96477700269771,-1.27500016691684,,4.646459352133662,,
,4918.0,1602.0,5689.0,1869.0,2226.0,2486.0,2006.0,2025-06-30 19:45:56,98.0,,-0.785654222481626,-2.96480346712704,-1.27543991123568,,4.480933108613602,,
,4916.0,1600.0,5685.0,1865.0,2208.0,2484.0,2007.0,2025-06-30 19:45:57,98.0,,-0.785128978952559,-2.96459765103464,-1.27464036575367,,4.304222097646959,,
,4915.0,1602.0,5689.0,1867.0,2199.0,2478.0,2004.0,2025-06-30 19:45:58,98.0,,-0.78520143235448,-2.96460740372901,-1.27484531618811,,4.1198091855071945,,
,4920.0,1605.0,5690.0,1869.0,2216.0,2495.0,2006.0,2025-06-30 19:45:59,97.0,,-0.784883720261147,-2.96470629192191,-1.27484048359928,,3.929914559938465,,
,4918.0,1604.0,5690.0,1869.0,2238.0,2491.0,2010.0,2025-06-30 19:46:00,97.0,,-0.784518246389918,-2.96463105637836,-1.27464652666634,,3.735488287039555,,
,4917.0,1606.0,5689.0,1867.0,2230.0,2494.0,2021.0,2025-06-30 19:46:01,97.0,,-0.784137255800219,-2.96452559104527,-1.27416385990835,,3.536329538929718,,
,4916.0,1611.0,5691.0,1867.0,2226.0,2494.0,2005.0,2025-06-30 19:46:02,98.0,,-0.783695268851203,-2.96445376345917,-1.27407274992871,,3.331322955253252,,
,4919.0,1611.0,5692.0,1869.0,2228.0,2490.0,2007.0,2025-06-30 19:46:03,99.0,,-0.783375888316089,-2.96455585478168,-1.27379303048693,,3.118762713400948,,
,4918.0,1612.0,5691.0,1868.0,2226.0,2494.0,2010.0,2025-06-30 19:46:04,99.0,,-0.783096119406162,-2.96450490952449,-1.27399506771921,,2.8967201466525556,,
,4918.0,1611.0,5690.0,1866.0,2239.0,2491.0,2021.0,2025-06-30 19:46:05,100.0,,-0.78336509521428,-2.96453079104888,-1.27382526328075,,2.6634048985384564,,
,4918.0,1612.0,5694.0,1869.0,2235.0,2487.0,2019.0,2025-06-30 19:46:06,100.0,,-0.783387371644949,-2.96453974792483,-1.27332292937365,,2.41747397122413,,
,4920.0,1611.0,5691.0,1870.0,2226.0,2487.0,2004.0,2025-06-30 19:46:07,99.0,,-0.783098201766287,-2.96458681382206,-1.27343435578127,,2.158256156078803,,
,4920.0,1614.0,5690.0,1872.0,2232.0,2486.0,2005.0,2025-06-30 19:46:08,99.0,,-0.783658509706527,-2.96463864336243,-1.27345500241608,,1.8858772800350487,,
,4919.0,1612.0,5693.0,1868.0,2221.0,2472.0,2004.0,2025-06-30 19:46:09,99.0,,-0.783494814634115,-2.96445971527552,-1.27411561240649,,1.601289434845057,,
,4918.0,1612.0,5693.0,1867.0,2207.0,2470.0,2010.0,2025-06-30 19:46:10,98.0,,-0.783331245037335,-2.96455079882749,-1.2743455224517,,1.306220856435782,,
,4918.0,1611.0,5695.0,1869.0,2226.0,2475.0,2020.0,2025-06-30 19:46:11,98.0,,-0.783440315988759,-2.96454250703012,-1.27410135777049,,1.0030704327082305,,
,4916.0,1612.0,5695.0,1869.0,2223.0,2471.0,2019.0,2025-06-30 19:46:12,98.0,,-0.783449508384953,-2.96450194453751,-1.27348169278039,,0.6947715624585511,,
,4916.0,1609.0,5692.0,1867.0,2217.0,2466.0,2007.0,2025-06-30 19:46:13,98.0,,-0.783824230196529,-2.96453152156674,-1.27424253718623,,0.38464499997281687,,
,4914.0,1608.0,5694.0,1868.0,2215.0,2475.0,2005.0,2025-06-30 19:46:14,98.0,,-0.783197253168231,-2.96456569245336,-1.27409607835576,,0.07625155646063869,,
,4916.0,1611.0,5695.0,1869.0,2214.0,2477.0,2009.0,2025-06-30 19:46:15,99.0,,-0.783601367442591,-2.96445167010881,-1.27374744459578,,-0.22675352469880325,,
,4915.0,1610.0,5694.0,1867.0,2216.0,2473.0,2009.0,2025-06-30 19:46:16,99.0,,-0.783559591178345,-2.96453136549539,-1.27375595385492,,-0.5207687909459929,,
,4916.0,1613.0,5693.0,1868.0,2220.0,2477.0,2003.0,2025-06-30 19:46:17,99.0,,-0.783673672800098,-2.96460601685576,-1.27366402212341,,-0.8024029841460617,,
,4912.0,1611.0,5691.0,1866.0,2245.0,2491.0,2007.0,2025-06-30 19:46:18,100.0,,-0.784659500749866,-2.96452924835287,-1.27428062539264,,-1.0686417025464519,,
,4915.0,1614.0,5696.0,1869.0,2229.0,2492.0,2004.0,2025-06-30 19:46:19,101.0,,-0.784631735204927,-2.96467307283274,-1.2743828084223,,-1.3170195661007098,,
,4917.0,1613.0,5693.0,1870.0,2221.0,2483.0,2001.0,2025-06-30 19:46:20,101.0,,-0.784615533354535,-2.96462632026671,-1.27470945071177,,-1.5457854417587578,,
,4915.0,1615.0,5695.0,1868.0,2246.0,2477.0,2010.0,2025-06-30 19:46:21,101.0,,-0.783964446083255,-2.96461393795045,-1.27449482277544,,-1.75404222923126,,
,4917.0,1613.0,5695.0,1868.0,2241.0,2485.0,2011.0,2025-06-30 19:46:22,100.0,,-0.784303692592982,-2.9646265199155,-1.27395540029031,,-1.9418399436330802,,
,4918.0,1616.0,5693.0,1868.0,2241.0,2487.0,2014.0,2025-06-30 19:46:23,100.0,,-0.783993739639642,-2.9646477487345,-1.27426543557173,,-2.110202177494589,,
,4919.0,1618.0,5696.0,1870.0,2219.0,2489.0,2011.0,2025-06-30 19:46:24,99.0,,-0.783910099899921,-2.96460714221724,-1.27350396623351,,-2.2610716860168782,,
,4920.0,1617.0,5694.0,1871.0,2222.0,2486.0,2008.0,2025-06-30 19:46:25,98.0,,-0.784163386624742,-2.96471803113698,-1.27379624624215,,-2.3971700965135576,,
,4918.0,1618.0,5695.0,1868.0,2219.0,2483.0,2002.0,2025-06-30 19:46:26,98.0,,-0.783956435438555,-2.96465792127759,-1.27386030587483,,-2.521777712791341,,
,4920.0,1621.0,5697.0,1870.0,2218.0,2474.0,2005.0,2025-06-30 19:46:27,97.0,,-0.783449775201891,-2.96452249159312,-1.27338252269681,,-2.638449635452683,,
,4920.0,1623.0,5696.0,1871.0,2227.0,2483.0,2012.0,2025-06-30 19:46:28,97.0,,-0.783306780940747,-2.96444274265717,-1.27320925161584,,-2.750691932960487,,
,4921.0,1624.0,5696.0,1870.0,2231.0,2488.0,2015.0,2025-06-30 19:46:29,97.0,,-0.782918997252454,-2.9644522679738,-1.27307039945401,,-2.86162527484553,,
,4920.0,1625.0,5695.0,1870.0,2213.0,2478.0,2005.0,2025-06-30 19:46:30,98.0,,-0.783226034186599,-2.96446844813426,-1.27319079763654,,-2.9736631607496142,,
,4923.0,1630.0,5697.0,1867.0,2205.0,2483.0,2000.0,2025-06-30 19:46:31,99.0,,-0.783444134018675,-2.96454421899807,-1.27276937900679,,-3.088228508620663,,
,4926.0,1630.0,5702.0,1872.0,2215.0,2479.0,2003.0,2025-06-30 19:46:32,100.0,,-0.783758324538339,-2.96456966601811,-1.27494947913054,,-3.205527494817898,,
,4927.0,1631.0,5697.0,1873.0,2208.0,2475.0,1998.0,2025-06-30 19:46:33,101.0,,-0.785010670033262,-2.96463195599495,-1.27430942090879,,-3.324394691917799,,
,4925.0,1630.0,5697.0,1869.0,2212.0,2474.0,1998.0,2025-06-30 19:46:34,101.0,,-0.78551253309121,-2.9646720928912,-1.27562737548805,,-3.442219335799865,,
,4928.0,1635.0,5700.0,1874.0,2217.0,2469.0,2009.0,2025-06-30 19:46:35,101.0,,-0.786221031195982,-2.96469083919335,-1.27667038631612,,-3.554958707309788,,
,4930.0,1635.0,5703.0,1872.0,2221.0,2474.0,2006.0,2025-06-30 19:46:36,101.0,,-0.786847856133102,-2.96481371873378,-1.27606499026066,,-3.6572408135778987,,
,4933.0,1637.0,5703.0,1877.0,2234.0,2472.0,2003.0,2025-06-30 19:46:37,101.0,,-0.787831746101265,-2.964862895316,-1.27713438850603,,-3.742554909235477,,
,4931.0,1638.0,5701.0,1873.0,2230.0,2478.0,2007.0,2025-06-30 19:46:38,102.0,,-0.788419683337916,-2.96485147583882,-1.27763688736318,,-3.8035251699223296,,
,4932.0,1642.0,5702.0,1875.0,2219.0,2492.0,2007.0,2025-06-30 19:46:39,103.0,,-0.788685908303958,-2.96480290230578,-1.27900781410017,,-3.8322600346222093,,
,4936.0,1641.0,5700.0,1875.0,2221.0,2480.0,2009.0,2025-06-30 19:46:40,104.0,,-0.789359668499018,-2.96487058376733,-1.27916774108601,,-3.8207670593413474,,
,4937.0,1645.0,5702.0,1878.0,2221.0,2472.0,2009.0,2025-06-30 19:46:41,104.0,,-0.789270857840897,-2.96487873696291,-1.27921076460866,,-3.7614198994103276,,
,4937.0,1645.0,5701.0,1877.0,2217.0,2473.0,2013.0,2025-06-30 19:46:42,106.0,,-0.790134873531728,-2.96490473815916,-1.2789199292072,,-3.647459209996207,,
,4939.0,1645.0,5701.0,1876.0,2241.0,2478.0,2011.0,2025-06-30 19:46:43,107.0,,-0.789666911834244,-2.96501535528249,-1.27913844769209,,-3.473501989482426,,
,4939.0,1650.0,5703.0,1875.0,2231.0,2481.0,2007.0,2025-06-30 19:46:44,108.0,,-0.789599577826388,-2.96501271999427,-1.27933856178111,,-3.236024760771433,,
,4940.0,1652.0,5703.0,1880.0,2216.0,2484.0,2010.0,2025-06-30 19:46:45,109.0,,-0.789306151059629,-2.96499886210647,-1.27863318907275,,-2.9337776720086812,,
,4944.0,1653.0,5704.0,1880.0,2228.0,2473.0,2003.0,2025-06-30 19:46:46,109.0,,-0.789052476446177,-2.96503317249281,-1.27816985615458,,-2.5680832823843875,,
,4942.0,1653.0,5704.0,1877.0,2238.0,2472.0,2001.0,2025-06-30 19:46:47,110.0,,-0.788800537900037,-2.96498791738458,-1.27824048483796,,-2.1429793881486723,,
,4947.0,1657.0,5704.0,1879.0,2231.0,2479.0,2005.0,2025-06-30 19:46:48,110.0,,-0.788692909001204,-2.96497723591462,-1.27835841763982,,-1.6651810472598192,,
,4947.0,1656.0,5707.0,1880.0,2224.0,2490.0,2009.0,2025-06-30 19:46:49,110.0,,-0.788816038983576,-2.96495847594147,-1.27821166637794,,-1.143860093579025,,
,4945.0,1654.0,5705.0,1881.0,2223.0,2488.0,2020.0,2025-06-30 19:46:50,111.0,,-0.788703399401747,-2.96498463909399,-1.27818531494707,,-0.5902645475757229,,
,4943.0,1649.0,5701.0,1881.0,2248.0,2472.0,2014.0,2025-06-30 19:46:51,111.0,,-0.788594862870046,-2.96485797002891,-1.27836123231704,,-0.017218699327388315,,
,4940.0,1644.0,5702.0,1879.0,2253.0,2492.0,2011.0,2025-06-30 19:46:52,110.0,,-0.788818944194706,-2.96484364121496,-1.27853769175294,,0.5614466803246658,,
,4935.0,1633.0,5702.0,1881.0,2218.0,2481.0,2021.0,2025-06-30 19:46:53,110.0,,-0.788694510471002,-2.96496518039887,-1.2781318723526,,1.131485760485232,,
,4929.0,1626.0,5700.0,1875.0,2207.0,2485.0,2023.0,2025-06-30 19:46:54,110.0,,-0.788825070813319,-2.96494756825549,-1.27823292423542,,1.6788111182116359,,
,4920.0,1616.0,5697.0,1875.0,2198.0,2472.0,2031.0,2025-06-30 19:46:55,110.0,,-0.788529661792605,-2.96490196473707,-1.27845504769667,,2.190021871943596,,
,4916.0,1608.0,5695.0,1871.0,2185.0,2492.0,2030.0,2025-06-30 19:46:56,109.0,,-0.788611543580145,-2.96494606984595,-1.27825878492122,,2.652870572056471,,
,4915.0,1601.0,5693.0,1871.0,2188.0,2483.0,2028.0,2025-06-30 19:46:57,108.0,,-0.788468659160237,-2.96488047447631,-1.27767183519781,,3.056660619784145,,
,4908.0,1594.0,5693.0,1868.0,2192.0,2478.0,2020.0,2025-06-30 19:46:58,107.0,,-0.788575050258123,-2.9650183022365,-1.27771918734874,,3.392569247549579,,
,4906.0,1590.0,5689.0,1864.0,2193.0,2474.0,2011.0,2025-06-30 19:46:59,105.0,,-0.788399433954682,-2.96504158824124,-1.27757151030409,,3.65389125972222,,
,4902.0,1587.0,5689.0,1867.0,2195.0,2465.0,2003.0,2025-06-30 19:47:00,104.0,,-0.789042312245677,-2.96500790249682,-1.27805841620514,,3.8361976021505737,,
,4899.0,1582.0,5686.0,1864.0,2202.0,2471.0,2003.0,2025-06-30 19:47:01,103.0,,-0.789481812093824,-2.96508812264224,-1.27853135971345,,3.9374019558835096,,
,4894.0,1581.0,5687.0,1864.0,2216.0,2470.0,1996.0,2025-06-30 19:47:02,103.0,,-0.789699899426874,-2.96498038999552,-1.27884013198091,,3.9577294269026746,,
,4894.0,1579.0,5684.0,1859.0,2228.0,2467.0,2008.0,2025-06-30 19:47:03,103.0,,-0.78990694232827,-2.96500372281641,-1.27838717953355,,3.899585323536154,,
,4894.0,1577.0,5684.0,1859.0,2233.0,2471.0,2007.0,2025-06-30 19:47:04,104.0,,-0.789943411716379,-2.96508226184366,-1.27958725174418,,3.767329227727426,,
,4890.0,1578.0,5684.0,1857.0,2249.0,2480.0,2006.0,2025-06-30 19:47:05,105.0,,-0.790650780747678,-2.96511602753768,-1.27950826602109,,3.56696884941364,,
,4892.0,1579.0,5684.0,1858.0,2262.0,2483.0,2002.0,2025-06-30 19:47:06,105.0,,-0.791026663536064,-2.96517948769511,-1.27986945297026,,3.3057974561680323,,
,4893.0,1576.0,5682.0,1858.0,2285.0,2480.0,2000.0,2025-06-30 19:47:07,106.0,,-0.791313981786942,-2.96512981655804,-1.27969478612378,,2.9920058999501085,,
2025-06-30 19:45:01,4893.0,1578.0,5682.0,1857.0,2276.0,2479.0,1990.0,2025-06-30 19:47:08,105.0,2025/06/30 07:45:01 PM,-0.79176905596097,-2.96516978938042,-1.28063690198675,,2.6343034719206337,,
,4892.0,1580.0,5683.0,1857.0,2281.0,2475.0,1992.0,2025-06-30 19:47:09,105.0,,-0.791589101155963,-2.96519056821506,-1.28054545367585,,2.2415795935422023,,
,4894.0,1580.0,5682.0,1858.0,2281.0,2470.0,1995.0,2025-06-30 19:47:10,104.0,,-0.79187116188556,-2.96521460809405,-1.28065407046766,,1.8226306397608762,,
,4893.0,1580.0,5683.0,1857.0,2264.0,2475.0,2024.0,2025-06-30 19:47:11,103.0,,-0.791523997320094,-2.96514516593135,-1.28006595333222,,1.3859643343830326,,
,4891.0,1582.0,5683.0,1856.0,2251.0,2476.0,2013.0,2025-06-30 19:47:12,102.0,,-0.791970532974972,-2.96507433190946,-1.28063327019569,,0.939680079718722,,
,4896.0,1588.0,5685.0,1858.0,2214.0,2474.0,2005.0,2025-06-30 19:47:13,102.0,,-0.791318197441838,-2.96522434528522,-1.28061949600853,,0.49140949926427846,,
,4896.0,1587.0,5685.0,1857.0,2219.0,2475.0,1997.0,2025-06-30 19:47:14,101.0,,-0.790627891511309,-2.96517080846912,-1.28020475706252,,0.04829029328455634,,
,4896.0,1588.0,5684.0,1858.0,2207.0,2493.0,1996.0,2025-06-30 19:47:15,100.0,,-0.790758145929144,-2.9650920648526,-1.27950337933233,,-0.38305858802721143,,
,4896.0,1591.0,5684.0,1856.0,2220.0,2486.0,2000.0,2025-06-30 19:47:16,99.0,,-0.790193307001477,-2.96493516101662,-1.27911064820373,,-0.7965894686497998,,
,4900.0,1591.0,5688.0,1860.0,2246.0,2475.0,2014.0,2025-06-30 19:47:17,99.0,,-0.789536943223366,-2.96502029280744,-1.2784922250583,,-1.1869243328781278,,
,4901.0,1597.0,5687.0,1861.0,2250.0,2479.0,2011.0,2025-06-30 19:47:18,99.0,,-0.789136492597857,-2.96500272413406,-1.27886431749648,,-1.549500816659519,,
,4900.0,1595.0,5687.0,1857.0,2239.0,2499.0,2005.0,2025-06-30 19:47:19,100.0,,-0.789140639028938,-2.9649366224612,-1.27853869868535,,-1.8807493700707916,,
,4899.0,1596.0,5687.0,1857.0,2233.0,2480.0,2014.0,2025-06-30 19:47:20,100.0,,-0.789317977144082,-2.96489401480997,-1.27859368739899,,-2.178269679041234,,
,4901.0,1597.0,5689.0,1860.0,2230.0,2491.0,2028.0,2025-06-30 19:47:21,100.0,,-0.788796693469683,-2.96487468107,-1.27807929140668,,-2.4409653356078382,,
,4901.0,1599.0,5690.0,1862.0,2222.0,2491.0,2018.0,2025-06-30 19:47:22,100.0,,-0.788796025854892,-2.96496177942726,-1.27902131281112,,-2.6690949119724503,,
,4900.0,1600.0,5687.0,1860.0,2223.0,2479.0,2020.0,2025-06-30 19:47:23,100.0,,-0.78894783147098,-2.96484545335843,-1.27797935262912,,-2.864205378592395,,
,4901.0,1597.0,5685.0,1858.0,2207.0,2482.0,2015.0,2025-06-30 19:47:24,99.0,,-0.788588521550845,-2.96496340758612,-1.27805192265207,,-3.0289294673409284,,
,4901.0,1597.0,5688.0,1860.0,2229.0,2472.0,2007.0,2025-06-30 19:47:25,99.0,,-0.7886188644932,-2.96497680494868,-1.27744081498739,,-3.1666497744928988,,
,4901.0,1599.0,5688.0,1860.0,2235.0,2470.0,2016.0,2025-06-30 19:47:26,98.0,,-0.788356582140112,-2.9649757888218,-1.27817095181528,,-3.2810549576208614,,
,4899.0,1599.0,5688.0,1861.0,2245.0,2474.0,2016.0,2025-06-30 19:47:27,98.0,,-0.788674596954902,-2.96494106215291,-1.27821160638854,,-3.3756326482593404,,
,4901.0,1597.0,5688.0,1861.0,2221.0,2478.0,2009.0,2025-06-30 19:47:28,98.0,,-0.788545604959277,-2.96482605055802,-1.27808245727452,,-3.4531562523597725,,
,4902.0,1597.0,5690.0,1863.0,2220.0,2480.0,2007.0,2025-06-30 19:47:29,98.0,,-0.788085520854784,-2.96478844336303,-1.27778349999472,,-3.515226901850464,,
,4900.0,1599.0,5689.0,1861.0,2214.0,2482.0,2005.0,2025-06-30 19:47:30,99.0,,-0.788352468493823,-2.96488093572977,-1.27711176341131,,-3.5619270348716516,,
,4902.0,1597.0,5688.0,1859.0,2222.0,2482.0,2005.0,2025-06-30 19:47:31,99.0,,-0.787528541420749,-2.9648686335929,-1.27801657624275,,-3.5916293587363293,,
,4897.0,1594.0,5686.0,1859.0,2226.0,2483.0,2006.0,2025-06-30 19:47:32,100.0,,-0.788036233016388,-2.96483855807364,-1.27657053461821,,-3.600986671349292,,
,4902.0,1597.0,5689.0,1859.0,2231.0,2467.0,2004.0,2025-06-30 19:47:33,100.0,,-0.78715724873085,-2.96480151346292,-1.27710369716504,,-3.5851073407570064,,
,4901.0,1599.0,5688.0,1861.0,2241.0,2476.0,2003.0,2025-06-30 19:47:34,100.0,,-0.787271597897355,-2.96473269209892,-1.27605161548813,,-3.537901264280291,,
,4902.0,1597.0,5689.0,1860.0,2244.0,2476.0,2002.0,2025-06-30 19:47:35,100.0,,-0.786408247062014,-2.96467725822453,-1.27654820769494,,-3.4525645528314244,,
,4902.0,1599.0,5686.0,1859.0,2242.0,2489.0,2004.0,2025-06-30 19:47:36,100.0,,-0.7860346238515,-2.96466006870496,-1.27536697759682,,-3.3221599369429553,,
,4907.0,1601.0,5691.0,1861.0,2244.0,2486.0,2005.0,2025-06-30 19:47:37,100.0,,-0.785754249922979,-2.96453245632196,-1.27556539946388,,-3.1402444713552398,,
,4906.0,1603.0,5691.0,1861.0,2233.0,2489.0,2004.0,2025-06-30 19:47:38,101.0,,-0.785712401305172,-2.96467283363207,-1.27477721398426,,-2.9014955764330206,,
,4905.0,1604.0,5690.0,1862.0,2237.0,2487.0,2003.0,2025-06-30 19:47:39,101.0,,-0.785329499609908,-2.96450428250307,-1.27484003957902,,-2.6022891395481014,,
,4905.0,1604.0,5689.0,1862.0,2220.0,2479.0,2008.0,2025-06-30 19:47:40,102.0,,-0.785026811146251,-2.96467327818729,-1.27509609072975,,-2.2411876697229083,,
,4907.0,1606.0,5691.0,1862.0,2203.0,2484.0,2012.0,2025-06-30 19:47:41,103.0,,-0.784828327951092,-2.96470091470539,-1.27500280797141,,-1.8193013010376007,,
,4908.0,1607.0,5694.0,1864.0,2223.0,2484.0,2024.0,2025-06-30 19:47:42,103.0,,-0.784701173558466,-2.96467365684736,-1.27476452589466,,-1.3404899850036995,,
,4910.0,1609.0,5692.0,1864.0,2230.0,2493.0,2016.0,2025-06-30 19:47:43,103.0,,-0.784850626544082,-2.96463509439664,-1.27461788835809,,-0.8113830965404571,,
,4911.0,1611.0,5691.0,1862.0,2249.0,2491.0,2004.0,2025-06-30 19:47:44,103.0,,-0.784914047531818,-2.96466807230154,-1.27421902568681,,-0.24120462810400564,,
,4910.0,1609.0,5693.0,1862.0,2245.0,2479.0,2008.0,2025-06-30 19:47:45,103.0,,-0.785083962083411,-2.96469879466909,-1.27450804433141,,0.358591708031333,,
,4914.0,1615.0,5694.0,1864.0,2239.0,2475.0,2003.0,2025-06-30 19:47:46,103.0,,-0.786060189188081,-2.96480597553022,-1.27588064779205,,0.9748546248540679,,
,4915.0,1615.0,5695.0,1866.0,2236.0,2476.0,2017.0,2025-06-30 19:47:47,103.0,,-0.786416826982945,-2.96475526930349,-1.2769687703024,,1.5933935812011595,,
,4917.0,1617.0,5696.0,1865.0,2226.0,2483.0,2010.0,2025-06-30 19:47:48,103.0,,-0.787773405434101,-2.96476424071763,-1.27782563985122,,2.1997069297052207,,
,4919.0,1620.0,5694.0,1865.0,2238.0,2490.0,2002.0,2025-06-30 19:47:49,103.0,,-0.787762170603495,-2.96484035055111,-1.27735134242181,,2.7797138221364937,,
,4921.0,1620.0,5695.0,1867.0,2227.0,2481.0,2005.0,2025-06-30 19:47:50,103.0,,-0.788315120533574,-2.96494958183776,-1.27826572692566,,3.3204220497661243,,
,4919.0,1622.0,5698.0,1868.0,2221.0,2483.0,2009.0,2025-06-30 19:47:51,103.0,,-0.788176202922508,-2.9650298101418,-1.27869497758728,,3.810471647058635,,
,4923.0,1624.0,5697.0,1867.0,2204.0,2469.0,2025.0,2025-06-30 19:47:52,102.0,,-0.788726375043681,-2.96505943453834,-1.27897522203153,,4.240510871613513,,
,4923.0,1627.0,5697.0,1868.0,2229.0,2474.0,2001.0,2025-06-30 19:47:53,102.0,,-0.788753509173376,-2.96499517165472,-1.27823499063008,,4.603385042917348,,
,4924.0,1629.0,5698.0,1869.0,2230.0,2485.0,2005.0,2025-06-30 19:47:54,102.0,,-0.788677155258316,-2.9649549488251,-1.27884692258708,,4.89414597397315,,
,4929.0,1631.0,5700.0,1872.0,2221.0,2499.0,2001.0,2025-06-30 19:47:55,102.0,,-0.788339344325723,-2.96496340560023,-1.27821049056815,,5.109915165893181,,
,4927.0,1632.0,5697.0,1871.0,2229.0,2508.0,2004.0,2025-06-30 19:47:56,102.0,,-0.788044381266001,-2.96490256025304,-1.27745551208621,,5.2496519012895675,,
,4927.0,1631.0,5697.0,1868.0,2223.0,2487.0,1999.0,2025-06-30 19:47:57,102.0,,-0.787656100441826,-2.96483506297295,-1.27740969902623,,5.313883765692665,,
,4931.0,1635.0,5702.0,1872.0,2233.0,2474.0,1997.0,2025-06-30 19:47:58,101.0,,-0.787521412837313,-2.96484481519993,-1.27801978637234,,5.304450941419415,,
,4934.0,1637.0,5700.0,1873.0,2239.0,2474.0,2003.0,2025-06-30 19:47:59,101.0,,-0.786753972343943,-2.96489930547494,-1.27674163645624,,5.224299125954434,,
,4934.0,1636.0,5702.0,1873.0,2238.0,2486.0,2009.0,,,,-0.786391718976694,-2.96485610726087,-1.27688641330785,,5.077333960562275,,
,4933.0,1638.0,5701.0,1871.0,2263.0,2498.0,2014.0,,,,-0.786507640458471,-2.96479949873347,-1.27696878999632,,4.868328481108661,,
,4935.0,1641.0,5699.0,1873.0,2237.0,2499.0,2007.0,,,,-0.786384647412522,-2.96488743026688,-1.27623164590409,,4.602859704902031,,
,4939.0,1642.0,5702.0,1875.0,2265.0,2495.0,2007.0,,,,-0.785817661616139,-2.96478301141059,-1.27629701181302,,4.2872441360840154,,
,4939.0,1642.0,5701.0,1874.0,2271.0,2494.0,2004.0,,,,-0.785182860051463,-2.96471751506546,-1.27465504677309,,3.928445088184,,
,4941.0,1643.0,5702.0,1877.0,2282.0,2494.0,1997.0,,,,-0.784874453799421,-2.96461716647629,-1.27526526801328,,3.533935322541197,,
,4941.0,1644.0,5703.0,1876.0,2288.0,2489.0,2008.0,,,,-0.785345270208172,-2.96456097724142,-1.27558286905198,,3.111512852063889,,
,4943.0,1642.0,5703.0,1877.0,2274.0,2484.0,2004.0,,,,-0.785251438741851,-2.9647075375423,-1.27470518755426,,2.6690814897682986,,
,4941.0,1638.0,5701.0,1875.0,2277.0,2478.0,2004.0,,,,-0.785147921413102,-2.96469615177343,-1.27505567437832,,2.2144173837543906,,
,4937.0,1632.0,5703.0,1873.0,2261.0,2473.0,2004.0,,,,-0.78462633093143,-2.964557623106,-1.27520445008991,,1.7549465787271397,,
,4931.0,1622.0,5700.0,1874.0,2227.0,2473.0,2009.0,,,,-0.784357412520177,-2.96463299814844,-1.27470240463834,,1.2975561037370575,,
,4927.0,1615.0,5696.0,1874.0,2221.0,2475.0,2004.0,,,,-0.784453841058463,-2.96456324163335,-1.27442755380129,,0.8484530233699238,,
,4919.0,1604.0,5696.0,1870.0,2209.0,2476.0,2010.0,,,,-0.784264786702399,-2.96457611379131,-1.2741773127128,,0.4130748527746302,,
,4916.0,1597.0,5694.0,1867.0,2194.0,2482.0,2013.0,,,,-0.783960781314299,-2.96452312797542,-1.27412026572093,,-0.003955573738952613,,
,4915.0,1593.0,5693.0,1866.0,2198.0,2481.0,2011.0,,,,-0.784347790064418,-2.96457444263752,-1.27388224629278,,-0.39884414213885844,,
,4909.0,1587.0,5693.0,1866.0,2182.0,2471.0,2019.0,,,,-0.784072236905347,-2.96468679408315,-1.2745714402901,,-0.7686230243795351,,
,4908.0,1583.0,5692.0,1863.0,2190.0,2464.0,2015.0,,,,-0.784531669965687,-2.96464961475117,-1.27503519532444,,-1.1111430035815282,,
,4902.0,1576.0,5689.0,1861.0,2214.0,2467.0,2028.0,,,,-0.784978432349453,-2.96457934854916,-1.27486638463644,,-1.4250657508672926,,
,4901.0,1577.0,5688.0,1859.0,2211.0,2475.0,2020.0,,,,-0.784858055110718,-2.96470260283003,-1.27503230497154,,-1.7098549845094748,,
,4901.0,1575.0,5690.0,1861.0,2252.0,2476.0,2013.0,,,,-0.784851300451163,-2.96461063700657,-1.27494555534139,,-1.9657604765984438,,
,4899.0,1570.0,5684.0,1855.0,2264.0,2477.0,2007.0,,,,-0.785009269666633,-2.9646561997239,-1.27554438136661,,-2.193785445238353,,
,4899.0,1568.0,5682.0,1853.0,2256.0,2490.0,1992.0,,,,-0.784811134425697,-2.96469183669021,-1.27444565919504,,-2.395626046363534,,
,4898.0,1570.0,5685.0,1854.0,2275.0,2490.0,1994.0,,,,-0.785320396013085,-2.96471583370542,-1.27509204725098,,-2.5735720498548127,,
,4901.0,1570.0,5685.0,1856.0,2276.0,2487.0,1996.0,,,,-0.784969982690403,-2.96480027968063,-1.27526201437314,,-2.7303607341422644,,
,4900.0,1572.0,5683.0,1854.0,2274.0,2490.0,2002.0,,,,-0.785259107920699,-2.96469297357016,-1.27519535743319,,-2.868981049900332,,
,4900.0,1574.0,5684.0,1855.0,2259.0,2492.0,2006.0,,,,-0.785073257898567,-2.96465598455934,-1.27526142550433,,-2.992431211895722,,
,4898.0,1572.0,5683.0,1853.0,2263.0,2493.0,2008.0,,,,-0.785303118065914,-2.96476629656164,-1.27480234351288,,-3.1034392334892473,,
,4902.0,1574.0,5684.0,1855.0,2237.0,2482.0,2005.0,,,,-0.784815415722008,-2.96466038131881,-1.27531720839221,,-3.204161811355105,,
,4902.0,1578.0,5684.0,1855.0,2232.0,2480.0,2002.0,,,,-0.784723478036541,-2.96462184545063,-1.27441671045661,,-3.295881837068967,,
,4905.0,1581.0,5686.0,1855.0,2218.0,2495.0,2004.0,,,,-0.784230120662456,-2.9646952701113,-1.27431996925459,,-3.3787284878735253,,
,4904.0,1580.0,5685.0,1855.0,2226.0,2487.0,1997.0,,,,-0.783975495983851,-2.9646481038246,-1.27488415678252,,-3.451446441721989,,
,4905.0,1583.0,5685.0,1854.0,2221.0,2477.0,1997.0,,,,-0.783811658976989,-2.96460766370519,-1.2740106499371,,-3.511242221540872,,
,4907.0,1584.0,5686.0,1855.0,2223.0,2482.0,2000.0,,,,-0.78392345952057,-2.96464797210124,-1.27443138446236,,-3.5537355701846303,,
,4908.0,1587.0,5688.0,1858.0,2224.0,2473.0,2013.0,,,,-0.783657531232911,-2.96456142799089,-1.27418695920357,,-3.5730412307887156,,
,4909.0,1589.0,5688.0,1857.0,2220.0,2472.0,2009.0,,,,-0.783490511088322,-2.9646027007797,-1.27304357228377,,-3.562000291518684,,
,4911.0,1592.0,5690.0,1857.0,2238.0,2486.0,2007.0,,,,-0.783541680500007,-2.96458605997668,-1.27413081374614,,-3.5125692414303042,,
,4913.0,1593.0,5691.0,1858.0,2268.0,2475.0,2021.0,,,,-0.783521800861326,-2.96464084572555,-1.27329902966028,,-3.4163591383043816,,
,4910.0,1592.0,5690.0,1858.0,2244.0,2476.0,2015.0,,,,-0.783273652903713,-2.96456080365711,-1.27417256128637,,-3.2652984824914375,,
,4912.0,1590.0,5688.0,1856.0,2234.0,2477.0,2016.0,,,,-0.782910511748013,-2.96457422782011,-1.27356257691544,,-3.0523742088987693,,
,4910.0,1593.0,5688.0,1856.0,2223.0,2482.0,2014.0,,,,-0.783065894580901,-2.96451983705927,-1.27362329575601,,-2.7723885168856763,,
,4911.0,1594.0,5689.0,1858.0,2208.0,2475.0,2006.0,,,,-0.782368231555158,-2.96455256545148,-1.27274680525128,,-2.42265780761856,,
,4910.0,1594.0,5690.0,1856.0,2204.0,2473.0,2006.0,,,,-0.782683971520915,-2.96455852941377,-1.27293602519814,,-2.003576415398825,,
,4912.0,1590.0,5689.0,1856.0,2213.0,2487.0,2018.0,,,,-0.782899159452557,-2.96454945566354,-1.27423295532007,,-1.518974280768793,,
,4910.0,1590.0,5685.0,1857.0,2215.0,2475.0,2020.0,,,,-0.782947696034042,-2.96453347448845,-1.27316384020581,,-0.9762152647533457,,
,4911.0,1591.0,5688.0,1859.0,2231.0,2482.0,2013.0,,,,-0.782749554890946,-2.96459633209751,-1.27296734289141,,-0.3860104176794496,,
,4911.0,1591.0,5693.0,1856.0,2236.0,2472.0,2009.0,,,,-0.782903057985961,-2.96444664165322,-1.27360713898582,,0.2380457388526046,,
,4910.0,1587.0,5690.0,1858.0,2238.0,2473.0,2002.0,,,,-0.783256557089186,-2.96450291344649,-1.27330897423244,,0.8801743881516902,,
,4911.0,1588.0,5690.0,1858.0,2226.0,2479.0,1997.0,,,,-0.783120800495222,-2.96444255226502,-1.27338333375235,,1.523278985614831,,
,4915.0,1591.0,5687.0,1858.0,2257.0,2471.0,2003.0,,,,-0.782881861955214,-2.96449646906739,-1.27323398259476,,2.149895968516199,,
,4912.0,1591.0,5689.0,1857.0,2268.0,2478.0,2009.0,,,,-0.782741793596338,-2.96457029303108,-1.27296907003974,,2.7431438649470996,,
,4914.0,1588.0,5690.0,1857.0,2250.0,2487.0,2008.0,,,,-0.783003177325789,-2.96450188647222,-1.27332841047534,,3.2875940578504044,,
,4914.0,1590.0,5688.0,1856.0,2265.0,2492.0,2005.0,,,,-0.78282053668792,-2.96445317078046,-1.27371418099212,,3.770003879014555,,
,4914.0,1592.0,5691.0,1858.0,2259.0,2487.0,2001.0,,,,-0.782737264881165,-2.96457807809785,-1.27310418425578,,4.17987405536058,,
,4918.0,1594.0,5692.0,1857.0,2255.0,2484.0,2006.0,,,,-0.782541737860675,-2.9644974433985,-1.27326751142278,,4.5098130126516125,,
,4916.0,1592.0,5689.0,1856.0,2240.0,2486.0,2011.0,,,,-0.782831274789198,-2.96450379697123,-1.27337749610092,,4.755706634712587,,
,4919.0,1594.0,5693.0,1860.0,2243.0,2478.0,2014.0,,,,-0.782530321911701,-2.9643413452057,-1.27167251927203,,4.916702372850739,,
,4921.0,1595.0,5691.0,1859.0,2234.0,2471.0,2022.0,,,,-0.782506402965482,-2.96442561623702,-1.27240950522176,,4.995021745131882,,
,4918.0,1599.0,5694.0,1859.0,2230.0,2468.0,2020.0,,,,-0.782854273629124,-2.96452732584503,-1.2726160316737,,4.99561759457824,,
,4922.0,1599.0,5695.0,1859.0,2228.0,2474.0,1989.0,,,,-0.783308872835359,-2.96449301677663,-1.27358777811863,,4.925695194320956,,
,4922.0,1598.0,5694.0,1861.0,2225.0,2476.0,1996.0,,,,-0.783563246330338,-2.96455277762,-1.27367410834252,,4.794121911801367,,
,4923.0,1602.0,5692.0,1861.0,2236.0,2469.0,1997.0,,,,-0.784214796944128,-2.96467107794765,-1.27424774337567,,4.61075918972515,,
,4926.0,1601.0,5696.0,1859.0,2239.0,2474.0,1999.0,,,,-0.784410189989979,-2.96468522041656,-1.27511458983727,,4.385761467372722,,
,4921.0,1604.0,5695.0,1860.0,2237.0,2479.0,2012.0,,,,-0.785422855149397,-2.96475022506302,-1.27573925127325,,4.128896230562047,,
,4928.0,1608.0,5696.0,1861.0,2225.0,2469.0,2005.0,,,,-0.785467505076797,-2.96477185328108,-1.27621471690197,,3.848943796180392,,
,4930.0,1608.0,5695.0,1861.0,2244.0,2475.0,2004.0,,,,-0.785613914001388,-2.96480430039267,-1.27651611686693,,3.5532315100543963,,
,4930.0,1612.0,5695.0,1864.0,2246.0,2471.0,2008.0,,,,-0.786223143002704,-2.964863283245,-1.27639845562855,,3.247343857011273,,
,4931.0,1612.0,5696.0,1862.0,2269.0,2461.0,2010.0,,,,-0.786490538123086,-2.96479242333691,-1.27724611123413,,2.935029429277561,,
,4934.0,1613.0,5696.0,1864.0,2257.0,2475.0,2004.0,,,,-0.786430016805863,-2.9648457796017,-1.27741516094482,,2.618301471998725,,
,4934.0,1614.0,5696.0,1863.0,2256.0,2475.0,1994.0,,,,-0.786876028729899,-2.96488712945769,-1.27723657170873,,2.2977051719836052,,
,4936.0,1616.0,5699.0,1865.0,2253.0,2476.0,1996.0,,,,-0.787038408291444,-2.96488683433067,-1.27666243114943,,1.972706218712516,,
,4936.0,1618.0,5699.0,1866.0,2235.0,2476.0,2003.0,,,,-0.78653649795842,-2.96491373158986,-1.27628982407085,,1.6421446563249493,,
,4935.0,1616.0,5695.0,1865.0,2231.0,2473.0,1995.0,,,,-0.786367581108073,-2.96490755817767,-1.27704544405707,,1.3046968843686158,,
,4939.0,1621.0,5699.0,1868.0,2217.0,2474.0,1996.0,,,,-0.78625733942805,-2.96490957047999,-1.27657067522521,,0.9592959349452528,,
,4941.0,1624.0,5700.0,1869.0,2229.0,2482.0,2000.0,,,,-0.786371788854028,-2.96482356573974,-1.27666272945685,,0.6054733641417198,,
,4943.0,1624.0,5701.0,1868.0,2234.0,2487.0,2001.0,,,,-0.785925482748055,-2.96482688770316,-1.27579268224947,,0.24360185279394528,,
,4941.0,1622.0,5702.0,1867.0,2239.0,2495.0,2003.0,,,,-0.786475492343597,-2.96482637994065,-1.27594404002862,,-0.12496755447094801,,
2025-06-30 19:45:02,4947.0,1629.0,5702.0,1869.0,2241.0,2490.0,2000.0,,,2025/06/30 07:45:02 PM,-0.786068964764684,-2.96476337484116,-1.27637090200914,,-0.49786837907384335,,
,4949.0,1627.0,5704.0,1870.0,2270.0,2495.0,2003.0,,,,-0.785909738042045,-2.96476146786852,-1.27558558943951,,-0.87177040455417,,
,4949.0,1628.0,5701.0,1871.0,2255.0,2488.0,2001.0,,,,-0.786086868667846,-2.9649134564508,-1.27560106179834,,-1.2425078637180915,,
,4947.0,1630.0,5702.0,1870.0,2257.0,2491.0,2011.0,,,,-0.78609182627059,-2.96481415157625,-1.2766912299531,,-1.6052749164152866,,
,4947.0,1627.0,5703.0,1871.0,2276.0,2505.0,2018.0,,,,-0.785991869272787,-2.96483362031479,-1.27555407868917,,-1.954883008004984,,
,4949.0,1630.0,5701.0,1871.0,2249.0,2481.0,2013.0,,,,-0.785750884759705,-2.9647234089023,-1.27579037400793,,-2.286075410570521,,
,4943.0,1622.0,5700.0,1869.0,2245.0,2475.0,2022.0,,,,-0.785894262864095,-2.96479749483611,-1.27535225051491,,-2.593889460929941,,
,4941.0,1617.0,5699.0,1867.0,2223.0,2468.0,2020.0,,,,-0.785713617164823,-2.96471958364391,-1.27519072807058,,-2.8740466927837574,,
,4938.0,1607.0,5697.0,1867.0,2207.0,2470.0,2033.0,,,,-0.785361771946734,-2.96465869631902,-1.2758783595823,,-3.12333759679169,,
,4934.0,1601.0,5699.0,1865.0,2198.0,2467.0,2016.0,,,,-0.785374368337926,-2.96461960982379,-1.27477332544786,,-3.3399554839139562,,
,4929.0,1595.0,5695.0,1864.0,2203.0,2461.0,2012.0,,,,-0.784866463907626,-2.96453659128388,-1.27496323471619,,-3.5237279444998966,,
,4926.0,1587.0,5693.0,1859.0,2202.0,2457.0,2012.0,,,,-0.78482386586808,-2.96482074848307,-1.27543998254763,,-3.6761983956497146,,
,4923.0,1583.0,5695.0,1860.0,2214.0,2465.0,1995.0,,,,-0.784889876251442,-2.96490164214077,-1.27560933144724,,-3.800525007894927,,
,4922.0,1580.0,5691.0,1859.0,2217.0,2464.0,2001.0,,,,-0.785084500331009,-2.9647204386888,-1.27436838663025,,-3.9011877544504423,,
,4920.0,1575.0,5690.0,1858.0,2220.0,2469.0,2009.0,,,,-0.785304288514345,-2.96462479292087,-1.27570425215811,,-3.9835220506806195,,
,4917.0,1571.0,5688.0,1856.0,2233.0,2495.0,2001.0,,,,-0.78494139853637,-2.96477988273732,-1.27549946554413,,-4.053123848183316,,
,4914.0,1570.0,5685.0,1854.0,2285.0,2486.0,1999.0,,,,-0.785533167277963,-2.96476132928505,-1.27534625225344,,-4.115190856984755,,
,4916.0,1568.0,5687.0,1855.0,2269.0,2496.0,1997.0,,,,-0.785174405396758,-2.96476996122263,-1.27532598707524,,-4.173874457947395,,
,4917.0,1569.0,5687.0,1854.0,2265.0,2486.0,1999.0,,,,-0.785023263112445,-2.96474534283985,-1.27516805257318,,-4.2317159456807225,,
,4913.0,1567.0,5684.0,1852.0,2280.0,2491.0,2007.0,,,,-0.78529025506968,-2.96474771762986,-1.27574290004154,,-4.28923006042535,,
,4915.0,1567.0,5685.0,1850.0,2284.0,2487.0,2006.0,,,,-0.785029493485738,-2.96469006125544,-1.27588252350573,,-4.34468075897385,,
,4919.0,1571.0,5687.0,1851.0,2252.0,2495.0,2001.0,,,,-0.784765745495492,-2.96473119446414,-1.275328277816,,-4.3940721614467035,,
,4919.0,1570.0,5685.0,1849.0,2260.0,2496.0,2001.0,,,,-0.78524426074812,-2.96481641598623,-1.27540106894868,,-4.4313549430112875,,
,4919.0,1573.0,5682.0,1851.0,2228.0,2508.0,2003.0,,,,-0.784573328113504,-2.96472449560796,-1.27481552865677,,-4.448827745310413,,
,4920.0,1574.0,5686.0,1850.0,2251.0,2490.0,2001.0,,,,-0.785065634479939,-2.96470201113201,-1.27550944437965,,-4.437696341048891,,
,4919.0,1577.0,5686.0,1853.0,2231.0,2495.0,1996.0,,,,-0.78498217193796,-2.96470770872449,-1.27463988479364,,-4.388741594725236,,
,4921.0,1576.0,5686.0,1852.0,2228.0,2491.0,1999.0,,,,-0.78442836987631,-2.96465024531865,-1.27460897046903,,-4.293041198380021,,
,4924.0,1581.0,5690.0,1853.0,2251.0,2489.0,2005.0,,,,-0.784205567401952,-2.96471526174453,-1.27435312575211,,-4.142689226836353,,
,4928.0,1583.0,5686.0,1853.0,2259.0,2486.0,2002.0,,,,-0.784172927177754,-2.96473582741277,-1.27403418249341,,-3.9314606956531173,,
,4928.0,1587.0,5691.0,1855.0,2237.0,2485.0,2002.0,,,,-0.783347676064231,-2.96464862323543,-1.2746324793581,,-3.6553743473580775,,
,4933.0,1591.0,5690.0,1856.0,2238.0,2484.0,2004.0,,,,-0.783873030354129,-2.9645803704868,-1.2739648716665,,-3.313114650573762,,
,4934.0,1592.0,5693.0,1856.0,2239.0,2484.0,2007.0,,,,-0.783923830056972,-2.96455297931997,-1.27455603764184,,-2.9062826335365863,,
,4934.0,1591.0,5690.0,1852.0,2239.0,2483.0,2005.0,,,,-0.783876215493225,-2.96458649382412,-1.2745708977193,,-2.4394549768936047,,
,4935.0,1595.0,5691.0,1855.0,2229.0,2481.0,2024.0,,,,-0.783072419929017,-2.96454695427927,-1.27416895090931,,-1.920042999613777,,
,4936.0,1596.0,5694.0,1856.0,2218.0,2477.0,2016.0,,,,-0.783205257154996,-2.96462847740973,-1.27403206545666,,-1.3579583179988746,,
,4937.0,1596.0,5694.0,1859.0,2210.0,2477.0,2018.0,,,,-0.782950884076204,-2.96452932551426,-1.27377485477971,,-0.765108719780832,,
,4935.0,1595.0,5694.0,1853.0,2215.0,2470.0,2015.0,,,,-0.782729870708481,-2.96460800980294,-1.27349669393493,,-0.1547637891318763,,
,4937.0,1599.0,5695.0,1856.0,2236.0,2471.0,2017.0,,,,-0.783318844257831,-2.96452973950362,-1.27432491762702,,0.459157148424876,,
,4937.0,1594.0,5695.0,1856.0,2228.0,2464.0,2008.0,,,,-0.782863901700793,-2.96449942554939,-1.27351288768367,,1.0628139210344172,,
,4939.0,1594.0,5693.0,1856.0,2226.0,2472.0,2010.0,,,,-0.782517956304358,-2.96466077481184,-1.27345539246229,,1.643128488750129,,
,4936.0,1594.0,5692.0,1856.0,2241.0,2475.0,2010.0,,,,-0.782153657961221,-2.96448949936057,-1.27282060694735,,2.188364728867172,,
,4939.0,1594.0,5694.0,1856.0,2234.0,2467.0,2002.0,,,,-0.782504866537646,-2.96460121955942,-1.27370704143718,,2.6885606456580633,,
,4937.0,1595.0,5695.0,1857.0,2226.0,2474.0,1998.0,,,,-0.782816279221246,-2.96448275028513,-1.27362075868878,,3.135787798457215,,
,4940.0,1593.0,5692.0,1855.0,2212.0,2484.0,2001.0,,,,-0.7828068799238,-2.96448375161694,-1.2727425477142,,3.5242358423059312,,
,4941.0,1595.0,5695.0,1856.0,2227.0,2490.0,2001.0,,,,-0.782022662756056,-2.96450979459846,-1.27272733709261,,3.8501432849601667,,
,4939.0,1594.0,5693.0,1858.0,2232.0,2489.0,2007.0,,,,-0.781965151734402,-2.9644131967709,-1.27275113417476,,4.111614065285546,,
,4941.0,1594.0,5694.0,1856.0,2259.0,2496.0,2001.0,,,,-0.782209691289279,-2.96445299882009,-1.27285815691785,,4.308369194721222,,
,4942.0,1595.0,5695.0,1857.0,2249.0,2495.0,2001.0,,,,-0.782496562612358,-2.96449686169612,-1.2733133766301,,4.441481726164554,,
,4943.0,1596.0,5695.0,1857.0,2249.0,2486.0,2002.0,,,,-0.782297594909304,-2.96448967003057,-1.27272187667149,,4.5131328167366345,,
,4946.0,1597.0,5692.0,1858.0,2266.0,2487.0,2014.0,,,,-0.782148203480505,-2.96452451427812,-1.27252933441396,,4.526409932597792,,
,4943.0,1596.0,5694.0,1855.0,2264.0,2485.0,2013.0,,,,-0.781883417675872,-2.96450057561742,-1.27310611663911,,4.48514995253713,,
,4945.0,1598.0,5694.0,1859.0,2243.0,2488.0,2011.0,,,,-0.781915510166956,-2.96448571801708,-1.27272103806755,,4.393814926503964,,
,4945.0,1601.0,5695.0,1857.0,2235.0,2488.0,2012.0,,,,-0.781981035635328,-2.96449600434138,-1.27328449737966,,4.2573801498745265,,
,4946.0,1602.0,5698.0,1859.0,2250.0,2481.0,2010.0,,,,-0.782373630175236,-2.9645269297453,-1.27280537814353,,4.081214395306887,,
,4952.0,1605.0,5696.0,1860.0,2253.0,2471.0,2005.0,,,,-0.782590141822393,-2.96458298760939,-1.27242506090539,,3.8709396664408686,,
,4951.0,1606.0,5698.0,1859.0,2247.0,2473.0,2005.0,,,,-0.783356024451148,-2.96456733693448,-1.2733736922737,,3.63226975787464,,
,4951.0,1606.0,5699.0,1861.0,2218.0,2483.0,2007.0,,,,-0.783751573530165,-2.96461818275976,-1.27323161780948,,3.370838845473073,,
,4952.0,1608.0,5696.0,1861.0,2234.0,2484.0,2015.0,,,,-0.78390347073248,-2.9647460402606,-1.27486038995373,,3.0920390023690785,,
,4955.0,1610.0,5701.0,1862.0,2230.0,2483.0,2001.0,,,,-0.784840926492609,-2.96464134498263,-1.27563860105123,,2.8008866277384694,,
,4957.0,1613.0,5701.0,1864.0,2218.0,2476.0,1999.0,,,,-0.785768248322259,-2.96481088122224,-1.2754865587545,,2.501932508658449,,
,4959.0,1614.0,5701.0,1862.0,2228.0,2471.0,2000.0,,,,-0.785509327168122,-2.9648077122662,-1.27639858423011,,2.1992205452903466,,
,4961.0,1615.0,5701.0,1862.0,2237.0,2473.0,2003.0,,,,-0.786371201482573,-2.96481496913635,-1.27546223643351,,1.8962889764813826,,
,4960.0,1617.0,5701.0,1864.0,2240.0,2471.0,2021.0,,,,-0.786563785573357,-2.96493135330313,-1.27642745805741,,1.5961987496420393,,
,4964.0,1619.0,5703.0,1865.0,2249.0,2477.0,2018.0,,,,-0.786517219012153,-2.96483824432142,-1.27674061763098,,1.3015696450793584,,
,4966.0,1619.0,5703.0,1864.0,2253.0,2467.0,2008.0,,,,-0.787197852939467,-2.96496730879153,-1.27659309976453,,1.0146074112292462,,
,4965.0,1619.0,5702.0,1862.0,2232.0,2493.0,2005.0,,,,-0.787107876545293,-2.96501773698472,-1.27681192364522,,0.7371136001586609,,
,4968.0,1623.0,5702.0,1868.0,2261.0,2495.0,2016.0,,,,-0.787206837906808,-2.96493779932918,-1.27794027727813,,0.4704808312143077,,
,4966.0,1624.0,5703.0,1866.0,2270.0,2495.0,2010.0,,,,-0.786792286736186,-2.96494507692346,-1.27679064855915,,0.21568554445692054,,
,4969.0,1626.0,5703.0,1868.0,2251.0,2482.0,2001.0,,,,-0.786856875627902,-2.96493609809161,-1.27658127908583,,-0.026705503984598273,,
,4971.0,1628.0,5703.0,1865.0,2229.0,2480.0,2005.0,,,,-0.786325411246045,-2.96497263415805,-1.27685347569209,,-0.25650076282829654,,
,4974.0,1628.0,5705.0,1869.0,2235.0,2482.0,2007.0,,,,-0.786598871135534,-2.96491921044049,-1.27656897323411,,-0.47381427504927337,,
,4975.0,1631.0,5708.0,1870.0,2220.0,2477.0,1998.0,,,,-0.786434908035329,-2.96500085704487,-1.27619106881982,,-0.6789637888767116,,
,4977.0,1637.0,5706.0,1869.0,2239.0,2475.0,1999.0,,,,-0.786524229917558,-2.96486037020178,-1.27688523181641,,-0.8723496663298194,,
,4979.0,1634.0,5706.0,1869.0,2274.0,2491.0,1995.0,,,,-0.785663456845069,-2.96489379801703,-1.27576403441556,,-1.0543351569712023,,
,4980.0,1638.0,5709.0,1871.0,2256.0,2489.0,1994.0,,,,-0.786045665139412,-2.96484068674799,-1.276507066545,,-1.2251510093747535,,
,4983.0,1640.0,5707.0,1871.0,2273.0,2489.0,2001.0,,,,-0.786222286829395,-2.96480056659237,-1.27607634606614,,-1.384843932204636,,
,4982.0,1637.0,5708.0,1873.0,2271.0,2496.0,2013.0,,,,-0.785851911935177,-2.96478807161008,-1.27585280847031,,-1.53327997282065,,
,4979.0,1637.0,5708.0,1870.0,2271.0,2492.0,2021.0,,,,-0.785813698102071,-2.96484259329402,-1.27587787836052,,-1.670202478655729,,
,4983.0,1634.0,5708.0,1871.0,2260.0,2481.0,2008.0,,,,-0.785575992085186,-2.9648176914807,-1.27593212477618,,-1.795332669284795,,
,4979.0,1631.0,5709.0,1870.0,2260.0,2496.0,2015.0,,,,-0.785447762623207,-2.9647471432696,-1.27579978683148,,-1.908491756337662,,
,4979.0,1622.0,5706.0,1869.0,2247.0,2491.0,2011.0,,,,-0.78537278444603,-2.964840033492,-1.27529179830972,,-2.0097188966764503,,
,4968.0,1610.0,5701.0,1868.0,2213.0,2476.0,2020.0,,,,-0.78508432677965,-2.96474776073077,-1.27535608924191,,-2.099359649754724,,
,4964.0,1599.0,5701.0,1865.0,2189.0,2476.0,2020.0,,,,-0.785336285145481,-2.96481275823169,-1.27583758793042,,-2.178104669156851,,
,4962.0,1596.0,5698.0,1866.0,2187.0,2476.0,2024.0,,,,-0.785589886533419,-2.96477102275982,-1.27532060748873,,-2.246966957110203,,
,4956.0,1586.0,5699.0,1863.0,2193.0,2478.0,2022.0,,,,-0.785590161527533,-2.96488535648831,-1.27573161441339,,-2.307196203185984,,
,4953.0,1581.0,5695.0,1861.0,2208.0,2477.0,2014.0,,,,-0.785684787689448,-2.9647495109871,-1.27603448898211,,-2.3601382963969675,,
,4949.0,1575.0,5693.0,1859.0,2198.0,2460.0,2012.0,,,,-0.785935606328237,-2.96471912969566,-1.27593260349928,,-2.4070555218622705,,
,4947.0,1572.0,5694.0,1857.0,2220.0,2469.0,2013.0,,,,-0.786016474674378,-2.96475087745039,-1.27639719064184,,-2.4489276924956864,,
,4948.0,1569.0,5690.0,1856.0,2232.0,2482.0,2019.0,,,,-0.785827152011322,-2.96489588743718,-1.27641359363582,,-2.4862564036619266,,
,4945.0,1567.0,5688.0,1853.0,2233.0,2482.0,2009.0,,,,-0.786128479834016,-2.96480742685093,-1.27637533644868,,-2.518893667533501,,
,4942.0,1562.0,5685.0,1849.0,2235.0,2489.0,2006.0,,,,-0.786266047969862,-2.96485312035726,-1.27655694584038,,-2.545912722272871,,
,4946.0,1563.0,5682.0,1852.0,2244.0,2502.0,2013.0,,,,-0.786336039053602,-2.96472144807536,-1.27635841699607,,-2.565533878590677,,
,4944.0,1563.0,5685.0,1849.0,2242.0,2498.0,2002.0,,,,-0.786410579163182,-2.96482360492986,-1.2763649432084,,-2.575113334362631,,
,4945.0,1561.0,5685.0,1847.0,2251.0,2492.0,1999.0,,,,-0.78668937695991,-2.9648710544521,-1.27664893663517,,-2.5711992010118974,,
,4942.0,1564.0,5682.0,1847.0,2261.0,2475.0,2002.0,,,,-0.786492000954251,-2.96491062654874,-1.27673052592079,,-2.5496568812275875,,
,4945.0,1565.0,5681.0,1847.0,2269.0,2480.0,1994.0,,,,-0.78651070715951,-2.96487451364257,-1.27727839239225,,-2.50586439980767,,
,4947.0,1565.0,5684.0,1848.0,2267.0,2491.0,1996.0,,,,-0.7868865426608,-2.9649758548829,-1.27735924978498,,-2.434975377990885,,
,4949.0,1566.0,5680.0,1845.0,2271.0,2495.0,2001.0,,,,-0.786754568570282,-2.96480889287174,-1.27758127554112,,-2.3322415571346458,,
,4946.0,1567.0,5682.0,1847.0,2281.0,2493.0,2012.0,,,,-0.787180238250702,-2.96477826594653,-1.27654354257402,,-2.1933782474102888,,
,4952.0,1568.0,5684.0,1848.0,2245.0,2486.0,2005.0,,,,-0.786557603241061,-2.9649020678197,-1.27665697389523,,-2.014946528979722,,
,4953.0,1571.0,5685.0,1847.0,2230.0,2474.0,2010.0,,,,-0.786834091621609,-2.96486466705238,-1.2759768002773,,-1.7947178221632725,,
,4954.0,1574.0,5686.0,1850.0,2219.0,2472.0,2009.0,,,,-0.786719928091772,-2.96476267895827,-1.27676839693816,,-1.5319817279061998,,
,4953.0,1574.0,5686.0,1848.0,2236.0,2476.0,2020.0,,,,-0.786797506240846,-2.96474353358274,-1.27720412770492,,-1.2277585093299408,,
,4956.0,1578.0,5687.0,1849.0,2243.0,2484.0,2029.0,,,,-0.786875805708747,-2.96466015024155,-1.27683002015556,,-0.8848842302453709,,
,4958.0,1580.0,5689.0,1851.0,2225.0,2476.0,2010.0,,,,-0.787115976837395,-2.96487746790303,-1.27711426098402,,-0.5079494015081172,,
,4958.0,1578.0,5683.0,1848.0,2208.0,2468.0,2006.0,,,,-0.786791173827173,-2.96472339136037,-1.2763596861402,,-0.10309002248217904,,
,4958.0,1581.0,5689.0,1848.0,2221.0,2471.0,2004.0,,,,-0.786384939826007,-2.96477933559961,-1.27641657957926,,0.3223489949289127,,
,4960.0,1583.0,5688.0,1848.0,2223.0,2475.0,2006.0,,,,-0.786005191450558,-2.96473866363331,-1.27685535823868,,0.7602375624136696,,
,4962.0,1582.0,5688.0,1852.0,2236.0,2467.0,2006.0,,,,-0.786012788759589,-2.96466072447751,-1.27619671708801,,1.202115873630928,,
,4962.0,1586.0,5689.0,1849.0,2230.0,2460.0,2007.0,,,,-0.785810654918027,-2.96475630189211,-1.27615179001592,,1.6396209665362367,,
,4961.0,1583.0,5688.0,1848.0,2241.0,2464.0,2008.0,,,,-0.785352899798015,-2.9647400268391,-1.27594669329902,,2.064830360541717,,
,4962.0,1585.0,5689.0,1850.0,2233.0,2474.0,2012.0,,,,-0.785308957466734,-2.96459328888075,-1.27636392954837,,2.470486182099203,,
,4964.0,1582.0,5690.0,1853.0,2221.0,2468.0,2010.0,,,,-0.785928830218544,-2.96468828295402,-1.27559653427062,,2.8500882542144352,,
,4965.0,1585.0,5688.0,1851.0,2210.0,2471.0,2014.0,,,,-0.785141497791573,-2.96479377808268,-1.27583407881409,,3.1978723916126026,,
,4965.0,1583.0,5686.0,1849.0,2236.0,2481.0,2000.0,,,,-0.785348713562182,-2.96464961282356,-1.27563952127317,,3.5087144157589996,,
,4964.0,1584.0,5689.0,1851.0,2239.0,2470.0,2002.0,,,,-0.785843209130599,-2.9648380814785,-1.2759166960516,,3.7780149310034172,,
,4965.0,1583.0,5689.0,1850.0,2235.0,2484.0,2004.0,,,,-0.786161021030956,-2.96470166949574,-1.2757276537896,,4.001620886319422,,
,4964.0,1581.0,5689.0,1851.0,2236.0,2495.0,2007.0,,,,-0.786071483802335,-2.96469792954907,-1.27598348674963,,4.1758277313984795,,
,4965.0,1582.0,5687.0,1850.0,2238.0,2475.0,2002.0,,,,-0.786209161791538,-2.96477472444912,-1.27583271724893,,4.297484038211075,,
,4967.0,1583.0,5690.0,1850.0,2231.0,2475.0,2005.0,,,,-0.785898946757744,-2.96483055049542,-1.27614065643435,,4.364193367102112,,
,4970.0,1584.0,5690.0,1852.0,2230.0,2482.0,2000.0,,,,-0.786563949532415,-2.96478282923787,-1.2762410426811,,4.374581002458644,,
,4967.0,1584.0,5690.0,1852.0,2231.0,2479.0,1999.0,,,,-0.78610155728763,-2.96470335285471,-1.27684272000161,,4.328571823744441,,
,4967.0,1585.0,5690.0,1852.0,2254.0,2465.0,2013.0,,,,-0.786422709250741,-2.96472509809522,-1.27569643628641,,4.227615644168821,,
,4969.0,1584.0,5690.0,1849.0,2240.0,2464.0,2002.0,,,,-0.786122584801362,-2.96463098948436,-1.27579778303557,,4.07480115799478,,
,4970.0,1587.0,5691.0,1852.0,2230.0,2469.0,2004.0,,,,-0.786291046919668,-2.96480461446735,-1.27541874887297,,3.8748186168221035,,
,4972.0,1590.0,5694.0,1852.0,2225.0,2473.0,2005.0,,,,-0.785933047457996,-2.96469701381138,-1.27559536834555,,3.6337598089723397,,
,4974.0,1587.0,5692.0,1850.0,2233.0,2483.0,2021.0,,,,-0.785844694358059,-2.96475375624096,-1.27586048740147,,3.3587742487863843,,
,4973.0,1589.0,5691.0,1850.0,2233.0,2487.0,2020.0,,,,-0.785866290622179,-2.96476609321463,-1.27586309625739,,3.057624974999291,,
2025-06-30 19:45:03,4977.0,1592.0,5695.0,1852.0,2231.0,2484.0,2007.0,,,2025/06/30 07:45:03 PM,-0.786037313322557,-2.96476819650393,-1.27635652664311,,2.738201372810055,,
,4976.0,1595.0,5696.0,1853.0,2230.0,2476.0,2006.0,,,,-0.786433143335661,-2.9647099864846,-1.27584059426864,,2.408049461663861,,
,4977.0,1596.0,5694.0,1853.0,2229.0,2496.0,2020.0,,,,-0.786714709501221,-2.96483797651148,-1.27585483067908,,2.073973803641049,,
,4978.0,1595.0,5694.0,1853.0,2225.0,2483.0,2016.0,,,,-0.787433521404089,-2.96481194638745,-1.27666874054084,,1.7417513189198452,,
,4982.0,1598.0,5695.0,1855.0,2204.0,2485.0,2003.0,,,,-0.788058368747814,-2.96505957111255,-1.27703155205999,,1.4159778374394825,,
,4982.0,1599.0,5697.0,1855.0,2216.0,2481.0,2003.0,,,,-0.788661358379149,-2.96492655909976,-1.27800447104139,,1.1000466242254832,,
,4982.0,1602.0,5698.0,1855.0,2217.0,2476.0,2004.0,,,,-0.78917475615569,-2.9651275702137,-1.27841860077569,,0.7962390337797273,,
,4985.0,1603.0,5696.0,1857.0,2223.0,2470.0,2010.0,,,,-0.789347039889016,-2.96505471573586,-1.27931933317329,,0.5058949800144837,,
,4986.0,1605.0,5698.0,1858.0,2238.0,2465.0,2007.0,,,,-0.790224238357436,-2.96513145688113,-1.28003550814414,,0.22962700509000458,,
,4990.0,1609.0,5701.0,1859.0,2236.0,2473.0,2013.0,,,,-0.790769762223106,-2.96525447124974,-1.28014534248368,,-0.03245445373196545,,
,4990.0,1610.0,5699.0,1859.0,2251.0,2475.0,2009.0,,,,-0.790769184991266,-2.96518330121211,-1.28112609940218,,-0.28052858714773693,,
,4992.0,1610.0,5697.0,1855.0,2271.0,2489.0,2006.0,,,,-0.79126293916861,-2.96517045416996,-1.28098788786872,,-0.5148792053590983,,
,4992.0,1612.0,5698.0,1856.0,2252.0,2481.0,2005.0,,,,-0.791266297081639,-2.96522533426562,-1.28100462053356,,-0.7357441684827588,,
,4995.0,1616.0,5699.0,1859.0,2246.0,2473.0,2008.0,,,,-0.791173038752431,-2.96520177038,-1.28032613191874,,-0.9432011210088825,,
,4999.0,1618.0,5701.0,1861.0,2248.0,2476.0,2006.0,,,,-0.791287283629722,-2.96516581092936,-1.28053095330282,,-1.1370892898357559,,
,4996.0,1618.0,5702.0,1860.0,2248.0,2487.0,2006.0,,,,-0.791235794907211,-2.96522606260351,-1.28024329586112,,-1.316967998341933,,
,4997.0,1618.0,5700.0,1861.0,2232.0,2489.0,2012.0,,,,-0.791431320641141,-2.96523820418788,-1.28074201942351,,-1.48211529907867,,
,5003.0,1622.0,5703.0,1861.0,2246.0,2496.0,2008.0,,,,-0.791154156695909,-2.96515381479523,-1.27975252595959,,-1.6315723839772163,,
,5002.0,1622.0,5703.0,1864.0,2238.0,2487.0,2012.0,,,,-0.791044179235303,-2.96512339543547,-1.2798172734894,,-1.7642388037648562,,
,5003.0,1623.0,5705.0,1861.0,2264.0,2482.0,2022.0,,,,-0.790591103315267,-2.96517897557318,-1.28084246078519,,-1.8790187823043074,,
,5002.0,1624.0,5704.0,1864.0,2258.0,2481.0,2012.0,,,,-0.7901431111855,-2.96510280283319,-1.27890866178725,,-1.975010362296132,,
,5006.0,1628.0,5707.0,1864.0,2264.0,2482.0,2013.0,,,,-0.78984753751415,-2.96503539531368,-1.27889054159703,,-2.0517185838620353,,
,5009.0,1630.0,5704.0,1866.0,2282.0,2483.0,2008.0,,,,-0.789687785080479,-2.96516235190268,-1.27912702654922,,-2.109264344303346,,
,5006.0,1627.0,5704.0,1863.0,2273.0,2484.0,1995.0,,,,-0.789571282996867,-2.96511760298718,-1.27981930395964,,-2.148555131605348,,
,5009.0,1624.0,5707.0,1864.0,2276.0,2481.0,2006.0,,,,-0.789174740877386,-2.96505635041806,-1.27875249552911,,-2.171384497789513,,
,5006.0,1622.0,5704.0,1866.0,2262.0,2471.0,2000.0,,,,-0.789170291341002,-2.96500710895844,-1.27869073143453,,-2.1804343557263266,,
,5002.0,1614.0,5702.0,1863.0,2267.0,2469.0,1999.0,,,,-0.788759020498697,-2.96500558232406,-1.27811204785653,,-2.179166851968025,,
,4995.0,1604.0,5701.0,1861.0,2232.0,2469.0,1990.0,,,,-0.788436084458527,-2.96503522087836,-1.27789266490632,,-2.171608264850288,,
,4991.0,1595.0,5696.0,1859.0,2215.0,2471.0,2005.0,,,,-0.78834280990317,-2.96497810841716,-1.27778085388067,,-2.162042831371107,,
,4989.0,1586.0,5698.0,1858.0,2224.0,2480.0,2011.0,,,,-0.788890327051473,-2.96505084692749,-1.27767236782982,,-2.154646581651445,,
,4982.0,1578.0,5694.0,1857.0,2219.0,2477.0,2013.0,,,,-0.789012538827058,-2.96502789187092,-1.27819862732248,,-2.153098318429385,,
,4979.0,1571.0,5693.0,1854.0,2222.0,2474.0,2014.0,,,,-0.788848756472645,-2.9649607316713,-1.27794123964578,,-2.160206308171093,,
,4975.0,1564.0,5691.0,1852.0,2212.0,2469.0,2017.0,,,,-0.788948494457529,-2.96494581899827,-1.27772253336088,,-2.1775854888965243,,
,4970.0,1560.0,5687.0,1851.0,2237.0,2480.0,2009.0,,,,-0.78859053932431,-2.96503416775702,-1.27826997908845,,-2.205412299000531,,
,4968.0,1555.0,5685.0,1848.0,2217.0,2484.0,2008.0,,,,-0.789183345504026,-2.96506582370546,-1.27896055074943,,-2.2422746669703355,,
,4968.0,1554.0,5683.0,1848.0,2213.0,2476.0,2004.0,,,,-0.789011104644723,-2.96497196018506,-1.27880648341582,,-2.2851256603964814,,
,4963.0,1548.0,5678.0,1841.0,2233.0,2474.0,1998.0,,,,-0.789537807108337,-2.96512353646956,-1.27882115801464,,-2.329342492125015,,
,4964.0,1547.0,5677.0,1841.0,2230.0,2477.0,2002.0,,,,-0.789629021767541,-2.96520899582061,-1.27854575760414,,-2.368888473118458,,
,4967.0,1548.0,5676.0,1841.0,2233.0,2477.0,1994.0,,,,-0.789798244437812,-2.96499168487295,-1.27894199394269,,-2.39657336364557,,
,4965.0,1545.0,5673.0,1840.0,2244.0,2478.0,1996.0,,,,-0.79021628664917,-2.96495661137035,-1.27941588552535,,-2.4044059580656976,,
,4964.0,1543.0,5673.0,1838.0,2258.0,2482.0,2000.0,,,,-0.79065663576708,-2.96504823977285,-1.27889906119697,,-2.3840301081826603,,
,4966.0,1544.0,5673.0,1838.0,2241.0,2474.0,1999.0,,,,-0.790633108388816,-2.96508485284399,-1.27912454884375,,-2.3272307770547465,,
,4966.0,1547.0,5673.0,1836.0,2257.0,2484.0,2000.0,,,,-0.790483609602648,-2.96508778620719,-1.27947118110378,,-2.226489963623343,,
,4966.0,1546.0,5673.0,1838.0,2265.0,2486.0,2004.0,,,,-0.790511227450623,-2.96512191921869,-1.27848643887338,,-2.075563942329375,,
,4966.0,1544.0,5670.0,1836.0,2263.0,2483.0,2005.0,,,,-0.790444812909873,-2.96510409720956,-1.27892955217504,,-1.8700442574201062,,
,4967.0,1546.0,5671.0,1836.0,2240.0,2493.0,2005.0,,,,-0.789674038285421,-2.9650292013054,-1.27843169424039,,-1.607857002793072,,
,4969.0,1549.0,5672.0,1838.0,2241.0,2478.0,2003.0,,,,-0.789441585333425,-2.96506396210818,-1.27792696451277,,-1.2896504096871575,,
,4969.0,1549.0,5672.0,1837.0,2245.0,2469.0,2004.0,,,,-0.789064726534556,-2.96504995585569,-1.2788034240872,,-0.9190219252757358,,
,4971.0,1551.0,5669.0,1836.0,2207.0,2465.0,2017.0,,,,-0.789356454326997,-2.96508041915551,-1.27856430995197,,-0.5025442718986816,,
,4971.0,1552.0,5672.0,1835.0,2225.0,2480.0,2003.0,,,,-0.788951405560454,-2.96506707800224,-1.27747744905057,,-0.049565887078648736,,
,4973.0,1555.0,5674.0,1836.0,2236.0,2475.0,2010.0,,,,-0.789323856908858,-2.96496012254186,-1.27772066020285,,0.4282160431389975,,
,4974.0,1556.0,5675.0,1838.0,2229.0,2471.0,2014.0,,,,-0.789273044977207,-2.96492931983263,-1.27822758389808,,0.9173845920014435,,
,4974.0,1557.0,5673.0,1837.0,2245.0,2478.0,2003.0,,,,-0.789063938213806,-2.9650181000433,-1.27811665210812,,1.4035820440737399,,
,4976.0,1560.0,5675.0,1837.0,2234.0,2478.0,2017.0,,,,-0.788860204418326,-2.96500342776795,-1.27808903643039,,1.8723660943203544,,
,4978.0,1561.0,5675.0,1839.0,2235.0,2486.0,2013.0,,,,-0.788996000867771,-2.96491320218959,-1.27802706794897,,2.310060617995036,,
,4979.0,1563.0,5678.0,1838.0,2228.0,2497.0,2012.0,,,,-0.788800790972741,-2.96501130870744,-1.27726162437537,,2.7045208303260266,,
,4976.0,1559.0,5674.0,1835.0,2227.0,2471.0,2011.0,,,,-0.789021895153495,-2.96503841046784,-1.27835675570911,,3.045746703973887,,
,4977.0,1562.0,5675.0,1838.0,2227.0,2471.0,2012.0,,,,-0.788674350195666,-2.96496608264672,-1.27833860607896,,3.326300955532773,,
,4980.0,1561.0,5677.0,1839.0,2206.0,2476.0,2004.0,,,,-0.789029827362918,-2.96492425071736,-1.27721431136113,,3.541514086374431,,
,4982.0,1565.0,5677.0,1838.0,2206.0,2473.0,2003.0,,,,-0.78857194714165,-2.9649958048222,-1.27717325857537,,3.6894838078218415,,
,4980.0,1561.0,5677.0,1836.0,2204.0,2466.0,2011.0,,,,-0.788322225011396,-2.96503628335967,-1.2771471277968,,3.7708956643277998,,
,4981.0,1562.0,5677.0,1838.0,2209.0,2483.0,2024.0,,,,-0.788355419717427,-2.96489522809131,-1.27668821238384,,3.7887036601372075,,
,4979.0,1562.0,5679.0,1837.0,2223.0,2474.0,2011.0,,,,-0.788184456613938,-2.96494214758,-1.27782210278146,,3.7477138711640743,,
,4981.0,1562.0,5675.0,1837.0,2217.0,2471.0,2009.0,,,,-0.788327183338693,-2.96492093791954,-1.27705829227707,,3.654111592006644,,
,4982.0,1560.0,5676.0,1836.0,2219.0,2488.0,2011.0,,,,-0.78832816494536,-2.96491696199984,-1.27708663195947,,3.514966176599297,,
,4982.0,1559.0,5677.0,1837.0,2224.0,2482.0,2012.0,,,,-0.788138873914858,-2.96491212727724,-1.27675620158009,,3.3377407934747385,,
,4981.0,1561.0,5676.0,1837.0,2222.0,2468.0,2006.0,,,,-0.78836610208661,-2.96493323309644,-1.27757564917681,,3.1298295741876596,,
,4982.0,1561.0,5678.0,1837.0,2227.0,2472.0,2005.0,,,,-0.788607632845354,-2.96502599004037,-1.27764749038251,,2.8981430462116022,,
,4984.0,1562.0,5678.0,1837.0,2242.0,2479.0,2011.0,,,,-0.78835169848216,-2.96490213944029,-1.27770351585423,,2.6487633959356804,,
,4983.0,1561.0,5677.0,1834.0,2235.0,2476.0,2017.0,,,,-0.788534641607119,-2.96489016638042,-1.27728394736148,,2.386691696335778,,
,4982.0,1564.0,5675.0,1838.0,2228.0,2480.0,2010.0,,,,-0.788367348245879,-2.96484650707265,-1.2776328699241,,2.115706919194955,,
,4986.0,1562.0,5678.0,1838.0,2228.0,2472.0,2005.0,,,,-0.788343245045394,-2.96487876046983,-1.27726966069008,,1.8383495261968588,,
,4986.0,1566.0,5680.0,1840.0,2224.0,2472.0,2002.0,,,,-0.787906169169818,-2.96492177743299,-1.27709707555063,,1.556031266506571,,
,4987.0,1564.0,5680.0,1835.0,2223.0,2488.0,1997.0,,,,-0.788294260297923,-2.96485737060966,-1.27658475187737,,1.2692598871488634,,
,4987.0,1569.0,5680.0,1837.0,2215.0,2486.0,2009.0,,,,-0.788288617531594,-2.96498544901551,-1.27661916292728,,0.9779550337910804,,
,4991.0,1571.0,5682.0,1840.0,2209.0,2495.0,2020.0,,,,-0.788125190358598,-2.96490619828144,-1.27673350837653,,0.6818208587535657,,
,4991.0,1571.0,5681.0,1840.0,2215.0,2480.0,2015.0,,,,-0.787744280430173,-2.96483398177713,-1.27619084631548,,0.38073263386040807,,
,4992.0,1571.0,5682.0,1838.0,2242.0,2477.0,2005.0,,,,-0.788069948164766,-2.96485515988375,-1.27633937362296,,0.07509032105895981,,
,4992.0,1574.0,5684.0,1841.0,2222.0,2474.0,2007.0,,,,-0.787972364006138,-2.96483665928934,-1.27708300220588,,-0.23390699281488186,,
,4996.0,1573.0,5682.0,1841.0,2228.0,2485.0,2024.0,,,,-0.788177183125885,-2.9649490948289,-1.27689471198804,,-0.5441048681080263,,
,4996.0,1577.0,5683.0,1842.0,2230.0,2493.0,2018.0,,,,-0.7883165833535,-2.96494713600118,-1.2771577801872,,-0.8523815933387076,,
,4997.0,1578.0,5682.0,1841.0,2224.0,2475.0,2025.0,,,,-0.788916454550225,-2.96493834994933,-1.27787328070931,,-1.1547887604367655,,
,4997.0,1580.0,5687.0,1843.0,2220.0,2480.0,2008.0,,,,-0.789388667641161,-2.9650603524277,-1.27837997454116,,-1.4468316397193206,,
,5000.0,1584.0,5686.0,1842.0,2229.0,2471.0,1994.0,,,,-0.789032304825415,-2.96509236901588,-1.27918204092901,,-1.7238557169865256,,
,5002.0,1587.0,5689.0,1843.0,2226.0,2470.0,1994.0,,,,-0.789309589144829,-2.96515067512002,-1.27934323599811,,-1.9814881551347991,,
,5003.0,1585.0,5686.0,1842.0,2217.0,2467.0,1998.0,,,,-0.789404718823732,-2.96504260940611,-1.27910938979309,,-2.2160721945566086,,
,5002.0,1588.0,5688.0,1845.0,2231.0,2463.0,2003.0,,,,-0.789234967724974,-2.96509250351775,-1.27874295083591,,-2.4250315703481573,,
,5003.0,1590.0,5690.0,1847.0,2211.0,2478.0,2008.0,,,,-0.789022547979325,-2.96517037524335,-1.27819244996107,,-2.607111960215769,,
,5007.0,1590.0,5690.0,1846.0,2220.0,2477.0,2002.0,,,,-0.78842150828745,-2.96501587573683,-1.27923701237986,,-2.762465355296205,,
,5011.0,1590.0,5688.0,1846.0,2222.0,2484.0,2002.0,,,,-0.788305459973219,-2.96504355013543,-1.27835450854162,,-2.8925667126306833,,
,5009.0,1594.0,5690.0,1847.0,2241.0,2480.0,2008.0,,,,-0.788061896266239,-2.9650512868656,-1.27815695766247,,-2.999975317963261,,
,5014.0,1595.0,5691.0,1848.0,2241.0,2474.0,2001.0,,,,-0.787306486934649,-2.96494080421238,-1.27760044175543,,-3.087971875966739,,
,5011.0,1598.0,5691.0,1846.0,2231.0,2475.0,2004.0,,,,-0.786688423884044,-2.96492263972126,-1.27728013600591,,-3.160114126506618,,
,5014.0,1598.0,5692.0,1849.0,2236.0,2474.0,2006.0,,,,-0.786208944309943,-2.96492703584202,-1.27668164044619,,-3.2197586373113514,,
,5013.0,1599.0,5693.0,1849.0,2242.0,2485.0,2016.0,,,,-0.785939634877138,-2.96486430876486,-1.27582575864521,,-3.269595987709115,,
,5016.0,1603.0,5692.0,1849.0,2247.0,2481.0,2016.0,,,,-0.785147006330371,-2.96475393614502,-1.27592496155121,,-3.3112427846452994,,
,5021.0,1605.0,5697.0,1850.0,2245.0,2473.0,2010.0,,,,-0.785663927868634,-2.96478755399523,-1.27590575029679,,-3.344927963356623,,
,5018.0,1604.0,5694.0,1851.0,2225.0,2477.0,2011.0,,,,-0.785326374949389,-2.96473352169719,-1.27582824522042,,-3.3693030704285074,,
,5021.0,1606.0,5696.0,1851.0,2274.0,2475.0,2008.0,,,,-0.784853920225115,-2.96476521371161,-1.2749238051995,,-3.3813970559370765,,
,5023.0,1607.0,5696.0,1852.0,2249.0,2482.0,2009.0,,,,-0.785214300579528,-2.96471976294926,-1.27496384046045,,-3.3767258455551326,,
,5022.0,1606.0,5695.0,1854.0,2252.0,2477.0,2002.0,,,,-0.784821487439967,-2.96472170116685,-1.27509282534126,,-3.3495558540086594,,
,5021.0,1601.0,5697.0,1851.0,2253.0,2476.0,2003.0,,,,-0.784506906986946,-2.96473126456605,-1.2741502516265,,-3.293308850534091,,
,5017.0,1598.0,5695.0,1850.0,2243.0,2483.0,2003.0,,,,-0.784270949418527,-2.96463734364644,-1.27512864329164,,-3.2010834215484407,,
,5015.0,1591.0,5694.0,1852.0,2240.0,2477.0,2007.0,,,,-0.78398880124118,-2.96465473252664,-1.27439622022119,,-3.066256032991372,,
,5008.0,1579.0,5693.0,1850.0,2236.0,2492.0,2004.0,,,,-0.783967954781453,-2.96463935947182,-1.2740252610088,,-2.8831133314228867,,
,5001.0,1573.0,5690.0,1849.0,2227.0,2484.0,2000.0,,,,-0.783276393991044,-2.96457706038162,-1.27424070666133,,-2.6474589000372113,,
,4997.0,1563.0,5687.0,1842.0,2218.0,2490.0,2003.0,,,,-0.783108258717412,-2.96456904338484,-1.27331518241258,,-2.357134858095464,,
,4993.0,1554.0,5685.0,1843.0,2216.0,2474.0,2014.0,,,,-0.783323706973941,-2.96461154103368,-1.2731485440653,,-2.012403344647267,,
,4990.0,1549.0,5682.0,1845.0,2197.0,2477.0,2018.0,,,,-0.783012563866517,-2.96465689024952,-1.27378550631713,,-1.616145417893117,,
,4986.0,1543.0,5678.0,1837.0,2188.0,2477.0,2021.0,,,,-0.783339606305057,-2.96465259729339,-1.27367022644708,,-1.1738543928377718,,
,4982.0,1539.0,5673.0,1834.0,2213.0,2480.0,2016.0,,,,-0.78335650929376,-2.96453677812737,-1.27352596721982,,-0.6934251633635414,,
,4980.0,1532.0,5671.0,1834.0,2206.0,2467.0,2004.0,,,,-0.783819962265109,-2.96451679655006,-1.27399295164822,,-0.1847667865067563,,
,4978.0,1530.0,5669.0,1830.0,2205.0,2460.0,2012.0,,,,-0.784118109470886,-2.96459966843917,-1.2745128046901,,0.34071298157031715,,
,4978.0,1528.0,5664.0,1828.0,2216.0,2466.0,2002.0,,,,-0.783994205797774,-2.96467312331579,-1.27395694969617,,0.8706906357394131,,
,4974.0,1525.0,5661.0,1825.0,2217.0,2467.0,2000.0,,,,-0.784166802224367,-2.96465491528727,-1.27420685238895,,1.3925170758459493,,
,4974.0,1524.0,5660.0,1824.0,2228.0,2475.0,2000.0,,,,-0.784179274646186,-2.96461831177097,-1.27384090974997,,1.8937662502501185,,
,4975.0,1524.0,5658.0,1825.0,2257.0,2477.0,1998.0,,,,-0.784563602827654,-2.96488318012308,-1.27377961617985,,2.3627124485103033,,
,4971.0,1522.0,5656.0,1822.0,2259.0,2489.0,1997.0,,,,-0.784239948308776,-2.9646449302679,-1.27503348247166,,2.7887265154227765,,
,4974.0,1523.0,5656.0,1822.0,2260.0,2494.0,2006.0,,,,-0.783944798903678,-2.96470404535019,-1.27429750867262,,3.1625964688086143,,
,4974.0,1524.0,5656.0,1822.0,2257.0,2492.0,2004.0,,,,-0.783994379159269,-2.96469341997044,-1.27390113518613,,3.4767846305223387,,
,4974.0,1525.0,5657.0,1821.0,2241.0,2481.0,1999.0,,,,-0.783827956472854,-2.96475342522735,-1.27443960698381,,3.725631399962119,,
,4974.0,1523.0,5655.0,1820.0,2238.0,2480.0,1999.0,,,,-0.783518656398185,-2.96462876377419,-1.27342078734986,,3.905507887461717,,
,4974.0,1525.0,5654.0,1819.0,2225.0,2482.0,2023.0,,,,-0.783922869622682,-2.96473802329239,-1.27415024979092,,4.014909551779218,,
,4974.0,1525.0,5654.0,1819.0,2229.0,2483.0,2006.0,,,,-0.783054960015517,-2.96460461420751,-1.27388009301061,,4.05447468912069,,
,4977.0,1524.0,5653.0,1821.0,2212.0,2476.0,2022.0,,,,-0.783122439295309,-2.96473195433533,-1.2734317938756,,4.026908513592383,,
,4976.0,1527.0,5654.0,1820.0,2207.0,2478.0,2018.0,,,,-0.782573341430098,-2.96454875488525,-1.27381171291746,,3.936797629382988,,
,4979.0,1528.0,5655.0,1819.0,2202.0,2485.0,2016.0,,,,-0.782155320601919,-2.96467105049006,-1.2729837270206,,3.7903108968937826,,
,4980.0,1531.0,5656.0,1818.0,2211.0,2487.0,2007.0,,,,-0.782745357084419,-2.96458140321484,-1.27353155484607,,3.5947990682577675,,
2025-06-30 19:45:04,4987.0,1533.0,5660.0,1820.0,2219.0,2493.0,2011.0,,,2025/06/30 07:45:04 PM,-0.782573119544951,-2.96464143730251,-1.27328218072263,,3.3583234919164715,,
,4982.0,1534.0,5658.0,1821.0,2225.0,2486.0,2001.0,,,,-0.78221689483155,-2.96454477441718,-1.27207936959909,,3.0891589738972405,,
,4984.0,1533.0,5659.0,1820.0,2233.0,2488.0,2014.0,,,,-0.781912621245103,-2.96466535043181,-1.27271485365742,,2.795323237837691,,
,4984.0,1532.0,5658.0,1821.0,2251.0,2481.0,2011.0,,,,-0.78242652561013,-2.96448624725978,-1.27246448887754,,2.4841832363577456,,
,4986.0,1539.0,5662.0,1822.0,2239.0,2491.0,2008.0,,,,-0.781941100566433,-2.96446832799811,-1.27280304046598,,2.1621774084103342,,
,4986.0,1536.0,5659.0,1822.0,2237.0,2485.0,2013.0,,,,-0.781976754584286,-2.96470854813671,-1.27262495425431,,1.8346751411979292,,
,4985.0,1538.0,5661.0,1821.0,2244.0,2487.0,2016.0,,,,-0.781919785766422,-2.96451367587067,-1.2732558825474,,1.5059733983408787,,
,4984.0,1536.0,5657.0,1818.0,2248.0,2480.0,2012.0,,,,-0.78179699161198,-2.96448948234831,-1.27284465152688,,1.179409792536481,,
,4987.0,1539.0,5660.0,1821.0,2237.0,2474.0,2011.0,,,,-0.782161104948331,-2.96454443235449,-1.27274302578484,,0.857555652050778,,
,4985.0,1536.0,5659.0,1819.0,2206.0,2483.0,2023.0,,,,-0.781913387439857,-2.96451205266128,-1.27263484823982,,0.5424449880817779,,
,4986.0,1537.0,5659.0,1821.0,2201.0,2485.0,2021.0,,,,-0.782179555678802,-2.96457443998842,-1.27276689028478,,0.2357965043635875,,
,4984.0,1535.0,5659.0,1818.0,2203.0,2481.0,2007.0,,,,-0.782018907890877,-2.96450648206845,-1.27280401599286,,-0.06080567394043469,,
,4987.0,1536.0,5660.0,1819.0,2228.0,2469.0,2014.0,,,,-0.782512627949723,-2.9644606790739,-1.27255770154053,,-0.3457941611476481,,
,4987.0,1536.0,5663.0,1824.0,2227.0,2463.0,2006.0,,,,-0.782172782319252,-2.96456676528266,-1.27210855490148,,-0.6175714016329703,,
,4988.0,1538.0,5661.0,1821.0,2216.0,2465.0,2005.0,,,,-0.782414919080658,-2.96459623993007,-1.27245034016887,,-0.8745296317751716,,
,4988.0,1533.0,5660.0,1819.0,2212.0,2471.0,1998.0,,,,-0.78201707449847,-2.96448064861054,-1.27205259618567,,-1.1151243394780608,,
,4987.0,1535.0,5662.0,1821.0,2227.0,2468.0,2003.0,,,,-0.782334660943175,-2.96441429591564,-1.27272831493856,,-1.3379823240991124,,
,4989.0,1535.0,5662.0,1822.0,2239.0,2474.0,2005.0,,,,-0.782300358992514,-2.96455009287647,-1.27269372518236,,-1.5420243233085356,,
,4989.0,1536.0,5661.0,1819.0,2229.0,2469.0,2004.0,,,,-0.782178263318396,-2.96459002124113,-1.2720054342413,,-1.726584786045049,,
,4988.0,1538.0,5661.0,1818.0,2228.0,2484.0,2005.0,,,,-0.781982448388489,-2.96452547579158,-1.27262179414975,,-1.8915158732209194,,
,4993.0,1540.0,5662.0,1820.0,2232.0,2474.0,2010.0,,,,-0.781816340492387,-2.9645197408791,-1.27266664900093,,-2.0372670472399106,,
,4991.0,1538.0,5663.0,1821.0,2220.0,2484.0,1996.0,,,,-0.781458934219815,-2.96449084693668,-1.27167946918179,,-2.164934050212641,,
,4992.0,1542.0,5665.0,1822.0,2223.0,2482.0,1995.0,,,,-0.78171768949499,-2.96443936882026,-1.27236020017048,,-2.27627086329758,,
,4994.0,1543.0,5666.0,1821.0,2227.0,2480.0,2017.0,,,,-0.781693897082925,-2.96442648556839,-1.27210606930281,,-2.373655860819433,,
,4991.0,1543.0,5664.0,1819.0,2224.0,2495.0,2017.0,,,,-0.781971658333912,-2.96452867562489,-1.27225513642891,,-2.4600008660260473,,
,4996.0,1543.0,5664.0,1821.0,2231.0,2484.0,2013.0,,,,-0.782809624475222,-2.96451368563856,-1.27325284261732,,-2.5385920037911323,,
,4997.0,1546.0,5665.0,1822.0,2234.0,2476.0,2012.0,,,,-0.78343739210691,-2.96452792532962,-1.2740919063593,,-2.612856144776128,,
,4998.0,1548.0,5668.0,1821.0,2255.0,2467.0,2011.0,,,,-0.783570097390836,-2.96465244186764,-1.27360816916506,,-2.686056470016916,,
,4996.0,1549.0,5667.0,1822.0,2249.0,2486.0,2006.0,,,,-0.783796073737381,-2.96466284430898,-1.27507368080445,,-2.7609335261828942,,
,5003.0,1552.0,5669.0,1825.0,2228.0,2489.0,2000.0,,,,-0.784562875717629,-2.96476736075668,-1.27476765749007,,-2.8393212118262157,,
,5001.0,1554.0,5673.0,1826.0,2226.0,2478.0,2004.0,,,,-0.784939270981633,-2.96474061053978,-1.27599116309488,,-2.9217773202403943,,
,5000.0,1557.0,5671.0,1826.0,2220.0,2472.0,2015.0,,,,-0.784938801496931,-2.96484906712082,-1.27658778079615,,-3.007273205034372,,
,5003.0,1555.0,5670.0,1824.0,2218.0,2470.0,2001.0,,,,-0.785658707413396,-2.9649038814555,-1.27583857293851,,-3.092985871303732,,
,5004.0,1560.0,5671.0,1824.0,2234.0,2477.0,2001.0,,,,-0.785511420383679,-2.96498646772169,-1.27659916819555,,-3.1742286235152437,,
,5005.0,1561.0,5671.0,1825.0,2203.0,2479.0,2006.0,,,,-0.785759721696541,-2.96487450069785,-1.27617596080238,,-3.2445442680196788,,
,5008.0,1561.0,5672.0,1827.0,2204.0,2475.0,2008.0,,,,-0.785079588929206,-2.96485616485622,-1.27575727313112,,-3.2959690888299593,,
,5005.0,1563.0,5673.0,1826.0,2212.0,2477.0,2011.0,,,,-0.785142552369753,-2.96489251825779,-1.27603826626586,,-3.3194582078696238,,
,5009.0,1565.0,5675.0,1829.0,2231.0,2482.0,2008.0,,,,-0.784820502361593,-2.96475336282963,-1.27458928111828,,-3.305445782626439,,
,5010.0,1566.0,5677.0,1826.0,2243.0,2489.0,2015.0,,,,-0.784688282190057,-2.96474589706704,-1.27511462624753,,-3.2444990260094664,,
,5011.0,1567.0,5676.0,1829.0,2233.0,2490.0,2016.0,,,,-0.784348985204936,-2.96484534199881,-1.27517916318429,,-3.128014919882517,,
,5013.0,1566.0,5675.0,1827.0,2222.0,2484.0,2018.0,,,,-0.784123457341648,-2.96476182160955,-1.27485063560764,,-2.9489035752156747,,
,5016.0,1571.0,5677.0,1830.0,2208.0,2477.0,2012.0,,,,-0.784394830070907,-2.96465448716426,-1.27514809711906,,-2.702202445502826,,
,5015.0,1573.0,5680.0,1831.0,2208.0,2483.0,2016.0,,,,-0.783929345381798,-2.9646546147614,-1.27497134003576,,-2.385570365837015,,
,5018.0,1576.0,5678.0,1831.0,2222.0,2485.0,2011.0,,,,-0.78369969363203,-2.96467134565981,-1.27439431034532,,-1.9996189567152294,,
,5019.0,1578.0,5679.0,1833.0,2260.0,2477.0,2011.0,,,,-0.783315667930168,-2.9646732726483,-1.27375135420662,,-1.548050987908097,,
,5020.0,1577.0,5679.0,1832.0,2252.0,2487.0,2011.0,,,,-0.783116174137321,-2.96473754075077,-1.27424110253193,,-1.0375906213285202,,
,5024.0,1579.0,5680.0,1834.0,2239.0,2481.0,2015.0,,,,-0.783626700580087,-2.96457779993758,-1.27364220575439,,-0.4777080852334387,,
,5024.0,1581.0,5683.0,1834.0,2251.0,2478.0,2010.0,,,,-0.782684583094142,-2.96461282352966,-1.27336635062347,,0.11984077832622153,,
,5021.0,1581.0,5682.0,1833.0,2235.0,2455.0,2015.0,,,,-0.783339084817519,-2.96468759805316,-1.2738898463704,,0.7416239220288436,,
,5026.0,1581.0,5681.0,1834.0,2246.0,2470.0,2004.0,,,,-0.782597497644523,-2.96459917344839,-1.27388304424889,,1.37324334304999,,
,5026.0,1581.0,5683.0,1836.0,2253.0,2483.0,2004.0,,,,-0.782469856067433,-2.96463680217434,-1.27346935684556,,2.0000905809552862,,
,5025.0,1584.0,5681.0,1835.0,2250.0,2482.0,2006.0,,,,-0.782752369694836,-2.96460993838191,-1.27281086674139,,2.608089393745363,,
,5023.0,1577.0,5683.0,1833.0,2233.0,2489.0,2006.0,,,,-0.782445304199083,-2.96451473412774,-1.27354291898559,,3.1843704849631504,,
,5017.0,1570.0,5681.0,1834.0,2240.0,2495.0,2013.0,,,,-0.782835188871351,-2.96471397299787,-1.27326139471842,,3.7178309036909636,,
,5014.0,1562.0,5680.0,1835.0,2237.0,2488.0,2007.0,,,,-0.783377974768588,-2.96465785678233,-1.27429746511115,,4.199541721098755,,
,5006.0,1556.0,5677.0,1831.0,2224.0,2486.0,2003.0,,,,-0.783071585284349,-2.96467959298282,-1.27400743962397,,4.622980577199035,,
,5004.0,1548.0,5675.0,1829.0,2211.0,2473.0,2006.0,,,,-0.783574093484824,-2.96467327609942,-1.2738375795004,,4.984080272484738,,
,4995.0,1537.0,5670.0,1827.0,2203.0,2478.0,2018.0,,,,-0.783809814421835,-2.9647327299452,-1.27406307182568,,5.281100152595373,,
,4990.0,1531.0,5668.0,1825.0,2181.0,2471.0,2026.0,,,,-0.783841332821435,-2.96471995911183,-1.2739763186302,,5.51434219748689,,
,4991.0,1525.0,5666.0,1824.0,2184.0,2466.0,2020.0,,,,-0.784248597874875,-2.96468155149153,-1.27373095550669,,5.685747006856482,,
,4986.0,1523.0,5658.0,1818.0,2197.0,2463.0,2015.0,,,,-0.784356228743178,-2.96468265084942,-1.27459260187333,,5.798415510358963,,
,4983.0,1516.0,5658.0,1817.0,2211.0,2474.0,2007.0,,,,-0.784301621543103,-2.96463602874068,-1.2745803833241,,5.856109671524653,,
,4980.0,1516.0,5655.0,1818.0,2226.0,2477.0,2002.0,,,,-0.784527520726569,-2.96471671296311,-1.27444460339116,,5.862788353980387,,
,4979.0,1512.0,5650.0,1814.0,2227.0,2473.0,2002.0,,,,-0.783941439750818,-2.9647082076845,-1.27428493927733,,5.822230972450421,,
,4978.0,1512.0,5649.0,1815.0,2231.0,2467.0,2004.0,,,,-0.783714821114137,-2.96476188135346,-1.27508336880878,,5.7377904716113735,,
,4976.0,1508.0,5646.0,1810.0,2243.0,2474.0,2003.0,,,,-0.783839609483921,-2.96466522667307,-1.27405550923023,,5.612299140201621,,
,4978.0,1510.0,5643.0,1811.0,2255.0,2474.0,1996.0,,,,-0.783687033360329,-2.96466515900517,-1.27390234086846,,5.4481278192075235,,
,4976.0,1512.0,5644.0,1809.0,2262.0,2470.0,2003.0,,,,-0.783299257473162,-2.96464322043579,-1.27383058993078,,5.247374457991342,,
,4980.0,1511.0,5647.0,1807.0,2252.0,2475.0,2008.0,,,,-0.783140803109207,-2.96455481800299,-1.2733102253949,,5.012136049261943,,
,4979.0,1510.0,5643.0,1810.0,2256.0,2488.0,1997.0,,,,-0.783058030321952,-2.9646917367507,-1.27345488019643,,4.744803316972334,,
,4980.0,1511.0,5644.0,1808.0,2243.0,2493.0,2006.0,,,,-0.78253026501214,-2.96460500587027,-1.27361312979298,,4.448313563143525,,
,4979.0,1512.0,5642.0,1806.0,2249.0,2487.0,2000.0,,,,-0.782521928755289,-2.96449305139134,-1.27331185343129,,4.126305128255362,,
,4983.0,1516.0,5644.0,1807.0,2231.0,2495.0,2003.0,,,,-0.781959332038418,-2.96457217586469,-1.27309132174983,,3.7831359973571894,,
,4981.0,1514.0,5644.0,1807.0,2224.0,2490.0,2018.0,,,,-0.781751325148131,-2.96449534835282,-1.27241332742674,,3.4237558202240286,,
,4984.0,1515.0,5645.0,1808.0,2231.0,2494.0,2016.0,,,,-0.78171762622634,-2.96440708075903,-1.27304730992783,,3.0534494785897826,,
,4985.0,1519.0,5646.0,1810.0,2220.0,2485.0,2022.0,,,,-0.781430285882845,-2.96442551180277,-1.27166025515416,,2.6774949460166635,,
,4989.0,1522.0,5647.0,1809.0,2221.0,2484.0,2013.0,,,,-0.781278551481312,-2.96459279675144,-1.27318718220366,,2.300793410907344,,
,4988.0,1521.0,5648.0,1808.0,2231.0,2483.0,2011.0,,,,-0.781545256317765,-2.9644576742782,-1.27279971515492,,1.9275329195430906,,
,4989.0,1522.0,5647.0,1806.0,2237.0,2490.0,2017.0,,,,-0.781138471725441,-2.96450217554191,-1.27305995924164,,1.5609382126441442,,
,4993.0,1527.0,5651.0,1809.0,2248.0,2494.0,2008.0,,,,-0.781474389443939,-2.96451134386983,-1.27263854334415,,1.2031413780142002,,
,4990.0,1529.0,5650.0,1812.0,2238.0,2491.0,2015.0,,,,-0.781531760118183,-2.96450289156815,-1.27242201679558,,0.8551848654184548,,
,4993.0,1528.0,5650.0,1810.0,2247.0,2486.0,2006.0,,,,-0.781670607389117,-2.96445542211559,-1.27211469119691,,0.5171457026541666,,
,4992.0,1531.0,5651.0,1812.0,2224.0,2486.0,2015.0,,,,-0.781287182448852,-2.964420518126,-1.27296428696963,,0.1883520077576821,,
,4994.0,1534.0,5654.0,1813.0,2199.0,2473.0,2005.0,,,,-0.781299772617191,-2.96444576403955,-1.27302959945271,,-0.13234728530765544,,
,4993.0,1531.0,5650.0,1812.0,2207.0,2472.0,2009.0,,,,-0.78109407084788,-2.96451783980452,-1.27282718240277,,-0.44630061958435924,,
,4994.0,1533.0,5652.0,1810.0,2229.0,2482.0,2010.0,,,,-0.781265101944435,-2.96449560884209,-1.2730069430911,,-0.7547959093428167,,
,4992.0,1531.0,5652.0,1810.0,2239.0,2472.0,2019.0,,,,-0.781337643789158,-2.96443717922163,-1.27212682958331,,-1.0588521456351256,,
,4994.0,1535.0,5654.0,1813.0,2244.0,2468.0,2015.0,,,,-0.780904893802242,-2.96442609482436,-1.27171570438227,,-1.3590732800469345,,
,4996.0,1535.0,5652.0,1813.0,2225.0,2467.0,2013.0,,,,-0.78112487660514,-2.96441121166557,-1.27207631975102,,-1.655564857232592,,
,4995.0,1532.0,5653.0,1813.0,2211.0,2473.0,2020.0,,,,-0.780748690289702,-2.96454068631075,-1.27162175018941,,-1.9479046778604807,,
,4993.0,1531.0,5651.0,1812.0,2195.0,2472.0,2011.0,,,,-0.781131162557534,-2.96436291831314,-1.27143757976828,,-2.2351543363828217,,
,4995.0,1532.0,5653.0,1813.0,2202.0,2472.0,2018.0,,,,-0.780699104864218,-2.96436607526191,-1.27238177911397,,-2.5158992515991248,,
,4997.0,1534.0,5654.0,1812.0,2236.0,2478.0,2002.0,,,,-0.780826699588951,-2.964433179555,-1.27287140864442,,-2.788309729303059,,
,4996.0,1534.0,5656.0,1814.0,2231.0,2479.0,1999.0,,,,-0.780032346965681,-2.96446403921806,-1.27132089213246,,-3.0502221937951584,,
,4997.0,1536.0,5651.0,1811.0,2253.0,2474.0,2005.0,,,,-0.780334347464511,-2.96438253621797,-1.27129323873694,,-3.2992451110388146,,
,4998.0,1536.0,5655.0,1813.0,2254.0,2475.0,2015.0,,,,-0.780559365727568,-2.96446613849277,-1.27215472658431,,-3.532896133847881,,
,5001.0,1536.0,5658.0,1816.0,2234.0,2474.0,1994.0,,,,-0.780693014718791,-2.96438677476745,-1.27095298045565,,-3.748774567127908,,
,4999.0,1538.0,5658.0,1815.0,2230.0,2474.0,1991.0,,,,-0.781020260411994,-2.96442380022691,-1.27209832576767,,-3.9447662881280174,,
,4999.0,1539.0,5655.0,1814.0,2243.0,2470.0,2000.0,,,,-0.781415730755525,-2.96452843645641,-1.27244694513538,,-4.1192677318913296,,
,5003.0,1539.0,5656.0,1816.0,2244.0,2475.0,2003.0,,,,-0.782140997268456,-2.96442046689638,-1.27355434397891,,-4.271403757223432,,
,5000.0,1537.0,5657.0,1814.0,2263.0,2476.0,2016.0,,,,-0.783114667690943,-2.96454804173378,-1.2743122464473,,-4.401204524270825,,
,5004.0,1543.0,5658.0,1815.0,2262.0,2473.0,2015.0,,,,-0.783440413506399,-2.96470252712258,-1.27499847853191,,-4.509702551110183,,
,5007.0,1539.0,5659.0,1815.0,2243.0,2477.0,2009.0,,,,-0.784315676844225,-2.9647339352449,-1.27470149578983,,-4.598915662578318,,
,5007.0,1545.0,5659.0,1817.0,2244.0,2481.0,2009.0,,,,-0.784558520896339,-2.96468499991331,-1.27584182287307,,-4.671695455754972,,
,5008.0,1547.0,5660.0,1817.0,2240.0,2489.0,2008.0,,,,-0.78498932035962,-2.96474439650602,-1.27624380040044,,-4.7314421048351205,,
,5010.0,1550.0,5661.0,1818.0,2256.0,2485.0,2008.0,,,,-0.785036503247909,-2.96464789837962,-1.27585203207463,,-4.78170986975911,,
,5011.0,1548.0,5662.0,1817.0,2248.0,2486.0,2000.0,,,,-0.785170321373964,-2.96494488290537,-1.2762442543018,,-4.825747554621201,,
,5013.0,1553.0,5663.0,1820.0,2233.0,2480.0,2014.0,,,,-0.785437100211379,-2.96482538043689,-1.2763756231435,,-4.86602988767561,,
,5014.0,1557.0,5665.0,1823.0,2222.0,2477.0,2000.0,,,,-0.785636937812619,-2.96479599974834,-1.27647199153274,,-4.903837864320434,,
,5016.0,1558.0,5665.0,1820.0,2224.0,2473.0,2002.0,,,,-0.784722557162892,-2.96478163385242,-1.27570078478769,,-4.938939600103647,,
,5017.0,1561.0,5666.0,1821.0,2243.0,2470.0,2005.0,,,,-0.784588344492448,-2.96472867072304,-1.27512560921721,,-4.969410438059294,,
,5018.0,1559.0,5664.0,1822.0,2239.0,2468.0,2006.0,,,,-0.784466969739267,-2.96471035314181,-1.27508587467805,,-4.991614341186132,,
,5022.0,1563.0,5669.0,1822.0,2236.0,2483.0,2009.0,,,,-0.783737970782567,-2.96476793189844,-1.27491679398125,,-5.000350349702648,,
,5023.0,1567.0,5666.0,1826.0,2230.0,2486.0,2001.0,,,,-0.783547251629455,-2.96471280563132,-1.27365429407867,,-4.989150391952952,,
,5022.0,1565.0,5668.0,1825.0,2231.0,2494.0,1996.0,,,,-0.783468986922828,-2.96463462781175,-1.27472300859844,,-4.950699856382585,,
,5023.0,1566.0,5668.0,1824.0,2214.0,2476.0,2004.0,,,,-0.783568661820057,-2.96475406469063,-1.27480916185868,,-4.877341320145349,,
,5024.0,1569.0,5672.0,1825.0,2218.0,2468.0,2003.0,,,,-0.783294099875538,-2.96462379040727,-1.27508723454967,,-4.761615648803928,,
,5029.0,1572.0,5672.0,1827.0,2234.0,2467.0,2001.0,,,,-0.783113010232427,-2.96465683236388,-1.27459763505898,,-4.596793984068687,,
,5027.0,1573.0,5672.0,1827.0,2237.0,2486.0,1999.0,,,,-0.783091811518638,-2.96465308894617,-1.27343240271654,,-4.377358790386517,,
,5033.0,1575.0,5673.0,1826.0,2225.0,2482.0,2002.0,,,,-0.782685105907269,-2.96452317899341,-1.27377964736343,,-4.099401037083468,,
,5031.0,1576.0,5675.0,1826.0,2230.0,2486.0,2016.0,,,,-0.782869926392044,-2.96448523096368,-1.27372143422231,,-3.7609120592305616,,
,5036.0,1579.0,5675.0,1831.0,2236.0,2476.0,2010.0,,,,-0.782457400488489,-2.96456538278637,-1.27355489637973,,-3.3619607707477037,,
,5034.0,1579.0,5674.0,1831.0,2233.0,2472.0,2004.0,,,,-0.782501835182876,-2.96451763472608,-1.27311584779778,,-2.9047577148864896,,
,5038.0,1582.0,5674.0,1828.0,2255.0,2471.0,2011.0,,,,-0.782736243201998,-2.96449592302275,-1.27327266052608,,-2.3936150674702428,,
,5037.0,1583.0,5674.0,1831.0,2259.0,2476.0,2010.0,,,,-0.782163424374915,-2.96449450177373,-1.27372306237961,,-1.8348150842109905,,
,5040.0,1585.0,5678.0,1830.0,2249.0,2489.0,2010.0,,,,-0.782213853700155,-2.96447157667747,-1.27399861857445,,-1.2363991192035324,,
,5041.0,1588.0,5678.0,1833.0,2241.0,2491.0,2010.0,,,,-0.782180783596746,-2.9645621349355,-1.27324597360714,,-0.6078872987452468,,
,5039.0,1590.0,5675.0,1832.0,2244.0,2501.0,2007.0,,,,-0.782272522219294,-2.96449740073643,-1.27359747688012,,0.04006228441578853,,
2025-06-30 19:45:05,5042.0,1591.0,5679.0,1836.0,2263.0,2492.0,2017.0,,,2025/06/30 07:45:05 PM,-0.782206556624812,-2.96458034304351,-1.27341883587815,,0.6960446015933481,,
,5045.0,1590.0,5681.0,1834.0,2270.0,2485.0,2010.0,,,,-0.782576814774996,-2.96456529082958,-1.27463284832955,,1.3483341548885153,,
,5044.0,1590.0,5677.0,1837.0,2263.0,2486.0,2010.0,,,,-0.782659490439257,-2.96456698247983,-1.2743499460015,,1.9853253367705703,,
,5041.0,1587.0,5681.0,1832.0,2289.0,2482.0,2016.0,,,,-0.782847347544365,-2.96447557369235,-1.27417384378758,,2.5959584545213814,,
,5039.0,1579.0,5678.0,1836.0,2261.0,2488.0,2007.0,,,,-0.783225164779523,-2.96454244583953,-1.27447561015712,,3.1700994307398855,,
,5033.0,1574.0,5675.0,1834.0,2235.0,2478.0,2003.0,,,,-0.782740435054381,-2.96447801765382,-1.27409464884398,,3.698842530021657,,
,5031.0,1563.0,5673.0,1834.0,2224.0,2474.0,2005.0,,,,-0.783242003270845,-2.96448968133576,-1.27403182509755,,4.174712646762348,,
,5022.0,1554.0,5670.0,1830.0,2213.0,2467.0,2011.0,,,,-0.782859122575027,-2.96448120119196,-1.27446804758191,,4.591756101483943,,
,5022.0,1548.0,5671.0,1829.0,2213.0,2462.0,2021.0,,,,-0.782920053990309,-2.96455927476405,-1.27428786561584,,4.945524759974563,,
,5018.0,1543.0,5667.0,1827.0,2206.0,2473.0,2014.0,,,,-0.782557075980389,-2.96454795237903,-1.27378981155451,,5.232974554450243,,
,5014.0,1537.0,5666.0,1827.0,2201.0,2475.0,2017.0,,,,-0.782559158331038,-2.96454015588969,-1.27348923682456,,5.452312118544795,,
,5009.0,1530.0,5659.0,1821.0,2228.0,2469.0,2009.0,,,,-0.782407891961116,-2.96446109236055,-1.27470084892899,,5.602828750147478,,
,5009.0,1527.0,5659.0,1823.0,2200.0,2467.0,1999.0,,,,-0.782324519716095,-2.96450568699449,-1.27391238159166,,5.684757971599782,,
,5004.0,1525.0,5656.0,1819.0,2216.0,2477.0,2006.0,,,,-0.782060314551943,-2.96450375429402,-1.2742850058556,,5.699182673520363,,
,5004.0,1523.0,5654.0,1819.0,2231.0,2477.0,2005.0,,,,-0.781993102958381,-2.96454299019273,-1.27405852512861,,5.64800285446123,,
,5005.0,1521.0,5650.0,1816.0,2252.0,2470.0,2005.0,,,,-0.781793287366918,-2.96450057912998,-1.27337450656016,,5.533958678368747,,
,5004.0,1521.0,5650.0,1817.0,2255.0,2483.0,1998.0,,,,-0.781464600157887,-2.96440757108943,-1.27367569302312,,5.360689419513057,,
,5004.0,1521.0,5649.0,1813.0,2260.0,2480.0,2006.0,,,,-0.781151646310897,-2.96442827468801,-1.27310721878441,,5.132799517748655,,
,5005.0,1521.0,5648.0,1814.0,2273.0,2479.0,1998.0,,,,-0.780878756418123,-2.96446892010637,-1.27317973730535,,4.855899688545457,,
,5006.0,1523.0,5646.0,1814.0,2273.0,2484.0,1993.0,,,,-0.78065194422529,-2.9643811369807,-1.273309567771,,4.536593816671061,,
,5009.0,1521.0,5646.0,1811.0,2257.0,2491.0,2000.0,,,,-0.780747282787386,-2.96440878170866,-1.27297970784152,,4.182390336478513,,
,5008.0,1522.0,5646.0,1813.0,2278.0,2494.0,2006.0,,,,-0.78075044578932,-2.96438645422583,-1.27316399032978,,3.8015283583560846,,
,5009.0,1524.0,5647.0,1814.0,2268.0,2496.0,2003.0,,,,-0.780247378053176,-2.96447481152466,-1.27289122033554,,3.4027217851405234,,
,5013.0,1526.0,5645.0,1813.0,2259.0,2487.0,2012.0,,,,-0.779792197849956,-2.96441485944987,-1.27254151382017,,2.994836855300836,,
,5013.0,1530.0,5645.0,1811.0,2235.0,2477.0,2006.0,,,,-0.779995580061697,-2.96426052951991,-1.27282785690598,,2.5865281036734866,,
,5014.0,1530.0,5649.0,1815.0,2232.0,2478.0,2006.0,,,,-0.779918198300744,-2.96431715148435,-1.27271879544203,,2.1858634702878788,,
,5019.0,1533.0,5650.0,1815.0,2224.0,2473.0,2000.0,,,,-0.779826134813525,-2.96434664407943,-1.27273070497019,,1.799971041664903,,
,5019.0,1531.0,5649.0,1815.0,2236.0,2485.0,2009.0,,,,-0.78009408659816,-2.96435129394185,-1.27235506662753,,1.4347384870517743,,
,5021.0,1537.0,5650.0,1815.0,2237.0,2483.0,2003.0,,,,-0.77986947007775,-2.96426134090953,-1.27316335318002,,1.0945926193578792,,
,5022.0,1542.0,5652.0,1816.0,2229.0,2480.0,2001.0,,,,-0.780111907084985,-2.96431454169768,-1.2727696948999,,0.7823807291892481,,
,5024.0,1542.0,5653.0,1816.0,2237.0,2479.0,2008.0,,,,-0.779957591652403,-2.96422823982567,-1.27228465953057,,0.49936658269550943,,
,5026.0,1542.0,5653.0,1817.0,2221.0,2471.0,2009.0,,,,-0.779552162095856,-2.96437926776434,-1.27218122593537,,0.24534188499346848,,
,5024.0,1543.0,5652.0,1815.0,2235.0,2474.0,2004.0,,,,-0.77989694313816,-2.96435224183161,-1.27249727352801,,0.01883995450939635,,
,5026.0,1543.0,5656.0,1818.0,2233.0,2478.0,2010.0,,,,-0.779737750279896,-2.96435244104549,-1.27288459031486,,-0.18257475961161113,,
,5027.0,1546.0,5657.0,1818.0,2227.0,2465.0,2006.0,,,,-0.779811040624214,-2.96440535730316,-1.27288170308867,,-0.3619765405062942,,
,5029.0,1546.0,5655.0,1821.0,2225.0,2463.0,2010.0,,,,-0.780014784382497,-2.96442041046636,-1.27290312990289,,-0.5227450555080966,,
,5026.0,1543.0,5654.0,1817.0,2211.0,2469.0,2009.0,,,,-0.779953853207056,-2.96436551749214,-1.27326583583931,,-0.6682615319579022,,
,5028.0,1543.0,5655.0,1818.0,2214.0,2467.0,2005.0,,,,-0.780359522429067,-2.9642943607489,-1.27167598247484,,-0.8016581410321392,,
,5025.0,1545.0,5657.0,1818.0,2238.0,2476.0,2007.0,,,,-0.780220512544839,-2.96439517910542,-1.27180517774092,,-0.9256343904056055,,
,5026.0,1545.0,5657.0,1819.0,2237.0,2469.0,2009.0,,,,-0.779348106454728,-2.96430864200861,-1.27153989195237,,-1.0423458213807149,,
,5028.0,1545.0,5658.0,1818.0,2240.0,2473.0,2011.0,,,,-0.779507708992708,-2.96435550988778,-1.27155900207733,,-1.1533634576675034,,
,5028.0,1545.0,5658.0,1819.0,2228.0,2472.0,2011.0,,,,-0.779895986141107,-2.96436484472854,-1.27168469739473,,-1.2596969148209975,,
,5030.0,1543.0,5655.0,1817.0,2230.0,2467.0,2000.0,,,,-0.780287144563867,-2.96441838106808,-1.27205578032282,,-1.3618698728662968,,
,5031.0,1544.0,5658.0,1817.0,2248.0,2476.0,2008.0,,,,-0.781074534505352,-2.96441298313448,-1.27304549416541,,-1.460033739602407,,
,5029.0,1544.0,5656.0,1819.0,2256.0,2479.0,2013.0,,,,-0.781432980528144,-2.96444925824618,-1.27378042737095,,-1.554103194610347,,
,5030.0,1545.0,5655.0,1818.0,2258.0,2480.0,2012.0,,,,-0.781954685510687,-2.96450051989504,-1.27371114796765,,-1.6438951787342582,,
,5035.0,1548.0,5658.0,1819.0,2263.0,2472.0,1995.0,,,,-0.782485566898579,-2.96468514569802,-1.27469125119338,,-1.7292508289939053,,
,5034.0,1548.0,5657.0,1821.0,2249.0,2472.0,1995.0,,,,-0.782843214900794,-2.96463380696076,-1.27501374853085,,-1.8101189127851425,,
,5033.0,1546.0,5657.0,1821.0,2258.0,2473.0,1996.0,,,,-0.782972811741789,-2.96483066571958,-1.2757276877387,,-1.8865812048225972,,
,5036.0,1550.0,5661.0,1820.0,2259.0,2483.0,2005.0,,,,-0.783462858699285,-2.96471448461835,-1.27644417744575,,-1.9588066802932809,,
,5035.0,1551.0,5659.0,1821.0,2270.0,2480.0,1997.0,,,,-0.78377680834343,-2.96471487938994,-1.27724399757188,,-2.0269327773271666,,
,5038.0,1552.0,5661.0,1821.0,2271.0,2488.0,1999.0,,,,-0.784004200302529,-2.96479032031922,-1.27622936667998,,-2.090886317046809,,
,5039.0,1555.0,5662.0,1820.0,2223.0,2473.0,2015.0,,,,-0.784541214748589,-2.96475069701218,-1.27713234493023,,-2.150170228246376,,
,5042.0,1553.0,5660.0,1820.0,2225.0,2476.0,2021.0,,,,-0.784529885895884,-2.96483342530969,-1.27733985113626,,-2.2036516126349945,,
,5042.0,1558.0,5663.0,1823.0,2214.0,2470.0,2016.0,,,,-0.784308184155576,-2.96478621444755,-1.2772453207743,,-2.2493901858031036,,
,5044.0,1558.0,5664.0,1823.0,2229.0,2466.0,2015.0,,,,-0.78447478012717,-2.96482126703032,-1.2755728959289,,-2.284543425221906,,
,5042.0,1560.0,5662.0,1823.0,2256.0,2468.0,2033.0,,,,-0.784047809859379,-2.96482758588607,-1.27683490224256,,-2.3053762510713907,,
,5045.0,1560.0,5664.0,1823.0,2228.0,2470.0,2011.0,,,,-0.783780626405883,-2.96473501246,-1.2771939466745,,-2.3073898299242597,,
,5048.0,1564.0,5665.0,1825.0,2244.0,2477.0,2001.0,,,,-0.783667649175603,-2.96467689695778,-1.27613138473415,,-2.285568080342057,,
,5049.0,1567.0,5667.0,1826.0,2247.0,2481.0,2011.0,,,,-0.783260196153585,-2.96473679380598,-1.27606716857514,,-2.2347241753872193,,
,5050.0,1569.0,5667.0,1828.0,2236.0,2478.0,2018.0,,,,-0.782710229092458,-2.96474274688341,-1.27498668137459,,-2.1499151582050744,,
,5048.0,1568.0,5666.0,1825.0,2242.0,2484.0,2018.0,,,,-0.782903929214861,-2.96461711649906,-1.27558234836761,,-2.0268827138466965,,
,5050.0,1568.0,5666.0,1824.0,2238.0,2468.0,2013.0,,,,-0.783228946566996,-2.96463207925033,-1.27559070647335,,-1.8624738278497897,,
,5054.0,1572.0,5671.0,1826.0,2224.0,2464.0,2000.0,,,,-0.782582114621701,-2.96466917456167,-1.27538666189817,,-1.6549974681842545,,
,5059.0,1574.0,5670.0,1828.0,2249.0,2465.0,1998.0,,,,-0.782560001340731,-2.96459916915072,-1.27567382523955,,-1.404482221421634,,
,5055.0,1577.0,5670.0,1828.0,2235.0,2481.0,2006.0,,,,-0.782542086551665,-2.96466903985313,-1.27510410325976,,-1.1128131870388964,,
,5060.0,1580.0,5669.0,1831.0,2235.0,2502.0,2004.0,,,,-0.782188923422702,-2.96471699835754,-1.27486793181123,,-0.7837414259756442,,
,5063.0,1583.0,5673.0,1831.0,2256.0,2493.0,2003.0,,,,-0.781884819461263,-2.96456790312576,-1.27518576109692,,-0.42277247428205533,,
,5061.0,1582.0,5673.0,1830.0,2242.0,2491.0,2002.0,,,,-0.781750764984273,-2.96456910205792,-1.27475941771472,,-0.036949236801712464,,
,5062.0,1580.0,5669.0,1829.0,2229.0,2474.0,2004.0,,,,-0.782034586929734,-2.96450241673901,-1.27487827741721,,0.36545150834843504,,
,5068.0,1585.0,5676.0,1833.0,2239.0,2475.0,1997.0,,,,-0.781703380869594,-2.96461673670876,-1.27451095532086,,0.7752886638951757,,
,5066.0,1587.0,5678.0,1835.0,2245.0,2477.0,2018.0,,,,-0.781597260373359,-2.96456369789093,-1.2745728331284,,1.1829708189340007,,
,5070.0,1588.0,5674.0,1834.0,2256.0,2487.0,2015.0,,,,-0.781551618662697,-2.96448410629536,-1.27442205786954,,1.5788903325403294,,
,5066.0,1588.0,5677.0,1835.0,2248.0,2507.0,2014.0,,,,-0.781141678896018,-2.96453293116048,-1.27467740874108,,1.9538500605524844,,
,5069.0,1590.0,5675.0,1836.0,2257.0,2492.0,2000.0,,,,-0.781278098447755,-2.96446361505222,-1.27458328699177,,2.2994539249986787,,
,5072.0,1594.0,5678.0,1839.0,2279.0,2491.0,2010.0,,,,-0.781604173992412,-2.96448546737842,-1.27447313404263,,2.6084338961938003,,
,5072.0,1595.0,5677.0,1837.0,2261.0,2488.0,2016.0,,,,-0.781326637985659,-2.96446367662361,-1.27497902224216,,2.8748902043847053,,
,5070.0,1593.0,5681.0,1836.0,2270.0,2481.0,2014.0,,,,-0.781472222635564,-2.96441384432813,-1.27486845225421,,3.0944286465070046,,
,5073.0,1588.0,5676.0,1836.0,2251.0,2480.0,2021.0,,,,-0.781914048653013,-2.96444577040194,-1.27540933254587,,3.264188311177301,,
,5072.0,1585.0,5677.0,1837.0,2233.0,2474.0,2029.0,,,,-0.781468761562434,-2.96446292581769,-1.27420881622339,,3.3827638281411043,,
,5065.0,1578.0,5676.0,1835.0,2231.0,2478.0,2028.0,,,,-0.781406816363649,-2.96450608374961,-1.2753470828873,,3.45003694264373,,
,5060.0,1571.0,5672.0,1835.0,2230.0,2470.0,2013.0,,,,-0.78175028039354,-2.96456636432577,-1.2750100222531,,3.4669418186481478,,
,5059.0,1564.0,5673.0,1831.0,2187.0,2473.0,2010.0,,,,-0.781817829442889,-2.9645482667051,-1.27551958161599,,3.435196368920627,,
,5055.0,1560.0,5670.0,1831.0,2211.0,2466.0,2017.0,,,,-0.782113688875132,-2.96456927165258,-1.27490443723458,,3.3570370080795375,,
,5052.0,1554.0,5670.0,1830.0,2210.0,2463.0,2011.0,,,,-0.781318289186804,-2.96449767803665,-1.27517525794284,,3.234994703327205,,
,5050.0,1548.0,5664.0,1828.0,2182.0,2463.0,2007.0,,,,-0.781458123830259,-2.96449033614707,-1.27442215100441,,3.0717445042139966,,
,5045.0,1545.0,5667.0,1828.0,2209.0,2467.0,2005.0,,,,-0.781000093034648,-2.96457054444099,-1.27450008868986,,2.870048680100644,,
,5045.0,1544.0,5663.0,1828.0,2220.0,2471.0,1998.0,,,,-0.781093117839778,-2.96457209908815,-1.27397227130794,,2.632796515402103,,
,5047.0,1538.0,5663.0,1825.0,2206.0,2473.0,1997.0,,,,-0.780887027635664,-2.96452856394017,-1.27451613682688,,2.3631243603172196,,
,5044.0,1539.0,5658.0,1822.0,2239.0,2479.0,1997.0,,,,-0.781137747950466,-2.96448805221347,-1.274218868857,,2.0645816074934653,,
,5042.0,1535.0,5657.0,1823.0,2266.0,2492.0,1995.0,,,,-0.781103315635854,-2.96441403426578,-1.27393620036105,,1.741296356699763,,
,5044.0,1536.0,5655.0,1822.0,2289.0,2497.0,1997.0,,,,-0.780663757512398,-2.96445707013007,-1.27382298314805,,1.3980921777994628,,
,5044.0,1535.0,5655.0,1821.0,2289.0,2494.0,1995.0,,,,-0.780594580774787,-2.96446026614738,-1.27434357080514,,1.0405157216919414,,
,5044.0,1537.0,5654.0,1820.0,2276.0,2474.0,2009.0,,,,-0.77985078854643,-2.96444150180618,-1.27364717698627,,0.6747522839557114,,
,5046.0,1540.0,5657.0,1821.0,2245.0,2474.0,2008.0,,,,-0.779920987797971,-2.96424629763462,-1.27363966363412,,0.3074287817106857,,
,5049.0,1539.0,5655.0,1820.0,2261.0,2477.0,2007.0,,,,-0.779557023362919,-2.9643408947226,-1.27362293036542,,-0.05467442944114521,,
,5051.0,1542.0,5654.0,1820.0,2277.0,2482.0,2011.0,,,,-0.7797406472041,-2.96432399367797,-1.27337263402771,,-0.4049650957260208,,
,5052.0,1544.0,5655.0,1820.0,2276.0,2479.0,2009.0,,,,-0.779533928446892,-2.96436563168134,-1.27337560957145,,-0.7373885695476591,,
,5053.0,1545.0,5656.0,1819.0,2240.0,2473.0,2004.0,,,,-0.779855154246004,-2.96425837737135,-1.2736814004056,,-1.0467414277777303,,
,5058.0,1552.0,5660.0,1823.0,2223.0,2475.0,2006.0,,,,-0.779333114217885,-2.96440597900915,-1.27375833953594,,-1.3289142346367313,,
,5057.0,1551.0,5657.0,1821.0,2233.0,2472.0,1995.0,,,,-0.779521051545251,-2.96430595054585,-1.27396422250626,,-1.581041995894578,,
,5060.0,1554.0,5658.0,1823.0,2235.0,2477.0,1994.0,,,,-0.778748641893429,-2.96435095377214,-1.27268453116359,,-1.801556093844203,,
,5062.0,1553.0,5659.0,1823.0,2232.0,2469.0,1997.0,,,,-0.77912697628079,-2.9643337077701,-1.27331337519881,,-1.9901456511272015,,
,5063.0,1558.0,5661.0,1824.0,2242.0,2476.0,2002.0,,,,-0.779077766511735,-2.96431606276742,-1.27266941137007,,-2.147647019695084,,
,5066.0,1562.0,5662.0,1822.0,2209.0,2478.0,2008.0,,,,-0.779346240202031,-2.96434329992174,-1.27341157226709,,-2.2758859260886366,,
,5064.0,1565.0,5662.0,1824.0,2203.0,2475.0,2005.0,,,,-0.779230435583693,-2.96423875514617,-1.27374464575724,,-2.3774971384674357,,
,5068.0,1563.0,5661.0,1825.0,2225.0,2471.0,2004.0,,,,-0.779252748476891,-2.96430524488647,-1.27318293617484,,-2.455741751640315,,
,5070.0,1567.0,5664.0,1824.0,2215.0,2468.0,2000.0,,,,-0.779384506088161,-2.96432412804821,-1.27274227019805,,-2.514333870920177,,
,5069.0,1567.0,5664.0,1825.0,2221.0,2483.0,2009.0,,,,-0.779210328012774,-2.9644068466511,-1.27246662438522,,-2.557279193889143,,
,5073.0,1569.0,5665.0,1825.0,2216.0,2482.0,2012.0,,,,-0.779045519050383,-2.96435028004253,-1.27324000798979,,-2.5887205364234878,,
,5069.0,1567.0,5664.0,1824.0,2223.0,2470.0,2024.0,,,,-0.779069995673362,-2.96439566703316,-1.2728891681058,,-2.612781758303958,,
,5068.0,1570.0,5664.0,1827.0,2232.0,2490.0,2031.0,,,,-0.77941908280809,-2.96433173632616,-1.2720664186245,,-2.6334026149296994,,
,5072.0,1569.0,5664.0,1827.0,2237.0,2475.0,2021.0,,,,-0.77936599819865,-2.96421191430148,-1.27288039681879,,-2.6541622344274334,,
,5075.0,1569.0,5668.0,1828.0,2236.0,2473.0,2018.0,,,,-0.779577636222287,-2.96436000589592,-1.27287424414449,,-2.67809625875263,,
,5072.0,1566.0,5666.0,1828.0,2254.0,2486.0,2009.0,,,,-0.77932154483281,-2.96419501180335,-1.27279778863147,,-2.7075194751260496,,
,5071.0,1568.0,5667.0,1828.0,2218.0,2483.0,2003.0,,,,-0.779637867494754,-2.96425143643313,-1.27272880080852,,-2.7438697279011053,,
,5074.0,1568.0,5668.0,1829.0,2220.0,2466.0,1997.0,,,,-0.779124846992872,-2.96443011575004,-1.27265038969485,,-2.787589104158596,,
,5074.0,1569.0,5667.0,1829.0,2218.0,2465.0,1996.0,,,,-0.77928069905296,-2.9644326620036,-1.27361110034431,,-2.8380551703799966,,
,5074.0,1567.0,5670.0,1828.0,2230.0,2488.0,2009.0,,,,-0.779576429840262,-2.96433495387192,-1.27358455878201,,-2.893569488541168,,
,5074.0,1568.0,5668.0,1829.0,2222.0,2481.0,2011.0,,,,-0.780267225729186,-2.96445814954645,-1.27405094665825,,-2.9514042036427814,,
,5077.0,1570.0,5671.0,1830.0,2219.0,2474.0,1998.0,,,,-0.78097613060124,-2.96448030856337,-1.27392367876772,,-3.007901717812871,,
,5078.0,1572.0,5669.0,1831.0,2229.0,2478.0,2004.0,,,,-0.781361741989931,-2.9644760079909,-1.27466603771986,,-3.0586185883257793,,
,5078.0,1571.0,5670.0,1829.0,2240.0,2500.0,2015.0,,,,-0.781677637080175,-2.96449652084646,-1.27493364351283,,-3.098503349111699,,
,5079.0,1572.0,5672.0,1828.0,2230.0,2492.0,2006.0,,,,-0.78226071123378,-2.96453467815995,-1.2758268653641,,-3.1220987639466107,,
,5079.0,1574.0,5670.0,1832.0,2231.0,2486.0,2010.0,,,,-0.782954113992843,-2.96460040860043,-1.27684909973678,,-3.1237613112254707,,
,5081.0,1575.0,5672.0,1829.0,2238.0,2491.0,2019.0,,,,-0.783250205427329,-2.96462379115529,-1.27656486594295,,-3.097893269782599,,
,5081.0,1576.0,5672.0,1831.0,2234.0,2484.0,2007.0,,,,-0.784245219919638,-2.96471792260199,-1.27709996988468,,-3.0391843500435605,,
,5086.0,1577.0,5671.0,1833.0,2235.0,2483.0,2007.0,,,,-0.783793835282748,-2.96476036222512,-1.27752444564366,,-2.9428597326661965,,
2025-06-30 19:45:06,5088.0,1582.0,5675.0,1832.0,2237.0,2480.0,2003.0,,,2025/06/30 07:45:06 PM,-0.784308276459665,-2.96472922874073,-1.27862212290921,,-2.8049298269031144,,
,5089.0,1582.0,5675.0,1833.0,2238.0,2482.0,2008.0,,,,-0.78466767473212,-2.96480436702706,-1.27818249262253,,-2.622434503476985,,
,5090.0,1586.0,5677.0,1834.0,2229.0,2481.0,1999.0,,,,-0.784610743719997,-2.96483421658306,-1.27742630968005,,-2.393671098525139,,
,5091.0,1585.0,5674.0,1835.0,2232.0,2464.0,2008.0,,,,-0.783822428107776,-2.96475617512008,-1.2770160134971,,-2.118391063024443,,
,5095.0,1588.0,5678.0,1836.0,2233.0,2460.0,2019.0,,,,-0.784444371807904,-2.96485067162428,-1.27718569875427,,-1.7979453528914568,,
,5095.0,1591.0,5679.0,1838.0,2225.0,2458.0,2008.0,,,,-0.783963999820353,-2.96489012120254,-1.27765424926386,,-1.435355345859931,,
,5097.0,1591.0,5677.0,1836.0,2244.0,2464.0,2008.0,,,,-0.783850400868108,-2.96473856110069,-1.27691560578015,,-1.035286674680803,,
,5098.0,1593.0,5678.0,1836.0,2243.0,2471.0,2007.0,,,,-0.783181857696931,-2.96463935287043,-1.27677515837772,,-0.6039095022383717,,
,5099.0,1594.0,5679.0,1835.0,2234.0,2469.0,2009.0,,,,-0.783026009038591,-2.96463557327541,-1.27691606785838,,-0.14864039343478422,,
,5105.0,1599.0,5681.0,1841.0,2229.0,2470.0,2005.0,,,,-0.782786983691729,-2.96462675536067,-1.2770943798805,,0.3222233490198795,,
,5103.0,1600.0,5682.0,1840.0,2236.0,2478.0,2002.0,,,,-0.7820953828631,-2.9647465465662,-1.27621753657963,,0.7999486201079101,,
,5104.0,1601.0,5679.0,1837.0,2243.0,2481.0,2004.0,,,,-0.782200151335604,-2.96460328543363,-1.27579561472858,,1.275846744688733,,
,5105.0,1601.0,5681.0,1841.0,2238.0,2482.0,1999.0,,,,-0.782157148463297,-2.96462615085501,-1.27565118166605,,1.7417348926419565,,
,5108.0,1607.0,5685.0,1842.0,2249.0,2479.0,2005.0,,,,-0.781826287812255,-2.96451383086518,-1.27557531309484,,2.1903231815572557,,
,5109.0,1605.0,5685.0,1844.0,2247.0,2489.0,2008.0,,,,-0.781491483192237,-2.96453999247259,-1.27531832407988,,2.61548069747735,,
,5111.0,1606.0,5683.0,1841.0,2234.0,2484.0,2023.0,,,,-0.781232651977637,-2.96447122665961,-1.27568268156192,,3.0123515714461195,,
,5111.0,1610.0,5684.0,1846.0,2241.0,2484.0,2007.0,,,,-0.780877553480584,-2.96449992495726,-1.27547332956347,,3.377316359180858,,
,5114.0,1612.0,5687.0,1844.0,2268.0,2478.0,2018.0,,,,-0.780600438319174,-2.96449210210315,-1.27494776895066,,3.70781980972101,,
,5113.0,1614.0,5688.0,1846.0,2251.0,2484.0,2008.0,,,,-0.780965644602267,-2.96452203664872,-1.27586568946164,,4.002108426009885,,
,5115.0,1612.0,5687.0,1844.0,2221.0,2483.0,2006.0,,,,-0.781403263625863,-2.96448436989759,-1.27486649275024,,4.258935120781753,,
,5120.0,1617.0,5689.0,1849.0,2224.0,2479.0,2029.0,,,,-0.780673454490379,-2.9644886748732,-1.2747199157141,,4.477290737967407,,
,5121.0,1619.0,5691.0,1847.0,2231.0,2474.0,2019.0,,,,-0.780838655565309,-2.96446645891093,-1.27480084831195,,4.65621299953126,,
,5120.0,1618.0,5691.0,1850.0,2229.0,2479.0,2023.0,,,,-0.780777138236237,-2.96443744520605,-1.274049997665,,4.794704689150238,,
,5119.0,1617.0,5688.0,1847.0,2236.0,2481.0,2019.0,,,,-0.780399906246291,-2.96458249911548,-1.27464434504838,,4.891768356839004,,
,5118.0,1619.0,5691.0,1850.0,2248.0,2499.0,2016.0,,,,-0.780959322844745,-2.96445798394824,-1.27488734983615,,4.9465395541066375,,
,5120.0,1616.0,5690.0,1849.0,2274.0,2491.0,2018.0,,,,-0.780855203611924,-2.96441305013116,-1.27459490128964,,4.958480213800565,,
,5116.0,1609.0,5689.0,1848.0,2270.0,2490.0,2020.0,,,,-0.781149265281867,-2.96436894603269,-1.27506268938919,,4.927582912697059,,
,5111.0,1600.0,5684.0,1846.0,2244.0,2488.0,2018.0,,,,-0.781206517979552,-2.96441975696395,-1.27578068959232,,4.854537540005475,,
,5108.0,1593.0,5684.0,1843.0,2227.0,2477.0,2021.0,,,,-0.781240594865352,-2.96446830633425,-1.27437996703017,,4.740823582116936,,
,5100.0,1583.0,5683.0,1845.0,2206.0,2475.0,2019.0,,,,-0.781211337570736,-2.96444095416067,-1.27595169002537,,4.588710529312033,,
,5101.0,1579.0,5681.0,1842.0,2205.0,2469.0,2015.0,,,,-0.78112313358206,-2.96449405313784,-1.27534141456297,,4.40117051109386,,
,5092.0,1572.0,5679.0,1839.0,2195.0,2480.0,2024.0,,,,-0.781225006100251,-2.96444131417898,-1.27512623884481,,4.181725115538812,,
,5092.0,1565.0,5675.0,1839.0,2210.0,2472.0,2019.0,,,,-0.781735837330205,-2.96441527747497,-1.27588066778028,,3.9342579872188037,,
,5089.0,1562.0,5673.0,1838.0,2209.0,2477.0,2015.0,,,,-0.78166564129727,-2.96452314563907,-1.27496362926749,,3.662825166459402,,
,5087.0,1555.0,5674.0,1835.0,2199.0,2481.0,2011.0,,,,-0.781396337774409,-2.96431179482749,-1.27548595236604,,3.371488131259107,,
,5085.0,1553.0,5669.0,1834.0,2226.0,2482.0,2014.0,,,,-0.780905957939417,-2.9644431320728,-1.27529200230379,,3.064183359929325,,
,5080.0,1552.0,5664.0,1829.0,2209.0,2466.0,2005.0,,,,-0.780822628438203,-2.96449123415518,-1.27514062734292,,2.74463047946745,,
,5085.0,1549.0,5665.0,1832.0,2230.0,2475.0,1995.0,,,,-0.780609455974872,-2.9643611643151,-1.27497338662078,,2.4162719678823454,,
,5085.0,1549.0,5664.0,1830.0,2233.0,2477.0,2000.0,,,,-0.781018689681602,-2.96439326826061,-1.27452091843445,,2.082233040182673,,
,5082.0,1549.0,5659.0,1829.0,2226.0,2471.0,2001.0,,,,-0.780523743454887,-2.96437310268102,-1.2754975394527,,1.7452910615324928,,
,5081.0,1547.0,5659.0,1827.0,2259.0,2474.0,2002.0,,,,-0.780915126160408,-2.96443007348707,-1.27435416898009,,1.407848436988374,,
,5086.0,1548.0,5659.0,1826.0,2259.0,2467.0,1999.0,,,,-0.780538377252661,-2.96437896255226,-1.27455257606971,,1.0719095816930622,,
,5086.0,1547.0,5657.0,1827.0,2284.0,2470.0,2002.0,,,,-0.780847460851851,-2.96435616801941,-1.27496570247572,,0.7390690920293549,,
,5087.0,1552.0,5659.0,1826.0,2302.0,2482.0,1997.0,,,,-0.780508265649841,-2.96427514386039,-1.27468625363867,,0.4105223421802156,,
,5085.0,1551.0,5660.0,1827.0,2260.0,2485.0,2001.0,,,,-0.780274256627029,-2.9643926677697,-1.27376533286561,,0.08710987142450041,,
,5088.0,1556.0,5661.0,1824.0,2245.0,2475.0,2012.0,,,,-0.780332083255208,-2.96433035978893,-1.27477217198442,,-0.23059702825165185,,
,5094.0,1559.0,5659.0,1826.0,2247.0,2480.0,2022.0,,,,-0.77950074567655,-2.96433729000805,-1.27337078008349,,-0.5421692668702629,,
,5095.0,1560.0,5661.0,1827.0,2249.0,2477.0,2017.0,,,,-0.779655203926772,-2.9642947885121,-1.27386228384079,,-0.8471603273920066,,
,5093.0,1558.0,5660.0,1825.0,2228.0,2468.0,2031.0,,,,-0.779324075702948,-2.9642268772128,-1.27415376932402,,-1.1449324050870406,,
,5098.0,1564.0,5662.0,1830.0,2237.0,2468.0,2024.0,,,,-0.779391287005974,-2.96432304511718,-1.27374112436749,,-1.4344941978003105,,
,5101.0,1569.0,5666.0,1830.0,2217.0,2479.0,2022.0,,,,-0.778866046054664,-2.96421269986163,-1.27386318792327,,-1.7143795540985254,,
,5103.0,1572.0,5665.0,1831.0,2215.0,2476.0,2019.0,,,,-0.779116064678014,-2.96429223549467,-1.27372740618986,,-1.9825940744802268,,
,5103.0,1573.0,5665.0,1830.0,2245.0,2478.0,2023.0,,,,-0.778847933447222,-2.9642669858171,-1.273867782544,,-2.2366491241201873,,
,5104.0,1572.0,5666.0,1829.0,2233.0,2475.0,2011.0,,,,-0.779182590800695,-2.96425057273662,-1.27369421515303,,-2.4736902310965774,,
,5108.0,1577.0,5669.0,1832.0,2258.0,2469.0,2021.0,,,,-0.779018113814794,-2.96428662258973,-1.273604306094,,-2.6907110758140624,,
,5107.0,1575.0,5667.0,1831.0,2259.0,2470.0,2028.0,,,,-0.778926455048849,-2.96436235406777,-1.2736080456231,,-2.8848280844700858,,
,5102.0,1578.0,5669.0,1832.0,2238.0,2474.0,2018.0,,,,-0.778922554562838,-2.96432659689437,-1.27381183957068,,-3.0535778915406055,,
,5109.0,1576.0,5671.0,1833.0,2235.0,2472.0,2017.0,,,,-0.778960019563265,-2.96428833601733,-1.27400574925947,,-3.195194293320298,,
,5108.0,1579.0,5669.0,1831.0,2257.0,2472.0,2011.0,,,,-0.779287445260215,-2.96439469239727,-1.27414097581232,,-3.3088247297628883,,
,5107.0,1577.0,5669.0,1832.0,2257.0,2473.0,2016.0,,,,-0.779007256154317,-2.96438146130515,-1.27394488903373,,-3.394658021775214,,
,5106.0,1578.0,5666.0,1831.0,2244.0,2480.0,2021.0,,,,-0.778673618740869,-2.96433911458027,-1.27352202774092,,-3.4539515746135785,,
,5107.0,1578.0,5669.0,1831.0,2221.0,2479.0,2031.0,,,,-0.778847558383258,-2.96431579018586,-1.27361847670058,,-3.4889627736379163,,
,5110.0,1578.0,5673.0,1835.0,2233.0,2476.0,2018.0,,,,-0.778753195296402,-2.96438272854884,-1.27344183644298,,-3.5028018931555476,,
,5112.0,1578.0,5671.0,1834.0,2228.0,2476.0,2013.0,,,,-0.778401466038948,-2.96429468103165,-1.27346923307879,,-3.499230668642771,,
,5109.0,1576.0,5670.0,1834.0,2226.0,2485.0,2016.0,,,,-0.778931999385211,-2.96427989881552,-1.27405664588865,,-3.482431820467601,,
,5110.0,1575.0,5670.0,1832.0,2259.0,2484.0,2015.0,,,,-0.778283123855309,-2.9642905780983,-1.27355533328247,,-3.4567712818654814,,
,5109.0,1577.0,5671.0,1834.0,2252.0,2476.0,2007.0,,,,-0.778551163844508,-2.96436738693617,-1.27390947223581,,-3.4265680931034836,,
,5113.0,1579.0,5670.0,1834.0,2248.0,2471.0,2010.0,,,,-0.778445673883305,-2.96433680112194,-1.27339410762863,,-3.3958788503949564,,
,5110.0,1577.0,5670.0,1833.0,2233.0,2465.0,2017.0,,,,-0.778917090323266,-2.9642182578944,-1.27312511401403,,-3.3682966684528783,,
,5112.0,1582.0,5672.0,1832.0,2244.0,2471.0,2026.0,,,,-0.779131409904273,-2.96438735944658,-1.27415765750659,,-3.346760732804827,,
,5115.0,1581.0,5673.0,1834.0,2252.0,2469.0,2013.0,,,,-0.779723389355049,-2.9644445809971,-1.2737432753693,,-3.33337222952949,,
,5116.0,1583.0,5676.0,1836.0,2249.0,2476.0,2016.0,,,,-0.780694014641095,-2.96441005002153,-1.27431637479639,,-3.3292153311506603,,
,5116.0,1583.0,5673.0,1837.0,2239.0,2482.0,2016.0,,,,-0.781655848858123,-2.96451754114217,-1.27566599145439,,-3.3341874360526096,,
,5115.0,1582.0,5673.0,1834.0,2228.0,2483.0,2009.0,,,,-0.782080764557941,-2.96467132815789,-1.27609856029446,,-3.346850250900054,,
,5119.0,1586.0,5676.0,1837.0,2248.0,2479.0,2019.0,,,,-0.782636635704595,-2.96467844951194,-1.27734322528573,,-3.3643209972529946,,
,5120.0,1587.0,5676.0,1838.0,2246.0,2468.0,2014.0,,,,-0.783645020798205,-2.96482606385379,-1.27814785259531,,-3.3822286831064656,,
,5121.0,1589.0,5677.0,1837.0,2243.0,2473.0,2022.0,,,,-0.784260436060975,-2.96484553184351,-1.27756716136245,,-3.394761831240448,,
,5122.0,1590.0,5676.0,1839.0,2236.0,2469.0,2016.0,,,,-0.784534636492384,-2.96479416390804,-1.27944060766508,,-3.394830103642649,,
,5125.0,1594.0,5680.0,1840.0,2224.0,2461.0,2020.0,,,,-0.785039561458787,-2.96480618674665,-1.27981612679248,,-3.3743528035589043,,
,5128.0,1594.0,5679.0,1839.0,2227.0,2473.0,2013.0,,,,-0.785360376054564,-2.96480879804722,-1.2792966611468,,-3.324673109158367,,
,5126.0,1598.0,5680.0,1840.0,2236.0,2479.0,2014.0,,,,-0.785259915789318,-2.96490362280827,-1.28017965527371,,-3.2370800152342225,,
,5130.0,1599.0,5680.0,1840.0,2227.0,2470.0,2007.0,,,,-0.785298556789108,-2.96490203834699,-1.2792395851593,,-3.1034033353778936,,
,5131.0,1600.0,5681.0,1842.0,2240.0,2488.0,2010.0,,,,-0.785512877762091,-2.96479717069519,-1.27891074556901,,-2.916633959390158,,
,5132.0,1603.0,5684.0,1841.0,2225.0,2482.0,2010.0,,,,-0.785245986438914,-2.96485127170217,-1.27865212263872,,-2.67151407201539,,
,5133.0,1602.0,5681.0,1843.0,2221.0,2479.0,2003.0,,,,-0.785206311036871,-2.96475949546883,-1.27825472746963,,-2.365041010889198,,
,5132.0,1604.0,5683.0,1841.0,2219.0,2482.0,2021.0,,,,-0.785024735812714,-2.96477728463896,-1.27914000028285,,-1.996833765376933,,
,5134.0,1609.0,5682.0,1844.0,2246.0,2474.0,2007.0,,,,-0.785028679267261,-2.9648661683448,-1.2786561860372,,-1.5693223769611828,,
,5137.0,1610.0,5684.0,1846.0,2245.0,2488.0,2011.0,,,,-0.78434342863484,-2.96485962145221,-1.27733273586064,,-1.0877370472980887,,
,5135.0,1612.0,5684.0,1845.0,2252.0,2482.0,2015.0,,,,-0.784415699189098,-2.96467018742047,-1.27856220487646,,-0.5598942204224572,,
,5139.0,1611.0,5687.0,1845.0,2239.0,2475.0,2015.0,,,,-0.784267786254794,-2.96459760301094,-1.27799979816629,,0.004201347078543099,,
,5143.0,1617.0,5688.0,1847.0,2249.0,2466.0,2008.0,,,,-0.784038517500795,-2.96480655028702,-1.27810142122324,,0.5929000770189363,,
,5144.0,1617.0,5685.0,1847.0,2244.0,2472.0,2010.0,,,,-0.783752734319517,-2.96475113394051,-1.27765882657027,,1.1935444351969553,,
,5148.0,1619.0,5689.0,1849.0,2245.0,2472.0,2010.0,,,,-0.783703449265552,-2.96473381147111,-1.27766312966826,,1.7931410223084336,,
,5145.0,1620.0,5687.0,1848.0,2262.0,2473.0,2007.0,,,,-0.783679781566114,-2.96471275798386,-1.27750701602443,,2.379011835708829,,
,5147.0,1622.0,5690.0,1848.0,2255.0,2473.0,2004.0,,,,-0.783746454551602,-2.96459384397795,-1.27719564999744,,2.9393773609650737,,
,5149.0,1625.0,5691.0,1851.0,2251.0,2461.0,2001.0,,,,-0.78302437187578,-2.96461181062803,-1.27724476472193,,3.4638368935399106,,
,5151.0,1626.0,5691.0,1851.0,2265.0,2470.0,2003.0,,,,-0.782663280796052,-2.96461126223705,-1.27773621981558,,3.9437253993003063,,
,5149.0,1623.0,5689.0,1849.0,2254.0,2490.0,2004.0,,,,-0.782342265951247,-2.96455287791023,-1.27642551359206,,4.3723387915322895,,
,5150.0,1621.0,5690.0,1851.0,2250.0,2495.0,2016.0,,,,-0.782144095480309,-2.96462801354785,-1.27624922875003,,4.745028972915594,,
,5148.0,1620.0,5692.0,1850.0,2267.0,2479.0,2011.0,,,,-0.781892119326449,-2.96449001263225,-1.27617361043457,,5.059175896810643,,
,5145.0,1616.0,5692.0,1853.0,2261.0,2484.0,2016.0,,,,-0.781391382307394,-2.96442082571497,-1.27562527561426,,5.314047321539473,,
,5141.0,1607.0,5690.0,1850.0,2255.0,2493.0,2024.0,,,,-0.781776490080416,-2.96446104965108,-1.27656637266,,5.510559787726597,,
,5137.0,1601.0,5688.0,1850.0,2250.0,2477.0,2022.0,,,,-0.781691506669616,-2.96451916269389,-1.27627580216375,,5.650958240024241,,
,5132.0,1591.0,5684.0,1849.0,2227.0,2470.0,2019.0,,,,-0.782030923526981,-2.96457063871645,-1.27665366715421,,5.7384372805551065,,
,5128.0,1585.0,5683.0,1844.0,2221.0,2472.0,2023.0,,,,-0.782627220748556,-2.96441413940846,-1.27705468397992,,5.776733914475637,,
,5123.0,1580.0,5680.0,1846.0,2219.0,2477.0,2037.0,,,,-0.782710757003208,-2.96455426412795,-1.27736974400878,,5.769728303797033,,
,5120.0,1571.0,5677.0,1841.0,2224.0,2470.0,2028.0,,,,-0.782587733076128,-2.96453931290074,-1.27761605424614,,5.72109274084942,,
,5120.0,1569.0,5675.0,1841.0,2207.0,2458.0,2016.0,,,,-0.782921886339237,-2.96453672469032,-1.27665552844212,,5.63402684746053,,
,5117.0,1564.0,5675.0,1838.0,2217.0,2460.0,2017.0,,,,-0.782915021037173,-2.96458505106473,-1.27708739642208,,5.511107559689404,,
,5114.0,1559.0,5670.0,1837.0,2211.0,2461.0,2005.0,,,,-0.783232764701146,-2.96459460422338,-1.27604579429441,,5.354266830803763,,
,5110.0,1557.0,5668.0,1833.0,2229.0,2463.0,2000.0,,,,-0.782991649336795,-2.96456024842229,-1.27716385729025,,5.164890923135347,,
,5113.0,1557.0,5667.0,1835.0,2239.0,2472.0,2011.0,,,,-0.783127823882132,-2.96449841276292,-1.27642688223792,,4.944016209010439,,
