TimeLabel,MEAS1_PPG1,MEAS1_PPG2,MEAS1_PPG3,MEAS1_PPG4,ACCX,ACCY,ACCZ,HR_timestamp,HR_value,radar_timestamp,phase_rx0,phase_rx1,phase_rx2,timestep,n_process,original_rate,calculated_rate
2025-07-17 14:52:13,6872.0,751.0,6514.0,502.0,-115.0,2542.0,3008.0,2025-07-17 14:52:18,88.0,2025/07/17 02:52:13 PM,-1.81440086865887,-3.01364051490348,-1.55489640175858,2025/07/17 02:52:13 PM,-1.6842206303226912,22.088354110717773,21.742248703519813
,6868.0,749.0,6507.0,501.0,-116.0,2534.0,3013.0,2025-07-17 14:52:19,88.0,,-1.8145991229089,-3.01359753723131,-1.55491353095746,2025/07/17 02:52:23 PM,-1.7393445645113093,21.897809982299805,21.95286195286194
,6863.0,748.0,6502.0,499.0,-119.0,2523.0,3026.0,2025-07-17 14:52:20,89.0,,-1.8148388444449,-3.01364102206545,-1.55492033395119,2025/07/17 02:52:33 PM,-1.7923796529677012,21.94586753845215,22.766506523443265
,6858.0,747.0,6501.0,499.0,-126.0,2504.0,3004.0,2025-07-17 14:52:21,89.0,,-1.81451615889354,-3.01361697740553,-1.55434518292967,2025/07/17 02:52:43 PM,-1.8422967184955361,22.20726776123047,23.22377622377622
,6860.0,751.0,6499.0,499.0,-123.0,2519.0,2996.0,2025-07-17 14:52:22,89.0,,-1.81489371599037,-3.01365142888526,-1.55508178961653,2025/07/17 02:52:53 PM,-1.8867303674069444,22.68041229248047,20.596785916175403
,6858.0,751.0,6500.0,500.0,-128.0,2509.0,3007.0,2025-07-17 14:52:23,89.0,,-1.81518648416288,-3.01370345399667,-1.55500724966537,2025/07/17 02:53:03 PM,-1.9220927125458744,22.27171516418457,23.12631027253667
,6858.0,747.0,6499.0,499.0,-122.0,2526.0,3026.0,2025-07-17 14:52:24,89.0,,-1.81583231709827,-3.01355101227135,-1.55479788408554,2025/07/17 02:53:13 PM,-1.943807181742179,22.57181930541992,21.941479573058544
,6857.0,749.0,6497.0,499.0,-120.0,2516.0,3018.0,2025-07-17 14:52:25,88.0,,-1.81632350534764,-3.01362214911712,-1.55509709454929,2025/07/17 02:53:23 PM,-1.9466474534322387,22.07357788085937,21.06993214932552
,6860.0,749.0,6496.0,498.0,-125.0,2520.0,3022.0,2025-07-17 14:52:26,88.0,,-1.81562807861476,-3.01358887562981,-1.55537260208115,2025/07/17 02:53:33 PM,-1.9251516414224223,22.107589721679688,22.464646464646485
,6859.0,749.0,6495.0,499.0,-120.0,2507.0,3020.0,2025-07-17 14:52:27,89.0,,-1.81439102476467,-3.01356488160026,-1.55485468501073,2025/07/17 02:53:43 PM,-1.8740700309370755,21.770681381225582,22.034646364338506
,6858.0,749.0,6498.0,500.0,-129.0,2528.0,2998.0,2025-07-17 14:52:28,89.0,,-1.81322305079369,-3.01352499573808,-1.55411003421825,2025/07/17 02:53:53 PM,-1.788799349498388,22.132797241210938,22.23345312967952
,6862.0,751.0,6498.0,498.0,-127.0,2533.0,2993.0,2025-07-17 14:52:29,91.0,,-1.81293887756191,-3.01355727388339,-1.55453183815196,2025/07/17 02:54:03 PM,-1.6657594484285727,22.091310501098636,22.564713670969876
,6863.0,752.0,6501.0,501.0,-139.0,2513.0,3015.0,2025-07-17 14:52:30,92.0,,-1.81214084406089,-3.01359218904096,-1.55484222254601,2025/07/17 02:54:13 PM,-1.5026786077228815,22.388059616088867,20.97483660613948
,6871.0,753.0,6502.0,498.0,-127.0,2515.0,3041.0,2025-07-17 14:52:31,92.0,,-1.81185863661615,-3.01362364220702,-1.55391073496096,2025/07/17 02:54:23 PM,-1.2987688587513684,22.177419662475582,21.996266823853063
,6871.0,752.0,6505.0,500.0,-125.0,2521.0,3035.0,2025-07-17 14:52:32,93.0,,-1.81169747420124,-3.01365559900628,-1.55397302210307,2025/07/17 02:54:33 PM,-1.0547895161393643,21.676300048828125,19.611737909846916
,6872.0,752.0,6505.0,499.0,-118.0,2519.0,3029.0,2025-07-17 14:52:33,93.0,,-1.81150770735241,-3.01356027299329,-1.55415586208459,2025/07/17 02:54:43 PM,-0.773012453321215,20.594964981079105,20.255863539445656
,6874.0,752.0,6508.0,501.0,-126.0,2503.0,3013.0,2025-07-17 14:52:34,93.0,,-1.8115098176094,-3.01353594888948,-1.5541837577758,2025/07/17 02:54:53 PM,-0.45711395413572664,20.59025382995605,21.55299973096583
,6879.0,754.0,6509.0,502.0,-132.0,2499.0,3008.0,2025-07-17 14:52:35,92.0,,-1.8116705496313,-3.01344521140911,-1.55347984262836,2025/07/17 02:55:03 PM,-0.11202336737652509,20.089284896850582,22.64688491103581
,6880.0,753.0,6512.0,500.0,-126.0,2503.0,2999.0,2025-07-17 14:52:36,92.0,,-1.81208556838328,-3.01354745777499,-1.55390704821766,,0.25624256925595884,,
,6880.0,754.0,6511.0,499.0,-121.0,2519.0,3017.0,2025-07-17 14:52:37,92.0,,-1.81238570171333,-3.01350259878135,-1.55393665174848,,0.6407386715760374,,
,6883.0,754.0,6514.0,500.0,-123.0,2503.0,3018.0,2025-07-17 14:52:38,92.0,,-1.81195369704211,-3.01349237704569,-1.55413317110185,,1.0337350634903866,,
,6888.0,758.0,6519.0,504.0,-114.0,2534.0,3030.0,2025-07-17 14:52:39,92.0,,-1.81221966142747,-3.01343596950755,-1.55388895946886,,1.426851576861541,,
,6888.0,757.0,6517.0,500.0,-121.0,2535.0,3039.0,2025-07-17 14:52:40,93.0,,-1.81217666569264,-3.01344041817359,-1.55364384749793,,1.8112003647693022,,
,6891.0,755.0,6518.0,502.0,-117.0,2515.0,3030.0,2025-07-17 14:52:41,94.0,,-1.81265702296632,-3.01349496591255,-1.55517014446309,,2.177559668330985,,
,6890.0,757.0,6519.0,501.0,-125.0,2503.0,3016.0,2025-07-17 14:52:42,94.0,,-1.81287411755784,-3.01346882831154,-1.55431024114196,,2.5165991445498195,,
,6894.0,755.0,6519.0,504.0,-140.0,2512.0,3031.0,2025-07-17 14:52:43,95.0,,-1.81213366889441,-3.01347929991793,-1.55383344061816,,2.8191679597763026,,
,6891.0,756.0,6521.0,501.0,-125.0,2520.0,3017.0,2025-07-17 14:52:44,96.0,,-1.81301164878255,-3.01347455151907,-1.55449802091029,,3.076643769331371,,
,6889.0,754.0,6519.0,502.0,-121.0,2521.0,2995.0,2025-07-17 14:52:45,96.0,,-1.81314247314171,-3.01344930373114,-1.55389816460275,,3.281326553136516,,
,6891.0,756.0,6518.0,502.0,-112.0,2510.0,2993.0,2025-07-17 14:52:46,96.0,,-1.8131812237442,-3.01339635022819,-1.55470102908872,,3.426848349929637,,
,6891.0,758.0,6519.0,502.0,-121.0,2513.0,3004.0,2025-07-17 14:52:47,97.0,,-1.81222348738693,-3.01338720685365,-1.55334866505614,,3.508560254503684,,
,6892.0,758.0,6518.0,503.0,-124.0,2533.0,3029.0,2025-07-17 14:52:48,97.0,,-1.81113134410333,-3.0133292757824,-1.55380868200837,,3.523853571909834,,
,6891.0,757.0,6519.0,500.0,-129.0,2525.0,3028.0,2025-07-17 14:52:49,97.0,,-1.81051734194618,-3.01338416003445,-1.55482312327521,,3.4723744092578435,,
,6891.0,756.0,6517.0,501.0,-131.0,2526.0,3011.0,2025-07-17 14:52:50,97.0,,-1.80991454808622,-3.01340239466684,-1.55355297205639,,3.356100992321132,,
,6892.0,755.0,6515.0,502.0,-125.0,2522.0,3024.0,2025-07-17 14:52:51,97.0,,-1.80984018791967,-3.0133942916024,-1.55338333968173,,3.179269614110755,,
,6891.0,758.0,6516.0,503.0,-123.0,2499.0,3007.0,2025-07-17 14:52:52,97.0,,-1.8087793909541,-3.01347368625766,-1.55345551355317,,2.948154927585245,,
,6890.0,757.0,6515.0,500.0,-130.0,2494.0,2980.0,2025-07-17 14:52:53,96.0,,-1.80917595193713,-3.01338644812368,-1.55339896516206,,2.670728238033556,,
,6892.0,756.0,6517.0,502.0,-123.0,2514.0,3006.0,2025-07-17 14:52:54,96.0,,-1.80693125405109,-3.01335564009842,-1.55200994312548,,2.356229216422749,,
,6891.0,754.0,6511.0,499.0,-124.0,2505.0,2984.0,2025-07-17 14:52:55,95.0,,-1.80643421764481,-3.01327342298401,-1.55219202883053,,2.0146904965094445,,
,6890.0,755.0,6514.0,501.0,-128.0,2505.0,2985.0,2025-07-17 14:52:56,94.0,,-1.80589549988979,-3.01335384050989,-1.55269747243518,,1.6564522142297526,,
,6892.0,759.0,6514.0,503.0,-132.0,2519.0,3001.0,2025-07-17 14:52:57,94.0,,-1.80750231649926,-3.01335108941231,-1.55253855609548,,1.291697260109447,,
,6893.0,760.0,6516.0,502.0,-130.0,2529.0,3020.0,2025-07-17 14:52:58,94.0,,-1.80755915198943,-3.01341266410956,-1.55272945098124,,0.93003017404742,,
,6897.0,757.0,6515.0,500.0,-122.0,2530.0,3013.0,2025-07-17 14:52:59,94.0,,-1.80723613938297,-3.01333833060893,-1.55329566295628,,0.5801147853791191,,
,6898.0,756.0,6518.0,501.0,-115.0,2512.0,3018.0,2025-07-17 14:53:00,95.0,,-1.80815446696181,-3.01340241589019,-1.55336084447853,,0.2493789188432349,,
,6901.0,761.0,6519.0,502.0,-124.0,2505.0,3018.0,2025-07-17 14:53:01,94.0,,-1.80858588748248,-3.01331557690863,-1.55309437409335,,-0.056210407390023594,,
,6902.0,758.0,6522.0,503.0,-123.0,2504.0,3005.0,2025-07-17 14:53:02,94.0,,-1.80913337171768,-3.01337563679515,-1.55346598720628,,-0.33230015619141495,,
,6906.0,757.0,6521.0,503.0,-124.0,2529.0,3003.0,2025-07-17 14:53:03,94.0,,-1.8093272730873,-3.01336874037605,-1.55332217500014,,-0.5762312420484403,,
,6904.0,759.0,6521.0,501.0,-112.0,2519.0,3008.0,2025-07-17 14:53:04,93.0,,-1.80823342345672,-3.0134148329696,-1.55281678659448,,-0.7870417098912161,,
,6911.0,763.0,6529.0,502.0,-119.0,2504.0,2993.0,2025-07-17 14:53:05,94.0,,-1.80900716105853,-3.01337154951435,-1.55322802471348,,-0.9653883924862843,,
,6914.0,760.0,6529.0,504.0,-117.0,2504.0,3019.0,2025-07-17 14:53:06,94.0,,-1.80850368711577,-3.01341503103344,-1.55296257272873,,-1.1133844329547617,,
,6916.0,760.0,6533.0,505.0,-115.0,2538.0,3017.0,2025-07-17 14:53:07,94.0,,-1.80854982786669,-3.01330147968878,-1.55365262517166,,-1.2343560655102017,,
,6918.0,762.0,6533.0,504.0,-121.0,2514.0,3008.0,2025-07-17 14:53:08,95.0,,-1.80894088560035,-3.01335321289853,-1.55277227219581,,-1.3325304142973502,,
,6921.0,763.0,6539.0,505.0,-117.0,2524.0,3022.0,2025-07-17 14:53:09,95.0,,-1.80998768726251,-3.01338004884942,-1.55375530984296,,-1.4126742732670303,,
,6927.0,765.0,6541.0,503.0,-123.0,2497.0,3037.0,2025-07-17 14:53:10,95.0,,-1.81025254824935,-3.0134268302549,-1.55360711836911,,-1.479709787744476,,
,6929.0,763.0,6540.0,506.0,-125.0,2503.0,3034.0,2025-07-17 14:53:11,94.0,,-1.81106833067691,-3.01351082016433,-1.55468281949298,,-1.5383356490894013,,
,6932.0,765.0,6544.0,503.0,-110.0,2514.0,2998.0,2025-07-17 14:53:12,93.0,,-1.81241022618253,-3.01348290620094,-1.55458750847309,,-1.5926816930954397,,
,6935.0,767.0,6548.0,504.0,-113.0,2516.0,3001.0,2025-07-17 14:53:13,92.0,,-1.81434484754023,-3.01352449344868,-1.55495259694286,,-1.6460209355347637,,
,6939.0,767.0,6553.0,505.0,-124.0,2526.0,3025.0,2025-07-17 14:53:14,91.0,,-1.81626719031994,-3.01357174204616,-1.55506389441466,,-1.7005564827076685,,
,6943.0,768.0,6555.0,505.0,-129.0,2516.0,3005.0,2025-07-17 14:53:15,91.0,,-1.81794403910406,-3.01367363797545,-1.55566682162573,,-1.7572920290548024,,
,6946.0,766.0,6558.0,507.0,-150.0,2508.0,2994.0,2025-07-17 14:53:16,91.0,,-1.81922079259982,-3.01366079086752,-1.55612588331036,,-1.8159850363944057,,
,6951.0,770.0,6560.0,505.0,-132.0,2531.0,3006.0,2025-07-17 14:53:17,91.0,,-1.82036836848158,-3.01364953738462,-1.55609979824819,,-1.875173307613716,,
,6955.0,770.0,6563.0,507.0,-120.0,2520.0,3026.0,2025-07-17 14:53:18,91.0,,-1.82002358606066,-3.01375812598572,-1.55639631688471,,-1.9322609402281279,,
,6960.0,770.0,6567.0,506.0,-122.0,2509.0,3023.0,2025-07-17 14:53:19,91.0,,-1.81946244113756,-3.01369549182331,-1.55576527618197,,-1.983649889456482,,
,6960.0,769.0,6569.0,505.0,-122.0,2514.0,3036.0,2025-07-17 14:53:20,90.0,,-1.81829875108196,-3.01373737903009,-1.5558159148236,,-2.02490777727093,,
,6964.0,771.0,6572.0,506.0,-120.0,2514.0,3035.0,2025-07-17 14:53:21,90.0,,-1.81795936703179,-3.01360440494932,-1.55477291259913,,-2.0509686011371726,,
,6969.0,773.0,6575.0,506.0,-116.0,2501.0,3026.0,2025-07-17 14:53:22,89.0,,-1.81754208552204,-3.01364174203732,-1.55464849313499,,-2.056367772348683,,
,6974.0,775.0,6581.0,508.0,-120.0,2494.0,3021.0,2025-07-17 14:53:23,89.0,,-1.81606109812294,-3.01363684362795,-1.55614782842461,,-2.0355145562219548,,
,6978.0,772.0,6581.0,510.0,-116.0,2499.0,3026.0,2025-07-17 14:53:24,88.0,,-1.81624320200551,-3.01356846190105,-1.55474586733653,,-1.9830029373262157,,
,6981.0,773.0,6585.0,509.0,-119.0,2512.0,2998.0,2025-07-17 14:53:25,89.0,,-1.81539786058451,-3.01355558053494,-1.55559395315736,,-1.893956701104866,,
,6984.0,774.0,6588.0,510.0,-118.0,2511.0,3010.0,2025-07-17 14:53:26,90.0,,-1.81434448992714,-3.01353811942385,-1.55499105534484,,-1.7643972264158398,,
,6988.0,775.0,6592.0,510.0,-130.0,2504.0,3020.0,2025-07-17 14:53:27,91.0,,-1.81387746243405,-3.01352332502745,-1.55476400535239,,-1.5916144495351643,,
,6986.0,773.0,6591.0,507.0,-121.0,2503.0,3006.0,2025-07-17 14:53:28,91.0,,-1.81390520809295,-3.0136102333775,-1.55483505965545,,-1.3745140535107487,,
,6980.0,770.0,6585.0,506.0,-113.0,2510.0,3018.0,2025-07-17 14:53:29,92.0,,-1.81358316869557,-3.01348402298797,-1.55533009913983,,-1.1139086905559104,,
,6975.0,770.0,6583.0,505.0,-115.0,2523.0,2997.0,2025-07-17 14:53:30,92.0,,-1.81203056331708,-3.01356198715655,-1.55457650612286,,-0.8127197540846794,,
,6962.0,766.0,6575.0,508.0,-126.0,2519.0,2988.0,2025-07-17 14:53:31,92.0,,-1.81300228138844,-3.01360441750127,-1.55424274421469,,-0.47606034030252525,,
,6951.0,767.0,6567.0,505.0,-124.0,2510.0,3008.0,2025-07-17 14:53:32,92.0,,-1.81326918832271,-3.01357425506083,-1.55515252710644,,-0.111179548998238,,
,6937.0,764.0,6552.0,503.0,-115.0,2515.0,3026.0,2025-07-17 14:53:33,91.0,,-1.81276467397327,-3.01353401146023,-1.55467210210062,,0.27273876336713504,,
,6920.0,760.0,6540.0,502.0,-117.0,2499.0,3023.0,2025-07-17 14:53:34,91.0,,-1.8135810729919,-3.01355567981206,-1.55451131223888,,0.6649160427390408,,
,6903.0,758.0,6528.0,502.0,-121.0,2497.0,3012.0,2025-07-17 14:53:35,91.0,,-1.81340611785928,-3.01351671923863,-1.55492559717705,,1.053439081361715,,
,6892.0,757.0,6516.0,502.0,-120.0,2504.0,3007.0,2025-07-17 14:53:36,91.0,,-1.81204241343272,-3.01349860075803,-1.55421046818092,,1.4258116706207724,,
,6877.0,753.0,6505.0,499.0,-119.0,2500.0,3022.0,2025-07-17 14:53:37,90.0,,-1.81142580551002,-3.01346411263081,-1.55421330254836,,1.7695626869859162,,
,6863.0,749.0,6493.0,497.0,-107.0,2511.0,3009.0,2025-07-17 14:53:38,89.0,,-1.81157539833541,-3.01349035517976,-1.5552155961373,,2.072871391506451,,
,6850.0,749.0,6485.0,500.0,-106.0,2511.0,3004.0,2025-07-17 14:53:39,89.0,,-1.81186642714031,-3.01357534295649,-1.55473036396651,,2.3251696457246886,,
,6844.0,750.0,6475.0,499.0,-111.0,2529.0,3014.0,2025-07-17 14:53:40,89.0,,-1.81094522261837,-3.01352105367315,-1.55455657007533,,2.5176830510805632,,
,6838.0,747.0,6467.0,497.0,-115.0,2516.0,3015.0,2025-07-17 14:53:41,90.0,,-1.81115450431565,-3.0135223848468,-1.55402247431034,,2.643878777200891,,
,6830.0,748.0,6461.0,497.0,-129.0,2502.0,3028.0,2025-07-17 14:53:42,90.0,,-1.81074118511115,-3.01342348412388,-1.5543208327505,,2.699795985526053,,
,6823.0,746.0,6455.0,494.0,-118.0,2519.0,3015.0,2025-07-17 14:53:43,90.0,,-1.8111734357748,-3.01349755333811,-1.55446219991423,,2.6842430959186205,,
,6819.0,746.0,6454.0,497.0,-121.0,2512.0,3021.0,2025-07-17 14:53:44,90.0,,-1.8100310959744,-3.01349399914235,-1.55462445847271,,2.598852848782013,,
,6816.0,744.0,6449.0,499.0,-113.0,2504.0,3025.0,2025-07-17 14:53:45,90.0,,-1.81090646364395,-3.01340439378174,-1.55423340151492,,2.4479912639588,,
,6816.0,744.0,6448.0,495.0,-111.0,2505.0,3019.0,2025-07-17 14:53:46,90.0,,-1.81150595565007,-3.01359160215188,-1.55499197897948,,2.2385220189730224,,
,6813.0,745.0,6443.0,494.0,-115.0,2509.0,3006.0,2025-07-17 14:53:47,89.0,,-1.81172100574985,-3.01358259162424,-1.55467154997483,,1.9794352160045854,,
,6814.0,745.0,6446.0,495.0,-119.0,2532.0,3009.0,2025-07-17 14:53:48,89.0,,-1.81235586886577,-3.01351022029878,-1.55397291087497,,1.6813590020002478,,
,6814.0,747.0,6444.0,496.0,-130.0,2513.0,3000.0,2025-07-17 14:53:49,88.0,,-1.81251721645618,-3.01345632098723,-1.5547137739479,,1.3559822757328894,,
,6813.0,744.0,6441.0,496.0,-122.0,2506.0,3021.0,2025-07-17 14:53:50,88.0,,-1.81168570038792,-3.01351076313096,-1.5549531308952,,1.0154244964318067,,
,6812.0,744.0,6442.0,491.0,-108.0,2508.0,3026.0,2025-07-17 14:53:51,88.0,,-1.81110607766318,-3.01353647928567,-1.55425448096095,,0.6715930290723529,,
,6812.0,745.0,6444.0,494.0,-121.0,2519.0,3026.0,2025-07-17 14:53:52,87.0,,-1.81166864083004,-3.01356994181051,-1.55479830428009,,0.335569505121561,,
,6815.0,747.0,6445.0,495.0,-122.0,2525.0,3031.0,2025-07-17 14:53:53,87.0,,-1.8117386926144,-3.0136205085833,-1.55487173524375,,0.01706515654681206,,
,6818.0,746.0,6445.0,496.0,-133.0,2511.0,3022.0,2025-07-17 14:53:54,86.0,,-1.81226668778996,-3.01342592489361,-1.55404244237203,,-0.2760184327525566,,
,6819.0,746.0,6444.0,495.0,-130.0,2509.0,3020.0,2025-07-17 14:53:55,86.0,,-1.81173279143904,-3.01358390962132,-1.55470728636442,,-0.5378926768349939,,
,6815.0,745.0,6446.0,493.0,-128.0,2510.0,3013.0,2025-07-17 14:53:56,86.0,,-1.81364236391491,-3.01358054116221,-1.55409090655495,,-0.7650284700034915,,
,6819.0,748.0,6446.0,497.0,-118.0,2515.0,3009.0,2025-07-17 14:53:57,86.0,,-1.81245433683761,-3.0135003733314,-1.55508165099277,,-0.9561382347487644,,
,6823.0,748.0,6448.0,496.0,-120.0,2500.0,3015.0,2025-07-17 14:53:58,86.0,,-1.81285354269797,-3.01356255367403,-1.55462803475578,,-1.1120018322808247,,
,6824.0,749.0,6450.0,496.0,-130.0,2512.0,3012.0,2025-07-17 14:53:59,87.0,,-1.81211780332012,-3.01353688136539,-1.55415197483906,,-1.235160171848288,,
,6826.0,748.0,6449.0,494.0,-129.0,2512.0,3013.0,2025-07-17 14:54:00,87.0,,-1.81112992743427,-3.01350954989133,-1.5538757933465,,-1.3295127200898107,,
,6832.0,750.0,6455.0,498.0,-123.0,2503.0,3007.0,2025-07-17 14:54:01,88.0,,-1.81218004112285,-3.01345621738703,-1.55458137484341,,-1.3998623941526263,,
,6831.0,750.0,6456.0,496.0,-122.0,2499.0,3028.0,2025-07-17 14:54:02,88.0,,-1.81175482302031,-3.01357702988481,-1.55417651554499,,-1.4514528163537634,,
,6837.0,748.0,6457.0,498.0,-119.0,2510.0,3017.0,2025-07-17 14:54:03,88.0,,-1.81230638873924,-3.01354624519175,-1.55479528748007,,-1.489538881264058,,
,6837.0,750.0,6457.0,495.0,-119.0,2522.0,3020.0,2025-07-17 14:54:04,88.0,,-1.81301169067683,-3.01350534168825,-1.55462390813729,,-1.5190228959939371,,
,6838.0,751.0,6460.0,498.0,-112.0,2526.0,3026.0,2025-07-17 14:54:05,88.0,,-1.81120305472588,-3.01352095017942,-1.55425154383795,,-1.5441763728200317,,
,6840.0,751.0,6460.0,498.0,-116.0,2511.0,3018.0,2025-07-17 14:54:06,87.0,,-1.80987636342971,-3.0134985273207,-1.55328175095651,,-1.5684534123810783,,
,6841.0,751.0,6459.0,498.0,-119.0,2506.0,3004.0,2025-07-17 14:54:07,87.0,,-1.80970829057871,-3.01340925479436,-1.55457422506653,,-1.5943877299787332,,
,6839.0,753.0,6460.0,495.0,-129.0,2512.0,3004.0,2025-07-17 14:54:08,86.0,,-1.80897781825887,-3.01343436444406,-1.55485680848265,,-1.6235546974360413,,
,6843.0,750.0,6464.0,497.0,-119.0,2522.0,3026.0,2025-07-17 14:54:09,87.0,,-1.8094272323356,-3.01350102881232,-1.55316868435905,,-1.6565750851118455,,
,6840.0,752.0,6463.0,498.0,-125.0,2505.0,3022.0,2025-07-17 14:54:10,88.0,,-1.80877446127466,-3.0134381573665,-1.5532037047811,,-1.6931395372589682,,
,6844.0,752.0,6461.0,497.0,-123.0,2523.0,3024.0,2025-07-17 14:54:11,88.0,,-1.8074609078652,-3.01340300567779,-1.55230026075824,,-1.7320407090985421,,
,6842.0,750.0,6463.0,499.0,-117.0,2525.0,3008.0,2025-07-17 14:54:12,89.0,,-1.80671826120049,-3.01344170366998,-1.55295974128696,,-1.7712102805796741,,
,6841.0,751.0,6461.0,496.0,-123.0,2520.0,2999.0,2025-07-17 14:54:13,89.0,,-1.80704945192275,-3.01345834180545,-1.55285559971878,,-1.807767531660407,,
,6843.0,749.0,6461.0,498.0,-116.0,2513.0,3012.0,2025-07-17 14:54:14,89.0,,-1.80620228064226,-3.013458484428,-1.55212107924961,,-1.8380925773658778,,
,6843.0,753.0,6464.0,498.0,-118.0,2514.0,3026.0,2025-07-17 14:54:15,89.0,,-1.80658720870587,-3.01346131293317,-1.55257161833668,,-1.8579395943699653,,
,6845.0,754.0,6465.0,498.0,-115.0,2509.0,3044.0,2025-07-17 14:54:16,89.0,,-1.80526388751999,-3.01335529917823,-1.55232189439085,,-1.862603135853206,,
,6844.0,751.0,6463.0,495.0,-114.0,2513.0,3040.0,2025-07-17 14:54:17,89.0,,-1.80444648903307,-3.0134261096866,-1.55274096489662,,-1.8471441619685331,,
,6844.0,751.0,6463.0,498.0,-121.0,2524.0,3035.0,2025-07-17 14:54:18,90.0,,-1.80498216718643,-3.01331729780744,-1.5516484441848,,-1.8066723535300384,,
,6843.0,753.0,6464.0,497.0,-124.0,2524.0,3033.0,2025-07-17 14:54:19,90.0,,-1.80393781986587,-3.01342146329745,-1.55306483887163,,-1.7366689471660128,,
,6847.0,750.0,6467.0,497.0,-123.0,2513.0,3026.0,2025-07-17 14:54:20,91.0,,-1.80360055291353,-3.01337239030226,-1.55202598523337,,-1.6333222388862678,,
,6845.0,754.0,6467.0,497.0,-121.0,2515.0,3017.0,2025-07-17 14:54:21,92.0,,-1.80236162596265,-3.0134359114917,-1.55280373773324,,-1.493839717742994,,
,6847.0,752.0,6469.0,497.0,-119.0,2499.0,3021.0,2025-07-17 14:54:22,92.0,,-1.8031622805038,-3.01331216576532,-1.55186161966184,,-1.3167000192377665,,
,6851.0,752.0,6470.0,498.0,-120.0,2497.0,3012.0,2025-07-17 14:54:23,92.0,,-1.80296465788634,-3.01332674424877,-1.55166712937055,,-1.1018158117985934,,
,6854.0,754.0,6471.0,498.0,-108.0,2511.0,3014.0,2025-07-17 14:54:24,92.0,,-1.80117099527777,-3.0133699490114,-1.55122505454347,,-0.8505933094868728,,
,6853.0,754.0,6476.0,498.0,-111.0,2510.0,3016.0,2025-07-17 14:54:25,92.0,,-1.80069227449996,-3.01326149360636,-1.55138959587231,,-0.5658909194714856,,
2025-07-17 14:52:14,6856.0,752.0,6475.0,497.0,-114.0,2522.0,3013.0,2025-07-17 14:54:26,92.0,2025/07/17 02:52:14 PM,-1.79991613148195,-3.01326719368792,-1.55112820740279,,-0.25189401045526677,,
,6859.0,752.0,6479.0,499.0,-106.0,2524.0,3014.0,2025-07-17 14:54:27,92.0,,-1.79977106420513,-3.01335476200761,-1.55098976740164,,0.0860679922884837,,
,6865.0,755.0,6482.0,497.0,-121.0,2516.0,3016.0,2025-07-17 14:54:28,92.0,,-1.79996585402705,-3.01333941210043,-1.55058731860616,,0.44173286434337455,,
,6867.0,755.0,6482.0,498.0,-115.0,2511.0,3020.0,2025-07-17 14:54:29,92.0,,-1.80014242224142,-3.01339716644776,-1.55216045901014,,0.8081183002475804,,
,6867.0,754.0,6485.0,499.0,-114.0,2517.0,3006.0,2025-07-17 14:54:30,92.0,,-1.80191231653718,-3.01335137396349,-1.55292155874244,,1.1777161515549652,,
,6870.0,754.0,6485.0,498.0,-115.0,2503.0,3021.0,2025-07-17 14:54:31,92.0,,-1.8024862629922,-3.01338597675182,-1.55280725872863,,1.5426587072602704,,
,6876.0,756.0,6493.0,498.0,-111.0,2522.0,3008.0,2025-07-17 14:54:32,92.0,,-1.80339230227707,-3.01350433666467,-1.55186362191098,,1.8948601691814577,,
,6882.0,759.0,6494.0,500.0,-116.0,2515.0,2999.0,2025-07-17 14:54:33,92.0,,-1.80317429345226,-3.01356799280854,-1.55145218836355,,2.226148825891641,,
,6881.0,761.0,6499.0,500.0,-123.0,2514.0,2994.0,2025-07-17 14:54:34,92.0,,-1.80473295761877,-3.01343799002538,-1.55252393406567,,2.528413847184689,,
,6886.0,758.0,6497.0,499.0,-127.0,2519.0,3002.0,2025-07-17 14:54:35,92.0,,-1.80509949531764,-3.01347275874247,-1.55241331408311,,2.793791600663235,,
,6891.0,760.0,6505.0,501.0,-125.0,2510.0,3002.0,2025-07-17 14:54:36,92.0,,-1.80592399773063,-3.01358316682675,-1.55348843823845,,3.0149086690068643,,
,6893.0,762.0,6507.0,501.0,-124.0,2513.0,2999.0,2025-07-17 14:54:37,93.0,,-1.8069814940749,-3.01349873671291,-1.55368951578414,,3.1851842216296675,,
,6900.0,760.0,6508.0,499.0,-124.0,2505.0,2999.0,2025-07-17 14:54:38,93.0,,-1.80741514106227,-3.01356915787177,-1.55323824190691,,3.2991770455185367,,
,6902.0,760.0,6512.0,500.0,-129.0,2521.0,3002.0,2025-07-17 14:54:39,94.0,,-1.80824814729418,-3.01353403993702,-1.55316645218346,,3.352946549330557,,
,6908.0,763.0,6520.0,502.0,-118.0,2550.0,3028.0,2025-07-17 14:54:40,94.0,,-1.8080210897338,-3.01352951531936,-1.5540214194434,,3.3443856378200296,,
,6909.0,767.0,6521.0,503.0,-123.0,2514.0,3008.0,2025-07-17 14:54:41,94.0,,-1.81007888661239,-3.01359823849689,-1.55405528479131,,3.2734785255666545,,
,6911.0,763.0,6525.0,503.0,-126.0,2509.0,3009.0,2025-07-17 14:54:42,94.0,,-1.80995686911659,-3.01358256219915,-1.55487698036232,,3.1424393294812507,,
,6920.0,766.0,6529.0,500.0,-111.0,2508.0,3025.0,2025-07-17 14:54:43,93.0,,-1.80980117319986,-3.0135075321447,-1.55354506148129,,2.9556978575358426,,
,6922.0,765.0,6529.0,502.0,-126.0,2500.0,3036.0,2025-07-17 14:54:44,93.0,,-1.80944662148173,-3.0135561041361,-1.55440600525015,,2.7197167468081305,,
,6926.0,767.0,6533.0,502.0,-125.0,2498.0,3019.0,2025-07-17 14:54:45,93.0,,-1.80894959696609,-3.01357169045191,-1.55348051954409,,2.4426469549174947,,
,6930.0,769.0,6539.0,505.0,-124.0,2512.0,3011.0,2025-07-17 14:54:46,92.0,,-1.80842599275616,-3.0134978130178,-1.55367252345137,,2.133852497087482,,
,6933.0,768.0,6544.0,503.0,-117.0,2514.0,3003.0,2025-07-17 14:54:47,93.0,,-1.80843132657491,-3.0135505892575,-1.55380996969536,,1.8033545999377072,,
,6938.0,769.0,6544.0,502.0,-123.0,2505.0,3012.0,2025-07-17 14:54:48,93.0,,-1.80644219309822,-3.01349584686939,-1.55354514848636,,1.4612551042242692,,
,6941.0,768.0,6547.0,502.0,-123.0,2498.0,3004.0,2025-07-17 14:54:49,93.0,,-1.80575102171092,-3.01347699405409,-1.55389207087023,,1.117197106137635,,
,6945.0,770.0,6550.0,505.0,-130.0,2503.0,2986.0,2025-07-17 14:54:50,93.0,,-1.80571622922417,-3.01349673946025,-1.5530052754246,,0.7799093470822815,,
,6947.0,769.0,6551.0,505.0,-135.0,2512.0,2981.0,2025-07-17 14:54:51,93.0,,-1.80453552825586,-3.01345669494224,-1.55264608447986,,0.4568638751730071,,
,6940.0,767.0,6550.0,503.0,-123.0,2528.0,2988.0,2025-07-17 14:54:52,93.0,,-1.80435844656715,-3.01345081008979,-1.55311576744652,,0.15405833020961152,,
,6935.0,766.0,6543.0,501.0,-114.0,2540.0,3009.0,2025-07-17 14:54:53,93.0,,-1.80391975847279,-3.01345998880554,-1.55320408728547,,-0.12408189806405139,,
,6930.0,766.0,6543.0,502.0,-110.0,2556.0,3028.0,2025-07-17 14:54:54,93.0,,-1.8039267362956,-3.01355779099063,-1.55215340576294,,-0.37469846412790514,,
,6920.0,764.0,6534.0,503.0,-113.0,2535.0,3034.0,2025-07-17 14:54:55,92.0,,-1.80420565464632,-3.01351154548441,-1.55264033484472,,-0.596415729222378,,
,6905.0,759.0,6520.0,500.0,-126.0,2530.0,3020.0,2025-07-17 14:54:56,92.0,,-1.80449585939082,-3.0134461986117,-1.55269174056905,,-0.7892029895968006,,
,6888.0,758.0,6506.0,498.0,-120.0,2533.0,3005.0,2025-07-17 14:54:57,91.0,,-1.80449395738491,-3.01339498776881,-1.55324668974035,,-0.9542056307214719,,
,6875.0,756.0,6497.0,499.0,-113.0,2520.0,2987.0,2025-07-17 14:54:58,91.0,,-1.80407174973448,-3.01344841440596,-1.55247890505352,,-1.0935601364176168,,
,6860.0,753.0,6485.0,499.0,-116.0,2507.0,3006.0,2025-07-17 14:54:59,91.0,,-1.80337953207306,-3.01349143750591,-1.55338413703848,,-1.2101986764771655,,
,6846.0,750.0,6474.0,497.0,-116.0,2491.0,3001.0,2025-07-17 14:55:00,91.0,,-1.80338959374422,-3.01344960836869,-1.5521897514464,,-1.3076413649179863,,
,6831.0,748.0,6464.0,496.0,-110.0,2505.0,3007.0,2025-07-17 14:55:01,92.0,,-1.80179138656643,-3.01356217711293,-1.55250363426215,,-1.3897711636790886,,
,6822.0,746.0,6451.0,495.0,-114.0,2530.0,2995.0,2025-07-17 14:55:02,92.0,,-1.80058630504824,-3.0134229746717,-1.55297718000178,,-1.4605886939598935,,
,6813.0,744.0,6447.0,495.0,-118.0,2545.0,3023.0,2025-07-17 14:55:03,92.0,,-1.79990248055075,-3.01345768503267,-1.55201426252902,,-1.523950431469726,,
,6804.0,745.0,6437.0,496.0,-121.0,2527.0,3020.0,2025-07-17 14:55:04,91.0,,-1.80054192192268,-3.01342647252487,-1.55173524204341,,-1.58330124985961,,
,6800.0,743.0,6431.0,495.0,-110.0,2518.0,3005.0,2025-07-17 14:55:05,91.0,,-1.80079215211841,-3.0133984340218,-1.55164766663643,,-1.6414186423206343,,
,6792.0,743.0,6426.0,492.0,-117.0,2508.0,3028.0,2025-07-17 14:55:06,90.0,,-1.80065572208561,-3.01332660602078,-1.55156787162414,,-1.7001897195369964,,
,6791.0,743.0,6422.0,491.0,-119.0,2511.0,3000.0,2025-07-17 14:55:07,90.0,,-1.8019490358109,-3.01349422852569,-1.55138804450178,,-1.7604426515568417,,
,6787.0,744.0,6415.0,493.0,-119.0,2507.0,3013.0,2025-07-17 14:55:08,89.0,,-1.80183107871323,-3.01347406628257,-1.5511719401009,,-1.8218515201995198,,
,6785.0,743.0,6417.0,493.0,-120.0,2504.0,3016.0,2025-07-17 14:55:09,89.0,,-1.80156393216723,-3.0134816205626,-1.55290783575285,,-1.8829277023639752,,
,6782.0,742.0,6416.0,492.0,-116.0,2514.0,2999.0,2025-07-17 14:55:10,89.0,,-1.80137399782134,-3.01341463846914,-1.55185417663376,,-1.941102192183691,,
,6785.0,742.0,6413.0,493.0,-120.0,2519.0,3006.0,2025-07-17 14:55:11,89.0,,-1.80244447985186,-3.0135411909941,-1.55209551497073,,-1.9928925401865838,,
,6785.0,743.0,6416.0,495.0,-125.0,2517.0,3017.0,2025-07-17 14:55:12,89.0,,-1.80219480467033,-3.01353801639024,-1.55145049660604,,-2.0341372965703504,,
,6785.0,746.0,6415.0,492.0,-123.0,2520.0,3014.0,2025-07-17 14:55:13,89.0,,-1.80313321353892,-3.01347060235645,-1.55265178325172,,-2.0602728308149474,,
,6785.0,742.0,6413.0,491.0,-112.0,2507.0,3010.0,2025-07-17 14:55:14,89.0,,-1.80291471626166,-3.01340969826976,-1.55293379532796,,-2.066624497277463,,
,6786.0,743.0,6417.0,492.0,-118.0,2501.0,3018.0,2025-07-17 14:55:15,89.0,,-1.80195847122078,-3.01335007408758,-1.55244434364996,,-2.048686699605512,,
,6788.0,745.0,6416.0,493.0,-126.0,2510.0,3006.0,2025-07-17 14:55:16,89.0,,-1.80169822986401,-3.01339593472334,-1.55226755752685,,-2.0023728109353334,,
,6788.0,743.0,6415.0,494.0,-127.0,2516.0,3019.0,2025-07-17 14:55:17,89.0,,-1.80155266681267,-3.01341205143812,-1.55259811857095,,-1.9242237359869443,,
,6789.0,744.0,6416.0,493.0,-114.0,2538.0,3013.0,,,,-1.80139974216302,-3.01334396897859,-1.55212932432395,,-1.811571399403658,,
,6791.0,744.0,6417.0,492.0,-125.0,2513.0,3018.0,,,,-1.80241327127622,-3.01348709625872,-1.55239645386739,,-1.6626598885489758,,
,6795.0,746.0,6418.0,493.0,-119.0,2503.0,3006.0,,,,-1.80121719060261,-3.01345494961989,-1.55165343762465,,-1.4767321317870672,,
,6798.0,745.0,6421.0,494.0,-111.0,2502.0,2986.0,,,,-1.80068346747371,-3.01342219208802,-1.55157977858929,,-1.2540933381757333,,
,6798.0,748.0,6423.0,495.0,-124.0,2524.0,3004.0,,,,-1.80069028261799,-3.01334105574114,-1.5516606580351,,-0.9961628636788228,,
,6800.0,746.0,6425.0,493.0,-135.0,2520.0,3019.0,,,,-1.80068136121696,-3.01333668487589,-1.55221457824518,,-0.7055225309878741,,
,6801.0,746.0,6429.0,495.0,-124.0,2527.0,3027.0,,,,-1.80054836463234,-3.01342384149411,-1.55146516321119,,-0.38596162597845984,,
,6805.0,748.0,6430.0,493.0,-122.0,2507.0,3033.0,,,,-1.80072942754876,-3.01348194963512,-1.55184599536451,,-0.04250877344221737,,
,6810.0,750.0,6430.0,493.0,-118.0,2503.0,3034.0,,,,-1.80200022031826,-3.01331937437136,-1.55236424207309,,0.31856770586613925,,
,6812.0,748.0,6429.0,496.0,-120.0,2507.0,3027.0,,,,-1.80166110104469,-3.01342384123806,-1.55172556697805,,0.6898130719662291,,
,6812.0,748.0,6433.0,494.0,-125.0,2522.0,3034.0,,,,-1.80137136605911,-3.01338781930414,-1.5508295851804,,1.062712731264142,,
,6815.0,750.0,6434.0,496.0,-131.0,2534.0,3028.0,,,,-1.80141428776536,-3.01334680851293,-1.55165021263587,,1.4279043467709607,,
,6817.0,750.0,6437.0,495.0,-123.0,2532.0,3021.0,,,,-1.80135263841366,-3.01339136290634,-1.55132601498882,,1.7754777853233472,,
,6816.0,749.0,6436.0,493.0,-123.0,2517.0,3031.0,,,,-1.79975416834379,-3.01326096883801,-1.5511548509207,,2.0953546362694593,,
,6819.0,749.0,6436.0,492.0,-125.0,2498.0,3042.0,,,,-1.7990397274562,-3.01332926785029,-1.55131411465291,,2.3777289819992307,,
,6820.0,748.0,6440.0,494.0,-127.0,2492.0,3027.0,,,,-1.79801977207005,-3.01320159132517,-1.55084952188432,,2.6135421945173287,,
,6820.0,751.0,6436.0,495.0,-116.0,2506.0,3018.0,,,,-1.79734491452446,-3.01326911636568,-1.55004721174395,,2.794957549674719,,
,6822.0,753.0,6438.0,495.0,-113.0,2517.0,3026.0,,,,-1.79768823435948,-3.01317657741369,-1.55029465469492,,2.9157966179521098,,
,6819.0,749.0,6441.0,492.0,-121.0,2518.0,3012.0,,,,-1.79747907648013,-3.01324922142988,-1.55041482122838,,2.9719001693508313,,
,6820.0,748.0,6438.0,494.0,-124.0,2515.0,2994.0,,,,-1.79692769216467,-3.01325006901398,-1.55038703462998,,2.9613825111044263,,
,6823.0,752.0,6442.0,493.0,-117.0,2534.0,3014.0,,,,-1.79721035572942,-3.01332280803423,-1.55033026109772,,2.884758793455265,,
,6824.0,751.0,6441.0,494.0,-121.0,2526.0,3015.0,,,,-1.79740373248214,-3.01330716785954,-1.55067778609777,,2.7449371593438974,,
,6822.0,750.0,6440.0,496.0,-125.0,2510.0,3022.0,,,,-1.79722106879803,-3.01320500496723,-1.55085184134161,,2.54707881932128,,
,6825.0,752.0,6440.0,495.0,-126.0,2507.0,3005.0,,,,-1.79681947725608,-3.01334281741661,-1.55023635591178,,2.29833785006678,,
,6826.0,751.0,6445.0,496.0,-126.0,2512.0,3020.0,,,,-1.79685154814478,-3.01319324538209,-1.55001790218774,,2.007498942153037,,
,6827.0,753.0,6446.0,498.0,-124.0,2509.0,3028.0,,,,-1.79710032284338,-3.01326692324853,-1.54998345461944,,1.6845360735259742,,
,6826.0,751.0,6443.0,495.0,-132.0,2505.0,3001.0,,,,-1.79588885013356,-3.01328480718253,-1.55026212581219,,1.3401183783513706,,
,6829.0,751.0,6448.0,495.0,-111.0,2509.0,2994.0,,,,-1.79573002966263,-3.01319545492422,-1.54993085465819,,0.9850911857437795,,
,6830.0,751.0,6449.0,499.0,-116.0,2515.0,3008.0,,,,-1.7962684914932,-3.01331392635793,-1.55144018189454,,0.6299602562153174,,
,6836.0,753.0,6454.0,497.0,-114.0,2515.0,2999.0,,,,-1.79787490316856,-3.01328806557124,-1.55062784558181,,0.28440596492972425,,
,6836.0,755.0,6456.0,497.0,-112.0,2514.0,3000.0,,,,-1.79738506783239,-3.01313314120341,-1.55103006526672,,-0.04314769133859889,,
,6840.0,754.0,6455.0,495.0,-125.0,2503.0,2997.0,,,,-1.79722998556874,-3.01314954232519,-1.55068005753698,,-0.3458860890841614,,
,6843.0,754.0,6457.0,495.0,-116.0,2519.0,3018.0,,,,-1.79660258336737,-3.01314770523513,-1.55002627740047,,-0.618857360306328,,
,6845.0,757.0,6461.0,496.0,-121.0,2513.0,3033.0,,,,-1.79557210778083,-3.01329857045137,-1.55025359348555,,-0.8591073056018328,,
,6850.0,754.0,6463.0,497.0,-118.0,2508.0,3021.0,,,,-1.79539430915039,-3.01320435195794,-1.549352190709,,-1.0656828629383368,,
,6852.0,755.0,6464.0,498.0,-109.0,2529.0,3004.0,,,,-1.79689692362189,-3.01319632611851,-1.5506234891014,,-1.2395009987036683,,
,6853.0,757.0,6466.0,496.0,-104.0,2520.0,3006.0,,,,-1.79693779346438,-3.01326685311157,-1.55026667266183,,-1.3830924564835956,,
,6859.0,760.0,6472.0,498.0,-104.0,2518.0,3032.0,,,,-1.79839575812549,-3.01330385466886,-1.55140642793573,,-1.500242447958561,,
,6864.0,758.0,6475.0,499.0,-108.0,2516.0,3022.0,,,,-1.80063415123895,-3.01335171748275,-1.55092153246046,,-1.5955604996432962,,
,6866.0,757.0,6476.0,498.0,-114.0,2524.0,3028.0,,,,-1.80175914299079,-3.01339983915305,-1.55133672860505,,-1.6740176752892202,,
,6868.0,759.0,6480.0,497.0,-126.0,2529.0,3043.0,,,,-1.80372615248799,-3.01339268687409,-1.55259584572046,,-1.740490751762591,,
,6874.0,760.0,6483.0,498.0,-117.0,2516.0,3013.0,,,,-1.80441747758348,-3.01341637575252,-1.55155700220098,,-1.7993498334569717,,
,6877.0,762.0,6485.0,497.0,-120.0,2510.0,3039.0,,,,-1.80584560778937,-3.01349988860735,-1.55263372216189,,-1.854118898070514,,
,6879.0,762.0,6489.0,499.0,-129.0,2510.0,3048.0,,,,-1.80693581028643,-3.0135229155338,-1.55395827458219,,-1.907228666537208,,
,6886.0,763.0,6490.0,499.0,-127.0,2530.0,3049.0,,,,-1.80789463806102,-3.01349978726017,-1.55405314912284,,-1.9598692840795224,,
,6888.0,763.0,6495.0,499.0,-143.0,2516.0,3005.0,,,,-1.80687273585542,-3.01356218137142,-1.55290898106256,,-2.011938746243483,,
,6894.0,766.0,6499.0,501.0,-124.0,2523.0,2991.0,,,,-1.80804662564372,-3.01347351738328,-1.55300896526566,,-2.0620745105474243,,
,6898.0,763.0,6505.0,500.0,-119.0,2518.0,2983.0,,,,-1.80911294173122,-3.01349967457512,-1.55409578721098,,-2.107752297657565,,
,6903.0,766.0,6506.0,498.0,-119.0,2505.0,3004.0,,,,-1.80935563907411,-3.01353417368901,-1.55370266783351,,-2.145437679099715,,
,6905.0,765.0,6510.0,500.0,-112.0,2506.0,3013.0,,,,-1.80881431903591,-3.01356899781471,-1.55330298467812,,-2.1707805803716846,,
,6911.0,769.0,6514.0,501.0,-111.0,2509.0,3032.0,,,,-1.80857593129673,-3.01359113084517,-1.55338028421632,,-2.1788474663617334,,
,6913.0,769.0,6517.0,502.0,-116.0,2511.0,3021.0,,,,-1.80701680941397,-3.01345394376654,-1.55322079613046,,-2.1643885765501754,,
,6917.0,768.0,6520.0,501.0,-115.0,2516.0,3037.0,,,,-1.80594843705843,-3.01356387144107,-1.55290006570772,,-2.1221372384540262,,
,6922.0,767.0,6523.0,502.0,-128.0,2537.0,3004.0,,,,-1.80523704619491,-3.01342511186713,-1.55222534941325,,-2.047135150008907,,
,6926.0,769.0,6525.0,502.0,-117.0,2525.0,3013.0,,,,-1.8041948099575,-3.01348603908928,-1.55219119483721,,-1.9350723601545312,,
,6930.0,768.0,6530.0,503.0,-125.0,2493.0,2999.0,,,,-1.80402522613945,-3.01341728206742,-1.55256541954031,,-1.7826245889191166,,
,6931.0,773.0,6531.0,502.0,-125.0,2499.0,2987.0,,,,-1.80361039452809,-3.01341443689341,-1.55200090937686,,-1.587764823107037,,
,6934.0,770.0,6531.0,504.0,-118.0,2504.0,2979.0,,,,-1.80255676082691,-3.01338425510464,-1.55252261148831,,-1.3500223972346534,,
,6933.0,769.0,6534.0,501.0,-118.0,2517.0,3001.0,,,,-1.80339239722672,-3.01340752828233,-1.55206631303482,,-1.0706628479098852,,
,6932.0,769.0,6530.0,502.0,-126.0,2536.0,3035.0,,,,-1.80379926684503,-3.01341768256009,-1.55225645815383,,-0.7527670796077073,,
,6926.0,767.0,6530.0,503.0,-131.0,2535.0,3039.0,,,,-1.80433240639303,-3.01343805328198,-1.55213610129481,,-0.4011985566263257,,
,6916.0,766.0,6519.0,501.0,-126.0,2550.0,3005.0,,,,-1.80354582094309,-3.01351302938575,-1.55286555688979,,-0.022460075708995036,,
,6904.0,762.0,6511.0,499.0,-121.0,2526.0,3023.0,,,,-1.80395820680243,-3.0135686749278,-1.55239622497765,,0.37554604126633134,,
,6890.0,760.0,6501.0,500.0,-120.0,2498.0,2995.0,,,,-1.80487696656339,-3.01353242036559,-1.55335119776534,,0.7838313295256534,,
,6876.0,759.0,6491.0,501.0,-125.0,2491.0,2994.0,,,,-1.80456955469709,-3.01347540413123,-1.55342667914869,,1.1926802187518915,,
,6862.0,755.0,6478.0,497.0,-119.0,2505.0,2995.0,,,,-1.8039765143855,-3.01349070142405,-1.55258241576343,,1.592026110511028,,
,6846.0,752.0,6466.0,495.0,-109.0,2512.0,3023.0,,,,-1.80453272428238,-3.01348088596607,-1.55262502915158,,1.9718188777388377,,
,6832.0,751.0,6456.0,496.0,-110.0,2519.0,3011.0,,,,-1.80389928062146,-3.0135066460568,-1.55271361368148,,2.322364294646441,,
,6822.0,750.0,6445.0,496.0,-106.0,2517.0,2983.0,,,,-1.80318318266804,-3.01346755608867,-1.55233997740783,,2.634624535353271,,
,6813.0,750.0,6436.0,493.0,-104.0,2517.0,3003.0,,,,-1.80246744790834,-3.0134616716043,-1.55209051375697,,2.900478776410953,,
,6799.0,747.0,6426.0,492.0,-107.0,2520.0,3024.0,,,,-1.80188339516296,-3.01342671568382,-1.55189127194103,,3.1129516440386333,,
,6792.0,744.0,6421.0,493.0,-119.0,2509.0,3024.0,,,,-1.8025863188215,-3.01338354757569,-1.55206607995713,,3.266421448177307,,
,6789.0,744.0,6417.0,495.0,-120.0,2513.0,3011.0,,,,-1.80291633899691,-3.01349352887833,-1.55145298210232,,3.3568174650525155,,
,6786.0,746.0,6413.0,495.0,-116.0,2519.0,3026.0,,,,-1.80271479824821,-3.01354659099025,-1.55170813677733,,3.3818064045693763,,
,6781.0,744.0,6408.0,492.0,-116.0,2520.0,3024.0,,,,-1.80331994215265,-3.0134486535211,-1.55193501634429,,3.3409559826944606,,
,6779.0,744.0,6403.0,490.0,-112.0,2543.0,3003.0,,,,-1.80264072933515,-3.01342711494304,-1.55251850948694,,3.235852714095164,,
2025-07-17 14:52:15,6775.0,746.0,6402.0,491.0,-121.0,2518.0,3015.0,,,2025/07/17 02:52:15 PM,-1.80386317378117,-3.0135026122127,-1.55221600577806,,3.070145244243327,,
,6777.0,745.0,6403.0,491.0,-128.0,2521.0,3020.0,,,,-1.80357712725326,-3.01352153777921,-1.55276881843094,,2.8494854513017773,,
,6777.0,745.0,6401.0,494.0,-127.0,2525.0,3020.0,,,,-1.80362303607416,-3.01347941154457,-1.5531338048914,,2.5813471214197974,,
,6774.0,742.0,6401.0,493.0,-131.0,2504.0,3020.0,,,,-1.80323394429098,-3.01349058189447,-1.5527351107698,,2.274715079853254,,
,6779.0,746.0,6403.0,494.0,-120.0,2484.0,2999.0,,,,-1.80409254686449,-3.01360682954945,-1.55319210092995,,1.9396544340879796,,
,6780.0,747.0,6402.0,493.0,-117.0,2496.0,3001.0,,,,-1.80434937420733,-3.01356119073727,-1.55326025491325,,1.5867876310854891,,
,6778.0,748.0,6404.0,490.0,-119.0,2506.0,3000.0,,,,-1.80360758546196,-3.01345591893916,-1.55144722834752,,1.226723114570199,,
,6783.0,745.0,6406.0,491.0,-113.0,2493.0,2989.0,,,,-1.80396220018944,-3.01350050297752,-1.55263425008726,,0.8694896134449747,,
,6782.0,747.0,6405.0,491.0,-111.0,2499.0,3018.0,,,,-1.80379946519244,-3.01351293594277,-1.55286628002835,,0.5240312083548303,,
,6785.0,748.0,6410.0,492.0,-109.0,2503.0,3008.0,,,,-1.80344392884262,-3.01357431743942,-1.55239704470154,,0.1978094689505776,,
,6790.0,748.0,6411.0,492.0,-110.0,2510.0,3010.0,,,,-1.80352114885203,-3.01349906675113,-1.5526893309581,,-0.10345748057950431,,
,6792.0,749.0,6412.0,492.0,-113.0,2508.0,3013.0,,,,-1.80339673050265,-3.01349201882046,-1.55210522601959,,-0.3759087063177386,,
,6793.0,748.0,6413.0,490.0,-113.0,2530.0,3017.0,,,,-1.80270528358937,-3.0135478944943,-1.55217889714855,,-0.6175151094334703,,
,6796.0,750.0,6418.0,495.0,-125.0,2543.0,3026.0,,,,-1.80244967451156,-3.0135078954188,-1.55258636621242,,-0.8279371283926741,,
,6800.0,751.0,6420.0,493.0,-112.0,2532.0,3028.0,,,,-1.80195134857362,-3.01353760281482,-1.55152359865665,,-1.0082960540298769,,
,6799.0,749.0,6421.0,491.0,-124.0,2531.0,3023.0,,,,-1.80219548156751,-3.01353422561098,-1.55151133237534,,-1.1608921179108773,,
,6804.0,751.0,6420.0,490.0,-125.0,2530.0,3010.0,,,,-1.80289520367903,-3.01356428715402,-1.55179407497088,,-1.2888999008937503,,
,6806.0,752.0,6424.0,493.0,-123.0,2513.0,3014.0,,,,-1.80257411618698,-3.01346400211518,-1.55200851160916,,-1.396064731810829,,
,6810.0,751.0,6426.0,494.0,-126.0,2495.0,2997.0,,,,-1.8029404188916,-3.01351563956245,-1.55227186456548,,-1.4864141214809825,,
,6811.0,754.0,6427.0,493.0,-122.0,2489.0,2997.0,,,,-1.8033184022066,-3.01347096191014,-1.55254853959773,,-1.563988379086514,,
,6811.0,752.0,6428.0,494.0,-119.0,2509.0,2995.0,,,,-1.80274992015353,-3.01345991008212,-1.55218894533953,,-1.632587523324365,,
,6813.0,753.0,6431.0,493.0,-118.0,2506.0,3012.0,,,,-1.80116196864374,-3.01353077830802,-1.5512647133839,,-1.6955298180320024,,
,6814.0,752.0,6430.0,494.0,-116.0,2517.0,3016.0,,,,-1.80018175591602,-3.01350125057561,-1.5521377074909,,-1.7554209484054246,,
,6816.0,753.0,6431.0,494.0,-114.0,2526.0,3018.0,,,,-1.80039268683957,-3.01344378441844,-1.55153865648482,,-1.8139400308103546,,
,6815.0,751.0,6430.0,492.0,-122.0,2520.0,3032.0,,,,-1.7997454546247,-3.01342887527905,-1.5510710101962,,-1.8716564036461416,,
,6816.0,751.0,6431.0,493.0,-113.0,2514.0,3014.0,,,,-1.79836479373592,-3.01349371400372,-1.55157776395606,,-1.9278969529368384,,
,6815.0,752.0,6432.0,494.0,-119.0,2532.0,3020.0,,,,-1.79899352632666,-3.0134888789309,-1.55099090232544,,-1.980686026624766,,
,6818.0,754.0,6431.0,493.0,-120.0,2516.0,3016.0,,,,-1.79954331931894,-3.0134105923251,-1.5507230514581,,-2.0267781157468483,,
,6818.0,751.0,6433.0,494.0,-117.0,2528.0,3027.0,,,,-1.79926505106099,-3.01344586523257,-1.55221850101442,,-2.0617973447288223,,
,6816.0,751.0,6434.0,495.0,-113.0,2540.0,3024.0,,,,-1.79808605206569,-3.01346461965573,-1.55099803769151,,-2.080487726107421,,
,6818.0,752.0,6432.0,493.0,-126.0,2514.0,3017.0,,,,-1.7988648831883,-3.01347546483633,-1.55121787700573,,-2.0770648880375324,,
,6820.0,753.0,6434.0,494.0,-127.0,2508.0,3016.0,,,,-1.79765645684557,-3.01352002105074,-1.55139097400698,,-2.045645254225463,,
,6819.0,755.0,6435.0,494.0,-126.0,2506.0,3019.0,,,,-1.79843710204906,-3.01338826287205,-1.55128275777926,,-1.9807153518129237,,
,6820.0,752.0,6435.0,493.0,-124.0,2514.0,3024.0,,,,-1.79782252505126,-3.01339617080195,-1.55059222703192,,-1.8775956993687768,,
,6825.0,751.0,6435.0,492.0,-120.0,2496.0,3040.0,,,,-1.79775019871114,-3.01339772433855,-1.55033330571418,,-1.7328534537688463,,
,6824.0,754.0,6440.0,493.0,-114.0,2497.0,3021.0,,,,-1.79740985708948,-3.01327930034441,-1.55045999610371,,-1.544626127711916,,
,6824.0,754.0,6440.0,494.0,-124.0,2527.0,3015.0,,,,-1.79665497564291,-3.01342757305829,-1.55073028444357,,-1.3128329284622628,,
,6828.0,756.0,6442.0,494.0,-126.0,2544.0,2998.0,,,,-1.79678136164379,-3.01338091627769,-1.55020758568199,,-1.039266729284661,,
,6829.0,755.0,6445.0,493.0,-126.0,2542.0,3011.0,,,,-1.79530357762133,-3.0133492429591,-1.54952611881605,,-0.727574548841014,,
,6833.0,755.0,6448.0,494.0,-117.0,2528.0,3008.0,,,,-1.79492422898041,-3.01332360148383,-1.55007634845386,,-0.3831450358674278,,
,6837.0,756.0,6451.0,497.0,-104.0,2538.0,3001.0,,,,-1.79629674664519,-3.01334241252223,-1.55057315094821,,-0.01292667645190572,,
,6841.0,757.0,6454.0,496.0,-113.0,2527.0,3015.0,,,,-1.79758158956678,-3.01338013753958,-1.54994020055934,,0.3747997294490293,,
,6841.0,757.0,6455.0,496.0,-132.0,2509.0,3024.0,,,,-1.79933972634538,-3.01337307454544,-1.5510318966496,,0.7706756884773402,,
,6845.0,758.0,6456.0,496.0,-127.0,2520.0,3018.0,,,,-1.7998623629822,-3.01340777860846,-1.5517313611612,,1.1645366582059546,,
,6849.0,758.0,6460.0,495.0,-123.0,2531.0,3021.0,,,,-1.80091611854019,-3.01343984040748,-1.5518938840787,,1.545700894701997,,
,6852.0,758.0,6464.0,497.0,-121.0,2540.0,3024.0,,,,-1.80357936901601,-3.0136261541998,-1.55214576930313,,1.9032844047702921,,
,6857.0,762.0,6468.0,498.0,-109.0,2533.0,3013.0,,,,-1.80460710776985,-3.01358518699893,-1.55284604830177,,2.226554360812394,,
,6859.0,760.0,6470.0,497.0,-116.0,2511.0,3000.0,,,,-1.80578666635559,-3.01363139009574,-1.55391736702343,,2.50532924030871,,
,6862.0,761.0,6472.0,496.0,-132.0,2504.0,3037.0,,,,-1.8068974950185,-3.01372637568071,-1.55329125863623,,2.730422921257897,,
,6867.0,761.0,6477.0,497.0,-123.0,2516.0,3024.0,,,,-1.80776072062567,-3.01364347568905,-1.55368554786392,,2.894115064592023,,
,6873.0,764.0,6479.0,498.0,-129.0,2507.0,3022.0,,,,-1.80762139579594,-3.01357703791217,-1.55320673622383,,2.99061519248304,,
,6873.0,760.0,6484.0,497.0,-114.0,2523.0,3016.0,,,,-1.80848344107006,-3.01358244798174,-1.55277988671052,,3.016476266556114,,
,6881.0,762.0,6488.0,500.0,-107.0,2536.0,3013.0,,,,-1.80855878646908,-3.01363971592376,-1.55347582823967,,2.970907782957046,,
,6887.0,765.0,6492.0,499.0,-122.0,2521.0,3029.0,,,,-1.80753297239063,-3.0135896044391,-1.5527517795688,,2.855940243885605,,
,6886.0,762.0,6497.0,497.0,-121.0,2509.0,3027.0,,,,-1.80774394710274,-3.01351066976829,-1.55438186601495,,2.6764034033271455,,
,6890.0,764.0,6497.0,498.0,-110.0,2500.0,3020.0,,,,-1.8072133487198,-3.01360472630892,-1.55306172286132,,2.4396997472582678,,
,6895.0,768.0,6506.0,497.0,-105.0,2492.0,3013.0,,,,-1.80707943119895,-3.01358818549633,-1.55304679951796,,2.155380184084773,,
,6900.0,768.0,6506.0,499.0,-126.0,2513.0,3025.0,,,,-1.80719066379507,-3.01346398815279,-1.55290590749152,,1.8345565251416929,,
,6905.0,770.0,6510.0,499.0,-114.0,2524.0,3022.0,,,,-1.80609846188371,-3.01355277686899,-1.55253982816359,,1.489208904550137,,
,6909.0,771.0,6516.0,500.0,-113.0,2528.0,3020.0,,,,-1.80638262139558,-3.01350990429411,-1.55304077924047,,1.1314598954231354,,
,6916.0,768.0,6517.0,499.0,-118.0,2534.0,3024.0,,,,-1.80523027432008,-3.01350611146328,-1.55263583346515,,0.7728875843580688,,
,6918.0,770.0,6521.0,500.0,-119.0,2517.0,3011.0,,,,-1.80563023312214,-3.01347529692626,-1.55272879748191,,0.42393824966538074,,
,6921.0,772.0,6524.0,502.0,-129.0,2501.0,3019.0,,,,-1.80546396394217,-3.01353255913057,-1.55268600595233,,0.09347974103612866,,
,6923.0,771.0,6528.0,503.0,-132.0,2495.0,3017.0,,,,-1.80409648979178,-3.01355223148635,-1.55270935621531,,-0.2114856308871133,,
,6921.0,769.0,6525.0,498.0,-120.0,2526.0,3033.0,,,,-1.8049080073476,-3.01351386885274,-1.55284648772674,,-0.4859505679635743,,
,6918.0,768.0,6525.0,501.0,-118.0,2522.0,3013.0,,,,-1.80425338036418,-3.01345686875999,-1.55223546872855,,-0.7268927679199249,,
,6912.0,768.0,6520.0,500.0,-120.0,2512.0,3017.0,,,,-1.8036970485171,-3.01338373319646,-1.55192883275076,,-0.9331540558185832,,
,6900.0,764.0,6514.0,499.0,-120.0,2509.0,3038.0,,,,-1.80379742425487,-3.01348878728698,-1.55173103098238,,-1.1052416334808302,,
,6892.0,764.0,6506.0,498.0,-117.0,2535.0,3037.0,,,,-1.80276604342715,-3.01342486826289,-1.55184939049996,,-1.2450828336249327,,
,6877.0,760.0,6496.0,499.0,-115.0,2536.0,3048.0,,,,-1.80261977196236,-3.01360588683851,-1.55215118044101,,-1.3557580807726624,,
,6868.0,760.0,6485.0,497.0,-118.0,2506.0,3001.0,,,,-1.80234976029363,-3.0134161495519,-1.55220902289968,,-1.441226729115378,,
,6852.0,756.0,6473.0,494.0,-116.0,2503.0,3004.0,,,,-1.80261037080532,-3.01347959745529,-1.5525028307318,,-1.5060500780945527,,
,6840.0,755.0,6463.0,494.0,-117.0,2498.0,3005.0,,,,-1.80334543827606,-3.01336245560324,-1.55247756099468,,-1.5551087436611544,,
,6827.0,751.0,6453.0,495.0,-107.0,2520.0,3000.0,,,,-1.80362089932491,-3.01347261734793,-1.55255869618462,,-1.5933101047860323,,
,6817.0,751.0,6446.0,492.0,-109.0,2532.0,3029.0,,,,-1.80387739813561,-3.01350801133731,-1.55151901624763,,-1.62528567529391,,
,6812.0,753.0,6438.0,496.0,-106.0,2530.0,3019.0,,,,-1.80371679028927,-3.0133824227414,-1.55248891025208,,-1.6550857598201387,,
,6804.0,748.0,6435.0,493.0,-110.0,2543.0,3002.0,,,,-1.80319380510501,-3.01346550289717,-1.55118557267092,,-1.6858867704915206,,
,6798.0,749.0,6427.0,488.0,-106.0,2550.0,3013.0,,,,-1.80392949448809,-3.01335614424159,-1.55202120307319,,-1.719732814943441,,
,6793.0,746.0,6422.0,491.0,-113.0,2515.0,3033.0,,,,-1.80323513104914,-3.0133988173135,-1.55233824184569,,-1.757336322431527,,
,6791.0,745.0,6419.0,491.0,-124.0,2501.0,3022.0,,,,-1.80380736558508,-3.01338700648052,-1.55215553694885,,-1.7979620832056518,,
,6794.0,748.0,6419.0,493.0,-118.0,2493.0,3011.0,,,,-1.80396366536982,-3.01342404530236,-1.55252305267082,,-1.839415088147742,,
,6787.0,749.0,6417.0,492.0,-117.0,2505.0,2996.0,,,,-1.80438541739664,-3.01343673743935,-1.55293015136337,,-1.878145011225925,,
,6790.0,747.0,6417.0,491.0,-123.0,2508.0,3000.0,,,,-1.80586942711525,-3.01347083465529,-1.55291192466515,,-1.9094692161974065,,
,6791.0,748.0,6417.0,490.0,-117.0,2518.0,3018.0,,,,-1.80598605383762,-3.01343357137814,-1.55317048307645,,-1.9279025034099369,,
,6791.0,748.0,6415.0,491.0,-113.0,2528.0,3016.0,,,,-1.80539547431804,-3.0133919183207,-1.55247237126442,,-1.9275673552827388,,
,6792.0,749.0,6416.0,490.0,-113.0,2534.0,3024.0,,,,-1.80371415418131,-3.01346630841664,-1.55207894273439,,-1.9026463536883564,,
,6794.0,748.0,6419.0,490.0,-120.0,2515.0,3026.0,,,,-1.80397966346581,-3.01340770665109,-1.55262909754231,,-1.8478320600512592,,
,6796.0,749.0,6422.0,488.0,-116.0,2506.0,3031.0,,,,-1.80336643154137,-3.01340120415061,-1.55244404793535,,-1.7587307727505899,,
,6797.0,751.0,6425.0,492.0,-128.0,2499.0,3015.0,,,,-1.80365112538284,-3.01351656399338,-1.5514099030238,,-1.6321846420683082,,
,6800.0,751.0,6426.0,492.0,-130.0,2497.0,3005.0,,,,-1.80450000171163,-3.01341657515024,-1.55270715923924,,-1.4664894188159856,,
,6804.0,749.0,6427.0,488.0,-126.0,2504.0,3015.0,,,,-1.80512319742681,-3.01340112883479,-1.55244943389353,,-1.2615000740973388,,
,6807.0,751.0,6429.0,491.0,-120.0,2522.0,3043.0,,,,-1.8051844962815,-3.01341552236281,-1.55296617054324,,-1.018631363937653,,
,6813.0,751.0,6433.0,494.0,-111.0,2518.0,3027.0,,,,-1.80564087926478,-3.01339329469124,-1.55149970939485,,-0.7407730403775852,,
,6815.0,755.0,6437.0,496.0,-109.0,2523.0,3039.0,,,,-1.80611998620502,-3.01350698307858,-1.55270917210031,,-0.43214788626794504,,
,6818.0,752.0,6441.0,491.0,-105.0,2523.0,3037.0,,,,-1.80479878342421,-3.01340458919323,-1.55156410965292,,-0.09814350755975593,,
,6819.0,750.0,6440.0,491.0,-111.0,2493.0,3025.0,,,,-1.80426332048835,-3.0134992648093,-1.55217380386923,,0.2548549653217091,,
,6826.0,753.0,6444.0,495.0,-122.0,2499.0,3013.0,,,,-1.80406420187269,-3.01340597566562,-1.55264266808426,,0.6196141313527529,,
,6827.0,754.0,6448.0,493.0,-123.0,2510.0,3030.0,,,,-1.8027315660094,-3.01334237047123,-1.55271030316812,,0.9881808291593365,,
,6834.0,754.0,6450.0,492.0,-120.0,2510.0,3035.0,,,,-1.80342779079539,-3.0133489735386,-1.5518776351729,,1.352002576407488,,
,6834.0,755.0,6451.0,493.0,-114.0,2537.0,3038.0,,,,-1.80306445101552,-3.01346094182194,-1.55265139392845,,1.7020643583603727,,
,6836.0,754.0,6454.0,493.0,-115.0,2551.0,3030.0,,,,-1.80228758156185,-3.01337333789762,-1.55193069574345,,2.0290703514054713,,
,6841.0,758.0,6457.0,495.0,-112.0,2522.0,3023.0,,,,-1.80291612560584,-3.01338331962972,-1.55105748669131,,2.3236943101220695,,
,6843.0,756.0,6459.0,491.0,-120.0,2510.0,3025.0,,,,-1.80235662140099,-3.01335898287466,-1.5511623704717,,2.576910058670175,,
,6844.0,757.0,6461.0,494.0,-123.0,2503.0,3023.0,,,,-1.80331520076417,-3.0133332800371,-1.55098286806387,,2.7803971224096955,,
,6843.0,758.0,6463.0,492.0,-119.0,2503.0,2988.0,,,,-1.80304826099157,-3.01331148012113,-1.55167687324108,,2.9269993238081597,,
,6845.0,758.0,6463.0,493.0,-117.0,2490.0,3003.0,,,,-1.80307285234463,-3.01334089504604,-1.55173905130848,,3.011198702270965,,
,6848.0,758.0,6464.0,495.0,-107.0,2513.0,3010.0,,,,-1.80249565733066,-3.01335718920927,-1.552206019379,,3.0295554164165437,,
,6846.0,755.0,6466.0,494.0,-111.0,2525.0,3013.0,,,,-1.80178423858198,-3.01333710342583,-1.55176821856448,,2.981058291807795,,
,6848.0,756.0,6462.0,492.0,-107.0,2545.0,3018.0,,,,-1.80158136203336,-3.01328485757751,-1.55088141439965,,2.8673324147742933,,
,6844.0,758.0,6463.0,495.0,-116.0,2542.0,3038.0,,,,-1.80093094579466,-3.01329256359063,-1.55144654960969,,2.6926613435643407,,
,6849.0,759.0,6466.0,494.0,-123.0,2526.0,3035.0,,,,-1.80116808747784,-3.01333809139361,-1.55220507854658,,2.463802386835011,,
,6849.0,758.0,6464.0,495.0,-123.0,2522.0,3032.0,,,,-1.80075754892646,-3.0133892403219,-1.55145998114088,,2.189601412581369,,
,6851.0,757.0,6465.0,495.0,-113.0,2511.0,3028.0,,,,-1.80063274970239,-3.01327910863674,-1.55006134592522,,1.8804429197815704,,
,6853.0,755.0,6468.0,493.0,-121.0,2491.0,3018.0,,,,-1.80123078940104,-3.01331818033153,-1.55133459236955,,1.5475942397587468,,
,6854.0,758.0,6471.0,495.0,-123.0,2500.0,3019.0,,,,-1.80144762375866,-3.01324107270434,-1.55158253556291,,1.2025141718216825,,
,6855.0,759.0,6472.0,493.0,-127.0,2517.0,3027.0,,,,-1.80051041522271,-3.01326383126758,-1.5513659591464,,0.8561947370138393,,
,6860.0,760.0,6476.0,496.0,-117.0,2546.0,3027.0,,,,-1.79894282309903,-3.01322265933878,-1.55049850186035,,0.518592640856168,,
,6859.0,758.0,6474.0,495.0,-110.0,2536.0,3032.0,,,,-1.79894083342327,-3.01324965053095,-1.55098036355003,,0.19818892319008846,,
,6864.0,761.0,6479.0,494.0,-116.0,2516.0,3027.0,,,,-1.79885387622811,-3.01333811897707,-1.55131801326642,,-0.09830452595912247,,
,6866.0,762.0,6481.0,495.0,-118.0,2507.0,3028.0,,,,-1.80003089438145,-3.01332873440218,-1.5513033373081,,-0.3660911027422893,,
,6871.0,761.0,6483.0,493.0,-120.0,2513.0,3032.0,,,,-1.80140163237644,-3.01328585576726,-1.55150293819992,,-0.6023022694369072,,
,6873.0,759.0,6487.0,496.0,-111.0,2516.0,3013.0,,,,-1.80213968359326,-3.01331458002506,-1.55185879374167,,-0.805900541251675,,
,6876.0,763.0,6488.0,494.0,-114.0,2516.0,3011.0,,,,-1.80305341361945,-3.01330415371149,-1.55135281626758,,-0.9775003649112262,,
,6879.0,763.0,6494.0,496.0,-114.0,2532.0,3018.0,,,,-1.80377202665373,-3.01341705117116,-1.55212908468971,,-1.1191332133240017,,
,6884.0,766.0,6495.0,498.0,-115.0,2535.0,3009.0,,,,-1.80599844724537,-3.01341899164669,-1.55290483536023,,-1.2339772434244642,,
,6886.0,765.0,6499.0,497.0,-104.0,2528.0,3033.0,,,,-1.80883267773287,-3.01349362975076,-1.55336549120168,,-1.3260635851121838,,
,6891.0,762.0,6500.0,496.0,-109.0,2519.0,3023.0,,,,-1.80974175403431,-3.01355587755606,-1.55365175416562,,-1.399964210193037,,
,6895.0,765.0,6504.0,497.0,-110.0,2509.0,3034.0,,,,-1.81165039614935,-3.01350804921169,-1.55489809260439,,-1.460463381176652,,
2025-07-17 14:52:16,6900.0,767.0,6511.0,496.0,-138.0,2490.0,2997.0,,,2025/07/17 02:52:16 PM,-1.81313236195712,-3.01350871125415,-1.55459326602434,,-1.512216775774172,,
,6902.0,766.0,6511.0,498.0,-141.0,2497.0,3003.0,,,,-1.81293815918946,-3.01365928730609,-1.55458961531105,,-1.5594080708001858,,
,6907.0,769.0,6514.0,499.0,-128.0,2534.0,3021.0,,,,-1.81295137868101,-3.01357432901906,-1.55456501816012,,-1.6054195072955217,,
,6910.0,768.0,6518.0,498.0,-125.0,2531.0,3030.0,,,,-1.8122281484113,-3.01361378180237,-1.55344127349533,,-1.6525384803526135,,
,6917.0,770.0,6522.0,498.0,-123.0,2534.0,3032.0,,,,-1.81176436386347,-3.01355423557628,-1.55461214076971,,-1.7017251263814857,,
,6918.0,770.0,6527.0,497.0,-123.0,2529.0,3028.0,,,,-1.8107184838623,-3.01352070837918,-1.55425651751204,,-1.752465658784853,,
,6924.0,768.0,6532.0,500.0,-127.0,2509.0,3021.0,,,,-1.81047587547282,-3.0134993505699,-1.55338505626677,,-1.8027327124402421,,
,6928.0,769.0,6535.0,498.0,-128.0,2514.0,3030.0,,,,-1.81044522361486,-3.01355171692015,-1.55386549043905,,-1.8490671540761605,,
,6934.0,771.0,6540.0,499.0,-125.0,2503.0,3032.0,,,,-1.81069025207292,-3.01341630969065,-1.55385013819474,,-1.8867856581477365,,
,6939.0,773.0,6544.0,500.0,-117.0,2503.0,3015.0,,,,-1.81100770558798,-3.01353057160758,-1.55404794065073,,-1.9103052127750777,,
,6944.0,771.0,6545.0,500.0,-115.0,2509.0,3008.0,,,,-1.81095710543874,-3.01345471682732,-1.55459127055585,,-1.9135611043779865,,
,6945.0,773.0,6548.0,499.0,-123.0,2519.0,3024.0,,,,-1.81120414221217,-3.01356458362913,-1.55426913742187,,-1.8904817494568604,,
,6951.0,777.0,6555.0,498.0,-119.0,2515.0,3012.0,,,,-1.81136207422167,-3.01344583576086,-1.55381330840867,,-1.8354754940068496,,
,6954.0,777.0,6554.0,500.0,-137.0,2505.0,3007.0,,,,-1.81136728306102,-3.01348298206891,-1.55395783141383,,-1.7438835119475251,,
,6957.0,776.0,6557.0,501.0,-136.0,2515.0,3001.0,,,,-1.81149430758209,-3.01350276471908,-1.55438693133883,,-1.6123591854438653,,
,6956.0,774.0,6558.0,499.0,-123.0,2525.0,2984.0,,,,-1.81157015381015,-3.0135179448529,-1.55374431472501,,-1.4391459240184388,,
,6951.0,771.0,6553.0,498.0,-114.0,2530.0,2998.0,,,,-1.81161356815133,-3.01356972599024,-1.55477831892612,,-1.2242397310404605,,
,6948.0,775.0,6549.0,500.0,-116.0,2513.0,3003.0,,,,-1.81305477200654,-3.01344016873467,-1.55335346910512,,-0.9694375331938838,,
,6939.0,768.0,6542.0,499.0,-119.0,2499.0,3011.0,,,,-1.81306436087061,-3.01343497486813,-1.55406052592337,,-0.6782851128535795,,
,6926.0,767.0,6536.0,497.0,-131.0,2504.0,3012.0,,,,-1.81272223509599,-3.01349095588548,-1.55418503700254,,-0.3559474078769589,,
,6911.0,762.0,6525.0,495.0,-109.0,2510.0,3004.0,,,,-1.81235148587365,-3.01350043994322,-1.55459661988226,,-0.009027459686436394,,
,6899.0,763.0,6516.0,498.0,-111.0,2507.0,2992.0,,,,-1.81223863055833,-3.01342304108706,-1.5542216401388,,0.3546422726276428,,
,6882.0,763.0,6501.0,494.0,-123.0,2484.0,2989.0,,,,-1.8121801309552,-3.01354966467863,-1.55460623071481,,0.7262206994982772,,
,6870.0,756.0,6492.0,494.0,-120.0,2492.0,2995.0,,,,-1.81288253973419,-3.0134237496633,-1.55397728714803,,1.0960873358821681,,
,6858.0,755.0,6478.0,491.0,-116.0,2517.0,2989.0,,,,-1.81311201045521,-3.01342062567341,-1.55455085386661,,1.454088397216794,,
,6848.0,754.0,6468.0,494.0,-102.0,2531.0,2999.0,,,,-1.81236759504865,-3.01352138852627,-1.55462040064769,,1.7898161210427102,,
,6835.0,752.0,6463.0,494.0,-110.0,2524.0,3023.0,,,,-1.81448203005412,-3.01348013146716,-1.55399402863427,,2.0929382102972642,,
,6828.0,754.0,6456.0,491.0,-117.0,2514.0,3029.0,,,,-1.81230352133901,-3.01347148658779,-1.55435816372308,,2.3535867654482376,,
,6824.0,748.0,6447.0,490.0,-106.0,2536.0,3002.0,,,,-1.81210439866665,-3.01343945989622,-1.55494854988335,,2.562802614638222,,
,6818.0,750.0,6443.0,491.0,-126.0,2521.0,3026.0,,,,-1.81115386419315,-3.01356600980576,-1.55407859216016,,2.7130150380679825,,
,6815.0,748.0,6440.0,491.0,-127.0,2526.0,3006.0,,,,-1.8094729200707,-3.01351404237937,-1.55441253813596,,2.7985218225384503,,
,6813.0,749.0,6438.0,490.0,-123.0,2526.0,3025.0,,,,-1.80931168794007,-3.0134561975073,-1.5534494095052,,2.8159229598361835,,
,6807.0,748.0,6436.0,490.0,-128.0,2518.0,3021.0,,,,-1.80955686842903,-3.01343187428068,-1.5540462408391,,2.7644551773129944,,
,6806.0,749.0,6431.0,485.0,-121.0,2515.0,3022.0,,,,-1.80923679657031,-3.01349850127034,-1.55328068784276,,2.646175688658197,,
,6807.0,749.0,6433.0,490.0,-122.0,2502.0,3020.0,,,,-1.81068576271784,-3.01344578864605,-1.55366290172321,,2.4659536076977444,,
,6809.0,748.0,6433.0,491.0,-124.0,2511.0,3009.0,,,,-1.81087231271201,-3.01349464992688,-1.55443454346404,,2.2312469078998753,,
,6807.0,751.0,6430.0,490.0,-123.0,2525.0,3006.0,,,,-1.81086265225417,-3.01348444368986,-1.55378866264487,,1.9516699073986252,,
,6809.0,748.0,6433.0,487.0,-118.0,2519.0,2991.0,,,,-1.81012871305222,-3.01355206254665,-1.55416454158762,,1.638386115472726,,
,6810.0,749.0,6429.0,489.0,-118.0,2516.0,3013.0,,,,-1.80965381184365,-3.01354967970014,-1.55383362192008,,1.3033867275744644,,
,6812.0,749.0,6432.0,489.0,-126.0,2511.0,3014.0,,,,-1.80913063753998,-3.01343112090183,-1.55332525151408,,0.9587296620540726,,
,6817.0,751.0,6435.0,492.0,-123.0,2519.0,3007.0,,,,-1.808747441524,-3.01347039486072,-1.55333574105916,,0.6158150623255686,,
,6816.0,750.0,6436.0,492.0,-118.0,2531.0,3024.0,,,,-1.80883391752193,-3.01344574228341,-1.55348419564582,,0.2847622631155612,,
,6818.0,751.0,6436.0,488.0,-117.0,2509.0,3029.0,,,,-1.80858883999456,-3.01335454651959,-1.55331031998278,,-0.02606536998063693,,
,6822.0,751.0,6440.0,491.0,-126.0,2521.0,3015.0,,,,-1.8084558743424,-3.01340371437549,-1.5536723061976,,-0.31036282739577015,,
,6825.0,753.0,6443.0,491.0,-137.0,2510.0,3000.0,,,,-1.80797372431054,-3.01336121505047,-1.55345112383752,,-0.5640087953456374,,
,6830.0,752.0,6445.0,492.0,-127.0,2529.0,3014.0,,,,-1.80728578138348,-3.01353933664181,-1.55309761764458,,-0.785026945302161,,
,6832.0,752.0,6444.0,490.0,-115.0,2544.0,3017.0,,,,-1.80788403780964,-3.01353785073099,-1.55242724389715,,-0.973408725852214,,
,6832.0,753.0,6447.0,490.0,-111.0,2521.0,3010.0,,,,-1.8083532779441,-3.01341879057252,-1.55363534197658,,-1.1308304109550944,,
,6835.0,755.0,6450.0,492.0,-121.0,2506.0,3012.0,,,,-1.80766438830524,-3.01339992093606,-1.55316986976365,,-1.2602988501501307,,
,6839.0,755.0,6452.0,493.0,-116.0,2508.0,3017.0,,,,-1.80778956556878,-3.01346245453266,-1.55323681358614,,-1.3657570778637813,,
,6839.0,754.0,6451.0,491.0,-116.0,2519.0,3005.0,,,,-1.80749872655186,-3.01335996228943,-1.55342307291051,,-1.4516743696907475,,
,6838.0,754.0,6453.0,493.0,-120.0,2518.0,2998.0,,,,-1.8078802865563,-3.01339794529569,-1.55366052560198,,-1.5226383738281692,,
,6842.0,755.0,6457.0,492.0,-129.0,2515.0,3017.0,,,,-1.80745219968925,-3.01350169566387,-1.55263802000803,,-1.582962570850496,,
,6846.0,755.0,6458.0,490.0,-116.0,2514.0,3030.0,,,,-1.80694112656478,-3.01336860409973,-1.55297175731312,,-1.6363218969281912,,
,6850.0,756.0,6461.0,494.0,-120.0,2516.0,3005.0,,,,-1.80859286862653,-3.01335770571855,-1.55317890648754,,-1.6854319748273523,,
,6848.0,754.0,6459.0,491.0,-125.0,2527.0,2995.0,,,,-1.80743007333648,-3.01348085053423,-1.55392911707294,,-1.7317907260089993,,
,6851.0,755.0,6460.0,491.0,-119.0,2524.0,3002.0,,,,-1.80798132810483,-3.01341148208135,-1.55301570862347,,-1.7755029466461847,,
,6850.0,756.0,6461.0,491.0,-115.0,2503.0,3004.0,,,,-1.80776178351126,-3.01333212355469,-1.55330058637081,,-1.8152073280065795,,
,6851.0,755.0,6464.0,493.0,-116.0,2500.0,3010.0,,,,-1.80786998532331,-3.01341595528145,-1.5525114287371,,-1.8481208792204058,,
,6851.0,756.0,6462.0,489.0,-118.0,2515.0,3020.0,,,,-1.80704788057311,-3.01346875669215,-1.55262960441277,,-1.8702078816208014,,
,6852.0,755.0,6464.0,492.0,-119.0,2539.0,3006.0,,,,-1.80546286688434,-3.01333242376029,-1.55298825554407,,-1.8764698329934406,,
,6852.0,757.0,6467.0,493.0,-123.0,2519.0,3013.0,,,,-1.804880800312,-3.01331319666752,-1.55183771599516,,-1.8613400577119479,,
,6855.0,758.0,6465.0,494.0,-123.0,2536.0,3022.0,,,,-1.80317532340461,-3.01324771900918,-1.55184150199811,,-1.8191530291357751,,
,6857.0,759.0,6466.0,492.0,-118.0,2536.0,3012.0,,,,-1.80341157706251,-3.01329066370768,-1.55173139599918,,-1.7446462457646306,,
,6854.0,755.0,6465.0,492.0,-125.0,2514.0,3034.0,,,,-1.80419726266192,-3.01335070198105,-1.55202959707965,,-1.6334450036500512,,
,6857.0,758.0,6468.0,491.0,-124.0,2513.0,3019.0,,,,-1.80458172190558,-3.01331902751132,-1.55329978123369,,-1.4824807796665127,,
,6860.0,758.0,6468.0,491.0,-132.0,2505.0,3009.0,,,,-1.80452267130842,-3.01335245462223,-1.55189742305877,,-1.2903033810976117,,
,6860.0,757.0,6472.0,492.0,-130.0,2514.0,3006.0,,,,-1.80448804932158,-3.01328830021268,-1.55259151475757,,-1.057263622396372,,
,6864.0,758.0,6473.0,492.0,-121.0,2538.0,3008.0,,,,-1.80452582751532,-3.01334331530788,-1.55291311489922,,-0.7855627053230082,,
,6865.0,758.0,6475.0,494.0,-116.0,2529.0,3024.0,,,,-1.80541885620437,-3.0132831110804,-1.55333372828802,,-0.47918187753137215,,
,6869.0,757.0,6475.0,494.0,-134.0,2514.0,3025.0,,,,-1.80561259503153,-3.0133251110503,-1.55323357119083,,-0.14371787782332968,,
,6874.0,760.0,6478.0,493.0,-131.0,2520.0,3029.0,,,,-1.80499671603455,-3.01337237043387,-1.55224426353927,,0.21384518509617753,,
,6876.0,761.0,6480.0,494.0,-131.0,2517.0,3012.0,,,,-1.80588289751382,-3.01345094741749,-1.55334231371052,,0.5853980118956477,,
,6879.0,762.0,6485.0,492.0,-127.0,2510.0,3005.0,,,,-1.80630385762736,-3.01354829678923,-1.55223429154027,,0.9619787040053824,,
,6882.0,761.0,6488.0,495.0,-130.0,2509.0,3017.0,,,,-1.8066987545093,-3.01353006912185,-1.55330617092456,,1.3340410570223558,,
,6885.0,761.0,6490.0,494.0,-133.0,2506.0,3024.0,,,,-1.80934891300437,-3.0134618787414,-1.5531949513168,,1.6917145182222726,,
,6888.0,760.0,6494.0,494.0,-129.0,2504.0,3027.0,,,,-1.81003777242742,-3.01365345049393,-1.55371188286949,,2.025062548683554,,
,6889.0,761.0,6495.0,492.0,-115.0,2520.0,3023.0,,,,-1.81165398779908,-3.01361256845335,-1.55463939881513,,2.3243542809907853,,
,6895.0,763.0,6500.0,496.0,-109.0,2542.0,3027.0,,,,-1.81296332704619,-3.01355962948851,-1.55454304227054,,2.5803665615401727,,
,6898.0,764.0,6503.0,494.0,-129.0,2524.0,3016.0,,,,-1.81466948623881,-3.01369681193947,-1.5553584874811,,2.78472769648864,,
,6903.0,766.0,6505.0,495.0,-135.0,2526.0,2999.0,,,,-1.81491147107984,-3.01356866598876,-1.5554105188106,,2.930301318202842,,
,6904.0,763.0,6509.0,494.0,-125.0,2526.0,3021.0,,,,-1.81386674577509,-3.01357444567225,-1.55428534989924,,3.011592179293745,,
,6910.0,766.0,6511.0,496.0,-135.0,2508.0,3026.0,,,,-1.8127347228823,-3.01368380667774,-1.5547544221313,,3.0251397263082738,,
,6915.0,767.0,6519.0,499.0,-129.0,2516.0,3015.0,,,,-1.81371749921467,-3.01360007463846,-1.55505547889533,,2.9698537834488548,,
,6921.0,770.0,6522.0,498.0,-126.0,2514.0,3017.0,,,,-1.81418352503016,-3.01356595298238,-1.55436329879639,,2.8472422291153014,,
,6925.0,767.0,6526.0,496.0,-121.0,2506.0,3016.0,,,,-1.8131198747423,-3.0136099688314,-1.55478791040965,,2.661484701329521,,
,6928.0,767.0,6528.0,497.0,-120.0,2529.0,3032.0,,,,-1.81126063659864,-3.01354379222544,-1.55491357188498,,2.4193194542154113,,
,6931.0,769.0,6532.0,498.0,-110.0,2536.0,3040.0,,,,-1.81103406606476,-3.01361242145267,-1.55439847095006,,2.1297313592114198,,
,6937.0,771.0,6538.0,498.0,-120.0,2502.0,3029.0,,,,-1.81083218410692,-3.01354599000784,-1.55390507610816,,1.803454896510484,,
,6942.0,772.0,6541.0,498.0,-114.0,2507.0,3024.0,,,,-1.81013984347133,-3.01362788295289,-1.55390895713801,,1.4523324404833229,,
,6942.0,772.0,6542.0,495.0,-118.0,2516.0,3018.0,,,,-1.80918762738485,-3.01359672900852,-1.55431735675,,1.0885897699859872,,
,6947.0,771.0,6545.0,497.0,-113.0,2538.0,3020.0,,,,-1.80928283765647,-3.01351152094402,-1.55355557908032,,0.7241023966473155,,
,6951.0,773.0,6547.0,500.0,-136.0,2502.0,3016.0,,,,-1.8085838304155,-3.01350764857163,-1.55362070896405,,0.36972526489112695,,
,6949.0,772.0,6547.0,498.0,-131.0,2500.0,3013.0,,,,-1.8088429326913,-3.01346625997505,-1.55433039388806,,0.034745635841514036,,
,6946.0,771.0,6542.0,498.0,-119.0,2509.0,2999.0,,,,-1.80850405941625,-3.01356030208939,-1.55328718791515,,-0.2735014311191396,,
,6940.0,770.0,6542.0,496.0,-117.0,2527.0,2996.0,,,,-1.80872521334654,-3.01356383448448,-1.55330718194496,,-0.5498386026267824,,
,6933.0,770.0,6536.0,496.0,-126.0,2525.0,3002.0,,,,-1.80814885443941,-3.01343520976197,-1.55316371794506,,-0.7912777998608995,,
,6919.0,765.0,6526.0,496.0,-121.0,2510.0,3020.0,,,,-1.80786386706834,-3.01352492902842,-1.55305037525806,,-0.9968997804860034,,
,6907.0,764.0,6517.0,496.0,-122.0,2516.0,3032.0,,,,-1.80797685925861,-3.01347113336376,-1.55377818934528,,-1.167615208545248,,
,6890.0,759.0,6499.0,495.0,-128.0,2505.0,3022.0,,,,-1.80753561757776,-3.01350960492982,-1.55321685062348,,-1.3058460051051792,,
,6878.0,757.0,6489.0,493.0,-131.0,2508.0,3024.0,,,,-1.8073158708198,-3.01355434020333,-1.55312756971192,,-1.4151652934329713,,
,6862.0,754.0,6480.0,492.0,-123.0,2514.0,3023.0,,,,-1.80710223316823,-3.01351807775228,-1.55311987878192,,-1.4999285339589352,,
,6852.0,753.0,6470.0,493.0,-118.0,2524.0,3018.0,,,,-1.80689958352665,-3.01340969267699,-1.55327553645338,,-1.5649187538483469,,
,6835.0,751.0,6457.0,489.0,-114.0,2517.0,3022.0,,,,-1.8058149546356,-3.01356319105025,-1.55287469155695,,-1.6150174746971793,,
,6828.0,749.0,6450.0,490.0,-116.0,2518.0,3018.0,,,,-1.80583260530762,-3.01345724645635,-1.55282328017959,,-1.654903344253933,,
,6820.0,749.0,6443.0,491.0,-104.0,2543.0,3018.0,,,,-1.80588626419297,-3.01345949095289,-1.55324510857478,,-1.6887756224038848,,
,6806.0,747.0,6431.0,488.0,-113.0,2533.0,3010.0,,,,-1.80614052314624,-3.01345720337207,-1.55341529271154,,-1.7201006600354949,,
,6803.0,746.0,6426.0,486.0,-119.0,2514.0,3024.0,,,,-1.8066677002124,-3.01348291710722,-1.55329424893943,,-1.7513849369147585,,
,6803.0,744.0,6423.0,486.0,-115.0,2502.0,3015.0,,,,-1.80700106949652,-3.01347975472575,-1.55336170374487,,-1.783985225832089,,
,6798.0,745.0,6420.0,487.0,-114.0,2511.0,3013.0,,,,-1.80793320698624,-3.01352148859455,-1.55324957779682,,-1.8179722493369828,,
,6796.0,746.0,6418.0,487.0,-112.0,2515.0,3025.0,,,,-1.80807654755791,-3.01365012860609,-1.55384494670899,,-1.8520669716744234,,
,6796.0,746.0,6412.0,486.0,-117.0,2520.0,3020.0,,,,-1.80814902794872,-3.01362382690722,-1.55417243671419,,-1.8836676098092193,,
,6793.0,742.0,6412.0,485.0,-128.0,2497.0,3015.0,,,,-1.80777486294784,-3.01350795301752,-1.55335070957686,,-1.9089804388000589,,
,6791.0,744.0,6410.0,486.0,-114.0,2516.0,3005.0,,,,-1.80778118659238,-3.01353763068373,-1.55283129694961,,-1.923258781284267,,
,6792.0,745.0,6411.0,486.0,-119.0,2497.0,2996.0,,,,-1.8062245543385,-3.0135044789435,-1.55308129574729,,-1.921142756891772,,
,6794.0,747.0,6411.0,487.0,-114.0,2492.0,2993.0,,,,-1.80682678115104,-3.01336462273049,-1.55264472389736,,-1.897078456442907,,
,6792.0,744.0,6411.0,486.0,-125.0,2521.0,3014.0,,,,-1.80691693329852,-3.01346006974523,-1.55369270105965,,-1.8457811850430224,,
,6793.0,746.0,6412.0,486.0,-129.0,2503.0,3013.0,,,,-1.80687456095484,-3.01362722861429,-1.5537218032958,,-1.7626964753929864,,
,6798.0,747.0,6413.0,487.0,-117.0,2508.0,3016.0,,,,-1.80660844168503,-3.01355386570267,-1.55321432389948,,-1.6444083950378412,,
,6797.0,746.0,6414.0,487.0,-123.0,2509.0,3020.0,,,,-1.80734961202944,-3.01348794618926,-1.55352988326471,,-1.4889497461956334,,
,6798.0,747.0,6416.0,488.0,-128.0,2506.0,3025.0,,,,-1.80735277497267,-3.01348642785663,-1.55402122455776,,-1.2959827803343664,,
,6800.0,747.0,6411.0,486.0,-136.0,2526.0,3028.0,,,,-1.80728742858638,-3.01355639844823,-1.55398835115666,,-1.0668387917721391,,
,6803.0,746.0,6416.0,488.0,-123.0,2518.0,3007.0,,,,-1.80750911647271,-3.01348260600961,-1.55322313412109,,-0.8044257019155301,,
,6804.0,747.0,6418.0,488.0,-121.0,2504.0,3007.0,,,,-1.8068443764731,-3.01338914730767,-1.55276516472065,,-0.5130301485303262,,
,6806.0,749.0,6420.0,487.0,-130.0,2515.0,3003.0,,,,-1.80532477002208,-3.01353148583667,-1.55289266452121,,-0.19805182676372302,,
,6809.0,748.0,6423.0,488.0,-122.0,2535.0,3006.0,,,,-1.80622732789358,-3.01340286005568,-1.55316023110755,,0.1342881417669969,,
,6812.0,749.0,6425.0,489.0,-118.0,2513.0,3020.0,,,,-1.80453336565336,-3.01348271592157,-1.55198026020308,,0.47722582183763174,,
,6815.0,749.0,6427.0,489.0,-123.0,2510.0,3021.0,,,,-1.80490573189362,-3.01341686300251,-1.55269714783166,,0.8236895775821904,,
2025-07-17 14:52:17,6819.0,750.0,6427.0,490.0,-119.0,2516.0,3014.0,,,2025/07/17 02:52:17 PM,-1.80443717054571,-3.01346833143907,-1.55212981552383,,1.1664741990696628,,
,6820.0,749.0,6430.0,487.0,-120.0,2532.0,3012.0,,,,-1.8044710923335,-3.01344901793265,-1.55234173905838,,1.4983525837697504,,
,6823.0,751.0,6433.0,487.0,-113.0,2520.0,3022.0,,,,-1.80406323290888,-3.01344938970362,-1.55252084496351,,1.8121402368809751,,
,6826.0,750.0,6437.0,488.0,-113.0,2535.0,3035.0,,,,-1.80436383229847,-3.01344007832189,-1.55195266851831,,2.1007416684696985,,
,6827.0,753.0,6438.0,488.0,-122.0,2518.0,3027.0,,,,-1.80387603805998,-3.01341843501493,-1.5522590220378,,2.3572146404344676,,
,6831.0,753.0,6438.0,490.0,-118.0,2510.0,3023.0,,,,-1.80336131421409,-3.01340519146419,-1.55264298113009,,2.5748856005953784,,
,6831.0,751.0,6438.0,491.0,-121.0,2497.0,3016.0,,,,-1.80237647241957,-3.0135940346326,-1.55190520921312,,2.7475379521459558,,
,6831.0,751.0,6437.0,487.0,-128.0,2507.0,3015.0,,,,-1.80370684942745,-3.01344176064439,-1.55154154356988,,2.8696771810732367,,
,6833.0,752.0,6438.0,489.0,-110.0,2519.0,3026.0,,,,-1.80214160262534,-3.01344377775305,-1.55179695561665,,2.9368575143511695,,
,6834.0,754.0,6442.0,490.0,-111.0,2525.0,3023.0,,,,-1.80259209905519,-3.01347065007761,-1.55119451702825,,2.946037456179139,,
,6831.0,752.0,6439.0,489.0,-117.0,2512.0,3014.0,,,,-1.80217604098661,-3.01335964382372,-1.55222307776814,,2.8959189913092755,,
,6834.0,752.0,6443.0,487.0,-114.0,2524.0,3013.0,,,,-1.80252261867091,-3.01340564337424,-1.55195694851593,,2.7872193396963274,,
,6835.0,751.0,6444.0,489.0,-124.0,2532.0,3035.0,,,,-1.8022006425226,-3.01339751820911,-1.5520171890488,,2.6228260831436514,,
,6837.0,754.0,6445.0,489.0,-125.0,2528.0,3032.0,,,,-1.80069515481274,-3.01333862141011,-1.55148555375877,,2.407796663279928,,
,6838.0,754.0,6442.0,490.0,-120.0,2530.0,3005.0,,,,-1.8004427404863,-3.01333201355818,-1.55064078673132,,2.1491810662764173,,
,6838.0,749.0,6444.0,489.0,-115.0,2524.0,3012.0,,,,-1.79952330431182,-3.01333136605222,-1.55138857839306,,1.855670026234861,,
,6840.0,754.0,6448.0,488.0,-107.0,2515.0,3038.0,,,,-1.79997641168309,-3.01331234619333,-1.55148926614357,,1.5370966188033484,,
,6844.0,754.0,6449.0,491.0,-117.0,2509.0,3021.0,,,,-1.80059046578457,-3.01333342783395,-1.55187113911542,,1.2038414083654305,,
,6845.0,757.0,6450.0,491.0,-120.0,2505.0,3038.0,,,,-1.80078749140608,-3.01337533347653,-1.55129504797473,,0.8662049946325766,,
,6848.0,755.0,6454.0,490.0,-126.0,2500.0,3026.0,,,,-1.80061285148802,-3.01337406662564,-1.55157197142436,,0.5338137687364496,,
,6849.0,755.0,6456.0,489.0,-120.0,2497.0,2998.0,,,,-1.80108376242744,-3.01329455460723,-1.55196179591559,,0.2151154642450659,,
,6850.0,756.0,6456.0,490.0,-118.0,2526.0,3018.0,,,,-1.80071522950914,-3.01309592385605,-1.55133588676927,,-0.08299580765259237,,
,6853.0,756.0,6458.0,490.0,-115.0,2517.0,3027.0,,,,-1.80072631785832,-3.01307671096569,-1.55094151360891,,-0.3554053393913225,,
,6858.0,756.0,6460.0,489.0,-113.0,2521.0,3031.0,,,,-1.79954619609493,-3.0133327985465,-1.55088146674606,,-0.598853865979497,,
,6861.0,756.0,6463.0,491.0,-118.0,2523.0,3025.0,,,,-1.80126451929337,-3.01335074331159,-1.55168155900816,,-0.8118789905479438,,
,6864.0,758.0,6468.0,489.0,-118.0,2504.0,2998.0,,,,-1.80209471330029,-3.01335111262507,-1.55109026116402,,-0.9946480151570942,,
,6868.0,760.0,6471.0,491.0,-117.0,2502.0,3006.0,,,,-1.8036864124137,-3.01332555780868,-1.55222489952943,,-1.1487138058080912,,
,6871.0,759.0,6472.0,492.0,-118.0,2503.0,2993.0,,,,-1.80609654205839,-3.0134526713331,-1.55294650558603,,-1.2767256436498118,,
,6872.0,756.0,6472.0,489.0,-118.0,2510.0,3005.0,,,,-1.8072152586195,-3.01358002059544,-1.55298648592987,,-1.3821224145254278,,
,6878.0,760.0,6477.0,491.0,-121.0,2496.0,3020.0,,,,-1.80815792580446,-3.01347061070208,-1.55398777215741,,-1.4688270762733269,,
,6881.0,761.0,6482.0,492.0,-114.0,2495.0,3016.0,,,,-1.80989864254324,-3.01352577965676,-1.55365332331404,,-1.5409514868654288,,
,6885.0,763.0,6486.0,494.0,-121.0,2500.0,3019.0,,,,-1.81010426256056,-3.01365205317034,-1.55412787050743,,-1.6025127360420752,,
,6892.0,761.0,6489.0,492.0,-118.0,2512.0,3014.0,,,,-1.8104159091927,-3.01363011118493,-1.55386650843921,,-1.657158963223653,,
,6893.0,764.0,6492.0,494.0,-121.0,2516.0,3030.0,,,,-1.81123261595621,-3.01363136480854,-1.55436738990023,,-1.7079050065929968,,
,6899.0,765.0,6496.0,493.0,-139.0,2524.0,3027.0,,,,-1.81152204095722,-3.01362074560939,-1.5537402391269,,-1.7568844802045995,,
,6902.0,765.0,6500.0,494.0,-129.0,2518.0,3020.0,,,,-1.81169075557457,-3.01366213681857,-1.55408112162468,,-1.8051322178507372,,
,6908.0,765.0,6504.0,494.0,-132.0,2516.0,3022.0,,,,-1.81185873019685,-3.01368185372963,-1.55477535453053,,-1.852416908334907,,
,6908.0,763.0,6504.0,492.0,-125.0,2504.0,3030.0,,,,-1.81096787753437,-3.01358136124401,-1.55410856756503,,-1.8971465629963573,,
,6913.0,769.0,6511.0,492.0,-116.0,2493.0,3031.0,,,,-1.81140486243471,-3.01358814592946,-1.55383166049087,,-1.936368477592585,,
,6921.0,768.0,6513.0,495.0,-116.0,2500.0,3025.0,,,,-1.81184783827526,-3.01363032167138,-1.55297869251599,,-1.9658804444934614,,
,6924.0,768.0,6517.0,493.0,-121.0,2499.0,3033.0,,,,-1.81135167119764,-3.01355276489742,-1.55477435982285,,-1.980461344471238,,
,6924.0,766.0,6520.0,495.0,-119.0,2508.0,3052.0,,,,-1.81159828422335,-3.01359343000674,-1.5537917928593,,-1.9742173352282784,,
,6931.0,771.0,6524.0,495.0,-124.0,2503.0,3037.0,,,,-1.81004571182777,-3.01360203003245,-1.55440930077697,,-1.9410254877485047,,
,6938.0,771.0,6528.0,496.0,-123.0,2499.0,3028.0,,,,-1.80943318481049,-3.01363402901442,-1.55323821156491,,-1.8750416398865604,,
,6937.0,770.0,6533.0,496.0,-124.0,2489.0,3017.0,,,,-1.80922494148052,-3.01356254262473,-1.55371212985676,,-1.7712265084566494,,
,6943.0,771.0,6535.0,497.0,-111.0,2504.0,3014.0,,,,-1.8091284051467,-3.0134512350762,-1.55371840516929,,-1.6258375715701299,,
,6946.0,769.0,6535.0,494.0,-108.0,2513.0,3002.0,,,,-1.80863266362197,-3.01354753225105,-1.55336396249329,,-1.4368367138194793,,
,6945.0,772.0,6538.0,495.0,-122.0,2529.0,3014.0,,,,-1.80992172681902,-3.01356004628915,-1.55329891535502,,-1.204175074903556,,
,6945.0,770.0,6535.0,495.0,-114.0,2549.0,2989.0,,,,-1.80851079900464,-3.01362984210594,-1.55337620708571,,-0.9299338507800499,,
,6941.0,769.0,6534.0,497.0,-109.0,2543.0,2986.0,,,,-1.80915466887483,-3.01360480139739,-1.55395628211596,,-0.6183183605364604,,
,6931.0,766.0,6532.0,494.0,-112.0,2545.0,3018.0,,,,-1.80747511238297,-3.01353490276704,-1.55265039150503,,-0.27551845964077926,,
,6919.0,763.0,6516.0,494.0,-113.0,2529.0,3025.0,,,,-1.8068254504802,-3.01357388980433,-1.55250365035181,,0.09054090763254548,,
,6909.0,762.0,6507.0,494.0,-129.0,2518.0,2993.0,,,,-1.80606125677036,-3.01352573634375,-1.5530292498303,,0.4705299618512915,,
,6893.0,759.0,6497.0,493.0,-123.0,2506.0,2999.0,,,,-1.80648591143505,-3.01344614825196,-1.55299735544596,,0.8540955233467734,,
,6875.0,756.0,6485.0,491.0,-119.0,2517.0,3021.0,,,,-1.80532958162952,-3.01347345997689,-1.55266062029185,,1.2302671183413003,,
,6860.0,756.0,6471.0,491.0,-122.0,2500.0,3006.0,,,,-1.80589156282807,-3.01346147700318,-1.55297867969169,,1.5878672966332774,,
,6846.0,748.0,6459.0,489.0,-113.0,2502.0,3018.0,,,,-1.80616814408109,-3.0134600662633,-1.5528052309927,,1.9159139266470444,,
,6837.0,748.0,6446.0,488.0,-113.0,2509.0,3015.0,,,,-1.80627730909781,-3.01351543235102,-1.55299180677752,,2.2040110520207308,,
,6824.0,750.0,6440.0,488.0,-107.0,2508.0,3023.0,,,,-1.80637613721408,-3.01343735344748,-1.55366166358258,,2.442731448646507,,
,6818.0,746.0,6427.0,486.0,-106.0,2528.0,3022.0,,,,-1.80780113499074,-3.01352469722001,-1.55427439695222,,2.62399505799111,,
,6808.0,746.0,6423.0,486.0,-113.0,2525.0,3023.0,,,,-1.80653049399032,-3.0135672931074,-1.55307950665358,,2.741441376838031,,
,6805.0,745.0,6419.0,485.0,-125.0,2512.0,3011.0,,,,-1.80682256055465,-3.01350214292057,-1.55286155526128,,2.7907821473986054,,
,6798.0,746.0,6416.0,486.0,-113.0,2511.0,3016.0,,,,-1.80623548207286,-3.01360149534684,-1.55244458254098,,2.7701073856427088,,
,6793.0,743.0,6410.0,483.0,-125.0,2524.0,3030.0,,,,-1.80619737895768,-3.01355258142869,-1.55246773829347,,2.68010763240761,,
,6791.0,742.0,6405.0,483.0,-119.0,2533.0,3015.0,,,,-1.80618427012922,-3.01358082493867,-1.5522359668525,,2.524171936976191,,
,6790.0,744.0,6404.0,486.0,-124.0,2517.0,3030.0,,,,-1.80564934114651,-3.01361223760622,-1.55215945261965,,2.3083262095417614,,
,6792.0,747.0,6403.0,486.0,-116.0,2535.0,3035.0,,,,-1.80604553187766,-3.0135367663869,-1.55260090793217,,2.0409899554296995,,
,6789.0,745.0,6403.0,486.0,-122.0,2545.0,3028.0,,,,-1.80605542250047,-3.01358328831088,-1.55298289514546,,1.73254908910306,,
,6787.0,743.0,6400.0,485.0,-118.0,2521.0,3010.0,,,,-1.80779750695669,-3.01348153111247,-1.55249012596402,,1.394765438245006,,
,6791.0,745.0,6403.0,486.0,-118.0,2503.0,3012.0,,,,-1.80779949872907,-3.01358589255981,-1.55291518046323,,1.0400661461030711,,
,6790.0,748.0,6403.0,487.0,-118.0,2512.0,3036.0,,,,-1.80823389978703,-3.013409080363,-1.55283338655962,,0.6807748955012571,,
,6791.0,746.0,6400.0,486.0,-117.0,2528.0,3020.0,,,,-1.80834629606511,-3.01338197711733,-1.55257554666452,,0.32835825197138907,,
,6791.0,745.0,6401.0,483.0,-124.0,2510.0,2994.0,,,,-1.80851754175181,-3.01352009062284,-1.55289496878088,,-0.00723841731340037,,
,6792.0,744.0,6405.0,484.0,-118.0,2508.0,3005.0,,,,-1.80880889578997,-3.01352738904779,-1.55396764810496,,-0.3181011442442207,,
,6794.0,746.0,6403.0,484.0,-123.0,2502.0,3019.0,,,,-1.80916431039589,-3.01348930425214,-1.55387602110316,,-0.5986591214476134,,
,6796.0,747.0,6404.0,487.0,-125.0,2505.0,3027.0,,,,-1.80817404300847,-3.01356281191,-1.55271820782666,,-0.8457786499760697,,
,6797.0,748.0,6407.0,487.0,-122.0,2503.0,3010.0,,,,-1.80829218769697,-3.01360837796925,-1.55379215765737,,-1.0586456123217345,,
,6800.0,745.0,6406.0,487.0,-124.0,2513.0,3023.0,,,,-1.80826819398463,-3.01353446304598,-1.55320001119347,,-1.2384650335780736,,
,6804.0,749.0,6410.0,487.0,-121.0,2543.0,3024.0,,,,-1.80790245672551,-3.01353840977104,-1.55315871606616,,-1.3880225642924906,,
,6806.0,749.0,6411.0,486.0,-124.0,2517.0,3009.0,,,,-1.80854478907571,-3.01350297721108,-1.55381525576288,,-1.511162025508336,,
,6806.0,749.0,6411.0,485.0,-123.0,2514.0,3009.0,,,,-1.80786929346671,-3.01342427503092,-1.55340980486201,,-1.6122355362524223,,
,6808.0,749.0,6411.0,486.0,-125.0,2523.0,3022.0,,,,-1.80685410765391,-3.01350712812085,-1.55302831594825,,-1.695578821227047,,
,6810.0,749.0,6415.0,485.0,-123.0,2532.0,3019.0,,,,-1.80694244603078,-3.01352909833728,-1.5530403869675,,-1.765054968407133,,
,6816.0,750.0,6418.0,487.0,-124.0,2521.0,3015.0,,,,-1.80702761731221,-3.01343920365202,-1.55263477554397,,-1.8236964600402819,,
,6815.0,749.0,6419.0,488.0,-117.0,2515.0,3012.0,,,,-1.80634471620543,-3.01347939953885,-1.55243328294093,,-1.8734599069127695,,
,6815.0,750.0,6416.0,484.0,-125.0,2516.0,3034.0,,,,-1.80662110673428,-3.01344990808484,-1.55291979583142,,-1.9150937031792579,,
,6816.0,751.0,6420.0,487.0,-117.0,2510.0,3036.0,,,,-1.80709258331519,-3.0134470204119,-1.55236195968413,,-1.9481088139033007,,
,6820.0,749.0,6421.0,488.0,-124.0,2503.0,3007.0,,,,-1.80651221851008,-3.0134225492623,-1.55176253038083,,-1.9708384416711433,,
,6824.0,752.0,6423.0,488.0,-118.0,2513.0,3021.0,,,,-1.80675256965403,-3.01333363287746,-1.5532863684177,,-1.9805723977519138,,
,6821.0,751.0,6423.0,484.0,-115.0,2511.0,3023.0,,,,-1.80596553894222,-3.01344230327741,-1.55216482771814,,-1.9737542194443,,
,6822.0,749.0,6422.0,486.0,-111.0,2509.0,3012.0,,,,-1.80568697972443,-3.01344907792852,-1.55197103318286,,-1.9462311391507763,,
,6823.0,752.0,6424.0,487.0,-111.0,2520.0,3011.0,,,,-1.80566478334239,-3.01341673412687,-1.55253879178161,,-1.8935476858188942,,
,6823.0,752.0,6426.0,488.0,-116.0,2510.0,3033.0,,,,-1.80620340820501,-3.01340703478154,-1.55273231908225,,-1.811272819981763,,
,6826.0,753.0,6424.0,487.0,-121.0,2528.0,3026.0,,,,-1.80772931211928,-3.01345408721894,-1.55307971821031,,-1.6953485307675926,,
,6822.0,750.0,6424.0,488.0,-111.0,2522.0,3021.0,,,,-1.80629908739158,-3.01338948784156,-1.55244590252489,,-1.542445369257195,,
,6824.0,752.0,6425.0,485.0,-117.0,2510.0,3001.0,,,,-1.80655011743691,-3.01337650143818,-1.55226599015388,,-1.3503078447194834,,
,6827.0,752.0,6425.0,488.0,-120.0,2532.0,3027.0,,,,-1.80628770464843,-3.01343780304644,-1.55208682928979,,-1.118070026317839,,
,6826.0,752.0,6426.0,487.0,-124.0,2521.0,3027.0,,,,-1.80593905847611,-3.01334754098227,-1.55277474866782,,-0.8465192451856632,,
,6826.0,751.0,6423.0,488.0,-127.0,2506.0,3008.0,,,,-1.80437091284152,-3.01342933710462,-1.5517069028764,,-0.5382844627862087,,
,6827.0,750.0,6424.0,486.0,-122.0,2512.0,3016.0,,,,-1.80503451940193,-3.01336160423472,-1.55180666471817,,-0.19792733733474566,,
,6829.0,751.0,6428.0,487.0,-116.0,2520.0,3008.0,,,,-1.80391089403829,-3.01338787661148,-1.55123408720929,,0.168080627258363,,
,6833.0,750.0,6430.0,487.0,-130.0,2510.0,3013.0,,,,-1.80474340481954,-3.0134790871289,-1.55221634683408,,0.5515027975594033,,
,6834.0,752.0,6429.0,489.0,-126.0,2511.0,3020.0,,,,-1.80475284192823,-3.01334329250746,-1.55117412565443,,0.9426018039827782,,
,6833.0,751.0,6432.0,486.0,-127.0,2525.0,3015.0,,,,-1.80414090860019,-3.01336098718715,-1.55198510592549,,1.3305116888981214,,
,6836.0,754.0,6432.0,485.0,-139.0,2504.0,3016.0,,,,-1.80418262336267,-3.01340703845555,-1.55210051564875,,1.7036976417860359,,
,6842.0,756.0,6438.0,491.0,-126.0,2499.0,3006.0,,,,-1.80303005004649,-3.0135496854095,-1.55169186757311,,2.0504767381166347,,
,6842.0,754.0,6437.0,489.0,-120.0,2504.0,3013.0,,,,-1.80443449716357,-3.01345925251698,-1.55194727186169,,2.3595685659614674,,
,6845.0,754.0,6440.0,488.0,-118.0,2517.0,3018.0,,,,-1.80644497166163,-3.0135304880923,-1.55327518787927,,2.620642196331458,,
,6848.0,754.0,6442.0,487.0,-119.0,2505.0,3006.0,,,,-1.80775913336135,-3.01350433679111,-1.55248142972974,,2.8248261752688624,,
,6852.0,756.0,6446.0,490.0,-115.0,2519.0,3010.0,,,,-1.80959454156764,-3.01359554005343,-1.55352673409518,,2.9651515614413944,,
,6854.0,757.0,6449.0,490.0,-120.0,2549.0,3017.0,,,,-1.81130454904609,-3.01353963993939,-1.55293311478084,,3.036904045921122,,
,6858.0,757.0,6451.0,492.0,-120.0,2542.0,3006.0,,,,-1.81361826790689,-3.01362306055248,-1.55457481528315,,3.0378680753486873,,
,6860.0,756.0,6451.0,488.0,-120.0,2512.0,3013.0,,,,-1.81416577599609,-3.01373132342854,-1.55536175009674,,2.9684515299404586,,
,6864.0,760.0,6457.0,491.0,-109.0,2518.0,3020.0,,,,-1.8159594592117,-3.0138222246381,-1.55489683148688,,2.8316832137332075,,
,6866.0,760.0,6461.0,494.0,-114.0,2513.0,3017.0,,,,-1.81584459493387,-3.01365527365183,-1.55522380617748,,2.6330786200873377,,
,6872.0,761.0,6462.0,491.0,-123.0,2508.0,3003.0,,,,-1.81581078334869,-3.01374932747135,-1.55559815096768,,2.3803743491537257,,
,6874.0,760.0,6464.0,489.0,-134.0,2502.0,3022.0,,,,-1.8160104232099,-3.01379521215462,-1.55547040007692,,2.0831392263501387,,
,6880.0,760.0,6468.0,491.0,-136.0,2515.0,3019.0,,,,-1.81658628874072,-3.01379765909674,-1.5545215022687,,1.7522797254106173,,
,6884.0,764.0,6471.0,493.0,-139.0,2519.0,3024.0,,,,-1.81724731570866,-3.01369257637067,-1.55476746822336,,1.3994667355686226,,
,6887.0,763.0,6476.0,493.0,-133.0,2506.0,3012.0,,,,-1.81710190920733,-3.01379277177665,-1.5553831922761,,1.0365182354167382,,
,6891.0,765.0,6480.0,493.0,-126.0,2509.0,3008.0,,,,-1.8174004478199,-3.01371725386532,-1.55504496735463,,0.6747772419654056,,
,6895.0,763.0,6479.0,492.0,-115.0,2505.0,3016.0,,,,-1.81754695896948,-3.01367715286102,-1.55541833672441,,0.3245266329522987,,
,6898.0,764.0,6483.0,492.0,-108.0,2504.0,3007.0,,,,-1.81727940438702,-3.01364168112736,-1.55542466324498,,-0.005517529472944201,,
,6903.0,765.0,6488.0,493.0,-128.0,2497.0,3017.0,,,,-1.81604452879575,-3.01370208419327,-1.55465766645979,,-0.308595031646215,,
,6904.0,764.0,6490.0,495.0,-124.0,2509.0,3025.0,,,,-1.81565003152418,-3.01355882984278,-1.5555308460558,,-0.5801400478784048,,
,6908.0,766.0,6497.0,493.0,-126.0,2516.0,3020.0,,,,-1.81431694211427,-3.0137089651646,-1.55439632001618,,-0.8178476794067259,,
,6911.0,766.0,6499.0,494.0,-122.0,2516.0,3021.0,,,,-1.81460159949989,-3.01350985209685,-1.55416120855463,,-1.021563011561788,,
,6919.0,769.0,6501.0,494.0,-121.0,2516.0,3021.0,,,,-1.81341115026114,-3.01355916443042,-1.55495391650842,,-1.1930054870640334,,
2025-07-17 14:52:18,6921.0,771.0,6504.0,494.0,-128.0,2525.0,3015.0,,,2025/07/17 02:52:18 PM,-1.81316100695736,-3.01376969750309,-1.55512237635451,,-1.335358563239623,,
,6921.0,768.0,6501.0,494.0,-128.0,2500.0,3009.0,,,,-1.81371286761495,-3.0136700886842,-1.5544617144888,,-1.4527678482781152,,
,6924.0,769.0,6504.0,494.0,-128.0,2520.0,3001.0,,,,-1.81308455831083,-3.01370595593832,-1.55434756039031,,-1.5497985708921924,,
,6920.0,767.0,6505.0,495.0,-128.0,2527.0,2995.0,,,,-1.81357052415663,-3.01364588257623,-1.55374079927262,,-1.6309048306679546,,
,6916.0,766.0,6497.0,494.0,-120.0,2519.0,3019.0,,,,-1.81406533033343,-3.01366933473166,-1.55417770540589,,-1.699958864756667,,
,6905.0,765.0,6493.0,494.0,-112.0,2526.0,3029.0,,,,-1.81336496750957,-3.01373725961024,-1.55424890093617,,-1.7598792417557216,,
,6890.0,760.0,6481.0,489.0,-117.0,2515.0,3013.0,,,,-1.81317546542961,-3.0136956840918,-1.55455439877736,,-1.8123834809319077,,
,6880.0,758.0,6473.0,492.0,-115.0,2504.0,3009.0,,,,-1.8131746912799,-3.01366593740496,-1.55458385131807,,-1.8578747096851476,,
,6864.0,757.0,6460.0,492.0,-117.0,2504.0,3016.0,,,,-1.81258580479833,-3.01369655351186,-1.55457297283288,,-1.8954561715880993,,
,6848.0,753.0,6443.0,488.0,-114.0,2509.0,3023.0,,,,-1.81222320417921,-3.01359896803875,-1.55399714193159,,-1.9230548310398683,,
,6829.0,750.0,6432.0,488.0,-110.0,2523.0,3013.0,,,,-1.81308145915942,-3.01365256848847,-1.5537924294744,,-1.9376283404623242,,
,6815.0,750.0,6420.0,488.0,-112.0,2508.0,3013.0,,,,-1.81180760071937,-3.01356094392967,-1.55408280496866,,-1.9354284916331383,,
,6805.0,747.0,6409.0,488.0,-116.0,2532.0,3029.0,,,,-1.81186247757235,-3.01366268734385,-1.55480148098024,,-1.9122972445067097,,
,6792.0,744.0,6399.0,486.0,-129.0,2528.0,3020.0,,,,-1.81142713871778,-3.01368482466948,-1.55453151340486,,-1.8639761524392968,,
,6787.0,743.0,6395.0,486.0,-129.0,2536.0,3010.0,,,,-1.81178238731451,-3.01361147570469,-1.55478223179361,,-1.7864146943126218,,
,6777.0,745.0,6384.0,484.0,-129.0,2539.0,3015.0,,,,-1.8131739085119,-3.01354379713417,-1.55457323571803,,-1.6760668584862868,,
,6771.0,742.0,6377.0,484.0,-124.0,2531.0,3036.0,,,,-1.81277042435262,-3.01355770220562,-1.55443820357946,,-1.5301681849000832,,
,6765.0,742.0,6372.0,484.0,-116.0,2528.0,2998.0,,,,-1.81418353522464,-3.01367674645691,-1.55455352413626,,-1.3469874289230084,,
,6762.0,742.0,6370.0,484.0,-120.0,2518.0,3001.0,,,,-1.8140225983287,-3.01363145984961,-1.55374804997014,,-1.1260478106262328,,
,6759.0,742.0,6366.0,484.0,-121.0,2529.0,2994.0,,,,-1.81261933011758,-3.0136929803969,-1.55456145057011,,-0.8683118140426376,,
,6759.0,740.0,6364.0,484.0,-128.0,2518.0,3006.0,,,,-1.81391709349569,-3.01369104360997,-1.55393485366982,,-0.5763204062859818,,
,6757.0,740.0,6363.0,482.0,-126.0,2534.0,3038.0,,,,-1.81332243123002,-3.01358522791562,-1.5547493549408,,-0.2542734265262234,,
,6756.0,741.0,6360.0,484.0,-120.0,2532.0,3042.0,,,,-1.81330393445069,-3.01358040612381,-1.5538684415866,,0.09196480089256051,,
,6756.0,745.0,6360.0,485.0,-117.0,2526.0,3026.0,,,,-1.81158491007504,-3.01360700234589,-1.55408546816471,,0.45494950681654905,,
,6755.0,741.0,6360.0,482.0,-125.0,2516.0,3029.0,,,,-1.81204606779187,-3.01355628756375,-1.55423854348006,,0.8258386610593662,,
,6757.0,742.0,6361.0,484.0,-125.0,2518.0,3013.0,,,,-1.81225965446423,-3.01356364683284,-1.55363165805924,,1.1946764801142715,,
,6758.0,742.0,6361.0,483.0,-123.0,2523.0,3027.0,,,,-1.8120548390562,-3.0137186594013,-1.55459594095025,,1.5507692645067797,,
,6761.0,744.0,6361.0,484.0,-121.0,2529.0,3025.0,,,,-1.81176673715713,-3.01362424520838,-1.55435273101333,,1.8831369845112689,,
,6761.0,742.0,6361.0,483.0,-123.0,2542.0,3004.0,,,,-1.81351032697223,-3.01367464365979,-1.55438468534775,,2.1810166354107534,,
,6762.0,742.0,6364.0,484.0,-127.0,2525.0,3006.0,,,,-1.8134758729704,-3.01372150297883,-1.55437900334834,,2.4343874171562705,,
,6768.0,744.0,6363.0,485.0,-121.0,2514.0,3007.0,,,,-1.8127379327207,-3.01356844846269,-1.55418236858029,,2.634483697072673,,
,6766.0,746.0,6367.0,486.0,-123.0,2515.0,3005.0,,,,-1.81196368493009,-3.0136385331733,-1.55383503538835,,2.774260341304758,,
,6770.0,745.0,6369.0,484.0,-128.0,2528.0,3004.0,,,,-1.81200919754703,-3.01351383240301,-1.55437162118891,,2.8487773083315964,,
,6769.0,744.0,6371.0,485.0,-117.0,2509.0,3024.0,,,,-1.81192225459962,-3.01359056898356,-1.5532325921403,,2.8554766083876078,,
,6776.0,747.0,6374.0,484.0,-121.0,2514.0,3021.0,,,,-1.81144615239966,-3.0135610732158,-1.55444696744149,,2.794333576161031,,
,6776.0,747.0,6374.0,486.0,-124.0,2508.0,3006.0,,,,-1.81194665342409,-3.01359709480383,-1.55337417949603,,2.6678735768194146,,
,6777.0,748.0,6377.0,485.0,-113.0,2515.0,3007.0,,,,-1.81003361607266,-3.01360595502597,-1.55285900432154,,2.4810531540422875,,
,6778.0,746.0,6377.0,486.0,-118.0,2528.0,3019.0,,,,-1.80959880976137,-3.01352296642161,-1.55346209289485,,2.241011441708234,,
,6780.0,745.0,6377.0,486.0,-124.0,2518.0,3014.0,,,,-1.80944226320503,-3.01347914153003,-1.55213171722214,,1.9567045508553589,,
,6784.0,746.0,6379.0,490.0,-125.0,2502.0,3006.0,,,,-1.8093620584306,-3.01349384690846,-1.55367242378439,,1.6384429894020036,,
,6784.0,749.0,6382.0,485.0,-120.0,2509.0,3003.0,,,,-1.81017754429906,-3.01352104555765,-1.55353636837719,,1.2973590122815772,,
,6785.0,747.0,6377.0,484.0,-114.0,2519.0,2986.0,,,,-1.80889695125353,-3.01347950591547,-1.55261853505494,,0.9448356802379173,,
,6786.0,747.0,6380.0,487.0,-126.0,2518.0,2995.0,,,,-1.80858424193993,-3.01339843719314,-1.55254622373704,,0.5919314844102589,,
,6785.0,745.0,6380.0,486.0,-119.0,2520.0,3023.0,,,,-1.80839523018088,-3.0134126592101,-1.55336780722061,,0.24883390061432095,,
,6785.0,747.0,6380.0,487.0,-114.0,2530.0,3022.0,,,,-1.80859932949145,-3.0134337906244,-1.55250769381249,,-0.07562678110856852,,
,6782.0,747.0,6381.0,487.0,-120.0,2526.0,3012.0,,,,-1.8078374194219,-3.01349090841218,-1.55285109340979,,-0.3743744362872878,,
,6781.0,745.0,6376.0,486.0,-123.0,2539.0,3024.0,,,,-1.80767240699289,-3.01340811932472,-1.55178879703763,,-0.6423686331885312,,
,6784.0,746.0,6378.0,483.0,-127.0,2520.0,3027.0,,,,-1.80817611273623,-3.0133815851128,-1.55299689659252,,-0.8767485690938824,,
,6784.0,747.0,6377.0,487.0,-118.0,2512.0,3020.0,,,,-1.80710014618612,-3.01337675884794,-1.55203930354306,,-1.0768247537731654,,
,6782.0,747.0,6374.0,486.0,-118.0,2502.0,3014.0,,,,-1.80708291457996,-3.01338871502598,-1.55247410850913,,-1.2439154074327936,,
,6781.0,745.0,6371.0,484.0,-134.0,2515.0,3014.0,,,,-1.80688716409389,-3.01340682156242,-1.55262240457566,,-1.3810390192777522,,
,6778.0,746.0,6373.0,485.0,-135.0,2495.0,3011.0,,,,-1.80658740478938,-3.01339313183884,-1.55299977171982,,-1.4924890488861784,,
,6780.0,748.0,6375.0,487.0,-118.0,2503.0,3022.0,,,,-1.80691382401316,-3.01336244062851,-1.55219216764149,,-1.5833285491398554,,
,6784.0,748.0,6375.0,488.0,-119.0,2502.0,3003.0,,,,-1.80550158368049,-3.01333031866936,-1.55164137618846,,-1.6588497911839273,,
,6782.0,748.0,6377.0,488.0,-134.0,2519.0,3019.0,,,,-1.80545537127267,-3.01331049237144,-1.55180474272882,,-1.7240462056061912,,
,6781.0,746.0,6374.0,486.0,-123.0,2513.0,3027.0,,,,-1.80444673925148,-3.01344780803861,-1.5518502040312,,-1.7831413306196624,,
,6783.0,749.0,6376.0,485.0,-115.0,2513.0,3017.0,,,,-1.80382109151091,-3.01340285784603,-1.5512057193135,,-1.8392125129864414,,
,6786.0,748.0,6379.0,488.0,-126.0,2519.0,3015.0,,,,-1.80461014420367,-3.01342148056062,-1.55249522917968,,-1.893936459599508,,
,6792.0,750.0,6381.0,488.0,-124.0,2517.0,3006.0,,,,-1.80606402785862,-3.01338731704009,-1.55215801765877,,-1.9474702226349587,,
,6790.0,748.0,6381.0,486.0,-124.0,2525.0,3010.0,,,,-1.80770808476277,-3.01337756051117,-1.55205685142816,,-1.99846635265385,,
,6795.0,747.0,6382.0,485.0,-113.0,2534.0,3020.0,,,,-1.80912043938193,-3.01351817389182,-1.55375672333986,,-2.0442073210310108,,
,6795.0,751.0,6388.0,490.0,-115.0,2514.0,3025.0,,,,-1.8104529558503,-3.01352328302168,-1.55434591533466,,-2.080834786082662,,
,6799.0,751.0,6388.0,489.0,-112.0,2520.0,3032.0,,,,-1.81106582646474,-3.01344837453465,-1.55384442284143,,-2.103645496539562,,
,6800.0,749.0,6387.0,488.0,-113.0,2544.0,3030.0,,,,-1.81132312937719,-3.01350076502192,-1.55397380990806,,-2.10742696042188,,
,6806.0,751.0,6391.0,487.0,-108.0,2524.0,3028.0,,,,-1.81290091095623,-3.01353772292274,-1.55299337835462,,-2.0868101976118534,,
,6811.0,753.0,6392.0,488.0,-121.0,2523.0,2991.0,,,,-1.81348778393538,-3.01360698248027,-1.55432290208389,,-2.0366215856466074,,
,6811.0,751.0,6395.0,488.0,-118.0,2507.0,2980.0,,,,-1.8142778597392,-3.01359936716432,-1.55461862778282,,-1.9522195998359888,,
,6814.0,755.0,6396.0,490.0,-115.0,2508.0,2992.0,,,,-1.81527455991296,-3.01366836298979,-1.55481970414743,,-1.8298048733949757,,
,6815.0,751.0,6398.0,485.0,-120.0,2518.0,3017.0,,,,-1.81519933016594,-3.01371947533276,-1.55411071710442,,-1.6666939556720284,,
,6821.0,755.0,6402.0,490.0,-123.0,2524.0,3031.0,,,,-1.81567355678899,-3.01365180660858,-1.55480282431107,,-1.4615490267441793,,
,6823.0,756.0,6405.0,490.0,-123.0,2526.0,3020.0,,,,-1.81530999764743,-3.0136258690068,-1.55443866890943,,-1.2145576494600376,,
,6826.0,756.0,6407.0,488.0,-119.0,2528.0,3015.0,,,,-1.81523073194418,-3.01359337120744,-1.55586451894119,,-0.9275576454448858,,
,6828.0,756.0,6410.0,488.0,-123.0,2535.0,3019.0,,,,-1.81599540218938,-3.01363977201013,-1.55435072336934,,-0.6041015811826258,,
,6835.0,758.0,6413.0,491.0,-111.0,2525.0,3023.0,,,,-1.81534704965724,-3.01358253717001,-1.55405788306533,,-0.2494535227418536,,
,6838.0,758.0,6419.0,489.0,-122.0,2505.0,3009.0,,,,-1.8161686801273,-3.0135978534458,-1.55471032573385,,0.12949048124057005,,
,6842.0,759.0,6422.0,490.0,-115.0,2505.0,3001.0,,,,-1.81527311989929,-3.01356854395548,-1.55466270131395,,0.5243652249682155,,
,6845.0,758.0,6424.0,492.0,-126.0,2511.0,2999.0,,,,-1.81584394594473,-3.01349356550294,-1.55457359621934,,0.9255846973436521,,
,6849.0,760.0,6425.0,489.0,-116.0,2520.0,3027.0,,,,-1.81538781113924,-3.01356017844377,-1.55552710809512,,1.3226712293347815,,
,6855.0,761.0,6430.0,491.0,-122.0,2524.0,3034.0,,,,-1.81448643408847,-3.01359891283293,-1.55459559073952,,1.704653449865741,,
,6855.0,762.0,6437.0,491.0,-119.0,2521.0,3025.0,,,,-1.81386546517307,-3.01344910165117,-1.55448240325149,,2.0605147414159273,,
,6861.0,763.0,6436.0,490.0,-125.0,2518.0,3022.0,,,,-1.81292438689817,-3.01360314488232,-1.55490285022113,,2.3796688854578534,,
,6862.0,763.0,6436.0,491.0,-127.0,2513.0,3029.0,,,,-1.81292442474513,-3.01368250700657,-1.55405688416922,,2.652435902859638,,
,6864.0,762.0,6439.0,493.0,-124.0,2508.0,3012.0,,,,-1.81345897007536,-3.01360743491856,-1.55429997466914,,2.870488912093774,,
,6864.0,760.0,6438.0,492.0,-127.0,2516.0,3003.0,,,,-1.81335166562778,-3.01360339707294,-1.5540414783102,,3.0272428366102915,,
,6859.0,760.0,6434.0,492.0,-122.0,2515.0,3014.0,,,,-1.8128254284544,-3.0136046116871,-1.55447155599856,,3.118158985174109,,
,6850.0,758.0,6431.0,491.0,-124.0,2526.0,3006.0,,,,-1.81388148402882,-3.01351587310183,-1.55513355408276,,3.1409463856433772,,
,6840.0,756.0,6421.0,489.0,-116.0,2507.0,3017.0,,,,-1.81276379505884,-3.01365791698643,-1.55425589966011,,3.0956502276867006,,
,6828.0,753.0,6412.0,491.0,-119.0,2522.0,3016.0,,,,-1.81205551326265,-3.01351029994401,-1.55365084638537,,2.98462725863096,,
,6811.0,751.0,6399.0,487.0,-114.0,2510.0,3009.0,,,,-1.81147145074553,-3.01357528422973,-1.55323926826852,,2.8124149165603805,,
,6798.0,748.0,6386.0,488.0,-112.0,2523.0,3014.0,,,,-1.81047076593493,-3.01348081048529,-1.55411531686278,,2.5855047328535257,,
,6780.0,743.0,6372.0,487.0,-118.0,2503.0,3004.0,,,,-1.81021748121983,-3.01350626214934,-1.55321258298013,,2.31203248048294,,
,6769.0,743.0,6362.0,485.0,-117.0,2494.0,3010.0,,,,-1.81001978109637,-3.0134480113263,-1.55339502525663,,2.001399447409211,,
,6756.0,742.0,6353.0,485.0,-116.0,2510.0,3009.0,,,,-1.81025806660482,-3.01339834008656,-1.5532371572802,,1.6638416946319996,,
,6746.0,739.0,6344.0,484.0,-116.0,2521.0,2981.0,,,,-1.81008508718172,-3.01349878149474,-1.55424744236156,,1.3099666365720155,,
,6737.0,736.0,6332.0,482.0,-133.0,2536.0,2986.0,,,,-1.81083988360819,-3.01363007619807,-1.55396938084211,,0.9502779605026799,,
,6728.0,735.0,6326.0,483.0,-125.0,2538.0,3012.0,,,,-1.81158862004901,-3.013651835518,-1.55348300728525,,0.5947105824796424,,
,6723.0,737.0,6320.0,486.0,-114.0,2525.0,3019.0,,,,-1.81258765377216,-3.01346937603797,-1.55329121680367,,0.25219749455020435,,
,6717.0,736.0,6318.0,482.0,-110.0,2518.0,3027.0,,,,-1.81244824435382,-3.01359370264122,-1.55383747174695,,-0.06970931311593719,,
,6714.0,736.0,6313.0,482.0,-119.0,2533.0,3013.0,,,,-1.81255721575815,-3.01358490887077,-1.55425830699294,,-0.3651409516448669,,
,6710.0,734.0,6311.0,482.0,-118.0,2527.0,3031.0,,,,-1.81348858454588,-3.01364904237644,-1.55531049578545,,-0.6301136698314854,,
,6710.0,733.0,6306.0,482.0,-121.0,2534.0,3030.0,,,,-1.81203203279287,-3.0135145797824,-1.55376400661454,,-0.8626101920460149,,
,6709.0,736.0,6306.0,481.0,-115.0,2517.0,3029.0,,,,-1.81120115081193,-3.01355595917516,-1.55441051886123,,-1.0625268336957074,,
,6707.0,735.0,6307.0,482.0,-117.0,2513.0,3026.0,,,,-1.8115293243299,-3.01353252343594,-1.55407758110572,,-1.2314848647868917,,
,6708.0,733.0,6305.0,480.0,-112.0,2496.0,3005.0,,,,-1.81068729497937,-3.01356828002388,-1.5540177791744,,-1.3725193147423735,,
,6707.0,734.0,6305.0,482.0,-124.0,2516.0,3025.0,,,,-1.81064969930013,-3.01356940916268,-1.55369044143383,,-1.4896725225392367,,
,6709.0,737.0,6305.0,480.0,-134.0,2516.0,3043.0,,,,-1.81099062957655,-3.01357129893288,-1.55318561056453,,-1.587530354705086,,
,6711.0,736.0,6306.0,482.0,-119.0,2517.0,3032.0,,,,-1.81116583522139,-3.01367904578933,-1.55401118491109,,-1.6707445462167774,,
,6708.0,735.0,6308.0,481.0,-122.0,2540.0,3031.0,,,,-1.81147139054634,-3.01350077472108,-1.55304747657638,,-1.7435847363021415,,
,6711.0,735.0,6307.0,482.0,-120.0,2519.0,3032.0,,,,-1.81103623878836,-3.01349074724753,-1.55346962342954,,-1.809558983729077,,
,6715.0,735.0,6307.0,483.0,-116.0,2503.0,3029.0,,,,-1.8104528173585,-3.01349294803132,-1.55437799264898,,-1.8711327022277628,,
,6718.0,740.0,6312.0,483.0,-122.0,2519.0,3016.0,,,,-1.81151185125088,-3.01354867882982,-1.55399089046555,,-1.9295639568920941,,
,6720.0,738.0,6312.0,482.0,-117.0,2522.0,3021.0,,,,-1.81081411716987,-3.01357972839765,-1.55408485531823,,-1.9848590495017226,,
,6724.0,736.0,6314.0,481.0,-123.0,2535.0,2999.0,,,,-1.8111631535628,-3.01353912630041,-1.55367023106426,,-2.035838179560215,,
,6725.0,736.0,6318.0,483.0,-123.0,2527.0,3014.0,,,,-1.81099590801053,-3.01353851859193,-1.55387685619072,,-2.0802894007214285,,
,6729.0,740.0,6319.0,482.0,-125.0,2522.0,3030.0,,,,-1.81061307049657,-3.0135092651868,-1.55367901097442,,-2.1151826609219957,,
,6731.0,740.0,6322.0,483.0,-126.0,2521.0,3024.0,,,,-1.81031831098653,-3.0134472505132,-1.55333644232788,,-2.136915387718386,,
,6732.0,741.0,6322.0,482.0,-126.0,2516.0,3024.0,,,,-1.81095153891832,-3.01351660738399,-1.55343933005243,,-2.141565646834366,,
,6736.0,738.0,6324.0,482.0,-127.0,2511.0,3028.0,,,,-1.81012585321779,-3.01351002013416,-1.55397022807137,,-2.125135830806505,,
,6738.0,742.0,6328.0,483.0,-121.0,2513.0,3018.0,,,,-1.8093492732057,-3.01351203832848,-1.55300434157754,,-2.083776732287467,,
,6737.0,738.0,6328.0,483.0,-118.0,2496.0,3018.0,,,,-1.80792112655498,-3.01345788513575,-1.55293442146432,,-2.0139873552824032,,
,6740.0,742.0,6329.0,482.0,-118.0,2501.0,3007.0,,,,-1.80843432458094,-3.01344543845681,-1.55165119315783,,-1.9127896028595028,,
,6744.0,740.0,6328.0,483.0,-118.0,2531.0,2993.0,,,,-1.80733165972929,-3.01351952610479,-1.55227735531371,,-1.777879373222834,,
,6746.0,742.0,6330.0,484.0,-121.0,2505.0,3001.0,,,,-1.80790934850753,-3.01347029839208,-1.55249327135668,,-1.607757011750221,,
,6747.0,743.0,6333.0,484.0,-118.0,2500.0,3007.0,,,,-1.80650603815797,-3.01346921879564,-1.55228983070498,,-1.401840479098105,,
,6745.0,741.0,6330.0,486.0,-116.0,2491.0,3009.0,,,,-1.80746952789763,-3.01339193508833,-1.55191081978086,,-1.1605634201657176,,
,6745.0,742.0,6331.0,481.0,-138.0,2506.0,3012.0,,,,-1.80701075592513,-3.01341791110383,-1.55295976477414,,-0.8854571145792438,,
,6743.0,740.0,6329.0,483.0,-125.0,2516.0,3019.0,,,,-1.80728086476224,-3.01338617698122,-1.55280749766962,,-0.5792108020734726,,
,6747.0,744.0,6332.0,483.0,-111.0,2531.0,3006.0,,,,-1.80674519023622,-3.01340020086901,-1.55272377035684,,-0.24570114231447185,,
2025-07-17 14:52:19,6748.0,742.0,6332.0,484.0,-113.0,2522.0,3024.0,,,2025/07/17 02:52:19 PM,-1.8061702276472,-3.0134443694308,-1.55278557493106,,0.11001942489594302,,
,6747.0,742.0,6332.0,484.0,-125.0,2524.0,3012.0,,,,-1.80622739630081,-3.0133806259061,-1.55254171313891,,0.4817834933650111,,
,6745.0,741.0,6332.0,484.0,-120.0,2505.0,3027.0,,,,-1.8053138871219,-3.01338770022976,-1.55090473109662,,0.8624226879427063,,
,6749.0,741.0,6331.0,484.0,-114.0,2506.0,3026.0,,,,-1.80482925072702,-3.01347760368913,-1.5520017572297,,1.2439345399381798,,
,6750.0,742.0,6332.0,486.0,-121.0,2508.0,3027.0,,,,-1.80590624495593,-3.01345938262311,-1.55331391751251,,1.6176983008153298,,
,6754.0,744.0,6333.0,486.0,-113.0,2510.0,3020.0,,,,-1.80469698052002,-3.01338996937751,-1.55230581899306,,1.97473287223239,,
,6753.0,742.0,6330.0,483.0,-126.0,2511.0,3003.0,,,,-1.80409230620813,-3.01334452426408,-1.55256481756465,,2.305987612456644,,
,6754.0,743.0,6334.0,483.0,-116.0,2518.0,3023.0,,,,-1.80228620422555,-3.01336784864654,-1.55101031820463,,2.602654738688517,,
,6754.0,746.0,6334.0,484.0,-125.0,2518.0,3030.0,,,,-1.80269784568141,-3.01338334788854,-1.55160841674943,,2.8564907941127817,,
,6756.0,743.0,6336.0,484.0,-119.0,2512.0,3026.0,,,,-1.80290162070617,-3.01332350844229,-1.55166389150607,,3.0601348885334296,,
,6757.0,744.0,6335.0,485.0,-122.0,2515.0,3029.0,,,,-1.80352502459689,-3.01340111428869,-1.55196678991413,,3.2074133011237973,,
,6760.0,745.0,6341.0,488.0,-119.0,2507.0,3034.0,,,,-1.80594310385075,-3.01336658291523,-1.55317937132329,,3.2936222593995113,,
,6764.0,747.0,6341.0,487.0,-119.0,2529.0,3016.0,,,,-1.80714679374036,-3.01347650015278,-1.55254660673953,,3.3157808788436314,,
,6767.0,745.0,6345.0,488.0,-116.0,2518.0,3019.0,,,,-1.80773290411244,-3.01338239002855,-1.55278890818028,,3.2728427768723436,,
,6767.0,744.0,6346.0,488.0,-122.0,2517.0,3008.0,,,,-1.80916848850783,-3.01350460672076,-1.55210959248413,,3.165848788297895,,
,6770.0,746.0,6345.0,487.0,-130.0,2510.0,3008.0,,,,-1.80988968152735,-3.01365596015112,-1.55386451868814,,2.997997880604899,,
,6774.0,748.0,6348.0,485.0,-120.0,2519.0,3011.0,,,,-1.81090868638453,-3.01351618034491,-1.55349747517245,,2.7746124418962683,,
,6778.0,749.0,6352.0,489.0,-112.0,2548.0,3019.0,,,,-1.81172873417303,-3.01356108873455,-1.55403495179721,,2.5029794524037263,,
,6781.0,748.0,6354.0,489.0,-106.0,2536.0,3007.0,,,,-1.81214342233443,-3.01368093288166,-1.55473687251853,,2.192060051456209,,
,6783.0,747.0,6356.0,485.0,-122.0,2530.0,3015.0,,,,-1.81300287955597,-3.01362936894158,-1.55499973256882,,1.8520743562131563,,
,6789.0,749.0,6357.0,487.0,-131.0,2507.0,3024.0,,,,-1.81400385905114,-3.01370942456203,-1.55467263187783,,1.4939833271522098,,
,6789.0,750.0,6362.0,486.0,-131.0,2529.0,3023.0,,,,-1.81439752336859,-3.0135804228117,-1.55471211958132,,1.1289027918788759,,
,6795.0,750.0,6365.0,488.0,-126.0,2533.0,3005.0,,,,-1.81513277207131,-3.01363998344898,-1.55442381247415,,0.7674950018927901,,
,6799.0,751.0,6367.0,488.0,-126.0,2526.0,3009.0,,,,-1.81656062447585,-3.01361088573865,-1.55546093170407,,0.4193892540985865,,
,6803.0,752.0,6371.0,487.0,-124.0,2513.0,3000.0,,,,-1.81728907868064,-3.01364517371233,-1.55564376924027,,0.09268391269557529,,
,6804.0,754.0,6373.0,491.0,-120.0,2515.0,3007.0,,,,-1.81692416226853,-3.01361932588301,-1.55512003144049,,-0.20642375076435207,,
,6811.0,752.0,6378.0,488.0,-123.0,2510.0,3017.0,,,,-1.81536130189409,-3.0136439009795,-1.5543828736599,,-0.47384656686843407,,
,6816.0,753.0,6383.0,489.0,-121.0,2509.0,3018.0,,,,-1.81488359711863,-3.01364513710169,-1.55514067293676,,-0.7076406819669468,,
,6818.0,754.0,6383.0,490.0,-134.0,2502.0,3005.0,,,,-1.81400408362346,-3.01347989205081,-1.55445611122116,,-0.9078692118559814,,
,6822.0,755.0,6390.0,489.0,-119.0,2508.0,3030.0,,,,-1.81282163616163,-3.01364662290976,-1.55375831638579,,-1.0763218005986086,,
,6825.0,755.0,6393.0,492.0,-119.0,2501.0,3022.0,,,,-1.81277969854834,-3.01361276342854,-1.55425277812025,,-1.2161301703964134,,
,6829.0,758.0,6395.0,490.0,-120.0,2501.0,3040.0,,,,-1.81298374606117,-3.01367473550838,-1.55422079013166,,-1.3313281304351952,,
,6834.0,757.0,6396.0,492.0,-110.0,2513.0,3017.0,,,,-1.81270732390219,-3.01362529415161,-1.55381325458197,,-1.426406165849483,,
,6835.0,759.0,6399.0,489.0,-121.0,2512.0,2994.0,,,,-1.81160405899828,-3.01360573866181,-1.55384473476658,,-1.5059059849682326,,
,6841.0,760.0,6404.0,493.0,-120.0,2514.0,2990.0,,,,-1.81134559478814,-3.01362427217766,-1.55295684615548,,-1.5740901154805929,,
,6838.0,758.0,6402.0,492.0,-118.0,2508.0,2987.0,,,,-1.81069463086574,-3.01360981223293,-1.55359357423529,,-1.6347069956860387,,
,6834.0,758.0,6401.0,493.0,-116.0,2506.0,2981.0,,,,-1.81154533919084,-3.01363145852359,-1.55383373540896,,-1.690854747035863,,
,6827.0,754.0,6393.0,490.0,-114.0,2521.0,2999.0,,,,-1.8122746722975,-3.01362011781081,-1.55367815568376,,-1.7449297741396348,,
,6820.0,751.0,6385.0,491.0,-102.0,2517.0,3017.0,,,,-1.81157631758254,-3.01370018181911,-1.55414723712696,,-1.7986333782019064,,
,6809.0,750.0,6377.0,489.0,-115.0,2517.0,2991.0,,,,-1.81101198612892,-3.01358482441181,-1.55412993912701,,-1.8530041335909786,,
,6793.0,746.0,6364.0,489.0,-110.0,2510.0,2989.0,,,,-1.80940605541461,-3.01354474485161,-1.55304124905894,,-1.9084469830957222,,
,6776.0,744.0,6350.0,486.0,-114.0,2514.0,2992.0,,,,-1.80914046379071,-3.01354595883469,-1.55353107151875,,-1.964740051018489,,
,6759.0,741.0,6340.0,484.0,-114.0,2496.0,3004.0,,,,-1.80860137932825,-3.01360540957224,-1.55327140587866,,-2.0210134976089056,,
,6745.0,743.0,6329.0,486.0,-118.0,2495.0,3015.0,,,,-1.80874605068372,-3.01341122174819,-1.55374545929691,,-2.0757077693148855,,
,6733.0,740.0,6317.0,484.0,-116.0,2500.0,3016.0,,,,-1.8083133035493,-3.01353763865526,-1.55337327885414,,-2.1265287947460236,,
,6720.0,738.0,6305.0,482.0,-111.0,2506.0,3004.0,,,,-1.80883773185376,-3.01356815655752,-1.55301224348611,,-2.1704236547159,,
,6705.0,733.0,6293.0,482.0,-117.0,2507.0,3004.0,,,,-1.80934858792623,-3.013593053518,-1.55369073842505,,-2.2036014704714564,,
,6698.0,735.0,6286.0,480.0,-124.0,2517.0,3008.0,,,,-1.80975472101298,-3.01356925364422,-1.55400187185408,,-2.2216206491555766,,
,6692.0,733.0,6279.0,481.0,-125.0,2513.0,3010.0,,,,-1.81011618604489,-3.01372529416647,-1.55312536047754,,-2.2195554421764943,,
,6686.0,734.0,6276.0,480.0,-130.0,2525.0,3026.0,,,,-1.8097214038272,-3.01367883560019,-1.55449712240086,,-2.1922426650608084,,
,6679.0,731.0,6269.0,479.0,-131.0,2521.0,3024.0,,,,-1.80944859401266,-3.01356062991437,-1.5536811730172,,-2.1345949478735635,,
,6673.0,732.0,6267.0,478.0,-126.0,2516.0,3017.0,,,,-1.8081658033499,-3.01354953347959,-1.55367027370129,,-2.0419529807251804,,
,6673.0,731.0,6264.0,483.0,-117.0,2530.0,3007.0,,,,-1.80883074535191,-3.01357580510421,-1.55306857569643,,-1.9104398632648512,,
,6670.0,732.0,6261.0,479.0,-121.0,2524.0,3001.0,,,,-1.808550820011,-3.01348384025297,-1.55437246390215,,-1.7372791657380902,,
,6669.0,730.0,6257.0,483.0,-117.0,2513.0,3000.0,,,,-1.80909389219354,-3.01355221325799,-1.55239346864172,,-1.5210453186152006,,
,6665.0,728.0,6256.0,478.0,-120.0,2534.0,3019.0,,,,-1.80890561449969,-3.01356063366717,-1.55353540940722,,-1.26182794296617,,
,6668.0,732.0,6256.0,478.0,-119.0,2518.0,3027.0,,,,-1.80895837889506,-3.01352614909877,-1.55386434107324,,-0.9613063999354826,,
,6669.0,730.0,6257.0,483.0,-118.0,2506.0,3030.0,,,,-1.80833671685287,-3.01370175705999,-1.55247707603742,,-0.6227431914292731,,
,6665.0,732.0,6255.0,481.0,-121.0,2507.0,3012.0,,,,-1.8096943573265,-3.0136209155111,-1.55345198130193,,-0.2509126054905468,,
,6668.0,731.0,6256.0,480.0,-137.0,2511.0,3015.0,,,,-1.80943894719974,-3.01355252837976,-1.55334527060239,,0.1480162679654843,,
,6668.0,730.0,6256.0,480.0,-135.0,2498.0,3031.0,,,,-1.8095360753513,-3.01353893613092,-1.55328184352077,,0.5666245766600958,,
,6668.0,732.0,6260.0,481.0,-127.0,2490.0,3029.0,,,,-1.80924171135308,-3.0135872100842,-1.55306014983092,,0.9964040120899441,,
,6670.0,731.0,6259.0,481.0,-121.0,2489.0,3019.0,,,,-1.80839647026421,-3.01355133498383,-1.55327962274272,,1.4279268572711579,,
,6670.0,729.0,6259.0,480.0,-120.0,2495.0,3016.0,,,,-1.80797607332988,-3.0134884558194,-1.55331684863024,,1.85102938138028,,
,6673.0,732.0,6259.0,480.0,-126.0,2495.0,3016.0,,,,-1.80804063290215,-3.01354782129628,-1.55326695559546,,2.255021807847525,,
,6677.0,735.0,6262.0,482.0,-127.0,2502.0,3006.0,,,,-1.80740775205089,-3.01357805536345,-1.55249111284539,,2.62894524761073,,
,6677.0,732.0,6261.0,479.0,-124.0,2497.0,2995.0,,,,-1.80708856563857,-3.01352235566489,-1.55259827704598,,2.961896813692023,,
,6680.0,733.0,6266.0,482.0,-118.0,2519.0,3011.0,,,,-1.8072224113739,-3.01351423254686,-1.5536554066823,,3.2434360213668683,,
,6681.0,732.0,6267.0,479.0,-123.0,2514.0,3027.0,,,,-1.80767437707899,-3.01351767102781,-1.5528537036169,,3.464069192513875,,
,6683.0,736.0,6267.0,482.0,-122.0,2506.0,3028.0,,,,-1.8076374991442,-3.01356203620512,-1.55237976128064,,3.615787760604008,,
,6689.0,734.0,6269.0,481.0,-128.0,2529.0,3027.0,,,,-1.80854688442349,-3.01349915139983,-1.55299516487252,,3.6926163601030257,,
,6688.0,734.0,6268.0,482.0,-125.0,2537.0,3038.0,,,,-1.80781181710969,-3.01354145999943,-1.55326423835183,,3.6911121662334656,,
,6690.0,733.0,6272.0,480.0,-114.0,2509.0,3020.0,,,,-1.80753955601799,-3.01350823224149,-1.55277906249982,,3.6107513843795385,,
,6692.0,736.0,6274.0,483.0,-119.0,2513.0,3012.0,,,,-1.80707219375808,-3.01356618559663,-1.5532959863413,,3.4541434813939254,,
,6693.0,736.0,6275.0,483.0,-117.0,2511.0,3011.0,,,,-1.80693933906844,-3.01359170769145,-1.55314655263143,,3.227028372117355,,
,6696.0,735.0,6275.0,483.0,-118.0,2513.0,3020.0,,,,-1.80630575268288,-3.01346990493185,-1.55233510392583,,2.9380345980040787,,
,6696.0,733.0,6276.0,481.0,-118.0,2514.0,2996.0,,,,-1.80618051316655,-3.01341511192434,-1.55285176797746,,2.5982048233366974,,
,6695.0,735.0,6277.0,482.0,-108.0,2516.0,3027.0,,,,-1.80621604902823,-3.01343758546373,-1.55205449149201,,2.2203250691617535,,
,6697.0,736.0,6279.0,482.0,-129.0,2513.0,3019.0,,,,-1.80486578142621,-3.01337240776219,-1.55226711634159,,1.8181212450700757,,
,6696.0,735.0,6279.0,484.0,-128.0,2524.0,3018.0,,,,-1.80486475710102,-3.01353768103048,-1.55258074448188,,1.4054052014210732,,
,6699.0,736.0,6279.0,482.0,-136.0,2511.0,2997.0,,,,-1.80395019741788,-3.01339455520701,-1.55194730118422,,0.9952580964168677,,
,6700.0,734.0,6277.0,479.0,-129.0,2515.0,3006.0,,,,-1.80273659547587,-3.01349153634784,-1.55228540244721,,0.5993299508997594,,
,6698.0,734.0,6276.0,482.0,-121.0,2511.0,3018.0,,,,-1.80236849423875,-3.01337817119465,-1.55229191568872,,0.22731353843209753,,
,6699.0,735.0,6280.0,482.0,-125.0,2521.0,2997.0,,,,-1.80249265900482,-3.01343748057907,-1.5509634729988,,-0.11337641226888898,,
,6700.0,736.0,6282.0,481.0,-124.0,2510.0,2989.0,,,,-1.80172722582351,-3.01335392027711,-1.55153651532251,,-0.41771565170317315,,
,6703.0,736.0,6282.0,481.0,-120.0,2509.0,3025.0,,,,-1.80230968131462,-3.01344694264986,-1.55185396480354,,-0.6829956586223248,,
,6703.0,735.0,6283.0,480.0,-116.0,2497.0,3014.0,,,,-1.80289670678003,-3.01347436026488,-1.55252375051457,,-0.9086006475719147,,
,6704.0,736.0,6284.0,482.0,-124.0,2505.0,3001.0,,,,-1.80319234018308,-3.01333721691155,-1.55168651799736,,-1.0956853158985316,,
,6706.0,738.0,6288.0,485.0,-128.0,2501.0,2999.0,,,,-1.80373883962442,-3.01350908913571,-1.55170864016247,,-1.2468044388540718,,
,6709.0,739.0,6285.0,483.0,-122.0,2512.0,3005.0,,,,-1.80316114358456,-3.01336902326285,-1.55218325182715,,-1.365540169291044,,
,6709.0,736.0,6286.0,482.0,-119.0,2504.0,3001.0,,,,-1.80268443387941,-3.01335910038874,-1.55176911796661,,-1.456161448023749,,
,6714.0,738.0,6291.0,481.0,-116.0,2508.0,3021.0,,,,-1.80263306338972,-3.01335015825788,-1.55169451596967,,-1.523334459285225,,
,6717.0,740.0,6291.0,482.0,-122.0,2521.0,3048.0,,,,-1.80282688843694,-3.01337169970122,-1.55170108948997,,-1.5718869829365354,,
,6722.0,738.0,6295.0,484.0,-115.0,2521.0,3045.0,,,,-1.80332365807626,-3.01342117033284,-1.55224904366256,,-1.6066167835566327,,
,6722.0,739.0,6296.0,482.0,-109.0,2513.0,3004.0,,,,-1.80415515770984,-3.0133997672378,-1.55194668766562,,-1.632127793703421,,
,6723.0,740.0,6296.0,483.0,-124.0,2502.0,3012.0,,,,-1.80471373416383,-3.01350603218243,-1.55206797435504,,-1.6526783462489107,,
,6729.0,741.0,6301.0,485.0,-133.0,2506.0,3010.0,,,,-1.80693091393148,-3.01345826264832,-1.55336299461002,,-1.6720312971918345,,
,6732.0,741.0,6304.0,484.0,-129.0,2510.0,3007.0,,,,-1.80765003307604,-3.01348294110399,-1.55266594775884,,-1.6933037685019061,,
,6733.0,744.0,6305.0,484.0,-134.0,2517.0,3023.0,,,,-1.80809638725305,-3.0134399329228,-1.55308410277917,,-1.7188220055318386,,
,6740.0,743.0,6308.0,485.0,-131.0,2525.0,3043.0,,,,-1.80894555137921,-3.01355840265922,-1.55359649386599,,-1.7499929505142007,,
,6742.0,744.0,6313.0,484.0,-133.0,2508.0,3019.0,,,,-1.81071609575975,-3.01364934813799,-1.55379406375753,,-1.7872077923320597,,
,6747.0,746.0,6315.0,487.0,-121.0,2503.0,3023.0,,,,-1.8114879138055,-3.01374183575581,-1.55359909088446,,-1.8297935629566129,,
,6752.0,745.0,6320.0,485.0,-116.0,2510.0,3017.0,,,,-1.81166219168817,-3.01366626007821,-1.55383597954836,,-1.8760265200838722,,
,6754.0,744.0,6322.0,483.0,-116.0,2513.0,3021.0,,,,-1.81224767626881,-3.0136672608893,-1.55439256763364,,-1.923215384343257,,
,6757.0,746.0,6324.0,484.0,-116.0,2517.0,3003.0,,,,-1.81381226166476,-3.01364406199541,-1.55437453433809,,-1.9678537894585415,,
,6763.0,746.0,6328.0,487.0,-130.0,2534.0,3021.0,,,,-1.81383841090802,-3.01371618970723,-1.55497698358193,,-2.0058309824204867,,
,6765.0,748.0,6332.0,486.0,-128.0,2532.0,3014.0,,,,-1.81277386068207,-3.0136412976558,-1.55399860403033,,-2.032680541084741,,
,6768.0,746.0,6333.0,485.0,-118.0,2529.0,3029.0,,,,-1.81331573821587,-3.01366344334316,-1.55356314162006,,-2.0438415548095015,,
,6773.0,748.0,6338.0,488.0,-115.0,2511.0,3020.0,,,,-1.81085410465581,-3.01364616933496,-1.55419161655761,,-2.0349068733611206,,
,6777.0,750.0,6346.0,488.0,-116.0,2499.0,2998.0,,,,-1.81062943977569,-3.01356801355084,-1.55340323897648,,-2.0018380202634156,,
,6783.0,750.0,6348.0,487.0,-117.0,2496.0,3005.0,,,,-1.80915093153877,-3.01357478426968,-1.55383144241526,,-1.9411340457576134,,
,6787.0,749.0,6351.0,489.0,-129.0,2513.0,3038.0,,,,-1.80912709913578,-3.01351723024854,-1.55309387890873,,-1.8499498123659779,,
,6792.0,749.0,6353.0,485.0,-120.0,2505.0,3037.0,,,,-1.80825894667,-3.01365156037424,-1.55320029858474,,-1.7261667642637877,,
,6797.0,752.0,6358.0,489.0,-117.0,2503.0,3042.0,,,,-1.80881132661234,-3.01360675247017,-1.55303751216687,,-1.568425754605933,,
,6801.0,756.0,6360.0,492.0,-116.0,2514.0,3040.0,,,,-1.80881808185557,-3.01355025444635,-1.55309530987328,,-1.3761367187716391,,
,6804.0,753.0,6365.0,489.0,-115.0,2515.0,3038.0,,,,-1.80842794730274,-3.01355488948844,-1.55349760368869,,-1.149483118782369,,
,6806.0,754.0,6364.0,488.0,-112.0,2509.0,3006.0,,,,-1.80842264532589,-3.01344871620654,-1.55420390668835,,-0.8894388267776043,,
,6805.0,752.0,6365.0,488.0,-129.0,2523.0,3008.0,,,,-1.8085076245692,-3.01350660546894,-1.55344709645337,,-0.5978102209427448,,
,6805.0,753.0,6363.0,488.0,-125.0,2535.0,3022.0,,,,-1.80715938577961,-3.01348786591126,-1.55230000173624,,-0.2773066919829748,,
,6802.0,753.0,6362.0,489.0,-130.0,2530.0,3017.0,,,,-1.80820866190113,-3.01352535843219,-1.55353634485064,,0.06836945965716218,,
,6790.0,747.0,6354.0,486.0,-123.0,2522.0,3003.0,,,,-1.80731670530379,-3.01361516985244,-1.55327390983621,,0.4344339068850305,,
,6777.0,745.0,6347.0,487.0,-127.0,2518.0,3021.0,,,,-1.80702603726411,-3.01359118810883,-1.55247185934175,,0.8149587219392038,,
,6764.0,744.0,6335.0,487.0,-125.0,2528.0,3030.0,,,,-1.80618749775546,-3.01354229970676,-1.55302251997387,,1.2028657180571067,,
,6750.0,740.0,6319.0,486.0,-123.0,2509.0,3043.0,,,,-1.80610028556499,-3.01354793573815,-1.55291959561337,,1.5899975282419871,,
,6735.0,740.0,6308.0,484.0,-120.0,2489.0,3027.0,,,,-1.8056388810218,-3.01348899776393,-1.55321138131423,,1.9672813115293342,,
,6718.0,735.0,6297.0,483.0,-122.0,2483.0,3037.0,,,,-1.80526931787668,-3.01349845381337,-1.5522801096565,,2.3249901824548806,,
,6707.0,734.0,6286.0,484.0,-112.0,2519.0,3019.0,,,,-1.80529826091971,-3.01351200167332,-1.55246377614391,,2.653096725080781,,
,6694.0,733.0,6276.0,481.0,-118.0,2528.0,3028.0,,,,-1.80498730511125,-3.01351039164172,-1.55310144856141,,2.9417019728828464,,
2025-07-17 14:52:20,6684.0,733.0,6267.0,481.0,-119.0,2524.0,3030.0,,,2025/07/17 02:52:20 PM,-1.80454678057114,-3.01354160584395,-1.55211887412033,,3.181512975374477,,
,6672.0,727.0,6259.0,480.0,-113.0,2507.0,3007.0,,,,-1.80434097646633,-3.01358164515561,-1.55214292691202,,3.3643340165345115,,
,6664.0,728.0,6250.0,478.0,-119.0,2511.0,3019.0,,,,-1.80465302483435,-3.01356494478391,-1.55172368927265,,3.4835324599420296,,
