TimeLabel,MEAS1_PPG1,MEAS1_PPG2,MEAS1_PPG3,MEAS1_PPG4,ACCX,ACCY,ACCZ,HR_timestamp,HR_value,radar_timestamp,phase_rx0,phase_rx1,phase_rx2,timestep,n_process,original_rate,calculated_rate
2025-08-07 00:30:06,7950.0,1520.0,6776.0,1060.0,1286.0,1935.0,3164.0,2025-08-07 00:30:43,71.0,2025/08/07 12:30:06 AM,-0.232033030007278,-2.67752047290412,-0.376224934484046,2025/08/07 12:30:06 AM,-8.241457895619615,0.0,16.550470626419994
,7954.0,1522.0,6776.0,1060.0,1257.0,1934.0,3183.0,2025-08-07 00:30:44,71.0,,-0.231775220185944,-2.67769698099722,-0.376125058654971,2025/08/07 12:30:16 AM,-7.847082386401969,15.075377464294434,14.13363166172155
,7954.0,1521.0,6779.0,1061.0,1262.0,1926.0,3178.0,2025-08-07 00:30:45,72.0,,-0.231791073181608,-2.67761574631348,-0.374596155822076,2025/08/07 12:30:26 AM,-7.337394206279471,18.372703552246094,13.561438561438564
,7954.0,1522.0,6780.0,1062.0,1280.0,1921.0,3161.0,2025-08-07 00:30:46,72.0,,-0.231893174658096,-2.67774411350269,-0.375878144611526,2025/08/07 12:30:36 AM,-6.710981173366551,12.636899948120115,13.563218390804597
,7955.0,1520.0,6776.0,1061.0,1291.0,1931.0,3155.0,2025-08-07 00:30:46,73.0,,-0.231756992832875,-2.67739166975365,-0.375675342547625,2025/08/07 12:30:46 AM,-5.969832526752866,13.392856597900392,19.329140461215932
,7954.0,1522.0,6779.0,1060.0,1298.0,1926.0,3168.0,2025-08-07 00:30:48,72.0,,-0.231719739982102,-2.67800045174496,-0.376353232991996,2025/08/07 12:30:56 AM,-5.119457605548439,12.903225898742676,14.375896700143482
,7957.0,1524.0,6776.0,1062.0,1290.0,1928.0,3177.0,2025-08-07 00:30:49,72.0,,-0.231759967980197,-2.6776738507394,-0.375963361039483,2025/08/07 12:31:06 AM,-4.168734388623364,12.996389389038086,14.535972754363554
,7959.0,1524.0,6777.0,1061.0,1288.0,1938.0,3187.0,2025-08-07 00:30:50,72.0,,-0.23175806208672,-2.6773686770588,-0.375880211843009,2025/08/07 12:31:16 AM,-3.12952246530052,13.392856597900392,16.014047410008793
,7956.0,1520.0,6777.0,1063.0,1267.0,1936.0,3186.0,2025-08-07 00:30:51,72.0,,-0.231790182291085,-2.67768354531496,-0.376427220027415,2025/08/07 12:31:26 AM,-2.016102489927158,14.8619966506958,16.087109237794166
,7958.0,1524.0,6779.0,1062.0,1269.0,1938.0,3179.0,2025-08-07 00:30:52,71.0,,-0.232012072081201,-2.67793380045861,-0.375569702340759,2025/08/07 12:31:36 AM,-0.8445193197379561,15.509600639343262,15.73932274591303
,7958.0,1523.0,6778.0,1061.0,1278.0,1936.0,3176.0,2025-08-07 00:30:53,70.0,,-0.231941244642917,-2.6779851535019,-0.37619872332627,2025/08/07 12:31:46 AM,0.36809105402133807,15.909090995788574,15.650406504065039
,7956.0,1525.0,6781.0,1062.0,1306.0,1927.0,3189.0,2025-08-07 00:30:54,68.0,,-0.232010801047114,-2.67779068582154,-0.375869910364592,2025/08/07 12:31:56 AM,1.6041185615335498,15.825169563293455,14.750957854406122
,7957.0,1526.0,6779.0,1062.0,1299.0,1932.0,3186.0,2025-08-07 00:30:55,67.0,,-0.231898879486874,-2.67811881299515,-0.37662667780704,2025/08/07 12:32:06 AM,2.845984322097515,15.46391773223877,14.060606060606075
,7958.0,1524.0,6777.0,1063.0,1274.0,1932.0,3161.0,2025-08-07 00:30:56,65.0,,-0.231939177756465,-2.67801354458169,-0.376406817192207,2025/08/07 12:32:16 AM,4.0765001798538885,14.809590339660645,16.161941345039924
,7959.0,1525.0,6780.0,1062.0,1289.0,1933.0,3170.0,2025-08-07 00:30:57,64.0,,-0.232052954628771,-2.67800559324991,-0.376503909339386,2025/08/07 12:32:26 AM,5.279072226186083,14.423076629638672,15.621890547263696
,7963.0,1527.0,6780.0,1061.0,1279.0,1931.0,3193.0,2025-08-07 00:30:58,63.0,,-0.232180507209898,-2.67791125090954,-0.377291558979722,2025/08/07 12:32:36 AM,6.437760754878456,15.151515007019045,18.56365856365858
,7961.0,1522.0,6779.0,1060.0,1302.0,1925.0,3198.0,2025-08-07 00:30:59,63.0,,-0.232237204803798,-2.67771923751942,-0.37696418464945,2025/08/07 12:32:46 AM,7.537229527097457,16.68984603881836,16.25702890832071
,7962.0,1526.0,6777.0,1063.0,1314.0,1935.0,3184.0,2025-08-07 00:30:59,62.0,,-0.23217454683762,-2.67767771963293,-0.376584617998694,2025/08/07 12:32:56 AM,8.562634619919725,16.853933334350586,15.39135153027342
,7963.0,1527.0,6779.0,1065.0,1304.0,1935.0,3178.0,2025-08-07 00:31:01,61.0,,-0.232136270217889,-2.67810474828721,-0.37635261129168,,9.499515768164342,,
,7963.0,1525.0,6778.0,1063.0,1271.0,1933.0,3161.0,2025-08-07 00:31:02,60.0,,-0.23242708229221,-2.67790001741571,-0.377058711572659,,10.333757689508907,,
,7963.0,1525.0,6777.0,1065.0,1262.0,1935.0,3167.0,2025-08-07 00:31:02,60.0,,-0.232167533727585,-2.67797427358451,-0.377077468269997,,11.051682031571161,,
,7963.0,1526.0,6780.0,1062.0,1276.0,1929.0,3160.0,2025-08-07 00:31:04,59.0,,-0.232311848808954,-2.67849657535224,-0.376804130196161,,11.640311228678701,,
,7965.0,1528.0,6780.0,1064.0,1292.0,1931.0,3151.0,2025-08-07 00:31:05,59.0,,-0.232382982712316,-2.6783898092078,-0.377770566720142,,12.087816277733857,,
,7964.0,1528.0,6782.0,1064.0,1321.0,1927.0,3166.0,2025-08-07 00:31:05,60.0,,-0.232413110137224,-2.67831649276272,-0.377527074885867,,12.384126761874894,,
,7964.0,1526.0,6780.0,1062.0,1322.0,1933.0,3152.0,2025-08-07 00:31:07,60.0,,-0.232520534524435,-2.6783864062189,-0.377467971237059,,12.521649532205725,,
,7965.0,1527.0,6782.0,1065.0,1305.0,1937.0,3173.0,2025-08-07 00:31:08,61.0,,-0.232667608512231,-2.67834003978079,-0.377383383194298,,12.496016822305341,,
,7967.0,1527.0,6782.0,1064.0,1305.0,1935.0,3181.0,2025-08-07 00:31:09,62.0,,-0.232530558296218,-2.67835881686066,-0.377675815674603,,12.30676769002335,,
,7966.0,1528.0,6780.0,1066.0,1311.0,1938.0,3162.0,2025-08-07 00:31:10,62.0,,-0.232473301843233,-2.67878762491775,-0.377563693162272,,11.957860508864728,,
,7966.0,1526.0,6781.0,1062.0,1307.0,1939.0,3158.0,2025-08-07 00:31:11,63.0,,-0.232388916165246,-2.67841685332707,-0.377391329561209,,11.45792156833802,,
,7967.0,1528.0,6781.0,1068.0,1292.0,1935.0,3177.0,2025-08-07 00:31:11,62.0,,-0.232425706587406,-2.67871890076115,-0.377545120474946,,10.820158479978017,,
,7970.0,1529.0,6781.0,1064.0,1300.0,1935.0,3180.0,2025-08-07 00:31:13,62.0,,-0.23238594104939,-2.6790368237654,-0.376983635441919,,10.061906972703852,,
,7967.0,1529.0,6780.0,1066.0,1281.0,1934.0,3188.0,2025-08-07 00:31:14,62.0,,-0.232533141508591,-2.67902936049051,-0.37707700703142,,9.20383051407801,,
,7969.0,1527.0,6780.0,1067.0,1298.0,1932.0,3194.0,2025-08-07 00:31:14,61.0,,-0.232569631888383,-2.67864257168093,-0.377775942019835,,8.268843789585166,,
,7972.0,1530.0,6780.0,1066.0,1305.0,1927.0,3201.0,2025-08-07 00:31:16,61.0,,-0.232591127797268,-2.67872323356019,-0.377848161211188,,7.2808715487268225,,
,7971.0,1528.0,6781.0,1067.0,1297.0,1934.0,3175.0,2025-08-07 00:31:17,61.0,,-0.232427928192537,-2.67879553554187,-0.377932281978407,,6.263574749029039,,
,7970.0,1531.0,6781.0,1067.0,1310.0,1930.0,3184.0,2025-08-07 00:31:18,61.0,,-0.232753672898435,-2.67916295765583,-0.377457046327112,,5.239173337248063,,
,7972.0,1527.0,6779.0,1065.0,1321.0,1929.0,3204.0,2025-08-07 00:31:19,60.0,,-0.232750388639516,-2.67925435490785,-0.378670139545752,,4.227472367719171,,
,7974.0,1530.0,6779.0,1067.0,1339.0,1939.0,3196.0,2025-08-07 00:31:20,60.0,,-0.232853521039668,-2.67907119007366,-0.378625373651535,,3.2451621245311872,,
,7974.0,1531.0,6782.0,1068.0,1348.0,1937.0,3184.0,2025-08-07 00:31:20,59.0,,-0.233014195494151,-2.67948783915937,-0.378403292579485,,2.3054213360695712,,
,7977.0,1531.0,6780.0,1067.0,1339.0,1933.0,3187.0,2025-08-07 00:31:22,59.0,,-0.232972470590194,-2.67934117339738,-0.377437491165133,,1.4178127955533848,,
,7972.0,1532.0,6781.0,1064.0,1333.0,1938.0,3173.0,2025-08-07 00:31:23,59.0,,-0.232890626690925,-2.67947843226302,-0.379079939374349,,0.5884286303462962,,
,7976.0,1532.0,6779.0,1069.0,1313.0,1936.0,3171.0,2025-08-07 00:31:24,59.0,,-0.232972421534972,-2.67968238155687,-0.378623325057497,,-0.17977800827466123,,
,7975.0,1533.0,6780.0,1067.0,1283.0,1939.0,3160.0,2025-08-07 00:31:25,59.0,,-0.232880568525375,-2.67977298021051,-0.379496362982081,,-0.8865453390918266,,
,7977.0,1532.0,6781.0,1069.0,1285.0,1936.0,3162.0,2025-08-07 00:31:26,59.0,,-0.232927724721813,-2.67910312530352,-0.378669295699527,,-1.533804778850867,,
,7974.0,1532.0,6780.0,1065.0,1317.0,1939.0,3171.0,2025-08-07 00:31:27,59.0,,-0.233043701174785,-2.6794102719044,-0.378305503503939,,-2.1251830640347786,,
,7974.0,1533.0,6780.0,1066.0,1287.0,1936.0,3168.0,2025-08-07 00:31:28,59.0,,-0.23294834949743,-2.67943055340616,-0.378969714721435,,-2.6655367626163073,,
,7974.0,1535.0,6780.0,1066.0,1299.0,1933.0,3168.0,2025-08-07 00:31:29,59.0,,-0.232943813310209,-2.67930957326502,-0.378456188892476,,-3.1605338992892182,,
,7976.0,1532.0,6778.0,1065.0,1314.0,1931.0,3179.0,2025-08-07 00:31:29,59.0,,-0.232746204712359,-2.67944720317583,-0.37891761384266,,-3.6162855000743725,,
,7975.0,1532.0,6776.0,1065.0,1299.0,1932.0,3185.0,2025-08-07 00:31:31,59.0,,-0.233016482956027,-2.67929297270843,-0.37858727858012,,-4.039024391207592,,
,7974.0,1530.0,6778.0,1062.0,1296.0,1931.0,3183.0,2025-08-07 00:31:32,59.0,,-0.232982771994467,-2.67973765152366,-0.379251711118814,,-4.43482794653034,,
,7977.0,1530.0,6779.0,1063.0,1292.0,1935.0,3185.0,2025-08-07 00:31:32,60.0,,-0.232883744116272,-2.67943679368962,-0.378913806455889,,-4.809383156953902,,
,7974.0,1528.0,6779.0,1063.0,1296.0,1938.0,3178.0,2025-08-07 00:31:34,61.0,,-0.233153090030549,-2.67950970096922,-0.378415895465927,,-5.167794412636534,,
,7974.0,1526.0,6777.0,1060.0,1292.0,1932.0,3165.0,2025-08-07 00:31:35,62.0,,-0.23304144499554,-2.67963670261471,-0.378506200266761,,-5.514435758613629,,
,7974.0,1527.0,6777.0,1062.0,1325.0,1932.0,3179.0,2025-08-07 00:31:36,63.0,,-0.233271468319022,-2.67953909787996,-0.378981494187993,,-5.852849917783099,,
,7972.0,1525.0,6777.0,1060.0,1316.0,1930.0,3166.0,2025-08-07 00:31:37,63.0,,-0.233158715683649,-2.67987296800412,-0.379157926604972,,-6.185696235860047,,
,7971.0,1524.0,6776.0,1065.0,1305.0,1927.0,3178.0,2025-08-07 00:31:38,62.0,,-0.233212172156418,-2.67965855548125,-0.37867110980428,,-6.514749076953085,,
,7969.0,1522.0,6776.0,1060.0,1320.0,1938.0,3176.0,2025-08-07 00:31:38,62.0,,-0.233231332392705,-2.67962300536176,-0.378421389856821,,-6.8409471970157485,,
,7973.0,1523.0,6779.0,1062.0,1320.0,1940.0,3170.0,2025-08-07 00:31:40,61.0,,-0.233291831237725,-2.68026745564844,-0.379064578088911,,-7.164493231468563,,
,7970.0,1521.0,6777.0,1064.0,1299.0,1941.0,3162.0,2025-08-07 00:31:41,60.0,,-0.233598399856654,-2.68017648473892,-0.379331632829246,,-7.485000375801712,,
,7971.0,1523.0,6776.0,1059.0,1311.0,1945.0,3156.0,2025-08-07 00:31:41,59.0,,-0.233570940646579,-2.68020408576429,-0.379730760599385,,-7.801680071284588,,
,7970.0,1521.0,6774.0,1059.0,1296.0,1943.0,3148.0,2025-08-07 00:31:43,59.0,,-0.233588526708715,-2.68051573482981,-0.380760779294831,,-8.113559545295216,,
,7969.0,1523.0,6777.0,1060.0,1292.0,1938.0,3155.0,2025-08-07 00:31:44,59.0,,-0.233732095265846,-2.68039761062679,-0.379929574844518,,-8.419711396459366,,
,7971.0,1521.0,6775.0,1063.0,1316.0,1936.0,3151.0,2025-08-07 00:31:45,59.0,,-0.233875442727073,-2.68060494399845,-0.380271859204438,,-8.719469772088468,,
,7970.0,1521.0,6776.0,1062.0,1320.0,1939.0,3154.0,2025-08-07 00:31:46,59.0,,-0.233641626104063,-2.68098203856912,-0.381727933151965,,-9.01260056592263,,
,7966.0,1520.0,6772.0,1057.0,1321.0,1937.0,3135.0,2025-08-07 00:31:47,59.0,,-0.233927306629541,-2.68090907224472,-0.380762248043765,,-9.29938883694608,,
,7969.0,1521.0,6777.0,1059.0,1317.0,1937.0,3155.0,2025-08-07 00:31:47,60.0,,-0.234170381279648,-2.68085206886429,-0.382302692785718,,-9.580608195386569,,
,7968.0,1521.0,6774.0,1060.0,1315.0,1935.0,3178.0,2025-08-07 00:31:49,60.0,,-0.234308760441575,-2.68108663107576,-0.382293719711078,,-9.85734632906011,,
,7970.0,1521.0,6773.0,1061.0,1298.0,1931.0,3168.0,2025-08-07 00:31:50,62.0,,-0.234359512597474,-2.68130675076319,-0.38302352793907,,-10.130677935641232,,
,7967.0,1521.0,6773.0,1058.0,1311.0,1936.0,3164.0,2025-08-07 00:31:51,63.0,,-0.234428303619783,-2.68114388998133,-0.382648336489081,,-10.401198228402082,,
,7969.0,1519.0,6775.0,1059.0,1323.0,1938.0,3141.0,2025-08-07 00:31:52,64.0,,-0.2345773351969,-2.6812379664409,-0.38264777175753,,-10.668452740043087,,
,7967.0,1519.0,6774.0,1058.0,1321.0,1944.0,3147.0,2025-08-07 00:31:53,66.0,,-0.234589296161584,-2.68134290826635,-0.382821426737586,,-10.930318675710337,,
,7968.0,1521.0,6774.0,1059.0,1313.0,1945.0,3152.0,2025-08-07 00:31:53,66.0,,-0.23473624767434,-2.68120695052649,-0.384056278491174,,-11.182407211211604,,
,7966.0,1520.0,6772.0,1059.0,1311.0,1940.0,3148.0,2025-08-07 00:31:55,67.0,,-0.234909845694252,-2.6813554954659,-0.383279004977066,,-11.417563625073093,,
,7967.0,1519.0,6775.0,1059.0,1306.0,1939.0,3150.0,2025-08-07 00:31:56,65.0,,-0.23455940932155,-2.68179662566245,-0.384187912244093,,-11.625542085035228,,
,7968.0,1519.0,6775.0,1057.0,1310.0,1938.0,3149.0,2025-08-07 00:31:56,64.0,,-0.234703174566042,-2.68128935026539,-0.383578733410158,,-11.792923384757678,,
,7968.0,1522.0,6775.0,1059.0,1305.0,1938.0,3151.0,2025-08-07 00:31:58,63.0,,-0.234840303143915,-2.6817791045434,-0.383733022686138,,-11.903326479045809,,
,7966.0,1520.0,6770.0,1059.0,1302.0,1942.0,3172.0,2025-08-07 00:31:59,62.0,,-0.234894747591209,-2.68183236140683,-0.383751933455059,,-11.93793901476415,,
,7968.0,1521.0,6775.0,1060.0,1310.0,1940.0,3180.0,2025-08-07 00:32:00,61.0,,-0.235119818880159,-2.68186566525313,-0.384673371683142,,-11.876360382967379,,
,7967.0,1522.0,6774.0,1058.0,1304.0,1942.0,3198.0,2025-08-07 00:32:01,60.0,,-0.235083750511424,-2.68202743619144,-0.384333221403877,,-11.697716427034518,,
,7968.0,1520.0,6773.0,1060.0,1302.0,1943.0,3198.0,2025-08-07 00:32:02,60.0,,-0.235229919767959,-2.68200677345025,-0.385187616757589,,-11.381971837807045,,
,7965.0,1520.0,6770.0,1057.0,1283.0,1940.0,3184.0,2025-08-07 00:32:02,60.0,,-0.23505400576961,-2.68253946503287,-0.384821825142199,,-10.911338951916523,,
,7964.0,1521.0,6776.0,1059.0,1292.0,1935.0,3168.0,2025-08-07 00:32:04,60.0,,-0.235257871047743,-2.68216484988357,-0.385353206137985,,-10.27166478610289,,
,7970.0,1521.0,6772.0,1060.0,1302.0,1929.0,3182.0,2025-08-07 00:32:05,60.0,,-0.235331973624122,-2.68241566446252,-0.385263544764561,,-9.453675566718742,,
,7966.0,1520.0,6773.0,1060.0,1295.0,1932.0,3176.0,2025-08-07 00:32:06,59.0,,-0.235446497676316,-2.6823825527998,-0.38437089303402,,-8.453971367918655,,
,7970.0,1520.0,6769.0,1057.0,1289.0,1935.0,3152.0,2025-08-07 00:32:07,59.0,,-0.235205905144604,-2.68214744117952,-0.384103090697981,,-7.275690698989779,,
,7965.0,1522.0,6771.0,1057.0,1291.0,1938.0,3154.0,2025-08-07 00:32:08,58.0,,-0.23502230931877,-2.68239892593267,-0.384258829623264,,-5.92880038911669,,
,7970.0,1522.0,6773.0,1057.0,1273.0,1937.0,3172.0,2025-08-07 00:32:08,58.0,,-0.235245080721377,-2.68239479933031,-0.384692904469588,,-4.430002984048571,,
,7967.0,1523.0,6772.0,1058.0,1273.0,1936.0,3181.0,2025-08-07 00:32:10,58.0,,-0.235374358685744,-2.68264186433634,-0.383845317854948,,-2.802286156815792,,
,7966.0,1519.0,6771.0,1056.0,1305.0,1936.0,3178.0,2025-08-07 00:32:10,58.0,,-0.235177512769254,-2.68226457274237,-0.384378128063804,,-1.0741619539502054,,
,7969.0,1520.0,6772.0,1057.0,1294.0,1933.0,3164.0,2025-08-07 00:32:11,58.0,,-0.235198059925794,-2.68236979105595,-0.384403281312707,,0.7213447020763978,,
,7968.0,1522.0,6774.0,1061.0,1284.0,1935.0,3157.0,2025-08-07 00:32:13,58.0,,-0.235129962160885,-2.68248341953002,-0.385179281736966,,2.547898549449514,,
,7968.0,1522.0,6771.0,1058.0,1285.0,1933.0,3174.0,2025-08-07 00:32:14,57.0,,-0.235238328766562,-2.682041644108,-0.384647661371327,,4.367193802366757,,
,7968.0,1518.0,6772.0,1056.0,1301.0,1937.0,3193.0,2025-08-07 00:32:14,57.0,,-0.234944578361626,-2.68214800457004,-0.383934731414538,,6.1403813669687,,
,7968.0,1521.0,6771.0,1058.0,1311.0,1941.0,3181.0,2025-08-07 00:32:16,57.0,,-0.235022283881681,-2.68213962016017,-0.383571326026089,,7.829528872404368,,
,7969.0,1522.0,6773.0,1059.0,1298.0,1935.0,3155.0,2025-08-07 00:32:16,56.0,,-0.234991007632763,-2.68261583199716,-0.384704555217073,,9.39904628965357,,
,7967.0,1521.0,6772.0,1059.0,1309.0,1937.0,3158.0,2025-08-07 00:32:17,56.0,,-0.235072764481608,-2.68196519209009,-0.383495697359739,,10.816998196957277,,
,7967.0,1520.0,6770.0,1058.0,1329.0,1928.0,3166.0,2025-08-07 00:32:19,57.0,,-0.234917623874178,-2.68181196962164,-0.384306880198474,,12.056224288891407,,
,7966.0,1522.0,6771.0,1058.0,1309.0,1932.0,3150.0,2025-08-07 00:32:20,56.0,,-0.234993688490388,-2.6818497210498,-0.383844823318115,,13.095207766747105,,
,7968.0,1520.0,6772.0,1058.0,1309.0,1940.0,3149.0,2025-08-07 00:32:21,56.0,,-0.235206518907735,-2.68217524580219,-0.384061014170498,,13.91866186485456,,
,7970.0,1524.0,6774.0,1058.0,1302.0,1940.0,3158.0,2025-08-07 00:32:22,56.0,,-0.234867336428163,-2.68184853345848,-0.38368928129513,,14.517836244601723,,
,7966.0,1521.0,6773.0,1056.0,1318.0,1936.0,3162.0,2025-08-07 00:32:23,56.0,,-0.234745241131253,-2.68156933216474,-0.383194329531926,,14.890566297383227,,
,7970.0,1522.0,6774.0,1057.0,1323.0,1934.0,3164.0,2025-08-07 00:32:24,56.0,,-0.234922950709203,-2.68189719914787,-0.383970235450765,,15.041095010078337,,
,7969.0,1523.0,6775.0,1059.0,1317.0,1933.0,3167.0,2025-08-07 00:32:25,56.0,,-0.235123596330149,-2.68159921776986,-0.383999093134411,,14.979691933902782,,
,7968.0,1524.0,6773.0,1059.0,1326.0,1931.0,3168.0,2025-08-07 00:32:26,56.0,,-0.234933930663919,-2.68182331119211,-0.38419527108119,,14.722084388564834,,
,7966.0,1521.0,6772.0,1056.0,1298.0,1930.0,3166.0,2025-08-07 00:32:27,56.0,,-0.234969464334302,-2.68184146948056,-0.383755399939809,,14.288709760973918,,
,7967.0,1522.0,6774.0,1058.0,1312.0,1931.0,3156.0,2025-08-07 00:32:28,56.0,,-0.235088019502379,-2.68209877042234,-0.38404783683685,,13.703798851079261,,
,7968.0,1524.0,6774.0,1057.0,1325.0,1928.0,3161.0,2025-08-07 00:32:29,56.0,,-0.235483397041271,-2.68238998154195,-0.384974426382427,,12.994309189901212,,
,7967.0,1524.0,6771.0,1056.0,1321.0,1930.0,3159.0,2025-08-07 00:32:30,56.0,,-0.235399751691785,-2.6821397008701,-0.385221257508593,,12.188742263473273,,
,7970.0,1524.0,6772.0,1060.0,1349.0,1927.0,3146.0,2025-08-07 00:32:31,56.0,,-0.235376363777473,-2.68217090142427,-0.385576003543566,,11.315896492729154,,
,7969.0,1523.0,6776.0,1057.0,1342.0,1932.0,3144.0,2025-08-07 00:32:31,57.0,,-0.235461209824018,-2.68244872664355,-0.385652153143088,,10.403624204160288,,
,7969.0,1525.0,6776.0,1059.0,1334.0,1936.0,3144.0,2025-08-07 00:32:32,57.0,,-0.235754948032375,-2.68226677389193,-0.386532503643868,,9.477670353256448,,
,7969.0,1524.0,6773.0,1058.0,1337.0,1936.0,3153.0,2025-08-07 00:32:34,58.0,,-0.236118046110886,-2.68276582115902,-0.385787816472352,,8.560669478697747,,
,7969.0,1523.0,6772.0,1057.0,1336.0,1929.0,3162.0,2025-08-07 00:32:35,59.0,,-0.236163920205341,-2.68269500544932,-0.386459802435803,,7.671365291290205,,
,7969.0,1523.0,6774.0,1060.0,1337.0,1933.0,3157.0,2025-08-07 00:32:35,59.0,,-0.236242167908023,-2.68275720626723,-0.385411523051765,,6.824098388945923,,
,7972.0,1524.0,6777.0,1058.0,1351.0,1937.0,3158.0,2025-08-07 00:32:37,59.0,,-0.236173455445762,-2.68300125121493,-0.385146245554103,,6.028586652604643,,
,7972.0,1524.0,6775.0,1059.0,1355.0,1939.0,3154.0,2025-08-07 00:32:38,59.0,,-0.2362506361997,-2.68281287451903,-0.387213545712194,,5.290002592825507,,
,7970.0,1523.0,6772.0,1058.0,1332.0,1945.0,3136.0,2025-08-07 00:32:38,58.0,,-0.236170661657201,-2.68312825052803,-0.386049184370714,,4.609332502791549,,
,7972.0,1522.0,6772.0,1059.0,1310.0,1942.0,3129.0,2025-08-07 00:32:40,58.0,,-0.236393486304225,-2.68275709717706,-0.386861957782467,,3.983983218994352,,
,7972.0,1527.0,6772.0,1061.0,1326.0,1937.0,3143.0,2025-08-07 00:32:41,58.0,,-0.236325965010929,-2.68278445228684,-0.386760824402956,,3.4085839038410333,,
,7972.0,1524.0,6774.0,1061.0,1312.0,1945.0,3141.0,2025-08-07 00:32:41,59.0,,-0.236316998969433,-2.68260944766431,-0.386611579861529,,2.875913973748431,,
,7970.0,1524.0,6773.0,1058.0,1320.0,1943.0,3150.0,2025-08-07 00:32:43,59.0,,-0.236235681464109,-2.68283272689403,-0.386295251233114,,2.377876172541305,,
,7973.0,1527.0,6773.0,1058.0,1329.0,1944.0,3164.0,2025-08-07 00:32:44,59.0,,-0.236319232704302,-2.68337516227371,-0.385991647363248,,1.9064280993427125,,
,7975.0,1526.0,6776.0,1061.0,1326.0,1941.0,3159.0,2025-08-07 00:32:44,59.0,,-0.23638679733887,-2.6827345550262,-0.385390137895086,,1.454388421833075,,
,7972.0,1526.0,6774.0,1059.0,1337.0,1942.0,3168.0,2025-08-07 00:32:46,58.0,,-0.236173368374386,-2.68317660024812,-0.386029099608908,,1.0160471165324876,,
,7974.0,1524.0,6772.0,1058.0,1333.0,1938.0,3159.0,2025-08-07 00:32:47,58.0,,-0.236094188322437,-2.68314455880419,-0.386056044139262,,0.5875324225843122,,
,7975.0,1527.0,6776.0,1061.0,1337.0,1933.0,3146.0,2025-08-07 00:32:48,57.0,,-0.236032720173816,-2.6830210142037,-0.386520860344782,,0.16691825641984218,,
,7975.0,1528.0,6777.0,1063.0,1317.0,1941.0,3152.0,2025-08-07 00:32:49,57.0,,-0.235827364600754,-2.68336621608867,-0.385665879046579,,-0.2459107664507588,,
,7973.0,1528.0,6775.0,1059.0,1308.0,1943.0,3153.0,2025-08-07 00:32:49,57.0,,-0.235945651050359,-2.68313824188879,-0.386281128326063,,-0.6495906126295803,,
2025-08-07 00:30:07,7972.0,1527.0,6773.0,1060.0,1320.0,1940.0,3146.0,2025-08-07 00:32:50,57.0,2025/08/07 12:30:07 AM,-0.236019264241587,-2.68344960303127,-0.385810352535213,,-1.0417401687140586,,
,7975.0,1528.0,6774.0,1060.0,1345.0,1942.0,3141.0,2025-08-07 00:32:52,57.0,,-0.236189976848998,-2.68331412027736,-0.385972440948988,,-1.4194818257183333,,
,7975.0,1528.0,6774.0,1061.0,1310.0,1945.0,3156.0,2025-08-07 00:32:53,58.0,,-0.235915356010402,-2.68340963142889,-0.386256143935872,,-1.7799502130708986,,
,7979.0,1530.0,6772.0,1060.0,1311.0,1943.0,3162.0,2025-08-07 00:32:54,58.0,,-0.235926623278541,-2.6835232014587,-0.385996688278774,,-2.120729354824431,,
,7977.0,1528.0,6773.0,1060.0,1323.0,1937.0,3150.0,2025-08-07 00:32:55,59.0,,-0.235799422563515,-2.68357783305991,-0.385559028325049,,-2.440173903741923,,
,7978.0,1530.0,6773.0,1061.0,1305.0,1944.0,3174.0,2025-08-07 00:32:56,59.0,,-0.236075422327653,-2.68363030138514,-0.385937018822145,,-2.737588185242988,,
,7976.0,1528.0,6777.0,1060.0,1313.0,1938.0,3178.0,2025-08-07 00:32:57,59.0,,-0.236001469578334,-2.68360168506678,-0.385549498520188,,-3.0132555552552973,,
,7977.0,1529.0,6773.0,1061.0,1304.0,1939.0,3159.0,2025-08-07 00:32:58,60.0,,-0.236111737938684,-2.68366185550448,-0.386465505472886,,-3.268328311687399,,
,7978.0,1527.0,6775.0,1059.0,1307.0,1934.0,3168.0,2025-08-07 00:32:59,60.0,,-0.23592931216005,-2.68364075481761,-0.386189060618072,,-3.504603582720253,,
,7979.0,1529.0,6773.0,1062.0,1307.0,1938.0,3167.0,2025-08-07 00:33:00,61.0,,-0.236175215613537,-2.6836268734634,-0.386265416109715,,-3.7242220231048235,,
,7979.0,1529.0,6774.0,1062.0,1312.0,1942.0,3165.0,2025-08-07 00:33:01,62.0,,-0.236215914123195,-2.68368435533888,-0.386420400075403,,-3.9293329774769865,,
,7979.0,1532.0,6774.0,1062.0,1313.0,1943.0,3158.0,2025-08-07 00:33:02,64.0,,-0.236189418961067,-2.68368876788047,-0.386361585626213,,-4.121771622164029,,
,7979.0,1530.0,6771.0,1060.0,1332.0,1944.0,3168.0,2025-08-07 00:33:02,65.0,,-0.236351470841381,-2.68394311593411,-0.386173466240644,,-4.302790431601609,,
,7979.0,1531.0,6775.0,1062.0,1329.0,1933.0,3162.0,2025-08-07 00:33:04,64.0,,-0.236389358107856,-2.68397473880317,-0.386906083808448,,-4.472879532783655,,
,7979.0,1529.0,6774.0,1061.0,1320.0,1932.0,3155.0,2025-08-07 00:33:05,63.0,,-0.236670316484741,-2.68415769082922,-0.386467073469055,,-4.631699047454045,,
,7983.0,1530.0,6776.0,1065.0,1336.0,1932.0,3154.0,2025-08-07 00:33:05,62.0,,-0.23667653484922,-2.68449782601519,-0.387048337564812,,-4.778132670748518,,
,7979.0,1530.0,6774.0,1060.0,1313.0,1933.0,3154.0,2025-08-07 00:33:07,61.0,,-0.236774824248048,-2.68449952402315,-0.387932689916498,,-4.910456799600192,,
,7984.0,1533.0,6776.0,1061.0,1302.0,1934.0,3151.0,2025-08-07 00:33:07,60.0,,-0.236720698023161,-2.68450808525594,-0.387076044646454,,-5.026604630672593,,
,7982.0,1532.0,6777.0,1064.0,1303.0,1935.0,3144.0,2025-08-07 00:33:08,59.0,,-0.236731863875555,-2.68446113902785,-0.388202488144902,,-5.124490909475728,,
,7983.0,1532.0,6776.0,1063.0,1309.0,1933.0,3150.0,2025-08-07 00:33:10,59.0,,-0.236793834925584,-2.68464206082549,-0.388816472312077,,-5.202352051975575,,
,7983.0,1530.0,6775.0,1060.0,1336.0,1935.0,3157.0,2025-08-07 00:33:11,59.0,,-0.237062460582206,-2.68464612801998,-0.388421843976581,,-5.25905070559135,,
,7986.0,1534.0,6776.0,1064.0,1336.0,1934.0,3161.0,2025-08-07 00:33:11,59.0,,-0.237125420260915,-2.6846761642392,-0.388384249943242,,-5.294296148119339,,
,7984.0,1533.0,6775.0,1063.0,1326.0,1932.0,3158.0,2025-08-07 00:33:13,59.0,,-0.237017854063758,-2.68458970378627,-0.388074057236362,,-5.308743136326335,,
,7985.0,1532.0,6779.0,1062.0,1331.0,1934.0,3158.0,2025-08-07 00:33:14,58.0,,-0.236953432982331,-2.68468262288875,-0.38883041909369,,-5.303949807530318,,
,7987.0,1530.0,6773.0,1064.0,1324.0,1939.0,3159.0,2025-08-07 00:33:14,58.0,,-0.2369292991162,-2.68505987333582,-0.387907740880846,,-5.2821959053211955,,
,7985.0,1534.0,6777.0,1063.0,1333.0,1939.0,3158.0,2025-08-07 00:33:16,58.0,,-0.236978520710749,-2.68512011457509,-0.388209337692392,,-5.246181933859334,,
,7986.0,1534.0,6778.0,1063.0,1314.0,1940.0,3156.0,2025-08-07 00:33:16,57.0,,-0.236867450989358,-2.68478994724622,-0.388308915445216,,-5.198645125336643,,
,7985.0,1535.0,6777.0,1064.0,1310.0,1937.0,3159.0,2025-08-07 00:33:17,57.0,,-0.237108659064395,-2.68466579103177,-0.388214350429296,,-5.141937860380662,,
,7987.0,1534.0,6775.0,1062.0,1344.0,1945.0,3153.0,2025-08-07 00:33:19,58.0,,-0.236958075241182,-2.68470824309855,-0.389258886274125,,-5.077617771369002,,
,7989.0,1534.0,6779.0,1064.0,1373.0,1948.0,3160.0,2025-08-07 00:33:20,58.0,,-0.237198508331857,-2.68467530971043,-0.388080389919144,,-5.006096248831537,,
,7990.0,1535.0,6776.0,1068.0,1372.0,1947.0,3156.0,2025-08-07 00:33:20,58.0,,-0.237285203874515,-2.68459581145392,-0.38797492744986,,-4.926384402965771,,
,7988.0,1535.0,6775.0,1064.0,1354.0,1932.0,3159.0,2025-08-07 00:33:22,59.0,,-0.237176984368839,-2.68471452994606,-0.388407561003556,,-4.835964554054353,,
,7988.0,1534.0,6776.0,1063.0,1353.0,1936.0,3154.0,2025-08-07 00:33:22,59.0,,-0.237374654355563,-2.68488906052427,-0.389752999309101,,-4.730803254955497,,
,7990.0,1537.0,6776.0,1064.0,1353.0,1941.0,3156.0,2025-08-07 00:33:24,59.0,,-0.23726254330045,-2.68507505151523,-0.38795983195493,,-4.60551032885629,,
,7990.0,1536.0,6779.0,1062.0,1348.0,1940.0,3155.0,2025-08-07 00:33:25,58.0,,-0.237214524688895,-2.68484843740657,-0.388389636322705,,-4.45363786039431,,
,7989.0,1535.0,6774.0,1064.0,1335.0,1938.0,3138.0,2025-08-07 00:33:26,58.0,,-0.237267290522985,-2.6848365024397,-0.387854510520991,,-4.268102888349568,,
,7991.0,1535.0,6775.0,1063.0,1320.0,1938.0,3140.0,2025-08-07 00:33:27,58.0,,-0.237169571520469,-2.68478076283933,-0.388183148244202,,-4.041706872712221,,
,7992.0,1535.0,6779.0,1066.0,1317.0,1936.0,3145.0,2025-08-07 00:33:28,59.0,,-0.237069181061306,-2.68452796901555,-0.387354527095584,,-3.767713666081732,,
,7992.0,1538.0,6775.0,1065.0,1315.0,1932.0,3157.0,2025-08-07 00:33:29,60.0,,-0.237190643515883,-2.68488279210254,-0.387871003511714,,-3.4404366417548355,,
,7992.0,1537.0,6776.0,1064.0,1324.0,1934.0,3149.0,2025-08-07 00:33:30,61.0,,-0.237017151828645,-2.68468686581803,-0.387570871551439,,-3.0557768124688067,,
,7989.0,1536.0,6773.0,1064.0,1345.0,1941.0,3145.0,2025-08-07 00:33:31,62.0,,-0.23709522942612,-2.68471529075338,-0.388204182956421,,-2.6116500126530515,,
,7992.0,1538.0,6775.0,1064.0,1346.0,1939.0,3155.0,2025-08-07 00:33:32,63.0,,-0.237112736276104,-2.68474127552601,-0.388235614716645,,-2.108245793065727,,
,7993.0,1537.0,6775.0,1064.0,1337.0,1937.0,3148.0,2025-08-07 00:33:33,64.0,,-0.237208092706472,-2.68470085081364,-0.388147416060375,,-1.548076346592772,,
,7991.0,1537.0,6773.0,1063.0,1336.0,1939.0,3162.0,2025-08-07 00:33:34,65.0,,-0.23733968619397,-2.68496917619759,-0.388512129023519,,-0.9358007176951356,,
,7990.0,1535.0,6772.0,1062.0,1332.0,1936.0,3182.0,2025-08-07 00:33:35,66.0,,-0.237437578111368,-2.68491133711297,-0.388189803069008,,-0.27784366526050447,,
,7993.0,1537.0,6771.0,1062.0,1341.0,1941.0,3171.0,2025-08-07 00:33:36,65.0,,-0.237501285527401,-2.685010713534,-0.387967777843206,,0.4181376148779086,,
,7990.0,1538.0,6772.0,1064.0,1344.0,1944.0,3165.0,2025-08-07 00:33:37,65.0,,-0.237019151120981,-2.68496381687521,-0.387678128699698,,1.1438598486847804,,
,7991.0,1535.0,6773.0,1061.0,1334.0,1944.0,3164.0,2025-08-07 00:33:38,63.0,,-0.237198811373517,-2.68542644286738,-0.387837068475156,,1.8910014024167783,,
,7989.0,1531.0,6772.0,1063.0,1332.0,1948.0,3153.0,2025-08-07 00:33:38,62.0,,-0.237201477500621,-2.68511925541539,-0.387061949736027,,2.651682290534855,,
,7989.0,1533.0,6774.0,1060.0,1315.0,1946.0,3151.0,2025-08-07 00:33:40,61.0,,-0.237125469125424,-2.68505958413304,-0.386862523999736,,3.418764971073224,,
,7990.0,1532.0,6775.0,1060.0,1320.0,1947.0,3148.0,2025-08-07 00:33:41,61.0,,-0.23703606203082,-2.68474442694357,-0.387704873392946,,4.185934144973192,,
,7989.0,1529.0,6773.0,1062.0,1338.0,1947.0,3140.0,2025-08-07 00:33:41,60.0,,-0.236812233140602,-2.68458093735254,-0.386898333276174,,4.94755043684562,,
,7990.0,1528.0,6775.0,1060.0,1341.0,1943.0,3151.0,,,,-0.237019464528087,-2.6847039627936,-0.386971325480249,,5.698309651972243,,
,7991.0,1527.0,6777.0,1058.0,1333.0,1941.0,3142.0,,,,-0.236775354362515,-2.68479052087963,-0.386838151675117,,6.4327698067260775,,
,7990.0,1529.0,6774.0,1059.0,1345.0,1940.0,3140.0,,,,-0.236822470647041,-2.68468706188401,-0.386355993731257,,7.144827930961906,,
,7988.0,1528.0,6775.0,1059.0,1331.0,1937.0,3141.0,,,,-0.236939334242689,-2.68449606935116,-0.386475296783406,,7.827236042019294,,
,7986.0,1527.0,6775.0,1058.0,1352.0,1942.0,3153.0,,,,-0.236974480909463,-2.6846160616303,-0.386105723601527,,8.471241135851953,,
,7987.0,1527.0,6774.0,1063.0,1336.0,1940.0,3160.0,,,,-0.236807805925541,-2.68455212994319,-0.3862445490923,,9.066419249676,,
,7988.0,1529.0,6774.0,1060.0,1336.0,1943.0,3160.0,,,,-0.236617207800537,-2.68451762588804,-0.386192928265724,,9.600751103036377,,
,7988.0,1526.0,6774.0,1059.0,1357.0,1945.0,3157.0,,,,-0.236184934261176,-2.68407212129539,-0.385999748630304,,10.060959596305075,,
,7986.0,1526.0,6773.0,1059.0,1344.0,1936.0,3149.0,,,,-0.236607186627145,-2.68409134700334,-0.386237643643904,,10.43310085063194,,
,7989.0,1526.0,6774.0,1060.0,1339.0,1941.0,3149.0,,,,-0.236444039509057,-2.68403323032925,-0.385306787105412,,10.70337323740995,,
,7987.0,1527.0,6774.0,1056.0,1351.0,1939.0,3148.0,,,,-0.236202780543653,-2.68421405109295,-0.385182218463695,,10.859084454137957,,
,7986.0,1526.0,6773.0,1059.0,1372.0,1932.0,3149.0,,,,-0.236468744911673,-2.68420325998571,-0.385393083262128,,10.889695809388535,,
,7987.0,1524.0,6774.0,1058.0,1342.0,1938.0,3161.0,,,,-0.236311910083375,-2.68422467420865,-0.384413326085347,,10.787846441548718,,
,7987.0,1528.0,6773.0,1059.0,1345.0,1941.0,3147.0,,,,-0.236378895089515,-2.68423473084046,-0.385945213362151,,10.550250183259813,,
,7988.0,1528.0,6774.0,1059.0,1350.0,1945.0,3145.0,,,,-0.236461990526924,-2.68467059191129,-0.386072749440416,,10.178357213385612,,
,7986.0,1526.0,6772.0,1060.0,1362.0,1945.0,3153.0,,,,-0.236665906482739,-2.68421983206657,-0.386553891181913,,9.678685310485498,,
,7987.0,1524.0,6773.0,1058.0,1361.0,1942.0,3142.0,,,,-0.236788738925829,-2.6843076584945,-0.386345725413176,,9.062754725454978,,
,7988.0,1527.0,6774.0,1059.0,1349.0,1950.0,3153.0,,,,-0.236795471702698,-2.68463854038072,-0.387850035539666,,8.346606231134654,,
,7987.0,1526.0,6773.0,1061.0,1347.0,1948.0,3155.0,,,,-0.237072942088582,-2.68450925953244,-0.386711594012418,,7.549937323776899,,
,7989.0,1527.0,6772.0,1059.0,1363.0,1943.0,3152.0,,,,-0.236987586084473,-2.68483098057652,-0.388064008244183,,6.69494470869901,,
,7987.0,1526.0,6771.0,1058.0,1337.0,1942.0,3160.0,,,,-0.236947324956968,-2.68474659488702,-0.387976386825133,,5.804998978872635,,
,7987.0,1528.0,6771.0,1060.0,1337.0,1942.0,3151.0,,,,-0.237063990760613,-2.68476573156879,-0.38766087269831,,4.903291575159903,,
,7988.0,1526.0,6773.0,1058.0,1311.0,1940.0,3141.0,,,,-0.237213833068222,-2.68510386126358,-0.38952132400406,,4.011584369552926,,
,7986.0,1528.0,6774.0,1061.0,1314.0,1934.0,3172.0,,,,-0.237224340128043,-2.6847611430992,-0.389111216129575,,3.149164550905157,,
,7988.0,1527.0,6772.0,1058.0,1332.0,1937.0,3157.0,,,,-0.237436077900099,-2.68517404699961,-0.388612727992973,,2.332070374393888,,
,7988.0,1527.0,6772.0,1058.0,1315.0,1931.0,3160.0,,,,-0.237481660453838,-2.6851468151474,-0.389689805782673,,1.5726145912765388,,
,7990.0,1529.0,6772.0,1060.0,1320.0,1934.0,3161.0,,,,-0.237604428044121,-2.68515453565802,-0.389427550097671,,0.879198085506596,,
,7988.0,1527.0,6770.0,1061.0,1335.0,1925.0,3160.0,,,,-0.237888855216491,-2.6855098910578,-0.390164028943173,,0.25638062715627763,,
,7988.0,1526.0,6772.0,1059.0,1326.0,1930.0,3161.0,,,,-0.237769315103828,-2.68565168038145,-0.390728155357261,,-0.2948392785884594,,
,7989.0,1528.0,6772.0,1061.0,1316.0,1933.0,3156.0,,,,-0.238118958400144,-2.68582750266264,-0.391071531209642,,-0.776588528944214,,
,7988.0,1528.0,6773.0,1060.0,1316.0,1941.0,3166.0,,,,-0.238162117624736,-2.68575658303389,-0.391553140998185,,-1.1935791253700219,,
,7986.0,1526.0,6772.0,1058.0,1322.0,1935.0,3166.0,,,,-0.238244725635582,-2.68592927016497,-0.392238168414905,,-1.5525107489710233,,
,7989.0,1528.0,6770.0,1059.0,1340.0,1934.0,3165.0,,,,-0.238194556294078,-2.68633373318884,-0.392012576800116,,-1.861458544893069,,
,7991.0,1527.0,6772.0,1059.0,1334.0,1934.0,3165.0,,,,-0.238265281458365,-2.68640279913209,-0.392041447363079,,-2.1292826377424965,,
,7988.0,1526.0,6770.0,1060.0,1340.0,1935.0,3177.0,,,,-0.238300223155242,-2.68623711007955,-0.392171167588339,,-2.3650883079168117,,
,7990.0,1527.0,6772.0,1060.0,1303.0,1936.0,3166.0,,,,-0.238523513636158,-2.68643469465208,-0.391998229171655,,-2.5777562113317103,,
,7989.0,1524.0,6770.0,1061.0,1323.0,1945.0,3158.0,,,,-0.238694461312866,-2.68648703066636,-0.391999576579694,,-2.775551640244283,,
,7990.0,1528.0,6773.0,1059.0,1300.0,1942.0,3159.0,,,,-0.238472126490552,-2.68618439632852,-0.393365256643192,,-2.965812547708036,,
,7989.0,1527.0,6773.0,1059.0,1292.0,1941.0,3165.0,,,,-0.238505696594974,-2.68624780951102,-0.392252317887976,,-3.1547097776918416,,
,7987.0,1527.0,6770.0,1061.0,1310.0,1938.0,3157.0,,,,-0.238631253589382,-2.68631833032721,-0.393114348271718,,-3.3470706706984634,,
,7989.0,1526.0,6770.0,1058.0,1321.0,1940.0,3142.0,,,,-0.238547680569904,-2.68635865905442,-0.392728296682749,,-3.546258728475411,,
,7990.0,1529.0,6772.0,1062.0,1317.0,1942.0,3148.0,,,,-0.238579432089066,-2.68616118212295,-0.392557893188994,,-3.7541060635006867,,
,7992.0,1526.0,6772.0,1060.0,1316.0,1942.0,3150.0,,,,-0.238800176734094,-2.68642931346038,-0.392672089791538,,-3.970900201066143,,
,7989.0,1526.0,6770.0,1058.0,1348.0,1943.0,3178.0,,,,-0.238871636868118,-2.68628311548928,-0.392031774581878,,-4.195430813133299,,
,7990.0,1526.0,6769.0,1062.0,1351.0,1938.0,3155.0,,,,-0.238984588473085,-2.68639310236361,-0.393244742656873,,-4.425103911666607,,
,7991.0,1530.0,6771.0,1060.0,1331.0,1938.0,3156.0,,,,-0.238804840623946,-2.68616582538772,-0.393647054840404,,-4.656130112978277,,
,7989.0,1528.0,6769.0,1059.0,1332.0,1938.0,3154.0,,,,-0.238775568933159,-2.6859788536506,-0.392914219308894,,-4.8837893962464305,,
,7989.0,1528.0,6770.0,1059.0,1309.0,1936.0,3169.0,,,,-0.238627222407352,-2.68598437233406,-0.392912569971957,,-5.102767368472793,,
,7989.0,1527.0,6769.0,1060.0,1302.0,1944.0,3178.0,,,,-0.238578994195206,-2.68596797517712,-0.39294787204025,,-5.307548159250095,,
,7989.0,1528.0,6769.0,1059.0,1333.0,1934.0,3163.0,,,,-0.238983136722374,-2.68592435977563,-0.392813587813593,,-5.492838497878652,,
,7991.0,1530.0,6771.0,1057.0,1325.0,1932.0,3158.0,,,,-0.238938065133767,-2.68622713835419,-0.393059372479794,,-5.653989113495206,,
,7992.0,1528.0,6768.0,1060.0,1333.0,1934.0,3168.0,,,,-0.239083374425927,-2.68626859482979,-0.393274475308511,,-5.787376236487261,,
,7991.0,1527.0,6768.0,1060.0,1337.0,1936.0,3164.0,,,,-0.239068856987974,-2.68613722688837,-0.392555287734393,,-5.890708956030556,,
,7990.0,1533.0,6769.0,1062.0,1332.0,1940.0,3172.0,,,,-0.238917820273241,-2.68612168906229,-0.392962824712351,,-5.9632363312974945,,
,7992.0,1529.0,6770.0,1060.0,1332.0,1942.0,3177.0,,,,-0.239083226055684,-2.68642990220067,-0.392136801472685,,-6.005838706284099,,
,7991.0,1530.0,6769.0,1061.0,1354.0,1942.0,3158.0,,,,-0.239088650278345,-2.68650865365476,-0.392593633989031,,-6.0209981091171265,,
,7991.0,1529.0,6770.0,1060.0,1367.0,1945.0,3147.0,,,,-0.239016644058037,-2.68608797974292,-0.392798458714826,,-6.012651732683879,,
,7991.0,1529.0,6773.0,1062.0,1345.0,1938.0,3150.0,,,,-0.238843696153631,-2.68609784997728,-0.392102301511295,,-5.98594024258843,,
,7992.0,1531.0,6771.0,1061.0,1334.0,1942.0,3139.0,,,,-0.238865432321253,-2.68600237049322,-0.392712265623571,,-5.94686930101086,,
,7993.0,1530.0,6770.0,1062.0,1329.0,1939.0,3158.0,,,,-0.238856290348664,-2.68612325002661,-0.392722937584759,,-5.901908178760171,,
,7992.0,1530.0,6768.0,1060.0,1327.0,1937.0,3146.0,,,,-0.23897902090613,-2.6862557291993,-0.392968576316333,,-5.8575532004724495,,
,7993.0,1531.0,6773.0,1061.0,1326.0,1936.0,3139.0,,,,-0.239089380482663,-2.68618856657656,-0.392946892208699,,-5.819885511769275,,
,7995.0,1531.0,6769.0,1064.0,1327.0,1936.0,3142.0,,,,-0.23900081277417,-2.68657511511418,-0.393557372318121,,-5.794152057932403,,
,7991.0,1528.0,6770.0,1062.0,1333.0,1938.0,3148.0,,,,-0.239062273657229,-2.68667110353018,-0.393866714658148,,-5.784395901566991,,
,7995.0,1531.0,6771.0,1060.0,1330.0,1939.0,3147.0,,,,-0.239475148415749,-2.68679996190102,-0.395109164799641,,-5.793157513065871,,
,7993.0,1531.0,6771.0,1061.0,1334.0,1928.0,3149.0,,,,-0.239444670769248,-2.68686220296778,-0.394960025328588,,-5.8212629547393355,,
,7994.0,1531.0,6770.0,1062.0,1330.0,1932.0,3149.0,,,,-0.239604945762339,-2.68669810789126,-0.394910000766551,,-5.8677084243461755,,
,7996.0,1529.0,6769.0,1062.0,1311.0,1935.0,3154.0,,,,-0.239608787341051,-2.68709907265738,-0.395092009266959,,-5.9296437921598875,,
,7994.0,1532.0,6769.0,1061.0,1334.0,1946.0,3148.0,,,,-0.239695747219699,-2.68717067879114,-0.396175939354308,,-6.002450835953927,,
,7996.0,1534.0,6770.0,1065.0,1330.0,1932.0,3152.0,,,,-0.239942503072293,-2.68738510175155,-0.396030062814802,,-6.079905261859303,,
,8000.0,1532.0,6770.0,1064.0,1342.0,1933.0,3159.0,,,,-0.239672161536802,-2.68744190950101,-0.395676131849574,,-6.154406171254215,,
,7995.0,1531.0,6769.0,1062.0,1319.0,1940.0,3152.0,,,,-0.239893606408375,-2.68749563936038,-0.396890949840733,,-6.21725375189952,,
,7998.0,1533.0,6768.0,1063.0,1334.0,1926.0,3174.0,,,,-0.239793687228416,-2.68750198305578,-0.396728315628547,,-6.258956724852354,,
,7997.0,1533.0,6771.0,1063.0,1348.0,1931.0,3185.0,,,,-0.239666309846463,-2.68740802078044,-0.397001296749813,,-6.269555142804091,,
,7999.0,1534.0,6772.0,1062.0,1331.0,1934.0,3181.0,,,,-0.239678247922183,-2.68719067552643,-0.396527193854635,,-6.238949507051344,,
,7997.0,1532.0,6771.0,1063.0,1332.0,1936.0,3149.0,,,,-0.239692812221974,-2.68680540298058,-0.396693908287696,,-6.157231336701161,,
2025-08-07 00:30:08,7999.0,1535.0,6770.0,1066.0,1337.0,1941.0,3156.0,,,2025/08/07 12:30:08 AM,-0.239736543973794,-2.6870017954371,-0.39587637404017,,-6.015011722823713,,
,7998.0,1535.0,6771.0,1064.0,1322.0,1939.0,3184.0,,,,-0.239705547400882,-2.68712188134357,-0.396824390737232,,-5.803742890920832,,
,7997.0,1534.0,6770.0,1063.0,1328.0,1938.0,3170.0,,,,-0.239721365916576,-2.68713155680288,-0.39669783863075,,-5.5160242488875415,,
,8000.0,1536.0,6771.0,1063.0,1343.0,1936.0,3151.0,,,,-0.239557400545909,-2.68731390282025,-0.395371377554508,,-5.145880239243038,,
,7998.0,1535.0,6768.0,1061.0,1320.0,1937.0,3164.0,,,,-0.239854497414496,-2.68719024529474,-0.396863377159048,,-4.688994372573557,,
,8003.0,1536.0,6769.0,1065.0,1329.0,1943.0,3154.0,,,,-0.239805695868729,-2.68720397348546,-0.396555689037857,,-4.142884228051694,,
,8002.0,1536.0,6772.0,1066.0,1319.0,1944.0,3150.0,,,,-0.239791250691332,-2.68732920867771,-0.396908462931844,,-3.507007863857354,,
,8000.0,1535.0,6769.0,1064.0,1322.0,1931.0,3187.0,,,,-0.239772254595646,-2.68721958960609,-0.395946799709281,,-2.782803459342726,,
,8001.0,1534.0,6770.0,1063.0,1290.0,1934.0,3179.0,,,,-0.239884514279045,-2.68697648466412,-0.396797114271594,,-1.9736789090393463,,
,8004.0,1536.0,6771.0,1066.0,1303.0,1933.0,3163.0,,,,-0.239905443181929,-2.68714234254181,-0.39690183899613,,-1.0849814961615927,,
,8002.0,1536.0,6768.0,1064.0,1316.0,1933.0,3162.0,,,,-0.239630252331374,-2.68702075064589,-0.397664261967253,,-0.12398361897633303,,
,8002.0,1534.0,6767.0,1064.0,1308.0,1935.0,3169.0,,,,-0.239660952436924,-2.68717996563896,-0.396645016155944,,0.9000854466392528,,
,8003.0,1536.0,6771.0,1064.0,1325.0,1930.0,3172.0,,,,-0.239623207463683,-2.68767593221457,-0.39694431502021,,1.9759499390206587,,
,8002.0,1537.0,6769.0,1067.0,1323.0,1936.0,3174.0,,,,-0.23995582927715,-2.68715507306641,-0.396389507120132,,3.0901547985875735,,
,8004.0,1538.0,6771.0,1066.0,1314.0,1941.0,3159.0,,,,-0.239799212338983,-2.68764196833498,-0.395752455902603,,4.226931990962291,,
,8004.0,1536.0,6768.0,1067.0,1303.0,1934.0,3147.0,,,,-0.239796975514038,-2.68734778077611,-0.397242745730722,,5.368129210096438,,
,8002.0,1538.0,6771.0,1066.0,1312.0,1941.0,3149.0,,,,-0.239878539516501,-2.68775418523828,-0.396719770677479,,6.493272148874293,,
,8004.0,1538.0,6769.0,1068.0,1336.0,1942.0,3157.0,,,,-0.240025936016308,-2.68756535151923,-0.396311094404638,,7.579824609618352,,
,8004.0,1539.0,6771.0,1066.0,1349.0,1941.0,3156.0,,,,-0.239952821303484,-2.68770879860135,-0.396760440496271,,8.603691332425832,,
,8004.0,1537.0,6769.0,1064.0,1321.0,1924.0,3153.0,,,,-0.240247634551238,-2.68764829052761,-0.396997577379825,,9.539980764886957,,
,8006.0,1538.0,6768.0,1066.0,1298.0,1929.0,3158.0,,,,-0.24009502141492,-2.68752582203644,-0.397476616961502,,10.364012866544169,,
,8005.0,1540.0,6771.0,1067.0,1285.0,1939.0,3155.0,,,,-0.240036696251188,-2.68762253738789,-0.397093660414114,,11.052523599230284,,
,8009.0,1539.0,6770.0,1067.0,1296.0,1941.0,3149.0,,,,-0.239942189173198,-2.68761589685252,-0.397077030618796,,11.584986499283216,,
,8008.0,1537.0,6770.0,1066.0,1321.0,1942.0,3166.0,,,,-0.240219373768384,-2.68747261780219,-0.396989812692507,,11.944946671853083,,
,8009.0,1542.0,6770.0,1069.0,1311.0,1932.0,3147.0,,,,-0.239863205905208,-2.68761735850475,-0.39658543116052,,12.121247252011955,,
,8008.0,1541.0,6768.0,1069.0,1321.0,1933.0,3150.0,,,,-0.239958502550882,-2.68757891474204,-0.396736628592545,,12.109024961414448,,
,8007.0,1539.0,6768.0,1068.0,1324.0,1936.0,3154.0,,,,-0.239966003956014,-2.6876277516458,-0.396530939089413,,11.910360508604825,,
,8006.0,1539.0,6765.0,1065.0,1330.0,1939.0,3159.0,,,,-0.239685014060917,-2.68776653292088,-0.396188341375858,,11.534491161086404,,
,8007.0,1540.0,6767.0,1066.0,1334.0,1944.0,3168.0,,,,-0.239679231449071,-2.68748378870775,-0.396187877842372,,10.99752650236022,,
,8011.0,1539.0,6769.0,1067.0,1330.0,1930.0,3169.0,,,,-0.239675572977588,-2.68727998947613,-0.397318681908602,,10.321653097882862,,
,8010.0,1542.0,6768.0,1066.0,1328.0,1932.0,3153.0,,,,-0.239857769992339,-2.68762913312885,-0.395885255666442,,9.53386664661005,,
,8006.0,1541.0,6767.0,1066.0,1297.0,1937.0,3158.0,,,,-0.239738182609025,-2.68762872362238,-0.396315486803268,,8.664325384886585,,
,8008.0,1539.0,6764.0,1063.0,1312.0,1939.0,3156.0,,,,-0.239664318987664,-2.68749834891438,-0.396411131789157,,7.744467057873445,,
,8008.0,1539.0,6767.0,1066.0,1312.0,1937.0,3158.0,,,,-0.239672346047112,-2.6876358877186,-0.397082536552463,,6.805063323682854,,
,8006.0,1538.0,6766.0,1063.0,1312.0,1934.0,3164.0,,,,-0.239725542649284,-2.68731579366108,-0.396882632120986,,5.8743922606451315,,
,8007.0,1534.0,6763.0,1063.0,1295.0,1936.0,3165.0,,,,-0.23964760682944,-2.68751994570508,-0.397295811272647,,4.976690475774652,,
,8004.0,1535.0,6761.0,1064.0,1305.0,1940.0,3153.0,,,,-0.239654496235352,-2.68733455502171,-0.396383541805661,,4.131007013541527,,
,8007.0,1533.0,6761.0,1064.0,1326.0,1942.0,3161.0,,,,-0.239743834276546,-2.68743794849555,-0.396016073062675,,3.350531477080821,,
,8003.0,1531.0,6760.0,1063.0,1317.0,1942.0,3181.0,,,,-0.239690853495098,-2.68768563414667,-0.395690949776501,,2.642417722398037,,
,8004.0,1527.0,6759.0,1062.0,1287.0,1932.0,3184.0,,,,-0.239654111736893,-2.68744348083027,-0.396380742701325,,2.008078658631776,,
,8002.0,1528.0,6755.0,1060.0,1314.0,1939.0,3162.0,,,,-0.239673512274099,-2.68730612966796,-0.396152180150958,,1.4438905272847604,,
,8001.0,1524.0,6751.0,1062.0,1299.0,1941.0,3170.0,,,,-0.239470149573738,-2.68735581701815,-0.395648249874002,,0.9422175717640333,,
,7998.0,1525.0,6749.0,1060.0,1286.0,1940.0,3165.0,,,,-0.239577716739772,-2.68747088838122,-0.396342550414185,,0.4926498894637731,,
,7997.0,1522.0,6747.0,1058.0,1294.0,1951.0,3166.0,,,,-0.23950682212284,-2.68751515634322,-0.396688054253788,,0.08333785208013991,,
,7995.0,1522.0,6746.0,1056.0,1340.0,1947.0,3160.0,,,,-0.239342147547759,-2.68757226168756,-0.394902124367886,,-0.2976944494254786,,
,7995.0,1523.0,6742.0,1058.0,1315.0,1942.0,3155.0,,,,-0.23935115480515,-2.68730243626752,-0.394949435071699,,-0.6613666484065447,,
,7995.0,1519.0,6743.0,1057.0,1304.0,1941.0,3150.0,,,,-0.239321473304691,-2.6876252794665,-0.394728538277204,,-1.0165842783666956,,
,7992.0,1518.0,6742.0,1055.0,1333.0,1948.0,3143.0,,,,-0.239273893305808,-2.68737888218205,-0.395420589832946,,-1.3695758297214582,,
,7991.0,1519.0,6741.0,1055.0,1329.0,1942.0,3160.0,,,,-0.239055591178739,-2.68723726430541,-0.395760666087481,,-1.7235652320154586,,
,7993.0,1521.0,6740.0,1056.0,1316.0,1937.0,3155.0,,,,-0.239136906982961,-2.68673317800486,-0.394994518313909,,-2.0787873006846485,,
,7991.0,1518.0,6739.0,1057.0,1329.0,1936.0,3146.0,,,,-0.239458931638064,-2.68712969871212,-0.39562681730611,,-2.4328202860844925,,
,7987.0,1515.0,6739.0,1056.0,1306.0,1939.0,3153.0,,,,-0.239559694967742,-2.6870750425263,-0.395291451096049,,-2.781179154448504,,
,7989.0,1518.0,6738.0,1054.0,1293.0,1943.0,3166.0,,,,-0.239507027729549,-2.68707801613399,-0.395137968790554,,-3.1180891513072195,,
,7990.0,1519.0,6737.0,1055.0,1294.0,1947.0,3157.0,,,,-0.238985104304508,-2.68686442172,-0.394269453366005,,-3.437345061235829,,
,7989.0,1518.0,6737.0,1055.0,1302.0,1946.0,3160.0,,,,-0.238985444459203,-2.6870062614734,-0.395280617256006,,-3.7331597949222446,,
,7986.0,1519.0,6736.0,1054.0,1331.0,1939.0,3153.0,,,,-0.2390025069216,-2.6870875922927,-0.395104383217843,,-4.000916328100047,,
,7983.0,1515.0,6732.0,1054.0,1318.0,1942.0,3148.0,,,,-0.238826101101349,-2.68717081857737,-0.395145477621629,,-4.237756432051774,,
,7988.0,1518.0,6733.0,1055.0,1315.0,1940.0,3155.0,,,,-0.239190946809775,-2.6866272894402,-0.395584739251102,,-4.442963333212302,,
,7986.0,1517.0,6736.0,1055.0,1311.0,1944.0,3160.0,,,,-0.239107701989585,-2.68705267398892,-0.395519249529412,,-4.6181190903511675,,
,7983.0,1514.0,6731.0,1052.0,1327.0,1937.0,3164.0,,,,-0.239115312522194,-2.68701442558927,-0.394689514474895,,-4.7670382944679695,,
,7984.0,1513.0,6733.0,1053.0,1334.0,1938.0,3158.0,,,,-0.239207469699057,-2.68707591934642,-0.394728093255045,,-4.895496446587312,,
,7984.0,1516.0,6731.0,1054.0,1326.0,1938.0,3167.0,,,,-0.239272003183117,-2.68684069090531,-0.39556116120911,,-5.0107838346264835,,
,7982.0,1514.0,6733.0,1053.0,1309.0,1936.0,3167.0,,,,-0.239523133924507,-2.68711196015257,-0.394799314097303,,-5.12112418651039,,
,7981.0,1516.0,6729.0,1053.0,1294.0,1929.0,3165.0,,,,-0.239684620804571,-2.68707089887476,-0.39466391901856,,-5.235002321965817,,
,7982.0,1514.0,6733.0,1054.0,1301.0,1935.0,3165.0,,,,-0.239382633721067,-2.6872664728224,-0.395012923300305,,-5.360447102408898,,
,7983.0,1515.0,6730.0,1053.0,1286.0,1933.0,3165.0,,,,-0.239705188314845,-2.68733242884593,-0.395744220423878,,-5.504315919880111,,
,7984.0,1516.0,6730.0,1056.0,1295.0,1932.0,3165.0,,,,-0.239373747167228,-2.68686870669072,-0.395266873962674,,-5.671625485584852,,
,7983.0,1516.0,6729.0,1053.0,1321.0,1933.0,3188.0,,,,-0.239434379579494,-2.68695294597317,-0.395077196730174,,-5.864971277378763,,
,7980.0,1515.0,6728.0,1052.0,1289.0,1938.0,3177.0,,,,-0.238968173596703,-2.68707365011037,-0.394430540888165,,-6.084074745508767,,
,7982.0,1515.0,6730.0,1055.0,1294.0,1938.0,3163.0,,,,-0.238974787247331,-2.68694723274181,-0.394310390370339,,-6.325492762331845,,
,7982.0,1514.0,6731.0,1053.0,1285.0,1938.0,3154.0,,,,-0.238853011240078,-2.68684447671792,-0.393836789057507,,-6.582516924194543,,
,7978.0,1515.0,6729.0,1053.0,1298.0,1925.0,3181.0,,,,-0.238872495650912,-2.68688808802074,-0.394307464508774,,-6.845280291594559,,
,7977.0,1514.0,6728.0,1050.0,1279.0,1935.0,3173.0,,,,-0.238907813253369,-2.68698911681154,-0.394768728521808,,-7.101075803481144,,
,7982.0,1515.0,6729.0,1055.0,1311.0,1937.0,3157.0,,,,-0.238901359514987,-2.68664709193434,-0.394947935888495,,-7.334875060309985,,
,7980.0,1515.0,6729.0,1053.0,1319.0,1937.0,3164.0,,,,-0.238916703135406,-2.68679305046296,-0.394849815526637,,-7.530020898434572,,
,7978.0,1513.0,6730.0,1050.0,1305.0,1938.0,3165.0,,,,-0.238988682168218,-2.68710455172326,-0.394757940244997,,-7.669054852080261,,
,7978.0,1513.0,6729.0,1051.0,1307.0,1942.0,3188.0,,,,-0.23884496749701,-2.68704348976373,-0.394782741794359,,-7.734632460013084,,
,7978.0,1516.0,6730.0,1054.0,1324.0,1935.0,3170.0,,,,-0.23910689888128,-2.68729900380572,-0.394914381435684,,-7.710474558467036,,
,7980.0,1518.0,6733.0,1054.0,1312.0,1936.0,3159.0,,,,-0.239047654115802,-2.68679365162658,-0.395019047117971,,-7.582299380060926,,
,7978.0,1514.0,6727.0,1053.0,1317.0,1936.0,3172.0,,,,-0.239378303074318,-2.68647498881171,-0.395038696293325,,-7.338677610492088,,
,7978.0,1514.0,6728.0,1051.0,1300.0,1935.0,3162.0,,,,-0.239231448864964,-2.68669219243547,-0.394669016255816,,-6.971751712023945,,
,7978.0,1515.0,6729.0,1054.0,1307.0,1934.0,3176.0,,,,-0.239399952310039,-2.68702306073702,-0.395076047709014,,-6.477764395589125,,
,7979.0,1517.0,6729.0,1054.0,1313.0,1936.0,3170.0,,,,-0.239531483589492,-2.68695166259102,-0.395951326814895,,-5.857351593214247,,
,7977.0,1513.0,6726.0,1051.0,1306.0,1944.0,3166.0,,,,-0.239426585159961,-2.68728404075799,-0.394370652217592,,-5.115573549977968,,
,7976.0,1516.0,6725.0,1051.0,1323.0,1942.0,3166.0,,,,-0.239471041363162,-2.68698005178754,-0.395839413464769,,-4.261682278248481,,
,7977.0,1515.0,6730.0,1052.0,1307.0,1942.0,3152.0,,,,-0.239355029466283,-2.68706855604001,-0.39499284454948,,-3.308651002820678,,
,7977.0,1517.0,6727.0,1052.0,1291.0,1939.0,3161.0,,,,-0.239501090725309,-2.6871445986855,-0.395879157414168,,-2.272516617385759,,
,7976.0,1515.0,6727.0,1052.0,1311.0,1933.0,3177.0,,,,-0.239516545543137,-2.68747173497704,-0.396720394079353,,-1.1716050197403745,,
,7976.0,1516.0,6729.0,1052.0,1319.0,1935.0,3168.0,,,,-0.239538567397773,-2.68747299391592,-0.395988428410906,,-0.025718339001142784,,
,7978.0,1516.0,6727.0,1053.0,1325.0,1934.0,3162.0,,,,-0.239423708585955,-2.68723878468265,-0.395448655429227,,1.144638706932044,,
,7978.0,1515.0,6728.0,1055.0,1321.0,1937.0,3153.0,,,,-0.239597306811008,-2.68741238027381,-0.395561397341944,,2.3189282094509673,,
,7979.0,1515.0,6726.0,1052.0,1314.0,1928.0,3161.0,,,,-0.239691301188903,-2.68743860615934,-0.395391619983435,,3.4770996975128967,,
,7976.0,1515.0,6725.0,1050.0,1301.0,1925.0,3171.0,,,,-0.239453498395879,-2.68734557413103,-0.394800433224623,,4.5999438029103565,,
,7976.0,1516.0,6728.0,1052.0,1285.0,1927.0,3164.0,,,,-0.239518107027386,-2.68721559219055,-0.395205442542486,,5.669289561608561,,
,7978.0,1516.0,6731.0,1052.0,1295.0,1927.0,3158.0,,,,-0.239433820230877,-2.6874427613679,-0.395012121891912,,6.668083286251866,,
,7977.0,1516.0,6726.0,1050.0,1322.0,1921.0,3163.0,,,,-0.239461569623603,-2.68727050646774,-0.394870291332215,,7.580408146350098,,
,7974.0,1514.0,6725.0,1052.0,1325.0,1926.0,3173.0,,,,-0.239378154415734,-2.68722843255157,-0.394584691025872,,8.391513911760383,,
,7976.0,1516.0,6727.0,1052.0,1308.0,1937.0,3171.0,,,,-0.239292676121797,-2.68728922001204,-0.395056488248704,,9.087922637760348,,
,7978.0,1516.0,6728.0,1054.0,1307.0,1937.0,3176.0,,,,-0.239397355044009,-2.68727786778399,-0.394584524338315,,9.65765836580318,,
,7977.0,1513.0,6726.0,1053.0,1289.0,1926.0,3162.0,,,,-0.239404910449029,-2.68743758149862,-0.393829226323269,,10.090620315263987,,
,7978.0,1517.0,6728.0,1053.0,1320.0,1938.0,3156.0,,,,-0.239411520034358,-2.68719599464634,-0.394484172127399,,10.379084815997707,,
,7977.0,1515.0,6727.0,1054.0,1298.0,1931.0,3163.0,,,,-0.239311571413143,-2.68699868529327,-0.393181133513589,,10.518287390562195,,
,7979.0,1516.0,6728.0,1056.0,1297.0,1941.0,3158.0,,,,-0.239305479118515,-2.68683323632578,-0.393767499842999,,10.507008495460624,,
,7979.0,1517.0,6724.0,1052.0,1310.0,1936.0,3175.0,,,,-0.239316441526617,-2.68724610982532,-0.394116954654049,,10.34806908431134,,
,7979.0,1517.0,6725.0,1052.0,1336.0,1934.0,3166.0,,,,-0.239494374357981,-2.68739280127825,-0.394043931202061,,10.048639148891786,,
,7981.0,1518.0,6727.0,1055.0,1340.0,1925.0,3170.0,,,,-0.239190949956385,-2.68723834763997,-0.393773007365605,,9.620276447821649,,
,7982.0,1519.0,6726.0,1054.0,1324.0,1925.0,3177.0,,,,-0.239290206797418,-2.68750546846029,-0.394530678583353,,9.078644068002898,,
,7975.0,1515.0,6727.0,1055.0,1317.0,1936.0,3180.0,,,,-0.239337603151727,-2.68683292598342,-0.393303156839063,,8.442900378271672,,
,7980.0,1517.0,6727.0,1052.0,1300.0,1933.0,3180.0,,,,-0.239408002810001,-2.68687543462989,-0.394017983208247,,7.734804552315888,,
,7981.0,1517.0,6728.0,1056.0,1305.0,1937.0,3168.0,,,,-0.239306986967613,-2.68682679025368,-0.393124734278046,,6.977623374072348,,
,7981.0,1519.0,6728.0,1057.0,1291.0,1940.0,3152.0,,,,-0.23936778381328,-2.68692474552482,-0.392556173018229,,6.194949900826041,,
,7980.0,1516.0,6728.0,1055.0,1313.0,1939.0,3167.0,,,,-0.239093216254706,-2.68702374149755,-0.393592520277011,,5.409546896401882,,
,7981.0,1517.0,6727.0,1054.0,1303.0,1938.0,3157.0,,,,-0.239269477985807,-2.68711957667731,-0.393542943393554,,4.642310688031623,,
,7983.0,1520.0,6728.0,1054.0,1319.0,1941.0,3166.0,,,,-0.239175555638063,-2.68704288619196,-0.392532832068476,,3.911422906188742,,
,7980.0,1518.0,6727.0,1055.0,1310.0,1942.0,3166.0,,,,-0.238882764047063,-2.68705235376046,-0.393441231890601,,3.231727964649487,,
,7981.0,1519.0,6726.0,1052.0,1327.0,1941.0,3175.0,,,,-0.239009980109507,-2.68714438987155,-0.393455762935403,,2.614349169819624,,
,7983.0,1519.0,6728.0,1056.0,1313.0,1937.0,3167.0,,,,-0.239223066861142,-2.68696647991245,-0.393149879906079,,2.066537539000571,,
,7983.0,1520.0,6729.0,1056.0,1308.0,1935.0,3189.0,,,,-0.23910927302092,-2.68691057524119,-0.393458539409646,,1.5917338670285233,,
,7983.0,1520.0,6729.0,1055.0,1296.0,1938.0,3190.0,,,,-0.238995050800419,-2.6869189716932,-0.393345995170045,,1.1898154416805047,,
,7981.0,1519.0,6726.0,1055.0,1303.0,1936.0,3177.0,,,,-0.2389493693734,-2.6868784787142,-0.393063471746502,,0.8574938688226995,,
,7984.0,1522.0,6727.0,1057.0,1305.0,1936.0,3168.0,,,,-0.239370116505092,-2.68680827302558,-0.393012785397976,,0.588829438854318,,
,7983.0,1522.0,6729.0,1058.0,1303.0,1936.0,3173.0,,,,-0.23952532843363,-2.68674527545883,-0.394167604356279,,0.37582928903990576,,
,7984.0,1521.0,6730.0,1057.0,1299.0,1936.0,3165.0,,,,-0.239544082099833,-2.68718118247757,-0.392765899723035,,0.2090995322965435,,
,7983.0,1521.0,6728.0,1055.0,1292.0,1938.0,3164.0,,,,-0.239266218200389,-2.68707004684342,-0.393995920619415,,0.07852367846006589,,
,7985.0,1522.0,6730.0,1056.0,1284.0,1937.0,3153.0,,,,-0.239153880938032,-2.68701949999303,-0.393896406616027,,-0.0260600946388373,,
,7985.0,1522.0,6728.0,1058.0,1301.0,1935.0,3155.0,,,,-0.239032125296224,-2.68697502465403,-0.392911684391838,,-0.11421190670684497,,
,7986.0,1523.0,6727.0,1056.0,1303.0,1934.0,3156.0,,,,-0.239041128982599,-2.68711777776916,-0.393662740421317,,-0.19430485583226323,,
,7982.0,1521.0,6730.0,1057.0,1312.0,1942.0,3157.0,,,,-0.239094431414701,-2.68779170524513,-0.393475342827375,,-0.273034490459047,,
2025-08-07 00:30:09,7987.0,1521.0,6729.0,1057.0,1299.0,1935.0,3164.0,,,2025/08/07 12:30:09 AM,-0.239030273382421,-2.687806952949,-0.392984930383718,,-0.3550556054828366,,
,7986.0,1524.0,6727.0,1057.0,1306.0,1931.0,3177.0,,,,-0.23916547054179,-2.68800262089584,-0.393035809823091,,-0.44277526323814553,,
,7987.0,1523.0,6731.0,1058.0,1304.0,1934.0,3164.0,,,,-0.238926956354061,-2.68735347889803,-0.393309763976169,,-0.5363235320356996,,
,7986.0,1522.0,6729.0,1057.0,1316.0,1928.0,3173.0,,,,-0.238812668593606,-2.68762461836062,-0.392460638351698,,-0.6337117684813789,,
,7988.0,1525.0,6729.0,1058.0,1312.0,1929.0,3153.0,,,,-0.238946876186259,-2.68769500985533,-0.392474112364976,,-0.731172452913924,,
,7987.0,1525.0,6730.0,1057.0,1302.0,1931.0,3159.0,,,,-0.239017534049262,-2.68794257396961,-0.392731633332393,,-0.8236560696961571,,
,7988.0,1525.0,6727.0,1059.0,1302.0,1936.0,3163.0,,,,-0.238855916637455,-2.68769703445437,-0.391626946197288,,-0.9054425706876464,,
,7989.0,1524.0,6727.0,1055.0,1308.0,1933.0,3160.0,,,,-0.239112697869166,-2.68780686618083,-0.392314832007436,,-0.9708120282444191,,
,7990.0,1523.0,6729.0,1058.0,1320.0,1933.0,3162.0,,,,-0.238755830275858,-2.68758264405565,-0.39290722179822,,-1.0147148034575069,,
,7990.0,1523.0,6731.0,1059.0,1338.0,1938.0,3162.0,,,,-0.238845720499757,-2.6873020634433,-0.392098692330484,,-1.0333863656189421,,
,7994.0,1525.0,6728.0,1059.0,1334.0,1937.0,3161.0,,,,-0.23892219657867,-2.68765277767649,-0.392818918161941,,-1.024862508789432,,
,7989.0,1524.0,6731.0,1057.0,1319.0,1940.0,3163.0,,,,-0.238772410377575,-2.68753901012882,-0.39279006085759,,-0.9893622722702975,,
,7991.0,1525.0,6732.0,1060.0,1319.0,1936.0,3152.0,,,,-0.238913009429731,-2.68782577983333,-0.39211405578448,,-0.9295149590171231,,
,7991.0,1526.0,6731.0,1059.0,1310.0,1937.0,3168.0,,,,-0.238990717405142,-2.6878680647842,-0.393262335960315,,-0.8504136172907247,,
,7992.0,1526.0,6732.0,1059.0,1315.0,1938.0,3177.0,,,,-0.239116092533139,-2.6876951476974,-0.392375122905256,,-0.7594818113456863,,
,7989.0,1526.0,6731.0,1058.0,1305.0,1941.0,3198.0,,,,-0.238904824064778,-2.68775555591527,-0.393170265268015,,-0.6661461235560798,,
,7992.0,1527.0,6728.0,1058.0,1306.0,1939.0,3182.0,,,,-0.238977407288572,-2.68779771781657,-0.392743530230197,,-0.5813163063558149,,
,7992.0,1527.0,6729.0,1058.0,1290.0,1934.0,3179.0,,,,-0.239148226957812,-2.68782571722405,-0.392755475562877,,-0.5166901801469909,,
,7994.0,1527.0,6729.0,1059.0,1290.0,1933.0,3178.0,,,,-0.239113595035249,-2.68781349432079,-0.392701528505259,,-0.48392127793192996,,
,7991.0,1526.0,6727.0,1058.0,1298.0,1932.0,3157.0,,,,-0.238876726949791,-2.68762886963621,-0.392810418849208,,-0.4937112548372257,,
,7998.0,1530.0,6731.0,1060.0,1325.0,1930.0,3157.0,,,,-0.238987826711791,-2.68773211363182,-0.392262022742175,,-0.5549109044534888,,
,7998.0,1528.0,6731.0,1060.0,1307.0,1929.0,3141.0,,,,-0.238873620247718,-2.68784011856642,-0.391871779390577,,-0.6737265388510424,,
,7995.0,1529.0,6730.0,1061.0,1310.0,1932.0,3144.0,,,,-0.238814512303875,-2.68712213523914,-0.390932575869635,,-0.8531267384228578,,
,7997.0,1528.0,6729.0,1059.0,1316.0,1937.0,3153.0,,,,-0.238953973462146,-2.68740255512995,-0.392353466135057,,-1.0925255815661972,,
,7996.0,1531.0,6728.0,1062.0,1334.0,1932.0,3158.0,,,,-0.238866050738274,-2.6872365068418,-0.392414513330406,,-1.3877844388129037,,
,7995.0,1530.0,6728.0,1059.0,1327.0,1940.0,3153.0,,,,-0.23901322538446,-2.68762502433343,-0.39134468198361,,-1.7315316412827126,,
,7994.0,1530.0,6729.0,1062.0,1323.0,1943.0,3149.0,,,,-0.238961462210243,-2.68737741351875,-0.392089621688713,,-2.1137570620549955,,
,7996.0,1528.0,6727.0,1056.0,1317.0,1934.0,3166.0,,,,-0.238876851184493,-2.68758470413831,-0.392003007818225,,-2.5226060956780554,,
,7998.0,1529.0,6728.0,1058.0,1298.0,1935.0,3173.0,,,,-0.238881830311674,-2.68751118093917,-0.392901228736171,,-2.945280503502271,,
,7997.0,1529.0,6728.0,1059.0,1278.0,1933.0,3179.0,,,,-0.238942505786092,-2.68766300198235,-0.392016201135362,,-3.368952771761106,,
,7994.0,1527.0,6725.0,1059.0,1285.0,1932.0,3171.0,,,,-0.238937773349959,-2.68785723705111,-0.393038431236535,,-3.7816124155910167,,
,7993.0,1525.0,6723.0,1056.0,1295.0,1931.0,3177.0,,,,-0.239162215975702,-2.68793025674001,-0.39180052893812,,-4.172781731108475,,
,7993.0,1522.0,6721.0,1055.0,1310.0,1930.0,3184.0,,,,-0.239081075664618,-2.68791028240113,-0.39136800478584,,-4.534060031755201,,
,7992.0,1521.0,6717.0,1059.0,1274.0,1928.0,3187.0,,,,-0.238901222467558,-2.68804576000207,-0.392194545938724,,-4.859476079030804,,
,7991.0,1516.0,6709.0,1056.0,1293.0,1933.0,3181.0,,,,-0.239232611239749,-2.68773696495119,-0.392367518968826,,-5.145646309079827,,
,7984.0,1510.0,6703.0,1051.0,1278.0,1939.0,3183.0,,,,-0.239029550756906,-2.68775926275427,-0.392607497742523,,-5.391750528912207,,
,7983.0,1507.0,6699.0,1051.0,1297.0,1937.0,3176.0,,,,-0.239115886032595,-2.68785464244809,-0.39236643207078,,-5.599346483035242,,
,7978.0,1505.0,6692.0,1049.0,1307.0,1935.0,3181.0,,,,-0.239277564346143,-2.68777216778341,-0.392710651101892,,-5.7720500223203555,,
,7978.0,1501.0,6685.0,1050.0,1296.0,1934.0,3183.0,,,,-0.238929844833076,-2.6880614998181,-0.391865861318659,,-5.915109061677862,,
,7973.0,1497.0,6678.0,1045.0,1279.0,1930.0,3171.0,,,,-0.239154294830048,-2.6878697284431,-0.392493419066766,,-6.034898109178592,,
,7968.0,1496.0,6673.0,1042.0,1288.0,1935.0,3162.0,,,,-0.23928533281599,-2.68804502657911,-0.392341990288793,,-6.138357134981512,,
,7970.0,1496.0,6671.0,1043.0,1298.0,1940.0,3150.0,,,,-0.239680305106331,-2.6881940168681,-0.393364572318472,,-6.2323952190558956,,
,7963.0,1493.0,6668.0,1043.0,1290.0,1934.0,3158.0,,,,-0.239429371187108,-2.68846940890897,-0.393517816005568,,-6.323277235470367,,
,7960.0,1489.0,6664.0,1040.0,1296.0,1936.0,3144.0,,,,-0.239351274873944,-2.68837497624016,-0.392599155092384,,-6.416012503376991,,
,7956.0,1489.0,6660.0,1043.0,1307.0,1939.0,3154.0,,,,-0.239428256685135,-2.68854950394833,-0.392964902891679,,-6.513769143326784,,
,7956.0,1490.0,6661.0,1041.0,1311.0,1935.0,3158.0,,,,-0.239396699603684,-2.6885147488379,-0.392814604572533,,-6.617346434675126,,
,7952.0,1486.0,6657.0,1039.0,1304.0,1933.0,3166.0,,,,-0.239562834619039,-2.68855276314258,-0.393234842982302,,-6.724747148748713,,
,7950.0,1488.0,6655.0,1038.0,1317.0,1925.0,3179.0,,,,-0.239653450493959,-2.68890340221045,-0.392399256356795,,-6.830898618880324,,
,7950.0,1487.0,6656.0,1039.0,1304.0,1931.0,3160.0,,,,-0.239674872868583,-2.68875728143657,-0.393259124950568,,-6.927571401763062,,
,7949.0,1488.0,6653.0,1038.0,1317.0,1934.0,3164.0,,,,-0.239608247236488,-2.68871251363052,-0.392622889195497,,-7.003535618491838,,
,7946.0,1487.0,6654.0,1036.0,1312.0,1927.0,3167.0,,,,-0.239811082792981,-2.68914420906341,-0.393254005576632,,-7.044977687937261,,
,7944.0,1485.0,6652.0,1037.0,1282.0,1930.0,3156.0,,,,-0.239863822037478,-2.68923167730877,-0.393355772004986,,-7.036176608342624,,
,7943.0,1483.0,6651.0,1036.0,1298.0,1934.0,3158.0,,,,-0.240137997406367,-2.68919706072401,-0.393490500019041,,-6.960412573881366,,
,7942.0,1484.0,6650.0,1037.0,1287.0,1936.0,3165.0,,,,-0.240139098971201,-2.68918813351057,-0.394465860031134,,-6.801054545455876,,
,7939.0,1483.0,6650.0,1033.0,1287.0,1930.0,3161.0,,,,-0.240056095701689,-2.68951552559946,-0.394572334704905,,-6.54274976903624,,
,7941.0,1483.0,6649.0,1036.0,1264.0,1930.0,3170.0,,,,-0.240106952233348,-2.68909750694042,-0.394450044740345,,-6.172619405943666,,
,7937.0,1483.0,6647.0,1038.0,1278.0,1938.0,3165.0,,,,-0.240158589845299,-2.6890426913317,-0.394164126780753,,-5.681353189498746,,
,7938.0,1481.0,6646.0,1036.0,1309.0,1939.0,3147.0,,,,-0.240117926116481,-2.68931035040187,-0.394154395915024,,-5.064095646980508,,
,7935.0,1485.0,6644.0,1034.0,1304.0,1939.0,3144.0,,,,-0.239967948501285,-2.68926452052963,-0.394071610883352,,-4.321029951191133,,
,7934.0,1481.0,6645.0,1034.0,1302.0,1931.0,3157.0,,,,-0.240073932190226,-2.68943133576119,-0.395103249643739,,-3.4575941695127,,
,7931.0,1484.0,6644.0,1034.0,1294.0,1930.0,3175.0,,,,-0.240092806802482,-2.68952245580504,-0.394861100528362,,-2.484306390395436,,
,7931.0,1482.0,6645.0,1037.0,1286.0,1936.0,3177.0,,,,-0.239950987393828,-2.68963394890317,-0.395261334975956,,-1.4162234824641438,,
,7934.0,1482.0,6644.0,1033.0,1291.0,1933.0,3181.0,,,,-0.240062162165741,-2.689372421902,-0.395491468424481,,-0.27210351610490896,,
,7932.0,1482.0,6641.0,1033.0,1285.0,1937.0,3170.0,,,,-0.240282121612437,-2.68917842991843,-0.39481313678823,,0.9266254178272174,,
,7929.0,1481.0,6643.0,1032.0,1277.0,1937.0,3190.0,,,,-0.240376349380563,-2.68953359106619,-0.39562594763905,,2.1569731887056216,,
,7928.0,1482.0,6643.0,1035.0,1268.0,1943.0,3193.0,,,,-0.240377136442832,-2.68990458022944,-0.394866379931507,,3.3954608042491863,,
,7927.0,1481.0,6642.0,1032.0,1266.0,1938.0,3178.0,,,,-0.240315055679559,-2.68966425594799,-0.395587419853265,,4.619067529188308,,
,7926.0,1482.0,6640.0,1033.0,1286.0,1936.0,3180.0,,,,-0.240629467582967,-2.68950061081013,-0.395579503980768,,5.805989938697435,,
,7925.0,1480.0,6640.0,1031.0,1279.0,1935.0,3177.0,,,,-0.240331390343035,-2.68941574743913,-0.3955573645613,,6.9361833701079725,,
,7928.0,1480.0,6643.0,1033.0,1296.0,1937.0,3177.0,,,,-0.240325160121056,-2.68936150804489,-0.395276442130908,,7.991687804303112,,
,7926.0,1479.0,6639.0,1033.0,1288.0,1936.0,3172.0,,,,-0.240431340188615,-2.68959141306303,-0.396050447677214,,8.956767851500102,,
,7924.0,1481.0,6639.0,1032.0,1291.0,1925.0,3172.0,,,,-0.240520462512986,-2.68988054806286,-0.395723905971461,,9.817917626556103,,
,7924.0,1480.0,6641.0,1031.0,1315.0,1926.0,3159.0,,,,-0.240655751540057,-2.68986037930666,-0.395449765568897,,10.563793544458449,,
,7923.0,1478.0,6636.0,1031.0,1289.0,1931.0,3155.0,,,,-0.240678301863435,-2.69028750603484,-0.395852313302452,,11.185139678825553,,
,7920.0,1482.0,6642.0,1032.0,1294.0,1936.0,3162.0,,,,-0.240809863464531,-2.68997891852946,-0.396514092346177,,11.674760606610285,,
,7923.0,1481.0,6641.0,1031.0,1307.0,1938.0,3157.0,,,,-0.240667998321485,-2.69004319181615,-0.396551699360569,,12.02757663556804,,
,7925.0,1480.0,6637.0,1030.0,1285.0,1934.0,3138.0,,,,-0.240791293555067,-2.69029249031303,-0.396576798683864,,12.24076918524299,,
,7923.0,1478.0,6635.0,1030.0,1277.0,1931.0,3145.0,,,,-0.240700855111957,-2.6905072427229,-0.395823867568708,,12.313994996848022,,
,7922.0,1482.0,6641.0,1032.0,1286.0,1934.0,3144.0,,,,-0.240777526003189,-2.69030945964458,-0.396609632392875,,12.249622610935713,,
,7918.0,1479.0,6638.0,1030.0,1290.0,1937.0,3170.0,,,,-0.240814345585784,-2.69050177626718,-0.396805712528747,,12.052927991861747,,
,7918.0,1479.0,6637.0,1031.0,1304.0,1935.0,3169.0,,,,-0.241072453366776,-2.69058578993187,-0.395505963848882,,11.73218109249505,,
,7922.0,1477.0,6639.0,1030.0,1274.0,1927.0,3178.0,,,,-0.241179295056523,-2.69047803697214,-0.396834026913819,,11.29856263557178,,
,7918.0,1478.0,6637.0,1029.0,1289.0,1933.0,3177.0,,,,-0.241252130240984,-2.69026968716586,-0.396129875518258,,10.765870419384996,,
,7918.0,1478.0,6640.0,1029.0,1318.0,1937.0,3163.0,,,,-0.2411352779778,-2.68991536491281,-0.396353077995379,,10.150005360378453,,
,7919.0,1481.0,6642.0,1032.0,1283.0,1933.0,3180.0,,,,-0.240980487612609,-2.69001365546356,-0.397049754314803,,9.468264617423666,,
,7917.0,1480.0,6637.0,1032.0,1305.0,1927.0,3187.0,,,,-0.241134370358496,-2.69046487309419,-0.396475437846093,,8.73850473226856,,
,7917.0,1480.0,6638.0,1032.0,1312.0,1928.0,3180.0,,,,-0.241119703564,-2.69011864769642,-0.396497722108574,,7.97826308114216,,
,7917.0,1480.0,6636.0,1029.0,1302.0,1932.0,3180.0,,,,-0.241200694647384,-2.69009526979603,-0.39602102159322,,7.203934845836857,,
,7922.0,1482.0,6639.0,1029.0,1296.0,1928.0,3171.0,,,,-0.241159630043364,-2.69017387363085,-0.395624692259348,,6.430093663716576,,
,7919.0,1479.0,6639.0,1031.0,1271.0,1928.0,3195.0,,,,-0.240914351056232,-2.69036993989039,-0.396221304600689,,5.669020222015431,,
,7919.0,1479.0,6638.0,1033.0,1294.0,1931.0,3199.0,,,,-0.240962044756628,-2.69053063594574,-0.396693692890683,,4.930470297005788,,
,7919.0,1479.0,6636.0,1029.0,1304.0,1919.0,3193.0,,,,-0.240885384327739,-2.69033534385555,-0.396119281597344,,4.221678784556053,,
,7919.0,1480.0,6639.0,1031.0,1295.0,1928.0,3164.0,,,,-0.240921452977902,-2.6903592730523,-0.396585170163824,,3.547564989679605,,
,7921.0,1480.0,6638.0,1031.0,1274.0,1933.0,3197.0,,,,-0.240966780988375,-2.69051945134863,-0.395663660681971,,2.9110812443098246,,
,7920.0,1481.0,6637.0,1032.0,1280.0,1934.0,3192.0,,,,-0.241068136108079,-2.69081018731925,-0.395639886514895,,2.3136346312567357,,
,7917.0,1478.0,6636.0,1029.0,1276.0,1928.0,3177.0,,,,-0.241074763130537,-2.69074825803465,-0.39638475768473,,1.755511389559704,,
,7918.0,1482.0,6638.0,1031.0,1303.0,1927.0,3175.0,,,,-0.240961100692233,-2.69102136984299,-0.396430383159033,,1.236244816562471,,
,7919.0,1481.0,6639.0,1030.0,1304.0,1928.0,3173.0,,,,-0.2411669564631,-2.69049568608711,-0.397024778287448,,0.7548874571936215,,
,7918.0,1480.0,6640.0,1031.0,1303.0,1931.0,3170.0,,,,-0.241309880832573,-2.69071999378404,-0.397404772219324,,0.3101723674254083,,
,7916.0,1480.0,6640.0,1031.0,1292.0,1929.0,3171.0,,,,-0.24142396711324,-2.69090879308888,-0.397077780321814,,-0.09942938813644336,,
,7919.0,1482.0,6636.0,1031.0,1273.0,1926.0,3161.0,,,,-0.241290505304932,-2.69083374465362,-0.398150681949801,,-0.47573151619664183,,
,7920.0,1482.0,6639.0,1030.0,1300.0,1932.0,3175.0,,,,-0.241293550071781,-2.69097873192938,-0.397574996707854,,-0.8209032942510093,,
,7920.0,1481.0,6638.0,1031.0,1313.0,1930.0,3172.0,,,,-0.241320821060596,-2.69105685665846,-0.396900557630796,,-1.1375538469670228,,
,7918.0,1480.0,6637.0,1031.0,1317.0,1932.0,3173.0,,,,-0.241315420398093,-2.69094183425875,-0.397332444612194,,-1.4287976113856644,,
,7921.0,1482.0,6638.0,1032.0,1294.0,1933.0,3168.0,,,,-0.241429185928866,-2.69098940967797,-0.396995044849893,,-1.6982739979306662,,
,7919.0,1484.0,6637.0,1034.0,1299.0,1933.0,3181.0,,,,-0.24144069668481,-2.69124931020931,-0.396693088920484,,-1.9501017327357062,,
,7921.0,1483.0,6641.0,1031.0,1302.0,1936.0,3178.0,,,,-0.241448050997224,-2.69139354152081,-0.396895577733358,,-2.1887574327286856,,
,7918.0,1481.0,6637.0,1029.0,1310.0,1942.0,3174.0,,,,-0.241189304948833,-2.69156051240452,-0.397717225349191,,-2.4188779761315775,,
,7919.0,1483.0,6639.0,1033.0,1299.0,1941.0,3173.0,,,,-0.241412641767591,-2.69133333157704,-0.397389925471933,,-2.6449964386079006,,
,7919.0,1484.0,6639.0,1035.0,1313.0,1938.0,3162.0,,,,-0.241544991194288,-2.69113386863243,-0.398785446391519,,-2.8712309591728133,,
,7920.0,1482.0,6639.0,1033.0,1301.0,1938.0,3162.0,,,,-0.241643488295737,-2.69159395722092,-0.39759409239108,,-3.100954020501055,,
,7920.0,1482.0,6638.0,1030.0,1295.0,1929.0,3163.0,,,,-0.241565726877073,-2.69172108408189,-0.398722422675805,,-3.3364753960827938,,
,7919.0,1484.0,6638.0,1031.0,1313.0,1929.0,3172.0,,,,-0.241604215703989,-2.69154857110095,-0.397819489474355,,-3.5787746941487524,,
,7923.0,1484.0,6640.0,1031.0,1302.0,1934.0,3179.0,,,,-0.24171069135657,-2.69152774627942,-0.39791909751,,-3.8273186132748975,,
,7923.0,1485.0,6639.0,1034.0,1285.0,1938.0,3174.0,,,,-0.241599156539355,-2.69140329882734,-0.398168179836937,,-4.079993658883551,,
,7921.0,1484.0,6640.0,1033.0,1280.0,1932.0,3184.0,,,,-0.241692466116698,-2.69148206300623,-0.398885379668154,,-4.333177251137238,,
,7921.0,1484.0,6639.0,1034.0,1278.0,1931.0,3174.0,,,,-0.242000168196943,-2.69158893870222,-0.397913224172211,,-4.581958979073495,,
,7923.0,1483.0,6640.0,1032.0,1287.0,1929.0,3161.0,,,,-0.241878727794815,-2.69213976156577,-0.39780112293546,,-4.8205094228059675,,
,7926.0,1486.0,6639.0,1032.0,1291.0,1939.0,3171.0,,,,-0.241999368991336,-2.69174643330838,-0.398108521611238,,-5.042577219641555,,
,7922.0,1484.0,6638.0,1032.0,1281.0,1936.0,3188.0,,,,-0.241881602768323,-2.69203606694598,-0.398203795635134,,-5.242077751993405,,
,7923.0,1484.0,6641.0,1032.0,1287.0,1938.0,3185.0,,,,-0.241951617369358,-2.69178423467051,-0.39873036843554,,-5.413722048387715,,
,7925.0,1485.0,6642.0,1035.0,1281.0,1935.0,3177.0,,,,-0.242130854260038,-2.6919515652932,-0.398564355655511,,-5.55362547788442,,
,7925.0,1487.0,6642.0,1034.0,1292.0,1923.0,3164.0,,,,-0.242051776615735,-2.69188947274874,-0.399043176198154,,-5.659834406152295,,
,7925.0,1486.0,6639.0,1032.0,1287.0,1934.0,3160.0,,,,-0.24231916932153,-2.69229490508152,-0.399073076202235,,-5.732714737061501,,
,7926.0,1484.0,6642.0,1032.0,1287.0,1935.0,3155.0,,,,-0.242243692585671,-2.69226140839364,-0.399115585038388,,-5.775157243789274,,
,7927.0,1489.0,6644.0,1035.0,1296.0,1934.0,3157.0,,,,-0.242143182063205,-2.69239195458535,-0.398581564180368,,-5.792568716803908,,
,7926.0,1484.0,6644.0,1034.0,1315.0,1930.0,3163.0,,,,-0.242164017477647,-2.69228767465294,-0.398481809602305,,-5.792633788912923,,
,7926.0,1487.0,6639.0,1032.0,1295.0,1934.0,3181.0,,,,-0.242133471322744,-2.69219638138561,-0.398715660591806,,-5.784849010292943,,
2025-08-07 00:30:10,7927.0,1489.0,6641.0,1035.0,1303.0,1934.0,3168.0,,,2025/08/07 12:30:10 AM,-0.242116555494707,-2.69211762083437,-0.39795505189815,,-5.779847716787489,,
,7927.0,1490.0,6642.0,1034.0,1290.0,1927.0,3163.0,,,,-0.242031524919389,-2.69226326376793,-0.399030398855719,,-5.788550802311305,,
,7926.0,1485.0,6642.0,1036.0,1298.0,1926.0,3167.0,,,,-0.241991658615261,-2.69232298963545,-0.399466513618677,,-5.821194009513376,,
,7929.0,1487.0,6641.0,1035.0,1278.0,1926.0,3173.0,,,,-0.242260504955842,-2.69222240968434,-0.39842623620383,,-5.886296168429982,,
,7930.0,1487.0,6643.0,1036.0,1307.0,1929.0,3175.0,,,,-0.242177732293742,-2.69229367470014,-0.398282281758397,,-5.989644171018342,,
,7928.0,1488.0,6643.0,1034.0,1295.0,1927.0,3179.0,,,,-0.242327802927421,-2.69246069368395,-0.398875094668445,,-6.133378239936936,,
,7932.0,1490.0,6642.0,1035.0,1290.0,1935.0,3161.0,,,,-0.242131953371846,-2.69242643375976,-0.39910880050904,,-6.31526379012682,,
,7932.0,1487.0,6642.0,1033.0,1280.0,1939.0,3177.0,,,,-0.24228485926745,-2.69258755086867,-0.399979471729205,,-6.528232436763469,,
,7934.0,1489.0,6646.0,1039.0,1265.0,1931.0,3181.0,,,,-0.24226827646481,-2.69268096057932,-0.399204518732479,,-6.760263330363109,,
,7931.0,1488.0,6643.0,1035.0,1273.0,1935.0,3180.0,,,,-0.242627885872203,-2.69301442433872,-0.39891182334172,,-6.994656349991423,,
,7931.0,1488.0,6646.0,1038.0,1305.0,1937.0,3168.0,,,,-0.242497744999385,-2.69277756872408,-0.400851606528578,,-7.21072069287357,,
,7931.0,1490.0,6644.0,1035.0,1307.0,1938.0,3167.0,,,,-0.242756502815576,-2.69304428103678,-0.400004530387689,,-7.384866820834865,,
,7936.0,1490.0,6646.0,1038.0,1302.0,1932.0,3152.0,,,,-0.242695403155151,-2.69301443553406,-0.400379342060719,,-7.492048664381708,,
,7932.0,1490.0,6647.0,1038.0,1295.0,1936.0,3155.0,,,,-0.242741128101228,-2.69312891244255,-0.400797557730738,,-7.507460459333508,,
,7933.0,1490.0,6644.0,1034.0,1283.0,1932.0,3165.0,,,,-0.242957786343279,-2.69331980782263,-0.401012425486746,,-7.408354546192224,,
,7933.0,1490.0,6648.0,1035.0,1279.0,1932.0,3162.0,,,,-0.242920167745522,-2.69323082319663,-0.400331871553358,,-7.17581965768696,,
,7934.0,1491.0,6644.0,1038.0,1289.0,1934.0,3166.0,,,,-0.242852898444291,-2.69331995135117,-0.400971561389037,,-6.796349213768212,,
,7938.0,1493.0,6647.0,1039.0,1288.0,1937.0,3156.0,,,,-0.242817597003765,-2.6931011770482,-0.400171880758944,,-6.263038803081465,,
,7936.0,1491.0,6648.0,1038.0,1304.0,1924.0,3170.0,,,,-0.2428738420071,-2.69308956775529,-0.400827501560011,,-5.5762815804190815,,
,7936.0,1492.0,6647.0,1036.0,1311.0,1934.0,3176.0,,,,-0.242691014891086,-2.69317551934737,-0.400289184002417,,-4.743878077336675,,
,7940.0,1495.0,6646.0,1038.0,1269.0,1931.0,3169.0,,,,-0.242806221083027,-2.69327718331389,-0.399952530966284,,-3.7805392450251785,,
,7938.0,1494.0,6647.0,1038.0,1277.0,1932.0,3177.0,,,,-0.242583820995347,-2.69344611589631,-0.401587238429431,,-2.706831723173608,,
,7938.0,1492.0,6648.0,1039.0,1298.0,1934.0,3185.0,,,,-0.242488117386991,-2.69341298062974,-0.400841426622678,,-1.5476820747162425,,
,7937.0,1494.0,6647.0,1041.0,1282.0,1934.0,3179.0,,,,-0.242735897074608,-2.69345831676347,-0.399634593062246,,-0.3306096971402178,,
,7940.0,1493.0,6649.0,1040.0,1302.0,1935.0,3185.0,,,,-0.242605618652028,-2.69377851898734,-0.401491102466377,,0.9161144348875511,,
,7944.0,1493.0,6647.0,1038.0,1306.0,1941.0,3191.0,,,,-0.242719291418231,-2.69349008010189,-0.400137388289483,,2.165189139120907,,
,7939.0,1492.0,6649.0,1037.0,1314.0,1942.0,3192.0,,,,-0.243288028331688,-2.69342834212464,-0.400374294776848,,3.391721124156322,,
,7940.0,1495.0,6648.0,1039.0,1312.0,1938.0,3188.0,,,,-0.243227166731422,-2.69316260121232,-0.400429779947413,,4.57426501350608,,
,7943.0,1497.0,6648.0,1039.0,1320.0,1932.0,3187.0,,,,-0.242808873208502,-2.69345708124984,-0.399351192756031,,5.695405060652197,,
,7943.0,1494.0,6649.0,1039.0,1318.0,1929.0,3179.0,,,,-0.242885506723025,-2.69347847324083,-0.4008312238065,,6.741869796000331,,
,7944.0,1496.0,6646.0,1038.0,1304.0,1932.0,3196.0,,,,-0.2429618674279,-2.69381301818256,-0.401352871469153,,7.704215745892732,,
,7945.0,1495.0,6650.0,1040.0,1305.0,1933.0,3182.0,,,,-0.242980074967377,-2.69337804634026,-0.400042667000333,,8.576155683999561,,
,7946.0,1496.0,6648.0,1039.0,1284.0,1934.0,3189.0,,,,-0.243082338469509,-2.69333900745358,-0.400841359393599,,9.353641967339398,,
,7945.0,1497.0,6650.0,1040.0,1284.0,1931.0,3184.0,,,,-0.242971800216406,-2.6933308778472,-0.400347819621953,,10.033844153169015,,
,7944.0,1496.0,6648.0,1037.0,1301.0,1929.0,3174.0,,,,-0.242907859867853,-2.69345273386132,-0.401136129936635,,10.614175982432531,,
,7943.0,1498.0,6647.0,1037.0,1289.0,1934.0,3169.0,,,,-0.242853382066287,-2.69367625714122,-0.401843628666799,,11.091522820773852,,
,7943.0,1497.0,6647.0,1040.0,1286.0,1937.0,3154.0,,,,-0.242822438487825,-2.69368011227762,-0.401298716909845,,11.461793256827173,,
,7941.0,1495.0,6647.0,1036.0,1290.0,1936.0,3150.0,,,,-0.243044364454773,-2.69351554371126,-0.401109260665688,,11.719870204080467,,
,7945.0,1496.0,6646.0,1038.0,1284.0,1935.0,3163.0,,,,-0.242965521918493,-2.69345560600457,-0.400914807719267,,11.859975027191487,,
,7943.0,1490.0,6644.0,1034.0,1315.0,1937.0,3187.0,,,,-0.243015015881432,-2.69296910016971,-0.400703398568077,,11.876393044020007,,
,7942.0,1488.0,6640.0,1037.0,1297.0,1929.0,3169.0,,,,-0.242943897715295,-2.69272925322782,-0.400752538363477,,11.764450922575511,,
,7938.0,1483.0,6635.0,1034.0,1266.0,1930.0,3166.0,,,,-0.242824089360022,-2.69320299835138,-0.401261281387663,,11.521595542748928,,
,7936.0,1480.0,6626.0,1030.0,1322.0,1945.0,3155.0,,,,-0.242751987751363,-2.69342025902251,-0.400960196565043,,11.14840648065882,,
,7931.0,1475.0,6617.0,1030.0,1293.0,1921.0,3157.0,,,,-0.242940110390062,-2.69339132570922,-0.400765154623487,,10.64938289928855,,
,7927.0,1471.0,6612.0,1028.0,1304.0,1936.0,3156.0,,,,-0.242873297315677,-2.69357782174075,-0.400530869240085,,10.03337855840698,,
,7922.0,1469.0,6606.0,1025.0,1302.0,1938.0,3149.0,,,,-0.242922850865098,-2.69364955330834,-0.401332355721641,,9.313610494755972,,
,7920.0,1467.0,6598.0,1024.0,1312.0,1944.0,3164.0,,,,-0.24294586684274,-2.6938825784687,-0.400481166444944,,8.507228976010978,,
,7916.0,1462.0,6594.0,1023.0,1313.0,1944.0,3179.0,,,,-0.243184313744718,-2.69399113687137,-0.400957493263385,,7.634497302462534,,
,7912.0,1461.0,6589.0,1023.0,1314.0,1939.0,3180.0,,,,-0.243228992456153,-2.69434299793499,-0.402606436190338,,6.717678399521766,,
,7907.0,1458.0,6583.0,1019.0,1307.0,1937.0,3184.0,,,,-0.243421610650943,-2.69424055442352,-0.402194310731742,,5.779753005028488,,
,7906.0,1458.0,6583.0,1017.0,1307.0,1925.0,3180.0,,,,-0.243515524851652,-2.69404154129746,-0.402683386025059,,4.843100207313699,,
,7901.0,1456.0,6579.0,1017.0,1302.0,1933.0,3158.0,,,,-0.243519922667723,-2.6941558649137,-0.403350317119658,,3.928259815368907,,
,7897.0,1456.0,6578.0,1018.0,1294.0,1933.0,3180.0,,,,-0.243601283218071,-2.69418608610018,-0.40262867759503,,3.0528747835023315,,
,7893.0,1453.0,6576.0,1016.0,1291.0,1937.0,3170.0,,,,-0.243573292225142,-2.69427589568939,-0.402973579652161,,2.2308865695633,,
,7893.0,1456.0,6574.0,1016.0,1304.0,1931.0,3165.0,,,,-0.243742226071148,-2.6943199289257,-0.403277844712088,,1.4720296909345219,,
,7891.0,1451.0,6572.0,1013.0,1297.0,1930.0,3158.0,,,,-0.24367072470309,-2.6938943481323,-0.403435673573968,,0.7816444859460395,,
,7886.0,1454.0,6572.0,1017.0,1289.0,1923.0,3161.0,,,,-0.243852885885068,-2.69412314918798,-0.403452260477988,,0.1607998298874583,,
,7888.0,1450.0,6570.0,1015.0,1292.0,1928.0,3154.0,,,,-0.243815845953748,-2.69415616464257,-0.403340454626859,,-0.3933076751654899,,
,7887.0,1450.0,6568.0,1013.0,1281.0,1920.0,3145.0,,,,-0.24376075348182,-2.6944354027796,-0.403022384913416,,-0.8867317669942933,,
,7883.0,1452.0,6566.0,1015.0,1271.0,1925.0,3156.0,,,,-0.243863417825281,-2.6940546712607,-0.403562855343836,,-1.3279983990061355,,
,7880.0,1449.0,6565.0,1014.0,1277.0,1912.0,3166.0,,,,-0.243890457580478,-2.69421938429866,-0.403111665994406,,-1.7272424273582894,,
,7877.0,1448.0,6565.0,1013.0,1285.0,1919.0,3152.0,,,,-0.243773576802592,-2.6941472478486,-0.403039179802154,,-2.0953268763986554,,
,7876.0,1448.0,6563.0,1010.0,1297.0,1929.0,3151.0,,,,-0.24384587472997,-2.69441180466641,-0.403246019674587,,-2.4430035193707824,,
,7875.0,1448.0,6565.0,1011.0,1284.0,1933.0,3146.0,,,,-0.244141852564428,-2.6944401583822,-0.404552962266988,,-2.7801611665481314,,
,7874.0,1449.0,6561.0,1011.0,1284.0,1936.0,3161.0,,,,-0.244028843679672,-2.69457459504465,-0.404546997221041,,-3.115194914088234,,
,7873.0,1448.0,6562.0,1011.0,1287.0,1938.0,3159.0,,,,-0.244100357777782,-2.69475144436278,-0.404720828232193,,-3.454517782093875,,
,7870.0,1448.0,6559.0,1010.0,1286.0,1928.0,3171.0,,,,-0.244204371613655,-2.69488609748512,-0.404857329488293,,-3.8022269454952617,,
,7869.0,1445.0,6559.0,1008.0,1315.0,1927.0,3167.0,,,,-0.244141835952597,-2.69509011077195,-0.404469055136116,,-4.159930345514411,,
,7869.0,1446.0,6560.0,1012.0,1331.0,1935.0,3164.0,,,,-0.244301431151381,-2.69493958124251,-0.405374293513845,,-4.5267350794985015,,
,7867.0,1447.0,6559.0,1010.0,1324.0,1934.0,3169.0,,,,-0.244246175043784,-2.69469455181507,-0.405574716001839,,-4.899395234085347,,
,7866.0,1446.0,6557.0,1012.0,1327.0,1931.0,3188.0,,,,-0.244201863862972,-2.69527114682876,-0.405544153551498,,-5.272612319309139,,
,7866.0,1446.0,6556.0,1008.0,1331.0,1938.0,3176.0,,,,-0.244176606806897,-2.69496586678764,-0.405860369634736,,-5.639475106577468,,
,7863.0,1445.0,6558.0,1011.0,1342.0,1941.0,3183.0,,,,-0.244136612004876,-2.69485399068662,-0.40551181013425,,-5.99201704580751,,
,7864.0,1445.0,6557.0,1010.0,1334.0,1939.0,3183.0,,,,-0.244266217427146,-2.69505612575255,-0.405693962468695,,-6.321859096007097,,
,7862.0,1446.0,6558.0,1010.0,1336.0,1941.0,3181.0,,,,-0.24429254858523,-2.69508405062882,-0.405430323247531,,-6.6208955961401115,,
,7861.0,1444.0,6556.0,1010.0,1322.0,1933.0,3170.0,,,,-0.244272370543329,-2.69510774215452,-0.40514191125195,,-6.881973468606969,,
,7861.0,1443.0,6557.0,1008.0,1333.0,1938.0,3147.0,,,,-0.244013732902565,-2.69483259276784,-0.405440522314396,,-7.099512858878251,,
,7862.0,1443.0,6558.0,1010.0,1333.0,1940.0,3145.0,,,,-0.244227344279461,-2.69517808791265,-0.40536954941131,,-7.2700208289307815,,
,7860.0,1445.0,6555.0,1009.0,1327.0,1933.0,3155.0,,,,-0.244338374690873,-2.69515310040858,-0.40536549483793,,-7.392457882284577,,
,7857.0,1442.0,6554.0,1007.0,1317.0,1930.0,3164.0,,,,-0.244029595992237,-2.69556313203547,-0.404572962460728,,-7.468428371728168,,
,7857.0,1444.0,6555.0,1010.0,1309.0,1932.0,3151.0,,,,-0.244283349676831,-2.69544531075689,-0.405759383905113,,-7.502179085760998,,
,7858.0,1444.0,6552.0,1010.0,1319.0,1936.0,3148.0,,,,-0.244404669212269,-2.69556807386318,-0.406549314557862,,-7.500404741701081,,
,7857.0,1446.0,6556.0,1010.0,1292.0,1936.0,3143.0,,,,-0.244362894166599,-2.69542634304534,-0.405935885534883,,-7.471873713213889,,
,7856.0,1444.0,6555.0,1005.0,1304.0,1941.0,3153.0,,,,-0.24443605053885,-2.69533183498263,-0.406303036593019,,-7.426900383963481,,
,7857.0,1445.0,6553.0,1009.0,1316.0,1941.0,3139.0,,,,-0.244528736154369,-2.6954791746724,-0.405958750279368,,-7.376699973929576,,
,7856.0,1446.0,6553.0,1007.0,1317.0,1942.0,3142.0,,,,-0.244515037560027,-2.69529147717285,-0.405535014684031,,-7.332666210315589,,
,7854.0,1442.0,6552.0,1005.0,1340.0,1945.0,3146.0,,,,-0.244424852756825,-2.6952855930248,-0.405842692362856,,-7.305612251935751,,
,7851.0,1443.0,6554.0,1009.0,1340.0,1941.0,3156.0,,,,-0.244546398648943,-2.69543027773256,-0.406088851079991,,-7.305012848892449,,
,7852.0,1446.0,6553.0,1008.0,1328.0,1930.0,3163.0,,,,-0.244598117100819,-2.69588142162982,-0.406801261236301,,-7.338283193833055,,
,7852.0,1444.0,6553.0,1009.0,1324.0,1935.0,3153.0,,,,-0.244580526357878,-2.69541982516678,-0.406285164144134,,-7.410128825059953,,
,7851.0,1442.0,6554.0,1006.0,1314.0,1939.0,3159.0,,,,-0.244644646720814,-2.69561218552824,-0.405774492218114,,-7.522001516883847,,
,7851.0,1441.0,6552.0,1005.0,1327.0,1943.0,3165.0,,,,-0.244597988998418,-2.69565435852648,-0.406504024686498,,-7.6716973328616485,,
,7853.0,1443.0,6555.0,1004.0,1328.0,1944.0,3185.0,,,,-0.244484246520455,-2.69575375127132,-0.406388863740227,,-7.853132892141043,,
,7850.0,1443.0,6554.0,1009.0,1307.0,1948.0,3181.0,,,,-0.244626856056098,-2.69572495881988,-0.406918449770757,,-8.056331949459468,,
,7853.0,1443.0,6553.0,1007.0,1294.0,1942.0,3179.0,,,,-0.244632452864065,-2.69598229642375,-0.406622217211573,,-8.26764490964464,,
,7850.0,1442.0,6553.0,1011.0,1305.0,1932.0,3167.0,,,,-0.244804292244001,-2.69603327678339,-0.407057944466724,,-8.470209152487454,,
,7850.0,1444.0,6553.0,1007.0,1323.0,1937.0,3163.0,,,,-0.244751377162454,-2.69582907462637,-0.407198608433717,,-8.64464040720181,,
,7851.0,1443.0,6552.0,1008.0,1335.0,1940.0,3146.0,,,,-0.244742756047782,-2.69560941168911,-0.40732077346968,,-8.769927970526542,,
,7847.0,1442.0,6550.0,1005.0,1341.0,1942.0,3148.0,,,,-0.244816308321181,-2.69595334390461,-0.406202304283106,,-8.824491195999967,,
,7849.0,1444.0,6551.0,1006.0,1319.0,1945.0,3158.0,,,,-0.244863747685457,-2.69581419328235,-0.408309648994149,,-8.78734139843486,,
,7847.0,1442.0,6553.0,1008.0,1327.0,1943.0,3155.0,,,,-0.244856188329984,-2.6958014615637,-0.40817085048244,,-8.639281338714506,,
,7849.0,1444.0,6552.0,1007.0,1324.0,1944.0,3151.0,,,,-0.24486753798609,-2.69598433479872,-0.4075364003368,,-8.36406391273874,,
,7847.0,1442.0,6550.0,1007.0,1307.0,1943.0,3144.0,,,,-0.244653321625529,-2.69591486870736,-0.407248273497696,,-7.949424408285076,,
,7850.0,1441.0,6549.0,1006.0,1317.0,1944.0,3128.0,,,,-0.244890221098813,-2.69574761080467,-0.407206910224507,,-7.387899746986181,,
,7850.0,1443.0,6552.0,1008.0,1325.0,1941.0,3143.0,,,,-0.244758883679846,-2.69597192683574,-0.406794233122216,,-6.677356465711519,,
,7851.0,1445.0,6550.0,1008.0,1319.0,1939.0,3138.0,,,,-0.244727715532103,-2.69597931738912,-0.406544352692412,,-5.821168640164584,,
,7847.0,1443.0,6552.0,1007.0,1310.0,1939.0,3161.0,,,,-0.244922644433192,-2.69582044287919,-0.406303042677,,-4.828017642008288,,
,7848.0,1441.0,6550.0,1009.0,1321.0,1941.0,3159.0,,,,-0.245001165342871,-2.69593177211854,-0.407702482303509,,-3.711325521348929,,
,7852.0,1444.0,6552.0,1009.0,1324.0,1937.0,3163.0,,,,-0.244926267817723,-2.69616991967064,-0.406629760870982,,-2.4883781514035532,,
,7849.0,1443.0,6552.0,1009.0,1325.0,1939.0,3155.0,,,,-0.244961681507822,-2.69575592667123,-0.406813180283289,,-1.1792355210153274,,
,7849.0,1446.0,6549.0,1007.0,1347.0,1939.0,3152.0,,,,-0.245038992113695,-2.69586352826383,-0.406108236170587,,0.19444426788547484,,
,7846.0,1440.0,6550.0,1004.0,1318.0,1942.0,3153.0,,,,-0.244877920194576,-2.69602831299811,-0.406808285084331,,1.6105313582772245,,
,7851.0,1443.0,6553.0,1007.0,1324.0,1946.0,3136.0,,,,-0.244905596237069,-2.69589354604219,-0.407032611773929,,3.0473787098700584,,
,7852.0,1443.0,6549.0,1007.0,1329.0,1942.0,3136.0,,,,-0.245076654627773,-2.69548328239935,-0.407353120527206,,4.484517181924264,,
,7847.0,1442.0,6551.0,1009.0,1328.0,1941.0,3145.0,,,,-0.244901173862103,-2.69592637148664,-0.406538979419249,,5.903050931404241,,
,7851.0,1444.0,6549.0,1009.0,1337.0,1947.0,3145.0,,,,-0.245118312201007,-2.6960019307775,-0.406409909496773,,7.285763397000233,,
,7850.0,1444.0,6551.0,1009.0,1325.0,1942.0,3154.0,,,,-0.245152945069924,-2.69598695780534,-0.407747431585742,,8.616987443320792,,
,7851.0,1444.0,6552.0,1008.0,1337.0,1936.0,3165.0,,,,-0.245331752140976,-2.69598511693132,-0.40715150771076,,9.882321512765271,,
,7851.0,1444.0,6552.0,1008.0,1306.0,1929.0,3177.0,,,,-0.245093334037091,-2.6961760421667,-0.407595114673567,,11.068283452964321,,
,7850.0,1442.0,6550.0,1009.0,1328.0,1940.0,3139.0,,,,-0.245405960867366,-2.69620128895255,-0.408451803091484,,12.161987185557539,,
,7851.0,1446.0,6551.0,1008.0,1318.0,1940.0,3151.0,,,,-0.24539036980538,-2.69626199793585,-0.407436054579441,,13.150910925945174,,
,7850.0,1444.0,6552.0,1007.0,1304.0,1943.0,3152.0,,,,-0.245494176922749,-2.69638593452418,-0.407836952675649,,14.022806407714693,,
,7851.0,1444.0,6551.0,1009.0,1290.0,1943.0,3142.0,,,,-0.245434948901341,-2.69634044643733,-0.409757099540397,,14.765780860922762,,
,7852.0,1442.0,6551.0,1004.0,1301.0,1946.0,3164.0,,,,-0.245486060771298,-2.69681741937511,-0.409035599678838,,15.368567437769336,,
,7849.0,1445.0,6552.0,1008.0,1304.0,1941.0,3154.0,,,,-0.245680688108985,-2.6966873749567,-0.40886392826882,,15.820982637831252,,
,7852.0,1445.0,6552.0,1010.0,1303.0,1940.0,3148.0,,,,-0.245609958150553,-2.69642852065915,-0.409233804523714,,16.11454833027459,,
,7852.0,1444.0,6549.0,1010.0,1322.0,1951.0,3142.0,,,,-0.245670465457783,-2.69671366283483,-0.40786742538739,,16.243230706054852,,
,7851.0,1444.0,6552.0,1009.0,1296.0,1923.0,3159.0,,,,-0.245611278075707,-2.69685866612013,-0.408778925873786,,16.204221412195174,,
2025-08-07 00:30:11,7854.0,1444.0,6553.0,1010.0,1297.0,1935.0,3151.0,,,2025/08/07 12:30:11 AM,-0.245682434945649,-2.69670332680392,-0.408391087488697,,15.998662296813773,,
,7852.0,1445.0,6550.0,1008.0,1310.0,1939.0,3147.0,,,,-0.245541596135065,-2.69644110710337,-0.408184345859672,,15.632201269562362,,
,7852.0,1444.0,6553.0,1009.0,1309.0,1948.0,3157.0,,,,-0.245406736746272,-2.69680438981257,-0.408574627143461,,15.115269481466267,,
,7853.0,1446.0,6550.0,1010.0,1316.0,1933.0,3155.0,,,,-0.245596477350054,-2.69632941181622,-0.407837636437857,,14.462993916514385,,
,7854.0,1449.0,6550.0,1010.0,1333.0,1944.0,3144.0,,,,-0.245430441937648,-2.69654732327735,-0.408131926186813,,13.694704212446773,,
,7855.0,1448.0,6553.0,1008.0,1325.0,1944.0,3154.0,,,,-0.245604244573303,-2.69658239393769,-0.408381554137713,,12.833051015613009,,
,7853.0,1448.0,6552.0,1009.0,1314.0,1952.0,3172.0,,,,-0.245655445930244,-2.69649676852787,-0.407992845981363,,11.90281268351041,,
,7854.0,1445.0,6552.0,1009.0,1331.0,1947.0,3160.0,,,,-0.245755043476551,-2.69657257002404,-0.40939553116908,,10.929513618296598,,
,7856.0,1445.0,6553.0,1010.0,1341.0,1944.0,3156.0,,,,-0.245581783911392,-2.69659832765306,-0.408380201907941,,9.938001024982904,,
,7857.0,1447.0,6554.0,1010.0,1341.0,1944.0,3169.0,,,,-0.24559368711758,-2.69649099287909,-0.408535307505495,,8.951124836398181,,
,7856.0,1445.0,6554.0,1010.0,1324.0,1939.0,3181.0,,,,-0.245588156985433,-2.69691251005445,-0.409488838198154,,7.988642058366015,,
,7855.0,1447.0,6554.0,1010.0,1320.0,1938.0,3186.0,,,,-0.24563192894341,-2.69714280611652,-0.408987850414119,,7.066429752533215,,
,7858.0,1447.0,6554.0,1012.0,1338.0,1941.0,3168.0,,,,-0.24570246703522,-2.69739116721865,-0.40880249180022,,6.196048799742531,,
,7859.0,1447.0,6555.0,1011.0,1314.0,1942.0,3163.0,,,,-0.24550278172702,-2.69697514608046,-0.408706835115214,,5.384660541965121,,
,7859.0,1448.0,6556.0,1011.0,1325.0,1938.0,3157.0,,,,-0.24553006246108,-2.6970691593166,-0.408908853970378,,4.635265207383623,,
,7858.0,1446.0,6551.0,1010.0,1326.0,1945.0,3144.0,,,,-0.24534165284634,-2.69702046402668,-0.409152307812899,,3.947207161739714,,
,7859.0,1448.0,6557.0,1011.0,1328.0,1942.0,3149.0,,,,-0.245569485728266,-2.69717898934676,-0.407695134683899,,3.316877825541134,,
,7861.0,1448.0,6556.0,1011.0,1330.0,1941.0,3156.0,,,,-0.245640334142452,-2.69715588534273,-0.407637239668012,,2.738541293170712,,
,7860.0,1450.0,6554.0,1011.0,1332.0,1946.0,3141.0,,,,-0.245483005383092,-2.69699782659403,-0.408602687992364,,2.2052083582022415,,
,7861.0,1447.0,6555.0,1011.0,1301.0,1932.0,3130.0,,,,-0.245625890859425,-2.69709210740459,-0.409757823234377,,1.7094899224289963,,
,7861.0,1448.0,6554.0,1012.0,1311.0,1935.0,3137.0,,,,-0.245622615702291,-2.6969403953997,-0.409133037340845,,1.2443691225918134,,
,7861.0,1449.0,6556.0,1009.0,1319.0,1936.0,3133.0,,,,-0.245722452841688,-2.69713999282672,-0.409071818505986,,0.8038418678844156,,
,7861.0,1449.0,6556.0,1013.0,1306.0,1939.0,3134.0,,,,-0.245619508218897,-2.69684549378991,-0.409318886573303,,0.38338724942733715,,
,7860.0,1449.0,6553.0,1011.0,1322.0,1943.0,3147.0,,,,-0.245630159358805,-2.69736434247446,-0.409434831557407,,-0.01975773833533231,,
,7861.0,1451.0,6557.0,1013.0,1318.0,1942.0,3140.0,,,,-0.245546542093187,-2.6970070733043,-0.410087539890238,,-0.4065305125907301,,
,7865.0,1451.0,6558.0,1012.0,1326.0,1943.0,3136.0,,,,-0.24585470058007,-2.69705633654838,-0.409231323647657,,-0.7761780801366607,,
,7864.0,1453.0,6555.0,1014.0,1329.0,1945.0,3144.0,,,,-0.245795875283972,-2.69695527333603,-0.408731339052403,,-1.1265741907724884,,
,7862.0,1448.0,6556.0,1011.0,1336.0,1944.0,3154.0,,,,-0.245512413287251,-2.69724145737481,-0.409569212515486,,-1.4546804761680936,,
,7865.0,1451.0,6557.0,1013.0,1336.0,1950.0,3152.0,,,,-0.245518487144179,-2.69697215572443,-0.409151777308622,,-1.757098188200382,,
,7866.0,1453.0,6561.0,1014.0,1338.0,1952.0,3162.0,,,,-0.245691926678488,-2.6969722933022,-0.408819163453681,,-2.0306467632420633,,
,7866.0,1452.0,6562.0,1012.0,1335.0,1951.0,3174.0,,,,-0.245763316538336,-2.69701722009723,-0.408184594800294,,-2.2729031199622036,,
,7866.0,1453.0,6559.0,1013.0,1331.0,1946.0,3149.0,,,,-0.245611102003263,-2.69694634363614,-0.408523346968708,,-2.482642233338517,,
,7865.0,1455.0,6559.0,1014.0,1335.0,1943.0,3144.0,,,,-0.245740777695546,-2.69683713427285,-0.409144227426749,,-2.6601333070026616,,
,7867.0,1455.0,6560.0,1013.0,1336.0,1946.0,3135.0,,,,-0.245544464849035,-2.69656330976603,-0.408395000740185,,-2.8072636352589613,,
,7868.0,1455.0,6561.0,1013.0,1319.0,1946.0,3155.0,,,,-0.245583059996272,-2.69729035688325,-0.408271487309171,,-2.9274811523812057,,
,7866.0,1454.0,6557.0,1013.0,1305.0,1942.0,3144.0,,,,-0.245830540463433,-2.6972763287246,-0.4086982422454,,-3.025564696379791,,
,7868.0,1453.0,6557.0,1016.0,1309.0,1937.0,3146.0,,,,-0.245538506687396,-2.69704172449184,-0.408411804231712,,-3.107246773411562,,
,7870.0,1454.0,6560.0,1014.0,1330.0,1934.0,3147.0,,,,-0.245764482246414,-2.69711000108175,-0.408525573304032,,-3.1787262320075933,,
,7871.0,1452.0,6560.0,1012.0,1319.0,1937.0,3160.0,,,,-0.245612102507456,-2.69713445365527,-0.408450397090002,,-3.246117390900319,,
,7866.0,1451.0,6556.0,1013.0,1323.0,1939.0,3174.0,,,,-0.245615518906516,-2.69681368672754,-0.408960684807774,,-3.3148876862238508,,
,7869.0,1454.0,6557.0,1013.0,1323.0,1929.0,3177.0,,,,-0.245176520385152,-2.69673934776933,-0.40797926180133,,-3.389337596429475,,
,7868.0,1452.0,6555.0,1012.0,1316.0,1929.0,3174.0,,,,-0.245428306802965,-2.69671950343033,-0.407961324961653,,-3.472174149006735,,
,7867.0,1451.0,6557.0,1010.0,1330.0,1932.0,3168.0,,,,-0.245391529397116,-2.69659081144187,-0.408315738172793,,-3.564222538265699,,
,7863.0,1445.0,6551.0,1010.0,1325.0,1935.0,3154.0,,,,-0.245352821413299,-2.69637188302073,-0.407411715725067,,-3.664309468636301,,
,7862.0,1445.0,6546.0,1007.0,1343.0,1943.0,3151.0,,,,-0.245081274049186,-2.69633117888945,-0.408339962680293,,-3.7693373317920074,,
,7862.0,1441.0,6539.0,1007.0,1329.0,1950.0,3160.0,,,,-0.245104402138583,-2.69616285709319,-0.407017857803943,,-3.8745510351922166,,
,7858.0,1433.0,6527.0,1007.0,1320.0,1949.0,3158.0,,,,-0.245068537535659,-2.69617807884441,-0.407033670047409,,-3.9739802432123046,,
,7850.0,1430.0,6521.0,1004.0,1344.0,1942.0,3160.0,,,,-0.244670540954853,-2.69595815122887,-0.406251096172695,,-4.06102035655488,,
,7847.0,1427.0,6515.0,1000.0,1336.0,1942.0,3141.0,,,,-0.244642053035778,-2.69587516739068,-0.406897740912346,,-4.129097845940929,,
,7844.0,1424.0,6506.0,1000.0,1349.0,1946.0,3133.0,,,,-0.244797949073436,-2.69591709303025,-0.406977127760169,,-4.1723525733197135,,
,7836.0,1420.0,6499.0,999.0,1347.0,1947.0,3127.0,,,,-0.24473643734999,-2.69598067660823,-0.405736889650189,,-4.186264682197825,,
,7828.0,1417.0,6492.0,995.0,1344.0,1953.0,3143.0,,,,-0.244626282417162,-2.69599006774789,-0.406648435451261,,-4.168158308862148,,
,7825.0,1415.0,6489.0,995.0,1357.0,1949.0,3141.0,,,,-0.244733912367932,-2.69588366276506,-0.406316656688284,,-4.117527919132538,,
,7824.0,1414.0,6485.0,993.0,1339.0,1939.0,3148.0,,,,-0.244684073553727,-2.69604203627052,-0.406436643021904,,-4.036152536844782,,
,7818.0,1412.0,6480.0,990.0,1344.0,1936.0,3149.0,,,,-0.244704289331905,-2.69598163948437,-0.406499635611565,,-3.9279851177961853,,
,7811.0,1409.0,6477.0,988.0,1330.0,1944.0,3138.0,,,,-0.24490076042282,-2.69586115123031,-0.406596488271028,,-3.7988263720902693,,
,7811.0,1409.0,6474.0,991.0,1337.0,1946.0,3133.0,,,,-0.244825823603497,-2.69605712878989,-0.406103981269415,,-3.655812941441902,,
,7808.0,1411.0,6472.0,990.0,1340.0,1939.0,3142.0,,,,-0.244924885335793,-2.69547038874743,-0.406816144375217,,-3.506767724987934,,
,7805.0,1406.0,6468.0,988.0,1317.0,1934.0,3145.0,,,,-0.244941994864384,-2.69557595556555,-0.407737511406012,,-3.3594739763005474,,
,7802.0,1407.0,6467.0,987.0,1314.0,1933.0,3168.0,,,,-0.245074607028255,-2.69555506459126,-0.407675480911178,,-3.220943665919003,,
,7802.0,1405.0,6465.0,989.0,1316.0,1940.0,3151.0,,,,-0.244967682274752,-2.69557663902018,-0.407070837990393,,-3.096754483375224,,
,7797.0,1408.0,6463.0,989.0,1303.0,1937.0,3130.0,,,,-0.245060124166887,-2.69566913145242,-0.407660573333179,,-2.990529057540929,,
,7793.0,1404.0,6462.0,988.0,1291.0,1948.0,3124.0,,,,-0.244956927331215,-2.69593817897807,-0.407315684235174,,-2.9036242037604203,,
,7789.0,1401.0,6455.0,984.0,1356.0,1951.0,3143.0,,,,-0.245783961109549,-2.69637288486235,-0.410923962035931,,-2.8350859260681522,,
,7789.0,1404.0,6457.0,987.0,1327.0,1934.0,3162.0,,,,-0.246130155044641,-2.69679602862123,-0.412255012546382,,-2.7819056008331806,,
,7787.0,1405.0,6459.0,984.0,1321.0,1941.0,3153.0,,,,-0.2460691193361,-2.69653297481585,-0.411860342386014,,-2.739582860286708,,
,7786.0,1403.0,6455.0,984.0,1316.0,1945.0,3146.0,,,,-0.245760380468554,-2.69665546924004,-0.411260357564309,,-2.702961769076086,,
,7783.0,1399.0,6453.0,984.0,1318.0,1940.0,3152.0,,,,-0.245967806403849,-2.69659574114296,-0.411680121750954,,-2.667262782102108,,
,7781.0,1403.0,6453.0,983.0,1321.0,1940.0,3179.0,,,,-0.245892839442365,-2.69650652476115,-0.411512078180153,,-2.6291911279067692,,
,7780.0,1400.0,6455.0,985.0,1325.0,1945.0,3178.0,,,,-0.245779544199178,-2.69674333448865,-0.411751028593955,,-2.587972459556761,,
,7781.0,1400.0,6451.0,982.0,1315.0,1946.0,3178.0,,,,-0.245814151441533,-2.6964226677882,-0.411206200723001,,-2.546157907101951,,
,7775.0,1398.0,6451.0,981.0,1312.0,1935.0,3170.0,,,,-0.245726401228132,-2.69670217892191,-0.410976773947552,,-2.5100575664480833,,
,7775.0,1401.0,6451.0,987.0,1325.0,1943.0,3163.0,,,,-0.245363334619261,-2.69650453709622,-0.41111044563029,,-2.489701758698612,,
,7776.0,1401.0,6451.0,982.0,1298.0,1945.0,3148.0,,,,-0.245751721430876,-2.69666983709457,-0.410890619642212,,-2.498285210835273,,
,7774.0,1401.0,6450.0,984.0,1295.0,1944.0,3141.0,,,,-0.245820318081921,-2.69635873496478,-0.410796377475124,,-2.5511104857683895,,
,7771.0,1400.0,6447.0,984.0,1303.0,1939.0,3139.0,,,,-0.245648933319143,-2.69651457972406,-0.410546739550905,,-2.6641045416962448,,
,7772.0,1399.0,6448.0,984.0,1300.0,1940.0,3129.0,,,,-0.245591129908632,-2.69605818139146,-0.410775943210279,,-2.8520301859342267,,
,7772.0,1399.0,6447.0,983.0,1305.0,1940.0,3127.0,,,,-0.245675152509773,-2.69639523223623,-0.410905497040842,,-3.1265491160323555,,
,7772.0,1399.0,6448.0,982.0,1309.0,1942.0,3137.0,,,,-0.245407444761131,-2.69652073743357,-0.409974215715806,,-3.494313674650538,,
,7766.0,1397.0,6446.0,979.0,1312.0,1940.0,3140.0,,,,-0.245262780970284,-2.69659546373281,-0.409670950871113,,-3.9552701320198365,,
,7768.0,1399.0,6448.0,982.0,1313.0,1940.0,3137.0,,,,-0.245254456167738,-2.69626636094952,-0.410023484618025,,-4.501348301703442,,
,7768.0,1398.0,6448.0,981.0,1333.0,1940.0,3147.0,,,,-0.245286533950061,-2.6966134738851,-0.408999595419798,,-5.115692518293316,,
,7766.0,1397.0,6445.0,983.0,1326.0,1942.0,3151.0,,,,-0.245100961746578,-2.69619643928789,-0.409748356930228,,-5.772559136059546,,
,7765.0,1397.0,6444.0,981.0,1352.0,1943.0,3162.0,,,,-0.245141312793398,-2.69643902740089,-0.409070425961673,,-6.437966151315528,,
,7767.0,1398.0,6445.0,981.0,1336.0,1943.0,3146.0,,,,-0.245554368455854,-2.696429981891,-0.409774934059085,,-7.071130561660164,,
,7764.0,1396.0,6446.0,981.0,1334.0,1938.0,3133.0,,,,-0.245699972354766,-2.69648004991305,-0.409524784654839,,-7.6266682721506465,,
,7766.0,1397.0,6446.0,983.0,1318.0,1942.0,3135.0,,,,-0.245506614698431,-2.69590090379268,-0.409750912592731,,-8.057461701918859,,
,7761.0,1395.0,6443.0,977.0,1330.0,1941.0,3134.0,,,,-0.245642302472422,-2.69593170794604,-0.409046214030739,,-8.318026994926196,,
,7763.0,1397.0,6442.0,981.0,1314.0,1938.0,3131.0,,,,-0.245428071607094,-2.69601903038354,-0.408300472150267,,-8.368143636116995,,
,7764.0,1397.0,6445.0,982.0,1325.0,1937.0,3146.0,,,,-0.245231329447721,-2.69603819669718,-0.409175703349267,,-8.176452654294128,,
,7764.0,1397.0,6444.0,981.0,1347.0,1941.0,3150.0,,,,-0.245144822284839,-2.6959880632635,-0.408849594457197,,-7.723693154716959,,
,7758.0,1396.0,6442.0,978.0,1334.0,1946.0,3145.0,,,,-0.245148882538541,-2.69603529471257,-0.408835230878711,,-7.005237935853945,,
,7760.0,1394.0,6444.0,980.0,1318.0,1944.0,3143.0,,,,-0.245098055782339,-2.69563342351488,-0.408545240582811,,-6.032614722636342,,
,7760.0,1398.0,6445.0,981.0,1317.0,1940.0,3166.0,,,,-0.244755108761064,-2.69589071739631,-0.408846070170796,,-4.833766633094526,,
,7760.0,1396.0,6444.0,978.0,1315.0,1941.0,3158.0,,,,-0.244849272096693,-2.69610861383714,-0.408119046256206,,-3.451916787182811,,
,7758.0,1394.0,6442.0,978.0,1324.0,1941.0,3153.0,,,,-0.245167624183876,-2.69605009910947,-0.408711719841768,,-1.943052095649355,,
,7758.0,1395.0,6442.0,979.0,1316.0,1944.0,3149.0,,,,-0.245147768446722,-2.69607741370104,-0.408827311955483,,-0.37221242600890525,,
,7758.0,1397.0,6443.0,982.0,1303.0,1952.0,3146.0,,,,-0.245111236875611,-2.69611316252388,-0.409046537842703,,1.191066336940534,,
,7760.0,1396.0,6443.0,979.0,1306.0,1957.0,3148.0,,,,-0.245198162610252,-2.69614068326499,-0.408946449414892,,2.6776878479503607,,
,7758.0,1394.0,6441.0,978.0,1327.0,1945.0,3135.0,,,,-0.245286013613384,-2.69604028421106,-0.410099921368088,,4.023793642124151,,
,7758.0,1396.0,6445.0,981.0,1321.0,1945.0,3136.0,,,,-0.245325080919161,-2.69592106305716,-0.408947535836344,,5.17494097737321,,
,7758.0,1396.0,6441.0,981.0,1315.0,1940.0,3134.0,,,,-0.24536251707909,-2.69586156296448,-0.410009511255033,,6.089280989377318,,
,7758.0,1397.0,6441.0,979.0,1311.0,1938.0,3136.0,,,,-0.245373362510266,-2.69599940896884,-0.410306937650858,,6.73950900871875,,
,7755.0,1397.0,6441.0,977.0,1313.0,1942.0,3133.0,,,,-0.24534455153062,-2.69612308250231,-0.409529749597389,,7.113524887781502,,
,7759.0,1398.0,6441.0,982.0,1332.0,1937.0,3151.0,,,,-0.245286883492966,-2.69606205012272,-0.409811906121587,,7.213890923182011,,
,7761.0,1398.0,6443.0,979.0,1312.0,1940.0,3147.0,,,,-0.245362710195324,-2.695959829952,-0.410459640353907,,7.056285027473563,,
,7755.0,1399.0,6442.0,980.0,1313.0,1941.0,3147.0,,,,-0.245276685291532,-2.69606380049046,-0.41007600061757,,6.667206515772395,,
,7756.0,1395.0,6438.0,977.0,1333.0,1942.0,3153.0,,,,-0.245438934260478,-2.69608935718792,-0.410039204885553,,6.0812045832016945,,
,7758.0,1395.0,6438.0,979.0,1339.0,1945.0,3171.0,,,,-0.245377974766601,-2.69633469192076,-0.409001870368277,,5.337879501893212,,
,7761.0,1398.0,6440.0,982.0,1353.0,1947.0,3155.0,,,,-0.245252893853137,-2.6961147768191,-0.409808332571158,,4.478872203733547,,
,7760.0,1399.0,6440.0,979.0,1340.0,1947.0,3146.0,,,,-0.245157896404416,-2.69563669311741,-0.409638159446949,,3.545024378384147,,
,7760.0,1396.0,6439.0,978.0,1331.0,1947.0,3154.0,,,,-0.245187306127844,-2.69568282510447,-0.408854094569133,,2.5738653254566084,,
,7760.0,1397.0,6440.0,981.0,1334.0,1946.0,3153.0,,,,-0.244867243299515,-2.69536595888508,-0.409247813217641,,1.5975614466338948,,
,7759.0,1396.0,6439.0,984.0,1329.0,1953.0,3155.0,,,,-0.244833921858288,-2.69559266861715,-0.407862842949908,,0.6414418673595663,,
,7760.0,1397.0,6438.0,981.0,1327.0,1947.0,3146.0,,,,-0.244595234674646,-2.69506930374622,-0.407282491675985,,-0.27681829067441477,,
,7759.0,1395.0,6440.0,980.0,1320.0,1942.0,3131.0,,,,-0.244255382972188,-2.69462953105695,-0.407515170433818,,-1.1473195449252096,,
,7762.0,1397.0,6439.0,979.0,1327.0,1948.0,3133.0,,,,-0.24406176065292,-2.69480238457387,-0.406913752021066,,-1.9673791804491783,,
,7761.0,1398.0,6440.0,983.0,1320.0,1948.0,3123.0,,,,-0.243867520396375,-2.69482087899252,-0.406985190612998,,-2.7403580705382296,,
,7762.0,1398.0,6439.0,984.0,1321.0,1946.0,3134.0,,,,-0.243786199146383,-2.69467836924868,-0.406099425965841,,-3.4739827249029047,,
,7761.0,1396.0,6436.0,982.0,1323.0,1942.0,3136.0,,,,-0.244116149174498,-2.69445479252483,-0.407277133389723,,-4.178303307343022,,
,7763.0,1398.0,6440.0,982.0,1303.0,1943.0,3136.0,,,,-0.244035988100029,-2.69448057679539,-0.406614596497398,,-4.863448158636943,,
,7764.0,1399.0,6440.0,982.0,1333.0,1943.0,3153.0,,,,-0.24399606761173,-2.69454698851332,-0.406409143041529,,-5.537346922006672,,
,7764.0,1397.0,6440.0,982.0,1341.0,1942.0,3157.0,,,,-0.243884186195966,-2.69444293813717,-0.406575973943189,,-6.203600153294514,,
,7766.0,1397.0,6440.0,983.0,1335.0,1946.0,3146.0,,,,-0.244147246939946,-2.69425827606057,-0.406955319358783,,-6.85967286449489,,
,7765.0,1399.0,6440.0,981.0,1348.0,1939.0,3148.0,,,,-0.244208889086549,-2.69470947564849,-0.407697315489227,,-7.495579748151943,,
,7765.0,1398.0,6441.0,982.0,1331.0,1939.0,3150.0,,,,-0.244088923146139,-2.69450123903392,-0.407799027184746,,-8.093207394137936,,
,7764.0,1399.0,6441.0,983.0,1333.0,1942.0,3140.0,,,,-0.244202490418001,-2.69455060393062,-0.40741147597747,,-8.626381797961649,,
,7764.0,1398.0,6442.0,982.0,1342.0,1946.0,3152.0,,,,-0.244016614171069,-2.6946493842924,-0.407338593373245,,-9.0617383296645,,
2025-08-07 00:30:12,7765.0,1398.0,6439.0,983.0,1317.0,1939.0,3142.0,,,2025/08/07 12:30:12 AM,-0.24405773507542,-2.69500657075232,-0.407441909329632,,-9.36038861849966,,
,7768.0,1399.0,6442.0,982.0,1327.0,1944.0,3160.0,,,,-0.244047570031624,-2.69467029531641,-0.407761610097721,,-9.480308803044647,,
,7767.0,1400.0,6441.0,982.0,1323.0,1941.0,3162.0,,,,-0.244014156600853,-2.69485176868031,-0.407806445359721,,-9.379302193668538,,
,7765.0,1399.0,6440.0,983.0,1327.0,1935.0,3140.0,,,,-0.2439913940197,-2.69482017664278,-0.407955981478716,,-9.0183240659116,,
,7768.0,1400.0,6443.0,983.0,1322.0,1936.0,3147.0,,,,-0.24423895857393,-2.69470443050703,-0.407521406452681,,-8.364905930095833,,
,7769.0,1401.0,6443.0,984.0,1315.0,1946.0,3136.0,,,,-0.244363385269658,-2.69504772351409,-0.408293197432326,,-7.396390491885491,,
,7771.0,1402.0,6443.0,984.0,1321.0,1948.0,3144.0,,,,-0.244207133416523,-2.69479962060971,-0.408075239207602,,-6.102693875457131,,
,7770.0,1402.0,6443.0,982.0,1340.0,1939.0,3165.0,,,,-0.244191790685508,-2.69485851778105,-0.407887901591992,,-4.488350370301645,,
,7770.0,1399.0,6443.0,984.0,1339.0,1943.0,3171.0,,,,-0.24450361608588,-2.6950648888776,-0.409086233022798,,-2.5736611818372457,,
,7772.0,1402.0,6441.0,985.0,1339.0,1945.0,3168.0,,,,-0.244627028694553,-2.69505162980888,-0.408174703820157,,-0.3948499509946438,,
,7771.0,1401.0,6442.0,983.0,1338.0,1944.0,3169.0,,,,-0.244919028800768,-2.69524060339562,-0.407907721876492,,1.9967905628526246,,
,7769.0,1401.0,6439.0,982.0,1323.0,1936.0,3188.0,,,,-0.244895994894058,-2.69518997088441,-0.409392673623445,,4.5367059472811775,,
,7773.0,1403.0,6442.0,984.0,1332.0,1941.0,3171.0,,,,-0.244905244742678,-2.69522772741881,-0.408788979217504,,7.149733825799909,,
,7773.0,1402.0,6445.0,984.0,1332.0,1935.0,3159.0,,,,-0.244804353715011,-2.69556185243663,-0.409568081284176,,9.753459550420455,,
,7772.0,1403.0,6443.0,986.0,1336.0,1935.0,3152.0,,,,-0.2447598338921,-2.69530348456762,-0.409523077548824,,12.262105532578424,,
,7773.0,1401.0,6443.0,984.0,1335.0,1938.0,3145.0,,,,-0.24484147473447,-2.69522569494432,-0.409725048992068,,14.590765753653232,,
,7772.0,1403.0,6442.0,985.0,1330.0,1944.0,3151.0,,,,-0.244891277925693,-2.69527603911789,-0.408607509780041,,16.659772465099934,,
,7772.0,1404.0,6444.0,987.0,1298.0,1939.0,3135.0,,,,-0.244673468977568,-2.69512474938292,-0.408390957414152,,18.398949134681867,,
,7776.0,1402.0,6446.0,988.0,1287.0,1938.0,3129.0,,,,-0.24467087567868,-2.69490082260415,-0.408369424840476,,19.751467618671548,,
,7775.0,1404.0,6443.0,985.0,1333.0,1937.0,3123.0,,,,-0.24458869289905,-2.69491180492808,-0.409063867512486,,20.677004156604752,,
,7775.0,1402.0,6444.0,987.0,1359.0,1939.0,3123.0,,,,-0.244491175297142,-2.69504094681322,-0.408337616235806,,21.153899205799096,,
,7776.0,1404.0,6448.0,987.0,1345.0,1940.0,3138.0,,,,-0.244619850135291,-2.69486626877635,-0.40834153270272,,21.18008605318544,,
,7778.0,1405.0,6444.0,987.0,1338.0,1940.0,3147.0,,,,-0.244595750297601,-2.69491041294045,-0.408595623707755,,20.772663257325455,,
,7776.0,1405.0,6444.0,987.0,1325.0,1937.0,3158.0,,,,-0.244714237918573,-2.69473230422052,-0.408331702556779,,19.96613015622075,,
,7779.0,1406.0,6444.0,988.0,1334.0,1936.0,3152.0,,,,-0.244614811434559,-2.69450162950075,-0.40830802691225,,18.809455964019985,,
,7780.0,1405.0,6445.0,988.0,1339.0,1940.0,3156.0,,,,-0.244503352289331,-2.69443508904476,-0.407900792431334,,17.36228254176199,,
,7781.0,1408.0,6447.0,987.0,1323.0,1943.0,3163.0,,,,-0.244501853818897,-2.69455491650896,-0.408219286631962,,15.690645825460436,,
,7776.0,1403.0,6446.0,987.0,1327.0,1944.0,3166.0,,,,-0.244329201877979,-2.69439617458411,-0.408082366967827,,13.862628837827355,,
,7780.0,1408.0,6449.0,990.0,1339.0,1943.0,3166.0,,,,-0.244402415278348,-2.69482854207025,-0.407123769679968,,11.944330028858365,,
,7784.0,1406.0,6449.0,987.0,1328.0,1946.0,3164.0,,,,-0.244393449207273,-2.69458956880806,-0.407779294714288,,9.996455093634445,,
,7783.0,1407.0,6449.0,987.0,1327.0,1946.0,3162.0,,,,-0.244398337130911,-2.69469591913422,-0.407753396573402,,8.071736618068622,,
,7780.0,1407.0,6450.0,986.0,1329.0,1943.0,3152.0,,,,-0.244397472645088,-2.69446734736504,-0.40701311584182,,6.213274535871776,,
,7783.0,1407.0,6450.0,988.0,1344.0,1943.0,3122.0,,,,-0.244305384253325,-2.69448983906394,-0.406420069199175,,4.453788983810904,,
,7785.0,1407.0,6449.0,988.0,1344.0,1944.0,3122.0,,,,-0.244376871137202,-2.69448127214198,-0.407051107533719,,2.8156965182674765,,
,7785.0,1408.0,6449.0,989.0,1341.0,1947.0,3119.0,,,,-0.244604106639433,-2.69449574721189,-0.406302246388963,,1.3118644861517266,,
,7784.0,1409.0,6448.0,987.0,1346.0,1933.0,3130.0,,,,-0.244504165672377,-2.6944738211261,-0.407074805744122,,-0.053134536459730056,,
,7786.0,1408.0,6449.0,988.0,1343.0,1936.0,3151.0,,,,-0.244609778436839,-2.69448062484739,-0.40669768984526,,-1.2814588679067949,,
,7787.0,1408.0,6450.0,989.0,1326.0,1939.0,3149.0,,,,-0.244543845479429,-2.69454973710885,-0.407764577042738,,-2.3803098279215926,,
,7789.0,1409.0,6450.0,987.0,1316.0,1937.0,3152.0,,,,-0.244923916741723,-2.69442784400671,-0.406885123734077,,-3.360284112704697,,
,7784.0,1407.0,6446.0,985.0,1337.0,1935.0,3144.0,,,,-0.244784932095938,-2.69428827219267,-0.407581167456281,,-4.2338959096075355,,
,7785.0,1409.0,6445.0,989.0,1324.0,1933.0,3155.0,,,,-0.244736701871443,-2.6942859864719,-0.406499766465074,,-5.014353842109292,,
,7786.0,1404.0,6446.0,986.0,1317.0,1944.0,3153.0,,,,-0.244848157854529,-2.69425995527229,-0.408037233774685,,-5.7146301548841905,,
,7784.0,1400.0,6441.0,985.0,1342.0,1941.0,3162.0,,,,-0.244738930174608,-2.69420202603028,-0.407486611107252,,-6.346815816356871,,
,7782.0,1396.0,6431.0,981.0,1353.0,1938.0,3159.0,,,,-0.24492074514921,-2.69416438819628,-0.407572753924399,,-6.921721492698253,,
,7775.0,1393.0,6423.0,982.0,1322.0,1933.0,3163.0,,,,-0.244647803783341,-2.69473534126964,-0.40763184472292,,-7.448663447617666,,
,7769.0,1387.0,6412.0,975.0,1316.0,1939.0,3152.0,,,,-0.244906578551895,-2.69486528958283,-0.407447851617486,,-7.935364533472364,,
,7761.0,1383.0,6400.0,976.0,1317.0,1946.0,3152.0,,,,-0.244831937013837,-2.69446425745126,-0.407644839850707,,-8.387901092226064,,
,7755.0,1376.0,6388.0,973.0,1317.0,1944.0,3147.0,,,,-0.244779230933302,-2.69472758705714,-0.407387203372486,,-8.810635354989264,,
,7750.0,1374.0,6381.0,969.0,1308.0,1945.0,3138.0,,,,-0.244636605049049,-2.69446503396312,-0.406804899443615,,-9.206090046692994,,
,7743.0,1371.0,6373.0,970.0,1317.0,1951.0,3140.0,,,,-0.24458600415187,-2.69415944977519,-0.40676107643302,,-9.574747120604782,,
,7737.0,1367.0,6369.0,969.0,1324.0,1947.0,3142.0,,,,-0.243938766003611,-2.69445750357119,-0.406634024625338,,-9.91478286722202,,
,7730.0,1365.0,6359.0,965.0,1324.0,1942.0,3134.0,,,,-0.243977551473081,-2.69457162842479,-0.404999150811892,,-10.221781484167565,,
,7725.0,1362.0,6359.0,966.0,1340.0,1940.0,3140.0,,,,-0.24401925984603,-2.69424780581222,-0.406050447552149,,-10.488492609478458,,
,7720.0,1360.0,6354.0,961.0,1339.0,1944.0,3129.0,,,,-0.244007706367141,-2.69400292387188,-0.405823680342756,,-10.704710999573411,,
,7718.0,1359.0,6347.0,961.0,1348.0,1947.0,3125.0,,,,-0.243741532250543,-2.69386914386769,-0.406815753041514,,-10.857356292334572,,
,7710.0,1357.0,6344.0,960.0,1335.0,1942.0,3147.0,,,,-0.24411600757002,-2.69399259627384,-0.40566774701987,,-10.930817101753972,,
,7706.0,1357.0,6342.0,960.0,1330.0,1940.0,3162.0,,,,-0.244218416929088,-2.6939177657081,-0.405661766711047,,-10.90759738552165,,
,7700.0,1357.0,6341.0,959.0,1349.0,1942.0,3148.0,,,,-0.244328177629588,-2.69405071153353,-0.406386014831743,,-10.76926655110472,,
,7700.0,1354.0,6338.0,958.0,1343.0,1939.0,3150.0,,,,-0.244454035563873,-2.69389764087465,-0.406289856183133,,-10.497672346188624,,
,7695.0,1353.0,6334.0,956.0,1355.0,1943.0,3140.0,,,,-0.244347750391234,-2.69408509350771,-0.406613881656762,,-10.07633304781794,,
,7695.0,1353.0,6332.0,957.0,1341.0,1949.0,3132.0,,,,-0.244172339766062,-2.69383806272107,-0.406304862884156,,-9.491889807142229,,
,7691.0,1352.0,6331.0,959.0,1324.0,1947.0,3156.0,,,,-0.244228607762947,-2.69428493776441,-0.406858758155554,,-8.735478539443056,,
,7685.0,1351.0,6327.0,956.0,1329.0,1946.0,3157.0,,,,-0.244301742019398,-2.69416875024659,-0.406663581568572,,-7.803879376053459,,
,7685.0,1348.0,6324.0,954.0,1328.0,1949.0,3148.0,,,,-0.244488184626372,-2.69434231380086,-0.40703401859611,,-6.700322301763646,,
,7681.0,1348.0,6323.0,955.0,1362.0,1947.0,3150.0,,,,-0.244317556189667,-2.69432223485837,-0.406541907794062,,-5.4348662908969505,,
,7677.0,1351.0,6322.0,955.0,1355.0,1946.0,3161.0,,,,-0.244367924390771,-2.69438632262632,-0.40716267432349,,-4.024317404906076,,
,7676.0,1349.0,6320.0,955.0,1327.0,1947.0,3162.0,,,,-0.24417483902082,-2.69464188130685,-0.40699175269362,,-2.491699156937428,,
,7675.0,1346.0,6318.0,952.0,1308.0,1944.0,3160.0,,,,-0.244299089333107,-2.69432720133818,-0.406447371773663,,-0.8653286703595526,,
,7673.0,1348.0,6318.0,955.0,1293.0,1945.0,3149.0,,,,-0.244126763897809,-2.69437269789403,-0.407101148470576,,0.8224185797436578,,
,7672.0,1344.0,6317.0,951.0,1305.0,1942.0,3150.0,,,,-0.244301223456646,-2.69437957102964,-0.406847119294236,,2.536554317954539,,
,7668.0,1345.0,6314.0,953.0,1307.0,1944.0,3147.0,,,,-0.244298723434841,-2.69431394193463,-0.406619477241063,,4.241022981612093,,
,7668.0,1342.0,6311.0,950.0,1320.0,1938.0,3146.0,,,,-0.244389768132291,-2.69460602297359,-0.407636130938759,,5.900234972623489,,
,7665.0,1343.0,6315.0,951.0,1342.0,1939.0,3137.0,,,,-0.244522975688119,-2.69452349247108,-0.406996015456212,,7.480480369115887,,
,7664.0,1343.0,6309.0,952.0,1327.0,1942.0,3151.0,,,,-0.244477560013294,-2.69463895581608,-0.407292476358378,,8.951128670624568,,
,7661.0,1342.0,6312.0,950.0,1330.0,1946.0,3166.0,,,,-0.24461756260224,-2.69454056202208,-0.407703289670272,,10.285542249085145,,
,7656.0,1341.0,6306.0,948.0,1305.0,1947.0,3147.0,,,,-0.244514693272188,-2.69433029820886,-0.407233915856031,,11.461662151683045,,
,7662.0,1343.0,6308.0,951.0,1319.0,1936.0,3163.0,,,,-0.244656017165846,-2.69455901616631,-0.406853621927348,,12.462261629711923,,
,7661.0,1343.0,6306.0,952.0,1335.0,1938.0,3162.0,,,,-0.244611627932837,-2.69460986453256,-0.407647398192333,,13.274900064477212,,
,7657.0,1343.0,6311.0,953.0,1334.0,1941.0,3169.0,,,,-0.244807641803009,-2.69453900992633,-0.407889412632251,,13.89164214515884,,
,7656.0,1344.0,6305.0,948.0,1331.0,1942.0,3159.0,,,,-0.244692738943706,-2.69493615591234,-0.407765552228355,,14.308629152239565,,
,7657.0,1344.0,6305.0,949.0,1314.0,1943.0,3150.0,,,,-0.244693804195424,-2.69483101295153,-0.407664499644589,,14.525596899312767,,
,7653.0,1343.0,6306.0,949.0,1308.0,1943.0,3148.0,,,,-0.244592740825972,-2.69477930113701,-0.406513519966163,,14.545425716745697,,
,7653.0,1341.0,6304.0,948.0,1301.0,1942.0,3152.0,,,,-0.244467950763722,-2.69459063727056,-0.407342050651156,,14.373782434357786,,
,7650.0,1340.0,6303.0,947.0,1315.0,1949.0,3147.0,,,,-0.244966359108069,-2.69536850941933,-0.409877757527033,,14.018877956475691,,
,7653.0,1342.0,6305.0,948.0,1301.0,1945.0,3136.0,,,,-0.245348831885444,-2.69596691041925,-0.411279577035147,,13.491325984373349,,
,7653.0,1341.0,6304.0,947.0,1311.0,1944.0,3132.0,,,,-0.245527583750963,-2.69576309693207,-0.410690307715438,,12.804058684850935,,
,7653.0,1342.0,6303.0,949.0,1302.0,1943.0,3131.0,,,,-0.245175167041033,-2.69548407279072,-0.410396923148655,,11.97224066109523,,
,7650.0,1340.0,6301.0,947.0,1299.0,1938.0,3131.0,,,,-0.245406167625399,-2.69554834244961,-0.409424317804088,,11.013125437510695,,
,7648.0,1342.0,6304.0,947.0,1291.0,1948.0,3135.0,,,,-0.244989261774826,-2.69587078118225,-0.409755857737057,,9.945815641730213,,
,7647.0,1340.0,6302.0,947.0,1312.0,1942.0,3143.0,,,,-0.24506963097171,-2.69547668397145,-0.410353629683061,,8.790912449411177,,
,7650.0,1344.0,6301.0,949.0,1318.0,1946.0,3148.0,,,,-0.245171741154458,-2.69549439724429,-0.410473038863052,,7.570064083549874,,
,7649.0,1339.0,6298.0,948.0,1298.0,1949.0,3154.0,,,,-0.245156385661265,-2.69560820985327,-0.410854071030436,,6.305441342285052,,
,7647.0,1341.0,6302.0,947.0,1311.0,1945.0,3158.0,,,,-0.244925957522349,-2.69523628436307,-0.409500878424792,,5.019177425729476,,
,7649.0,1341.0,6301.0,950.0,1317.0,1941.0,3157.0,,,,-0.245189372569424,-2.69554665018521,-0.409776804679667,,3.732809782903433,,
,7646.0,1341.0,6300.0,946.0,1320.0,1942.0,3151.0,,,,-0.245096945455312,-2.69530643591424,-0.409492973541449,,2.466755191644032,,
,7643.0,1340.0,6300.0,945.0,1339.0,1950.0,3151.0,,,,-0.245044926976787,-2.69529486731238,-0.409319527756843,,1.2398386384325615,,
,7646.0,1342.0,6299.0,948.0,1335.0,1943.0,3156.0,,,,-0.245447650877512,-2.69536868300285,-0.409100487004835,,0.06888506329797792,,
,7646.0,1342.0,6300.0,948.0,1330.0,1947.0,3150.0,,,,-0.245472602085292,-2.69543909640599,-0.409504338121022,,-1.0316260054175745,,
,7647.0,1340.0,6300.0,946.0,1325.0,1946.0,3153.0,,,,-0.245115025395144,-2.6952416806662,-0.40941854520638,,-2.0498469209395833,,
,7645.0,1342.0,6300.0,947.0,1332.0,1948.0,3154.0,,,,-0.245428177740536,-2.6952203460997,-0.409648317107925,,-2.976791691395849,,
,7645.0,1340.0,6300.0,949.0,1308.0,1942.0,3158.0,,,,-0.245401857297421,-2.69592416650745,-0.410272361556701,,-3.806505138243448,,
,7646.0,1343.0,6301.0,950.0,1303.0,1939.0,3141.0,,,,-0.245640014638484,-2.69573870824017,-0.410801382227176,,-4.536160297430524,,
,7649.0,1340.0,6300.0,948.0,1305.0,1944.0,3133.0,,,,-0.245766515278295,-2.69573727136643,-0.41098065671778,,-5.166068014896674,,
,7645.0,1339.0,6301.0,947.0,1308.0,1944.0,3131.0,,,,-0.245709385413477,-2.69611989849765,-0.41083842562733,,-5.6995821817375365,,
,7645.0,1339.0,6300.0,947.0,1335.0,1943.0,3135.0,,,,-0.245687293609245,-2.69608058996961,-0.410994390860687,,-6.142888092370969,,
,7646.0,1339.0,6297.0,949.0,1292.0,1943.0,3132.0,,,,-0.24593111290903,-2.69615139189761,-0.410699748151252,,-6.504668756954877,,
,7646.0,1343.0,6301.0,944.0,1287.0,1938.0,3132.0,,,,-0.245971787566945,-2.69630079517445,-0.410427976714259,,-6.795652991006304,,
,7646.0,1340.0,6300.0,943.0,1301.0,1944.0,3144.0,,,,-0.245891641075235,-2.69657977413023,-0.412388273240215,,-7.028058260072456,,
