TimeLabel,MEAS1_PPG1,MEAS1_PPG2,MEAS1_PPG3,MEAS1_PPG4,ACCX,ACCY,ACCZ,HR_timestamp,HR_value,radar_timestamp,phase_rx0,phase_rx1,phase_rx2,timestep,n_process,original_rate,calculated_rate
2025-07-03 22:11:28,4666.0,317.0,3361.0,808.0,-7.0,981.0,3853.0,2025-07-03 22:11:28,77.0,2025/07/03 10:11:28 PM,-1.89011664753163,-2.98589182949576,-1.36201582953216,2025/07/03 10:11:28 PM,1.614030461899708,21.645021438598636,21.865179815561625
,4666.0,319.0,3363.0,811.0,3.0,980.0,3855.0,2025-07-03 22:11:29,77.0,,-1.88929583783979,-2.98582202585647,-1.362916487476,2025/07/03 10:11:38 PM,1.8793672422085537,22.11796188354492,22.405973883806404
,4667.0,318.0,3366.0,811.0,-22.0,970.0,3847.0,2025-07-03 22:11:30,77.0,,-1.88966802761947,-2.98583148798566,-1.36161863898908,2025/07/03 10:11:48 PM,2.1224590478582415,22.189348220825195,21.06993214932554
,4667.0,316.0,3365.0,811.0,-24.0,964.0,3853.0,2025-07-03 22:11:31,77.0,,-1.88912338370993,-2.98582590343301,-1.36194226370311,2025/07/03 10:11:58 PM,2.3374596678581607,21.723388671875,22.70292981205688
,4667.0,316.0,3365.0,808.0,-14.0,981.0,3839.0,2025-07-03 22:11:32,77.0,,-1.88935605108468,-2.98591253323012,-1.3618769874935,2025/07/03 10:12:08 PM,2.519009088003162,22.132797241210938,22.754394452507665
,4667.0,317.0,3365.0,812.0,4.0,966.0,3833.0,2025-07-03 22:11:33,77.0,,-1.88984686510274,-2.98570802254227,-1.36288051055493,2025/07/03 10:12:18 PM,2.662494017479288,22.448978424072266,22.24428997020852
,4668.0,315.0,3370.0,813.0,-10.0,965.0,3846.0,2025-07-03 22:11:34,76.0,,-1.8884499296805,-2.98584642216793,-1.36220000501016,2025/07/03 10:12:28 PM,2.764292766760332,22.607385635375977,22.797714473630148
,4669.0,319.0,3370.0,813.0,-10.0,964.0,3851.0,2025-07-03 22:11:35,76.0,,-1.88953059579307,-2.98578664713339,-1.36185572215986,2025/07/03 10:12:38 PM,2.8219794345395433,22.66483497619629,24.01412872841444
,4669.0,316.0,3370.0,814.0,-12.0,963.0,3840.0,2025-07-03 22:11:36,76.0,,-1.88827437511508,-2.98586277417367,-1.36180500970754,2025/07/03 10:12:48 PM,2.8344632437724395,22.98050117492676,21.93363626332841
,4673.0,316.0,3372.0,815.0,-10.0,955.0,3841.0,2025-07-03 22:11:37,76.0,,-1.88891583757547,-2.98587260448831,-1.36257756971177,2025/07/03 10:12:58 PM,2.802043645234731,23.060796737670895,23.203107658157617
,4670.0,315.0,3375.0,815.0,-11.0,965.0,3857.0,2025-07-03 22:11:38,76.0,,-1.88832009872339,-2.98583908740825,-1.36184657246297,2025/07/03 10:13:08 PM,2.726370847623075,23.288637161254883,22.342306540419745
,4671.0,318.0,3375.0,816.0,-10.0,959.0,3863.0,2025-07-03 22:11:39,75.0,,-1.88857958911776,-2.98578569970942,-1.36154125331972,2025/07/03 10:13:18 PM,2.6103139920100236,22.4550895690918,21.21212121212121
,4670.0,318.0,3377.0,818.0,2.0,960.0,3852.0,2025-07-03 22:11:40,75.0,,-1.88873572938803,-2.98580984062975,-1.36229757672297,2025/07/03 10:13:28 PM,2.4577528959245454,22.357723236083984,21.365423873082126
,4672.0,318.0,3378.0,814.0,-5.0,959.0,3842.0,2025-07-03 22:11:41,75.0,,-1.88774140983746,-2.98593989439721,-1.3627866782366,2025/07/03 10:13:38 PM,2.2733206099570618,21.52080345153809,22.959001782531214
,4672.0,317.0,3381.0,819.0,-11.0,956.0,3862.0,2025-07-03 22:11:42,75.0,,-1.88828841047512,-2.98570903613857,-1.36218966460826,2025/07/03 10:13:48 PM,2.062129787583383,21.7548942565918,22.183031617934418
,4677.0,317.0,3379.0,821.0,-6.0,958.0,3871.0,2025-07-03 22:11:43,75.0,,-1.88691247526498,-2.9858230590152,-1.36250911008657,2025/07/03 10:13:58 PM,1.829514813250581,22.297296524047848,22.79292734818345
,4678.0,320.0,3384.0,819.0,-6.0,951.0,3865.0,2025-07-03 22:11:44,75.0,,-1.8875788158142,-2.98599352782013,-1.36129389042367,2025/07/03 10:14:08 PM,1.5808147826783185,22.727272033691406,21.999487367855913
,4675.0,316.0,3384.0,821.0,-13.0,948.0,3846.0,2025-07-03 22:11:45,75.0,,-1.88617182757754,-2.98589624011597,-1.36159173286319,2025/07/03 10:14:18 PM,1.321212166346194,22.48875617980957,20.13582342954162
,4675.0,316.0,3385.0,821.0,-9.0,970.0,3841.0,2025-07-03 22:11:46,74.0,,-1.88648705671927,-2.98587882444358,-1.36074770453912,,1.055630809808443,,
,4678.0,319.0,3387.0,822.0,-13.0,952.0,3842.0,2025-07-03 22:11:47,74.0,,-1.88503861687609,-2.98593244986085,-1.36155379049097,,0.7886867443349477,,
,4679.0,321.0,3390.0,822.0,-3.0,956.0,3844.0,2025-07-03 22:11:48,74.0,,-1.88483568446757,-2.98573985979815,-1.36144479447212,,0.5246774145172611,,
,4681.0,317.0,3390.0,823.0,-7.0,975.0,3843.0,2025-07-03 22:11:49,74.0,,-1.8857139520252,-2.98593859833643,-1.36117611096073,,0.2675902476070301,,
,4680.0,316.0,3391.0,821.0,0.0,966.0,3855.0,2025-07-03 22:11:50,74.0,,-1.88474205955418,-2.98600076192669,-1.36066731499504,,0.021110369138465042,,
,4680.0,321.0,3395.0,824.0,-14.0,958.0,3874.0,2025-07-03 22:11:51,75.0,,-1.88432822890844,-2.98593036202892,-1.36130358912547,,-0.21139043451914888,,
,4681.0,320.0,3393.0,827.0,-14.0,962.0,3847.0,2025-07-03 22:11:52,75.0,,-1.88416185689391,-2.98581715705523,-1.36161346150473,,-0.42689614336347553,,
,4683.0,318.0,3395.0,827.0,-8.0,960.0,3847.0,2025-07-03 22:11:53,75.0,,-1.88376023753167,-2.98562991879786,-1.36136242786591,,-0.6228252784876716,,
,4682.0,317.0,3396.0,827.0,-10.0,965.0,3848.0,2025-07-03 22:11:54,76.0,,-1.88330008446758,-2.98571231533499,-1.36116691395052,,-0.7971416739586409,,
,4684.0,319.0,3398.0,827.0,-8.0,969.0,3864.0,2025-07-03 22:11:55,76.0,,-1.88424416632575,-2.98576949153099,-1.36055794573678,,-0.948483338420607,,
,4687.0,320.0,3400.0,830.0,-17.0,968.0,3845.0,2025-07-03 22:11:56,77.0,,-1.88303100511197,-2.98563799505247,-1.36072598943673,,-1.0762877526587287,,
,4688.0,321.0,3402.0,829.0,-15.0,960.0,3847.0,2025-07-03 22:11:57,77.0,,-1.88373921968285,-2.98598055278672,-1.36102803261145,,-1.1808881560928537,,
,4686.0,319.0,3404.0,829.0,-15.0,968.0,3839.0,2025-07-03 22:11:58,77.0,,-1.88299714554352,-2.98576177844408,-1.36091397812275,,-1.2635566922332484,,
,4688.0,317.0,3404.0,829.0,-2.0,961.0,3846.0,2025-07-03 22:11:59,77.0,,-1.88413745178609,-2.98573931262451,-1.36137018051636,,-1.3264762264364987,,
,4690.0,321.0,3407.0,831.0,-14.0,948.0,3857.0,2025-07-03 22:12:00,76.0,,-1.88413522689063,-2.98593085382623,-1.36063253458139,,-1.3726314862497295,,
,4688.0,322.0,3407.0,832.0,-13.0,958.0,3851.0,2025-07-03 22:12:01,77.0,,-1.88385444970904,-2.98577257842358,-1.36012802713838,,-1.4056199854435802,,
,4692.0,321.0,3410.0,831.0,-19.0,961.0,3862.0,2025-07-03 22:12:02,77.0,,-1.88377198257388,-2.98570522416198,-1.36020656507549,,-1.429392673256398,,
,4689.0,321.0,3411.0,832.0,-21.0,975.0,3848.0,2025-07-03 22:12:03,78.0,,-1.88317286353441,-2.98582433976887,-1.36120109675843,,-1.447942730362027,,
,4692.0,322.0,3414.0,833.0,-15.0,968.0,3857.0,2025-07-03 22:12:04,78.0,,-1.88341780610941,-2.98571360852586,-1.35990987212195,,-1.4649678961378674,,
,4694.0,320.0,3416.0,835.0,-8.0,958.0,3837.0,2025-07-03 22:12:05,78.0,,-1.88296533348191,-2.98564453272721,-1.36134259593585,,-1.4835365027260246,,
,4694.0,319.0,3415.0,837.0,-10.0,949.0,3816.0,2025-07-03 22:12:06,78.0,,-1.88337604566717,-2.98567810951939,-1.36057657892495,,-1.5057893589798899,,
,4694.0,321.0,3417.0,836.0,-9.0,941.0,3817.0,2025-07-03 22:12:07,78.0,,-1.88355265998559,-2.9857706908153,-1.36020683078247,,-1.532708341807227,,
,4694.0,319.0,3417.0,838.0,9.0,955.0,3841.0,2025-07-03 22:12:08,77.0,,-1.8838919561433,-2.98568003332688,-1.36073220465086,,-1.5639778274235294,,
,4697.0,320.0,3420.0,838.0,2.0,965.0,3851.0,2025-07-03 22:12:09,76.0,,-1.88368409877768,-2.9858163136413,-1.36015211223445,,-1.5979569809120595,,
,4697.0,324.0,3424.0,838.0,-4.0,965.0,3839.0,2025-07-03 22:12:10,76.0,,-1.88365105982331,-2.98579902704795,-1.36160851883666,,-1.6317698687864048,,
,4699.0,322.0,3424.0,841.0,-8.0,967.0,3835.0,2025-07-03 22:12:11,76.0,,-1.88323881860602,-2.98598254674949,-1.36063724187133,,-1.6615074698241739,,
,4697.0,320.0,3423.0,837.0,-1.0,959.0,3840.0,2025-07-03 22:12:12,75.0,,-1.88278303473037,-2.9856530105693,-1.36024125973517,,-1.6825228091181266,,
,4698.0,319.0,3425.0,839.0,-11.0,962.0,3865.0,2025-07-03 22:12:13,75.0,,-1.88361765253698,-2.98561078048266,-1.36050024450254,,-1.689790006481226,,
,4699.0,321.0,3428.0,840.0,-22.0,972.0,3865.0,2025-07-03 22:12:14,75.0,,-1.88343572608273,-2.98595020140925,-1.36066469606743,,-1.6782920999612636,,
,4699.0,321.0,3427.0,841.0,-18.0,965.0,3851.0,2025-07-03 22:12:15,76.0,,-1.88343814422306,-2.98587181681928,-1.36146932007217,,-1.643401909060015,,
,4697.0,323.0,3427.0,838.0,-4.0,972.0,3845.0,2025-07-03 22:12:16,76.0,,-1.88363476873108,-2.9859402658713,-1.35989797561654,,-1.581224219675061,,
,4695.0,324.0,3422.0,837.0,-6.0,954.0,3835.0,2025-07-03 22:12:17,77.0,,-1.88351662549997,-2.98575584289509,-1.36041775621235,,-1.4888746607273322,,
,4691.0,320.0,3423.0,837.0,-1.0,948.0,3853.0,2025-07-03 22:12:18,77.0,,-1.88266118968291,-2.98583612591642,-1.36077994006706,,-1.3646794120628083,,
,4690.0,321.0,3423.0,836.0,7.0,945.0,3833.0,2025-07-03 22:12:19,77.0,,-1.88298076222231,-2.98588667059744,-1.36030104258475,,-1.2082893644102295,,
,4686.0,320.0,3418.0,834.0,3.0,941.0,3843.0,2025-07-03 22:12:20,77.0,,-1.88288747329585,-2.98584131681165,-1.36046819140123,,-1.0207116080558964,,
,4681.0,320.0,3415.0,831.0,-1.0,949.0,3855.0,2025-07-03 22:12:21,77.0,,-1.88277717967056,-2.98583789491255,-1.36066508094437,,-0.8042690087548459,,
,4676.0,322.0,3414.0,830.0,-15.0,956.0,3857.0,2025-07-03 22:12:22,77.0,,-1.8823053552782,-2.98571823475688,-1.36048316867979,,-0.5625040343009033,,
,4673.0,320.0,3415.0,831.0,0.0,970.0,3861.0,2025-07-03 22:12:23,76.0,,-1.88249960562633,-2.9858091225331,-1.3606448592215,,-0.30004524577674346,,
,4670.0,321.0,3411.0,829.0,2.0,962.0,3841.0,2025-07-03 22:12:24,76.0,,-1.88209036190951,-2.98583645271029,-1.36042987041578,,-0.0224537850939961,,
,4665.0,321.0,3408.0,827.0,-6.0,970.0,3830.0,2025-07-03 22:12:25,76.0,,-1.88187586429189,-2.9858861665762,-1.36000307089221,,0.26393706305866355,,
,4665.0,318.0,3410.0,828.0,-3.0,973.0,3830.0,2025-07-03 22:12:26,76.0,,-1.88245518644373,-2.98592907508127,-1.36034226220172,,0.5521830771184091,,
,4664.0,322.0,3412.0,828.0,11.0,972.0,3843.0,2025-07-03 22:12:27,76.0,,-1.88280333883728,-2.9858977774436,-1.36083920496483,,0.8348933330540477,,
,4659.0,320.0,3408.0,828.0,5.0,966.0,3844.0,2025-07-03 22:12:28,76.0,,-1.88421941515573,-2.98591950531233,-1.36058240238827,,1.1044075184835536,,
,4655.0,317.0,3410.0,828.0,19.0,950.0,3847.0,2025-07-03 22:12:29,76.0,,-1.88456384086865,-2.98587086281434,-1.36172992932942,,1.3530007868266785,,
,4655.0,317.0,3410.0,828.0,4.0,950.0,3833.0,2025-07-03 22:12:30,76.0,,-1.88738424140942,-2.9858942561213,-1.36184568290433,,1.5731294010930854,,
,4652.0,320.0,3411.0,827.0,1.0,963.0,3839.0,2025-07-03 22:12:31,76.0,,-1.88886986750076,-2.98586354112879,-1.36234037474282,,1.7577231582625208,,
,4655.0,320.0,3413.0,828.0,-9.0,973.0,3837.0,2025-07-03 22:12:32,76.0,,-1.89018620869414,-2.98611754377759,-1.36169976514193,,1.9005190260386378,,
,4651.0,320.0,3413.0,829.0,-12.0,974.0,3846.0,2025-07-03 22:12:33,76.0,,-1.891802418093,-2.98597553972633,-1.36261202025825,,1.9964175883161759,,
,4654.0,319.0,3409.0,826.0,-19.0,958.0,3849.0,2025-07-03 22:12:34,76.0,,-1.89290656671355,-2.98599929536681,-1.36322892527827,,2.0418327421146936,,
,4651.0,320.0,3413.0,829.0,-12.0,960.0,3852.0,2025-07-03 22:12:35,76.0,,-1.89455757657446,-2.98583169723202,-1.36450397386619,,2.0349977332300093,,
,4649.0,318.0,3412.0,829.0,-7.0,976.0,3842.0,2025-07-03 22:12:36,76.0,,-1.89534830855335,-2.98617681318231,-1.36341817955452,,1.9761883516032064,,
,4650.0,320.0,3415.0,828.0,1.0,976.0,3834.0,2025-07-03 22:12:37,76.0,,-1.89595648498394,-2.98617430252072,-1.36370986513989,,1.867827654782966,,
,4647.0,318.0,3413.0,828.0,-9.0,974.0,3845.0,2025-07-03 22:12:38,76.0,,-1.89581153613464,-2.98617057919409,-1.36351848459421,,1.714446015390129,,
,4649.0,318.0,3415.0,830.0,-1.0,965.0,3841.0,2025-07-03 22:12:39,76.0,,-1.89628635740213,-2.98606196523501,-1.36385476701129,,1.5224846393365659,,
,4649.0,321.0,3415.0,829.0,-13.0,968.0,3846.0,2025-07-03 22:12:40,77.0,,-1.8964551828858,-2.98608432653092,-1.36385467172627,,1.2999479660169684,,
,4650.0,319.0,3416.0,833.0,-9.0,963.0,3851.0,2025-07-03 22:12:41,77.0,,-1.8967392255624,-2.98599719000965,-1.36341613263903,,1.05592804770902,,
,4649.0,319.0,3417.0,830.0,-9.0,970.0,3859.0,2025-07-03 22:12:42,77.0,,-1.8967001440064,-2.98608648700576,-1.36412244806311,,0.8000397833955875,,
,4648.0,319.0,3417.0,830.0,-22.0,952.0,3840.0,2025-07-03 22:12:43,76.0,,-1.89689992557819,-2.98606941436582,-1.36401513188693,,0.5418177099877958,,
,4651.0,319.0,3418.0,830.0,-12.0,970.0,3850.0,2025-07-03 22:12:44,76.0,,-1.89677687731269,-2.98608635213928,-1.36431620144796,,0.2901310114675662,,
,4652.0,320.0,3421.0,832.0,-10.0,980.0,3869.0,2025-07-03 22:12:45,76.0,,-1.89820303914326,-2.98605315362645,-1.36384112877404,,0.052671967785645174,,
,4654.0,321.0,3421.0,834.0,-8.0,975.0,3857.0,2025-07-03 22:12:46,76.0,,-1.89795262985265,-2.98609464292149,-1.3646306507766,,-0.1644360736055634,,
,4650.0,319.0,3422.0,834.0,0.0,974.0,3848.0,2025-07-03 22:12:47,76.0,,-1.89768892168356,-2.98598654572332,-1.3647888092241,,-0.3568804203324611,,
,4653.0,321.0,3423.0,834.0,0.0,983.0,3861.0,2025-07-03 22:12:48,76.0,,-1.89706036351274,-2.98609255214668,-1.36414527036808,,-0.5222380962353239,,
,4649.0,319.0,3421.0,835.0,-3.0,972.0,3869.0,2025-07-03 22:12:49,76.0,,-1.89805329179268,-2.98625681438216,-1.36383990718156,,-0.6598981176367368,,
,4653.0,321.0,3424.0,835.0,-22.0,970.0,3842.0,2025-07-03 22:12:50,76.0,,-1.8978447646782,-2.98609614194279,-1.36400355709675,,-0.7708484120235735,,
,4652.0,320.0,3425.0,833.0,-25.0,964.0,3850.0,2025-07-03 22:12:51,76.0,,-1.89843975204311,-2.98624206628518,-1.36413721961044,,-0.8573603313549026,,
,4651.0,320.0,3424.0,835.0,-20.0,972.0,3858.0,2025-07-03 22:12:52,76.0,,-1.89755670429623,-2.98627601050634,-1.36453806420186,,-0.9226106548875477,,
,4656.0,320.0,3427.0,837.0,-14.0,981.0,3834.0,2025-07-03 22:12:53,76.0,,-1.89755608431965,-2.98600928806417,-1.3639775472346,,-0.9702832323672488,,
,4657.0,321.0,3425.0,836.0,-3.0,977.0,3856.0,2025-07-03 22:12:54,76.0,,-1.89817171824157,-2.98619684920787,-1.36420188697176,,-1.0041902790188417,,
,4653.0,322.0,3426.0,837.0,4.0,977.0,3860.0,2025-07-03 22:12:55,76.0,,-1.89840093778071,-2.9860534367923,-1.36314911610061,,-1.0279474360500165,,
,4654.0,321.0,3425.0,836.0,-2.0,969.0,3852.0,2025-07-03 22:12:56,76.0,,-1.89838869663401,-2.98607247624722,-1.36342500995963,,-1.044727814316849,,
,4654.0,323.0,3427.0,837.0,-6.0,957.0,3854.0,2025-07-03 22:12:57,76.0,,-1.89828146984705,-2.98600669199002,-1.36354750655215,,-1.0571090461185548,,
,4651.0,322.0,3426.0,836.0,-3.0,972.0,3846.0,2025-07-03 22:12:58,76.0,,-1.89913863389899,-2.98616012491223,-1.36334398367618,,-1.0670146665334124,,
,4654.0,322.0,3428.0,838.0,-11.0,970.0,3838.0,2025-07-03 22:12:59,76.0,,-1.89880711198906,-2.98598050227975,-1.36345833316147,,-1.0757382200419272,,
,4654.0,319.0,3426.0,836.0,-13.0,963.0,3833.0,2025-07-03 22:13:00,76.0,,-1.8988545756703,-2.98597361574913,-1.3634893938185,,-1.084027386337485,,
,4652.0,318.0,3424.0,836.0,5.0,963.0,3844.0,2025-07-03 22:13:01,77.0,,-1.89880112648118,-2.98605141965895,-1.36433033658735,,-1.0921985407728028,,
,4652.0,321.0,3425.0,836.0,-4.0,970.0,3848.0,2025-07-03 22:13:02,77.0,,-1.89914824612475,-2.98618658181807,-1.3642098202903,,-1.1002512056034384,,
,4655.0,321.0,3427.0,838.0,-12.0,963.0,3835.0,2025-07-03 22:13:03,76.0,,-1.89901383100957,-2.98609963757518,-1.36349686628987,,-1.1079568124510473,,
,4651.0,320.0,3427.0,838.0,2.0,967.0,3837.0,2025-07-03 22:13:04,76.0,,-1.89978396442535,-2.98603914380971,-1.36403378510758,,-1.1149053765733306,,
,4653.0,319.0,3426.0,836.0,7.0,969.0,3843.0,2025-07-03 22:13:05,76.0,,-1.89973780355555,-2.98607559306274,-1.36423786439904,,-1.120504676697124,,
,4656.0,323.0,3431.0,840.0,-5.0,964.0,3861.0,2025-07-03 22:13:06,76.0,,-1.90035527780057,-2.98606991144559,-1.36427174063507,,-1.1239373240524901,,
,4653.0,321.0,3429.0,839.0,-11.0,960.0,3846.0,2025-07-03 22:13:07,76.0,,-1.90041019258646,-2.98613166342047,-1.36519227166075,,-1.1240903248404168,,
,4654.0,322.0,3430.0,840.0,-14.0,972.0,3861.0,2025-07-03 22:13:08,76.0,,-1.90065852927627,-2.98602518743407,-1.36401351958433,,-1.1194783438989115,,
,4655.0,319.0,3430.0,839.0,-16.0,965.0,3842.0,2025-07-03 22:13:09,76.0,,-1.90154975018795,-2.98613680001588,-1.36444776158043,,-1.1081849936560446,,
,4654.0,322.0,3431.0,839.0,-12.0,964.0,3838.0,2025-07-03 22:13:10,77.0,,-1.90163073313566,-2.98612889277162,-1.36378340202012,,-1.0878456603123294,,
,4656.0,320.0,3433.0,842.0,-11.0,957.0,3812.0,2025-07-03 22:13:11,77.0,,-1.90157312483631,-2.98611663687337,-1.36356683550209,,-1.0556908123621185,,
,4658.0,324.0,3435.0,843.0,-11.0,969.0,3826.0,2025-07-03 22:13:12,76.0,,-1.90207564736513,-2.98618314487216,-1.36415104683988,,-1.0086610330940045,,
,4658.0,321.0,3436.0,844.0,-20.0,978.0,3844.0,2025-07-03 22:13:13,76.0,,-1.90245773354897,-2.98620904463488,-1.36346743872149,,-0.9435949732984078,,
,4658.0,321.0,3435.0,841.0,-12.0,991.0,3853.0,2025-07-03 22:13:14,76.0,,-1.9022070724175,-2.9860355216662,-1.36441581737379,,-0.8574800309914262,,
,4660.0,321.0,3436.0,842.0,-10.0,973.0,3871.0,2025-07-03 22:13:15,76.0,,-1.90166342289515,-2.98631374975857,-1.36390503018758,,-0.7477443348444268,,
,4658.0,321.0,3437.0,845.0,-20.0,1002.0,3861.0,2025-07-03 22:13:16,75.0,,-1.90292550396229,-2.98611853961019,-1.36533331868049,,-0.6125596679690736,,
,4662.0,321.0,3435.0,846.0,-22.0,997.0,3870.0,2025-07-03 22:13:17,75.0,,-1.9026940075022,-2.98620082254817,-1.36470900613854,,-0.45112058852443015,,
,4660.0,321.0,3439.0,844.0,-2.0,986.0,3859.0,2025-07-03 22:13:18,75.0,,-1.90178350178155,-2.98616341149695,-1.36442878476961,,-0.26386656424418287,,
,4662.0,321.0,3437.0,844.0,-3.0,967.0,3840.0,2025-07-03 22:13:19,75.0,,-1.90247372317057,-2.9861344408416,-1.36452653555023,,-0.0526210422081687,,
,4663.0,321.0,3440.0,846.0,-12.0,980.0,3833.0,2025-07-03 22:13:20,75.0,,-1.90260011689761,-2.98620427676779,-1.36433173938086,,0.17936808477375893,,
,4665.0,323.0,3441.0,846.0,-5.0,965.0,3855.0,2025-07-03 22:13:21,75.0,,-1.90217532182233,-2.9861610397859,-1.36343798457547,,0.42749087569443106,,
,4666.0,323.0,3443.0,849.0,-8.0,956.0,3860.0,2025-07-03 22:13:22,75.0,,-1.9026357917443,-2.98623575002087,-1.36491867058963,,0.6859348663170993,,
,4666.0,322.0,3442.0,846.0,1.0,964.0,3843.0,2025-07-03 22:13:23,76.0,,-1.90246317866937,-2.9861219559055,-1.36512717776102,,0.9479281564327053,,
,4667.0,321.0,3444.0,849.0,-13.0,950.0,3857.0,2025-07-03 22:13:24,76.0,,-1.90153009260656,-2.98609919786378,-1.36435047925895,,1.2060469561398721,,
,4670.0,325.0,3446.0,851.0,-14.0,959.0,3859.0,2025-07-03 22:13:25,76.0,,-1.901650897193,-2.98594692210011,-1.36425388159563,,1.4525650912626387,,
,4670.0,323.0,3448.0,851.0,-18.0,955.0,3861.0,2025-07-03 22:13:26,77.0,,-1.90071444707924,-2.98614593512303,-1.36402914877031,,1.6798214906321758,,
,4671.0,324.0,3447.0,849.0,1.0,965.0,3869.0,2025-07-03 22:13:27,77.0,,-1.9015907003819,-2.98615458242415,-1.36398971131632,,1.8805818663487832,,
,4672.0,322.0,3446.0,850.0,3.0,951.0,3847.0,2025-07-03 22:13:28,77.0,,-1.90193295697943,-2.98624435960389,-1.36434272049258,,2.048372482568765,,
,4670.0,322.0,3447.0,853.0,-7.0,970.0,3824.0,2025-07-03 22:13:29,77.0,,-1.90097147367699,-2.98622202279264,-1.36345892753496,,2.1777671278994495,,
,4674.0,324.0,3447.0,853.0,-4.0,976.0,3848.0,2025-07-03 22:13:30,77.0,,-1.90113386737376,-2.98621869233555,-1.36407196687908,,2.2646132759863082,,
,4676.0,324.0,3450.0,854.0,-2.0,985.0,3865.0,2025-07-03 22:13:31,77.0,,-1.9006462404551,-2.98618911768752,-1.36399848472908,,2.3061896524614593,,
,4675.0,322.0,3448.0,851.0,-16.0,978.0,3848.0,2025-07-03 22:13:32,77.0,,-1.90042741771223,-2.985987552115,-1.36364396892406,,2.3012939189657953,,
,4676.0,324.0,3451.0,854.0,-4.0,981.0,3855.0,2025-07-03 22:13:33,78.0,,-1.90143089690451,-2.98617820448933,-1.36396009940915,,2.250264259152842,,
,4678.0,324.0,3454.0,852.0,-16.0,969.0,3845.0,2025-07-03 22:13:34,78.0,,-1.90080163640977,-2.98614048680161,-1.36357767136778,,2.1549410610003847,,
,4681.0,323.0,3453.0,853.0,-11.0,969.0,3841.0,2025-07-03 22:13:35,78.0,,-1.90119465104769,-2.98613019088319,-1.36384662314419,,2.01857480202085,,
2025-07-03 22:11:29,4680.0,324.0,3454.0,855.0,-12.0,968.0,3866.0,2025-07-03 22:13:36,79.0,2025/07/03 10:11:29 PM,-1.90078946344478,-2.98619780298737,-1.36400048161619,,1.8456851712262479,,
,4681.0,323.0,3453.0,857.0,7.0,954.0,3847.0,2025-07-03 22:13:37,79.0,,-1.90151097224084,-2.98598104273217,-1.36434129478067,,1.64187605325953,,
,4684.0,325.0,3456.0,857.0,1.0,959.0,3849.0,2025-07-03 22:13:38,79.0,,-1.90096347598265,-2.98602074437878,-1.36440883822959,,1.4136118640590092,,
,4684.0,324.0,3456.0,857.0,-1.0,957.0,3841.0,2025-07-03 22:13:39,79.0,,-1.90063758559717,-2.98605618893101,-1.36367022240174,,1.1679623590383672,,
,4686.0,323.0,3458.0,858.0,0.0,955.0,3852.0,2025-07-03 22:13:40,79.0,,-1.90082529793104,-2.98614212238961,-1.36445146064466,,0.912324610337405,,
,4685.0,325.0,3456.0,857.0,3.0,955.0,3863.0,2025-07-03 22:13:41,79.0,,-1.90140141877691,-2.98614244845233,-1.36509274240153,,0.6541318886283868,,
,4687.0,325.0,3457.0,859.0,13.0,958.0,3860.0,2025-07-03 22:13:42,78.0,,-1.90056383043333,-2.98617664603134,-1.36449441172545,,0.40055962825309044,,
,4688.0,326.0,3462.0,859.0,4.0,968.0,3850.0,2025-07-03 22:13:43,78.0,,-1.90140373196224,-2.98605166267014,-1.36430012905052,,0.1582386961254999,,
,4690.0,327.0,3460.0,861.0,-7.0,970.0,3854.0,2025-07-03 22:13:44,78.0,,-1.90128804368926,-2.9860019636055,-1.36293054396714,,-0.06701378486273071,,
,4691.0,324.0,3460.0,859.0,9.0,954.0,3830.0,2025-07-03 22:13:45,78.0,,-1.90128115772169,-2.98616598206935,-1.36402496720196,,-0.27043525430937826,,
,4690.0,323.0,3461.0,860.0,10.0,950.0,3823.0,2025-07-03 22:13:46,78.0,,-1.90082901468632,-2.98620588288775,-1.36407825940243,,-0.44851793969514964,,
,4695.0,326.0,3463.0,864.0,9.0,952.0,3824.0,2025-07-03 22:13:47,78.0,,-1.90125282936766,-2.98592606079717,-1.36465687705499,,-0.5991542934755593,,
,4694.0,324.0,3462.0,861.0,6.0,973.0,3817.0,2025-07-03 22:13:48,78.0,,-1.9002987487721,-2.9861649034561,-1.36372731844315,,-0.7217122399260377,,
,4692.0,327.0,3465.0,862.0,-5.0,976.0,3846.0,2025-07-03 22:13:49,78.0,,-1.90110600992851,-2.98619742405016,-1.3630653447165,,-0.8170260584765594,,
,4695.0,324.0,3463.0,861.0,-4.0,972.0,3867.0,2025-07-03 22:13:50,78.0,,-1.90094175076584,-2.98635516914643,-1.36415544520722,,-0.8872934197516529,,
,4696.0,325.0,3467.0,866.0,3.0,969.0,3860.0,2025-07-03 22:13:51,78.0,,-1.9015854185929,-2.98603695973001,-1.36472677876111,,-0.9358768857218352,,
,4698.0,326.0,3467.0,866.0,4.0,979.0,3867.0,2025-07-03 22:13:52,78.0,,-1.90038316175362,-2.98595266515414,-1.36424301637115,,-0.967017557849974,,
,4701.0,325.0,3469.0,864.0,4.0,977.0,3864.0,2025-07-03 22:13:53,78.0,,-1.90021601793305,-2.98625318981524,-1.36369454875161,,-0.9854777110251061,,
,4696.0,323.0,3467.0,862.0,-12.0,968.0,3843.0,2025-07-03 22:13:54,78.0,,-1.90067658430675,-2.98617387187944,-1.36403480271111,,-0.9961369400157363,,
,4701.0,325.0,3467.0,865.0,-8.0,965.0,3838.0,2025-07-03 22:13:55,78.0,,-1.90033343147848,-2.9862095721866,-1.36410033314691,,-1.0035720105844166,,
,4699.0,325.0,3472.0,867.0,-9.0,967.0,3834.0,2025-07-03 22:13:56,77.0,,-1.89975370872557,-2.98612093333205,-1.36440918314828,,-1.0116539835504,,
,4700.0,328.0,3469.0,864.0,-2.0,970.0,3828.0,2025-07-03 22:13:57,77.0,,-1.90041840370959,-2.98629648963394,-1.36378342757418,,-1.0231969733338397,,
,4698.0,325.0,3465.0,862.0,-4.0,965.0,3845.0,2025-07-03 22:13:58,76.0,,-1.89931503661413,-2.98625875656832,-1.36371271236822,,-1.0396908323249632,,
,4699.0,325.0,3464.0,861.0,-18.0,965.0,3840.0,2025-07-03 22:13:59,76.0,,-1.89988684486608,-2.98627673323153,-1.36455906878766,,-1.061144997827157,,
,4695.0,327.0,3460.0,860.0,9.0,955.0,3854.0,2025-07-03 22:14:00,75.0,,-1.89931117150992,-2.98618594258586,-1.36441347411871,,-1.0860627296394956,,
,4693.0,326.0,3456.0,860.0,6.0,957.0,3871.0,2025-07-03 22:14:01,75.0,,-1.89968563855251,-2.98610648631646,-1.3645583118456,,-1.1115541350388756,,
,4689.0,326.0,3454.0,861.0,1.0,959.0,3863.0,2025-07-03 22:14:02,75.0,,-1.89994857520886,-2.98615736400072,-1.36332350812424,,-1.1335831208104115,,
,4684.0,324.0,3449.0,856.0,5.0,957.0,3841.0,2025-07-03 22:14:03,75.0,,-1.89933324157105,-2.98610809013433,-1.3636705426459,,-1.147328791832009,,
,4681.0,324.0,3446.0,857.0,3.0,957.0,3832.0,2025-07-03 22:14:04,75.0,,-1.89885031764471,-2.98607634288783,-1.36483419936243,,-1.1476278738993504,,
,4678.0,327.0,3444.0,855.0,-2.0,972.0,3853.0,2025-07-03 22:14:05,75.0,,-1.89832389439098,-2.98619134907439,-1.36430998341307,,-1.129454250471166,,
,4676.0,325.0,3443.0,854.0,-9.0,977.0,3854.0,2025-07-03 22:14:06,75.0,,-1.89882165310054,-2.98612241012831,-1.36465857426987,,-1.0883871961523994,,
,4670.0,323.0,3438.0,855.0,-6.0,984.0,3881.0,2025-07-03 22:14:07,76.0,,-1.89771785925132,-2.98601538274115,-1.36417074759235,,-1.021022431821253,,
,4671.0,323.0,3433.0,852.0,-12.0,977.0,3860.0,2025-07-03 22:14:08,76.0,,-1.89829496160026,-2.98612786490863,-1.3640904021571,,-0.9252888526753521,,
,4670.0,323.0,3433.0,851.0,-4.0,993.0,3861.0,2025-07-03 22:14:09,76.0,,-1.8988785710901,-2.98602383754219,-1.36367990692213,,-0.800646561011512,,
,4668.0,324.0,3431.0,852.0,4.0,993.0,3864.0,2025-07-03 22:14:10,76.0,,-1.90020596355149,-2.98618887368467,-1.36417271132365,,-0.6481563544746628,,
,4666.0,324.0,3427.0,850.0,-11.0,992.0,3846.0,2025-07-03 22:14:11,76.0,,-1.902618806686,-2.98601487966703,-1.36471340449591,,-0.4704251197353567,,
,4665.0,322.0,3429.0,848.0,-15.0,968.0,3825.0,2025-07-03 22:14:12,75.0,,-1.9034613880184,-2.98638508395913,-1.36467907251757,,-0.27144401448507227,,
,4666.0,321.0,3428.0,851.0,-10.0,978.0,3846.0,2025-07-03 22:14:13,75.0,,-1.90600498083665,-2.9863615500003,-1.36452871057981,,-0.05634551150577926,,
,4663.0,322.0,3428.0,852.0,-20.0,960.0,3855.0,2025-07-03 22:14:14,75.0,,-1.90685080313886,-2.98629152406979,-1.36480394957048,,0.16888956621174517,,
,4664.0,323.0,3424.0,853.0,-2.0,964.0,3847.0,2025-07-03 22:14:15,75.0,,-1.90839345961414,-2.9862324023619,-1.36437781123072,,0.3977432341875644,,
,4662.0,322.0,3421.0,851.0,-2.0,971.0,3852.0,2025-07-03 22:14:16,75.0,,-1.90893118032474,-2.98641857274376,-1.36512601270559,,0.6234615002418409,,
,4662.0,325.0,3422.0,852.0,-9.0,967.0,3856.0,2025-07-03 22:14:17,75.0,,-1.91052219136941,-2.98645454632794,-1.36553771086873,,0.8393244474300539,,
,4664.0,324.0,3422.0,853.0,-14.0,975.0,3859.0,2025-07-03 22:14:18,75.0,,-1.9114914358596,-2.98645365716058,-1.36476096518124,,1.038874258928617,,
,4665.0,322.0,3421.0,852.0,-10.0,971.0,3868.0,2025-07-03 22:14:19,76.0,,-1.91276590263998,-2.98644599155671,-1.36578669644989,,1.2161013955708544,,
,4663.0,323.0,3421.0,851.0,-20.0,978.0,3851.0,2025-07-03 22:14:20,76.0,,-1.91273409115959,-2.98642680132021,-1.36625785348268,,1.3655988495002591,,
,4665.0,323.0,3419.0,851.0,2.0,979.0,3858.0,2025-07-03 22:14:21,75.0,,-1.91438800610589,-2.98642907132953,-1.36582449317463,,1.4826997270034696,,
,4665.0,323.0,3422.0,851.0,3.0,957.0,3833.0,2025-07-03 22:14:22,75.0,,-1.91446090611868,-2.98645974612944,-1.36711696592231,,1.5636125561701661,,
,4666.0,324.0,3421.0,853.0,9.0,941.0,3849.0,2025-07-03 22:14:23,75.0,,-1.91441787438757,-2.98659120838762,-1.36526576302611,,1.605562032542776,,
,4668.0,323.0,3421.0,853.0,13.0,945.0,3829.0,2025-07-03 22:14:24,74.0,,-1.9146797692916,-2.98636363769967,-1.36679793891345,,1.6069328480996738,,
,4665.0,322.0,3416.0,854.0,6.0,963.0,3838.0,2025-07-03 22:14:25,74.0,,-1.91500467535537,-2.98651495191336,-1.36544880329868,,1.5674041193915191,,
,4668.0,322.0,3419.0,853.0,-6.0,957.0,3852.0,2025-07-03 22:14:26,73.0,,-1.91495897461073,-2.98635187634936,-1.36592109334999,,1.48805456860177,,
,4669.0,325.0,3418.0,855.0,-7.0,967.0,3842.0,2025-07-03 22:14:27,73.0,,-1.91558048220758,-2.98639815083946,-1.36631356117463,,1.3714156311473091,,
,4667.0,324.0,3419.0,854.0,-16.0,979.0,3848.0,,,,-1.91578090476712,-2.98638888081244,-1.36547787045977,,1.2214514377079304,,
,4669.0,323.0,3417.0,853.0,-3.0,979.0,3845.0,,,,-1.91503410157544,-2.98637753630146,-1.36609734905405,,1.0434504984790922,,
,4671.0,322.0,3417.0,853.0,10.0,971.0,3842.0,,,,-1.9158796268287,-2.98655657864962,-1.36606186605844,,0.8438225365547493,,
,4672.0,324.0,3417.0,853.0,-7.0,969.0,3838.0,,,,-1.91553595777605,-2.9863992403487,-1.36663222173406,,0.629803703200662,,
,4672.0,324.0,3416.0,856.0,-4.0,983.0,3846.0,,,,-1.91554128405207,-2.98657250889043,-1.36569491951096,,0.40908315577765053,,
,4670.0,324.0,3417.0,855.0,1.0,977.0,3840.0,,,,-1.91514715122899,-2.98652142199488,-1.36625088840277,,0.1893730797800023,,
,4670.0,321.0,3413.0,856.0,4.0,964.0,3844.0,,,,-1.91536975788405,-2.98641203245088,-1.36541651282331,,-0.02204763506797976,,
,4672.0,323.0,3413.0,854.0,0.0,974.0,3856.0,,,,-1.91545091735296,-2.98643175596854,-1.36683507432894,,-0.21877935422291112,,
,4674.0,324.0,3413.0,856.0,7.0,978.0,3842.0,,,,-1.91550619145526,-2.98647425201671,-1.36682590811261,,-0.395697044597428,,
,4673.0,325.0,3409.0,854.0,5.0,970.0,3839.0,,,,-1.91542890854339,-2.98619201821666,-1.36596132684469,,-0.5492557778729722,,
,4670.0,321.0,3406.0,854.0,9.0,965.0,3845.0,,,,-1.91570392131612,-2.98642664695566,-1.36619942073878,,-0.6776735966983839,,
,4673.0,323.0,3409.0,854.0,4.0,974.0,3846.0,,,,-1.91514335742422,-2.98642162424756,-1.36568577468724,,-0.7809701984248721,,
,4672.0,321.0,3409.0,854.0,5.0,988.0,3831.0,,,,-1.91550055875037,-2.98627518243653,-1.36572581743484,,-0.8608540769821676,,
,4672.0,323.0,3405.0,855.0,10.0,981.0,3830.0,,,,-1.91571308024793,-2.98643358425083,-1.36563413880775,,-0.9204656497820345,,
,4673.0,322.0,3405.0,854.0,4.0,977.0,3834.0,,,,-1.91452440319106,-2.9863012761556,-1.36609554205403,,-0.9639977164475944,,
,4671.0,321.0,3401.0,853.0,-2.0,976.0,3846.0,,,,-1.91432433756222,-2.98628444080931,-1.36542212597484,,-0.9962262297310674,,
,4670.0,323.0,3402.0,853.0,12.0,966.0,3861.0,,,,-1.91358905777958,-2.98635965889109,-1.36548940911158,,-1.021993023224976,,
,4671.0,323.0,3403.0,854.0,-8.0,972.0,3845.0,,,,-1.91384713012716,-2.98644586343321,-1.36607789740589,,-1.0456871683706543,,
,4672.0,323.0,3400.0,856.0,-2.0,970.0,3856.0,,,,-1.91322105604172,-2.98651255413318,-1.36572944023081,,-1.0707725721467092,,
,4672.0,322.0,3400.0,853.0,5.0,951.0,3857.0,,,,-1.91343477275885,-2.98653127781246,-1.36546441313181,,-1.0994061707395422,,
,4672.0,321.0,3396.0,852.0,3.0,972.0,3854.0,,,,-1.91415990410758,-2.98637932857092,-1.36599954597863,,-1.1321837765871368,,
,4673.0,323.0,3399.0,855.0,9.0,963.0,3831.0,,,,-1.9136561927311,-2.98645632904795,-1.36572457972503,,-1.1680395530884036,,
,4676.0,321.0,3396.0,854.0,8.0,955.0,3845.0,,,,-1.91390230677304,-2.98637478794036,-1.3662650914617,,-1.2043106679632818,,
,4674.0,324.0,3397.0,855.0,9.0,948.0,3837.0,,,,-1.91386723330556,-2.98646274962117,-1.36600746244507,,-1.2369619113074324,,
,4674.0,321.0,3392.0,853.0,-6.0,954.0,3839.0,,,,-1.9140840251065,-2.9864058652299,-1.36596406357051,,-1.2609478452456564,,
,4675.0,324.0,3393.0,854.0,-7.0,957.0,3843.0,,,,-1.91380502271202,-2.98651710854071,-1.36572272796696,,-1.2706750540184397,,
,4676.0,323.0,3397.0,857.0,-11.0,964.0,3845.0,,,,-1.91326213185088,-2.98623369307575,-1.36577863846275,,-1.2605170007112754,,
,4677.0,326.0,3395.0,858.0,-9.0,963.0,3842.0,,,,-1.9142599398349,-2.98638818348365,-1.3656448864051,,-1.2253305100093417,,
,4676.0,321.0,3395.0,855.0,-5.0,959.0,3868.0,,,,-1.91366182732214,-2.98643124940846,-1.3655650986483,,-1.1609258854907933,,
,4679.0,322.0,3396.0,856.0,-8.0,962.0,3838.0,,,,-1.91369769751729,-2.98651295209873,-1.36540808628239,,-1.0644506691250784,,
,4680.0,324.0,3393.0,858.0,-2.0,964.0,3838.0,,,,-1.91302962841105,-2.98643545301429,-1.36603601528647,,-0.9346582602108068,,
,4681.0,324.0,3393.0,858.0,-4.0,959.0,3828.0,,,,-1.91300270935175,-2.98639690359978,-1.36525339708862,,-0.7720456104143791,,
,4682.0,323.0,3392.0,858.0,-4.0,951.0,3819.0,,,,-1.91267016821174,-2.98639263227547,-1.36609094178508,,-0.5788578547603829,,
,4681.0,322.0,3391.0,857.0,2.0,962.0,3843.0,,,,-1.91230267753671,-2.98641147979447,-1.36555557922752,,-0.35897071515618767,,
,4681.0,323.0,3393.0,858.0,-10.0,974.0,3850.0,,,,-1.91172457682908,-2.98630984209245,-1.36635675750034,,-0.1176723225927446,,
,4684.0,323.0,3394.0,859.0,-4.0,971.0,3844.0,,,,-1.91190658114971,-2.98628067521394,-1.36560206264742,,0.13862654185589132,,
,4684.0,324.0,3392.0,860.0,-12.0,979.0,3851.0,,,,-1.91036035965138,-2.98639970220793,-1.36599252807353,,0.4027216464151118,,
,4684.0,325.0,3392.0,861.0,-14.0,973.0,3864.0,,,,-1.91151938846415,-2.98641926841288,-1.3657699912319,,0.6669530913599169,,
,4688.0,324.0,3393.0,860.0,-10.0,962.0,3865.0,,,,-1.91015220772278,-2.98634871036054,-1.36521245628095,,0.9235262807567757,,
,4691.0,326.0,3393.0,860.0,-3.0,959.0,3840.0,,,,-1.9101917357901,-2.98629526342348,-1.36578281662071,,1.1647995598047722,,
,4692.0,325.0,3393.0,862.0,-20.0,961.0,3858.0,,,,-1.90917916051595,-2.98649048772167,-1.3657855199063,,1.3835327068850916,,
,4691.0,323.0,3391.0,863.0,-10.0,969.0,3847.0,,,,-1.90992984574193,-2.9862598517449,-1.36558507062899,,1.573100528792271,,
,4692.0,321.0,3392.0,861.0,-14.0,962.0,3854.0,,,,-1.90933093252414,-2.98641199179044,-1.36532221046084,,1.7276823060938196,,
,4694.0,324.0,3392.0,863.0,-2.0,953.0,3850.0,,,,-1.90840180942325,-2.98645007596135,-1.36463377973022,,1.8424386682988358,,
,4695.0,324.0,3392.0,866.0,-8.0,969.0,3862.0,,,,-1.90854071169869,-2.9864066409268,-1.36519407054852,,1.9136825400393043,,
,4696.0,326.0,3392.0,863.0,2.0,972.0,3873.0,,,,-1.90868809096432,-2.98631076174888,-1.36531838549939,,1.9390421704505547,,
,4695.0,323.0,3390.0,861.0,12.0,954.0,3862.0,,,,-1.90703857230363,-2.9863435895721,-1.36551885062499,,1.9176051462998849,,
,4696.0,324.0,3391.0,868.0,11.0,964.0,3858.0,,,,-1.90731293793533,-2.98620498419024,-1.36453791393741,,1.8500255762559883,,
,4701.0,324.0,3391.0,864.0,1.0,961.0,3833.0,,,,-1.90676150948722,-2.98613933353178,-1.36515782192391,,1.7385740263386722,,
,4699.0,326.0,3390.0,865.0,-2.0,960.0,3834.0,,,,-1.90681531939745,-2.98637139915387,-1.36457709559736,,1.5871117334228453,,
,4699.0,323.0,3391.0,866.0,-1.0,963.0,3843.0,,,,-1.90777761238641,-2.98613161084882,-1.36523632679495,,1.4009764923536274,,
,4704.0,324.0,3390.0,866.0,-1.0,981.0,3849.0,,,,-1.9072370512948,-2.98606003723786,-1.36507506327472,,1.1867759117177292,,
,4705.0,325.0,3391.0,867.0,12.0,960.0,3846.0,,,,-1.90663167449739,-2.98621381558864,-1.36440242085168,,0.9520926633347455,,
,4703.0,326.0,3393.0,867.0,12.0,946.0,3854.0,,,,-1.9059400226703,-2.98623533192627,-1.3652661908831,,0.705114649498656,,
,4707.0,323.0,3392.0,866.0,5.0,950.0,3860.0,,,,-1.90652731141621,-2.98616528387721,-1.36528616557776,,0.4542104002633102,,
,4705.0,323.0,3390.0,867.0,1.0,964.0,3864.0,,,,-1.90566573245798,-2.98623707740773,-1.36503824041527,,0.20747672422771254,,
,4708.0,322.0,3390.0,866.0,-12.0,975.0,3834.0,,,,-1.90575665813281,-2.98618340285121,-1.36518716000103,,-0.027708566694381372,,
,4706.0,326.0,3393.0,868.0,-11.0,962.0,3848.0,,,,-1.9053377457486,-2.98622031448102,-1.36497807605091,,-0.24509242814676924,,
,4710.0,325.0,3391.0,868.0,-3.0,960.0,3854.0,,,,-1.90502819345849,-2.98622179024407,-1.36448034557347,,-0.43987479663546764,,
,4707.0,324.0,3389.0,868.0,23.0,965.0,3836.0,,,,-1.9046058447275,-2.98613498793147,-1.36413827301627,,-0.6089286188382562,,
,4711.0,323.0,3391.0,869.0,3.0,965.0,3843.0,,,,-1.90456392166704,-2.98626433606319,-1.36460470769419,,-0.7508910122240424,,
,4712.0,324.0,3393.0,870.0,-6.0,966.0,3859.0,,,,-1.90479372757475,-2.98616843208141,-1.36467335673973,,-0.8661174848044728,,
,4716.0,327.0,3391.0,871.0,-12.0,968.0,3852.0,,,,-1.90395632381297,-2.98609267495581,-1.36438606300573,,-0.9565042784630167,,
,4714.0,325.0,3392.0,871.0,-17.0,973.0,3853.0,,,,-1.90399923184894,-2.98609744018358,-1.36365613017504,,-1.025195942053255,,
,4714.0,325.0,3389.0,869.0,-13.0,965.0,3869.0,,,,-1.90339985023798,-2.98617101050277,-1.36490130438287,,-1.0762052522089152,,
,4717.0,324.0,3393.0,872.0,-14.0,966.0,3849.0,,,,-1.90380432895987,-2.98612806535446,-1.36417053355049,,-1.113979982115729,,
,4720.0,326.0,3391.0,872.0,-18.0,972.0,3840.0,,,,-1.90347578028029,-2.98611878907411,-1.36424624791742,,-1.1429552532804388,,
,4720.0,327.0,3390.0,873.0,-17.0,967.0,3844.0,,,,-1.90252221598557,-2.986170712804,-1.36394692711971,,-1.1671309712367246,,
,4719.0,323.0,3387.0,869.0,-9.0,964.0,3832.0,,,,-1.90206749861918,-2.98609731921744,-1.36457125446078,,-1.1897111466596015,,
,4718.0,323.0,3386.0,870.0,-6.0,958.0,3829.0,,,,-1.90107328021586,-2.98610167127481,-1.36366458418872,,-1.2128359221956495,,
,4717.0,327.0,3385.0,869.0,-14.0,978.0,3851.0,,,,-1.89896838268214,-2.98620626372792,-1.36459515973676,,-1.2374280586545217,,
,4715.0,327.0,3380.0,869.0,-12.0,975.0,3845.0,,,,-1.89718395442179,-2.98615379316097,-1.36462467934749,,-1.263163829118693,,
,4712.0,326.0,3376.0,866.0,-19.0,967.0,3840.0,,,,-1.89679601530563,-2.98616263732942,-1.36444488606015,,-1.2885646344113288,,
,4708.0,322.0,3368.0,860.0,-21.0,958.0,3839.0,,,,-1.89501210842246,-2.98620668016395,-1.36420878114041,,-1.3111919893572415,,
,4707.0,325.0,3364.0,860.0,-22.0,962.0,3849.0,,,,-1.89429897731448,-2.98604235204842,-1.36318906498527,,-1.3279173220363183,,
,4703.0,324.0,3358.0,859.0,-5.0,953.0,3823.0,,,,-1.89355386374287,-2.98578921624875,-1.36280712010575,,-1.335231542391643,,
2025-07-03 22:11:30,4700.0,325.0,3354.0,855.0,1.0,963.0,3837.0,,,2025/07/03 10:11:30 PM,-1.89311408971958,-2.98604930156564,-1.36428904028079,,-1.3295585496128375,,
,4697.0,324.0,3346.0,856.0,5.0,962.0,3851.0,,,,-1.89224544457145,-2.98591032841151,-1.36404679288319,,-1.3075410849077147,,
,4694.0,322.0,3341.0,855.0,-15.0,966.0,3848.0,,,,-1.89238084257159,-2.98614197391487,-1.36239221421302,,-1.2662749126098802,,
,4692.0,322.0,3336.0,854.0,-8.0,971.0,3848.0,,,,-1.89233514631508,-2.98593593427705,-1.36324120697288,,-1.2034765742931461,,
,4690.0,324.0,3334.0,853.0,3.0,964.0,3850.0,,,,-1.89177451539943,-2.98599337186179,-1.36260220199648,,-1.117579793786913,,
,4688.0,323.0,3327.0,850.0,-10.0,958.0,3850.0,,,,-1.89212767413893,-2.98602309928415,-1.36331759383077,,-1.0077651812862554,,
,4685.0,321.0,3324.0,851.0,0.0,964.0,3846.0,,,,-1.89145236834981,-2.9860946442787,-1.3630867994505,,-0.8739362551734005,,
,4686.0,320.0,3321.0,848.0,-5.0,984.0,3845.0,,,,-1.89122985923919,-2.98590940912654,-1.36257572574189,,-0.7166609650093555,,
,4683.0,322.0,3318.0,847.0,-13.0,962.0,3840.0,,,,-1.89175054888239,-2.98608245843248,-1.36254957529114,,-0.5371010283136844,,
,4680.0,322.0,3316.0,848.0,-14.0,964.0,3842.0,,,,-1.89292438756935,-2.98580618197917,-1.36329012295708,,-0.3369509131276535,,
,4681.0,321.0,3311.0,845.0,0.0,963.0,3872.0,,,,-1.89440069830542,-2.98601466456769,-1.36267981630917,,-0.1184038710461564,,
,4679.0,321.0,3306.0,844.0,-17.0,952.0,3868.0,,,,-1.89711171854081,-2.98594611181303,-1.36367143938732,,0.11584586609348038,,
,4680.0,322.0,3308.0,847.0,-8.0,952.0,3843.0,,,,-1.89911491297216,-2.9860933572492,-1.36349095879591,,0.3625668217659564,,
,4680.0,322.0,3306.0,847.0,-7.0,960.0,3859.0,,,,-1.90136620388053,-2.98596039547309,-1.36498453734573,,0.6179340058298045,,
,4680.0,322.0,3304.0,846.0,-1.0,952.0,3853.0,,,,-1.90172612984925,-2.98594662664321,-1.36499829554814,,0.8774763811089047,,
,4675.0,320.0,3300.0,844.0,-2.0,954.0,3848.0,,,,-1.90364178704154,-2.98606918238158,-1.36443863847041,,1.1360564104348057,,
,4677.0,319.0,3299.0,844.0,-8.0,965.0,3868.0,,,,-1.9051729301672,-2.98626174140061,-1.36562551888886,,1.3879083298673882,,
,4678.0,320.0,3298.0,846.0,-16.0,981.0,3845.0,,,,-1.90684056165539,-2.9861065746392,-1.36466248644103,,1.626754515329486,,
,4678.0,321.0,3296.0,843.0,-18.0,974.0,3839.0,,,,-1.90745923937693,-2.98610089245283,-1.36524655038765,,1.846008412581771,,
,4678.0,321.0,3295.0,844.0,-6.0,957.0,3848.0,,,,-1.90853802852783,-2.98624947492402,-1.36519978615082,,2.0390600139926334,,
,4679.0,320.0,3293.0,844.0,9.0,952.0,3842.0,,,,-1.90790555792575,-2.98608089801089,-1.36505991781867,,2.1996272525876654,,
,4680.0,321.0,3292.0,845.0,10.0,951.0,3860.0,,,,-1.90845216581965,-2.98629704532742,-1.36531884305907,,2.3221450701092303,,
,4679.0,320.0,3293.0,846.0,-7.0,948.0,3849.0,,,,-1.90837969352644,-2.98621661318035,-1.36509731262814,,2.402154592919304,,
,4678.0,319.0,3292.0,846.0,-1.0,955.0,3851.0,,,,-1.90866166883738,-2.98635585106268,-1.36497962978937,,2.4366493645418705,,
,4680.0,320.0,3287.0,842.0,-8.0,963.0,3839.0,,,,-1.90808941130612,-2.98625714552218,-1.36511480406425,,2.42433541229395,,
,4681.0,322.0,3290.0,845.0,-8.0,975.0,3863.0,,,,-1.90717915266919,-2.98624839785935,-1.36470627105772,,2.3657680962047616,,
,4682.0,321.0,3289.0,845.0,-3.0,966.0,3850.0,,,,-1.90854521802172,-2.98630710619377,-1.36549704706117,,2.2633414772371445,,
,4681.0,320.0,3286.0,844.0,-7.0,960.0,3848.0,,,,-1.90817869525647,-2.98601774998493,-1.36504008076719,,2.1211244668626623,,
,4682.0,322.0,3284.0,843.0,5.0,958.0,3850.0,,,,-1.90759356621588,-2.98611058972114,-1.36559110147342,,1.9445596973888204,,
,4683.0,320.0,3284.0,842.0,-3.0,947.0,3850.0,,,,-1.90827785404355,-2.98620441966578,-1.36472818522182,,1.7400614633735838,,
,4685.0,322.0,3285.0,845.0,-6.0,963.0,3832.0,,,,-1.90740866733273,-2.98618825661805,-1.36469172080175,,1.514563106255633,,
,4684.0,322.0,3282.0,841.0,-10.0,962.0,3829.0,,,,-1.90772498613603,-2.98609363363753,-1.3649804910008,,1.2750682736423156,,
,4682.0,322.0,3280.0,843.0,-4.0,962.0,3844.0,,,,-1.90725130697661,-2.98609549749971,-1.36486690129653,,1.0282542955263227,,
,4680.0,318.0,3278.0,840.0,-11.0,961.0,3852.0,,,,-1.90710767887894,-2.98608835660254,-1.3642046010258,,0.7801622926602727,,
,4682.0,320.0,3278.0,841.0,-9.0,953.0,3851.0,,,,-1.9063080329401,-2.98606333402747,-1.36475377588213,,0.5359917730029591,,
,4684.0,323.0,3276.0,841.0,-14.0,972.0,3854.0,,,,-1.90641726941154,-2.98613215285449,-1.36321444609065,,0.3000011896242712,,
,4682.0,321.0,3273.0,840.0,-13.0,963.0,3839.0,,,,-1.90664882096846,-2.98629623342632,-1.36448476445448,,0.07550267427937804,,
,4681.0,319.0,3272.0,840.0,-3.0,959.0,3847.0,,,,-1.9063306812971,-2.98627855546705,-1.36545614754612,,-0.13507002173120183,,
,4683.0,320.0,3270.0,840.0,-14.0,955.0,3829.0,,,,-1.90497632106453,-2.98632872534052,-1.36537885280925,,-0.33004630466625595,,
,4682.0,320.0,3268.0,839.0,-18.0,959.0,3822.0,,,,-1.90526647912315,-2.9861479979556,-1.3645105388962,,-0.5083831996506798,,
,4683.0,322.0,3271.0,841.0,-15.0,981.0,3860.0,,,,-1.90475400501736,-2.98618736558666,-1.36493664090277,,-0.6695341466114334,,
,4684.0,321.0,3268.0,839.0,-11.0,976.0,3868.0,,,,-1.90388479979735,-2.98608679613506,-1.36520363097925,,-0.8133417460371185,,
,4682.0,320.0,3266.0,837.0,-11.0,967.0,3871.0,,,,-1.90382876784622,-2.98594534162936,-1.36392696029468,,-0.939966861880185,,
,4684.0,321.0,3265.0,840.0,-18.0,960.0,3860.0,,,,-1.90330299497774,-2.98583418129312,-1.36438987208653,,-1.049857638044617,,
,4681.0,323.0,3264.0,838.0,-10.0,963.0,3857.0,,,,-1.90236161868631,-2.98622758544853,-1.36403550500667,,-1.143752375957323,,
,4685.0,321.0,3263.0,840.0,-8.0,961.0,3845.0,,,,-1.90230984289118,-2.98611122421991,-1.3644940474928,,-1.2227014117887303,,
,4686.0,321.0,3262.0,839.0,1.0,974.0,3854.0,,,,-1.90246746957747,-2.98603371341127,-1.36404016731716,,-1.2880871567924177,,
,4686.0,319.0,3262.0,839.0,2.0,975.0,3845.0,,,,-1.90308126425957,-2.98611148070091,-1.36443691630079,,-1.3416200319356044,,
,4690.0,321.0,3259.0,840.0,7.0,955.0,3852.0,,,,-1.90290786987066,-2.98603215472211,-1.36422413295179,,-1.3852916285677148,,
,4691.0,321.0,3260.0,841.0,4.0,979.0,3856.0,,,,-1.90277046959492,-2.98606205181417,-1.36425464160241,,-1.4212740818904028,,
,4688.0,321.0,3260.0,840.0,-4.0,985.0,3841.0,,,,-1.90249665317167,-2.98604935963244,-1.36482399023138,,-1.4517645061583497,,
,4688.0,318.0,3258.0,836.0,-6.0,976.0,3831.0,,,,-1.90191656412039,-2.98609414592441,-1.36377957123396,,-1.4787835698382337,,
,4689.0,319.0,3258.0,839.0,-6.0,956.0,3856.0,,,,-1.90265412594709,-2.98603592130319,-1.36438348342742,,-1.5039464989863363,,
,4690.0,320.0,3256.0,839.0,-15.0,969.0,3844.0,,,,-1.90256314106945,-2.98600709405572,-1.36451028734846,,-1.528231950689424,,
,4689.0,319.0,3258.0,839.0,-17.0,969.0,3845.0,,,,-1.90227838417007,-2.98612630345447,-1.36446124950867,,-1.5517783960012212,,
,4691.0,318.0,3260.0,839.0,-24.0,953.0,3848.0,,,,-1.90188862862686,-2.98616301861123,-1.36420388028971,,-1.5737381831675077,,
,4689.0,320.0,3256.0,840.0,-19.0,966.0,3860.0,,,,-1.90173667944819,-2.98597251216457,-1.36482192384673,,-1.5922159857363802,,
,4694.0,321.0,3256.0,842.0,-21.0,961.0,3863.0,,,,-1.90139058096679,-2.98613914247135,-1.36504696439921,,-1.604310952044879,,
,4697.0,320.0,3260.0,842.0,-2.0,948.0,3829.0,,,,-1.90150463917331,-2.98588718833086,-1.3650058744449,,-1.6062709513014806,,
,4696.0,322.0,3259.0,842.0,-10.0,942.0,3822.0,,,,-1.90075968689908,-2.98598163498531,-1.36487724026312,,-1.5937536521727018,,
,4695.0,317.0,3253.0,839.0,-4.0,953.0,3836.0,,,,-1.9004413651409,-2.98594478164918,-1.36460567402304,,-1.5621743234256402,,
,4696.0,320.0,3257.0,841.0,-28.0,960.0,3839.0,,,,-1.89998554999258,-2.9861651354982,-1.36444308488062,,-1.5071067246110461,,
,4699.0,322.0,3258.0,843.0,-17.0,954.0,3832.0,,,,-1.8996051305302,-2.9861845254626,-1.36440527131311,,-1.4246942942872216,,
,4702.0,319.0,3255.0,842.0,-9.0,945.0,3832.0,,,,-1.89984229145413,-2.98608171303122,-1.36416888503604,,-1.3120264945737836,,
,4699.0,321.0,3257.0,842.0,-25.0,958.0,3841.0,,,,-1.89952675127457,-2.98599937689092,-1.3638088494308,,-1.1674403369841455,,
,4705.0,320.0,3257.0,841.0,-23.0,958.0,3844.0,,,,-1.89926163929875,-2.98622077328607,-1.36410498822568,,-0.9907184086639603,,
,4707.0,323.0,3258.0,845.0,-15.0,961.0,3834.0,,,,-1.89869132203522,-2.98613590428145,-1.36485090969908,,-0.7831694239099009,,
,4705.0,323.0,3257.0,845.0,-11.0,958.0,3842.0,,,,-1.89824779841114,-2.98602504532477,-1.36434068587312,,-0.5475925646899698,,
,4707.0,321.0,3256.0,843.0,-15.0,947.0,3847.0,,,,-1.89809693530787,-2.98601194966073,-1.36403360239903,,-0.2881402919859369,,
,4706.0,319.0,3259.0,840.0,13.0,962.0,3861.0,,,,-1.89644414306944,-2.98590195271053,-1.36371039899513,,-0.010104188113983562,,
,4706.0,321.0,3259.0,845.0,-7.0,970.0,3853.0,,,,-1.89593648630283,-2.98593451978735,-1.36369036636557,,0.28034632862134806,,
,4711.0,323.0,3260.0,845.0,-11.0,969.0,3827.0,,,,-1.8963620129096,-2.98599695186411,-1.36400350998962,,0.5764421580933156,,
,4710.0,321.0,3256.0,844.0,-6.0,970.0,3831.0,,,,-1.89558678034462,-2.98604416038501,-1.36350396525472,,0.8710832383574942,,
,4709.0,320.0,3257.0,842.0,-13.0,950.0,3844.0,,,,-1.89490090957511,-2.98606807708771,-1.36382059131434,,1.157078915919573,,
,4711.0,320.0,3258.0,843.0,-27.0,957.0,3830.0,,,,-1.89524920754192,-2.9861007244159,-1.36396706160321,,1.4273507544924855,,
,4713.0,323.0,3257.0,846.0,-14.0,953.0,3833.0,,,,-1.89453718979486,-2.98591338421777,-1.36356512440461,,1.6750992236037763,,
,4717.0,320.0,3259.0,846.0,-17.0,951.0,3837.0,,,,-1.8944222306025,-2.98607457335994,-1.36353129902801,,1.8939453624238212,,
,4715.0,323.0,3262.0,848.0,-8.0,954.0,3839.0,,,,-1.89424665042562,-2.98590593632805,-1.36270698492488,,2.078064674825802,,
,4718.0,320.0,3257.0,844.0,14.0,957.0,3831.0,,,,-1.89424076908275,-2.98593401591026,-1.36294239587411,,2.222331006453389,,
,4718.0,324.0,3260.0,849.0,-2.0,971.0,3855.0,,,,-1.89358656872445,-2.98587267963048,-1.36306534116624,,2.3224823665426935,,
,4718.0,323.0,3260.0,847.0,-12.0,969.0,3848.0,,,,-1.89385646735689,-2.98595765443664,-1.36310911442516,,2.375310088460729,,
,4720.0,324.0,3259.0,845.0,-1.0,970.0,3858.0,,,,-1.8930562502517,-2.98577797198453,-1.36339380650165,,2.378860398526109,,
,4721.0,321.0,3259.0,846.0,-1.0,951.0,3865.0,,,,-1.89313530252734,-2.98605963842081,-1.36278628359324,,2.3326266462005174,,
,4724.0,322.0,3262.0,847.0,-15.0,953.0,3851.0,,,,-1.89229832063161,-2.98586623971018,-1.36239675149531,,2.237703586274678,,
,4725.0,323.0,3260.0,846.0,-16.0,949.0,3832.0,,,,-1.89245692767858,-2.98603728721714,-1.3627907963118,,2.096873511856771,,
,4725.0,325.0,3259.0,847.0,-16.0,952.0,3845.0,,,,-1.89263231815613,-2.98594112331697,-1.36271566528626,,1.9145980135114402,,
,4726.0,325.0,3261.0,850.0,-17.0,957.0,3841.0,,,,-1.89150759685991,-2.98577664760419,-1.36240454475415,,1.6968979851296428,,
,4725.0,321.0,3257.0,845.0,-9.0,945.0,3836.0,,,,-1.8914611536395,-2.98586941743399,-1.36184153778165,,1.4511165731727933,,
,4731.0,321.0,3258.0,848.0,-7.0,946.0,3823.0,,,,-1.89122527944743,-2.98603602104271,-1.36336176995605,,1.1855729886036817,,
,4729.0,322.0,3261.0,849.0,5.0,960.0,3830.0,,,,-1.89097632474848,-2.98589182859981,-1.36215637096236,,0.9091276852148066,,
,4731.0,322.0,3262.0,851.0,1.0,972.0,3842.0,,,,-1.89039471362346,-2.98582834594882,-1.36220869523992,,0.6306902271944806,,
,4729.0,321.0,3261.0,846.0,-5.0,983.0,3847.0,,,,-1.89063401562276,-2.98589563482553,-1.36192961601535,,0.3587094041099724,,
,4734.0,324.0,3261.0,848.0,7.0,973.0,3855.0,,,,-1.89034033328223,-2.98588302153156,-1.36225517217779,,0.1006897069860824,,
,4733.0,322.0,3262.0,849.0,-10.0,965.0,3847.0,,,,-1.89025330870543,-2.98601861640238,-1.36302207550502,,-0.1372221562417213,,
,4735.0,322.0,3262.0,850.0,-8.0,969.0,3843.0,,,,-1.8893404237062,-2.98587802545901,-1.36225011038271,,-0.3505430953945883,,
,4733.0,323.0,3258.0,848.0,-14.0,972.0,3844.0,,,,-1.8894396989268,-2.98576880983588,-1.36174462665917,,-0.5366251277978352,,
,4729.0,323.0,3254.0,845.0,-15.0,968.0,3826.0,,,,-1.88862103405772,-2.98577464974014,-1.36231345227153,,-0.6946796133389728,,
,4730.0,323.0,3251.0,846.0,-17.0,979.0,3862.0,,,,-1.88832734812897,-2.98582338041495,-1.36189458280703,,-0.8256557605158182,,
,4728.0,320.0,3245.0,842.0,-22.0,964.0,3868.0,,,,-1.88812117918131,-2.98595873339536,-1.36225209202467,,-0.9319883509722131,,
,4725.0,322.0,3239.0,840.0,-18.0,967.0,3869.0,,,,-1.88751491234982,-2.98596183088986,-1.36220466740069,,-1.0172410515583665,,
,4721.0,320.0,3229.0,836.0,-11.0,964.0,3870.0,,,,-1.88773561411292,-2.9858848006744,-1.36165427961428,,-1.0856804179185906,,
,4720.0,321.0,3227.0,836.0,-7.0,965.0,3875.0,,,,-1.88701114629271,-2.98570992114534,-1.36122748746392,,-1.1418210834891034,,
,4715.0,320.0,3219.0,832.0,3.0,950.0,3876.0,,,,-1.88603907586825,-2.9857971821034,-1.36197191140967,,-1.1899841584297204,,
,4713.0,320.0,3212.0,830.0,-3.0,959.0,3870.0,,,,-1.88579738412314,-2.98584900168367,-1.36176006954799,,-1.2339083436444642,,
,4710.0,321.0,3207.0,827.0,-2.0,965.0,3843.0,,,,-1.88562147770952,-2.98592660126436,-1.36208444215963,,-1.276446778643559,,
,4707.0,318.0,3200.0,824.0,-2.0,968.0,3838.0,,,,-1.88415813688263,-2.98557966910014,-1.36045157764676,,-1.31937248331364,,
,4706.0,318.0,3197.0,822.0,-12.0,965.0,3828.0,,,,-1.88438118683553,-2.98582160757483,-1.36130955469275,,-1.3633021525452047,,
,4703.0,318.0,3193.0,822.0,-12.0,961.0,3847.0,,,,-1.88365744355548,-2.98573198806946,-1.36149146564199,,-1.4077335730959484,,
,4702.0,319.0,3193.0,822.0,-13.0,966.0,3837.0,,,,-1.88246579291533,-2.98576858410251,-1.36098074158363,,-1.4511785215788648,,
,4700.0,316.0,3183.0,819.0,-11.0,956.0,3840.0,,,,-1.8831816186146,-2.98581479838295,-1.36142275656758,,-1.4913634193919114,,
,4700.0,319.0,3184.0,820.0,-20.0,953.0,3850.0,,,,-1.88300365523551,-2.98578714607271,-1.36157111989226,,-1.5254660869985792,,
,4697.0,316.0,3182.0,817.0,-17.0,967.0,3859.0,,,,-1.88390849693533,-2.98584870729341,-1.36075109346679,,-1.5503586713346014,,
,4694.0,317.0,3180.0,815.0,-13.0,961.0,3846.0,,,,-1.88534593431767,-2.98574203944218,-1.36139758820053,,-1.5628326601164397,,
,4694.0,317.0,3177.0,817.0,-2.0,951.0,3825.0,,,,-1.88675854835675,-2.9855332672836,-1.36206336478396,,-1.5597897927940363,,
,4695.0,314.0,3175.0,815.0,-20.0,946.0,3831.0,,,,-1.88881293527919,-2.98580939229786,-1.36204391961354,,-1.5383910064888897,,
,4695.0,315.0,3171.0,817.0,-9.0,947.0,3813.0,,,,-1.89101443460657,-2.98590070320205,-1.36275063181204,,-1.496163299664052,,
,4692.0,316.0,3173.0,815.0,-11.0,962.0,3834.0,,,,-1.89156810134908,-2.98597079580155,-1.36148030610943,,-1.4310708382302892,,
,4693.0,316.0,3169.0,811.0,-13.0,980.0,3835.0,,,,-1.8932093972424,-2.9859824553514,-1.36318762378251,,-1.341561174468407,,
,4690.0,316.0,3167.0,812.0,11.0,974.0,3855.0,,,,-1.8937047523687,-2.98616345703543,-1.36354091957081,,-1.2265997428529924,,
,4689.0,314.0,3167.0,814.0,2.0,963.0,3839.0,,,,-1.89510515538274,-2.98597814956569,-1.36295311856879,,-1.085705751749492,,
,4696.0,317.0,3166.0,813.0,-17.0,963.0,3867.0,,,,-1.89570301728041,-2.98594311480292,-1.36362532256888,,-0.9190001702119117,,
,4692.0,316.0,3166.0,812.0,-17.0,965.0,3856.0,,,,-1.89517407668264,-2.98599466717024,-1.36411418065079,,-0.7272716321635062,,
,4691.0,314.0,3162.0,811.0,-22.0,962.0,3856.0,,,,-1.89460709448686,-2.98611366186325,-1.36405499076631,,-0.5120589729336765,,
,4693.0,315.0,3163.0,809.0,-25.0,963.0,3877.0,,,,-1.89502297189326,-2.98614804804431,-1.36364336909458,,-0.27574086766299066,,
,4693.0,317.0,3160.0,814.0,-1.0,946.0,3860.0,,,,-1.89484856106507,-2.98611149647554,-1.36469663907052,,-0.02161571399629945,,
,4694.0,318.0,3163.0,812.0,-3.0,965.0,3844.0,,,,-1.89492353691778,-2.98587778673367,-1.36411196151387,,0.2460492575775762,,
,4696.0,316.0,3158.0,813.0,7.0,970.0,3851.0,,,,-1.89450629474662,-2.98611092442614,-1.36384614808697,,0.5220204306777253,,
,4693.0,315.0,3162.0,811.0,-1.0,965.0,3857.0,,,,-1.89494472613736,-2.98589824658587,-1.36372368902706,,0.8001683669775291,,
2025-07-03 22:11:31,4693.0,317.0,3162.0,812.0,-8.0,968.0,3826.0,,,2025/07/03 10:11:31 PM,-1.89433028874278,-2.98599263507396,-1.36330521151713,,1.073616260155683,,
,4694.0,319.0,3159.0,810.0,5.0,964.0,3837.0,,,,-1.89451318019266,-2.98592939264044,-1.36340163528793,,1.3349680729895361,,
,4695.0,316.0,3160.0,811.0,-8.0,966.0,3863.0,,,,-1.89355658119235,-2.98592454107673,-1.36268634406276,,1.5766097079355885,,
,4692.0,314.0,3159.0,811.0,-19.0,966.0,3862.0,,,,-1.89385656624516,-2.98588758586705,-1.36238330972905,,1.7910679983732747,,
,4695.0,314.0,3159.0,810.0,-13.0,961.0,3851.0,,,,-1.89299401099166,-2.98579615895171,-1.36366091877019,,1.9714041213392441,,
,4693.0,317.0,3160.0,814.0,-6.0,955.0,3844.0,,,,-1.89307928075211,-2.98583140283392,-1.36283674829543,,2.111611091932879,,
,4698.0,315.0,3160.0,811.0,0.0,962.0,3853.0,,,,-1.89208205231382,-2.98605308109641,-1.36373937687799,,2.2069804060661244,,
,4694.0,316.0,3157.0,809.0,-2.0,962.0,3853.0,,,,-1.89164238802319,-2.98579421137181,-1.36326699799673,,2.2544018376608044,,
,4694.0,314.0,3155.0,808.0,0.0,960.0,3852.0,,,,-1.89225083163336,-2.98584570695476,-1.36299931681585,,2.252564023518525,,
,4694.0,316.0,3154.0,809.0,0.0,963.0,3835.0,,,,-1.89191141230973,-2.98612327467606,-1.36277262797181,,2.202032496078396,,
,4698.0,316.0,3156.0,809.0,-1.0,949.0,3849.0,,,,-1.89136287473809,-2.9860020944512,-1.36299145988345,,2.1051957446555574,,
,4696.0,316.0,3157.0,810.0,3.0,950.0,3859.0,,,,-1.89109007741442,-2.98589932313723,-1.3636511455167,,1.9660864267240843,,
,4697.0,316.0,3153.0,808.0,2.0,966.0,3860.0,,,,-1.89043785693599,-2.98594206301086,-1.36325573373837,,1.7901003978391108,,
,4694.0,315.0,3151.0,806.0,7.0,963.0,3848.0,,,,-1.89014350193393,-2.985921654044,-1.36393758005538,,1.5836472269378299,,
,4697.0,313.0,3152.0,805.0,-1.0,953.0,3850.0,,,,-1.88909920642532,-2.98607676816322,-1.36290286958246,,1.3537703089519866,,
,4696.0,316.0,3151.0,808.0,-8.0,957.0,3847.0,,,,-1.88819815947407,-2.98591418949976,-1.36300214594031,,1.107772682006525,,
,4697.0,315.0,3153.0,807.0,-6.0,964.0,3854.0,,,,-1.88790355973742,-2.98580011228766,-1.36234069433167,,0.8528777961729618,,
,4698.0,316.0,3150.0,806.0,-13.0,953.0,3846.0,,,,-1.88735635467016,-2.98590131140577,-1.36269885187564,,0.5959448233607901,,
,4697.0,316.0,3149.0,806.0,-3.0,968.0,3843.0,,,,-1.88776031501177,-2.98592645900248,-1.3632385914843,,0.34324758648860504,,
,4699.0,316.0,3149.0,806.0,2.0,964.0,3838.0,,,,-1.88788762167342,-2.98592344886287,-1.36305284207819,,0.10031652260918787,,
,4700.0,317.0,3149.0,806.0,-9.0,970.0,3841.0,,,,-1.88752860983319,-2.98592492965912,-1.36248667162007,,-0.12816439641799462,,
,4697.0,315.0,3150.0,807.0,-9.0,965.0,3839.0,,,,-1.88670140492865,-2.98589649414755,-1.36330434181593,,-0.33841839723939976,,
,4700.0,315.0,3149.0,805.0,-3.0,957.0,3852.0,,,,-1.88698187400636,-2.98589651796898,-1.36271997873541,,-0.5276081543079266,,
,4700.0,315.0,3150.0,805.0,1.0,965.0,3818.0,,,,-1.88695875209085,-2.98587221845886,-1.3629864297866,,-0.6938513222299552,,
,4698.0,316.0,3150.0,807.0,-11.0,958.0,3816.0,,,,-1.88768182074201,-2.98591414792989,-1.36222380879365,,-0.83622599292155,,
,4702.0,317.0,3150.0,805.0,-7.0,957.0,3821.0,,,,-1.88769684555217,-2.98606858961676,-1.36280551820352,,-0.9547656398040296,,
,4700.0,314.0,3147.0,806.0,-14.0,958.0,3827.0,,,,-1.887430966289,-2.98587358431741,-1.36264794306514,,-1.0504360827215364,,
,4701.0,313.0,3150.0,808.0,-14.0,954.0,3836.0,,,,-1.88633554813907,-2.98596114575166,-1.36200091810482,,-1.1250824267185098,,
,4705.0,316.0,3151.0,808.0,-20.0,951.0,3851.0,,,,-1.88721589931906,-2.98585627568721,-1.36251376785924,,-1.1813334669934674,,
,4703.0,316.0,3151.0,809.0,-22.0,958.0,3852.0,,,,-1.88730360316931,-2.98587492809821,-1.3629783248685,,-1.2224548138516294,,
,4703.0,317.0,3153.0,809.0,-12.0,963.0,3847.0,,,,-1.88677520438257,-2.98594416585378,-1.36243084640224,,-1.2521486564200484,,
,4705.0,317.0,3154.0,809.0,4.0,959.0,3830.0,,,,-1.88697371454725,-2.98580854239836,-1.36279225916751,,-1.2743058368459925,,
,4707.0,316.0,3154.0,808.0,-4.0,952.0,3842.0,,,,-1.88681083113763,-2.98604126872812,-1.36287977211182,,-1.2927233196959764,,
,4708.0,316.0,3155.0,810.0,-8.0,960.0,3873.0,,,,-1.88585468658642,-2.98588661177938,-1.36240403938124,,-1.3108064069666012,,
,4709.0,317.0,3154.0,809.0,-8.0,960.0,3873.0,,,,-1.88678913615285,-2.98593224859028,-1.36371484587393,,-1.3312796512815266,,
,4710.0,314.0,3154.0,807.0,-12.0,951.0,3845.0,,,,-1.88589554940651,-2.98588472996108,-1.36308485883782,,-1.3559328420419974,,
,4711.0,317.0,3158.0,809.0,-14.0,967.0,3842.0,,,,-1.88650077851747,-2.98588217624143,-1.36222031952392,,-1.385428228820464,,
,4711.0,317.0,3158.0,810.0,-8.0,968.0,3859.0,,,,-1.88539915051424,-2.98579789745361,-1.36271946091175,,-1.4191920551810282,,
,4711.0,316.0,3159.0,810.0,-8.0,959.0,3854.0,,,,-1.88475618251608,-2.98587668386333,-1.36172289238244,,-1.4554074325432236,,
,4714.0,314.0,3159.0,808.0,-6.0,964.0,3857.0,,,,-1.88480697724076,-2.98591403148212,-1.36241224095604,,-1.4911166684649246,,
,4711.0,315.0,3161.0,809.0,-16.0,957.0,3850.0,,,,-1.88420324116019,-2.98574614369147,-1.36180747701085,,-1.5224298121425612,,
,4715.0,316.0,3161.0,810.0,-5.0,961.0,3853.0,,,,-1.88298135610834,-2.98599944950435,-1.36183924066333,,-1.544823534857237,,
,4718.0,317.0,3163.0,813.0,-13.0,955.0,3845.0,,,,-1.88279715299582,-2.98586577299714,-1.36271092144068,,-1.5535025497919508,,
,4717.0,318.0,3164.0,810.0,-7.0,964.0,3857.0,,,,-1.88287968350135,-2.98584421011738,-1.3619851598243,,-1.5437871063258097,,
,4717.0,318.0,3164.0,810.0,5.0,962.0,3859.0,,,,-1.88284613035176,-2.98598206641349,-1.36237034414302,,-1.5114866812822028,,
,4718.0,318.0,3163.0,809.0,3.0,954.0,3865.0,,,,-1.88284468198249,-2.98580112197673,-1.36283144126671,,-1.4532224275579988,,
,4720.0,316.0,3167.0,811.0,6.0,951.0,3864.0,,,,-1.88251723416406,-2.98580842008885,-1.36247554238916,,-1.3666683228998409,,
,4721.0,317.0,3170.0,814.0,2.0,951.0,3856.0,,,,-1.88276513195907,-2.98577996042417,-1.36169838519681,,-1.2506916476200587,,
,4722.0,317.0,3166.0,812.0,-8.0,968.0,3852.0,,,,-1.88292157283068,-2.98579916681541,-1.36220824793086,,-1.105385866075749,,
,4723.0,317.0,3170.0,811.0,4.0,953.0,3843.0,,,,-1.88237072308483,-2.98580120157569,-1.36130945717033,,-0.9320019178238129,,
,4726.0,320.0,3171.0,814.0,-13.0,955.0,3819.0,,,,-1.88187901297057,-2.98574386526508,-1.36170379897039,,-0.732795985982269,,
,4727.0,319.0,3172.0,813.0,-12.0,951.0,3825.0,,,,-1.88155163393216,-2.98580693118485,-1.36147417760351,,-0.5108214470483905,,
,4725.0,319.0,3174.0,815.0,-5.0,950.0,3838.0,,,,-1.88182331533859,-2.98580235289614,-1.36176288476509,,-0.2696985240534469,,
,4728.0,318.0,3174.0,815.0,-6.0,951.0,3853.0,,,,-1.88166077390976,-2.98577860625859,-1.36085137790414,,-0.01339627277801785,,
,4730.0,318.0,3177.0,814.0,-7.0,966.0,3857.0,,,,-1.88122987217754,-2.98578332508867,-1.36137537568309,,0.2539424761663773,,
,4732.0,320.0,3177.0,815.0,6.0,961.0,3846.0,,,,-1.8816306491988,-2.98563016225708,-1.36158446010327,,0.5281116887752685,,
,4735.0,319.0,3179.0,815.0,10.0,958.0,3850.0,,,,-1.8815789741078,-2.98564656600552,-1.3615293518488,,0.8048800943789964,,
,4732.0,318.0,3178.0,815.0,2.0,968.0,3845.0,,,,-1.88170477997164,-2.98569085284658,-1.36116700931969,,1.079964185517718,,
,4731.0,317.0,3180.0,816.0,-19.0,964.0,3836.0,,,,-1.88077025831066,-2.98561299038049,-1.36138201429195,,1.3489587549682078,,
,4736.0,319.0,3181.0,816.0,-16.0,955.0,3835.0,,,,-1.88033273250853,-2.98567121866847,-1.36111587663086,,1.6072578045778008,,
,4736.0,319.0,3184.0,818.0,-22.0,964.0,3837.0,,,,-1.88004635408183,-2.98570907339801,-1.361376504525,,1.8500018723567413,,
,4735.0,320.0,3183.0,816.0,-25.0,959.0,3836.0,,,,-1.88029184902065,-2.98573439059392,-1.3608475183778,,2.072083489451894,,
,4738.0,318.0,3186.0,816.0,-24.0,965.0,3842.0,,,,-1.88000596950899,-2.9856893180173,-1.36049093038414,,2.268232215677126,,
,4738.0,319.0,3185.0,817.0,-14.0,962.0,3852.0,,,,-1.88052112521906,-2.9856316722441,-1.36104538467621,,2.433187076939745,,
,4741.0,321.0,3187.0,819.0,-4.0,958.0,3841.0,,,,-1.88055858629783,-2.98571753426768,-1.36160239754181,,2.561949604005101,,
,4739.0,321.0,3188.0,820.0,-11.0,960.0,3841.0,,,,-1.8798057092249,-2.9857073849078,-1.3602237455245,,2.650096790754998,,
,4741.0,319.0,3190.0,817.0,-8.0,970.0,3853.0,,,,-1.87895767096368,-2.98561553272255,-1.36046879593943,,2.6941215678355577,,
,4743.0,320.0,3190.0,819.0,-4.0,960.0,3838.0,,,,-1.87946139081116,-2.98566657364721,-1.36160748840631,,2.691760263456632,,
,4745.0,318.0,3192.0,819.0,5.0,962.0,3842.0,,,,-1.87950080948806,-2.98580196902972,-1.36055925762899,,2.6422633942863105,,
,4748.0,323.0,3196.0,822.0,12.0,968.0,3846.0,,,,-1.87887980613225,-2.98568058925603,-1.36053592140522,,2.5465690522437843,,
,4748.0,320.0,3194.0,821.0,3.0,970.0,3840.0,,,,-1.87882066643593,-2.98570214375302,-1.3606348213091,,2.4073475817068664,,
,4747.0,317.0,3195.0,819.0,-20.0,968.0,3853.0,,,,-1.87847745747017,-2.98588238356902,-1.3605066556895,,2.2289017301695107,,
,4748.0,319.0,3197.0,821.0,-6.0,955.0,3839.0,,,,-1.87903983672333,-2.98561935719807,-1.36119709708688,,2.016926215318304,,
,4748.0,320.0,3198.0,820.0,-11.0,949.0,3842.0,,,,-1.8780767314905,-2.98565107081955,-1.36093517708134,,1.7781512709677394,,
,4748.0,320.0,3196.0,819.0,-15.0,953.0,3832.0,,,,-1.87738997271195,-2.98587337765909,-1.35990131831701,,1.51991167579426,,
,4747.0,319.0,3193.0,820.0,-21.0,976.0,3833.0,,,,-1.87771081416022,-2.98569664597647,-1.35986405208508,,1.2496919115143357,,
,4745.0,321.0,3190.0,816.0,-10.0,972.0,3840.0,,,,-1.8780543415899,-2.98557797782209,-1.35978713946652,,0.974697589158162,,
,4744.0,322.0,3185.0,814.0,-20.0,950.0,3836.0,,,,-1.87641318694411,-2.98550001009774,-1.35911428303994,,0.7014943347133697,,
,4744.0,319.0,3181.0,811.0,-9.0,945.0,3830.0,,,,-1.87719675988778,-2.98567710327076,-1.36005497822107,,0.4357413210940961,,
,4738.0,321.0,3177.0,809.0,-6.0,950.0,3834.0,,,,-1.8769654806425,-2.9858605996503,-1.3593074356126,,0.18203130777371487,,
,4734.0,317.0,3168.0,802.0,-7.0,971.0,3849.0,,,,-1.87618286785708,-2.98559544841898,-1.35987292874269,,-0.05616490957727946,,
,4731.0,316.0,3166.0,805.0,-1.0,960.0,3857.0,,,,-1.87598739974077,-2.98546898715116,-1.35967430890196,,-0.2764629184478857,,
,4729.0,318.0,3161.0,803.0,3.0,974.0,3869.0,,,,-1.87635115033342,-2.98562721665259,-1.35957887569825,,-0.47745900705442296,,
,4729.0,317.0,3157.0,801.0,4.0,978.0,3866.0,,,,-1.87774194499044,-2.98555331694894,-1.36005463059583,,-0.658579489288921,,
,4723.0,316.0,3151.0,797.0,17.0,979.0,3843.0,,,,-1.87931838628691,-2.98569289972983,-1.36103491296863,,-0.8199107258966483,,
,4723.0,316.0,3150.0,798.0,-1.0,970.0,3836.0,,,,-1.8806070705523,-2.98575004085469,-1.36132329812246,,-0.9620330524281823,,
,4724.0,318.0,3147.0,798.0,-13.0,983.0,3831.0,,,,-1.88232236788683,-2.98576399189242,-1.3618273351481,,-1.085876709580573,,
,4719.0,316.0,3147.0,797.0,-11.0,985.0,3833.0,,,,-1.88350236149259,-2.98569999707511,-1.36194196826696,,-1.1926105046222717,,
,4717.0,315.0,3145.0,793.0,-13.0,977.0,3829.0,,,,-1.88459987640477,-2.9857949550413,-1.36159959249646,,-1.2835650517588235,,
,4716.0,315.0,3143.0,791.0,-1.0,952.0,3840.0,,,,-1.88586082217733,-2.98586781054038,-1.36179265910458,,-1.360183540832601,,
,4718.0,315.0,3144.0,792.0,12.0,968.0,3835.0,,,,-1.8878810973796,-2.98577377068775,-1.36335662054551,,-1.4239861979378237,,
,4714.0,314.0,3141.0,792.0,-2.0,965.0,3860.0,,,,-1.88905413809122,-2.98596717334656,-1.36273450776137,,-1.4765318647605918,,
,4716.0,316.0,3143.0,792.0,-9.0,959.0,3846.0,,,,-1.88939960890197,-2.98585981318234,-1.36385841716991,,-1.519362156190659,,
,4712.0,314.0,3142.0,792.0,-19.0,969.0,3846.0,,,,-1.88987753123309,-2.98591319254315,-1.36333599406288,,-1.5539195682239022,,
,4714.0,316.0,3142.0,791.0,-16.0,964.0,3833.0,,,,-1.8901933705876,-2.98599915414811,-1.36306485648204,,-1.581438778872223,,
,4713.0,315.0,3142.0,790.0,15.0,959.0,3809.0,,,,-1.89050701894699,-2.98590196283824,-1.36275346798358,,-1.6028183162544538,,
,4716.0,315.0,3142.0,792.0,8.0,962.0,3816.0,,,,-1.88997536642205,-2.98587237894248,-1.36414318244055,,-1.6184865153513728,,
,4712.0,313.0,3142.0,791.0,-3.0,984.0,3849.0,,,,-1.89010873616466,-2.98578222792806,-1.36287143368598,,-1.6282804948528058,,
,4712.0,313.0,3141.0,789.0,-13.0,960.0,3857.0,,,,-1.89113454393828,-2.98599850730565,-1.36331497007165,,-1.6313591151801046,,
,4712.0,314.0,3144.0,792.0,0.0,946.0,3841.0,,,,-1.89036980650499,-2.98600546611658,-1.36354518194866,,-1.626170015806362,,
,4712.0,316.0,3146.0,792.0,4.0,950.0,3854.0,,,,-1.89125125721234,-2.98594358555581,-1.36441886171492,,-1.610486755086579,,
,4713.0,314.0,3146.0,792.0,8.0,949.0,3856.0,,,,-1.89084916782306,-2.98592947530842,-1.36282156199747,,-1.581525101754237,,
,4713.0,315.0,3147.0,790.0,7.0,952.0,3827.0,,,,-1.89048629867488,-2.98604584660676,-1.3632351333279,,-1.5361382244631154,,
,4711.0,314.0,3146.0,790.0,-6.0,969.0,3825.0,,,,-1.8909149532115,-2.98617853305266,-1.36320417943982,,-1.4710796995522906,,
,4714.0,314.0,3149.0,790.0,12.0,959.0,3819.0,,,,-1.89095634663733,-2.98594768790051,-1.36296184036523,,-1.3833122333282315,,
,4715.0,314.0,3151.0,791.0,-5.0,961.0,3854.0,,,,-1.89093149192184,-2.98600492198242,-1.3639994066407,,-1.2703308864057192,,
,4713.0,315.0,3153.0,791.0,-9.0,953.0,3852.0,,,,-1.89123827969686,-2.98605139873951,-1.36391440343749,,-1.130464931596821,,
,4715.0,314.0,3152.0,789.0,-19.0,966.0,3826.0,,,,-1.89082952645331,-2.98594667815816,-1.36420467071768,,-0.9631240758825337,,
,4716.0,315.0,3153.0,793.0,-7.0,951.0,3817.0,,,,-1.88984802287263,-2.98604939434683,-1.36381191937815,,-0.7689625254386158,,
,4717.0,315.0,3154.0,791.0,-13.0,955.0,3836.0,,,,-1.89034090486975,-2.98593698863916,-1.36250600221667,,-0.5499461302982631,,
,4716.0,314.0,3154.0,791.0,-4.0,953.0,3844.0,,,,-1.89048828424927,-2.98608401800898,-1.36386608371816,,-0.30932054958213456,,
,4713.0,314.0,3155.0,790.0,1.0,959.0,3829.0,,,,-1.88932943024674,-2.9860352739363,-1.36249219161043,,-0.05148950850717879,,
,4715.0,315.0,3157.0,791.0,-1.0,951.0,3812.0,,,,-1.8900018220956,-2.98592500505451,-1.36296770741051,,0.21817950602875522,,
,4717.0,314.0,3160.0,792.0,-5.0,956.0,3827.0,,,,-1.88906486186366,-2.98592301897099,-1.36268521643878,,0.49359968770640567,,
,4717.0,317.0,3157.0,792.0,-13.0,959.0,3835.0,,,,-1.88897290215174,-2.98594535137116,-1.36243887399722,,0.768235149303318,,
,4716.0,316.0,3158.0,788.0,-21.0,969.0,3844.0,,,,-1.88846649288291,-2.98593906633231,-1.36296288330529,,1.0353736244125906,,
,4717.0,315.0,3157.0,790.0,-9.0,947.0,3860.0,,,,-1.88828667344758,-2.98597127679201,-1.36287976100552,,1.288381817507836,,
,4718.0,317.0,3159.0,789.0,-11.0,958.0,3857.0,,,,-1.88858942874776,-2.98583605209033,-1.36248932382871,,1.5209291298926477,,
,4718.0,316.0,3160.0,790.0,14.0,966.0,3832.0,,,,-1.8877757121261,-2.98590256284773,-1.36296650799192,,1.7271725660711934,,
,4719.0,315.0,3159.0,790.0,23.0,955.0,3824.0,,,,-1.8873731072557,-2.9858525898004,-1.36216741703816,,1.9019034899395768,,
,4718.0,313.0,3158.0,791.0,7.0,968.0,3845.0,,,,-1.88802337114332,-2.9858750997702,-1.36236232780138,,2.040664129043647,,
,4716.0,314.0,3159.0,789.0,1.0,970.0,3841.0,,,,-1.88859475359386,-2.98606717984217,-1.36296665641861,,2.1398462153705173,,
,4717.0,314.0,3161.0,790.0,7.0,975.0,3856.0,,,,-1.88804747318856,-2.98596260595343,-1.36166973249042,,2.1967839892282486,,
,4719.0,315.0,3161.0,790.0,-1.0,981.0,3873.0,,,,-1.88716375157251,-2.98592284624945,-1.3627511317893,,2.2098485754816566,,
,4718.0,314.0,3161.0,790.0,1.0,959.0,3872.0,,,,-1.88827644242924,-2.98603901302428,-1.36336566414849,,2.178542201313969,,
,4718.0,315.0,3160.0,787.0,-19.0,958.0,3843.0,,,,-1.8885291551764,-2.98591650581441,-1.36299045079642,,2.103581991218734,,
,4719.0,316.0,3162.0,788.0,-16.0,972.0,3848.0,,,,-1.88814068078972,-2.98597435428118,-1.36315483104228,,1.986957108240557,,
,4719.0,316.0,3164.0,790.0,-18.0,979.0,3837.0,,,,-1.88871716419595,-2.98597626333813,-1.36288865513011,,1.8319413278180667,,
2025-07-03 22:11:32,4719.0,314.0,3163.0,789.0,-25.0,990.0,3835.0,,,2025/07/03 10:11:32 PM,-1.88878770469029,-2.98596012309936,-1.36336138012002,,1.6430455598347256,,
,4722.0,312.0,3164.0,788.0,-30.0,978.0,3840.0,,,,-1.8888995902226,-2.98589789312635,-1.36323673881547,,1.4259001629685284,,
,4719.0,315.0,3165.0,787.0,-12.0,973.0,3845.0,,,,-1.88858535093584,-2.98608885406441,-1.36301310973905,,1.1870636979498375,,
,4722.0,314.0,3168.0,788.0,-10.0,960.0,3833.0,,,,-1.88817400610619,-2.98582764830032,-1.36257397637807,,0.9337619299308905,,
,4722.0,315.0,3166.0,789.0,-14.0,956.0,3819.0,,,,-1.8884957402061,-2.98615891289409,-1.36339084097329,,0.673567838242477,,
,4724.0,315.0,3169.0,790.0,0.0,956.0,3812.0,,,,-1.88790741118062,-2.98603612878568,-1.36339252663342,,0.41404001936018286,,
,4722.0,315.0,3171.0,788.0,-6.0,958.0,3844.0,,,,-1.88786638612698,-2.9860171085278,-1.3628120688007,,0.16234309016526183,,
,4726.0,315.0,3174.0,790.0,9.0,958.0,3854.0,,,,-1.88735000136537,-2.98587709135629,-1.36295670613978,,-0.07512117453179265,,
,4727.0,317.0,3172.0,793.0,-4.0,960.0,3839.0,,,,-1.88778821877426,-2.98586085196613,-1.36198691760099,,-0.29304064376945527,,
,4728.0,315.0,3174.0,789.0,-11.0,957.0,3824.0,,,,-1.88691922057377,-2.98597724015434,-1.36392350004602,,-0.48744766830767644,,
,4726.0,315.0,3174.0,792.0,-8.0,959.0,3828.0,,,,-1.88692254368712,-2.98591355145545,-1.36263513578055,,-0.6558779688313913,,
,4728.0,315.0,3178.0,793.0,1.0,961.0,3826.0,,,,-1.88668007853483,-2.98608034614776,-1.3630037154215,,-0.7974190634876765,,
,4729.0,317.0,3181.0,795.0,-2.0,952.0,3835.0,,,,-1.88586240103578,-2.98607039036707,-1.36269138299829,,-0.9126449361918493,,
,4731.0,314.0,3181.0,792.0,-10.0,961.0,3831.0,,,,-1.8858255399167,-2.98605449927206,-1.36236779503642,,-1.003444800177499,,
,4728.0,316.0,3180.0,791.0,-10.0,968.0,3814.0,,,,-1.88514472778016,-2.98611891911157,-1.3624434601336,,-1.0727636460678378,,
,4730.0,316.0,3182.0,792.0,3.0,959.0,3828.0,,,,-1.88539798348561,-2.98590127805083,-1.36258423870587,,-1.1242799666922318,,
,4733.0,314.0,3184.0,794.0,0.0,960.0,3845.0,,,,-1.88529609025393,-2.98596886489213,-1.36270400201092,,-1.16205099161238,,
,4736.0,315.0,3186.0,793.0,10.0,961.0,3853.0,,,,-1.88467192199222,-2.98598141484632,-1.36233854186295,,-1.1901575014338368,,
,4735.0,317.0,3189.0,796.0,4.0,952.0,3851.0,,,,-1.8844590608584,-2.98608026687187,-1.36230788925015,,-1.2123787040152205,,
,4733.0,314.0,3188.0,791.0,-4.0,960.0,3867.0,,,,-1.8842920545359,-2.98602707389396,-1.36239854856554,,-1.2319228878036388,,
,4736.0,316.0,3192.0,796.0,-7.0,962.0,3835.0,,,,-1.88476586171233,-2.98602518836581,-1.36214043485784,,-1.2512319331168626,,
,4737.0,318.0,3193.0,796.0,-19.0,964.0,3811.0,,,,-1.88402932778457,-2.98601171483133,-1.36178019136424,,-1.271867892644093,,
,4739.0,317.0,3192.0,795.0,-19.0,965.0,3830.0,,,,-1.8838790425809,-2.9859851675376,-1.36188023989862,,-1.2944790522946996,,
,4739.0,318.0,3196.0,796.0,-1.0,949.0,3829.0,,,,-1.88470139326369,-2.98575872555112,-1.36215747285044,,-1.3188332422080358,,
,4736.0,316.0,3196.0,796.0,-5.0,954.0,3851.0,,,,-1.88389706334174,-2.98585794870332,-1.36214373980296,,-1.3438999957506625,,
,4739.0,319.0,3197.0,798.0,-6.0,949.0,3857.0,,,,-1.88354680459185,-2.9859191263803,-1.36206755480665,,-1.3679618482597276,,
,4742.0,315.0,3199.0,796.0,-14.0,989.0,3839.0,,,,-1.8828527305796,-2.98581213256984,-1.36203410706868,,-1.3887382787483578,,
,4744.0,316.0,3199.0,798.0,-14.0,987.0,3851.0,,,,-1.88335249486525,-2.98565635378422,-1.36191182942744,,-1.403511710894224,,
,4743.0,316.0,3199.0,796.0,3.0,979.0,3850.0,,,,-1.88301548920546,-2.98596809786019,-1.36241432434626,,-1.409251450026433,,
,4745.0,315.0,3204.0,797.0,-2.0,969.0,3836.0,,,,-1.88288841874513,-2.98598591567671,-1.36074104507433,,-1.4027369087109738,,
,4744.0,315.0,3202.0,798.0,-11.0,965.0,3829.0,,,,-1.88255609269045,-2.98599328080322,-1.36128886201243,,-1.3806851958658506,,
,4746.0,317.0,3204.0,797.0,-16.0,974.0,3819.0,,,,-1.88289453930342,-2.9859493907344,-1.36201074170371,,-1.3398897277648825,,
,4747.0,314.0,3207.0,798.0,-8.0,971.0,3817.0,,,,-1.88241019928982,-2.98612338843919,-1.36114464103587,,-1.2773757691315581,,
,4747.0,315.0,3210.0,798.0,1.0,967.0,3844.0,,,,-1.8829933400348,-2.98573306987036,-1.36156504107506,,-1.1905758624429525,,
,4749.0,317.0,3212.0,800.0,-3.0,971.0,3842.0,,,,-1.88294073135152,-2.9856819811895,-1.36160134858529,,-1.0775234500207058,,
,4749.0,316.0,3213.0,801.0,7.0,973.0,3837.0,,,,-1.88194028335042,-2.98587227214494,-1.36125476370046,,-0.9370572595744904,,
,4753.0,317.0,3212.0,800.0,0.0,965.0,3839.0,,,,-1.88183463075402,-2.98603528305866,-1.36141544546006,,-0.769022837149341,,
,4751.0,315.0,3214.0,798.0,-2.0,970.0,3841.0,,,,-1.88127844367141,-2.98569665009477,-1.36206479894015,,-0.5744518739107528,,
,4752.0,316.0,3214.0,800.0,4.0,956.0,3840.0,,,,-1.88137719332319,-2.98587951535112,-1.36197466822169,,-0.3556961408756731,,
,4754.0,316.0,3218.0,800.0,6.0,962.0,3850.0,,,,-1.88105833643802,-2.98583845302806,-1.3616248368271,,-0.11649257810887517,,
,4753.0,317.0,3217.0,802.0,-1.0,967.0,3857.0,,,,-1.8816943613163,-2.9857811089451,-1.36139758661486,,0.13805972549048748,,
,4754.0,318.0,3218.0,799.0,-11.0,962.0,3840.0,,,,-1.88117319952524,-2.98600247235859,-1.36049789939587,,0.40162189851888624,,
,4754.0,316.0,3218.0,801.0,0.0,967.0,3860.0,,,,-1.88041394801355,-2.98598235102316,-1.36136231416709,,0.6668382215108222,,
,4756.0,316.0,3218.0,803.0,-7.0,957.0,3874.0,,,,-1.88124195259923,-2.98576019968883,-1.36135608067197,,0.9256508079054702,,
,4754.0,317.0,3220.0,801.0,0.0,966.0,3870.0,,,,-1.88008633246861,-2.98588588747928,-1.36063539626162,,1.1696882894727259,,
,4757.0,317.0,3224.0,801.0,-4.0,952.0,3834.0,,,,-1.88082680927418,-2.98591672824391,-1.36189765014696,,1.3907033370799367,,
,4758.0,316.0,3220.0,801.0,-16.0,959.0,3851.0,,,,-1.88050214104648,-2.98590276000149,-1.36119653993267,,1.581028107245758,,
,4755.0,319.0,3219.0,798.0,-13.0,963.0,3842.0,,,,-1.88035972740148,-2.98573088184965,-1.36089213553525,,1.7340130619333944,,
,4752.0,317.0,3216.0,798.0,-15.0,972.0,3849.0,,,,-1.88007996263646,-2.98583034775014,-1.36082220014357,,1.8444136734521481,,
,4751.0,316.0,3212.0,795.0,-3.0,972.0,3836.0,,,,-1.87968878822404,-2.98572376961896,-1.36041570578723,,1.9086919611851298,,
,4749.0,315.0,3208.0,792.0,-9.0,974.0,3850.0,,,,-1.87961056233752,-2.98588057991837,-1.36061358760466,,1.9252061512889638,,
,4750.0,312.0,3204.0,790.0,-13.0,950.0,3866.0,,,,-1.8793776083647,-2.98574927797334,-1.36027480616539,,1.8942720504664552,,
,4743.0,313.0,3202.0,788.0,-10.0,950.0,3870.0,,,,-1.8794950056815,-2.98588615022946,-1.36022093648058,,1.8180930154862962,,
,4740.0,314.0,3197.0,788.0,-12.0,947.0,3862.0,,,,-1.87859241785021,-2.9858999980355,-1.36085103123676,,1.700569512411296,,
,4736.0,313.0,3198.0,786.0,-11.0,957.0,3840.0,,,,-1.87903966190515,-2.98579722897999,-1.36006868534275,,1.5470114168633138,,
,4737.0,311.0,3193.0,781.0,0.0,980.0,3825.0,,,,-1.87934734894073,-2.98580187591042,-1.3598809368108,,1.363784166518429,,
,4733.0,312.0,3192.0,783.0,4.0,976.0,3801.0,,,,-1.87974706198126,-2.98554763748747,-1.36138549129913,,1.1579227581178941,,
,4731.0,312.0,3190.0,782.0,0.0,969.0,3817.0,,,,-1.88070600211618,-2.98585894563007,-1.36068256623798,,0.9367458405379138,,
,4730.0,315.0,3191.0,782.0,-5.0,970.0,3827.0,,,,-1.88250734664174,-2.98583260747103,-1.36157173003359,,0.7074969743376814,,
,4727.0,310.0,3187.0,775.0,8.0,959.0,3838.0,,,,-1.8841520754792,-2.98588525573173,-1.36162002503425,,0.47703282529541763,,
,4726.0,314.0,3190.0,778.0,2.0,956.0,3838.0,,,,-1.88494191730142,-2.98580761161926,-1.36141288185057,,0.25156987974982936,,
,4725.0,313.0,3187.0,778.0,-6.0,959.0,3861.0,,,,-1.88679293991067,-2.98602723909785,-1.36203983019852,,0.03649339283158325,,
,4726.0,315.0,3189.0,780.0,-1.0,960.0,3855.0,,,,-1.88862859268096,-2.98601951000323,-1.36303811735441,,-0.16377423665583848,,
,4722.0,312.0,3188.0,778.0,-9.0,954.0,3826.0,,,,-1.8902041480384,-2.98600094681743,-1.36311938325314,,-0.34585279295363247,,
,4723.0,310.0,3189.0,776.0,-10.0,957.0,3805.0,,,,-1.89075899188496,-2.98587444942542,-1.36409342476541,,-0.507439941920226,,
,4720.0,312.0,3190.0,777.0,-1.0,960.0,3845.0,,,,-1.89244995225405,-2.98599290030561,-1.36348741009728,,-0.6473105121548354,,
,4720.0,312.0,3188.0,778.0,1.0,972.0,3865.0,,,,-1.89284968737756,-2.98615976357963,-1.36409163407574,,-0.765282584796851,,
,4722.0,311.0,3188.0,776.0,-4.0,972.0,3867.0,,,,-1.89279187295423,-2.98595493696721,-1.36483720765374,,-0.8621485913428623,,
,4720.0,310.0,3189.0,776.0,4.0,975.0,3853.0,,,,-1.89380933890454,-2.98605539054854,-1.36423982987755,,-0.9395657914386651,,
,4720.0,311.0,3191.0,777.0,-5.0,971.0,3858.0,,,,-1.89397563745006,-2.98613202688183,-1.36418002182367,,-0.9998999050797392,,
,4719.0,311.0,3193.0,776.0,-10.0,960.0,3866.0,,,,-1.89467258658076,-2.98610451531508,-1.36402970557443,,-1.0460190543217933,,
,4719.0,312.0,3193.0,777.0,-6.0,957.0,3860.0,,,,-1.89531421252849,-2.9859680416744,-1.36408343492418,,-1.0810416789834658,,
,4721.0,311.0,3193.0,777.0,-8.0,954.0,3864.0,,,,-1.89400020433769,-2.98599126681335,-1.36449789366114,,-1.1080499232694647,,
,4720.0,312.0,3194.0,776.0,-5.0,968.0,3841.0,,,,-1.89506615325721,-2.98597204766873,-1.36370867627178,,-1.1297873898097388,,
,4723.0,313.0,3196.0,777.0,-9.0,962.0,3797.0,,,,-1.8941104005559,-2.98589606982292,-1.36483253287779,,-1.1483659699134876,,
,4722.0,314.0,3198.0,777.0,4.0,971.0,3827.0,,,,-1.89446837291461,-2.98620131742247,-1.36406725640946,,-1.165009967581495,,
,4723.0,313.0,3200.0,781.0,-6.0,978.0,3839.0,,,,-1.89450682350494,-2.98588848181624,-1.36434549959024,,-1.1798663238384277,,
,4722.0,312.0,3199.0,777.0,-14.0,978.0,3852.0,,,,-1.89477673466002,-2.98614958386415,-1.36424232485997,,-1.1919069290022737,,
,4722.0,311.0,3201.0,779.0,-17.0,973.0,3862.0,,,,-1.89474955165614,-2.98611046135448,-1.36440427679001,,-1.1989426487191797,,
,4723.0,312.0,3205.0,778.0,-13.0,986.0,3865.0,,,,-1.89532329763971,-2.98608234884795,-1.36442969621466,,-1.1977590388257946,,
,4722.0,310.0,3203.0,780.0,-14.0,982.0,3865.0,,,,-1.89434888913959,-2.9860951249228,-1.36415148063515,,-1.18437133959404,,
,4723.0,311.0,3204.0,778.0,-18.0,968.0,3856.0,,,,-1.89472020500275,-2.98598054752155,-1.36447563782131,,-1.1543821775909142,,
,4722.0,311.0,3206.0,780.0,-9.0,976.0,3834.0,,,,-1.89531491952151,-2.98614663212762,-1.36355606447348,,-1.1034111385005967,,
,4723.0,311.0,3207.0,780.0,-25.0,963.0,3859.0,,,,-1.89554880062794,-2.98611077617331,-1.36423153294579,,-1.0275535679180725,,
,4723.0,311.0,3209.0,781.0,-14.0,956.0,3836.0,,,,-1.89461662764802,-2.9859879535581,-1.36397510524488,,-0.9238195574586145,,
,4721.0,313.0,3210.0,779.0,-18.0,957.0,3843.0,,,,-1.89449504308073,-2.98610004520035,-1.36382805568694,,-0.7905051897325073,,
,4718.0,311.0,3207.0,777.0,-14.0,974.0,3859.0,,,,-1.89429182562489,-2.98593464903128,-1.36458961624273,,-0.6274568291708629,,
,4723.0,309.0,3210.0,779.0,-15.0,970.0,3866.0,,,,-1.89447273316591,-2.98619234561877,-1.36401752140802,,-0.4362034408933157,,
,4723.0,313.0,3210.0,779.0,-6.0,961.0,3844.0,,,,-1.8949598026973,-2.98602306814805,-1.36366723235499,,-0.21994832742882392,,
,4723.0,312.0,3212.0,778.0,-1.0,966.0,3838.0,,,,-1.89471121316835,-2.98613110993536,-1.36357946051569,,0.016572701422136314,,
,4722.0,311.0,3212.0,777.0,10.0,973.0,3836.0,,,,-1.89393612876991,-2.98600159693098,-1.36337952122051,,0.2673468213198699,,
,4720.0,309.0,3213.0,775.0,8.0,974.0,3829.0,,,,-1.89316936272977,-2.98612176510661,-1.36450983963048,,0.5254243101788411,,
,4724.0,312.0,3213.0,777.0,4.0,960.0,3833.0,,,,-1.89304980299576,-2.98617182944093,-1.36372161242091,,0.7833092660309213,,
,4724.0,311.0,3216.0,780.0,-17.0,961.0,3844.0,,,,-1.89271587041183,-2.98610586164156,-1.36386540818032,,1.033365921081551,,
,4723.0,312.0,3216.0,779.0,-19.0,965.0,3845.0,,,,-1.89261762343043,-2.98603492133622,-1.3630696476566,,1.2682079718446069,,
,4723.0,310.0,3217.0,779.0,-12.0,964.0,3862.0,,,,-1.89357671206165,-2.98602870482417,-1.36368793237299,,1.4810434675147568,,
,4722.0,312.0,3220.0,779.0,2.0,967.0,3857.0,,,,-1.89341865078881,-2.98584755388495,-1.36379053063185,,1.6659550968910442,,
,4723.0,312.0,3222.0,779.0,-14.0,962.0,3861.0,,,,-1.89357788935579,-2.98603157351841,-1.36436518155841,,1.8181047191947861,,
,4724.0,312.0,3221.0,778.0,-21.0,962.0,3857.0,,,,-1.89417119374415,-2.9859207003292,-1.3649867089685,,1.933860737459117,,
,4723.0,312.0,3223.0,780.0,-18.0,964.0,3839.0,,,,-1.89402438903896,-2.98581803192628,-1.36455518175992,,2.010855610275144,,
,4722.0,313.0,3224.0,780.0,-16.0,963.0,3856.0,,,,-1.89444942776906,-2.98615694634723,-1.36348110064371,,2.0479863023393086,,
,4725.0,313.0,3224.0,779.0,-5.0,965.0,3867.0,,,,-1.89449430042898,-2.98601092942656,-1.36434524479744,,2.0453715887087305,,
,4726.0,309.0,3228.0,778.0,5.0,955.0,3850.0,,,,-1.89506912570173,-2.98593877968917,-1.36401966458345,,2.0042775285131937,,
,4725.0,310.0,3230.0,779.0,1.0,958.0,3842.0,,,,-1.89430024384676,-2.9860574832402,-1.36340298084475,,1.9270183259093667,,
,4725.0,312.0,3229.0,779.0,-4.0,969.0,3846.0,,,,-1.89471239509864,-2.9860525888646,-1.36440582570573,,1.816836544847039,,
,4727.0,312.0,3229.0,782.0,-17.0,950.0,3861.0,,,,-1.89398798003894,-2.98608638786233,-1.3638615845824,,1.6777653323279704,,
,4728.0,311.0,3234.0,781.0,-10.0,957.0,3853.0,,,,-1.89366945809398,-2.98609579873798,-1.36453894471249,,1.5144754796235063,,
,4729.0,311.0,3235.0,783.0,-15.0,961.0,3862.0,,,,-1.89396879563399,-2.98600893492036,-1.3638496976746,,1.3321106761079706,,
,4729.0,311.0,3235.0,781.0,-25.0,962.0,3869.0,,,,-1.89402967365249,-2.98594371949411,-1.36435715697285,,1.136114367122192,,
,4730.0,314.0,3237.0,783.0,-11.0,962.0,3832.0,,,,-1.89305485314689,-2.98597080975616,-1.36414362978724,,0.9320510436992848,,
,4730.0,311.0,3239.0,785.0,-5.0,956.0,3842.0,,,,-1.89328369622494,-2.98606851455055,-1.36444562152044,,0.7254239129992973,,
,4730.0,311.0,3241.0,788.0,-8.0,955.0,3852.0,,,,-1.89345358618085,-2.98602266851212,-1.36495329210659,,0.5214904468190508,,
,4733.0,312.0,3243.0,786.0,-2.0,956.0,3853.0,,,,-1.89295809274157,-2.98620870254526,-1.36381097857182,,0.325078144217811,,
,4733.0,311.0,3245.0,784.0,-18.0,958.0,3835.0,,,,-1.89326626046342,-2.98588815723601,-1.36404076926939,,0.14040543757362195,,
,4733.0,314.0,3246.0,786.0,-7.0,956.0,3842.0,,,,-1.8921706705322,-2.98605375537147,-1.3640256424245,,-0.029083440239133087,,
,4736.0,313.0,3247.0,786.0,-25.0,963.0,3860.0,,,,-1.89198539232763,-2.98594856174265,-1.36384541301104,,-0.18085701410074984,,
,4736.0,315.0,3250.0,787.0,-28.0,969.0,3867.0,,,,-1.89127137240197,-2.98595939258492,-1.36378691729687,,-0.31339396187456303,,
,4735.0,311.0,3249.0,785.0,-16.0,985.0,3863.0,,,,-1.89062923310849,-2.98591572909224,-1.3633942812237,,-0.426225819909343,,
,4735.0,313.0,3253.0,786.0,-27.0,973.0,3825.0,,,,-1.89072381164384,-2.98586654449806,-1.36408333391882,,-0.5199156153947504,,
,4737.0,311.0,3253.0,790.0,-9.0,966.0,3843.0,,,,-1.89070350609252,-2.98600608352046,-1.36279622217905,,-0.5959691674634401,,
,4740.0,315.0,3257.0,789.0,-3.0,960.0,3845.0,,,,-1.89057920154099,-2.98596456172133,-1.36364353301517,,-0.6566824276759976,,
,4741.0,312.0,3258.0,789.0,-5.0,959.0,3837.0,,,,-1.8901982247621,-2.98592258967836,-1.36313726060906,,-0.7049343200535075,,
,4739.0,312.0,3261.0,789.0,-6.0,954.0,3848.0,,,,-1.89063537879645,-2.98596000885609,-1.36307231226615,,-0.7439396605028807,,
,4741.0,314.0,3259.0,790.0,-14.0,952.0,3839.0,,,,-1.89049364640494,-2.98609919110591,-1.36382910034066,,-0.7769807037201253,,
,4742.0,315.0,3266.0,793.0,-11.0,964.0,3850.0,,,,-1.89089371169387,-2.9858919037089,-1.36277862144709,,-0.8071384392311224,,
,4744.0,317.0,3268.0,794.0,-13.0,965.0,3853.0,,,,-1.89134164660127,-2.98587741969251,-1.36336079313489,,-0.8370456499953296,,
,4743.0,315.0,3267.0,793.0,-20.0,962.0,3867.0,,,,-1.8896383188818,-2.98588315268727,-1.36383440762588,,-0.8686827434183889,,
,4747.0,314.0,3266.0,794.0,-4.0,974.0,3845.0,,,,-1.89010718536224,-2.98603367837287,-1.36293038325112,,-0.9032343064076226,,
2025-07-03 22:11:33,4748.0,313.0,3270.0,793.0,-2.0,973.0,3845.0,,,2025/07/03 10:11:33 PM,-1.89032547989037,-2.98609299465849,-1.36360677347503,,-0.9410190629444861,,
,4749.0,315.0,3272.0,795.0,0.0,967.0,3837.0,,,,-1.88926280373172,-2.98609940457905,-1.36344681702293,,-0.9814984146854164,,
,4745.0,315.0,3271.0,793.0,-3.0,961.0,3813.0,,,,-1.89000679583771,-2.98586191516407,-1.36258925050233,,-1.023359548022586,,
,4749.0,312.0,3275.0,794.0,-1.0,966.0,3853.0,,,,-1.88999970606524,-2.9859131531708,-1.36292218263741,,-1.0646595844185884,,
,4750.0,315.0,3274.0,797.0,-12.0,969.0,3838.0,,,,-1.88975865038246,-2.98604876330357,-1.36323862745517,,-1.1030095616545637,,
,4751.0,316.0,3278.0,795.0,-14.0,959.0,3839.0,,,,-1.88939864939449,-2.98587418590676,-1.36276410562042,,-1.1357732606612223,,
,4751.0,317.0,3280.0,797.0,-20.0,959.0,3835.0,,,,-1.88937553632946,-2.98599088710753,-1.36330407200469,,-1.1602570337283735,,
,4751.0,312.0,3281.0,793.0,-14.0,958.0,3831.0,,,,-1.88931177466307,-2.98585966700437,-1.36192106147781,,-1.1738721671557526,,
,4752.0,312.0,3281.0,796.0,-12.0,956.0,3842.0,,,,-1.89015198053736,-2.98609262120862,-1.3623552335877,,-1.1742590298356606,,
,4752.0,314.0,3285.0,797.0,-6.0,958.0,3851.0,,,,-1.88944134610516,-2.9858796687244,-1.36220837219797,,-1.159370289966831,,
,4755.0,316.0,3286.0,798.0,-5.0,964.0,3839.0,,,,-1.88882936121388,-2.98592479470471,-1.36227664711518,,-1.1275174368533991,,
,4756.0,315.0,3289.0,800.0,-14.0,974.0,3850.0,,,,-1.88949812710513,-2.98579084498204,-1.36304636814364,,-1.0773900123204136,,
,4757.0,313.0,3288.0,798.0,-14.0,972.0,3860.0,,,,-1.88915564475422,-2.98589035607495,-1.36208644532229,,-1.0080599994914357,,
,4757.0,314.0,3291.0,801.0,-4.0,968.0,3866.0,,,,-1.88865922869594,-2.98598452042377,-1.36201098089571,,-0.9189846552244336,,
,4761.0,315.0,3293.0,799.0,-4.0,973.0,3865.0,,,,-1.88866314321921,-2.98583051578121,-1.36272785555632,,-0.8100199148200146,,
,4760.0,313.0,3294.0,802.0,0.0,967.0,3864.0,,,,-1.88862037764391,-2.98583703042954,-1.36209023850963,,-0.6814536831038441,,
,4761.0,313.0,3295.0,800.0,-15.0,973.0,3828.0,,,,-1.88846646942227,-2.98595254752882,-1.36216373558335,,-0.5340640017789416,,
,4762.0,316.0,3298.0,800.0,-14.0,957.0,3810.0,,,,-1.88828744991184,-2.98597034257268,-1.36302404500967,,-0.36920114823782807,,
,4763.0,318.0,3297.0,802.0,-24.0,960.0,3833.0,,,,-1.88882429308842,-2.98602534961336,-1.36285853830137,,-0.18888529782845595,,
,4759.0,315.0,3294.0,802.0,-14.0,958.0,3828.0,,,,-1.88761851836571,-2.98592272263473,-1.362464654734,,0.004096526701445317,,
,4757.0,315.0,3294.0,796.0,9.0,952.0,3825.0,,,,-1.88773463707943,-2.98590459245986,-1.36246479489581,,0.20611686123429893,,
,4755.0,313.0,3293.0,796.0,-1.0,955.0,3853.0,,,,-1.88777311342045,-2.98585678137895,-1.36153439619172,,0.41268276107979557,,
,4750.0,315.0,3290.0,795.0,-12.0,968.0,3863.0,,,,-1.88790103434534,-2.98596246601901,-1.36099214652146,,0.6184820091995433,,
,4748.0,313.0,3288.0,792.0,-9.0,971.0,3864.0,,,,-1.88692814816278,-2.98584301895496,-1.36162264039696,,0.8175161140861232,,
,4746.0,314.0,3286.0,791.0,-1.0,965.0,3862.0,,,,-1.88726249745257,-2.98605477783902,-1.3623698659676,,1.0033254522664687,,
,4741.0,312.0,3281.0,788.0,1.0,952.0,3851.0,,,,-1.88674221522421,-2.98586800740228,-1.36180059280458,,1.1693004353539307,,
,4739.0,313.0,3281.0,789.0,0.0,964.0,3855.0,,,,-1.88666130139336,-2.98596910401467,-1.36152310236157,,1.3090610678277483,,
,4735.0,314.0,3279.0,787.0,-25.0,968.0,3852.0,,,,-1.88541811260297,-2.98598190507893,-1.36168418692264,,1.4168765784833477,,
,4733.0,315.0,3276.0,786.0,-30.0,974.0,3844.0,,,,-1.88579089577545,-2.98573404714053,-1.36131345150701,,1.4880879092477344,,
,4728.0,312.0,3276.0,783.0,-14.0,978.0,3855.0,,,,-1.88511396702615,-2.98568348721062,-1.36170543376035,,1.5194899764362482,,
,4727.0,311.0,3273.0,779.0,-8.0,959.0,3840.0,,,,-1.88454940545591,-2.98580195215141,-1.36180804887783,,1.5096291600418896,,
,4723.0,314.0,3276.0,783.0,-2.0,972.0,3855.0,,,,-1.88436408187319,-2.98590706871537,-1.36104062951818,,1.4589756738023858,,
,4721.0,312.0,3275.0,782.0,-22.0,975.0,3838.0,,,,-1.88384471120728,-2.98579596376948,-1.36082281676676,,1.3699411369562637,,
,4721.0,308.0,3276.0,781.0,-20.0,970.0,3835.0,,,,-1.88423514665345,-2.98559061164027,-1.36089441937572,,1.2467286420694854,,
,4717.0,310.0,3275.0,780.0,-19.0,963.0,3838.0,,,,-1.88597966813541,-2.98575121550027,-1.36149974159781,,1.0950240247828362,,
,4718.0,310.0,3279.0,781.0,-12.0,951.0,3844.0,,,,-1.88653428828395,-2.98575921231539,-1.36182353940223,,0.9215590755028403,,
,4715.0,311.0,3274.0,779.0,0.0,957.0,3820.0,,,,-1.88862977006109,-2.98580250425676,-1.36248638802644,,0.7335952411504258,,
,4715.0,311.0,3277.0,781.0,9.0,971.0,3824.0,,,,-1.88996692758133,-2.98602217652304,-1.36212612848043,,0.5383859586566125,,
,4711.0,310.0,3276.0,777.0,1.0,951.0,3835.0,,,,-1.89231668133198,-2.98592234843642,-1.3639998945012,,0.3426756937071256,,
,4713.0,310.0,3277.0,779.0,-9.0,969.0,3841.0,,,,-1.89312847197381,-2.98575879504471,-1.36349114478102,,0.15228537220956417,,
,4710.0,311.0,3278.0,779.0,-1.0,975.0,3831.0,,,,-1.8955534327116,-2.98611678995867,-1.3633986459302,,-0.028179897213057477,,
,4711.0,311.0,3280.0,779.0,-21.0,955.0,3841.0,,,,-1.89612223937261,-2.98583037691469,-1.36391449661446,,-0.19548116371438015,,
,4711.0,312.0,3281.0,778.0,-7.0,954.0,3842.0,,,,-1.8979805182612,-2.98595943452834,-1.36447565781072,,-0.3477509253503539,,
,4706.0,310.0,3279.0,779.0,-8.0,959.0,3842.0,,,,-1.8986125502946,-2.98615695989975,-1.36418706918822,,-0.4843655607230757,,
,4708.0,311.0,3283.0,780.0,2.0,976.0,3840.0,,,,-1.89946553378304,-2.9860959251719,-1.3657593592212,,-0.6057099678862632,,
,4707.0,310.0,3284.0,780.0,7.0,953.0,3839.0,,,,-1.89960800108187,-2.98606735015538,-1.36539614944375,,-0.7128689501999456,,
,4708.0,313.0,3286.0,782.0,9.0,953.0,3847.0,,,,-1.90028084462202,-2.98589168805514,-1.36419695026728,,-0.8072852749140775,,
,4706.0,311.0,3285.0,780.0,-16.0,945.0,3833.0,,,,-1.90040067735431,-2.98617742925364,-1.364645058389,,-0.8904252181318147,,
,4706.0,311.0,3289.0,782.0,0.0,950.0,3856.0,,,,-1.90074887346618,-2.98622101115056,-1.36414085233337,,-0.9634885820072306,,
,4707.0,312.0,3287.0,780.0,-13.0,973.0,3838.0,,,,-1.90025576041058,-2.98610756853549,-1.36409243824264,,-1.0271917724674005,,
,4708.0,310.0,3289.0,781.0,-11.0,971.0,3861.0,,,,-1.89948257610962,-2.98612393413895,-1.36416936383632,,-1.0816405118068995,,
,4707.0,312.0,3289.0,783.0,-5.0,966.0,3861.0,,,,-1.90097262360246,-2.98599506367195,-1.36422310298998,,-1.1262951829707128,,
,4705.0,309.0,3289.0,781.0,-1.0,969.0,3848.0,,,,-1.90104614455985,-2.98594161561336,-1.36466688254989,,-1.1600194534421175,,
,4706.0,311.0,3293.0,783.0,-14.0,973.0,3855.0,,,,-1.90060916769382,-2.98600877732549,-1.36509243082107,,-1.1811941946129882,,
,4708.0,310.0,3294.0,784.0,-8.0,973.0,3839.0,,,,-1.90088906068967,-2.98609987450435,-1.36390088874291,,-1.1878748888812365,,
,4707.0,310.0,3296.0,784.0,-13.0,977.0,3843.0,,,,-1.90073667946776,-2.98589271028214,-1.36455994521714,,-1.1779711086059848,,
,4705.0,309.0,3292.0,781.0,-19.0,965.0,3850.0,,,,-1.90064832742356,-2.98605578191041,-1.36392830721097,,-1.1494297148923844,,
,4706.0,313.0,3298.0,780.0,-26.0,967.0,3854.0,,,,-1.90032204019531,-2.98606205120111,-1.36412531795149,,-1.1004077141953426,,
,4706.0,313.0,3296.0,785.0,-13.0,966.0,3868.0,,,,-1.9006877316762,-2.98599676795309,-1.36450442322646,,-1.0294253792916663,,
,4708.0,313.0,3298.0,785.0,-10.0,956.0,3865.0,,,,-1.9000045286902,-2.98602618392658,-1.36365966054257,,-0.9354948426657534,,
,4706.0,310.0,3296.0,782.0,-4.0,952.0,3865.0,,,,-1.90018130955764,-2.98612228222762,-1.36472144297871,,-0.8182234985822086,,
,4704.0,310.0,3300.0,780.0,-4.0,956.0,3859.0,,,,-1.90007446182145,-2.98602037699226,-1.36467498078189,,-0.6778947580881105,,
,4704.0,311.0,3300.0,783.0,6.0,969.0,3849.0,,,,-1.90080207784899,-2.98608367627159,-1.36523246470583,,-0.5155305938690344,,
,4705.0,312.0,3301.0,783.0,-4.0,964.0,3845.0,,,,-1.90016112035266,-2.98601267700614,-1.3637610084715,,-0.3329405191782948,,
,4703.0,310.0,3301.0,784.0,-7.0,964.0,3839.0,,,,-1.90053267265603,-2.98597481031245,-1.36452722986875,,-0.13275975470806714,,
,4704.0,312.0,3302.0,781.0,-7.0,971.0,3834.0,,,,-1.89997620272925,-2.98604855431257,-1.36393150315196,,0.08152487186948429,,
,4704.0,311.0,3303.0,782.0,-6.0,969.0,3828.0,,,,-1.89998705038424,-2.986095476441,-1.36371477618538,,0.3055687374314619,,
,4702.0,312.0,3307.0,785.0,-9.0,960.0,3834.0,,,,-1.89873887536917,-2.9860663874344,-1.36363281977263,,0.5341964549089222,,
,4700.0,313.0,3306.0,782.0,7.0,966.0,3851.0,,,,-1.89829798268745,-2.98603710683585,-1.36456657193575,,0.7614792773651691,,
,4700.0,311.0,3306.0,784.0,2.0,970.0,3849.0,,,,-1.89895689945848,-2.98602015990178,-1.36429870814781,,0.980879111456002,,
,4702.0,308.0,3305.0,783.0,-14.0,960.0,3849.0,,,,-1.89860907814857,-2.98600202153926,-1.36402855254907,,1.1854692967184537,,
,4703.0,311.0,3306.0,785.0,-33.0,967.0,3844.0,,,,-1.89917733195679,-2.98596533505528,-1.36389798968714,,1.3682322453225657,,
,4703.0,311.0,3309.0,784.0,-14.0,957.0,3822.0,,,,-1.89863910287805,-2.98594726576026,-1.36446852322662,,1.5224221603982195,,
,4705.0,310.0,3311.0,785.0,-8.0,951.0,3823.0,,,,-1.89938250324905,-2.98607084010033,-1.36319836726001,,1.641969454925272,,
,4703.0,313.0,3309.0,786.0,-7.0,952.0,3833.0,,,,-1.89946337277777,-2.98580210733779,-1.36434124419281,,1.7218937493097797,,
,4703.0,310.0,3310.0,784.0,-16.0,970.0,3870.0,,,,-1.89885183370797,-2.98590916465458,-1.36397689068726,,1.7586856953047316,,
,4704.0,312.0,3313.0,785.0,-4.0,966.0,3867.0,,,,-1.89907907238637,-2.98599131618201,-1.36467957909048,,1.750615579115752,,
,4704.0,311.0,3316.0,787.0,-8.0,968.0,3868.0,,,,-1.89943809989283,-2.98602000070282,-1.36350584618259,,1.697929723093662,,
,4707.0,312.0,3315.0,787.0,-7.0,982.0,3850.0,,,,-1.89861892594667,-2.9859068473366,-1.36374857084872,,1.6029045058122213,,
,4705.0,310.0,3316.0,786.0,-1.0,974.0,3858.0,,,,-1.89881736331061,-2.98587533420503,-1.36445272857803,,1.4697417678822169,,
,4708.0,311.0,3318.0,789.0,-7.0,962.0,3823.0,,,,-1.89949982660877,-2.98608385345116,-1.36444466399995,,1.30430695264217,,
,4708.0,313.0,3320.0,787.0,-14.0,957.0,3835.0,,,,-1.89946615768582,-2.98593304139832,-1.36454158585727,,1.113730297463818,,
,4705.0,312.0,3320.0,787.0,-16.0,951.0,3844.0,,,,-1.89982930971649,-2.9861090898628,-1.36449753239929,,0.9059089146527574,,
,4704.0,310.0,3320.0,789.0,-14.0,948.0,3867.0,,,,-1.89884608157926,-2.9860868108304,-1.36402169709777,,0.6889605522011648,,
,4707.0,314.0,3321.0,790.0,1.0,965.0,3856.0,,,,-1.89963959225087,-2.98601147974107,-1.36476390884222,,0.47068550256178054,,
,4707.0,312.0,3322.0,791.0,0.0,964.0,3844.0,,,,-1.89989763392544,-2.98613597388134,-1.36515686519957,,0.2580903093037361,,
,4710.0,313.0,3322.0,791.0,-3.0,957.0,3846.0,,,,-1.8982550353885,-2.98603619401819,-1.36385276710908,,0.057016494195944775,,
,4708.0,311.0,3325.0,792.0,-18.0,968.0,3849.0,,,,-1.89837071529073,-2.98602937520909,-1.36418088205617,,-0.12809790350525196,,
,4708.0,311.0,3328.0,790.0,-18.0,964.0,3828.0,,,,-1.89861284575743,-2.98601787237674,-1.36377012700381,,-0.2943134581613725,,
,4711.0,313.0,3331.0,793.0,-13.0,958.0,3821.0,,,,-1.89783415085003,-2.9859854420569,-1.36486820328629,,-0.44014712692333474,,
,4713.0,314.0,3333.0,794.0,-8.0,951.0,3841.0,,,,-1.89832764893869,-2.98607035778109,-1.36417328436692,,-0.5654126013206827,,
,4713.0,313.0,3332.0,796.0,0.0,956.0,3850.0,,,,-1.89798922107707,-2.98588826051063,-1.36396842381474,,-0.670973644753275,,
,4713.0,313.0,3332.0,795.0,-11.0,955.0,3828.0,,,,-1.89636005966032,-2.98615707575365,-1.36488063461655,,-0.7584471744878014,,
,4715.0,315.0,3335.0,796.0,-19.0,966.0,3848.0,,,,-1.89687854681542,-2.98600226896858,-1.36403152750785,,-0.8298948469764387,,
,4716.0,313.0,3338.0,794.0,-15.0,954.0,3836.0,,,,-1.89650143901574,-2.98590293683488,-1.36517010458146,,-0.8875396252003344,,
,4717.0,312.0,3338.0,797.0,-10.0,954.0,3825.0,,,,-1.89580366367758,-2.98602963591101,-1.36473002411225,,-0.9335375552249425,,
,4717.0,313.0,3339.0,797.0,-15.0,954.0,3821.0,,,,-1.89612608611648,-2.98594968803051,-1.36368725703117,,-0.9698252228725261,,
,4714.0,312.0,3338.0,797.0,-17.0,962.0,3828.0,,,,-1.89528163231419,-2.98612915110974,-1.36459042794879,,-0.9980508685181625,,
,4719.0,313.0,3340.0,799.0,-24.0,969.0,3834.0,,,,-1.89485570151071,-2.98602539962324,-1.36416992398263,,-1.0195833400097143,,
,4719.0,312.0,3342.0,800.0,-27.0,957.0,3852.0,,,,-1.89492389780057,-2.9860956499887,-1.36446535639713,,-1.0355802507366394,,
,4718.0,316.0,3346.0,799.0,-24.0,957.0,3844.0,,,,-1.89466417140179,-2.98594285272789,-1.36363468599037,,-1.04708756942181,,
,4721.0,312.0,3345.0,800.0,-27.0,957.0,3841.0,,,,-1.89379172754893,-2.98608912189872,-1.36383036075185,,-1.0551394022268041,,
,4721.0,314.0,3347.0,804.0,-13.0,962.0,3845.0,,,,-1.89487072015642,-2.9859590475219,-1.36385076734311,,-1.0608293057452727,,
,4722.0,314.0,3350.0,802.0,-10.0,961.0,3827.0,,,,-1.89447161397114,-2.986066331366,-1.36412286232847,,-1.0653318218268542,,
,4723.0,316.0,3351.0,802.0,-6.0,955.0,3825.0,,,,-1.8944678990719,-2.98578841020621,-1.36460436875066,,-1.0698630529454194,,
,4721.0,313.0,3350.0,803.0,11.0,959.0,3835.0,,,,-1.89430964738642,-2.98594653373858,-1.36430689468088,,-1.0755802261320095,,
,4724.0,311.0,3352.0,803.0,-11.0,965.0,3839.0,,,,-1.8944624683226,-2.98602069620528,-1.36364977614484,,-1.0834310213495966,,
,4725.0,316.0,3354.0,804.0,-14.0,956.0,3840.0,,,,-1.89341415637673,-2.98586192327934,-1.36374922768057,,-1.0939728262997688,,
,4726.0,314.0,3357.0,805.0,-12.0,970.0,3854.0,,,,-1.8935689295065,-2.98580346147487,-1.36423141061571,,-1.1071888616517707,,
,4727.0,314.0,3357.0,806.0,-14.0,970.0,3853.0,,,,-1.89361709200406,-2.98589790949728,-1.36416128154116,,-1.1223313199298368,,
,4727.0,311.0,3357.0,804.0,-1.0,950.0,3842.0,,,,-1.8922943890541,-2.98584219131574,-1.36418211448352,,-1.1378207460842378,,
,4727.0,315.0,3361.0,807.0,-19.0,963.0,3858.0,,,,-1.89255717749825,-2.98580820094278,-1.36202543540095,,-1.1512257719624497,,
,4729.0,314.0,3361.0,810.0,-8.0,967.0,3858.0,,,,-1.89216804469138,-2.98605996426783,-1.36378225166294,,-1.1593382244333275,,
,4730.0,315.0,3363.0,807.0,-5.0,964.0,3847.0,,,,-1.89269175546761,-2.98592342536782,-1.36435739664945,,-1.1583461848521401,,
,4731.0,313.0,3363.0,809.0,-12.0,958.0,3840.0,,,,-1.89195117291737,-2.98581674496138,-1.3639894297744,,-1.144093208819118,,
,4733.0,316.0,3367.0,810.0,-6.0,957.0,3854.0,,,,-1.8923235818444,-2.98599832839802,-1.3642947077387,,-1.1123980968270093,,
,4732.0,315.0,3366.0,812.0,-12.0,954.0,3864.0,,,,-1.89220840209895,-2.9859102964692,-1.36373898762563,,-1.0593994416431955,,
,4734.0,315.0,3370.0,810.0,-7.0,979.0,3874.0,,,,-1.89217865358225,-2.9859117470224,-1.36368994391022,,-0.9818852426045407,,
,4735.0,315.0,3371.0,813.0,-11.0,984.0,3869.0,,,,-1.8931087220443,-2.98593931463356,-1.36344813642744,,-0.8775710291012045,,
,4735.0,316.0,3370.0,809.0,-17.0,972.0,3862.0,,,,-1.89290217957289,-2.98597737446211,-1.36350938968245,,-0.7452990041095788,,
,4735.0,318.0,3374.0,813.0,-5.0,962.0,3848.0,,,,-1.89280230959466,-2.98594912105405,-1.36326200233294,,-0.5851432817855375,,
,4736.0,315.0,3376.0,813.0,-8.0,970.0,3838.0,,,,-1.89159774330663,-2.98599846328373,-1.36393644284411,,-0.39841978385494914,,
,4737.0,316.0,3373.0,811.0,-16.0,966.0,3836.0,,,,-1.8919967460346,-2.98586592621263,-1.36334616815868,,-0.18761163939056705,,
,4732.0,312.0,3373.0,810.0,-16.0,974.0,3843.0,,,,-1.89183544789346,-2.98616929420996,-1.36348024446558,,0.043769674916010394,,
,4729.0,315.0,3370.0,810.0,-5.0,971.0,3831.0,,,,-1.89117369971275,-2.98588654200551,-1.36362276832035,,0.29136189177358346,,
,4729.0,314.0,3371.0,808.0,-8.0,975.0,3833.0,,,,-1.89010991572724,-2.98594849415225,-1.36267622087142,,0.5501418767940321,,
,4726.0,316.0,3367.0,807.0,-12.0,964.0,3835.0,,,,-1.89039695498501,-2.98575655017198,-1.36296017709687,,0.814605137955885,,
,4724.0,315.0,3366.0,807.0,0.0,945.0,3831.0,,,,-1.88930131634709,-2.98605914519286,-1.36275277479782,,1.0789192945036588,,
2025-07-03 22:11:34,4720.0,316.0,3364.0,805.0,4.0,954.0,3834.0,,,2025/07/03 10:11:34 PM,-1.88942981604251,-2.98594771862075,-1.36298701229514,,1.3370456685612393,,
,4715.0,314.0,3361.0,805.0,-15.0,958.0,3847.0,,,,-1.88930149572641,-2.98588122431193,-1.36386517904725,,1.5828342459999716,,
,4710.0,315.0,3362.0,803.0,6.0,960.0,3839.0,,,,-1.88879781398503,-2.98586627407683,-1.36326918902809,,1.8101075640353979,,
,4704.0,312.0,3358.0,802.0,-5.0,964.0,3845.0,,,,-1.88871877866934,-2.98588111539661,-1.36328213515924,,2.01275586100473,,
,4704.0,311.0,3355.0,798.0,-14.0,974.0,3845.0,,,,-1.88892600918396,-2.98569760801862,-1.3633807701829,,2.1848665058543455,,
,4698.0,316.0,3354.0,800.0,-20.0,969.0,3840.0,,,,-1.88979810422409,-2.98594757313608,-1.36363721795818,,2.3209043084270364,,
,4696.0,314.0,3355.0,799.0,-8.0,978.0,3835.0,,,,-1.8892118148649,-2.98594903476147,-1.36285041601631,,2.415947115658036,,
,4694.0,311.0,3354.0,797.0,-9.0,973.0,3812.0,,,,-1.8905816375153,-2.98598060617213,-1.36433180010103,,2.465966250463372,,
,4695.0,314.0,3356.0,800.0,-13.0,961.0,3818.0,,,,-1.89271732503013,-2.98611291258721,-1.36434425906523,,2.4681273956261927,,
,4690.0,312.0,3352.0,796.0,-19.0,961.0,3840.0,,,,-1.89444107006403,-2.98594152942569,-1.36429789463622,,2.421077240490006,,
,4685.0,313.0,3352.0,798.0,-14.0,969.0,3845.0,,,,-1.8956776209368,-2.98603874203445,-1.36458984506683,,2.325176290218937,,
,4688.0,314.0,3355.0,799.0,-5.0,968.0,3860.0,,,,-1.89670786149171,-2.98601679289963,-1.36510557651842,,2.1826395278759687,,
,4685.0,313.0,3353.0,798.0,-1.0,970.0,3854.0,,,,-1.89792090303846,-2.98607226269358,-1.3649840728194,,1.9975541456010428,,
,4684.0,312.0,3356.0,796.0,-11.0,959.0,3821.0,,,,-1.89934791162321,-2.98615955575216,-1.36430085611217,,1.7757563233652849,,
,4680.0,311.0,3353.0,797.0,-7.0,955.0,3842.0,,,,-1.90085150582427,-2.9862337551666,-1.36545838548449,,1.5245650726310813,,
,4680.0,312.0,3354.0,799.0,8.0,948.0,3832.0,,,,-1.90129565241491,-2.98609538333591,-1.36537980169573,,1.2523881142976718,,
,4678.0,312.0,3355.0,797.0,-6.0,943.0,3830.0,,,,-1.90202162247509,-2.98614897339937,-1.36559924344071,,0.9682304447406535,,
,4679.0,315.0,3357.0,798.0,0.0,945.0,3840.0,,,,-1.90165501261941,-2.98634645770415,-1.36541246947801,,0.6811487653166897,,
,4678.0,312.0,3355.0,796.0,-3.0,947.0,3862.0,,,,-1.90211668863747,-2.98627888755283,-1.36566707817704,,0.3997025054882847,,
,4678.0,314.0,3358.0,799.0,-12.0,956.0,3863.0,,,,-1.90234123647058,-2.98613249202075,-1.366633875566,,0.1314532536861733,,
,4676.0,315.0,3359.0,801.0,-25.0,962.0,3830.0,,,,-1.90260939554993,-2.98609526847823,-1.3657148905991,,-0.1174414255054883,,
,4676.0,313.0,3359.0,802.0,-24.0,954.0,3840.0,,,,-1.90232233050503,-2.98619715689829,-1.3654072442264,,-0.3425054099041957,,
,4673.0,314.0,3358.0,797.0,-17.0,948.0,3854.0,,,,-1.90238226452944,-2.98606795342577,-1.36608579226275,,-0.5410732363810058,,
,4677.0,314.0,3358.0,801.0,-18.0,957.0,3853.0,,,,-1.90244532759271,-2.98620924601839,-1.36634337221771,,-0.712267303429538,,
,4676.0,314.0,3363.0,800.0,-2.0,948.0,3853.0,,,,-1.90240365433019,-2.98623236796878,-1.36530345714685,,-0.8568336467759611,,
,4679.0,314.0,3361.0,801.0,-13.0,954.0,3841.0,,,,-1.90257686577409,-2.98623331943339,-1.36546549852356,,-0.9768590745185576,,
,4676.0,314.0,3363.0,804.0,-19.0,963.0,3852.0,,,,-1.90292065133481,-2.98627582593198,-1.36450725665913,,-1.0754019214193211,,
,4675.0,313.0,3364.0,802.0,-10.0,961.0,3852.0,,,,-1.90255106675905,-2.98634866201966,-1.36570658294935,,-1.156074933737348,,
,4677.0,316.0,3367.0,803.0,-19.0,969.0,3850.0,,,,-1.9025818709197,-2.98619217289496,-1.3654460970173,,-1.2226213905107135,,
,4678.0,314.0,3366.0,804.0,-12.0,971.0,3820.0,,,,-1.9016372334268,-2.98618682445616,-1.36522513164955,,-1.2785242820776226,,
,4675.0,314.0,3367.0,804.0,-16.0,968.0,3820.0,,,,-1.90252932511434,-2.98626100501186,-1.36517920752451,,-1.3266831906927659,,
,4674.0,314.0,3367.0,803.0,-19.0,957.0,3832.0,,,,-1.90212577891755,-2.98627247060359,-1.36520874556497,,-1.3691846335817768,,
,4676.0,316.0,3370.0,804.0,-19.0,972.0,3827.0,,,,-1.90276891236439,-2.98612164242681,-1.36541289225198,,-1.407179629430454,,
,4676.0,315.0,3370.0,804.0,-23.0,970.0,3829.0,,,,-1.90189574784436,-2.98619844956749,-1.36515288083568,,-1.4408685334156428,,
,4674.0,314.0,3368.0,802.0,-8.0,965.0,3831.0,,,,-1.90165367117632,-2.98610513939012,-1.36566961347858,,-1.4695800627036095,,
,4675.0,313.0,3373.0,804.0,-10.0,955.0,3817.0,,,,-1.90224578283301,-2.98618302872703,-1.36542389923132,,-1.4919215084269606,,
,4674.0,315.0,3372.0,804.0,-12.0,945.0,3847.0,,,,-1.902637237448,-2.98612188405608,-1.36525496354707,,-1.5059721670460304,,
,4675.0,315.0,3373.0,804.0,-8.0,952.0,3839.0,,,,-1.90112615234824,-2.98621217995532,-1.3647502802876,,-1.5094921499888923,,
,4677.0,315.0,3373.0,806.0,-15.0,975.0,3838.0,,,,-1.90102595584417,-2.98632661780505,-1.36567362517192,,-1.500122675634801,,
,4675.0,314.0,3373.0,807.0,-11.0,977.0,3834.0,,,,-1.90048884326687,-2.98603844197801,-1.3643116826754,,-1.475560097606049,,
,4675.0,315.0,3373.0,805.0,-21.0,971.0,3866.0,,,,-1.90083536101114,-2.9861266202683,-1.36526939564781,,-1.4336931584629318,,
,4673.0,315.0,3376.0,808.0,-12.0,972.0,3844.0,,,,-1.90141867959194,-2.98599025996839,-1.36490961693598,,-1.372700612656392,,
,4675.0,313.0,3377.0,806.0,4.0,967.0,3855.0,,,,-1.90013122511822,-2.98602841627291,-1.36559769225488,,-1.2911137243987907,,
,4676.0,316.0,3378.0,807.0,-6.0,968.0,3850.0,,,,-1.90099934054987,-2.98600643335754,-1.36422290433857,,-1.1878542722006844,,
,4674.0,314.0,3377.0,806.0,-23.0,955.0,3813.0,,,,-1.90104901571159,-2.98603848173483,-1.36520197289922,,-1.0622626247866496,,
,4674.0,315.0,3379.0,804.0,-24.0,945.0,3831.0,,,,-1.90071198237513,-2.98610781925777,-1.36525676583665,,-0.914131405350765,,
,4674.0,315.0,3379.0,807.0,-13.0,954.0,3841.0,,,,-1.90187323521532,-2.98628862880127,-1.36476862894129,,-0.7437576599644451,,
,4675.0,316.0,3380.0,806.0,-14.0,956.0,3821.0,,,,-1.90163443432416,-2.98615252327083,-1.36536120449218,,-0.5520201346348342,,
,4676.0,314.0,3381.0,808.0,-15.0,971.0,3837.0,,,,-1.90169884115081,-2.98606666481877,-1.36587682966389,,-0.34047898490840617,,
,4673.0,314.0,3382.0,808.0,-13.0,978.0,3854.0,,,,-1.90232235871165,-2.98609716777596,-1.36449843837358,,-0.11148499563354353,,
,4676.0,317.0,3384.0,808.0,1.0,979.0,3840.0,,,,-1.90154547741244,-2.98616881254488,-1.3652328373552,,0.131722960094433,,
,4675.0,317.0,3385.0,811.0,-16.0,973.0,3848.0,,,,-1.90152430949947,-2.98610595101441,-1.36474370869065,,0.3849574725355398,,
,4677.0,316.0,3385.0,812.0,-6.0,953.0,3846.0,,,,-1.90175534360635,-2.98622699471521,-1.36507895862637,,0.6430831195677554,,
,4674.0,314.0,3387.0,809.0,9.0,952.0,3833.0,,,,-1.90174009880265,-2.9859771480603,-1.36519925131486,,0.9000961740183663,,
,4674.0,314.0,3387.0,812.0,2.0,967.0,3843.0,,,,-1.90126330695687,-2.98606917923113,-1.3656722389742,,1.1492930900223146,,
,4677.0,318.0,3389.0,814.0,-6.0,963.0,3851.0,,,,-1.90151647806764,-2.98623390825259,-1.36561233269095,,1.3835272776872947,,
,4678.0,317.0,3388.0,812.0,-5.0,972.0,3843.0,,,,-1.90118303116203,-2.98631851079104,-1.36524006080706,,1.595542999849227,,
,4680.0,319.0,3391.0,816.0,-14.0,960.0,3846.0,,,,-1.90129347749732,-2.98603380484459,-1.36484318236905,,1.7783647405638237,,
,4678.0,315.0,3392.0,812.0,-3.0,951.0,3866.0,,,,-1.90108955522624,-2.98621257772549,-1.36560437167044,,1.9257111713636725,,
,4679.0,317.0,3393.0,816.0,-8.0,950.0,3877.0,,,,-1.90045167079725,-2.98608681381063,-1.36533884768043,,2.03239617607541,,
,4682.0,315.0,3394.0,815.0,-18.0,960.0,3867.0,,,,-1.90119194591285,-2.98624741695434,-1.36508691563387,,2.094676578337038,,
,4683.0,317.0,3396.0,817.0,-24.0,946.0,3836.0,,,,-1.89980947510794,-2.98622635356264,-1.36459525581582,,2.110508434865652,,
,4679.0,315.0,3395.0,817.0,-9.0,957.0,3853.0,,,,-1.90026292584777,-2.98602520664785,-1.36597901542854,,2.07968189387261,,
,4684.0,317.0,3398.0,818.0,-14.0,976.0,3849.0,,,,-1.90022282933585,-2.98604722270186,-1.36444743667239,,2.0038185350038082,,
,4683.0,316.0,3398.0,818.0,-5.0,974.0,3845.0,,,,-1.89927994245986,-2.98606530296017,-1.36489829153384,,1.8862327952422,,
,4687.0,318.0,3400.0,819.0,-6.0,977.0,3854.0,,,,-1.90000881343625,-2.98616940041797,-1.36496913420652,,1.7316767637296093,,
,4688.0,316.0,3400.0,821.0,-11.0,974.0,3852.0,,,,-1.8993595433022,-2.98609467501197,-1.36573731560465,,1.5460011857169424,,
,4687.0,316.0,3400.0,819.0,-9.0,968.0,3821.0,,,,-1.89905733013815,-2.98607173211486,-1.36468422071093,,1.3357722908987097,,
,4686.0,318.0,3405.0,820.0,-7.0,957.0,3825.0,,,,-1.90010891915748,-2.98598997668069,-1.36439941419735,,1.1078837294163377,,
,4689.0,318.0,3408.0,822.0,-14.0,951.0,3822.0,,,,-1.89917844359123,-2.98601340686311,-1.36441575824968,,0.8691970468204272,,
,4689.0,318.0,3405.0,821.0,-12.0,965.0,3824.0,,,,-1.89908423373617,-2.98592050079934,-1.36524126315426,,0.6262350439908377,,
,4690.0,316.0,3405.0,819.0,-8.0,962.0,3856.0,,,,-1.89795124852322,-2.98617066656637,-1.36539283946602,,0.3849420605252517,,
,4693.0,319.0,3410.0,825.0,-20.0,972.0,3863.0,,,,-1.89851928268463,-2.98606532727327,-1.36468140416706,,0.15051523394238586,,
,4690.0,319.0,3410.0,823.0,-18.0,966.0,3870.0,,,,-1.8980709698635,-2.98616011459781,-1.36488043172818,,-0.07269764150490415,,
,4694.0,319.0,3410.0,826.0,-15.0,958.0,3869.0,,,,-1.89811450423492,-2.98608111067943,-1.36463577929043,,-0.2812440001236703,,
,4693.0,317.0,3409.0,826.0,-6.0,955.0,3850.0,,,,-1.89730404163621,-2.98616827709775,-1.36480939510373,,-0.4725695195103272,,
,4693.0,317.0,3414.0,827.0,-12.0,960.0,3830.0,,,,-1.89744869914872,-2.9860576778834,-1.36360975873175,,-0.6449916751439526,,
,4697.0,320.0,3415.0,826.0,-3.0,952.0,3831.0,,,,-1.89762779344413,-2.98591116270821,-1.36459111377121,,-0.7976544521255373,,
,4697.0,319.0,3418.0,829.0,-6.0,959.0,3823.0,,,,-1.89704889828653,-2.98608057172945,-1.36456062836854,,-0.9304698361037248,,
,4698.0,319.0,3418.0,828.0,0.0,968.0,3833.0,,,,-1.89682673080722,-2.98593383543088,-1.36431939581622,,-1.0440457824387002,,
,4697.0,318.0,3418.0,829.0,3.0,957.0,3838.0,,,,-1.89710899648014,-2.98609418639803,-1.36386157367106,,-1.1395954090818858,,
,4701.0,320.0,3422.0,829.0,-16.0,946.0,3828.0,,,,-1.89585377390247,-2.9859449263685,-1.36423013211728,,-1.2188200755630263,,
,4701.0,318.0,3423.0,831.0,-1.0,961.0,3848.0,,,,-1.89665251777679,-2.98588455613688,-1.36493878028001,,-1.2837607351643845,,
,4702.0,319.0,3421.0,831.0,2.0,963.0,3841.0,,,,-1.89634348864574,-2.98579420518568,-1.36386372009741,,-1.3366169226106674,,
,4703.0,319.0,3422.0,831.0,2.0,966.0,3841.0,,,,-1.8961893954146,-2.98591096873853,-1.36438379017151,,-1.379539331473172,,
,4706.0,319.0,3423.0,833.0,-3.0,984.0,3868.0,,,,-1.89641790706436,-2.98592388248642,-1.36400136497936,,-1.41440841016406,,
,4702.0,319.0,3425.0,832.0,-18.0,972.0,3842.0,,,,-1.89508748108638,-2.98583444498266,-1.36390362896315,,-1.4426166282919033,,
,4707.0,321.0,3429.0,833.0,-17.0,969.0,3852.0,,,,-1.89521397763349,-2.9858950709085,-1.36327498390909,,-1.4648754814116896,,
,4710.0,320.0,3427.0,835.0,-5.0,956.0,3865.0,,,,-1.89510277842906,-2.98604491487818,-1.3647416992886,,-1.4810695165566259,,
,4708.0,318.0,3427.0,834.0,-6.0,974.0,3823.0,,,,-1.89425700043507,-2.9858348682312,-1.36392717433202,,-1.4901782552180127,,
,4709.0,322.0,3431.0,835.0,-8.0,973.0,3833.0,,,,-1.89456464047239,-2.98593753874782,-1.36432042910528,,-1.4902826203157946,,
,4711.0,323.0,3430.0,837.0,-12.0,963.0,3821.0,,,,-1.89535863839751,-2.98601975251885,-1.36396923286094,,-1.4786654423402013,,
,4711.0,322.0,3431.0,839.0,-10.0,948.0,3805.0,,,,-1.894795231279,-2.98593927279231,-1.36484683078228,,-1.452006232403143,,
,4710.0,321.0,3434.0,836.0,3.0,974.0,3827.0,,,,-1.89493635866239,-2.98601396042152,-1.36413412284435,,-1.4066593711791184,,
,4712.0,320.0,3435.0,838.0,-14.0,971.0,3841.0,,,,-1.89425166047075,-2.98588716332962,-1.36398190840358,,-1.338993405149038,,
,4717.0,321.0,3437.0,839.0,-14.0,984.0,3879.0,,,,-1.89396178897116,-2.9858268812841,-1.36400029019366,,-1.2457592389527756,,
,4715.0,323.0,3437.0,840.0,-11.0,983.0,3874.0,,,,-1.89356065810258,-2.98603498402492,-1.36446397478244,,-1.1244491310037812,,
,4715.0,320.0,3436.0,838.0,-19.0,954.0,3862.0,,,,-1.89329753803682,-2.9858502746144,-1.36399149852877,,-0.9736085692950804,,
,4715.0,320.0,3438.0,840.0,-6.0,974.0,3839.0,,,,-1.89326048615171,-2.98588240712174,-1.36411675868764,,-0.7930697223325835,,
,4715.0,321.0,3438.0,841.0,-17.0,971.0,3833.0,,,,-1.89276576713076,-2.9858146115557,-1.36283800272396,,-0.5840864987794636,,
,4717.0,321.0,3436.0,840.0,-11.0,966.0,3846.0,,,,-1.89217661800029,-2.98606556380966,-1.36424723872881,,-0.34936427163597955,,
,4711.0,324.0,3437.0,839.0,-12.0,961.0,3833.0,,,,-1.89200959428461,-2.98601629511081,-1.36337924983148,,-0.09298918334142783,,
,4709.0,321.0,3432.0,837.0,-4.0,970.0,3850.0,,,,-1.89162509885605,-2.9858617738283,-1.36313769435161,,0.17972903353919806,,
,4708.0,320.0,3429.0,836.0,1.0,961.0,3828.0,,,,-1.89145870238256,-2.98590773320891,-1.36351230645553,,0.4624811625934168,,
,4706.0,322.0,3428.0,836.0,-9.0,956.0,3810.0,,,,-1.89259812261792,-2.98593485904319,-1.36422221055789,,0.7482276572029224,,
,4701.0,322.0,3425.0,836.0,-15.0,955.0,3824.0,,,,-1.8920940018362,-2.98581502730346,-1.36424217328862,,1.0294914303286449,,
,4699.0,320.0,3420.0,836.0,-3.0,956.0,3827.0,,,,-1.89257600397233,-2.98596538224064,-1.3634765593665,,1.298655255778154,,
,4693.0,322.0,3415.0,832.0,-8.0,966.0,3845.0,,,,-1.89417400100783,-2.98596898045693,-1.36391546662129,,1.548248169814959,,
,4691.0,320.0,3414.0,832.0,-11.0,963.0,3848.0,,,,-1.89486651275802,-2.98583028353942,-1.36399971676517,,1.7712092904274237,,
,4689.0,320.0,3412.0,831.0,-13.0,974.0,3852.0,,,,-1.89633329159967,-2.98592328543715,-1.36462629377963,,1.961122155239444,,
,4687.0,321.0,3411.0,832.0,-9.0,986.0,3859.0,,,,-1.89785966846988,-2.98602126050737,-1.36480515695391,,2.1124178250658177,,
,4685.0,319.0,3410.0,829.0,-7.0,987.0,3856.0,,,,-1.89944843714699,-2.98600499261863,-1.36506709699323,,2.2205495338536383,,
,4679.0,319.0,3406.0,830.0,-10.0,985.0,3842.0,,,,-1.90188352266161,-2.98610322925008,-1.36518262356295,,2.2821437913734948,,
,4682.0,320.0,3407.0,830.0,1.0,978.0,3853.0,,,,-1.90323363964307,-2.98617186190569,-1.36587038129184,,2.29513115172825,,
,4682.0,319.0,3408.0,828.0,-7.0,984.0,3851.0,,,,-1.90398752919494,-2.98608742274384,-1.36508194732632,,2.2588545963738387,,
,4678.0,318.0,3404.0,830.0,-7.0,989.0,3853.0,,,,-1.90500271168794,-2.98638914930182,-1.36646555138413,,2.174146846794084,,
,4678.0,320.0,3403.0,830.0,-10.0,968.0,3856.0,,,,-1.90566079030965,-2.98611330779087,-1.36589115355704,,2.043362975067544,,
,4680.0,319.0,3406.0,830.0,-2.0,949.0,3838.0,,,,-1.90642014929312,-2.98616791204066,-1.36583910931238,,1.8703535918399035,,
,4677.0,319.0,3404.0,831.0,4.0,955.0,3833.0,,,,-1.90647476026302,-2.98621942724562,-1.36599773505354,,1.6603669069890388,,
,4677.0,321.0,3404.0,830.0,-2.0,956.0,3849.0,,,,-1.90668143281993,-2.98625620681237,-1.36555476237503,,1.4198737646009962,,
,4675.0,319.0,3401.0,829.0,-2.0,967.0,3865.0,,,,-1.90690299678744,-2.98620399609122,-1.36544672238231,,1.1563166456323728,,
,4675.0,320.0,3401.0,830.0,-6.0,968.0,3844.0,,,,-1.90743342475281,-2.98610523604558,-1.36571174578246,,0.8777903988369116,,
,4677.0,319.0,3403.0,830.0,-8.0,970.0,3853.0,,,,-1.90766091460745,-2.98629346730832,-1.36600546149535,,0.5926686062667046,,
,4677.0,318.0,3400.0,831.0,-16.0,960.0,3847.0,,,,-1.90725437828125,-2.98629699301365,-1.36517636823705,,0.30919504914172147,,
,4676.0,316.0,3399.0,831.0,-6.0,959.0,3843.0,,,,-1.90722311861298,-2.98614033391875,-1.36587002175821,,0.03506492168313053,,
,4677.0,318.0,3399.0,831.0,-5.0,950.0,3842.0,,,,-1.90702743628971,-2.986148744777,-1.36578539377407,,-0.2229748741505961,,
,4677.0,321.0,3403.0,832.0,-10.0,959.0,3872.0,,,,-1.9075147493839,-2.9862843887696,-1.36570366189456,,-0.45947373181768664,,
,4676.0,320.0,3402.0,834.0,-5.0,955.0,3852.0,,,,-1.90771012953577,-2.98640758546626,-1.36547303156326,,-0.6705407813284243,,
2025-07-03 22:11:35,4675.0,317.0,3400.0,833.0,1.0,956.0,3839.0,,,2025/07/03 10:11:35 PM,-1.90790604469005,-2.98636237756063,-1.36650942690235,,-0.8539953184115217,,
,4677.0,319.0,3400.0,834.0,-4.0,978.0,3846.0,,,,-1.90800055046568,-2.98624963176937,-1.36573217593448,,-1.0093852172939652,,
,4676.0,317.0,3400.0,834.0,5.0,968.0,3828.0,,,,-1.90755640241075,-2.98617292063174,-1.36575219541578,,-1.1378674657075156,,
,4679.0,321.0,3402.0,835.0,6.0,968.0,3812.0,,,,-1.90758278576546,-2.9863526637231,-1.36596466340254,,-1.241959367976079,,
,4679.0,320.0,3400.0,836.0,1.0,969.0,3811.0,,,,-1.90767596273624,-2.98634593212651,-1.36532690836468,,-1.3251822729673748,,
,4680.0,318.0,3400.0,832.0,2.0,961.0,3836.0,,,,-1.90793883624544,-2.98614693536595,-1.365398502776,,-1.3916303583213818,,
,4681.0,321.0,3400.0,835.0,-15.0,965.0,3834.0,,,,-1.90749453878309,-2.98621581266437,-1.36508391873398,,-1.4455042870611767,,
,4681.0,321.0,3401.0,834.0,-17.0,957.0,3820.0,,,,-1.90731408293095,-2.98619211058719,-1.36556350275699,,-1.490653063689654,,
,4682.0,319.0,3400.0,837.0,-21.0,962.0,3840.0,,,,-1.90730001381127,-2.98633727314262,-1.36522879421484,,-1.530166931252292,,
,4681.0,318.0,3399.0,836.0,-20.0,968.0,3834.0,,,,-1.90777808696914,-2.98632144353413,-1.36556269014495,,-1.5660596883747118,,
,4680.0,317.0,3397.0,833.0,-18.0,963.0,3852.0,,,,-1.90736453400448,-2.98624558791143,-1.36639488842503,,-1.5990706585058114,,
,4684.0,320.0,3399.0,836.0,-22.0,957.0,3840.0,,,,-1.9071778566229,-2.98636581550117,-1.36575955636447,,-1.6286051604427638,,
,4682.0,321.0,3397.0,836.0,-26.0,963.0,3847.0,,,,-1.90677229989176,-2.98615417136209,-1.3659142255873,,-1.6528183236620522,,
,4682.0,320.0,3399.0,837.0,-25.0,964.0,3861.0,,,,-1.90639051789117,-2.9862192255722,-1.36565849700172,,-1.668831521621215,,
,4679.0,316.0,3396.0,835.0,-1.0,970.0,3847.0,,,,-1.906311631888,-2.98637001979728,-1.36399461180159,,-1.6730553668169608,,
,4681.0,321.0,3396.0,837.0,-4.0,972.0,3849.0,,,,-1.90636083156252,-2.98626428886895,-1.36533342397607,,-1.6615806224057552,,
,4685.0,320.0,3396.0,838.0,-3.0,972.0,3853.0,,,,-1.90595633710237,-2.98615459719415,-1.36564725490335,,-1.6305910700982316,,
,4680.0,321.0,3396.0,837.0,-9.0,970.0,3854.0,,,,-1.90605448178461,-2.98625840620152,-1.36556841115043,,-1.5767518459696737,,
,4679.0,319.0,3394.0,836.0,-10.0,966.0,3842.0,,,,-1.90562388573984,-2.98617967728164,-1.36566478647109,,-1.4975328236143226,,
,4681.0,320.0,3394.0,838.0,-20.0,963.0,3841.0,,,,-1.90528853387664,-2.98615924805897,-1.36516713493794,,-1.3914376835389448,,
,4681.0,320.0,3392.0,838.0,-3.0,977.0,3834.0,,,,-1.90564173097509,-2.98608356079308,-1.36559615597286,,-1.258123257447311,,
,4681.0,324.0,3390.0,839.0,-12.0,973.0,3823.0,,,,-1.90539614968272,-2.98618038796217,-1.36640085687055,,-1.0984086207394488,,
,4682.0,320.0,3393.0,838.0,-18.0,964.0,3818.0,,,,-1.90637216741126,-2.98623200347494,-1.36581529967176,,-0.9141874369142488,,
