TimeLabel,MEAS1_PPG1,MEAS1_PPG2,MEAS1_PPG3,MEAS1_PPG4,ACCX,ACCY,ACCZ,HR_timestamp,HR_value,radar_timestamp,phase_rx0,phase_rx1,phase_rx2,timestep,n_process,original_rate,calculated_rate
2025-07-17 17:28:17,8037.0,1435.0,5546.0,1826.0,1474.0,3283.0,1647.0,2025-07-17 17:28:24,105.0,2025/07/17 05:28:17 PM,0.0445794815256646,-1.96869623163669,0.0903237350538884,2025/07/17 05:28:17 PM,-2.0475046155379797,0.0,18.25716845878136
,8033.0,1437.0,5542.0,1823.0,1486.0,3262.0,1645.0,2025-07-17 17:28:25,105.0,,0.0446037477562176,-1.96861405789092,0.0903350458466621,2025/07/17 05:28:27 PM,-1.8738713702055156,11.755486488342283,18.48473084886128
,8029.0,1437.0,5539.0,1823.0,1484.0,3258.0,1645.0,2025-07-17 17:28:26,105.0,,0.0445403488043341,-1.96839855970849,0.0903313102397977,2025/07/17 05:28:37 PM,-1.6770188429178714,15.1770658493042,19.243429132891183
,8026.0,1434.0,5536.0,1820.0,1483.0,3264.0,1652.0,2025-07-17 17:28:27,104.0,,0.044568604197306,-1.9684571667166,0.0903097989693516,2025/07/17 05:28:47 PM,-1.4582071875774263,16.3170166015625,18.34232328573947
,8022.0,1434.0,5534.0,1817.0,1475.0,3274.0,1647.0,2025-07-17 17:28:28,104.0,,0.0445079278000797,-1.96836529855627,0.0903017192469515,2025/07/17 05:28:57 PM,-1.2195702598633111,18.75,18.217338217338206
,8018.0,1434.0,5532.0,1817.0,1483.0,3266.0,1640.0,2025-07-17 17:28:29,104.0,,0.0445448666396979,-1.96819007362982,0.0902916661340704,2025/07/17 05:29:07 PM,-0.9640174322763488,19.027484893798828,18.3450260199279
,8014.0,1433.0,5530.0,1819.0,1490.0,3269.0,1643.0,2025-07-17 17:28:30,105.0,,0.0444505956366823,-1.96812563606617,0.0903213518017506,2025/07/17 05:29:17 PM,-0.6950798818205465,18.32061004638672,22.40978558573131
,8011.0,1434.0,5531.0,1816.0,1485.0,3283.0,1640.0,2025-07-17 17:28:31,105.0,,0.0444836739949701,-1.96848020128779,0.0903232817300268,2025/07/17 05:29:27 PM,-0.4167176220227129,17.647058486938477,21.78253119429591
,8011.0,1433.0,5531.0,1817.0,1485.0,3276.0,1646.0,2025-07-17 17:28:32,106.0,,0.0444948690330557,-1.96841510033294,0.090323340578661,2025/07/17 05:29:37 PM,-0.13310848567822037,18.455228805541992,20.033416875522136
,8010.0,1434.0,5529.0,1817.0,1491.0,3260.0,1637.0,2025-07-17 17:28:33,106.0,,0.0444871442152142,-1.96831396881463,0.0903324704676684,2025/07/17 05:29:47 PM,0.15155727708609973,21.201414108276367,17.528771039207452
,8010.0,1434.0,5528.0,1816.0,1489.0,3283.0,1626.0,2025-07-17 17:28:34,107.0,,0.0445285233755849,-1.96788983902964,0.0902865316177904,2025/07/17 05:29:57 PM,0.4332539655559301,19.56521797180176,22.03907203907203
,8010.0,1435.0,5530.0,1817.0,1483.0,3283.0,1641.0,2025-07-17 17:28:35,107.0,,0.044525047474921,-1.96778134126521,0.0902986748520231,2025/07/17 05:30:07 PM,0.7082506090515288,20.147750854492188,18.74905391904578
,8010.0,1435.0,5528.0,1819.0,1480.0,3284.0,1635.0,2025-07-17 17:28:36,108.0,,0.04463657723402,-1.96796622346771,0.0903112121701189,2025/07/17 05:30:17 PM,0.9731836999032681,19.494585037231445,17.16791979949873
,8012.0,1436.0,5529.0,1817.0,1491.0,3271.0,1629.0,2025-07-17 17:28:37,108.0,,0.0446293535845809,-1.96744601062264,0.0903440572702023,2025/07/17 05:30:27 PM,1.2250715687500662,19.29949951171875,16.487179487179485
,8010.0,1433.0,5528.0,1816.0,1491.0,3263.0,1649.0,2025-07-17 17:28:38,107.0,,0.04474148841634,-1.96763718122883,0.0903320788180345,2025/07/17 05:30:37 PM,1.4612796139180182,18.195602416992188,14.81818181818181
,8014.0,1436.0,5531.0,1819.0,1486.0,3259.0,1636.0,2025-07-17 17:28:39,107.0,,0.0447518375243465,-1.96770910421433,0.0903702847711034,2025/07/17 05:30:47 PM,1.679454169987696,15.718563079833984,18.01725070300671
,8015.0,1435.0,5531.0,1822.0,1482.0,3252.0,1630.0,2025-07-17 17:28:40,106.0,,0.0447276703307687,-1.9672841830815,0.0903604646535137,2025/07/17 05:30:57 PM,1.8774480058856036,16.427104949951172,21.654214030293346
,8017.0,1439.0,5536.0,1822.0,1481.0,3258.0,1624.0,2025-07-17 17:28:41,105.0,,0.0447297449815309,-1.96718797133838,0.0903829414439439,2025/07/17 05:31:07 PM,2.053261024694882,20.920503616333008,18.832565284178198
,8018.0,1434.0,5535.0,1818.0,1476.0,3279.0,1630.0,2025-07-17 17:28:42,104.0,,0.0446481075483925,-1.96742897575181,0.0903365206081977,,2.2050154601719076,,
,8020.0,1437.0,5537.0,1821.0,1480.0,3286.0,1629.0,2025-07-17 17:28:43,103.0,,0.0447010351981974,-1.96725446682616,0.0903506421224559,,2.330976581425953,,
,8023.0,1438.0,5538.0,1824.0,1484.0,3265.0,1628.0,2025-07-17 17:28:44,102.0,,0.0446897974252857,-1.96784083574144,0.0903426115216727,,2.4296192850476546,,
,8023.0,1437.0,5537.0,1823.0,1484.0,3268.0,1640.0,2025-07-17 17:28:45,101.0,,0.0446840986263563,-1.96826584577203,0.0903485797779505,,2.4997301414680138,,
,8024.0,1437.0,5538.0,1824.0,1483.0,3263.0,1626.0,2025-07-17 17:28:46,100.0,,0.0445972928693995,-1.96813841778945,0.0903119347791089,,2.5405258227018455,,
,8024.0,1436.0,5540.0,1825.0,1480.0,3265.0,1639.0,2025-07-17 17:28:47,100.0,,0.0444533948540942,-1.96842813103098,0.0902940143353975,,2.5517643467712983,,
,8025.0,1439.0,5543.0,1822.0,1484.0,3254.0,1647.0,2025-07-17 17:28:48,99.0,,0.0444634355457502,-1.96886719382144,0.0903080535616043,,2.5338262549731287,,
,8026.0,1439.0,5539.0,1826.0,1485.0,3260.0,1673.0,2025-07-17 17:28:49,99.0,,0.044283920765625,-1.96884088598519,0.0903026896208543,,2.487748546797562,,
,8025.0,1438.0,5540.0,1824.0,1481.0,3262.0,1675.0,2025-07-17 17:28:50,99.0,,0.0444801503532554,-1.9691897086946,0.0902833814972727,,2.4152036427319756,,
,8024.0,1436.0,5537.0,1824.0,1477.0,3252.0,1665.0,2025-07-17 17:28:51,98.0,,0.0444297214451373,-1.96930869364028,0.0902976213580786,,2.3184265122899252,,
,8025.0,1437.0,5539.0,1823.0,1483.0,3260.0,1654.0,2025-07-17 17:28:52,99.0,,0.0443847937726906,-1.96917151408418,0.0902971886690968,,2.200102583711574,,
,8028.0,1437.0,5540.0,1826.0,1485.0,3250.0,1655.0,2025-07-17 17:28:53,99.0,,0.0443641359798131,-1.96971508075858,0.0902868385870562,,2.0632348276863497,,
,8024.0,1438.0,5540.0,1826.0,1487.0,3254.0,1649.0,2025-07-17 17:28:54,100.0,,0.0444253071724001,-1.96948778236251,0.0903022098281607,,1.911009424887109,,
,8025.0,1438.0,5538.0,1822.0,1483.0,3265.0,1652.0,2025-07-17 17:28:55,100.0,,0.044338855082039,-1.9700450453572,0.0902917848261088,,1.7466759653546309,,
,8027.0,1436.0,5536.0,1822.0,1482.0,3267.0,1661.0,2025-07-17 17:28:56,101.0,,0.0442407786058791,-1.96993846172703,0.0902659831877242,,1.5734515171976078,,
,8026.0,1438.0,5536.0,1826.0,1484.0,3259.0,1658.0,2025-07-17 17:28:57,102.0,,0.0442114791028558,-1.97044730415619,0.0902476328406132,,1.3944501752731155,,
,8027.0,1438.0,5540.0,1825.0,1492.0,3277.0,1661.0,2025-07-17 17:28:58,103.0,,0.0442612233990837,-1.9702767811452,0.0902732071433638,,1.2126330239790761,,
,8026.0,1437.0,5539.0,1824.0,1489.0,3272.0,1661.0,2025-07-17 17:28:59,104.0,,0.0442211503429379,-1.97016649765016,0.0902565158233772,,1.0307694609698308,,
,8025.0,1437.0,5538.0,1822.0,1483.0,3265.0,1652.0,2025-07-17 17:29:00,104.0,,0.044225255074147,-1.96999465630902,0.0902974689111622,,0.8514003318238949,,
,8027.0,1436.0,5539.0,1824.0,1486.0,3269.0,1653.0,2025-07-17 17:29:01,104.0,,0.044135179866488,-1.97048165470819,0.0901937611079947,,0.6767962640713769,,
,8030.0,1439.0,5541.0,1825.0,1484.0,3276.0,1655.0,2025-07-17 17:29:02,103.0,,0.0440798360001394,-1.97043953468869,0.0902063178356102,,0.5089099517124531,,
,8030.0,1440.0,5542.0,1826.0,1480.0,3271.0,1660.0,2025-07-17 17:29:03,103.0,,0.0442034512413924,-1.97096045785624,0.0902674616465704,,0.3493270248666694,,
,8032.0,1438.0,5541.0,1827.0,1484.0,3272.0,1659.0,2025-07-17 17:29:04,102.0,,0.0442192069129085,-1.97089336645573,0.0902725817379637,,0.19922443281506824,,
,8033.0,1438.0,5541.0,1829.0,1483.0,3285.0,1650.0,2025-07-17 17:29:05,102.0,,0.0441436782962764,-1.97094603170853,0.0902074200641139,,0.059346575736623254,,
,8033.0,1441.0,5543.0,1829.0,1489.0,3268.0,1636.0,2025-07-17 17:29:06,101.0,,0.0442717813364892,-1.97100280956529,0.0902407549549968,,-0.06999255092356914,,
,8037.0,1439.0,5545.0,1830.0,1489.0,3280.0,1640.0,2025-07-17 17:29:07,100.0,,0.044221618579087,-1.97056074622127,0.0902972846202883,,-0.18887751543362413,,
,8039.0,1437.0,5547.0,1832.0,1505.0,3285.0,1658.0,2025-07-17 17:29:08,101.0,,0.0441770773242621,-1.97089447154617,0.0902511656602879,,-0.29773203602030013,,
,8037.0,1439.0,5547.0,1828.0,1493.0,3265.0,1654.0,2025-07-17 17:29:09,101.0,,0.0442330672742483,-1.97073352824419,0.0902433414165141,,-0.39723942406807616,,
,8044.0,1441.0,5551.0,1831.0,1478.0,3277.0,1647.0,2025-07-17 17:29:10,101.0,,0.0441669358826957,-1.97087610533645,0.0902521014443391,,-0.48825361488844116,,
,8043.0,1443.0,5551.0,1832.0,1476.0,3262.0,1647.0,2025-07-17 17:29:11,101.0,,0.0441800259098673,-1.97140180436877,0.0902495237330371,,-0.5717120004048392,,
,8047.0,1444.0,5553.0,1834.0,1478.0,3260.0,1641.0,2025-07-17 17:29:12,100.0,,0.0440220364592031,-1.97114588359747,0.0902204204493585,,-0.6485589055516373,,
,8047.0,1442.0,5550.0,1833.0,1478.0,3270.0,1648.0,2025-07-17 17:29:13,100.0,,0.0439715665911782,-1.97141934029365,0.0902168417775182,,-0.7196840164080165,,
,8052.0,1441.0,5555.0,1836.0,1482.0,3250.0,1622.0,2025-07-17 17:29:14,99.0,,0.0439879530319863,-1.97148406356095,0.0902329347764636,,-0.7858747963208956,,
,8054.0,1445.0,5558.0,1834.0,1482.0,3298.0,1621.0,2025-07-17 17:29:15,98.0,,0.0440717540989843,-1.97133970949404,0.0902139882494304,,-0.8477777365957283,,
,8056.0,1443.0,5559.0,1837.0,1481.0,3295.0,1620.0,2025-07-17 17:29:16,99.0,,0.0440852954147539,-1.97203902673379,0.0902157343432616,,-0.9058616445592209,,
,8059.0,1444.0,5561.0,1837.0,1477.0,3300.0,1618.0,2025-07-17 17:29:17,99.0,,0.0440483218385063,-1.9725341774537,0.0902151983024056,,-0.9603775759834886,,
,8061.0,1444.0,5563.0,1837.0,1483.0,3298.0,1666.0,2025-07-17 17:29:18,99.0,,0.0439326771810031,-1.97224389368889,0.0901908811890779,,-1.0113139396023,,
,8065.0,1447.0,5565.0,1838.0,1481.0,3310.0,1677.0,2025-07-17 17:29:19,99.0,,0.0439143096861778,-1.97253375502912,0.0901860072455028,,-1.0583504383339346,,
,8068.0,1447.0,5568.0,1841.0,1479.0,3282.0,1652.0,2025-07-17 17:29:20,99.0,,0.0439246031610401,-1.97283954927507,0.0902052769378113,,-1.1008192159302668,,
,8069.0,1445.0,5569.0,1842.0,1487.0,3277.0,1658.0,2025-07-17 17:29:21,99.0,,0.0439106432081164,-1.97259011288118,0.0901699231493718,,-1.137684389988726,,
,8074.0,1443.0,5569.0,1842.0,1484.0,3293.0,1669.0,2025-07-17 17:29:22,99.0,,0.0438572105244605,-1.97275246315991,0.0902053693126143,,-1.1675512119060005,,
,8074.0,1449.0,5574.0,1844.0,1487.0,3286.0,1640.0,2025-07-17 17:29:23,100.0,,0.0439219439698973,-1.97251952089919,0.0901975377359977,,-1.1887131819555468,,
,8078.0,1447.0,5574.0,1844.0,1481.0,3268.0,1660.0,2025-07-17 17:29:24,100.0,,0.0437817886230987,-1.97278413923705,0.0901789491996626,,-1.1992398496531183,,
,8079.0,1447.0,5575.0,1843.0,1483.0,3262.0,1647.0,2025-07-17 17:29:25,100.0,,0.0437660583297596,-1.97294675434967,0.0902099127270283,,-1.1971006000141626,,
,8083.0,1448.0,5579.0,1846.0,1491.0,3264.0,1650.0,2025-07-17 17:29:26,100.0,,0.0437531103161035,-1.97336340389733,0.0901882484262303,,-1.18031206211415,,
,8086.0,1445.0,5579.0,1845.0,1490.0,3250.0,1642.0,2025-07-17 17:29:27,99.0,,0.0437636966493513,-1.97334230887201,0.0901686096883841,,-1.1470909542811498,,
,8090.0,1450.0,5583.0,1847.0,1491.0,3245.0,1638.0,2025-07-17 17:29:28,99.0,,0.0437386275739744,-1.97341503541174,0.0901695726078852,,-1.0959919455450933,,
,8091.0,1452.0,5587.0,1850.0,1492.0,3254.0,1640.0,2025-07-17 17:29:29,99.0,,0.043756855912757,-1.97373362712853,0.090188947894163,,-1.0260121879557074,,
,8090.0,1451.0,5584.0,1851.0,1487.0,3254.0,1644.0,2025-07-17 17:29:30,99.0,,0.0436834927024363,-1.9738415006922,0.090137762178948,,-0.9366501677321282,,
,8090.0,1447.0,5583.0,1847.0,1491.0,3262.0,1641.0,2025-07-17 17:29:31,99.0,,0.0437439779010777,-1.97465743758987,0.0901389017418621,,-0.8279152060557251,,
,8088.0,1451.0,5584.0,1846.0,1494.0,3246.0,1608.0,2025-07-17 17:29:32,98.0,,0.0437637981276281,-1.9738300938939,0.0901534198312357,,-0.7002935810842913,,
,8084.0,1447.0,5582.0,1846.0,1495.0,3275.0,1616.0,2025-07-17 17:29:33,98.0,,0.0436443523500752,-1.97386538655492,0.0901606663781175,,-0.5546859448845034,,
,8081.0,1447.0,5577.0,1842.0,1495.0,3285.0,1615.0,2025-07-17 17:29:34,98.0,,0.0436802812440765,-1.97412196246694,0.0901009530674094,,-0.39233668033306296,,
,8074.0,1445.0,5574.0,1841.0,1481.0,3267.0,1639.0,2025-07-17 17:29:35,98.0,,0.0437600491052443,-1.97405326379019,0.0901220958922063,,-0.21477756664758887,,
,8072.0,1444.0,5570.0,1839.0,1482.0,3287.0,1653.0,2025-07-17 17:29:36,97.0,,0.0436674340807501,-1.97448987002631,0.0901917533107916,,-0.023804619324570057,,
,8063.0,1445.0,5567.0,1837.0,1471.0,3269.0,1658.0,2025-07-17 17:29:37,97.0,,0.0436128135787707,-1.97449617964743,0.0901396969390821,,0.17850168638502883,,
,8059.0,1445.0,5560.0,1835.0,1466.0,3268.0,1658.0,2025-07-17 17:29:38,96.0,,0.043660233249953,-1.97443832722906,0.0901489449241928,,0.38971482700632926,,
,8051.0,1441.0,5557.0,1834.0,1467.0,3290.0,1653.0,2025-07-17 17:29:39,95.0,,0.043716398711164,-1.97507265320248,0.0900998475536535,,0.6069742242228473,,
,8049.0,1442.0,5552.0,1829.0,1474.0,3289.0,1662.0,2025-07-17 17:29:40,95.0,,0.0436067423137992,-1.97506913757563,0.0901580934992903,,0.8268962019446283,,
,8042.0,1442.0,5552.0,1829.0,1481.0,3280.0,1642.0,2025-07-17 17:29:41,95.0,,0.0435149023994629,-1.97488801710112,0.0901718571809953,,1.0455146500875776,,
,8038.0,1439.0,5549.0,1828.0,1479.0,3290.0,1659.0,2025-07-17 17:29:42,95.0,,0.0434201435556966,-1.97519289258358,0.0901477815842364,,1.2582808873936644,,
,8035.0,1438.0,5546.0,1825.0,1484.0,3290.0,1658.0,2025-07-17 17:29:43,95.0,,0.0434432438599314,-1.97530615639845,0.0901216770629125,,1.4601441427869852,,
,8027.0,1438.0,5542.0,1825.0,1500.0,3283.0,1626.0,2025-07-17 17:29:44,95.0,,0.0433993074948594,-1.97559712240182,0.0901161348304362,,1.6457206118478471,,
,8028.0,1436.0,5541.0,1824.0,1484.0,3263.0,1640.0,2025-07-17 17:29:45,95.0,,0.0433638134491398,-1.97615375369841,0.0901126789890309,,1.8095430824504004,,
,8025.0,1436.0,5542.0,1822.0,1491.0,3262.0,1653.0,2025-07-17 17:29:46,96.0,,0.0433555766132716,-1.97601434920846,0.0901012274682827,,1.9463681166317337,,
,8022.0,1437.0,5539.0,1823.0,1496.0,3243.0,1638.0,2025-07-17 17:29:47,96.0,,0.0432794180154302,-1.97662447618083,0.0900869626103829,,2.0515067791581347,,
,8021.0,1438.0,5537.0,1822.0,1492.0,3258.0,1634.0,2025-07-17 17:29:48,96.0,,0.0433084082409382,-1.97685172966763,0.0901003309956349,,2.1211400564047045,,
,8021.0,1437.0,5535.0,1823.0,1491.0,3267.0,1652.0,2025-07-17 17:29:49,96.0,,0.0432980178276308,-1.97693128487746,0.0901218383921616,,2.152582297691883,,
,8021.0,1438.0,5536.0,1823.0,1492.0,3285.0,1639.0,2025-07-17 17:29:50,96.0,,0.0432346934818755,-1.97642386010381,0.0901006095549979,,2.1444644824033756,,
,8020.0,1438.0,5537.0,1824.0,1499.0,3309.0,1642.0,2025-07-17 17:29:51,96.0,,0.0434516553143639,-1.97604747805326,0.0900982790509899,,2.0968215745349172,,
,8021.0,1437.0,5539.0,1823.0,1498.0,3320.0,1656.0,2025-07-17 17:29:52,96.0,,0.0433832983188138,-1.97605553909826,0.090121206651887,,2.0110817142303934,,
,8022.0,1439.0,5535.0,1826.0,1493.0,3273.0,1671.0,2025-07-17 17:29:53,96.0,,0.0433537809433112,-1.97608877515962,0.0900573782682205,,1.889966840763205,,
,8022.0,1438.0,5537.0,1824.0,1489.0,3283.0,1671.0,2025-07-17 17:29:54,96.0,,0.0434182958982689,-1.97616259892682,0.0900706679931211,,1.7373225559655128,,
,8027.0,1441.0,5540.0,1828.0,1489.0,3293.0,1640.0,2025-07-17 17:29:55,97.0,,0.0434160957850581,-1.97574910715041,0.0901186918362695,,1.5578985726711048,,
,8026.0,1437.0,5542.0,1828.0,1484.0,3282.0,1629.0,2025-07-17 17:29:56,97.0,,0.0434938324082753,-1.97607302272956,0.0900943607358679,,1.3571002430093464,,
,8027.0,1438.0,5542.0,1829.0,1485.0,3271.0,1628.0,2025-07-17 17:29:57,98.0,,0.0434193556266465,-1.9762910939114,0.0901012940273368,,1.140728003786164,,
,8030.0,1439.0,5544.0,1826.0,1488.0,3268.0,1642.0,2025-07-17 17:29:58,98.0,,0.0434134962037927,-1.97621666412882,0.0901425894296941,,0.9147171243543541,,
,8033.0,1440.0,5546.0,1830.0,1487.0,3277.0,1615.0,2025-07-17 17:29:59,98.0,,0.0433797372518194,-1.97625321983534,0.0901252786896443,,0.684886491846069,,
,8033.0,1442.0,5548.0,1831.0,1485.0,3274.0,1640.0,2025-07-17 17:30:00,98.0,,0.0433550866358757,-1.97695840306829,0.0901065998444979,,0.45670328751982187,,
,8034.0,1442.0,5550.0,1833.0,1489.0,3266.0,1641.0,2025-07-17 17:30:01,99.0,,0.043304644966402,-1.97677238447376,0.0900852243965421,,0.23507062304997087,,
,8036.0,1441.0,5546.0,1833.0,1491.0,3277.0,1634.0,2025-07-17 17:30:02,99.0,,0.0432601997420723,-1.9771963579775,0.090067069422195,,0.02414694782546323,,
,8035.0,1441.0,5548.0,1833.0,1484.0,3281.0,1640.0,2025-07-17 17:30:03,99.0,,0.0433098229809172,-1.97734911390068,0.0901095847939347,,-0.17279212743253278,,
,8039.0,1442.0,5550.0,1833.0,1480.0,3257.0,1657.0,2025-07-17 17:30:04,99.0,,0.0431865004696601,-1.97714081729153,0.0900810738886202,,-0.3534386227376048,,
,8038.0,1442.0,5549.0,1833.0,1483.0,3264.0,1656.0,2025-07-17 17:30:05,99.0,,0.0431597236528571,-1.97712487717172,0.0900923649532455,,-0.5164748525496358,,
,8036.0,1440.0,5547.0,1832.0,1482.0,3263.0,1690.0,2025-07-17 17:30:06,99.0,,0.043117491192727,-1.9768649747009,0.0901069656912726,,-0.6615302181740812,,
,8036.0,1443.0,5549.0,1832.0,1478.0,3249.0,1646.0,2025-07-17 17:30:07,99.0,,0.0431216118235974,-1.9772221521431,0.0900913419485842,,-0.7890755700021754,,
,8036.0,1438.0,5550.0,1832.0,1485.0,3265.0,1648.0,2025-07-17 17:30:08,99.0,,0.0432763999880652,-1.97661161360319,0.0900902915721468,,-0.9002665417644378,,
,8037.0,1440.0,5549.0,1834.0,1483.0,3282.0,1667.0,2025-07-17 17:30:09,99.0,,0.0432390942067231,-1.97709523425733,0.0901181989253023,,-0.9967541248165228,,
,8037.0,1439.0,5552.0,1831.0,1482.0,3284.0,1662.0,2025-07-17 17:30:10,99.0,,0.0433252270273636,-1.97662128447475,0.0901477480910812,,-1.0804848348326348,,
,8035.0,1441.0,5549.0,1831.0,1483.0,3276.0,1634.0,2025-07-17 17:30:11,99.0,,0.0433525692585057,-1.97616702196367,0.0901317262437901,,-1.1535130885052471,,
,8040.0,1440.0,5550.0,1832.0,1486.0,3267.0,1613.0,2025-07-17 17:30:12,99.0,,0.0433527165848734,-1.97600557322804,0.0901853556554085,,-1.217844563992216,,
,8039.0,1441.0,5550.0,1832.0,1487.0,3290.0,1607.0,2025-07-17 17:30:13,99.0,,0.0433637516791383,-1.97566302040312,0.0901365419471735,,-1.2753218937315232,,
,8036.0,1440.0,5551.0,1834.0,1492.0,3283.0,1605.0,2025-07-17 17:30:14,99.0,,0.0433297144661318,-1.97558592658238,0.0901673642556353,,-1.327554539421884,,
,8037.0,1443.0,5550.0,1833.0,1489.0,3280.0,1628.0,2025-07-17 17:30:15,99.0,,0.0434460810564989,-1.97581329606065,0.0901783471103395,,-1.3758854518772299,,
,8037.0,1442.0,5551.0,1833.0,1486.0,3265.0,1648.0,2025-07-17 17:30:16,99.0,,0.0434052036624629,-1.97550293882575,0.0901360104898027,,-1.4213805611898234,,
,8040.0,1442.0,5554.0,1832.0,1484.0,3264.0,1642.0,2025-07-17 17:30:17,98.0,,0.0434481172858276,-1.97555713351621,0.0901488767264648,,-1.4648249902723942,,
,8041.0,1442.0,5552.0,1837.0,1488.0,3256.0,1623.0,2025-07-17 17:30:18,98.0,,0.0435066920222203,-1.97515648877923,0.090191719306023,,-1.5067125703933495,,
,8041.0,1442.0,5553.0,1835.0,1493.0,3253.0,1626.0,2025-07-17 17:30:19,98.0,,0.0434353908199668,-1.97503629490709,0.0902106910392207,,-1.5472217258585677,,
,8041.0,1439.0,5552.0,1833.0,1489.0,3274.0,1628.0,2025-07-17 17:30:20,99.0,,0.0434783147393231,-1.97493237468423,0.0902009021582356,,-1.586178920657698,,
,8046.0,1441.0,5555.0,1836.0,1488.0,3309.0,1641.0,2025-07-17 17:30:21,99.0,,0.0434261286291621,-1.97477035962619,0.0902364172395706,,-1.6230181890786064,,
,8046.0,1442.0,5556.0,1838.0,1494.0,3279.0,1647.0,2025-07-17 17:30:22,99.0,,0.0434667319303188,-1.97440236404934,0.0902315127559511,,-1.656749983029732,,
,8048.0,1444.0,5560.0,1838.0,1489.0,3263.0,1640.0,2025-07-17 17:30:23,99.0,,0.0436008479399136,-1.97421096825738,0.0902530167128796,,-1.6859537746421147,,
,8050.0,1443.0,5559.0,1837.0,1493.0,3283.0,1648.0,2025-07-17 17:30:24,99.0,,0.0436812379027343,-1.9737436669483,0.090302008673538,,-1.7088064057329684,,
,8053.0,1442.0,5563.0,1837.0,1488.0,3293.0,1622.0,2025-07-17 17:30:25,99.0,,0.0436553435209553,-1.97306041231666,0.0902932228684491,,-1.723152511815073,,
,8053.0,1445.0,5563.0,1841.0,1484.0,3276.0,1632.0,2025-07-17 17:30:26,99.0,,0.043671029761006,-1.97264467952044,0.0903033276092189,,-1.726615639060525,,
,8056.0,1445.0,5567.0,1840.0,1483.0,3267.0,1620.0,2025-07-17 17:30:27,100.0,,0.043757698935205,-1.97274386074544,0.0903276607997147,,-1.7167407919609947,,
,8057.0,1444.0,5568.0,1841.0,1493.0,3256.0,1622.0,2025-07-17 17:30:28,100.0,,0.0437923499692784,-1.97224246106732,0.0903479394159603,,-1.6911530566958612,,
,8057.0,1443.0,5567.0,1843.0,1485.0,3272.0,1619.0,2025-07-17 17:30:29,100.0,,0.0438554683286028,-1.9721752977739,0.0903312000100079,,-1.6477139787413064,,
,8062.0,1445.0,5573.0,1843.0,1494.0,3257.0,1621.0,2025-07-17 17:30:30,100.0,,0.0438211445428685,-1.97191044733876,0.0903098808761871,,-1.5846580385607416,,
,8065.0,1446.0,5569.0,1845.0,1494.0,3277.0,1643.0,2025-07-17 17:30:31,100.0,,0.0438774135927135,-1.97154443325751,0.0903542589513354,,-1.5006956178346331,,
2025-07-17 17:28:18,8066.0,1444.0,5574.0,1845.0,1491.0,3271.0,1641.0,2025-07-17 17:30:32,100.0,2025/07/17 05:28:18 PM,0.0437999687000742,-1.97130439962057,0.0903394311508378,,-1.3950753065110972,,
,8069.0,1447.0,5575.0,1846.0,1487.0,3280.0,1650.0,2025-07-17 17:30:33,100.0,,0.043923982407928,-1.97124995940936,0.0903735450459403,,-1.2676057318265186,,
,8071.0,1449.0,5577.0,1848.0,1490.0,3270.0,1610.0,2025-07-17 17:30:34,100.0,,0.0439297899630008,-1.97141191208454,0.0904180969498339,,-1.1186436691713701,,
,8075.0,1449.0,5580.0,1850.0,1490.0,3300.0,1624.0,2025-07-17 17:30:35,100.0,,0.0439151214892535,-1.97085246798838,0.0903504944156437,,-0.9490597753301845,,
,8077.0,1448.0,5582.0,1849.0,1490.0,3310.0,1629.0,2025-07-17 17:30:36,100.0,,0.043933884723928,-1.97085349056341,0.09036920799909,,-0.7601951133152703,,
,8076.0,1449.0,5581.0,1850.0,1493.0,3277.0,1625.0,2025-07-17 17:30:37,100.0,,0.0439343138418396,-1.97062625886918,0.0903656751711541,,-0.5538203748303651,,
,8079.0,1451.0,5586.0,1851.0,1493.0,3264.0,1629.0,2025-07-17 17:30:38,101.0,,0.0439624841232879,-1.97028940426792,0.0904235595659069,,-0.3321055701099789,,
,8086.0,1452.0,5588.0,1854.0,1493.0,3280.0,1641.0,2025-07-17 17:30:39,101.0,,0.0440342939118025,-1.9700675251126,0.090398470013608,,-0.09760199204911316,,
,8086.0,1451.0,5590.0,1855.0,1494.0,3278.0,1651.0,2025-07-17 17:30:40,101.0,,0.0439946855534383,-1.96982702631978,0.0904267853699306,,0.1467678073547884,,
,8089.0,1452.0,5593.0,1855.0,1491.0,3271.0,1639.0,2025-07-17 17:30:41,101.0,,0.0439615401860761,-1.9696531835172,0.0904258655011278,,0.3977207176621425,,
,8090.0,1450.0,5593.0,1854.0,1492.0,3265.0,1624.0,2025-07-17 17:30:42,101.0,,0.0440371577388064,-1.96989775174797,0.0904227874143978,,0.6516347648043312,,
,8092.0,1452.0,5597.0,1856.0,1511.0,3270.0,1612.0,2025-07-17 17:30:43,101.0,,0.0441987739818439,-1.96937940383477,0.0903998176482132,,0.9045906630053233,,
,8098.0,1453.0,5599.0,1857.0,1496.0,3292.0,1607.0,2025-07-17 17:30:44,100.0,,0.0441506685815302,-1.96968635407596,0.0904458691116781,,1.1524381893377462,,
,8097.0,1453.0,5604.0,1859.0,1494.0,3297.0,1605.0,2025-07-17 17:30:45,100.0,,0.044151273346537,-1.96921260360031,0.0904251191914543,,1.3908873547557163,,
,8101.0,1451.0,5601.0,1859.0,1495.0,3316.0,1634.0,2025-07-17 17:30:46,99.0,,0.0441671639268791,-1.96963197695621,0.0904715374943084,,1.6156197936644225,,
,8098.0,1453.0,5602.0,1860.0,1492.0,3315.0,1640.0,2025-07-17 17:30:47,99.0,,0.0442609794440896,-1.96862241631988,0.0904350003966702,,1.8224127990965127,,
,8099.0,1455.0,5602.0,1860.0,1497.0,3298.0,1630.0,2025-07-17 17:30:48,99.0,,0.0442506605710466,-1.96852242952948,0.0904747891092803,,2.0072674201670235,,
,8096.0,1453.0,5600.0,1859.0,1485.0,3282.0,1644.0,2025-07-17 17:30:49,99.0,,0.0443497098188688,-1.96822243848773,0.0904997701601322,,2.166532889834771,,
,8091.0,1452.0,5598.0,1858.0,1481.0,3279.0,1636.0,2025-07-17 17:30:50,99.0,,0.0443538012555248,-1.96789323467326,0.0904829153577296,,2.2970218511710643,,
,8087.0,1451.0,5593.0,1855.0,1482.0,3256.0,1657.0,2025-07-17 17:30:51,98.0,,0.0443562151019048,-1.96779814382633,0.0904823007339635,,2.3961134505834805,,
,8082.0,1451.0,5591.0,1851.0,1479.0,3240.0,1647.0,2025-07-17 17:30:52,98.0,,0.0443604224965937,-1.96725224096859,0.0904877660545928,,2.4618431483430796,,
,8078.0,1449.0,5587.0,1849.0,1475.0,3248.0,1623.0,2025-07-17 17:30:53,98.0,,0.044370379924402,-1.96681291453695,0.0904774656518205,,2.4929782182283073,,
,8073.0,1449.0,5583.0,1844.0,1477.0,3250.0,1619.0,2025-07-17 17:30:54,98.0,,0.0444116741372389,-1.96717202457942,0.0905691349541359,,2.4890763995759535,,
,8065.0,1446.0,5579.0,1844.0,1491.0,3273.0,1628.0,2025-07-17 17:30:55,98.0,,0.0444200378443186,-1.96652563981571,0.0905455533658571,,2.450522736462167,,
,8059.0,1444.0,5576.0,1843.0,1489.0,3269.0,1628.0,2025-07-17 17:30:56,98.0,,0.0444460222136859,-1.9665362081334,0.0905456511610574,,2.378537285786737,,
,8057.0,1443.0,5576.0,1843.0,1484.0,3264.0,1614.0,2025-07-17 17:30:57,98.0,,0.0443358028743643,-1.96717576693367,0.0905413277928171,,2.275145293879617,,
,8050.0,1441.0,5574.0,1839.0,1486.0,3259.0,1611.0,2025-07-17 17:30:58,98.0,,0.0443843875242172,-1.96688767568285,0.0905582905500291,,2.143102847531511,,
,8048.0,1442.0,5567.0,1838.0,1487.0,3286.0,1620.0,2025-07-17 17:30:59,98.0,,0.0444129636961103,-1.96667553874057,0.0905693758870549,,1.9857755156121302,,
,8046.0,1437.0,5566.0,1837.0,1492.0,3315.0,1599.0,2025-07-17 17:31:00,98.0,,0.0444882457924143,-1.96702491418288,0.0905697483992192,,1.8069745836862392,,
,8044.0,1440.0,5564.0,1837.0,1493.0,3300.0,1601.0,2025-07-17 17:31:01,97.0,,0.0444214784981212,-1.96651961611833,0.0905070859993329,,1.6107635895358545,,
,8038.0,1439.0,5563.0,1837.0,1503.0,3313.0,1598.0,2025-07-17 17:31:02,96.0,,0.0444261768727871,-1.96661817867081,0.0905387258677121,,1.4012549393825553,,
,8038.0,1440.0,5564.0,1836.0,1508.0,3305.0,1598.0,2025-07-17 17:31:03,95.0,,0.0444558587288551,-1.96669867742205,0.0905361453506673,,1.1824203747840611,,
,8035.0,1439.0,5561.0,1834.0,1506.0,3273.0,1600.0,2025-07-17 17:31:04,94.0,,0.0444362733459696,-1.96638395352483,0.0905897718815502,,0.957938441072431,,
,8037.0,1441.0,5565.0,1835.0,1504.0,3273.0,1627.0,2025-07-17 17:31:05,93.0,,0.0444093669186897,-1.96630940436148,0.0905573467475116,,0.7310964555187763,,
,8036.0,1444.0,5565.0,1837.0,1504.0,3293.0,1609.0,2025-07-17 17:31:06,93.0,,0.0445339962126131,-1.96637528152815,0.0905539273634225,,0.5047547398272484,,
,8037.0,1439.0,5566.0,1837.0,1501.0,3309.0,1619.0,2025-07-17 17:31:07,94.0,,0.0445995798939406,-1.96622972517222,0.0905852285331375,,0.2813691518289401,,
,8037.0,1440.0,5565.0,1835.0,1500.0,3288.0,1642.0,2025-07-17 17:31:08,94.0,,0.0446287375413158,-1.96605475914832,0.0905973656602523,,0.0630569129206726,,
,8036.0,1442.0,5567.0,1837.0,1487.0,3267.0,1626.0,2025-07-17 17:31:09,94.0,,0.044600571489614,-1.96561144209938,0.0905964218877532,,-0.14831700655820534,,
,8040.0,1441.0,5567.0,1839.0,1490.0,3253.0,1621.0,2025-07-17 17:31:10,95.0,,0.0446593995312987,-1.96569316737821,0.0906159444735723,,-0.3510583556882117,,
,8040.0,1443.0,5571.0,1840.0,1499.0,3250.0,1631.0,2025-07-17 17:31:11,95.0,,0.0446981644903383,-1.9657207997421,0.0905922564021235,,-0.5435895422039255,,
,8045.0,1441.0,5571.0,1843.0,1498.0,3269.0,1623.0,2025-07-17 17:31:12,95.0,,0.0447013292667772,-1.96538184221209,0.0906095995515309,,-0.7244381999117162,,
,8045.0,1442.0,5574.0,1836.0,1488.0,3277.0,1627.0,2025-07-17 17:31:13,95.0,,0.0447125370604726,-1.96540122677791,0.0906003189574416,,-0.8922729438681869,,
,8050.0,1443.0,5576.0,1842.0,1489.0,3279.0,1598.0,2025-07-17 17:31:14,95.0,,0.0446943579404942,-1.96537593519137,0.0905883702879224,,-1.0459790953420918,,
,8051.0,1445.0,5579.0,1846.0,1492.0,3288.0,1628.0,2025-07-17 17:31:15,94.0,,0.0447935970562797,-1.96527468848412,0.0906405836095515,,-1.184756554908661,,
,8051.0,1444.0,5579.0,1847.0,1494.0,3293.0,1622.0,2025-07-17 17:31:16,94.0,,0.0448545645241087,-1.96494780305863,0.0906209212318752,,-1.3082150355296693,,
,8052.0,1446.0,5580.0,1844.0,1493.0,3277.0,1609.0,2025-07-17 17:31:17,93.0,,0.0447742319031413,-1.96480162267729,0.0906201654087105,,-1.4164403236586531,,
,8054.0,1446.0,5582.0,1847.0,1483.0,3271.0,1625.0,2025-07-17 17:31:18,93.0,,0.0447770654807574,-1.96508911876422,0.0906266655309254,,-1.5100095272370526,,
,8056.0,1446.0,5584.0,1845.0,1481.0,3283.0,1622.0,2025-07-17 17:31:19,93.0,,0.0447493566970834,-1.96514888740686,0.0906268662363557,,-1.5899424146754964,,
,8057.0,1445.0,5583.0,1845.0,1479.0,3274.0,1637.0,2025-07-17 17:31:20,93.0,,0.044777052233103,-1.9648086873042,0.090625629960827,,-1.6575879814091639,,
,8057.0,1445.0,5582.0,1848.0,1476.0,3281.0,1640.0,2025-07-17 17:31:21,94.0,,0.0448390235598525,-1.96480613201964,0.0906626781746016,,-1.7144577714976479,,
,8054.0,1444.0,5582.0,1845.0,1485.0,3293.0,1637.0,2025-07-17 17:31:22,95.0,,0.0447365606183481,-1.96467270247308,0.090621669945393,,-1.762027683136847,,
,8054.0,1446.0,5584.0,1846.0,1494.0,3284.0,1638.0,2025-07-17 17:31:23,95.0,,0.0448001088377541,-1.96460408645363,0.0906628930770582,,-1.8015360935973577,,
,8055.0,1449.0,5585.0,1850.0,1489.0,3265.0,1646.0,,,,0.0447667330451059,-1.96468716773971,0.0906509177959307,,-1.833807230135193,,
,8055.0,1445.0,5587.0,1846.0,1491.0,3272.0,1656.0,,,,0.0448210768723881,-1.96454077272317,0.0906580794083035,,-1.85912474975117,,
,8055.0,1444.0,5582.0,1845.0,1491.0,3286.0,1639.0,,,,0.0447416602081682,-1.96458312857083,0.0906170963598126,,-1.8771722447772023,,
,8056.0,1444.0,5582.0,1846.0,1496.0,3267.0,1630.0,,,,0.0448266590551583,-1.96444881626961,0.0906658886832803,,-1.8870465595906512,,
,8054.0,1445.0,5580.0,1844.0,1493.0,3267.0,1608.0,,,,0.0448612903686022,-1.96421732408536,0.090659295964033,,-1.8873387580090135,,
,8055.0,1445.0,5582.0,1845.0,1504.0,3276.0,1610.0,,,,0.0448872873738306,-1.96458629121465,0.0906096898082234,,-1.876268578746658,,
,8056.0,1445.0,5584.0,1845.0,1500.0,3263.0,1616.0,,,,0.0447332902842969,-1.96431996187409,0.0906467161762126,,-1.8518527148401303,,
,8055.0,1444.0,5582.0,1844.0,1498.0,3287.0,1607.0,,,,0.0447478653231422,-1.96481681532522,0.0906510823304998,,-1.8120857420152199,,
,8058.0,1442.0,5584.0,1848.0,1507.0,3314.0,1625.0,,,,0.0447646345495706,-1.96420188277646,0.0906533696739032,,-1.7551146119139254,,
,8058.0,1445.0,5586.0,1848.0,1496.0,3299.0,1603.0,,,,0.0448651585346524,-1.96406422248122,0.0906501592507536,,-1.6793922262289864,,
,8055.0,1445.0,5585.0,1844.0,1501.0,3296.0,1619.0,,,,0.0449922349697719,-1.96373090047251,0.090637283505669,,-1.5838012830165593,,
,8058.0,1444.0,5585.0,1846.0,1496.0,3278.0,1621.0,,,,0.0449526843153783,-1.96375564492625,0.090653586013369,,-1.4677449793167148,,
,8059.0,1445.0,5588.0,1850.0,1487.0,3270.0,1611.0,,,,0.0448750715157963,-1.96371882276469,0.0906664465205376,,-1.3312052262022904,,
,8061.0,1446.0,5590.0,1849.0,1485.0,3267.0,1628.0,,,,0.04497275654362,-1.96340764551935,0.0906707704324192,,-1.174771204444626,,
,8062.0,1446.0,5591.0,1850.0,1481.0,3284.0,1622.0,,,,0.0450372553149239,-1.96294152248159,0.0906705595119814,,-0.9996414120592388,,
,8064.0,1445.0,5592.0,1849.0,1481.0,3271.0,1618.0,,,,0.0450660463107118,-1.96275061088205,0.0906695632879173,,-0.8076015246754372,,
,8065.0,1447.0,5593.0,1851.0,1483.0,3282.0,1628.0,,,,0.0450593057281661,-1.96225345643806,0.0906737482812124,,-0.6009793942469319,,
,8070.0,1449.0,5597.0,1852.0,1482.0,3285.0,1615.0,,,,0.0449479593437942,-1.96218425262686,0.0906748157852924,,-0.3825781617140221,,
,8070.0,1448.0,5600.0,1854.0,1482.0,3282.0,1624.0,,,,0.0450507197520269,-1.96235577369626,0.0906820452350917,,-0.1555891953159269,,
,8071.0,1448.0,5600.0,1854.0,1482.0,3280.0,1627.0,,,,0.0450757062302641,-1.96253697652397,0.09067618546363,,0.07651153986423007,,
,8071.0,1446.0,5600.0,1852.0,1485.0,3265.0,1613.0,,,,0.0450956159256331,-1.96240809352061,0.0906732789798452,,0.3100774128204466,,
,8075.0,1448.0,5603.0,1855.0,1489.0,3276.0,1627.0,,,,0.0451209597864444,-1.96261260559581,0.0906608542658491,,0.541406566806164,,
,8080.0,1450.0,5604.0,1858.0,1495.0,3289.0,1637.0,,,,0.0450550003055029,-1.96251786811037,0.090666846529723,,0.7668488479745759,,
,8080.0,1448.0,5604.0,1858.0,1495.0,3296.0,1630.0,,,,0.0450737380168355,-1.96328334225276,0.0906652132188537,,0.9828951513673357,,
,8082.0,1450.0,5605.0,1857.0,1487.0,3296.0,1624.0,,,,0.0449883375662597,-1.96307341637953,0.0906588493691347,,1.186243501181742,,
,8081.0,1450.0,5609.0,1857.0,1483.0,3290.0,1619.0,,,,0.0449423266655716,-1.96351357691565,0.0906684934670171,,1.373841551558761,,
,8088.0,1452.0,5611.0,1860.0,1490.0,3293.0,1628.0,,,,0.0449857981875563,-1.96310640210878,0.0906630401499849,,1.5429113290995888,,
,8090.0,1452.0,5611.0,1862.0,1495.0,3264.0,1640.0,,,,0.0449968232570464,-1.96369283102086,0.090636954770227,,1.690967049422609,,
,8093.0,1453.0,5616.0,1863.0,1495.0,3261.0,1644.0,,,,0.0449929428956091,-1.96357470840484,0.0906659305632308,,1.8158388028500358,,
,8095.0,1452.0,5616.0,1862.0,1485.0,3281.0,1631.0,,,,0.0449997603511106,-1.96362416111125,0.0906623962285951,,1.915712835523671,,
,8098.0,1454.0,5620.0,1865.0,1493.0,3299.0,1614.0,,,,0.0449804533032895,-1.96357524312474,0.0906573277092931,,1.9891934191904952,,
,8101.0,1455.0,5623.0,1865.0,1494.0,3307.0,1616.0,,,,0.0449562196074245,-1.96405319240615,0.0906660717889233,,2.0353832477883294,,
,8103.0,1454.0,5625.0,1866.0,1498.0,3293.0,1625.0,,,,0.0449480721485713,-1.96419896662786,0.0906663569369697,,2.053970795256063,,
,8104.0,1453.0,5625.0,1867.0,1498.0,3293.0,1601.0,,,,0.0449300728573134,-1.96397038633651,0.0906561231946145,,2.0453063063695835,,
,8105.0,1454.0,5625.0,1868.0,1505.0,3286.0,1605.0,,,,0.0448844061583562,-1.96406940581175,0.0906399808649775,,2.0104451518342956,,
,8111.0,1458.0,5630.0,1869.0,1492.0,3267.0,1604.0,,,,0.0448673568816463,-1.96456791633469,0.0906613989832721,,1.9511394575059995,,
,8110.0,1458.0,5630.0,1869.0,1494.0,3269.0,1610.0,,,,0.0449177019777809,-1.96429291540702,0.0906606010334162,,1.8697663080328066,,
,8112.0,1455.0,5632.0,1867.0,1500.0,3304.0,1631.0,,,,0.0449615077043015,-1.96434522788697,0.090647995392925,,1.769192211804731,,
,8106.0,1452.0,5627.0,1865.0,1490.0,3301.0,1618.0,,,,0.044863582418336,-1.96411132020035,0.0906410680420437,,1.6525863515891963,,
,8105.0,1454.0,5627.0,1865.0,1488.0,3319.0,1627.0,,,,0.0449590909520241,-1.96433141939489,0.0906526957484113,,1.5232060215774177,,
,8101.0,1453.0,5622.0,1863.0,1488.0,3295.0,1624.0,,,,0.0448493684564706,-1.96443766115558,0.0906652031322882,,1.3841835990076912,,
,8098.0,1454.0,5623.0,1865.0,1486.0,3296.0,1642.0,,,,0.0448034833278405,-1.96426955636973,0.0906286144401652,,1.238344151089387,,
,8094.0,1451.0,5616.0,1859.0,1486.0,3261.0,1634.0,,,,0.0448411312179542,-1.96435943128611,0.090652721090818,,1.0880768759581971,,
,8085.0,1450.0,5614.0,1858.0,1489.0,3274.0,1626.0,,,,0.0447462419165593,-1.96447714319602,0.0906552150422405,,0.9352736631369298,,
,8087.0,1448.0,5610.0,1858.0,1488.0,3270.0,1619.0,,,,0.0448260107173922,-1.96458115297063,0.0906575227646675,,0.7813363157736463,,
,8079.0,1449.0,5609.0,1855.0,1481.0,3266.0,1609.0,,,,0.0447421324859977,-1.96442751375364,0.0906486467558662,,0.6272427662586381,,
,8074.0,1448.0,5605.0,1852.0,1474.0,3270.0,1619.0,,,,0.0447306645707459,-1.96470850789636,0.0906464162989713,,0.47365401078204444,,
,8070.0,1447.0,5599.0,1851.0,1488.0,3287.0,1624.0,,,,0.0447813193738719,-1.96459858296093,0.0906356375340796,,0.3210388711610412,,
,8069.0,1446.0,5603.0,1854.0,1494.0,3295.0,1611.0,,,,0.0446775634909133,-1.96511805145123,0.090611454986418,,0.16979366175261526,,
,8065.0,1447.0,5599.0,1850.0,1504.0,3284.0,1616.0,,,,0.0446717534427236,-1.96538177955296,0.0905929331303505,,0.020338128960517246,,
,8065.0,1448.0,5600.0,1849.0,1500.0,3281.0,1620.0,,,,0.0446456638050607,-1.96544829337496,0.0906309789388838,,-0.12682365636363996,,
,8061.0,1444.0,5597.0,1849.0,1496.0,3300.0,1622.0,,,,0.0445658766270564,-1.96538942177783,0.0906192878657368,,-0.2710805025572669,,
,8059.0,1446.0,5595.0,1846.0,1498.0,3298.0,1608.0,,,,0.0445490197416961,-1.9660377660699,0.0905848741569536,,-0.41172519393138723,,
,8060.0,1446.0,5594.0,1849.0,1496.0,3299.0,1604.0,,,,0.0445762756048944,-1.96613695147814,0.0905874931436598,,-0.547990248017359,,
,8058.0,1445.0,5595.0,1850.0,1490.0,3302.0,1613.0,,,,0.044657043782168,-1.96631580657317,0.0906022342137928,,-0.6790967308975067,,
,8057.0,1446.0,5596.0,1849.0,1490.0,3310.0,1645.0,,,,0.0446178612995798,-1.96632953601563,0.0906161338304324,,-0.8043047324731895,,
,8060.0,1445.0,5596.0,1849.0,1498.0,3288.0,1644.0,,,,0.0445916778038364,-1.96728663201861,0.0905995847831853,,-0.9229563187464965,,
,8061.0,1446.0,5597.0,1852.0,1491.0,3268.0,1622.0,,,,0.0445106474314143,-1.96687342048531,0.0905886625261321,,-1.034505071291577,,
,8062.0,1447.0,5601.0,1851.0,1489.0,3253.0,1622.0,,,,0.0445768099330177,-1.96695062298417,0.0906340571831778,,-1.1385297034857713,,
,8064.0,1445.0,5601.0,1850.0,1484.0,3269.0,1619.0,,,,0.0445292469952457,-1.96656192059201,0.0905919898698747,,-1.2347318779065122,,
,8064.0,1446.0,5601.0,1850.0,1485.0,3293.0,1621.0,,,,0.04455575548918,-1.96685495279432,0.0905873521395357,,-1.322919658685983,,
,8069.0,1450.0,5604.0,1854.0,1492.0,3267.0,1592.0,,,,0.0445857798183565,-1.96695023355154,0.0905798057730923,,-1.4029779417847048,,
,8070.0,1446.0,5606.0,1854.0,1498.0,3283.0,1601.0,,,,0.044594375764783,-1.96673315781943,0.0905675664545217,,-1.4748264011582644,,
,8072.0,1449.0,5609.0,1856.0,1501.0,3290.0,1600.0,,,,0.0444898804773087,-1.96717297890799,0.0905768314364937,,-1.5383651282494535,,
,8075.0,1448.0,5611.0,1857.0,1485.0,3287.0,1607.0,,,,0.0445113165639046,-1.96730948267394,0.0905947030419146,,-1.593409138809014,,
,8077.0,1451.0,5611.0,1856.0,1481.0,3286.0,1634.0,,,,0.044516452417301,-1.96802112471945,0.0905435623357094,,-1.639615488526319,,
,8080.0,1448.0,5615.0,1857.0,1481.0,3284.0,1629.0,,,,0.0443880435604509,-1.96797091707081,0.0905499695990553,,-1.676410401028564,,
,8082.0,1451.0,5614.0,1860.0,1480.0,3279.0,1629.0,,,,0.044426528024264,-1.96833749013958,0.0905353312144766,,-1.7029275547498595,,
,8083.0,1450.0,5617.0,1858.0,1484.0,3291.0,1622.0,,,,0.044348249365559,-1.96833260567267,0.0905262444158195,,-1.7179711925272665,,
,8082.0,1450.0,5614.0,1859.0,1489.0,3294.0,1639.0,,,,0.0442679066447376,-1.9686896649515,0.0905239694115196,,-1.7200178577498408,,
,8086.0,1453.0,5618.0,1859.0,1483.0,3306.0,1661.0,,,,0.0442431740565182,-1.96909068914317,0.0904673103848073,,-1.7072677415334756,,
,8088.0,1453.0,5617.0,1858.0,1492.0,3281.0,1653.0,,,,0.0442901005959005,-1.96908284062979,0.0904986464889342,,-1.677750897319317,,
,8087.0,1451.0,5619.0,1861.0,1495.0,3270.0,1639.0,,,,0.0442625426205642,-1.96988916272151,0.0904779724869523,,-1.6294854827079146,,
,8083.0,1451.0,5618.0,1860.0,1493.0,3276.0,1635.0,,,,0.0440775512964323,-1.9701314338116,0.0905029588016424,,-1.560675811297998,,
,8085.0,1453.0,5619.0,1857.0,1492.0,3268.0,1623.0,,,,0.0441332642284897,-1.9701731679668,0.0904484760346332,,-1.4699291344173089,,
,8086.0,1450.0,5621.0,1859.0,1491.0,3257.0,1622.0,,,,0.044028186688829,-1.9702306286182,0.0904566909003302,,-1.356463916147944,,
2025-07-17 17:28:19,8085.0,1449.0,5622.0,1859.0,1491.0,3248.0,1614.0,,,2025/07/17 05:28:19 PM,0.0438476942511375,-1.97081059596135,0.0904431706986015,,-1.2202806883550597,,
,8089.0,1453.0,5619.0,1859.0,1490.0,3244.0,1622.0,,,,0.043766948254872,-1.97105809311884,0.0903912488842404,,-1.0622700932277638,,
,8086.0,1449.0,5620.0,1856.0,1490.0,3264.0,1654.0,,,,0.0438443077785577,-1.97183905735048,0.0904457606002858,,-0.8842410368155962,,
,8087.0,1451.0,5622.0,1860.0,1491.0,3283.0,1640.0,,,,0.0437821817531311,-1.97163714500982,0.0903788467513608,,-0.6888636534049192,,
,8089.0,1453.0,5621.0,1860.0,1495.0,3274.0,1629.0,,,,0.0437854375401655,-1.97203520506092,0.0903960466785584,,-0.47953489703445584,,
,8088.0,1453.0,5623.0,1862.0,1497.0,3277.0,1612.0,,,,0.0439678287867962,-1.97201083695301,0.0904022996668234,,-0.2601864030337206,,
,8089.0,1450.0,5623.0,1858.0,1490.0,3263.0,1621.0,,,,0.0438773273068241,-1.9716414832972,0.0904245539818151,,-0.0350622557256155,,
,8090.0,1453.0,5624.0,1863.0,1494.0,3278.0,1639.0,,,,0.0439231203644536,-1.97180049035262,0.0903642687212619,,0.19150328483228862,,
,8092.0,1453.0,5625.0,1864.0,1492.0,3282.0,1636.0,,,,0.0439697037017501,-1.97129718815353,0.0904535740424573,,0.4152816877426485,,
,8093.0,1453.0,5628.0,1863.0,1492.0,3280.0,1636.0,,,,0.0438769095991633,-1.97113636858315,0.0904024875961133,,0.6323020710333233,,
,8094.0,1452.0,5626.0,1861.0,1501.0,3281.0,1627.0,,,,0.0440016244687776,-1.97084905272606,0.0904202703696596,,0.8389532250930727,,
,8096.0,1451.0,5629.0,1862.0,1488.0,3291.0,1625.0,,,,0.044026724763009,-1.97128368470382,0.0903851910915404,,1.0320413290978543,,
,8101.0,1456.0,5629.0,1865.0,1485.0,3285.0,1619.0,,,,0.0439760992965877,-1.97119936119741,0.0904248256183943,,1.2088172160186157,,
,8101.0,1455.0,5631.0,1864.0,1483.0,3279.0,1635.0,,,,0.043959891652196,-1.97216109970678,0.0904070072612891,,1.3669901705389336,,
,8102.0,1455.0,5633.0,1866.0,1481.0,3277.0,1634.0,,,,0.0438945404027163,-1.97218096022753,0.0903844099149004,,1.5047429206494716,,
,8107.0,1453.0,5633.0,1864.0,1493.0,3278.0,1638.0,,,,0.0438705418664053,-1.97240039187738,0.0904017475825036,,1.6207558493212693,,
,8106.0,1453.0,5637.0,1867.0,1492.0,3275.0,1642.0,,,,0.0438877400374209,-1.97342967850284,0.090391117591776,,1.7142397148101016,,
,8108.0,1454.0,5638.0,1866.0,1487.0,3270.0,1635.0,,,,0.0438038953569161,-1.97298026703914,0.0903628649428946,,1.7849680100696774,,
,8113.0,1456.0,5640.0,1866.0,1484.0,3273.0,1635.0,,,,0.0437309532627421,-1.97372246254607,0.0903580156855145,,1.833294860986824,,
,8113.0,1456.0,5641.0,1868.0,1491.0,3273.0,1631.0,,,,0.0437024287187564,-1.9738807779893,0.0903326382168091,,1.8601433974555424,,
,8117.0,1456.0,5645.0,1869.0,1486.0,3286.0,1637.0,,,,0.0436698389102751,-1.97393721190338,0.0903193333173986,,1.8669530597485693,,
,8118.0,1460.0,5648.0,1872.0,1494.0,3282.0,1640.0,,,,0.0436206458225036,-1.97425166942375,0.0903308442598285,,1.855581711451707,,
,8120.0,1457.0,5647.0,1873.0,1490.0,3276.0,1636.0,,,,0.043568715922268,-1.97446393610522,0.0903144924082427,,1.8281682629589273,,
,8123.0,1459.0,5651.0,1871.0,1492.0,3286.0,1640.0,,,,0.0436206090542579,-1.97420907394486,0.0903087523574773,,1.7869713199199675,,
,8126.0,1458.0,5649.0,1872.0,1496.0,3278.0,1643.0,,,,0.0435380612137273,-1.9742004303537,0.090318365354644,,1.7342062391878612,,
,8130.0,1459.0,5652.0,1876.0,1495.0,3275.0,1638.0,,,,0.043523203698944,-1.97469054337856,0.0903092589125901,,1.671904680633523,,
,8132.0,1459.0,5654.0,1875.0,1491.0,3272.0,1652.0,,,,0.0435256668598773,-1.97485865937541,0.0903105069595412,,1.6018166526113589,,
,8135.0,1460.0,5655.0,1876.0,1490.0,3262.0,1649.0,,,,0.0435545855808871,-1.97510791323345,0.0902473675947271,,1.525366258095602,,
,8140.0,1461.0,5659.0,1878.0,1489.0,3251.0,1648.0,,,,0.0434016230482629,-1.97570422306686,0.0902571564349247,,1.4436612907116364,,
,8142.0,1462.0,5663.0,1880.0,1493.0,3252.0,1641.0,,,,0.0434879863714813,-1.97574064752806,0.0902390678205069,,1.357546432822448,,
,8145.0,1465.0,5666.0,1883.0,1495.0,3265.0,1632.0,,,,0.0434201230753058,-1.97569530901404,0.090270013124261,,1.26768243551868,,
,8146.0,1462.0,5664.0,1881.0,1500.0,3278.0,1639.0,,,,0.0434148841666935,-1.97593447557257,0.0902059328120003,,1.1746305034458866,,
,8147.0,1463.0,5665.0,1882.0,1504.0,3296.0,1636.0,,,,0.0433566125449274,-1.9762030924568,0.090234367166073,,1.0789223569112283,,
,8144.0,1462.0,5668.0,1882.0,1499.0,3282.0,1615.0,,,,0.0432916923970864,-1.97631515443368,0.0902228344650043,,0.981101727989336,,
,8147.0,1463.0,5665.0,1880.0,1492.0,3269.0,1639.0,,,,0.0433639142487419,-1.97671683450752,0.090256170111114,,0.881731407572652,,
,8144.0,1464.0,5664.0,1877.0,1489.0,3298.0,1630.0,,,,0.0433412687046722,-1.97676198894657,0.0902404129610452,,0.7813695078829483,,
,8136.0,1460.0,5661.0,1878.0,1490.0,3291.0,1635.0,,,,0.0432979353386986,-1.97690921064113,0.0902324079264072,,0.6805267775412308,,
,8132.0,1459.0,5656.0,1875.0,1488.0,3289.0,1641.0,,,,0.043258815024258,-1.97683071998209,0.0902048119660495,,0.5796214241624613,,
,8128.0,1461.0,5655.0,1873.0,1478.0,3263.0,1651.0,,,,0.0432524645567145,-1.97707168983436,0.0901836799957712,,0.47894802901165323,,
,8126.0,1458.0,5651.0,1873.0,1483.0,3273.0,1642.0,,,,0.0433091234068684,-1.97730055605919,0.090212431956189,,0.3786731107195055,,
,8119.0,1457.0,5648.0,1869.0,1480.0,3265.0,1633.0,,,,0.0431597148625151,-1.97760648140975,0.090203080936843,,0.2788629478496232,,
,8115.0,1456.0,5643.0,1864.0,1481.0,3260.0,1620.0,,,,0.0431347068705356,-1.97776710064704,0.0901690823279872,,0.17954123454957882,,
,8109.0,1454.0,5637.0,1861.0,1482.0,3259.0,1605.0,,,,0.0431718026818782,-1.97819357455564,0.0902306624249771,,0.08076697995657679,,
,8107.0,1454.0,5636.0,1863.0,1486.0,3270.0,1626.0,,,,0.043111441889227,-1.9786644307465,0.0901311003547106,,-0.017281752763431517,,
,8100.0,1453.0,5635.0,1861.0,1485.0,3280.0,1629.0,,,,0.0430536913511798,-1.97873978942341,0.0901801027942314,,-0.11423444922725394,,
,8096.0,1452.0,5633.0,1859.0,1485.0,3289.0,1630.0,,,,0.0429818616630672,-1.97887357288272,0.0901645632612645,,-0.20947993708628904,,
,8088.0,1447.0,5627.0,1855.0,1489.0,3287.0,1641.0,,,,0.0429018542586189,-1.97886862346721,0.0901640421894603,,-0.3021540850198088,,
,8090.0,1453.0,5626.0,1858.0,1498.0,3282.0,1635.0,,,,0.0428557630105756,-1.98042722615796,0.090170194589386,,-0.3911679616917771,,
,8085.0,1453.0,5625.0,1860.0,1490.0,3280.0,1619.0,,,,0.0427895992592601,-1.9800449905579,0.0901011578425865,,-0.4752741473539729,,
,8086.0,1453.0,5626.0,1858.0,1493.0,3275.0,1623.0,,,,0.0428175563565774,-1.98028938894156,0.0901189749315608,,-0.5531628031299171,,
,8085.0,1449.0,5621.0,1857.0,1495.0,3284.0,1624.0,,,,0.0428637380743362,-1.98078853285853,0.0901023548765754,,-0.6235747971407885,,
,8082.0,1448.0,5624.0,1858.0,1488.0,3299.0,1641.0,,,,0.0427870272512011,-1.98110392110705,0.0900410733992307,,-0.6854171159152134,,
,8082.0,1450.0,5626.0,1858.0,1497.0,3325.0,1654.0,,,,0.042796983330757,-1.98093703978162,0.0900515068258911,,-0.7378661544986791,,
,8082.0,1450.0,5625.0,1856.0,1496.0,3312.0,1654.0,,,,0.0428071394683336,-1.98126156811443,0.0900536567258424,,-0.7804471998939434,,
,8085.0,1453.0,5629.0,1857.0,1493.0,3318.0,1650.0,,,,0.0428149506097395,-1.98112536790314,0.0900575937571921,,-0.8130828448829328,,
,8084.0,1450.0,5624.0,1855.0,1486.0,3311.0,1642.0,,,,0.0427319738832955,-1.98132474349625,0.0900649749693493,,-0.836108054865935,,
,8085.0,1454.0,5625.0,1857.0,1481.0,3283.0,1632.0,,,,0.042669477165455,-1.98130825658738,0.0900831401487178,,-0.8502540484346922,,
,8087.0,1454.0,5628.0,1860.0,1476.0,3261.0,1638.0,,,,0.0427911295961949,-1.98152554802387,0.0900699068441579,,-0.8566062984004682,,
,8089.0,1455.0,5632.0,1858.0,1482.0,3261.0,1651.0,,,,0.0426897563404531,-1.98134754146372,0.0900677117415111,,-0.8565433684124786,,
,8091.0,1452.0,5627.0,1859.0,1487.0,3250.0,1638.0,,,,0.0426603315266381,-1.98167571103848,0.0900582108613641,,-0.8516627533504832,,
,8095.0,1454.0,5631.0,1859.0,1489.0,3266.0,1630.0,,,,0.0426311334104341,-1.98200078501713,0.0900534156000866,,-0.8436976688680783,,
,8095.0,1456.0,5634.0,1863.0,1494.0,3274.0,1634.0,,,,0.0426417320490065,-1.98248861173106,0.0900012021250484,,-0.8344258622999192,,
,8097.0,1452.0,5634.0,1861.0,1491.0,3275.0,1627.0,,,,0.0425229728983803,-1.98286148381823,0.0899916307053598,,-0.8255693923020138,,
,8099.0,1455.0,5633.0,1863.0,1496.0,3277.0,1624.0,,,,0.0424131747278006,-1.98294501219991,0.0899847992005217,,-0.818683951835822,,
,8097.0,1453.0,5636.0,1861.0,1496.0,3302.0,1647.0,,,,0.0424810726149046,-1.98343805345896,0.0900319973687548,,-0.8150379598492157,,
,8103.0,1455.0,5639.0,1862.0,1491.0,3291.0,1644.0,,,,0.0424052170786583,-1.98396953410025,0.0899971622191199,,-0.8154850735426517,,
,8103.0,1455.0,5637.0,1866.0,1481.0,3292.0,1643.0,,,,0.0424109552700408,-1.98425974322329,0.0899644265685011,,-0.8203383686222449,,
,8102.0,1456.0,5640.0,1865.0,1480.0,3296.0,1657.0,,,,0.0422954089835129,-1.98415323240952,0.0899493959565042,,-0.8292591978696584,,
,8101.0,1454.0,5637.0,1863.0,1487.0,3277.0,1657.0,,,,0.0422384425121088,-1.98471368656772,0.0899561267609873,,-0.8411774349583631,,
,8104.0,1456.0,5640.0,1865.0,1481.0,3271.0,1674.0,,,,0.0421885644363636,-1.98530690821837,0.0899111450597163,,-0.8542613459087235,,
,8105.0,1456.0,5639.0,1866.0,1485.0,3261.0,1660.0,,,,0.0421409697045159,-1.98579673244283,0.0899006919012695,,-0.865953930490009,,
,8105.0,1457.0,5640.0,1864.0,1485.0,3260.0,1660.0,,,,0.0420143841677793,-1.98576959794761,0.0898676929059555,,-0.8730877321134266,,
,8102.0,1454.0,5639.0,1866.0,1488.0,3285.0,1652.0,,,,0.042056899325199,-1.98655238490693,0.0898883579580075,,-0.872081726484903,,
,8104.0,1455.0,5638.0,1861.0,1493.0,3270.0,1646.0,,,,0.0420150662454438,-1.98688878069319,0.08984389269473,,-0.8592127431218242,,
,8101.0,1459.0,5638.0,1864.0,1494.0,3274.0,1655.0,,,,0.0419392431276983,-1.98700594020766,0.0898530637329191,,-0.8309418032613407,,
,8106.0,1457.0,5638.0,1863.0,1496.0,3265.0,1659.0,,,,0.0419515044008545,-1.98731518240911,0.0898595623352977,,-0.7842651951879513,,
,8102.0,1457.0,5639.0,1866.0,1489.0,3262.0,1664.0,,,,0.0419208376523567,-1.98741701605812,0.0898688801658012,,-0.7170533189829668,,
,8100.0,1456.0,5637.0,1862.0,1492.0,3267.0,1648.0,,,,0.0418772072936394,-1.9881068878869,0.0898523396648571,,-0.6283389630376497,,
,8102.0,1455.0,5639.0,1861.0,1486.0,3254.0,1644.0,,,,0.04179639861198,-1.98795240626449,0.0898400772685564,,-0.518521317050828,,
,8103.0,1457.0,5640.0,1864.0,1493.0,3257.0,1641.0,,,,0.0417823728315313,-1.98822395797253,0.0898210779416213,,-0.3894618101838188,,
,8107.0,1456.0,5643.0,1866.0,1490.0,3281.0,1641.0,,,,0.0417222402305555,-1.98840502971777,0.0898282821650466,,-0.24446066420593782,,
,8108.0,1456.0,5641.0,1863.0,1482.0,3271.0,1646.0,,,,0.0416704065760325,-1.98879754935994,0.0898161945052335,,-0.0881163892574228,,
,8108.0,1455.0,5642.0,1865.0,1487.0,3284.0,1644.0,,,,0.0417810448512425,-1.98849639971038,0.0898205558237498,,0.07391774254174323,,
,8109.0,1457.0,5643.0,1868.0,1491.0,3284.0,1642.0,,,,0.0418189201735471,-1.98856049611578,0.0898050113692869,,0.2352574526881227,,
,8112.0,1454.0,5644.0,1867.0,1494.0,3259.0,1643.0,,,,0.0418982311128243,-1.98846858215037,0.0898348123128565,,0.38916389487988884,,
,8113.0,1459.0,5645.0,1866.0,1490.0,3265.0,1647.0,,,,0.0418884976178239,-1.98842319321854,0.0898177046957829,,0.5289444541546985,,
,8114.0,1456.0,5647.0,1867.0,1483.0,3288.0,1643.0,,,,0.0419222725167628,-1.9885261323178,0.0897995913871076,,0.6483515376030767,,
,8116.0,1460.0,5647.0,1867.0,1479.0,3301.0,1616.0,,,,0.041853034026216,-1.98830984854748,0.0898069234871741,,0.7419558725632682,,
,8118.0,1458.0,5650.0,1870.0,1483.0,3275.0,1626.0,,,,0.0418464453745706,-1.9891067651014,0.0898110658920179,,0.8054733641523157,,
,8118.0,1459.0,5652.0,1871.0,1483.0,3283.0,1633.0,,,,0.0418646682360735,-1.98957893250788,0.089805730673128,,0.8360264748014333,,
,8119.0,1456.0,5653.0,1869.0,1483.0,3276.0,1625.0,,,,0.0418079223904802,-1.98935710642031,0.089801012428855,,0.8323229340376408,,
,8126.0,1458.0,5655.0,1871.0,1484.0,3260.0,1624.0,,,,0.0417114483832558,-1.98983647833195,0.0897672923088775,,0.7947373819419673,,
,8129.0,1460.0,5655.0,1873.0,1486.0,3277.0,1629.0,,,,0.0417211980460565,-1.99057017851201,0.0897741528095665,,0.7252862656113189,,
,8129.0,1462.0,5658.0,1876.0,1490.0,3308.0,1617.0,,,,0.0416755889820068,-1.99031468358179,0.0897475351691438,,0.6274933384453869,,
,8131.0,1463.0,5659.0,1874.0,1487.0,3322.0,1618.0,,,,0.0415652052947196,-1.99053164874774,0.0897351720651421,,0.5061521030552412,,
,8133.0,1460.0,5659.0,1874.0,1485.0,3297.0,1628.0,,,,0.0414931258753083,-1.99047244674245,0.0897423698097922,,0.36700162831709404,,
,8137.0,1463.0,5663.0,1875.0,1499.0,3282.0,1652.0,,,,0.0414410669224085,-1.99090998398894,0.089739858093073,,0.21634210863080555,,
,8141.0,1465.0,5666.0,1879.0,1501.0,3296.0,1646.0,,,,0.0414868926967705,-1.99102528395391,0.0897483305501304,,0.06062453473260536,,
,8140.0,1465.0,5667.0,1878.0,1496.0,3297.0,1647.0,,,,0.0413724111131523,-1.99119460288889,0.0897685950466568,,-0.09394720535430932,,
,8145.0,1464.0,5667.0,1878.0,1486.0,3294.0,1631.0,,,,0.0414516967402052,-1.991590141056,0.0897502603306444,,-0.24176521256952158,,
,8145.0,1465.0,5671.0,1881.0,1489.0,3276.0,1665.0,,,,0.041456917016027,-1.99118866972881,0.0897176070578671,,-0.3780885827942887,,
,8150.0,1464.0,5672.0,1882.0,1485.0,3266.0,1663.0,,,,0.0414649274172382,-1.9913655514667,0.0897566462459616,,-0.4992199841748256,,
,8155.0,1464.0,5673.0,1882.0,1483.0,3267.0,1660.0,,,,0.0414965616995817,-1.99089611158783,0.0897083951882764,,-0.6025854465229422,,
,8156.0,1467.0,5677.0,1882.0,1483.0,3251.0,1675.0,,,,0.0414841673133879,-1.99113922799488,0.0897224865898387,,-0.6867278517296086,,
,8155.0,1466.0,5675.0,1883.0,1484.0,3246.0,1654.0,,,,0.041311295424448,-1.99133508270793,0.0897045979332255,,-0.7512335501790282,,
,8160.0,1467.0,5679.0,1886.0,1491.0,3248.0,1649.0,,,,0.0412877574403474,-1.99140990962627,0.0897138464643767,,-0.7966153331049189,,
,8161.0,1467.0,5678.0,1885.0,1493.0,3272.0,1638.0,,,,0.0412601005748393,-1.99151636247967,0.0897106355584604,,-0.8241737670264949,,
,8160.0,1466.0,5679.0,1888.0,1486.0,3276.0,1634.0,,,,0.0412929175052623,-1.99203541649185,0.089697595181514,,-0.8358536702172539,,
,8161.0,1466.0,5678.0,1881.0,1494.0,3273.0,1628.0,,,,0.0414033202486156,-1.99193352344909,0.089730793939245,,-0.8341049927412865,,
,8157.0,1465.0,5676.0,1879.0,1501.0,3285.0,1640.0,,,,0.0414330344600427,-1.99195811506799,0.0896763022096865,,-0.8217497684037769,,
,8153.0,1466.0,5673.0,1880.0,1493.0,3284.0,1645.0,,,,0.0414649593904838,-1.99179208438588,0.0896931477071884,,-0.8018513443024317,,
,8149.0,1463.0,5669.0,1878.0,1485.0,3282.0,1630.0,,,,0.0413892580022112,-1.99201296942545,0.0896589260565646,,-0.7775801858575501,,
,8142.0,1465.0,5667.0,1874.0,1473.0,3293.0,1634.0,,,,0.0414607970476544,-1.99210217270161,0.0896819024315884,,-0.7520723327762174,,
,8136.0,1460.0,5662.0,1872.0,1479.0,3274.0,1632.0,,,,0.0414399073652478,-1.99237605111951,0.089709572691788,,-0.7282809245207784,,
,8130.0,1461.0,5656.0,1873.0,1478.0,3267.0,1635.0,,,,0.0413359454403726,-1.99191966549969,0.0896901982003719,,-0.7088263352731418,,
,8126.0,1460.0,5652.0,1869.0,1475.0,3255.0,1633.0,,,,0.0413548753943122,-1.99250099897931,0.0896508215984987,,-0.6958547287529909,,
,8121.0,1458.0,5650.0,1868.0,1476.0,3257.0,1625.0,,,,0.0413533638101869,-1.99234600204387,0.0897251006374359,,-0.6909172723285962,,
,8117.0,1457.0,5646.0,1863.0,1483.0,3263.0,1632.0,,,,0.0413663655881804,-1.9924028147202,0.0896943937775499,,-0.6948823275516672,,
,8111.0,1456.0,5644.0,1863.0,1487.0,3273.0,1637.0,,,,0.041398259591265,-1.99287600003642,0.0896581249974848,,-0.7078903555019476,,
,8107.0,1457.0,5641.0,1864.0,1486.0,3319.0,1637.0,,,,0.041339185005011,-1.99338558759761,0.08963983474536,,-0.7293561823698894,,
,8101.0,1457.0,5637.0,1859.0,1485.0,3314.0,1631.0,,,,0.0413549833187855,-1.9928809714369,0.0896770748745476,,-0.7580167081917382,,
,8100.0,1454.0,5633.0,1858.0,1487.0,3278.0,1624.0,,,,0.0413261671368327,-1.9926765155139,0.0896582149471758,,-0.7920159064315743,,
,8097.0,1452.0,5634.0,1857.0,1485.0,3282.0,1622.0,,,,0.0413147166910725,-1.99286009701254,0.0896487560999466,,-0.829014801455797,,
,8096.0,1455.0,5631.0,1857.0,1496.0,3256.0,1620.0,,,,0.041279105433149,-1.99289835169928,0.0896703084408811,,-0.8663130021382963,,
,8095.0,1453.0,5633.0,1858.0,1493.0,3266.0,1646.0,,,,0.0412008894292104,-1.99304793530055,0.0896732948420303,,-0.9009703019424778,,
,8094.0,1455.0,5631.0,1858.0,1492.0,3257.0,1645.0,,,,0.041222310967111,-1.99271678749218,0.0896515308369298,,-0.9299209766909169,,
,8089.0,1451.0,5630.0,1858.0,1489.0,3258.0,1630.0,,,,0.0413180646981033,-1.99299698839104,0.0896723557772997,,-0.9500783966429143,,
,8092.0,1452.0,5630.0,1858.0,1497.0,3268.0,1635.0,,,,0.041292452762233,-1.99306019992686,0.0896608941841442,,-0.958432092699872,,
2025-07-17 17:28:20,8090.0,1453.0,5630.0,1856.0,1498.0,3301.0,1649.0,,,2025/07/17 05:28:20 PM,0.0412533949704853,-1.99292196595768,0.0896339319359594,,-0.9521424389046043,,
,8091.0,1452.0,5631.0,1859.0,1501.0,3302.0,1645.0,,,,0.0412707824064034,-1.99308531047886,0.0896584366458628,,-0.9286388992002357,,
,8090.0,1455.0,5633.0,1858.0,1493.0,3259.0,1664.0,,,,0.0413506323338174,-1.99228389367941,0.0896644516502121,,-0.8857259129157283,,
,8090.0,1454.0,5631.0,1858.0,1489.0,3278.0,1665.0,,,,0.041315662853012,-1.99225583665659,0.0896729471277963,,-0.8216960938131936,,
,8092.0,1455.0,5634.0,1858.0,1479.0,3276.0,1657.0,,,,0.0412805201222906,-1.99240619490434,0.0896851004994357,,-0.7354444941438353,,
,8094.0,1453.0,5633.0,1860.0,1480.0,3271.0,1652.0,,,,0.0412570740101718,-1.99208645991259,0.0896666561525732,,-0.6265720370222375,,
,8096.0,1457.0,5636.0,1862.0,1482.0,3266.0,1653.0,,,,0.0412145667653745,-1.99230252314621,0.0896924095944599,,-0.49546278183110204,,
,8098.0,1456.0,5636.0,1861.0,1484.0,3294.0,1634.0,,,,0.0412330060486115,-1.99257820421437,0.0896869596556739,,-0.34331973116084685,,
,8101.0,1458.0,5639.0,1864.0,1494.0,3297.0,1636.0,,,,0.0412966820662547,-1.99315765686897,0.0896286120224857,,-0.17214769102155372,,
,8102.0,1458.0,5641.0,1864.0,1491.0,3286.0,1653.0,,,,0.041314172901074,-1.99373342427565,0.0896341976471425,,0.015321354667533323,,
,8102.0,1458.0,5640.0,1865.0,1486.0,3284.0,1636.0,,,,0.0411790914060927,-1.99399182403173,0.089634131164132,,0.21575613183287856,,
,8102.0,1456.0,5641.0,1861.0,1485.0,3302.0,1646.0,,,,0.0411880805055755,-1.99452205355416,0.0896270043570241,,0.4253942736870537,,
,8103.0,1454.0,5642.0,1862.0,1480.0,3298.0,1657.0,,,,0.041146394570547,-1.99413037489134,0.0896094524609366,,0.6402311136980277,,
,8101.0,1457.0,5642.0,1863.0,1490.0,3294.0,1667.0,,,,0.0411221617980175,-1.99418031238389,0.0896232879636322,,0.856206049735909,,
,8099.0,1458.0,5640.0,1864.0,1491.0,3277.0,1654.0,,,,0.041079872611558,-1.99508407104313,0.0895873136533607,,1.0693643492643967,,
,8104.0,1456.0,5640.0,1862.0,1477.0,3274.0,1647.0,,,,0.0409949767134543,-1.99489877277723,0.0895921330276898,,1.2759774353354516,,
,8102.0,1456.0,5638.0,1863.0,1480.0,3260.0,1662.0,,,,0.0410432529465328,-1.99452328545943,0.0896192148027439,,1.472613469772504,,
,8101.0,1459.0,5639.0,1864.0,1487.0,3289.0,1674.0,,,,0.0410946633310853,-1.9947448336252,0.0896075264515019,,1.6561607013276651,,
,8102.0,1457.0,5638.0,1864.0,1481.0,3258.0,1651.0,,,,0.0410437265694226,-1.99478850151684,0.0896157879192995,,1.8238159020303255,,
,8104.0,1457.0,5640.0,1867.0,1479.0,3260.0,1648.0,,,,0.0410281996542103,-1.99480455543693,0.0896265578404606,,1.97305669354908,,
,8103.0,1456.0,5638.0,1862.0,1495.0,3247.0,1646.0,,,,0.0410254993443178,-1.99492671488313,0.0896215039766649,,2.101618252071119,,
,8101.0,1458.0,5642.0,1863.0,1492.0,3262.0,1660.0,,,,0.0409893944778054,-1.99501191958658,0.0896047644196656,,2.2074916860320295,,
,8102.0,1461.0,5640.0,1864.0,1492.0,3251.0,1635.0,,,,0.0410070939510669,-1.99549743723281,0.0896150519216238,,2.288954130757415,,
,8102.0,1457.0,5637.0,1865.0,1495.0,3251.0,1647.0,,,,0.0409601656131679,-1.99549099870856,0.0896064578163309,,2.344630843837734,,
,8102.0,1459.0,5639.0,1864.0,1482.0,3247.0,1648.0,,,,0.0409846512103339,-1.99532745709851,0.0895789899933132,,2.3735795476321506,,
,8100.0,1459.0,5639.0,1863.0,1486.0,3265.0,1654.0,,,,0.0409781891601004,-1.99537861180818,0.0895975280663911,,2.375379518114845,,
,8103.0,1459.0,5642.0,1864.0,1491.0,3274.0,1653.0,,,,0.0410006528703924,-1.99572702618387,0.0895839091270946,,2.3502047134602897,,
,8105.0,1457.0,5642.0,1866.0,1488.0,3276.0,1640.0,,,,0.0410195424199936,-1.99543695058782,0.0895624084115844,,2.2988627883375927,,
,8105.0,1459.0,5642.0,1866.0,1488.0,3274.0,1643.0,,,,0.041003758165745,-1.99482720780198,0.08959670300525,,2.2227895880706763,,
,8107.0,1456.0,5645.0,1866.0,1483.0,3262.0,1659.0,,,,0.0410718247251209,-1.99540093201781,0.0896103726671806,,2.123998994298821,,
,8107.0,1461.0,5641.0,1866.0,1490.0,3273.0,1639.0,,,,0.0410067405938152,-1.99483413634561,0.0896151824818802,,2.0049970171998637,,
,8110.0,1459.0,5642.0,1868.0,1486.0,3277.0,1646.0,,,,0.0410778775616419,-1.9952358737364,0.089600682460576,,1.868673928831101,,
,8108.0,1459.0,5645.0,1868.0,1485.0,3278.0,1669.0,,,,0.0410753147504484,-1.99463391206065,0.0896156395845217,,1.718188335563572,,
,8112.0,1460.0,5649.0,1867.0,1491.0,3283.0,1642.0,,,,0.0410662494614277,-1.9948138907037,0.0896121333416274,,1.5568535145634985,,
,8112.0,1459.0,5647.0,1867.0,1495.0,3280.0,1651.0,,,,0.041040074006549,-1.9950363877809,0.0896182781366213,,1.3880309779190774,,
,8118.0,1459.0,5651.0,1868.0,1478.0,3271.0,1631.0,,,,0.0410567679926875,-1.99507238053343,0.089572112108256,,1.2150311406580638,,
,8121.0,1459.0,5652.0,1870.0,1485.0,3257.0,1646.0,,,,0.0410196614863427,-1.99504442811861,0.0895496836023974,,1.0410179259242396,,
,8123.0,1461.0,5654.0,1871.0,1487.0,3260.0,1643.0,,,,0.0410255152513919,-1.99529030464456,0.0895978401318309,,0.8689139875765158,,
,8124.0,1460.0,5655.0,1870.0,1480.0,3264.0,1650.0,,,,0.0409767359543823,-1.99536545618539,0.0895995704120612,,0.7013056900195855,,
,8126.0,1463.0,5656.0,1873.0,1483.0,3256.0,1647.0,,,,0.0408954347019192,-1.99485932972192,0.0895943763984063,,0.5403511713274969,,
,8126.0,1462.0,5654.0,1876.0,1484.0,3260.0,1638.0,,,,0.0409095387389859,-1.99519843453903,0.0896147328950181,,0.38769964920205663,,
,8129.0,1461.0,5659.0,1875.0,1486.0,3254.0,1648.0,,,,0.04094403901276,-1.99506878427121,0.0895870433760227,,0.24443415623862177,,
,8133.0,1461.0,5662.0,1873.0,1488.0,3280.0,1654.0,,,,0.0410320754302404,-1.9948396787155,0.0895904077911687,,0.11105132490874844,,
,8132.0,1462.0,5662.0,1875.0,1484.0,3282.0,1640.0,,,,0.0410711266567171,-1.9943713093083,0.0896458799069852,,-0.01251058487262654,,
,8137.0,1465.0,5663.0,1877.0,1491.0,3294.0,1655.0,,,,0.0410433883983802,-1.99471804658214,0.0896012395467324,,-0.12679046478990477,,
,8140.0,1465.0,5666.0,1877.0,1481.0,3264.0,1654.0,,,,0.040970043738714,-1.99507291996496,0.0896232123403165,,-0.23267378605165925,,
,8141.0,1464.0,5664.0,1879.0,1479.0,3255.0,1660.0,,,,0.0409925223250512,-1.99462224770854,0.0896313024416903,,-0.3312259473879106,,
,8145.0,1464.0,5670.0,1879.0,1484.0,3257.0,1658.0,,,,0.0410407187052384,-1.99465583658797,0.0896306564800438,,-0.4235107260953125,,
,8147.0,1465.0,5672.0,1881.0,1488.0,3270.0,1644.0,,,,0.0410749857623599,-1.9946270935487,0.0895755755630806,,-0.5104194398504598,,
,8149.0,1465.0,5672.0,1881.0,1483.0,3285.0,1652.0,,,,0.0410895705110384,-1.99419240993526,0.0896065657966102,,-0.5925361829067523,,
,8151.0,1463.0,5673.0,1881.0,1483.0,3274.0,1647.0,,,,0.0410354701906976,-1.9944997101933,0.0895972231984756,,-0.6700595500864341,,
,8154.0,1467.0,5676.0,1881.0,1482.0,3257.0,1654.0,,,,0.0410322351309047,-1.99463961308463,0.0896276908287919,,-0.742792502348537,,
,8157.0,1469.0,5675.0,1884.0,1486.0,3245.0,1656.0,,,,0.0410927791413906,-1.99460697328693,0.0895883804816306,,-0.8102009386395376,,
,8161.0,1469.0,5682.0,1884.0,1483.0,3238.0,1646.0,,,,0.0409697942011326,-1.99486060953201,0.0895559774737682,,-0.871530104674217,,
,8161.0,1469.0,5683.0,1887.0,1492.0,3252.0,1635.0,,,,0.0409875738719663,-1.99494010291131,0.0895911115843753,,-0.9259584950371955,,
,8162.0,1468.0,5682.0,1883.0,1491.0,3270.0,1636.0,,,,0.0410062665501333,-1.99519631398093,0.0896064015392875,,-0.972763346815411,,
,8160.0,1469.0,5681.0,1882.0,1495.0,3262.0,1609.0,,,,0.0410146119552937,-1.99508274132868,0.0896111767766691,,-1.011471112588372,,
,8160.0,1468.0,5678.0,1883.0,1490.0,3272.0,1617.0,,,,0.0410711546816405,-1.99545702626001,0.0896303476541999,,-1.0419702289777268,,
,8157.0,1470.0,5677.0,1882.0,1488.0,3279.0,1631.0,,,,0.0410106524929864,-1.99480698808593,0.0895779700596532,,-1.064570972504544,,
,8149.0,1465.0,5673.0,1878.0,1484.0,3279.0,1647.0,,,,0.0409687175321915,-1.99507862898647,0.0896120015392218,,-1.080006533656937,,
,8144.0,1466.0,5667.0,1875.0,1479.0,3290.0,1671.0,,,,0.0410810033883287,-1.99495478224559,0.0895893687587405,,-1.0893787508808124,,
,8141.0,1465.0,5665.0,1874.0,1479.0,3294.0,1664.0,,,,0.0410079729580344,-1.99463434988723,0.0896120106313535,,-1.094059582234141,,
,8134.0,1463.0,5663.0,1873.0,1475.0,3279.0,1671.0,,,,0.0411560899423348,-1.99445291718674,0.0896179471535125,,-1.095564185222726,,
,8128.0,1462.0,5657.0,1869.0,1477.0,3276.0,1665.0,,,,0.0410379088905382,-1.994335175074,0.0896012864806032,,-1.0954127597982164,,
,8123.0,1461.0,5653.0,1869.0,1477.0,3286.0,1667.0,,,,0.0410161909921883,-1.99501950005765,0.0896349403803598,,-1.0949961013755334,,
,8115.0,1459.0,5650.0,1863.0,1477.0,3293.0,1656.0,,,,0.0409712362486152,-1.99519841452302,0.0895647944211004,,-1.095455098888184,,
,8114.0,1458.0,5647.0,1865.0,1478.0,3270.0,1651.0,,,,0.0409495700161359,-1.99523703369839,0.0895971102142581,,-1.097579010823634,,
,8107.0,1459.0,5642.0,1862.0,1481.0,3262.0,1672.0,,,,0.040951183560913,-1.99518516562769,0.0895767110369851,,-1.1017231479845753,,
,8105.0,1455.0,5640.0,1861.0,1481.0,3264.0,1650.0,,,,0.0409348778290308,-1.99532881733418,0.0895733378964646,,-1.1077447960572278,,
,8099.0,1456.0,5639.0,1858.0,1485.0,3268.0,1640.0,,,,0.0409449138437185,-1.99537334482344,0.0895634574364253,,-1.1149570718566217,,
,8097.0,1456.0,5635.0,1860.0,1488.0,3276.0,1642.0,,,,0.0409264753564817,-1.99552577312174,0.089577356758511,,-1.12210324959075,,
,8095.0,1455.0,5636.0,1859.0,1486.0,3283.0,1652.0,,,,0.0409542219710685,-1.99592998547034,0.089580536913007,,-1.127357562292435,,
,8093.0,1455.0,5632.0,1859.0,1486.0,3259.0,1652.0,,,,0.0410192776243104,-1.99542667460392,0.0895784242151771,,-1.1283610616530422,,
,8090.0,1455.0,5632.0,1859.0,1498.0,3264.0,1628.0,,,,0.040896580636027,-1.99582063636794,0.0895870085151552,,-1.122301668455478,,
,8091.0,1453.0,5629.0,1858.0,1486.0,3273.0,1633.0,,,,0.0408707477124468,-1.99534823232348,0.089607640519904,,-1.1060454562303481,,
,8089.0,1453.0,5627.0,1855.0,1489.0,3293.0,1643.0,,,,0.0409654390163843,-1.99552043744629,0.0895729752850671,,-1.0763212624076202,,
,8088.0,1455.0,5632.0,1856.0,1492.0,3295.0,1632.0,,,,0.0409065642846011,-1.99495469448706,0.0895955906890589,,-1.0299531477037893,,
,8089.0,1453.0,5630.0,1857.0,1493.0,3297.0,1634.0,,,,0.0408291497581976,-1.99491669921429,0.0895845583502696,,-0.9641260961031198,,
,8087.0,1455.0,5630.0,1858.0,1491.0,3312.0,1660.0,,,,0.0408956183218401,-1.99485047155687,0.0895964175346681,,-0.8766617049150955,,
,8088.0,1458.0,5635.0,1859.0,1484.0,3281.0,1654.0,,,,0.0409108349263423,-1.99428725465517,0.0895940291759814,,-0.7662748486183468,,
,8088.0,1457.0,5634.0,1862.0,1486.0,3279.0,1650.0,,,,0.0408826458161792,-1.99459282536238,0.0896018587104479,,-0.632781170320963,,
,8090.0,1455.0,5634.0,1861.0,1485.0,3255.0,1655.0,,,,0.0408638700922464,-1.99527058584492,0.0896065649554991,,-0.47722931445348005,,
,8094.0,1456.0,5635.0,1860.0,1482.0,3252.0,1646.0,,,,0.0408156806324332,-1.99517937868998,0.0895923535110953,,-0.3019403926664667,,
,8091.0,1458.0,5639.0,1863.0,1478.0,3253.0,1628.0,,,,0.0409128373859991,-1.99565013693531,0.0896062483412563,,-0.11044859145516642,,
,8096.0,1458.0,5637.0,1861.0,1484.0,3268.0,1633.0,,,,0.0408791521172271,-1.99620870980205,0.0895835893323153,,0.09265120821296358,,
,8097.0,1459.0,5640.0,1863.0,1492.0,3292.0,1632.0,,,,0.040836263289327,-1.99650602101046,0.0895758180942992,,0.3019326900052513,,
,8096.0,1458.0,5641.0,1864.0,1491.0,3286.0,1636.0,,,,0.0408349054213919,-1.997213570139,0.0894963485031605,,0.511421243004749,,
,8095.0,1456.0,5641.0,1860.0,1487.0,3290.0,1646.0,,,,0.0407784048861529,-1.99722408714898,0.0895505618337858,,0.7149052047233609,,
,8099.0,1458.0,5639.0,1865.0,1481.0,3276.0,1653.0,,,,0.0407438645513163,-1.99718470170983,0.0895282671981253,,0.9062506882266375,,
,8101.0,1457.0,5643.0,1863.0,1483.0,3281.0,1660.0,,,,0.040680046002626,-1.99705186826539,0.0895329111027506,,1.0796998731976355,,
,8101.0,1458.0,5642.0,1863.0,1484.0,3286.0,1669.0,,,,0.0407602349790106,-1.99698488564105,0.0895501721248373,,1.2301384206282109,,
,8098.0,1459.0,5642.0,1864.0,1479.0,3269.0,1669.0,,,,0.04078977536897,-1.99737419119376,0.089562338768663,,1.3533227901947649,,
,8099.0,1459.0,5641.0,1863.0,1485.0,3267.0,1673.0,,,,0.0407305410513555,-1.9971819345177,0.089539870860733,,1.4460613520728682,,
,8100.0,1459.0,5643.0,1864.0,1483.0,3260.0,1673.0,,,,0.0406391061440039,-1.99727553544439,0.0894968180218415,,1.5063441899548675,,
,8099.0,1458.0,5642.0,1865.0,1480.0,3269.0,1691.0,,,,0.0407382021681127,-1.99753688551035,0.0895102653849881,,1.5334162872002342,,
,8099.0,1457.0,5641.0,1861.0,1485.0,3264.0,1663.0,,,,0.0406769467053661,-1.9981154020414,0.0895330076405103,,1.5277886575825381,,
,8098.0,1457.0,5641.0,1862.0,1490.0,3268.0,1663.0,,,,0.0405533291488803,-1.99792978180072,0.0895364976778062,,1.4911830306635643,,
,8099.0,1458.0,5641.0,1863.0,1483.0,3270.0,1643.0,,,,0.0404952674726193,-1.99846340449117,0.0895252275919223,,1.4264085095315375,,
,8096.0,1460.0,5642.0,1863.0,1483.0,3262.0,1655.0,,,,0.0405205167208623,-1.99822697913144,0.0895145677925152,,1.3371732607323035,,
,8096.0,1457.0,5640.0,1865.0,1488.0,3269.0,1656.0,,,,0.0403744804092121,-1.99841705194757,0.0895375733209152,,1.2278405643795651,,
,8094.0,1458.0,5640.0,1862.0,1490.0,3255.0,1638.0,,,,0.0405575276603036,-1.99822024022491,0.0894991536103778,,1.1031458713789393,,
,8094.0,1457.0,5641.0,1865.0,1491.0,3244.0,1645.0,,,,0.040495740376455,-1.99882913470003,0.0894851053886135,,0.9678985118104579,,
,8100.0,1457.0,5639.0,1863.0,1488.0,3259.0,1654.0,,,,0.0405433136472127,-1.99875723436206,0.0895197803759044,,0.8266962165801489,,
,8098.0,1460.0,5642.0,1863.0,1491.0,3248.0,1637.0,,,,0.0405274764251599,-1.99928404940575,0.0895291238440336,,0.6836806856669893,,
,8098.0,1458.0,5641.0,1865.0,1489.0,3240.0,1653.0,,,,0.0405869311715353,-1.9986809283743,0.0894878061192113,,0.5423574391506449,,
,8100.0,1455.0,5645.0,1865.0,1488.0,3268.0,1638.0,,,,0.0405645080320607,-1.99905932702393,0.089518792672062,,0.4054940645404991,,
,8101.0,1458.0,5642.0,1867.0,1490.0,3273.0,1629.0,,,,0.0406356891941695,-1.99854281371617,0.0895230910373933,,0.27509959400407386,,
,8101.0,1459.0,5646.0,1866.0,1487.0,3260.0,1649.0,,,,0.0404735298947097,-1.99804415320549,0.0894712414662513,,0.1524762860553975,,
,8103.0,1461.0,5646.0,1866.0,1485.0,3286.0,1659.0,,,,0.0405351329870794,-1.99842360634591,0.0894991412099186,,0.03832569040152155,,
,8103.0,1459.0,5646.0,1865.0,1494.0,3311.0,1653.0,,,,0.0406340727319872,-1.9985546287836,0.0894908307184425,,-0.06711476192826989,,
,8107.0,1460.0,5647.0,1868.0,1495.0,3291.0,1622.0,,,,0.0406677607254981,-1.99817438911239,0.0895181634417741,,-0.1639294541639319,,
,8108.0,1460.0,5650.0,1867.0,1488.0,3274.0,1641.0,,,,0.0405294799224371,-1.99866970158644,0.0894914156272932,,-0.25239799992454903,,
,8109.0,1462.0,5650.0,1869.0,1487.0,3289.0,1644.0,,,,0.0405976128158132,-1.99872962893388,0.0894822507787835,,-0.33289898900260945,,
,8113.0,1460.0,5652.0,1870.0,1479.0,3264.0,1628.0,,,,0.0406031916594061,-1.99886823550528,0.0895058119745595,,-0.40585003148724796,,
,8114.0,1463.0,5653.0,1870.0,1484.0,3256.0,1646.0,,,,0.0405469315881812,-1.99887678414821,0.0895676806081543,,-0.47168160706559836,,
,8117.0,1465.0,5658.0,1874.0,1481.0,3286.0,1635.0,,,,0.0405047683765927,-1.99882445221423,0.0894736834484935,,-0.5308357622818219,,
,8119.0,1462.0,5654.0,1874.0,1481.0,3266.0,1636.0,,,,0.0404519256903822,-1.99920654301949,0.08948683093051,,-0.5837774122586584,,
,8120.0,1462.0,5661.0,1875.0,1478.0,3263.0,1651.0,,,,0.0405715006279107,-1.9990591972847,0.0895269664955657,,-0.6310062525851231,,
,8122.0,1464.0,5660.0,1873.0,1480.0,3261.0,1647.0,,,,0.040526908735332,-1.99915254371877,0.089506746750082,,-0.6730605418764742,,
,8124.0,1465.0,5660.0,1877.0,1480.0,3273.0,1621.0,,,,0.0404689872463637,-1.99867449042958,0.0895113454858728,,-0.7105089282611222,,
,8127.0,1463.0,5664.0,1878.0,1488.0,3285.0,1645.0,,,,0.04043205185858,-1.99913451579641,0.0894901308879553,,-0.7439313573664975,,
,8130.0,1468.0,5665.0,1877.0,1486.0,3291.0,1642.0,,,,0.0404387502528337,-1.99848851262104,0.0895185150727097,,-0.7738935123799938,,
,8131.0,1464.0,5665.0,1878.0,1492.0,3305.0,1663.0,,,,0.0405419732487891,-1.99855260768154,0.0894779262130967,,-0.8009204351794852,,
,8134.0,1465.0,5667.0,1880.0,1495.0,3291.0,1672.0,,,,0.0404905458783045,-1.99832043679713,0.0895182931773763,,-0.8254738025884979,,
,8140.0,1470.0,5672.0,1881.0,1495.0,3282.0,1685.0,,,,0.0404421235107467,-1.99852583636961,0.0895556882525061,,-0.8479342408323628,,
,8140.0,1469.0,5674.0,1881.0,1496.0,3268.0,1685.0,,,,0.0406602174875396,-1.99838578099869,0.0895135810723557,,-0.8685862153038337,,
,8140.0,1468.0,5675.0,1883.0,1489.0,3258.0,1681.0,,,,0.0406073376926574,-1.99828791780819,0.0895214376634838,,-0.8876000285625618,,
,8143.0,1467.0,5678.0,1881.0,1481.0,3266.0,1672.0,,,,0.0405473693253014,-1.9983988107853,0.0894981591440617,,-0.9050046721055217,,
2025-07-17 17:28:21,8148.0,1468.0,5681.0,1885.0,1482.0,3259.0,1674.0,,,2025/07/17 05:28:21 PM,0.0405514167855532,-1.99895621192978,0.0895056188257735,,-0.9206473221283642,,
,8150.0,1469.0,5680.0,1889.0,1483.0,3264.0,1655.0,,,,0.0405718204722175,-1.99880391163546,0.089539562460088,,-0.9341398494750884,,
,8151.0,1468.0,5683.0,1886.0,1487.0,3272.0,1649.0,,,,0.0405222811951116,-1.99923265115164,0.0895231521159011,,-0.9447987112920446,,
,8151.0,1469.0,5681.0,1886.0,1495.0,3266.0,1634.0,,,,0.0404952457461102,-1.99881970017833,0.0895161176589291,,-0.9515903664862684,,
,8154.0,1467.0,5683.0,1888.0,1497.0,3275.0,1645.0,,,,0.0405087956767941,-1.99885670423788,0.0895001678800258,,-0.9530982712805947,,
,8156.0,1469.0,5684.0,1889.0,1501.0,3295.0,1647.0,,,,0.0405020889521281,-1.99872111382076,0.0895035360610483,,-0.9475283914350865,,
,8155.0,1472.0,5687.0,1887.0,1495.0,3302.0,1657.0,,,,0.0405139700938089,-1.99885537309621,0.0895129113570303,,-0.9327674178693526,,
,8154.0,1468.0,5681.0,1887.0,1482.0,3264.0,1662.0,,,,0.0405354994665257,-1.99827244804606,0.0895370872237516,,-0.9065014267653391,,
,8149.0,1469.0,5680.0,1883.0,1483.0,3262.0,1645.0,,,,0.0405149241894269,-1.99838711575098,0.0894977252874946,,-0.866393220172406,,
,8144.0,1467.0,5678.0,1883.0,1489.0,3263.0,1634.0,,,,0.0405132672345555,-1.9983575995878,0.0895341745081984,,-0.8103056352707924,,
,8139.0,1469.0,5675.0,1880.0,1484.0,3265.0,1650.0,,,,0.0405840650145298,-1.99814530908365,0.0895819368471859,,-0.7365481366179277,,
,8134.0,1465.0,5672.0,1876.0,1487.0,3257.0,1659.0,,,,0.040671480457056,-1.99765036372604,0.0895281293048168,,-0.6441174189794306,,
,8128.0,1463.0,5667.0,1876.0,1483.0,3262.0,1632.0,,,,0.0406677315247708,-1.99728800940701,0.0895867269867525,,-0.5329010969232539,,
,8124.0,1462.0,5662.0,1873.0,1479.0,3270.0,1656.0,,,,0.0406680267344058,-1.99710492690698,0.0895155501388036,,-0.40381717014949114,,
,8122.0,1460.0,5660.0,1874.0,1480.0,3277.0,1648.0,,,,0.0406690734114332,-1.99734615227251,0.0895569190092885,,-0.2588700605657131,,
,8115.0,1461.0,5656.0,1869.0,1483.0,3270.0,1653.0,,,,0.0406408791509529,-1.99704855260046,0.0895735441985843,,-0.10111502888389008,,
,8108.0,1457.0,5653.0,1867.0,1495.0,3273.0,1646.0,,,,0.0406758082605569,-1.99711279574756,0.0895506581816224,,0.06546539905094838,,
,8103.0,1458.0,5653.0,1865.0,1492.0,3264.0,1620.0,,,,0.0407026584958798,-1.99693774540828,0.0895929640368482,,0.23615892638081154,,
,8099.0,1457.0,5647.0,1865.0,1488.0,3267.0,1632.0,,,,0.040699013793245,-1.9970721055959,0.0895561439328894,,0.40577360283126085,,
,8099.0,1460.0,5646.0,1864.0,1490.0,3277.0,1615.0,,,,0.0406886154636504,-1.99696126229725,0.089551257646802,,0.5689163329112068,,
,8095.0,1458.0,5646.0,1863.0,1490.0,3287.0,1604.0,,,,0.0406892679949354,-1.99743759222603,0.0895877491769011,,0.7202769347771038,,
,8091.0,1457.0,5641.0,1864.0,1495.0,3289.0,1622.0,,,,0.04068022221528,-1.9970932200626,0.0895805629183468,,0.8548994599143759,,
,8092.0,1456.0,5644.0,1861.0,1499.0,3297.0,1634.0,,,,0.0407391766354297,-1.99637391953546,0.0895990234497193,,0.9684280770509984,,
,8091.0,1457.0,5641.0,1862.0,1502.0,3298.0,1631.0,,,,0.0407956064436803,-1.99615869585978,0.0896191401390644,,1.0573192804234863,,
,8090.0,1455.0,5640.0,1864.0,1501.0,3317.0,1622.0,,,,0.0408894220438554,-1.99596153347422,0.089599026951196,,1.1190142261243532,,
,8089.0,1457.0,5641.0,1863.0,1509.0,3312.0,1607.0,,,,0.0408481995775183,-1.99551684368791,0.0896517341181883,,1.1520646594944923,,
,8088.0,1458.0,5641.0,1864.0,1505.0,3323.0,1644.0,,,,0.0409046094119371,-1.99540987456747,0.089638238876846,,1.1562043369121093,,
,8087.0,1455.0,5642.0,1863.0,1491.0,3305.0,1627.0,,,,0.0409589801698107,-1.99498941486021,0.0896484994434324,,1.1323569191455536,,
,8090.0,1457.0,5643.0,1864.0,1481.0,3277.0,1626.0,,,,0.0409821620044099,-1.99495065515012,0.089665446988555,,1.082572820636137,,
,8089.0,1456.0,5645.0,1865.0,1479.0,3281.0,1633.0,,,,0.041038472711559,-1.99435742855536,0.0897050905217466,,1.0098922859599762,,
,8087.0,1457.0,5645.0,1866.0,1478.0,3270.0,1642.0,,,,0.0410033955849134,-1.99441653376335,0.0896996836892076,,0.9181394944938279,,
,8093.0,1459.0,5647.0,1868.0,1487.0,3279.0,1645.0,,,,0.0410226052919917,-1.99425881152483,0.0896878077607796,,0.8116612576593012,,
,8093.0,1460.0,5648.0,1870.0,1487.0,3262.0,1629.0,,,,0.0409894619800605,-1.99415230641952,0.0896843651236743,,0.695032095041281,,
,8094.0,1459.0,5651.0,1867.0,1485.0,3267.0,1624.0,,,,0.0409167220577124,-1.99424387238131,0.0897042563587331,,0.5727534709226731,,
,8096.0,1457.0,5651.0,1869.0,1484.0,3277.0,1609.0,,,,0.0409834005481171,-1.99408284336562,0.0896836163194355,,0.448977317540491,,
,8098.0,1458.0,5651.0,1872.0,1486.0,3270.0,1624.0,,,,0.0409832347662559,-1.99367289081823,0.0897158225493296,,0.3272818446951452,,
,8099.0,1459.0,5652.0,1873.0,1486.0,3302.0,1637.0,,,,0.0410139527872312,-1.99400285522904,0.0897473168987609,,0.21052107878953283,,
,8099.0,1459.0,5656.0,1871.0,1482.0,3290.0,1640.0,,,,0.0410858735901217,-1.99368664732283,0.0897030919915925,,0.10075944214636103,,
,8101.0,1461.0,5657.0,1872.0,1482.0,3302.0,1630.0,,,,0.0410674581751427,-1.99393217477922,0.0897181056068469,,-0.0007094425890066269,,
,8099.0,1459.0,5657.0,1871.0,1484.0,3284.0,1638.0,,,,0.0411196034377875,-1.99352903833574,0.0897375633139593,,-0.09327243972788038,,
,8100.0,1460.0,5658.0,1872.0,1484.0,3286.0,1644.0,,,,0.0411233610033179,-1.99385388801645,0.0897274791279248,,-0.17685710430376075,,
,8100.0,1459.0,5656.0,1873.0,1484.0,3266.0,1662.0,,,,0.0411345675302121,-1.99373075583472,0.0897260359014163,,-0.2517694077792594,,
,8099.0,1462.0,5653.0,1874.0,1484.0,3278.0,1665.0,,,,0.0410585884533025,-1.99346085201683,0.0897160460739255,,-0.3185359866364894,,
,8098.0,1460.0,5655.0,1871.0,1486.0,3285.0,1660.0,,,,0.0409733430027105,-1.99310407998009,0.0897636709668048,,-0.37777322659509016,,
,8097.0,1459.0,5654.0,1871.0,1489.0,3290.0,1638.0,,,,0.0410494322337791,-1.99317080217465,0.0897127426732286,,-0.43009718645663014,,
,8097.0,1459.0,5655.0,1871.0,1491.0,3264.0,1636.0,,,,0.040944519919479,-1.99345952492718,0.0897279765618075,,-0.4760782475336792,,
,8096.0,1458.0,5656.0,1872.0,1494.0,3262.0,1637.0,,,,0.0410173882496666,-1.99349437744801,0.0897594674088327,,-0.5162347691125971,,
,8095.0,1459.0,5654.0,1870.0,1499.0,3281.0,1624.0,,,,0.0409622708868973,-1.99345247070683,0.0897105173809372,,-0.5510530611219184,,
,8095.0,1457.0,5652.0,1869.0,1494.0,3278.0,1615.0,,,,0.0410948793602238,-1.9935854953231,0.089723371977099,,-0.5810178903185239,,
,8098.0,1460.0,5655.0,1872.0,1489.0,3275.0,1621.0,,,,0.0411533067910643,-1.99313873690543,0.0897669119571971,,-0.6066386647456296,,
,8097.0,1461.0,5657.0,1875.0,1489.0,3263.0,1617.0,,,,0.0411772661524521,-1.99300862939644,0.0897539148650359,,-0.6284605875393808,,
,8098.0,1459.0,5656.0,1873.0,1487.0,3259.0,1607.0,,,,0.0411770858720777,-1.99292552576517,0.0897548167901142,,-0.6470559567881251,,
,8096.0,1458.0,5656.0,1871.0,1490.0,3286.0,1629.0,,,,0.04118711166776,-1.99296173797757,0.0897513074992824,,-0.6629967372269996,,
,8098.0,1460.0,5657.0,1873.0,1490.0,3284.0,1635.0,,,,0.0412138151315769,-1.99230909318522,0.089775073960915,,-0.6768141796301473,,
,8099.0,1461.0,5656.0,1873.0,1482.0,3292.0,1630.0,,,,0.0412048121627853,-1.99255664624634,0.0897884136546252,,-0.6889537726914936,,
,8099.0,1460.0,5657.0,1874.0,1489.0,3292.0,1637.0,,,,0.0412539093924173,-1.99194113370169,0.0897944415020476,,-0.6997337901681583,,
,8100.0,1458.0,5658.0,1871.0,1494.0,3274.0,1625.0,,,,0.0413817471539619,-1.99189050487787,0.0898148550940646,,-0.7093132408523808,,
,8104.0,1460.0,5663.0,1873.0,1490.0,3271.0,1628.0,,,,0.0413360435060189,-1.99168967074354,0.0898546729534652,,-0.717670952627789,,
,8104.0,1461.0,5663.0,1876.0,1488.0,3270.0,1637.0,,,,0.0414052817795483,-1.99120416995343,0.0898323283686108,,-0.7245933309874131,,
,8105.0,1461.0,5663.0,1877.0,1522.0,3305.0,1636.0,,,,0.0413612702858982,-1.99092189357246,0.0898362189052845,,-0.7296656649007509,,
,8105.0,1460.0,5664.0,1877.0,1532.0,3258.0,1654.0,,,,0.0415119094706291,-1.99106008326462,0.0898297009008968,,-0.7322617600901846,,
,8107.0,1459.0,5666.0,1876.0,1493.0,3269.0,1627.0,,,,0.041410331493301,-1.99073085940526,0.0898485559167308,,-0.7315292737481922,,
,8107.0,1460.0,5666.0,1877.0,1487.0,3277.0,1616.0,,,,0.0414585961239844,-1.99073509887172,0.0898433963193694,,-0.7263726187619732,,
,8110.0,1464.0,5670.0,1882.0,1492.0,3255.0,1621.0,,,,0.0415115401001454,-1.99060560968695,0.0898731742494251,,-0.7154402928410027,,
,8113.0,1461.0,5672.0,1878.0,1491.0,3257.0,1625.0,,,,0.0415156472908461,-1.99027018254941,0.089867392543138,,-0.6971274222639079,,
,8112.0,1462.0,5672.0,1877.0,1497.0,3281.0,1638.0,,,,0.0415594316164013,-1.98996076701055,0.0898852647158533,,-0.6696059905494512,,
,8116.0,1462.0,5671.0,1882.0,1487.0,3283.0,1615.0,,,,0.0415975436688863,-1.98973403337738,0.0898880909264633,,-0.6308939756211881,,
,8118.0,1465.0,5675.0,1882.0,1493.0,3275.0,1607.0,,,,0.0415171510836646,-1.98988967145854,0.0899373568036503,,-0.5789702091290129,,
,8120.0,1465.0,5677.0,1882.0,1493.0,3283.0,1597.0,,,,0.0415722736715759,-1.98943755878532,0.0898952189385589,,-0.5119344245317557,,
,8122.0,1464.0,5679.0,1884.0,1490.0,3278.0,1603.0,,,,0.041611859028195,-1.98932062088591,0.089950326219021,,-0.42820268489313307,,
,8122.0,1464.0,5680.0,1884.0,1494.0,3296.0,1610.0,,,,0.0415877669416197,-1.98916692654812,0.0899492843480721,,-0.32671915508623856,,
,8123.0,1467.0,5685.0,1887.0,1494.0,3289.0,1611.0,,,,0.0416592778965067,-1.9887390293698,0.089928091016929,,-0.20715845666744703,,
,8127.0,1464.0,5685.0,1888.0,1497.0,3321.0,1611.0,,,,0.0416966877809142,-1.98883291475799,0.089925213233543,,-0.07009057906289053,,
,8131.0,1467.0,5686.0,1888.0,1498.0,3330.0,1604.0,,,,0.0416933172637568,-1.98855078288325,0.0899373259415477,,0.08291668232333817,,
,8131.0,1466.0,5684.0,1887.0,1480.0,3292.0,1621.0,,,,0.0416220454612097,-1.9884385999944,0.0899594820842568,,0.24927503566426149,,
,8132.0,1467.0,5686.0,1889.0,1489.0,3256.0,1640.0,,,,0.0417311080684028,-1.98849330234499,0.0899266449238804,,0.425439185767658,,
,8138.0,1468.0,5692.0,1892.0,1497.0,3261.0,1637.0,,,,0.0416665163609199,-1.98797478836693,0.0899553174528023,,0.6070514715828257,,
,8139.0,1468.0,5691.0,1892.0,1491.0,3263.0,1629.0,,,,0.0416245005912153,-1.98817548141895,0.0900136529096008,,0.7891529297493702,,
,8140.0,1469.0,5696.0,1892.0,1493.0,3266.0,1650.0,,,,0.0418061667928356,-1.98769787596483,0.0900343224760009,,0.9664397610712631,,
,8144.0,1468.0,5695.0,1893.0,1494.0,3296.0,1621.0,,,,0.0417554173696194,-1.98764393047311,0.0899961483940163,,1.133541715478831,,
,8144.0,1469.0,5698.0,1896.0,1495.0,3292.0,1625.0,,,,0.0417038541468217,-1.98763301991569,0.090011353631059,,1.2852999940695096,,
,8149.0,1468.0,5701.0,1894.0,1487.0,3292.0,1619.0,,,,0.0417180198194595,-1.98734868572302,0.0900070983999654,,1.4170261081476068,,
,8148.0,1471.0,5701.0,1898.0,1484.0,3289.0,1618.0,,,,0.0416938282840208,-1.98712316851111,0.0900348388858089,,1.524728428314827,,
,8147.0,1469.0,5700.0,1896.0,1500.0,3269.0,1624.0,,,,0.0418429472848428,-1.98650425869378,0.0900355768274582,,1.6052982791096044,,
,8149.0,1469.0,5701.0,1896.0,1504.0,3266.0,1622.0,,,,0.0418841328618051,-1.98639206514504,0.0900230102324626,,1.6566511035775389,,
,8147.0,1469.0,5703.0,1896.0,1493.0,3281.0,1621.0,,,,0.0419667206006207,-1.98520203809992,0.0900755145054676,,1.6778199657682453,,
,8146.0,1471.0,5702.0,1894.0,1491.0,3280.0,1617.0,,,,0.0430399505167595,-1.97807847922829,0.0903208405794418,,1.668998736487532,,
,8138.0,1468.0,5697.0,1893.0,1487.0,3259.0,1626.0,,,,0.0434635511345192,-1.97591107425832,0.0903836028892444,,1.6315314854059406,,
,8135.0,1466.0,5696.0,1890.0,1484.0,3256.0,1646.0,,,,0.0435143776761565,-1.97644470766553,0.0903654734448376,,1.567844035202346,,
,8132.0,1464.0,5691.0,1888.0,1485.0,3279.0,1632.0,,,,0.0435844506250639,-1.97585975072815,0.0904028953870194,,1.4813145678269486,,
,8126.0,1467.0,5689.0,1885.0,1488.0,3279.0,1609.0,,,,0.0435672685652784,-1.97541609195146,0.0904370533172445,,1.3760834503081418,,
,8121.0,1465.0,5683.0,1883.0,1490.0,3281.0,1608.0,,,,0.0435810525849088,-1.97521982006851,0.0904461394972945,,1.2568081950672447,,
,8113.0,1462.0,5680.0,1880.0,1479.0,3275.0,1624.0,,,,0.0434985164172528,-1.97507683163306,0.0904156908753742,,1.1283770709371315,,
,8109.0,1461.0,5677.0,1879.0,1487.0,3286.0,1615.0,,,,0.0434881613444334,-1.97502141411588,0.0904116230798443,,0.9956029301111935,,
,8108.0,1461.0,5675.0,1880.0,1491.0,3275.0,1627.0,,,,0.0435930021131061,-1.9748490900121,0.0904498872930023,,0.8629251800303851,,
,8101.0,1460.0,5673.0,1879.0,1491.0,3288.0,1618.0,,,,0.043601598328361,-1.97492412548782,0.0904520599599147,,0.7341503162684188,,
,8097.0,1459.0,5670.0,1877.0,1494.0,3311.0,1607.0,,,,0.0436747756431581,-1.97503900921006,0.0903996183332808,,0.6122588266778454,,
,8097.0,1458.0,5670.0,1877.0,1490.0,3316.0,1610.0,,,,0.0436299245886012,-1.97465165733054,0.0904510944059728,,0.49929877866186606,,
,8093.0,1462.0,5669.0,1875.0,1489.0,3305.0,1617.0,,,,0.0436215303698934,-1.97507458448023,0.0905000821442219,,0.3963752636990584,,
,8092.0,1458.0,5667.0,1875.0,1491.0,3304.0,1627.0,,,,0.0436050071920719,-1.97507644768859,0.0904408267374038,,0.30373196258294866,,
,8091.0,1458.0,5664.0,1876.0,1500.0,3295.0,1633.0,,,,0.0436286903810267,-1.97495687527054,0.0904264440803493,,0.220908661324332,,
,8091.0,1458.0,5667.0,1873.0,1507.0,3306.0,1639.0,,,,0.0436533449442336,-1.97477573365638,0.0904477435327093,,0.1469488184926255,,
,8091.0,1461.0,5670.0,1875.0,1495.0,3296.0,1637.0,,,,0.0437370006506215,-1.97453065084156,0.0904438319183284,,0.08062587668163729,,
,8089.0,1460.0,5668.0,1877.0,1498.0,3297.0,1649.0,,,,0.0436139563763962,-1.97446034515715,0.0904272578795283,,0.020656642123713213,,
,8089.0,1460.0,5670.0,1874.0,1503.0,3302.0,1646.0,,,,0.0437769983349306,-1.97397387735445,0.0905052157246299,,-0.034125346837594904,,
,8093.0,1458.0,5670.0,1875.0,1501.0,3285.0,1620.0,,,,0.0437161994699167,-1.97413893911847,0.0904629029982933,,-0.08465476825699872,,
,8092.0,1456.0,5671.0,1876.0,1495.0,3272.0,1621.0,,,,0.0437410843676593,-1.97379735914238,0.0904682573098275,,-0.13158474948058782,,
,8091.0,1459.0,5672.0,1877.0,1489.0,3250.0,1609.0,,,,0.0438091618192688,-1.97398378683622,0.0904868460226155,,-0.17529776474429853,,
,8094.0,1460.0,5673.0,1879.0,1484.0,3250.0,1616.0,,,,0.0437776478258979,-1.97416132471891,0.0905007393604049,,-0.21596313988222524,,
,8096.0,1460.0,5675.0,1878.0,1492.0,3275.0,1611.0,,,,0.0437611792451916,-1.97385770917558,0.0904300515227584,,-0.2536215520768838,,
,8097.0,1458.0,5676.0,1878.0,1490.0,3285.0,1622.0,,,,0.0438108161964021,-1.9741181335822,0.0904316010326181,,-0.28827591901719385,,
,8100.0,1462.0,5678.0,1882.0,1488.0,3292.0,1661.0,,,,0.0437706131852848,-1.97388939440018,0.0904851117059141,,-0.3199712063261474,,
,8104.0,1464.0,5680.0,1881.0,1495.0,3296.0,1643.0,,,,0.0436642659706602,-1.97422222457741,0.0904534305505409,,-0.34885157223699625,,
,8099.0,1461.0,5681.0,1881.0,1494.0,3285.0,1634.0,,,,0.0437391482354814,-1.97423307958582,0.0904937433116157,,-0.3751900726849374,,
,8104.0,1463.0,5681.0,1883.0,1486.0,3285.0,1638.0,,,,0.0436717782579435,-1.97476164596084,0.0904969229291203,,-0.39939217237791574,,
,8103.0,1463.0,5683.0,1884.0,1486.0,3299.0,1632.0,,,,0.0436534763870725,-1.97459583927379,0.090438626010731,,-0.42197834883290386,,
,8104.0,1463.0,5682.0,1884.0,1484.0,3277.0,1649.0,,,,0.0436311715394236,-1.97502225368537,0.0904304209202436,,-0.44355247590612007,,
,8104.0,1464.0,5685.0,1882.0,1483.0,3267.0,1671.0,,,,0.0435833121839742,-1.97554456486707,0.0904076428982758,,-0.46476140808201005,,
,8104.0,1464.0,5684.0,1882.0,1490.0,3274.0,1674.0,,,,0.0435260749464365,-1.97597854119462,0.0903712213631113,,-0.48624809906720334,,
,8105.0,1463.0,5684.0,1884.0,1487.0,3271.0,1649.0,,,,0.0435535346182881,-1.97627526130284,0.0904213772843711,,-0.5085972816682208,,
,8105.0,1463.0,5684.0,1882.0,1485.0,3261.0,1640.0,,,,0.0434155889634619,-1.97647782227612,0.09036319315026,,-0.5322709149200214,,
,8105.0,1462.0,5683.0,1885.0,1479.0,3245.0,1652.0,,,,0.0432839395977365,-1.97714000634995,0.0903958690034028,,-0.5575313317497923,,
,8104.0,1464.0,5682.0,1882.0,1481.0,3251.0,1655.0,,,,0.043231802859362,-1.97741456348465,0.0903879079928301,,-0.5843533859099866,,
,8103.0,1461.0,5684.0,1882.0,1491.0,3259.0,1640.0,,,,0.0433991440834092,-1.97741150799066,0.0903752499265152,,-0.6123320581493744,,
,8103.0,1463.0,5683.0,1882.0,1488.0,3252.0,1635.0,,,,0.0431575714728235,-1.97780534582182,0.090350465423309,,-0.640597442387839,,
,8107.0,1463.0,5684.0,1884.0,1488.0,3273.0,1620.0,,,,0.0431817543409768,-1.97773733203323,0.0903123233286731,,-0.6677531675089967,,
,8101.0,1463.0,5683.0,1883.0,1489.0,3294.0,1629.0,,,,0.0432604904113249,-1.97791896021651,0.0903642874995479,,-0.6918558991714397,,
,8103.0,1466.0,5683.0,1881.0,1501.0,3308.0,1625.0,,,,0.0432489742705491,-1.97842126764899,0.0903019715396275,,-0.710451960760025,,
2025-07-17 17:28:22,8102.0,1462.0,5682.0,1884.0,1496.0,3303.0,1636.0,,,2025/07/17 05:28:22 PM,0.0432666539603605,-1.97833974160594,0.0903319013981599,,-0.720682090852196,,
,8105.0,1464.0,5686.0,1883.0,1482.0,3293.0,1633.0,,,,0.0432210724574571,-1.97845221965139,0.090320567538348,,-0.7194571159499723,,
,8105.0,1462.0,5683.0,1884.0,1493.0,3292.0,1637.0,,,,0.0432162520090804,-1.97850430921127,0.090298667283616,,-0.7036967960633566,,
,8104.0,1463.0,5686.0,1883.0,1499.0,3273.0,1635.0,,,,0.0432216747655718,-1.97812549005281,0.0902840510179605,,-0.6706131265718032,,
,8105.0,1463.0,5686.0,1880.0,1494.0,3279.0,1630.0,,,,0.0431871059880047,-1.97857057726391,0.0902697536211888,,-0.6180102138520822,,
,8107.0,1466.0,5688.0,1886.0,1493.0,3293.0,1620.0,,,,0.0432352621865264,-1.97851994771239,0.0903101547395062,,-0.5445674084700174,,
,8108.0,1463.0,5689.0,1887.0,1497.0,3290.0,1630.0,,,,0.0431798485457869,-1.97867950328088,0.0903087614019596,,-0.45007184705264636,,
,8109.0,1464.0,5687.0,1886.0,1491.0,3285.0,1635.0,,,,0.0431935218073747,-1.97887795995362,0.0903001035929347,,-0.33557127510026585,,
,8110.0,1464.0,5689.0,1888.0,1488.0,3274.0,1625.0,,,,0.0431448013519393,-1.97876551239027,0.0902789693687497,,-0.20342741142086113,,
,8112.0,1467.0,5693.0,1887.0,1484.0,3286.0,1639.0,,,,0.0431256870879003,-1.97922613405989,0.0902836991392125,,-0.05726250124191063,,
,8116.0,1467.0,5693.0,1889.0,1489.0,3275.0,1629.0,,,,0.0430658219145411,-1.97938609393741,0.0902606114993835,,0.09819538693500557,,
,8117.0,1467.0,5694.0,1889.0,1488.0,3269.0,1626.0,,,,0.0430920089891927,-1.97971606373386,0.0902590720492234,,0.25735187360432865,,
,8118.0,1465.0,5695.0,1887.0,1488.0,3282.0,1626.0,,,,0.0430153719669871,-1.98017881336808,0.0902730342274432,,0.41404713966630957,,
,8119.0,1466.0,5697.0,1887.0,1500.0,3274.0,1627.0,,,,0.0431051571494771,-1.98035939740389,0.0902384336655679,,0.5618924166947029,,
,8120.0,1467.0,5697.0,1889.0,1486.0,3265.0,1608.0,,,,0.043037037406522,-1.98058838550693,0.0902248784958591,,0.6946183231571964,,
,8124.0,1470.0,5700.0,1893.0,1494.0,3250.0,1610.0,,,,0.0430199160864754,-1.9807954006003,0.0902280179742106,,0.8064157122520138,,
,8127.0,1470.0,5704.0,1892.0,1484.0,3251.0,1615.0,,,,0.0428759766137667,-1.98075022654994,0.0901973385833334,,0.8922541138978664,,
,8125.0,1467.0,5702.0,1891.0,1486.0,3274.0,1642.0,,,,0.0428747333533322,-1.98076487436405,0.0902379161296775,,0.9481653061344946,,
,8132.0,1470.0,5705.0,1893.0,1484.0,3278.0,1633.0,,,,0.0428151871664376,-1.98129166665518,0.0902357683778038,,0.9714795495063383,,
,8133.0,1471.0,5706.0,1896.0,1483.0,3274.0,1659.0,,,,0.0428760792130432,-1.98153464400515,0.0902218848375236,,0.9610004645619361,,
,8135.0,1468.0,5710.0,1895.0,1484.0,3275.0,1642.0,,,,0.0428185363738092,-1.98161391674244,0.0901469626924534,,0.9171031484865875,,
,8137.0,1472.0,5710.0,1895.0,1488.0,3285.0,1649.0,,,,0.0429179832164865,-1.98213549783968,0.0901633582885899,,0.8417408401061581,,
,8138.0,1469.0,5710.0,1897.0,1490.0,3285.0,1642.0,,,,0.0428139370951709,-1.9820227021225,0.0902201970439891,,0.7383496951572671,,
,8143.0,1470.0,5715.0,1897.0,1488.0,3282.0,1664.0,,,,0.0428449109552772,-1.9820873839851,0.0901364352920365,,0.611649308058933,,
,8145.0,1475.0,5716.0,1899.0,1487.0,3275.0,1661.0,,,,0.0427871236959068,-1.9823743534443,0.0901500826647507,,0.4673474725452859,,
,8146.0,1471.0,5715.0,1899.0,1486.0,3286.0,1653.0,,,,0.0427863783172508,-1.98273570347487,0.0901481954755007,,0.31176943443885197,,
,8147.0,1471.0,5717.0,1900.0,1489.0,3280.0,1652.0,,,,0.0428252683415254,-1.98247249373754,0.0901181428092185,,0.15144241548908183,,
,8149.0,1472.0,5722.0,1899.0,1486.0,3260.0,1633.0,,,,0.0427367215159585,-1.98278698118025,0.0901124817607593,,-0.007326637518076294,,
,8151.0,1475.0,5722.0,1902.0,1487.0,3276.0,1648.0,,,,0.0426974125088381,-1.98267253976468,0.0901055741664596,,-0.15884003429711743,,
,8154.0,1474.0,5724.0,1904.0,1492.0,3277.0,1655.0,,,,0.0427770852498621,-1.98251901107219,0.090096061899866,,-0.29832875470982834,,
,8156.0,1474.0,5723.0,1902.0,1486.0,3274.0,1663.0,,,,0.0427516603128768,-1.98313582633281,0.0901067733280138,,-0.4221750137667419,,
,8151.0,1473.0,5721.0,1901.0,1490.0,3288.0,1649.0,,,,0.0426564615754667,-1.98316461818804,0.0900974365172978,,-0.5280233637210511,,
,8151.0,1473.0,5722.0,1901.0,1490.0,3276.0,1633.0,,,,0.0426883297187981,-1.98347824483574,0.0901098559582442,,-0.6147798150053077,,
,8151.0,1473.0,5721.0,1902.0,1492.0,3272.0,1624.0,,,,0.0426852300810236,-1.98285220104209,0.0901087483317192,,-0.6825116056828872,,
,8147.0,1472.0,5718.0,1899.0,1498.0,3280.0,1639.0,,,,0.0427358255321048,-1.98287620382103,0.0901363509397554,,-0.7322704352106911,,
,8142.0,1472.0,5712.0,1895.0,1486.0,3280.0,1645.0,,,,0.0427317275404166,-1.98309220334374,0.0901181661121738,,-0.7658679997747687,,
,8141.0,1472.0,5713.0,1895.0,1489.0,3286.0,1639.0,,,,0.0427144346966413,-1.98289377969543,0.0900923725717026,,-0.7856341384749552,,
,8134.0,1471.0,5711.0,1895.0,1487.0,3282.0,1638.0,,,,0.042673476279608,-1.98323780926169,0.0900755540658371,,-0.7941849555698418,,
,8129.0,1468.0,5705.0,1889.0,1483.0,3290.0,1622.0,,,,0.0427175306722181,-1.98332468412452,0.0900599409818111,,-0.7942215339906559,,
,8122.0,1465.0,5699.0,1889.0,1475.0,3277.0,1637.0,,,,0.0426511338333207,-1.98384534717492,0.0900749699516758,,-0.7883706719083791,,
,8117.0,1466.0,5697.0,1886.0,1481.0,3263.0,1638.0,,,,0.0426674159052304,-1.98431374984868,0.0900684808543607,,-0.7790695415339095,,
,8114.0,1465.0,5694.0,1884.0,1481.0,3271.0,1647.0,,,,0.0426082277158752,-1.98469088558234,0.0900307861256545,,-0.7684883912777477,,
,8112.0,1465.0,5691.0,1884.0,1481.0,3277.0,1651.0,,,,0.0425793346039596,-1.9850404640271,0.0900585315592249,,-0.7584807891251948,,
,8104.0,1464.0,5687.0,1882.0,1490.0,3278.0,1627.0,,,,0.0425231317787247,-1.98541938179837,0.0900283502729247,,-0.7505499003147768,,
,8102.0,1463.0,5687.0,1880.0,1491.0,3264.0,1646.0,,,,0.0424302881456063,-1.98523383655857,0.0900276128643369,,-0.7458215016761455,,
,8101.0,1464.0,5687.0,1882.0,1494.0,3264.0,1640.0,,,,0.0424071830601587,-1.98584425774715,0.0900342332407317,,-0.7450187547188383,,
,8098.0,1462.0,5685.0,1881.0,1492.0,3279.0,1616.0,,,,0.0423793691945418,-1.98633392669872,0.0900264093305398,,-0.7484387591568146,,
,8095.0,1463.0,5683.0,1880.0,1496.0,3294.0,1625.0,,,,0.0424113301396591,-1.98613849810327,0.0899941555919365,,-0.7559352992918866,,
,8095.0,1461.0,5685.0,1878.0,1498.0,3296.0,1646.0,,,,0.0423680156516326,-1.9864466118965,0.0899960504009935,,-0.7669150413211506,,
,8096.0,1463.0,5684.0,1880.0,1492.0,3289.0,1652.0,,,,0.0423331226320404,-1.98607010525089,0.090020524805279,,-0.7803550665520654,,
,8095.0,1462.0,5682.0,1882.0,1489.0,3295.0,1646.0,,,,0.042275896165102,-1.98646943442523,0.0899625971089273,,-0.7948476574955374,,
,8094.0,1463.0,5682.0,1877.0,1491.0,3297.0,1651.0,,,,0.0423151185271369,-1.98644301854443,0.0900022299411167,,-0.8086740044920735,,
,8095.0,1461.0,5684.0,1879.0,1486.0,3292.0,1627.0,,,,0.0422359388645385,-1.98714638894319,0.0899717967143888,,-0.8199032148159378,,
,8096.0,1464.0,5683.0,1878.0,1482.0,3285.0,1640.0,,,,0.0423146694253076,-1.98685022872323,0.089997185897213,,-0.8265083919025134,,
,8102.0,1464.0,5686.0,1882.0,1482.0,3291.0,1652.0,,,,0.0422643510994556,-1.98723980060572,0.0899661614560517,,-0.826488950607833,,
,8098.0,1464.0,5686.0,1880.0,1479.0,3277.0,1642.0,,,,0.0422419985432296,-1.98741945845119,0.0899729316377127,,-0.8179882517782079,,
,8102.0,1467.0,5688.0,1883.0,1479.0,3273.0,1643.0,,,,0.0422116381989088,-1.98787420709652,0.0899239489810112,,-0.7993977353315529,,
,8099.0,1465.0,5689.0,1882.0,1481.0,3265.0,1607.0,,,,0.0421613803023098,-1.9880112008109,0.0899742794460433,,-0.7694420195309547,,
,8106.0,1466.0,5691.0,1884.0,1485.0,3276.0,1647.0,,,,0.0421864996355916,-1.98791046748286,0.089914307175595,,-0.7272427167914213,,
,8106.0,1467.0,5693.0,1884.0,1490.0,3262.0,1657.0,,,,0.0420850837072665,-1.98837126115348,0.0899298566400141,,-0.6723611718670209,,
,8107.0,1468.0,5693.0,1886.0,1495.0,3266.0,1652.0,,,,0.0420671383889015,-1.98869185631864,0.0899406399402547,,-0.6048217835187523,,
,8108.0,1467.0,5692.0,1886.0,1486.0,3269.0,1658.0,,,,0.0420238965539358,-1.98926972212242,0.0898536178351617,,-0.5251181637785624,,
,8111.0,1466.0,5694.0,1886.0,1487.0,3272.0,1643.0,,,,0.0419109574330383,-1.98928539179454,0.0899106509047961,,-0.4342040775359573,,
,8111.0,1468.0,5697.0,1887.0,1483.0,3291.0,1628.0,,,,0.0418883819036923,-1.98916094609077,0.0898923874933162,,-0.33346974908128146,,
,8112.0,1467.0,5695.0,1887.0,1478.0,3293.0,1633.0,,,,0.0418396472903592,-1.98988175068351,0.0898506620001194,,-0.22470210181516073,,
,8113.0,1471.0,5697.0,1888.0,1485.0,3279.0,1631.0,,,,0.0418194439253862,-1.99012442033699,0.0898567893512392,,-0.1100259700882095,,
,8112.0,1468.0,5696.0,1885.0,1477.0,3279.0,1667.0,,,,0.0418390444347114,-1.99065946168501,0.0898663171708965,,0.008176421153107115,,
,8111.0,1468.0,5693.0,1888.0,1480.0,3281.0,1662.0,,,,0.0417033368047125,-1.99065396822954,0.0898539627936693,,0.12736788531916302,,
,8115.0,1468.0,5695.0,1888.0,1483.0,3271.0,1654.0,,,,0.0416847598795345,-1.9909026544044,0.0898458395721743,,0.24497661262459236,,
,8112.0,1469.0,5694.0,1885.0,1492.0,3272.0,1662.0,,,,0.0415098214925778,-1.99122216666254,0.0898623215500419,,0.35852586475977793,,
,8110.0,1468.0,5694.0,1886.0,1492.0,3273.0,1655.0,,,,0.0414536284889613,-1.9914298757836,0.0897840143645849,,0.4657607932170304,,
,8109.0,1467.0,5691.0,1886.0,1494.0,3253.0,1641.0,,,,0.0414589616375394,-1.99156067232629,0.0898199987694286,,0.5647582540555206,,
,8112.0,1468.0,5694.0,1885.0,1488.0,3262.0,1643.0,,,,0.0414513464797127,-1.99238138920621,0.0898262453295039,,0.6540059664977879,,
,8113.0,1469.0,5693.0,1885.0,1489.0,3271.0,1660.0,,,,0.0414485477404824,-1.99185434764993,0.0898008581418286,,0.7324405285185369,,
,8111.0,1468.0,5691.0,1886.0,1479.0,3279.0,1667.0,,,,0.0415312712955115,-1.9919846589266,0.0897712859633897,,0.7994396136912516,,
,8113.0,1467.0,5693.0,1884.0,1491.0,3263.0,1646.0,,,,0.041570050140203,-1.9926670908562,0.089772895253172,,0.8547714331629718,,
,8112.0,1469.0,5694.0,1886.0,1500.0,3268.0,1651.0,,,,0.0415076258597535,-1.99243286232272,0.0897734451769587,,0.8985126754292415,,
,8116.0,1467.0,5692.0,1886.0,1487.0,3276.0,1655.0,,,,0.0414912155496861,-1.99288274186725,0.0897967756710655,,0.9309524525355933,,
,8118.0,1467.0,5694.0,1885.0,1481.0,3302.0,1646.0,,,,0.0414782532246307,-1.99247000534076,0.0897735882356156,,0.9525023771854485,,
,8114.0,1468.0,5694.0,1882.0,1488.0,3275.0,1648.0,,,,0.0415181108466121,-1.99303686948821,0.0897805869931305,,0.9636309169605651,,
,8115.0,1469.0,5696.0,1888.0,1489.0,3294.0,1655.0,,,,0.0415983185802894,-1.99249922489059,0.0897753275654367,,0.9648339192563933,,
,8119.0,1470.0,5698.0,1889.0,1488.0,3286.0,1636.0,,,,0.0415988802959869,-1.9920851182232,0.0897697244483085,,0.9566439020890163,,
,8120.0,1471.0,5697.0,1890.0,1488.0,3281.0,1651.0,,,,0.0414899749557512,-1.99270340456182,0.0897519550830414,,0.9396704205943703,,
,8123.0,1472.0,5697.0,1890.0,1505.0,3278.0,1656.0,,,,0.0415430990915084,-1.99294904912421,0.0897650204980638,,0.9146551669377656,,
,8121.0,1470.0,5701.0,1891.0,1489.0,3277.0,1652.0,,,,0.0415388848366311,-1.99234561886567,0.0897568502431103,,0.8825208504900846,,
,8124.0,1474.0,5703.0,1892.0,1491.0,3276.0,1631.0,,,,0.0414487419632222,-1.99232681612445,0.0897421643478341,,0.8443936838928024,,
,8127.0,1471.0,5700.0,1893.0,1489.0,3270.0,1633.0,,,,0.041365322666877,-1.99258583555606,0.0897495956032781,,0.8015854325028913,,
,8128.0,1472.0,5700.0,1893.0,1493.0,3287.0,1640.0,,,,0.0413124057181488,-1.99349358287353,0.0897405248775336,,0.7555311298709064,,
,8132.0,1471.0,5705.0,1891.0,1489.0,3293.0,1639.0,,,,0.04124763453794,-1.99380448132026,0.0897672660014358,,0.7076901953193053,,
,8132.0,1475.0,5706.0,1894.0,1486.0,3266.0,1635.0,,,,0.0413872832379067,-1.99368507166281,0.0897228077385395,,0.6594285639863443,,
,8134.0,1473.0,5709.0,1894.0,1477.0,3263.0,1639.0,,,,0.0413439255514424,-1.99368241582993,0.0897385580868669,,0.6119047480561448,,
,8138.0,1472.0,5711.0,1896.0,1479.0,3265.0,1648.0,,,,0.0413477778690622,-1.99409838871113,0.0896942763044854,,0.565982245424105,,
,8138.0,1473.0,5711.0,1894.0,1481.0,3268.0,1657.0,,,,0.0412781056746587,-1.99426164236669,0.0896866105111306,,0.5221848579531594,,
,8142.0,1474.0,5715.0,1898.0,1478.0,3251.0,1649.0,,,,0.0413175592605917,-1.99394902748367,0.0897599158307372,,0.4807019204072328,,
,8143.0,1473.0,5712.0,1900.0,1481.0,3294.0,1656.0,,,,0.0413312559640077,-1.99411093598239,0.0896756138250352,,0.44143957575922443,,
,8148.0,1476.0,5717.0,1899.0,1486.0,3280.0,1634.0,,,,0.0412819089779486,-1.99400980567247,0.0897066229423128,,0.4041047574065169,,
,8146.0,1476.0,5715.0,1900.0,1491.0,3280.0,1640.0,,,,0.0413131207103498,-1.99368093195581,0.0897218951098476,,0.36830264840708116,,
,8149.0,1474.0,5714.0,1897.0,1497.0,3288.0,1661.0,,,,0.0413406976404622,-1.99361515143979,0.0897256717267517,,0.3336271403452013,,
,8155.0,1477.0,5722.0,1899.0,1485.0,3297.0,1648.0,,,,0.041317333128545,-1.99381662525403,0.0897457882109672,,0.2997271415565003,,
,8157.0,1476.0,5719.0,1899.0,1485.0,3290.0,1648.0,,,,0.0413604376626228,-1.99366110766137,0.0897314100471212,,0.2663386057446943,,
,8158.0,1476.0,5720.0,1901.0,1485.0,3293.0,1638.0,,,,0.0412539670786097,-1.99357668157781,0.089731468604972,,0.23328124931818875,,
,8159.0,1476.0,5723.0,1901.0,1496.0,3270.0,1657.0,,,,0.0412347635003744,-1.99347613147183,0.0897212419344918,,0.20042781543112625,,
,8163.0,1477.0,5724.0,1903.0,1492.0,3279.0,1681.0,,,,0.0413249845580883,-1.99370012147099,0.0897106109494773,,0.16766010794466157,,
,8166.0,1479.0,5729.0,1905.0,1491.0,3259.0,1657.0,,,,0.0412995640829183,-1.99376656724028,0.0897272796485611,,0.13482839647710998,,
,8167.0,1481.0,5727.0,1906.0,1490.0,3263.0,1648.0,,,,0.0412401375911375,-1.99349312304552,0.089726843690969,,0.10172890782112767,,
,8172.0,1480.0,5731.0,1906.0,1491.0,3249.0,1639.0,,,,0.0412882274120761,-1.9937233590554,0.0897361795836423,,0.06810865678857951,,
,8174.0,1480.0,5731.0,1908.0,1494.0,3246.0,1640.0,,,,0.0412898548097629,-1.99379564242238,0.0897111392389236,,0.033699242833445456,,
,8174.0,1482.0,5734.0,1906.0,1497.0,3268.0,1659.0,,,,0.0412792364165253,-1.99353802952219,0.0897387868752396,,-0.0017266899371492378,,
,8173.0,1480.0,5733.0,1908.0,1496.0,3273.0,1648.0,,,,0.0413031158348644,-1.99376290918952,0.0897403112422909,,-0.03828906226924309,,
,8176.0,1480.0,5734.0,1908.0,1497.0,3268.0,1652.0,,,,0.0414640321704991,-1.99327285272325,0.0897623413691868,,-0.07594037445705967,,
,8169.0,1481.0,5733.0,1904.0,1491.0,3284.0,1652.0,,,,0.0413507345834419,-1.99288159405699,0.0897059480292223,,-0.11442838527952341,,
,8169.0,1481.0,5730.0,1902.0,1485.0,3280.0,1640.0,,,,0.0414232631029907,-1.99290764726157,0.089745668409298,,-0.1532935928571323,,
,8160.0,1480.0,5725.0,1903.0,1473.0,3270.0,1649.0,,,,0.0414444702887375,-1.99241231222297,0.0897753809259272,,-0.19190604657867744,,
,8158.0,1477.0,5724.0,1898.0,1471.0,3275.0,1649.0,,,,0.0414943978756663,-1.99270684111204,0.0897211903726264,,-0.22953680172612445,,
,8149.0,1476.0,5716.0,1895.0,1484.0,3268.0,1649.0,,,,0.041430553565588,-1.99267409163885,0.0897552862931152,,-0.2654512009604332,,
,8147.0,1473.0,5712.0,1896.0,1480.0,3276.0,1664.0,,,,0.0413921870599016,-1.99257466755352,0.0897448109773827,,-0.2990064052270609,,
,8140.0,1474.0,5709.0,1896.0,1475.0,3300.0,1672.0,,,,0.0415568320536478,-1.99253491220205,0.0897084973469494,,-0.3297351789638561,,
,8136.0,1472.0,5705.0,1892.0,1484.0,3269.0,1665.0,,,,0.0415136683977171,-1.99272244407878,0.0897787072321257,,-0.3574015291136636,,
,8128.0,1471.0,5701.0,1888.0,1487.0,3268.0,1641.0,,,,0.0413249483193288,-1.99277619543385,0.0897356096208683,,-0.3820201283916778,,
,8123.0,1467.0,5694.0,1884.0,1488.0,3278.0,1641.0,,,,0.0415067926096498,-1.9927776655109,0.0896972254729836,,-0.4038387325666781,,
,8117.0,1469.0,5695.0,1884.0,1486.0,3251.0,1630.0,,,,0.0414726508143092,-1.99325710280334,0.0896921724916791,,-0.4232893149493752,,
,8112.0,1469.0,5693.0,1885.0,1489.0,3257.0,1636.0,,,,0.0413919831721664,-1.99323515727251,0.0897175970919417,,-0.44091826972558984,,
,8110.0,1468.0,5690.0,1883.0,1491.0,3256.0,1641.0,,,,0.0413754742810372,-1.99308355576688,0.0897256451705183,,-0.4573083079389572,,
,8107.0,1465.0,5687.0,1881.0,1496.0,3258.0,1644.0,,,,0.0414171343728344,-1.99348771337268,0.0897071431066042,,-0.4730044288777889,,
,8103.0,1466.0,5683.0,1880.0,1491.0,3265.0,1632.0,,,,0.0414749180934785,-1.99348995381397,0.089705832896375,,-0.48845359897156615,,
,8103.0,1468.0,5688.0,1878.0,1488.0,3272.0,1648.0,,,,0.0415828543802932,-1.99370913953891,0.089718610599681,,-0.503962991259245,,
,8104.0,1467.0,5684.0,1882.0,1498.0,3276.0,1652.0,,,,0.0415684055750904,-1.99296408124241,0.0897327413319668,,-0.5196760841055066,,
,8099.0,1467.0,5683.0,1879.0,1491.0,3279.0,1650.0,,,,0.0415961596896548,-1.9929140016482,0.0897053698313422,,-0.535561269861454,,
2025-07-17 17:28:23,8098.0,1466.0,5683.0,1878.0,1487.0,3276.0,1672.0,,,2025/07/17 05:28:23 PM,0.041586367285059,-1.99285797661093,0.0897525235411246,,-0.5514052498905339,,
,8099.0,1464.0,5684.0,1878.0,1480.0,3271.0,1637.0,,,,0.041633520827432,-1.99244157906793,0.0897845157623095,,-0.5668039938029269,,
,8099.0,1467.0,5687.0,1881.0,1481.0,3304.0,1630.0,,,,0.0417467472993009,-1.99182182784056,0.0897784883247117,,-0.5811472149748892,,
,8097.0,1466.0,5686.0,1880.0,1483.0,3302.0,1653.0,,,,0.0415974215173529,-1.99208228542242,0.0897827973137389,,-0.5935972418402108,,
,8096.0,1466.0,5682.0,1880.0,1487.0,3298.0,1669.0,,,,0.0416492982856309,-1.99216627954565,0.0897496220126449,,-0.6030684363110587,,
,8101.0,1467.0,5684.0,1879.0,1483.0,3277.0,1651.0,,,,0.0416415300271476,-1.99198086269555,0.0897378400592714,,-0.608217487342676,,
,8101.0,1466.0,5685.0,1881.0,1486.0,3267.0,1629.0,,,,0.0415830868881551,-1.99234769106441,0.0897304537234335,,-0.6074569468775388,,
,8103.0,1467.0,5685.0,1881.0,1485.0,3270.0,1640.0,,,,0.0415825631159934,-1.99278964826484,0.0897439547869442,,-0.5990037281130616,,
,8104.0,1467.0,5687.0,1884.0,1487.0,3260.0,1633.0,,,,0.0415368290050248,-1.99281024710044,0.0897187351899724,,-0.5809707169605883,,
,8103.0,1466.0,5685.0,1885.0,1485.0,3273.0,1629.0,,,,0.0415698388394335,-1.99283342803716,0.0897114764571378,,-0.5515031507631089,,
,8104.0,1471.0,5688.0,1885.0,1482.0,3282.0,1647.0,,,,0.0415049938077499,-1.99376281318509,0.0897016277278995,,-0.5089525634432547,,
,8109.0,1467.0,5690.0,1887.0,1480.0,3292.0,1648.0,,,,0.0413602837048362,-1.99401652397688,0.0896803130615697,,-0.4520715333097886,,
,8108.0,1470.0,5689.0,1885.0,1479.0,3276.0,1641.0,,,,0.0413639884762776,-1.99421191030365,0.0896819476588495,,-0.3802047532818626,,
,8105.0,1468.0,5690.0,1885.0,1475.0,3273.0,1674.0,,,,0.0414139360600458,-1.9942958032631,0.0896916453649905,,-0.293448466239751,,
,8109.0,1470.0,5689.0,1885.0,1479.0,3271.0,1665.0,,,,0.0413297232774699,-1.99426446163661,0.0897190894874751,,-0.19275225441251845,,
,8105.0,1468.0,5688.0,1886.0,1478.0,3285.0,1664.0,,,,0.0412792451062605,-1.994136945515,0.0896872302282328,,-0.07994424364045438,,
,8105.0,1470.0,5688.0,1886.0,1479.0,3279.0,1656.0,,,,0.0413556763878349,-1.99436864201302,0.089690380409998,,0.042328492338049674,,
,8105.0,1468.0,5691.0,1883.0,1473.0,3267.0,1656.0,,,,0.0413695948287333,-1.99440980634033,0.0896924214238911,,0.17074034040807204,,
,8106.0,1466.0,5685.0,1885.0,1472.0,3275.0,1634.0,,,,0.0411814894844699,-1.99445564757054,0.0896615301221215,,0.30149302409116185,,
,8105.0,1468.0,5687.0,1881.0,1479.0,3264.0,1647.0,,,,0.041163723931498,-1.99453141396507,0.0896677269991587,,0.43056300496962313,,
,8103.0,1467.0,5685.0,1883.0,1481.0,3260.0,1665.0,,,,0.0413620488649121,-1.99469563874082,0.0896520812131631,,0.5539618251421703,,
,8105.0,1471.0,5685.0,1883.0,1487.0,3268.0,1669.0,,,,0.0413901136686279,-1.99513935455212,0.0896992915905231,,0.6679806169054135,,
,8104.0,1466.0,5683.0,1881.0,1488.0,3269.0,1677.0,,,,0.0412946614388871,-1.99493886875295,0.0896689715758101,,0.7693942461392659,,
,8103.0,1468.0,5684.0,1885.0,1487.0,3278.0,1668.0,,,,0.0412988482631559,-1.99465907631879,0.0896558568780077,,0.855608601737581,,
,8104.0,1468.0,5687.0,1883.0,1495.0,3271.0,1667.0,,,,0.0412693312447976,-1.9953799954151,0.0896809310228828,,0.9247448497755603,,
,8106.0,1470.0,5685.0,1885.0,1492.0,3266.0,1649.0,,,,0.0412499254236662,-1.9953780226128,0.0896183275278169,,0.9756646562654647,,
,8105.0,1467.0,5683.0,1882.0,1491.0,3274.0,1646.0,,,,0.0412335639024285,-1.99539798608985,0.0896488519029559,,1.007948072329596,,
,8104.0,1467.0,5686.0,1883.0,1481.0,3292.0,1671.0,,,,0.0412886299350673,-1.99555030386055,0.089660539829283,,1.0218395343266664,,
,8105.0,1469.0,5685.0,1882.0,1485.0,3267.0,1650.0,,,,0.0412263474560901,-1.99556110642463,0.0896405582730664,,1.0181769914173149,,
,8106.0,1468.0,5684.0,1884.0,1482.0,3264.0,1649.0,,,,0.0412265125649206,-1.99522110501154,0.0896475797441185,,0.9983151840803046,,
,8106.0,1469.0,5684.0,1884.0,1479.0,3278.0,1629.0,,,,0.0412262210181739,-1.99480881263041,0.0896693488718153,,0.9640479853355584,,
,8106.0,1469.0,5684.0,1884.0,1482.0,3285.0,1653.0,,,,0.0412463582610752,-1.99529775323545,0.0896814291527674,,0.917528517798759,,
,8110.0,1470.0,5687.0,1887.0,1478.0,3286.0,1651.0,,,,0.0412341884365637,-1.99573242589958,0.0896652252530719,,0.8611815115400139,,
,8114.0,1468.0,5687.0,1884.0,1477.0,3288.0,1640.0,,,,0.041231581801141,-1.99545321137368,0.0896455644838741,,0.7976013517247281,,
,8112.0,1469.0,5690.0,1888.0,1484.0,3278.0,1648.0,,,,0.0412550714692521,-1.99517988565059,0.0896648686938376,,0.7294317404035697,,
,8113.0,1467.0,5689.0,1885.0,1488.0,3294.0,1645.0,,,,0.0412113175575561,-1.99577509330935,0.0896608376957892,,0.6592282805774178,,
,8116.0,1470.0,5691.0,1889.0,1483.0,3275.0,1644.0,,,,0.0411558026098572,-1.9957164361153,0.0896396638357096,,0.5893122321256868,,
,8118.0,1470.0,5692.0,1888.0,1486.0,3269.0,1654.0,,,,0.0411650543699403,-1.99583416610284,0.0896705456561783,,0.521630094402542,,
,8120.0,1472.0,5695.0,1890.0,1482.0,3283.0,1654.0,,,,0.041110562874661,-1.99608460898253,0.089606238205557,,0.45763729674233217,,
,8121.0,1470.0,5695.0,1888.0,1473.0,3287.0,1678.0,,,,0.0410951503311783,-1.99595634083034,0.0896494882328153,,0.39822376030231865,,
,8123.0,1473.0,5695.0,1891.0,1493.0,3283.0,1676.0,,,,0.0411210562060048,-1.99644479621751,0.0896174692341096,,0.34369442775000136,,
,8128.0,1474.0,5698.0,1891.0,1480.0,3276.0,1633.0,,,,0.0411217072253729,-1.99646095635936,0.0896335179280463,,0.29381006022670525,,
,8126.0,1471.0,5698.0,1892.0,1484.0,3284.0,1630.0,,,,0.0411727428746651,-1.99667289416725,0.0896422683663065,,0.24788426250455672,,
,8132.0,1473.0,5700.0,1893.0,1487.0,3289.0,1627.0,,,,0.0410861899074463,-1.99643269799603,0.0896230466977745,,0.20492373315011964,,
,8132.0,1472.0,5703.0,1892.0,1478.0,3289.0,1627.0,,,,0.0410241561128297,-1.99638979387841,0.089657701534923,,0.16379200628028964,,
,8138.0,1473.0,5705.0,1896.0,1486.0,3293.0,1627.0,,,,0.0411359839717242,-1.9962991362304,0.0896416048118949,,0.12337371075913607,,
,8140.0,1474.0,5708.0,1897.0,1481.0,3316.0,1623.0,,,,0.0411171934086659,-1.99652881152223,0.0896217408122203,,0.08271704575577912,,
,8139.0,1476.0,5706.0,1895.0,1476.0,3308.0,1647.0,,,,0.0410730252179559,-1.99648548860776,0.0896460112481001,,0.04113656794959112,,
,8143.0,1474.0,5706.0,1896.0,1477.0,3293.0,1661.0,,,,0.0411212073092962,-1.99646896419804,0.089593531167991,,-0.0017341523999842901,,
,8142.0,1472.0,5708.0,1895.0,1484.0,3283.0,1661.0,,,,0.0411848743125935,-1.99636700438211,0.0896225373556392,,-0.045941245920209046,,
,8144.0,1474.0,5710.0,1901.0,1487.0,3257.0,1664.0,,,,0.041160158084566,-1.99679661318521,0.0896220505293382,,-0.09125291559134004,,
,8150.0,1478.0,5711.0,1899.0,1487.0,3274.0,1660.0,,,,0.041233838787334,-1.99672869055262,0.0896652834158698,,-0.13723105953998554,,
,8152.0,1477.0,5713.0,1902.0,1493.0,3274.0,1657.0,,,,0.0411123324689858,-1.9963566014507,0.0896467365843988,,-0.18331458317619218,,
,8152.0,1475.0,5712.0,1900.0,1488.0,3263.0,1661.0,,,,0.0411343042747944,-1.99681101993046,0.0896289680926801,,-0.22889757055420917,,
,8155.0,1478.0,5716.0,1905.0,1480.0,3253.0,1665.0,,,,0.0411706634604082,-1.99662967915487,0.0896231739831551,,-0.2733896790500105,,
,8158.0,1478.0,5714.0,1903.0,1482.0,3251.0,1667.0,,,,0.0411505168621558,-1.99660334111514,0.0896094926839696,,-0.3162526162584142,,
,8160.0,1480.0,5720.0,1904.0,1493.0,3263.0,1649.0,,,,0.0410241209511677,-1.99672867710286,0.0896653436642772,,-0.3570136148944231,,
,8163.0,1477.0,5719.0,1901.0,1492.0,3250.0,1653.0,,,,0.0410978688805603,-1.99668980880301,0.0896348331098357,,-0.3952626638995461,,
,8164.0,1480.0,5720.0,1906.0,1489.0,3263.0,1647.0,,,,0.0411136420089319,-1.99676173918694,0.0896452876914008,,-0.43064363094197666,,
,8164.0,1480.0,5722.0,1907.0,1493.0,3268.0,1640.0,,,,0.0411533692820346,-1.99672719950146,0.0896526899647033,,-0.4628497595069038,,
,8162.0,1479.0,5717.0,1904.0,1490.0,3272.0,1644.0,,,,0.0411155456037073,-1.99668537007132,0.0896009091628676,,-0.49163137775869786,,
,8156.0,1476.0,5715.0,1901.0,1489.0,3296.0,1639.0,,,,0.0412374831310865,-1.99611117196793,0.0896561784389911,,-0.5168186821802586,,
,8150.0,1476.0,5711.0,1898.0,1485.0,3280.0,1657.0,,,,0.0411922285461239,-1.99610329542879,0.0896575010570917,,-0.5383564975794415,,
,8149.0,1475.0,5712.0,1900.0,1474.0,3279.0,1653.0,,,,0.0411692105883371,-1.99616185874531,0.0896540150488991,,-0.5563426403406168,,
,8142.0,1476.0,5707.0,1896.0,1475.0,3280.0,1665.0,,,,0.0411286020528272,-1.99613559361867,0.089685545022776,,-0.5710583239530734,,
,8136.0,1473.0,5704.0,1892.0,1477.0,3284.0,1675.0,,,,0.0411376260296652,-1.99653615862022,0.0896400027131207,,-0.5829787218605526,,
,8129.0,1472.0,5698.0,1889.0,1476.0,3276.0,1666.0,,,,0.0411266476209667,-1.99644664265287,0.0896342914962712,,-0.5927544600872178,,
,8123.0,1469.0,5692.0,1888.0,1471.0,3268.0,1655.0,,,,0.0410638065597569,-1.99702595117559,0.0896410442933407,,-0.6011598826179809,,
,8118.0,1470.0,5690.0,1889.0,1477.0,3275.0,1634.0,,,,0.0410275339792596,-1.9970003841569,0.0896432043892483,,-0.609010231569969,,
,8113.0,1468.0,5687.0,1887.0,1480.0,3284.0,1632.0,,,,0.0410339810853355,-1.99714527287485,0.0896107811290592,,-0.6170560130067082,,
,8110.0,1467.0,5682.0,1882.0,1498.0,3263.0,1605.0,,,,0.0409676065875298,-1.99735556072408,0.0896102575122231,,-0.62586764236878,,
,8104.0,1466.0,5680.0,1881.0,1488.0,3240.0,1634.0,,,,0.040901204353992,-1.99702886371969,0.0895636909069012,,-0.6357262346587834,,
,8100.0,1467.0,5677.0,1879.0,1496.0,3257.0,1629.0,,,,0.0408494779689086,-1.99715449126251,0.0896061679701289,,-0.6465365996635382,,
,8099.0,1468.0,5676.0,1880.0,1491.0,3270.0,1623.0,,,,0.040950046855407,-1.99688364101145,0.0896498168880555,,-0.6577758110268577,,
,8095.0,1466.0,5673.0,1881.0,1490.0,3290.0,1634.0,,,,0.040921967806326,-1.996928835311,0.0896132682626498,,-0.668485410036132,,
,8094.0,1463.0,5673.0,1878.0,1490.0,3273.0,1648.0,,,,0.0409012050725158,-1.99663215951284,0.0896179882078354,,-0.6773085577703167,,
,8089.0,1466.0,5672.0,1878.0,1490.0,3267.0,1639.0,,,,0.0409041722221784,-1.99687055231418,0.0896276329751568,,-0.6825670387304117,,
,8091.0,1465.0,5671.0,1877.0,1492.0,3282.0,1644.0,,,,0.0409972003843113,-1.99651235675161,0.0896428052461835,,-0.6823685054325755,,
,8092.0,1466.0,5672.0,1879.0,1492.0,3279.0,1649.0,,,,0.0409860146339479,-1.99644633681861,0.0895914171347737,,-0.6747324791493681,,
,8088.0,1463.0,5670.0,1877.0,1491.0,3294.0,1646.0,,,,0.0410241367191363,-1.99627365526495,0.089627716136262,,-0.6577242319801992,,
,8088.0,1464.0,5672.0,1879.0,1480.0,3290.0,1655.0,,,,0.0410646903781839,-1.99593111509392,0.0896500021637601,,-0.6295879315727109,,
,8091.0,1464.0,5674.0,1877.0,1468.0,3269.0,1663.0,,,,0.0410248410345467,-1.99584625935441,0.0896105019525093,,-0.5888731679822434,,
,8090.0,1467.0,5673.0,1878.0,1480.0,3270.0,1661.0,,,,0.0409522754260296,-1.99603304258449,0.0896212861143915,,-0.5345511765524574,,
,8091.0,1466.0,5672.0,1879.0,1482.0,3274.0,1664.0,,,,0.0410683403056662,-1.99602722582468,0.0896318008289495,,-0.46611818752679735,,
,8092.0,1463.0,5672.0,1879.0,1481.0,3260.0,1652.0,,,,0.0409630585408472,-1.99618544234492,0.0896181569238965,,-0.38368328790252837,,
,8092.0,1466.0,5672.0,1881.0,1472.0,3261.0,1629.0,,,,0.0409424345894797,-1.99666373502776,0.0896445497620126,,-0.28803699024778806,,
,8096.0,1469.0,5676.0,1883.0,1482.0,3250.0,1654.0,,,,0.0409475389817095,-1.99635438288117,0.0895965701494846,,-0.18069442453357146,,
,8096.0,1466.0,5676.0,1884.0,1477.0,3258.0,1656.0,,,,0.040943464459521,-1.99736555839124,0.0895872561197323,,-0.06390429962752515,,
,8098.0,1466.0,5678.0,1882.0,1481.0,3260.0,1644.0,,,,0.040834559000432,-1.9973805726417,0.0896226067121331,,0.05938705494322323,,
,8098.0,1468.0,5678.0,1883.0,1485.0,3260.0,1649.0,,,,0.0408312473124337,-1.99734866410126,0.0896174510301487,,0.18562653998709447,,
,8099.0,1469.0,5679.0,1884.0,1487.0,3277.0,1651.0,,,,0.0408111260581573,-1.99772636185299,0.0895913809030396,,0.310805864248112,,
,8099.0,1468.0,5678.0,1882.0,1480.0,3278.0,1626.0,,,,0.0407408207167644,-1.99754751108319,0.0896353997386974,,0.43067232369163305,,
,8099.0,1469.0,5678.0,1883.0,1480.0,3283.0,1645.0,,,,0.0408021253730906,-1.99750889110448,0.0896045225013808,,0.5409877692335467,,
,8098.0,1467.0,5677.0,1883.0,1474.0,3278.0,1664.0,,,,0.0408488103625434,-1.99718399739186,0.0896276753210322,,0.6378149150962993,,
,8102.0,1470.0,5679.0,1884.0,1482.0,3285.0,1666.0,,,,0.0407902665886305,-1.9971624603744,0.0895876614537463,,0.7178021668026184,,
,8102.0,1468.0,5680.0,1887.0,1485.0,3262.0,1670.0,,,,0.0408315627202285,-1.99752190287009,0.0895832841359383,,0.7784341066799488,,
,8101.0,1468.0,5677.0,1884.0,1492.0,3258.0,1668.0,,,,0.0408068700900486,-1.99754679775038,0.0896366587751284,,0.8182159865875598,,
,8100.0,1467.0,5679.0,1881.0,1479.0,3253.0,1690.0,,,,0.040713131864457,-1.99787977349053,0.0895640276356363,,0.8367673233110734,,
,8097.0,1467.0,5676.0,1881.0,1477.0,3274.0,1678.0,,,,0.0408099823528028,-1.99808581440035,0.0896057418167697,,0.8348112188739795,,
,8100.0,1467.0,5676.0,1884.0,1477.0,3302.0,1656.0,,,,0.040804143706411,-1.99769494435062,0.0896089402779096,,0.8140605655111561,,
,8098.0,1467.0,5675.0,1884.0,1483.0,3295.0,1670.0,,,,0.040755830532167,-1.9978317610925,0.0895862586378417,,0.7770171488935146,,
,8098.0,1467.0,5673.0,1884.0,1483.0,3291.0,1671.0,,,,0.0407315451048211,-1.9979369761847,0.0895693647425728,,0.7267118125898101,,
