TimeLabel,MEAS1_PPG1,MEAS1_PPG2,MEAS1_PPG3,MEAS1_PPG4,ACCX,ACCY,ACCZ,HR_timestamp,HR_value,radar_timestamp,phase_rx0,phase_rx1,phase_rx2,timestep,n_process,original_rate,calculated_rate
2025-08-20 18:35:37,4190.0,904.0,3311.0,861.0,2185.0,2725.0,1847.0,2025-08-20 18:35:37,68.0,2025/08/20 06:35:37 PM,-0.0762382848278595,-2.38886851080374,0.055165255507412,2025/08/20 06:35:37 PM,-0.38978846819621515,0.0,22.65384141077815
,4191.0,901.0,3311.0,864.0,2188.0,2706.0,1839.0,2025-08-20 18:35:38,68.0,,-0.0762697373891446,-2.38822220288851,0.0553064495537467,2025/08/20 06:35:47 PM,-0.5463485509058761,0.0,22.356902356902356
,4189.0,900.0,3307.0,861.0,2202.0,2717.0,1838.0,2025-08-20 18:35:39,68.0,,-0.0761095922531676,-2.38832202988119,0.0551746749937612,2025/08/20 06:35:57 PM,-0.6848327848577213,22.68041229248047,19.79206777050442
,4186.0,900.0,3309.0,860.0,2207.0,2717.0,1842.0,2025-08-20 18:35:40,68.0,,-0.0761554536401671,-2.38837557689301,0.0552843586218081,2025/08/20 06:36:07 PM,-0.8054356988132112,24.982650756835938,23.434410048489646
,4184.0,898.0,3305.0,860.0,2197.0,2690.0,1843.0,2025-08-20 18:35:41,68.0,,-0.0759011003677675,-2.38827827878539,0.0553358315367185,2025/08/20 06:36:17 PM,-0.9090967237868224,25.245441436767575,22.758663213713163
,4179.0,901.0,3307.0,862.0,2203.0,2691.0,1840.0,2025-08-20 18:35:42,67.0,,-0.0759256047343873,-2.38777164847956,0.0554413765498819,2025/08/20 06:36:27 PM,-0.9972704316072079,25.641025543212887,22.564282123105635
,4178.0,896.0,3303.0,858.0,2198.0,2708.0,1846.0,2025-08-20 18:35:43,67.0,,-0.0758494279113404,-2.38783983439301,0.0554423459747274,2025/08/20 06:36:37 PM,-1.071681630252692,23.023792266845703,23.348285855222603
,4173.0,895.0,3304.0,858.0,2193.0,2714.0,1831.0,2025-08-20 18:35:44,67.0,,-0.0758859673953908,-2.38843034406552,0.0553656737205754,2025/08/20 06:36:47 PM,-1.1340879608014371,23.19044303894043,22.646884911035844
,4171.0,897.0,3299.0,858.0,2190.0,2727.0,1844.0,2025-08-20 18:35:45,67.0,,-0.076129624876477,-2.38833746545562,0.0554025063797124,2025/08/20 06:36:57 PM,-1.1860709229542705,22.853185653686523,22.819468267581478
,4168.0,894.0,3298.0,855.0,2185.0,2721.0,1851.0,2025-08-20 18:35:46,68.0,,-0.0759304708019502,-2.38818179611132,0.0554385259308219,2025/08/20 06:37:07 PM,-1.228872733798148,22.94853973388672,23.00660256185862
,4167.0,892.0,3300.0,855.0,2175.0,2734.0,1866.0,2025-08-20 18:35:47,69.0,,-0.076163986150689,-2.38882787205037,0.0552948856967,2025/08/20 06:37:17 PM,-1.2632911686134496,22.805805206298828,24.127250900360135
,4161.0,894.0,3297.0,858.0,2165.0,2738.0,1865.0,2025-08-20 18:35:48,70.0,,-0.0763582340727616,-2.38934757869437,0.0550933729640568,2025/08/20 06:37:27 PM,-1.2896377979475129,23.305084228515625,22.64510323903572
,4160.0,891.0,3297.0,858.0,2180.0,2736.0,1866.0,2025-08-20 18:35:49,71.0,,-0.076459176791321,-2.39011407956102,0.0552777496564126,2025/08/20 06:37:37 PM,-1.3077574635220819,23.895727157592773,23.457139265962798
,4156.0,890.0,3294.0,855.0,2187.0,2733.0,1856.0,2025-08-20 18:35:50,72.0,,-0.0765366095413883,-2.39038943418989,0.05507005083805,2025/08/20 06:37:47 PM,-1.3170995908916119,23.47083854675293,25.54964539007098
,4155.0,888.0,3293.0,852.0,2188.0,2722.0,1878.0,2025-08-20 18:35:51,73.0,,-0.0765854766351711,-2.39071395774458,0.0547777233377605,2025/08/20 06:37:57 PM,-1.3168264793301065,24.016010284423828,23.929608127721306
,4150.0,889.0,3291.0,851.0,2188.0,2730.0,1879.0,2025-08-20 18:35:52,73.0,,-0.0768063668426252,-2.39100205865927,0.0546925165947825,2025/08/20 06:38:07 PM,-1.305941138234441,24.52316093444824,23.2472757542125
,4150.0,888.0,3293.0,853.0,2187.0,2739.0,1856.0,2025-08-20 18:35:53,74.0,,-0.0768701152335656,-2.39100110291953,0.0548285864196775,2025/08/20 06:38:17 PM,-1.283417670764614,24.17582321166992,24.372448979591855
,4150.0,890.0,3291.0,852.0,2169.0,2737.0,1861.0,2025-08-20 18:35:54,73.0,,-0.0769998019930546,-2.39138358580874,0.0547277321395522,2025/08/20 06:38:27 PM,-1.2483197942391446,23.655914306640625,22.37484737484736
,4151.0,888.0,3294.0,855.0,2171.0,2731.0,1861.0,2025-08-20 18:35:55,73.0,,-0.0769369035066195,-2.39208669829974,0.0545073474992611,,-1.1998966949222143,,
,4145.0,889.0,3290.0,852.0,2168.0,2763.0,1865.0,2025-08-20 18:35:56,74.0,,-0.0771571426933352,-2.39219038049842,0.0545507271441496,,-1.1376493018210247,,
,4149.0,886.0,3290.0,851.0,2175.0,2739.0,1844.0,2025-08-20 18:35:57,74.0,,-0.0772617826714989,-2.393022342748,0.0545989125092521,,-1.061364066517236,,
,4148.0,888.0,3290.0,851.0,2181.0,2706.0,1864.0,2025-08-20 18:35:58,75.0,,-0.0773251133671098,-2.392802129693,0.0542218262222652,,-0.9711155574432478,,
,4147.0,887.0,3291.0,853.0,2181.0,2692.0,1850.0,2025-08-20 18:35:59,76.0,,-0.0773696835757278,-2.39281915778667,0.0542548807486585,,-0.8672435621214181,,
,4146.0,888.0,3291.0,854.0,2168.0,2692.0,1839.0,2025-08-20 18:36:00,77.0,,-0.0773941509319912,-2.3928002406838,0.0544450436856705,,-0.7503145092282318,,
,4146.0,887.0,3290.0,852.0,2185.0,2704.0,1848.0,2025-08-20 18:36:01,78.0,,-0.0774089460768917,-2.39334846061139,0.0543425168035509,,-0.6210801096828826,,
,4148.0,889.0,3292.0,850.0,2184.0,2725.0,1861.0,2025-08-20 18:36:02,78.0,,-0.0773756808759598,-2.39291966892783,0.0543275294868311,,-0.480447252422269,,
,4149.0,889.0,3292.0,853.0,2180.0,2715.0,1888.0,2025-08-20 18:36:03,78.0,,-0.0773637303559152,-2.39251895460395,0.0543438064093439,,-0.3294715903272938,,
,4148.0,886.0,3290.0,853.0,2184.0,2709.0,1887.0,2025-08-20 18:36:04,77.0,,-0.0773063796982717,-2.39258161197563,0.0544927475288712,,-0.16938266981758526,,
,4150.0,889.0,3291.0,853.0,2181.0,2698.0,1872.0,2025-08-20 18:36:05,76.0,,-0.07732690902953,-2.39241459700443,0.0543807927970181,,-0.0016414877028895316,,
,4151.0,889.0,3290.0,853.0,2175.0,2699.0,1874.0,2025-08-20 18:36:06,75.0,,-0.0772556157358012,-2.39246287641492,0.0543864737348286,,0.17197665720858302,,
,4148.0,887.0,3293.0,855.0,2172.0,2706.0,1866.0,2025-08-20 18:36:07,75.0,,-0.077313012819728,-2.39244215936292,0.0543906901891543,,0.34928853506639435,,
,4149.0,887.0,3294.0,853.0,2172.0,2724.0,1868.0,2025-08-20 18:36:08,74.0,,-0.0773038912741626,-2.3926293854014,0.0546170173078076,,0.5276182836343326,,
,4146.0,887.0,3291.0,852.0,2174.0,2716.0,1863.0,2025-08-20 18:36:09,74.0,,-0.0773551722136467,-2.39205888225537,0.0546064253845896,,0.7037432398279841,,
,4147.0,885.0,3291.0,853.0,2196.0,2729.0,1874.0,2025-08-20 18:36:10,74.0,,-0.0771894410284682,-2.39222210981902,0.054550308689096,,0.8738901502215843,,
,4148.0,885.0,3292.0,851.0,2196.0,2720.0,1851.0,2025-08-20 18:36:11,73.0,,-0.0771857668963423,-2.39236384943829,0.0544218846026605,,1.0337965427303857,,
,4148.0,889.0,3293.0,854.0,2187.0,2726.0,1847.0,2025-08-20 18:36:12,73.0,,-0.0772705700082812,-2.39249615631742,0.0546493286215594,,1.178844514839917,,
,4146.0,887.0,3290.0,851.0,2169.0,2729.0,1847.0,2025-08-20 18:36:13,73.0,,-0.0772186324223245,-2.39229768199898,0.0544186181251785,,1.3042652220819504,,
,4149.0,888.0,3290.0,851.0,2176.0,2738.0,1863.0,2025-08-20 18:36:14,73.0,,-0.0772280825570741,-2.39214540702172,0.054814464178337,,1.4054029088911846,,
,4148.0,887.0,3290.0,854.0,2180.0,2725.0,1854.0,2025-08-20 18:36:15,72.0,,-0.0771793527420235,-2.39256331507736,0.0545729285178337,,1.4780183108279548,,
,4143.0,887.0,3289.0,852.0,2180.0,2716.0,1861.0,2025-08-20 18:36:16,73.0,,-0.0771969563167498,-2.39188556823929,0.0546740246954438,,1.518603627534401,,
,4145.0,887.0,3289.0,851.0,2166.0,2705.0,1853.0,2025-08-20 18:36:17,73.0,,-0.0771473983902628,-2.39154748606061,0.0543077517957693,,1.524676155795981,,
,4144.0,884.0,3288.0,849.0,2174.0,2725.0,1870.0,2025-08-20 18:36:18,73.0,,-0.0770143158953892,-2.39213422359992,0.0546121032681431,,1.495016333883931,,
,4144.0,886.0,3291.0,852.0,2171.0,2717.0,1870.0,2025-08-20 18:36:19,73.0,,-0.0772949248840731,-2.39199683407838,0.0545458036894143,,1.4298194216169466,,
,4142.0,888.0,3287.0,852.0,2177.0,2727.0,1866.0,2025-08-20 18:36:20,73.0,,-0.0770171429506935,-2.39197808753403,0.0547265164226592,,1.3307386076806529,,
,4142.0,887.0,3289.0,854.0,2179.0,2736.0,1865.0,2025-08-20 18:36:21,73.0,,-0.0769999072176924,-2.39204397022106,0.0545623602220534,,1.2008100616234776,,
,4141.0,886.0,3290.0,849.0,2164.0,2710.0,1867.0,2025-08-20 18:36:22,73.0,,-0.0769836104535408,-2.39203032166647,0.0544588349870193,,1.0442652208992815,,
,4142.0,886.0,3291.0,852.0,2187.0,2727.0,1862.0,2025-08-20 18:36:23,72.0,,-0.0770676664020712,-2.39219025386354,0.0544631489450819,,0.866249740518317,,
,4141.0,887.0,3287.0,852.0,2172.0,2710.0,1854.0,2025-08-20 18:36:24,72.0,,-0.0771820768094325,-2.3921767777774,0.0545818131102479,,0.6724795600654687,,
,4141.0,887.0,3288.0,850.0,2176.0,2708.0,1860.0,2025-08-20 18:36:25,71.0,,-0.0772483618334319,-2.39229871972533,0.0544290207311162,,0.46887074317110383,,
,4141.0,884.0,3287.0,851.0,2171.0,2699.0,1872.0,2025-08-20 18:36:26,71.0,,-0.0771848774195787,-2.39267711996842,0.0544603777001653,,0.26118042930095897,,
,4138.0,885.0,3288.0,849.0,2171.0,2704.0,1861.0,2025-08-20 18:36:27,70.0,,-0.0772079322951662,-2.39252122594088,0.0546288241126314,,0.054691853430356235,,
,4142.0,887.0,3288.0,850.0,2180.0,2732.0,1865.0,2025-08-20 18:36:28,70.0,,-0.0773890762120413,-2.39229513793048,0.0544740516363732,,-0.14603162013036383,,
,4143.0,886.0,3289.0,851.0,2168.0,2740.0,1861.0,2025-08-20 18:36:29,70.0,,-0.0772475174144354,-2.39267214417534,0.0542429209813168,,-0.33730819586897115,,
,4145.0,886.0,3288.0,850.0,2181.0,2741.0,1858.0,2025-08-20 18:36:30,71.0,,-0.0771964738569398,-2.39226152450192,0.0544912537347642,,-0.5164094422090619,,
,4143.0,884.0,3288.0,848.0,2177.0,2695.0,1876.0,2025-08-20 18:36:31,71.0,,-0.0771524853825944,-2.39219192874203,0.0543166320923605,,-0.6815450027249257,,
,4143.0,887.0,3287.0,850.0,2179.0,2729.0,1869.0,2025-08-20 18:36:32,72.0,,-0.0773011706097722,-2.39231382129616,0.0544666209223887,,-0.831769946270019,,
,4144.0,886.0,3290.0,852.0,2173.0,2732.0,1852.0,2025-08-20 18:36:33,72.0,,-0.0771800856410462,-2.39222578152479,0.0543445765364678,,-0.9668298638868488,,
,4143.0,886.0,3290.0,851.0,2170.0,2738.0,1853.0,2025-08-20 18:36:34,72.0,,-0.0774890438455524,-2.39238956415919,0.0542721080067476,,-1.0869628058633414,,
,4142.0,885.0,3287.0,849.0,2171.0,2721.0,1859.0,2025-08-20 18:36:35,72.0,,-0.0774001559025292,-2.39252352056572,0.0545454627781108,,-1.1926797578122614,,
,4146.0,887.0,3289.0,851.0,2164.0,2738.0,1863.0,2025-08-20 18:36:36,72.0,,-0.0774556952779885,-2.39246815306549,0.054443817161263,,-1.284546450580467,,
,4145.0,889.0,3289.0,850.0,2164.0,2714.0,1877.0,2025-08-20 18:36:37,73.0,,-0.0774225878839232,-2.39241090747344,0.0542272426894172,,-1.3629886372964986,,
,4147.0,889.0,3294.0,854.0,2171.0,2704.0,1879.0,2025-08-20 18:36:38,73.0,,-0.077447466573632,-2.39246106291779,0.0544160382737807,,-1.4281402888996442,,
,4148.0,888.0,3289.0,852.0,2181.0,2698.0,1868.0,2025-08-20 18:36:39,73.0,,-0.0773459371668964,-2.39222277536568,0.0543891854789869,,-1.4797493598571088,,
,4148.0,888.0,3290.0,850.0,2162.0,2717.0,1884.0,2025-08-20 18:36:40,73.0,,-0.0773372025839495,-2.39201421198198,0.0543737281097518,,-1.517149133732943,,
,4147.0,888.0,3290.0,852.0,2167.0,2733.0,1867.0,2025-08-20 18:36:41,73.0,,-0.0769888085014591,-2.39226542157171,0.0544732443066156,,-1.539295460782466,,
,4148.0,889.0,3290.0,850.0,2176.0,2723.0,1881.0,2025-08-20 18:36:42,73.0,,-0.076997578286219,-2.3920634709321,0.0544781834790917,,-1.5448627012884695,,
,4150.0,890.0,3291.0,853.0,2172.0,2712.0,1883.0,2025-08-20 18:36:43,73.0,,-0.0770191782515794,-2.39167063579683,0.0544771613022316,,-1.5323852399955797,,
,4151.0,887.0,3290.0,851.0,2186.0,2734.0,1879.0,2025-08-20 18:36:44,73.0,,-0.0770148778573118,-2.39175971330358,0.0546075806688779,,-1.5004278783189091,,
,4150.0,889.0,3291.0,851.0,2191.0,2733.0,1873.0,2025-08-20 18:36:45,73.0,,-0.0769863565154272,-2.39166336003234,0.0545074791815454,,-1.447767236120521,,
,4152.0,888.0,3291.0,852.0,2185.0,2715.0,1881.0,2025-08-20 18:36:46,73.0,,-0.077006035632285,-2.39171549552028,0.054425582750584,,-1.3735669528238437,,
,4155.0,889.0,3293.0,853.0,2169.0,2713.0,1879.0,2025-08-20 18:36:47,73.0,,-0.0770653845922881,-2.39189128545558,0.0543992453208399,,-1.2775314501588115,,
,4153.0,889.0,3290.0,852.0,2161.0,2713.0,1867.0,2025-08-20 18:36:48,72.0,,-0.0769448077306081,-2.39168924120983,0.0544939468645277,,-1.1600260670808515,,
,4155.0,892.0,3294.0,852.0,2176.0,2715.0,1882.0,2025-08-20 18:36:49,72.0,,-0.0769697297734514,-2.39193436648947,0.0545217402874269,,-1.0221553177193028,,
,4160.0,891.0,3294.0,853.0,2185.0,2729.0,1869.0,2025-08-20 18:36:50,73.0,,-0.0768921513323468,-2.39182301371269,0.0546786200195747,,-0.8657953945935312,,
,4156.0,892.0,3294.0,855.0,2180.0,2723.0,1869.0,2025-08-20 18:36:51,73.0,,-0.0769387148059967,-2.39183566377487,0.054460023914537,,-0.6935810998221368,,
,4157.0,891.0,3292.0,851.0,2159.0,2725.0,1854.0,2025-08-20 18:36:52,73.0,,-0.0767552991623119,-2.39184804223213,0.0543849905426537,,-0.5088504583079896,,
,4158.0,891.0,3293.0,852.0,2179.0,2720.0,1874.0,2025-08-20 18:36:53,73.0,,-0.0768745307749515,-2.3919174788371,0.0543835735250417,,-0.3155520066419011,,
,4163.0,892.0,3296.0,853.0,2162.0,2723.0,1858.0,2025-08-20 18:36:54,73.0,,-0.0767691714721602,-2.39156415732054,0.0544738279437898,,-0.11812012705027633,,
,4162.0,894.0,3295.0,853.0,2162.0,2719.0,1871.0,2025-08-20 18:36:55,74.0,,-0.0767400684060359,-2.39217491696852,0.0545898607385185,,0.07867698288941893,,
,4163.0,895.0,3296.0,856.0,2172.0,2720.0,1882.0,2025-08-20 18:36:56,74.0,,-0.0768663687885923,-2.39193721504491,0.054516455174942,,0.2699134974426825,,
,4163.0,892.0,3297.0,853.0,2180.0,2724.0,1877.0,2025-08-20 18:36:57,74.0,,-0.076702916018214,-2.39180204807811,0.0544959595248069,,0.45070413835643297,,
,4164.0,891.0,3297.0,854.0,2172.0,2713.0,1872.0,2025-08-20 18:36:58,75.0,,-0.0767828489730999,-2.39148875001426,0.0545509233685056,,0.616421760434724,,
,4166.0,893.0,3299.0,855.0,2172.0,2710.0,1884.0,2025-08-20 18:36:59,75.0,,-0.076688653509898,-2.39179511001187,0.0545406974868403,,0.7629291881184267,,
,4169.0,893.0,3297.0,855.0,2169.0,2706.0,1879.0,2025-08-20 18:37:00,75.0,,-0.0766949125853703,-2.39150507431234,0.0543502691948224,,0.886815561299734,,
,4167.0,893.0,3298.0,854.0,2172.0,2724.0,1862.0,2025-08-20 18:37:01,75.0,,-0.0766523985267904,-2.39162173255977,0.0546151781410587,,0.9856219844932298,,
,4169.0,893.0,3300.0,855.0,2168.0,2729.0,1850.0,2025-08-20 18:37:02,75.0,,-0.0766343536950901,-2.39133295990159,0.0546845269054219,,1.0580365435684473,,
,4170.0,897.0,3303.0,856.0,2179.0,2716.0,1867.0,2025-08-20 18:37:03,75.0,,-0.0768274717803017,-2.39124894020433,0.0545731555777372,,1.1040362577082752,,
,4169.0,894.0,3300.0,854.0,2181.0,2730.0,1858.0,2025-08-20 18:37:04,75.0,,-0.0764978935729348,-2.39184637337978,0.0544693282331833,,1.1249542735551796,,
,4172.0,894.0,3299.0,857.0,2171.0,2740.0,1863.0,2025-08-20 18:37:05,75.0,,-0.0765832475484658,-2.39143837086422,0.0545548764284722,,1.1234549923253296,,
,4172.0,895.0,3297.0,853.0,2167.0,2715.0,1876.0,2025-08-20 18:37:06,75.0,,-0.0765215274458232,-2.39100346472355,0.0546231808204973,,1.103407680839112,,
,4176.0,898.0,3300.0,855.0,2165.0,2722.0,1864.0,2025-08-20 18:37:07,75.0,,-0.0765333282222219,-2.39097100462471,0.0545312783550236,,1.069659648200805,,
,4177.0,898.0,3301.0,856.0,2170.0,2701.0,1862.0,2025-08-20 18:37:08,74.0,,-0.0765048893812448,-2.39063368529568,0.0547475141910481,,1.0277216960314455,,
,4175.0,895.0,3301.0,856.0,2166.0,2697.0,1866.0,2025-08-20 18:37:09,74.0,,-0.0764646870085369,-2.39119909613474,0.0547649532508443,,0.9833890684092601,,
,4176.0,896.0,3301.0,855.0,2174.0,2700.0,1876.0,2025-08-20 18:37:10,74.0,,-0.0764728982941331,-2.39107020286054,0.054747147655832,,0.9423284262757982,,
,4180.0,897.0,3302.0,856.0,2170.0,2731.0,1867.0,2025-08-20 18:37:11,74.0,,-0.0766346292681706,-2.39094324113949,0.0545723250269902,,0.9096644133382905,,
,4180.0,897.0,3303.0,858.0,2168.0,2724.0,1844.0,2025-08-20 18:37:12,74.0,,-0.0765175506916883,-2.39112616282155,0.0549066120828567,,0.8895986308428785,,
,4182.0,899.0,3303.0,858.0,2168.0,2715.0,1856.0,2025-08-20 18:37:13,74.0,,-0.0764663389690049,-2.39097299506863,0.0546804525256799,,0.8850906253244305,,
,4182.0,900.0,3303.0,857.0,2177.0,2730.0,1858.0,2025-08-20 18:37:14,75.0,,-0.0764593214067481,-2.39092788277815,0.054577082731771,,0.8976258190586889,,
,4183.0,897.0,3302.0,854.0,2179.0,2746.0,1874.0,2025-08-20 18:37:15,75.0,,-0.0765059353013825,-2.39104545862357,0.0546077503147026,,0.9270892908530335,,
,4185.0,899.0,3304.0,858.0,2188.0,2731.0,1881.0,2025-08-20 18:37:16,75.0,,-0.07644874231104,-2.39162802293284,0.0546964902401573,,0.9717567085730412,,
,4185.0,899.0,3305.0,854.0,2180.0,2734.0,1893.0,2025-08-20 18:37:17,75.0,,-0.0763655615637354,-2.39127889485678,0.0547884254818003,,1.0284047655840418,,
,4189.0,900.0,3305.0,858.0,2170.0,2730.0,1884.0,2025-08-20 18:37:18,74.0,,-0.0763761523325622,-2.39115987066649,0.0548210231293564,,1.0925340750468393,,
,4188.0,899.0,3307.0,858.0,2180.0,2722.0,1882.0,2025-08-20 18:37:19,74.0,,-0.0763773614007514,-2.39109569661966,0.0548051848921641,,1.1586886949466353,,
,4189.0,899.0,3309.0,857.0,2175.0,2734.0,1883.0,2025-08-20 18:37:20,74.0,,-0.0763168822817356,-2.39127018197318,0.0549447783330007,,1.2208489963240343,,
,4191.0,901.0,3308.0,858.0,2166.0,2707.0,1881.0,2025-08-20 18:37:21,74.0,,-0.0762586111955263,-2.39072096999886,0.0546744755541592,,1.2728686881490991,,
,4194.0,902.0,3308.0,860.0,2161.0,2700.0,1888.0,2025-08-20 18:37:22,74.0,,-0.0762186957217122,-2.39100656364422,0.0544734345274672,,1.3089226136318701,,
,4192.0,899.0,3305.0,855.0,2166.0,2702.0,1880.0,2025-08-20 18:37:23,75.0,,-0.0762643053607528,-2.39080124696375,0.0548943490326044,,1.3239298609546795,,
,4195.0,903.0,3309.0,858.0,2170.0,2705.0,1886.0,2025-08-20 18:37:24,75.0,,-0.0761413853403807,-2.39059709941467,0.0546234029085186,,1.313917477814152,,
,4197.0,901.0,3309.0,857.0,2160.0,2709.0,1885.0,2025-08-20 18:37:25,76.0,,-0.0761804123891934,-2.39072263146055,0.0547166553523883,,1.2762941773455685,,
,4198.0,902.0,3312.0,860.0,2163.0,2719.0,1879.0,2025-08-20 18:37:26,76.0,,-0.0762159037401389,-2.39079785003806,0.0549603341175536,,1.210010823694822,,
,4199.0,901.0,3309.0,858.0,2171.0,2743.0,1890.0,2025-08-20 18:37:27,76.0,,-0.0759585843898781,-2.39049459352847,0.0549680077043536,,1.1155945293078717,,
,4203.0,905.0,3311.0,860.0,2171.0,2733.0,1892.0,2025-08-20 18:37:28,76.0,,-0.0759855508823912,-2.39041136061844,0.0548926435093632,,0.9950549711760284,,
,4203.0,903.0,3312.0,859.0,2163.0,2729.0,1890.0,2025-08-20 18:37:29,76.0,,-0.0761243582971782,-2.3908270592337,0.0549205522169554,,0.8516740997355592,,
,4200.0,904.0,3313.0,861.0,2159.0,2737.0,1871.0,2025-08-20 18:37:30,77.0,,-0.075930949466446,-2.390467195753,0.0549037378004597,,0.6897025479031086,,
,4207.0,904.0,3314.0,863.0,2169.0,2751.0,1859.0,2025-08-20 18:37:31,77.0,,-0.0759199502744194,-2.39051559295106,0.0549774763230002,,0.5139959876264056,,
,4203.0,904.0,3314.0,860.0,2173.0,2739.0,1861.0,2025-08-20 18:37:32,78.0,,-0.0759282967661901,-2.39042603960101,0.0550118543589913,,0.3296305511581155,,
,4202.0,904.0,3313.0,863.0,2164.0,2743.0,1875.0,2025-08-20 18:37:33,78.0,,-0.075902468752431,-2.39039147982316,0.0549902222404142,,0.14153713881973287,,
,4200.0,902.0,3312.0,859.0,2164.0,2734.0,1887.0,2025-08-20 18:37:34,79.0,,-0.0761684748206281,-2.3903113884211,0.0550836494571691,,-0.04580982652935935,,
,4198.0,901.0,3311.0,859.0,2161.0,2725.0,1874.0,2025-08-20 18:37:35,81.0,,-0.0760677991031516,-2.3896428801166,0.0551981900335428,,-0.2286216865816972,,
,4190.0,898.0,3309.0,856.0,2168.0,2717.0,1887.0,2025-08-20 18:37:36,82.0,,-0.0759999922593518,-2.38983952916675,0.0552704520424543,,-0.40392578764856574,,
,4191.0,899.0,3310.0,857.0,2166.0,2709.0,1890.0,2025-08-20 18:37:37,82.0,,-0.0761265508114712,-2.38984727525501,0.0549659218664834,,-0.5695911945385963,,
,4184.0,898.0,3305.0,854.0,2169.0,2730.0,1872.0,2025-08-20 18:37:38,82.0,,-0.0760726610411376,-2.39013565084153,0.0549750985812185,,-0.7242561452095418,,
,4184.0,895.0,3304.0,857.0,2168.0,2733.0,1861.0,2025-08-20 18:37:39,81.0,,-0.075765039592248,-2.38991983889778,0.0551741771529994,,-0.8671742460498183,,
,4177.0,894.0,3301.0,852.0,2177.0,2735.0,1866.0,2025-08-20 18:37:40,80.0,,-0.0760227107774783,-2.39038049860295,0.0551098822647125,,-0.9980048784253585,,
,4173.0,894.0,3299.0,853.0,2168.0,2739.0,1859.0,2025-08-20 18:37:41,79.0,,-0.076008468314411,-2.3904932257802,0.0548875558959884,,-1.1165783669335527,,
,4173.0,892.0,3299.0,852.0,2169.0,2744.0,1879.0,2025-08-20 18:37:42,78.0,,-0.0761631811393643,-2.39129026968835,0.0550604677999536,,-1.222667407362763,,
,4169.0,891.0,3299.0,853.0,2166.0,2760.0,1885.0,2025-08-20 18:37:43,77.0,,-0.0762997971299505,-2.39123203332494,0.054918395852937,,-1.3157929837291045,,
,4165.0,891.0,3295.0,849.0,2155.0,2742.0,1875.0,2025-08-20 18:37:44,76.0,,-0.0765753345564843,-2.39163954222117,0.0546876808631021,,-1.3950863077886624,,
2025-08-20 18:35:38,4162.0,889.0,3296.0,850.0,2163.0,2743.0,1864.0,2025-08-20 18:37:45,75.0,2025/08/20 06:35:38 PM,-0.0767195732106239,-2.392452067104,0.0546628392447679,,-1.4592197885201237,,
,4162.0,890.0,3298.0,852.0,2161.0,2732.0,1870.0,2025-08-20 18:37:46,75.0,,-0.0767905844289531,-2.3926575978358,0.0542730970171625,,-1.5064115414990193,,
,4161.0,889.0,3295.0,850.0,2170.0,2745.0,1877.0,2025-08-20 18:37:47,74.0,,-0.0769105302273363,-2.39294528134176,0.0545467045954794,,-1.5345007811552172,,
,4158.0,888.0,3295.0,852.0,2172.0,2751.0,1871.0,2025-08-20 18:37:48,74.0,,-0.0770468213005613,-2.39310016165351,0.0544716218718439,,-1.541085882932086,,
,4155.0,886.0,3294.0,849.0,2168.0,2719.0,1865.0,2025-08-20 18:37:49,74.0,,-0.0770816589366423,-2.3934114708469,0.0545289473860711,,-1.5237125057515244,,
,4156.0,887.0,3295.0,849.0,2185.0,2709.0,1867.0,2025-08-20 18:37:50,74.0,,-0.0771206717302882,-2.39366489298426,0.0542667572765184,,-1.4800954951302359,,
,4155.0,886.0,3292.0,851.0,2173.0,2724.0,1857.0,2025-08-20 18:37:51,74.0,,-0.0771383004076668,-2.39408324907903,0.054271443373892,,-1.4083554599676507,,
,4155.0,887.0,3293.0,851.0,2161.0,2726.0,1853.0,2025-08-20 18:37:52,74.0,,-0.077344298556705,-2.39383076255461,0.0543617895353282,,-1.3072495525155694,,
,4152.0,886.0,3287.0,849.0,2159.0,2722.0,1875.0,2025-08-20 18:37:53,74.0,,-0.0773605704868809,-2.39382307180721,0.0544601356548053,,-1.1763767632358106,,
,4154.0,887.0,3293.0,850.0,2158.0,2720.0,1890.0,2025-08-20 18:37:54,74.0,,-0.0774213650333721,-2.39422702049481,0.0541238176257412,,-1.0163411978656103,,
,4152.0,887.0,3292.0,849.0,2169.0,2709.0,1895.0,2025-08-20 18:37:55,73.0,,-0.077431994380605,-2.39401209036089,0.0542397014688614,,-0.8288617608725438,,
,4154.0,886.0,3290.0,850.0,2172.0,2703.0,1889.0,2025-08-20 18:37:56,73.0,,-0.0774918636341612,-2.39417535440242,0.0540562055083027,,-0.6168220983694911,,
,4153.0,886.0,3292.0,849.0,2175.0,2712.0,1887.0,2025-08-20 18:37:57,73.0,,-0.0774671320004531,-2.39422352319407,0.0541159095765106,,-0.3842590387484117,,
,4153.0,885.0,3291.0,848.0,2176.0,2735.0,1887.0,2025-08-20 18:37:58,74.0,,-0.0773999530438413,-2.39450711158688,0.0544077242457523,,-0.13629026313455542,,
,4152.0,886.0,3290.0,849.0,2169.0,2723.0,1891.0,2025-08-20 18:37:59,74.0,,-0.0774286200406422,-2.39453460096161,0.0543351165921289,,0.12101713322372613,,
,4152.0,889.0,3291.0,849.0,2167.0,2713.0,1898.0,2025-08-20 18:38:00,75.0,,-0.0774690704650954,-2.39365803812819,0.0541800973715577,,0.38083494202170254,,
,4150.0,886.0,3290.0,849.0,2158.0,2722.0,1881.0,2025-08-20 18:38:01,75.0,,-0.0774030472044276,-2.39348823316813,0.0543981552378819,,0.635815247478988,,
,4149.0,884.0,3289.0,847.0,2144.0,2720.0,1898.0,2025-08-20 18:38:02,75.0,,-0.077332426399722,-2.39349412509202,0.0542731629730431,,0.878378194417985,,
,4152.0,885.0,3288.0,849.0,2157.0,2733.0,1896.0,2025-08-20 18:38:03,75.0,,-0.0772663777979909,-2.39363033356188,0.0544669257953588,,1.1010352655787734,,
,4150.0,886.0,3291.0,848.0,2148.0,2739.0,1878.0,2025-08-20 18:38:04,74.0,,-0.0773669003930265,-2.39341915571148,0.05447581414418,,1.2967328006389118,,
,4151.0,885.0,3288.0,848.0,2148.0,2734.0,1870.0,2025-08-20 18:38:05,74.0,,-0.07720186872581,-2.39260688453444,0.0544381088352121,,1.4591965697618174,,
,4147.0,884.0,3289.0,846.0,2169.0,2727.0,1866.0,2025-08-20 18:38:06,73.0,,-0.077329902785248,-2.39325197313206,0.0544057775877771,,1.5832553571245223,,
,4148.0,884.0,3288.0,849.0,2167.0,2745.0,1883.0,2025-08-20 18:38:07,73.0,,-0.0772369573441029,-2.39284799072475,0.0544387651921926,,1.6651201284162258,,
,4149.0,886.0,3288.0,848.0,2159.0,2715.0,1877.0,2025-08-20 18:38:08,72.0,,-0.0771805665261574,-2.39282963108675,0.0547256695828131,,1.7025958629351232,,
,4146.0,886.0,3288.0,848.0,2161.0,2727.0,1874.0,2025-08-20 18:38:09,72.0,,-0.0772578319929717,-2.39257006386262,0.0544310158207343,,1.695205993338374,,
,4147.0,885.0,3286.0,848.0,2168.0,2744.0,1852.0,2025-08-20 18:38:10,72.0,,-0.0770376487447268,-2.39271922334885,0.0544670383131507,,1.6442149950005274,,
,4143.0,882.0,3287.0,844.0,2157.0,2735.0,1863.0,2025-08-20 18:38:11,73.0,,-0.0772169013534974,-2.3924105087295,0.054466060947834,,1.5525429705535614,,
,4147.0,883.0,3286.0,845.0,2171.0,2734.0,1882.0,2025-08-20 18:38:12,73.0,,-0.0771651486387397,-2.39288127018301,0.0543339797888232,,1.4245763033468846,,
,4143.0,882.0,3287.0,845.0,2179.0,2741.0,1887.0,2025-08-20 18:38:13,73.0,,-0.0773606661436439,-2.39245503407504,0.0543794392733895,,1.265889027881854,,
,4144.0,882.0,3285.0,846.0,2156.0,2740.0,1894.0,2025-08-20 18:38:14,73.0,,-0.0772378973301619,-2.39291175831302,0.0547147177098915,,1.0828985513818874,,
,4142.0,880.0,3286.0,844.0,2171.0,2737.0,1902.0,2025-08-20 18:38:15,72.0,,-0.0771765022000561,-2.39269411049166,0.054403338461445,,0.8824851875702588,,
,4144.0,885.0,3285.0,846.0,2176.0,2717.0,1899.0,2025-08-20 18:38:16,72.0,,-0.0772920218803912,-2.39255949306176,0.0542567084818622,,0.6716068976067213,,
,4141.0,882.0,3284.0,846.0,2174.0,2713.0,1886.0,2025-08-20 18:38:17,72.0,,-0.0775053308689455,-2.39257434581306,0.0545057055411664,,0.45693877874438255,,
,4140.0,883.0,3284.0,848.0,2167.0,2718.0,1882.0,2025-08-20 18:38:18,73.0,,-0.0775578396324347,-2.39271235466868,0.0543431527696937,,0.24456192303784502,,
,4141.0,884.0,3283.0,845.0,2157.0,2719.0,1876.0,2025-08-20 18:38:19,73.0,,-0.077467882628356,-2.39283934219691,0.0543038810167869,,0.03971940999424555,,
,4141.0,882.0,3282.0,845.0,2165.0,2740.0,1870.0,2025-08-20 18:38:20,73.0,,-0.0777486212690965,-2.39289405998723,0.0545731648813999,,-0.15335035797103563,,
,4141.0,881.0,3284.0,846.0,2168.0,2737.0,1874.0,2025-08-20 18:38:21,73.0,,-0.0775168195582393,-2.39296642624644,0.0540658117860732,,-0.3314999819147329,,
,4142.0,886.0,3283.0,846.0,2165.0,2727.0,1880.0,2025-08-20 18:38:22,73.0,,-0.0775304302717142,-2.39288781024408,0.0540737909942922,,-0.4926822859710922,,
,4138.0,882.0,3280.0,846.0,2161.0,2719.0,1872.0,2025-08-20 18:38:23,73.0,,-0.0775651295773117,-2.39298116164603,0.054294631613724,,-0.6358906319829599,,
,4140.0,881.0,3282.0,846.0,2164.0,2722.0,1859.0,2025-08-20 18:38:24,72.0,,-0.0776205319768504,-2.39304797683372,0.0543370505314043,,-0.7610422301277034,,
,4140.0,881.0,3283.0,847.0,2161.0,2735.0,1882.0,2025-08-20 18:38:25,72.0,,-0.0776175087362566,-2.39305954809685,0.0542070225199127,,-0.8688188711364788,,
,4139.0,882.0,3283.0,845.0,2158.0,2727.0,1889.0,2025-08-20 18:38:26,73.0,,-0.0776031083673936,-2.39321661354485,0.0542859987048245,,-0.9604809291406273,,
,4142.0,883.0,3285.0,845.0,2177.0,2713.0,1891.0,2025-08-20 18:38:27,73.0,,-0.0776849759858453,-2.3928423137106,0.0540120892815745,,-1.0376707800552283,,
,4142.0,882.0,3283.0,844.0,2165.0,2715.0,1902.0,2025-08-20 18:38:28,74.0,,-0.0776458209209919,-2.39280385869779,0.0542158735644069,,-1.1022208456970708,,
,4142.0,885.0,3285.0,844.0,2179.0,2735.0,1902.0,2025-08-20 18:38:29,75.0,,-0.0776613505174757,-2.39313911155508,0.0542005625213501,,-1.1559792232638084,,
,4142.0,884.0,3283.0,847.0,2167.0,2726.0,1879.0,2025-08-20 18:38:30,77.0,,-0.0776011627966432,-2.39272867488501,0.0541151129017949,,-1.20066234775804,,
,4143.0,884.0,3284.0,845.0,2173.0,2724.0,1886.0,2025-08-20 18:38:31,78.0,,-0.0776940603048942,-2.39301884189397,0.0542200360042935,,-1.2377397123055829,,
,4141.0,883.0,3282.0,844.0,2179.0,2734.0,1894.0,2025-08-20 18:38:32,79.0,,-0.0777286355839259,-2.39288910609794,0.0543052996464217,,-1.2683511306969077,,
,4145.0,883.0,3286.0,846.0,2166.0,2738.0,1890.0,2025-08-20 18:38:33,80.0,,-0.0778164024992752,-2.39289999352629,0.0542853231905501,,-1.2932534979310035,,
,4146.0,886.0,3285.0,847.0,2165.0,2731.0,1884.0,2025-08-20 18:38:34,81.0,,-0.0778150327410364,-2.39285033763112,0.0542409722837988,,-1.3127924260629662,,
,4147.0,883.0,3286.0,849.0,2158.0,2725.0,1871.0,2025-08-20 18:38:35,81.0,,-0.0778989189367809,-2.39268570539645,0.0543174604711046,,-1.326894624596836,,
,4146.0,884.0,3282.0,845.0,2156.0,2713.0,1877.0,2025-08-20 18:38:36,82.0,,-0.0778486817057503,-2.39287933512968,0.0541134015101854,,-1.3350786486974258,,
,4146.0,885.0,3288.0,847.0,2166.0,2718.0,1898.0,,,,-0.0777767611630292,-2.39280326403556,0.0541646984038126,,-1.3364834566716308,,
,4151.0,887.0,3288.0,848.0,2166.0,2707.0,1887.0,,,,-0.0776913224496573,-2.39264553920026,0.0540433960369245,,-1.3299152036294106,,
,4150.0,886.0,3288.0,846.0,2162.0,2711.0,1857.0,,,,-0.077579696057179,-2.39256401152573,0.0546229615662122,,-1.3139125680237174,,
,4147.0,889.0,3287.0,847.0,2145.0,2727.0,1863.0,,,,-0.0777773657955042,-2.39281356252767,0.0541065893153394,,-1.2868298579642152,,
,4147.0,885.0,3286.0,848.0,2157.0,2727.0,1874.0,,,,-0.0776473691538791,-2.39255254892306,0.0543208774805303,,-1.2469355721203592,,
,4153.0,887.0,3289.0,847.0,2179.0,2716.0,1878.0,,,,-0.0777868382373858,-2.39259394388309,0.0540534113420624,,-1.1925224437545217,,
,4155.0,887.0,3289.0,848.0,2172.0,2713.0,1866.0,,,,-0.0778127263344319,-2.39225980915678,0.0542960555692793,,-1.1220237393984207,,
,4152.0,887.0,3287.0,846.0,2163.0,2717.0,1874.0,,,,-0.0777737826238264,-2.39268750851447,0.0543476265400271,,-1.0341301174540027,,
,4153.0,886.0,3287.0,846.0,2155.0,2707.0,1883.0,,,,-0.0777174172307284,-2.39229187663897,0.0542137212630494,,-0.9279018498066195,,
,4153.0,888.0,3288.0,848.0,2143.0,2715.0,1878.0,,,,-0.0775816518837261,-2.39267419099872,0.0542581903987247,,-0.8028724585471857,,
,4155.0,889.0,3290.0,847.0,2162.0,2748.0,1878.0,,,,-0.0776578289805782,-2.39258587459249,0.053991812441557,,-0.6591412051933195,,
,4158.0,889.0,3294.0,848.0,2171.0,2751.0,1881.0,,,,-0.0777357987463228,-2.39236252918208,0.0543868364225035,,-0.4974526154651851,,
,4158.0,887.0,3289.0,849.0,2171.0,2719.0,1856.0,,,,-0.0776477408530595,-2.39249560085656,0.0542665898581676,,-0.3192608562356819,,
,4159.0,888.0,3290.0,846.0,2170.0,2725.0,1872.0,,,,-0.0774707564182621,-2.39241036847487,0.0541342693678767,,-0.12677545796443912,,
,4158.0,890.0,3291.0,848.0,2161.0,2729.0,1874.0,,,,-0.0774208690875655,-2.39224085761504,0.0541517832678771,,0.07701680702971059,,
,4160.0,894.0,3293.0,851.0,2160.0,2728.0,1862.0,,,,-0.0774579400703717,-2.39247957436176,0.0544814772111286,,0.2883605534620693,,
,4162.0,889.0,3290.0,849.0,2168.0,2736.0,1888.0,,,,-0.0775118801588722,-2.39242509221614,0.0543913174161097,,0.5027784861677305,,
,4160.0,890.0,3291.0,849.0,2166.0,2743.0,1883.0,,,,-0.0774747327923026,-2.39217265016729,0.0543656031133498,,0.7151637353871217,,
,4162.0,890.0,3291.0,850.0,2163.0,2750.0,1862.0,,,,-0.0774899860014018,-2.39228212537213,0.0542144445313789,,0.9199239758138072,,
,4164.0,890.0,3292.0,849.0,2176.0,2724.0,1864.0,,,,-0.07747170608957,-2.39229887732777,0.0542810685467955,,1.111180179304347,,
,4165.0,891.0,3292.0,849.0,2165.0,2718.0,1883.0,,,,-0.0774012626132715,-2.39187023524514,0.0541235989639741,,1.2830174445742073,,
,4162.0,891.0,3293.0,848.0,2166.0,2726.0,1870.0,,,,-0.0773527407262174,-2.39218832647752,0.0544385530488154,,1.4297781852023796,,
,4165.0,892.0,3295.0,851.0,2169.0,2722.0,1878.0,,,,-0.0773250930118438,-2.39244173668494,0.0542992360382519,,1.546380029507733,,
,4168.0,894.0,3295.0,851.0,2159.0,2736.0,1871.0,,,,-0.0774240854628372,-2.39209781098169,0.0543728915595596,,1.6286335440502397,,
,4171.0,894.0,3296.0,850.0,2159.0,2737.0,1875.0,,,,-0.0772863854230067,-2.39162366945133,0.0543574214857857,,1.6735299180219494,,
,4167.0,892.0,3293.0,849.0,2159.0,2740.0,1869.0,,,,-0.0773897379761303,-2.39185667758538,0.0545153582423696,,1.6794674555261395,,
,4170.0,892.0,3297.0,848.0,2164.0,2738.0,1889.0,,,,-0.077280558035343,-2.39212357781805,0.0543151304341301,,1.6463891292445538,,
,4172.0,894.0,3298.0,852.0,2174.0,2729.0,1887.0,,,,-0.0773514575745521,-2.3921276233166,0.0543476695663293,,1.5758117925811959,,
,4173.0,894.0,3298.0,851.0,2173.0,2724.0,1877.0,,,,-0.0772576125470256,-2.39221899080162,0.0543988772891599,,1.4707399216511807,,
,4174.0,894.0,3297.0,850.0,2182.0,2733.0,1876.0,,,,-0.0772301626465841,-2.39182013567923,0.0544010940990399,,1.33547062878942,,
,4175.0,896.0,3299.0,851.0,2167.0,2768.0,1877.0,,,,-0.0773567268048067,-2.39160164447436,0.0543934923662854,,1.1753092645403143,,
,4177.0,898.0,3300.0,852.0,2170.0,2738.0,1877.0,,,,-0.0773157746608339,-2.39170447851938,0.0543917720810703,,0.9962240025322684,,
,4180.0,897.0,3301.0,854.0,2177.0,2761.0,1862.0,,,,-0.0774104543529513,-2.3918548425459,0.0542950361377016,,0.8044725759948076,,
,4180.0,897.0,3302.0,853.0,2179.0,2749.0,1859.0,,,,-0.0772469228729306,-2.39165839126735,0.0542543177004224,,0.6062350784048062,,
,4179.0,895.0,3297.0,851.0,2169.0,2744.0,1866.0,,,,-0.0772284567713187,-2.39172445632563,0.0540493759617199,,0.4072840098774652,,
,4182.0,898.0,3299.0,852.0,2171.0,2736.0,1857.0,,,,-0.0772610107972892,-2.39201965054394,0.0542690349552138,,0.21271698406944223,,
,4183.0,899.0,3303.0,856.0,2179.0,2739.0,1849.0,,,,-0.0770769084314362,-2.39158370817052,0.0542860836819255,,0.026769223117853964,,
,4183.0,898.0,3303.0,852.0,2176.0,2737.0,1855.0,,,,-0.0773095527273887,-2.39180826906848,0.0543907787375765,,-0.14728692334230956,,
,4184.0,897.0,3305.0,852.0,2169.0,2711.0,1861.0,,,,-0.0773891919183688,-2.39146277265151,0.0545306114700942,,-0.30715833392873987,,
,4186.0,897.0,3301.0,851.0,2164.0,2709.0,1863.0,,,,-0.0771317447508231,-2.39114349389408,0.0542216472275452,,-0.45147507310313595,,
,4190.0,898.0,3305.0,853.0,2167.0,2703.0,1866.0,,,,-0.0771180810152512,-2.39140701803862,0.0542694658364811,,-0.5796798585643351,,
,4189.0,898.0,3305.0,853.0,2174.0,2700.0,1873.0,,,,-0.0770875987831506,-2.39099882005465,0.0544417367941069,,-0.6918837072872832,,
,4190.0,899.0,3306.0,855.0,2179.0,2731.0,1869.0,,,,-0.0772142719929774,-2.3910345817628,0.0543608877741697,,-0.7887077135490907,,
,4192.0,899.0,3305.0,854.0,2171.0,2711.0,1876.0,,,,-0.0771381626171184,-2.39074098981566,0.054600859374021,,-0.8711273051384892,,
,4193.0,898.0,3304.0,857.0,2162.0,2721.0,1859.0,,,,-0.076973746061235,-2.39092617893459,0.0544592544377962,,-0.9403299193383119,,
,4195.0,902.0,3308.0,857.0,2165.0,2728.0,1852.0,,,,-0.0770393336381944,-2.39084298388694,0.0543490018553274,,-0.9975913082824314,,
,4196.0,903.0,3307.0,855.0,2171.0,2738.0,1862.0,,,,-0.0770158226620971,-2.39043378875949,0.0545600080674634,,-1.044171128019284,,
,4198.0,903.0,3308.0,857.0,2170.0,2719.0,1868.0,,,,-0.0770162911462746,-2.3909764949124,0.0545158144378002,,-1.0812260244990015,,
,4197.0,901.0,3311.0,854.0,2187.0,2736.0,1841.0,,,,-0.0768993689891073,-2.39113686337876,0.0544588688926304,,-1.1097380540364101,,
,4198.0,903.0,3311.0,857.0,2183.0,2736.0,1838.0,,,,-0.0769283897205015,-2.39076405239356,0.054611071291519,,-1.1304571348038346,,
,4195.0,903.0,3310.0,856.0,2182.0,2746.0,1843.0,,,,-0.0768443894714337,-2.39069000268405,0.0548157731598806,,-1.1438573473270535,,
,4196.0,899.0,3309.0,856.0,2179.0,2736.0,1857.0,,,,-0.0769080531538758,-2.39072310954655,0.0548269253058141,,-1.1501076696991264,,
,4190.0,897.0,3304.0,852.0,2185.0,2736.0,1861.0,,,,-0.0767189519713464,-2.39045305301538,0.0546403552155559,,-1.1490579661289786,,
,4190.0,901.0,3303.0,853.0,2176.0,2709.0,1859.0,,,,-0.0767065845787815,-2.39042632923846,0.0547205993260303,,-1.140240839735894,,
,4187.0,897.0,3305.0,854.0,2170.0,2717.0,1864.0,,,,-0.0767274035293088,-2.39017543240712,0.0548053445145077,,-1.1228895381454225,,
,4182.0,894.0,3302.0,851.0,2167.0,2722.0,1877.0,,,,-0.0766921123069841,-2.38965052598416,0.0550663786735837,,-1.0959717369402444,,
,4179.0,891.0,3300.0,849.0,2178.0,2733.0,1880.0,,,,-0.0767644105139306,-2.38995726250627,0.0551078964375237,,-1.0582389259199214,,
,4175.0,896.0,3299.0,849.0,2169.0,2732.0,1859.0,,,,-0.0770625732711883,-2.39038025617367,0.0544150036331066,,-1.0082912870550043,,
,4171.0,891.0,3299.0,852.0,2160.0,2743.0,1837.0,,,,-0.0770669491964394,-2.39043937549988,0.0547727070392625,,-0.9446581546282876,,
,4169.0,891.0,3297.0,851.0,2166.0,2751.0,1852.0,,,,-0.0773443358139794,-2.39120673270391,0.0545359853261057,,-0.8658940347610332,,
,4162.0,889.0,3295.0,846.0,2170.0,2701.0,1840.0,,,,-0.0774132273361142,-2.39141710613648,0.0544838317002416,,-0.7706893888753433,,
,4160.0,888.0,3295.0,849.0,2165.0,2722.0,1846.0,,,,-0.0776479952014166,-2.39219360475742,0.0544004075534031,,-0.6579938062435656,,
,4160.0,891.0,3295.0,849.0,2165.0,2724.0,1867.0,,,,-0.0777416730164203,-2.39213373188916,0.0541582682018086,,-0.5271470529476413,,
,4158.0,890.0,3294.0,848.0,2172.0,2721.0,1857.0,,,,-0.0777690221132085,-2.39285149780726,0.0541418636960425,,-0.37801134487879,,
,4156.0,887.0,3293.0,847.0,2168.0,2749.0,1841.0,,,,-0.0778945673902037,-2.39303599238665,0.05406566903232,,-0.21109648751344562,,
,4153.0,885.0,3290.0,842.0,2180.0,2737.0,1841.0,,,,-0.0779182972330846,-2.39330439996902,0.0541029764130793,,-0.027668285472412037,,
,4153.0,885.0,3290.0,845.0,2173.0,2741.0,1846.0,,,,-0.0779378768959453,-2.39350667236626,0.054199608883237,,0.17017032326588874,,
,4153.0,887.0,3291.0,846.0,2175.0,2754.0,1857.0,,,,-0.0782048741865949,-2.39422975772688,0.0539243524995212,,0.3794365620265984,,
,4154.0,886.0,3290.0,848.0,2172.0,2758.0,1856.0,,,,-0.0782307045334704,-2.39375370719641,0.0540211239316248,,0.5962744967376337,,
,4150.0,884.0,3291.0,844.0,2167.0,2758.0,1868.0,,,,-0.0781070230749418,-2.39390497522344,0.0539255137934195,,0.816020397036426,,
,4149.0,885.0,3290.0,846.0,2178.0,2737.0,1852.0,,,,-0.0781808321859362,-2.39443525038334,0.0539383734526287,,1.0333325138426581,,
,4149.0,887.0,3291.0,845.0,2179.0,2729.0,1854.0,,,,-0.0781241078663633,-2.39475682015502,0.053977176955209,,1.2423856700070315,,
,4148.0,885.0,3290.0,846.0,2172.0,2723.0,1861.0,,,,-0.0782848422398742,-2.39426374790622,0.0538121031366085,,1.4371245288853336,,
,4148.0,885.0,3286.0,842.0,2185.0,2699.0,1862.0,,,,-0.0783054685979926,-2.39463201443167,0.054004739989608,,1.6115625152028072,,
,4150.0,886.0,3289.0,844.0,2180.0,2707.0,1865.0,,,,-0.0782933812458203,-2.39411866083051,0.0540623507465887,,1.7601069671178877,,
,4152.0,886.0,3293.0,847.0,2187.0,2724.0,1863.0,,,,-0.0783302303981377,-2.3936516492949,0.0537994247796603,,1.8778859729670467,,
2025-08-20 18:35:39,4147.0,887.0,3292.0,846.0,2180.0,2725.0,1855.0,,,2025/08/20 06:35:39 PM,-0.0783437959158931,-2.39385792103098,0.0539519655104295,,1.9610491832314074,,
,4149.0,885.0,3288.0,843.0,2174.0,2720.0,1831.0,,,,-0.0782391277139718,-2.39411498540995,0.0538648780779314,,2.0070143142097794,,
,4146.0,887.0,3287.0,844.0,2171.0,2718.0,1838.0,,,,-0.0783346250826354,-2.39406040804657,0.0538150332326592,,2.014633639995176,,
,4147.0,885.0,3289.0,844.0,2177.0,2733.0,1851.0,,,,-0.0782333417849967,-2.3939466367907,0.0540875643315742,,1.9842609283255381,,
,4147.0,886.0,3287.0,845.0,2180.0,2732.0,1858.0,,,,-0.0781242486693332,-2.39341916921129,0.0540018494379217,,1.9177089789711155,,
,4149.0,886.0,3288.0,844.0,2178.0,2714.0,1870.0,,,,-0.0782079594216003,-2.39363205795097,0.0539064219288612,,1.8181001994399069,,
,4145.0,885.0,3287.0,844.0,2180.0,2736.0,1872.0,,,,-0.0779074300304478,-2.39340410749757,0.0539511594262748,,1.689625435222161,,
,4149.0,885.0,3290.0,845.0,2184.0,2751.0,1884.0,,,,-0.0779234094615203,-2.39353105606276,0.0539735771291361,,1.5372369581573913,,
,4145.0,886.0,3288.0,845.0,2178.0,2756.0,1867.0,,,,-0.0778673766761413,-2.39354091580933,0.0539795110366759,,1.3663080075043146,,
,4145.0,886.0,3289.0,845.0,2177.0,2755.0,1869.0,,,,-0.0779365384158134,-2.39376308108603,0.0540460047676068,,1.1822927358338644,,
,4145.0,885.0,3288.0,843.0,2191.0,2741.0,1854.0,,,,-0.0780308402419103,-2.39351005580117,0.0539467707250953,,0.9904172549290133,,
,4148.0,884.0,3289.0,842.0,2192.0,2732.0,1837.0,,,,-0.077976150338575,-2.39330727932046,0.054067491404166,,0.7954258798694235,,
,4148.0,887.0,3289.0,844.0,2198.0,2719.0,1848.0,,,,-0.0778212363281424,-2.39325054046488,0.0540258230592323,,0.6013981084114021,,
,4146.0,885.0,3287.0,843.0,2215.0,2719.0,1850.0,,,,-0.0778269435738209,-2.39348582731431,0.05386956264239,,0.4116429075689732,,
,4143.0,886.0,3287.0,844.0,2209.0,2729.0,1842.0,,,,-0.0778369020660575,-2.39296346017715,0.0541278777459968,,0.2286689748627041,,
,4143.0,885.0,3286.0,844.0,2192.0,2724.0,1830.0,,,,-0.077752436096466,-2.39346768096266,0.0541605635951568,,0.05422382442981673,,
,4143.0,885.0,3288.0,845.0,2186.0,2726.0,1847.0,,,,-0.0778839097414412,-2.39343796738381,0.0540268974992266,,-0.11060899375614962,,
,4143.0,883.0,3286.0,841.0,2168.0,2738.0,1833.0,,,,-0.0777266542257056,-2.39330572398549,0.0539095248703762,,-0.2652672016785131,,
,4141.0,883.0,3287.0,842.0,2167.0,2747.0,1843.0,,,,-0.0776122705843802,-2.39246782011884,0.0538896741956302,,-0.40953573099465224,,
,4138.0,883.0,3283.0,841.0,2171.0,2729.0,1847.0,,,,-0.0777205050885189,-2.3928493531172,0.0540749410728486,,-0.5433569272743207,,
,4137.0,884.0,3285.0,842.0,2188.0,2705.0,1837.0,,,,-0.0777223352654838,-2.39260350966653,0.0539076465594536,,-0.6666421321755349,,
,4140.0,883.0,3287.0,844.0,2204.0,2714.0,1827.0,,,,-0.0778368005667569,-2.39291523782996,0.0539908000231099,,-0.7791025675762397,,
,4140.0,885.0,3285.0,843.0,2203.0,2713.0,1842.0,,,,-0.0778860544329414,-2.39284226288979,0.0540882054559957,,-0.8801170467401475,,
,4139.0,882.0,3283.0,842.0,2209.0,2711.0,1832.0,,,,-0.0777488988555012,-2.39294767993348,0.0540681224668044,,-0.96865214598862,,
,4140.0,883.0,3287.0,841.0,2208.0,2720.0,1849.0,,,,-0.0776935740933632,-2.39271798555918,0.0540771333256208,,-1.0432469816948953,,
,4139.0,884.0,3286.0,842.0,2199.0,2716.0,1860.0,,,,-0.0777640499797369,-2.39285730899763,0.0540011676968686,,-1.1020696305494744,,
,4138.0,881.0,3285.0,845.0,2200.0,2723.0,1848.0,,,,-0.077816030179688,-2.39283704446505,0.0543250258748477,,-1.14304564000204,,
,4140.0,883.0,3283.0,841.0,2186.0,2733.0,1860.0,,,,-0.077822146749685,-2.39287035417011,0.0541261109284297,,-1.1640514126025434,,
,4140.0,885.0,3286.0,841.0,2180.0,2730.0,1842.0,,,,-0.0778542856508568,-2.39262564541039,0.053968774164749,,-1.1631572142015183,,
,4141.0,883.0,3288.0,842.0,2192.0,2710.0,1861.0,,,,-0.0776797410992466,-2.39279114975773,0.0542779880740755,,-1.1388970431148386,,
,4143.0,885.0,3286.0,845.0,2205.0,2731.0,1835.0,,,,-0.0777391507904071,-2.39271442076179,0.0542381831490198,,-1.0905365824436963,,
,4142.0,883.0,3286.0,841.0,2200.0,2724.0,1839.0,,,,-0.0776062716647015,-2.39239591277941,0.0541504804816428,,-1.0183069792286576,,
,4140.0,884.0,3284.0,842.0,2189.0,2713.0,1864.0,,,,-0.0776733941608851,-2.39250356201748,0.054065094944332,,-0.9235723636737503,,
,4143.0,885.0,3288.0,843.0,2175.0,2699.0,1846.0,,,,-0.0775691510377524,-2.39182292515843,0.0540299165132458,,-0.8089038020694498,,
,4142.0,884.0,3288.0,843.0,2192.0,2707.0,1859.0,,,,-0.0775049980868176,-2.39227243395461,0.0543022188407957,,-0.6780419368612294,,
,4145.0,885.0,3288.0,843.0,2197.0,2701.0,1857.0,,,,-0.0774178523176108,-2.39172949725996,0.0545859856636552,,-0.5357436599704389,,
,4145.0,886.0,3287.0,843.0,2194.0,2735.0,1850.0,,,,-0.0772938343072431,-2.39165661837607,0.0542982619899614,,-0.38752231104441526,,
,4145.0,887.0,3288.0,844.0,2187.0,2719.0,1854.0,,,,-0.0772184188194317,-2.39151751564969,0.0545422096761922,,-0.23930342269435384,,
,4148.0,888.0,3291.0,844.0,2187.0,2706.0,1838.0,,,,-0.077229779481671,-2.39139221421212,0.0543310959307379,,-0.09702716889821093,,
,4146.0,888.0,3291.0,846.0,2189.0,2710.0,1832.0,,,,-0.0772706484614132,-2.39130610169902,0.0544384936448086,,0.03376615444795764,,
,4147.0,887.0,3289.0,845.0,2183.0,2723.0,1820.0,,,,-0.0771853624136763,-2.3908380976846,0.0545294662849147,,0.1483298443996452,,
,4149.0,884.0,3289.0,842.0,2197.0,2719.0,1848.0,,,,-0.0771757560882115,-2.39062110436945,0.054625744370502,,0.2430477939016534,,
,4148.0,891.0,3290.0,844.0,2184.0,2720.0,1863.0,,,,-0.0771591295655729,-2.39076379241226,0.0545030148505055,,0.3156837522743624,,
,4150.0,889.0,3291.0,847.0,2169.0,2721.0,1847.0,,,,-0.0770002296145953,-2.39088180767497,0.0545585362689068,,0.36551946275690167,,
,4149.0,887.0,3289.0,845.0,2177.0,2713.0,1854.0,,,,-0.0769333192214131,-2.39081060995845,0.0544546432705383,,0.39336828567997056,,
,4150.0,889.0,3291.0,845.0,2158.0,2714.0,1835.0,,,,-0.0770509340098947,-2.39013731824468,0.0543453788356678,,0.40146241157984797,,
,4151.0,888.0,3289.0,845.0,2178.0,2699.0,1849.0,,,,-0.0769478030671863,-2.38999768431837,0.0546117599092001,,0.3932235319568114,,
,4156.0,891.0,3291.0,846.0,2179.0,2715.0,1839.0,,,,-0.0768394211169362,-2.39053175741108,0.0548685504074799,,0.3729374128608715,,
,4154.0,889.0,3291.0,848.0,2176.0,2717.0,1856.0,,,,-0.0768628693395977,-2.38998591869078,0.054850729815785,,0.3453609057956785,,
,4155.0,889.0,3291.0,843.0,2187.0,2729.0,1868.0,,,,-0.0767710967811392,-2.38978176538873,0.0547512930172292,,0.31529484666196794,,
,4154.0,890.0,3292.0,846.0,2186.0,2734.0,1847.0,,,,-0.076679435491321,-2.38978919544418,0.0546124923853686,,0.2871582096209637,,
,4156.0,891.0,3290.0,845.0,2177.0,2707.0,1844.0,,,,-0.0767170346532206,-2.38958102293653,0.0550502775098995,,0.2645984852269429,,
,4157.0,892.0,3293.0,847.0,2182.0,2709.0,1843.0,,,,-0.0766122711306827,-2.38972338767527,0.0548273983327591,,0.25017102324522295,,
,4158.0,888.0,3295.0,846.0,2198.0,2718.0,1824.0,,,,-0.0766636633172807,-2.38960844619043,0.0548802612903498,,0.24511586999368598,,
,4159.0,891.0,3295.0,844.0,2195.0,2738.0,1837.0,,,,-0.0766438804216349,-2.38941016463176,0.0549461063351906,,0.24925383300890247,,
,4159.0,892.0,3293.0,847.0,2192.0,2747.0,1854.0,,,,-0.0767295706947023,-2.38903621142526,0.0547686660559812,,0.2610136459872217,,
,4160.0,892.0,3295.0,849.0,2200.0,2715.0,1842.0,,,,-0.076524546137667,-2.3893516778515,0.0550694153836601,,0.2775894753470638,,
,4163.0,890.0,3297.0,848.0,2191.0,2723.0,1835.0,,,,-0.0765239071742469,-2.38905943910701,0.0549396644905295,,0.2952139747479356,,
,4158.0,889.0,3291.0,847.0,2189.0,2734.0,1839.0,,,,-0.0765347707155563,-2.38889755990996,0.0551510817887824,,0.3095188440895068,,
,4162.0,890.0,3296.0,846.0,2186.0,2746.0,1836.0,,,,-0.0765621371840577,-2.38868949689369,0.0550313217181192,,0.31594476040468006,,
,4163.0,894.0,3298.0,848.0,2196.0,2754.0,1829.0,,,,-0.0763841646279954,-2.38816896122406,0.0550985674711841,,0.3101575391018711,,
,4163.0,892.0,3296.0,847.0,2199.0,2760.0,1820.0,,,,-0.0764468637125763,-2.388213754412,0.0551263207602843,,0.2884284151569143,,
,4164.0,892.0,3297.0,847.0,2179.0,2739.0,1817.0,,,,-0.0765199591455162,-2.38818246938765,0.0550901929015356,,0.24794308855102087,,
,4164.0,893.0,3294.0,847.0,2181.0,2734.0,1827.0,,,,-0.0767021271145388,-2.3880055434144,0.0549246435818025,,0.18701513047431947,,
,4170.0,894.0,3300.0,850.0,2178.0,2741.0,1848.0,,,,-0.0766824299731106,-2.38792630901544,0.0553984349131656,,0.1051923462379537,,
,4167.0,894.0,3300.0,848.0,2179.0,2734.0,1844.0,,,,-0.076623826282305,-2.38837703084785,0.0547974284973453,,0.0032577030806948994,,
,4169.0,895.0,3298.0,848.0,2196.0,2720.0,1838.0,,,,-0.0766420389551144,-2.38843207585488,0.0551319790298991,,-0.11686215667552674,,
,4169.0,896.0,3296.0,848.0,2199.0,2741.0,1837.0,,,,-0.0764682891750966,-2.38826482665604,0.0550911855453656,,-0.2522592845648867,,
,4172.0,893.0,3301.0,847.0,2194.0,2734.0,1826.0,,,,-0.0764339970377832,-2.38829719874151,0.0554646446415751,,-0.3992514972939419,,
,4172.0,895.0,3303.0,847.0,2195.0,2722.0,1847.0,,,,-0.0763299053961778,-2.38786357592723,0.0554960662799395,,-0.5536075581648766,,
,4172.0,895.0,3301.0,850.0,2187.0,2720.0,1844.0,,,,-0.076327988536162,-2.38777535653695,0.0553217574714031,,-0.7107673618923784,,
,4172.0,895.0,3299.0,847.0,2174.0,2744.0,1846.0,,,,-0.0759702943714081,-2.38775079536608,0.0551670651434924,,-0.8660404681847997,,
,4177.0,893.0,3301.0,850.0,2166.0,2737.0,1844.0,,,,-0.0761839047970406,-2.38795336327429,0.0555038554616584,,-1.0147743233420203,,
,4178.0,896.0,3301.0,851.0,2188.0,2739.0,1832.0,,,,-0.0760201527434635,-2.38782744474152,0.0554944669961272,,-1.1524912552312983,,
,4176.0,896.0,3302.0,850.0,2186.0,2744.0,1839.0,,,,-0.075925608757661,-2.38843203802156,0.0555617152877695,,-1.2749990365930854,,
,4176.0,894.0,3301.0,850.0,2183.0,2754.0,1846.0,,,,-0.0757776156491352,-2.38761368999463,0.0551947708073159,,-1.3784822698489454,,
,4180.0,900.0,3305.0,851.0,2186.0,2747.0,1853.0,,,,-0.0760780630344289,-2.38774513043885,0.0552523902706796,,-1.4595809142459415,,
,4181.0,900.0,3307.0,854.0,2174.0,2752.0,1862.0,,,,-0.0758773366884078,-2.38807103362955,0.0554008942752649,,-1.515459008038557,,
,4182.0,898.0,3306.0,853.0,2178.0,2765.0,1854.0,,,,-0.0759546483079603,-2.38826070284128,0.0554746404053492,,-1.5438628525238716,,
,4182.0,899.0,3305.0,852.0,2169.0,2761.0,1864.0,,,,-0.075870314546451,-2.3877931003256,0.0557690537614133,,-1.5431653552278504,,
,4184.0,899.0,3307.0,850.0,2173.0,2749.0,1849.0,,,,-0.075868545733547,-2.38766219022915,0.0553584396595474,,-1.512392737952841,,
,4186.0,900.0,3306.0,852.0,2186.0,2754.0,1835.0,,,,-0.0758167213955586,-2.38748353996473,0.0554563047675026,,-1.4512312091421526,,
,4185.0,900.0,3307.0,851.0,2186.0,2753.0,1841.0,,,,-0.0760423056918425,-2.38732879491522,0.0552718313592243,,-1.360013715675485,,
,4184.0,898.0,3306.0,849.0,2185.0,2747.0,1856.0,,,,-0.0759502490088124,-2.3876976083946,0.0552098915783397,,-1.2396897793622192,,
,4182.0,896.0,3302.0,848.0,2177.0,2751.0,1854.0,,,,-0.0758912448518401,-2.38806365101775,0.055496138396451,,-1.0917841390644176,,
,4180.0,897.0,3307.0,850.0,2189.0,2759.0,1840.0,,,,-0.0758658949872442,-2.38764263421418,0.0552169909799328,,-0.9183519510593853,,
,4178.0,896.0,3304.0,851.0,2178.0,2745.0,1835.0,,,,-0.0759126263987166,-2.38815630873479,0.0555134514365798,,-0.7219390454145501,,
,4178.0,894.0,3300.0,850.0,2176.0,2735.0,1841.0,,,,-0.0757705203749265,-2.38742962515182,0.055608892194646,,-0.505554602987712,,
,4172.0,893.0,3302.0,847.0,2175.0,2725.0,1855.0,,,,-0.0760227956291488,-2.38768961351406,0.0553217824740867,,-0.27266029562162547,,
,4168.0,894.0,3297.0,846.0,2173.0,2745.0,1846.0,,,,-0.0757321106876033,-2.38757101971822,0.0556392898996907,,-0.027174647231880875,,
,4166.0,892.0,3298.0,848.0,2176.0,2751.0,1842.0,,,,-0.0758900998060225,-2.38727201382187,0.0553291183621599,,0.2265149936189478,,
,4159.0,889.0,3296.0,844.0,2182.0,2751.0,1832.0,,,,-0.0758311259987357,-2.38749662345381,0.0556262913517437,,0.48354646603601525,,
,4154.0,888.0,3291.0,846.0,2181.0,2743.0,1845.0,,,,-0.0756701010371363,-2.38697609340788,0.0554157981608769,,0.7386002722554944,,
,4153.0,883.0,3291.0,841.0,2174.0,2759.0,1867.0,,,,-0.075755279199056,-2.38652524354649,0.0555725629556369,,0.9859583540618887,,
,4151.0,889.0,3291.0,846.0,2176.0,2761.0,1864.0,,,,-0.0758385214137597,-2.38685400817669,0.055432766934362,,1.2196183131652822,,
,4147.0,885.0,3292.0,845.0,2176.0,2770.0,1851.0,,,,-0.0757650148122047,-2.387644922434,0.0555739899797614,,1.4334700019225892,,
,4148.0,887.0,3292.0,845.0,2173.0,2775.0,1857.0,,,,-0.0760114440726555,-2.38802270280115,0.0553039047581945,,1.6215319531263175,,
,4145.0,884.0,3288.0,842.0,2189.0,2779.0,1855.0,,,,-0.0759971156585197,-2.38798481366826,0.0553482694597432,,1.7782349683822454,,
,4144.0,885.0,3292.0,843.0,2176.0,2771.0,1830.0,,,,-0.0764094996357946,-2.38885757414444,0.055297122215179,,1.898730844085975,,
,4142.0,886.0,3288.0,841.0,2188.0,2743.0,1843.0,,,,-0.0765913685942549,-2.38936110847942,0.0552956205953976,,1.9791970311862674,,
,4143.0,884.0,3288.0,843.0,2176.0,2735.0,1840.0,,,,-0.0767211567787436,-2.38955222859768,0.0548237225189923,,2.0171042085387283,,
,4141.0,883.0,3287.0,843.0,2159.0,2722.0,1870.0,,,,-0.0766581625182498,-2.38966231992537,0.0550583522042096,,2.0114143302356706,,
,4140.0,881.0,3283.0,841.0,2172.0,2742.0,1865.0,,,,-0.0766591066874314,-2.38977801070734,0.0547595294376267,,1.962682310573252,,
,4139.0,884.0,3287.0,843.0,2172.0,2718.0,1862.0,,,,-0.0768268377348985,-2.39048638826689,0.0549358238091466,,1.8730449495414259,,
,4139.0,882.0,3286.0,841.0,2164.0,2717.0,1867.0,,,,-0.0768976794716593,-2.39093111187995,0.0547795177110673,,1.7460945880114098,,
,4138.0,883.0,3285.0,841.0,2165.0,2722.0,1845.0,,,,-0.0769250853783054,-2.39110823788938,0.0548382436418349,,1.586649726153541,,
,4137.0,883.0,3285.0,843.0,2173.0,2740.0,1848.0,,,,-0.0769046836753879,-2.39144250648587,0.0547876030939002,,1.4004473449993995,,
,4138.0,882.0,3287.0,843.0,2184.0,2744.0,1857.0,,,,-0.077076368174825,-2.39169123280783,0.0545330597591259,,1.1937894628545733,,
,4139.0,883.0,3287.0,842.0,2186.0,2745.0,1872.0,,,,-0.0771952004967688,-2.39176400842939,0.0546685878111614,,0.9731785231124542,,
,4138.0,883.0,3286.0,845.0,2179.0,2739.0,1865.0,,,,-0.0770940968367718,-2.39160823180513,0.0545428042634681,,0.7449731391694953,,
,4139.0,883.0,3287.0,842.0,2179.0,2746.0,1867.0,,,,-0.0771324573655797,-2.39153811693812,0.0547560615587059,,0.5150892381465337,,
,4139.0,883.0,3285.0,842.0,2170.0,2746.0,1851.0,,,,-0.0770390579803365,-2.39184626769854,0.0547654391237744,,0.28876380060110074,,
,4139.0,885.0,3287.0,844.0,2179.0,2727.0,1848.0,,,,-0.077003589661862,-2.39178023707555,0.0544992533298449,,0.07039081236549033,,
,4137.0,884.0,3286.0,842.0,2175.0,2730.0,1860.0,,,,-0.0770744329980902,-2.3915343581797,0.0546889185630704,,-0.13656744954462272,,
,4137.0,882.0,3284.0,840.0,2163.0,2757.0,1865.0,,,,-0.0770591997289587,-2.39139752833664,0.0547071730174203,,-0.32959597320392964,,
,4139.0,884.0,3286.0,842.0,2162.0,2767.0,1855.0,,,,-0.0769323599478785,-2.39129199573481,0.054821890229096,,-0.5070759336453093,,
,4141.0,885.0,3287.0,842.0,2172.0,2737.0,1859.0,,,,-0.0769278878930169,-2.39152468688415,0.0546820729704595,,-0.6681771440756948,,
,4135.0,883.0,3287.0,842.0,2175.0,2733.0,1847.0,,,,-0.0769700413587445,-2.39113291211664,0.0548379937166525,,-0.8127072158535028,,
,4137.0,885.0,3286.0,844.0,2176.0,2744.0,1851.0,,,,-0.0768432966562751,-2.39151755536182,0.0549334683621003,,-0.9409329010022637,,
,4139.0,883.0,3284.0,843.0,2179.0,2747.0,1865.0,,,,-0.0767730951342544,-2.39112792247448,0.054903514783973,,-1.053390394822127,,
,4134.0,881.0,3284.0,843.0,2170.0,2752.0,1873.0,,,,-0.0768795505354842,-2.39097428230906,0.0549589735324107,,-1.150701311791003,,
,4134.0,882.0,3283.0,843.0,2162.0,2746.0,1870.0,,,,-0.0768395257627658,-2.39098280808804,0.0548809395753498,,-1.2334093320556199,,
,4131.0,881.0,3284.0,841.0,2176.0,2736.0,1856.0,,,,-0.0767918614461141,-2.39088129011641,0.0548626430942454,,-1.301849240416096,,
,4131.0,882.0,3282.0,840.0,2181.0,2732.0,1845.0,,,,-0.0766568221270362,-2.39083432993504,0.0549876456968431,,-1.3560558836156804,,
,4132.0,881.0,3281.0,841.0,2170.0,2749.0,1844.0,,,,-0.0765599934479296,-2.39057104554898,0.0550320276217461,,-1.39571645946285,,
,4132.0,880.0,3282.0,841.0,2174.0,2748.0,1870.0,,,,-0.0765424748516297,-2.39041078890145,0.0550792764612994,,-1.4201663310316983,,
,4132.0,881.0,3281.0,841.0,2179.0,2736.0,1886.0,,,,-0.0766541201724537,-2.39034079436561,0.0549464445874495,,-1.4284263463097473,,
,4128.0,878.0,3278.0,838.0,2176.0,2739.0,1875.0,,,,-0.076836508917682,-2.39044398955736,0.0549626673107863,,-1.419277923263082,,
2025-08-20 18:35:40,4127.0,878.0,3281.0,840.0,2177.0,2768.0,1858.0,,,2025/08/20 06:35:40 PM,-0.0767259882592972,-2.39039452268345,0.0551200059213493,,-1.3913703130722714,,
,4130.0,880.0,3281.0,839.0,2171.0,2750.0,1854.0,,,,-0.0766560869439917,-2.39040628979456,0.0550041204768449,,-1.3433522416933712,,
,4130.0,881.0,3280.0,842.0,2170.0,2742.0,1860.0,,,,-0.0764246085462644,-2.39086973159102,0.0550366312366433,,-1.2740178306393362,,
,4129.0,881.0,3282.0,841.0,2156.0,2766.0,1866.0,,,,-0.0764713170257892,-2.3905749297224,0.0549701527926556,,-1.1824549505601654,,
,4126.0,878.0,3278.0,839.0,2173.0,2749.0,1867.0,,,,-0.0764648607371259,-2.39029906551154,0.0547449517799248,,-1.0681836963428881,,
,4131.0,880.0,3279.0,839.0,2175.0,2747.0,1869.0,,,,-0.0764610743393345,-2.39018410665496,0.0548446187384134,,-0.9312740244755214,,
,4129.0,883.0,3280.0,840.0,2174.0,2751.0,1846.0,,,,-0.0764588344516033,-2.39013339660175,0.0549095212162246,,-0.7724348000932151,,
,4127.0,879.0,3278.0,840.0,2179.0,2740.0,1828.0,,,,-0.0764612672301093,-2.39065108469126,0.0549629397951522,,-0.5930708902058781,,
,4129.0,882.0,3282.0,840.0,2168.0,2741.0,1838.0,,,,-0.076522989267766,-2.39074799693046,0.054841472455633,,-0.39530921373753075,,
,4130.0,881.0,3279.0,841.0,2159.0,2732.0,1852.0,,,,-0.0765184648452702,-2.39109233374223,0.0548413251801045,,-0.18199737224025542,,
,4130.0,881.0,3283.0,841.0,2172.0,2718.0,1857.0,,,,-0.0764274793822007,-2.39091181161045,0.0550654042766722,,0.04332125608291409,,
,4130.0,882.0,3282.0,839.0,2164.0,2727.0,1870.0,,,,-0.0766643926615888,-2.39127761170715,0.0549317455835181,,0.2764540615134766,,
,4131.0,880.0,3280.0,839.0,2161.0,2740.0,1869.0,,,,-0.0765258457588975,-2.3912230765172,0.05486753759199,,0.5126284505091718,,
,4133.0,882.0,3282.0,840.0,2162.0,2738.0,1869.0,,,,-0.0765810754692677,-2.39112937360834,0.0548581362021328,,0.7465872284540488,,
,4134.0,883.0,3283.0,841.0,2185.0,2749.0,1844.0,,,,-0.0765719084782187,-2.391258823073,0.0547246871278208,,0.9727143459819958,,
,4134.0,883.0,3284.0,842.0,2179.0,2754.0,1842.0,,,,-0.0765841265070797,-2.39068414321799,0.0549930422465915,,1.1851943341110105,,
,4135.0,883.0,3280.0,841.0,2184.0,2749.0,1855.0,,,,-0.076635214267188,-2.390776364011,0.0546924966242132,,1.3782064634784135,,
,4135.0,882.0,3282.0,841.0,2175.0,2717.0,1861.0,,,,-0.0765551233661155,-2.39117145615639,0.0546827932154957,,1.5461511939439652,,
,4134.0,882.0,3282.0,842.0,2156.0,2732.0,1879.0,,,,-0.0765701798605949,-2.39111592487332,0.0549135169619321,,1.6839018051081827,,
,4135.0,882.0,3279.0,841.0,2151.0,2737.0,1873.0,,,,-0.0765945500051928,-2.39119101186129,0.054743487106558,,1.7870683297500658,,
,4137.0,883.0,3281.0,842.0,2151.0,2741.0,1857.0,,,,-0.0766173466471956,-2.3912773593979,0.0549750378107186,,1.8522547923558481,,
,4137.0,883.0,3280.0,840.0,2158.0,2743.0,1857.0,,,,-0.0764908288314622,-2.39118048747085,0.0547889267181493,,1.877285748139313,,
,4137.0,883.0,3282.0,842.0,2171.0,2724.0,1860.0,,,,-0.0766208094739343,-2.39170856388028,0.0548405439926256,,1.8613759970050412,,
,4137.0,885.0,3284.0,841.0,2172.0,2730.0,1864.0,,,,-0.0765721677464683,-2.39182159999979,0.0547193229409081,,1.8052195507497033,,
,4140.0,884.0,3283.0,844.0,2171.0,2748.0,1869.0,,,,-0.0765454969515631,-2.39152402406536,0.0547966650388641,,1.7109810069937337,,
,4138.0,881.0,3281.0,840.0,2171.0,2739.0,1889.0,,,,-0.0767752569645994,-2.39195231946491,0.0547658815860216,,1.5821837188674845,,
,4143.0,884.0,3285.0,842.0,2168.0,2740.0,1889.0,,,,-0.076792402261415,-2.39174325622887,0.0546471476231025,,1.4235024799375855,,
,4140.0,887.0,3286.0,844.0,2155.0,2749.0,1868.0,,,,-0.0767848059118079,-2.39110753174426,0.0546317750038665,,1.2404808558654343,,
,4144.0,885.0,3284.0,842.0,2152.0,2760.0,1845.0,,,,-0.0766734649226965,-2.391457875054,0.0547870345026691,,1.0392018486135122,,
,4141.0,884.0,3281.0,842.0,2164.0,2733.0,1877.0,,,,-0.0767517190896791,-2.39176993845452,0.0547022982336074,,0.8259436240542205,,
,4142.0,885.0,3284.0,841.0,2172.0,2758.0,1871.0,,,,-0.0767860305333284,-2.39232416982795,0.0546634819737913,,0.6068498292946767,,
,4144.0,888.0,3286.0,844.0,2174.0,2756.0,1853.0,,,,-0.0767902793024624,-2.39195674782566,0.0548154208002141,,0.3876383433475342,,
,4144.0,886.0,3284.0,843.0,2167.0,2754.0,1859.0,,,,-0.0766617329152282,-2.39205245438949,0.0546829296073833,,0.17336534237501086,,
,4147.0,888.0,3286.0,844.0,2166.0,2749.0,1870.0,,,,-0.0767759194048769,-2.39212445595925,0.0546752508807243,,-0.03174507972882656,,
,4145.0,886.0,3284.0,843.0,2166.0,2754.0,1861.0,,,,-0.076591789740616,-2.39240478046963,0.054324659550241,,-0.22440122105662233,,
,4148.0,885.0,3285.0,846.0,2157.0,2747.0,1876.0,,,,-0.0768369334716696,-2.39136404194396,0.0547628942912664,,-0.40227443797427903,,
,4147.0,887.0,3287.0,844.0,2166.0,2761.0,1878.0,,,,-0.076979088674058,-2.39219570931877,0.0544450015215774,,-0.563965004701364,,
,4148.0,886.0,3285.0,844.0,2169.0,2761.0,1877.0,,,,-0.0766427626687845,-2.39263661814071,0.0545311543346359,,-0.7089119105850981,,
,4148.0,884.0,3283.0,841.0,2167.0,2742.0,1879.0,,,,-0.076588599556821,-2.39194337466148,0.0545932328187578,,-0.8372585557821365,,
,4150.0,886.0,3284.0,841.0,2158.0,2748.0,1863.0,,,,-0.0767114390355353,-2.39170418265182,0.0546915958967131,,-0.9496885561280537,,
,4152.0,890.0,3287.0,845.0,2145.0,2739.0,1867.0,,,,-0.0767449192688485,-2.3917809924875,0.0547871322578334,,-1.0472468655986105,,
,4151.0,891.0,3289.0,844.0,2160.0,2738.0,1859.0,,,,-0.0766925326764268,-2.39162974448477,0.054724524951926,,-1.1311609357699142,,
,4151.0,887.0,3288.0,845.0,2177.0,2720.0,1873.0,,,,-0.0765840452943527,-2.39177504228467,0.0547905695946934,,-1.202674602113065,,
,4152.0,887.0,3289.0,845.0,2169.0,2736.0,1879.0,,,,-0.0767145632533132,-2.39131422685926,0.0548181025435799,,-1.2629041179809544,,
,4155.0,888.0,3288.0,846.0,2165.0,2758.0,1880.0,,,,-0.0766759279541963,-2.391653891585,0.0544660632758045,,-1.3127220047499224,,
,4156.0,889.0,3290.0,846.0,2161.0,2755.0,1884.0,,,,-0.0766076145736726,-2.39165177396322,0.0546921810843869,,-1.3526711904498323,,
,4157.0,890.0,3290.0,844.0,2152.0,2744.0,1877.0,,,,-0.0765076589774699,-2.39163102049233,0.0548842805340906,,-1.382910066596558,,
,4158.0,888.0,3290.0,843.0,2172.0,2746.0,1877.0,,,,-0.0766035259706885,-2.39187856442871,0.0545910030903352,,-1.4031886095342323,,
,4160.0,889.0,3287.0,845.0,2175.0,2749.0,1862.0,,,,-0.0766154221091845,-2.39179678032376,0.0546439876496251,,-1.4128558020757636,,
,4160.0,891.0,3292.0,845.0,2169.0,2753.0,1853.0,,,,-0.0766040280284272,-2.39179674924485,0.0548767829900059,,-1.4108982923379563,,
,4162.0,888.0,3292.0,845.0,2147.0,2754.0,1869.0,,,,-0.0767067808640915,-2.39214078121269,0.0548158225838887,,-1.3960090302633879,,
,4161.0,888.0,3288.0,843.0,2158.0,2744.0,1866.0,,,,-0.0765069478318262,-2.3914097750059,0.0546681644894311,,-1.3666826126618028,,
,4163.0,892.0,3292.0,846.0,2170.0,2728.0,1875.0,,,,-0.0764890224952252,-2.39182018758096,0.0548018006282276,,-1.321331694817049,,
,4167.0,895.0,3295.0,846.0,2163.0,2739.0,1880.0,,,,-0.0764722784170855,-2.39196799211011,0.0551250374998383,,-1.2584166629107512,,
,4168.0,892.0,3294.0,847.0,2162.0,2739.0,1874.0,,,,-0.0764693623762009,-2.39180198316469,0.0547696707129794,,-1.1765793866332046,,
,4165.0,892.0,3294.0,847.0,2165.0,2747.0,1880.0,,,,-0.0763824244321664,-2.39150717783157,0.0548718436866235,,-1.0747717949952211,,
,4168.0,892.0,3293.0,847.0,2164.0,2758.0,1873.0,,,,-0.0764173912394229,-2.39172546837875,0.0550306621662878,,-0.952371487692387,,
,4171.0,894.0,3298.0,849.0,2160.0,2743.0,1859.0,,,,-0.0763805989859951,-2.39168268033525,0.054646086430886,,-0.8092793245678831,,
,4171.0,894.0,3297.0,847.0,2161.0,2750.0,1861.0,,,,-0.0763554692518004,-2.39114138351272,0.0547525728892219,,-0.6459970376365284,,
,4170.0,892.0,3296.0,847.0,2170.0,2752.0,1873.0,,,,-0.07633665026572,-2.3912468849837,0.0549103004027358,,-0.4636852198333761,,
,4173.0,895.0,3296.0,847.0,2152.0,2764.0,1869.0,,,,-0.0763904001159856,-2.39102285134078,0.0549948914586909,,-0.2642027237635838,,
,4169.0,895.0,3296.0,848.0,2144.0,2753.0,1858.0,,,,-0.0763338480510665,-2.39091768184724,0.0550284368145706,,-0.05012752088889781,,
,4170.0,893.0,3296.0,849.0,2151.0,2755.0,1864.0,,,,-0.0763706432707995,-2.39114682196918,0.0551836261104505,,0.17524283591006723,,
,4167.0,892.0,3297.0,846.0,2163.0,2736.0,1866.0,,,,-0.0762335996125302,-2.39096952648434,0.0549277603134274,,0.40791489539374853,,
,4166.0,888.0,3291.0,846.0,2148.0,2736.0,1862.0,,,,-0.0761719756546654,-2.39112736582039,0.0550900389551383,,0.6432521633371081,,
,4163.0,890.0,3292.0,845.0,2173.0,2735.0,1864.0,,,,-0.0761512192105177,-2.39088809882132,0.0552829529330315,,0.8760626077769565,,
,4158.0,888.0,3292.0,844.0,2169.0,2738.0,1870.0,,,,-0.0760828962733185,-2.39065239775999,0.0549589952210056,,1.1007257824274073,,
,4157.0,887.0,3289.0,842.0,2172.0,2745.0,1854.0,,,,-0.076117252385953,-2.39075582060558,0.0552828155712019,,1.3113627820640774,,
,4148.0,886.0,3285.0,843.0,2166.0,2758.0,1867.0,,,,-0.0759682310119506,-2.39047594521633,0.0552851534204142,,1.5020488829624858,,
,4148.0,886.0,3286.0,839.0,2157.0,2769.0,1869.0,,,,-0.0759033687704569,-2.39004767351856,0.0552211214882151,,1.6670636507494707,,
,4143.0,885.0,3283.0,844.0,2167.0,2753.0,1863.0,,,,-0.075791044994161,-2.38974163760621,0.0554848411558857,,1.8011669716445489,,
,4139.0,881.0,3281.0,840.0,2165.0,2752.0,1855.0,,,,-0.0758698085712082,-2.38968817439501,0.0554013699021359,,1.8998829040324634,,
,4134.0,879.0,3279.0,838.0,2162.0,2761.0,1841.0,,,,-0.0756607899278787,-2.38974607575866,0.0556832588522656,,1.959767830539666,,
,4132.0,881.0,3279.0,837.0,2150.0,2763.0,1859.0,,,,-0.0755277915186465,-2.38984976113745,0.0555525140121902,,1.9786365858941406,,
,4128.0,879.0,3279.0,838.0,2155.0,2744.0,1869.0,,,,-0.0756646734109984,-2.3897468751712,0.0557356489155733,,1.9557213091724288,,
,4128.0,879.0,3275.0,837.0,2171.0,2742.0,1852.0,,,,-0.0754931769098623,-2.39009790282525,0.0555333668364271,,1.8917433597775217,,
,4126.0,879.0,3276.0,838.0,2173.0,2733.0,1852.0,,,,-0.0755360242868693,-2.39022700887227,0.0554552803603635,,1.7888882646328808,,
,4121.0,876.0,3272.0,835.0,2165.0,2734.0,1858.0,,,,-0.0755680020889948,-2.39038134474318,0.0554499156176513,,1.6506854650942568,,
,4123.0,877.0,3272.0,836.0,2160.0,2734.0,1875.0,,,,-0.0756833007552781,-2.39104413652344,0.0553656732755078,,1.4818057784614562,,
,4120.0,873.0,3272.0,835.0,2162.0,2740.0,1854.0,,,,-0.0759447066969701,-2.39111612698388,0.0554912704611856,,1.2877973858173328,,
,4118.0,875.0,3272.0,835.0,2162.0,2743.0,1859.0,,,,-0.0760671723493853,-2.39165910227781,0.0552719095248481,,1.0747846546247275,,
,4116.0,874.0,3271.0,832.0,2161.0,2728.0,1878.0,,,,-0.0759880544555919,-2.39131656260652,0.0551126588996075,,0.8491537785544815,,
,4115.0,875.0,3268.0,836.0,2158.0,2745.0,1883.0,,,,-0.0760226018633406,-2.39179195153915,0.0548942140616466,,0.6172466256096922,,
,4117.0,875.0,3269.0,835.0,2163.0,2752.0,1852.0,,,,-0.0762467305132891,-2.39193002333421,0.0551348172681392,,0.38508078273538515,,
,4115.0,873.0,3267.0,832.0,2167.0,2743.0,1854.0,,,,-0.0763517145934559,-2.39229231600586,0.0552148291301203,,0.15811026081634458,,
,4114.0,875.0,3267.0,833.0,2172.0,2746.0,1869.0,,,,-0.0764664435077795,-2.39274460640506,0.0552739219178865,,-0.058962348201361696,,
,4110.0,874.0,3267.0,834.0,2163.0,2732.0,1873.0,,,,-0.0764197033635231,-2.39265607947158,0.0550499536313021,,-0.2623155420770717,,
,4113.0,875.0,3266.0,832.0,2141.0,2731.0,1879.0,,,,-0.0764050614562804,-2.39281226676648,0.0548480162957891,,-0.4490781711395989,,
,4111.0,876.0,3268.0,836.0,2144.0,2735.0,1882.0,,,,-0.0764036653074095,-2.39347455783293,0.054744741664318,,-0.6173405594418784,,
,4111.0,874.0,3266.0,832.0,2154.0,2732.0,1871.0,,,,-0.0764715407247474,-2.39261513644773,0.054782356985634,,-0.7661135870390668,,
,4110.0,873.0,3262.0,832.0,2171.0,2736.0,1867.0,,,,-0.0764965317546349,-2.39268112710324,0.0547622606523513,,-0.8952443242141546,,
,4109.0,875.0,3265.0,835.0,2162.0,2748.0,1870.0,,,,-0.076667280674194,-2.39277861552409,0.0547988040229696,,-1.005297586929343,,
,4108.0,872.0,3263.0,832.0,2155.0,2752.0,1869.0,,,,-0.0766780949875659,-2.39252162100871,0.0548607098264748,,-1.097412037175635,,
,4107.0,874.0,3262.0,831.0,2153.0,2767.0,1861.0,,,,-0.0765558562039962,-2.3926040198229,0.0549354453299053,,-1.1731379485276356,,
,4106.0,872.0,3263.0,831.0,2154.0,2760.0,1864.0,,,,-0.0764496253864325,-2.39269836350982,0.05509440796673,,-1.234262609327306,,
,4109.0,871.0,3262.0,833.0,2152.0,2750.0,1875.0,,,,-0.0763950084561173,-2.39222549170439,0.0552531960800166,,-1.2826294708602346,,
,4108.0,873.0,3263.0,832.0,2157.0,2756.0,1873.0,,,,-0.0763879116001094,-2.39183059908464,0.0548723709588582,,-1.319958735124732,,
,4104.0,871.0,3265.0,832.0,2160.0,2756.0,1871.0,,,,-0.0761913156759027,-2.3919045375576,0.0550635372895669,,-1.3476793954596589,,
,4105.0,871.0,3261.0,830.0,2150.0,2749.0,1851.0,,,,-0.0762556446358081,-2.39215308432373,0.0549844561212629,,-1.3667846347956825,,
,4102.0,870.0,3259.0,831.0,2148.0,2740.0,1836.0,,,,-0.0763776387129636,-2.39195360679514,0.0549943218863251,,-1.3777229916936833,,
,4104.0,871.0,3258.0,830.0,2159.0,2729.0,1868.0,,,,-0.0763483030869891,-2.39176619471166,0.0553146002504659,,-1.3803364066244848,,
,4102.0,872.0,3258.0,830.0,2160.0,2745.0,1861.0,,,,-0.0763211320088803,-2.39160217831283,0.0552895438496498,,-1.373853239502234,,
,4101.0,869.0,3257.0,829.0,2161.0,2748.0,1877.0,,,,-0.0761996334367691,-2.39110883460943,0.0551950072813523,,-1.356939980528438,,
,4102.0,869.0,3257.0,832.0,2153.0,2749.0,1889.0,,,,-0.0760532630714875,-2.39124496216352,0.0551601092734504,,-1.327810187142586,,
,4100.0,872.0,3258.0,829.0,2156.0,2759.0,1883.0,,,,-0.0762535708502091,-2.39112182239373,0.0552591193620799,,-1.2843837767290502,,
,4096.0,869.0,3256.0,830.0,2165.0,2757.0,1861.0,,,,-0.0760453019690931,-2.39088490397404,0.0550468731650725,,-1.224484819841936,,
,4099.0,870.0,3256.0,830.0,2164.0,2751.0,1878.0,,,,-0.0762447784516624,-2.39049972090876,0.0554809696979293,,-1.14606201761799,,
,4098.0,868.0,3255.0,827.0,2166.0,2735.0,1879.0,,,,-0.0762847758169833,-2.3908631739207,0.0556574784287842,,-1.047413636660335,,
,4096.0,870.0,3255.0,829.0,2144.0,2715.0,1861.0,,,,-0.0760487522685916,-2.39044788572881,0.0555067551570101,,-0.9273981955132198,,
,4098.0,870.0,3257.0,828.0,2152.0,2734.0,1872.0,,,,-0.0762337658569355,-2.39079312185135,0.0551393229537453,,-0.7856138142160728,,
,4098.0,870.0,3255.0,829.0,2150.0,2737.0,1875.0,,,,-0.0764979466645178,-2.39063693254826,0.0552817743872649,,-0.6225327503785005,,
,4095.0,866.0,3252.0,828.0,2154.0,2739.0,1841.0,,,,-0.0764407879419768,-2.39064208765135,0.0555330958143339,,-0.43958278935204154,,
,4095.0,869.0,3251.0,827.0,2153.0,2723.0,1865.0,,,,-0.0762586546328945,-2.39061633666667,0.0552385456815037,,-0.23917288971233924,,
,4097.0,869.0,3255.0,830.0,2158.0,2725.0,1865.0,,,,-0.0762668503405836,-2.39090381408848,0.0552931055409664,,-0.024665489510457654,,
,4095.0,869.0,3251.0,827.0,2157.0,2729.0,1866.0,,,,-0.0763195401959742,-2.39071497558523,0.0551625426912347,,0.19969903021943505,,
,4096.0,868.0,3252.0,828.0,2159.0,2755.0,1851.0,,,,-0.0763451929111418,-2.39073775365799,0.0552624152262721,,0.428919470353365,,
,4097.0,870.0,3252.0,828.0,2169.0,2752.0,1879.0,,,,-0.0763244572991517,-2.39073951438285,0.0553537837797339,,0.6573872889125871,,
,4098.0,869.0,3253.0,829.0,2172.0,2740.0,1867.0,,,,-0.0763425030341595,-2.3904076700961,0.0553491501733204,,0.8790727915404954,,
,4096.0,874.0,3255.0,829.0,2163.0,2732.0,1858.0,,,,-0.0763056929091919,-2.39077370925644,0.0555097563569385,,1.087741345952706,,
,4098.0,869.0,3253.0,829.0,2157.0,2744.0,1845.0,,,,-0.0763346646665389,-2.39093782720578,0.0556320448372663,,1.2771963224258334,,
,4097.0,869.0,3252.0,826.0,2152.0,2750.0,1856.0,,,,-0.0763661275390549,-2.39045737517945,0.0551254617465959,,1.4415429526993981,,
,4096.0,870.0,3253.0,830.0,2157.0,2736.0,1855.0,,,,-0.0763682435805698,-2.39043962374375,0.0551390490648718,,1.575463140785047,,
,4100.0,872.0,3253.0,828.0,2161.0,2732.0,1860.0,,,,-0.0763439428866635,-2.3900482574832,0.0552957011391245,,1.6744863014812335,,
,4098.0,871.0,3253.0,827.0,2164.0,2731.0,1863.0,,,,-0.0765709420176788,-2.3900840065244,0.0551887676653709,,1.7352368497084898,,
,4097.0,868.0,3251.0,826.0,2157.0,2751.0,1852.0,,,,-0.0765290286625104,-2.38995359105962,0.0552813650582222,,1.755636481886017,,
,4098.0,870.0,3253.0,829.0,2163.0,2742.0,1870.0,,,,-0.0761007738732709,-2.39006145525868,0.0554088572918286,,1.7350401065752088,,
,4100.0,870.0,3251.0,828.0,2161.0,2728.0,1871.0,,,,-0.0762072200315885,-2.38978297008685,0.0554691730812069,,1.6742887460593143,,
,4101.0,871.0,3253.0,831.0,2158.0,2735.0,1859.0,,,,-0.0761321356033402,-2.39008911984971,0.0553318996307047,,1.5756705171550445,,
2025-08-20 18:35:41,4101.0,871.0,3252.0,827.0,2152.0,2749.0,1860.0,,,2025/08/20 06:35:41 PM,-0.0761686946525271,-2.38992336839278,0.05524300739006,,1.4427905299681567,,
,4099.0,871.0,3252.0,829.0,2165.0,2760.0,1857.0,,,,-0.0761069052637438,-2.39027158938932,0.0552365717980087,,1.2803602571496366,,
,4103.0,870.0,3256.0,829.0,2165.0,2750.0,1833.0,,,,-0.0761336776043262,-2.38978961193396,0.0554468293439044,,1.093924724695315,,
,4101.0,870.0,3252.0,827.0,2157.0,2742.0,1842.0,,,,-0.0761060600091269,-2.38988463939274,0.0551619802605474,,0.88955065618989,,
,4099.0,871.0,3253.0,828.0,2161.0,2749.0,1857.0,,,,-0.0760714632843094,-2.38957267725422,0.0554130345812912,,0.6735005000110615,,
,4102.0,873.0,3251.0,828.0,2159.0,2750.0,1854.0,,,,-0.0761317371547334,-2.38944925224385,0.055369489117469,,0.4519168293502348,,
,4106.0,872.0,3252.0,830.0,2169.0,2745.0,1876.0,,,,-0.0759155810609959,-2.38989765251577,0.0555038025337765,,0.23053957612206477,,
,4107.0,873.0,3253.0,831.0,2173.0,2741.0,1870.0,,,,-0.0759236085674379,-2.3898836534954,0.0554777923379177,,0.014475051225767773,,
,4105.0,873.0,3253.0,830.0,2175.0,2747.0,1885.0,,,,-0.075842935866088,-2.39007632388605,0.0555404149302995,,-0.19196948994851623,,
,4104.0,870.0,3252.0,828.0,2164.0,2754.0,1873.0,,,,-0.0758680693749576,-2.38961365045043,0.0555869089062885,,-0.38537878102966566,,
,4104.0,871.0,3255.0,828.0,2174.0,2742.0,1877.0,,,,-0.0760872517142901,-2.38977177635937,0.055343324845484,,-0.5632506500230254,,
,4109.0,875.0,3255.0,831.0,2170.0,2736.0,1888.0,,,,-0.0759665665823265,-2.38906837439699,0.0554111905705947,,-0.723953039762155,,
,4109.0,874.0,3253.0,829.0,2173.0,2731.0,1880.0,,,,-0.0760464954884655,-2.38905211300059,0.0554517159322972,,-0.8666297834927184,,
,4110.0,876.0,3255.0,830.0,2169.0,2731.0,1868.0,,,,-0.0761356666214298,-2.38904989944353,0.0550760549939517,,-0.9910702790982416,,
,4112.0,874.0,3256.0,828.0,2171.0,2737.0,1857.0,,,,-0.0761013975637771,-2.3893958798987,0.0555121470673029,,-1.097557848364355,,
,4113.0,874.0,3255.0,829.0,2180.0,2734.0,1871.0,,,,-0.0760348495247684,-2.38919441114528,0.055244566312315,,-1.1867095774607834,,
,4113.0,873.0,3253.0,830.0,2178.0,2740.0,1868.0,,,,-0.0760667076598182,-2.38916545968413,0.0554796225011405,,-1.2593182051535625,,
,4113.0,876.0,3254.0,830.0,2159.0,2724.0,1850.0,,,,-0.0760729544544572,-2.38899684332429,0.0555743042921598,,-1.3162051150907659,,
,4113.0,875.0,3254.0,830.0,2185.0,2742.0,1852.0,,,,-0.075955440519098,-2.38913453637885,0.0553587769619795,,-1.358092735722452,,
,4114.0,877.0,3257.0,831.0,2176.0,2744.0,1858.0,,,,-0.0759616510011369,-2.38905982235047,0.055452209119248,,-1.3855040005757358,,
,4118.0,875.0,3256.0,831.0,2174.0,2749.0,1863.0,,,,-0.0760983182180112,-2.38893250640634,0.055542894972684,,-1.3986952521323186,,
,4121.0,875.0,3257.0,831.0,2180.0,2744.0,1867.0,,,,-0.0760965358418316,-2.38922260301116,0.0553604351090738,,-1.397626754220201,,
,4119.0,874.0,3256.0,828.0,2188.0,2742.0,1862.0,,,,-0.0759114463744631,-2.3885055151057,0.055379026383925,,-1.3819719478199055,,
,4117.0,876.0,3256.0,830.0,2178.0,2759.0,1865.0,,,,-0.0759098582679358,-2.3884359064371,0.0554470214144211,,-1.3511631862963096,,
,4119.0,876.0,3260.0,831.0,2170.0,2752.0,1876.0,,,,-0.0759705456343019,-2.38866270021864,0.0553480421155846,,-1.3044684712284265,,
,4122.0,877.0,3258.0,831.0,2178.0,2754.0,1866.0,,,,-0.0759888459817793,-2.38896561022394,0.0556365382993656,,-1.2410912176752595,,
,4123.0,876.0,3258.0,831.0,2182.0,2767.0,1873.0,,,,-0.0759288881679073,-2.38886258722062,0.0553515577987826,,-1.1602837378155098,,
,4124.0,876.0,3257.0,828.0,2178.0,2750.0,1852.0,,,,-0.0758670904285247,-2.38873492157076,0.0555590266612845,,-1.0614651339069499,,
,4125.0,877.0,3258.0,831.0,2173.0,2734.0,1841.0,,,,-0.0758821156508552,-2.38834510216683,0.055346101173854,,-0.9443354563866049,,
,4125.0,876.0,3258.0,830.0,2180.0,2736.0,1841.0,,,,-0.0759932903783413,-2.38837339205899,0.0553959795777226,,-0.8089797565265759,,
,4124.0,878.0,3259.0,828.0,2183.0,2737.0,1850.0,,,,-0.0759913601630534,-2.38853996294046,0.0556911316324539,,-0.655957320836267,,
,4126.0,877.0,3257.0,831.0,2167.0,2733.0,1855.0,,,,-0.0759464096646985,-2.38873170822987,0.0557495499205138,,-0.4863724120993975,,
,4129.0,881.0,3262.0,833.0,2181.0,2738.0,1869.0,,,,-0.0762045631192458,-2.38873769011186,0.055450453932723,,-0.30192329694677894,,
,4131.0,880.0,3260.0,831.0,2178.0,2762.0,1887.0,,,,-0.0760550274450474,-2.38865494531631,0.0557281519823202,,-0.10492668705441079,,
,4131.0,881.0,3263.0,832.0,2176.0,2755.0,1881.0,,,,-0.0759366411265923,-2.38831317005521,0.0555360668764197,,0.10168463925433431,,
,4129.0,880.0,3262.0,829.0,2171.0,2763.0,1884.0,,,,-0.0757622363783101,-2.38833745427031,0.0555439854419226,,0.314392405696449,,
,4134.0,879.0,3262.0,832.0,2167.0,2737.0,1861.0,,,,-0.0757980355588186,-2.38880140881235,0.0554858145125128,,0.5291522709989048,,
,4131.0,881.0,3263.0,832.0,2187.0,2745.0,1863.0,,,,-0.0757700273777273,-2.38967732143081,0.0555303990627142,,0.7414824812590668,,
,4134.0,882.0,3263.0,834.0,2183.0,2752.0,1843.0,,,,-0.0757772547516922,-2.38875022802085,0.0556698784669486,,0.9465819009971913,,
,4134.0,882.0,3262.0,832.0,2170.0,2738.0,1842.0,,,,-0.0758013611546997,-2.38813566899671,0.0558187109781302,,1.13947694756732,,
,4130.0,880.0,3263.0,833.0,2180.0,2744.0,1845.0,,,,-0.0757547425203717,-2.38837789821535,0.0554530137453628,,1.315195392904124,,
,4131.0,882.0,3261.0,832.0,2163.0,2741.0,1850.0,,,,-0.0757922085348727,-2.38805440008393,0.055601716720909,,1.4689623733262722,,
,4128.0,878.0,3261.0,832.0,2164.0,2751.0,1843.0,,,,-0.07559380252141,-2.38858378229897,0.0555690238641087,,1.5964105294704003,,
,4123.0,878.0,3259.0,831.0,2167.0,2763.0,1841.0,,,,-0.0757079948072758,-2.38820859020789,0.0556095334375863,,1.6937925495019455,,
,4119.0,875.0,3257.0,826.0,2182.0,2737.0,1829.0,,,,-0.0756776188145281,-2.38807054636455,0.0554940963580184,,1.7581812115754527,,
,4116.0,874.0,3255.0,827.0,2180.0,2741.0,1849.0,,,,-0.0756476617590783,-2.38760485745228,0.0557926612392813,,1.7876400289449832,,
,4113.0,872.0,3252.0,825.0,2180.0,2723.0,1850.0,,,,-0.0757332196319509,-2.3878605069439,0.0555457704073942,,1.78134745360365,,
,4109.0,873.0,3251.0,826.0,2175.0,2732.0,1848.0,,,,-0.0756496673187229,-2.38814034433272,0.0557040959704211,,1.739659808262801,,
,4104.0,870.0,3248.0,824.0,2176.0,2746.0,1864.0,,,,-0.0756397001991591,-2.38792051692387,0.0555909985906722,,1.6641028767765151,,
,4102.0,869.0,3247.0,824.0,2173.0,2740.0,1838.0,,,,-0.0757025356438669,-2.38789445042222,0.0557718871959366,,1.5572890748697708,,
,4100.0,870.0,3245.0,826.0,2176.0,2718.0,1837.0,,,,-0.0754605879506871,-2.38783502975649,0.0556357181903159,,1.422765475689848,,
,4096.0,870.0,3243.0,822.0,2180.0,2723.0,1837.0,,,,-0.0756311617950789,-2.38765573437001,0.0556436062949952,,1.264806265120927,,
,4091.0,867.0,3243.0,823.0,2191.0,2732.0,1832.0,,,,-0.0754607681114433,-2.38689784824029,0.0557678906559624,,1.0881697124238001,,
,4092.0,866.0,3239.0,820.0,2191.0,2736.0,1832.0,,,,-0.0755538834225904,-2.38750901709907,0.055779598019226,,0.8978430168442872,,
,4091.0,866.0,3243.0,824.0,2200.0,2734.0,1848.0,,,,-0.0755350087357321,-2.38750123268836,0.0557005642428431,,0.6987979236497135,,
,4088.0,867.0,3238.0,821.0,2201.0,2745.0,1854.0,,,,-0.0756528835815605,-2.38835151662797,0.0555050440704101,,0.4957762825691994,,
,4085.0,864.0,3236.0,818.0,2183.0,2763.0,1832.0,,,,-0.0757172913149293,-2.38854235948382,0.0554876921231089,,0.2931187896701449,,
,4085.0,864.0,3236.0,819.0,2173.0,2759.0,1840.0,,,,-0.0759676774483513,-2.38877483492082,0.0553916895413706,,0.09464325966501495,,
,4082.0,863.0,3239.0,819.0,2174.0,2746.0,1850.0,,,,-0.0759386627678103,-2.38950536335057,0.0555505139050628,,-0.0964277700504948,,
,4084.0,866.0,3234.0,820.0,2179.0,2739.0,1847.0,,,,-0.0760950332506935,-2.38970779494044,0.0554136236141228,,-0.27749537710322264,,
,4083.0,862.0,3234.0,819.0,2173.0,2736.0,1842.0,,,,-0.0762765096048897,-2.39036021839775,0.0551715671923435,,-0.4465767770723427,,
,4078.0,864.0,3234.0,820.0,2176.0,2745.0,1841.0,,,,-0.0763941699526031,-2.39087759298924,0.0550575084318548,,-0.6022710796866239,,
,4078.0,862.0,3231.0,820.0,2170.0,2747.0,1835.0,,,,-0.0764996903622563,-2.39032989920427,0.0550902874004593,,-0.7437063496181263,,
,4080.0,865.0,3233.0,821.0,2186.0,2752.0,1821.0,,,,-0.0762958904730055,-2.3911947431633,0.0549309857603354,,-0.8704739364191397,,
,4078.0,863.0,3233.0,818.0,2193.0,2733.0,1834.0,,,,-0.0763973976780076,-2.39123118460851,0.0549370654180154,,-0.982553585162853,,
,4077.0,862.0,3231.0,816.0,2176.0,2730.0,1836.0,,,,-0.0764865922993879,-2.39119039995814,0.055119004441124,,-1.0802308672084293,,
,4077.0,865.0,3231.0,819.0,2169.0,2739.0,1847.0,,,,-0.0765459231445561,-2.3918789016649,0.0548159031685715,,-1.1640076982009033,,
,4074.0,862.0,3229.0,818.0,2162.0,2724.0,1850.0,,,,-0.0767917940833626,-2.39199484095016,0.0546719608355313,,-1.2345074560174658,,
,4077.0,860.0,3230.0,817.0,2169.0,2728.0,1834.0,,,,-0.0769093802102905,-2.39185752674838,0.0545836063150268,,-1.2923781381696446,,
,4075.0,862.0,3226.0,817.0,2184.0,2713.0,1841.0,,,,-0.0766458953793828,-2.39178398355241,0.0549816591648415,,-1.3381992066471737,,
,4076.0,860.0,3229.0,817.0,2189.0,2724.0,1824.0,,,,-0.0766048358860651,-2.3917475219961,0.0548718150771547,,-1.372399254459413,,
,4074.0,861.0,3225.0,816.0,2176.0,2735.0,1843.0,,,,-0.0765955983346594,-2.39186973872343,0.0547191873204519,,-1.395191775670722,,
,4075.0,864.0,3227.0,819.0,2183.0,2741.0,1840.0,,,,-0.0766304520045745,-2.39168525312409,0.0550931705308222,,-1.4065350930906215,,
,4073.0,864.0,3225.0,815.0,2184.0,2758.0,1848.0,,,,-0.076653423004733,-2.3917505988192,0.0550279203989807,,-1.4061202818067273,,
,4071.0,860.0,3222.0,814.0,2193.0,2755.0,1838.0,,,,-0.0766881777370655,-2.39141170886898,0.0547040791990406,,-1.393388231848413,,
,4071.0,861.0,3225.0,816.0,2187.0,2739.0,1834.0,,,,-0.0765400383156937,-2.39116205316846,0.0551376923638162,,-1.3675742495721785,,
,4068.0,861.0,3226.0,816.0,2198.0,2736.0,1834.0,,,,-0.0765075820364104,-2.39102449858616,0.0548578444759159,,-1.3277761228738747,,
,4071.0,862.0,3225.0,816.0,2196.0,2736.0,1840.0,,,,-0.0764803072254302,-2.39126673330574,0.054910633398195,,-1.2730396119203835,,
,4066.0,860.0,3224.0,817.0,2185.0,2727.0,1831.0,,,,-0.0763603995396477,-2.39081691489944,0.0551139653041861,,-1.202454054480723,,
,4066.0,859.0,3225.0,814.0,2174.0,2731.0,1841.0,,,,-0.0765538611874048,-2.39113458379701,0.0550394330402753,,-1.1152503150769255,,
,4068.0,863.0,3222.0,815.0,2186.0,2730.0,1821.0,,,,-0.076500570136609,-2.39092236947903,0.0548453841062014,,-1.0108937392274921,,
,4068.0,861.0,3224.0,813.0,2188.0,2730.0,1818.0,,,,-0.0763670656524198,-2.39101628649347,0.0549725841559291,,-0.8891661199516866,,
,4064.0,858.0,3218.0,813.0,2171.0,2750.0,1815.0,,,,-0.0763402249542204,-2.39086319875565,0.0551036218929876,,-0.7502328454793527,,
,4063.0,859.0,3221.0,812.0,2173.0,2752.0,1832.0,,,,-0.0763395417566922,-2.3906216232894,0.055030161684866,,-0.5946940710308419,,
,4067.0,860.0,3222.0,814.0,2186.0,2750.0,1844.0,,,,-0.0762880065992561,-2.3907176491641,0.0550191822104711,,-0.42362136095567304,,
,4065.0,858.0,3217.0,815.0,2180.0,2748.0,1844.0,,,,-0.076389954872367,-2.39012911493504,0.0552583387711908,,-0.23858297724301583,,
,4063.0,858.0,3217.0,814.0,2188.0,2745.0,1821.0,,,,-0.0761874491505649,-2.39022623389021,0.0550250714006199,,-0.04166112641494101,,
,4061.0,856.0,3215.0,811.0,2185.0,2714.0,1821.0,,,,-0.0762345164565893,-2.39031209021011,0.0551554508170481,,0.16453721262545373,,
,4063.0,858.0,3216.0,810.0,2189.0,2722.0,1845.0,,,,-0.0761725409189857,-2.39047185237242,0.055179451805816,,0.37687732423060677,,
,4062.0,860.0,3216.0,815.0,2197.0,2721.0,1818.0,,,,-0.076210865640912,-2.39053047873306,0.0553259577639468,,0.5917065828617828,,
,4063.0,858.0,3216.0,812.0,2199.0,2725.0,1819.0,,,,-0.0760413628622463,-2.39021496216527,0.0552599088281925,,0.8048848122778395,,
,4061.0,857.0,3213.0,811.0,2188.0,2751.0,1834.0,,,,-0.0761012735388184,-2.39005082114721,0.0551781668996856,,1.011844208241446,,
,4059.0,859.0,3214.0,813.0,2188.0,2750.0,1831.0,,,,-0.0760612683018585,-2.39052554196879,0.055114058862036,,1.2076871723866938,,
,4062.0,858.0,3214.0,813.0,2202.0,2742.0,1840.0,,,,-0.0760629212212083,-2.39031659287374,0.0550817945344473,,1.3873277005064117,,
,4065.0,860.0,3216.0,814.0,2200.0,2734.0,1831.0,,,,-0.0760743351217039,-2.38990023273696,0.0550974625844013,,1.5456775078813731,,
,4065.0,861.0,3214.0,813.0,2200.0,2713.0,1848.0,,,,-0.076109979229987,-2.39049650109882,0.05506435678762,,1.6778723166321068,,
,4066.0,857.0,3214.0,810.0,2201.0,2737.0,1824.0,,,,-0.0759937985721069,-2.39019500464698,0.0552315348482533,,1.7795272651018734,,
,4064.0,859.0,3214.0,813.0,2186.0,2739.0,1822.0,,,,-0.0759780284462176,-2.39061526140259,0.0548903977410471,,1.8470039661441444,,
,4065.0,860.0,3217.0,816.0,2182.0,2752.0,1828.0,,,,-0.0760653350178166,-2.39003584272186,0.0551427701837869,,1.8776662394858556,,
,4064.0,860.0,3213.0,814.0,2192.0,2724.0,1849.0,,,,-0.0761413159625847,-2.38986817800888,0.0553563983228043,,1.870097987143227,,
,4066.0,859.0,3216.0,812.0,2196.0,2720.0,1840.0,,,,-0.0762370736699487,-2.38994497897052,0.0552034665811943,,1.824256168651459,,
,4068.0,859.0,3213.0,812.0,2192.0,2733.0,1834.0,,,,-0.0761666391299669,-2.38981910334138,0.0552666225744576,,1.7415354240643077,,
,4067.0,863.0,3214.0,815.0,2197.0,2734.0,1827.0,,,,-0.0760383103512002,-2.38959446931251,0.0555775318086609,,1.624729118501954,,
,4069.0,866.0,3213.0,814.0,2197.0,2745.0,1831.0,,,,-0.0761415447144385,-2.38953361554506,0.0552699086029353,,1.4778837546438628,,
,4068.0,861.0,3213.0,815.0,2192.0,2765.0,1847.0,,,,-0.0761088463202649,-2.3894078924504,0.0554558314790641,,1.3060576827423833,,
,4070.0,858.0,3214.0,813.0,2183.0,2754.0,1852.0,,,,-0.0760810608132755,-2.38968403998733,0.0552337872013797,,1.115007858225056,,
,4070.0,863.0,3215.0,814.0,2192.0,2741.0,1833.0,,,,-0.0758891541387112,-2.38938369818847,0.0550820547578479,,0.9108373167081472,,
,4070.0,862.0,3214.0,815.0,2191.0,2749.0,1826.0,,,,-0.0758403113692311,-2.38939936354742,0.0554952810930045,,0.6996393886562128,,
,4070.0,860.0,3211.0,813.0,2189.0,2758.0,1838.0,,,,-0.0757334341861269,-2.38912571894818,0.0556137009864839,,0.4871721646885947,,
,4071.0,860.0,3213.0,813.0,2174.0,2750.0,1822.0,,,,-0.0758017451736756,-2.38882252919474,0.0555113500617975,,0.27858935335579554,,
,4072.0,861.0,3216.0,814.0,2183.0,2761.0,1823.0,,,,-0.075713282021873,-2.38860596305322,0.0555502902831812,,0.07824346745188286,,
,4073.0,864.0,3216.0,818.0,2207.0,2755.0,1819.0,,,,-0.075710333256996,-2.38823793827695,0.0556916853461754,,-0.11043328067738696,,
,4074.0,865.0,3217.0,817.0,2205.0,2768.0,1843.0,,,,-0.0755544689020627,-2.38822720058881,0.0554080845346273,,-0.28497368878103974,,
,4073.0,860.0,3211.0,813.0,2195.0,2766.0,1856.0,,,,-0.0754773616878856,-2.38793722871421,0.0556046550822703,,-0.4438547285458329,,
,4077.0,863.0,3213.0,815.0,2198.0,2745.0,1854.0,,,,-0.0755420239339435,-2.38808758498491,0.0558493105674883,,-0.5864223000506718,,
,4076.0,864.0,3215.0,815.0,2200.0,2745.0,1856.0,,,,-0.0755091533231054,-2.38786757863321,0.0556262818377599,,-0.7127727458202218,,
,4078.0,864.0,3214.0,816.0,2194.0,2749.0,1848.0,,,,-0.0753308165441967,-2.38780311944163,0.0558740910468265,,-0.8236015748739843,,
,4074.0,862.0,3215.0,810.0,2186.0,2738.0,1843.0,,,,-0.0753073072663919,-2.38750975788325,0.0558848783730395,,-0.9200295601201427,,
,4081.0,862.0,3216.0,813.0,2188.0,2766.0,1845.0,,,,-0.0751791275646136,-2.38762514727418,0.055712474080336,,-1.0034168107251735,,
,4078.0,865.0,3216.0,817.0,2191.0,2780.0,1835.0,,,,-0.0752581625279549,-2.38774141056758,0.0555916321040583,,-1.0751760970356912,,
,4079.0,864.0,3218.0,815.0,2196.0,2771.0,1844.0,,,,-0.0752509312634331,-2.3875234849214,0.055887256558133,,-1.1365969404267435,,
,4079.0,863.0,3213.0,813.0,2185.0,2765.0,1845.0,,,,-0.0753423129310259,-2.38732961479277,0.0557506202361952,,-1.1886914062813785,,
,4079.0,863.0,3212.0,813.0,2177.0,2753.0,1852.0,,,,-0.0752925532479704,-2.38743214948338,0.0560247818755279,,-1.232071193967568,,
,4082.0,864.0,3215.0,816.0,2184.0,2750.0,1847.0,,,,-0.075078179963271,-2.38705243443798,0.0558988899135154,,-1.2668637464035155,,
,4081.0,865.0,3218.0,818.0,2191.0,2743.0,1856.0,,,,-0.0750118782111959,-2.38688093515093,0.0558439037405172,,-1.2926729097667118,,
,4085.0,865.0,3217.0,815.0,2180.0,2752.0,1863.0,,,,-0.0748742830635818,-2.38709167271495,0.0558912689453248,,-1.3085872244932735,,
,4083.0,863.0,3212.0,815.0,2161.0,2743.0,1863.0,,,,-0.0751884381366324,-2.38715939184713,0.0561378391212705,,-1.31323618267692,,
,4086.0,868.0,3216.0,815.0,2179.0,2746.0,1860.0,,,,-0.0751082526326066,-2.38653534796866,0.0562011556107451,,-1.3048916885600925,,
2025-08-20 18:35:42,4086.0,865.0,3215.0,814.0,2166.0,2725.0,1861.0,,,2025/08/20 06:35:42 PM,-0.0752885913246427,-2.38667393446685,0.0557098555384965,,-1.2816085086887548,,
,4087.0,867.0,3216.0,817.0,2160.0,2727.0,1870.0,,,,-0.0751572519640995,-2.3865790283024,0.0560702295550161,,-1.2413938363359172,,
,4087.0,866.0,3216.0,817.0,2170.0,2741.0,1851.0,,,,-0.0750441636755203,-2.38643546124742,0.0561507388779209,,-1.182392613946293,,
,4087.0,868.0,3219.0,818.0,2184.0,2738.0,1833.0,,,,-0.0749579586234621,-2.38625632796288,0.0562030757079845,,-1.1030727110411427,,
,4089.0,869.0,3216.0,816.0,2184.0,2738.0,1844.0,,,,-0.0748993492328553,-2.38641982670336,0.0559934467403787,,-1.0023934951683051,,
,4091.0,867.0,3221.0,815.0,2178.0,2718.0,1841.0,,,,-0.0750625644062504,-2.38655642602488,0.0559537124380647,,-0.8799436230432148,,
,4090.0,867.0,3215.0,813.0,2174.0,2721.0,1836.0,,,,-0.0747955358645634,-2.38668390928186,0.0561654112711739,,-0.7360388935383727,,
,4093.0,868.0,3220.0,816.0,2192.0,2731.0,1840.0,,,,-0.074695100482602,-2.3865725113055,0.0561348509237748,,-0.5717772977278593,,
,4093.0,867.0,3222.0,817.0,2211.0,2731.0,1843.0,,,,-0.0747054717893853,-2.38647923831285,0.0556561531821672,,-0.3890539060704695,,
,4096.0,871.0,3220.0,816.0,2206.0,2730.0,1841.0,,,,-0.074820549724226,-2.38667898781485,0.055942893861129,,-0.19054143553935385,,
,4095.0,870.0,3218.0,815.0,2202.0,2754.0,1844.0,,,,-0.0746855335884678,-2.38600681973035,0.0560314724070516,,0.020357087423722012,,
,4096.0,867.0,3219.0,815.0,2192.0,2752.0,1849.0,,,,-0.0746434146046907,-2.38634242996548,0.0561820038097194,,0.23957856214881953,,
,4093.0,869.0,3221.0,817.0,2196.0,2754.0,1841.0,,,,-0.0746039510553955,-2.38641362915604,0.056098296991151,,0.4624903063612732,,
,4095.0,867.0,3218.0,816.0,2196.0,2767.0,1829.0,,,,-0.0743869286768967,-2.3862944579221,0.0562520843130076,,0.68400053137718,,
,4095.0,868.0,3219.0,818.0,2195.0,2768.0,1818.0,,,,-0.0745426019938041,-2.38566962773539,0.0559789017305586,,0.8986901783892803,,
,4091.0,863.0,3214.0,814.0,2208.0,2763.0,1826.0,,,,-0.0744584146251541,-2.38543850393875,0.0562181265055201,,1.1009679770507097,,
,4090.0,867.0,3218.0,813.0,2198.0,2760.0,1810.0,,,,-0.074669965082154,-2.38604397056188,0.0562597673691158,,1.28524968611469,,
,4085.0,865.0,3216.0,815.0,2192.0,2756.0,1822.0,,,,-0.0746446007266716,-2.3860428544997,0.0562974161273313,,1.4461602131477693,,
,4084.0,864.0,3213.0,814.0,2191.0,2753.0,1828.0,,,,-0.0746522913362101,-2.38617877915366,0.0560737131187623,,1.5787539199327398,,
,4077.0,860.0,3210.0,812.0,2184.0,2766.0,1823.0,,,,-0.0747309320738724,-2.38604600605285,0.0561465452768692,,1.678744275357274,,
,4073.0,860.0,3208.0,809.0,2185.0,2751.0,1835.0,,,,-0.0747822128535594,-2.38588805825756,0.0560543199758687,,1.7427295852611453,,
,4073.0,861.0,3208.0,810.0,2186.0,2741.0,1829.0,,,,-0.074664399933728,-2.38589973403,0.0562248287491601,,1.76839750035239,,
,4066.0,857.0,3203.0,810.0,2186.0,2742.0,1824.0,,,,-0.0744169504355866,-2.386324460667,0.0562475502976891,,1.7546884950237747,,
,4067.0,858.0,3201.0,809.0,2185.0,2726.0,1820.0,,,,-0.0744169164367489,-2.38622114707088,0.0561597114034061,,1.7018988917161675,,
,4056.0,855.0,3200.0,809.0,2175.0,2734.0,1835.0,,,,-0.0744225642434028,-2.38628786074315,0.0562924959594931,,1.6117081982157633,,
,4057.0,855.0,3200.0,808.0,2175.0,2749.0,1832.0,,,,-0.0744715637850134,-2.38632399336872,0.0562802371100798,,1.4871232429265555,,
,4057.0,855.0,3197.0,809.0,2183.0,2738.0,1837.0,,,,-0.0744052079650641,-2.3862196004812,0.0562299926105457,,1.3323411460825483,,
,4055.0,855.0,3196.0,805.0,2191.0,2731.0,1844.0,,,,-0.0744108206874228,-2.38634211482361,0.0562425780668288,,1.1525420751715059,,
,4052.0,851.0,3192.0,807.0,2198.0,2742.0,1844.0,,,,-0.0744081441654262,-2.38566984808805,0.0563210485659219,,0.9536289052956896,,
,4049.0,854.0,3193.0,805.0,2201.0,2745.0,1852.0,,,,-0.0743574480956921,-2.3860707631245,0.0560444667352838,,0.7419335803113225,,
,4050.0,852.0,3192.0,806.0,2191.0,2761.0,1845.0,,,,-0.0743812733238618,-2.38622048636345,0.0562905909536642,,0.5239097661740655,,
,4049.0,852.0,3192.0,805.0,2192.0,2762.0,1848.0,,,,-0.0743470049745287,-2.38624232534502,0.0561039192383139,,0.3058295868730359,,
,4046.0,853.0,3189.0,803.0,2187.0,2752.0,1859.0,,,,-0.0747455362008822,-2.38659352556891,0.055885171340653,,0.09350003562406325,,
,4044.0,852.0,3191.0,806.0,2179.0,2753.0,1851.0,,,,-0.0747844524235419,-2.38693208090413,0.0558008891713733,,-0.10798720198955442,,
,4044.0,853.0,3192.0,804.0,2177.0,2751.0,1834.0,,,,-0.0750523508312436,-2.38709276224901,0.055972896706569,,-0.29446010588490146,,
,4046.0,854.0,3191.0,806.0,2176.0,2737.0,1829.0,,,,-0.0751768614771212,-2.38786001169691,0.0556163615734918,,-0.46281360261447635,,
,4044.0,852.0,3191.0,805.0,2164.0,2730.0,1841.0,,,,-0.0752821569009511,-2.38874415237946,0.0554052155067438,,-0.6110902306247424,,
,4041.0,850.0,3187.0,805.0,2165.0,2731.0,1841.0,,,,-0.0755761248469185,-2.38877815885089,0.0555795874108695,,-0.7384877552585924,,
,4044.0,853.0,3188.0,806.0,2166.0,2748.0,1841.0,,,,-0.0756247763224134,-2.38898690132603,0.055586506734151,,-0.8452921436814799,,
,4043.0,851.0,3189.0,805.0,2186.0,2738.0,1846.0,,,,-0.0756850311028925,-2.38986403782165,0.055241381340166,,-0.9327404016473209,,
,4044.0,851.0,3186.0,803.0,2187.0,2727.0,1860.0,,,,-0.075925869510551,-2.39022755650546,0.0551561519245464,,-1.0028239288109404,,
,4040.0,852.0,3184.0,802.0,2175.0,2722.0,1855.0,,,,-0.0760638055949026,-2.39084453940346,0.0549550443242509,,-1.058048018568291,,
,4043.0,852.0,3184.0,804.0,2164.0,2743.0,1860.0,,,,-0.0762532418344612,-2.39115197840683,0.0552010472006296,,-1.1011662099600763,,
,4041.0,851.0,3184.0,803.0,2178.0,2761.0,1851.0,,,,-0.0762762967822801,-2.39148553079001,0.0549380952519797,,-1.1349094055595519,,
,4041.0,851.0,3183.0,803.0,2182.0,2762.0,1859.0,,,,-0.0761899603892141,-2.391684334934,0.0548793849407875,,-1.161729432413952,,
,4038.0,849.0,3180.0,802.0,2187.0,2769.0,1862.0,,,,-0.0761738777779813,-2.39255873450134,0.0549217125631787,,-1.1835754707362025,,
,4037.0,849.0,3181.0,802.0,2173.0,2763.0,1848.0,,,,-0.0762835575339996,-2.39217303182496,0.0548757873784017,,-1.2017197012395886,,
,4037.0,851.0,3181.0,802.0,2182.0,2771.0,1838.0,,,,-0.0762554311710024,-2.39257800364286,0.0549251596603275,,-1.216645583520356,,
,4039.0,851.0,3184.0,805.0,2174.0,2767.0,1832.0,,,,-0.0762158576429972,-2.39251035889465,0.05478893554957,,-1.22800819364313,,
,4036.0,849.0,3180.0,802.0,2177.0,2757.0,1842.0,,,,-0.0763438459135304,-2.39198917585088,0.0546128438779939,,-1.2346708517254497,,
,4034.0,849.0,3179.0,798.0,2170.0,2745.0,1867.0,,,,-0.0763544203604203,-2.39238287588671,0.0546668497685785,,-1.2348158921246024,,
,4038.0,850.0,3179.0,802.0,2177.0,2747.0,1855.0,,,,-0.076157777997773,-2.39240852826735,0.0546564232351337,,-1.226120260142388,,
,4037.0,849.0,3177.0,801.0,2178.0,2727.0,1834.0,,,,-0.0762149307877007,-2.39182296247387,0.0549562581611774,,-1.2059794965765418,,
,4033.0,848.0,3179.0,803.0,2188.0,2724.0,1837.0,,,,-0.0761477276042379,-2.39208165005445,0.0550268160691363,,-1.1717578380342404,,
,4034.0,847.0,3177.0,800.0,2177.0,2745.0,1864.0,,,,-0.0762583619260893,-2.39224808225402,0.0547836545133557,,-1.121038965586474,,
,4033.0,850.0,3179.0,804.0,2175.0,2732.0,1836.0,,,,-0.076257587076803,-2.39228118712268,0.0549403873933552,,-1.0518523010775749,,
,4033.0,848.0,3177.0,803.0,2179.0,2729.0,1815.0,,,,-0.0763050392830796,-2.3922809504244,0.0548276830757451,,-0.962853774768521,,
,4033.0,850.0,3175.0,800.0,2184.0,2735.0,1820.0,,,,-0.0761970776757355,-2.39254088488855,0.0547794250235239,,-0.853446954787703,,
,4029.0,847.0,3174.0,800.0,2180.0,2746.0,1826.0,,,,-0.076304286948141,-2.39264972664848,0.0545817761716209,,-0.7238391077879126,,
,4031.0,848.0,3174.0,799.0,2172.0,2735.0,1840.0,,,,-0.0764633159398905,-2.39227137407738,0.0546803197817996,,-0.5750356743864061,,
,4031.0,849.0,3172.0,802.0,2178.0,2746.0,1847.0,,,,-0.0765564163353444,-2.39229305161113,0.0546087123284832,,-0.40878426924306865,,
,4031.0,847.0,3174.0,801.0,2187.0,2754.0,1852.0,,,,-0.0763964100594237,-2.3919666284011,0.0546607613081865,,-0.22748435926724067,,
,4031.0,846.0,3171.0,799.0,2184.0,2776.0,1847.0,,,,-0.0763501454180818,-2.39240556892453,0.0546740815114796,,-0.0340804993944312,,
,4030.0,845.0,3171.0,800.0,2177.0,2746.0,1852.0,,,,-0.0763440968472032,-2.39173887969837,0.0546788989132662,,0.16804460186905512,,
,4033.0,849.0,3172.0,800.0,2186.0,2758.0,1847.0,,,,-0.0763966979261425,-2.39200300591503,0.054695880075037,,0.37516528932600546,,
,4031.0,847.0,3172.0,801.0,2179.0,2763.0,1846.0,,,,-0.0762599065779803,-2.39232074762875,0.0547799712114412,,0.5832907866561345,,
,4032.0,848.0,3174.0,801.0,2197.0,2766.0,1827.0,,,,-0.0763343031671346,-2.39216896320274,0.0545657628804207,,0.7882269882564765,,
,4029.0,848.0,3173.0,800.0,2185.0,2753.0,1850.0,,,,-0.0763240662245484,-2.3922563288532,0.0545617104172677,,0.9856300198739221,,
,4034.0,851.0,3174.0,802.0,2182.0,2747.0,1862.0,,,,-0.0763738336365728,-2.39266059383226,0.0545623943386329,,1.171063924165251,,
,4035.0,848.0,3172.0,800.0,2191.0,2745.0,1846.0,,,,-0.0764183590592772,-2.39244651733357,0.054649664196587,,1.3400763534218336,,
,4033.0,849.0,3171.0,803.0,2192.0,2743.0,1854.0,,,,-0.0763338207373741,-2.39291610803244,0.0544958941809543,,1.488304038878622,,
,4033.0,848.0,3171.0,800.0,2192.0,2737.0,1856.0,,,,-0.0762240411258431,-2.39235682576221,0.0544671915220932,,1.6116141973872364,,
,4033.0,848.0,3172.0,800.0,2187.0,2750.0,1848.0,,,,-0.076329126066131,-2.39317303048038,0.0545445537913821,,1.706279963358138,,
,4035.0,847.0,3171.0,803.0,2179.0,2741.0,1822.0,,,,-0.0763974693663606,-2.39326098874584,0.0545203842840216,,1.7691791494032512,,
,4037.0,848.0,3172.0,802.0,2180.0,2736.0,1823.0,,,,-0.0764387711443882,-2.39302295955934,0.0545576306068422,,1.7979980990608813,,
,4035.0,847.0,3171.0,800.0,2183.0,2721.0,1843.0,,,,-0.0764714161060439,-2.39323594939024,0.0545018517753118,,1.7914176818315324,,
,4036.0,849.0,3172.0,800.0,2184.0,2734.0,1842.0,,,,-0.0764283073354256,-2.39317778845539,0.0546008659626356,,1.7492574851907823,,
,4038.0,850.0,3173.0,802.0,2188.0,2735.0,1842.0,,,,-0.0765070798737739,-2.39333149855439,0.0542477483166953,,1.6725571591716868,,
,4038.0,853.0,3173.0,803.0,2189.0,2728.0,1838.0,,,,-0.0765238880636165,-2.39358876750726,0.0543936342013559,,1.5635802228382525,,
,4040.0,849.0,3173.0,801.0,2187.0,2730.0,1826.0,,,,-0.0767261020035048,-2.39350906851722,0.0544124935135,,1.4257344122907503,,
,4040.0,848.0,3172.0,798.0,2166.0,2738.0,1823.0,,,,-0.0766877221488336,-2.39340033479599,0.0545111960601285,,1.2634122721633063,,
,4041.0,852.0,3176.0,802.0,2186.0,2750.0,1839.0,,,,-0.076493480882511,-2.39345697740427,0.0543442487383199,,1.0817644107393518,,
,4042.0,851.0,3173.0,802.0,2191.0,2760.0,1849.0,,,,-0.0765131078232563,-2.39400504581953,0.0544730201394857,,0.8864242831046487,,
,4042.0,853.0,3175.0,802.0,2183.0,2765.0,1855.0,,,,-0.0767288653920685,-2.39374338307115,0.054296930459739,,0.6832069924518028,,
,4043.0,850.0,3172.0,800.0,2167.0,2751.0,1870.0,,,,-0.0766142248641777,-2.39389343875339,0.0542608805070394,,0.47780564159188077,,
,4043.0,853.0,3171.0,799.0,2175.0,2756.0,1845.0,,,,-0.076747258955997,-2.39373500028728,0.0543086746186328,,0.27550776297331947,,
,4045.0,851.0,3174.0,802.0,2171.0,2751.0,1833.0,,,,-0.0767736907592935,-2.39381654693585,0.054266203571031,,0.08095168191405401,,
,4046.0,852.0,3174.0,802.0,2176.0,2746.0,1817.0,,,,-0.0767006376286037,-2.39394064320722,0.0541741268305111,,-0.10206149545821341,,
,4049.0,853.0,3177.0,803.0,2183.0,2756.0,1803.0,,,,-0.0766530056676473,-2.39368116448154,0.0541350636548247,,-0.2706899117521214,,
,4048.0,852.0,3176.0,802.0,2174.0,2737.0,1832.0,,,,-0.0768588288997044,-2.39348114912017,0.0545107029453026,,-0.42310247382502053,,
,4050.0,853.0,3178.0,803.0,2174.0,2714.0,1841.0,,,,-0.0768453763237329,-2.39368463988716,0.0542954348689575,,-0.5584608094612253,,
,4051.0,855.0,3175.0,802.0,2173.0,2724.0,1846.0,,,,-0.0765737582107329,-2.39364629120347,0.0543477207914346,,-0.676837195726954,,
,4053.0,852.0,3176.0,804.0,2178.0,2738.0,1839.0,,,,-0.0768263918761983,-2.39388202375792,0.0541660824453465,,-0.7790775426309816,,
,4053.0,851.0,3174.0,802.0,2181.0,2731.0,1840.0,,,,-0.0767679053457788,-2.39397449498641,0.0543765958297623,,-0.866621244262257,,
,4052.0,854.0,3174.0,804.0,2179.0,2733.0,1816.0,,,,-0.0767184000835553,-2.39394232416622,0.0543606844573869,,-0.9412918293894755,,
,4056.0,856.0,3180.0,803.0,2177.0,2751.0,1818.0,,,,-0.0769406510649389,-2.39384155114851,0.0543801323119065,,-1.0050739164476412,,
,4058.0,852.0,3178.0,802.0,2178.0,2744.0,1812.0,,,,-0.0769399202797482,-2.39366374694937,0.0543520955948893,,-1.0598929040811766,,
,4057.0,855.0,3176.0,800.0,2179.0,2751.0,1847.0,,,,-0.0767321788492544,-2.39385133003459,0.0543605806387562,,-1.1074138974911698,,
,4056.0,851.0,3178.0,802.0,2184.0,2746.0,1850.0,,,,-0.0766589253588255,-2.39363380051855,0.0542502300818215,,-1.1488753093822224,,
,4059.0,855.0,3180.0,806.0,2187.0,2745.0,1847.0,,,,-0.0766252681638417,-2.39360741477457,0.054273939242046,,-1.1849701222606783,,
,4059.0,856.0,3178.0,803.0,2181.0,2749.0,1849.0,,,,-0.0765977800050564,-2.39329603234205,0.0543691666588193,,-1.2157838292772227,,
,4059.0,857.0,3181.0,806.0,2179.0,2754.0,1839.0,,,,-0.0765783608836202,-2.39348378319644,0.0543472672964178,,-1.2407927292573948,,
,4062.0,857.0,3182.0,804.0,2183.0,2770.0,1824.0,,,,-0.0765453177437389,-2.39356027746675,0.0543733628062103,,-1.2589201053900843,,
,4062.0,858.0,3182.0,807.0,2169.0,2731.0,1812.0,,,,-0.0765261923645689,-2.39308145823009,0.0545176464762847,,-1.268641905063946,,
,4065.0,859.0,3182.0,805.0,2172.0,2707.0,1821.0,,,,-0.0765675446730514,-2.39284955487927,0.0545081533538839,,-1.268129066288227,,
,4067.0,860.0,3185.0,806.0,2168.0,2717.0,1835.0,,,,-0.0765026600094605,-2.39329127741665,0.0546672823929815,,-1.2554113514446579,,
,4068.0,859.0,3182.0,807.0,2170.0,2752.0,1829.0,,,,-0.0763522070794636,-2.39336469892231,0.0546780496689645,,-1.2285473636955941,,
,4067.0,859.0,3184.0,807.0,2177.0,2748.0,1855.0,,,,-0.0763995819705978,-2.39388991083031,0.0544596205324169,,-1.1857866955577094,,
,4072.0,858.0,3183.0,804.0,2172.0,2751.0,1842.0,,,,-0.0764926793992317,-2.39333656572557,0.0546242027305344,,-1.1257123018892177,,
,4071.0,861.0,3184.0,807.0,2181.0,2763.0,1831.0,,,,-0.0764108489053919,-2.39370697577072,0.0545311206952956,,-1.0473539839325847,,
,4071.0,858.0,3186.0,804.0,2181.0,2767.0,1828.0,,,,-0.0763859796292633,-2.39352748911363,0.0544981566766303,,-0.9502673686310129,,
,4077.0,858.0,3186.0,810.0,2181.0,2766.0,1842.0,,,,-0.0763852736441215,-2.39371941371977,0.0545820005406419,,-0.8345769701561073,,
,4074.0,862.0,3190.0,809.0,2173.0,2744.0,1844.0,,,,-0.0763262896572838,-2.39305836097519,0.0546917221746392,,-0.7009864977799327,,
,4076.0,862.0,3188.0,808.0,2187.0,2743.0,1842.0,,,,-0.0762881238164568,-2.39309594150127,0.0544611166225773,,-0.5507637553071882,,
,4073.0,859.0,3185.0,805.0,2182.0,2760.0,1831.0,,,,-0.0762281644622202,-2.39351236124248,0.0545826540802707,,-0.38571020296996095,,
,4072.0,860.0,3185.0,807.0,2173.0,2742.0,1825.0,,,,-0.0764667837495416,-2.39357530948977,0.0549041240648854,,-0.20812557899350104,,
,4071.0,858.0,3184.0,806.0,2189.0,2748.0,1811.0,,,,-0.0764427386538849,-2.39362750827095,0.0545730732670049,,-0.02077552127603458,,
,4070.0,857.0,3184.0,804.0,2198.0,2732.0,1816.0,,,,-0.0764750132236079,-2.39326535300765,0.0546201823147592,,0.17313471299127384,,
,4063.0,855.0,3180.0,804.0,2197.0,2740.0,1859.0,,,,-0.0765667948708607,-2.39324675495981,0.0545866039894955,,0.3699834233486257,,
,4058.0,852.0,3178.0,802.0,2183.0,2737.0,1848.0,,,,-0.0764393878471111,-2.39319062482255,0.0544528320006298,,0.5657612246742661,,
,4054.0,853.0,3177.0,802.0,2175.0,2747.0,1836.0,,,,-0.0764467450456577,-2.39308863948887,0.0545745218643977,,0.7561176889596004,,
,4053.0,849.0,3173.0,801.0,2181.0,2752.0,1844.0,,,,-0.0763484145588305,-2.3933642513172,0.0545346769371452,,0.936438632240692,,
,4047.0,850.0,3171.0,801.0,2186.0,2755.0,1849.0,,,,-0.0763526282511396,-2.39283470265963,0.0547729401514265,,1.1019640121465442,,
,4039.0,847.0,3166.0,798.0,2173.0,2752.0,1829.0,,,,-0.0762136062261221,-2.39321759366594,0.0546556331057839,,1.247950979386306,,
,4039.0,848.0,3168.0,798.0,2180.0,2747.0,1825.0,,,,-0.0762838965924053,-2.39306633147633,0.0546783292251896,,1.3698794794212399,,
,4037.0,846.0,3166.0,800.0,2185.0,2763.0,1823.0,,,,-0.0760985682842907,-2.39274656464844,0.0547012155512024,,1.4636898792322774,,
,4033.0,848.0,3166.0,798.0,2183.0,2769.0,1811.0,,,,-0.0761963282201954,-2.39251356975781,0.054717376284086,,1.526034458638915,,
,4031.0,845.0,3163.0,797.0,2195.0,2750.0,1815.0,,,,-0.0761422694515076,-2.39255693026427,0.0549784488715217,,1.554518491908019,,
2025-08-20 18:35:43,4028.0,844.0,3161.0,796.0,2184.0,2735.0,1828.0,,,2025/08/20 06:35:43 PM,-0.0759727574460641,-2.39220522922329,0.0547814641147627,,1.5479033614454154,,
,4026.0,844.0,3157.0,797.0,2188.0,2741.0,1831.0,,,,-0.0760763534457223,-2.39162143049924,0.0549059437033661,,1.5062447957496805,,
,4023.0,843.0,3155.0,798.0,2197.0,2757.0,1838.0,,,,-0.0758786921890016,-2.39178430869671,0.0549670717305611,,1.4309444493871972,,
,4023.0,842.0,3156.0,794.0,2190.0,2771.0,1849.0,,,,-0.0759129405222778,-2.39217650079787,0.0548768378809253,,1.3247022903529189,,
,4023.0,843.0,3156.0,793.0,2193.0,2772.0,1857.0,,,,-0.0760087269119417,-2.39192191713576,0.0550424453157026,,1.1913692482621618,,
,4021.0,845.0,3157.0,795.0,2184.0,2764.0,1857.0,,,,-0.0760174712378478,-2.39190215514779,0.0550368328213023,,1.0357121508132165,,
,4020.0,842.0,3157.0,794.0,2183.0,2763.0,1852.0,,,,-0.0761411330160556,-2.3922570789626,0.0549866253881391,,0.8631138308042536,,
,4021.0,843.0,3157.0,796.0,2189.0,2747.0,1854.0,,,,-0.0761711333527534,-2.3928356479289,0.0547677463138836,,0.6792385946321061,,
,4018.0,843.0,3153.0,796.0,2187.0,2734.0,1859.0,,,,-0.0763888374380067,-2.39339621546969,0.0544592980539458,,0.48969598238892814,,
,4018.0,841.0,3154.0,793.0,2182.0,2726.0,1838.0,,,,-0.0765076040141816,-2.3930219374375,0.0546811300688143,,0.2997338064458676,,
,4017.0,843.0,3153.0,796.0,2175.0,2739.0,1847.0,,,,-0.0766705051924979,-2.39370191619265,0.0546215280712459,,0.1139856454379411,,
,4015.0,841.0,3153.0,793.0,2172.0,2739.0,1841.0,,,,-0.0767566813554589,-2.39423023309289,0.0546247506725784,,-0.0637101731069515,,
,4014.0,840.0,3149.0,793.0,2184.0,2729.0,1849.0,,,,-0.0768523001665275,-2.39433503569467,0.0543937891747944,,-0.2304118149809723,,
,4013.0,842.0,3150.0,793.0,2168.0,2739.0,1844.0,,,,-0.0768591743625832,-2.39458619291946,0.0542453932566786,,-0.38409512356874936,,
,4015.0,844.0,3152.0,796.0,2178.0,2742.0,1851.0,,,,-0.0770100608601796,-2.39479588337585,0.054396178512334,,-0.5236010778903262,,
,4012.0,841.0,3150.0,795.0,2176.0,2747.0,1862.0,,,,-0.0771574256382489,-2.39508084037343,0.0540882767608914,,-0.6485210489177675,,
,4012.0,839.0,3150.0,793.0,2172.0,2734.0,1858.0,,,,-0.0770935191387551,-2.3951805883952,0.0541745959180318,,-0.7590353690756376,,
,4011.0,842.0,3148.0,792.0,2175.0,2761.0,1862.0,,,,-0.0772191484573487,-2.39530130851246,0.0541269707406818,,-0.8557236274686697,,
,4012.0,842.0,3150.0,794.0,2171.0,2760.0,1866.0,,,,-0.0772407132679802,-2.39567332910154,0.0539215149923473,,-0.9393667642120098,,
,4012.0,840.0,3147.0,793.0,2172.0,2759.0,1868.0,,,,-0.0771362937437964,-2.39592572304658,0.0540705135449729,,-1.0107611540688504,,
,4011.0,839.0,3145.0,792.0,2178.0,2773.0,1859.0,,,,-0.0771466201229153,-2.39522777810843,0.0540537149551129,,-1.0705631563944171,,
,4009.0,837.0,3145.0,791.0,2182.0,2763.0,1843.0,,,,-0.0770244883235228,-2.39516325914422,0.0539330040142218,,-1.1191789385201598,,
,4011.0,837.0,3143.0,793.0,2181.0,2771.0,1834.0,,,,-0.0771499005105363,-2.3955735736386,0.0542486129849902,,-1.1567088635448695,,
,4008.0,841.0,3146.0,795.0,2190.0,2743.0,1853.0,,,,-0.0771017253442356,-2.39507438508446,0.0540610939731778,,-1.1829488284345848,,
,4008.0,839.0,3146.0,796.0,2195.0,2741.0,1846.0,,,,-0.0770536578162544,-2.39498846722667,0.0540477441792235,,-1.1974435903862866,,
,4006.0,838.0,3141.0,791.0,2177.0,2744.0,1830.0,,,,-0.076851539903927,-2.39501475246628,0.05421740065072,,-1.1995806810570842,,
,4007.0,839.0,3145.0,792.0,2167.0,2754.0,1833.0,,,,-0.0770241222299361,-2.39477843031882,0.0544445882817181,,-1.1887092158562027,,
,4007.0,838.0,3143.0,794.0,2172.0,2750.0,1840.0,,,,-0.0770819864277911,-2.39502862206165,0.05439178739782,,-1.1642662339431011,,
,4005.0,839.0,3142.0,793.0,2175.0,2756.0,1829.0,,,,-0.0770553340704024,-2.39467378564345,0.0542213321159443,,-1.1258937457856244,,
,4003.0,839.0,3140.0,794.0,2172.0,2757.0,1845.0,,,,-0.076974019110012,-2.3947479476039,0.0544688969300627,,-1.0735316645871384,,
,4002.0,839.0,3141.0,793.0,2172.0,2764.0,1844.0,,,,-0.0770175935387454,-2.39508737710253,0.0542554491991295,,-1.0074747800384802,,
,4002.0,837.0,3141.0,796.0,2185.0,2759.0,1832.0,,,,-0.0770992289843629,-2.39498605705327,0.0542085068733665,,-0.9283858874162249,,
,4003.0,837.0,3139.0,795.0,2182.0,2765.0,1826.0,,,,-0.0770319800016333,-2.3947935111972,0.0543886720635512,,-0.8372623138788616,,
,3997.0,835.0,3140.0,795.0,2171.0,2762.0,1840.0,,,,-0.076942633467124,-2.39427962236111,0.0540796446138663,,-0.7353593859041662,,
,3998.0,838.0,3139.0,793.0,2175.0,2748.0,1876.0,,,,-0.0768899663537043,-2.39435382379807,0.0542709733022643,,-0.6240813200261803,,
,4001.0,838.0,3142.0,797.0,2179.0,2769.0,1852.0,,,,-0.0769656002588826,-2.39390783102146,0.0543853512943347,,-0.5048564361562632,,
,3999.0,838.0,3141.0,796.0,2178.0,2750.0,1848.0,,,,-0.0768265357351498,-2.39416441016759,0.0545300022582118,,-0.3790179617605319,,
,3997.0,838.0,3141.0,798.0,2177.0,2748.0,1854.0,,,,-0.0767685338170307,-2.39401682994169,0.0544238093649313,,-0.24771261925602,,
,3997.0,835.0,3140.0,796.0,2190.0,2739.0,1871.0,,,,-0.0767743985118776,-2.39435873157297,0.0546051084411504,,-0.11185590972757116,,
,4001.0,837.0,3142.0,796.0,2189.0,2742.0,1859.0,,,,-0.0766238267254293,-2.394086990542,0.0546513063156813,,0.027854289010490446,,
,3998.0,836.0,3138.0,797.0,2183.0,2743.0,1857.0,,,,-0.0766898275718282,-2.39413946169053,0.0545797762972723,,0.1708643035882321,,
,4001.0,837.0,3141.0,798.0,2177.0,2747.0,1857.0,,,,-0.0766410722065581,-2.39398503169214,0.0545453092246721,,0.3166408025811276,,
,3999.0,837.0,3140.0,796.0,2173.0,2752.0,1838.0,,,,-0.0767052133618153,-2.39360030394771,0.054457946943978,,0.46451513093557234,,
,4001.0,837.0,3143.0,799.0,2163.0,2748.0,1859.0,,,,-0.0768019655134436,-2.39381080787786,0.0547642922092821,,0.6135202170644108,,
,4004.0,840.0,3145.0,803.0,2167.0,2706.0,1850.0,,,,-0.076736383727104,-2.39368004945081,0.0544228502232164,,0.7622459274423176,,
,4004.0,840.0,3144.0,801.0,2159.0,2702.0,1853.0,,,,-0.0767095638568042,-2.39371393207018,0.0544672342545963,,0.9087365325203535,,
,4005.0,840.0,3143.0,804.0,2161.0,2712.0,1860.0,,,,-0.0766920416614792,-2.3938758764678,0.0543717554720651,,1.0504491393346123,,
,4008.0,839.0,3147.0,801.0,2170.0,2726.0,1862.0,,,,-0.0767766880517007,-2.39420532172888,0.0547264980174988,,1.1842854831326224,,
,4009.0,839.0,3147.0,804.0,2170.0,2742.0,1846.0,,,,-0.0767747166366084,-2.39378736184394,0.0544590797826377,,1.306701812319478,,
,4012.0,841.0,3148.0,803.0,2170.0,2752.0,1853.0,,,,-0.0766927211139398,-2.39381294945713,0.0546274760058665,,1.4138929706790577,,
,4012.0,840.0,3145.0,803.0,2170.0,2736.0,1847.0,,,,-0.076828487856456,-2.3934943399128,0.0547702222466446,,1.5020376228529768,,
,4012.0,838.0,3146.0,799.0,2184.0,2753.0,1834.0,,,,-0.0767604807039537,-2.39368914217029,0.0546274604262051,,1.5675827757188416,,
,4014.0,839.0,3147.0,802.0,2182.0,2762.0,1857.0,,,,-0.0765965683789163,-2.39360621433688,0.0545779985056741,,1.6075385354890142,,
,4014.0,840.0,3149.0,801.0,2187.0,2743.0,1865.0,,,,-0.0766024092946232,-2.39343938064734,0.0547323901198841,,1.6197496968325622,,
,4019.0,841.0,3147.0,803.0,2181.0,2742.0,1847.0,,,,-0.0765700443547241,-2.39340293486134,0.0546905683150566,,1.6031104629915103,,
,4016.0,840.0,3146.0,803.0,2175.0,2763.0,1854.0,,,,-0.0765183268183366,-2.39314030810963,0.0546704553799258,,1.557693216250357,,
,4023.0,841.0,3148.0,804.0,2179.0,2757.0,1844.0,,,,-0.0764450765448832,-2.39295448759697,0.0545651739216887,,1.4847719969110615,,
,4021.0,841.0,3152.0,804.0,2180.0,2751.0,1867.0,,,,-0.0764905686407768,-2.39306781657497,0.0548391962782001,,1.3867352596187692,,
,4023.0,844.0,3152.0,803.0,2184.0,2750.0,1863.0,,,,-0.0764060727903233,-2.39266193392378,0.0547858804562225,,1.266898222208338,,
,4026.0,841.0,3153.0,805.0,2186.0,2744.0,1849.0,,,,-0.0762890786338189,-2.39279530717679,0.0549805904845562,,1.1292393824186593,,
,4026.0,839.0,3152.0,802.0,2186.0,2751.0,1864.0,,,,-0.076326247139818,-2.39275218731485,0.0545981940323087,,0.9780953859675902,,
,4030.0,843.0,3152.0,801.0,2188.0,2742.0,1859.0,,,,-0.0762723802745369,-2.392993576824,0.054883468494543,,0.8178516599674809,,
,4030.0,841.0,3153.0,803.0,2178.0,2736.0,1854.0,,,,-0.0762814387075955,-2.39260722829814,0.054920192458239,,0.6526632760392898,,
,4030.0,843.0,3153.0,803.0,2177.0,2734.0,1856.0,,,,-0.0762602584714507,-2.39261914514,0.0545539968202642,,0.4862329298339905,,
,4033.0,843.0,3153.0,801.0,2160.0,2753.0,1857.0,,,,-0.0762178697684378,-2.39268387693059,0.0548341013343902,,0.32166272532777396,,
,4035.0,842.0,3154.0,803.0,2163.0,2753.0,1861.0,,,,-0.0761167025948782,-2.3923167045007,0.0547365594807404,,0.16138555369219934,,
,4035.0,844.0,3157.0,803.0,2160.0,2751.0,1854.0,,,,-0.0761260497145657,-2.39243999718666,0.0546838367810403,,0.007171883951575281,,
,4042.0,846.0,3155.0,802.0,2170.0,2759.0,1855.0,,,,-0.0762362204325713,-2.39210181398753,0.0548703011729368,,-0.13980009361104806,,
,4037.0,846.0,3156.0,802.0,2178.0,2762.0,1868.0,,,,-0.0761372055992511,-2.392300086188,0.0547409107204139,,-0.2788282332700126,,
,4039.0,846.0,3156.0,802.0,2178.0,2757.0,1856.0,,,,-0.0762122536819868,-2.39218321776721,0.0551594459989055,,-0.4095438785380361,,
,4043.0,847.0,3157.0,801.0,2183.0,2753.0,1856.0,,,,-0.0760944760023068,-2.39219915375125,0.0547316188057264,,-0.5317628778869061,,
,4044.0,848.0,3156.0,801.0,2170.0,2746.0,1848.0,,,,-0.076145099881612,-2.39223809338345,0.0548327266929285,,-0.6453481971885219,,
,4044.0,847.0,3157.0,802.0,2152.0,2748.0,1875.0,,,,-0.076085285678644,-2.39258904348451,0.0547818967107574,,-0.7500986584499553,,
,4046.0,848.0,3157.0,800.0,2155.0,2743.0,1861.0,,,,-0.0762207496665366,-2.39200992671874,0.0549792734317014,,-0.8456735560483121,,
,4046.0,846.0,3156.0,801.0,2162.0,2752.0,1872.0,,,,-0.0760598896207775,-2.39208570393845,0.0549190204532466,,-0.9315572834421203,,
,4047.0,847.0,3157.0,802.0,2163.0,2757.0,1865.0,,,,-0.0760041736192882,-2.39206554752842,0.0548953716425246,,-1.007062303733469,,
,4048.0,848.0,3157.0,801.0,2154.0,2753.0,1878.0,,,,-0.0758415914299394,-2.39162071650695,0.055010664148987,,-1.0713637384027064,,
,4048.0,848.0,3161.0,801.0,2164.0,2760.0,1871.0,,,,-0.07579350337049,-2.39170251161481,0.0551209734347593,,-1.1235555224510216,,
,4050.0,849.0,3161.0,802.0,2164.0,2757.0,1866.0,,,,-0.075914955114604,-2.39181426862763,0.0550526603760771,,-1.1627170728488576,,
,4053.0,853.0,3160.0,802.0,2164.0,2760.0,1865.0,,,,-0.0758349937107288,-2.39192082709756,0.0550497699790155,,-1.1879805410566653,,
,4054.0,849.0,3160.0,802.0,2154.0,2754.0,1860.0,,,,-0.0759246797075024,-2.39222136081484,0.0550665902451643,,-1.1985911030772767,,
,4052.0,849.0,3160.0,798.0,2163.0,2750.0,1860.0,,,,-0.0759371765272921,-2.39187045445289,0.0550984537346206,,-1.1939554008848587,,
,4054.0,851.0,3161.0,800.0,2179.0,2741.0,1863.0,,,,-0.0759963403077867,-2.39194228726883,0.055115799544498,,-1.1736755674899007,,
,4052.0,849.0,3161.0,800.0,2168.0,2749.0,1857.0,,,,-0.0759573527040604,-2.39191607642276,0.0550673398355138,,-1.1375680900554315,,
,4052.0,847.0,3161.0,801.0,2170.0,2739.0,1853.0,,,,-0.0758809067003727,-2.39231528089528,0.055133399468332,,-1.0856682380900031,,
,4050.0,848.0,3157.0,800.0,2149.0,2748.0,1848.0,,,,-0.0757930806289152,-2.39231925783266,0.0549811967860744,,-1.0182221541359864,,
,4046.0,846.0,3158.0,798.0,2160.0,2749.0,1846.0,,,,-0.0758667882622588,-2.39160312147518,0.0551369137740613,,-0.9356701912521687,,
,4043.0,845.0,3158.0,798.0,2179.0,2737.0,1857.0,,,,-0.0759584954973354,-2.39212942801188,0.055154276928146,,-0.838626747914427,,
,4039.0,846.0,3154.0,798.0,2174.0,2741.0,1845.0,,,,-0.0760868010042889,-2.39163953936236,0.0550852289315265,,-0.7278634248155939,,
,4035.0,845.0,3150.0,796.0,2158.0,2734.0,1837.0,,,,-0.0761024959285222,-2.39152925654642,0.0552123362538337,,-0.6043031291665093,,
,4031.0,843.0,3146.0,795.0,2158.0,2746.0,1849.0,,,,-0.075926318551542,-2.39183204700572,0.0551153235412656,,-0.46903193166053714,,
,4031.0,839.0,3146.0,793.0,2160.0,2740.0,1869.0,,,,-0.0759582951000996,-2.39218770247783,0.0549953254898379,,-0.32333250711867995,,
,4023.0,841.0,3142.0,793.0,2162.0,2752.0,1863.0,,,,-0.0759894662880456,-2.39162397005177,0.0549996127060937,,-0.16873806940058425,,
,4020.0,840.0,3142.0,792.0,2156.0,2755.0,1855.0,,,,-0.0758236967608863,-2.39116112401148,0.0549385669281017,,-0.007099901349549076,,
,4018.0,839.0,3139.0,791.0,2155.0,2755.0,1850.0,,,,-0.0759931636284492,-2.39105248521019,0.0548975240595794,,0.1593435451119392,,
,4016.0,836.0,3139.0,789.0,2149.0,2762.0,1845.0,,,,-0.0758199012415127,-2.39128408111548,0.0551817330335606,,0.3279110716986781,,
,4014.0,837.0,3137.0,790.0,2163.0,2746.0,1825.0,,,,-0.0758190020121404,-2.39152762523123,0.0551574525229492,,0.49545222621216883,,
,4011.0,838.0,3137.0,789.0,2171.0,2744.0,1847.0,,,,-0.0759155866588749,-2.39146394418079,0.0551692211615857,,0.6583634913932112,,
,4008.0,834.0,3134.0,787.0,2170.0,2750.0,1866.0,,,,-0.0756771859768374,-2.39148555096655,0.0550124602097601,,0.812657019666139,,
,4007.0,834.0,3134.0,787.0,2162.0,2750.0,1862.0,,,,-0.0756638988893767,-2.39116081883024,0.0551993080635002,,0.954086516201209,,
,4006.0,834.0,3134.0,789.0,2153.0,2746.0,1849.0,,,,-0.0755867736046397,-2.39123084680195,0.0553703122219816,,1.0783284203274242,,
,4004.0,834.0,3133.0,788.0,2152.0,2742.0,1850.0,,,,-0.0756000223248783,-2.39116763434843,0.0552944768409493,,1.181209281647776,,
,4004.0,832.0,3130.0,785.0,2151.0,2756.0,1860.0,,,,-0.0754971037290418,-2.39044419303022,0.0550026103976653,,1.2589629313009356,,
,4003.0,833.0,3131.0,788.0,2143.0,2758.0,1848.0,,,,-0.0755100508941068,-2.39055680199505,0.0553557673531491,,1.3084947900556168,,
,4003.0,834.0,3132.0,788.0,2162.0,2747.0,1864.0,,,,-0.0756022406582034,-2.39065873678686,0.0551788584708427,,1.3276265587204514,,
,4004.0,833.0,3131.0,787.0,2172.0,2733.0,1869.0,,,,-0.0755761541232258,-2.39059371996684,0.0552968368842472,,1.315293492318742,,
,4003.0,835.0,3129.0,787.0,2190.0,2747.0,1876.0,,,,-0.0759021016808797,-2.39073554917739,0.0550928113119874,,1.2716690424443076,,
,4000.0,831.0,3128.0,786.0,2165.0,2753.0,1856.0,,,,-0.0759392362366258,-2.39169720197973,0.0550333115684935,,1.1981981093029155,,
,3998.0,834.0,3126.0,785.0,2167.0,2767.0,1877.0,,,,-0.0760229262732181,-2.39214625598204,0.0549792701374426,,1.0975301536483029,,
,3999.0,833.0,3130.0,786.0,2172.0,2763.0,1892.0,,,,-0.0761885053901804,-2.39222119573642,0.0547119269159742,,0.9733557237516361,,
