TimeLabel,MEAS1_PPG1,MEAS1_PPG2,MEAS1_PPG3,MEAS1_PPG4,ACCX,ACCY,ACCZ,HR_timestamp,HR_value,radar_timestamp,phase_rx0,phase_rx1,phase_rx2,timestep,n_process,original_rate,calculated_rate
2025-07-03 20:15:13,8995.0,3325.0,12396.0,2460.0,2112.0,3354.0,220.0,2025-07-03 20:15:13,81.0,2025/07/03 08:15:13 PM,-0.111324495324815,-2.29876894243687,-0.109278686354624,2025/07/03 08:15:13 PM,5.077088518413047,14.767931938171388,9.427732942039619
,8998.0,3325.0,12398.0,2460.0,2107.0,3389.0,218.0,2025-07-03 20:15:14,80.0,,-0.111751904805291,-2.30060076164469,-0.109755848853828,2025/07/03 08:15:23 PM,4.137192421083825,9.748171806335447,11.040198922503107
,9000.0,3325.0,12400.0,2460.0,2103.0,3412.0,200.0,2025-07-03 20:15:15,79.0,,-0.112402605323288,-2.30158860761817,-0.110115766123438,2025/07/03 08:15:33 PM,3.2050522116555116,8.174386978149414,12.253783951897159
,9007.0,3328.0,12401.0,2461.0,2092.0,3460.0,198.0,2025-07-03 20:15:15,78.0,,-0.11281552413526,-2.30316598618303,-0.110435308492934,2025/07/03 08:15:43 PM,2.2917791739259656,11.204482078552246,11.885848779052669
,9011.0,3326.0,12400.0,2461.0,2088.0,3430.0,202.0,2025-07-03 20:15:16,78.0,,-0.113148537890107,-2.30360678115698,-0.110892136160207,2025/07/03 08:15:53 PM,1.4064995508337128,11.682243347167969,11.708683473389353
,9013.0,3330.0,12401.0,2461.0,2086.0,3397.0,214.0,2025-07-03 20:15:18,78.0,,-0.113399143493075,-2.30455584764934,-0.110500702591792,2025/07/03 08:16:03 PM,0.5564881057813741,12.335526466369627,9.6
,9017.0,3332.0,12404.0,2463.0,2078.0,3343.0,210.0,2025-07-03 20:15:18,79.0,,-0.113463972194109,-2.30471529043265,-0.110324846002084,2025/07/03 08:16:13 PM,-0.2526348859397851,11.252813339233398,9.815705128205128
,9024.0,3329.0,12404.0,2462.0,2078.0,3350.0,201.0,2025-07-03 20:15:20,80.0,,-0.113568544672981,-2.30493794221977,-0.110036029950696,2025/07/03 08:16:23 PM,-1.0166866496407017,10.425716400146484,11.445181215369244
,9024.0,3330.0,12401.0,2462.0,2081.0,3350.0,202.0,2025-07-03 20:15:21,80.0,,-0.113685647346771,-2.30565495535669,-0.11041608714097,2025/07/03 08:16:33 PM,-1.7327194344788863,10.008339881896973,10.967098703888336
,9027.0,3331.0,12404.0,2461.0,2098.0,3355.0,196.0,2025-07-03 20:15:21,80.0,,-0.11382571473857,-2.30597293489192,-0.110119766463566,2025/07/03 08:16:43 PM,-2.3988553425582837,11.183597564697266,11.764705882352954
,9030.0,3330.0,12408.0,2463.0,2066.0,3370.0,193.0,2025-07-03 20:15:23,79.0,,-0.113979863839568,-2.30596098737531,-0.110453149362679,2025/07/03 08:16:53 PM,-3.0141684358521523,11.17734718322754,10.727969348658988
,9032.0,3330.0,12407.0,2464.0,2063.0,3372.0,186.0,2025-07-03 20:15:24,78.0,,-0.114277724957639,-2.30511672108933,-0.110479555586827,2025/07/03 08:17:03 PM,-3.578611664918611,11.061946868896484,10.82486793986185
,9032.0,3330.0,12408.0,2464.0,2065.0,3398.0,169.0,2025-07-03 20:15:25,77.0,,-0.113932670477779,-2.30519193833967,-0.110325800136066,2025/07/03 08:17:13 PM,-4.0929756875653975,11.037527084350586,12.968099861303758
,9039.0,3330.0,12410.0,2462.0,2085.0,3400.0,174.0,2025-07-03 20:15:26,78.0,,-0.113728769383403,-2.30519731502725,-0.110385645266661,2025/07/03 08:17:23 PM,-4.558859800794136,11.50306797027588,10.589332918675174
,9040.0,3332.0,12409.0,2463.0,2063.0,3406.0,192.0,2025-07-03 20:15:27,78.0,,-0.113451239692698,-2.30416521622713,-0.110429811085828,2025/07/03 08:17:33 PM,-4.978633298090607,11.942675590515137,10.62030075187969
,9043.0,3336.0,12409.0,2462.0,2064.0,3398.0,193.0,2025-07-03 20:15:28,79.0,,-0.113183083543171,-2.30358831370875,-0.109624850176568,2025/07/03 08:17:43 PM,-5.355368696261731,11.398176193237305,9.917355371900854
,9044.0,3334.0,12413.0,2461.0,2059.0,3391.0,188.0,2025-07-03 20:15:28,79.0,,-0.112929752497967,-2.3031582697614,-0.109574313643001,2025/07/03 08:17:53 PM,-5.692735113843677,10.615711212158203,9.797387363369769
,9046.0,3332.0,12409.0,2462.0,2077.0,3437.0,171.0,2025-07-03 20:15:30,78.0,,-0.112697404589462,-2.30235443480476,-0.108909301066338,2025/07/03 08:18:03 PM,-5.994848521387442,10.316368103027344,9.486314210723656
,9052.0,3336.0,12414.0,2463.0,2059.0,3427.0,152.0,2025-07-03 20:15:31,77.0,,-0.112458027799047,-2.3019577778096,-0.108840706239824,,-6.266083723668881,,
,9055.0,3338.0,12416.0,2464.0,2068.0,3430.0,153.0,2025-07-03 20:15:31,77.0,,-0.112100904463047,-2.30118670764945,-0.108481056081672,,-6.510859594184463,,
,9058.0,3334.0,12414.0,2465.0,2072.0,3442.0,155.0,2025-07-03 20:15:33,77.0,,-0.111986160596195,-2.30106483363812,-0.108199701317051,,-6.733413772480754,,
,9060.0,3335.0,12415.0,2463.0,2040.0,3424.0,148.0,2025-07-03 20:15:33,77.0,,-0.111707748989616,-2.30017646539994,-0.107002261538577,,-6.937585695576514,,
,9066.0,3336.0,12417.0,2464.0,2042.0,3413.0,129.0,2025-07-03 20:15:34,78.0,,-0.111812925595934,-2.29996255089523,-0.106588074231621,,-7.126627544969564,,
,9069.0,3340.0,12418.0,2466.0,2051.0,3426.0,180.0,2025-07-03 20:15:35,78.0,,-0.111450460650317,-2.29954942136993,-0.106586960400158,,-7.303061441767492,,
,9073.0,3341.0,12419.0,2468.0,2060.0,3433.0,179.0,2025-07-03 20:15:37,78.0,,-0.111129322037837,-2.29879067611451,-0.105876950217649,,-7.468597895006735,,
,9077.0,3342.0,12422.0,2465.0,2047.0,3423.0,150.0,2025-07-03 20:15:38,79.0,,-0.111103248791418,-2.29830808469754,-0.106219173224445,,-7.624125074544361,,
,9080.0,3344.0,12420.0,2467.0,2070.0,3412.0,143.0,2025-07-03 20:15:38,80.0,,-0.110855545967859,-2.29752388596007,-0.105098438031127,,-7.769771231435183,,
,9087.0,3344.0,12424.0,2471.0,2085.0,3397.0,151.0,2025-07-03 20:15:39,81.0,,-0.110469204335515,-2.29673148359578,-0.105385496879664,,-7.90503421406788,,
,9090.0,3344.0,12422.0,2470.0,2080.0,3392.0,180.0,2025-07-03 20:15:41,83.0,,-0.110475718824963,-2.29642970357493,-0.105070383461577,,-8.028963630182401,,
,9095.0,3344.0,12425.0,2469.0,2095.0,3385.0,186.0,2025-07-03 20:15:42,84.0,,-0.11024558314189,-2.29625485353508,-0.10492695783782,,-8.140374330212001,,
,9098.0,3346.0,12423.0,2471.0,2075.0,3351.0,184.0,2025-07-03 20:15:43,85.0,,-0.110500233914362,-2.29589256629879,-0.104454628088142,,-8.238066252032487,,
,9104.0,3347.0,12426.0,2472.0,2059.0,3360.0,175.0,2025-07-03 20:15:44,86.0,,-0.110306186992318,-2.29551374363905,-0.104150198907953,,-8.321026341962959,,
,9108.0,3349.0,12426.0,2472.0,2070.0,3386.0,165.0,2025-07-03 20:15:45,86.0,,-0.109998526941798,-2.29491084741774,-0.104362518080997,,-8.38859292924315,,
,9113.0,3349.0,12424.0,2476.0,2053.0,3397.0,164.0,2025-07-03 20:15:46,85.0,,-0.110371932425602,-2.29513783391315,-0.104771984074587,,-8.440570009771578,,
,9115.0,3349.0,12422.0,2473.0,2068.0,3404.0,185.0,2025-07-03 20:15:46,85.0,,-0.110047910254185,-2.29502417476213,-0.104682166463938,,-8.4772864735803,,
,9121.0,3346.0,12424.0,2474.0,2082.0,3418.0,196.0,2025-07-03 20:15:48,84.0,,-0.109910186074905,-2.29465698982893,-0.104024519727854,,-8.499601952113963,,
,9126.0,3352.0,12426.0,2477.0,2085.0,3405.0,186.0,2025-07-03 20:15:49,84.0,,-0.1094456815871,-2.29369081403821,-0.102783052699553,,-8.508865964229894,,
,9128.0,3353.0,12425.0,2478.0,2086.0,3394.0,177.0,2025-07-03 20:15:49,85.0,,-0.10893744337176,-2.29327634258697,-0.102586718210668,,-8.506840263207717,,
,9133.0,3352.0,12427.0,2479.0,2091.0,3401.0,177.0,2025-07-03 20:15:51,86.0,,-0.108880140134533,-2.29245233660498,-0.101937058775947,,-8.495595872217,,
,9136.0,3353.0,12423.0,2478.0,2077.0,3414.0,188.0,2025-07-03 20:15:51,87.0,,-0.108510295619236,-2.29159163554407,-0.101410844550496,,-8.477396455921255,,
,9142.0,3356.0,12425.0,2480.0,2082.0,3389.0,189.0,2025-07-03 20:15:52,88.0,,-0.108336276107551,-2.29060155281796,-0.100829210782528,,-8.454578581189063,,
,9145.0,3356.0,12427.0,2482.0,2098.0,3383.0,190.0,2025-07-03 20:15:54,89.0,,-0.107874000914071,-2.28962026343691,-0.100730360432528,,-8.429437190642448,,
,9148.0,3356.0,12428.0,2481.0,2100.0,3368.0,183.0,2025-07-03 20:15:54,89.0,,-0.107368190750356,-2.2890574248452,-0.0998344681075262,,-8.40412140642236,,
,9151.0,3355.0,12427.0,2481.0,2104.0,3353.0,165.0,2025-07-03 20:15:55,88.0,,-0.107195638661202,-2.28774994954415,-0.0992984776690721,,-8.380541889854783,,
,9153.0,3355.0,12429.0,2482.0,2102.0,3327.0,170.0,2025-07-03 20:15:57,88.0,,-0.10685463742022,-2.28704891512688,-0.099661618749603,,-8.360286915243506,,
,9159.0,3358.0,12429.0,2485.0,2096.0,3339.0,174.0,2025-07-03 20:15:57,88.0,,-0.106611891363852,-2.28644754199674,-0.0987798780671439,,-8.344540914101314,,
,9160.0,3358.0,12430.0,2484.0,2097.0,3332.0,184.0,2025-07-03 20:15:59,88.0,,-0.106439559751195,-2.28589820750905,-0.0987147609444365,,-8.333997691367488,,
,9162.0,3357.0,12429.0,2484.0,2083.0,3375.0,197.0,2025-07-03 20:16:00,87.0,,-0.10617159743075,-2.28505546254116,-0.0981363882364784,,-8.328761934130213,,
,9165.0,3360.0,12432.0,2485.0,2092.0,3412.0,158.0,2025-07-03 20:16:01,86.0,,-0.106176934760634,-2.28433316111659,-0.0981255164683014,,-8.328237365219715,,
,9170.0,3358.0,12432.0,2487.0,2067.0,3428.0,186.0,2025-07-03 20:16:02,86.0,,-0.105838941659235,-2.28443927711344,-0.0981989776080943,,-8.331007039024893,,
,9173.0,3360.0,12432.0,2488.0,2051.0,3458.0,174.0,2025-07-03 20:16:03,86.0,,-0.105698008639578,-2.28484437102218,-0.0975099229942498,,-8.334719009051486,,
,9174.0,3361.0,12438.0,2487.0,2073.0,3464.0,176.0,2025-07-03 20:16:03,85.0,,-0.105831914814635,-2.28493078892957,-0.0978780737983392,,-8.335996964188004,,
,9176.0,3360.0,12436.0,2486.0,2069.0,3446.0,185.0,2025-07-03 20:16:05,85.0,,-0.106022165084168,-2.28467311308364,-0.097878790995858,,-8.330398965589977,,
,9180.0,3362.0,12441.0,2490.0,2079.0,3415.0,174.0,2025-07-03 20:16:06,85.0,,-0.106020885517911,-2.28475051272513,-0.0977967027808898,,-8.312447273795287,,
,9181.0,3361.0,12444.0,2488.0,2079.0,3395.0,201.0,2025-07-03 20:16:07,85.0,,-0.106237030122197,-2.28541827121777,-0.0974601321119052,,-8.275748142805835,,
,9185.0,3361.0,12443.0,2491.0,2084.0,3394.0,204.0,2025-07-03 20:16:07,85.0,,-0.106521649468166,-2.28599904544331,-0.0974660454874353,,-8.213212626504854,,
,9187.0,3361.0,12446.0,2490.0,2082.0,3419.0,209.0,2025-07-03 20:16:09,85.0,,-0.106738917294645,-2.2865001432356,-0.0980871287553335,,-8.117378706805097,,
,9189.0,3362.0,12451.0,2490.0,2063.0,3442.0,192.0,2025-07-03 20:16:10,85.0,,-0.107025576420703,-2.28748492184254,-0.0982370671806101,,-7.980822652997782,,
,9190.0,3364.0,12450.0,2494.0,2092.0,3457.0,191.0,2025-07-03 20:16:10,84.0,,-0.107327704985348,-2.2877619686449,-0.098045625367721,,-7.796634842939834,,
,9193.0,3363.0,12450.0,2495.0,2066.0,3451.0,203.0,2025-07-03 20:16:12,83.0,,-0.107764326017368,-2.28833975734144,-0.0984196356562577,,-7.558923632506073,,
,9193.0,3362.0,12452.0,2492.0,2063.0,3463.0,190.0,2025-07-03 20:16:13,83.0,,-0.108067817892947,-2.28927743076012,-0.0981101294118226,,-7.263301531284327,,
,9190.0,3360.0,12452.0,2489.0,2054.0,3443.0,180.0,2025-07-03 20:16:13,83.0,,-0.108420409319997,-2.28920751621422,-0.0975722842843847,,-6.907302435776302,,
,9185.0,3361.0,12454.0,2490.0,2041.0,3430.0,171.0,2025-07-03 20:16:15,83.0,,-0.108725087296648,-2.28991348387669,-0.0967704365336807,,-6.490678881306216,,
,9181.0,3358.0,12455.0,2489.0,2037.0,3401.0,201.0,2025-07-03 20:16:16,84.0,,-0.109352086315086,-2.29057718589611,-0.0962816098370351,,-6.015536070316347,,
,9174.0,3353.0,12455.0,2487.0,2045.0,3378.0,199.0,2025-07-03 20:16:16,84.0,,-0.110151112418709,-2.29096858092136,-0.0951308353794669,,-5.48627552348305,,
,9164.0,3351.0,12458.0,2483.0,2047.0,3361.0,187.0,2025-07-03 20:16:18,84.0,,-0.110510318493693,-2.29046187099681,-0.0938880413049519,,-4.909343969913094,,
,9156.0,3350.0,12457.0,2480.0,2058.0,3362.0,182.0,2025-07-03 20:16:18,84.0,,-0.110766063479981,-2.29000567838335,-0.091443189363797,,-4.292808515450996,,
,9142.0,3341.0,12455.0,2477.0,2042.0,3356.0,198.0,2025-07-03 20:16:20,85.0,,-0.111209105537474,-2.28999891008851,-0.0906249877892524,,-3.645802022935129,,
,9131.0,3338.0,12456.0,2470.0,2040.0,3372.0,170.0,2025-07-03 20:16:21,86.0,,-0.111571058413288,-2.28938376912824,-0.089214086438659,,-2.977898547312456,,
,9114.0,3332.0,12454.0,2468.0,2062.0,3372.0,139.0,2025-07-03 20:16:22,85.0,,-0.112114204362434,-2.28961555416517,-0.0889929022597904,,-2.298485237486357,,
,9101.0,3329.0,12456.0,2464.0,2073.0,3361.0,141.0,2025-07-03 20:16:22,85.0,,-0.112405334948797,-2.28928177884642,-0.0880920565859247,,-1.616194403079379,,
,9087.0,3325.0,12457.0,2462.0,2049.0,3384.0,145.0,2025-07-03 20:16:24,84.0,,-0.112521862901641,-2.28902060140423,-0.0879721450997875,,-0.9384493171283641,,
,9074.0,3321.0,12456.0,2456.0,2072.0,3379.0,147.0,2025-07-03 20:16:24,83.0,,-0.112624421503716,-2.28851871421503,-0.0869490982893807,,-0.271162402179629,,
,9054.0,3315.0,12457.0,2455.0,2080.0,3407.0,135.0,2025-07-03 20:16:25,83.0,,-0.112867970096378,-2.28825523433859,-0.0860349282935719,,0.3813929899593457,,
,9038.0,3311.0,12459.0,2449.0,2086.0,3423.0,141.0,2025-07-03 20:16:27,83.0,,-0.112930086344771,-2.28738797697586,-0.0853565365698659,,1.016534570021954,,
,9028.0,3313.0,12459.0,2450.0,2097.0,3422.0,122.0,2025-07-03 20:16:27,83.0,,-0.113065856770448,-2.2864464133827,-0.0846038736070969,,1.632963147516425,,
,9017.0,3310.0,12459.0,2446.0,2076.0,3433.0,124.0,2025-07-03 20:16:28,83.0,,-0.113554384569041,-2.28662278448961,-0.0841941304254976,,2.230429034770113,,
,9002.0,3309.0,12457.0,2445.0,2069.0,3442.0,129.0,2025-07-03 20:16:30,83.0,,-0.114089227188817,-2.28640898450174,-0.0837085603866245,,2.809322140960811,,
,8992.0,3308.0,12455.0,2440.0,2076.0,3473.0,134.0,2025-07-03 20:16:30,82.0,,-0.113933979178488,-2.28609697566133,-0.083061145602142,,3.37024418329158,,
,8984.0,3308.0,12455.0,2439.0,2070.0,3489.0,128.0,2025-07-03 20:16:32,83.0,,-0.113960879670415,-2.28583093158988,-0.0827558714769024,,3.9136223286182257,,
,8980.0,3311.0,12455.0,2440.0,2032.0,3482.0,146.0,2025-07-03 20:16:33,83.0,,-0.114047868005534,-2.28589897786815,-0.08235979782141,,4.439415697674485,,
,8975.0,3311.0,12458.0,2436.0,2017.0,3471.0,169.0,2025-07-03 20:16:33,83.0,,-0.114001165332557,-2.28560976685304,-0.0825794364485116,,4.946951182141143,,
,8967.0,3309.0,12455.0,2436.0,2001.0,3438.0,184.0,2025-07-03 20:16:35,83.0,,-0.113992947147105,-2.28542539989205,-0.0816301094534086,,5.434906003805654,,
,8960.0,3310.0,12455.0,2433.0,2011.0,3482.0,190.0,2025-07-03 20:16:36,83.0,,-0.114294475570134,-2.28560585580369,-0.0815234960885844,,5.901434453421906,,
,8958.0,3309.0,12454.0,2432.0,1984.0,3478.0,189.0,2025-07-03 20:16:36,83.0,,-0.114315800679729,-2.28544120291527,-0.0813415085417975,,6.344417531757588,,
,8955.0,3310.0,12450.0,2432.0,1986.0,3476.0,203.0,2025-07-03 20:16:38,83.0,,-0.114730416421752,-2.2859969640818,-0.0825704637670544,,6.7617982954606175,,
,8951.0,3310.0,12452.0,2428.0,1983.0,3463.0,211.0,2025-07-03 20:16:38,84.0,,-0.11505297829685,-2.28716412363774,-0.0821404091430444,,7.151953896832791,,
,8948.0,3311.0,12451.0,2426.0,1995.0,3470.0,229.0,2025-07-03 20:16:40,83.0,,-0.115501530665997,-2.28694616855664,-0.082555684899635,,7.514049019688221,,
,8946.0,3311.0,12449.0,2427.0,1982.0,3476.0,190.0,2025-07-03 20:16:41,83.0,,-0.11614127541306,-2.28785533347318,-0.0827036159408189,,7.848316003625502,,
,8945.0,3313.0,12451.0,2427.0,1995.0,3443.0,180.0,2025-07-03 20:16:42,83.0,,-0.116588827306807,-2.28760182335603,-0.0827709087570794,,8.15621511560987,,
,8942.0,3313.0,12449.0,2428.0,1983.0,3425.0,181.0,2025-07-03 20:16:43,84.0,,-0.117035400257868,-2.28747650617418,-0.0831349774342564,,8.440443601522135,,
,8939.0,3313.0,12448.0,2426.0,1966.0,3402.0,177.0,2025-07-03 20:16:43,84.0,,-0.117289518591233,-2.28769552762692,-0.0835116177575781,,8.704782215257609,,
,8938.0,3314.0,12448.0,2427.0,1973.0,3380.0,174.0,2025-07-03 20:16:45,84.0,,-0.117840799982653,-2.28788229054027,-0.0843178430083959,,8.953789448730772,,
,8935.0,3314.0,12449.0,2425.0,1986.0,3387.0,184.0,2025-07-03 20:16:46,84.0,,-0.118117743972328,-2.28817109980314,-0.0853541695877591,,9.19237279415931,,
,8938.0,3318.0,12448.0,2424.0,1989.0,3398.0,168.0,2025-07-03 20:16:46,85.0,,-0.118556858734452,-2.28891063900798,-0.0871596150227909,,9.425280111162333,,
,8936.0,3317.0,12448.0,2425.0,1994.0,3417.0,169.0,2025-07-03 20:16:47,85.0,,-0.118553990537454,-2.28799148788424,-0.0877878177993151,,9.656561486579507,,
,8933.0,3318.0,12449.0,2423.0,2053.0,3414.0,132.0,2025-07-03 20:16:49,85.0,,-0.118401273929037,-2.28787061568175,-0.0889581397833165,,9.889053331753743,,
,8932.0,3320.0,12452.0,2426.0,2088.0,3459.0,110.0,2025-07-03 20:16:49,85.0,,-0.118428566230966,-2.2880245790273,-0.0897520750300761,,10.123932753676055,,
,8929.0,3319.0,12453.0,2424.0,2060.0,3494.0,133.0,2025-07-03 20:16:51,84.0,,-0.11819057829618,-2.28874535796057,-0.091370420916439,,10.360382312317421,,
,8931.0,3319.0,12452.0,2425.0,2058.0,3489.0,153.0,2025-07-03 20:16:51,83.0,,-0.118144549162155,-2.28884755831171,-0.0925680653774413,,10.595394338252826,,
,8924.0,3317.0,12450.0,2422.0,2013.0,3465.0,154.0,2025-07-03 20:16:52,83.0,,-0.117809400257108,-2.2895995575789,-0.0937700367368347,,10.823731900208958,,
,8926.0,3318.0,12451.0,2420.0,1989.0,3471.0,161.0,2025-07-03 20:16:54,82.0,,-0.117407448972598,-2.28953869844294,-0.0941484305831968,,11.038052331417923,,
,8925.0,3320.0,12452.0,2424.0,1989.0,3460.0,174.0,2025-07-03 20:16:55,82.0,,-0.11710631862003,-2.29013749578245,-0.0947623623459892,,11.229190180653791,,
,8922.0,3318.0,12451.0,2421.0,1998.0,3450.0,182.0,2025-07-03 20:16:55,81.0,,-0.117309409411656,-2.29126713554786,-0.096388794907207,,11.38658936119547,,
,8918.0,3318.0,12450.0,2420.0,2003.0,3439.0,190.0,2025-07-03 20:16:57,81.0,,-0.117658894693679,-2.29276061065523,-0.0980540657333749,,11.498867853921592,,
,8917.0,3316.0,12451.0,2418.0,1983.0,3415.0,178.0,2025-07-03 20:16:57,82.0,,-0.117934158203237,-2.29398762602922,-0.0987777777413395,,11.554491053599428,,
,8915.0,3322.0,12450.0,2418.0,1989.0,3425.0,161.0,2025-07-03 20:16:59,83.0,,-0.117553822834961,-2.29420421902832,-0.0992734616775228,,11.542520598048354,,
,8913.0,3318.0,12450.0,2420.0,2001.0,3416.0,164.0,2025-07-03 20:17:00,83.0,,-0.118097530664784,-2.29550107475096,-0.0998440912515811,,11.453394116655849,,
,8910.0,3315.0,12451.0,2418.0,1995.0,3434.0,155.0,2025-07-03 20:17:01,84.0,,-0.118427491953772,-2.29689743069888,-0.101109599522851,,11.279679311058919,,
,8906.0,3316.0,12450.0,2418.0,2013.0,3451.0,152.0,2025-07-03 20:17:02,83.0,,-0.119024922128557,-2.29857998440963,-0.101955188880361,,11.01673654701296,,
,8904.0,3317.0,12451.0,2419.0,2039.0,3446.0,169.0,2025-07-03 20:17:03,83.0,,-0.119384417414445,-2.30018300496081,-0.10316345490261,,10.663221844650662,,
,8901.0,3318.0,12453.0,2418.0,2053.0,3460.0,148.0,2025-07-03 20:17:03,83.0,,-0.119676857910923,-2.30108524589908,-0.104404970810117,,10.22136990624249,,
,8905.0,3318.0,12452.0,2418.0,2050.0,3446.0,136.0,2025-07-03 20:17:05,83.0,,-0.120253142445251,-2.30243807476508,-0.10612195368068,,9.697015343236867,,
,8899.0,3318.0,12450.0,2417.0,2034.0,3414.0,141.0,2025-07-03 20:17:06,83.0,,-0.120266499579032,-2.30364517762639,-0.107376623712738,,9.099337418720687,,
,8901.0,3321.0,12452.0,2419.0,2018.0,3412.0,127.0,2025-07-03 20:17:07,83.0,,-0.120397153387487,-2.30587896953517,-0.108458415101612,,8.440344747649096,,
,8900.0,3322.0,12451.0,2422.0,2013.0,3399.0,117.0,2025-07-03 20:17:08,83.0,,-0.120082789263261,-2.30596990858517,-0.109567765875786,,7.734145647601587,,
,8900.0,3323.0,12453.0,2422.0,2017.0,3403.0,136.0,2025-07-03 20:17:08,83.0,,-0.119825066479974,-2.30554918833783,-0.109104567576034,,6.996072195196228,,
,8902.0,3321.0,12453.0,2420.0,2030.0,3381.0,159.0,2025-07-03 20:17:10,84.0,,-0.120030208160795,-2.30629082484568,-0.110294674279498,,6.241738894819751,,
,8904.0,3320.0,12452.0,2420.0,2013.0,3421.0,165.0,2025-07-03 20:17:11,84.0,,-0.119222303805769,-2.30464735942607,-0.109388484622507,,5.486120051233774,,
,8909.0,3324.0,12454.0,2421.0,1997.0,3429.0,155.0,2025-07-03 20:17:12,83.0,,-0.119130253913393,-2.30523481794108,-0.10891178696269,,4.742724616674076,,
,8909.0,3327.0,12459.0,2427.0,1988.0,3429.0,151.0,2025-07-03 20:17:12,83.0,,-0.118840175777898,-2.30485842289212,-0.110134437190678,,4.022934712068425,,
,8909.0,3326.0,12459.0,2422.0,1977.0,3431.0,170.0,2025-07-03 20:17:13,83.0,,-0.118796516636219,-2.30539274298447,-0.110031954470639,,3.335555287514747,,
,8909.0,3326.0,12455.0,2421.0,1979.0,3464.0,171.0,2025-07-03 20:17:14,83.0,,-0.118775297230917,-2.30573532643723,-0.10996904380454,,2.686599141685459,,
,8911.0,3327.0,12458.0,2426.0,1985.0,3470.0,129.0,2025-07-03 20:17:15,83.0,,-0.118815600058483,-2.30532762033601,-0.110057803078651,,2.0793066211256734,,
,8913.0,3330.0,12459.0,2425.0,2004.0,3469.0,141.0,2025-07-03 20:17:17,83.0,,-0.118560480985891,-2.30586870065695,-0.110511382263741,,1.5143763767037044,,
,8916.0,3331.0,12459.0,2427.0,2010.0,3453.0,146.0,2025-07-03 20:17:18,83.0,,-0.118999278844201,-2.30684102366312,-0.110390868069219,,0.9903656851996451,,
,8919.0,3331.0,12462.0,2427.0,2007.0,3437.0,157.0,2025-07-03 20:17:19,82.0,,-0.119045975440372,-2.30723581085052,-0.110675234458227,,0.5042076933719876,,
,8922.0,3332.0,12463.0,2428.0,2003.0,3431.0,183.0,2025-07-03 20:17:19,82.0,,-0.118999390956365,-2.30663773044141,-0.110674437258284,,0.05178851288230202,,
2025-07-03 20:15:14,8928.0,3335.0,12463.0,2428.0,1992.0,3442.0,157.0,2025-07-03 20:17:21,83.0,2025/07/03 08:15:14 PM,-0.119091285788048,-2.30689590491627,-0.11105019685238,,-0.3714717378251406,,
,8931.0,3336.0,12466.0,2429.0,1986.0,3418.0,171.0,2025-07-03 20:17:21,83.0,,-0.119612602735079,-2.30786360106827,-0.111330918805298,,-0.7700845820139541,,
,8934.0,3335.0,12463.0,2429.0,1986.0,3419.0,201.0,2025-07-03 20:17:23,83.0,,-0.119655815146524,-2.30773268881743,-0.11148034610288,,-1.148048012202502,,
,8934.0,3335.0,12464.0,2429.0,1996.0,3432.0,174.0,2025-07-03 20:17:23,84.0,,-0.119659569527091,-2.30770414047617,-0.111490530051587,,-1.508522539175136,,
,8940.0,3339.0,12467.0,2432.0,2007.0,3465.0,169.0,2025-07-03 20:17:25,85.0,,-0.119756948762833,-2.30813267937546,-0.111911988258679,,-1.8536478308297855,,
,8942.0,3338.0,12464.0,2430.0,2003.0,3481.0,173.0,2025-07-03 20:17:25,86.0,,-0.11956454886801,-2.30846781174591,-0.111956197008068,,-2.184504537156552,,
,8945.0,3339.0,12467.0,2433.0,2011.0,3488.0,169.0,2025-07-03 20:17:27,86.0,,-0.119040742732847,-2.30824380437847,-0.111602668121444,,-2.5012099227349065,,
,8948.0,3340.0,12461.0,2431.0,2005.0,3464.0,153.0,2025-07-03 20:17:27,86.0,,-0.118773900285864,-2.30759872816768,-0.111532183510632,,-2.803120807388751,,
,8953.0,3342.0,12464.0,2433.0,2014.0,3460.0,163.0,2025-07-03 20:17:28,87.0,,-0.11737812268527,-2.30598771686279,-0.110500834318402,,-3.089105957826793,,
,8958.0,3343.0,12468.0,2433.0,2024.0,3443.0,161.0,2025-07-03 20:17:30,86.0,,-0.116442857432471,-2.30483998280244,-0.110539431365416,,-3.3578450379534153,,
,8962.0,3342.0,12466.0,2436.0,2013.0,3442.0,152.0,2025-07-03 20:17:30,86.0,,-0.115663141747477,-2.30403995679918,-0.109474765107065,,-3.6081132487137437,,
,8965.0,3342.0,12462.0,2433.0,2004.0,3437.0,191.0,2025-07-03 20:17:32,86.0,,-0.11491796543183,-2.30368108769604,-0.10936685985002,,-3.8390183768305053,,
,8969.0,3342.0,12461.0,2435.0,2022.0,3437.0,189.0,2025-07-03 20:17:33,85.0,,-0.114659853482794,-2.30323018318261,-0.10912362095078,,-4.050167538629244,,
,8973.0,3347.0,12464.0,2438.0,2025.0,3466.0,181.0,2025-07-03 20:17:33,85.0,,-0.114415073107208,-2.30347591411239,-0.108923649348914,,-4.241752233954971,,
,8974.0,3345.0,12463.0,2438.0,2014.0,3454.0,195.0,2025-07-03 20:17:35,85.0,,-0.114131709503431,-2.30327339115493,-0.109138867276776,,-4.414551100602089,,
,8979.0,3347.0,12464.0,2437.0,2013.0,3445.0,174.0,2025-07-03 20:17:35,86.0,,-0.114075515034307,-2.30359542487119,-0.109511233059514,,-4.569859252599749,,
,8985.0,3344.0,12461.0,2439.0,2000.0,3446.0,161.0,2025-07-03 20:17:37,86.0,,-0.113673234842439,-2.30323670596555,-0.10931102925221,,-4.709360742523653,,
,8988.0,3347.0,12463.0,2439.0,1991.0,3460.0,153.0,2025-07-03 20:17:38,87.0,,-0.113457705757557,-2.30265649025753,-0.108972507042096,,-4.834965986305572,,
,8992.0,3347.0,12464.0,2440.0,1987.0,3453.0,173.0,2025-07-03 20:17:39,87.0,,-0.11334184795588,-2.30225219307012,-0.109104193737312,,-4.948638486581392,,
,8999.0,3347.0,12463.0,2441.0,1995.0,3455.0,166.0,2025-07-03 20:17:40,88.0,,-0.113050441321697,-2.30229686018919,-0.108712401951987,,-5.052234614047488,,
,9001.0,3347.0,12464.0,2440.0,1994.0,3459.0,148.0,2025-07-03 20:17:41,89.0,,-0.112883016305458,-2.30250070780181,-0.109408798563927,,-5.147376521851079,,
,9007.0,3349.0,12462.0,2440.0,1978.0,3449.0,151.0,2025-07-03 20:17:42,89.0,,-0.11306265874574,-2.30275850215791,-0.109596261300803,,-5.235371778622691,,
,9011.0,3349.0,12463.0,2444.0,2003.0,3439.0,143.0,2025-07-03 20:17:43,89.0,,-0.113196404152025,-2.30318079111274,-0.109844593839247,,-5.317184822302211,,
,9012.0,3351.0,12463.0,2446.0,1993.0,3444.0,144.0,2025-07-03 20:17:44,88.0,,-0.113324466178147,-2.30359531480987,-0.110846285313939,,-5.393456331276469,,
,9020.0,3350.0,12463.0,2443.0,2007.0,3417.0,151.0,2025-07-03 20:17:45,87.0,,-0.113074968267655,-2.30421029876176,-0.111023647065893,,-5.4645590539576885,,
,9022.0,3353.0,12461.0,2446.0,2013.0,3422.0,141.0,2025-07-03 20:17:46,87.0,,-0.113082732994384,-2.30421606243867,-0.110964474273194,,-5.530674306058083,,
,9028.0,3351.0,12462.0,2446.0,1987.0,3450.0,153.0,2025-07-03 20:17:46,87.0,,-0.113207498128709,-2.30413590466003,-0.111152266320732,,-5.5918729165512575,,
,9033.0,3351.0,12463.0,2446.0,2002.0,3453.0,147.0,2025-07-03 20:17:47,87.0,,-0.113195757123717,-2.30438428238658,-0.111438687785879,,-5.648187177408643,,
,9038.0,3351.0,12463.0,2446.0,1995.0,3458.0,156.0,2025-07-03 20:17:49,87.0,,-0.113242826104541,-2.30514982232317,-0.111625067819771,,-5.699664838187716,,
,9041.0,3351.0,12462.0,2447.0,2005.0,3459.0,165.0,2025-07-03 20:17:49,87.0,,-0.113547921119215,-2.30548033981007,-0.112229356922668,,-5.746400930371578,,
,9049.0,3354.0,12462.0,2447.0,1998.0,3456.0,190.0,2025-07-03 20:17:51,86.0,,-0.11385324440792,-2.30635906277293,-0.1123334061352,,-5.788547197993389,,
,9057.0,3356.0,12465.0,2453.0,1987.0,3458.0,184.0,2025-07-03 20:17:51,87.0,,-0.11448447313815,-2.30699946345054,-0.112678880137462,,-5.826301629190834,,
,9061.0,3355.0,12464.0,2453.0,1995.0,3464.0,180.0,2025-07-03 20:17:52,87.0,,-0.114444473425359,-2.30713575620267,-0.113517481383723,,-5.859881989224191,,
,9066.0,3356.0,12466.0,2451.0,1994.0,3461.0,159.0,2025-07-03 20:17:53,87.0,,-0.114626312959812,-2.30813093357689,-0.113480875131639,,-5.889487736240676,,
,9068.0,3356.0,12462.0,2452.0,1996.0,3455.0,161.0,2025-07-03 20:17:55,87.0,,-0.114930595911658,-2.30822440775083,-0.114248139030151,,-5.915254822736833,,
,9075.0,3359.0,12463.0,2454.0,2008.0,3438.0,182.0,2025-07-03 20:17:55,86.0,,-0.115078434896976,-2.30816926391967,-0.114101964765806,,-5.937208052335148,,
,9076.0,3357.0,12463.0,2454.0,2005.0,3445.0,183.0,2025-07-03 20:17:57,86.0,,-0.115331659462298,-2.30881503090888,-0.11454839631557,,-5.955215909723413,,
,9076.0,3354.0,12464.0,2455.0,1993.0,3460.0,198.0,2025-07-03 20:17:57,86.0,,-0.115431151454023,-2.30888204224193,-0.114266542846889,,-5.968952795331591,,
,9074.0,3352.0,12464.0,2451.0,1993.0,3432.0,205.0,2025-07-03 20:17:58,86.0,,-0.116041120786908,-2.30950961238212,-0.114712678913659,,-5.9778729152717425,,
,9068.0,3351.0,12464.0,2450.0,1998.0,3432.0,209.0,2025-07-03 20:18:00,85.0,,-0.116042461963823,-2.30950401166516,-0.114787787733031,,-5.981198472921425,,
,9066.0,3350.0,12462.0,2449.0,1996.0,3413.0,218.0,2025-07-03 20:18:00,84.0,,-0.116498400157465,-2.30988100457276,-0.115490672461218,,-5.977922637884214,,
,9057.0,3344.0,12463.0,2446.0,1987.0,3415.0,216.0,2025-07-03 20:18:02,83.0,,-0.116483419389066,-2.30970994342512,-0.115267175138915,,-5.966825882736403,,
,9048.0,3341.0,12462.0,2441.0,1999.0,3412.0,205.0,2025-07-03 20:18:03,82.0,,-0.116704677426954,-2.30999941471786,-0.11533520939,,-5.946503397843351,,
,9036.0,3335.0,12459.0,2439.0,2012.0,3416.0,198.0,2025-07-03 20:18:04,81.0,,-0.116597229092374,-2.3094788690437,-0.115258503058705,,-5.915401463648756,,
,9027.0,3330.0,12460.0,2437.0,2009.0,3379.0,171.0,2025-07-03 20:18:04,81.0,,-0.116478656013323,-2.30968352646176,-0.114637565575735,,-5.871861369315926,,
,9013.0,3326.0,12459.0,2433.0,2019.0,3373.0,169.0,2025-07-03 20:18:05,81.0,,-0.116591574275907,-2.30946391229355,-0.115246585864257,,-5.81417017756732,,
,8999.0,3319.0,12457.0,2429.0,2029.0,3387.0,189.0,2025-07-03 20:18:06,81.0,,-0.116374398256716,-2.3085225863159,-0.115283386334808,,-5.740618065071957,,
,8986.0,3316.0,12459.0,2426.0,2016.0,3390.0,197.0,2025-07-03 20:18:08,82.0,,-0.11636644290723,-2.30847597981144,-0.114434592848134,,-5.649562004458949,,
,8972.0,3314.0,12459.0,2422.0,2023.0,3399.0,185.0,2025-07-03 20:18:08,82.0,,-0.116850800621807,-2.30805291915528,-0.114384650467589,,-5.539495142137057,,
,8963.0,3308.0,12460.0,2420.0,2040.0,3416.0,171.0,2025-07-03 20:18:10,82.0,,-0.117057544377144,-2.30762155934182,-0.114123837254216,,-5.409120415079543,,
,8953.0,3311.0,12460.0,2417.0,2036.0,3423.0,163.0,2025-07-03 20:18:10,82.0,,-0.116724252128717,-2.30770182444194,-0.11366267084435,,-5.2574259476517335,,
,8941.0,3308.0,12460.0,2416.0,2039.0,3460.0,162.0,2025-07-03 20:18:12,82.0,,-0.116785870287598,-2.30767856847472,-0.114192557607668,,-5.083758821640169,,
,8936.0,3307.0,12461.0,2415.0,2033.0,3456.0,173.0,,,,-0.116931017565122,-2.30737784460054,-0.114125392311007,,-4.887893002783082,,
,8931.0,3308.0,12461.0,2414.0,2033.0,3440.0,176.0,,,,-0.117371628174459,-2.30776979788263,-0.113764227837031,,-4.670086410554727,,
,8927.0,3310.0,12466.0,2414.0,2035.0,3440.0,172.0,,,,-0.117471003714214,-2.30801821368218,-0.113807504202872,,-4.431121186550036,,
,8920.0,3307.0,12460.0,2414.0,2007.0,3450.0,173.0,,,,-0.117817389584279,-2.30853253521152,-0.113776653684821,,-4.172320275437971,,
,8917.0,3308.0,12463.0,2411.0,1991.0,3447.0,176.0,,,,-0.118213578576211,-2.30914857957881,-0.113831460106072,,-3.8955330734700735,,
,8913.0,3311.0,12463.0,2413.0,2000.0,3434.0,174.0,,,,-0.118621476133063,-2.31011303556197,-0.114628418648931,,-3.6030840414498737,,
,8913.0,3309.0,12464.0,2411.0,2006.0,3425.0,181.0,,,,-0.118809991442352,-2.31073207716211,-0.114628079619584,,-3.29768149703032,,
,8911.0,3312.0,12463.0,2410.0,1997.0,3431.0,171.0,,,,-0.119211588295597,-2.31100333699159,-0.115194529842162,,-2.9822890720045705,,
,8909.0,3312.0,12462.0,2409.0,1989.0,3417.0,168.0,,,,-0.11971267010162,-2.311563187177,-0.115434036546346,,-2.6599682970917646,,
,8908.0,3311.0,12465.0,2412.0,1992.0,3426.0,198.0,,,,-0.119931048564516,-2.31230272652262,-0.115548131778443,,-2.333705793477163,,
,8909.0,3315.0,12467.0,2412.0,2021.0,3468.0,202.0,,,,-0.119762574553759,-2.31274098215337,-0.116149689179107,,-2.0062413832866,,
,8908.0,3314.0,12463.0,2407.0,2012.0,3471.0,205.0,,,,-0.119990360631132,-2.31336488715486,-0.116239402337807,,-1.6799137922293015,,
,8910.0,3314.0,12464.0,2409.0,1989.0,3458.0,215.0,,,,-0.120018702119837,-2.31348860627206,-0.116085673763684,,-1.3565390433500024,,
,8912.0,3314.0,12467.0,2408.0,1975.0,3443.0,190.0,,,,-0.11998855576183,-2.31399294942511,-0.116495748335247,,-1.0373339675891504,,
,8913.0,3318.0,12467.0,2410.0,1989.0,3434.0,195.0,,,,-0.120206817683564,-2.31385800667684,-0.116572729888056,,-0.7228940539935615,,
,8916.0,3318.0,12466.0,2411.0,1981.0,3416.0,206.0,,,,-0.12015443395153,-2.31439516692887,-0.117531475184267,,-0.4132311536836657,,
,8916.0,3319.0,12468.0,2412.0,1982.0,3444.0,181.0,,,,-0.12031902022795,-2.31461611587454,-0.117107793692422,,-0.10787194942041851,,
,8916.0,3322.0,12467.0,2408.0,1966.0,3453.0,178.0,,,,-0.120575357064029,-2.31439250964187,-0.11729691191982,,0.19398776985121255,,
,8920.0,3324.0,12469.0,2411.0,1962.0,3442.0,198.0,,,,-0.120446735228114,-2.31489147558198,-0.117876353117395,,0.4932850315105432,,
,8918.0,3322.0,12468.0,2412.0,1963.0,3459.0,188.0,,,,-0.120513029996824,-2.3148939336908,-0.117741056984854,,0.7908671362472539,,
,8923.0,3323.0,12468.0,2412.0,1967.0,3456.0,177.0,,,,-0.12088880978021,-2.31488162298865,-0.117795314591641,,1.0872699954891882,,
,8922.0,3324.0,12468.0,2410.0,1969.0,3457.0,169.0,,,,-0.120703734029883,-2.31484146678786,-0.117441798104238,,1.382525492442162,,
,8928.0,3326.0,12468.0,2414.0,1978.0,3472.0,184.0,,,,-0.120573021332968,-2.3147742893077,-0.117380860291482,,1.6760243264981425,,
,8926.0,3328.0,12469.0,2413.0,1963.0,3475.0,192.0,,,,-0.120706674638346,-2.31482608887231,-0.117352663211031,,1.966454722932257,,
,8926.0,3326.0,12467.0,2412.0,1979.0,3461.0,208.0,,,,-0.120867546940892,-2.31439355683825,-0.117701880698895,,2.2518283184142853,,
,8928.0,3327.0,12466.0,2410.0,1992.0,3441.0,199.0,,,,-0.120983785846676,-2.31447336481019,-0.117075076977974,,2.529594393916146,,
,8929.0,3327.0,12469.0,2411.0,2012.0,3428.0,200.0,,,,-0.121047072194434,-2.3143480331255,-0.117215330846922,,2.7968340084639878,,
,8930.0,3329.0,12469.0,2411.0,1997.0,3428.0,220.0,,,,-0.121239495542853,-2.31493423345918,-0.117655617405122,,3.050517375326177,,
,8931.0,3327.0,12471.0,2409.0,1994.0,3417.0,210.0,,,,-0.121367116345286,-2.31448145974183,-0.117465360766807,,3.287801355902497,,
,8932.0,3329.0,12470.0,2412.0,2012.0,3427.0,197.0,,,,-0.121635439132789,-2.31498349351815,-0.117191000715053,,3.5063393381590533,,
,8932.0,3325.0,12470.0,2411.0,2002.0,3454.0,209.0,,,,-0.121536028581186,-2.31456111789613,-0.116920014594622,,3.704573144076684,,
,8932.0,3330.0,12472.0,2411.0,2003.0,3451.0,188.0,,,,-0.121652084092363,-2.31410011427057,-0.117370695151318,,3.8819763359240076,,
,8936.0,3330.0,12471.0,2413.0,1998.0,3433.0,199.0,,,,-0.12158450622977,-2.31364101188709,-0.116362183149684,,4.039221021982661,,
,8934.0,3329.0,12473.0,2412.0,1990.0,3433.0,198.0,,,,-0.121578162345498,-2.31399607728701,-0.116740539035656,,4.1782465391510675,,
,8934.0,3327.0,12471.0,2412.0,2000.0,3448.0,189.0,,,,-0.121465135964941,-2.31400748580465,-0.116804168991537,,4.302217935529649,,
,8939.0,3331.0,12471.0,2411.0,2013.0,3438.0,184.0,,,,-0.121620486809616,-2.31417072279263,-0.116736000000651,,4.415373518430984,,
,8939.0,3332.0,12473.0,2411.0,1995.0,3462.0,187.0,,,,-0.121493297126555,-2.31376457142179,-0.116611190467449,,4.522771532162539,,
,8940.0,3332.0,12471.0,2411.0,2010.0,3466.0,194.0,,,,-0.12140596976107,-2.31381326060977,-0.117046252954303,,4.629954127354148,,
,8945.0,3332.0,12472.0,2414.0,2014.0,3457.0,189.0,,,,-0.121516234918625,-2.3140736655186,-0.117091361647875,,4.742551420035334,,
,8945.0,3333.0,12471.0,2415.0,2002.0,3435.0,176.0,,,,-0.121619196321965,-2.31451933986939,-0.117513894562528,,4.865850556244088,,
,8952.0,3336.0,12475.0,2415.0,2004.0,3442.0,174.0,,,,-0.121749201596183,-2.31508330606567,-0.117956157872511,,5.004355881811412,,
,8956.0,3336.0,12472.0,2416.0,2007.0,3426.0,186.0,,,,-0.121837172476877,-2.31497484963011,-0.117344228446668,,5.161367337723255,,
,8955.0,3340.0,12475.0,2419.0,1991.0,3418.0,186.0,,,,-0.122203482189815,-2.31521307506894,-0.118027282549721,,5.338604567905517,,
,8959.0,3335.0,12473.0,2415.0,2007.0,3420.0,185.0,,,,-0.122449437687771,-2.31542901188141,-0.117955195906635,,5.53590301841103,,
,8964.0,3339.0,12473.0,2418.0,2000.0,3442.0,196.0,,,,-0.122138577454592,-2.31580911574744,-0.117936379191224,,5.7510051952380925,,
,8967.0,3342.0,12475.0,2419.0,2024.0,3456.0,188.0,,,,-0.122420322154222,-2.3160478562191,-0.117943751689935,,5.979465691727605,,
,8970.0,3341.0,12475.0,2418.0,2025.0,3447.0,182.0,,,,-0.122500510190814,-2.3162403413528,-0.11837758933553,,6.214683390371428,,
,8974.0,3338.0,12472.0,2420.0,2026.0,3443.0,189.0,,,,-0.122642024043236,-2.31661006798243,-0.118805592007884,,6.448069072591829,,
,8980.0,3341.0,12475.0,2422.0,2014.0,3463.0,188.0,,,,-0.122851845394104,-2.31708245000767,-0.118646880367436,,6.669351829531613,,
,8982.0,3344.0,12473.0,2422.0,2024.0,3444.0,164.0,,,,-0.123002835694521,-2.31746059055082,-0.119328164235556,,6.867022767124156,,
,8986.0,3345.0,12473.0,2422.0,2016.0,3445.0,163.0,,,,-0.123088077612503,-2.31747696851043,-0.11994749885687,,7.028908222313956,,
,8992.0,3347.0,12474.0,2423.0,2039.0,3469.0,170.0,,,,-0.123198697232779,-2.31795160677289,-0.119377245032407,,7.142855118088199,,
,8996.0,3346.0,12475.0,2425.0,2011.0,3464.0,197.0,,,,-0.123363318590255,-2.31816069061596,-0.119599978987881,,7.197496923719293,,
,9002.0,3346.0,12475.0,2428.0,2012.0,3446.0,199.0,,,,-0.123274204174688,-2.31810565060463,-0.119733602544288,,7.183051055572415,,
,9008.0,3350.0,12476.0,2429.0,2019.0,3432.0,213.0,,,,-0.123454992624156,-2.31812878811204,-0.119240379362892,,7.0920814341835605,,
,9012.0,3350.0,12475.0,2429.0,2014.0,3425.0,224.0,,,,-0.123474606185158,-2.31814157069382,-0.119551775963783,,6.920148845429205,,
,9017.0,3351.0,12475.0,2428.0,2016.0,3450.0,234.0,,,,-0.123577918776721,-2.31837069327654,-0.119612309855496,,6.666271693314218,,
,9022.0,3352.0,12478.0,2430.0,2022.0,3443.0,213.0,,,,-0.123845375901388,-2.31873735350644,-0.11989400084607,,6.333133259390789,,
,9028.0,3352.0,12477.0,2431.0,2002.0,3437.0,204.0,,,,-0.124121189866449,-2.31939719345485,-0.119469984644048,,5.926997824254699,,
,9033.0,3353.0,12476.0,2432.0,2001.0,3447.0,199.0,,,,-0.123863656186615,-2.31957816180347,-0.119132293885198,,5.457332482647161,,
,9037.0,3354.0,12479.0,2433.0,1988.0,3440.0,195.0,,,,-0.124108507092703,-2.31981613890438,-0.119746016027993,,4.93616734613636,,
,9042.0,3355.0,12478.0,2436.0,2000.0,3451.0,207.0,,,,-0.124170008799152,-2.31994585727637,-0.120524117417492,,4.377257276375185,,
,9048.0,3355.0,12479.0,2439.0,1985.0,3450.0,203.0,,,,-0.124177015653718,-2.32006064042624,-0.12022232380699,,3.7951288138452535,,
,9052.0,3357.0,12479.0,2438.0,1997.0,3464.0,202.0,,,,-0.124115920862248,-2.3204698478125,-0.120553410497289,,3.2041050319460616,,
,9055.0,3359.0,12480.0,2439.0,2003.0,3445.0,183.0,,,,-0.124096725931197,-2.32057469127572,-0.12102100795611,,2.6173993263901125,,
,9062.0,3357.0,12479.0,2440.0,2017.0,3455.0,169.0,,,,-0.124280929255099,-2.32060231248601,-0.120690235568984,,2.0463582588312925,,
,9066.0,3360.0,12481.0,2441.0,2006.0,3456.0,186.0,,,,-0.124378583118998,-2.32078273798156,-0.12030101436791,,1.4999151893498879,,
,9072.0,3359.0,12480.0,2441.0,2018.0,3442.0,194.0,,,,-0.124274871825095,-2.32073153709088,-0.121038628352557,,0.9842922493720668,,
,9076.0,3359.0,12477.0,2439.0,2024.0,3425.0,192.0,,,,-0.124486079589291,-2.32075835240307,-0.120849458592618,,0.5029605491890908,,
,9078.0,3362.0,12480.0,2443.0,1995.0,3431.0,186.0,,,,-0.124287533169434,-2.32119622093084,-0.120822669991394,,0.056840733086366314,,
,9083.0,3361.0,12480.0,2443.0,1984.0,3426.0,201.0,,,,-0.124390241476972,-2.32099816897605,-0.120670998336861,,-0.35529807848450856,,
,9092.0,3364.0,12481.0,2449.0,1985.0,3418.0,199.0,,,,-0.124209895906226,-2.32081397947957,-0.121130827501447,,-0.7363001356468728,,
,9095.0,3363.0,12481.0,2447.0,1989.0,3418.0,186.0,,,,-0.124101659089035,-2.32117057734887,-0.120987779392019,,-1.0900135973294425,,
,9097.0,3365.0,12481.0,2449.0,1989.0,3421.0,197.0,,,,-0.124150935564371,-2.32109596372587,-0.121422046381299,,-1.4206778643885332,,
,9102.0,3364.0,12478.0,2449.0,1990.0,3451.0,194.0,,,,-0.124066249157568,-2.32127093846811,-0.121520709395875,,-1.7323686463423236,,
,9108.0,3366.0,12480.0,2449.0,1993.0,3436.0,191.0,,,,-0.124106198768902,-2.32112193904809,-0.121637847054498,,-2.0285490641828443,,
2025-07-03 20:15:15,9112.0,3366.0,12480.0,2450.0,1996.0,3439.0,189.0,,,2025/07/03 08:15:15 PM,-0.123997721549222,-2.32109335854218,-0.121433545284367,,-2.311759176444581,,
,9116.0,3366.0,12481.0,2453.0,1995.0,3448.0,187.0,,,,-0.124060742076144,-2.32118385754032,-0.121744158910681,,-2.583459183745354,,
,9120.0,3364.0,12479.0,2450.0,1996.0,3451.0,182.0,,,,-0.123906678650419,-2.32125727586358,-0.122044615137788,,-2.844024827818916,,
,9124.0,3367.0,12482.0,2454.0,2007.0,3466.0,187.0,,,,-0.124080751191175,-2.32160611178378,-0.121497713244919,,-3.0928782588510946,,
,9130.0,3367.0,12482.0,2455.0,1997.0,3476.0,188.0,,,,-0.123944278504222,-2.32133953297736,-0.121551287183624,,-3.3287247719095587,,
,9134.0,3369.0,12481.0,2454.0,2003.0,3468.0,171.0,,,,-0.124031475726262,-2.3211256924463,-0.121381354631489,,-3.549856358019619,,
,9139.0,3370.0,12480.0,2458.0,2011.0,3462.0,175.0,,,,-0.123880223204184,-2.32118182500868,-0.121554602146053,,-3.7544782946013693,,
,9143.0,3371.0,12484.0,2457.0,2023.0,3427.0,196.0,,,,-0.123981936584515,-2.32094984392237,-0.121528508571939,,-3.9410160403307346,,
,9146.0,3369.0,12485.0,2458.0,1988.0,3434.0,192.0,,,,-0.123911104834802,-2.32131105813545,-0.121697365261094,,-4.108366381120619,,
,9154.0,3371.0,12484.0,2460.0,1975.0,3433.0,182.0,,,,-0.123933046343301,-2.32150371903851,-0.121939720829889,,-4.256067523753606,,
,9158.0,3372.0,12483.0,2460.0,1972.0,3440.0,199.0,,,,-0.123936813139999,-2.32182206081677,-0.121812851962913,,-4.384375257145937,,
,9164.0,3373.0,12482.0,2461.0,1987.0,3435.0,209.0,,,,-0.12416386243465,-2.32137473814756,-0.121997802152654,,-4.494244226079532,,
,9168.0,3376.0,12482.0,2463.0,1980.0,3443.0,199.0,,,,-0.124081872851221,-2.32194413696835,-0.121899654751904,,-4.587223481888374,,
,9173.0,3374.0,12487.0,2466.0,1982.0,3469.0,176.0,,,,-0.124037714358216,-2.32170708107248,-0.121980880622999,,-4.665283300500208,,
,9172.0,3375.0,12484.0,2465.0,1992.0,3471.0,184.0,,,,-0.124028137416712,-2.32204505946654,-0.122313303149721,,-4.7305957116621995,,
,9174.0,3374.0,12481.0,2464.0,2005.0,3411.0,196.0,,,,-0.124115345343901,-2.3216751806456,-0.122269828338982,,-4.785294272395986,,
,9174.0,3373.0,12484.0,2466.0,2007.0,3440.0,196.0,,,,-0.123796256304119,-2.32216884579089,-0.122648598104236,,-4.831239340211614,,
,9176.0,3372.0,12484.0,2467.0,1989.0,3469.0,214.0,,,,-0.12381029294961,-2.32211143456171,-0.12293022136447,,-4.869813445442132,,
,9172.0,3372.0,12483.0,2460.0,1991.0,3470.0,212.0,,,,-0.123608218485521,-2.32207033283879,-0.122007262135734,,-4.901767316577325,,
,9166.0,3368.0,12482.0,2462.0,2012.0,3468.0,204.0,,,,-0.123717187995406,-2.32224430602553,-0.122706326953219,,-4.927130768209038,,
,9159.0,3364.0,12484.0,2460.0,2001.0,3468.0,187.0,,,,-0.123500003777343,-2.32218809717094,-0.123146018417141,,-4.945194489598949,,
,9155.0,3359.0,12484.0,2457.0,1980.0,3453.0,192.0,,,,-0.122954402193929,-2.32158359247147,-0.122130581720171,,-4.954559935377315,,
,9147.0,3358.0,12483.0,2455.0,1980.0,3457.0,191.0,,,,-0.122628174701311,-2.32023207690664,-0.12127560515184,,-4.953246785695128,,
,9132.0,3352.0,12484.0,2451.0,1990.0,3444.0,188.0,,,,-0.122148872066047,-2.3199377771644,-0.121151522326172,,-4.938842452518208,,
,9124.0,3344.0,12481.0,2444.0,1984.0,3439.0,189.0,,,,-0.122169947477511,-2.32000463642262,-0.120672969494524,,-4.908676471403276,,
,9113.0,3340.0,12484.0,2443.0,1994.0,3423.0,183.0,,,,-0.122209601391225,-2.31959471066462,-0.121148664195749,,-4.860003659217239,,
,9101.0,3336.0,12484.0,2442.0,1986.0,3436.0,203.0,,,,-0.122196239979681,-2.31938868284262,-0.120597428050773,,-4.790182284819897,,
,9087.0,3332.0,12481.0,2440.0,1989.0,3429.0,211.0,,,,-0.121815667406597,-2.31893840033931,-0.120847553209221,,-4.696836029453312,,
,9074.0,3327.0,12481.0,2433.0,1979.0,3404.0,229.0,,,,-0.121662101354963,-2.31909037492193,-0.121155171549392,,-4.577990727235621,,
,9059.0,3324.0,12481.0,2432.0,2002.0,3407.0,201.0,,,,-0.121751349605534,-2.31888047078891,-0.121247934334235,,-4.4321789732083685,,
,9047.0,3322.0,12476.0,2428.0,1986.0,3427.0,207.0,,,,-0.121769326008169,-2.31932300718285,-0.121359319681928,,-4.258508262470346,,
,9037.0,3323.0,12479.0,2427.0,1983.0,3415.0,185.0,,,,-0.121790415195605,-2.31898979078854,-0.121288420928851,,-4.056691961587652,,
,9030.0,3322.0,12478.0,2426.0,1973.0,3411.0,174.0,,,,-0.121596554541383,-2.319492868366,-0.121640318358933,,-3.827047182161147,,
,9024.0,3321.0,12479.0,2423.0,1971.0,3419.0,153.0,,,,-0.121317417466903,-2.31870981275282,-0.120631992449554,,-3.5704686518772304,,
,9017.0,3324.0,12476.0,2422.0,1992.0,3456.0,172.0,,,,-0.120841854268088,-2.31897263278405,-0.12044981174103,,-3.2883911626503295,,
,9010.0,3321.0,12479.0,2422.0,1993.0,3469.0,175.0,,,,-0.121268342116337,-2.31937678970027,-0.120515103599634,,-2.982753173592029,,
,9005.0,3323.0,12479.0,2421.0,1977.0,3467.0,156.0,,,,-0.121333823490983,-2.31994164635819,-0.121164703378747,,-2.6559698557841784,,
,9000.0,3320.0,12477.0,2422.0,1973.0,3443.0,172.0,,,,-0.1216928016301,-2.32028011447575,-0.121675005798753,,-2.3109165027765486,,
,8998.0,3324.0,12477.0,2420.0,1997.0,3444.0,162.0,,,,-0.121620894147826,-2.32076201585934,-0.121198235458631,,-1.950915531961376,,
,8997.0,3324.0,12478.0,2421.0,1995.0,3451.0,165.0,,,,-0.121694090950104,-2.32060799250938,-0.12149644086141,,-1.5797148553915763,,
,8994.0,3324.0,12482.0,2419.0,1990.0,3466.0,169.0,,,,-0.121714423392669,-2.32091953206095,-0.121419238269955,,-1.201443342481404,,
,8990.0,3324.0,12480.0,2418.0,1982.0,3448.0,177.0,,,,-0.1218330816434,-2.32063735606469,-0.121505661935893,,-0.8205302728863719,,
,8989.0,3326.0,12482.0,2419.0,2003.0,3457.0,197.0,,,,-0.12185266197432,-2.32045318288665,-0.121456785459629,,-0.44157959777896355,,
,8986.0,3328.0,12481.0,2422.0,1988.0,3437.0,207.0,,,,-0.121877461332297,-2.32027667171911,-0.120713100938038,,-0.06919619840801214,,
,8990.0,3326.0,12483.0,2419.0,1975.0,3443.0,205.0,,,,-0.12189486298047,-2.31955489218469,-0.120741393390368,,0.2922302675399865,,
,8988.0,3328.0,12480.0,2421.0,2002.0,3445.0,195.0,,,,-0.122058456816388,-2.31970913707819,-0.120563858784706,,0.6387690870752185,,
,8988.0,3328.0,12480.0,2421.0,1984.0,3456.0,207.0,,,,-0.122014025888388,-2.31968347134923,-0.12073862457968,,0.9671969198505307,,
,8986.0,3331.0,12484.0,2422.0,1978.0,3451.0,212.0,,,,-0.122186427413498,-2.31978673847236,-0.120815759183815,,1.2752236598251978,,
,8989.0,3333.0,12485.0,2421.0,1975.0,3454.0,205.0,,,,-0.12198596905366,-2.31978808286786,-0.120950075859058,,1.5616692749306804,,
,8992.0,3335.0,12482.0,2424.0,1984.0,3443.0,212.0,,,,-0.12232558259077,-2.32020087287409,-0.12144926713584,,1.826571355974292,,
,8988.0,3333.0,12484.0,2419.0,1978.0,3446.0,201.0,,,,-0.12215794649758,-2.32054148454437,-0.121152080185635,,2.071213152556564,,
,8992.0,3334.0,12483.0,2419.0,1972.0,3447.0,212.0,,,,-0.122101906036187,-2.32105515276718,-0.121515749338941,,2.298072989296667,,
,8994.0,3336.0,12488.0,2423.0,1972.0,3444.0,209.0,,,,-0.121793114889489,-2.32099739307648,-0.121349110501031,,2.5107048677972053,,
,8993.0,3338.0,12483.0,2422.0,1973.0,3455.0,201.0,,,,-0.121986355068387,-2.32097378934794,-0.121997801309134,,2.7135642143068197,,
,8995.0,3337.0,12485.0,2422.0,1985.0,3458.0,200.0,,,,-0.122047228576622,-2.32119919181668,-0.121711591571785,,2.911791494423303,,
,8995.0,3336.0,12483.0,2419.0,1985.0,3440.0,191.0,,,,-0.121884632483721,-2.32102002677322,-0.121921415098023,,3.110961401679613,,
,8994.0,3336.0,12488.0,2421.0,1996.0,3456.0,189.0,,,,-0.121776865748234,-2.32095984128324,-0.122065544749406,,3.3167994648704253,,
,8996.0,3339.0,12485.0,2423.0,1976.0,3447.0,204.0,,,,-0.121644442197582,-2.32115488424637,-0.121895546431368,,3.534863937104565,,
,8993.0,3338.0,12486.0,2422.0,1963.0,3451.0,195.0,,,,-0.121804788004464,-2.32083599808551,-0.12234789731986,,3.7701903304757662,,
,8994.0,3339.0,12488.0,2418.0,1980.0,3439.0,194.0,,,,-0.121646338323579,-2.32076643176459,-0.122079621557658,,4.026899487876727,,
,8995.0,3338.0,12485.0,2420.0,2001.0,3436.0,201.0,,,,-0.121700774247001,-2.32100447149186,-0.122356752525552,,4.307777508513877,,
,8994.0,3340.0,12487.0,2425.0,1995.0,3445.0,183.0,,,,-0.121497610157889,-2.32050274078189,-0.123216323656809,,4.613846347364579,,
,8997.0,3337.0,12489.0,2420.0,1986.0,3460.0,189.0,,,,-0.121361714098697,-2.32036322416025,-0.122651304411772,,4.943955766016422,,
,8992.0,3341.0,12486.0,2418.0,1996.0,3451.0,213.0,,,,-0.121207698742621,-2.32054172834255,-0.122541719224939,,5.29443809923907,,
,8999.0,3339.0,12489.0,2420.0,2000.0,3448.0,195.0,,,,-0.121258841032241,-2.32046774117218,-0.122469547121267,,5.658874509824948,,
,8998.0,3341.0,12490.0,2422.0,1985.0,3456.0,205.0,,,,-0.121087243307506,-2.32044111229123,-0.122413758244805,,6.028022859895723,,
,8998.0,3341.0,12490.0,2421.0,1987.0,3461.0,192.0,,,,-0.120699833867943,-2.31980650411071,-0.122012180358355,,6.38995125115943,,
,8998.0,3339.0,12490.0,2422.0,2010.0,3454.0,206.0,,,,-0.120392086049864,-2.31909154659728,-0.12112422461221,,6.7304066239978395,,
,9003.0,3339.0,12489.0,2420.0,1991.0,3453.0,200.0,,,,-0.120107365471682,-2.31850936663942,-0.120708016605409,,7.033425181759006,,
,9006.0,3343.0,12491.0,2424.0,1987.0,3443.0,196.0,,,,-0.120026950015975,-2.31867916218528,-0.121046316094533,,7.28216383126282,,
,9009.0,3344.0,12491.0,2423.0,1990.0,3437.0,207.0,,,,-0.120322841812622,-2.31855988571682,-0.120755615270745,,7.459903961382241,,
,9012.0,3344.0,12493.0,2423.0,1984.0,3426.0,207.0,,,,-0.120164299624854,-2.31823604445202,-0.120783356497467,,7.55115516134112,,
,9016.0,3343.0,12493.0,2421.0,1985.0,3439.0,196.0,,,,-0.120313754206333,-2.31874401018133,-0.120657437869473,,7.542769715531257,,
,9023.0,3346.0,12494.0,2425.0,1982.0,3434.0,207.0,,,,-0.120671995738078,-2.31929029422688,-0.121121119235743,,7.424970067794972,,
,9026.0,3349.0,12496.0,2426.0,1991.0,3438.0,199.0,,,,-0.120596874359065,-2.31988826836513,-0.121118503220753,,7.192191485146304,,
,9030.0,3350.0,12495.0,2429.0,1999.0,3431.0,196.0,,,,-0.120934789885391,-2.32044513387174,-0.121287198353608,,6.84365183436737,,
,9033.0,3348.0,12493.0,2425.0,1985.0,3431.0,202.0,,,,-0.121232805438941,-2.32080004827922,-0.121681171438734,,6.383581011022616,,
,9041.0,3350.0,12496.0,2427.0,1994.0,3436.0,193.0,,,,-0.12132237411611,-2.32127177713115,-0.121724412353321,,5.821074338133249,,
,9046.0,3355.0,12497.0,2428.0,1969.0,3440.0,199.0,,,,-0.121762358427912,-2.32235639443273,-0.122306052883479,,5.169574582302027,,
,9053.0,3354.0,12501.0,2429.0,1970.0,3453.0,196.0,,,,-0.122077168436449,-2.32293001525117,-0.122584326706948,,4.446030114510344,,
,9059.0,3354.0,12499.0,2431.0,2001.0,3473.0,179.0,,,,-0.122392275021864,-2.32352293569779,-0.122207778698842,,3.6698139795334233,,
,9064.0,3354.0,12498.0,2430.0,2002.0,3485.0,203.0,,,,-0.12280631303183,-2.32437167900787,-0.122320412499417,,2.861512647125493,,
,9071.0,3356.0,12498.0,2432.0,1989.0,3480.0,181.0,,,,-0.123188576178555,-2.3249162458143,-0.12310878492658,,2.04170010828421,,
,9078.0,3358.0,12500.0,2434.0,1988.0,3464.0,201.0,,,,-0.1236381729768,-2.32569165626126,-0.123248242978715,,1.229803909312117,,
,9086.0,3360.0,12501.0,2434.0,1990.0,3455.0,211.0,,,,-0.123849897922361,-2.32642748110804,-0.123478203744212,,0.4431494396225289,,
,9088.0,3360.0,12497.0,2434.0,1995.0,3451.0,233.0,,,,-0.124201526609521,-2.32732104462574,-0.12364843200084,,-0.3037573165019136,,
,9097.0,3362.0,12501.0,2434.0,1990.0,3452.0,204.0,,,,-0.124336692637488,-2.32759894393167,-0.12374269749365,,-0.9996762971443411,,
,9102.0,3362.0,12501.0,2439.0,1971.0,3450.0,203.0,,,,-0.124702564848059,-2.32820845287046,-0.123619759440347,,-1.6368041075790967,,
,9109.0,3365.0,12500.0,2440.0,1962.0,3442.0,204.0,,,,-0.124568157268726,-2.32886492114483,-0.123580697407757,,-2.2106885338436086,,
,9114.0,3363.0,12499.0,2439.0,1978.0,3452.0,223.0,,,,-0.124930292128148,-2.32877160379553,-0.123512866474411,,-2.719926602921151,,
,9122.0,3364.0,12499.0,2441.0,1982.0,3441.0,206.0,,,,-0.12513709252921,-2.32975832762647,-0.124158248952687,,-3.165700478827809,,
,9129.0,3366.0,12501.0,2440.0,1973.0,3427.0,208.0,,,,-0.125527456266782,-2.330432164016,-0.124448163276335,,-3.5512133491628255,,
,9136.0,3368.0,12499.0,2443.0,1970.0,3433.0,211.0,,,,-0.125824100828729,-2.33093397134138,-0.124807844182904,,-3.8810882238929514,,
,9141.0,3369.0,12499.0,2443.0,1984.0,3454.0,200.0,,,,-0.12620339132055,-2.33206121312979,-0.125322665885933,,-4.160786376918273,,
,9145.0,3366.0,12498.0,2444.0,1981.0,3463.0,200.0,,,,-0.126306657681861,-2.33254411422101,-0.12589174590963,,-4.3960901564273565,,
,9153.0,3366.0,12501.0,2445.0,1976.0,3445.0,174.0,,,,-0.126899799994523,-2.33328308243878,-0.126551690714864,,-4.59267959394963,,
,9158.0,3370.0,12500.0,2444.0,1982.0,3453.0,175.0,,,,-0.127054247135615,-2.33407369132656,-0.126325082612531,,-4.755817085016496,,
,9166.0,3369.0,12503.0,2447.0,1988.0,3453.0,182.0,,,,-0.12708905632075,-2.33389103508814,-0.127328037128578,,-4.890142212566172,,
,9171.0,3370.0,12501.0,2445.0,2001.0,3457.0,189.0,,,,-0.127313391570082,-2.33474906940411,-0.127564474920111,,-4.99957038025977,,
,9178.0,3371.0,12502.0,2447.0,2000.0,3454.0,189.0,,,,-0.12738568568808,-2.33499477003848,-0.127087837820736,,-5.087283382453175,,
,9188.0,3372.0,12505.0,2451.0,1998.0,3436.0,197.0,,,,-0.127639870195746,-2.33511367665302,-0.12732981777659,,-5.155796069913773,,
,9192.0,3373.0,12504.0,2450.0,1997.0,3437.0,198.0,,,,-0.1277824413331,-2.33564142068661,-0.127328100714182,,-5.2070803327186015,,
,9197.0,3375.0,12503.0,2453.0,1993.0,3453.0,205.0,,,,-0.127675668945326,-2.33614828439749,-0.127518137209125,,-5.242725920593169,,
,9202.0,3371.0,12502.0,2453.0,2000.0,3428.0,221.0,,,,-0.127894298420762,-2.33621895913475,-0.12791668184677,,-5.264117509099202,,
,9209.0,3373.0,12501.0,2455.0,2002.0,3450.0,172.0,,,,-0.128032095631175,-2.33621984597554,-0.127531620027247,,-5.272608951530125,,
,9219.0,3374.0,12506.0,2458.0,1990.0,3466.0,172.0,,,,-0.12818232498969,-2.33683641146709,-0.127601307125257,,-5.269678465686269,,
,9224.0,3378.0,12504.0,2458.0,1978.0,3469.0,166.0,,,,-0.128346360169101,-2.33729833197696,-0.128381294349372,,-5.2570518151408585,,
,9229.0,3377.0,12503.0,2459.0,1990.0,3451.0,184.0,,,,-0.128523699309291,-2.33744530022511,-0.128971105088759,,-5.236783349554607,,
,9238.0,3379.0,12504.0,2459.0,1990.0,3448.0,191.0,,,,-0.128692622746276,-2.33770926475055,-0.128776637312828,,-5.211286368285898,,
,9240.0,3379.0,12504.0,2460.0,2007.0,3430.0,184.0,,,,-0.128778798029029,-2.3385823700953,-0.128833376511245,,-5.183304940005933,,
,9248.0,3380.0,12506.0,2462.0,2003.0,3434.0,176.0,,,,-0.128590655644652,-2.33887300805301,-0.129910862238882,,-5.155820456269992,,
,9256.0,3382.0,12508.0,2461.0,1993.0,3435.0,178.0,,,,-0.128944661974934,-2.33934826172892,-0.130383117052204,,-5.131889622435462,,
,9264.0,3381.0,12511.0,2460.0,1996.0,3431.0,169.0,,,,-0.129192601057292,-2.33968545283198,-0.130024009116923,,-5.114417258316796,,
,9271.0,3383.0,12509.0,2464.0,1996.0,3422.0,157.0,,,,-0.129214611162743,-2.33980513867498,-0.130208707378186,,-5.105876529845785,,
,9278.0,3383.0,12510.0,2464.0,2002.0,3432.0,159.0,,,,-0.129275377961787,-2.33996091201593,-0.13136162290721,,-5.107999049231865,,
,9284.0,3384.0,12509.0,2464.0,1994.0,3403.0,186.0,,,,-0.129809651713175,-2.34044766379673,-0.130950796447181,,-5.121465329456203,,
,9289.0,3383.0,12512.0,2464.0,2004.0,3451.0,182.0,,,,-0.129615174962951,-2.3406428045286,-0.130601393128104,,-5.145630603801485,,
,9298.0,3386.0,12515.0,2469.0,1980.0,3437.0,197.0,,,,-0.12972793389662,-2.34134689955413,-0.131157860267623,,-5.178321174678669,,
,9307.0,3386.0,12516.0,2468.0,1994.0,3448.0,217.0,,,,-0.129871977054898,-2.34188961781413,-0.132621772245912,,-5.215732264431587,,
,9315.0,3389.0,12519.0,2469.0,2000.0,3448.0,223.0,,,,-0.130209687730902,-2.34179500180037,-0.133069032469529,,-5.252450514084799,,
,9323.0,3387.0,12520.0,2470.0,2013.0,3467.0,193.0,,,,-0.130369641659193,-2.34241187479369,-0.132120651418469,,-5.281613838751582,,
,9329.0,3388.0,12521.0,2472.0,2008.0,3476.0,199.0,,,,-0.130565807006747,-2.34275374974712,-0.133383260901689,,-5.2952092452617565,,
,9334.0,3390.0,12523.0,2471.0,1990.0,3478.0,189.0,,,,-0.130708110464007,-2.34354419582057,-0.133866009467728,,-5.2844962113678635,,
,9340.0,3388.0,12523.0,2472.0,1995.0,3471.0,174.0,,,,-0.130675899856375,-2.34403080356493,-0.134158911212335,,-5.240530186109404,,
,9339.0,3388.0,12523.0,2470.0,2021.0,3458.0,182.0,,,,-0.130385106145383,-2.3436163935933,-0.13467257354695,,-5.154749031992792,,
,9341.0,3385.0,12526.0,2469.0,1991.0,3430.0,206.0,,,,-0.130466318646583,-2.34336090718222,-0.133727902446063,,-5.0195764693454,,
,9342.0,3387.0,12526.0,2469.0,2006.0,3416.0,213.0,,,,-0.130586501658636,-2.34396525238681,-0.134499385100211,,-4.828992125981505,,
,9339.0,3383.0,12530.0,2467.0,2008.0,3424.0,222.0,,,,-0.130677398295404,-2.34412387893612,-0.135038225146799,,-4.579018071531999,,
2025-07-03 20:15:16,9334.0,3378.0,12528.0,2462.0,2011.0,3429.0,224.0,,,2025/07/03 08:15:16 PM,-0.130862066751725,-2.34461330798604,-0.134764807336136,,-4.268076578153261,,
,9328.0,3375.0,12528.0,2457.0,1984.0,3451.0,203.0,,,,-0.13073966982922,-2.34467969633145,-0.134698286729001,,-3.8971833324405454,,
,9328.0,3371.0,12527.0,2456.0,1989.0,3398.0,209.0,,,,-0.130712654754155,-2.34468175359937,-0.134840312897169,,-3.4699546364968272,,
,9318.0,3367.0,12530.0,2456.0,1978.0,3398.0,230.0,,,,-0.130695114754889,-2.3449685082583,-0.134315693272265,,-2.992425513627794,,
,9311.0,3364.0,12528.0,2452.0,1978.0,3411.0,233.0,,,,-0.130711496143659,-2.34445179539282,-0.134648353489056,,-2.4726953720849068,,
,9304.0,3356.0,12528.0,2442.0,1983.0,3413.0,218.0,,,,-0.130622050099416,-2.34437056899555,-0.135111763503172,,-1.9204350454527785,,
,9295.0,3355.0,12532.0,2441.0,1973.0,3423.0,225.0,,,,-0.130145105745279,-2.34434349103724,-0.134722745791612,,-1.3463004016765565,,
,9285.0,3353.0,12533.0,2440.0,1974.0,3420.0,235.0,,,,-0.130219665820552,-2.34375017244652,-0.135199450420373,,-0.7613021461378722,,
,9274.0,3345.0,12530.0,2436.0,1981.0,3436.0,245.0,,,,-0.129946416044478,-2.34349923409835,-0.135597118445389,,-0.17617974089272967,,
,9267.0,3342.0,12532.0,2435.0,1983.0,3430.0,219.0,,,,-0.129608047578934,-2.342789539031,-0.135136550169147,,0.39917860951538053,,
,9255.0,3341.0,12529.0,2430.0,1989.0,3436.0,215.0,,,,-0.129476616351423,-2.34196257687775,-0.13363609114652,,0.9562360731759195,,
,9250.0,3341.0,12534.0,2428.0,1973.0,3424.0,219.0,,,,-0.128751573129216,-2.34083302900913,-0.132004012376727,,1.4882021377813772,,
,9245.0,3341.0,12532.0,2425.0,1995.0,3446.0,198.0,,,,-0.128592714330668,-2.33978015324218,-0.131890442473855,,1.9903053615016824,,
,9234.0,3338.0,12533.0,2425.0,2010.0,3445.0,203.0,,,,-0.128453541328104,-2.34006381845102,-0.132076247067447,,2.459934872110908,,
,9232.0,3338.0,12534.0,2422.0,2012.0,3448.0,219.0,,,,-0.128406359334367,-2.3390840231707,-0.131795993266867,,2.8966493065182135,,
,9228.0,3339.0,12537.0,2420.0,1998.0,3457.0,217.0,,,,-0.128034867307051,-2.33884083053687,-0.131463902678492,,3.3020586930102493,,
,9225.0,3338.0,12534.0,2419.0,1997.0,3454.0,215.0,,,,-0.127895719989462,-2.33874359582451,-0.132478655155678,,3.67958948497645,,
,9217.0,3337.0,12533.0,2422.0,2003.0,3450.0,217.0,,,,-0.127721848503339,-2.33777232011997,-0.13226442964376,,4.034145195374436,,
,9218.0,3339.0,12537.0,2418.0,2008.0,3462.0,220.0,,,,-0.127299655146302,-2.33730307409018,-0.132064904249657,,4.371676149570725,,
,9215.0,3341.0,12537.0,2419.0,1999.0,3451.0,207.0,,,,-0.127349256059728,-2.33692411344387,-0.132581050559423,,4.698674090340533,,
,9213.0,3342.0,12539.0,2419.0,2003.0,3452.0,219.0,,,,-0.126667649021772,-2.33455336543964,-0.130524842328396,,5.021612430073766,,
,9209.0,3339.0,12535.0,2417.0,2016.0,3446.0,223.0,,,,-0.126364908862888,-2.33409145801519,-0.131005644461796,,5.346360579321652,,
,9207.0,3339.0,12535.0,2417.0,2003.0,3413.0,198.0,,,,-0.125558986773837,-2.33288693419954,-0.130378257269135,,5.67760868960699,,
,9205.0,3343.0,12535.0,2417.0,2011.0,3439.0,204.0,,,,-0.124621888531056,-2.33104988202433,-0.12973257013205,,6.018344376256163,,
,9208.0,3343.0,12537.0,2418.0,2006.0,3413.0,201.0,,,,-0.124051311485998,-2.33024559304383,-0.129542773613059,,6.369423702327636,,
,9207.0,3346.0,12539.0,2417.0,1998.0,3404.0,231.0,,,,-0.123932082692395,-2.32957430905072,-0.129456130071119,,6.729274863844841,,
,9208.0,3346.0,12540.0,2418.0,1979.0,3396.0,231.0,,,,-0.123606443174625,-2.32909970817233,-0.129843508771145,,7.093765485692138,,
,9207.0,3346.0,12538.0,2415.0,1988.0,3392.0,226.0,,,,-0.123218155321426,-2.32839565162093,-0.130290350371112,,7.456253799046156,,
,9209.0,3349.0,12539.0,2418.0,1996.0,3416.0,211.0,,,,-0.123229737163405,-2.32830920475781,-0.130377788383708,,7.807830434338376,,
,9208.0,3347.0,12541.0,2420.0,1977.0,3434.0,217.0,,,,-0.122933633158047,-2.32804353208175,-0.130545520237318,,8.137741884793478,,
,9210.0,3351.0,12537.0,2419.0,1974.0,3459.0,230.0,,,,-0.122751793495123,-2.32736323283638,-0.13083901557121,,8.433970708281272,,
,9208.0,3348.0,12539.0,2417.0,1984.0,3471.0,221.0,,,,-0.122282736251568,-2.32701357226153,-0.130447265346682,,8.683933564184803,,
,9209.0,3351.0,12539.0,2417.0,2006.0,3478.0,217.0,,,,-0.122326804115677,-2.32696378718302,-0.131090214388946,,8.875248129329014,,
,9211.0,3354.0,12542.0,2417.0,2021.0,3475.0,216.0,,,,-0.12183549262882,-2.3267256426568,-0.131276793698369,,8.99651484226341,,
,9213.0,3352.0,12541.0,2416.0,1991.0,3439.0,216.0,,,,-0.1218184891101,-2.32621954415058,-0.131796771290507,,9.038059298307035,,
,9208.0,3352.0,12541.0,2419.0,1999.0,3432.0,211.0,,,,-0.12157811872808,-2.32588712188213,-0.131909499230789,,8.992584909486487,,
,9211.0,3351.0,12540.0,2418.0,1999.0,3426.0,213.0,,,,-0.121494108720759,-2.32548644829696,-0.132265592074833,,8.855691653919797,,
,9212.0,3350.0,12538.0,2418.0,2027.0,3427.0,230.0,,,,-0.121362725570638,-2.32570869666306,-0.132243052834157,,8.62622453763039,,
,9207.0,3350.0,12541.0,2418.0,2012.0,3416.0,239.0,,,,-0.121235488035123,-2.32525143710052,-0.13160096806737,,8.306425061325587,,
,9208.0,3351.0,12540.0,2416.0,2002.0,3411.0,244.0,,,,-0.120994803526283,-2.32480164644606,-0.13166186461556,,7.9018711517762235,,
,9207.0,3354.0,12539.0,2417.0,2000.0,3413.0,223.0,,,,-0.120861148841522,-2.32438047348384,-0.131478602059401,,7.4212056465828535,,
,9205.0,3353.0,12539.0,2417.0,1999.0,3423.0,195.0,,,,-0.120768234468191,-2.3239998563313,-0.131573889893927,,6.875669539353345,,
,9207.0,3353.0,12540.0,2417.0,1993.0,3443.0,184.0,,,,-0.120577825850991,-2.32332018553585,-0.131182795232776,,6.278472159132646,,
,9205.0,3354.0,12540.0,2417.0,1990.0,3454.0,173.0,,,,-0.119907177700612,-2.32259095599485,-0.130071060809325,,5.644044330080998,,
,9203.0,3352.0,12539.0,2415.0,2002.0,3462.0,173.0,,,,-0.11997100875355,-2.3229795810253,-0.131183214215934,,4.987230584410201,,
,9200.0,3352.0,12541.0,2417.0,2007.0,3453.0,169.0,,,,-0.119699070352965,-2.32257857716553,-0.130889848033613,,4.322481658190132,,
,9202.0,3352.0,12541.0,2416.0,1991.0,3431.0,196.0,,,,-0.119220123326212,-2.32193202748677,-0.12994103781837,,3.6631084958486397,,
,9203.0,3353.0,12540.0,2415.0,1992.0,3432.0,206.0,,,,-0.118635878978599,-2.32105292148701,-0.12914052057348,,3.0206536768962144,,
,9204.0,3353.0,12540.0,2415.0,1978.0,3437.0,215.0,,,,-0.118224860786904,-2.32037998292308,-0.128588665491842,,2.404425299989678,,
,9203.0,3353.0,12540.0,2416.0,1974.0,3441.0,232.0,,,,-0.118175333413339,-2.3198000089533,-0.128469077195598,,1.821222307746062,,
,9206.0,3354.0,12542.0,2416.0,1993.0,3447.0,241.0,,,,-0.117836068605411,-2.31930612393423,-0.127652914968398,,1.2752609270270354,,
,9206.0,3354.0,12544.0,2419.0,1991.0,3460.0,236.0,,,,-0.11772949371661,-2.3192000756072,-0.12791458106348,,0.7682924330817391,,
,9209.0,3360.0,12542.0,2418.0,1996.0,3446.0,211.0,,,,-0.117859143692971,-2.32007565174561,-0.128107734409206,,0.29988573447323735,,
,9212.0,3354.0,12540.0,2417.0,1998.0,3428.0,232.0,,,,-0.118070573843259,-2.31981450695861,-0.128105905996492,,-0.13216400202206333,,
,9214.0,3359.0,12541.0,2418.0,2005.0,3447.0,232.0,,,,-0.118096131843283,-2.32002415653099,-0.128907585690318,,-0.5313468839473711,,
,9219.0,3360.0,12541.0,2420.0,1999.0,3463.0,231.0,,,,-0.118078204321214,-2.32017416340143,-0.128692243406926,,-0.9019189814958102,,
,9219.0,3361.0,12543.0,2420.0,1992.0,3452.0,225.0,,,,-0.118222402514187,-2.32031478933823,-0.128591539651641,,-1.2483997077088573,,
,9222.0,3362.0,12542.0,2420.0,1995.0,3442.0,235.0,,,,-0.118249355497849,-2.32050761894574,-0.128601333291656,,-1.5751278467792054,,
,9222.0,3361.0,12538.0,2421.0,1983.0,3441.0,232.0,,,,-0.118011702371541,-2.32057391990514,-0.128305162562781,,-1.8859085488604792,,
,9231.0,3363.0,12546.0,2424.0,1972.0,3452.0,230.0,,,,-0.118086713921197,-2.32061343114205,-0.128784794386182,,-2.18377049786557,,
,9232.0,3366.0,12544.0,2426.0,1968.0,3430.0,238.0,,,,-0.118121191605203,-2.32108588656362,-0.128962067565748,,-2.4708375639816142,,
,9236.0,3365.0,12543.0,2423.0,1972.0,3427.0,227.0,,,,-0.118028233482196,-2.32066756409239,-0.128785881278968,,-2.7483052683691747,,
,9239.0,3365.0,12543.0,2423.0,1983.0,3448.0,218.0,,,,-0.117593644013717,-2.32023103403001,-0.127958157966523,,-3.0165021611174243,,
,9242.0,3368.0,12543.0,2426.0,2003.0,3446.0,224.0,,,,-0.117378593062154,-2.31924259582703,-0.127342382416265,,-3.275011538109246,,
,9248.0,3368.0,12544.0,2430.0,1986.0,3441.0,231.0,,,,-0.116989031479677,-2.31904999671099,-0.126838831684988,,-3.5228295967781413,,
,9252.0,3371.0,12546.0,2428.0,1991.0,3452.0,229.0,,,,-0.117115288661955,-2.3187866580566,-0.126472019504319,,-3.7585401461385413,,
,9253.0,3370.0,12545.0,2429.0,2008.0,3453.0,197.0,,,,-0.117236601427687,-2.31885697789666,-0.127225382763439,,-3.9804908979811593,,
,9256.0,3371.0,12542.0,2429.0,2002.0,3456.0,194.0,,,,-0.117125110484167,-2.31894248805282,-0.126933648834582,,-4.186960621909217,,
,9262.0,3373.0,12543.0,2430.0,1994.0,3457.0,199.0,,,,-0.117103609385499,-2.31854547124526,-0.126372342898295,,-4.3763096810309605,,
,9266.0,3371.0,12546.0,2432.0,1984.0,3445.0,202.0,,,,-0.11679410920836,-2.31842051473698,-0.126825410846323,,-4.547108996470486,,
,9267.0,3375.0,12545.0,2432.0,1977.0,3464.0,195.0,,,,-0.116740251412079,-2.31799202822658,-0.126451273902427,,-4.698244694174927,,
,9270.0,3372.0,12545.0,2433.0,1989.0,3453.0,180.0,,,,-0.116285745495648,-2.31712582159441,-0.125605987503224,,-4.828997601893046,,
,9275.0,3376.0,12544.0,2433.0,1985.0,3441.0,190.0,,,,-0.11598739305659,-2.31671296059655,-0.125007479026104,,-4.9390980217583635,,
,9281.0,3374.0,12549.0,2437.0,1976.0,3429.0,196.0,,,,-0.11595581862926,-2.31653006969059,-0.125025547478893,,-5.028756311803157,,
,9284.0,3376.0,12546.0,2436.0,1981.0,3414.0,208.0,,,,-0.11600557263952,-2.3170566216786,-0.125329519571624,,-5.098668609529281,,
,9282.0,3376.0,12541.0,2436.0,1977.0,3414.0,200.0,,,,-0.116108655463287,-2.31659917375829,-0.125651895886368,,-5.149995104362134,,
,9290.0,3378.0,12546.0,2438.0,1988.0,3418.0,190.0,,,,-0.115907610252818,-2.317129039151,-0.125115394734199,,-5.184306967705406,,
,9296.0,3377.0,12543.0,2442.0,1996.0,3450.0,195.0,,,,-0.115729521448655,-2.31691056000573,-0.125345811049167,,-5.203498864850041,,
,9297.0,3380.0,12545.0,2439.0,2000.0,3435.0,202.0,,,,-0.11595707229532,-2.31714242656276,-0.125380660364366,,-5.209667452624256,,
,9299.0,3378.0,12542.0,2440.0,1969.0,3423.0,190.0,,,,-0.115786252673126,-2.31757344450754,-0.125598507796446,,-5.204961504635823,,
,9306.0,3381.0,12545.0,2440.0,1968.0,3440.0,217.0,,,,-0.115937024247827,-2.31714992823858,-0.125402291706682,,-5.191414552213749,,
,9311.0,3383.0,12546.0,2443.0,1984.0,3468.0,211.0,,,,-0.11601699328369,-2.31704694840325,-0.125715433839883,,-5.170774688772208,,
,9311.0,3379.0,12544.0,2443.0,1981.0,3453.0,211.0,,,,-0.116086583461266,-2.31717046721799,-0.125393706007128,,-5.144347820205564,,
,9316.0,3380.0,12546.0,2443.0,1976.0,3454.0,202.0,,,,-0.116132160275134,-2.31677172424806,-0.125620111304226,,-5.1128702641276575,,
,9317.0,3383.0,12545.0,2445.0,1986.0,3454.0,192.0,,,,-0.116032756877317,-2.31708069921439,-0.125850796246226,,-5.076424653529356,,
,9324.0,3383.0,12548.0,2446.0,1986.0,3418.0,221.0,,,,-0.116096312184305,-2.31704833382941,-0.125567914905094,,-5.034410021303826,,
,9329.0,3382.0,12550.0,2449.0,1993.0,3422.0,223.0,,,,-0.115862461743114,-2.31657624299769,-0.124965113736061,,-4.985572950413302,,
,9334.0,3384.0,12544.0,2450.0,1991.0,3440.0,216.0,,,,-0.115918783556845,-2.31653833324814,-0.124663215883743,,-4.928101709865907,,
,9338.0,3382.0,12550.0,2449.0,1985.0,3461.0,206.0,,,,-0.115762490150505,-2.31709886811649,-0.124843556886873,,-4.859779174719126,,
,9340.0,3384.0,12546.0,2448.0,1991.0,3456.0,216.0,,,,-0.115772502258676,-2.31656837498934,-0.124758955785653,,-4.778183157179341,,
,9347.0,3388.0,12548.0,2452.0,1995.0,3439.0,209.0,,,,-0.115701382751124,-2.31653240386723,-0.124605219134029,,-4.6809154502246795,,
,9349.0,3388.0,12548.0,2452.0,1994.0,3430.0,220.0,,,,-0.115733459143416,-2.3164347475116,-0.124958998239908,,-4.565835198739473,,
,9355.0,3386.0,12547.0,2453.0,1993.0,3412.0,200.0,,,,-0.115694087248346,-2.31672697913506,-0.124700284858104,,-4.4312701801260115,,
,9356.0,3386.0,12545.0,2454.0,1984.0,3449.0,217.0,,,,-0.11588459808288,-2.31667227699621,-0.124398363251704,,-4.27618225049879,,
,9362.0,3390.0,12550.0,2455.0,1988.0,3455.0,218.0,,,,-0.115927957484881,-2.31675705699029,-0.124287047772212,,-4.100269986603174,,
,9366.0,3390.0,12549.0,2458.0,2000.0,3469.0,211.0,,,,-0.115497029246475,-2.31617739834588,-0.123421095885689,,-3.9040005630093235,,
,9372.0,3391.0,12550.0,2458.0,1995.0,3477.0,222.0,,,,-0.114958710337586,-2.31527968446036,-0.122775713389743,,-3.688572066382346,,
,9376.0,3392.0,12547.0,2457.0,1999.0,3476.0,204.0,,,,-0.114933443238424,-2.31464695884519,-0.122904697697667,,-3.455815219817716,,
,9378.0,3392.0,12549.0,2460.0,1988.0,3441.0,202.0,,,,-0.114873494328121,-2.31464204138041,-0.122366569520522,,-3.2080490131067942,,
,9385.0,3390.0,12549.0,2462.0,1988.0,3451.0,193.0,,,,-0.114791803583109,-2.31484873930818,-0.12180364173246,,-2.9479077032234353,,
,9387.0,3392.0,12553.0,2463.0,1984.0,3448.0,189.0,,,,-0.11464577941468,-2.3148116875302,-0.122029549050217,,-2.678157183725474,,
,9385.0,3390.0,12549.0,2460.0,2000.0,3448.0,210.0,,,,-0.114737521813618,-2.31471026892929,-0.121927362961317,,-2.4015172245516987,,
,9384.0,3387.0,12546.0,2461.0,1986.0,3443.0,192.0,,,,-0.114580054875623,-2.31452480564619,-0.121142509142358,,-2.120503032456163,,
,9379.0,3388.0,12545.0,2457.0,1973.0,3464.0,216.0,,,,-0.114513863609561,-2.31433586844663,-0.121904225729795,,-1.8372954416053706,,
,9374.0,3385.0,12546.0,2456.0,1983.0,3468.0,225.0,,,,-0.114434038177116,-2.31422905928611,-0.121701908957275,,-1.553644449329238,,
,9369.0,3383.0,12543.0,2454.0,1980.0,3467.0,235.0,,,,-0.114356723627322,-2.31377495272095,-0.121026731815312,,-1.2708068119824387,,
,9361.0,3375.0,12544.0,2449.0,1994.0,3477.0,238.0,,,,-0.1144309557769,-2.31399792196172,-0.120836881840661,,-0.9895162917027946,,
,9354.0,3373.0,12544.0,2447.0,1973.0,3463.0,248.0,,,,-0.1141941734097,-2.31412730584785,-0.121119813317883,,-0.7099856138546505,,
,9344.0,3370.0,12538.0,2449.0,1968.0,3444.0,236.0,,,,-0.114208376310508,-2.31382315704304,-0.120587003390011,,-0.4319415529171044,,
,9335.0,3364.0,12537.0,2443.0,1977.0,3428.0,238.0,,,,-0.11413503900451,-2.31375606445387,-0.119901953040489,,-0.15469673643420914,,
,9320.0,3357.0,12531.0,2438.0,1974.0,3454.0,211.0,,,,-0.114051746993607,-2.31292063563415,-0.119276960071258,,0.12273850500751878,,
,9309.0,3355.0,12528.0,2437.0,1969.0,3404.0,227.0,,,,-0.113883369038899,-2.31234991184426,-0.118462385768589,,0.4015046256006877,,
,9301.0,3349.0,12529.0,2435.0,1981.0,3389.0,211.0,,,,-0.113641042835132,-2.31203776210287,-0.118010892350305,,0.6827085147421854,,
,9287.0,3347.0,12525.0,2432.0,1979.0,3410.0,208.0,,,,-0.113549242967082,-2.31186478499221,-0.118118228691804,,0.9672204314740108,,
,9277.0,3347.0,12527.0,2430.0,1983.0,3433.0,188.0,,,,-0.113773828355277,-2.31192136227206,-0.118268493672457,,1.2554725037689536,,
,9270.0,3343.0,12523.0,2426.0,1979.0,3444.0,194.0,,,,-0.113585064809213,-2.31193146888038,-0.117675816341453,,1.5472827010362724,,
,9263.0,3344.0,12522.0,2424.0,1988.0,3471.0,177.0,,,,-0.113547524710477,-2.31223306113314,-0.11791330909868,,1.8417286505844261,,
,9254.0,3344.0,12522.0,2423.0,1985.0,3456.0,181.0,,,,-0.113807747921521,-2.31253395330409,-0.117766855613941,,2.137092966830216,,
,9252.0,3341.0,12522.0,2425.0,1982.0,3456.0,177.0,,,,-0.113669770419443,-2.3124134548402,-0.118411235916746,,2.430896258876501,,
,9245.0,3341.0,12522.0,2421.0,2001.0,3437.0,160.0,,,,-0.11378859982774,-2.31262494608281,-0.11802795486574,,2.7200259417484256,,
,9244.0,3343.0,12522.0,2426.0,1991.0,3448.0,176.0,,,,-0.113725501810653,-2.31272347897036,-0.118340550102227,,3.000958308546401,,
,9243.0,3344.0,12523.0,2425.0,1985.0,3459.0,178.0,,,,-0.113717099507957,-2.31259961302746,-0.11815221725974,,3.2700581745186743,,
,9242.0,3345.0,12521.0,2425.0,1979.0,3453.0,174.0,,,,-0.113826306307691,-2.3128816598876,-0.118133047693486,,3.523926274344725,,
,9240.0,3346.0,12521.0,2423.0,2008.0,3451.0,177.0,,,,-0.114006297916365,-2.31302853267335,-0.118073832955067,,3.75975257197256,,
,9242.0,3345.0,12519.0,2423.0,1973.0,3445.0,169.0,,,,-0.11370769537408,-2.31300597867128,-0.117641405882179,,3.9756272355106104,,
,9243.0,3347.0,12521.0,2426.0,1971.0,3432.0,172.0,,,,-0.11437247636512,-2.31302248840762,-0.117965162440308,,4.170762566437964,,
,9245.0,3347.0,12521.0,2425.0,1965.0,3447.0,183.0,,,,-0.114606196939975,-2.31345586329973,-0.117925198082148,,4.345588952192617,,
,9248.0,3350.0,12523.0,2427.0,1962.0,3460.0,176.0,,,,-0.114961022480717,-2.31470477891777,-0.118653810473484,,4.5017042411785,,
2025-07-03 20:15:17,9254.0,3353.0,12520.0,2427.0,1962.0,3458.0,186.0,,,2025/07/03 08:15:17 PM,-0.115213763295037,-2.31582349543013,-0.117639436913205,,4.641675667704494,,
,9257.0,3357.0,12523.0,2427.0,1957.0,3441.0,208.0,,,,-0.115855121530696,-2.31706395755605,-0.118487476193168,,4.768712816022578,,
,9262.0,3355.0,12523.0,2431.0,1970.0,3425.0,197.0,,,,-0.116851347904326,-2.31853997371876,-0.118808864573275,,4.88624589431444,,
,9263.0,3357.0,12524.0,2431.0,1978.0,3439.0,196.0,,,,-0.117313703519559,-2.32030008046492,-0.119286550053822,,4.997454307023412,,
,9267.0,3357.0,12523.0,2431.0,1973.0,3452.0,214.0,,,,-0.117975119600583,-2.32165970145313,-0.119343804249659,,5.104796728283388,,
,9272.0,3359.0,12523.0,2431.0,1965.0,3436.0,194.0,,,,-0.118438047598518,-2.3220620236572,-0.119521412799672,,5.209596957133935,,
,9280.0,3363.0,12527.0,2434.0,1968.0,3458.0,208.0,,,,-0.118813547445983,-2.32403699393939,-0.120032773766813,,5.311739919147218,,
,9283.0,3362.0,12523.0,2435.0,1969.0,3470.0,192.0,,,,-0.119209722221552,-2.3250587000965,-0.120936828228259,,5.40952737169868,,
,9281.0,3364.0,12525.0,2432.0,1989.0,3476.0,192.0,,,,-0.119664644429082,-2.32510663550202,-0.12050209884057,,5.499730518705985,,
,9288.0,3363.0,12526.0,2435.0,1995.0,3469.0,206.0,,,,-0.120088989340954,-2.32525047448162,-0.120009297614167,,5.577855391548865,,
,9291.0,3367.0,12527.0,2436.0,2000.0,3474.0,209.0,,,,-0.119766779837118,-2.32561583166759,-0.120290842068318,,5.638607189883043,,
,9296.0,3366.0,12527.0,2438.0,1991.0,3445.0,208.0,,,,-0.119892172332261,-2.32533876908951,-0.120623897189817,,5.676504654399026,,
,9299.0,3365.0,12528.0,2435.0,1987.0,3457.0,218.0,,,,-0.119652216630816,-2.32507499076772,-0.119552825304747,,5.686560291995423,,
,9302.0,3366.0,12529.0,2437.0,1987.0,3440.0,215.0,,,,-0.119566719217514,-2.32502655509201,-0.119618690534469,,5.664915420558615,,
,9304.0,3364.0,12529.0,2436.0,1970.0,3437.0,230.0,,,,-0.119464790599666,-2.3245032648427,-0.119435764812671,,5.60931148489309,,
,9307.0,3368.0,12530.0,2437.0,1969.0,3427.0,244.0,,,,-0.11963027205879,-2.32389524894283,-0.119387779535446,,5.519299678933052,,
,9309.0,3369.0,12529.0,2438.0,1968.0,3424.0,247.0,,,,-0.119928608612744,-2.32333798653211,-0.119349371069904,,5.396139389755018,,
,9310.0,3366.0,12527.0,2435.0,1964.0,3404.0,218.0,,,,-0.119540711437412,-2.32308299170146,-0.118732020426001,,5.242400375269663,,
,9311.0,3368.0,12528.0,2436.0,1983.0,3447.0,212.0,,,,-0.119276469420308,-2.3228293139859,-0.118551008772515,,5.061345173997404,,
,9315.0,3369.0,12530.0,2437.0,1990.0,3455.0,197.0,,,,-0.119069882189373,-2.32209963564067,-0.118363451876138,,4.856210577018794,,
,9319.0,3370.0,12530.0,2440.0,1994.0,3442.0,201.0,,,,-0.118985601612651,-2.32250459437148,-0.118504098100743,,4.629521940635379,,
,9316.0,3367.0,12526.0,2438.0,2000.0,3451.0,208.0,,,,-0.119070508469609,-2.32194788063076,-0.118125456925134,,4.382562198440092,,
,9320.0,3366.0,12525.0,2438.0,1988.0,3453.0,204.0,,,,-0.118939124325375,-2.32206333009417,-0.118166384971059,,4.11508476457043,,
,9322.0,3370.0,12524.0,2440.0,1988.0,3441.0,214.0,,,,-0.118976884133363,-2.32167069736964,-0.118080350228984,,3.8253147861910497,,
,9325.0,3368.0,12525.0,2439.0,1978.0,3449.0,216.0,,,,-0.118786334097851,-2.32076948993508,-0.117889359230447,,3.510235669408286,,
,9324.0,3369.0,12526.0,2439.0,1982.0,3445.0,201.0,,,,-0.118735878918141,-2.32056839376857,-0.117842243633439,,3.1661155738487055,,
,9327.0,3370.0,12521.0,2442.0,1981.0,3451.0,201.0,,,,-0.118756475820287,-2.32025612711283,-0.117522302142265,,2.7891969066620104,,
,9329.0,3370.0,12521.0,2441.0,1982.0,3465.0,173.0,,,,-0.118328761758547,-2.31970507969396,-0.117088031620111,,2.3764527236129056,,
,9335.0,3372.0,12520.0,2443.0,1974.0,3436.0,176.0,,,,-0.118248513762452,-2.31878789562279,-0.116741656654972,,1.9263072534615173,,
,9338.0,3374.0,12518.0,2443.0,1976.0,3452.0,183.0,,,,-0.118100278547998,-2.31831831834513,-0.116488763085561,,1.4392229182067513,,
,9341.0,3373.0,12519.0,2447.0,1984.0,3477.0,174.0,,,,-0.118053596967451,-2.31742860116975,-0.115718187137863,,0.9180729786722174,,
,9346.0,3374.0,12514.0,2446.0,1994.0,3453.0,188.0,,,,-0.118027622950563,-2.31714746531796,-0.115760781497137,,0.36824690050719594,,
,9351.0,3375.0,12515.0,2447.0,1999.0,3440.0,193.0,,,,-0.118229836622793,-2.31666682033698,-0.115666707331143,,-0.20252750788378163,,
,9355.0,3378.0,12518.0,2448.0,1984.0,3443.0,179.0,,,,-0.11814440731917,-2.31671035228434,-0.115158170396535,,-0.7846207677040934,,
,9359.0,3379.0,12518.0,2448.0,1986.0,3444.0,176.0,,,,-0.118408513771267,-2.31654626244689,-0.114659670646664,,-1.3671372789776257,,
,9360.0,3378.0,12514.0,2448.0,1981.0,3451.0,168.0,,,,-0.118435674080295,-2.31654602883142,-0.113798092574641,,-1.938666809161744,,
,9367.0,3381.0,12520.0,2452.0,1982.0,3441.0,183.0,,,,-0.118558416668278,-2.31655353608671,-0.113768817621248,,-2.488061987771409,,
,9372.0,3382.0,12519.0,2456.0,1996.0,3451.0,187.0,,,,-0.118799655219075,-2.3159839304719,-0.113214341366753,,-3.0051591916641,,
,9378.0,3381.0,12514.0,2454.0,1998.0,3454.0,193.0,,,,-0.118970409041451,-2.31580396611672,-0.112899541496007,,-3.4813769431908663,,
,9380.0,3380.0,12519.0,2454.0,1975.0,3434.0,201.0,,,,-0.119138372960388,-2.31618406520347,-0.113245387149041,,-3.9101469556076442,,
,9386.0,3384.0,12517.0,2457.0,1982.0,3444.0,195.0,,,,-0.119266099745172,-2.31594257596094,-0.112879714003175,,-4.287154632321195,,
,9388.0,3385.0,12516.0,2458.0,1987.0,3465.0,192.0,,,,-0.119227291205426,-2.31607421237806,-0.11212916827884,,-4.610386220051806,,
,9392.0,3386.0,12516.0,2460.0,1981.0,3466.0,183.0,,,,-0.119818938589312,-2.31617244976545,-0.112143165796802,,-4.87999796776904,,
,9400.0,3386.0,12515.0,2462.0,1994.0,3454.0,191.0,,,,-0.120126457105991,-2.31624942012718,-0.111735383885146,,-5.098037931516284,,
,9402.0,3388.0,12517.0,2464.0,1987.0,3459.0,204.0,,,,-0.120462388767582,-2.31688957121404,-0.111949133644108,,-5.268062944457375,,
,9410.0,3387.0,12517.0,2462.0,1987.0,3460.0,207.0,,,,-0.121561581537872,-2.31785696809052,-0.111820089806694,,-5.394701149775161,,
,9414.0,3390.0,12516.0,2465.0,1985.0,3441.0,185.0,,,,-0.121659543725515,-2.31768903954793,-0.111562365400936,,-5.483213598938298,,
,9420.0,3391.0,12518.0,2468.0,1976.0,3450.0,185.0,,,,-0.121991367271125,-2.3182345268482,-0.111110892291095,,-5.539105799939242,,
,9423.0,3388.0,12516.0,2468.0,1966.0,3456.0,192.0,,,,-0.122357859082287,-2.31842459197856,-0.111247530244597,,-5.567830963248482,,
,9432.0,3391.0,12516.0,2470.0,1972.0,3461.0,212.0,,,,-0.122416798243824,-2.31813631317147,-0.110250315935457,,-5.574611007642229,,
,9435.0,3392.0,12513.0,2471.0,1993.0,3451.0,204.0,,,,-0.122743087986461,-2.31791040021972,-0.110158338685756,,-5.564380467504864,,
,9440.0,3392.0,12514.0,2474.0,1993.0,3455.0,200.0,,,,-0.123054646530684,-2.31830277013436,-0.109752000864283,,-5.541835150625987,,
,9442.0,3391.0,12515.0,2474.0,1982.0,3445.0,168.0,,,,-0.123070917969873,-2.31817531386108,-0.109348008103847,,-5.511545873387566,,
,9447.0,3391.0,12519.0,2474.0,1984.0,3473.0,186.0,,,,-0.123011487457297,-2.3178381738627,-0.108780867376363,,-5.478082514548714,,
,9458.0,3396.0,12516.0,2476.0,1978.0,3457.0,170.0,,,,-0.123226804450627,-2.31749602666262,-0.1085597314222,,-5.446088973786227,,
,9463.0,3394.0,12516.0,2480.0,1999.0,3440.0,184.0,,,,-0.123125740358451,-2.31699286494724,-0.108289820501933,,-5.420257480250872,,
,9467.0,3398.0,12515.0,2479.0,2008.0,3461.0,189.0,,,,-0.123169937987026,-2.31644279440862,-0.107449730440598,,-5.405170521083772,,
,9472.0,3398.0,12514.0,2481.0,2001.0,3470.0,197.0,,,,-0.123327447741444,-2.31705248240549,-0.107620130156859,,-5.405007225496587,,
,9479.0,3398.0,12516.0,2483.0,1989.0,3441.0,225.0,,,,-0.123270328444759,-2.31720993268955,-0.10684615331491,,-5.423142877742948,,
,9485.0,3399.0,12519.0,2482.0,1982.0,3418.0,212.0,,,,-0.123384374653431,-2.31706282483691,-0.107068650123826,,-5.461698499654327,,
,9488.0,3398.0,12517.0,2485.0,1974.0,3414.0,215.0,,,,-0.123555254815938,-2.3168362622193,-0.106518537947167,,-5.521115389656609,,
,9493.0,3402.0,12517.0,2486.0,1973.0,3423.0,223.0,,,,-0.12368203738649,-2.31638757144748,-0.106224699520364,,-5.599832359927549,,
,9500.0,3399.0,12518.0,2485.0,1985.0,3457.0,196.0,,,,-0.123521199095323,-2.31623906619311,-0.105658452600999,,-5.694130040598851,,
,9507.0,3403.0,12522.0,2489.0,1988.0,3459.0,194.0,,,,-0.123589934862133,-2.31587580886057,-0.105705505113884,,-5.7981801726193325,,
,9513.0,3403.0,12518.0,2489.0,1973.0,3429.0,207.0,,,,-0.123623064384672,-2.3154701161277,-0.105540572195396,,-5.904304890783317,,
,9518.0,3403.0,12516.0,2490.0,1978.0,3399.0,210.0,,,,-0.123767239563897,-2.31524860977715,-0.10457764195839,,-6.003419439323912,,
,9525.0,3401.0,12518.0,2490.0,1981.0,3411.0,225.0,,,,-0.12369548075085,-2.31505734637437,-0.104478020896159,,-6.085608035434796,,
,9530.0,3405.0,12519.0,2492.0,1965.0,3398.0,215.0,,,,-0.12372659066146,-2.3147805761936,-0.104674150851068,,-6.140770140764815,,
,9539.0,3405.0,12521.0,2494.0,1987.0,3438.0,219.0,,,,-0.123872786071132,-2.31503213156996,-0.103348260237385,,-6.159273345630165,,
,9544.0,3403.0,12522.0,2494.0,1985.0,3449.0,212.0,,,,-0.123870593533693,-2.31525462000138,-0.103578743631396,,-6.132556922374643,,
,9549.0,3406.0,12522.0,2497.0,1995.0,3451.0,206.0,,,,-0.124029535681717,-2.31540590604839,-0.103295961211139,,-6.053642987546797,,
,9554.0,3405.0,12521.0,2500.0,2015.0,3487.0,203.0,,,,-0.124179985625331,-2.31504829978919,-0.103399304569366,,-5.917526309179072,,
,9559.0,3408.0,12525.0,2501.0,2013.0,3489.0,231.0,,,,-0.124498518514983,-2.31480866434098,-0.102537167973349,,-5.721426421760991,,
,9564.0,3407.0,12526.0,2499.0,2000.0,3503.0,216.0,,,,-0.124623906954341,-2.31492156023145,-0.102067692779258,,-5.464895671312723,,
,9567.0,3406.0,12526.0,2503.0,1999.0,3444.0,194.0,,,,-0.12482301062691,-2.3154413336578,-0.101943842646097,,-5.149784193453067,,
,9570.0,3405.0,12527.0,2499.0,1983.0,3448.0,215.0,,,,-0.125175634437911,-2.31454245343129,-0.100997106565186,,-4.780068556788623,,
,9566.0,3404.0,12525.0,2501.0,1964.0,3435.0,239.0,,,,-0.125383094410876,-2.31467811503708,-0.100312419920166,,-4.361556093400562,,
,9567.0,3404.0,12525.0,2500.0,1956.0,3426.0,235.0,,,,-0.125673913131433,-2.31465908616998,-0.0992587138393263,,-3.9014826588044738,,
,9561.0,3401.0,12524.0,2497.0,1958.0,3424.0,241.0,,,,-0.125988671193245,-2.31480690128861,-0.0996572511351317,,-3.4080277713385834,,
,9556.0,3398.0,12524.0,2494.0,1980.0,3429.0,242.0,,,,-0.126503475141227,-2.31537625090319,-0.0993696396866261,,-2.8897770440802413,,
,9552.0,3396.0,12522.0,2493.0,1974.0,3421.0,241.0,,,,-0.127089758513469,-2.31584890770221,-0.0992525262220255,,-2.3551666350791405,,
,9548.0,3393.0,12522.0,2489.0,1977.0,3423.0,225.0,,,,-0.127377956542776,-2.31637176845895,-0.0989778831944047,,-1.8119476411992614,,
,9542.0,3392.0,12521.0,2490.0,1974.0,3406.0,216.0,,,,-0.127835076795945,-2.31674974765803,-0.0990958320680284,,-1.2667098678272182,,
,9533.0,3385.0,12521.0,2482.0,1963.0,3397.0,214.0,,,,-0.128035057267131,-2.31689532766695,-0.0990700409022363,,-0.7245039381056271,,
,9529.0,3386.0,12519.0,2484.0,1974.0,3399.0,198.0,,,,-0.127866503842658,-2.31588129296274,-0.0975767922609777,,-0.18859742286062167,,
,9523.0,3381.0,12521.0,2479.0,1980.0,3417.0,213.0,,,,-0.127604158085515,-2.31542243824877,-0.097724337322067,,0.33960657194989813,,
,9516.0,3379.0,12520.0,2475.0,1973.0,3428.0,214.0,,,,-0.127475638743419,-2.31497553215831,-0.0973577542845195,,0.8604720203655722,,
,9513.0,3377.0,12518.0,2475.0,1977.0,3440.0,224.0,,,,-0.127328600370759,-2.3144339505809,-0.0965976626924482,,1.3758544659283514,,
,9510.0,3375.0,12517.0,2472.0,1979.0,3469.0,201.0,,,,-0.127249191976305,-2.3139279567163,-0.0963942253904237,,1.8886686751826325,,
,9509.0,3375.0,12519.0,2473.0,1984.0,3452.0,197.0,,,,-0.127107380220528,-2.31358349617716,-0.0950840036614362,,2.4023419184829438,,
,9506.0,3376.0,12519.0,2471.0,1976.0,3444.0,212.0,,,,-0.127148689770472,-2.31297951408678,-0.0938065845522856,,2.9202127083505407,,
,9502.0,3375.0,12515.0,2470.0,1975.0,3434.0,219.0,,,,-0.12710584798288,-2.3131987170978,-0.0930387368208899,,3.444944336870931,,
,9501.0,3375.0,12517.0,2469.0,1977.0,3458.0,206.0,,,,-0.12722646417397,-2.31288033543055,-0.0917916323710359,,3.9780222832996435,,
,9503.0,3377.0,12518.0,2470.0,1994.0,3461.0,203.0,,,,-0.127351640089198,-2.31296025389283,-0.0911550506378669,,4.519395034059365,,
,9504.0,3376.0,12519.0,2470.0,1992.0,3467.0,212.0,,,,-0.127249797320254,-2.312814103484,-0.0904721715770002,,5.06730080308933,,
,9505.0,3376.0,12518.0,2469.0,1983.0,3466.0,219.0,,,,-0.127947471608762,-2.31420184674892,-0.0911862726175232,,5.618299814458763,,
,9504.0,3375.0,12516.0,2467.0,1976.0,3453.0,242.0,,,,-0.128558508051324,-2.31566652234287,-0.0919594548870984,,6.1675050381553245,,
,9509.0,3378.0,12517.0,2469.0,1976.0,3467.0,209.0,,,,-0.128888223234073,-2.31704146585596,-0.0920681322252297,,6.708976421109548,,
,9512.0,3379.0,12518.0,2470.0,1993.0,3443.0,213.0,,,,-0.129155361695126,-2.31736060013646,-0.0927716686311479,,7.2362193076514245,,
,9513.0,3381.0,12518.0,2472.0,1998.0,3445.0,206.0,,,,-0.129354598882709,-2.31697455453129,-0.0920531768607673,,7.74271253550331,,
,9517.0,3382.0,12515.0,2469.0,2000.0,3419.0,236.0,,,,-0.129163402834492,-2.31716582106173,-0.0914160262177475,,8.222390108369028,,
,9522.0,3383.0,12517.0,2471.0,1968.0,3411.0,220.0,,,,-0.129117713021453,-2.31706116208444,-0.0912228384938427,,8.67001294805791,,
,9525.0,3384.0,12517.0,2473.0,2012.0,3384.0,215.0,,,,-0.12934706368837,-2.31734877571324,-0.0905590435649054,,9.081389694556725,,
,9531.0,3389.0,12521.0,2475.0,1984.0,3384.0,200.0,,,,-0.129236091843724,-2.3173680183692,-0.0908517817628489,,9.45343100139006,,
,9536.0,3388.0,12521.0,2476.0,1983.0,3398.0,189.0,,,,-0.129216560501489,-2.3176964304848,-0.0904191137764186,,9.784044758754728,,
,9535.0,3390.0,12518.0,2474.0,1985.0,3417.0,209.0,,,,-0.129359938422321,-2.31752937542921,-0.0907252302969053,,10.071897944382123,,
,9542.0,3390.0,12521.0,2478.0,1985.0,3448.0,216.0,,,,-0.129362058284968,-2.31720008210905,-0.0901562156714913,,10.316084417724845,,
,9546.0,3393.0,12521.0,2477.0,1984.0,3436.0,212.0,,,,-0.129202553763923,-2.31725973196351,-0.0900025045060678,,10.515747297844353,,
,9549.0,3392.0,12522.0,2479.0,1991.0,3452.0,224.0,,,,-0.1289579303122,-2.3162911251586,-0.0892160093557638,,10.669709306830415,,
,9553.0,3394.0,12521.0,2478.0,1987.0,3448.0,224.0,,,,-0.128821716443385,-2.31684271666851,-0.0888789829331356,,10.776164031562745,,
,9557.0,3395.0,12523.0,2481.0,1975.0,3448.0,230.0,,,,-0.129138295648809,-2.31686079836177,-0.088933539982748,,10.832475271126578,,
,9559.0,3393.0,12523.0,2482.0,1973.0,3412.0,239.0,,,,-0.128973353682642,-2.31645537843911,-0.0887878997582534,,10.835120967334058,,
,9561.0,3393.0,12525.0,2482.0,1983.0,3409.0,239.0,,,,-0.128838542836012,-2.31680219358886,-0.0883683811184775,,10.779803511021754,,
,9564.0,3396.0,12524.0,2481.0,1994.0,3409.0,227.0,,,,-0.12921078964932,-2.3181931247325,-0.0894161064957842,,10.661730165225453,,
,9563.0,3392.0,12520.0,2481.0,1987.0,3388.0,218.0,,,,-0.129435382805889,-2.31943377685198,-0.0900399479533444,,10.476046357627473,,
,9567.0,3392.0,12525.0,2483.0,1985.0,3397.0,224.0,,,,-0.129755778826352,-2.31999443612185,-0.0915121904541171,,10.218381799224883,,
,9569.0,3395.0,12524.0,2482.0,1974.0,3422.0,225.0,,,,-0.129518336069877,-2.32023936662797,-0.0913327147617403,,9.885448095753793,,
,9568.0,3397.0,12525.0,2483.0,1982.0,3437.0,231.0,,,,-0.129409109683959,-2.32057326081741,-0.0909019382862441,,9.475612203150272,,
,9568.0,3393.0,12524.0,2481.0,1992.0,3436.0,226.0,,,,-0.129187141216483,-2.32042736640577,-0.0910727115928571,,8.989367992776135,,
,9571.0,3395.0,12527.0,2482.0,1981.0,3423.0,219.0,,,,-0.129344429749961,-2.31979830743771,-0.0900915715931074,,8.429640256968892,,
,9573.0,3397.0,12528.0,2483.0,1989.0,3400.0,227.0,,,,-0.128780736331623,-2.31957542458263,-0.0893908673209416,,7.801878987257636,,
,9571.0,3393.0,12524.0,2485.0,1998.0,3394.0,220.0,,,,-0.12872128790996,-2.31898605224322,-0.0895570741192321,,7.113930822439481,,
,9574.0,3394.0,12525.0,2480.0,1990.0,3395.0,230.0,,,,-0.128781595963051,-2.31903173990365,-0.0893076170749495,,6.375702977866848,,
,9574.0,3393.0,12523.0,2483.0,1992.0,3422.0,196.0,,,,-0.128801268896015,-2.31863012002225,-0.0891162985066913,,5.598658288268249,,
,9576.0,3396.0,12525.0,2485.0,2006.0,3431.0,210.0,,,,-0.128519638644753,-2.3186825469434,-0.0891086717786925,,4.795196131610823,,
,9575.0,3396.0,12525.0,2486.0,1993.0,3435.0,217.0,,,,-0.128566296684582,-2.3178516310428,-0.0886292076858964,,3.977982621924224,,
,9578.0,3398.0,12523.0,2486.0,1989.0,3435.0,216.0,,,,-0.128052037303835,-2.31727308287634,-0.0886122931903289,,3.1592949394805925,,
,9578.0,3397.0,12525.0,2484.0,1986.0,3412.0,188.0,,,,-0.127823402221105,-2.31716314825822,-0.0879215505666921,,2.3504393053964754,,
2025-07-03 20:15:18,9579.0,3399.0,12525.0,2484.0,1981.0,3421.0,218.0,,,2025/07/03 08:15:18 PM,-0.127486843940601,-2.31719164772374,-0.0875463596985936,,1.5612902906674941,,
,9583.0,3398.0,12526.0,2490.0,1970.0,3398.0,213.0,,,,-0.127384935633439,-2.31693270500408,-0.0871734289435983,,0.7999822342930603,,
,9583.0,3396.0,12524.0,2486.0,1984.0,3410.0,224.0,,,,-0.127060360630567,-2.31668674989805,-0.0873780108583337,,0.07276420453523792,,
,9587.0,3399.0,12525.0,2486.0,1988.0,3417.0,206.0,,,,-0.126918906999347,-2.31638233991311,-0.0872150112841013,,-0.6159886954134436,,
,9589.0,3399.0,12527.0,2489.0,1984.0,3420.0,219.0,,,,-0.126871585296528,-2.31701645837617,-0.0871836057113827,,-1.2636303689952977,,
,9590.0,3399.0,12526.0,2491.0,1984.0,3433.0,224.0,,,,-0.127358566719349,-2.31761845420341,-0.0881642451764058,,-1.8689988573848786,,
,9592.0,3401.0,12528.0,2491.0,1977.0,3429.0,219.0,,,,-0.127450285112498,-2.31851751183644,-0.0893309629905438,,-2.4321114737878995,,
,9593.0,3401.0,12530.0,2490.0,1968.0,3409.0,224.0,,,,-0.127624658893554,-2.31877232630392,-0.0898843218096754,,-2.95384115463958,,
,9597.0,3402.0,12526.0,2490.0,1984.0,3422.0,227.0,,,,-0.127761958487191,-2.31944390837519,-0.0905610025078676,,-3.4356118576006627,,
,9600.0,3403.0,12528.0,2493.0,1990.0,3417.0,220.0,,,,-0.127937041246543,-2.31977448169747,-0.0902679018746896,,-3.879143127976793,,
,9603.0,3405.0,12526.0,2494.0,1970.0,3409.0,222.0,,,,-0.127808463922415,-2.31954959741246,-0.089947674528824,,-4.286262691540533,,
,9602.0,3404.0,12529.0,2497.0,1965.0,3416.0,224.0,,,,-0.12771993154582,-2.31940704139506,-0.089384167306285,,-4.658792628624333,,
,9604.0,3402.0,12524.0,2495.0,1973.0,3399.0,212.0,,,,-0.127770607843361,-2.31878640179703,-0.0892436255727563,,-4.99850175197153,,
,9606.0,3407.0,12526.0,2498.0,1991.0,3413.0,205.0,,,,-0.12785967077891,-2.31901555105226,-0.0891598069680803,,-5.3071071160863745,,
,9608.0,3409.0,12528.0,2496.0,1994.0,3429.0,193.0,,,,-0.127693421957252,-2.31850951988478,-0.0885504921449892,,-5.586303288364088,,
,9604.0,3407.0,12527.0,2498.0,1992.0,3428.0,180.0,,,,-0.127570019555197,-2.31867655496194,-0.0882974078569566,,-5.83779934717802,,
,9604.0,3405.0,12526.0,2497.0,2001.0,3415.0,176.0,,,,-0.127616624213118,-2.31839400472964,-0.0884494340710129,,-6.063348733201628,,
,9609.0,3407.0,12525.0,2500.0,2002.0,3413.0,178.0,,,,-0.127655141844144,-2.31834283937666,-0.0883604266708601,,-6.264763446796476,,
,9609.0,3410.0,12526.0,2500.0,2019.0,3429.0,175.0,,,,-0.127407738680919,-2.31801322603614,-0.0880995167348992,,-6.443909676090003,,
,9608.0,3408.0,12526.0,2503.0,2013.0,3444.0,176.0,,,,-0.127669672168088,-2.3179485779146,-0.0883981809990629,,-6.602685991866431,,
,9608.0,3406.0,12523.0,2501.0,2018.0,3446.0,162.0,,,,-0.127619106534703,-2.3177325341825,-0.0879379955249987,,-6.742987871359398,,
,9606.0,3408.0,12523.0,2501.0,2017.0,3450.0,161.0,,,,-0.127476484807238,-2.31798835035987,-0.0883087844776582,,-6.866663877154349,,
,9608.0,3408.0,12525.0,2507.0,2026.0,3456.0,203.0,,,,-0.127560562947471,-2.31804628041541,-0.0878696082776478,,-6.975469486475672,,
,9608.0,3411.0,12524.0,2505.0,2023.0,3438.0,195.0,,,,-0.12756460510086,-2.31717867010063,-0.0879828881694382,,-7.071024204247376,,
,9611.0,3410.0,12526.0,2507.0,2019.0,3423.0,195.0,,,,-0.127587937941772,-2.31716994469779,-0.0882940452617564,,-7.154775954587211,,
,9607.0,3409.0,12523.0,2508.0,2013.0,3401.0,196.0,,,,-0.127500748665762,-2.31700835434776,-0.0881794762550689,,-7.227973858904385,,
,9610.0,3411.0,12522.0,2510.0,2021.0,3414.0,182.0,,,,-0.127704148996243,-2.31729222221208,-0.0884450080227163,,-7.29164707335809,,
,9609.0,3413.0,12525.0,2513.0,2017.0,3440.0,156.0,,,,-0.12783345859549,-2.31722701490046,-0.0886520153761849,,-7.3465847786899765,,
,9609.0,3412.0,12525.0,2512.0,2007.0,3452.0,171.0,,,,-0.127955283645457,-2.31755302308548,-0.0890318722161337,,-7.393312121864379,,
,9609.0,3410.0,12525.0,2511.0,2007.0,3429.0,151.0,,,,-0.12795360193953,-2.3174956573418,-0.089125807647289,,-7.432059290591717,,
,9610.0,3412.0,12525.0,2515.0,1989.0,3397.0,147.0,,,,-0.128150812912646,-2.31821321459545,-0.0893988160051365,,-7.4627249089511345,,
,9612.0,3416.0,12526.0,2515.0,2020.0,3443.0,167.0,,,,-0.12841385476719,-2.318063707993,-0.0893979004239884,,-7.484838855335314,,
,9612.0,3416.0,12526.0,2518.0,2030.0,3462.0,165.0,,,,-0.128396220567754,-2.31852344459424,-0.0895069318352256,,-7.497532141588827,,
,9614.0,3416.0,12524.0,2519.0,2026.0,3461.0,160.0,,,,-0.1286483564153,-2.31875482326761,-0.0899995479405144,,-7.499522248016039,,
,9615.0,3416.0,12526.0,2519.0,2011.0,3441.0,171.0,,,,-0.128934365973295,-2.31947883771649,-0.0906010483162243,,-7.489121483831436,,
,9617.0,3414.0,12526.0,2518.0,2001.0,3427.0,192.0,,,,-0.128977346831812,-2.31951235835538,-0.0907685301581722,,-7.464273935025201,,
,9619.0,3419.0,12525.0,2522.0,2014.0,3468.0,166.0,,,,-0.129030138529524,-2.31988920044923,-0.0910310970934198,,-7.422623730314901,,
,9620.0,3416.0,12527.0,2520.0,2008.0,3469.0,168.0,,,,-0.1293025013674,-2.32048960532719,-0.0909765926102614,,-7.361613927769526,,
,9617.0,3414.0,12525.0,2521.0,1998.0,3437.0,191.0,,,,-0.129201924969706,-2.32026246490402,-0.0911151910073532,,-7.27861141121805,,
,9615.0,3415.0,12525.0,2521.0,2000.0,3447.0,178.0,,,,-0.129451653985414,-2.32050464982935,-0.0917694211877875,,-7.171048968683323,,
,9617.0,3414.0,12526.0,2525.0,2003.0,3456.0,196.0,,,,-0.129368702552436,-2.32101090935777,-0.0920455092720626,,-7.036571798493116,,
,9616.0,3417.0,12525.0,2521.0,2013.0,3452.0,200.0,,,,-0.129580227643264,-2.32109522081027,-0.0925382800269133,,-6.873173259108198,,
,9609.0,3414.0,12526.0,2523.0,2022.0,3440.0,180.0,,,,-0.129910744722107,-2.32101478578024,-0.0931524697808861,,-6.679305142348419,,
,9598.0,3409.0,12526.0,2518.0,2007.0,3442.0,169.0,,,,-0.130076305369117,-2.32138515255338,-0.09375819526758,,-6.4539516775586145,,
,9593.0,3409.0,12523.0,2517.0,2001.0,3435.0,149.0,,,,-0.130276356629895,-2.32136809877191,-0.0939600883805498,,-6.196662960603195,,
,9584.0,3404.0,12522.0,2516.0,1991.0,3435.0,187.0,,,,-0.130138884423185,-2.32137599381961,-0.0944991896544786,,-5.907550643201617,,
,9575.0,3402.0,12522.0,2513.0,1975.0,3427.0,195.0,,,,-0.130216499608879,-2.32165329433352,-0.0948649645640503,,-5.587254696969058,,
,9562.0,3398.0,12520.0,2509.0,1985.0,3437.0,180.0,,,,-0.130194900829095,-2.32162601579284,-0.095119773047235,,-5.236893809861328,,
,9554.0,3395.0,12520.0,2508.0,1994.0,3448.0,165.0,,,,-0.130383029109146,-2.32194543226031,-0.0961290883317592,,-4.858013133637552,,
,9546.0,3392.0,12525.0,2503.0,1993.0,3412.0,182.0,,,,-0.130653014338536,-2.32242402465407,-0.0967643072522763,,-4.45254177303334,,
,9536.0,3388.0,12519.0,2501.0,1985.0,3399.0,177.0,,,,-0.130426227495891,-2.32235399232641,-0.0975699498991702,,-4.022768886952185,,
,9525.0,3386.0,12518.0,2498.0,1976.0,3413.0,188.0,,,,-0.130524437291357,-2.32287140211062,-0.0979678681889255,,-3.5713418870606075,,
,9515.0,3382.0,12518.0,2494.0,1972.0,3445.0,197.0,,,,-0.130446765071253,-2.32272363463491,-0.0988528416911292,,-3.10128330112188,,
,9507.0,3379.0,12521.0,2495.0,1984.0,3448.0,161.0,,,,-0.130391137685258,-2.32261557742649,-0.0992062678220322,,-2.6160150684193697,,
,9498.0,3377.0,12517.0,2491.0,1999.0,3453.0,156.0,,,,-0.130485418387986,-2.32242507534453,-0.0996932278054195,,-2.1193718655360168,,
,9491.0,3376.0,12519.0,2490.0,2021.0,3467.0,161.0,,,,-0.130524346461541,-2.32297305433058,-0.100441955679525,,-1.6155810051428257,,
,9481.0,3373.0,12516.0,2488.0,2019.0,3474.0,133.0,,,,-0.130634843211418,-2.32316959078913,-0.100298805693142,,-1.1091880153178006,,
,9475.0,3375.0,12519.0,2489.0,1996.0,3457.0,121.0,,,,-0.130497620363907,-2.32395360186691,-0.100515501382957,,-0.6049151316357264,,
,9470.0,3372.0,12519.0,2485.0,1997.0,3460.0,136.0,,,,-0.13066739407256,-2.32381221534579,-0.100666097807274,,-0.10745313475297769,,
,9467.0,3376.0,12520.0,2488.0,1998.0,3457.0,136.0,,,,-0.130809844412288,-2.32432868198652,-0.101642984675752,,0.3787980195048257,,
,9462.0,3372.0,12518.0,2486.0,2012.0,3443.0,138.0,,,,-0.130714321137517,-2.3245109549694,-0.101970621877844,,0.8500111513930948,,
,9460.0,3375.0,12519.0,2484.0,1999.0,3432.0,148.0,,,,-0.130695058348789,-2.32483917133009,-0.102463970590877,,1.3031994142834027,,
,9459.0,3377.0,12523.0,2488.0,1993.0,3438.0,152.0,,,,-0.130680942616586,-2.32520576318045,-0.102976772953248,,1.736430816308528,,
,9456.0,3376.0,12522.0,2488.0,1983.0,3449.0,146.0,,,,-0.130869878069566,-2.32549042521629,-0.10349872404906,,2.148956507092496,,
,9453.0,3378.0,12520.0,2486.0,1986.0,3457.0,160.0,,,,-0.130856419007097,-2.32575154552015,-0.10443037988076,,2.5412310445139146,,
,9453.0,3377.0,12520.0,2488.0,1989.0,3438.0,161.0,,,,-0.130975944902172,-2.32610233405268,-0.105001554163591,,2.914817933295161,,
,9453.0,3381.0,12521.0,2487.0,2004.0,3447.0,156.0,,,,-0.131126813932444,-2.32684152232544,-0.105789640520318,,3.272189801198638,,
,9456.0,3380.0,12523.0,2488.0,2012.0,3438.0,160.0,,,,-0.131171886248009,-2.32743064990476,-0.106414106020443,,3.6164471666242988,,
,9454.0,3381.0,12525.0,2489.0,2012.0,3444.0,162.0,,,,-0.131302944549663,-2.32772318083798,-0.107811766651075,,3.9509904830514664,,
,9455.0,3383.0,12524.0,2486.0,2013.0,3465.0,158.0,,,,-0.131805221905803,-2.32958645689018,-0.109311263287892,,4.279184834731412,,
,9457.0,3384.0,12525.0,2487.0,2013.0,3458.0,158.0,,,,-0.132080448407272,-2.32990154424427,-0.110197091940215,,4.604054148300477,,
,9459.0,3386.0,12524.0,2490.0,2009.0,3449.0,165.0,,,,-0.131766048739451,-2.3295655629295,-0.110781776211013,,4.928032841148678,,
,9456.0,3386.0,12525.0,2491.0,1995.0,3443.0,163.0,,,,-0.131417527796573,-2.32920375324045,-0.110228155080228,,5.2527899175873936,,
,9457.0,3387.0,12524.0,2490.0,1983.0,3460.0,151.0,,,,-0.131149379142826,-2.32918278288659,-0.111451687989396,,5.579126649916572,,
,9459.0,3388.0,12522.0,2491.0,1986.0,3459.0,137.0,,,,-0.130947738504532,-2.32891712675385,-0.111102304966608,,5.906936726490992,,
,9458.0,3391.0,12526.0,2492.0,1994.0,3469.0,139.0,,,,-0.130798632301575,-2.32881680266596,-0.111554294352137,,6.23520907546943,,
,9457.0,3389.0,12524.0,2496.0,1993.0,3463.0,138.0,,,,-0.130916237659132,-2.32868284973822,-0.111708701885243,,6.562049917342434,,
,9457.0,3389.0,12524.0,2493.0,1993.0,3471.0,147.0,,,,-0.130722714125563,-2.32865692662411,-0.112147657712402,,6.8847027934612255,,
,9459.0,3389.0,12526.0,2491.0,1980.0,3471.0,167.0,,,,-0.130643729033456,-2.32843240245447,-0.112493375212355,,7.199553319292265,,
,9457.0,3391.0,12526.0,2493.0,1984.0,3453.0,155.0,,,,-0.130198261568757,-2.32804900150721,-0.112679135149765,,7.5021179912816,,
,9455.0,3389.0,12524.0,2495.0,1978.0,3406.0,182.0,,,,-0.130028104976794,-2.32764429056928,-0.112662438202149,,7.787030908506522,,
,9454.0,3390.0,12525.0,2491.0,1989.0,3405.0,186.0,,,,-0.129708427218545,-2.32786734226679,-0.11285738190443,,8.048054884343447,,
,9451.0,3385.0,12526.0,2491.0,1994.0,3429.0,169.0,,,,-0.129703092053466,-2.32721808779444,-0.113278435578153,,8.27814996651052,,
,9450.0,3389.0,12522.0,2493.0,1993.0,3434.0,154.0,,,,-0.129346711124011,-2.32748772454641,-0.112933137193693,,8.469630147954277,,
,9449.0,3390.0,12522.0,2492.0,1995.0,3449.0,151.0,,,,-0.128942248331382,-2.32663113440271,-0.113192846923483,,8.614428078804512,,
,9445.0,3387.0,12524.0,2490.0,2006.0,3458.0,149.0,,,,-0.128863805469301,-2.32671535056267,-0.114003318619711,,8.70447037001291,,
,9446.0,3389.0,12520.0,2490.0,1978.0,3458.0,147.0,,,,-0.12829284711562,-2.32677513031576,-0.114014744465311,,8.732146109399705,,
,9442.0,3384.0,12523.0,2491.0,1975.0,3453.0,152.0,,,,-0.127960550505101,-2.32616425751484,-0.114123765997426,,8.690831903274512,,
,9442.0,3388.0,12523.0,2490.0,1985.0,3443.0,162.0,,,,-0.127472783445218,-2.32553218115578,-0.114575496674651,,8.57542125543872,,
,9441.0,3387.0,12523.0,2490.0,1983.0,3444.0,139.0,,,,-0.127147060781419,-2.32448135700984,-0.114524384535207,,8.38279733369892,,
,9436.0,3388.0,12521.0,2491.0,1985.0,3465.0,145.0,,,,-0.126828049497826,-2.32520572429722,-0.114890051968345,,8.112188484945644,,
,9436.0,3386.0,12521.0,2493.0,1989.0,3439.0,152.0,,,,-0.126560297632838,-2.32561870680993,-0.115371227517152,,7.76535624320111,,
,9437.0,3391.0,12524.0,2493.0,1994.0,3433.0,145.0,,,,-0.126527653547802,-2.32566699027828,-0.115147624476972,,7.346585148064981,,
,9438.0,3388.0,12526.0,2494.0,2004.0,3445.0,145.0,,,,-0.126510900567329,-2.32513751064463,-0.115545007389574,,6.862469557527748,,
,9437.0,3390.0,12524.0,2491.0,1998.0,3430.0,147.0,,,,-0.126309401219312,-2.32543564823004,-0.115741297317167,,6.321520158233925,,
,9438.0,3390.0,12522.0,2491.0,1983.0,3444.0,149.0,,,,-0.126299647484128,-2.32543752170113,-0.115337867225485,,5.733636504800437,,
,9434.0,3391.0,12523.0,2493.0,1983.0,3472.0,153.0,,,,-0.12630489447782,-2.32536520712098,-0.115549220458838,,5.109506835530356,,
,9438.0,3394.0,12526.0,2496.0,1984.0,3427.0,149.0,,,,-0.126264563120708,-2.32530458614373,-0.115420072627355,,4.4600003562686785,,
,9439.0,3392.0,12524.0,2494.0,1980.0,3414.0,152.0,,,,-0.126172677767151,-2.32500665789496,-0.115282487949274,,3.7956111581181737,,
,9438.0,3391.0,12526.0,2495.0,1985.0,3420.0,160.0,,,,-0.126211398152128,-2.3255481576562,-0.115647963328064,,3.1260000878671987,,
,9439.0,3391.0,12525.0,2495.0,1975.0,3448.0,155.0,,,,-0.126280532690091,-2.32556078700715,-0.115619160679937,,2.4596646476329758,,
,9441.0,3395.0,12526.0,2497.0,1973.0,3450.0,147.0,,,,-0.126346320837173,-2.32567689884736,-0.116102423260089,,1.803749905484694,,
,9443.0,3399.0,12525.0,2498.0,1962.0,3462.0,145.0,,,,-0.126281703827122,-2.32610509472371,-0.116178027281082,,1.1639970209690744,,
,9444.0,3397.0,12526.0,2501.0,1982.0,3471.0,132.0,,,,-0.126272046811053,-2.32676270002486,-0.11663458074379,,0.5448113687953797,,
,9439.0,3395.0,12522.0,2500.0,1989.0,3473.0,137.0,,,,-0.126220338390986,-2.32691134517918,-0.116420977703837,,-0.05057953890667435,,
,9444.0,3397.0,12523.0,2500.0,1963.0,3440.0,156.0,,,,-0.126234982577306,-2.32689335671958,-0.116756908397761,,-0.6199155278550105,,
,9448.0,3400.0,12525.0,2504.0,1985.0,3443.0,150.0,,,,-0.126439325280906,-2.32684558826428,-0.116437095638117,,-1.1616790933355252,,
,9448.0,3400.0,12524.0,2504.0,1996.0,3440.0,138.0,,,,-0.12650084782915,-2.32678161907787,-0.116811727631158,,-1.6748894081106087,,
,9446.0,3399.0,12523.0,2502.0,1996.0,3439.0,122.0,,,,-0.12632456265893,-2.32656605664515,-0.116459596595287,,-2.158936668169606,,
,9447.0,3399.0,12525.0,2504.0,1991.0,3454.0,116.0,,,,-0.126370908589412,-2.32682763341637,-0.116598858778961,,-2.6134652327957113,,
,9450.0,3402.0,12527.0,2504.0,1990.0,3455.0,137.0,,,,-0.126408122643293,-2.32712137895733,-0.116830224633796,,-3.0383027840712598,,
,9448.0,3402.0,12526.0,2508.0,1990.0,3459.0,141.0,,,,-0.126346709973683,-2.32641055848341,-0.116656698774484,,-3.4334260243415784,,
,9451.0,3401.0,12526.0,2507.0,1996.0,3455.0,137.0,,,,-0.126110079727314,-2.32672627388864,-0.116156096297885,,-3.7989513507611643,,
,9452.0,3400.0,12525.0,2509.0,1978.0,3456.0,137.0,,,,-0.12610980297226,-2.32589135529486,-0.115679219799611,,-4.135139869236622,,
,9453.0,3403.0,12527.0,2510.0,1982.0,3442.0,144.0,,,,-0.126095036849368,-2.32600425980037,-0.115884462021784,,-4.4424082017928646,,
,9456.0,3405.0,12525.0,2512.0,1975.0,3439.0,157.0,,,,-0.12599628681016,-2.32568859940487,-0.116155319313901,,-4.721338757655378,,
,9455.0,3405.0,12526.0,2512.0,1981.0,3447.0,151.0,,,,-0.125768527560942,-2.32593417672243,-0.115922582300409,,-4.972685291553182,,
,9457.0,3404.0,12525.0,2510.0,1965.0,3437.0,139.0,,,,-0.125791582823376,-2.32544183579359,-0.115744532607237,,-5.197371826561966,,
,9458.0,3405.0,12527.0,2513.0,1979.0,3436.0,152.0,,,,-0.125840711054689,-2.32567372629145,-0.116038317360448,,-5.396485295247144,,
,9460.0,3405.0,12528.0,2518.0,1977.0,3444.0,150.0,,,,-0.125863018148225,-2.32519993517868,-0.116116265417781,,-5.571263950727554,,
,9462.0,3407.0,12527.0,2518.0,1981.0,3447.0,156.0,,,,-0.126059348279937,-2.32555255707047,-0.116206482497133,,-5.723083873956638,,
,9465.0,3404.0,12526.0,2517.0,1988.0,3442.0,150.0,,,,-0.126064946055276,-2.32529281985874,-0.11648832702285,,-5.853444303249267,,
,9468.0,3406.0,12528.0,2518.0,1980.0,3439.0,164.0,,,,-0.126129830520118,-2.32600169911559,-0.116125154506972,,-5.963949408988583,,
,9470.0,3408.0,12526.0,2519.0,1998.0,3441.0,162.0,,,,-0.126012290129529,-2.32576294205146,-0.116005452936793,,-6.056280713514814,,
,9469.0,3407.0,12524.0,2521.0,2000.0,3476.0,154.0,,,,-0.125961233585947,-2.32586463760901,-0.116588079482877,,-6.132152258445326,,
,9471.0,3408.0,12530.0,2521.0,1995.0,3479.0,156.0,,,,-0.12584767303895,-2.3256010619663,-0.116514594028503,,-6.193241259299841,,
,9474.0,3407.0,12525.0,2520.0,1983.0,3473.0,163.0,,,,-0.125800685987076,-2.32582759959824,-0.116401321605883,,-6.241090709797309,,
,9472.0,3411.0,12529.0,2524.0,1979.0,3467.0,148.0,,,,-0.125560727081092,-2.32572061369764,-0.115989072319665,,-6.276986239940292,,
2025-07-03 20:15:19,9476.0,3408.0,12531.0,2524.0,1987.0,3467.0,168.0,,,2025/07/03 08:15:19 PM,-0.125461101786727,-2.32561897160115,-0.116642599545938,,-6.301815815110788,,
,9472.0,3408.0,12531.0,2525.0,1995.0,3463.0,153.0,,,,-0.125652417904724,-2.32554680151428,-0.116032718687859,,-6.315926059695242,,
,9469.0,3407.0,12528.0,2521.0,1980.0,3445.0,155.0,,,,-0.125458449056785,-2.32559792729698,-0.116389199078442,,-6.3189921903648765,,
,9461.0,3404.0,12530.0,2519.0,1984.0,3428.0,152.0,,,,-0.125384120390218,-2.32573684656199,-0.116396637147313,,-6.309919464022889,,
,9457.0,3402.0,12528.0,2519.0,1974.0,3434.0,140.0,,,,-0.125205297222436,-2.32559404170964,-0.116131118993783,,-6.286792782821334,,
,9447.0,3403.0,12528.0,2519.0,1986.0,3403.0,150.0,,,,-0.12528822872856,-2.32555511269811,-0.115963695481739,,-6.2468878980558165,,
,9441.0,3396.0,12526.0,2516.0,1974.0,3384.0,147.0,,,,-0.12516988510848,-2.32490160616373,-0.116022731634504,,-6.1867527846978545,,
,9426.0,3391.0,12524.0,2507.0,1976.0,3398.0,130.0,,,,-0.124698211846682,-2.3248237691263,-0.115988874711637,,-6.102361495668888,,
,9419.0,3388.0,12524.0,2509.0,1963.0,3395.0,134.0,,,,-0.124653632025906,-2.3244770166619,-0.115520291415384,,-5.989335478642363,,
,9411.0,3384.0,12525.0,2505.0,1973.0,3413.0,123.0,,,,-0.12442862794109,-2.32410368154191,-0.115273277885481,,-5.843219501265084,,
,9394.0,3377.0,12521.0,2501.0,1977.0,3440.0,144.0,,,,-0.124193124279726,-2.32374235030809,-0.115284749891399,,-5.65979205490827,,
,9384.0,3374.0,12523.0,2497.0,1987.0,3454.0,142.0,,,,-0.124038533646929,-2.32338212743025,-0.115217495956819,,-5.435384979178357,,
,9376.0,3369.0,12519.0,2494.0,1988.0,3454.0,155.0,,,,-0.123919916785011,-2.32307532440002,-0.114745889457941,,-5.167185446443402,,
,9363.0,3369.0,12524.0,2495.0,2015.0,3483.0,134.0,,,,-0.12394928937071,-2.32310630909772,-0.115123253595703,,-4.853495569648463,,
,9354.0,3364.0,12523.0,2490.0,2022.0,3492.0,124.0,,,,-0.124012835995396,-2.3231048962741,-0.11499387969535,,-4.493929627067158,,
,9341.0,3363.0,12522.0,2487.0,2012.0,3462.0,130.0,,,,-0.124073279764184,-2.32285924497374,-0.114488719641797,,-4.089534676656539,,
,9333.0,3359.0,12518.0,2488.0,1996.0,3448.0,127.0,,,,-0.124232477745179,-2.32299939090467,-0.114495218495137,,-3.642826172837642,,
,9322.0,3361.0,12521.0,2485.0,1993.0,3440.0,135.0,,,,-0.12428512635913,-2.32290631668793,-0.11400616278852,,-3.157735933716305,,
,9316.0,3357.0,12520.0,2484.0,1999.0,3434.0,128.0,,,,-0.124448277863617,-2.32289177386089,-0.113306416116572,,-2.6394756012720295,,
,9308.0,3359.0,12522.0,2484.0,2000.0,3444.0,129.0,,,,-0.125026897168777,-2.32242102620791,-0.113048995176105,,-2.09432449317744,,
,9303.0,3356.0,12519.0,2482.0,1987.0,3458.0,114.0,,,,-0.125097336617425,-2.32184758266887,-0.112423575165413,,-1.5293559281863585,,
,9300.0,3358.0,12520.0,2481.0,2000.0,3443.0,119.0,,,,-0.125283054245975,-2.32201531167863,-0.111666985432615,,-0.9521199951787238,,
,9296.0,3361.0,12524.0,2482.0,2005.0,3452.0,141.0,,,,-0.124980515095252,-2.32167753428358,-0.111161338362314,,-0.3703027746873657,,
,9293.0,3364.0,12523.0,2482.0,2000.0,3453.0,146.0,,,,-0.125166956474975,-2.32152115421808,-0.111122765893668,,0.20861794389547758,,
,9288.0,3361.0,12519.0,2482.0,2000.0,3440.0,154.0,,,,-0.125431897572294,-2.32217721318847,-0.111266700792836,,0.7777019938461903,,
,9286.0,3364.0,12524.0,2482.0,1990.0,3428.0,155.0,,,,-0.12538407951872,-2.32242352681457,-0.111524232310951,,1.3308449999988519,,
,9288.0,3366.0,12523.0,2482.0,1963.0,3421.0,144.0,,,,-0.125611139729536,-2.32268124162832,-0.111553944944297,,1.8630308765363812,,
,9289.0,3366.0,12522.0,2483.0,1980.0,3425.0,151.0,,,,-0.125964792576858,-2.32313952646505,-0.112187041445177,,2.3705247313884543,,
,9289.0,3365.0,12524.0,2484.0,1983.0,3419.0,159.0,,,,-0.126124903685134,-2.32353979339418,-0.112563111204485,,2.8509924365574584,,
,9286.0,3366.0,12524.0,2482.0,1979.0,3409.0,173.0,,,,-0.126196263733684,-2.32375395147023,-0.112440568895447,,3.3035345256618287,,
,9288.0,3370.0,12525.0,2486.0,1980.0,3413.0,135.0,,,,-0.126455930928444,-2.32388124795854,-0.112706021982255,,3.728626048030434,,
,9291.0,3371.0,12525.0,2486.0,1995.0,3428.0,128.0,,,,-0.126456789013234,-2.32389428092199,-0.112595461454132,,4.127960734543324,,
,9292.0,3373.0,12526.0,2488.0,2014.0,3429.0,142.0,,,,-0.126366518740961,-2.32415222817619,-0.112488097119297,,4.504206417713437,,
,9291.0,3372.0,12522.0,2484.0,1999.0,3443.0,147.0,,,,-0.126648122521134,-2.32468229644355,-0.112860408969003,,4.860687671296165,,
,9296.0,3373.0,12525.0,2487.0,1991.0,3432.0,154.0,,,,-0.126666467330491,-2.32435498008153,-0.11259467539406,,5.20101955209277,,
,9297.0,3376.0,12524.0,2488.0,2010.0,3451.0,161.0,,,,-0.126455100704314,-2.3240845210079,-0.111901416025433,,5.528721711408763,,
,9296.0,3376.0,12527.0,2488.0,2001.0,3457.0,173.0,,,,-0.126677171352795,-2.32333400908982,-0.111508378964474,,5.846843985227362,,
,9297.0,3378.0,12526.0,2487.0,2001.0,3453.0,156.0,,,,-0.12641636551643,-2.32316531969071,-0.110788032049442,,6.15763257511154,,
,9300.0,3378.0,12527.0,2488.0,1997.0,3445.0,143.0,,,,-0.126478151025197,-2.32271147750401,-0.109961445378993,,6.462260515288366,,
,9300.0,3375.0,12528.0,2488.0,1984.0,3454.0,133.0,,,,-0.126307291575218,-2.32222775647616,-0.10979117071785,,6.760638232618307,,
,9301.0,3378.0,12531.0,2489.0,1983.0,3444.0,134.0,,,,-0.126442972803468,-2.32173594348932,-0.109581049127672,,7.051311094723374,,
,9298.0,3378.0,12532.0,2489.0,1976.0,3448.0,148.0,,,,-0.126423549633064,-2.32143640423541,-0.109337644159688,,7.331442814126802,,
,9301.0,3374.0,12526.0,2485.0,1976.0,3444.0,152.0,,,,-0.12624983556182,-2.3212022188999,-0.108992808895367,,7.596878261824064,,
,9298.0,3380.0,12529.0,2486.0,2007.0,3462.0,144.0,,,,-0.126222964472418,-2.32150258072086,-0.108654760336223,,7.842277498396336,,
,9299.0,3376.0,12531.0,2485.0,2011.0,3450.0,137.0,,,,-0.126036538144555,-2.32161161703699,-0.109143629522844,,8.061313941990116,,
,9297.0,3377.0,12534.0,2486.0,1999.0,3419.0,148.0,,,,-0.125693943005059,-2.32162212709044,-0.109607981676505,,8.246931465217157,,
,9296.0,3379.0,12528.0,2483.0,2006.0,3415.0,168.0,,,,-0.125587096503106,-2.32171017004589,-0.109710795128205,,8.39165538125583,,
,9294.0,3376.0,12530.0,2483.0,2027.0,3450.0,166.0,,,,-0.125508259760056,-2.32145163174212,-0.110138492877616,,8.48794929409215,,
,9293.0,3375.0,12530.0,2482.0,2019.0,3426.0,187.0,,,,-0.125465032732677,-2.32161091942787,-0.109986310574433,,8.528604096125846,,
,9291.0,3376.0,12529.0,2484.0,2013.0,3429.0,186.0,,,,-0.125128702472539,-2.32110324695749,-0.110097126045871,,8.50713904574164,,
,9289.0,3375.0,12529.0,2482.0,2020.0,3439.0,155.0,,,,-0.125000095073933,-2.32120042470976,-0.110928102644311,,8.418190295665598,,
,9291.0,3377.0,12529.0,2482.0,2013.0,3443.0,141.0,,,,-0.124924174107779,-2.32109071209267,-0.110906638004961,,8.257861086362823,,
,9289.0,3380.0,12531.0,2482.0,2025.0,3456.0,125.0,,,,-0.124743809540885,-2.32104690791281,-0.110964365505286,,8.024010228423952,,
,9287.0,3379.0,12531.0,2483.0,2015.0,3473.0,128.0,,,,-0.12473552098716,-2.32083469298112,-0.110748209917075,,7.716460400551107,,
,9289.0,3377.0,12529.0,2484.0,2011.0,3470.0,128.0,,,,-0.124694973254009,-2.32065740034216,-0.110550343088592,,7.337113704909621,,
,9286.0,3375.0,12527.0,2480.0,2022.0,3447.0,133.0,,,,-0.124327163299238,-2.32041046666383,-0.110892690179848,,6.88996765057749,,
,9288.0,3381.0,12529.0,2483.0,2002.0,3452.0,138.0,,,,-0.124359613954606,-2.32060206510839,-0.110559925168818,,6.381029541635246,,
,9289.0,3382.0,12532.0,2485.0,2009.0,3460.0,165.0,,,,-0.124430825784711,-2.32014188732063,-0.11035773345048,,5.818130956197889,,
,9289.0,3381.0,12533.0,2484.0,2010.0,3436.0,154.0,,,,-0.124584479824956,-2.32048842445186,-0.110907612419687,,5.210647236625926,,
,9292.0,3381.0,12531.0,2485.0,2014.0,3424.0,139.0,,,,-0.124520367592819,-2.3203852340308,-0.111353865692701,,4.569130913185002,,
,9295.0,3382.0,12532.0,2482.0,2012.0,3422.0,164.0,,,,-0.124484085737267,-2.32043841360275,-0.110947935514668,,3.9048737567977962,,
,9293.0,3384.0,12531.0,2486.0,1991.0,3424.0,154.0,,,,-0.124424232012445,-2.32049123788617,-0.111106808378298,,3.2294195139301043,,
,9295.0,3381.0,12533.0,2487.0,1989.0,3420.0,163.0,,,,-0.124631334295787,-2.32068078778029,-0.111040368820935,,2.554056788497335,,
,9297.0,3384.0,12532.0,2490.0,1995.0,3437.0,179.0,,,,-0.124710211964821,-2.32145517620404,-0.111999443800065,,1.8893269540959428,,
,9297.0,3385.0,12531.0,2485.0,2000.0,3457.0,157.0,,,,-0.124829967060436,-2.32164755012553,-0.112254511956948,,1.2445838909199534,,
,9302.0,3387.0,12534.0,2489.0,2004.0,3447.0,168.0,,,,-0.124872557507876,-2.32175085157181,-0.112812906142862,,0.6276401200401086,,
,9305.0,3389.0,12535.0,2491.0,2010.0,3463.0,165.0,,,,-0.124944513746675,-2.32227410606869,-0.113591144679166,,0.04452745940571167,,
,9308.0,3388.0,12532.0,2490.0,1998.0,3462.0,164.0,,,,-0.124978917603441,-2.322769698616,-0.113845881763512,,-0.5006100787633959,,
,9309.0,3387.0,12535.0,2492.0,1974.0,3432.0,154.0,,,,-0.12492341667005,-2.32341787677399,-0.114260296412552,,-1.005486749849435,,
,9311.0,3389.0,12535.0,2492.0,2011.0,3430.0,148.0,,,,-0.124842022532372,-2.32350564423407,-0.114173455597761,,-1.4695187184260263,,
,9314.0,3392.0,12537.0,2495.0,2004.0,3438.0,159.0,,,,-0.124671028156983,-2.32379562700162,-0.114529634259261,,-1.893563422767563,,
,9316.0,3390.0,12534.0,2494.0,1999.0,3438.0,176.0,,,,-0.124858692577906,-2.32324196102084,-0.114777630715545,,-2.2795865235388844,,
,9319.0,3390.0,12534.0,2495.0,1990.0,3444.0,164.0,,,,-0.12466689657773,-2.32331412793308,-0.114723878518103,,-2.630293220590699,,
,9319.0,3391.0,12535.0,2495.0,1998.0,3466.0,139.0,,,,-0.124424702385192,-2.32338418802754,-0.114597626014368,,-2.9487611623197587,,
,9324.0,3392.0,12538.0,2497.0,1981.0,3490.0,156.0,,,,-0.124204799481112,-2.32334809767606,-0.114297923294279,,-3.2381087693772552,,
,9327.0,3396.0,12536.0,2496.0,1995.0,3483.0,164.0,,,,-0.12399252075068,-2.32291306539504,-0.114559289885888,,-3.501226556174657,,
,9329.0,3393.0,12534.0,2499.0,1991.0,3454.0,160.0,,,,-0.124093154076372,-2.32287851356376,-0.114275671073228,,-3.740590807946402,,
,9329.0,3396.0,12535.0,2497.0,1992.0,3463.0,164.0,,,,-0.123943641679979,-2.3230330721977,-0.11480280449938,,-3.958169166696303,,
,9335.0,3399.0,12535.0,2501.0,1995.0,3480.0,165.0,,,,-0.12375063917873,-2.32322012339952,-0.115264910840484,,-4.155416605875021,,
,9335.0,3398.0,12537.0,2500.0,1984.0,3470.0,164.0,,,,-0.123887843541067,-2.32336702121618,-0.115440340213176,,-4.333348848388784,,
,9336.0,3398.0,12537.0,2501.0,1984.0,3446.0,166.0,,,,-0.123852801535058,-2.32328920536927,-0.115496004509947,,-4.492670417249696,,
,9339.0,3395.0,12541.0,2501.0,1992.0,3432.0,149.0,,,,-0.123931210988098,-2.3240675698485,-0.115837025933249,,-4.633928613169243,,
,9341.0,3398.0,12539.0,2502.0,1989.0,3416.0,163.0,,,,-0.12402798716465,-2.32404705261513,-0.116075134832664,,-4.75766442379461,,
,9350.0,3397.0,12537.0,2505.0,1976.0,3398.0,169.0,,,,-0.12443020031739,-2.32450367233832,-0.116455369248383,,-4.864536488493079,,
,9350.0,3400.0,12538.0,2507.0,1987.0,3435.0,138.0,,,,-0.124719393824273,-2.32450318079548,-0.116450676202273,,-4.955402868708158,,
,9352.0,3399.0,12540.0,2508.0,1995.0,3460.0,132.0,,,,-0.124542960392542,-2.32509881587185,-0.116652723992592,,-5.0313550045841025,,
,9355.0,3401.0,12537.0,2507.0,1986.0,3474.0,138.0,,,,-0.124625512425299,-2.32498734177189,-0.116908813514513,,-5.09370684412212,,
,9360.0,3401.0,12539.0,2507.0,1974.0,3491.0,121.0,,,,-0.124558403539305,-2.32552271470974,-0.117337254730012,,-5.143948549164632,,
,9363.0,3403.0,12539.0,2512.0,1981.0,3487.0,138.0,,,,-0.124342888445371,-2.32596989628538,-0.117623324451995,,-5.183677955999489,,
,9364.0,3404.0,12543.0,2511.0,1983.0,3486.0,142.0,,,,-0.124220155806147,-2.32623849279986,-0.118164372599806,,-5.214524081008221,,
,9362.0,3401.0,12538.0,2508.0,2004.0,3489.0,166.0,,,,-0.124088998139437,-2.32576565696753,-0.117967088596559,,-5.238075689977515,,
,9361.0,3401.0,12539.0,2508.0,2000.0,3456.0,186.0,,,,-0.124007038607812,-2.32607585801335,-0.118419421618688,,-5.255824749472047,,
,9359.0,3401.0,12539.0,2508.0,1995.0,3455.0,180.0,,,,-0.124009645294775,-2.32585384517695,-0.118164838561564,,-5.2691299802165,,
,9354.0,3397.0,12540.0,2505.0,1985.0,3435.0,178.0,,,,-0.124084216289794,-2.32599730350268,-0.118646596920507,,-5.279200387596524,,
,9344.0,3393.0,12540.0,2502.0,1973.0,3430.0,177.0,,,,-0.123998489323214,-2.32603761248615,-0.117860540250734,,-5.2870935343701175,,
,9338.0,3389.0,12536.0,2498.0,1984.0,3421.0,171.0,,,,-0.124103276637496,-2.32607988758514,-0.118034205714489,,-5.2937197652866,,
,9327.0,3385.0,12539.0,2496.0,1972.0,3426.0,163.0,,,,-0.124025789991461,-2.32582064854248,-0.117881370198688,,-5.299842716407624,,
,9319.0,3382.0,12539.0,2493.0,1958.0,3438.0,166.0,,,,-0.123973399537257,-2.32579726649706,-0.117848120408001,,-5.30606841587212,,
,9307.0,3378.0,12539.0,2490.0,1968.0,3455.0,152.0,,,,-0.123505422254433,-2.32559253574297,-0.11774329414821,,-5.312819148211688,,
,9291.0,3368.0,12533.0,2483.0,1965.0,3435.0,181.0,,,,-0.123236811323776,-2.32483115968358,-0.11741459390758,,-5.320292563361309,,
,9279.0,3368.0,12535.0,2484.0,1967.0,3447.0,177.0,,,,-0.12284719634885,-2.32443323758463,-0.117229383461689,,-5.328410167597219,,
,9263.0,3361.0,12536.0,2482.0,1967.0,3435.0,190.0,,,,-0.122657417023757,-2.32473773494303,-0.11714503384807,,-5.3367619323253335,,
,9251.0,3358.0,12535.0,2477.0,1978.0,3425.0,197.0,,,,-0.122287986738203,-2.32435020066793,-0.116919555214569,,-5.344555371914925,,
,9236.0,3355.0,12533.0,2472.0,1978.0,3440.0,178.0,,,,-0.121994978676964,-2.32408876007591,-0.116723298365239,,-5.350578251302313,,
,9220.0,3351.0,12533.0,2471.0,1991.0,3427.0,162.0,,,,-0.122014171212152,-2.32357777486857,-0.116448135372726,,-5.353184126550312,,
,9210.0,3352.0,12534.0,2469.0,1991.0,3455.0,160.0,,,,-0.122201325550654,-2.32408129076189,-0.117075267795525,,-5.350309003380449,,
,9202.0,3349.0,12535.0,2467.0,1983.0,3477.0,137.0,,,,-0.122391326389261,-2.3246066268833,-0.117142252071322,,-5.339525119095185,,
