TimeLabel,MEAS1_PPG1,MEAS1_PPG2,MEAS1_PPG3,MEAS1_PPG4,ACCX,ACCY,ACCZ,HR_timestamp,HR_value,radar_timestamp,phase_rx0,phase_rx1,phase_rx2,timestep,n_process,original_rate,calculated_rate
2025-07-23 16:43:50,5784.0,819.0,7098.0,1228.0,-49.0,1453.0,3678.0,2025-07-23 16:44:07,85.0,2025/07/23 04:43:50 PM,-0.0300290259166273,-2.28713804506688,0.0032704244497267,2025/07/23 04:43:50 PM,2.154969370775215,22.288261413574215,21.822991822991824
,5785.0,821.0,7096.0,1227.0,-47.0,1447.0,3678.0,2025-07-23 16:44:08,85.0,,-0.0300776522773148,-2.28704011512046,0.0030113227252066,2025/07/23 04:44:00 PM,1.9132561743867096,21.428571701049805,21.11113608775795
,5784.0,820.0,7099.0,1223.0,-50.0,1443.0,3681.0,2025-07-23 16:44:09,84.0,,-0.0300134533357631,-2.28704879453142,0.003361778238327,2025/07/23 04:44:10 PM,1.6446193523850585,22.01467704772949,22.14349977507872
,5787.0,820.0,7096.0,1225.0,-45.0,1454.0,3685.0,2025-07-23 16:44:10,83.0,,-0.0299909069376657,-2.28672530892043,0.0033661408007239,2025/07/23 04:44:20 PM,1.3567959800186669,21.660650253295895,22.092624356775303
,5786.0,820.0,7098.0,1224.0,-59.0,1457.0,3678.0,2025-07-23 16:44:11,83.0,,-0.0300202681858538,-2.28660384088589,0.0033039980099117,2025/07/23 04:44:30 PM,1.0576376788210218,21.7391300201416,20.463875205254507
,5785.0,824.0,7098.0,1229.0,-55.0,1460.0,3679.0,2025-07-23 16:44:12,82.0,,-0.0300162821244687,-2.2863475885345,0.0035664657492618,2025/07/23 04:44:40 PM,0.754869422671986,21.691974639892575,19.971139971139976
,5786.0,819.0,7095.0,1226.0,-39.0,1462.0,3670.0,2025-07-23 16:44:13,81.0,,-0.0299404922417289,-2.28590795806297,0.0038418799251855,2025/07/23 04:44:50 PM,0.45587265951024214,20.94972038269043,19.05081925243215
,5790.0,822.0,7100.0,1227.0,-35.0,1468.0,3668.0,2025-07-23 16:44:14,81.0,,-0.0299500066264328,-2.28612294747279,0.0038162379331829,2025/07/23 04:45:00 PM,0.16748566719668445,19.736841201782227,20.53571428571429
,5786.0,821.0,7100.0,1228.0,-49.0,1475.0,3661.0,2025-07-23 16:44:15,80.0,,-0.0299412591984689,-2.2860720439947,0.0036425082128345,2025/07/23 04:45:10 PM,-0.10418627664903593,19.9115047454834,19.92768263524478
,5790.0,821.0,7097.0,1229.0,-46.0,1476.0,3653.0,2025-07-23 16:44:16,79.0,,-0.0299152333350429,-2.28570083658738,0.0039338795146101,2025/07/23 04:45:20 PM,-0.3539552542656349,19.76573944091797,19.60669311712955
,5786.0,820.0,7098.0,1226.0,-36.0,1474.0,3659.0,2025-07-23 16:44:17,79.0,,-0.029880289644418,-2.28601273500767,0.0037297339850801,2025/07/23 04:45:30 PM,-0.5777279587921818,20.080322265625,23.00279085993371
,5786.0,820.0,7098.0,1226.0,-50.0,1460.0,3678.0,2025-07-23 16:44:18,79.0,,-0.0299096297618183,-2.28638026009755,0.0043129282587762,2025/07/23 04:45:40 PM,-0.7726664281906345,21.26151657104492,21.056952726644166
,5787.0,822.0,7101.0,1230.0,-51.0,1464.0,3684.0,2025-07-23 16:44:19,78.0,,-0.0298526623254481,-2.2858455120801,0.0039190919327494,2025/07/23 04:45:50 PM,-0.9373151256063147,21.352313995361328,21.296113494658133
,5788.0,822.0,7101.0,1229.0,-53.0,1459.0,3695.0,2025-07-23 16:44:20,78.0,,-0.0298835519059375,-2.28608279370637,0.003687127417651,2025/07/23 04:46:00 PM,-1.071671989512104,22.01467704772949,20.683404332457144
,5786.0,821.0,7101.0,1230.0,-57.0,1471.0,3687.0,2025-07-23 16:44:21,78.0,,-0.0299809057700855,-2.2864331134305,0.0037902585545352,2025/07/23 04:46:10 PM,-1.1771806199447716,21.171487808227536,17.995285545912378
,5785.0,819.0,7098.0,1225.0,-46.0,1474.0,3693.0,2025-07-23 16:44:22,78.0,,-0.0299608364939744,-2.28687428197483,0.0039439070099549,2025/07/23 04:46:20 PM,-1.256626092655517,19.794721603393555,17.331954249702324
,5789.0,824.0,7105.0,1228.0,-49.0,1473.0,3689.0,2025-07-23 16:44:23,78.0,,-0.0298380028312287,-2.28659999279136,0.004282562880805,2025/07/23 04:46:30 PM,-1.313927102992427,18.59504127502441,20.748763986468912
,5787.0,823.0,7101.0,1231.0,-45.0,1475.0,3673.0,2025-07-23 16:44:24,78.0,,-0.0300358460717758,-2.2863658864537,0.0038264670741362,2025/07/23 04:46:40 PM,-1.3538299296355238,18.83830451965332,19.26587301587297
,5787.0,822.0,7103.0,1228.0,-43.0,1470.0,3672.0,2025-07-23 16:44:25,78.0,,-0.0298730913220582,-2.28646551451866,0.0039210537976362,,-1.3815224960606045,,
,5787.0,822.0,7104.0,1227.0,-50.0,1465.0,3685.0,2025-07-23 16:44:26,78.0,,-0.0299287279460358,-2.28675878819202,0.0041298352084261,,-1.4021976413073134,,
,5791.0,824.0,7107.0,1229.0,-49.0,1465.0,3682.0,2025-07-23 16:44:27,78.0,,-0.0299481874782476,-2.28647254304265,0.0033276034319661,,-1.4206024684724694,,
,5789.0,823.0,7108.0,1232.0,-42.0,1470.0,3670.0,2025-07-23 16:44:28,78.0,,-0.0299243666507643,-2.28629892208496,0.0037242620120631,,-1.4406147316354065,,
,5788.0,822.0,7106.0,1228.0,-47.0,1474.0,3678.0,2025-07-23 16:44:29,79.0,,-0.0298675282222697,-2.28614588143264,0.0037021074663351,,-1.464887244463747,,
,5790.0,823.0,7106.0,1227.0,-53.0,1463.0,3656.0,2025-07-23 16:44:30,79.0,,-0.0298721222430745,-2.28614986163227,0.0034028230602323,,-1.4945968966479595,,
,5792.0,822.0,7107.0,1232.0,-47.0,1460.0,3665.0,2025-07-23 16:44:31,79.0,,-0.0298461370057686,-2.28626714154709,0.004282761136314,,-1.5293258913226648,,
,5789.0,822.0,7109.0,1232.0,-54.0,1467.0,3690.0,2025-07-23 16:44:32,79.0,,-0.0298490324528014,-2.28572448137445,0.0037514447999508,,-1.5670896204745393,,
,5789.0,823.0,7111.0,1230.0,-51.0,1475.0,3692.0,2025-07-23 16:44:33,79.0,,-0.0297966085093975,-2.28562471248204,0.0043016235976155,,-1.6045093652115374,,
,5791.0,823.0,7110.0,1230.0,-47.0,1485.0,3689.0,2025-07-23 16:44:34,80.0,,-0.0298005068946123,-2.2854610447397,0.0043200416601561,,-1.6371109278607607,,
,5789.0,822.0,7112.0,1231.0,-55.0,1468.0,3677.0,2025-07-23 16:44:35,80.0,,-0.0296254620071121,-2.28517382917206,0.0049164494451123,,-1.6597153877100221,,
,5791.0,825.0,7114.0,1232.0,-45.0,1468.0,3650.0,2025-07-23 16:44:36,80.0,,-0.0297255059136652,-2.28518535587708,0.0042385025286341,,-1.6668785428460244,,
,5793.0,825.0,7114.0,1231.0,-53.0,1465.0,3645.0,2025-07-23 16:44:37,80.0,,-0.0295861877879511,-2.28463135881045,0.0042659422053725,,-1.6533331835287703,,
,5792.0,822.0,7112.0,1233.0,-53.0,1455.0,3651.0,2025-07-23 16:44:38,80.0,,-0.0296171376772235,-2.28481371686352,0.0051450574674257,,-1.614392843289096,,
,5792.0,822.0,7113.0,1231.0,-51.0,1464.0,3667.0,2025-07-23 16:44:39,81.0,,-0.0296447882522671,-2.28495318038426,0.0043835968646151,,-1.5462849335004456,,
,5791.0,824.0,7116.0,1231.0,-50.0,1467.0,3661.0,2025-07-23 16:44:40,81.0,,-0.0296420908978511,-2.28448808090602,0.0045325805464741,,-1.446392670970962,,
,5794.0,827.0,7117.0,1231.0,-55.0,1462.0,3656.0,2025-07-23 16:44:41,81.0,,-0.0295414461812767,-2.28450088063664,0.0050745227961283,,-1.3133972726733134,,
,5794.0,825.0,7119.0,1233.0,-62.0,1449.0,3671.0,2025-07-23 16:44:42,81.0,,-0.029558942144167,-2.28407447616536,0.0048961974072121,,-1.147323646608145,,
,5796.0,821.0,7115.0,1229.0,-58.0,1472.0,3661.0,2025-07-23 16:44:43,81.0,,-0.029515835448875,-2.28466484432529,0.0051673034972546,,-0.9495034729457248,,
,5796.0,825.0,7121.0,1234.0,-48.0,1475.0,3678.0,2025-07-23 16:44:44,81.0,,-0.0297122902464484,-2.28442572147178,0.0048663403224825,,-0.7224779425760021,,
,5795.0,826.0,7121.0,1234.0,-51.0,1476.0,3692.0,2025-07-23 16:44:45,81.0,,-0.0296343791476859,-2.28438950821709,0.004999415626521,,-0.46986694172475457,,
,5797.0,828.0,7122.0,1235.0,-51.0,1477.0,3690.0,2025-07-23 16:44:46,81.0,,-0.0296437704139809,-2.28451992766719,0.0044652807917402,,-0.19623073753062453,,
,5799.0,826.0,7122.0,1233.0,-45.0,1463.0,3678.0,2025-07-23 16:44:47,82.0,,-0.0295963794137179,-2.28449296388877,0.005020710602826,,0.0930563087094733,,
,5803.0,826.0,7126.0,1236.0,-44.0,1460.0,3699.0,2025-07-23 16:44:48,82.0,,-0.0294531570284296,-2.28435892474442,0.0051575553451215,,0.3919118490087558,,
,5801.0,825.0,7129.0,1238.0,-37.0,1462.0,3687.0,2025-07-23 16:44:49,82.0,,-0.0294672179204858,-2.28429280327568,0.0052879221829716,,0.6936369064463541,,
,5802.0,828.0,7126.0,1237.0,-37.0,1468.0,3675.0,2025-07-23 16:44:50,82.0,,-0.0295110477736636,-2.28390628445177,0.0053466463900112,,0.9910098659078153,,
,5801.0,825.0,7128.0,1235.0,-48.0,1459.0,3679.0,2025-07-23 16:44:51,82.0,,-0.0294878329504531,-2.28410486797682,0.005012518269937,,1.2764070732535275,,
,5805.0,828.0,7132.0,1236.0,-47.0,1457.0,3664.0,2025-07-23 16:44:52,82.0,,-0.0295123175505587,-2.28409869146472,0.0047096899699316,,1.5419732074226689,,
,5804.0,825.0,7129.0,1237.0,-47.0,1457.0,3685.0,2025-07-23 16:44:53,82.0,,-0.029555363686937,-2.28423130949855,0.0048182840387511,,1.7798568183674233,,
,5807.0,827.0,7135.0,1240.0,-50.0,1459.0,3681.0,2025-07-23 16:44:54,82.0,,-0.0295651320883946,-2.28440257033666,0.0050465018200241,,1.9825140291669663,,
,5807.0,826.0,7134.0,1237.0,-50.0,1461.0,3709.0,2025-07-23 16:44:55,82.0,,-0.0294546908927845,-2.28435399851847,0.0052733606989438,,2.143069259670004,,
,5806.0,828.0,7136.0,1237.0,-55.0,1463.0,3691.0,2025-07-23 16:44:56,82.0,,-0.0294379187559929,-2.28379315413666,0.00464449416952,,2.2557083390442227,,
,5809.0,828.0,7137.0,1239.0,-48.0,1476.0,3692.0,2025-07-23 16:44:57,81.0,,-0.0294457642291348,-2.28367594524436,0.0052500709715326,,2.3160683108413767,,
,5812.0,828.0,7138.0,1240.0,-50.0,1470.0,3684.0,2025-07-23 16:44:58,80.0,,-0.0294100365312662,-2.28343611957462,0.0053459135012917,,2.321581167161565,,
,5811.0,829.0,7141.0,1239.0,-47.0,1458.0,3689.0,2025-07-23 16:44:59,80.0,,-0.029389258184184,-2.28350437571457,0.0054667012226235,,2.271727274386177,,
,5812.0,830.0,7144.0,1239.0,-51.0,1458.0,3704.0,2025-07-23 16:45:00,79.0,,-0.0294219800745045,-2.28357748489933,0.0053612426265482,,2.1681596581009512,,
,5813.0,830.0,7144.0,1243.0,-47.0,1464.0,3706.0,2025-07-23 16:45:01,79.0,,-0.0292753308579943,-2.28350957152197,0.0055606157784047,,2.014672952716937,,
,5815.0,833.0,7148.0,1241.0,-52.0,1457.0,3667.0,2025-07-23 16:45:02,79.0,,-0.0293838825818581,-2.28343118155686,0.0055320289070086,,1.8170095380056714,,
,5817.0,830.0,7149.0,1242.0,-52.0,1461.0,3658.0,2025-07-23 16:45:03,79.0,,-0.029334203042236,-2.2832677151818,0.0057475454290373,,1.5825171585838869,,
,5816.0,830.0,7149.0,1244.0,-43.0,1475.0,3679.0,2025-07-23 16:45:04,80.0,,-0.0293424297939173,-2.28344303610635,0.0057138311527239,,1.3196925824894539,,
,5815.0,829.0,7151.0,1245.0,-42.0,1475.0,3673.0,2025-07-23 16:45:05,79.0,,-0.029302606583441,-2.28316531981847,0.0056789707216632,,1.0376599046757287,,
,5817.0,831.0,7154.0,1245.0,-43.0,1468.0,3691.0,2025-07-23 16:45:06,78.0,,-0.0292992970759122,-2.28370458671909,0.0057813913233492,,0.7456370600317821,,
,5820.0,831.0,7155.0,1242.0,-37.0,1477.0,3686.0,2025-07-23 16:45:07,77.0,,-0.0292844190201036,-2.28305147491528,0.0055031490009007,,0.4524400354919743,,
,5818.0,831.0,7154.0,1244.0,-36.0,1481.0,3706.0,2025-07-23 16:45:08,76.0,,-0.0292981165093814,-2.28317487244217,0.0056818505946043,,0.16606367176878406,,
,5820.0,832.0,7159.0,1245.0,-37.0,1457.0,3707.0,2025-07-23 16:45:09,76.0,,-0.0293287158568132,-2.28354800169423,0.005732140430726,,-0.10663581554689056,,
,5824.0,833.0,7162.0,1248.0,-48.0,1464.0,3713.0,2025-07-23 16:45:10,75.0,,-0.029449513920642,-2.28387995870992,0.0055063186431708,,-0.36014563317257586,,
,5823.0,832.0,7166.0,1246.0,-49.0,1465.0,3701.0,2025-07-23 16:45:11,75.0,,-0.0294802665991658,-2.28478330192567,0.0048412066203555,,-0.5903904521388288,,
,5822.0,834.0,7163.0,1246.0,-56.0,1457.0,3681.0,2025-07-23 16:45:12,74.0,,-0.0296522664127812,-2.28499324713203,0.0049840636569188,,-0.7947282492457336,,
,5824.0,831.0,7163.0,1246.0,-51.0,1457.0,3665.0,2025-07-23 16:45:13,74.0,,-0.0296928892300204,-2.28592430378083,0.0042854968485002,,-0.9718681179547601,,
,5824.0,832.0,7166.0,1249.0,-55.0,1471.0,3668.0,2025-07-23 16:45:14,74.0,,-0.0299020127694939,-2.28648804886493,0.0038172154694486,,-1.1217341597782893,,
,5822.0,832.0,7169.0,1248.0,-49.0,1485.0,3670.0,2025-07-23 16:45:15,74.0,,-0.0300523471052719,-2.28718293378513,0.0036411020610456,,-1.2452993753534927,,
,5822.0,831.0,7167.0,1249.0,-42.0,1482.0,3686.0,2025-07-23 16:45:16,75.0,,-0.0300296902547542,-2.28754748283537,0.0035260870439959,,-1.3444091226830597,,
,5822.0,831.0,7168.0,1245.0,-42.0,1483.0,3694.0,2025-07-23 16:45:17,75.0,,-0.0301233862205885,-2.28804421463692,0.0031619082193218,,-1.4216059579284015,,
,5819.0,829.0,7166.0,1245.0,-47.0,1475.0,3701.0,2025-07-23 16:45:18,75.0,,-0.0302923566325435,-2.2885950532786,0.0031754439090659,,-1.479958365584478,,
,5819.0,832.0,7164.0,1248.0,-50.0,1473.0,3675.0,2025-07-23 16:45:19,74.0,,-0.0304016248711952,-2.28878016637224,0.0023777207915779,,-1.522887766104351,,
,5815.0,831.0,7159.0,1246.0,-41.0,1471.0,3677.0,2025-07-23 16:45:20,74.0,,-0.0303178381285778,-2.28915550275176,0.0025463417130415,,-1.553983995620772,,
,5810.0,828.0,7153.0,1243.0,-46.0,1464.0,3700.0,2025-07-23 16:45:21,74.0,,-0.0304636060730858,-2.28905195183482,0.0024269030812761,,-1.5768006355367945,,
,5809.0,831.0,7149.0,1243.0,-45.0,1472.0,3693.0,2025-07-23 16:45:22,74.0,,-0.0302920837534011,-2.28863567137504,0.0028928804139469,,-1.5946275893184843,,
,5810.0,829.0,7146.0,1241.0,-56.0,1467.0,3696.0,2025-07-23 16:45:23,74.0,,-0.0303682339122367,-2.28877819781055,0.0027697853754218,,-1.6102470696657323,,
,5805.0,829.0,7143.0,1240.0,-58.0,1479.0,3700.0,2025-07-23 16:45:24,74.0,,-0.0302781993066739,-2.28813010425647,0.0028401032855762,,-1.6256881909726173,,
,5804.0,827.0,7138.0,1238.0,-52.0,1478.0,3709.0,2025-07-23 16:45:25,74.0,,-0.0304216137101603,-2.28801649750899,0.0031494685765542,,-1.64200274910226,,
,5801.0,827.0,7134.0,1238.0,-42.0,1480.0,3701.0,2025-07-23 16:45:26,74.0,,-0.0302296550276821,-2.28808259311193,0.0029486927500325,,-1.6590893689399178,,
,5800.0,828.0,7133.0,1237.0,-42.0,1482.0,3688.0,2025-07-23 16:45:27,74.0,,-0.0302998154875042,-2.28804957437017,0.0031211178576838,,-1.6755942339088885,,
,5797.0,827.0,7130.0,1236.0,-40.0,1477.0,3677.0,2025-07-23 16:45:28,74.0,,-0.0301823056006861,-2.28777270756137,0.0027590922550119,,-1.6889133579817501,,
,5795.0,826.0,7130.0,1234.0,-43.0,1482.0,3692.0,2025-07-23 16:45:29,74.0,,-0.0301748248087165,-2.28757593222132,0.0030397905362478,,-1.6953133281447454,,
,5794.0,826.0,7128.0,1236.0,-42.0,1470.0,3698.0,2025-07-23 16:45:30,74.0,,-0.0302971822379472,-2.28738591228404,0.0025939393081887,,-1.6901748071140406,,
,5794.0,826.0,7127.0,1233.0,-45.0,1466.0,3704.0,2025-07-23 16:45:31,74.0,,-0.0302654670768309,-2.28779315566519,0.0028026382247642,,-1.668347009625646,,
,5796.0,824.0,7126.0,1234.0,-45.0,1464.0,3684.0,2025-07-23 16:45:32,74.0,,-0.0302137018127186,-2.28751928491664,0.003106996373425,,-1.6245841488739468,,
,5794.0,827.0,7125.0,1233.0,-48.0,1467.0,3687.0,2025-07-23 16:45:33,73.0,,-0.0302357418701688,-2.287827800014,0.0031988987666978,,-1.5540198050890328,,
,5794.0,825.0,7125.0,1233.0,-50.0,1467.0,3705.0,2025-07-23 16:45:34,73.0,,-0.0302292079832915,-2.28775132538026,0.0032336723549175,,-1.4526260047539885,,
,5794.0,826.0,7124.0,1236.0,-44.0,1466.0,3680.0,2025-07-23 16:45:35,73.0,,-0.0302262718619222,-2.28778214264069,0.0029497219775752,,-1.3176034133422656,,
,5793.0,827.0,7121.0,1233.0,-41.0,1479.0,3697.0,2025-07-23 16:45:36,73.0,,-0.0302405785837795,-2.28785927530915,0.0027070018418198,,-1.1476582316662052,,
,5790.0,826.0,7123.0,1233.0,-45.0,1476.0,3696.0,2025-07-23 16:45:37,73.0,,-0.0302652492926462,-2.28758671744365,0.0029589007426151,,-0.9431383181893365,,
,5792.0,826.0,7123.0,1233.0,-41.0,1471.0,3687.0,2025-07-23 16:45:38,73.0,,-0.0302223581216448,-2.28748522024862,0.0030500657138935,,-0.7060219719069627,,
,5793.0,826.0,7123.0,1233.0,-51.0,1466.0,3686.0,2025-07-23 16:45:39,73.0,,-0.0301866708936824,-2.28757799678169,0.0025781378355673,,-0.43977347678061557,,
,5794.0,825.0,7122.0,1232.0,-47.0,1461.0,3662.0,2025-07-23 16:45:40,74.0,,-0.0301650740344376,-2.28760246498528,0.0031552363888482,,-0.14909652057673647,,
,5795.0,826.0,7123.0,1234.0,-49.0,1448.0,3662.0,2025-07-23 16:45:41,74.0,,-0.0302522624663851,-2.28801114589744,0.0034117467251607,,0.1603722215753302,,
,5792.0,825.0,7122.0,1230.0,-57.0,1459.0,3685.0,2025-07-23 16:45:42,74.0,,-0.0300940865134838,-2.28758528084202,0.0035631576524594,,0.48238288910475163,,
,5794.0,825.0,7121.0,1234.0,-56.0,1454.0,3698.0,2025-07-23 16:45:43,74.0,,-0.0301490041497003,-2.28732527516868,0.0032516987348258,,0.8103624615712133,,
,5796.0,827.0,7120.0,1234.0,-36.0,1470.0,3665.0,2025-07-23 16:45:44,74.0,,-0.0301119684158832,-2.28734195988629,0.003589953200976,,1.1376422072665522,,
,5797.0,827.0,7124.0,1235.0,-41.0,1473.0,3676.0,2025-07-23 16:45:45,75.0,,-0.029970271244459,-2.28724383932216,0.0039341355563386,,1.4576058109804944,,
,5797.0,827.0,7122.0,1233.0,-44.0,1461.0,3700.0,2025-07-23 16:45:46,75.0,,-0.0300063184905425,-2.28681892549245,0.003892462950682,,1.7637606747132328,,
,5793.0,825.0,7120.0,1232.0,-48.0,1466.0,3685.0,2025-07-23 16:45:47,75.0,,-0.0299635775434801,-2.28657474823842,0.0033510072272256,,2.049753687635493,,
,5797.0,825.0,7120.0,1233.0,-44.0,1475.0,3651.0,2025-07-23 16:45:48,75.0,,-0.0300103436641451,-2.28742653737197,0.0036167484541703,,2.309366865461522,,
,5795.0,825.0,7121.0,1234.0,-42.0,1475.0,3667.0,2025-07-23 16:45:49,76.0,,-0.0300570394181969,-2.28702448697334,0.0035124047890953,,2.536533938499131,,
,5796.0,825.0,7122.0,1234.0,-47.0,1463.0,3669.0,2025-07-23 16:45:50,76.0,,-0.0300209297738234,-2.28717370692111,0.0033952924513492,,2.7254145648341197,,
,5795.0,827.0,7120.0,1231.0,-50.0,1469.0,3681.0,2025-07-23 16:45:51,76.0,,-0.0301347247035247,-2.28727010144253,0.0032491338742116,,2.8705495411434465,,
,5797.0,826.0,7123.0,1235.0,-42.0,1462.0,3666.0,2025-07-23 16:45:52,76.0,,-0.0301696826828404,-2.2874484728321,0.0031661028598486,,2.967101550325009,,
,5798.0,826.0,7124.0,1235.0,-45.0,1444.0,3663.0,2025-07-23 16:45:53,76.0,,-0.0301040105539137,-2.28719260350171,0.0031246250717602,,3.0111656847486095,,
,5798.0,827.0,7123.0,1235.0,-39.0,1442.0,3677.0,2025-07-23 16:45:54,75.0,,-0.0301592164314899,-2.28739587405687,0.0032257302582786,,3.0001157934495613,,
,5796.0,824.0,7121.0,1233.0,-44.0,1461.0,3672.0,2025-07-23 16:45:55,76.0,,-0.0301561408386097,-2.28779344592334,0.0031817223152076,,2.932939454036237,,
,5797.0,826.0,7121.0,1234.0,-45.0,1447.0,3676.0,2025-07-23 16:45:56,76.0,,-0.0302084006267854,-2.28777317999098,0.0033532760134773,,2.8105083190654017,,
,5799.0,827.0,7123.0,1238.0,-53.0,1475.0,3673.0,2025-07-23 16:45:57,76.0,,-0.0302347962438773,-2.28755284358084,0.0027915956275312,,2.6357332526766264,,
,5802.0,826.0,7122.0,1236.0,-50.0,1481.0,3681.0,2025-07-23 16:45:58,76.0,,-0.0302697724717015,-2.2875925720851,0.0033744461867018,,2.413565369941446,,
,5797.0,827.0,7124.0,1235.0,-41.0,1482.0,3701.0,2025-07-23 16:45:59,76.0,,-0.0302192898497773,-2.28747456297394,0.0027706933510085,,2.150823575996359,,
,5799.0,824.0,7127.0,1235.0,-43.0,1473.0,3714.0,2025-07-23 16:46:00,76.0,,-0.0302143156895937,-2.28719052189434,0.0032705775592979,,1.8558535853442106,,
,5799.0,824.0,7127.0,1237.0,-42.0,1465.0,3707.0,2025-07-23 16:46:01,76.0,,-0.0300684404668878,-2.28725584491095,0.003419334079231,,1.5380483087375485,,
,5800.0,825.0,7129.0,1238.0,-43.0,1466.0,3698.0,2025-07-23 16:46:02,76.0,,-0.0301254995846971,-2.2868695655627,0.0033288038741734,,1.2072798090937762,,
,5798.0,827.0,7131.0,1236.0,-43.0,1454.0,3691.0,2025-07-23 16:46:03,76.0,,-0.0299973435533753,-2.28636991004305,0.0036992033600463,,0.8733044361498576,,
,5799.0,824.0,7126.0,1234.0,-42.0,1464.0,3670.0,2025-07-23 16:46:04,76.0,,-0.0299594772564527,-2.28687136783618,0.0040701401356143,,0.5452033946217218,,
,5802.0,823.0,7129.0,1237.0,-37.0,1465.0,3670.0,2025-07-23 16:46:05,77.0,,-0.0298991202440931,-2.28678938692236,0.0038609420406181,,0.23091203791603535,,
,5802.0,827.0,7129.0,1237.0,-46.0,1469.0,3682.0,2025-07-23 16:46:06,77.0,,-0.0299853038051405,-2.28646291749146,0.0038489422435333,,-0.06312416421895595,,
,5802.0,826.0,7131.0,1239.0,-52.0,1465.0,3689.0,2025-07-23 16:46:07,77.0,,-0.0298550136687401,-2.28631230972382,0.0040851432116606,,-0.33214710037313844,,
,5800.0,825.0,7132.0,1235.0,-51.0,1471.0,3695.0,2025-07-23 16:46:08,78.0,,-0.0298484850962717,-2.28600658999801,0.0036941963222195,,-0.5731349232077121,,
,5800.0,829.0,7132.0,1236.0,-50.0,1476.0,3686.0,2025-07-23 16:46:09,78.0,,-0.029802614177855,-2.28592184034704,0.0048127063095621,,-0.7847161187264965,,
,5804.0,826.0,7132.0,1240.0,-42.0,1475.0,3678.0,2025-07-23 16:46:10,78.0,,-0.029793405212058,-2.28576182840778,0.0046780127678382,,-0.9669747944707333,,
,5804.0,826.0,7130.0,1241.0,-47.0,1468.0,3680.0,2025-07-23 16:46:11,78.0,,-0.0298321123188457,-2.28585340081148,0.0039827964806926,,-1.1211812095077291,,
,5802.0,824.0,7131.0,1236.0,-45.0,1456.0,3699.0,2025-07-23 16:46:12,78.0,,-0.0298191173236711,-2.28550214062843,0.004465721440542,,-1.2494845553415488,,
,5805.0,823.0,7132.0,1238.0,-42.0,1460.0,3682.0,2025-07-23 16:46:13,78.0,,-0.0298339855776112,-2.28583490671206,0.0040403759011925,,-1.354602773102964,,
,5806.0,826.0,7136.0,1240.0,-48.0,1470.0,3677.0,2025-07-23 16:46:14,78.0,,-0.0298027830501714,-2.2855732598897,0.0042645600110259,,-1.4395371354295912,,
2025-07-23 16:43:51,5807.0,825.0,7135.0,1239.0,-47.0,1466.0,3680.0,2025-07-23 16:46:15,77.0,2025/07/23 04:43:51 PM,-0.0298458296085124,-2.2859642995589,0.0041991088434602,,-1.507328723490446,,
,5806.0,823.0,7134.0,1239.0,-34.0,1467.0,3719.0,2025-07-23 16:46:16,77.0,,-0.029753794028373,-2.28591695145949,0.0040893190556608,,-1.5608621441335662,,
,5805.0,824.0,7135.0,1238.0,-45.0,1462.0,3703.0,2025-07-23 16:46:17,77.0,,-0.0298653015102049,-2.28601529037849,0.0035337938574659,,-1.6027118690345865,,
,5810.0,826.0,7139.0,1242.0,-48.0,1476.0,3694.0,2025-07-23 16:46:18,77.0,,-0.0299015495480449,-2.28577297932129,0.0038666444409408,,-1.635021030677869,,
,5810.0,823.0,7139.0,1240.0,-51.0,1475.0,3705.0,2025-07-23 16:46:19,77.0,,-0.0299548459005156,-2.28592714142501,0.0043396921698304,,-1.6594023392329982,,
,5811.0,827.0,7140.0,1241.0,-31.0,1468.0,3699.0,2025-07-23 16:46:20,77.0,,-0.0300370851955123,-2.28577144831701,0.0042530156551519,,-1.676854912785994,,
,5811.0,825.0,7137.0,1240.0,-47.0,1473.0,3676.0,2025-07-23 16:46:21,77.0,,-0.0298626585581398,-2.28646375094272,0.003916622988191,,-1.6876969295864968,,
,5814.0,827.0,7143.0,1242.0,-37.0,1474.0,3674.0,2025-07-23 16:46:22,76.0,,-0.0298694426031101,-2.28653883768166,0.0037372916071133,,-1.6915198695263538,,
,5811.0,827.0,7145.0,1241.0,-46.0,1478.0,3698.0,2025-07-23 16:46:23,76.0,,-0.0300021851124403,-2.28615889294728,0.0038222932272246,,-1.6871743112443778,,
,5814.0,829.0,7146.0,1244.0,-53.0,1479.0,3691.0,2025-07-23 16:46:24,76.0,,-0.0299714067020774,-2.28613638409941,0.0039030545077122,,-1.6727991547518486,,
,5815.0,826.0,7144.0,1242.0,-61.0,1471.0,3679.0,2025-07-23 16:46:25,77.0,,-0.0298487752156076,-2.28637903658246,0.0035124898474077,,-1.6459054148720225,,
,5815.0,827.0,7145.0,1245.0,-48.0,1464.0,3674.0,2025-07-23 16:46:26,78.0,,-0.0299177958975329,-2.28600969677086,0.003517751503271,,-1.6035221521038605,,
,5817.0,828.0,7148.0,1245.0,-48.0,1463.0,3684.0,2025-07-23 16:46:27,79.0,,-0.0298374876732331,-2.28622483722483,0.0032733209029227,,-1.5424057435586775,,
,5820.0,827.0,7150.0,1246.0,-41.0,1455.0,3685.0,2025-07-23 16:46:28,80.0,,-0.029905088840921,-2.28620342613037,0.003763303942221,,-1.4593051326181368,,
,5819.0,824.0,7151.0,1245.0,-43.0,1470.0,3689.0,2025-07-23 16:46:29,81.0,,-0.0299019441427606,-2.28635965834576,0.004017216527521,,-1.3512660799521776,,
,5819.0,826.0,7153.0,1245.0,-50.0,1469.0,3704.0,2025-07-23 16:46:30,81.0,,-0.0298973441161313,-2.28636882830753,0.0043803788213711,,-1.215948456829638,,
,5820.0,828.0,7154.0,1247.0,-42.0,1470.0,3694.0,2025-07-23 16:46:31,81.0,,-0.0299207940246104,-2.28613806707858,0.0041322733474025,,-1.0519244187816974,,
,5822.0,829.0,7155.0,1246.0,-48.0,1473.0,3684.0,2025-07-23 16:46:32,81.0,,-0.0299214756154818,-2.28665002873908,0.0033512435252644,,-0.8589240398337518,,
,5821.0,828.0,7158.0,1247.0,-60.0,1463.0,3665.0,2025-07-23 16:46:33,80.0,,-0.0299441791881861,-2.28681886758688,0.0034158176910264,,-0.6379998914314466,,
,5826.0,827.0,7157.0,1248.0,-44.0,1447.0,3696.0,2025-07-23 16:46:34,80.0,,-0.0298557044369004,-2.2863524029656,0.0037900957311084,,-0.39159242553747287,,
,5827.0,828.0,7161.0,1248.0,-50.0,1468.0,3691.0,2025-07-23 16:46:35,80.0,,-0.0298538026012031,-2.28630668171779,0.0034123137037895,,-0.12349126360907191,,
,5826.0,829.0,7160.0,1249.0,-51.0,1474.0,3681.0,2025-07-23 16:46:36,80.0,,-0.0298221109513477,-2.28644679215699,0.0042670869933316,,0.16129972135415452,,
,5826.0,828.0,7164.0,1251.0,-46.0,1465.0,3678.0,2025-07-23 16:46:37,79.0,,-0.0298064097964861,-2.28578310123237,0.0038311631625452,,0.4567757933347091,,
,5827.0,826.0,7165.0,1249.0,-50.0,1464.0,3687.0,2025-07-23 16:46:38,79.0,,-0.0298791012014586,-2.28639837420878,0.0036150117266025,,0.7561994520014848,,
,5829.0,827.0,7166.0,1251.0,-46.0,1467.0,3702.0,2025-07-23 16:46:39,79.0,,-0.0299220071951142,-2.28629936074354,0.0037446384591846,,1.0523970257525734,,
,5834.0,829.0,7170.0,1252.0,-48.0,1475.0,3679.0,2025-07-23 16:46:40,79.0,,-0.0298844478023803,-2.28603515725358,0.003640208918107,,1.3380581205308801,,
,5830.0,828.0,7171.0,1252.0,-49.0,1477.0,3698.0,2025-07-23 16:46:41,79.0,,-0.0299279027399482,-2.28606021095276,0.0041596631971086,,1.6060154879565367,,
,5833.0,828.0,7170.0,1250.0,-45.0,1466.0,3695.0,2025-07-23 16:46:42,79.0,,-0.0297880915450644,-2.28609902369372,0.0038267854277917,,1.8494883474558552,,
,5835.0,830.0,7175.0,1254.0,-47.0,1442.0,3703.0,2025-07-23 16:46:43,79.0,,-0.0299386884678805,-2.28603392810218,0.0034887785175481,,2.062279495331435,,
,5835.0,830.0,7178.0,1254.0,-54.0,1442.0,3696.0,2025-07-23 16:46:44,79.0,,-0.0299827022977822,-2.28625006519559,0.0031677023509528,,2.2389250196088457,,
,5835.0,828.0,7178.0,1253.0,-53.0,1455.0,3688.0,2025-07-23 16:46:45,79.0,,-0.030166658141836,-2.28712433228853,0.0036843034670046,,2.3748040220760287,,
,5835.0,830.0,7177.0,1253.0,-60.0,1464.0,3675.0,2025-07-23 16:46:46,79.0,,-0.0302592657114482,-2.28754645792884,0.0031575697334004,,2.46622259940089,,
,5836.0,828.0,7180.0,1255.0,-55.0,1476.0,3664.0,2025-07-23 16:46:47,79.0,,-0.0303694742140311,-2.28826434335247,0.0023315684572158,,2.5104890967624485,,
,5833.0,827.0,7181.0,1257.0,-46.0,1473.0,3668.0,2025-07-23 16:46:48,79.0,,-0.0306729730959812,-2.28928078551149,0.0023532904686563,,2.5059945473422727,,
,5832.0,830.0,7179.0,1254.0,-56.0,1477.0,3679.0,2025-07-23 16:46:49,79.0,,-0.0308307873162457,-2.28994147457393,0.0018830585004272,,2.4523035237685646,,
,5828.0,826.0,7179.0,1255.0,-60.0,1469.0,3668.0,2025-07-23 16:46:50,79.0,,-0.03088419384434,-2.29040171705796,0.0009064844672977,,2.350249106365616,,
,5830.0,828.0,7173.0,1254.0,-53.0,1473.0,3664.0,2025-07-23 16:46:51,79.0,,-0.030952812128227,-2.29084804185956,0.0013686005978405,,2.2020152770705317,,
,5825.0,826.0,7168.0,1250.0,-53.0,1467.0,3697.0,2025-07-23 16:46:52,79.0,,-0.0310276628814458,-2.29156872133409,0.0006694444219668,,2.011183929275744,,
,5822.0,824.0,7166.0,1252.0,-54.0,1470.0,3698.0,2025-07-23 16:46:53,79.0,,-0.0310589932585972,-2.29211690023311,0.0001611558504747,,1.7827229697493043,,
,5818.0,825.0,7159.0,1248.0,-44.0,1475.0,3688.0,2025-07-23 16:46:54,80.0,,-0.0311787360384535,-2.29256481813318,-0.0001355054479355,,1.5228960017127873,,
,5816.0,823.0,7152.0,1246.0,-45.0,1469.0,3680.0,2025-07-23 16:46:55,79.0,,-0.0312025650411314,-2.29253808686276,0.000413308403542,,1.2390814042861678,,
,5815.0,822.0,7150.0,1246.0,-56.0,1470.0,3662.0,2025-07-23 16:46:56,79.0,,-0.0311564791016308,-2.2922369972527,-0.0001534149676562,,0.9394979731197785,,
,5814.0,825.0,7147.0,1245.0,-56.0,1472.0,3684.0,2025-07-23 16:46:57,79.0,,-0.0313020380967372,-2.29220525536574,-0.000151043396823,,0.6328447057303607,,
,5811.0,823.0,7144.0,1243.0,-56.0,1468.0,3698.0,2025-07-23 16:46:58,78.0,,-0.0312277837729533,-2.29301990106126,0.0003515305203897,,0.32787304660020367,,
,5808.0,820.0,7139.0,1240.0,-57.0,1470.0,3691.0,2025-07-23 16:46:59,78.0,,-0.0312668763759338,-2.29265932205482,0.0002104638151739,,0.03292018675538721,,
,5807.0,821.0,7135.0,1239.0,-53.0,1472.0,3687.0,2025-07-23 16:47:00,77.0,,-0.0312694501520277,-2.29225036410235,0.0005556624903294,,-0.24455922443589098,,
,5806.0,821.0,7136.0,1241.0,-51.0,1465.0,3683.0,2025-07-23 16:47:01,78.0,,-0.0311854005191161,-2.29211153658688,0.0007943316111563,,-0.4984199632162746,,
,5806.0,819.0,7133.0,1240.0,-53.0,1472.0,3671.0,2025-07-23 16:47:02,78.0,,-0.0310833716305501,-2.29190397504276,0.0002342200641772,,-0.7241681361584152,,
,5801.0,819.0,7132.0,1238.0,-57.0,1474.0,3671.0,2025-07-23 16:47:03,78.0,,-0.0310945696763526,-2.29174386661068,0.0002244720254952,,-0.9191803245647054,,
,5800.0,818.0,7132.0,1239.0,-47.0,1471.0,3692.0,2025-07-23 16:47:04,78.0,,-0.0311098830056824,-2.29162818280141,-0.0001243443015557,,-1.082774107262696,,
,5801.0,821.0,7132.0,1238.0,-57.0,1464.0,3703.0,2025-07-23 16:47:05,78.0,,-0.0310209417253392,-2.29194265551927,0.0002212699638179,,-1.2161201485990945,,
,5799.0,823.0,7129.0,1239.0,-55.0,1462.0,3700.0,2025-07-23 16:47:06,77.0,,-0.0310939711294473,-2.29190165672824,0.000310580380808,,-1.322003295932434,,
,5796.0,818.0,7131.0,1236.0,-56.0,1446.0,3703.0,,,,-0.0311072974389509,-2.29172495597269,0.0005033033027149,,-1.4044559344868475,,
,5798.0,817.0,7125.0,1237.0,-50.0,1456.0,3695.0,,,,-0.0311495626838531,-2.29170459598652,0.0006228601154001,,-1.46829949125902,,
,5797.0,817.0,7127.0,1236.0,-39.0,1463.0,3691.0,,,,-0.0310758148853665,-2.29205554425163,0.0002333906365815,,-1.5186386179247082,,
,5798.0,823.0,7132.0,1238.0,-48.0,1463.0,3706.0,,,,-0.0310406983826652,-2.29278188342343,0.0005801443723148,,-1.5603567502401585,,
,5797.0,821.0,7125.0,1239.0,-54.0,1451.0,3710.0,,,,-0.0310283551049202,-2.29214278828163,0.0001222058728095,,-1.5976611093140947,,
,5798.0,820.0,7126.0,1238.0,-48.0,1449.0,3694.0,,,,-0.0310960395929819,-2.29219133917133,0.0006895962915626,,-1.6337196756870962,,
,5797.0,819.0,7126.0,1237.0,-57.0,1450.0,3669.0,,,,-0.031193859070396,-2.29226290116507,-0.0002240202754908,,-1.6704224947213815,,
,5798.0,819.0,7126.0,1239.0,-57.0,1463.0,3691.0,,,,-0.0311460965299901,-2.29208353961036,0.0005295728499897,,-1.7082855710383626,,
,5795.0,820.0,7129.0,1240.0,-50.0,1458.0,3695.0,,,,-0.031066963026806,-2.29240132257293,0.000777535696323,,-1.746498855427494,,
,5796.0,820.0,7123.0,1237.0,-45.0,1459.0,3684.0,,,,-0.0311207812888037,-2.29216023309313,7.12463912094419e-05,,-1.7831024532755597,,
,5795.0,817.0,7124.0,1238.0,-37.0,1460.0,3681.0,,,,-0.0310653894465639,-2.29202271289767,8.83245372759696e-05,,-1.8152600097908995,,
,5798.0,821.0,7126.0,1239.0,-48.0,1465.0,3679.0,,,,-0.0310875416808124,-2.2920723988526,0.0002891059752179,,-1.839588275391376,,
,5798.0,820.0,7124.0,1237.0,-50.0,1469.0,3686.0,,,,-0.0309477909993824,-2.29174537976604,0.0005559302773557,,-1.8524991111201567,,
,5796.0,818.0,7123.0,1237.0,-48.0,1474.0,3681.0,,,,-0.0310095548375987,-2.29165234020062,0.0005507630409032,,-1.8505145858665533,,
,5799.0,818.0,7125.0,1237.0,-45.0,1472.0,3674.0,,,,-0.0310360317479407,-2.29181964327849,0.0005854285095266,,-1.830525337407422,,
,5798.0,822.0,7126.0,1237.0,-48.0,1468.0,3673.0,,,,-0.0309994971035585,-2.2919658461934,0.0002957663353754,,-1.7899742650074146,,
,5798.0,819.0,7125.0,1239.0,-48.0,1461.0,3674.0,,,,-0.0310602714547619,-2.29211622112408,0.0008461659805184,,-1.726959667792931,,
,5797.0,820.0,7126.0,1242.0,-47.0,1458.0,3697.0,,,,-0.0310550742592221,-2.29205089272189,0.0004559120723425,,-1.6402628922097926,,
,5798.0,819.0,7126.0,1240.0,-46.0,1463.0,3679.0,,,,-0.0311350550705157,-2.29274727763222,-0.0002969483590904,,-1.5293147072584643,,
,5801.0,819.0,7124.0,1239.0,-42.0,1467.0,3691.0,,,,-0.0311718942953247,-2.2926310291767,-0.0002788069364311,,-1.3941213226075022,,
,5796.0,821.0,7125.0,1240.0,-44.0,1468.0,3682.0,,,,-0.0310857211405806,-2.29251829189635,-0.0001685136250343,,-1.2351745418694664,,
,5797.0,819.0,7124.0,1238.0,-42.0,1459.0,3702.0,,,,-0.0311945025860718,-2.29277642768607,-0.0002221232943889,,-1.0533705676860008,,
,5796.0,819.0,7126.0,1238.0,-57.0,1464.0,3709.0,,,,-0.0312638600763008,-2.29279427455635,-0.000289645122275,,-0.8499582799721752,,
,5798.0,821.0,7128.0,1239.0,-47.0,1449.0,3691.0,,,,-0.0312992746629906,-2.29263936644033,-0.0003004923521724,,-0.6265304794255596,,
,5799.0,820.0,7128.0,1242.0,-51.0,1443.0,3684.0,,,,-0.0313028590593794,-2.29302295551913,-0.0003356765572746,,-0.38506124728617375,,
,5795.0,821.0,7129.0,1241.0,-54.0,1456.0,3690.0,,,,-0.0313011262272479,-2.29332433294228,-0.0002211368234902,,-0.12798084903015375,,
,5797.0,820.0,7128.0,1239.0,-56.0,1472.0,3699.0,,,,-0.0313810247620083,-2.29269733575362,-0.0006506846552274,,0.14173081926217163,,
,5797.0,819.0,7127.0,1242.0,-57.0,1459.0,3681.0,,,,-0.0313873965212661,-2.29285017729435,-0.0003077461769495,,0.4204575539893678,,
,5800.0,819.0,7131.0,1241.0,-58.0,1460.0,3694.0,,,,-0.0313596430354871,-2.29303421532922,-0.0003005415341944,,0.7038929140186259,,
,5799.0,821.0,7132.0,1241.0,-56.0,1470.0,3692.0,,,,-0.0312314519592679,-2.2925405876665,4.18277762405107e-05,,0.9870405647471135,,
,5796.0,819.0,7129.0,1239.0,-58.0,1460.0,3707.0,,,,-0.0312892432078763,-2.29238077185452,1.49362411629747e-05,,1.264282806592624,,
,5802.0,818.0,7134.0,1243.0,-48.0,1457.0,3698.0,,,,-0.0312035905692092,-2.2923326486659,0.0003630543752897,,1.5295224044186875,,
,5799.0,819.0,7133.0,1242.0,-53.0,1472.0,3676.0,,,,-0.0311640434126863,-2.29229734628909,0.0001985575910341,,1.7763939887033726,,
,5799.0,822.0,7133.0,1241.0,-58.0,1470.0,3674.0,,,,-0.0311197108078563,-2.29203662462513,-0.0001869120235703,,1.9985328022280207,,
,5797.0,819.0,7134.0,1241.0,-47.0,1463.0,3671.0,,,,-0.0310595830372071,-2.29180608290402,0.0001006565779857,,2.1898808253231166,,
,5798.0,818.0,7132.0,1242.0,-50.0,1456.0,3677.0,,,,-0.0311060582084097,-2.29160419770203,-0.0001223762837633,,2.345004156138121,,
,5800.0,819.0,7136.0,1243.0,-46.0,1465.0,3684.0,,,,-0.0310366861923902,-2.2914789316467,0.000863204710674,,2.4593919751002202,,
,5801.0,822.0,7136.0,1244.0,-48.0,1465.0,3688.0,,,,-0.0309681690316865,-2.29111239397805,0.00023424507004,,2.5297073582394445,,
,5804.0,821.0,7136.0,1243.0,-48.0,1458.0,3680.0,,,,-0.0309482428942298,-2.29070269414002,0.0011645087329898,,2.553964268254932,,
,5803.0,820.0,7136.0,1240.0,-46.0,1460.0,3683.0,,,,-0.0308898902641105,-2.29101716575757,0.0008660662244223,,2.531613545896209,,
,5803.0,819.0,7138.0,1243.0,-54.0,1455.0,3697.0,,,,-0.0309010890541956,-2.29109964106127,0.0009088248801382,,2.463533037027713,,
,5806.0,820.0,7140.0,1246.0,-42.0,1460.0,3679.0,,,,-0.0309277728294774,-2.29088350106924,0.0009571627319675,,2.3519309290708,,
,5805.0,821.0,7141.0,1244.0,-41.0,1475.0,3658.0,,,,-0.0308771677714393,-2.29080544951509,0.0009839189157642,,2.2001833255078163,,
,5801.0,819.0,7140.0,1243.0,-52.0,1457.0,3674.0,,,,-0.0308175676562113,-2.29066651842215,0.001241756709235,,2.012633518174445,,
,5805.0,822.0,7144.0,1244.0,-50.0,1454.0,3667.0,,,,-0.0308277441455604,-2.29057264206212,0.0010107752437623,,1.7943797986159993,,
,5806.0,820.0,7145.0,1246.0,-55.0,1470.0,3675.0,,,,-0.0308497805025907,-2.29107960886697,0.0009051395840729,,1.5510722490556166,,
,5807.0,819.0,7145.0,1247.0,-58.0,1470.0,3683.0,,,,-0.0307677522974895,-2.29088857628074,0.0009260842151408,,1.288729763579258,,
,5808.0,821.0,7146.0,1245.0,-52.0,1476.0,3697.0,,,,-0.0306734407168081,-2.2905006956341,0.0014103833019415,,1.0135794500703283,,
,5808.0,822.0,7146.0,1245.0,-51.0,1472.0,3701.0,,,,-0.0307534572108404,-2.29064715304458,0.0012123518127039,,0.7319132607941977,,
,5809.0,824.0,7149.0,1249.0,-54.0,1471.0,3718.0,,,,-0.0306073277159798,-2.29075161068118,0.0005868746202314,,0.44995191873158746,,
,5813.0,822.0,7150.0,1248.0,-55.0,1465.0,3707.0,,,,-0.0306171975012502,-2.29086753907978,0.001258293872199,,0.17370435304640466,,
,5812.0,822.0,7152.0,1247.0,-50.0,1445.0,3683.0,,,,-0.0307008201528493,-2.29093913563352,0.0005984882750296,,-0.09118774255681245,,
,5811.0,819.0,7152.0,1248.0,-53.0,1456.0,3689.0,,,,-0.0308422057695757,-2.29047758628543,0.0004947289989142,,-0.339625941578571,,
,5812.0,822.0,7155.0,1252.0,-57.0,1457.0,3697.0,,,,-0.0308371947862707,-2.29059955532682,0.0007041122723879,,-0.5672499663421741,,
,5815.0,822.0,7155.0,1249.0,-56.0,1464.0,3681.0,,,,-0.0308506816690432,-2.29080175149934,0.0006340310319898,,-0.7706404860264725,,
,5815.0,822.0,7159.0,1250.0,-53.0,1454.0,3689.0,,,,-0.0307298793188586,-2.2909785064179,0.000852530444632,,-0.9475096314899989,,
,5814.0,821.0,7160.0,1250.0,-51.0,1472.0,3676.0,,,,-0.0306395775554314,-2.29080958735276,0.0012576360540556,,-1.0968520072804304,,
,5819.0,821.0,7162.0,1251.0,-49.0,1464.0,3693.0,,,,-0.0307236650392552,-2.29055753650608,0.0008319313881813,,-1.2190266800507787,,
,5819.0,824.0,7164.0,1251.0,-54.0,1441.0,3708.0,,,,-0.0306179709039793,-2.29004385158006,0.0013600260607437,,-1.3157445722102035,,
,5823.0,824.0,7168.0,1253.0,-50.0,1450.0,3701.0,,,,-0.0306546370130337,-2.28970879238965,0.000726859684113,,-1.3899455549780946,,
,5820.0,823.0,7166.0,1251.0,-49.0,1461.0,3678.0,,,,-0.0306873260687421,-2.29024265973507,0.00084319714428,,-1.445563190552594,,
,5819.0,823.0,7166.0,1252.0,-42.0,1460.0,3670.0,,,,-0.0306341363694813,-2.29008138125627,0.001307581639013,,-1.487189630214565,,
,5823.0,825.0,7171.0,1256.0,-51.0,1446.0,3692.0,,,,-0.0306861893478208,-2.28974397498372,0.0014994752402191,,-1.5196661644369875,,
,5823.0,823.0,7171.0,1254.0,-57.0,1440.0,3687.0,,,,-0.0307080207412742,-2.28976987849358,0.0015946325885748,,-1.5476348701671852,,
,5824.0,825.0,7174.0,1256.0,-47.0,1469.0,3689.0,,,,-0.0305250690579387,-2.28944667267951,0.0017607407238927,,-1.5750930359250055,,
,5823.0,824.0,7176.0,1258.0,-43.0,1464.0,3703.0,,,,-0.0305886143941257,-2.28950020138033,0.0014163954238435,,-1.6049941911972394,,
,5825.0,827.0,7176.0,1258.0,-48.0,1476.0,3690.0,,,,-0.0304513921749206,-2.28916001983864,0.0013394387912688,,-1.6389373071854132,,
,5824.0,825.0,7180.0,1257.0,-46.0,1472.0,3695.0,,,,-0.0304256235585804,-2.28928495869268,0.0016307637968722,,-1.676978914161813,,
,5830.0,825.0,7181.0,1257.0,-48.0,1462.0,3710.0,,,,-0.0306021060208203,-2.28876472931463,0.0019228208976627,,-1.717591665875309,,
,5827.0,823.0,7180.0,1256.0,-47.0,1477.0,3710.0,,,,-0.0306711556817988,-2.28902456287068,0.0017668922999509,,-1.7577779122034394,,
,5830.0,826.0,7187.0,1259.0,-45.0,1460.0,3687.0,,,,-0.030554545772286,-2.28934977793564,0.0010782848900048,,-1.793329425461539,,
,5831.0,826.0,7189.0,1260.0,-31.0,1438.0,3662.0,,,,-0.0306334573393897,-2.28967462303823,0.0016744728022877,,-1.8192067353230337,,
,5832.0,826.0,7188.0,1259.0,-39.0,1444.0,3663.0,,,,-0.0307741937277053,-2.28980766126034,0.0011596485959422,,-1.8299964957086337,,
,5834.0,825.0,7189.0,1258.0,-52.0,1451.0,3675.0,,,,-0.030862297927423,-2.29051821674633,0.0009147340003888,,-1.8203959476407754,,
,5834.0,824.0,7191.0,1259.0,-53.0,1454.0,3668.0,,,,-0.0309690129878384,-2.29170614846464,0.0003164674264465,,-1.785671807774543,,
,5832.0,825.0,7192.0,1261.0,-46.0,1460.0,3652.0,,,,-0.0310734277100326,-2.29235245455654,0.0001346010918263,,-1.7220467963902102,,
2025-07-23 16:43:52,5831.0,827.0,7195.0,1263.0,-45.0,1463.0,3649.0,,,2025/07/23 04:43:52 PM,-0.0312941243937448,-2.29373925944036,-0.0005486624599101,,-1.626978678802232,,
,5828.0,825.0,7194.0,1261.0,-51.0,1478.0,3685.0,,,,-0.0313740556727286,-2.29374715386858,-0.0007013090433023,,-1.4993115784910147,,
,5829.0,825.0,7195.0,1259.0,-44.0,1480.0,3686.0,,,,-0.0315177993061902,-2.29420576405449,-0.0010919209986562,,-1.3392953085399664,,
,5828.0,825.0,7194.0,1260.0,-49.0,1487.0,3694.0,,,,-0.0314791575421278,-2.29449844952554,-0.0012436391083657,,-1.1484841028977755,,
,5825.0,825.0,7185.0,1260.0,-52.0,1487.0,3677.0,,,,-0.0317629448039846,-2.29496047602922,-0.00108446806603,,-0.9295400767892493,,
,5819.0,823.0,7180.0,1255.0,-46.0,1482.0,3676.0,,,,-0.0317884848972449,-2.29528533693489,-0.001485251754802,,-0.6859773734454822,,
,5817.0,821.0,7174.0,1255.0,-47.0,1458.0,3672.0,,,,-0.031763924775042,-2.2951154198215,-0.0013098177122818,,-0.4218885502619918,,
,5819.0,824.0,7173.0,1254.0,-46.0,1447.0,3683.0,,,,-0.0315832296511358,-2.29477973609401,-0.0009847418795511,,-0.141694097212678,,
,5816.0,821.0,7166.0,1254.0,-49.0,1460.0,3683.0,,,,-0.0316405514383626,-2.29461604630927,-0.0014712488997012,,0.1500512844607415,,
,5810.0,823.0,7163.0,1251.0,-46.0,1451.0,3687.0,,,,-0.0315828071792031,-2.29431357702171,-0.0011454609892012,,0.4487751951248009,,
,5807.0,819.0,7158.0,1248.0,-47.0,1462.0,3670.0,,,,-0.0314927204346626,-2.29460418740388,-0.001207902718535,,0.7499235320151989,,
,5807.0,820.0,7158.0,1251.0,-55.0,1472.0,3679.0,,,,-0.031429500343215,-2.2942702358821,-0.0004419483817859,,1.0489303778106234,,
,5803.0,820.0,7157.0,1249.0,-54.0,1473.0,3686.0,,,,-0.031364538937657,-2.2941662065246,-0.000572967441164,,1.3411503295613414,,
,5802.0,819.0,7155.0,1249.0,-48.0,1459.0,3682.0,,,,-0.0313491516660593,-2.29379181785187,-0.0010679020339171,,1.6217890155244499,,
,5800.0,818.0,7154.0,1248.0,-47.0,1452.0,3690.0,,,,-0.0314951314586504,-2.29345419466448,-0.0009877358993776,,1.8858667295564833,,
,5799.0,821.0,7151.0,1245.0,-41.0,1467.0,3689.0,,,,-0.0313470548641925,-2.29341779271578,-0.0005204399102563,,2.128242563126671,,
,5801.0,819.0,7153.0,1247.0,-48.0,1469.0,3689.0,,,,-0.0312912222236694,-2.29357148283234,-0.000660482149924,,2.343714635751096,,
,5799.0,820.0,7151.0,1245.0,-46.0,1468.0,3700.0,,,,-0.03124791884083,-2.29329438148716,-0.0004695313276687,,2.527198407654374,,
,5798.0,817.0,7147.0,1243.0,-42.0,1454.0,3696.0,,,,-0.0312615513925273,-2.29319091634413,-0.0005856904829714,,2.6739713357560957,,
,5798.0,818.0,7148.0,1247.0,-45.0,1472.0,3688.0,,,,-0.0312335030671368,-2.29336976447624,-0.0004130536277368,,2.779959699970641,,
,5796.0,819.0,7148.0,1245.0,-43.0,1454.0,3687.0,,,,-0.031216338586615,-2.29283106750997,-0.000164987715699,,2.8420338082770087,,
,5796.0,819.0,7149.0,1243.0,-40.0,1454.0,3694.0,,,,-0.0311751219911537,-2.29281836407862,6.42707963635628e-05,,2.858272625667113,,
,5797.0,818.0,7147.0,1245.0,-42.0,1474.0,3683.0,,,,-0.0312411364526645,-2.29294443207539,0.0001967972599599,,2.8281595356043843,,
,5793.0,815.0,7146.0,1240.0,-35.0,1472.0,3683.0,,,,-0.0313307882647849,-2.29275380365711,0.0001874722148305,,2.7526781744190156,,
,5792.0,819.0,7148.0,1247.0,-56.0,1468.0,3693.0,,,,-0.0312032425725303,-2.2925482291751,-0.0002861709520733,,2.6342907924393124,,
,5794.0,817.0,7146.0,1244.0,-53.0,1459.0,3709.0,,,,-0.0311110492534148,-2.29223947701206,-0.0005487363428874,,2.476799488910503,,
,5798.0,820.0,7148.0,1246.0,-56.0,1447.0,3700.0,,,,-0.0311437563210241,-2.29212857756249,3.10127729167577e-05,,2.285109149895654,,
,5795.0,816.0,7146.0,1244.0,-60.0,1442.0,3687.0,,,,-0.031004473116514,-2.2922478120935,-0.000118077991717,,2.064925238996316,,
,5792.0,820.0,7146.0,1245.0,-53.0,1454.0,3690.0,,,,-0.0310137308639185,-2.29236275152404,0.0001100919716831,,1.8224261257558847,,
,5794.0,823.0,7148.0,1247.0,-53.0,1451.0,3708.0,,,,-0.0310459430670608,-2.29189775711647,0.0002182625040012,,1.5639476511422459,,
,5796.0,819.0,7148.0,1247.0,-45.0,1457.0,3698.0,,,,-0.030937790524128,-2.2915490666112,0.0005701966516986,,1.2957092269451052,,
,5796.0,817.0,7144.0,1245.0,-49.0,1460.0,3686.0,,,,-0.0309159520204073,-2.29129553582876,0.000819999824074,,1.0235991977567247,,
,5796.0,817.0,7146.0,1245.0,-46.0,1444.0,3674.0,,,,-0.0309450143059432,-2.29135692775755,0.0005390800156109,,0.7530251522413213,,
,5797.0,817.0,7146.0,1246.0,-45.0,1462.0,3681.0,,,,-0.0308878671079844,-2.29103323876136,0.0004626691730431,,0.48882400862959546,,
,5798.0,820.0,7148.0,1247.0,-49.0,1459.0,3670.0,,,,-0.0309191688872749,-2.29130815397121,0.0007281321503714,,0.23521814306394262,,
,5796.0,819.0,7147.0,1245.0,-60.0,1464.0,3670.0,,,,-0.0308954967704301,-2.29115780277272,0.0006653671084586,,-0.004201355580720762,,
,5797.0,818.0,7146.0,1245.0,-46.0,1475.0,3681.0,,,,-0.03092107996052,-2.29166812663695,0.000601753424981,,-0.22648412835699772,,
,5796.0,819.0,7146.0,1245.0,-52.0,1465.0,3688.0,,,,-0.0309335287666267,-2.29174333122119,0.0001980460223608,,-0.42933878694238775,,
,5798.0,820.0,7148.0,1246.0,-56.0,1460.0,3677.0,,,,-0.0309178298608108,-2.29135820942838,0.0004901437458927,,-0.6111681909273078,,
,5798.0,820.0,7147.0,1247.0,-55.0,1451.0,3686.0,,,,-0.0310439913720231,-2.29145461904875,0.0002956066619609,,-0.7711195008104201,,
,5797.0,820.0,7148.0,1246.0,-41.0,1455.0,3685.0,,,,-0.0309300760730997,-2.29145457305384,0.0002883227869919,,-0.9091361225417354,,
,5799.0,819.0,7150.0,1251.0,-46.0,1458.0,3689.0,,,,-0.0309453071117764,-2.2911952666115,0.0010317075161925,,-1.025990952725459,,
,5800.0,821.0,7150.0,1247.0,-47.0,1467.0,3674.0,,,,-0.0309688945227433,-2.29142309204512,0.0004473203833532,,-1.1232779951214256,,
,5800.0,821.0,7152.0,1248.0,-51.0,1471.0,3684.0,,,,-0.0309883101436783,-2.29107260754553,0.0007312456841266,,-1.20334317393583,,
,5798.0,818.0,7152.0,1247.0,-56.0,1473.0,3701.0,,,,-0.0308655439657169,-2.29163158677206,0.0010984804110569,,-1.2691437805797507,,
,5797.0,819.0,7151.0,1249.0,-60.0,1467.0,3671.0,,,,-0.0308279788176072,-2.2912795137504,0.0010179140555506,,-1.324037106925947,,
,5799.0,820.0,7152.0,1249.0,-57.0,1451.0,3686.0,,,,-0.0308945816492835,-2.29119543681458,0.0013636616117644,,-1.371510131644794,,
,5802.0,820.0,7153.0,1249.0,-55.0,1462.0,3689.0,,,,-0.0308718245019406,-2.29061106635132,0.0009938657771077,,-1.4148720080178148,,
,5799.0,818.0,7154.0,1246.0,-61.0,1475.0,3683.0,,,,-0.0308618549507561,-2.29054480798596,0.0010063813980869,,-1.4569385372514607,,
,5798.0,819.0,7154.0,1249.0,-51.0,1468.0,3684.0,,,,-0.0306731760330745,-2.29044894108344,0.0016013767350255,,-1.4997420323524073,,
,5802.0,822.0,7156.0,1252.0,-54.0,1475.0,3665.0,,,,-0.0307283607212918,-2.28989443210656,0.0012472336586448,,-1.5443002764918228,,
,5800.0,823.0,7156.0,1248.0,-52.0,1470.0,3667.0,,,,-0.0307415417024095,-2.28994013218219,0.0013974677508213,,-1.5904741362976542,,
,5798.0,821.0,7159.0,1249.0,-45.0,1463.0,3694.0,,,,-0.0307398341743027,-2.28954487597947,0.002201960073349,,-1.6369347250273085,,
,5801.0,818.0,7157.0,1247.0,-51.0,1473.0,3674.0,,,,-0.0306451087958092,-2.28960851072625,0.0014075679106925,,-1.6812484320164454,,
,5801.0,819.0,7157.0,1248.0,-52.0,1467.0,3679.0,,,,-0.0307178931198557,-2.28911822468954,0.0023098181826396,,-1.7200731602152952,,
,5801.0,820.0,7160.0,1250.0,-37.0,1474.0,3695.0,,,,-0.0305211406484996,-2.28957828512948,0.0022070481131888,,-1.7494442170766993,,
,5801.0,823.0,7161.0,1252.0,-35.0,1471.0,3706.0,,,,-0.0304636611945824,-2.28923151221709,0.0024875223808759,,-1.7651164899585883,,
,5803.0,822.0,7161.0,1251.0,-48.0,1472.0,3705.0,,,,-0.0303502439924924,-2.28879661216678,0.0021730332675784,,-1.7629233375216267,,
,5804.0,822.0,7164.0,1252.0,-50.0,1469.0,3702.0,,,,-0.0303484347792513,-2.2883574085026,0.0024264531223433,,-1.7391130284225294,,
,5808.0,823.0,7163.0,1252.0,-49.0,1467.0,3693.0,,,,-0.0303393857706267,-2.28876552058554,0.0025742610404463,,-1.6906296557828577,,
,5804.0,823.0,7165.0,1252.0,-50.0,1460.0,3687.0,,,,-0.0303500286261204,-2.28865368391067,0.002788306136693,,-1.615315171922647,,
,5804.0,821.0,7166.0,1252.0,-48.0,1459.0,3701.0,,,,-0.0302419742516227,-2.28820274114051,0.002756464926229,,-1.5120204912173694,,
,5807.0,819.0,7166.0,1251.0,-48.0,1459.0,3685.0,,,,-0.0302788760400979,-2.28846975878839,0.002605841934212,,-1.3806252498074538,,
,5808.0,821.0,7170.0,1254.0,-50.0,1467.0,3692.0,,,,-0.0302634580184196,-2.28801195217051,0.0025919687352026,,-1.2219770583040204,,
,5808.0,823.0,7170.0,1254.0,-52.0,1476.0,3684.0,,,,-0.0302341075653565,-2.28802186276759,0.0027063663648467,,-1.0377710130873175,,
,5807.0,822.0,7171.0,1255.0,-50.0,1460.0,3691.0,,,,-0.0302102788750598,-2.28780477355975,0.0028878785111987,,-0.830397432586096,,
,5808.0,823.0,7171.0,1253.0,-59.0,1454.0,3689.0,,,,-0.0301515567112512,-2.28774600825038,0.0030168228853584,,-0.6027886738158624,,
,5810.0,821.0,7174.0,1255.0,-41.0,1462.0,3693.0,,,,-0.0302638387850054,-2.28765709326934,0.0028495405614126,,-0.3582932601179414,,
,5811.0,826.0,7175.0,1257.0,-51.0,1455.0,3715.0,,,,-0.0304155854176803,-2.28783348441472,0.002939342739369,,-0.10059714305655479,,
,5811.0,824.0,7179.0,1257.0,-49.0,1456.0,3717.0,,,,-0.0303129690256128,-2.28774631508718,0.0027843695835308,,0.1663011410945656,,
,5810.0,821.0,7177.0,1255.0,-39.0,1478.0,3708.0,,,,-0.0302510002730061,-2.28756385409539,0.0031596365013577,,0.43806969963210013,,
,5814.0,827.0,7181.0,1257.0,-44.0,1471.0,3679.0,,,,-0.0302828577502203,-2.2879631348662,0.0031294267851465,,0.7099984985717901,,
,5815.0,825.0,7182.0,1258.0,-44.0,1465.0,3685.0,,,,-0.0303134927165707,-2.28765399729083,0.003163484634295,,0.9769603262565004,,
,5816.0,826.0,7184.0,1257.0,-42.0,1459.0,3681.0,,,,-0.0302606758835739,-2.28755337149975,0.0030310579968817,,1.2334084751055001,,
,5818.0,823.0,7185.0,1257.0,-47.0,1447.0,3688.0,,,,-0.0301691524669741,-2.28744821358385,0.0029410449868557,,1.4734368209250555,,
,5816.0,826.0,7186.0,1257.0,-46.0,1455.0,3693.0,,,,-0.0301250735393718,-2.28758960242782,0.0028167270137951,,1.6909182064299113,,
,5820.0,824.0,7188.0,1260.0,-48.0,1448.0,3690.0,,,,-0.0300957340808955,-2.28747871250627,0.0033746422442676,,1.8797250330423974,,
,5821.0,827.0,7193.0,1261.0,-44.0,1458.0,3681.0,,,,-0.0300602835240099,-2.28711338701051,0.0031435282065351,,2.034023307246123,,
,5823.0,827.0,7193.0,1262.0,-37.0,1475.0,3667.0,,,,-0.0301078750617743,-2.28675747567282,0.0031137406640399,,2.148619033891746,,
,5822.0,824.0,7191.0,1258.0,-38.0,1473.0,3668.0,,,,-0.0300440759187576,-2.28682176482071,0.0035055859211475,,2.219324813223377,,
,5823.0,830.0,7198.0,1263.0,-48.0,1461.0,3663.0,,,,-0.0299434637205116,-2.28687530990237,0.0036031647032516,,2.2433062638439836,,
,5824.0,826.0,7198.0,1262.0,-45.0,1456.0,3663.0,,,,-0.0299618213753973,-2.28674592763957,0.0034817404030664,,2.2193642086058474,,
,5825.0,828.0,7200.0,1263.0,-48.0,1455.0,3693.0,,,,-0.0299208805800248,-2.28660542169855,0.0035550436646051,,2.1481109813414636,,
,5827.0,826.0,7203.0,1262.0,-58.0,1463.0,3701.0,,,,-0.030017015723304,-2.28675132218717,0.0036942812618431,,2.032008690203566,,
,5828.0,828.0,7203.0,1264.0,-48.0,1458.0,3688.0,,,,-0.029883568865714,-2.2863828042792,0.0037553288417641,,1.875253620914083,,
,5828.0,831.0,7205.0,1265.0,-53.0,1460.0,3696.0,,,,-0.0299514700153125,-2.28610356891768,0.0035185215764811,,1.683512152266785,,
,5828.0,827.0,7207.0,1265.0,-48.0,1455.0,3679.0,,,,-0.0299614406265022,-2.28594815636832,0.0035077105147588,,1.4635354612048457,,
,5830.0,828.0,7208.0,1263.0,-53.0,1464.0,3677.0,,,,-0.0300961878986998,-2.28680346145059,0.0034411403902706,,1.2226977065309448,,
,5832.0,827.0,7211.0,1265.0,-56.0,1463.0,3669.0,,,,-0.0301719182430615,-2.28687604819184,0.0028944439325302,,0.9685111591440587,,
,5832.0,826.0,7212.0,1266.0,-50.0,1469.0,3675.0,,,,-0.0304414439354356,-2.28782634493686,0.0026106353910437,,0.7081707098616596,,
,5832.0,830.0,7214.0,1269.0,-48.0,1467.0,3676.0,,,,-0.0305251585470008,-2.2884820044845,0.0026211535116756,,0.4481712576501511,,
,5835.0,827.0,7216.0,1268.0,-39.0,1460.0,3687.0,,,,-0.0305320656715474,-2.28896656835698,0.0019593938461965,,0.19402809823956757,,
,5835.0,832.0,7220.0,1268.0,-40.0,1442.0,3690.0,,,,-0.0306774233654807,-2.2894841178158,0.0018080963006754,,-0.0498843270135736,,
,5837.0,829.0,7224.0,1270.0,-46.0,1447.0,3704.0,,,,-0.0307330266300706,-2.29019378810116,0.0013313231652015,,-0.28037418420944615,,
,5840.0,830.0,7225.0,1270.0,-48.0,1451.0,3702.0,,,,-0.0307973947864565,-2.29064820962712,0.0011434211158987,,-0.4953659772725025,,
,5840.0,833.0,7225.0,1271.0,-38.0,1440.0,3705.0,,,,-0.0309753017858635,-2.29142953808637,0.0008824268904093,,-0.6937479106146418,,
,5838.0,829.0,7224.0,1269.0,-45.0,1447.0,3682.0,,,,-0.0309936677420006,-2.29163769159781,0.000396963786464,,-0.8751614928857903,,
,5836.0,830.0,7227.0,1271.0,-43.0,1464.0,3694.0,,,,-0.0310466470985101,-2.29182865113066,0.0002599064974158,,-1.0397650997351073,,
,5836.0,831.0,7230.0,1271.0,-47.0,1483.0,3697.0,,,,-0.0310549473175923,-2.29181525068238,0.0005586146384484,,-1.1880021746658238,,
,5836.0,831.0,7234.0,1273.0,-45.0,1482.0,3685.0,,,,-0.0311033194656782,-2.29192567781702,0.0005828374313204,,-1.320399627051614,,
,5834.0,829.0,7228.0,1270.0,-39.0,1480.0,3680.0,,,,-0.0312180397763348,-2.29150459611247,0.0007174773126042,,-1.4374133824357498,,
,5832.0,829.0,7226.0,1269.0,-47.0,1476.0,3690.0,,,,-0.0311177369262409,-2.29112753053485,0.0009598084390594,,-1.5393273747787155,,
,5829.0,830.0,7223.0,1269.0,-46.0,1462.0,3695.0,,,,-0.0309638566437112,-2.29137683049496,0.000973868878388,,-1.6262018615353668,,
,5829.0,829.0,7218.0,1267.0,-45.0,1462.0,3673.0,,,,-0.0308825818735957,-2.29102634927397,0.0011948409955204,,-1.6978594239134712,,
,5824.0,825.0,7213.0,1265.0,-38.0,1467.0,3701.0,,,,-0.0308413976471666,-2.29114239398176,0.0006373143282603,,-1.753894186654516,,
,5822.0,828.0,7210.0,1266.0,-24.0,1477.0,3713.0,,,,-0.0308455945376834,-2.2910313792252,0.0006480958145706,,-1.793691666148655,,
,5821.0,828.0,7206.0,1262.0,-36.0,1471.0,3697.0,,,,-0.030928794576646,-2.29101942390687,0.000864762477801,,-1.816451523992436,,
,5816.0,828.0,7207.0,1262.0,-45.0,1472.0,3681.0,,,,-0.0309808126664277,-2.29096241306122,0.0013856161852678,,-1.8212110367065835,,
,5815.0,829.0,7206.0,1261.0,-47.0,1458.0,3702.0,,,,-0.0309633743335857,-2.29049194163569,0.0008848184504841,,-1.8068715658165266,,
,5811.0,827.0,7200.0,1260.0,-53.0,1470.0,3692.0,,,,-0.0307677250523625,-2.29035661503132,0.0011597705821024,,-1.7722330411551472,,
,5811.0,827.0,7200.0,1261.0,-49.0,1461.0,3687.0,,,,-0.0307999852715634,-2.29063848177302,0.0012911588371962,,-1.7160424283866433,,
,5810.0,827.0,7200.0,1261.0,-47.0,1462.0,3690.0,,,,-0.0308179078919794,-2.29057592974197,0.0013314283665118,,-1.6370614609464593,,
,5807.0,827.0,7199.0,1259.0,-37.0,1466.0,3707.0,,,,-0.0310086433724134,-2.29036239633665,0.0009598549083284,,-1.5341567525538027,,
,5808.0,825.0,7197.0,1257.0,-51.0,1461.0,3702.0,,,,-0.0309274169874005,-2.29022964560836,0.0012307930620884,,-1.4064121857961371,,
,5809.0,826.0,7200.0,1258.0,-47.0,1467.0,3684.0,,,,-0.0308113719746468,-2.29000509088274,0.0011515029298083,,-1.2532598380028652,,
,5809.0,827.0,7200.0,1259.0,-59.0,1452.0,3694.0,,,,-0.0307518786778473,-2.29015849646427,0.0013687176845684,,-1.07462219964969,,
,5808.0,828.0,7199.0,1259.0,-61.0,1451.0,3681.0,,,,-0.0307044881681064,-2.29030420505831,0.0009233734497576,,-0.8710552636843467,,
,5803.0,827.0,7198.0,1258.0,-62.0,1462.0,3679.0,,,,-0.0307302253258977,-2.29009947906658,0.0014025771602666,,-0.6438792857726301,,
,5808.0,825.0,7195.0,1258.0,-45.0,1469.0,3699.0,,,,-0.0306279680872563,-2.29022567528954,0.0009019062713928,,-0.39528206404776994,,
,5808.0,828.0,7201.0,1257.0,-31.0,1466.0,3704.0,,,,-0.0307727723685368,-2.29012149656881,0.0013751644385995,,-0.12837942993328016,,
,5803.0,827.0,7198.0,1259.0,-36.0,1463.0,3692.0,,,,-0.0306524794957814,-2.29019398660785,0.001686139444092,,0.15277977310236246,,
,5803.0,826.0,7199.0,1257.0,-53.0,1460.0,3688.0,,,,-0.0305835263849898,-2.29000272454613,0.0015728484662114,,0.4432716281649642,,
,5804.0,828.0,7199.0,1256.0,-51.0,1467.0,3678.0,,,,-0.0306561969966541,-2.28978455936975,0.0016433394911347,,0.737418650629217,,
,5805.0,826.0,7201.0,1259.0,-50.0,1459.0,3675.0,,,,-0.0306256341308611,-2.29028322485216,0.0014846536897315,,1.0289691301285482,,
,5806.0,828.0,7198.0,1258.0,-54.0,1457.0,3667.0,,,,-0.030637174051354,-2.28930869664,0.001830298824786,,1.311323729264915,,
,5806.0,828.0,7200.0,1258.0,-34.0,1467.0,3684.0,,,,-0.0307103816373575,-2.28952204393811,0.0017129908976714,,1.5777954407039874,,
,5805.0,828.0,7198.0,1258.0,-41.0,1467.0,3700.0,,,,-0.0307019172380872,-2.28964383816733,0.0020739838465105,,1.8218865903374457,,
,5808.0,826.0,7202.0,1258.0,-43.0,1476.0,3682.0,,,,-0.0306405739097784,-2.289593435981,0.0013195977564875,,2.037564737996699,,
2025-07-23 16:43:53,5805.0,826.0,7202.0,1257.0,-45.0,1481.0,3691.0,,,2025/07/23 04:43:53 PM,-0.0306902600285455,-2.29006192664438,0.0016148695275915,,2.2195183853115688,,
,5808.0,830.0,7202.0,1259.0,-49.0,1473.0,3697.0,,,,-0.0306793688681992,-2.28999814100315,0.001744253539312,,2.363373912995925,,
,5805.0,828.0,7203.0,1258.0,-48.0,1468.0,3700.0,,,,-0.0307336391388974,-2.29077665414298,0.0012354663848499,,2.4658575260026914,,
,5809.0,829.0,7203.0,1260.0,-48.0,1484.0,3674.0,,,,-0.0307347197845769,-2.29068191213256,0.0011252022139229,,2.524890438408992,,
,5810.0,827.0,7206.0,1260.0,-45.0,1483.0,3685.0,,,,-0.0308177385484134,-2.29070856664196,0.0010169295835149,,2.539612258015197,,
,5812.0,828.0,7206.0,1261.0,-49.0,1479.0,3666.0,,,,-0.0307975860757551,-2.2909075203894,0.0013574691000306,,2.510336201435227,,
,5809.0,828.0,7206.0,1258.0,-63.0,1456.0,3681.0,,,,-0.0308184972722578,-2.29047745807664,0.001185998027557,,2.4384489241720706,,
,5810.0,829.0,7211.0,1260.0,-58.0,1469.0,3696.0,,,,-0.0308123806420492,-2.29077603184539,0.0006488327577595,,2.326274854700186,,
,5810.0,828.0,7208.0,1258.0,-52.0,1451.0,3694.0,,,,-0.0308015084746243,-2.290754781063,0.0018206441957075,,2.1769274981461355,,
,5815.0,831.0,7214.0,1260.0,-58.0,1453.0,3681.0,,,,-0.0307750225178519,-2.29078568530319,0.0018018273806328,,1.994167314167026,,
,5809.0,828.0,7212.0,1262.0,-55.0,1454.0,3679.0,,,,-0.0308109143893796,-2.29056747927349,0.0013112430816778,,1.7822787598141587,,
,5811.0,829.0,7212.0,1259.0,-57.0,1460.0,3698.0,,,,-0.0307716646693828,-2.29053236885991,0.0013995177041269,,1.545970540959934,,
,5811.0,831.0,7213.0,1259.0,-48.0,1463.0,3719.0,,,,-0.0308104279235841,-2.29038704101582,0.0012095854338128,,1.2902954226341992,,
,5813.0,832.0,7216.0,1262.0,-55.0,1461.0,3714.0,,,,-0.0307019905096439,-2.28990403567201,0.001555629357093,,1.0205803178440374,,
,5811.0,830.0,7218.0,1261.0,-57.0,1444.0,3687.0,,,,-0.0307358998214793,-2.28963939282615,0.0018602908814804,,0.7423540491264499,,
,5808.0,830.0,7215.0,1260.0,-45.0,1465.0,3684.0,,,,-0.0306947015748577,-2.28985259198346,0.0013641157187938,,0.46125918349410955,,
,5812.0,832.0,7218.0,1262.0,-52.0,1472.0,3681.0,,,,-0.0305913966046414,-2.28976028778597,0.0017838172098291,,0.1829358519047615,,
,5808.0,830.0,7220.0,1261.0,-50.0,1467.0,3680.0,,,,-0.0305704575834834,-2.28948366655743,0.0021392168998488,,-0.08713040424943048,,
,5811.0,831.0,7221.0,1264.0,-46.0,1468.0,3677.0,,,,-0.030510341471964,-2.28911456706983,0.0022594902059967,,-0.343798174065829,,
,5814.0,830.0,7218.0,1260.0,-44.0,1468.0,3682.0,,,,-0.0304683491048657,-2.28934489992815,0.0018682319373918,,-0.5824901399807966,,
,5810.0,831.0,7223.0,1263.0,-49.0,1467.0,3690.0,,,,-0.0304282042219267,-2.28921610699896,0.0021820054160066,,-0.7994272353088888,,
,5812.0,830.0,7224.0,1263.0,-40.0,1462.0,3673.0,,,,-0.0303886859520086,-2.2888864826498,0.002884327644315,,-0.9918521438873854,,
,5811.0,832.0,7224.0,1263.0,-38.0,1469.0,3679.0,,,,-0.0303125565155054,-2.28846135172837,0.0020477109520091,,-1.1582114481634391,,
,5813.0,830.0,7225.0,1265.0,-42.0,1469.0,3695.0,,,,-0.0304134841085342,-2.2886855695907,0.0025169850324178,,-1.2982649076260213,,
,5816.0,829.0,7228.0,1262.0,-46.0,1467.0,3685.0,,,,-0.0302291089181423,-2.28861593446538,0.0023560050617159,,-1.4130957467637715,,
,5816.0,832.0,7231.0,1264.0,-36.0,1474.0,3675.0,,,,-0.0302387969723215,-2.28856406035085,0.0025836960267541,,-1.5050067689895918,,
,5814.0,832.0,7228.0,1266.0,-41.0,1474.0,3676.0,,,,-0.030315814263389,-2.28835023337426,0.0029000512154743,,-1.5773012325693692,,
,5814.0,834.0,7230.0,1264.0,-49.0,1470.0,3682.0,,,,-0.0302232269403728,-2.28850444296137,0.0026776600729634,,-1.6339618674603564,,
,5815.0,831.0,7232.0,1264.0,-45.0,1454.0,3685.0,,,,-0.0302803011392285,-2.28819822769357,0.0027618407432249,,-1.6792539983584829,,
,5816.0,833.0,7235.0,1264.0,-47.0,1481.0,3685.0,,,,-0.0302613635803552,-2.28841913089223,0.0023933969225859,,-1.717288326458766,,
,5817.0,834.0,7238.0,1265.0,-46.0,1486.0,3688.0,,,,-0.0302948293783631,-2.28845708041596,0.0031739725523216,,-1.7515849813099829,,
,5816.0,831.0,7238.0,1266.0,-48.0,1470.0,3681.0,,,,-0.0302903948325309,-2.28839055882611,0.0022158935073893,,-1.7846825547919984,,
,5817.0,831.0,7239.0,1265.0,-40.0,1456.0,3690.0,,,,-0.0302403253849708,-2.28835326992048,0.0023278637005953,,-1.8178335682243119,,
,5820.0,832.0,7241.0,1266.0,-44.0,1453.0,3685.0,,,,-0.0302890923869938,-2.28828007858735,0.0027356871641998,,-1.8508210972731136,,
,5820.0,834.0,7243.0,1266.0,-44.0,1462.0,3694.0,,,,-0.0303066072100813,-2.28807929049792,0.0028854574247871,,-1.8819204750353584,,
,5821.0,835.0,7242.0,1269.0,-43.0,1467.0,3691.0,,,,-0.0302488491895734,-2.28865386264942,0.002711745204339,,-1.908015913734944,,
,5822.0,833.0,7242.0,1263.0,-46.0,1474.0,3676.0,,,,-0.0303783116355932,-2.288254115865,0.0026836820387163,,-1.9248656170845952,,
,5823.0,832.0,7248.0,1269.0,-43.0,1472.0,3680.0,,,,-0.0304065652239241,-2.28779800728663,0.0029657653705787,,-1.9274919414500464,,
,5823.0,835.0,7250.0,1271.0,-41.0,1469.0,3674.0,,,,-0.0303488838289072,-2.28863799214933,0.0025614874416745,,-1.9106574055295094,,
,5826.0,835.0,7252.0,1270.0,-47.0,1470.0,3674.0,,,,-0.0303225873991385,-2.2880295127453,0.0027273285834541,,-1.8693754083808942,,
,5826.0,837.0,7254.0,1270.0,-46.0,1471.0,3675.0,,,,-0.0302597284965792,-2.28847104536679,0.0028339428316526,,-1.7993990335824632,,
,5826.0,835.0,7255.0,1270.0,-51.0,1461.0,3673.0,,,,-0.0302789890783834,-2.28783538392361,0.0026049218012156,,-1.6976340241673167,,
,5830.0,835.0,7257.0,1273.0,-43.0,1460.0,3676.0,,,,-0.0300446488149394,-2.2877050913543,0.0026858203147537,,-1.5624327580051542,,
,5829.0,836.0,7258.0,1271.0,-39.0,1464.0,3668.0,,,,-0.030033957574106,-2.28771564693822,0.0026991997270264,,-1.3937426870326393,,
,5832.0,836.0,7263.0,1275.0,-28.0,1463.0,3696.0,,,,-0.0300701752405194,-2.28744336576247,0.00298301803437,,-1.1931020545556243,,
,5830.0,835.0,7264.0,1271.0,-42.0,1467.0,3702.0,,,,-0.0300198844877066,-2.2877234442925,0.0030321399308491,,-0.9634947984694641,,
,5831.0,838.0,7264.0,1273.0,-48.0,1484.0,3692.0,,,,-0.0300560649195503,-2.28778043466613,0.0032274289737714,,-0.709093105931277,,
,5835.0,837.0,7269.0,1275.0,-47.0,1462.0,3679.0,,,,-0.0300123651618199,-2.28734934090874,0.0029380841577941,,-0.43492831558026873,,
,5836.0,838.0,7271.0,1275.0,-49.0,1461.0,3678.0,,,,-0.0299446654421463,-2.2875024574018,0.0028588629795002,,-0.1465372883568019,,
,5834.0,836.0,7268.0,1277.0,-40.0,1467.0,3671.0,,,,-0.029952752986651,-2.28704378043319,0.0033094330311483,,0.15036888604460355,,
,5837.0,837.0,7273.0,1275.0,-50.0,1461.0,3683.0,,,,-0.0299231003004742,-2.28747903656616,0.0034263318395201,,0.45017375444084157,,
,5842.0,838.0,7277.0,1276.0,-40.0,1474.0,3686.0,,,,-0.0299389206690881,-2.28741962510585,0.0030940176080857,,0.7475339802231227,,
,5839.0,838.0,7279.0,1277.0,-36.0,1477.0,3682.0,,,,-0.0299343643126356,-2.28728806232605,0.0029806126561974,,1.0374553460313496,,
,5840.0,839.0,7278.0,1279.0,-56.0,1463.0,3694.0,,,,-0.0299975380678765,-2.2874499616991,0.0032644721133552,,1.3152720486702485,,
,5839.0,840.0,7281.0,1276.0,-51.0,1465.0,3685.0,,,,-0.0300943026427811,-2.28771474642771,0.0028785484450204,,1.576552818019308,,
,5842.0,839.0,7284.0,1278.0,-48.0,1468.0,3701.0,,,,-0.03016590938045,-2.28804452513758,0.0027652961709886,,1.8169721299091735,,
,5843.0,839.0,7287.0,1279.0,-48.0,1469.0,3708.0,,,,-0.030313959061755,-2.28903719513362,0.0025058457939635,,2.032193020820605,,
,5842.0,839.0,7289.0,1278.0,-44.0,1456.0,3698.0,,,,-0.0304358404331869,-2.29010242233729,0.0016644964865005,,2.2178070475610427,,
,5844.0,839.0,7289.0,1276.0,-47.0,1460.0,3689.0,,,,-0.0306310169484403,-2.2907525053937,0.0008539730629259,,2.369366375091043,,
,5846.0,840.0,7293.0,1281.0,-38.0,1461.0,3693.0,,,,-0.0308020166588154,-2.29110045253405,0.0007767011370923,,2.4825251623841615,,
,5845.0,838.0,7295.0,1280.0,-57.0,1468.0,3681.0,,,,-0.0308066231523759,-2.2917496346962,0.0010802221435634,,2.5532863347588464,,
,5846.0,842.0,7298.0,1281.0,-61.0,1459.0,3688.0,,,,-0.0309237309925795,-2.29230672938825,0.0010351812391064,,2.5783294702263966,,
,5845.0,838.0,7295.0,1283.0,-51.0,1466.0,3695.0,,,,-0.0309658568270794,-2.29274708370301,-6.44100143154628e-05,,2.5553789304912815,,
,5844.0,842.0,7299.0,1281.0,-46.0,1466.0,3701.0,,,,-0.031032528521529,-2.29326182880222,-0.0003005488347756,,2.4835606743045737,,
,5846.0,841.0,7301.0,1281.0,-37.0,1464.0,3697.0,,,,-0.0311824542132323,-2.29377510261071,0.0003434232718322,,2.363692955109097,,
,5843.0,842.0,7298.0,1281.0,-41.0,1463.0,3704.0,,,,-0.0312140345549755,-2.29323138711108,-0.0001407026131027,,2.198461105050556,,
,5838.0,839.0,7295.0,1279.0,-49.0,1476.0,3704.0,,,,-0.0312297072024807,-2.29332800042357,-0.000339367976465,,1.9924392992680782,,
,5837.0,838.0,7293.0,1279.0,-48.0,1469.0,3680.0,,,,-0.0311651043838718,-2.29363317717987,-3.8858300208334e-05,,1.7519406136618427,,
,5837.0,839.0,7286.0,1279.0,-42.0,1457.0,3684.0,,,,-0.031142724425366,-2.29342500132798,0.0001039091550406,,1.4846980901814,,
,5834.0,839.0,7287.0,1279.0,-40.0,1463.0,3682.0,,,,-0.0310630531473053,-2.29288195873363,0.0002990860309556,,1.1994011326985294,,
,5831.0,835.0,7281.0,1275.0,-46.0,1472.0,3684.0,,,,-0.0311034242250013,-2.29238890029829,0.0003670026339771,,0.9051307910044931,,
,5828.0,837.0,7278.0,1272.0,-48.0,1475.0,3691.0,,,,-0.0310805388639242,-2.29302532762645,5.40542802324878e-05,,0.6107517542293255,,
,5826.0,838.0,7275.0,1272.0,-43.0,1468.0,3718.0,,,,-0.031096826800536,-2.29295561582385,5.28934385070981e-06,,0.3243256465917495,,
,5824.0,836.0,7274.0,1272.0,-45.0,1473.0,3713.0,,,,-0.0309864690359769,-2.29244160575663,4.46030249236232e-05,,0.052607895208735295,,
,5819.0,838.0,7272.0,1272.0,-55.0,1457.0,3679.0,,,,-0.0309597327151397,-2.29244125879294,0.0005150110984716,,-0.19932059494512472,,
,5821.0,835.0,7271.0,1271.0,-51.0,1468.0,3683.0,,,,-0.0309947474732621,-2.29259109799787,0.000173181735868,,-0.42825295551813497,,
,5821.0,838.0,7270.0,1272.0,-40.0,1467.0,3681.0,,,,-0.0310835831954104,-2.2923869454734,0.0003583375432234,,-0.6328729728177925,,
,5821.0,836.0,7271.0,1271.0,-51.0,1479.0,3665.0,,,,-0.0310833971729765,-2.29233687940691,7.04157623257741e-05,,-0.8135942984191155,,
,5817.0,835.0,7273.0,1271.0,-53.0,1477.0,3679.0,,,,-0.0310705523021905,-2.29209075982254,0.0002773180771992,,-0.9722451409202468,,
,5816.0,837.0,7269.0,1269.0,-54.0,1470.0,3660.0,,,,-0.0311301974774881,-2.29211647436777,0.0005562123512084,,-1.1116356266319731,,
,5815.0,835.0,7270.0,1269.0,-52.0,1478.0,3692.0,,,,-0.0310987381608234,-2.29193208164373,0.0003329912052236,,-1.2350555206381924,,
,5818.0,835.0,7271.0,1269.0,-46.0,1472.0,3697.0,,,,-0.0310759376416929,-2.29187493231035,8.96993391146199e-06,,-1.3457559303022173,,
,5819.0,836.0,7271.0,1271.0,-54.0,1470.0,3697.0,,,,-0.0310692139608149,-2.29213330708134,0.0006033635371344,,-1.4464693201621952,,
,5815.0,837.0,7267.0,1270.0,-60.0,1469.0,3676.0,,,,-0.0310048865653674,-2.2927546674424,0.0001565726292952,,-1.5390174113761141,,
,5815.0,836.0,7271.0,1268.0,-56.0,1465.0,3669.0,,,,-0.0311473562374609,-2.29222872012255,0.0001332725647308,,-1.6240465470176064,,
,5819.0,833.0,7270.0,1272.0,-55.0,1457.0,3671.0,,,,-0.0311108612723867,-2.29245694196641,0.0003221553986929,,-1.7009155570739127,,
,5816.0,836.0,7271.0,1269.0,-56.0,1465.0,3677.0,,,,-0.0310618874208889,-2.29188178992068,0.0007923205388376,,-1.7677433331340395,,
,5817.0,834.0,7271.0,1270.0,-48.0,1455.0,3681.0,,,,-0.0310151804097476,-2.29182173118608,0.0005947876797307,,-1.821604316846773,,
,5818.0,834.0,7270.0,1269.0,-47.0,1449.0,3713.0,,,,-0.0311274866664354,-2.29200637748511,0.0003173171490077,,-1.858842784078792,,
,5817.0,836.0,7273.0,1272.0,-44.0,1457.0,3718.0,,,,-0.0311274759707316,-2.29146125066021,0.0005633393813424,,-1.875464151486866,,
,5818.0,838.0,7271.0,1271.0,-44.0,1453.0,3698.0,,,,-0.0311486409140891,-2.29169004905997,0.0009626474243723,,-1.867555489060915,,
,5819.0,836.0,7273.0,1271.0,-54.0,1459.0,3694.0,,,,-0.0310849335256273,-2.29142796083815,0.0012201781179592,,-1.8316880912405218,,
,5817.0,833.0,7272.0,1270.0,-52.0,1476.0,3700.0,,,,-0.0309949746782926,-2.2911522304727,0.0011620205489496,,-1.7652609131610002,,
,5820.0,836.0,7277.0,1269.0,-42.0,1464.0,3695.0,,,,-0.0309774761935125,-2.29144616798773,0.0007451955112209,,-1.666753113256989,,
,5820.0,835.0,7277.0,1272.0,-54.0,1468.0,3678.0,,,,-0.0309144442333583,-2.29150129923127,0.0007370260123403,,-1.5358656328138482,,
,5821.0,836.0,7275.0,1272.0,-51.0,1469.0,3674.0,,,,-0.0309951141568441,-2.29186877149856,0.0002249854480351,,-1.3735450817752415,,
,5822.0,838.0,7277.0,1271.0,-54.0,1476.0,3690.0,,,,-0.030988938870192,-2.29208271254725,0.0009633773526638,,-1.1818974974049214,,
,5818.0,835.0,7276.0,1271.0,-47.0,1475.0,3694.0,,,,-0.0310434864940142,-2.29247587447131,0.0007807256024677,,-0.9640133756792229,,
,5821.0,837.0,7278.0,1271.0,-50.0,1474.0,3693.0,,,,-0.0311816033172155,-2.29233548018659,0.0005508893225383,,-0.7237366246481635,,
,5823.0,838.0,7280.0,1274.0,-52.0,1477.0,3684.0,,,,-0.0310837267924789,-2.29225111987064,0.0005810340374669,,-0.4654165615946353,,
,5823.0,839.0,7283.0,1273.0,-38.0,1468.0,3692.0,,,,-0.0311849105938911,-2.29280137253596,0.0005786796435523,,-0.19368220810707754,,
,5821.0,836.0,7279.0,1271.0,-38.0,1461.0,3691.0,,,,-0.0311728243873543,-2.2923424926968,0.0003675363789319,,0.08672861417370957,,
,5824.0,837.0,7283.0,1273.0,-49.0,1465.0,3703.0,,,,-0.0310267308264298,-2.29216036332634,0.0004664464836754,,0.37106590833986963,,
,5825.0,836.0,7282.0,1273.0,-49.0,1466.0,3692.0,,,,-0.0310263300866526,-2.29234251696972,0.0004387117890451,,0.6545877040563454,,
,5825.0,836.0,7283.0,1275.0,-47.0,1476.0,3688.0,,,,-0.0310726866513299,-2.29258954014048,0.0004809511774368,,0.9325198745797527,,
,5826.0,837.0,7285.0,1273.0,-47.0,1483.0,3696.0,,,,-0.0309868005056134,-2.29213808388225,0.0004427600952054,,1.1999862531087708,,
,5830.0,835.0,7286.0,1276.0,-49.0,1480.0,3698.0,,,,-0.0310100079390467,-2.29195720384158,0.0004325749739897,,1.4519471315626653,,
,5825.0,836.0,7287.0,1274.0,-55.0,1464.0,3689.0,,,,-0.031114470234522,-2.29222748252997,0.0004651231968267,,1.6831829379400967,,
,5827.0,839.0,7290.0,1274.0,-59.0,1462.0,3680.0,,,,-0.0310278408737536,-2.29162049828195,0.0007452678418676,,1.8883510887978288,,
,5826.0,837.0,7285.0,1271.0,-57.0,1460.0,3685.0,,,,-0.030998233376679,-2.29184122364698,0.0006195747290214,,2.062130421538573,,
,5829.0,836.0,7291.0,1274.0,-63.0,1447.0,3691.0,,,,-0.0309954561607721,-2.29180998587955,0.0002385424901177,,2.1994520212318167,,
,5826.0,837.0,7292.0,1275.0,-49.0,1448.0,3699.0,,,,-0.0309734356002408,-2.29166013834971,0.0003488803764369,,2.2957997633895535,,
,5828.0,837.0,7293.0,1276.0,-49.0,1457.0,3690.0,,,,-0.0309234014789379,-2.29130411610154,0.0012973587299659,,2.3475501284164366,,
,5828.0,838.0,7293.0,1276.0,-51.0,1460.0,3671.0,,,,-0.0309433893747744,-2.29171644785938,0.0012660168802963,,2.3523105230031933,,
,5830.0,838.0,7295.0,1277.0,-55.0,1461.0,3681.0,,,,-0.0309541351203196,-2.29102048331964,0.0013233717195463,,2.3092102902519023,,
,5827.0,839.0,7296.0,1277.0,-45.0,1460.0,3691.0,,,,-0.0309355815167153,-2.29119059904306,0.0010932308527561,,2.219100176251577,,
,5829.0,836.0,7299.0,1277.0,-42.0,1460.0,3688.0,,,,-0.0308580774352689,-2.29098102827692,0.0012375645578331,,2.0846246339182195,,
,5829.0,838.0,7297.0,1277.0,-56.0,1454.0,3698.0,,,,-0.030807535179432,-2.29105162043299,0.0007964402922946,,1.910146228714317,,
,5828.0,837.0,7299.0,1277.0,-54.0,1465.0,3701.0,,,,-0.0308689208617684,-2.29130313118714,0.0007045586964449,,1.7015207178013771,,
,5830.0,836.0,7301.0,1277.0,-59.0,1461.0,3711.0,,,,-0.0309316656621516,-2.29102079997857,0.0013118314700677,,1.465742191542468,,
,5834.0,840.0,7304.0,1279.0,-50.0,1465.0,3679.0,,,,-0.0309779565671833,-2.2911434673526,0.0007755751330049,,1.2104961838748014,,
,5834.0,839.0,7307.0,1280.0,-53.0,1463.0,3687.0,,,,-0.0308690957227788,-2.29111519811868,0.001051926810513,,0.9436709487795367,,
,5830.0,836.0,7305.0,1276.0,-55.0,1464.0,3692.0,,,,-0.030791653087507,-2.29150455470275,0.000737931092651,,0.6728805471070258,,
,5834.0,837.0,7305.0,1280.0,-49.0,1453.0,3677.0,,,,-0.0308329082016247,-2.29116954152233,0.000885886247799,,0.4050478884560241,,
,5835.0,839.0,7306.0,1281.0,-50.0,1459.0,3678.0,,,,-0.0310202235190445,-2.29148809053033,0.0007571953520937,,0.14608379337367638,,
,5837.0,837.0,7308.0,1280.0,-48.0,1469.0,3676.0,,,,-0.0309723298318204,-2.29090945752378,0.0007326591999058,,-0.09931700763781967,,
,5835.0,838.0,7310.0,1279.0,-46.0,1474.0,3690.0,,,,-0.0309196530303276,-2.29119158758185,0.001282270070159,,-0.3277571984311549,,
,5839.0,840.0,7314.0,1281.0,-43.0,1462.0,3666.0,,,,-0.030857713261466,-2.29114890273487,0.0009553084312991,,-0.5371032221670501,,
2025-07-23 16:43:54,5839.0,841.0,7314.0,1282.0,-45.0,1471.0,3704.0,,,2025/07/23 04:43:54 PM,-0.0308771578477208,-2.29093361617086,0.0005114253562179,,-0.7263552673982342,,
,5841.0,838.0,7317.0,1282.0,-38.0,1471.0,3698.0,,,,-0.0308509394664596,-2.29137416142316,0.0006683145506275,,-0.8954474515237214,,
,5842.0,838.0,7314.0,1281.0,-57.0,1455.0,3682.0,,,,-0.0308932658644952,-2.29106869568924,0.000668387429151,,-1.0450092129311939,,
,5845.0,838.0,7319.0,1282.0,-50.0,1468.0,3668.0,,,,-0.0309093029685492,-2.29125858588884,0.0006208099057666,,-1.1761195179180488,,
,5845.0,842.0,7321.0,1284.0,-47.0,1474.0,3673.0,,,,-0.0309985407430203,-2.29136728674974,0.0006974682371479,,-1.2900821638619948,,
,5844.0,841.0,7322.0,1284.0,-54.0,1460.0,3670.0,,,,-0.0309063374680203,-2.2914878073528,0.0011320390176705,,-1.388243545518985,,
,5846.0,841.0,7324.0,1284.0,-47.0,1457.0,3683.0,,,,-0.0309453117829685,-2.29154055747043,0.0006195146654053,,-1.471864511425713,,
,5846.0,838.0,7326.0,1284.0,-37.0,1452.0,3680.0,,,,-0.030931711601703,-2.29099613808427,0.0001140048975791,,-1.5420467536243812,,
,5847.0,843.0,7330.0,1287.0,-46.0,1472.0,3672.0,,,,-0.0308950468868212,-2.29120942592278,0.0005558354442864,,-1.599703692226337,,
,5850.0,842.0,7331.0,1288.0,-46.0,1471.0,3674.0,,,,-0.0308975423305669,-2.2909888098835,0.0005356907555237,,-1.6455585747882921,,
,5848.0,840.0,7334.0,1289.0,-47.0,1461.0,3672.0,,,,-0.0309418897058983,-2.2911747198696,0.000651175281373,,-1.6801503940006852,,
,5851.0,841.0,7334.0,1288.0,-55.0,1461.0,3688.0,,,,-0.0308421001021935,-2.29096815972883,0.0009765677056863,,-1.7038314391140945,,
,5851.0,842.0,7334.0,1287.0,-49.0,1473.0,3683.0,,,,-0.0307691809590443,-2.29124723051056,0.0010468007015447,,-1.7167472485935418,,
,5855.0,842.0,7338.0,1291.0,-53.0,1474.0,3690.0,,,,-0.0307866420346428,-2.29061242821985,0.0010975047024898,,-1.7187979737833645,,
,5853.0,841.0,7341.0,1289.0,-54.0,1467.0,3691.0,,,,-0.0307559628551698,-2.29061727102857,0.0011533152571483,,-1.7095876162071202,,
,5853.0,842.0,7337.0,1289.0,-53.0,1457.0,3694.0,,,,-0.0306896688181713,-2.29056367238739,0.0008287983626925,,-1.6883731631523455,,
,5853.0,841.0,7344.0,1290.0,-62.0,1453.0,3677.0,,,,-0.0306534145616854,-2.29020786191334,0.0016234970557675,,-1.6540289021439478,,
,5860.0,845.0,7347.0,1290.0,-61.0,1458.0,3682.0,,,,-0.030653981484575,-2.28975473977488,0.0010374991254192,,-1.6050418765759134,,
,5859.0,845.0,7347.0,1294.0,-64.0,1448.0,3678.0,,,,-0.030522803412452,-2.28978209996528,0.0013262358376992,,-1.539552365930044,,
,5859.0,841.0,7353.0,1294.0,-51.0,1457.0,3685.0,,,,-0.0305221361850191,-2.28936030060245,0.0018018948648678,,-1.4554486340549881,,
,5861.0,842.0,7350.0,1294.0,-57.0,1457.0,3670.0,,,,-0.03058613764714,-2.28975767852676,0.0015618127700091,,-1.3505186793691155,,
,5861.0,845.0,7356.0,1294.0,-52.0,1459.0,3693.0,,,,-0.0306304377361824,-2.29004558348529,0.0016405360717319,,-1.222654245776689,,
,5863.0,844.0,7358.0,1294.0,-48.0,1468.0,3697.0,,,,-0.0306562206690336,-2.28973298711307,0.0015631625169298,,-1.0700946944684369,,
,5863.0,843.0,7361.0,1295.0,-50.0,1458.0,3694.0,,,,-0.0308323291589568,-2.29057720613332,0.0011059962320158,,-0.8916911807627259,,
,5861.0,842.0,7358.0,1293.0,-48.0,1452.0,3696.0,,,,-0.030946133891543,-2.29132216805393,0.0006726987655913,,-0.6871658930617969,,
,5863.0,844.0,7363.0,1294.0,-55.0,1469.0,3684.0,,,,-0.0310161280171671,-2.29154358415971,0.0002951866118313,,-0.45733827627157425,,
,5863.0,846.0,7365.0,1296.0,-51.0,1479.0,3673.0,,,,-0.0312512121605692,-2.29252210943754,-6.93584295976158e-06,,-0.20429137828778268,,
,5862.0,844.0,7364.0,1295.0,-49.0,1474.0,3668.0,,,,-0.0313336011736545,-2.29420077551713,-0.0011763579117382,,0.06854319275821323,,
,5861.0,843.0,7366.0,1295.0,-54.0,1476.0,3681.0,,,,-0.0315205867058623,-2.29462501669446,-0.0009376079899655,,0.35639504787326154,,
,5861.0,844.0,7365.0,1296.0,-58.0,1480.0,3677.0,,,,-0.0316606448887443,-2.29528769831832,-0.001207737961709,,0.653263855753857,,
,5859.0,845.0,7363.0,1292.0,-64.0,1480.0,3689.0,,,,-0.0318469375708874,-2.29561958167526,-0.0015078711971822,,0.9521231147176765,,
,5856.0,843.0,7357.0,1294.0,-60.0,1470.0,3702.0,,,,-0.0319223247078,-2.29632737591525,-0.0017750819094561,,1.2452072465669237,,
,5853.0,841.0,7352.0,1290.0,-47.0,1458.0,3708.0,,,,-0.0319790167884913,-2.29659088851502,-0.0025911486564438,,1.5243636956632658,,
,5852.0,842.0,7349.0,1293.0,-49.0,1461.0,3686.0,,,,-0.0320697943063846,-2.29699519355924,-0.0023859997260422,,1.7814458778036648,,
,5850.0,843.0,7348.0,1291.0,-45.0,1462.0,3677.0,,,,-0.0321123105349164,-2.29714276106481,-0.0022490004283293,,2.0087185018666625,,
,5847.0,841.0,7344.0,1292.0,-51.0,1471.0,3671.0,,,,-0.0320879734490472,-2.29702997923971,-0.00267455377902,,2.199244831820249,,
,5842.0,837.0,7340.0,1286.0,-48.0,1485.0,3687.0,,,,-0.0321163776197282,-2.29749511375195,-0.0028396131357447,,2.3472264677677566,,
,5839.0,837.0,7339.0,1285.0,-45.0,1486.0,3693.0,,,,-0.0321060347192191,-2.29685383420572,-0.0021381284501721,,2.448270468149768,,
,5840.0,839.0,7341.0,1286.0,-55.0,1479.0,3687.0,,,,-0.0320951476704515,-2.29670423091466,-0.0023622015417902,,2.4995661224998913,,
,5837.0,841.0,7339.0,1287.0,-51.0,1477.0,3686.0,,,,-0.0320237096458207,-2.29645420917974,-0.0021498785956987,,2.499963905829061,,
,5839.0,838.0,7339.0,1285.0,-49.0,1466.0,3678.0,,,,-0.0320083746448409,-2.29638840510649,-0.0018665155775335,,2.449960520834855,,
,5835.0,835.0,7333.0,1280.0,-53.0,1458.0,3697.0,,,,-0.0320804461357746,-2.29637038467038,-0.0024701526053196,,2.3516038484805217,,
,5832.0,838.0,7337.0,1284.0,-53.0,1469.0,3692.0,,,,-0.0319988155787752,-2.29662994261367,-0.0022190825075376,,2.2083375771821188,,
,5830.0,838.0,7337.0,1282.0,-45.0,1461.0,3707.0,,,,-0.0319763986293808,-2.29652006754351,-0.0021077988985891,,2.024806297273442,,
,5834.0,838.0,7335.0,1283.0,-50.0,1455.0,3692.0,,,,-0.0319082878244644,-2.29650931959912,-0.0019721625478813,,1.8066389125457807,,
,5830.0,836.0,7335.0,1281.0,-45.0,1447.0,3687.0,,,,-0.0319993396298558,-2.29645930937349,-0.0019557050873362,,1.5602233657701465,,
,5830.0,835.0,7335.0,1283.0,-42.0,1449.0,3677.0,,,,-0.0318678492940328,-2.29611073995914,-0.0014129118484939,,1.2924806270711868,,
,5831.0,838.0,7338.0,1283.0,-48.0,1461.0,3699.0,,,,-0.0318102828053647,-2.29602903655356,-0.0021612271571671,,1.0106414368689423,,
,5829.0,837.0,7335.0,1282.0,-44.0,1467.0,3700.0,,,,-0.0318671277532411,-2.29589584392771,-0.001839701335213,,0.722025701359855,,
,5830.0,837.0,7335.0,1281.0,-50.0,1465.0,3692.0,,,,-0.0317328530310601,-2.29602808026534,-0.0020532283342149,,0.43382213178854634,,
,5828.0,838.0,7336.0,1282.0,-46.0,1473.0,3683.0,,,,-0.0317267853433459,-2.29620536686832,-0.0013608995719288,,0.1528652829924899,,
,5828.0,836.0,7341.0,1282.0,-53.0,1471.0,3692.0,,,,-0.0318954815898812,-2.29603073803131,-0.0015723579346945,,-0.11459109443647482,,
,5829.0,840.0,7340.0,1284.0,-56.0,1445.0,3701.0,,,,-0.031909807240673,-2.29589664046458,-0.0018472116296259,,-0.363101616251758,,
,5830.0,839.0,7339.0,1281.0,-47.0,1453.0,3693.0,,,,-0.0317946808889424,-2.2960070811724,-0.0015516544891784,,-0.5882494127017466,,
,5827.0,836.0,7336.0,1281.0,-39.0,1444.0,3708.0,,,,-0.0317575082744266,-2.29566565181187,-0.0017518625965227,,-0.7868440393880952,,
,5831.0,839.0,7343.0,1282.0,-52.0,1448.0,3693.0,,,,-0.0316946757903731,-2.29519362705153,-0.001471256836859,,-0.957076279337158,,
,5833.0,839.0,7341.0,1284.0,-47.0,1442.0,3684.0,,,,-0.0316835602656349,-2.29342307158877,-0.0013663330041828,,-1.0986054084242447,,
,5830.0,837.0,7343.0,1284.0,-42.0,1443.0,3685.0,,,,-0.0317355330558992,-2.29317887041271,-0.0014624295909924,,-1.2125555048599632,,
,5828.0,837.0,7340.0,1282.0,-44.0,1463.0,3689.0,,,,-0.0316284309421742,-2.29332747448211,-0.0014036181881858,,-1.301403944281779,,
,5831.0,840.0,7344.0,1282.0,-55.0,1472.0,3706.0,,,,-0.0316987724025192,-2.29548908541916,-0.0018525013941001,,-1.36875650385843,,
,5832.0,839.0,7343.0,1286.0,-52.0,1471.0,3691.0,,,,-0.0316058504866401,-2.29498479389196,-0.0013352358365709,,-1.4190171932567497,,
,5829.0,835.0,7342.0,1284.0,-50.0,1472.0,3683.0,,,,-0.0316746358443951,-2.2952704795149,-0.0017123087143789,,-1.4569743880458461,,
,5832.0,836.0,7344.0,1282.0,-56.0,1469.0,3673.0,,,,-0.0316858533878946,-2.29507283698468,-0.00173994428746,,-1.4873361029882333,,
,5832.0,836.0,7342.0,1280.0,-51.0,1468.0,3685.0,,,,-0.0317817274364613,-2.29554416025048,-0.0014176767853641,,-1.5142552875663327,,
,5833.0,838.0,7347.0,1287.0,-64.0,1460.0,3677.0,,,,-0.0318291658426645,-2.2957648930384,-0.002200963195828,,-1.5408903024925336,,
,5835.0,839.0,7349.0,1284.0,-62.0,1448.0,3682.0,,,,-0.0318194234022465,-2.29619200176434,-0.0022517741257356,,-1.569045694660362,,
,5834.0,838.0,7349.0,1289.0,-54.0,1443.0,3683.0,,,,-0.0319094063120595,-2.29647875244014,-0.0022809447557968,,-1.5989335537028737,,
,5832.0,839.0,7349.0,1282.0,-58.0,1457.0,3690.0,,,,-0.0319028963555939,-2.2966334465763,-0.002164219222864,,-1.6290860798819176,,
,5833.0,839.0,7349.0,1287.0,-53.0,1459.0,3694.0,,,,-0.0318952621620268,-2.29652021420202,-0.0018901959887027,,-1.6564361115913484,,
,5836.0,841.0,7352.0,1287.0,-54.0,1471.0,3682.0,,,,-0.031933784872221,-2.29644485319125,-0.0024066269228021,,-1.6765653365015234,,
,5836.0,840.0,7355.0,1285.0,-48.0,1467.0,3687.0,,,,-0.0319870799598239,-2.29657183316011,-0.0022245218229708,,-1.6841012105751945,,
,5835.0,836.0,7353.0,1284.0,-39.0,1471.0,3693.0,,,,-0.0319546330336786,-2.29683189548723,-0.0019007063538634,,-1.673225212899172,,
,5834.0,838.0,7355.0,1286.0,-45.0,1449.0,3686.0,,,,-0.0320822505189238,-2.29663158882248,-0.0020470056748153,,-1.638239663066384,,
,5835.0,837.0,7358.0,1287.0,-46.0,1455.0,3711.0,,,,-0.0319976459437021,-2.29638157614507,-0.002468506877034,,-1.5741310794914116,,
,5834.0,840.0,7359.0,1286.0,-50.0,1458.0,3704.0,,,,-0.0319947237614674,-2.29636908374668,-0.0022765349726128,,-1.4770675925412695,,
,5833.0,839.0,7356.0,1286.0,-46.0,1462.0,3690.0,,,,-0.031989325154456,-2.29651252487084,-0.0022302591182094,,-1.3447770712820581,,
,5835.0,838.0,7361.0,1287.0,-53.0,1452.0,3678.0,,,,-0.0319201461444936,-2.29594055599821,-0.0021504214105884,,-1.1767697619576583,,
,5835.0,838.0,7361.0,1287.0,-56.0,1456.0,3686.0,,,,-0.0319460215392696,-2.296524079234,-0.0016793463210744,,-0.9743908665266731,,
,5836.0,838.0,7360.0,1287.0,-59.0,1461.0,3696.0,,,,-0.0318775386804524,-2.29626421617794,-0.0020051733579288,,-0.7407105943222448,,
,5832.0,839.0,7365.0,1287.0,-56.0,1446.0,3676.0,,,,-0.0318363606802682,-2.2955850986442,-0.0015881690923732,,-0.4802784763518094,,
,5834.0,837.0,7361.0,1287.0,-53.0,1468.0,3672.0,,,,-0.0317648737747991,-2.29537160061769,-0.0013613779017311,,-0.1987828902768014,,
,5838.0,840.0,7364.0,1288.0,-51.0,1468.0,3669.0,,,,-0.0317183212169008,-2.2951030921783,-0.0013253218724548,,0.09733554002028576,,
,5837.0,839.0,7364.0,1287.0,-51.0,1471.0,3687.0,,,,-0.0316279691504224,-2.29533587629324,-0.0013343596755706,,0.40126726947393043,,
,5839.0,839.0,7368.0,1290.0,-52.0,1469.0,3694.0,,,,-0.031663238053224,-2.29494762920445,-0.0014465473200735,,0.7061703686754874,,
,5838.0,839.0,7367.0,1287.0,-52.0,1483.0,3685.0,,,,-0.0315693163076395,-2.29476760439941,-0.0009420618374203,,1.005428096674659,,
,5840.0,841.0,7368.0,1291.0,-45.0,1468.0,3698.0,,,,-0.0315012621009957,-2.29469841464322,-0.0010970719307057,,1.2928104777708396,,
,5839.0,839.0,7370.0,1289.0,-45.0,1461.0,3690.0,,,,-0.031543366873558,-2.29434761737886,-0.000514725722722,,1.5625400366191522,,
,5843.0,841.0,7370.0,1290.0,-45.0,1467.0,3677.0,,,,-0.0314896350263863,-2.29414642117128,-0.0011996646665448,,1.8092791173858365,,
,5839.0,839.0,7372.0,1290.0,-48.0,1452.0,3675.0,,,,-0.0314240783265714,-2.29394586155606,-0.0009936067475919,,2.028071004221673,,
,5840.0,840.0,7375.0,1291.0,-56.0,1458.0,3702.0,,,,-0.0314948854445771,-2.29405206649901,-0.0007995451599379,,2.214276169507972,,
,5840.0,841.0,7377.0,1292.0,-54.0,1469.0,3674.0,,,,-0.0315084360484047,-2.29349894716638,-0.0006461173231277,,2.3635455557487095,,
,5846.0,840.0,7377.0,1291.0,-49.0,1465.0,3678.0,,,,-0.0313896239570686,-2.29339125565938,-0.0006656151276687,,2.471863927042815,,
,5843.0,839.0,7376.0,1290.0,-52.0,1467.0,3684.0,,,,-0.0313911884912685,-2.29383939050999,-0.0010336155610823,,2.5356798780355563,,
,5845.0,837.0,7379.0,1293.0,-60.0,1462.0,3687.0,,,,-0.0314101125925682,-2.29368771295124,-0.0014471540452181,,2.55211906418458,,
,5848.0,843.0,7380.0,1293.0,-56.0,1467.0,3684.0,,,,-0.0313219027229423,-2.29368964698157,-0.0006570770851815,,2.519258054538034,,
,5846.0,839.0,7383.0,1293.0,-56.0,1464.0,3684.0,,,,-0.0313441592462176,-2.29363573810433,-0.0010817039440076,,2.4364213138733475,,
,5850.0,839.0,7383.0,1293.0,-65.0,1465.0,3683.0,,,,-0.0314063348160011,-2.29403901925768,-0.000447989409248,,2.3044551500983292,,
,5846.0,837.0,7381.0,1292.0,-60.0,1462.0,3683.0,,,,-0.0314627881226292,-2.2937085991113,-0.0004624225811041,,2.125930864772376,,
,5848.0,841.0,7386.0,1294.0,-53.0,1463.0,3692.0,,,,-0.031390746975953,-2.29376739674213,-0.0007724568097871,,1.9052348457336594,,
,5851.0,842.0,7389.0,1295.0,-53.0,1443.0,3692.0,,,,-0.0314041695314725,-2.29371600708529,-0.0011090923168412,,1.648515046607737,,
,5851.0,841.0,7390.0,1293.0,-52.0,1446.0,3692.0,,,,-0.0313384980880118,-2.29383059009568,-0.0007976266344429,,1.3634694203678095,,
,5850.0,840.0,7392.0,1296.0,-43.0,1460.0,3704.0,,,,-0.0313112922966659,-2.29350230928917,-0.0009960155158769,,1.0589802743876076,,
,5854.0,841.0,7393.0,1295.0,-45.0,1470.0,3691.0,,,,-0.031512764060073,-2.29305098818516,-0.0008224842918768,,0.7446173020112752,,
,5854.0,844.0,7394.0,1296.0,-49.0,1473.0,3682.0,,,,-0.0315483393116393,-2.29336078951189,-0.0011006850844481,,0.4300495917468472,,
,5853.0,844.0,7398.0,1298.0,-55.0,1470.0,3689.0,,,,-0.0314760061258561,-2.29305283172432,-0.0008019034275593,,0.12442133627789737,,
,5857.0,840.0,7396.0,1296.0,-45.0,1453.0,3698.0,,,,-0.0314129977889374,-2.29348678649573,-0.0007569650538108,,-0.1642452281903127,,
,5859.0,841.0,7401.0,1296.0,-51.0,1462.0,3704.0,,,,-0.0313788610463764,-2.2934709722997,-0.0004732223566746,,-0.42955546290051033,,
,5862.0,842.0,7401.0,1299.0,-53.0,1450.0,3693.0,,,,-0.0313328467205084,-2.2925923261853,-0.0009783751603342,,-0.667101040977384,,
,5858.0,842.0,7405.0,1299.0,-56.0,1450.0,3682.0,,,,-0.0311710160234181,-2.29248114529874,-0.0005527604750916,,-0.8746330407986503,,
,5860.0,842.0,7405.0,1299.0,-49.0,1450.0,3696.0,,,,-0.0311834493425628,-2.29223466250122,-0.0005229892980955,,-1.0520324052149403,,
,5862.0,842.0,7406.0,1299.0,-38.0,1464.0,3696.0,,,,-0.0311859655867627,-2.29240040212483,-0.0001640153272169,,-1.2010834726516,,
,5864.0,844.0,7410.0,1302.0,-45.0,1461.0,3681.0,,,,-0.0312264189015342,-2.29210057415243,-5.22726632885046e-05,,-1.3250770269338648,,
,5865.0,844.0,7412.0,1300.0,-43.0,1473.0,3686.0,,,,-0.0311676215067882,-2.29241163613906,-8.73475339086783e-05,,-1.4282862775850802,,
,5862.0,843.0,7415.0,1302.0,-43.0,1465.0,3693.0,,,,-0.0311405947229621,-2.29240297752911,-0.0001662334632909,,-1.5153713283018846,,
,5864.0,842.0,7412.0,1300.0,-47.0,1448.0,3689.0,,,,-0.0311941561252335,-2.29238337771479,-0.0003305897800383,,-1.5907742328435037,,
,5865.0,842.0,7417.0,1302.0,-44.0,1456.0,3696.0,,,,-0.0311726351021482,-2.29229022284044,-0.0002715806452094,,-1.6581671470675765,,
,5868.0,842.0,7420.0,1302.0,-45.0,1452.0,3679.0,,,,-0.0312606465366686,-2.29286058350474,-0.0001076936849262,,-1.7200103132144167,,
,5866.0,844.0,7422.0,1303.0,-57.0,1458.0,3681.0,,,,-0.0314483641922866,-2.29364312986801,-0.0009184581658207,,-1.7772650841719584,,
,5866.0,842.0,7423.0,1303.0,-65.0,1463.0,3662.0,,,,-0.0314482984513325,-2.29394848075006,-0.0010029440769375,,-1.8292906566825748,,
,5866.0,843.0,7421.0,1303.0,-56.0,1471.0,3670.0,,,,-0.0315774313090366,-2.2949430429749,-0.000983805930288,,-1.8739327587213535,,
,5869.0,845.0,7425.0,1305.0,-47.0,1462.0,3682.0,,,,-0.0317203299959948,-2.29527527309331,-0.001239953469301,,-1.9077900922356175,,
,5866.0,841.0,7422.0,1304.0,-44.0,1465.0,3678.0,,,,-0.0318784135078471,-2.29563703089892,-0.002004207633153,,-1.9266227309411905,,
,5864.0,843.0,7420.0,1301.0,-62.0,1458.0,3693.0,,,,-0.0319045491466886,-2.29653627724995,-0.001992426321264,,-1.925849465098713,,
,5861.0,840.0,7415.0,1301.0,-45.0,1472.0,3701.0,,,,-0.0320206426481816,-2.29695318419742,-0.0017994759323531,,-1.901071503029673,,
,5860.0,839.0,7413.0,1302.0,-42.0,1464.0,3697.0,,,,-0.0319880459549475,-2.29724328692991,-0.0024254685717495,,-1.8485596134781623,,
,5855.0,839.0,7410.0,1296.0,-43.0,1459.0,3695.0,,,,-0.0321245454863031,-2.29757742621976,-0.0025715664721406,,-1.7656501072335622,,
,5854.0,839.0,7405.0,1295.0,-51.0,1448.0,3689.0,,,,-0.0320723917745836,-2.29799938474595,-0.0022572050754171,,-1.6510097216410713,,
,5851.0,836.0,7402.0,1293.0,-47.0,1461.0,3689.0,,,,-0.0320349628295676,-2.29714675383967,-0.0020798279694921,,-1.5047478107912942,,
2025-07-23 16:43:55,5848.0,838.0,7397.0,1294.0,-50.0,1463.0,3704.0,,,2025/07/23 04:43:55 PM,-0.0320232128303123,-2.29701004403513,-0.0027359282506796,,-1.3283740747482236,,
,5846.0,837.0,7397.0,1291.0,-58.0,1470.0,3667.0,,,,-0.0319820634392216,-2.29645378941231,-0.0023988072656315,,-1.1246195953434426,,
,5845.0,838.0,7398.0,1292.0,-61.0,1469.0,3673.0,,,,-0.0319623002558254,-2.29633874574751,-0.0020108304801462,,-0.8971561726756254,,
,5842.0,837.0,7392.0,1291.0,-67.0,1467.0,3690.0,,,,-0.0318963628986538,-2.29590969806629,-0.001809944130769,,-0.6502614879034845,,
,5840.0,837.0,7391.0,1290.0,-47.0,1448.0,3684.0,,,,-0.0318179629516759,-2.29597601534457,-0.0020730225581696,,-0.3884833437208302,,
,5840.0,837.0,7394.0,1293.0,-55.0,1455.0,3682.0,,,,-0.0317753715010999,-2.29578212006255,-0.0016141086197528,,-0.11635408405605556,,
,5839.0,837.0,7391.0,1288.0,-52.0,1460.0,3675.0,,,,-0.0317938185040771,-2.29516883466171,-0.0016847592794443,,0.16180360283912296,,
,5835.0,835.0,7390.0,1288.0,-58.0,1430.0,3691.0,,,,-0.0318086110556531,-2.29563200764562,-0.0015343350886535,,0.4419548850802391,,
,5835.0,838.0,7391.0,1289.0,-62.0,1454.0,3700.0,,,,-0.03171698114434,-2.29516158684374,-0.0009581746750884,,0.7203117492985734,,
,5835.0,836.0,7392.0,1288.0,-57.0,1450.0,3693.0,,,,-0.0317347826341356,-2.29520333698826,-0.0012915499496482,,0.9931925445189004,,
,5833.0,834.0,7390.0,1290.0,-55.0,1450.0,3676.0,,,,-0.0316610072406343,-2.29486666255696,-0.0012460268871558,,1.2568223386430404,,
,5832.0,837.0,7390.0,1286.0,-62.0,1450.0,3710.0,,,,-0.0314123842565172,-2.29435408292462,-0.0009760955285768,,1.5071274015921587,,
,5833.0,835.0,7390.0,1289.0,-62.0,1458.0,3693.0,,,,-0.0315980173143059,-2.29455378672438,-0.0012255365088138,,1.739579702556125,,
,5835.0,836.0,7391.0,1288.0,-61.0,1470.0,3680.0,,,,-0.0314785345406031,-2.29415349986676,-0.0009088710272036,,1.9491391057781198,,
,5837.0,838.0,7391.0,1290.0,-58.0,1476.0,3673.0,,,,-0.0314090219102903,-2.29408395834349,-0.0010208679855154,,2.130324465166782,,
,5832.0,836.0,7392.0,1291.0,-54.0,1460.0,3675.0,,,,-0.031443267842228,-2.29412611212821,-0.0008215351633599,,2.277423819031203,,
,5831.0,835.0,7390.0,1287.0,-60.0,1465.0,3675.0,,,,-0.0314851538035708,-2.29408979848793,-0.0007946337919074,,2.384831844130017,,
,5832.0,836.0,7393.0,1289.0,-58.0,1471.0,3688.0,,,,-0.031363796924539,-2.29427441386267,-0.0007776851352623,,2.4474822488586145,,
,5835.0,835.0,7394.0,1289.0,-50.0,1467.0,3700.0,,,,-0.0312876364389739,-2.2939859345572,-0.0004945092282404,,2.461326043685015,,
,5832.0,839.0,7394.0,1288.0,-46.0,1456.0,3721.0,,,,-0.0313634193353438,-2.29394718080951,-0.0013047369785077,,2.423795828881816,,
,5832.0,836.0,7393.0,1288.0,-48.0,1438.0,3724.0,,,,-0.0314157738930264,-2.29338636740066,-0.0002136305969625,,2.334193339064439,,
,5833.0,838.0,7395.0,1289.0,-54.0,1452.0,3702.0,,,,-0.0314184478056489,-2.29323451256663,-0.0007336799154764,,2.193943470990183,,
,5834.0,836.0,7395.0,1288.0,-52.0,1442.0,3681.0,,,,-0.0313033626517646,-2.29326222673443,-0.000655912414555,,2.006672500488789,,
,5834.0,837.0,7395.0,1289.0,-47.0,1458.0,3679.0,,,,-0.0312159870334236,-2.29295220768937,-0.0001640379609746,,1.7780894278157595,,
,5833.0,837.0,7396.0,1288.0,-38.0,1484.0,3652.0,,,,-0.0311712122541034,-2.29284885350793,0.0002326682667698,,1.5156745204066329,,
,5833.0,837.0,7399.0,1291.0,-47.0,1485.0,3666.0,,,,-0.0310874698555707,-2.29227805383514,-3.28149336953765e-05,,1.2282043950642931,,
,5835.0,837.0,7396.0,1291.0,-51.0,1454.0,3671.0,,,,-0.0311505472170581,-2.2924234216516,-0.0001889405639355,,0.9251641474063432,,
,5835.0,838.0,7401.0,1293.0,-45.0,1458.0,3665.0,,,,-0.0311969389344174,-2.29251751236987,-4.90258791160305e-05,,0.6161102653579631,,
,5835.0,836.0,7403.0,1291.0,-26.0,1449.0,3688.0,,,,-0.0311931893685952,-2.2931081330132,-0.0007994667251296,,0.3100512691274351,,
,5836.0,837.0,7398.0,1292.0,-44.0,1455.0,3689.0,,,,-0.0312598340202611,-2.29347679935724,0.000178999162727,,0.01490669128003001,,
,5835.0,839.0,7404.0,1295.0,-47.0,1462.0,3699.0,,,,-0.0312243871226947,-2.29322895704933,2.66298039406025e-05,,-0.26290823449058826,,
,5839.0,837.0,7404.0,1294.0,-52.0,1449.0,3685.0,,,,-0.0312271061359413,-2.29364471630839,-0.0006790051492566,,-0.518741652015743,,
,5837.0,840.0,7406.0,1293.0,-54.0,1442.0,3683.0,,,,-0.0312832961251261,-2.29384185132677,-0.0004529624034415,,-0.7497951871657563,,
,5835.0,837.0,7405.0,1291.0,-50.0,1450.0,3707.0,,,,-0.0312401809824879,-2.29389117489935,-0.0004481737266064,,-0.9550494663220312,,
,5839.0,839.0,7406.0,1293.0,-52.0,1453.0,3703.0,,,,-0.0312957521989844,-2.29354279312803,-9.29954781960299e-05,,-1.1350448972994538,,
,5838.0,840.0,7408.0,1293.0,-56.0,1464.0,3667.0,,,,-0.0313022191487465,-2.29338831396148,-0.0003830606932531,,-1.2915503104262573,,
,5837.0,837.0,7405.0,1291.0,-51.0,1463.0,3664.0,,,,-0.031343710161646,-2.29358071070332,-0.0001378602200449,,-1.4271609843218727,,
,5838.0,839.0,7410.0,1292.0,-44.0,1464.0,3670.0,,,,-0.0315665540647963,-2.29303581846038,-0.0003312237744932,,-1.5448718253214342,,
,5838.0,839.0,7411.0,1294.0,-47.0,1458.0,3695.0,,,,-0.0314420901262401,-2.29298380670861,1.77728251265121e-06,,-1.6476706110873744,,
,5837.0,842.0,7413.0,1292.0,-50.0,1465.0,3707.0,,,,-0.0314309237850648,-2.29333779658672,-0.0002625154411139,,-1.7381902603532493,,
,5837.0,839.0,7415.0,1292.0,-45.0,1469.0,3704.0,,,,-0.031225259993016,-2.29284719937616,3.63862199721108e-06,,-1.8184485634138137,,
,5837.0,842.0,7414.0,1291.0,-43.0,1469.0,3707.0,,,,-0.0311560850896956,-2.29300054963987,0.0003184621889301,,-1.8896899714724684,,
,5838.0,839.0,7416.0,1292.0,-52.0,1476.0,3723.0,,,,-0.0311152247918455,-2.29247344259503,0.0001801099670478,,-1.9523291442711974,,
,5840.0,843.0,7416.0,1293.0,-50.0,1477.0,3677.0,,,,-0.0310646763813198,-2.29250202390563,4.96237627335423e-05,,-2.005982937991427,,
,5838.0,837.0,7417.0,1294.0,-56.0,1466.0,3676.0,,,,-0.031131824714048,-2.29281095734744,7.29655468449455e-05,,-2.0495690230554704,,
,5836.0,840.0,7418.0,1294.0,-43.0,1464.0,3685.0,,,,-0.0310514102634104,-2.2920494499087,7.98372732684774e-05,,-2.0814464977796887,,
,5840.0,839.0,7417.0,1291.0,-59.0,1472.0,3691.0,,,,-0.0311063575765509,-2.2922229062455,0.0005095774794655,,-2.099575885146748,,
,5842.0,839.0,7421.0,1294.0,-56.0,1462.0,3693.0,,,,-0.0310918511735582,-2.29183233479168,0.0001493594541887,,-2.1016806700666635,,
,5842.0,841.0,7420.0,1295.0,-42.0,1471.0,3696.0,,,,-0.0309776217604455,-2.29175204754922,0.0005800969347373,,-2.0853979923789296,,
,5843.0,841.0,7423.0,1292.0,-41.0,1474.0,3683.0,,,,-0.0309412024999862,-2.29192714055604,0.0006749819281014,,-2.048411123641061,,
,5839.0,841.0,7421.0,1292.0,-38.0,1466.0,3677.0,,,,-0.0309528138382119,-2.29142779554534,0.00071278159564,,-1.988560662901131,,
,5842.0,840.0,7424.0,1295.0,-46.0,1470.0,3694.0,,,,-0.0309546228940471,-2.29110437111393,0.00043051265344,,-1.9039350199720302,,
,5842.0,842.0,7424.0,1293.0,-49.0,1470.0,3688.0,,,,-0.0308831421422704,-2.29070267460196,0.0007279621437676,,-1.7929436902082394,,
,5844.0,843.0,7429.0,1297.0,-52.0,1460.0,3695.0,,,,-0.03089092709248,-2.2911739136242,0.0006908040625107,,-1.6543790455170138,,
,5842.0,839.0,7429.0,1294.0,-44.0,1459.0,3673.0,,,,-0.0308778107742084,-2.29033229763338,0.0004214493063906,,-1.487473918830256,,
,5844.0,842.0,7428.0,1294.0,-53.0,1453.0,3686.0,,,,-0.0309141057740697,-2.29047002065618,0.0004042212615075,,-1.2919629824879542,,
,5846.0,841.0,7432.0,1298.0,-49.0,1454.0,3679.0,,,,-0.0308403651240816,-2.29059505610778,0.0012589113791644,,-1.0681551048108684,,
,5847.0,841.0,7433.0,1296.0,-47.0,1445.0,3686.0,,,,-0.030904212799938,-2.29051928944852,0.0010312156940923,,-0.8170204679690682,,
,5845.0,843.0,7434.0,1299.0,-48.0,1458.0,3675.0,,,,-0.0307255449196986,-2.2907496318892,0.0011880172104216,,-0.5402898315295327,,
,5849.0,842.0,7436.0,1296.0,-51.0,1462.0,3681.0,,,,-0.0307679614399362,-2.29059075635939,0.0010025667991992,,-0.24055512262485546,,
,5849.0,843.0,7437.0,1297.0,-60.0,1461.0,3673.0,,,,-0.0307846912725557,-2.29075027244369,0.0015980654445848,,0.07864678012148042,,
,5851.0,843.0,7439.0,1299.0,-44.0,1457.0,3671.0,,,,-0.0308059971058251,-2.29043441392672,0.0009416681612283,,0.4127888129603553,,
,5852.0,843.0,7439.0,1298.0,-41.0,1459.0,3678.0,,,,-0.0306897210449854,-2.29015711637953,0.0009847988742409,,0.7563673596743528,,
,5850.0,841.0,7440.0,1297.0,-47.0,1462.0,3694.0,,,,-0.0308109616923502,-2.29039453636638,0.0016971852630097,,1.1029892173073748,,
,5853.0,845.0,7443.0,1300.0,-46.0,1467.0,3680.0,,,,-0.0306956086413208,-2.29036261075012,0.0010389265903667,,1.4455378091744253,,
,5856.0,847.0,7447.0,1301.0,-52.0,1468.0,3666.0,,,,-0.0307244899069609,-2.29003340010482,0.0009575282850757,,1.776414936478683,,
,5858.0,847.0,7447.0,1301.0,-56.0,1461.0,3674.0,,,,-0.0306498297574658,-2.29007382667207,0.0014242481841382,,2.0878447836132583,,
,5855.0,845.0,7447.0,1300.0,-47.0,1459.0,3680.0,,,,-0.030790482609643,-2.28984260754512,0.0016341132940386,,2.372218375079761,,
,5857.0,846.0,7453.0,1302.0,-50.0,1467.0,3668.0,,,,-0.0308787816697412,-2.28929215634573,0.001382657058691,,2.6224504872293837,,
,5860.0,847.0,7452.0,1302.0,-56.0,1464.0,3694.0,,,,-0.0307336622965661,-2.28923878685734,0.0012228065600636,,2.832318295416088,,
,5859.0,845.0,7453.0,1303.0,-52.0,1470.0,3695.0,,,,-0.0306310022073173,-2.28948716086475,0.0018512832168757,,2.99675220584483,,
,5860.0,847.0,7457.0,1303.0,-48.0,1460.0,3703.0,,,,-0.0305696425033143,-2.2890146313999,0.0020260435539735,,3.1120539972180308,,
,5861.0,847.0,7458.0,1302.0,-52.0,1473.0,3697.0,,,,-0.0305615343005692,-2.28905254009189,0.0020019859911206,,3.176024877991974,,
,5866.0,847.0,7459.0,1306.0,-56.0,1466.0,3692.0,,,,-0.0306045411130711,-2.28918199178703,0.0018314378630057,,3.187995743183817,,
,5864.0,846.0,7458.0,1303.0,-49.0,1456.0,3682.0,,,,-0.0305783784926725,-2.28859550945629,0.0020128368764301,,3.1487631035362225,,
,5864.0,847.0,7463.0,1304.0,-45.0,1456.0,3678.0,,,,-0.0305445124003293,-2.28894360024211,0.0020940709072579,,3.0604454754188546,,
,5862.0,844.0,7463.0,1305.0,-40.0,1466.0,3664.0,,,,-0.0305204380445955,-2.2890568643439,0.0023672309951558,,2.9262841551758085,,
,5867.0,850.0,7464.0,1306.0,-45.0,1443.0,3677.0,,,,-0.0304675930686138,-2.28869134598741,0.0019608515426274,,2.750416869904728,,
,5869.0,850.0,7470.0,1306.0,-45.0,1468.0,3695.0,,,,-0.0305373031529732,-2.28901859985723,0.0023034426222751,,2.537651738506154,,
,5868.0,848.0,7471.0,1307.0,-45.0,1478.0,3701.0,,,,-0.0306108948603468,-2.28930441420278,0.0016875506793657,,2.293263227707972,,
,5870.0,847.0,7473.0,1306.0,-48.0,1462.0,3709.0,,,,-0.0306473001309947,-2.289569685903,0.0014766152207925,,2.0228235491108704,,
,5870.0,850.0,7475.0,1308.0,-54.0,1448.0,3690.0,,,,-0.0307784207914759,-2.29029066493928,0.0012693903360103,,1.7320742481567828,,
,5871.0,849.0,7476.0,1308.0,-62.0,1450.0,3689.0,,,,-0.0308944814808153,-2.2907803607467,0.0011160423689658,,1.4268346347246472,,
,5874.0,847.0,7477.0,1309.0,-61.0,1456.0,3685.0,,,,-0.0310561363043593,-2.29206709747749,2.38003351339623e-05,,1.1129366462303658,,
,5870.0,849.0,7479.0,1309.0,-53.0,1452.0,3682.0,,,,-0.0312619492693032,-2.29254174919817,0.0004747178751702,,0.796170363283278,,
,5870.0,847.0,7479.0,1308.0,-45.0,1460.0,3687.0,,,,-0.0313728476861198,-2.2933878722179,-0.0003721350363612,,0.48222172909539884,,
,5870.0,849.0,7480.0,1309.0,-50.0,1467.0,3693.0,,,,-0.0314571337716699,-2.29404587916897,-0.000602947101398,,0.17658496599683204,,
,5869.0,849.0,7479.0,1309.0,-45.0,1462.0,3688.0,,,,-0.0315589898303488,-2.29472019594141,-0.0005531076498232,,-0.11556288403171432,,
,5871.0,851.0,7484.0,1309.0,-45.0,1469.0,3692.0,,,,-0.0316475643521865,-2.29498986956736,-0.0008922310456812,,-0.3895291889431977,,
,5864.0,850.0,7476.0,1308.0,-48.0,1455.0,3683.0,,,,-0.0317848609090263,-2.29562285463865,-0.0011741047890544,,-0.6413071442228306,,
,5865.0,851.0,7470.0,1309.0,-56.0,1444.0,3689.0,,,,-0.0317998215028605,-2.29597146771472,-0.0007828076751033,,-0.8677914065771335,,
,5862.0,847.0,7466.0,1304.0,-43.0,1448.0,3691.0,,,,-0.0317008062546664,-2.29580129353836,-0.0011712082630196,,-1.0669775287448175,,
,5860.0,848.0,7464.0,1304.0,-39.0,1450.0,3690.0,,,,-0.0317922401355303,-2.29565830261744,-0.000929412739226,,-1.2381094437848423,,
,5855.0,848.0,7460.0,1299.0,-42.0,1470.0,3704.0,,,,-0.0317843083217114,-2.2952833140792,-0.0012963007755897,,-1.3817411399360775,,
,5855.0,845.0,7457.0,1300.0,-41.0,1472.0,3686.0,,,,-0.0317233866387401,-2.29510235954519,-0.0009305527555787,,-1.499687778468461,,
,5852.0,844.0,7454.0,1300.0,-42.0,1476.0,3696.0,,,,-0.0317593396883288,-2.29476209759413,-0.0006495372739642,,-1.5948557195944768,,
,5852.0,847.0,7455.0,1299.0,-48.0,1461.0,3685.0,,,,-0.0316656921517197,-2.29497779424708,-0.0011845125739792,,-1.6709571230953966,,
,5846.0,843.0,7452.0,1297.0,-51.0,1480.0,3686.0,,,,-0.0315735084110642,-2.29512001162238,-0.0011918507837018,,-1.7321302126852143,,
,5846.0,847.0,7448.0,1297.0,-56.0,1480.0,3673.0,,,,-0.031632093965321,-2.2952457384857,-0.0012068000355622,,-1.7824991562538894,,
,5844.0,844.0,7447.0,1297.0,-50.0,1469.0,3713.0,,,,-0.031556312672001,-2.29465288671562,-0.0007427122340361,,-1.8257167592697483,,
,5844.0,845.0,7451.0,1296.0,-55.0,1450.0,3712.0,,,,-0.0315882971528535,-2.2948754254831,-0.0009048589253788,,-1.8645379513390061,,
,5844.0,845.0,7449.0,1294.0,-51.0,1444.0,3701.0,,,,-0.0315300517353359,-2.29438716445483,-0.0006866488874088,,-1.9004716671917499,,
,5841.0,845.0,7449.0,1295.0,-48.0,1460.0,3692.0,,,,-0.0314874965361156,-2.29427919689967,-0.0008249870684859,,-1.9335529064321852,,
,5841.0,847.0,7451.0,1296.0,-45.0,1448.0,3687.0,,,,-0.0314683696145637,-2.2945037338805,-0.0005359821656703,,-1.9622658087217533,,
,5840.0,846.0,7450.0,1295.0,-45.0,1445.0,3677.0,,,,-0.0315583220353631,-2.2942068778116,-0.0003780989579279,,-1.9836333114414455,,
,5844.0,846.0,7451.0,1295.0,-45.0,1460.0,3670.0,,,,-0.0314265808894819,-2.2944490639607,-0.0004647742518806,,-1.9934705841094738,,
,5840.0,844.0,7449.0,1294.0,-48.0,1459.0,3654.0,,,,-0.0315065552126086,-2.29454955855315,-0.0003396319593483,,-1.9867797162422345,,
,5840.0,845.0,7447.0,1295.0,-46.0,1468.0,3691.0,,,,-0.0315993826514583,-2.29458463526661,-0.0004446594261634,,-1.9582446227140806,,
,5840.0,848.0,7450.0,1295.0,-46.0,1458.0,3697.0,,,,-0.0317813339354574,-2.29406696229267,-0.000436043712693,,-1.9027710819618828,,
,5841.0,846.0,7448.0,1296.0,-42.0,1471.0,3697.0,,,,-0.0316850492201771,-2.29407122165216,-0.000680825271246,,-1.8160103960980103,,
,5838.0,844.0,7449.0,1293.0,-55.0,1474.0,3682.0,,,,-0.03160564194846,-2.29403253445933,-0.0002563043052064,,-1.6948081261261654,,
,5838.0,846.0,7449.0,1293.0,-54.0,1473.0,3686.0,,,,-0.0315017997507793,-2.2937195339523,-0.0005783861805148,,-1.5375311921235304,,
,5841.0,846.0,7450.0,1295.0,-51.0,1451.0,3698.0,,,,-0.0315044494532505,-2.29363010820431,-0.0004300463137031,,-1.3442447529731096,,
,5840.0,847.0,7451.0,1296.0,-55.0,1450.0,3695.0,,,,-0.0314089908124823,-2.29351744833861,-0.0004287705067413,,-1.1167311813130287,,
,5839.0,846.0,7450.0,1293.0,-60.0,1457.0,3688.0,,,,-0.0314270503991734,-2.29388348506828,-0.0001741927931988,,-0.8583638087107004,,
,5838.0,846.0,7451.0,1294.0,-52.0,1463.0,3693.0,,,,-0.0314273940386318,-2.2932933528723,-0.0002378368485037,,-0.5738652429182087,,
,5843.0,848.0,7453.0,1296.0,-58.0,1466.0,3689.0,,,,-0.0313835061750434,-2.29345580379383,-0.0003750838917584,,-0.2689918611875438,,
,5841.0,850.0,7453.0,1296.0,-57.0,1461.0,3691.0,,,,-0.031273010141623,-2.29287529736607,-0.0005227962817057,,0.049808857236979115,,
,5842.0,849.0,7453.0,1296.0,-49.0,1460.0,3704.0,,,,-0.0314064024054148,-2.29361296245594,-8.62780194109718e-05,,0.37572363009798043,,
,5844.0,845.0,7457.0,1294.0,-42.0,1461.0,3683.0,,,,-0.0313328817317834,-2.29298326453769,-0.0004461821951361,,0.7018453934218983,,
,5840.0,850.0,7457.0,1295.0,-39.0,1475.0,3676.0,,,,-0.0313275521041219,-2.29364113618154,-0.0004995195717146,,1.0213695841973176,,
,5845.0,849.0,7455.0,1297.0,-37.0,1461.0,3682.0,,,,-0.0314462463308599,-2.29336915017869,-0.0004953383986979,,1.3277084087777358,,
,5844.0,848.0,7455.0,1295.0,-35.0,1456.0,3680.0,,,,-0.0314304842804013,-2.29343824438274,-0.0004708649762897,,1.614533592432851,,
,5842.0,848.0,7454.0,1295.0,-40.0,1459.0,3695.0,,,,-0.0315332836564213,-2.29390419226042,-0.0006356717706585,,1.8757731189997002,,
,5846.0,849.0,7458.0,1295.0,-45.0,1453.0,3674.0,,,,-0.031488472136699,-2.29374839745687,-0.0008133465689022,,2.1055979289510693,,
,5843.0,850.0,7457.0,1296.0,-50.0,1456.0,3686.0,,,,-0.0316071932757322,-2.29380354012297,-0.0004436641437864,,2.2984376248207017,,
,5843.0,849.0,7453.0,1296.0,-51.0,1462.0,3691.0,,,,-0.0317228268344206,-2.29419023394622,-0.0007945738831219,,2.449058357968211,,
,5845.0,848.0,7456.0,1295.0,-48.0,1470.0,3702.0,,,,-0.0315892526440383,-2.29388707370376,-0.0011134826584495,,2.5527221026277562,,
2025-07-23 16:43:56,5848.0,852.0,7458.0,1297.0,-56.0,1469.0,3708.0,,,2025/07/23 04:43:56 PM,-0.0315967144404783,-2.2944138603745,-0.0004214498818747,,2.605427725391563,,
,5845.0,848.0,7456.0,1295.0,-52.0,1475.0,3705.0,,,,-0.0314371194373547,-2.29421449433404,-0.0007394012096582,,2.6042149265432686,,
,5845.0,850.0,7461.0,1293.0,-59.0,1470.0,3696.0,,,,-0.0313953823665232,-2.29377240953449,-0.0009852317834196,,2.5474959849345606,,
,5846.0,849.0,7459.0,1295.0,-50.0,1467.0,3694.0,,,,-0.0314038492676737,-2.29390205134076,-0.0003644236949955,,2.435369685875764,,
,5845.0,848.0,7459.0,1295.0,-49.0,1482.0,3689.0,,,,-0.0314362892214494,-2.2933345827793,-0.0006364716694649,,2.269868114270439,,
,5845.0,849.0,7461.0,1294.0,-37.0,1471.0,3672.0,,,,-0.0313126770535972,-2.29319412822926,-0.0001673134155749,,2.055090575721846,,
,5844.0,850.0,7461.0,1296.0,-41.0,1471.0,3680.0,,,,-0.0313595052640999,-2.29296346986165,-0.0003365088026915,,1.7971892733694872,,
,5847.0,851.0,7461.0,1296.0,-47.0,1462.0,3695.0,,,,-0.0312417965159673,-2.29277666074618,-4.49939675383565e-05,,1.5041869762373086,,
,5845.0,848.0,7462.0,1295.0,-52.0,1465.0,3676.0,,,,-0.0311125870351535,-2.29255399349688,0.0006275142573793,,1.1856255313759272,,
,5846.0,851.0,7466.0,1296.0,-52.0,1450.0,3659.0,,,,-0.0312270013143368,-2.29244644626495,0.0002815652520261,,0.8520635001770761,,
,5847.0,851.0,7466.0,1296.0,-46.0,1471.0,3666.0,,,,-0.0312588956071942,-2.29216126448238,0.0001435373061212,,0.5144596600077158,,
,5845.0,849.0,7463.0,1296.0,-36.0,1474.0,3666.0,,,,-0.0312983607573653,-2.29204032092345,0.0006474787600616,,0.18349488251391025,,
,5844.0,851.0,7466.0,1294.0,-40.0,1467.0,3667.0,,,,-0.0313465997075762,-2.29192823457716,0.0003751163017426,,-0.13110422936495236,,
,5847.0,850.0,7466.0,1295.0,-34.0,1473.0,3671.0,,,,-0.0313008737135653,-2.29165458942151,0.0004293976448811,,-0.4211730901414037,,
,5848.0,852.0,7464.0,1296.0,-40.0,1456.0,3674.0,,,,-0.0311786368380868,-2.29153770452493,0.000322764230544,,-0.6805869912849148,,
,5848.0,852.0,7465.0,1295.0,-40.0,1457.0,3676.0,,,,-0.0311576504474111,-2.29157826869411,0.0006381974835328,,-0.9055620245537547,,
,5850.0,852.0,7468.0,1298.0,-43.0,1472.0,3664.0,,,,-0.031149096971728,-2.29162968562084,0.0002166404694601,,-1.0947522442779385,,
,5850.0,850.0,7466.0,1294.0,-39.0,1481.0,3680.0,,,,-0.0310851031495466,-2.29152369841916,0.0005760055686373,,-1.249138677350982,,
,5851.0,853.0,7470.0,1297.0,-39.0,1479.0,3679.0,,,,-0.030946922772767,-2.29205843653345,0.0007542061294726,,-1.3717270408681321,,
,5851.0,854.0,7470.0,1298.0,-46.0,1473.0,3674.0,,,,-0.0310894826966518,-2.29169639045266,0.0008738722256988,,-1.4670889163691458,,
,5851.0,852.0,7470.0,1298.0,-41.0,1464.0,3699.0,,,,-0.0310067075501531,-2.2912396728921,0.0003506629174313,,-1.5407945345999405,,
,5852.0,850.0,7469.0,1297.0,-48.0,1481.0,3694.0,,,,-0.0310605632907905,-2.2911757499311,0.0003981704883623,,-1.5987935999926002,,
,5851.0,853.0,7473.0,1300.0,-49.0,1477.0,3695.0,,,,-0.0311319383938626,-2.29112741333609,0.0009292164420912,,-1.6468032823969172,,
,5854.0,854.0,7474.0,1300.0,-43.0,1464.0,3676.0,,,,-0.0311587703812012,-2.29106503706026,0.0006504095245213,,-1.689759545384563,,
,5854.0,853.0,7471.0,1295.0,-46.0,1460.0,3694.0,,,,-0.0310393388115445,-2.29118522455055,0.0006151054955128,,-1.7313798299833332,,
,5854.0,851.0,7471.0,1297.0,-47.0,1459.0,3685.0,,,,-0.0311066221536193,-2.29138095532023,0.0009128243148382,,-1.7738726522822001,,
,5854.0,852.0,7475.0,1297.0,-46.0,1452.0,3683.0,,,,-0.0310265792558829,-2.29131408489243,0.0013304564113976,,-1.817813964626345,,
,5856.0,852.0,7475.0,1300.0,-45.0,1454.0,3689.0,,,,-0.0312237979093558,-2.29123181862818,0.000793291400249,,-1.8621924027384258,,
,5858.0,853.0,7476.0,1299.0,-47.0,1461.0,3695.0,,,,-0.0311388776558132,-2.2910126878112,0.0009003323647331,,-1.9046074799165555,,
,5855.0,850.0,7479.0,1299.0,-41.0,1475.0,3673.0,,,,-0.0310469322374106,-2.29081697849754,0.0008119599475773,,-1.9415887843324893,,
,5859.0,855.0,7475.0,1301.0,-33.0,1457.0,3685.0,,,,-0.0311110724977213,-2.29083088980801,0.0008102767091295,,-1.9689930096094166,,
,5861.0,855.0,7483.0,1301.0,-43.0,1463.0,3676.0,,,,-0.0310246486591915,-2.29096220738503,0.0011090972124679,,-1.9824311200545737,,
,5862.0,853.0,7480.0,1301.0,-45.0,1464.0,3676.0,,,,-0.0309167184212578,-2.29059637779755,0.0004097457487385,,-1.9776801736049667,,
,5863.0,854.0,7482.0,1300.0,-31.0,1459.0,3703.0,,,,-0.0308553070967656,-2.29084697716801,0.0010711256508945,,-1.9510415605955773,,
,5861.0,854.0,7484.0,1300.0,-53.0,1465.0,3694.0,,,,-0.030847420221546,-2.29084955205568,0.000596058865262,,-1.8996173306893314,,
,5864.0,854.0,7484.0,1301.0,-57.0,1469.0,3674.0,,,,-0.030849816346863,-2.2911345024014,0.0012592598085965,,-1.8214872025538882,,
,5866.0,855.0,7483.0,1302.0,-52.0,1457.0,3676.0,,,,-0.0308411900190585,-2.29065779265646,0.0010105983869989,,-1.7157800990197518,,
,5865.0,854.0,7486.0,1303.0,-53.0,1472.0,3683.0,,,,-0.0307191933964248,-2.29060148179096,0.0011311450026983,,-1.5826453039105735,,
,5866.0,854.0,7487.0,1301.0,-48.0,1466.0,3668.0,,,,-0.0307612954308223,-2.29046131816084,0.0008443321299377,,-1.4231389408973625,,
,5867.0,856.0,7488.0,1303.0,-51.0,1466.0,3672.0,,,,-0.0307366453276989,-2.29007029721506,0.0013151083152847,,-1.2390503682654237,,
,5870.0,858.0,7493.0,1307.0,-59.0,1471.0,3718.0,,,,-0.030678806337836,-2.29006398878455,0.0012108720584729,,-1.0326991376471752,,
,5868.0,855.0,7490.0,1304.0,-54.0,1467.0,3716.0,,,,-0.030862865829727,-2.29006212186138,0.0014637699448393,,-0.8067354168506785,,
,5869.0,854.0,7491.0,1304.0,-53.0,1466.0,3706.0,,,,-0.0307558863466949,-2.29049784562712,0.0012500020485603,,-0.5639744862716457,,
,5870.0,855.0,7491.0,1305.0,-43.0,1454.0,3741.0,,,,-0.0307855771546764,-2.29065597710409,0.0015376411687256,,-0.30728873656065875,,
,5870.0,859.0,7492.0,1305.0,-43.0,1459.0,3734.0,,,,-0.0308784160589537,-2.29065829080054,0.0007119850697852,,-0.03956902683002278,,
,5872.0,856.0,7493.0,1303.0,-49.0,1463.0,3706.0,,,,-0.0309577938361026,-2.29139840863546,0.0005465776897114,,0.23624684001946056,,
,5872.0,855.0,7495.0,1304.0,-44.0,1474.0,3684.0,,,,-0.0309843421561979,-2.29175867700414,-9.05229140531982e-05,,0.517094313829295,,
,5870.0,856.0,7493.0,1305.0,-45.0,1467.0,3671.0,,,,-0.0311439122201081,-2.29288863748533,-8.79515899358513e-05,,0.7996764906625903,,
,5872.0,855.0,7491.0,1304.0,-58.0,1479.0,3670.0,,,,-0.0311629596130511,-2.29354172710746,-0.0001192270584388,,1.0803622054839939,,
,5870.0,855.0,7493.0,1305.0,-60.0,1471.0,3663.0,,,,-0.0313813869186394,-2.29429048188298,-0.000647431041489,,1.3551156170570793,,
,5870.0,856.0,7491.0,1306.0,-63.0,1460.0,3686.0,,,,-0.0314152981725245,-2.29523421095636,-0.001085960627006,,1.6194792349894354,,
,5865.0,854.0,7483.0,1301.0,-59.0,1459.0,3690.0,,,,-0.0315646380240336,-2.29544252590749,-0.0013421025145185,,1.8686241640492036,,
,5862.0,854.0,7478.0,1302.0,-49.0,1464.0,3681.0,,,,-0.0316762323290835,-2.29599382796649,-0.001591361386994,,2.09747203913951,,
,5861.0,853.0,7472.0,1298.0,-59.0,1474.0,3701.0,,,,-0.0319006375652617,-2.2961290805489,-0.0018050451505545,,2.300883396547913,,
,5854.0,854.0,7467.0,1295.0,-54.0,1466.0,3699.0,,,,-0.0319852189070628,-2.29641568991791,-0.0021903399834354,,2.4738978488607564,,
,5852.0,851.0,7464.0,1295.0,-49.0,1470.0,3674.0,,,,-0.0320417462229809,-2.29637424031231,-0.0022531304121513,,2.6120034912365964,,
,5850.0,851.0,7457.0,1293.0,-36.0,1470.0,3688.0,,,,-0.0319486740012352,-2.29664491049221,-0.0020706849506296,,2.7114075814395164,,
,5850.0,850.0,7454.0,1293.0,-43.0,1477.0,3680.0,,,,-0.0317965931287955,-2.29652081683446,-0.0018358174233701,,2.769278532102168,,
,5846.0,849.0,7450.0,1292.0,-45.0,1477.0,3683.0,,,,-0.0317164468662544,-2.29655282315119,-0.0012648697064086,,2.7839311869735845,,
,5844.0,847.0,7447.0,1290.0,-54.0,1483.0,3684.0,,,,-0.031732540277422,-2.29642196147627,-0.001567379621883,,2.7549335974705427,,
,5841.0,848.0,7443.0,1290.0,-50.0,1480.0,3708.0,,,,-0.0318432164609504,-2.29653050295478,-0.0015068454317833,,2.6831239229708514,,
,5840.0,850.0,7445.0,1287.0,-42.0,1467.0,3715.0,,,,-0.0319776807600558,-2.29598017730877,-0.001156058196947,,2.570539259341837,,
,5839.0,847.0,7441.0,1287.0,-39.0,1472.0,3702.0,,,,-0.0318955632738619,-2.29608849633999,-0.0019566322315126,,2.4202712642421136,,
,5838.0,847.0,7437.0,1286.0,-48.0,1462.0,3688.0,,,,-0.0319209189752349,-2.29565322068182,-0.0015991541102678,,2.236272916759971,,
,5836.0,848.0,7440.0,1287.0,-50.0,1466.0,3692.0,,,,-0.0318715432525902,-2.29569061985097,-0.0014034422882299,,2.023144252907309,,
,5836.0,848.0,7437.0,1286.0,-49.0,1464.0,3690.0,,,,-0.0318848020061877,-2.29580055696251,-0.0016882901263955,,1.7859223761072613,,
,5834.0,846.0,7434.0,1286.0,-54.0,1462.0,3691.0,,,,-0.0318028164721997,-2.29614705178489,-0.0017287132781177,,1.5298943567668357,,
,5832.0,848.0,7435.0,1287.0,-49.0,1465.0,3690.0,,,,-0.0318646141384155,-2.29603725720935,-0.0013719064802201,,1.2604432342127907,,
,5837.0,848.0,7433.0,1288.0,-53.0,1471.0,3687.0,,,,-0.0318737480640675,-2.29640144388988,-0.0020591505249261,,0.9829289341373114,,
,5836.0,848.0,7432.0,1285.0,-51.0,1469.0,3679.0,,,,-0.0319145447733351,-2.29626928897207,-0.0016624435832393,,0.7025984579732054,,
,5834.0,849.0,7432.0,1287.0,-53.0,1456.0,3672.0,,,,-0.0319736026143893,-2.29624772371305,-0.0020006283612713,,0.42451395082779203,,
,5836.0,849.0,7431.0,1287.0,-53.0,1463.0,3674.0,,,,-0.031937882485574,-2.29623002842275,-0.0015955622484325,,0.15348404877225996,,
,5833.0,847.0,7427.0,1284.0,-44.0,1462.0,3687.0,,,,-0.0319527937967672,-2.29638993339042,-0.0018140439984175,,-0.10601607506121179,,
,5836.0,846.0,7428.0,1285.0,-37.0,1457.0,3671.0,,,,-0.0319274079228424,-2.29626877672212,-0.0015771227547767,,-0.3499470204439842,,
,5835.0,847.0,7428.0,1284.0,-42.0,1464.0,3693.0,,,,-0.0320941996766376,-2.29599624113301,-0.0017140145419724,,-0.5748340446294554,,
,5837.0,847.0,7427.0,1286.0,-50.0,1454.0,3711.0,,,,-0.032009959596008,-2.29624728142059,-0.0016885598780245,,-0.7779173717110482,,
,5835.0,846.0,7426.0,1284.0,-40.0,1435.0,3679.0,,,,-0.0319901508962343,-2.29577732475067,-0.0020202538967229,,-0.9573084395627146,,
,5836.0,848.0,7427.0,1283.0,-52.0,1457.0,3690.0,,,,-0.0318368860817219,-2.29558435405166,-0.0018203986583516,,-1.1121276989278737,,
,5837.0,848.0,7428.0,1286.0,-53.0,1456.0,3696.0,,,,-0.0318693924413224,-2.29546511758878,-0.0018089713248521,,-1.2425948729600718,,
,5836.0,848.0,7425.0,1283.0,-48.0,1464.0,3696.0,,,,-0.0318166053360563,-2.29575424458523,-0.0016816243224197,,-1.3500440407536403,,
,5836.0,847.0,7426.0,1285.0,-47.0,1467.0,3687.0,,,,-0.0318102739461277,-2.29561964684779,-0.0018918277079157,,-1.4368436543725986,,
,5835.0,846.0,7426.0,1282.0,-32.0,1478.0,3680.0,,,,-0.0319003152759814,-2.29565835451071,-0.0013493027214426,,-1.5062138257160207,,
,5836.0,848.0,7426.0,1285.0,-43.0,1473.0,3678.0,,,,-0.0318327472800945,-2.29567465865596,-0.0017149002967943,,-1.5619471505817053,,
,5840.0,850.0,7427.0,1285.0,-46.0,1463.0,3689.0,,,,-0.0318671987274052,-2.29611685352515,-0.0017520570271904,,-1.6080525159593335,,
,5836.0,846.0,7423.0,1285.0,-46.0,1457.0,3685.0,,,,-0.0319046349386603,-2.296080166324,-0.0013628711392373,,-1.6483522831866735,,
,5834.0,846.0,7424.0,1283.0,-54.0,1451.0,3702.0,,,,-0.031764146346864,-2.29591845774904,-0.0018468080670598,,-1.6860711715679813,,
,5838.0,846.0,7421.0,1283.0,-50.0,1458.0,3703.0,,,,-0.0319791922992989,-2.2966582050685,-0.0019817597891288,,-1.7234594060299158,,
,5838.0,847.0,7420.0,1283.0,-46.0,1445.0,3692.0,,,,-0.0320498543769409,-2.29682116317283,-0.0021708403680931,,-1.7614925256643383,,
,5835.0,847.0,7423.0,1283.0,-42.0,1451.0,3682.0,,,,-0.0321202560070645,-2.29667408859831,-0.0021487148571694,,-1.7996852582794838,,
,5837.0,847.0,7419.0,1283.0,-40.0,1464.0,3673.0,,,,-0.0319907845427158,-2.29682451523411,-0.0024794430391331,,-1.836047200665818,,
,5835.0,848.0,7421.0,1283.0,-52.0,1465.0,3689.0,,,,-0.0320238595820362,-2.29696046346203,-0.0021520147938981,,-1.8671943811056166,,
,5838.0,845.0,7420.0,1285.0,-56.0,1469.0,3705.0,,,,-0.0321793231959793,-2.29682160447565,-0.0022516141063011,,-1.888614147477235,,
,5837.0,849.0,7419.0,1284.0,-51.0,1477.0,3703.0,,,,-0.0322734894881414,-2.29720289878504,-0.0027371381388963,,-1.8950626332445506,,
,5835.0,850.0,7420.0,1283.0,-62.0,1474.0,3713.0,,,,-0.032236483686445,-2.29674256431574,-0.0020856402568598,,-1.8810563885004357,,
,5835.0,849.0,7418.0,1282.0,-56.0,1460.0,3696.0,,,,-0.0322767584328559,-2.29664207814194,-0.0021216920174703,,-1.8414055307423323,,
,5836.0,847.0,7417.0,1282.0,-51.0,1455.0,3674.0,,,,-0.0321604259240043,-2.29624588223668,-0.0020874367667374,,-1.7717281875317845,,
,5836.0,849.0,7418.0,1285.0,-55.0,1451.0,3679.0,,,,-0.0320397390182649,-2.29579555876776,-0.0019163738402151,,-1.6688873714842374,,
,5835.0,848.0,7416.0,1285.0,-57.0,1460.0,3680.0,,,,-0.0320610229992687,-2.29632776761409,-0.0019036894986093,,-1.5313019320539754,,
,5833.0,847.0,7414.0,1281.0,-62.0,1459.0,3676.0,,,,-0.0320246710489257,-2.29612717689812,-0.0015726174343195,,-1.3591007521389775,,
,5835.0,846.0,7415.0,1281.0,-49.0,1462.0,3675.0,,,,-0.031958427089999,-2.29612402573783,-0.0016110602744398,,-1.1541104861477567,,
,5836.0,847.0,7416.0,1284.0,-47.0,1475.0,3686.0,,,,-0.0318986073000389,-2.29592152048496,-0.0018348011493022,,-0.9196884592008502,,
,5835.0,848.0,7414.0,1283.0,-44.0,1477.0,3684.0,,,,-0.0318690448367456,-2.29561613695058,-0.0017839040447512,,-0.6604311111313552,,
,5838.0,845.0,7414.0,1282.0,-52.0,1461.0,3668.0,,,,-0.03189993655659,-2.29616281309305,-0.0017126345636598,,-0.3818024256507769,,
,5837.0,847.0,7413.0,1283.0,-56.0,1460.0,3674.0,,,,-0.0318435176892094,-2.29574601144712,-0.0011000003909243,,-0.08973446086278422,,
,5837.0,848.0,7415.0,1282.0,-50.0,1469.0,3683.0,,,,-0.031806416834324,-2.29564534085546,-0.0014469361666993,,0.20974758211790773,,
,5834.0,848.0,7414.0,1285.0,-50.0,1474.0,3684.0,,,,-0.0318239397256735,-2.2955196496009,-0.0010355505177184,,0.5108302578545533,,
,5837.0,847.0,7415.0,1283.0,-48.0,1483.0,3686.0,,,,-0.0318146909383417,-2.29545190273832,-0.0011112184374941,,0.8081142788641952,,
,5839.0,846.0,7412.0,1280.0,-60.0,1479.0,3676.0,,,,-0.0317629051578924,-2.29550861289562,-0.000983906192813,,1.0966992586730182,,
