TimeLabel,MEAS1_PPG1,MEAS1_PPG2,MEAS1_PPG3,MEAS1_PPG4,ACCX,ACCY,ACCZ,HR_timestamp,HR_value,radar_timestamp,phase_rx0,phase_rx1,phase_rx2,timestep,n_process,original_rate,calculated_rate
2025-07-01 21:44:03,3612.0,816.0,2319.0,1003.0,1721.0,3047.0,1901.0,2025-07-01 21:44:03,80.0,2025/07/01 09:44:03 PM,0.0905139249766505,-0.827700794961607,0.276409606193946,2025/07/01 09:44:03 PM,-3.0630347281086454,16.901409149169922,17.6545842217484
,3613.0,818.0,2323.0,1004.0,1731.0,3058.0,1889.0,2025-07-01 21:44:04,80.0,,0.0905089043848284,-0.827774893999154,0.276639979456253,2025/07/01 09:44:13 PM,-2.7421826482766174,17.229001998901367,18.28619909502262
,3614.0,818.0,2321.0,1007.0,1742.0,3049.0,1907.0,2025-07-01 21:44:05,80.0,,0.0905164631889262,-0.82773335226296,0.276761203405486,2025/07/01 09:44:23 PM,-2.393800849243809,17.991004943847656,19.28811443932411
,3616.0,819.0,2323.0,1009.0,1748.0,3052.0,1903.0,2025-07-01 21:44:06,80.0,,0.090517311027679,-0.827625389397283,0.276929125701617,2025/07/01 09:44:33 PM,-2.0229464500767587,18.461538314819336,18.77182926363255
,3615.0,818.0,2324.0,1005.0,1738.0,3048.0,1897.0,2025-07-01 21:44:07,80.0,,0.0905220259645539,-0.827601978451499,0.276807319622873,2025/07/01 09:44:43 PM,-1.6350709254513751,18.83830451965332,18.855459057071965
,3617.0,818.0,2324.0,1007.0,1732.0,3050.0,1889.0,2025-07-01 21:44:08,80.0,,0.0905203351286147,-0.82778713155857,0.276874239533982,2025/07/01 09:44:53 PM,-1.2356509141167145,19.36872291564941,18.379961663543735
,3612.0,819.0,2322.0,1007.0,1739.0,3057.0,1884.0,2025-07-01 21:44:08,80.0,,0.0905203842912427,-0.82744410696392,0.276984788087208,2025/07/01 09:45:03 PM,-0.8298227454973137,18.987340927124023,19.46060285563194
,3608.0,818.0,2319.0,1002.0,1734.0,3059.0,1873.0,2025-07-01 21:44:09,80.0,,0.0905279416042622,-0.827296249872791,0.277361733250925,2025/07/01 09:45:13 PM,-0.42205903160819813,18.894332885742188,18.75000000000001
,3603.0,816.0,2315.0,998.0,1748.0,3056.0,1875.0,2025-07-01 21:44:11,80.0,,0.0905293688773143,-0.827175359538115,0.277288794077948,2025/07/01 09:45:23 PM,-0.015920879166626302,18.90756225585937,19.106396657023463
,3594.0,811.0,2313.0,995.0,1739.0,3050.0,1880.0,2025-07-01 21:44:11,80.0,,0.0905269598517586,-0.826881113462714,0.277552043348948,2025/07/01 09:45:33 PM,0.38608859987848415,19.10828018188477,19.516003122560505
,3589.0,812.0,2312.0,993.0,1720.0,3053.0,1887.0,2025-07-01 21:44:12,80.0,,0.0905276745633072,-0.826977301247192,0.277042680080601,2025/07/01 09:45:43 PM,0.7825536742059668,19.258201599121094,20.463871543264915
,3578.0,809.0,2304.0,992.0,1725.0,3044.0,1883.0,2025-07-01 21:44:13,80.0,,0.090536871763195,-0.826739530220788,0.277268820521491,2025/07/01 09:45:53 PM,1.1730533655002864,19.59361457824707,19.7886509693553
,3572.0,809.0,2299.0,987.0,1729.0,3037.0,1917.0,2025-07-01 21:44:14,81.0,,0.0905366593492877,-0.826642095241138,0.277512358063945,2025/07/01 09:46:03 PM,1.5579529964426215,20.0,20.457324004142563
,3568.0,807.0,2296.0,986.0,1721.0,3036.0,1919.0,2025-07-01 21:44:16,81.0,,0.0905344095344547,-0.826704370389364,0.277520556880512,2025/07/01 09:46:13 PM,1.938096817554449,20.761245727539062,19.378867366155536
,3563.0,805.0,2295.0,983.0,1722.0,3037.0,1900.0,2025-07-01 21:44:17,81.0,,0.0905327840318673,-0.826272261936619,0.277543364917047,2025/07/01 09:46:23 PM,2.3144284599780103,20.013341903686523,20.24158757549611
,3558.0,802.0,2292.0,981.0,1730.0,3036.0,1894.0,2025-07-01 21:44:17,82.0,,0.090533034632198,-0.826698173780925,0.277262422767649,2025/07/01 09:46:33 PM,2.6875742292131326,20.119224548339844,19.658802621920596
,3554.0,804.0,2288.0,980.0,1729.0,3037.0,1886.0,2025-07-01 21:44:19,82.0,,0.0905365934379754,-0.826260518561647,0.277784825293108,2025/07/01 09:46:43 PM,3.057429887493804,19.551050186157227,20.388615216201437
,3554.0,800.0,2285.0,977.0,1725.0,3042.0,1882.0,2025-07-01 21:44:20,83.0,,0.09053955524665,-0.82623555653094,0.277629327318457,2025/07/01 09:46:53 PM,3.4227934965235622,20.013341903686523,20.72665604604549
,3549.0,800.0,2285.0,977.0,1733.0,3055.0,1874.0,2025-07-01 21:44:21,83.0,,0.0905366121879772,-0.826251702855804,0.277591299213027,,3.781084553303693,,
,3549.0,802.0,2286.0,975.0,1736.0,3057.0,1858.0,2025-07-01 21:44:21,84.0,,0.0905386468991667,-0.826179377716183,0.277585605858125,,4.128183211954644,,
,3547.0,800.0,2283.0,976.0,1742.0,3053.0,1860.0,2025-07-01 21:44:22,84.0,,0.090543762849421,-0.826497261790168,0.277691014411883,,4.458413498399474,,
,3548.0,802.0,2284.0,977.0,1747.0,3049.0,1871.0,2025-07-01 21:44:23,85.0,,0.0905396165560002,-0.826202735636958,0.277911481404066,,4.7646819617029035,,
,3549.0,799.0,2283.0,975.0,1743.0,3048.0,1871.0,2025-07-01 21:44:25,86.0,,0.090543585702902,-0.826498687683167,0.278137712504863,,5.038769182822112,,
,3546.0,802.0,2285.0,978.0,1741.0,3046.0,1887.0,2025-07-01 21:44:25,85.0,,0.0905446665045493,-0.825951436964147,0.277833239606399,,5.271757191048311,,
,3546.0,803.0,2284.0,976.0,1738.0,3046.0,1886.0,2025-07-01 21:44:26,85.0,,0.0905419463106415,-0.825949920992365,0.278007436467326,,5.454562460338205,,
,3546.0,800.0,2281.0,976.0,1734.0,3054.0,1882.0,2025-07-01 21:44:28,85.0,,0.0905443205742957,-0.82602173235334,0.278090256547869,,5.578533043012506,,
,3545.0,796.0,2279.0,977.0,1727.0,3057.0,1887.0,2025-07-01 21:44:28,85.0,,0.0905449417848834,-0.826084803419182,0.278051491449798,,5.636060630482499,,
,3545.0,800.0,2281.0,978.0,1736.0,3054.0,1881.0,2025-07-01 21:44:29,85.0,,0.0905463961215753,-0.825857102814195,0.277848912264622,,5.621154825197989,,
,3548.0,801.0,2280.0,978.0,1733.0,3056.0,1884.0,2025-07-01 21:44:31,85.0,,0.0905432279558124,-0.826082550418777,0.278210655904463,,5.529928380247673,,
,3549.0,799.0,2284.0,979.0,1731.0,3052.0,1889.0,2025-07-01 21:44:31,86.0,,0.0905464581368162,-0.825684171160935,0.278228730707821,,5.360948911754314,,
,3547.0,799.0,2282.0,976.0,1735.0,3046.0,1911.0,2025-07-01 21:44:32,87.0,,0.0905469067435992,-0.825435520431512,0.27824437654764,,5.1154242205490394,,
,3546.0,800.0,2284.0,977.0,1754.0,3044.0,1881.0,2025-07-01 21:44:34,87.0,,0.0905485623049028,-0.825454296867862,0.277947406602722,,4.797203730946289,,
,3549.0,802.0,2283.0,979.0,1745.0,3038.0,1883.0,2025-07-01 21:44:34,88.0,,0.0905502315536805,-0.8252400717251,0.277902637881213,,4.412596036234919,,
,3549.0,801.0,2282.0,978.0,1753.0,3034.0,1887.0,2025-07-01 21:44:36,88.0,,0.0905512275411134,-0.825721056296109,0.278042130291579,,3.9700203037916113,,
,3547.0,800.0,2283.0,977.0,1726.0,3036.0,1892.0,2025-07-01 21:44:36,88.0,,0.0905518300338901,-0.825586171462372,0.278234781685958,,3.4795253421637193,,
,3548.0,800.0,2281.0,976.0,1734.0,3046.0,1894.0,2025-07-01 21:44:37,87.0,,0.090551659277799,-0.825318378410186,0.278112990727724,,2.952222294531897,,
,3549.0,801.0,2282.0,976.0,1737.0,3045.0,1892.0,2025-07-01 21:44:38,87.0,,0.0905511431709563,-0.825403087713194,0.278313655476253,,2.399683216668065,,
,3549.0,800.0,2284.0,980.0,1732.0,3043.0,1896.0,2025-07-01 21:44:40,87.0,,0.0905505151810456,-0.825016682619383,0.278232594865171,,1.8333571888777824,,
,3549.0,802.0,2281.0,979.0,1738.0,3042.0,1896.0,2025-07-01 21:44:41,88.0,,0.0905553980161051,-0.825332306488046,0.277977393814589,,1.2640485578132072,,
,3548.0,799.0,2283.0,976.0,1741.0,3042.0,1894.0,2025-07-01 21:44:41,88.0,,0.0905508885672711,-0.825641240726911,0.278210049871626,,0.7014901556902698,,
,3548.0,799.0,2283.0,980.0,1731.0,3041.0,1898.0,2025-07-01 21:44:42,88.0,,0.0905500323253448,-0.825451489103314,0.278002216134578,,0.1540302648063518,,
,3548.0,800.0,2282.0,978.0,1733.0,3041.0,1894.0,2025-07-01 21:44:44,88.0,,0.0905460397719713,-0.825449706548387,0.278032952646545,,-0.3715618477848718,,
,3549.0,798.0,2283.0,978.0,1728.0,3041.0,1897.0,2025-07-01 21:44:44,88.0,,0.0905533226350288,-0.825764157532471,0.278055981810619,,-0.8701784802269722,,
,3550.0,797.0,2280.0,978.0,1735.0,3034.0,1921.0,2025-07-01 21:44:45,87.0,,0.0905507664181528,-0.826265560008046,0.277619416700536,,-1.3383580120977236,,
,3546.0,797.0,2279.0,978.0,1725.0,3042.0,1911.0,2025-07-01 21:44:47,87.0,,0.0905496886756811,-0.825738714932085,0.277570341930272,,-1.774187668763779,,
,3550.0,800.0,2282.0,978.0,1732.0,3048.0,1903.0,2025-07-01 21:44:48,86.0,,0.0905480797243172,-0.825918784852013,0.277505546097861,,-2.1771394910421398,,
,3549.0,804.0,2282.0,980.0,1733.0,3044.0,1894.0,2025-07-01 21:44:49,85.0,,0.0905464669148958,-0.826081008828878,0.277509437078793,,-2.547851752351628,,
,3548.0,799.0,2281.0,978.0,1726.0,3053.0,1874.0,2025-07-01 21:44:50,85.0,,0.090542021157167,-0.826032487636663,0.277191186262756,,-2.887866229186669,,
,3550.0,797.0,2281.0,978.0,1742.0,3049.0,1887.0,2025-07-01 21:44:50,85.0,,0.0905399348157714,-0.826608901502806,0.277031289067488,,-3.1993318418102983,,
,3549.0,800.0,2283.0,978.0,1726.0,3046.0,1893.0,2025-07-01 21:44:51,84.0,,0.0905471672886266,-0.826857182747633,0.277002933350787,,-3.4846869934738787,,
,3550.0,798.0,2283.0,980.0,1734.0,3045.0,1887.0,2025-07-01 21:44:53,84.0,,0.0905455815770488,-0.826999212133055,0.27700633143345,,-3.7463355676668018,,
,3549.0,800.0,2282.0,981.0,1738.0,3040.0,1891.0,2025-07-01 21:44:53,84.0,,0.0905455887384791,-0.827335407291589,0.276962354742638,,-3.986334166189484,,
,3550.0,799.0,2281.0,980.0,1729.0,3044.0,1882.0,2025-07-01 21:44:55,84.0,,0.0905424434577178,-0.826998182007161,0.27706186569193,,-4.206110215361101,,
,3551.0,796.0,2283.0,980.0,1738.0,3045.0,1890.0,2025-07-01 21:44:56,84.0,,0.090537842797231,-0.827548524664055,0.27686529020486,,-4.406231567032004,,
,3551.0,798.0,2283.0,980.0,1741.0,3043.0,1898.0,2025-07-01 21:44:56,84.0,,0.090536572952292,-0.827115532002443,0.276768828354937,,-4.58624771576731,,
,3554.0,799.0,2284.0,984.0,1740.0,3046.0,1888.0,2025-07-01 21:44:57,84.0,,0.0905340024482241,-0.827967749364822,0.276715445475377,,-4.74462035282839,,
,3554.0,799.0,2281.0,980.0,1750.0,3046.0,1863.0,2025-07-01 21:44:58,84.0,,0.0905347633523613,-0.82719095472725,0.276772241735302,,-4.878756356682346,,
,3553.0,799.0,2283.0,980.0,1754.0,3048.0,1885.0,2025-07-01 21:44:59,83.0,,0.0905338071188771,-0.828205056575254,0.276645991520803,,-4.985149163594195,,
,3555.0,801.0,2285.0,983.0,1748.0,3051.0,1892.0,2025-07-01 21:45:01,83.0,,0.0905311911993927,-0.828006961131003,0.276442615372348,,-5.0596247067701094,,
,3557.0,800.0,2285.0,983.0,1745.0,3047.0,1893.0,2025-07-01 21:45:01,83.0,,0.0905285340351498,-0.82848962755338,0.276016698475597,,-5.0976765181397115,,
,3560.0,800.0,2285.0,984.0,1736.0,3043.0,1860.0,2025-07-01 21:45:02,84.0,,0.0905346032824744,-0.827701662288586,0.276332147351373,,-5.094862992575123,,
,3561.0,799.0,2284.0,980.0,1745.0,3044.0,1881.0,2025-07-01 21:45:04,84.0,,0.0905339620465711,-0.828090113045403,0.276126531058485,,-5.0472305545478005,,
,3563.0,801.0,2289.0,985.0,1742.0,3050.0,1873.0,2025-07-01 21:45:04,84.0,,0.090533954985349,-0.827946315354321,0.276399177759399,,-4.951721384078061,,
,3564.0,803.0,2288.0,984.0,1737.0,3048.0,1895.0,2025-07-01 21:45:05,84.0,,0.0905326921269725,-0.828326460999629,0.276336712829869,,-4.8065242764498315,,
,3566.0,801.0,2287.0,986.0,1736.0,3048.0,1898.0,2025-07-01 21:45:06,84.0,,0.0905334486417946,-0.828661103043441,0.276266881209914,,-4.611332096929918,,
,3567.0,800.0,2289.0,985.0,1739.0,3043.0,1913.0,2025-07-01 21:45:08,84.0,,0.0905306687793565,-0.828931028191227,0.276022956632074,,-4.367478633835439,,
,3567.0,803.0,2290.0,988.0,1743.0,3049.0,1907.0,2025-07-01 21:45:08,84.0,,0.0905333650836526,-0.829045831583058,0.27592376835357,,-4.077940553397869,,
,3569.0,802.0,2292.0,987.0,1744.0,3040.0,1901.0,2025-07-01 21:45:09,84.0,,0.0905335943247369,-0.829036451667001,0.276069296261782,,-3.7472051703242637,,
,3572.0,803.0,2291.0,989.0,1742.0,3040.0,1890.0,2025-07-01 21:45:11,84.0,,0.0905277955493765,-0.829532971963193,0.275881891276473,,-3.3810198277279153,,
,3574.0,802.0,2292.0,989.0,1747.0,3034.0,1878.0,2025-07-01 21:45:12,84.0,,0.0905341059252133,-0.829199541485588,0.275906670226431,,-2.9860515100815332,,
,3577.0,803.0,2291.0,989.0,1748.0,3040.0,1886.0,2025-07-01 21:45:12,84.0,,0.0905313678327278,-0.829021262422979,0.275960327960263,,-2.5694938117748074,,
,3574.0,803.0,2295.0,990.0,1740.0,3051.0,1874.0,2025-07-01 21:45:13,85.0,,0.0905307262566252,-0.828813331388891,0.276071095940007,,-2.138661176735914,,
,3577.0,804.0,2293.0,992.0,1740.0,3060.0,1893.0,2025-07-01 21:45:15,85.0,,0.0905361505408162,-0.82914665111172,0.2760501380428,,-1.7006071080824878,,
,3578.0,803.0,2294.0,991.0,1739.0,3065.0,1906.0,2025-07-01 21:45:15,86.0,,0.0905312024534977,-0.829070717104195,0.275874698463288,,-1.2617948561918122,,
,3579.0,803.0,2294.0,991.0,1738.0,3047.0,1884.0,2025-07-01 21:45:17,86.0,,0.0905323488204166,-0.828907340795525,0.275653256735846,,-0.8278382310278404,,
,3582.0,804.0,2297.0,992.0,1743.0,3044.0,1887.0,2025-07-01 21:45:17,87.0,,0.0905350178287451,-0.829312349375392,0.275782889872967,,-0.4033195037854918,,
,3586.0,805.0,2297.0,994.0,1751.0,3046.0,1882.0,2025-07-01 21:45:19,87.0,,0.0905366141423344,-0.829791155001278,0.275661836885056,,0.008316828337061604,,
,3586.0,808.0,2297.0,994.0,1753.0,3041.0,1888.0,2025-07-01 21:45:20,87.0,,0.0905319665138201,-0.829551079152027,0.275636266066835,,0.40480030470353223,,
,3584.0,807.0,2298.0,994.0,1761.0,3042.0,1889.0,2025-07-01 21:45:20,88.0,,0.0905351433115033,-0.829690678617518,0.275674245442564,,0.7850080246323202,,
,3590.0,805.0,2298.0,996.0,1759.0,3046.0,1889.0,2025-07-01 21:45:22,88.0,,0.0905375787971583,-0.83001128006013,0.275739018794934,,1.148881662397758,,
,3590.0,808.0,2301.0,997.0,1755.0,3038.0,1887.0,2025-07-01 21:45:23,88.0,,0.090530452574324,-0.829884411102201,0.27547289392983,,1.4972921475332617,,
,3593.0,808.0,2303.0,999.0,1754.0,3037.0,1886.0,2025-07-01 21:45:23,88.0,,0.090528394300745,-0.830388485119994,0.275522719762503,,1.8318544106112697,,
,3595.0,807.0,2301.0,997.0,1758.0,3049.0,1871.0,2025-07-01 21:45:25,88.0,,0.0905272949189347,-0.830075192498718,0.275407766000611,,2.154694244294962,,
,3593.0,806.0,2303.0,996.0,1754.0,3059.0,1872.0,2025-07-01 21:45:26,88.0,,0.0905314347990245,-0.830282522487915,0.275071058864943,,2.4681710155710803,,
,3595.0,806.0,2306.0,999.0,1758.0,3050.0,1888.0,2025-07-01 21:45:26,89.0,,0.090530069094901,-0.830180606784083,0.274834336849946,,2.774563630303766,,
,3600.0,809.0,2305.0,1002.0,1743.0,3045.0,1893.0,2025-07-01 21:45:28,89.0,,0.0905301830723161,-0.830354474564503,0.274872368011586,,3.0757323307232163,,
,3603.0,812.0,2307.0,1001.0,1745.0,3044.0,1887.0,2025-07-01 21:45:29,88.0,,0.0905313608938037,-0.830625288118128,0.27502957445423,,3.37277506085057,,
,3599.0,810.0,2307.0,998.0,1759.0,3045.0,1873.0,2025-07-01 21:45:30,88.0,,0.0905210203232151,-0.831106588052926,0.274903765705587,,3.665703585351988,,
,3603.0,810.0,2310.0,1000.0,1745.0,3040.0,1891.0,2025-07-01 21:45:31,87.0,,0.0905207218054329,-0.830937311575698,0.274752860870297,,3.953170119661731,,
,3608.0,812.0,2308.0,1003.0,1748.0,3044.0,1883.0,2025-07-01 21:45:32,87.0,,0.0905222711259634,-0.830683770522534,0.274746324455925,,4.232278165167038,,
,3608.0,812.0,2311.0,1004.0,1743.0,3041.0,1887.0,2025-07-01 21:45:32,86.0,,0.0905249182316768,-0.83081636413265,0.27448278860161,,4.49850973634965,,
,3609.0,811.0,2312.0,1003.0,1760.0,3046.0,1875.0,2025-07-01 21:45:34,85.0,,0.0905256629530806,-0.830797403079073,0.274457270392899,,4.745794244283395,,
,3609.0,813.0,2311.0,1005.0,1763.0,3041.0,1879.0,2025-07-01 21:45:34,84.0,,0.0905324395784272,-0.830959918885012,0.27454967229834,,4.966732352940495,,
,3612.0,814.0,2314.0,1005.0,1763.0,3041.0,1881.0,2025-07-01 21:45:36,83.0,,0.0905323607543842,-0.831352089413693,0.274600127941622,,5.152972696110027,,
,3614.0,810.0,2314.0,1006.0,1763.0,3039.0,1873.0,2025-07-01 21:45:36,82.0,,0.0905277395038402,-0.831161985550812,0.274202730968556,,5.295722464227263,,
,3616.0,814.0,2312.0,1005.0,1753.0,3047.0,1886.0,2025-07-01 21:45:37,82.0,,0.0905278838378876,-0.831748617566757,0.274434487993005,,5.386356489689998,,
,3616.0,811.0,2316.0,1009.0,1752.0,3041.0,1890.0,2025-07-01 21:45:38,82.0,,0.0905240422264995,-0.831046382116442,0.274414637530785,,5.417075308572698,,
,3620.0,816.0,2318.0,1007.0,1783.0,3039.0,1878.0,2025-07-01 21:45:40,82.0,,0.0905300881698962,-0.831487024030946,0.274376533246667,,5.381552439988533,,
,3623.0,815.0,2317.0,1010.0,1769.0,3042.0,1893.0,2025-07-01 21:45:41,81.0,,0.0905272839607277,-0.831949093955036,0.274061469298749,,5.275506499717131,,
,3626.0,816.0,2316.0,1010.0,1763.0,3041.0,1884.0,2025-07-01 21:45:41,81.0,,0.0905240125545298,-0.831752150723253,0.274073527936936,,5.097136262754235,,
,3622.0,812.0,2317.0,1010.0,1765.0,3048.0,1875.0,2025-07-01 21:45:42,80.0,,0.0905288099476292,-0.831827331703376,0.274198943899103,,4.847367389634273,,
,3621.0,815.0,2317.0,1008.0,1764.0,3047.0,1890.0,2025-07-01 21:45:43,81.0,,0.0905274767563411,-0.832011064727369,0.274154806611027,,4.529878214867506,,
,3622.0,816.0,2318.0,1009.0,1767.0,3053.0,1873.0,2025-07-01 21:45:44,81.0,,0.0905239174152727,-0.831679200695282,0.273810640555194,,4.150897115237672,,
,3623.0,816.0,2317.0,1008.0,1758.0,3055.0,1879.0,2025-07-01 21:45:45,81.0,,0.0905160394337112,-0.831904472703836,0.273842037635675,,3.718791847293494,,
,3616.0,812.0,2316.0,1007.0,1765.0,3059.0,1874.0,2025-07-01 21:45:47,80.0,,0.0905146262998498,-0.832159422993604,0.27404455260185,,3.2434967098487872,,
,3612.0,813.0,2312.0,1003.0,1764.0,3051.0,1877.0,2025-07-01 21:45:47,81.0,,0.0905124975317914,-0.832051706471356,0.273801604947872,,2.735841468477282,,
,3604.0,812.0,2310.0,1002.0,1760.0,3048.0,1885.0,2025-07-01 21:45:49,81.0,,0.0905158249661166,-0.832187177229364,0.273988072872148,,2.2068536358134083,,
,3601.0,811.0,2308.0,999.0,1754.0,3043.0,1885.0,2025-07-01 21:45:50,81.0,,0.0905172882982069,-0.832528014071741,0.273704089581543,,1.6671026688137665,,
,3595.0,807.0,2303.0,997.0,1761.0,3032.0,1888.0,2025-07-01 21:45:50,81.0,,0.090522386243517,-0.832234090862627,0.273596316227466,,1.1261430935529873,,
,3587.0,807.0,2298.0,992.0,1746.0,3033.0,1879.0,2025-07-01 21:45:52,82.0,,0.0905196150715195,-0.832678944941377,0.273440797332821,,0.5920969706903112,,
,3581.0,804.0,2296.0,988.0,1745.0,3025.0,1893.0,2025-07-01 21:45:53,82.0,,0.0905236666630375,-0.833132913839765,0.27325276137132,,0.07139794226029152,,
,3580.0,801.0,2293.0,986.0,1725.0,3024.0,1876.0,2025-07-01 21:45:53,83.0,,0.0905155904215161,-0.833007421091502,0.273256766259082,,-0.4312980552396211,,
,3571.0,802.0,2291.0,985.0,1720.0,3026.0,1879.0,2025-07-01 21:45:55,84.0,,0.0905137272661287,-0.833605444789129,0.273357392352181,,-0.9130450264814685,,
,3567.0,802.0,2288.0,981.0,1730.0,3031.0,1877.0,2025-07-01 21:45:55,84.0,,0.0905128933691504,-0.833332254351629,0.273130512278907,,-1.3724034415355384,,
,3564.0,801.0,2288.0,982.0,1750.0,3039.0,1880.0,2025-07-01 21:45:56,85.0,,0.0905136972659418,-0.833770730985073,0.273269323685777,,-1.8091310115818033,,
,3563.0,802.0,2286.0,982.0,1757.0,3046.0,1884.0,2025-07-01 21:45:58,85.0,,0.0905146024800447,-0.833546427773153,0.273287134228314,,-2.223803016597593,,
,3563.0,798.0,2285.0,982.0,1752.0,3048.0,1893.0,2025-07-01 21:45:58,85.0,,0.0905205926851672,-0.833748797644828,0.272933520411918,,-2.617399318111074,,
,3559.0,800.0,2284.0,978.0,1763.0,3050.0,1887.0,2025-07-01 21:45:59,85.0,,0.090517872613945,-0.833624857122749,0.27291647738717,,-2.9908937291364768,,
,3561.0,799.0,2284.0,980.0,1756.0,3047.0,1886.0,2025-07-01 21:46:01,85.0,,0.0905221599508961,-0.833924140724837,0.272774790798552,,-3.344877599216541,,
,3561.0,800.0,2284.0,977.0,1755.0,3049.0,1868.0,2025-07-01 21:46:02,86.0,,0.0905188351235453,-0.833707922550701,0.272895443531728,,-3.6792445607912954,,
,3557.0,800.0,2282.0,980.0,1753.0,3049.0,1868.0,2025-07-01 21:46:02,86.0,,0.0905144477060153,-0.833770502256702,0.272825125878092,,-3.9929581682993556,,
,3561.0,797.0,2282.0,979.0,1762.0,3047.0,1862.0,2025-07-01 21:46:04,86.0,,0.0905194146980386,-0.834316437895619,0.272586182579206,,-4.283918681986298,,
,3555.0,797.0,2280.0,978.0,1764.0,3043.0,1871.0,2025-07-01 21:46:04,87.0,,0.0905254880338665,-0.834518597284973,0.272503532008662,,-4.54893918502204,,
,3559.0,799.0,2283.0,979.0,1752.0,3046.0,1875.0,2025-07-01 21:46:06,87.0,,0.09051874364549,-0.83444558124959,0.272159307179876,,-4.783834421746097,,
,3561.0,798.0,2284.0,978.0,1766.0,3047.0,1879.0,2025-07-01 21:46:06,87.0,,0.0905227522771866,-0.83462888527802,0.272315315193874,,-4.9836183599749075,,
,3559.0,798.0,2284.0,980.0,1769.0,3049.0,1885.0,2025-07-01 21:46:08,87.0,,0.0905143803446878,-0.834381372737133,0.272229889232955,,-5.1427987955262395,,
,3560.0,797.0,2283.0,980.0,1761.0,3049.0,1888.0,2025-07-01 21:46:08,88.0,,0.0905167169885702,-0.834947594671424,0.272443193357709,,-5.255749639738696,,
,3561.0,797.0,2283.0,981.0,1761.0,3041.0,1896.0,2025-07-01 21:46:10,88.0,,0.0905152807185141,-0.834671312962527,0.272160032087132,,-5.317134301198315,,
2025-07-01 21:44:04,3561.0,799.0,2284.0,983.0,1763.0,3044.0,1882.0,2025-07-01 21:46:11,89.0,2025/07/01 09:44:04 PM,0.0904994330201584,-0.834358939866148,0.272024380322826,,-5.322347460446799,,
,3566.0,799.0,2286.0,982.0,1767.0,3043.0,1875.0,2025-07-01 21:46:12,90.0,,0.0905020136186786,-0.834794045585963,0.271877115008305,,-5.267938335759983,,
,3562.0,797.0,2287.0,983.0,1749.0,3036.0,1908.0,2025-07-01 21:46:12,91.0,,0.0904992024264112,-0.834786816676124,0.271971019955661,,-5.151977022007975,,
,3563.0,800.0,2285.0,981.0,1767.0,3036.0,1916.0,2025-07-01 21:46:13,91.0,,0.0904935814542727,-0.834970453892849,0.271887724856164,,-4.9743274210548405,,
,3568.0,798.0,2288.0,982.0,1771.0,3042.0,1878.0,2025-07-01 21:46:14,92.0,,0.0904921875845283,-0.83541820363305,0.271687843631227,,-4.736796463840794,,
,3565.0,800.0,2287.0,983.0,1781.0,3042.0,1894.0,2025-07-01 21:46:15,92.0,,0.0905033767727881,-0.835488169217935,0.271627095845666,,-4.443140196280838,,
,3569.0,801.0,2290.0,983.0,1771.0,3046.0,1897.0,2025-07-01 21:46:17,92.0,,0.0905106184830296,-0.835426057072515,0.271637061683308,,-4.0989221629919985,,
,3563.0,797.0,2288.0,982.0,1765.0,3040.0,1901.0,2025-07-01 21:46:17,91.0,,0.0905032973532152,-0.835507300593365,0.271471270325316,,-3.711236053626371,,
,3566.0,799.0,2290.0,984.0,1761.0,3036.0,1895.0,2025-07-01 21:46:18,90.0,,0.0904995287966027,-0.8360562853326,0.271088694540544,,-3.288319447122933,,
,3564.0,799.0,2284.0,984.0,1764.0,3035.0,1886.0,2025-07-01 21:46:19,91.0,,0.0905041854606491,-0.83570868205867,0.270953342087333,,-2.8390957750096626,,
,3568.0,799.0,2286.0,985.0,1763.0,3036.0,1885.0,2025-07-01 21:46:20,91.0,,0.0905017190105825,-0.836372359010996,0.270813267387966,,-2.372685929281708,,
,3568.0,802.0,2289.0,984.0,1752.0,3041.0,1885.0,2025-07-01 21:46:21,91.0,,0.0904983026643369,-0.836686257525181,0.27102967538415,,-1.897929569051668,,
,3567.0,798.0,2286.0,983.0,1757.0,3040.0,1891.0,2025-07-01 21:46:23,91.0,,0.0904973463485368,-0.837328880341589,0.270437005681683,,-1.4229506014956823,,
,3565.0,798.0,2286.0,982.0,1741.0,3040.0,1887.0,2025-07-01 21:46:23,91.0,,0.0904917816400922,-0.837506084840096,0.270310962724977,,-0.9547934601165361,,
,3564.0,799.0,2289.0,981.0,1742.0,3038.0,1893.0,2025-07-01 21:46:25,91.0,,0.0904889810829229,-0.837803967570738,0.269687671214182,,-0.49914852423304357,,
,3566.0,800.0,2286.0,981.0,1737.0,3042.0,1886.0,2025-07-01 21:46:25,90.0,,0.0904881321326744,-0.838237043044948,0.269723138687735,,-0.06017764796594587,,
,3566.0,798.0,2283.0,979.0,1746.0,3043.0,1886.0,2025-07-01 21:46:26,90.0,,0.0904850106702898,-0.838059543089609,0.269445548346352,,0.3595552334888386,,
,3565.0,797.0,2286.0,982.0,1741.0,3041.0,1894.0,2025-07-01 21:46:28,89.0,,0.0904821313523506,-0.83913898109536,0.269056890343679,,0.7590484778676816,,
,3564.0,800.0,2286.0,981.0,1766.0,3041.0,1888.0,2025-07-01 21:46:28,89.0,,0.0904795314423973,-0.839454665085807,0.269105081499607,,1.1387269168306575,,
,3566.0,799.0,2287.0,983.0,1766.0,3046.0,1878.0,2025-07-01 21:46:29,88.0,,0.0904782198852417,-0.839348701082468,0.268675555645526,,1.5002154339859786,,
,3567.0,799.0,2285.0,981.0,1774.0,3036.0,1887.0,2025-07-01 21:46:31,88.0,,0.090475917290662,-0.83990030646734,0.268358927616403,,1.846035844799139,,
,3568.0,800.0,2287.0,979.0,1779.0,3034.0,1886.0,2025-07-01 21:46:32,89.0,,0.0904676026077615,-0.839712860174232,0.26832813402554,,2.179244290734436,,
,3569.0,801.0,2287.0,983.0,1779.0,3039.0,1883.0,2025-07-01 21:46:33,89.0,,0.090466862903553,-0.839956329467697,0.26828818200088,,2.5030286274964144,,
,3571.0,801.0,2289.0,983.0,1782.0,3033.0,1892.0,2025-07-01 21:46:34,89.0,,0.0904660154279366,-0.84026057156572,0.268279173840271,,2.820287020343015,,
,3571.0,799.0,2287.0,984.0,1764.0,3032.0,1879.0,2025-07-01 21:46:34,90.0,,0.0904580915273095,-0.840531380269512,0.267743313191486,,3.133210716542211,,
,3569.0,797.0,2288.0,981.0,1782.0,3037.0,1882.0,2025-07-01 21:46:36,89.0,,0.0904605041700901,-0.840969098400845,0.267779483957367,,3.4428958983065936,,
,3573.0,801.0,2289.0,985.0,1777.0,3046.0,1878.0,2025-07-01 21:46:37,89.0,,0.0904572690323614,-0.841332842586772,0.267651562473051,,3.749011256841061,,
,3574.0,800.0,2289.0,984.0,1767.0,3049.0,1890.0,2025-07-01 21:46:38,89.0,,0.0904641083410908,-0.841479851931795,0.267600512745756,,4.049548746299128,,
,3574.0,802.0,2291.0,986.0,1766.0,3045.0,1892.0,2025-07-01 21:46:39,89.0,,0.0904574692210906,-0.841538730118546,0.267440711680062,,4.340684036313301,,
,3574.0,800.0,2289.0,985.0,1769.0,3038.0,1883.0,2025-07-01 21:46:39,89.0,,0.0904546244585179,-0.841600369897141,0.267213481422452,,4.616769750297385,,
,3575.0,802.0,2289.0,988.0,1761.0,3041.0,1901.0,2025-07-01 21:46:40,89.0,,0.0904540613784981,-0.841502957775551,0.266989367298135,,4.870478282737373,,
,3581.0,802.0,2290.0,989.0,1767.0,3045.0,1907.0,2025-07-01 21:46:42,89.0,,0.0904516042727345,-0.841737250648761,0.267251255262938,,5.093101958052184,,
,3580.0,803.0,2291.0,990.0,1768.0,3049.0,1906.0,2025-07-01 21:46:42,89.0,,0.0904507614735963,-0.841979098775788,0.267033882791724,,5.275006917790503,,
,3580.0,802.0,2294.0,990.0,1755.0,3041.0,1911.0,2025-07-01 21:46:44,89.0,,0.0904431077312587,-0.841786456486598,0.267003301758278,,5.406223652356168,,
,3583.0,802.0,2294.0,989.0,1771.0,3045.0,1914.0,2025-07-01 21:46:44,90.0,,0.0904426910031033,-0.841984089228176,0.26666487945598,,5.477141721941517,,
,3583.0,802.0,2295.0,990.0,1754.0,3051.0,1882.0,2025-07-01 21:46:45,89.0,,0.0904380301027926,-0.842244258706617,0.26683772365719,,5.479259895697545,,
,3586.0,804.0,2294.0,990.0,1753.0,3045.0,1881.0,2025-07-01 21:46:47,88.0,,0.0904278860005166,-0.842432466532822,0.266917327883869,,5.405928155019113,,
,3587.0,804.0,2296.0,994.0,1763.0,3043.0,1890.0,2025-07-01 21:46:47,87.0,,0.0904273075527146,-0.842427117597141,0.266450897412717,,5.253008469939289,,
,3587.0,801.0,2299.0,994.0,1765.0,3040.0,1893.0,2025-07-01 21:46:49,86.0,,0.0904284326321629,-0.842531990717954,0.266709942765941,,5.019380593202067,,
,3588.0,804.0,2298.0,992.0,1767.0,3043.0,1894.0,2025-07-01 21:46:50,85.0,,0.0904249824509028,-0.842806917516691,0.266458584067787,,4.707229354685196,,
,3593.0,805.0,2297.0,994.0,1769.0,3037.0,1898.0,2025-07-01 21:46:50,85.0,,0.0904297743144595,-0.8429935339918,0.266341705989153,,4.3220706605934796,,
,3592.0,804.0,2298.0,994.0,1762.0,3037.0,1900.0,2025-07-01 21:46:52,84.0,,0.0904220955578404,-0.843129054542629,0.266289404866749,,3.8725017830788797,,
,3592.0,806.0,2298.0,995.0,1772.0,3030.0,1866.0,2025-07-01 21:46:52,83.0,,0.0904238200038501,-0.842831208680886,0.265997269884632,,3.3696930331571187,,
,3595.0,802.0,2300.0,994.0,1770.0,3038.0,1880.0,2025-07-01 21:46:53,83.0,,0.0904261004883634,-0.843021101966978,0.2661582482797,,2.8266674092561703,,
,3597.0,807.0,2302.0,996.0,1749.0,3048.0,1886.0,2025-07-01 21:46:55,83.0,,0.0904202560361596,-0.843390220469656,0.265585618784778,,2.2574379134232485,,
,3599.0,807.0,2303.0,998.0,1748.0,3043.0,1889.0,2025-07-01 21:46:55,83.0,,0.0904220669857913,-0.843109420920838,0.265845448693254,,1.6760863432190767,,
,3599.0,804.0,2302.0,994.0,1776.0,3038.0,1905.0,2025-07-01 21:46:57,83.0,,0.0904174748755993,-0.843102221520348,0.265397115594112,,1.0958717999836538,,
,3602.0,807.0,2301.0,997.0,1786.0,3041.0,1894.0,2025-07-01 21:46:58,83.0,,0.0904127041664764,-0.843362285223591,0.265808081465397,,0.5284521992871317,,
,3605.0,809.0,2305.0,1001.0,1767.0,3042.0,1906.0,2025-07-01 21:46:58,83.0,,0.0904101201782293,-0.843924915415914,0.265634629434004,,-0.016711678140923853,,
,3606.0,809.0,2304.0,998.0,1764.0,3040.0,1905.0,2025-07-01 21:46:59,82.0,,0.0904118690042418,-0.844101670585354,0.2652194451373,,-0.5327213380029527,,
,3606.0,809.0,2303.0,998.0,1763.0,3040.0,1893.0,2025-07-01 21:47:00,82.0,,0.0904037421705381,-0.844237362450663,0.26536463171878,,-1.0153528816562118,,
,3605.0,808.0,2305.0,999.0,1759.0,3035.0,1888.0,2025-07-01 21:47:01,82.0,,0.0904050951942493,-0.844748975991665,0.265089142083446,,-1.4629218515127314,,
,3609.0,809.0,2306.0,1002.0,1765.0,3036.0,1883.0,,,,0.0904035370768499,-0.844545289822813,0.264825334146523,,-1.8759308839358992,,
,3611.0,812.0,2307.0,999.0,1765.0,3033.0,1886.0,,,,0.0904032382207678,-0.844557264293499,0.26469340208348,,-2.2565500226601163,,
,3610.0,812.0,2312.0,1001.0,1768.0,3033.0,1884.0,,,,0.0904026029608882,-0.844634265519289,0.264648461633154,,-2.6079922617516385,,
,3615.0,808.0,2312.0,1005.0,1764.0,3032.0,1881.0,,,,0.0903929267099374,-0.845428755563715,0.264345694202824,,-2.9338521423208612,,
,3616.0,812.0,2312.0,1002.0,1770.0,3040.0,1874.0,,,,0.0903995848653053,-0.845024426386128,0.264410045197643,,-3.2374731674683495,,
,3618.0,812.0,2311.0,1003.0,1769.0,3044.0,1887.0,,,,0.090396569761965,-0.845105000165447,0.26403573942563,,-3.5214013747997215,,
,3620.0,812.0,2312.0,1005.0,1767.0,3046.0,1890.0,,,,0.0903958030773528,-0.845132812377286,0.264025241572841,,-3.7869693307846535,,
,3620.0,811.0,2315.0,1005.0,1775.0,3044.0,1863.0,,,,0.0903956258662193,-0.84523723251122,0.263908576000627,,-4.0340391176687564,,
,3620.0,810.0,2313.0,1003.0,1768.0,3047.0,1879.0,,,,0.090397776363077,-0.845982104175434,0.26369439868901,,-4.260916404251369,,
,3623.0,812.0,2316.0,1006.0,1769.0,3042.0,1890.0,,,,0.0903886107701471,-0.845917974590907,0.263586014976034,,-4.464431961432082,,
,3628.0,815.0,2319.0,1007.0,1768.0,3033.0,1898.0,,,,0.0903855602042282,-0.845902990779872,0.264074617517953,,-4.640173365109707,,
,3627.0,815.0,2317.0,1008.0,1767.0,3032.0,1892.0,,,,0.0903908188055907,-0.846467871126651,0.263577556759344,,-4.78283914067788,,
,3629.0,814.0,2318.0,1009.0,1752.0,3041.0,1895.0,,,,0.0903843321073376,-0.846316244559028,0.263371592627755,,-4.886680555663459,,
,3630.0,813.0,2318.0,1008.0,1769.0,3047.0,1899.0,,,,0.0903868150752231,-0.846511987284645,0.263388895329777,,-4.945992262711288,,
,3630.0,816.0,2320.0,1010.0,1778.0,3049.0,1888.0,,,,0.0903839145309849,-0.846945898915431,0.263180116432351,,-4.955611350639164,,
,3633.0,816.0,2321.0,1010.0,1772.0,3049.0,1881.0,,,,0.0903847314387899,-0.846870106711985,0.263030741131498,,-4.911384632002083,,
,3625.0,814.0,2319.0,1008.0,1764.0,3067.0,1888.0,,,,0.0903803067439913,-0.84683557858653,0.263040353411476,,-4.810566334955291,,
,3627.0,812.0,2319.0,1006.0,1784.0,3054.0,1896.0,,,,0.0903796286060201,-0.847266290266355,0.262498887481791,,-4.652113409270402,,
,3622.0,814.0,2317.0,1006.0,1762.0,3053.0,1886.0,,,,0.0903782394092764,-0.847309995207769,0.262619376989541,,-4.436853904336268,,
,3618.0,812.0,2314.0,1003.0,1778.0,3047.0,1892.0,,,,0.0903803567242755,-0.847885095917714,0.262512592710058,,-4.1675151363357585,,
,3610.0,812.0,2310.0,998.0,1779.0,3041.0,1899.0,,,,0.0903753934184344,-0.847672151160493,0.262092381121328,,-3.8486116001635686,,
,3602.0,811.0,2305.0,993.0,1770.0,3032.0,1897.0,,,,0.090377521774985,-0.847945187400176,0.262292038799528,,-3.4862060492912565,,
,3596.0,805.0,2304.0,990.0,1764.0,3034.0,1897.0,,,,0.0903775327595552,-0.847684990003335,0.262324506955828,,-3.087568678993508,,
,3589.0,806.0,2300.0,989.0,1756.0,3027.0,1884.0,,,,0.0903720379880531,-0.848167287893865,0.262164419959118,,-2.6607669579732756,,
,3581.0,800.0,2295.0,985.0,1762.0,3029.0,1884.0,,,,0.0903743648646271,-0.848317329392334,0.262088949805192,,-2.2142215616577268,,
,3575.0,804.0,2291.0,985.0,1747.0,3037.0,1880.0,,,,0.090373120605148,-0.848356664812528,0.26165817525656,,-1.7562627412880834,,
,3571.0,801.0,2290.0,982.0,1753.0,3032.0,1877.0,,,,0.0903739025873357,-0.848634723633084,0.261938382437431,,-1.2947177669143006,,
,3566.0,801.0,2287.0,979.0,1753.0,3033.0,1886.0,,,,0.0903720274200741,-0.848773299716838,0.261495001937905,,-0.8365550522063444,,
,3564.0,801.0,2286.0,980.0,1762.0,3039.0,1890.0,,,,0.0903759991581963,-0.848559098541864,0.261876853108241,,-0.38760487196240584,,
,3561.0,798.0,2285.0,980.0,1758.0,3051.0,1869.0,,,,0.0903686846048879,-0.848851085292818,0.261715183233967,,0.0476294523036187,,
,3560.0,797.0,2282.0,974.0,1768.0,3041.0,1870.0,,,,0.0903740260990627,-0.849138528288989,0.261546972017575,,0.4660621006178261,,
,3558.0,797.0,2281.0,977.0,1767.0,3045.0,1874.0,,,,0.0903745100147898,-0.849155002451485,0.261474081556485,,0.8660150139671636,,
,3561.0,800.0,2281.0,978.0,1780.0,3045.0,1886.0,,,,0.0903751478227246,-0.849398162697914,0.261498430887912,,1.247111034650937,,
,3557.0,796.0,2280.0,977.0,1777.0,3049.0,1877.0,,,,0.0903708235887117,-0.849447739764452,0.261233661185314,,1.6100776067357725,,
,3555.0,797.0,2279.0,974.0,1767.0,3047.0,1857.0,,,,0.0903643788211585,-0.849601894541526,0.261214300647217,,1.956472671523551,,
,3556.0,797.0,2282.0,976.0,1778.0,3054.0,1858.0,,,,0.0903650647016465,-0.849664498793991,0.261296535902919,,2.28834819038836,,
,3555.0,795.0,2280.0,975.0,1758.0,3049.0,1858.0,,,,0.0903631243149839,-0.849887639931952,0.260935039292403,,2.6078709494388455,,
,3555.0,794.0,2279.0,974.0,1756.0,3046.0,1866.0,,,,0.0903605555783183,-0.850102415739413,0.260701964193491,,2.916925248641075,,
,3555.0,795.0,2278.0,975.0,1771.0,3038.0,1879.0,,,,0.0903605555745615,-0.849901221318918,0.260980094541289,,3.216727073303542,,
,3554.0,795.0,2280.0,973.0,1772.0,3046.0,1883.0,,,,0.090358001468819,-0.849289866101664,0.260725938532156,,3.5074826307398514,,
,3554.0,797.0,2282.0,977.0,1762.0,3040.0,1906.0,,,,0.0903655334984477,-0.849869710816364,0.260623680532583,,3.788123860541285,,
,3557.0,798.0,2281.0,975.0,1768.0,3044.0,1888.0,,,,0.0903664628747543,-0.849709177908265,0.260856996151862,,4.056149009613022,,
,3556.0,798.0,2282.0,978.0,1772.0,3039.0,1887.0,,,,0.090366225904907,-0.849999490160617,0.260469578647774,,4.307588364652872,,
,3553.0,796.0,2279.0,973.0,1766.0,3041.0,1912.0,,,,0.0903679959795842,-0.850282443698626,0.260727699982045,,4.5371051452574624,,
,3556.0,798.0,2282.0,977.0,1757.0,3037.0,1904.0,,,,0.0903628897223477,-0.850020163303055,0.260544852390633,,4.738230492247643,,
,3558.0,799.0,2280.0,975.0,1742.0,3035.0,1905.0,,,,0.0903617801073109,-0.850570618010874,0.260574413270615,,4.903720101107445,,
,3556.0,796.0,2284.0,974.0,1761.0,3034.0,1906.0,,,,0.0903591252470921,-0.850815220571417,0.260571811951721,,5.026008958328728,,
,3555.0,797.0,2280.0,977.0,1765.0,3032.0,1892.0,,,,0.0903597160257222,-0.850944158997856,0.260196461549716,,5.0977306727645155,,
,3558.0,794.0,2283.0,977.0,1763.0,3040.0,1902.0,,,,0.0903621782296774,-0.850501451590798,0.260422063007827,,5.112260058375536,,
,3558.0,797.0,2281.0,976.0,1761.0,3043.0,1907.0,,,,0.0903589088353095,-0.850799879615372,0.260206264120705,,5.064233003169855,,
,3557.0,798.0,2283.0,977.0,1755.0,3039.0,1902.0,,,,0.0903552628637183,-0.850996711986976,0.259900052478442,,4.9499973556017265,,
,3556.0,796.0,2282.0,976.0,1770.0,3041.0,1904.0,,,,0.0903521537716432,-0.85106353837382,0.259755077352233,,4.767953345119061,,
,3556.0,798.0,2280.0,977.0,1750.0,3047.0,1898.0,,,,0.090350442402099,-0.851492610961167,0.259861532833094,,4.518751759729908,,
,3558.0,796.0,2283.0,977.0,1773.0,3037.0,1899.0,,,,0.0903533369194646,-0.851872125478046,0.259810382246891,,4.205331414504159,,
,3555.0,798.0,2281.0,976.0,1772.0,3037.0,1890.0,,,,0.0903436616415776,-0.852131443731482,0.259606476859546,,3.8327924493794647,,
,3555.0,796.0,2280.0,977.0,1766.0,3044.0,1895.0,,,,0.0903387548660419,-0.852480534709307,0.259405513365699,,3.408116954532337,,
,3553.0,797.0,2279.0,975.0,1749.0,3041.0,1908.0,,,,0.090334023344201,-0.852520950874841,0.258730148628949,,2.939762067586165,,
,3556.0,796.0,2280.0,976.0,1764.0,3038.0,1911.0,,,,0.0903303049214405,-0.853201875772983,0.258537261206061,,2.4371620024677396,,
,3555.0,799.0,2281.0,976.0,1757.0,3041.0,1895.0,,,,0.0903268610958921,-0.85326073498605,0.258612086041473,,1.9101833778256125,,
,3556.0,797.0,2280.0,977.0,1764.0,3044.0,1893.0,,,,0.090321617114817,-0.853570071895042,0.258209881652623,,1.3685815972552027,,
,3553.0,796.0,2278.0,975.0,1751.0,3057.0,1889.0,,,,0.090321379400349,-0.853837624694074,0.258169226110687,,0.8215042081781524,,
,3553.0,797.0,2280.0,973.0,1759.0,3048.0,1898.0,,,,0.0903220738318335,-0.854740926449456,0.258116436445176,,0.27708040039080484,,
,3555.0,797.0,2279.0,977.0,1756.0,3046.0,1874.0,,,,0.0903179800142208,-0.854760715659451,0.257881417080342,,-0.257874582203027,,
,3556.0,796.0,2280.0,976.0,1751.0,3049.0,1873.0,,,,0.09031185189164,-0.855608186322478,0.257894782997791,,-0.7780234047337863,,
,3555.0,798.0,2282.0,976.0,1751.0,3047.0,1858.0,,,,0.0903050342819152,-0.854782871937717,0.257685437657679,,-1.2795341445953885,,
,3555.0,798.0,2280.0,975.0,1739.0,3039.0,1863.0,,,,0.090305427260998,-0.85465742173932,0.257630924595893,,-1.7599771070815886,,
,3556.0,798.0,2280.0,977.0,1751.0,3044.0,1884.0,,,,0.0903070453537457,-0.854985111951782,0.25748688566852,,-2.218105955245161,,
,3558.0,797.0,2281.0,977.0,1776.0,3039.0,1890.0,,,,0.0903086872905825,-0.85510354501369,0.257673874814328,,-2.6535463505566246,,
,3557.0,800.0,2280.0,977.0,1771.0,3040.0,1886.0,,,,0.0903040778983712,-0.855093785519951,0.257435839629392,,-3.066422412979825,,
,3558.0,799.0,2281.0,977.0,1770.0,3045.0,1898.0,,,,0.0903088670862714,-0.855443853281038,0.257644900552059,,-3.4569565605699197,,
,3561.0,799.0,2284.0,979.0,1756.0,3043.0,1887.0,,,,0.0903087130046723,-0.855627849692286,0.257289766912326,,-3.825080599258711,,
,3561.0,803.0,2282.0,981.0,1733.0,3039.0,1898.0,,,,0.0903091205786003,-0.85555355116857,0.257647559992548,,-4.170094625181403,,
,3561.0,799.0,2282.0,981.0,1743.0,3036.0,1896.0,,,,0.0903102334675493,-0.855545077062753,0.257704929893561,,-4.4904055175919755,,
,3563.0,802.0,2283.0,981.0,1742.0,3044.0,1877.0,,,,0.090309308336285,-0.855608631213138,0.257302036954497,,-4.783369415945,,
,3562.0,800.0,2280.0,977.0,1745.0,3049.0,1885.0,,,,0.0903049334766497,-0.855774996431662,0.257595040338618,,-5.045253774401613,,
,3564.0,801.0,2285.0,982.0,1746.0,3041.0,1891.0,,,,0.0903050346383078,-0.855536383279957,0.257917887739767,,-5.271325423335378,,
2025-07-01 21:44:05,3565.0,801.0,2285.0,982.0,1753.0,3046.0,1904.0,,,2025/07/01 09:44:05 PM,0.0903087356050542,-0.855399297481864,0.25764749349742,,-5.4560620691283495,,
,3566.0,803.0,2286.0,983.0,1755.0,3049.0,1893.0,,,,0.0903061292870127,-0.855565047862046,0.257656669470247,,-5.593475607892882,,
,3565.0,801.0,2284.0,982.0,1756.0,3044.0,1892.0,,,,0.0903087754647117,-0.855550479669958,0.257623778246887,,-5.677525966575582,,
,3570.0,801.0,2287.0,981.0,1755.0,3042.0,1873.0,,,,0.0903147190726964,-0.855429655112951,0.25767447152563,,-5.702594070602844,,
,3572.0,803.0,2285.0,984.0,1746.0,3045.0,1901.0,,,,0.0903094121592318,-0.854834339607403,0.257824801356315,,-5.663973444187624,,
,3571.0,801.0,2289.0,983.0,1752.0,3041.0,1901.0,,,,0.0903110752777449,-0.855054398910323,0.25792648264106,,-5.558334160435901,,
,3572.0,802.0,2286.0,982.0,1745.0,3049.0,1878.0,,,,0.0903140258043251,-0.855167403507093,0.258139814918528,,-5.384112336436639,,
,3573.0,804.0,2286.0,983.0,1749.0,3048.0,1897.0,,,,0.09031469189149,-0.85544207085019,0.258091568724251,,-5.141783968488402,,
,3574.0,803.0,2289.0,987.0,1758.0,3037.0,1882.0,,,,0.0903189616491687,-0.855099892682525,0.258107610345377,,-4.833993273026235,,
,3574.0,805.0,2287.0,987.0,1753.0,3036.0,1889.0,,,,0.0903232879871762,-0.855112282148749,0.258172866333226,,-4.465521509807366,,
,3575.0,807.0,2289.0,987.0,1745.0,3035.0,1880.0,,,,0.0903172837054851,-0.855046007914638,0.258191511497916,,-4.043100331708062,,
,3578.0,805.0,2290.0,986.0,1753.0,3036.0,1873.0,,,,0.0903186340653482,-0.854758574098859,0.258371338030111,,-3.5750910819597963,,
,3579.0,804.0,2291.0,986.0,1769.0,3042.0,1880.0,,,,0.09032586528597,-0.855151970286878,0.258160917896838,,-3.071064947190392,,
,3580.0,805.0,2292.0,990.0,1758.0,3059.0,1876.0,,,,0.0903245953058289,-0.854933914712503,0.258197429445117,,-2.5413260814504937,,
,3580.0,806.0,2293.0,989.0,1754.0,3060.0,1888.0,,,,0.0903272749872386,-0.854764544469756,0.258258026575408,,-1.9964201268877615,,
,3582.0,806.0,2292.0,990.0,1743.0,3051.0,1893.0,,,,0.0903301535492406,-0.854824281037883,0.258511694545737,,-1.4466652171789756,,
,3586.0,808.0,2293.0,990.0,1737.0,3055.0,1892.0,,,,0.0903210191104226,-0.854575884614855,0.258671016487621,,-0.9017337575766358,,
,3587.0,806.0,2297.0,993.0,1751.0,3049.0,1887.0,,,,0.0903236149186207,-0.854519749742007,0.258640207924956,,-0.37030314866895403,,
,3587.0,808.0,2298.0,990.0,1751.0,3047.0,1888.0,,,,0.0903318475317485,-0.854242422724304,0.258729941451801,,0.14021606227589886,,
,3589.0,807.0,2292.0,987.0,1738.0,3046.0,1890.0,,,,0.0903326475515377,-0.854372492869458,0.258650466490014,,0.6238738009145504,,
,3589.0,810.0,2295.0,989.0,1752.0,3046.0,1891.0,,,,0.0903294129792814,-0.854289020203829,0.258871959939948,,1.0762997092131104,,
,3592.0,810.0,2299.0,995.0,1758.0,3042.0,1893.0,,,,0.0903295593930624,-0.854185882505176,0.258881770711427,,1.4947534156725006,,
,3591.0,810.0,2297.0,994.0,1747.0,3047.0,1889.0,,,,0.0903335374825315,-0.854200235596883,0.258942819257933,,1.8781104232453294,,
,3594.0,812.0,2298.0,995.0,1741.0,3046.0,1903.0,,,,0.0903351401698622,-0.854318071681112,0.258908890175834,,2.2267860938794493,,
,3596.0,810.0,2300.0,993.0,1745.0,3047.0,1896.0,,,,0.0903336671947503,-0.854351702570485,0.259389611246843,,2.542597857094851,,
,3597.0,811.0,2300.0,996.0,1741.0,3044.0,1901.0,,,,0.0903350533092271,-0.854302987601261,0.25907680482186,,2.8285641950107867,,
,3599.0,813.0,2301.0,997.0,1739.0,3045.0,1899.0,,,,0.0903324393797164,-0.854039882939755,0.258939647481475,,3.0886391143032275,,
,3600.0,812.0,2301.0,997.0,1731.0,3046.0,1915.0,,,,0.090323645509097,-0.853931480028366,0.259508196702574,,3.327383420888579,,
,3600.0,813.0,2303.0,998.0,1746.0,3035.0,1889.0,,,,0.0903260286342185,-0.85404694583408,0.259471029917585,,3.54957939982266,,
,3604.0,812.0,2301.0,996.0,1741.0,3040.0,1882.0,,,,0.0903316721910957,-0.853324914934306,0.259316564327331,,3.759803103189036,,
,3603.0,815.0,2303.0,997.0,1758.0,3045.0,1879.0,,,,0.090325251373602,-0.853563964047806,0.259396482102328,,3.9619773474330993,,
,3603.0,815.0,2304.0,998.0,1748.0,3049.0,1863.0,,,,0.0903329351062129,-0.853365716697739,0.259430608492389,,4.158937049941127,,
,3599.0,814.0,2302.0,997.0,1751.0,3052.0,1876.0,,,,0.0903337604013843,-0.853113720071594,0.259494066324367,,4.352044610801336,,
,3596.0,812.0,2300.0,994.0,1757.0,3048.0,1877.0,,,,0.0903437874483198,-0.853224843690364,0.260177752829817,,4.540894824421152,,
,3593.0,813.0,2298.0,991.0,1756.0,3053.0,1873.0,,,,0.0903386994773214,-0.853408670151416,0.26025146422954,,4.723145402835046,,
,3587.0,812.0,2295.0,989.0,1753.0,3058.0,1886.0,,,,0.0903512374683211,-0.853456573412178,0.25979823616818,,4.894500869931418,,
,3578.0,809.0,2293.0,989.0,1749.0,3047.0,1896.0,,,,0.0903522194950587,-0.853208758261167,0.259854030252312,,5.048865314296836,,
,3572.0,804.0,2285.0,982.0,1733.0,3040.0,1905.0,,,,0.0903557963177029,-0.852817868402822,0.260048258094179,,5.17866449088526,,
,3563.0,803.0,2280.0,980.0,1734.0,3040.0,1906.0,,,,0.090351955291227,-0.85291324075396,0.26039645608313,,5.275321458078224,,
,3555.0,802.0,2277.0,974.0,1751.0,3032.0,1894.0,,,,0.090354284176386,-0.852751175222532,0.26056392516818,,5.329854004143902,,
,3550.0,802.0,2275.0,976.0,1730.0,3040.0,1896.0,,,,0.0903519372008357,-0.852581873324906,0.260655737498507,,5.3335482710039805,,
,3544.0,799.0,2272.0,972.0,1727.0,3039.0,1891.0,,,,0.0903560243055905,-0.852558729641309,0.260798031327569,,5.278652664237824,,
,3539.0,799.0,2267.0,968.0,1717.0,3034.0,1888.0,,,,0.0903535419739458,-0.852913393601529,0.260666780728971,,5.15903054362455,,
,3537.0,796.0,2266.0,967.0,1717.0,3046.0,1884.0,,,,0.090350831713004,-0.85260370900434,0.260754078103103,,4.970710536813879,,
,3531.0,796.0,2264.0,965.0,1713.0,3051.0,1875.0,,,,0.0903493829458177,-0.852325285172658,0.261011763533023,,4.712280730042791,,
,3527.0,796.0,2261.0,966.0,1707.0,3053.0,1865.0,,,,0.0903537488969541,-0.852102112241206,0.260816322538546,,4.38508771546882,,
,3525.0,795.0,2261.0,965.0,1729.0,3055.0,1891.0,,,,0.0903566148209405,-0.851714123923244,0.261053997025563,,3.993222073188841,,
,3527.0,794.0,2261.0,963.0,1743.0,3051.0,1879.0,,,,0.0903544188918733,-0.851994208887499,0.261169183591321,,3.5432952211120825,,
,3524.0,795.0,2260.0,964.0,1737.0,3054.0,1871.0,,,,0.0903597527640131,-0.851603621350542,0.261227912289595,,3.0440348499742496,,
,3522.0,794.0,2259.0,963.0,1740.0,3051.0,1883.0,,,,0.0903585279059644,-0.852114791548517,0.261253950064939,,2.5057439508858548,,
,3520.0,794.0,2256.0,963.0,1739.0,3055.0,1870.0,,,,0.09035734635327,-0.851945209365829,0.261325623864426,,1.9396793901310494,,
,3522.0,793.0,2256.0,962.0,1741.0,3058.0,1876.0,,,,0.0903603912471416,-0.851270441845013,0.261155440618416,,1.3574091386459721,,
,3518.0,793.0,2257.0,964.0,1738.0,3048.0,1890.0,,,,0.0903612725697494,-0.851412688168661,0.261637501670457,,0.7702031775068632,,
,3520.0,795.0,2258.0,964.0,1741.0,3048.0,1898.0,,,,0.0903630838020061,-0.851123054538787,0.261691090409406,,0.1885035263742222,,
,3521.0,795.0,2256.0,965.0,1743.0,3048.0,1898.0,,,,0.0903651371224807,-0.850975954772521,0.261856948370214,,-0.37849403930028247,,
,3518.0,793.0,2255.0,959.0,1751.0,3046.0,1890.0,,,,0.0903616124350441,-0.850984041623194,0.261835216953768,,-0.92312824607835,,
,3515.0,793.0,2256.0,962.0,1746.0,3042.0,1893.0,,,,0.0903607508008042,-0.850733836437358,0.261959533644532,,-1.439426084438089,,
,3518.0,792.0,2255.0,962.0,1744.0,3042.0,1888.0,,,,0.0903673878045241,-0.850002273925936,0.262165768781289,,-1.9231293615141156,,
,3516.0,791.0,2253.0,964.0,1742.0,3041.0,1890.0,,,,0.0903682123663461,-0.850039142728626,0.262158578254977,,-2.371609415188523,,
,3519.0,792.0,2255.0,963.0,1744.0,3036.0,1906.0,,,,0.0903655167345102,-0.850066673747868,0.262181566049164,,-2.7836891730965356,,
,3516.0,792.0,2254.0,962.0,1742.0,3035.0,1890.0,,,,0.0903736624114723,-0.849997001285424,0.262137051843345,,-3.159392217235449,,
,3515.0,794.0,2256.0,962.0,1741.0,3039.0,1895.0,,,,0.0903723254152331,-0.849632056744334,0.262620306244825,,-3.4996376782320193,,
,3519.0,793.0,2258.0,964.0,1738.0,3042.0,1900.0,,,,0.0903692117193048,-0.849592195691479,0.262845845525591,,-3.8058995443071497,,
,3515.0,792.0,2256.0,965.0,1736.0,3040.0,1904.0,,,,0.0903722779652846,-0.849116989098988,0.262782120163492,,-4.079850207355707,,
,3514.0,793.0,2254.0,961.0,1734.0,3041.0,1913.0,,,,0.0903752460595709,-0.848961706036546,0.26311644202752,,-4.323010529462339,,
,3513.0,791.0,2255.0,962.0,1731.0,3042.0,1909.0,,,,0.0903758448368499,-0.849104615558605,0.263056882831676,,-4.536431382938914,,
,3517.0,793.0,2254.0,964.0,1732.0,3040.0,1888.0,,,,0.0903719941866233,-0.848575914564169,0.263233419162399,,-4.720433131990692,,
,3514.0,792.0,2254.0,963.0,1741.0,3036.0,1892.0,,,,0.0903768448905055,-0.848695873988264,0.263411280091262,,-4.874428597262311,,
,3515.0,790.0,2252.0,964.0,1742.0,3042.0,1880.0,,,,0.0903808615124599,-0.848720114608749,0.263286022839495,,-4.996850905236431,,
,3515.0,792.0,2254.0,963.0,1737.0,3037.0,1889.0,,,,0.0903786189304029,-0.84886868837612,0.263333415136676,,-5.085200257544088,,
,3514.0,794.0,2256.0,962.0,1729.0,3046.0,1899.0,,,,0.0903801473244517,-0.84881661777257,0.263129520455427,,-5.136213655489621,,
,3513.0,793.0,2253.0,962.0,1726.0,3045.0,1897.0,,,,0.0903772308330638,-0.848977936036156,0.262734813528816,,-5.146149801681084,,
,3513.0,793.0,2256.0,963.0,1727.0,3045.0,1903.0,,,,0.0903797103906027,-0.848809997834064,0.263067251885093,,-5.111168574182766,,
,3511.0,790.0,2251.0,960.0,1733.0,3048.0,1913.0,,,,0.0903747996109328,-0.849694133764998,0.262704728621364,,-5.027771614698601,,
,3511.0,791.0,2248.0,960.0,1721.0,3048.0,1895.0,,,,0.0903760993509895,-0.849510973576138,0.262600441032381,,-4.89325937831306,,
,3512.0,792.0,2252.0,961.0,1723.0,3041.0,1888.0,,,,0.0903721498795651,-0.849612019585205,0.262681457078483,,-4.706152978855783,,
,3511.0,792.0,2253.0,962.0,1724.0,3045.0,1888.0,,,,0.0903677650869317,-0.849246346169667,0.262797100315647,,-4.466528876828722,,
,3511.0,790.0,2251.0,962.0,1728.0,3045.0,1910.0,,,,0.0903672012462177,-0.84962989800066,0.26292634337795,,-4.176222180241491,,
,3511.0,790.0,2250.0,961.0,1722.0,3040.0,1918.0,,,,0.0903710182944764,-0.849889922291105,0.26290775226804,,-3.8388693380894985,,
,3514.0,795.0,2254.0,962.0,1736.0,3045.0,1899.0,,,,0.0903626779560543,-0.849585387670095,0.262662547911363,,-3.4597807858765135,,
,3513.0,793.0,2256.0,963.0,1726.0,3042.0,1873.0,,,,0.0903637047031837,-0.849502948697123,0.262775253618078,,-3.045655175616157,,
,3512.0,791.0,2253.0,961.0,1730.0,3042.0,1884.0,,,,0.0903617189250396,-0.849612492234956,0.263027873953891,,-2.6041656969568145,,
,3514.0,792.0,2253.0,961.0,1732.0,3047.0,1898.0,,,,0.0903592784637802,-0.849772961853444,0.263068084406547,,-2.1434629702626147,,
,3512.0,792.0,2254.0,963.0,1734.0,3051.0,1899.0,,,,0.0903606471730741,-0.849388628102085,0.263137933607001,,-1.6716466759975142,,
,3515.0,791.0,2257.0,964.0,1743.0,3043.0,1897.0,,,,0.0903641980735723,-0.849619633818594,0.263263981552922,,-1.1962594244821407,,
,3514.0,792.0,2254.0,964.0,1748.0,3043.0,1889.0,,,,0.0903653317789645,-0.849676930294754,0.263248874607175,,-0.7238521276000633,,
,3514.0,791.0,2253.0,964.0,1730.0,3059.0,1880.0,,,,0.0903675762448272,-0.848814836858643,0.263095707592576,,-0.25966122176899625,,
,3516.0,794.0,2254.0,965.0,1730.0,3057.0,1896.0,,,,0.0903704633383933,-0.849291231286826,0.263427615684013,,0.19257457424122262,,
,3516.0,794.0,2255.0,966.0,1740.0,3053.0,1887.0,,,,0.0903636004914884,-0.84889416415123,0.263285394012493,,0.6306453255057951,,
,3518.0,792.0,2255.0,964.0,1728.0,3050.0,1884.0,,,,0.0903667379689635,-0.84883492769456,0.263588477736478,,1.053751459966663,,
,3517.0,793.0,2254.0,963.0,1718.0,3038.0,1892.0,,,,0.0903735083830383,-0.848125077594983,0.263492899876975,,1.462251981954503,,
,3517.0,792.0,2254.0,964.0,1724.0,3042.0,1901.0,,,,0.0903741506470501,-0.847883693649776,0.26354536627002,,1.8573056657213531,,
,3521.0,793.0,2256.0,967.0,1730.0,3039.0,1906.0,,,,0.0903710029031541,-0.848591032403687,0.26328370032721,,2.240438457989546,,
,3522.0,796.0,2258.0,967.0,1727.0,3049.0,1905.0,,,,0.0903717145229378,-0.848470109962592,0.263745590797545,,2.613074383857744,,
,3522.0,791.0,2258.0,966.0,1726.0,3049.0,1902.0,,,,0.0903690196027774,-0.848256381238074,0.263682244348758,,2.976068991476266,,
,3525.0,795.0,2258.0,965.0,1720.0,3042.0,1899.0,,,,0.0903736302014005,-0.847687708134998,0.264153387428997,,3.3292840194010367,,
,3524.0,794.0,2258.0,970.0,1726.0,3042.0,1889.0,,,,0.090375387455519,-0.847649830771594,0.263830170784773,,3.6712396636644415,,
,3526.0,797.0,2259.0,969.0,1714.0,3044.0,1886.0,,,,0.090375056057782,-0.847754903088747,0.264508906432562,,3.9988767138065056,,
,3527.0,795.0,2259.0,971.0,1721.0,3051.0,1881.0,,,,0.0903727629566043,-0.84711208940533,0.26441750187587,,4.307454964012921,,
,3527.0,796.0,2259.0,971.0,1709.0,3049.0,1893.0,,,,0.0903820628049786,-0.847108083272059,0.264630375420269,,4.590606557931499,,
,3530.0,795.0,2257.0,969.0,1727.0,3046.0,1890.0,,,,0.0903794067816105,-0.846771161950602,0.264700465235196,,4.840553181191012,,
,3533.0,796.0,2263.0,970.0,1741.0,3041.0,1888.0,,,,0.0903783171490667,-0.846327546941937,0.264788208448994,,5.048484370774077,,
,3534.0,797.0,2264.0,972.0,1734.0,3044.0,1912.0,,,,0.0903762809833211,-0.846489604114574,0.264622980942798,,5.205080914598271,,
,3536.0,798.0,2260.0,970.0,1733.0,3046.0,1908.0,,,,0.0903790798352609,-0.846824806770052,0.264933320476108,,5.301152713537133,,
,3533.0,796.0,2262.0,971.0,1711.0,3048.0,1894.0,,,,0.0903766484913372,-0.846459988594028,0.26494988144435,,5.3283453704258195,,
,3538.0,796.0,2261.0,973.0,1723.0,3056.0,1896.0,,,,0.0903830349761431,-0.846213467931695,0.265081563821173,,5.279855991012525,,
,3537.0,797.0,2263.0,975.0,1723.0,3048.0,1870.0,,,,0.0903796412116242,-0.846019145018516,0.265001699727159,,5.151089167028443,,
,3541.0,800.0,2268.0,975.0,1725.0,3044.0,1872.0,,,,0.0903793839272726,-0.845838418753813,0.265439176280808,,4.940182080634962,,
,3539.0,798.0,2267.0,974.0,1724.0,3056.0,1899.0,,,,0.0903772440016054,-0.845731217606741,0.265214960028964,,4.648335371670014,,
,3539.0,798.0,2266.0,974.0,1730.0,3044.0,1894.0,,,,0.0903834677523459,-0.845860183245978,0.265546274033096,,4.279904168946521,,
,3543.0,801.0,2267.0,977.0,1726.0,3042.0,1906.0,,,,0.0903910520044184,-0.845764037667021,0.265392088677465,,3.8422295930291064,,
,3545.0,802.0,2270.0,978.0,1734.0,3050.0,1900.0,,,,0.0903888910718474,-0.845669123523466,0.265713045294753,,3.345221220242649,,
,3549.0,800.0,2269.0,980.0,1732.0,3050.0,1918.0,,,,0.0903887077159287,-0.845654279511382,0.265673649135802,,2.800730433964417,,
,3550.0,800.0,2269.0,977.0,1734.0,3046.0,1900.0,,,,0.0903863441191627,-0.844907707679371,0.265935056933458,,2.2217784185582183,,
,3546.0,800.0,2269.0,978.0,1726.0,3052.0,1902.0,,,,0.0903862620547737,-0.844859895524346,0.265956807240889,,1.6217174811820365,,
,3549.0,801.0,2269.0,978.0,1742.0,3048.0,1893.0,,,,0.0903890791775471,-0.84483922831297,0.266064563240334,,1.0134093547135634,,
,3552.0,800.0,2272.0,979.0,1735.0,3050.0,1893.0,,,,0.090384914802112,-0.844681535152212,0.265958121116304,,0.4084997737129885,,
,3553.0,802.0,2269.0,980.0,1725.0,3045.0,1890.0,,,,0.0903909031502054,-0.845027660022788,0.266135867279151,,-0.18314382661591203,,
,3555.0,803.0,2271.0,979.0,1727.0,3038.0,1896.0,,,,0.0903902817837876,-0.845151733501238,0.265961376146806,,-0.7537837833720812,,
,3556.0,805.0,2274.0,980.0,1730.0,3035.0,1898.0,,,,0.0903911919231975,-0.844181303560691,0.266231885342542,,-1.2979291310607164,,
,3561.0,806.0,2275.0,985.0,1728.0,3040.0,1886.0,,,,0.0903939703529432,-0.844139027613199,0.266113691136774,,-1.8122203738248182,,
,3558.0,803.0,2274.0,982.0,1731.0,3040.0,1902.0,,,,0.0903951086593688,-0.843624381800968,0.266568603275197,,-2.2951095001858146,,
,3558.0,803.0,2275.0,981.0,1740.0,3045.0,1906.0,,,,0.0903962358842217,-0.843976597695769,0.266229048223938,,-2.7463834896486357,,
,3562.0,803.0,2275.0,982.0,1738.0,3046.0,1895.0,,,,0.0903943704994356,-0.843836266205258,0.266852335240949,,-3.1665940096108716,,
,3559.0,805.0,2276.0,982.0,1748.0,3050.0,1909.0,,,,0.0904013559882336,-0.84363816444594,0.266546840833517,,-3.556462763171703,,
,3562.0,804.0,2274.0,981.0,1749.0,3056.0,1892.0,,,,0.0903992201819362,-0.843094387472377,0.26685199286139,,-3.916330771835363,,
,3557.0,804.0,2275.0,981.0,1730.0,3057.0,1890.0,,,,0.0904015953648173,-0.843234152341331,0.267000481238212,,-4.245711520214475,,
,3553.0,803.0,2272.0,977.0,1733.0,3059.0,1890.0,,,,0.090399472289736,-0.843186575720882,0.267437615393579,,-4.542993864483903,,
2025-07-01 21:44:06,3545.0,800.0,2269.0,973.0,1738.0,3048.0,1889.0,,,2025/07/01 09:44:06 PM,0.090406040251082,-0.842775020117358,0.267324219789961,,-4.805322730705877,,
,3539.0,798.0,2264.0,973.0,1739.0,3044.0,1888.0,,,,0.0904118879111346,-0.842937937997197,0.267423240847555,,-5.028665775351747,,
,3533.0,798.0,2262.0,971.0,1747.0,3044.0,1901.0,,,,0.0904084708351056,-0.842585828923878,0.267507826407656,,-5.208054365136561,,
,3525.0,794.0,2259.0,966.0,1731.0,3042.0,1908.0,,,,0.0904085687222666,-0.843210781824963,0.267468945340699,,-5.337969630921738,,
,3519.0,795.0,2253.0,966.0,1736.0,3039.0,1892.0,,,,0.0904099372529748,-0.842714174360176,0.267281773046758,,-5.412830833758859,,
,3512.0,790.0,2251.0,961.0,1721.0,3038.0,1902.0,,,,0.0904128199260372,-0.842332753856544,0.267517635392396,,-5.427534807439086,,
,3506.0,790.0,2249.0,959.0,1728.0,3028.0,1911.0,,,,0.0904093400051897,-0.842194610015414,0.267423947130434,,-5.377991759175022,,
,3499.0,789.0,2244.0,959.0,1734.0,3036.0,1918.0,,,,0.0904136764968766,-0.842386934079904,0.267764931684464,,-5.261603718373027,,
,3497.0,790.0,2244.0,955.0,1735.0,3037.0,1905.0,,,,0.0904155942766179,-0.841944428757417,0.267881830529204,,-5.0776371446171185,,
,3496.0,788.0,2243.0,954.0,1726.0,3044.0,1883.0,,,,0.0904110246107544,-0.842079497440309,0.267858410388464,,-4.827450754792145,,
,3491.0,787.0,2238.0,952.0,1731.0,3042.0,1881.0,,,,0.0904164273517201,-0.841598797435923,0.267912908874059,,-4.514553545442615,,
,3490.0,786.0,2236.0,950.0,1741.0,3043.0,1874.0,,,,0.0904149138545884,-0.841460818209474,0.268138571220151,,-4.144485520201411,,
,3486.0,784.0,2235.0,951.0,1728.0,3050.0,1883.0,,,,0.0904166826469621,-0.841461326393374,0.268154935466824,,-3.7245328662804584,,
,3485.0,786.0,2239.0,953.0,1727.0,3046.0,1883.0,,,,0.0904236927102792,-0.841131968222942,0.268504683381454,,-3.263307430061144,,
,3487.0,786.0,2233.0,952.0,1731.0,3047.0,1883.0,,,,0.0904159704868367,-0.84104659262309,0.268482336225255,,-2.7702343321701424,,
,3485.0,784.0,2232.0,950.0,1728.0,3043.0,1885.0,,,,0.0904181712943929,-0.841330483012932,0.268453463450893,,-2.2549992204314444,,
,3483.0,784.0,2232.0,948.0,1743.0,3054.0,1873.0,,,,0.0904154477450984,-0.841142259641692,0.268627340477676,,-1.7270073061948181,,
,3481.0,782.0,2231.0,950.0,1756.0,3051.0,1881.0,,,,0.0904204110337899,-0.841001581524964,0.268623125603759,,-1.1949009733792115,,
,3481.0,784.0,2234.0,952.0,1740.0,3051.0,1888.0,,,,0.0904207062578285,-0.84076198627084,0.268737514678195,,-0.6661733839850851,,
,3483.0,785.0,2232.0,950.0,1734.0,3049.0,1893.0,,,,0.0904241150261646,-0.840562071462499,0.268791715489652,,-0.14690409966806572,,
,3479.0,784.0,2232.0,949.0,1725.0,3053.0,1898.0,,,,0.0904231472267089,-0.840140256631859,0.268650767769633,,0.3583692690848687,,
,3481.0,784.0,2232.0,951.0,1746.0,3048.0,1916.0,,,,0.0904260011796079,-0.84010004234513,0.269320192055544,,0.8466409919228052,,
,3483.0,784.0,2233.0,949.0,1741.0,3045.0,1919.0,,,,0.0904196811241924,-0.840077357406001,0.269043618054967,,1.3162967857690295,,
,3484.0,784.0,2232.0,950.0,1739.0,3050.0,1911.0,,,,0.0904278370595101,-0.83992161255736,0.269098244413967,,1.7668598339786152,,
,3481.0,782.0,2232.0,951.0,1739.0,3049.0,1891.0,,,,0.0904295540394321,-0.839806117399255,0.268991187864456,,2.1986469697907443,,
,3482.0,784.0,2232.0,951.0,1740.0,3048.0,1901.0,,,,0.0904316283657709,-0.839917953941803,0.269214500650906,,2.6123639820533917,,
,3484.0,784.0,2235.0,952.0,1737.0,3049.0,1908.0,,,,0.0904324603806676,-0.839618887764423,0.269299031702592,,3.0086728871550013,,
,3484.0,784.0,2234.0,951.0,1734.0,3051.0,1911.0,,,,0.0904311378391623,-0.840033532943251,0.269276512300662,,3.387766684443544,,
,3482.0,785.0,2233.0,951.0,1732.0,3048.0,1908.0,,,,0.0904299160558709,-0.839973831698351,0.26914569992063,,3.748988515949375,,
,3483.0,784.0,2234.0,950.0,1737.0,3045.0,1904.0,,,,0.0904277555934594,-0.840306519195937,0.269434759420156,,4.0905319203174795,,
,3485.0,785.0,2235.0,951.0,1743.0,3041.0,1915.0,,,,0.0904311772501977,-0.839978892495783,0.269514493852677,,4.4092561313444305,,
,3485.0,783.0,2233.0,952.0,1737.0,3048.0,1911.0,,,,0.0904303656147315,-0.839455831990531,0.269531682585711,,4.7006439047184,,
,3484.0,783.0,2233.0,952.0,1733.0,3047.0,1912.0,,,,0.0904313028791081,-0.839322177264681,0.269299271578336,,4.958918383643865,,
,3482.0,782.0,2232.0,951.0,1716.0,3049.0,1912.0,,,,0.090440984096209,-0.839563826526952,0.269185120835241,,5.177320480677982,,
,3482.0,782.0,2234.0,951.0,1714.0,3047.0,1906.0,,,,0.090431916330044,-0.839884004408081,0.269211352876024,,5.3485308647653875,,
,3482.0,782.0,2231.0,951.0,1720.0,3040.0,1904.0,,,,0.0904335338835963,-0.839855434814559,0.268847446296655,,5.465203236046478,,
,3482.0,784.0,2233.0,953.0,1726.0,3038.0,1903.0,,,,0.0904314435526424,-0.840190254599453,0.269079495645089,,5.520560484180845,,
,3480.0,784.0,2233.0,948.0,1738.0,3043.0,1907.0,,,,0.0904265453414638,-0.840849531315271,0.268940995439348,,5.508994671645226,,
,3478.0,780.0,2230.0,948.0,1720.0,3050.0,1900.0,,,,0.0904260599478108,-0.84118405136413,0.268373749062443,,5.426607444911873,,
,3480.0,783.0,2231.0,948.0,1736.0,3045.0,1924.0,,,,0.0904259123992143,-0.841331125262805,0.26875321525128,,5.271630894839511,,
,3482.0,781.0,2232.0,950.0,1737.0,3049.0,1916.0,,,,0.0904273626309613,-0.841292380832842,0.268608997879953,,5.0446805645145005,,
,3480.0,783.0,2231.0,950.0,1732.0,3042.0,1907.0,,,,0.0904220949928274,-0.841391768861707,0.268733532745688,,4.7488113244220855,,
,3485.0,780.0,2233.0,947.0,1724.0,3037.0,1910.0,,,,0.0904239533963075,-0.841409799016945,0.268701956321497,,4.389370692947342,,
,3483.0,781.0,2231.0,947.0,1734.0,3045.0,1901.0,,,,0.0904227296983515,-0.841512269046451,0.268510572368442,,3.9736690362742273,,
,3484.0,782.0,2230.0,950.0,1733.0,3048.0,1879.0,,,,0.0904233777079943,-0.841173129075347,0.268505094782276,,3.5105075788803073,,
,3482.0,782.0,2232.0,951.0,1744.0,3040.0,1880.0,,,,0.0904196717485765,-0.841347330522897,0.268611440176934,,3.0096196335916963,,
,3481.0,784.0,2232.0,948.0,1760.0,3039.0,1888.0,,,,0.0904149306459597,-0.841426727196381,0.268290116455287,,2.481086041935532,,
,3482.0,784.0,2233.0,948.0,1758.0,3046.0,1887.0,,,,0.0904165820822606,-0.841923800631154,0.268242280462309,,1.9347827676975666,,
,3482.0,782.0,2233.0,948.0,1748.0,3045.0,1910.0,,,,0.0904221160406607,-0.841263223514676,0.26820182651209,,1.3799087982952725,,
,3486.0,784.0,2235.0,951.0,1738.0,3045.0,1915.0,,,,0.0904112387243503,-0.841510382497444,0.268247302574349,,0.8246285305476614,,
,3486.0,788.0,2234.0,949.0,1738.0,3044.0,1919.0,,,,0.0904207842270651,-0.841682043382796,0.268226799952335,,0.27584709076193514,,
,3484.0,785.0,2234.0,946.0,1730.0,3046.0,1913.0,,,,0.0904207781336156,-0.84162995106034,0.268350779046732,,-0.2608783541257507,,
,3486.0,785.0,2235.0,948.0,1737.0,3043.0,1902.0,,,,0.0904210332337457,-0.841462034392579,0.268346966155993,,-0.7813015522966015,,
,3487.0,786.0,2236.0,946.0,1743.0,3043.0,1910.0,,,,0.0904248558094617,-0.841656240440421,0.268252012522147,,-1.2823446693368525,,
,3487.0,786.0,2237.0,946.0,1744.0,3050.0,1908.0,,,,0.0904273040139283,-0.841073555361003,0.268256259330447,,-1.761876892181174,,
,3491.0,787.0,2239.0,949.0,1747.0,3051.0,1904.0,,,,0.0904185976692121,-0.840754367612829,0.268234418713877,,-2.2184432712776725,,
,3490.0,787.0,2239.0,948.0,1743.0,3048.0,1895.0,,,,0.0904202524713105,-0.840678665882508,0.268216690315131,,-2.6509720836901383,,
,3491.0,790.0,2239.0,950.0,1732.0,3056.0,1890.0,,,,0.0904253033568473,-0.841112459022788,0.268494978515978,,-3.058485515537545,,
,3493.0,791.0,2240.0,949.0,1736.0,3045.0,1879.0,,,,0.0904307253080488,-0.840962239652314,0.268434290079632,,-3.4398339830581364,,
,3498.0,790.0,2238.0,950.0,1738.0,3047.0,1872.0,,,,0.0904219679887111,-0.84133831200899,0.268438556887695,,-3.793470685401176,,
,3496.0,789.0,2240.0,948.0,1737.0,3046.0,1893.0,,,,0.0904187287057736,-0.841316152092567,0.268502698469199,,-4.117280749573688,,
,3497.0,791.0,2241.0,948.0,1739.0,3049.0,1893.0,,,,0.0904276970476773,-0.840960748812239,0.268671891979461,,-4.408478031763855,,
,3498.0,791.0,2240.0,949.0,1728.0,3050.0,1885.0,,,,0.0904258453111293,-0.840888109516094,0.268729497036306,,-4.663581090953376,,
,3498.0,792.0,2244.0,949.0,1730.0,3054.0,1902.0,,,,0.0904228694834209,-0.840831957380363,0.268802323512023,,-4.878477027568962,,
,3499.0,790.0,2242.0,949.0,1727.0,3052.0,1893.0,,,,0.0904259466868991,-0.840437968976158,0.268635675402931,,-5.048577252489138,,
,3499.0,791.0,2242.0,948.0,1739.0,3046.0,1891.0,,,,0.090426974833612,-0.840679936388202,0.268883799977136,,-5.169062741576962,,
,3501.0,793.0,2243.0,951.0,1754.0,3047.0,1886.0,,,,0.0904222285782782,-0.840502668679366,0.268772005387675,,-5.235208211811474,,
,3502.0,795.0,2245.0,952.0,1748.0,3053.0,1905.0,,,,0.0904284913080909,-0.840198389125171,0.268678849939751,,-5.242765439912349,,
,3505.0,793.0,2245.0,952.0,1740.0,3052.0,1904.0,,,,0.0904249203310904,-0.840430356179831,0.269053843488727,,-5.188376280172769,,
,3504.0,793.0,2244.0,950.0,1731.0,3047.0,1893.0,,,,0.090424059564344,-0.840625454654527,0.268861510492491,,-5.069976774395957,,
,3506.0,794.0,2244.0,951.0,1732.0,3042.0,1895.0,,,,0.0904285236457398,-0.840844502412857,0.268973784938859,,-4.887146794923274,,
,3509.0,794.0,2245.0,951.0,1727.0,3040.0,1900.0,,,,0.0904217411094026,-0.840744814213765,0.268770869885883,,-4.641357508678186,,
,3510.0,798.0,2245.0,952.0,1726.0,3042.0,1897.0,,,,0.0904240647423602,-0.840721336940517,0.268751659074704,,-4.336074174920401,,
,3511.0,796.0,2243.0,953.0,1718.0,3061.0,1887.0,,,,0.0904177164398085,-0.841278701425667,0.268378469841309,,-3.976685444831258,,
,3511.0,797.0,2245.0,953.0,1724.0,3053.0,1883.0,,,,0.0904179424363568,-0.841522736819319,0.268328432544356,,-3.570251004651604,,
,3514.0,797.0,2246.0,956.0,1731.0,3044.0,1875.0,,,,0.0904114027951239,-0.842456924495404,0.267839161489951,,-3.125083583089328,,
,3517.0,800.0,2247.0,955.0,1721.0,3045.0,1882.0,,,,0.0904026963064657,-0.843107106592429,0.267355293570321,,-2.650204640054675,,
,3514.0,798.0,2243.0,955.0,1734.0,3041.0,1887.0,,,,0.0903967831068747,-0.843955805853866,0.267044668614031,,-2.1547314076683466,,
,3517.0,798.0,2245.0,955.0,1727.0,3052.0,1890.0,,,,0.0903865231862023,-0.844677521196623,0.266517943792035,,-1.647263393662413,,
,3520.0,798.0,2244.0,957.0,1729.0,3045.0,1900.0,,,,0.0903711413862555,-0.84546002086426,0.265988353588072,,-1.1353375133953663,,
,3522.0,798.0,2246.0,957.0,1737.0,3043.0,1915.0,,,,0.0903641658312364,-0.845842867158681,0.265707840345164,,-0.6250128915456766,,
,3523.0,798.0,2249.0,959.0,1739.0,3042.0,1910.0,,,,0.0903591984870112,-0.846277448268291,0.265672219530987,,-0.12063072186330534,,
,3523.0,797.0,2248.0,960.0,1743.0,3043.0,1898.0,,,,0.0903521338607059,-0.846992794877742,0.264780642198472,,0.37522604602044424,,
,3526.0,799.0,2247.0,959.0,1739.0,3043.0,1885.0,,,,0.0903526529109649,-0.847355573626649,0.264654207103764,,0.8615710584657494,,
,3530.0,800.0,2248.0,964.0,1733.0,3044.0,1875.0,,,,0.0903462858304917,-0.84809222761158,0.264263716955229,,1.338670506613682,,
,3527.0,799.0,2250.0,961.0,1733.0,3046.0,1873.0,,,,0.090337742674064,-0.848616826550784,0.264117541975679,,1.8075544948473647,,
,3532.0,800.0,2250.0,964.0,1734.0,3046.0,1879.0,,,,0.0903261463652935,-0.848769358634295,0.264130722223235,,2.269434987991269,,
,3531.0,798.0,2248.0,961.0,1721.0,3043.0,1888.0,,,,0.0903260326497382,-0.849352776494264,0.263584909879714,,2.725089504624431,,
,3534.0,799.0,2247.0,963.0,1733.0,3042.0,1904.0,,,,0.0903236241922162,-0.849547943697675,0.263320036920182,,3.1742726632649116,,
,3536.0,801.0,2249.0,967.0,1740.0,3045.0,1906.0,,,,0.090318675977478,-0.850453247519632,0.26297086853068,,3.6152158809410375,,
,3540.0,803.0,2251.0,967.0,1747.0,3046.0,1905.0,,,,0.0903155494907278,-0.84991232196949,0.263399737525121,,4.044269117868611,,
,3537.0,798.0,2249.0,966.0,1756.0,3048.0,1900.0,,,,0.0903206059278955,-0.850060126464415,0.263019014716622,,4.455727719894999,,
,3540.0,801.0,2252.0,967.0,1762.0,3054.0,1884.0,,,,0.0903130427497958,-0.84956522084372,0.263174728349335,,4.8418725405378,,
,3537.0,800.0,2251.0,966.0,1745.0,3051.0,1893.0,,,,0.0903184656866652,-0.850341717007197,0.263108460318689,,5.1932333409542455,,
,3535.0,799.0,2250.0,965.0,1747.0,3052.0,1890.0,,,,0.0903145627383638,-0.850188271527904,0.262905515760714,,5.499065127442892,,
,3529.0,797.0,2244.0,963.0,1748.0,3062.0,1875.0,,,,0.0903093081673505,-0.84988129230611,0.263012121859299,,5.7480064511299505,,
,3523.0,794.0,2241.0,960.0,1763.0,3062.0,1890.0,,,,0.0903148075204583,-0.850631553751888,0.262805864993621,,5.928870097690273,,
,3519.0,795.0,2242.0,957.0,1762.0,3045.0,1914.0,,,,0.0903063629320663,-0.850646570577496,0.262610918815824,,6.031501937225366,,
,3513.0,793.0,2236.0,954.0,1759.0,3042.0,1910.0,,,,0.0903084205384418,-0.851153226984215,0.262258392404689,,6.047633876325242,,
,3506.0,790.0,2234.0,953.0,1753.0,3035.0,1890.0,,,,0.0903045988900917,-0.850892023521325,0.262474789660146,,5.97165235668755,,
,3498.0,788.0,2227.0,950.0,1741.0,3034.0,1875.0,,,,0.0903099131554144,-0.85071226579765,0.262546216433904,,5.801205783770538,,
,3492.0,788.0,2228.0,950.0,1732.0,3034.0,1886.0,,,,0.0903031683820369,-0.85052592015502,0.262817628364442,,5.537584272989907,,
,3488.0,788.0,2224.0,946.0,1738.0,3035.0,1898.0,,,,0.0903012060365857,-0.850752778553187,0.262422071680684,,5.185824041694866,,
,3487.0,783.0,2221.0,947.0,1742.0,3036.0,1900.0,,,,0.0902967351334844,-0.850408421472911,0.262688809025793,,4.754515520579982,,
,3482.0,783.0,2219.0,944.0,1735.0,3039.0,1875.0,,,,0.0903177067504858,-0.850615956039358,0.262663447329983,,4.2553255346956425,,
,3479.0,781.0,2220.0,941.0,1758.0,3041.0,1882.0,,,,0.0903143951172886,-0.849902129743703,0.26279622408921,,3.7022751884969995,,
,3477.0,782.0,2218.0,942.0,1744.0,3043.0,1881.0,,,,0.090318207228759,-0.850110035993937,0.262926065395016,,3.110841712220935,,
,3475.0,780.0,2216.0,945.0,1739.0,3044.0,1879.0,,,,0.0903256339507398,-0.850285515700887,0.262987712308606,,2.4969705607169,,
,3477.0,780.0,2216.0,944.0,1748.0,3044.0,1875.0,,,,0.0903303825646305,-0.849835986164296,0.263235905430063,,1.8760911093791353,,
,3475.0,780.0,2215.0,944.0,1752.0,3046.0,1887.0,,,,0.0903289767762988,-0.849260355217457,0.26327519343346,,1.2622250679497684,,
,3474.0,780.0,2215.0,942.0,1755.0,3052.0,1876.0,,,,0.0903284209551058,-0.849090985931787,0.263566572934394,,0.6672628301266403,,
,3474.0,782.0,2215.0,943.0,1750.0,3056.0,1857.0,,,,0.0903356804745348,-0.849003267558105,0.263292857063824,,0.10046198587313207,,
,3476.0,778.0,2216.0,943.0,1748.0,3053.0,1862.0,,,,0.090337474694944,-0.848880679453072,0.263979922528662,,-0.4318029950055909,,
,3474.0,779.0,2216.0,942.0,1739.0,3042.0,1883.0,,,,0.0903432160561933,-0.848715293534805,0.263960041320424,,-0.9260372741607212,,
,3478.0,778.0,2215.0,943.0,1740.0,3047.0,1877.0,,,,0.0903441139415668,-0.848423551567548,0.264413663603442,,-1.381390006773663,,
,3475.0,782.0,2218.0,945.0,1753.0,3046.0,1900.0,,,,0.0903485006752179,-0.847904998286133,0.264304317517571,,-1.799227628249263,,
,3477.0,781.0,2220.0,944.0,1749.0,3047.0,1903.0,,,,0.0903505725016501,-0.847845465007582,0.264793770611316,,-2.182570125757289,,
,3477.0,781.0,2216.0,943.0,1770.0,3034.0,1881.0,,,,0.0903561706940519,-0.847614245159488,0.264467581592121,,-2.53545073789442,,
,3474.0,779.0,2218.0,943.0,1775.0,3037.0,1871.0,,,,0.090359201646807,-0.846984576723818,0.264907564335524,,-2.8622600036746118,,
,3478.0,779.0,2216.0,946.0,1747.0,3046.0,1892.0,,,,0.0903575671420258,-0.847077251390817,0.264793041505935,,-3.1671305856578034,,
,3481.0,782.0,2219.0,947.0,1743.0,3048.0,1897.0,,,,0.0903686884803507,-0.847020156789271,0.265251388716616,,-3.453410715199646,,
,3481.0,781.0,2220.0,947.0,1751.0,3050.0,1890.0,,,,0.0903700670559651,-0.846333192445804,0.265243491713412,,-3.7232623892051766,,
,3480.0,778.0,2219.0,945.0,1761.0,3052.0,1895.0,,,,0.0903718737361124,-0.846156357481138,0.265279296669795,,-3.9774066842060947,,
,3483.0,780.0,2221.0,950.0,1760.0,3045.0,1900.0,,,,0.0903794852989833,-0.846292758161782,0.265611041401622,,-4.2150240087634465,,
,3482.0,781.0,2222.0,946.0,1751.0,3043.0,1898.0,,,,0.0903790504717276,-0.845688633353119,0.265680580565539,,-4.43380323564118,,
,3482.0,780.0,2223.0,950.0,1748.0,3042.0,1887.0,,,,0.0903876860947179,-0.845818260397965,0.26571625799093,,-4.630122031952957,,
,3484.0,780.0,2221.0,948.0,1741.0,3046.0,1891.0,,,,0.09039336972158,-0.846030318101195,0.265914089439352,,-4.799332669953092,,
,3483.0,779.0,2224.0,947.0,1755.0,3038.0,1909.0,,,,0.0903896952604121,-0.844897907007927,0.265728313246299,,-4.9361235520777855,,
2025-07-01 21:44:07,3482.0,777.0,2220.0,949.0,1764.0,3040.0,1896.0,,,2025/07/01 09:44:07 PM,0.0903911623371219,-0.845365404403187,0.265742833606013,,-5.034925861255108,,
,3481.0,779.0,2223.0,946.0,1742.0,3032.0,1895.0,,,,0.0903976672140185,-0.845858614828185,0.26579280979013,,-5.0903358140888235,,
,3482.0,778.0,2220.0,948.0,1745.0,3028.0,1905.0,,,,0.0903928492435733,-0.845680899630374,0.265811283741156,,-5.097524858133776,,
,3477.0,776.0,2220.0,945.0,1742.0,3049.0,1883.0,,,,0.0903903274195365,-0.845774094422174,0.26527424812476,,-5.052612353559377,,
,3483.0,779.0,2221.0,947.0,1742.0,3043.0,1908.0,,,,0.0903895048971963,-0.845966420311652,0.265425281207078,,-4.952977892361951,,
,3482.0,778.0,2223.0,949.0,1736.0,3059.0,1905.0,,,,0.0903906049318622,-0.845987674376617,0.265163839981697,,-4.797493813405457,,
,3484.0,778.0,2221.0,950.0,1738.0,3056.0,1915.0,,,,0.0903872366986414,-0.846299376212718,0.265051924470921,,-4.586663110817354,,
,3481.0,777.0,2219.0,948.0,1733.0,3051.0,1889.0,,,,0.0903927925826244,-0.846142290586544,0.265160468872661,,-4.322653994958796,,
,3480.0,780.0,2222.0,949.0,1750.0,3043.0,1870.0,,,,0.090392805038298,-0.846589799914142,0.264981775775918,,-4.009229429095643,,
,3485.0,779.0,2223.0,950.0,1756.0,3041.0,1880.0,,,,0.0903902703933866,-0.846995267981652,0.265058025453264,,-3.651576973679842,,
,3484.0,780.0,2222.0,950.0,1765.0,3042.0,1888.0,,,,0.0903902659487667,-0.846904908300547,0.264767630632668,,-3.2560501434082294,,
,3487.0,778.0,2224.0,951.0,1757.0,3038.0,1884.0,,,,0.0903955424702075,-0.847129388543168,0.264854834248555,,-2.829836997363473,,
,3485.0,777.0,2222.0,951.0,1761.0,3037.0,1874.0,,,,0.0903896436285246,-0.847234100607758,0.26435584341851,,-2.380575629144307,,
,3485.0,780.0,2223.0,950.0,1767.0,3041.0,1896.0,,,,0.0903829942667714,-0.847861475888534,0.264445243320153,,-1.9159404745717725,,
,3488.0,781.0,2224.0,950.0,1761.0,3041.0,1870.0,,,,0.090379667307532,-0.847586343758638,0.26451229344661,,-1.4432278339425069,,
,3488.0,778.0,2225.0,949.0,1759.0,3043.0,1867.0,,,,0.0903783032879905,-0.84758251774521,0.264233730189085,,-0.9689726028049706,,
,3486.0,778.0,2224.0,952.0,1777.0,3043.0,1885.0,,,,0.0903757424683398,-0.847700784519862,0.264256900087728,,-0.49862946905910727,,
,3494.0,779.0,2229.0,951.0,1776.0,3037.0,1885.0,,,,0.0903757444515613,-0.848188022776384,0.264054752387786,,-0.03634967027576804,,
,3494.0,780.0,2230.0,954.0,1774.0,3043.0,1888.0,,,,0.0903706883215216,-0.847792313059674,0.264333083836696,,0.4151215917366953,,
,3494.0,778.0,2227.0,955.0,1777.0,3043.0,1891.0,,,,0.0903841968521424,-0.847712073085327,0.263537779029789,,0.8544114587304119,,
,3498.0,782.0,2228.0,954.0,1755.0,3039.0,1880.0,,,,0.0903817294275229,-0.847935986918245,0.263768557099935,,1.2813457876938883,,
,3496.0,780.0,2229.0,952.0,1737.0,3041.0,1864.0,,,,0.0903790985567884,-0.848076229278056,0.263967557064472,,1.6966450796285035,,
,3500.0,782.0,2233.0,954.0,1747.0,3045.0,1888.0,,,,0.0903813569543911,-0.848043351868408,0.263644032059598,,2.1015126055080313,,
,3500.0,780.0,2231.0,955.0,1756.0,3043.0,1882.0,,,,0.0903804453488443,-0.848224675063047,0.263567594981571,,2.4971495221912394,,
,3502.0,782.0,2234.0,955.0,1761.0,3041.0,1878.0,,,,0.0903813126481979,-0.848464254054817,0.263366006241766,,2.884241866317553,,
,3503.0,782.0,2231.0,957.0,1757.0,3035.0,1884.0,,,,0.0903793251760239,-0.848082979341117,0.263361101308061,,3.262470959613858,,
,3506.0,780.0,2234.0,956.0,1761.0,3038.0,1901.0,,,,0.0903815444598995,-0.848269355288093,0.263502724897049,,3.63010047748972,,
,3508.0,782.0,2237.0,956.0,1755.0,3037.0,1879.0,,,,0.090375374589351,-0.848329276924542,0.263353682853436,,3.9836893255439985,,
,3508.0,785.0,2235.0,961.0,1758.0,3041.0,1876.0,,,,0.0903766095003294,-0.849171883045823,0.263234419205839,,4.317969687018953,,
,3508.0,784.0,2237.0,960.0,1766.0,3040.0,1875.0,,,,0.0903659551361304,-0.849159297375517,0.2632373627662,,4.625915234282042,,
,3511.0,781.0,2235.0,961.0,1753.0,3042.0,1872.0,,,,0.0903754169435933,-0.848820097978801,0.262904706523299,,4.899007083653669,,
,3513.0,783.0,2237.0,959.0,1766.0,3035.0,1887.0,,,,0.0903771698955024,-0.84931500480696,0.262971898942745,,5.127686250095805,,
,3513.0,784.0,2237.0,962.0,1766.0,3035.0,1874.0,,,,0.0903784174685793,-0.849303032372776,0.262841108667644,,5.301962757696812,,
,3515.0,784.0,2237.0,960.0,1765.0,3033.0,1864.0,,,,0.0903722667762104,-0.849402523487362,0.262895789232346,,5.412134767964118,,
,3515.0,784.0,2238.0,963.0,1788.0,3033.0,1864.0,,,,0.0903726003894165,-0.849601412104547,0.262741580928816,,5.449557507972096,,
,3519.0,785.0,2241.0,963.0,1765.0,3043.0,1870.0,,,,0.0903707089637446,-0.849600676613657,0.262657825242085,,5.407392676386125,,
,3520.0,786.0,2244.0,965.0,1765.0,3046.0,1874.0,,,,0.0903687553223131,-0.849635593470058,0.262410315910063,,5.281265781141332,,
,3522.0,786.0,2244.0,966.0,1763.0,3043.0,1872.0,,,,0.0903681774246798,-0.849908472183191,0.262446482641807,,5.069763111667496,,
,3522.0,784.0,2244.0,964.0,1766.0,3041.0,1857.0,,,,0.0903702814240096,-0.850107246262959,0.262514065776871,,4.774712900554449,,
,3526.0,786.0,2244.0,965.0,1765.0,3041.0,1880.0,,,,0.0903646078334068,-0.850118081247291,0.262027437324217,,4.401216332687471,,
,3526.0,788.0,2245.0,967.0,1761.0,3039.0,1858.0,,,,0.0903630756868529,-0.850410238968487,0.261810204664774,,3.957421035124968,,
,3527.0,788.0,2248.0,970.0,1759.0,3037.0,1879.0,,,,0.0903557414218677,-0.850491502599909,0.261851057631079,,3.4540584591228156,,
,3530.0,788.0,2248.0,967.0,1758.0,3043.0,1886.0,,,,0.0903540818302036,-0.850414170595206,0.261863503379767,,2.9037923989361856,,
,3529.0,786.0,2248.0,966.0,1751.0,3044.0,1878.0,,,,0.0903623401977302,-0.850157700758585,0.261440555226196,,2.3204446417768336,,
,3535.0,789.0,2250.0,971.0,1764.0,3042.0,1880.0,,,,0.0903599550435861,-0.85089013896228,0.261230127460337,,1.71817296227892,,
,3535.0,788.0,2250.0,971.0,1764.0,3041.0,1873.0,,,,0.090348391311835,-0.851717970080484,0.261613296155109,,1.110675984881086,,
,3536.0,789.0,2254.0,971.0,1766.0,3039.0,1876.0,,,,0.0903563900817154,-0.85139483843441,0.261207228203951,,0.5104901327827583,,
,3539.0,789.0,2253.0,972.0,1765.0,3031.0,1870.0,,,,0.0903573337108099,-0.851344562035289,0.261229695797299,,-0.07157172307405564,,
,3541.0,787.0,2251.0,971.0,1753.0,3036.0,1875.0,,,,0.0903514302546299,-0.851172100511232,0.260864415287436,,-0.6268092499540594,,
,3543.0,791.0,2254.0,973.0,1757.0,3035.0,1891.0,,,,0.0903533607800925,-0.851460329464136,0.260453102410857,,-1.1488395575907635,,
,3546.0,790.0,2255.0,974.0,1758.0,3027.0,1910.0,,,,0.0903443790780177,-0.851544223770558,0.261098480764324,,-1.63362224347961,,
,3546.0,793.0,2258.0,973.0,1755.0,3032.0,1904.0,,,,0.0903528677426718,-0.852089244362457,0.260657419559395,,-2.079320183244942,,
,3547.0,790.0,2257.0,976.0,1749.0,3045.0,1869.0,,,,0.0903484775344715,-0.851976216105096,0.260409130972688,,-2.4860189540152398,,
,3549.0,794.0,2258.0,977.0,1750.0,3041.0,1890.0,,,,0.0903504752595296,-0.852380940465836,0.260262162931087,,-2.855332683000066,,
,3550.0,793.0,2260.0,978.0,1766.0,3040.0,1898.0,,,,0.0903476638146793,-0.852290392433345,0.260244780235756,,-3.1899281594988986,,
,3554.0,793.0,2260.0,979.0,1761.0,3038.0,1894.0,,,,0.0903474733264134,-0.852287218715156,0.260178129846427,,-3.4930026757951405,,
,3555.0,792.0,2258.0,978.0,1766.0,3023.0,1901.0,,,,0.090349237445757,-0.852727068300847,0.259923074576516,,-3.7677537973862396,,
,3556.0,791.0,2263.0,978.0,1766.0,3039.0,1889.0,,,,0.0903480369303012,-0.852911744091572,0.260073410893555,,-4.016880379019693,,
,3556.0,793.0,2263.0,979.0,1783.0,3055.0,1895.0,,,,0.0903441552320836,-0.852613754038315,0.260054800800739,,-4.242153099592379,,
,3555.0,794.0,2262.0,978.0,1784.0,3056.0,1895.0,,,,0.09033654441916,-0.852763079330027,0.259823330106742,,-4.444089270148962,,
,3552.0,790.0,2260.0,976.0,1784.0,3053.0,1881.0,,,,0.0903241962707834,-0.853027109739167,0.25991821111409,,-4.621760491972596,,
,3547.0,790.0,2256.0,974.0,1772.0,3047.0,1895.0,,,,0.0903332142924289,-0.853679375505682,0.259563496642224,,-4.772752898463773,,
,3541.0,788.0,2256.0,972.0,1766.0,3044.0,1892.0,,,,0.0903312316795729,-0.853658619065074,0.259378664729187,,-4.893288464115239,,
,3538.0,788.0,2252.0,969.0,1769.0,3040.0,1894.0,,,,0.0903396483741853,-0.85349714715209,0.259701540780899,,-4.978502678944565,,
,3529.0,786.0,2252.0,966.0,1766.0,3039.0,1894.0,,,,0.0903357977182843,-0.853781385619971,0.259699193165949,,-5.022859413313959,,
,3522.0,784.0,2245.0,964.0,1765.0,3046.0,1895.0,,,,0.0903351584180855,-0.853643732761063,0.259432573017668,,-5.0206691054060295,,
,3515.0,782.0,2240.0,959.0,1756.0,3031.0,1891.0,,,,0.0903335454502132,-0.85412275090606,0.25917089782425,,-4.966663293522895,,
,3510.0,780.0,2240.0,957.0,1751.0,3031.0,1891.0,,,,0.090329456129963,-0.854190675060837,0.259259148898088,,-4.856569322394462,,
,3506.0,779.0,2235.0,957.0,1760.0,3029.0,1895.0,,,,0.0903317805314756,-0.854028552279979,0.259141519473614,,-4.687625874114508,,
,3500.0,778.0,2233.0,952.0,1761.0,3022.0,1869.0,,,,0.0903332662497543,-0.854090952842396,0.25914964516136,,-4.458983937846961,,
,3497.0,777.0,2229.0,950.0,1761.0,3022.0,1887.0,,,,0.0903246528624841,-0.85431150452888,0.25883155419347,,-4.171948877971445,,
,3493.0,776.0,2227.0,951.0,1742.0,3028.0,1880.0,,,,0.0903295993117563,-0.8544947223177,0.258591199374069,,-3.8300362660433556,,
,3491.0,775.0,2228.0,948.0,1749.0,3036.0,1872.0,,,,0.0903275548594537,-0.85447556628425,0.25857390177898,,-3.4388350199805253,,
,3491.0,775.0,2224.0,949.0,1750.0,3039.0,1885.0,,,,0.0903281139616928,-0.854831444573182,0.258369577607499,,-3.0056931986864015,,
,3488.0,776.0,2224.0,948.0,1779.0,3026.0,1882.0,,,,0.090328304147909,-0.85447957927199,0.258424736119337,,-2.5392612214183328,,
,3490.0,775.0,2225.0,946.0,1784.0,3043.0,1879.0,,,,0.0903229472076009,-0.854814412954049,0.258464516095321,,-2.0489415262423183,,
,3489.0,776.0,2227.0,951.0,1783.0,3046.0,1864.0,,,,0.0903139461751495,-0.855485056001226,0.258011909812336,,-1.5443011321075044,,
,3491.0,775.0,2225.0,949.0,1778.0,3047.0,1866.0,,,,0.090314285090067,-0.855310402475816,0.257833937897389,,-1.0345037865016717,,
,3489.0,775.0,2228.0,951.0,1766.0,3044.0,1874.0,,,,0.0903118332785294,-0.855233262927007,0.257679616941351,,-0.5278119103922645,,
,3487.0,773.0,2225.0,945.0,1773.0,3043.0,1865.0,,,,0.090309729144121,-0.855214381883525,0.257706580532842,,-0.031196998464152453,,
,3487.0,775.0,2224.0,949.0,1771.0,3041.0,1883.0,,,,0.0903065111974759,-0.855460039746649,0.257691849982571,,0.4499169324904811,,
,3485.0,773.0,2226.0,950.0,1773.0,3043.0,1879.0,,,,0.0903043921624214,-0.855848767953565,0.25767522751673,,0.9117661057351194,,
,3487.0,776.0,2226.0,950.0,1771.0,3042.0,1874.0,,,,0.0903045698175969,-0.855816589667337,0.257612302736059,,1.352217026666448,,
,3487.0,773.0,2224.0,947.0,1775.0,3048.0,1895.0,,,,0.0903105817485033,-0.856100955015292,0.257535033346428,,1.7706041108984871,,
,3488.0,773.0,2223.0,947.0,1766.0,3036.0,1888.0,,,,0.0903028739158915,-0.855716746815908,0.257129388406421,,2.167452256758925,,
,3489.0,776.0,2226.0,950.0,1769.0,3034.0,1887.0,,,,0.0903037593784366,-0.856142249203741,0.257131976707859,,2.5441072959196798,,
,3490.0,774.0,2227.0,950.0,1765.0,3037.0,1874.0,,,,0.0902983427161956,-0.856185369660569,0.257096072336603,,2.9023019955805567,,
,3490.0,777.0,2226.0,950.0,1791.0,3043.0,1882.0,,,,0.0902984629106218,-0.856278863992153,0.25709068082832,,3.243689617775399,,
,3491.0,774.0,2225.0,950.0,1774.0,3039.0,1876.0,,,,0.0903017772532295,-0.856336836891637,0.257056094231735,,3.5693809774854777,,
,3492.0,772.0,2228.0,950.0,1765.0,3037.0,1873.0,,,,0.0902886113329746,-0.856442700178006,0.257133924058959,,3.879523834229161,,
,3493.0,777.0,2226.0,950.0,1776.0,3037.0,1886.0,,,,0.0902866001487756,-0.856178906084919,0.256707574679533,,4.172964196896399,,
,3495.0,774.0,2227.0,952.0,1783.0,3036.0,1901.0,,,,0.0902873303917461,-0.856549576945181,0.256663334701331,,4.447026776904152,,
,3491.0,773.0,2228.0,950.0,1788.0,3036.0,1892.0,,,,0.0902844172430046,-0.856768395201578,0.256798607706015,,4.697445880348014,,
,3492.0,774.0,2228.0,952.0,1771.0,3040.0,1892.0,,,,0.0902832451301347,-0.857257340717072,0.256344841741005,,4.9184681474717635,,
,3491.0,777.0,2228.0,950.0,1766.0,3040.0,1891.0,,,,0.0902847377368658,-0.857380567779067,0.256122966891946,,5.103134530891167,,
,3493.0,777.0,2226.0,951.0,1760.0,3039.0,1889.0,,,,0.0902874125573742,-0.858045196640944,0.255812666591723,,5.243731228693012,,
,3490.0,774.0,2224.0,950.0,1767.0,3043.0,1877.0,,,,0.0902907444487434,-0.858537343608754,0.255462488514606,,5.332379578513212,,
,3491.0,773.0,2224.0,949.0,1781.0,3038.0,1893.0,,,,0.0902858303725188,-0.858346385043345,0.255439805797152,,5.361715768538511,,
,3489.0,774.0,2224.0,950.0,1771.0,3037.0,1911.0,,,,0.0902796226757793,-0.858799254014281,0.254913168924811,,5.325595541245746,,
,3489.0,775.0,2227.0,951.0,1765.0,3042.0,1896.0,,,,0.0902742270833418,-0.85921610876181,0.254387132412457,,5.219749550921418,,
,3490.0,772.0,2227.0,951.0,1776.0,3043.0,1907.0,,,,0.0902663412430089,-0.859612518492567,0.254375712472621,,5.042313957673998,,
,3488.0,773.0,2226.0,946.0,1765.0,3044.0,1894.0,,,,0.0902634507138788,-0.860043042619124,0.253985926297386,,4.794169743810846,,
,3490.0,773.0,2225.0,949.0,1765.0,3030.0,1878.0,,,,0.0902635514398931,-0.860303232300625,0.253995764266553,,4.479043283770446,,
,3491.0,774.0,2226.0,951.0,1765.0,3041.0,1875.0,,,,0.0902598597128956,-0.860817880879188,0.253626562532409,,4.103348090580967,,
,3492.0,775.0,2226.0,951.0,1777.0,3044.0,1879.0,,,,0.0902507299424904,-0.860166949776599,0.253311259989583,,3.675779732308162,,
,3492.0,773.0,2227.0,949.0,1755.0,3048.0,1877.0,,,,0.0902522729379429,-0.860686206444935,0.253148197300557,,3.2067077867600458,,
,3492.0,774.0,2223.0,948.0,1769.0,3042.0,1897.0,,,,0.0902443609580147,-0.861124665242472,0.253144730353889,,2.707435102072702,,
,3496.0,774.0,2227.0,951.0,1789.0,3046.0,1878.0,,,,0.090243865543923,-0.861146770844994,0.252831702223043,,2.1894107755934513,,
,3494.0,775.0,2228.0,951.0,1793.0,3045.0,1871.0,,,,0.0902488099357836,-0.861798637777979,0.252900240377891,,1.663486131781086,,
,3497.0,776.0,2228.0,952.0,1778.0,3030.0,1858.0,,,,0.0902377082331412,-0.862277779967775,0.252652678932265,,1.1392924811103107,,
,3497.0,772.0,2227.0,950.0,1782.0,3037.0,1878.0,,,,0.0902400605832626,-0.862329587272526,0.252724202231698,,0.6247984768538868,,
,3499.0,774.0,2229.0,954.0,1782.0,3046.0,1888.0,,,,0.0902423636205192,-0.861904345100753,0.252745942480647,,0.1260780725090181,,
,3498.0,776.0,2232.0,955.0,1776.0,3047.0,1893.0,,,,0.0902397929036868,-0.862828636215375,0.252746912682233,,-0.35270781404249973,,
,3502.0,774.0,2231.0,953.0,1788.0,3042.0,1892.0,,,,0.0902381346005323,-0.863158113249663,0.252081913377193,,-0.8091377732419713,,
,3502.0,772.0,2228.0,952.0,1792.0,3042.0,1905.0,,,,0.0902380708473725,-0.862936804207332,0.25226038644353,,-1.2422053637572434,,
,3504.0,775.0,2229.0,956.0,1772.0,3044.0,1906.0,,,,0.0902328205570497,-0.863654310860403,0.252142561939687,,-1.6518957565021393,,
,3504.0,776.0,2233.0,955.0,1765.0,3050.0,1874.0,,,,0.0902293879992847,-0.863721143887869,0.252115510266075,,-2.0387192368654907,,
,3508.0,776.0,2234.0,956.0,1775.0,3050.0,1865.0,,,,0.0902333210885592,-0.863636242806879,0.252079121076003,,-2.403253989053085,,
,3505.0,775.0,2230.0,955.0,1770.0,3043.0,1866.0,,,,0.0902294235124831,-0.863753850601034,0.251687362469899,,-2.745742490449176,,
,3509.0,775.0,2234.0,955.0,1784.0,3039.0,1881.0,,,,0.0902372292848762,-0.8638799615568,0.251777773818187,,-3.06577489422323,,
,3511.0,777.0,2233.0,958.0,1774.0,3042.0,1902.0,,,,0.09022904753693,-0.863701053831914,0.251695642198018,,-3.362080804206154,,
,3512.0,776.0,2235.0,959.0,1774.0,3038.0,1898.0,,,,0.0902332768748196,-0.863825627910595,0.251632753133008,,-3.6324393918185107,,
,3512.0,779.0,2236.0,956.0,1763.0,3039.0,1893.0,,,,0.0902316784339837,-0.863725619167878,0.251520281486854,,-3.8737078390262423,,
,3511.0,777.0,2235.0,957.0,1772.0,3038.0,1874.0,,,,0.0902310518540297,-0.863541919309276,0.251595579047248,,-4.081959793064717,,
,3517.0,777.0,2236.0,961.0,1787.0,3039.0,1870.0,,,,0.0902252470515616,-0.863935042038044,0.251821324359772,,-4.252718561660492,,
,3516.0,780.0,2237.0,961.0,1777.0,3050.0,1871.0,,,,0.0902167048270233,-0.864131047267535,0.251606307973194,,-4.381263924110049,,
,3520.0,780.0,2238.0,960.0,1770.0,3050.0,1871.0,,,,0.0902227201597412,-0.864296935495248,0.251048353660845,,-4.462986857484345,,
,3520.0,781.0,2239.0,961.0,1776.0,3038.0,1860.0,,,,0.0902132690909303,-0.864546200141168,0.251334132477881,,-4.493763572801344,,
2025-07-01 21:44:08,3519.0,782.0,2243.0,962.0,1778.0,3038.0,1876.0,,,2025/07/01 09:44:08 PM,0.0902027482214241,-0.864295424666667,0.251024798498887,,-4.47031924621722,,
,3522.0,782.0,2241.0,962.0,1783.0,3038.0,1875.0,,,,0.0902104033749242,-0.864810123363193,0.250597639231335,,-4.390552619035901,,
,3526.0,781.0,2242.0,963.0,1774.0,3037.0,1866.0,,,,0.0902064650524873,-0.864438838586969,0.251058891685746,,-4.253794967237644,,
,3528.0,783.0,2243.0,963.0,1769.0,3032.0,1863.0,,,,0.0902150282077444,-0.864444173543591,0.250693146646909,,-4.060980538296387,,
,3526.0,781.0,2240.0,963.0,1778.0,3025.0,1875.0,,,,0.0902186580321835,-0.864909873167755,0.250601115618458,,-3.814710193045623,,
,3528.0,783.0,2245.0,967.0,1769.0,3031.0,1869.0,,,,0.0902124966583259,-0.864923985704069,0.250747670110465,,-3.519195673266458,,
,3531.0,785.0,2248.0,966.0,1746.0,3040.0,1870.0,,,,0.0902085661902779,-0.865228156272056,0.250404709559527,,-3.1800791873993726,,
,3533.0,783.0,2245.0,967.0,1754.0,3040.0,1873.0,,,,0.0902106692115901,-0.866028929844356,0.250008930890216,,-2.8041328065046534,,
,3533.0,782.0,2245.0,965.0,1756.0,3030.0,1867.0,,,,0.0902044149321945,-0.865710495807314,0.250379480174559,,-2.398854875197031,,
,3533.0,781.0,2247.0,966.0,1772.0,3043.0,1885.0,,,,0.0901971051406495,-0.865464982462706,0.250064886803267,,-1.9719950930678178,,
,3538.0,785.0,2249.0,968.0,1792.0,3046.0,1883.0,,,,0.0902002338383732,-0.865573299582808,0.250184748954057,,-1.531053280084081,,
,3538.0,784.0,2251.0,970.0,1785.0,3037.0,1865.0,,,,0.0901987563476125,-0.865825607981344,0.249853971403447,,-1.0828055502994296,,
,3541.0,785.0,2249.0,969.0,1783.0,3033.0,1860.0,,,,0.0901953868359193,-0.865520316232205,0.249909991507451,,-0.6329127989377398,,
,3540.0,784.0,2251.0,969.0,1762.0,3028.0,1858.0,,,,0.0902002873757162,-0.86583246767101,0.249720504839714,,-0.18565900455117243,,
,3542.0,786.0,2254.0,971.0,1779.0,3034.0,1860.0,,,,0.0901933335710341,-0.866322911630551,0.249602596133631,,0.25614797250220683,,
,3545.0,786.0,2253.0,971.0,1775.0,3026.0,1874.0,,,,0.0901930091596417,-0.866301975844859,0.249628443461287,,0.6910997830414423,,
,3546.0,785.0,2252.0,971.0,1766.0,3030.0,1870.0,,,,0.0901885741499934,-0.866262625763804,0.249098139242126,,1.1189423360897741,,
,3546.0,785.0,2253.0,971.0,1776.0,3038.0,1878.0,,,,0.0901855869275521,-0.866845641190158,0.249484792959408,,1.5401877479719441,,
,3548.0,787.0,2252.0,970.0,1781.0,3036.0,1885.0,,,,0.090184663092502,-0.866581040792267,0.249132630909384,,1.9556244183965723,,
,3549.0,788.0,2255.0,972.0,1788.0,3033.0,1881.0,,,,0.0901827098665812,-0.867151436103318,0.249032739730019,,2.365776665643232,,
,3551.0,790.0,2255.0,972.0,1788.0,3036.0,1888.0,,,,0.0901815823655391,-0.866812080319141,0.248650395709204,,2.770370683506445,,
,3552.0,790.0,2257.0,974.0,1784.0,3027.0,1872.0,,,,0.0901795319741134,-0.867354248178253,0.249255107786218,,3.1678633617663396,,
,3555.0,789.0,2256.0,972.0,1778.0,3033.0,1871.0,,,,0.0901829063546014,-0.867212811118735,0.248994410976172,,3.5550849292659943,,
,3553.0,790.0,2256.0,974.0,1789.0,3050.0,1892.0,,,,0.0901806474377281,-0.866921476155645,0.248673286396083,,3.9270363622433826,,
,3551.0,790.0,2254.0,971.0,1789.0,3046.0,1891.0,,,,0.0901810947586331,-0.867704534237285,0.248612052580606,,4.276869352011182,,
,3547.0,788.0,2252.0,970.0,1791.0,3045.0,1878.0,,,,0.0901817274190601,-0.867895640346268,0.248550556008646,,4.596061475042255,,
,3540.0,784.0,2248.0,966.0,1790.0,3046.0,1873.0,,,,0.0901851065152128,-0.867941109169081,0.248364633461239,,4.874782839155714,,
,3534.0,785.0,2245.0,966.0,1782.0,3046.0,1890.0,,,,0.0901811154359389,-0.867821544410578,0.248370377924711,,5.102433613711479,,
,3527.0,783.0,2244.0,962.0,1767.0,3037.0,1896.0,,,,0.0901802298476135,-0.867544157947425,0.248419485462967,,5.268315490275464,,
,3521.0,781.0,2239.0,959.0,1769.0,3030.0,1875.0,,,,0.0901781846305079,-0.867581120368163,0.248010145018095,,5.36238560464652,,
,3515.0,781.0,2237.0,954.0,1768.0,3032.0,1865.0,,,,0.0901722433462143,-0.867615941961894,0.24809481203781,,5.376030339549204,,
,3506.0,778.0,2231.0,950.0,1771.0,3029.0,1889.0,,,,0.0901785988130284,-0.867906381258993,0.248067958810235,,5.302790363691842,,
,3498.0,776.0,2231.0,950.0,1753.0,3031.0,1897.0,,,,0.0901772792814138,-0.867793789911483,0.248152938736943,,5.138968728039748,,
,3494.0,777.0,2225.0,948.0,1756.0,3033.0,1873.0,,,,0.0901790291815229,-0.868216448628251,0.247979816419249,,4.884061681072486,,
,3491.0,775.0,2223.0,947.0,1760.0,3038.0,1858.0,,,,0.0901755917845684,-0.868305823632042,0.247731498184546,,4.540966876202245,,
,3488.0,772.0,2219.0,944.0,1767.0,3035.0,1842.0,,,,0.0901774924920798,-0.868662458763684,0.24790921390977,,4.115944523884791,,
,3484.0,773.0,2219.0,944.0,1768.0,3033.0,1840.0,,,,0.0901728721444195,-0.868956474683364,0.247710493105853,,3.6183315870289787,,
,3483.0,772.0,2217.0,943.0,1770.0,3038.0,1855.0,,,,0.0901767222655019,-0.869119631274263,0.247570858501779,,3.0600343676684703,,
,3481.0,772.0,2215.0,944.0,1769.0,3037.0,1854.0,,,,0.0901687624751701,-0.868670520237626,0.247453278581835,,2.4548472631822325,,
,3479.0,772.0,2213.0,942.0,1785.0,3045.0,1858.0,,,,0.090168142177129,-0.869113471738111,0.247396530808782,,1.81766164526445,,
,3477.0,771.0,2213.0,938.0,1788.0,3046.0,1860.0,,,,0.0901719747962672,-0.869077457752112,0.247850909884914,,1.16363639670765,,
,3478.0,771.0,2213.0,943.0,1799.0,3048.0,1892.0,,,,0.0901676713046526,-0.869109331744326,0.247502185465627,,0.5074001608307892,,
,3476.0,770.0,2213.0,940.0,1799.0,3043.0,1872.0,,,,0.0901724069094969,-0.869265095782338,0.247316100757994,,-0.13765379980873077,,
,3476.0,771.0,2215.0,941.0,1787.0,3041.0,1880.0,,,,0.0901753518619008,-0.869360550610974,0.247320338043933,,-0.7599335646623119,,
,3475.0,767.0,2212.0,940.0,1784.0,3045.0,1871.0,,,,0.0901733446186111,-0.868951393208959,0.247325388461181,,-1.3500454587128257,,
,3474.0,771.0,2211.0,942.0,1771.0,3044.0,1859.0,,,,0.0901723367493334,-0.86871663950661,0.247252340605658,,-1.9010085043907963,,
,3474.0,771.0,2212.0,944.0,1779.0,3043.0,1875.0,,,,0.0901685407534013,-0.869287677723351,0.247139441095925,,-2.408287363442764,,
,3475.0,768.0,2211.0,941.0,1780.0,3039.0,1890.0,,,,0.0901702952387883,-0.869362694269876,0.247306549055609,,-2.869656149610144,,
,3470.0,767.0,2209.0,939.0,1769.0,3040.0,1894.0,,,,0.0901740655405487,-0.86942715192162,0.247282120159571,,-3.2849146270182885,,
,3473.0,770.0,2211.0,940.0,1763.0,3030.0,1870.0,,,,0.0901730825955166,-0.869159350158051,0.247266025138764,,-3.655486194956618,,
,3477.0,773.0,2212.0,943.0,1758.0,3034.0,1889.0,,,,0.090173957131544,-0.869369606683094,0.247200717669434,,-3.98393394901355,,
,3471.0,772.0,2213.0,942.0,1761.0,3031.0,1898.0,,,,0.0901730886789173,-0.869591061300901,0.247092078747646,,-4.273436111785343,,
,3473.0,770.0,2214.0,940.0,1764.0,3048.0,1873.0,,,,0.0901744706983485,-0.869313932110323,0.247328772668019,,-4.527264080664591,,
,3472.0,770.0,2210.0,940.0,1757.0,3036.0,1868.0,,,,0.0901779518547812,-0.869366155906757,0.247425241654841,,-4.748304783417526,,
,3474.0,770.0,2212.0,944.0,1747.0,3040.0,1883.0,,,,0.0901784327780108,-0.869107380832679,0.247227257688064,,-4.938664340456735,,
,3475.0,772.0,2211.0,942.0,1758.0,3048.0,1884.0,,,,0.0901759415584815,-0.869754865198249,0.247330037742224,,-5.099382935402439,,
,3475.0,771.0,2210.0,941.0,1765.0,3048.0,1883.0,,,,0.0901769140101143,-0.869592847384306,0.247070618929795,,-5.230281970635965,,
,3473.0,771.0,2210.0,941.0,1750.0,3039.0,1876.0,,,,0.0901765532124241,-0.869795894775457,0.247045034487628,,-5.329954543822835,,
,3473.0,770.0,2210.0,942.0,1762.0,3040.0,1872.0,,,,0.0901815653797216,-0.869759463510345,0.247099555249603,,-5.395899329827254,,
,3475.0,772.0,2210.0,944.0,1751.0,3040.0,1890.0,,,,0.0901719830769287,-0.870393450994898,0.247141144867133,,-5.424786216300001,,
,3475.0,771.0,2211.0,942.0,1754.0,3042.0,1894.0,,,,0.0901739293658056,-0.870267145360049,0.246811535765513,,-5.412829821499956,,
,3475.0,771.0,2209.0,943.0,1747.0,3042.0,1884.0,,,,0.0901641534497789,-0.870454212581243,0.24654098680128,,-5.35623538958828,,
,3473.0,768.0,2210.0,942.0,1747.0,3043.0,1882.0,,,,0.0901661339064195,-0.870884733225444,0.246623992707076,,-5.251672529930348,,
,3472.0,771.0,2210.0,942.0,1744.0,3045.0,1884.0,,,,0.0901655436597884,-0.871247575568582,0.24628702401061,,-5.096728082628896,,
,3473.0,771.0,2208.0,943.0,1753.0,3040.0,1884.0,,,,0.0901629497357009,-0.87169006030143,0.246275585276258,,-4.890291353031017,,
,3471.0,770.0,2210.0,944.0,1750.0,3037.0,1879.0,,,,0.0901609368069822,-0.871529371143606,0.246315045398116,,-4.63283283508524,,
,3470.0,770.0,2208.0,939.0,1748.0,3039.0,1890.0,,,,0.0901674236941395,-0.871305998862189,0.246101787450684,,-4.326549890530179,,
,3473.0,770.0,2209.0,941.0,1747.0,3038.0,1874.0,,,,0.0901642001037659,-0.871958208842372,0.245972670443481,,-3.975367634142177,,
,3475.0,772.0,2210.0,941.0,1753.0,3034.0,1874.0,,,,0.0901672216243673,-0.872139802253515,0.245991333559276,,-3.5847983135856034,,
,3474.0,770.0,2210.0,944.0,1754.0,3038.0,1850.0,,,,0.0901632242959373,-0.872020606030772,0.246350581052142,,-3.161675791497387,,
,3472.0,771.0,2210.0,942.0,1766.0,3044.0,1864.0,,,,0.0901664021410136,-0.872179732361061,0.246049079686049,,-2.713792005512344,,
,3475.0,770.0,2209.0,939.0,1756.0,3039.0,1866.0,,,,0.0901700966906352,-0.872192646376756,0.246344509764984,,-2.249469032814966,,
,3475.0,771.0,2210.0,944.0,1755.0,3038.0,1865.0,,,,0.0901730430137224,-0.872008550726814,0.246115380779374,,-1.7771037058267292,,
,3476.0,774.0,2211.0,946.0,1762.0,3042.0,1872.0,,,,0.0901745197156467,-0.871956244572966,0.246235109406241,,-1.3047216965638966,,
,3476.0,771.0,2211.0,945.0,1760.0,3044.0,1874.0,,,,0.0901752101842885,-0.872520522446229,0.246358464537939,,-0.8395745524281727,,
,3476.0,769.0,2209.0,942.0,1779.0,3045.0,1861.0,,,,0.0901738025291035,-0.872371400589372,0.246591358897031,,-0.38780662927587783,,
,3477.0,771.0,2213.0,945.0,1775.0,3041.0,1868.0,,,,0.0901777337739362,-0.87189536514701,0.246410783893714,,0.0457895923434867,,
,3481.0,771.0,2213.0,945.0,1756.0,3044.0,1870.0,,,,0.0901769764749242,-0.871912498591388,0.246474183936301,,0.4579199124077978,,
,3480.0,772.0,2216.0,945.0,1760.0,3047.0,1872.0,,,,0.0901773465886679,-0.872032747022122,0.246664956966863,,0.8468339108602198,,
,3482.0,772.0,2210.0,946.0,1755.0,3040.0,1891.0,,,,0.0901787815620062,-0.871946590873571,0.246810068466581,,1.212272420000414,,
,3481.0,774.0,2215.0,945.0,1764.0,3041.0,1884.0,,,,0.090184944051161,-0.872128314389795,0.246707049725689,,1.5553239435782336,,
,3483.0,774.0,2213.0,946.0,1759.0,3033.0,1883.0,,,,0.0901813270558629,-0.872129961557113,0.246803943651434,,1.8782001405728161,,
,3485.0,772.0,2216.0,949.0,1756.0,3041.0,1884.0,,,,0.0901768985439929,-0.871826360081531,0.246738037893502,,2.183942905090848,,
,3484.0,772.0,2215.0,947.0,1750.0,3048.0,1877.0,,,,0.0901774080508448,-0.871840972831775,0.24708074305915,,2.476077421361293,,
,3489.0,774.0,2214.0,948.0,1761.0,3035.0,1884.0,,,,0.0901764339554857,-0.871723124543973,0.247080893120465,,2.7582272228666183,,
,3488.0,774.0,2217.0,949.0,1763.0,3038.0,1896.0,,,,0.090186816726131,-0.871581060322873,0.247174225983582,,3.03370922425959,,
,3491.0,776.0,2218.0,951.0,1763.0,3038.0,1879.0,,,,0.0901898951759642,-0.871049059881854,0.24727875969083,,3.3051292329093034,,
,3491.0,774.0,2216.0,950.0,1761.0,3038.0,1877.0,,,,0.0901850701431438,-0.871333484039804,0.247305243913207,,3.5740015577869184,,
,3491.0,775.0,2218.0,948.0,1765.0,3044.0,1877.0,,,,0.0901907931143095,-0.870473455770937,0.247531062576596,,3.8404196436277727,,
,3494.0,777.0,2218.0,951.0,1759.0,3048.0,1871.0,,,,0.0901950117026808,-0.870408775033811,0.24787773679915,,4.102807324603856,,
,3496.0,777.0,2221.0,952.0,1751.0,3044.0,1884.0,,,,0.090195328027208,-0.870692857007412,0.247783977089946,,4.357780861593198,,
,3497.0,779.0,2223.0,953.0,1744.0,3045.0,1870.0,,,,0.0901954943082933,-0.870294054611029,0.247873292472791,,4.6001486993816405,,
,3498.0,777.0,2220.0,951.0,1746.0,3031.0,1859.0,,,,0.0901945872167984,-0.870390373764493,0.248014107531261,,4.823067822602957,,
,3498.0,778.0,2220.0,953.0,1753.0,3044.0,1875.0,,,,0.0901945389128499,-0.870148717699203,0.248075043924566,,5.018363002783573,,
,3500.0,779.0,2224.0,956.0,1749.0,3045.0,1871.0,,,,0.09019100323128,-0.870805100820661,0.247837411826067,,5.176999535803792,,
,3504.0,778.0,2222.0,955.0,1738.0,3048.0,1866.0,,,,0.0901986196219638,-0.870447546577608,0.247980356934382,,5.289683127959221,,
,3504.0,779.0,2226.0,956.0,1738.0,3050.0,1858.0,,,,0.0901960393451357,-0.8699769276965,0.248090438880022,,5.347544284540791,,
,3503.0,780.0,2222.0,954.0,1764.0,3050.0,1859.0,,,,0.0902006837899112,-0.869873523684853,0.248112978296878,,5.3428508314441245,,
,3508.0,781.0,2226.0,957.0,1750.0,3043.0,1881.0,,,,0.0901982655100349,-0.869582850041115,0.24852477085769,,5.269683131748305,,
,3508.0,780.0,2225.0,958.0,1742.0,3044.0,1883.0,,,,0.0902000791635817,-0.869946120732446,0.248075155344525,,5.124504127516386,,
,3508.0,782.0,2228.0,959.0,1743.0,3046.0,1869.0,,,,0.0901978634711191,-0.869595046254051,0.248574896602021,,4.906562014429024,,
,3510.0,779.0,2228.0,959.0,1758.0,3042.0,1876.0,,,,0.090201679368498,-0.869995075102261,0.248346907485607,,4.618077672455292,,
,3513.0,781.0,2227.0,958.0,1751.0,3036.0,1888.0,,,,0.0902004737802979,-0.869755861707979,0.248228066613492,,4.264191063628673,,
,3512.0,783.0,2229.0,960.0,1762.0,3045.0,1882.0,,,,0.090199456336444,-0.869532988104384,0.248484392496628,,3.8526680361928354,,
,3515.0,784.0,2232.0,962.0,1760.0,3047.0,1890.0,,,,0.0902036503706919,-0.869558582380743,0.248570807908606,,3.393397046365608,,
,3518.0,781.0,2230.0,964.0,1744.0,3052.0,1889.0,,,,0.0901916838891969,-0.869449387345855,0.248796573619376,,2.897729219960652,,
,3519.0,782.0,2228.0,962.0,1745.0,3051.0,1895.0,,,,0.0901967952952455,-0.869440214841869,0.249058880447805,,2.3777308194929603,,
,3519.0,785.0,2233.0,962.0,1753.0,3049.0,1899.0,,,,0.0902078466836223,-0.869146654112938,0.248995293735122,,1.8454226292963045,,
,3522.0,785.0,2232.0,964.0,1732.0,3043.0,1901.0,,,,0.0902099738097662,-0.868657237341708,0.249219295191786,,1.3120764090930805,,
,3524.0,787.0,2235.0,966.0,1731.0,3037.0,1898.0,,,,0.0902115173054976,-0.868913303732648,0.249151283589602,,0.7876263895316677,,
,3524.0,785.0,2235.0,965.0,1749.0,3038.0,1905.0,,,,0.0902082688925951,-0.868604628082997,0.249350227437629,,0.2802366402268397,,
,3523.0,786.0,2233.0,965.0,1744.0,3036.0,1912.0,,,,0.0902122796711729,-0.868617293735992,0.249439881074359,,-0.20395384567340524,,
,3529.0,788.0,2240.0,968.0,1741.0,3039.0,1894.0,,,,0.0902110469558381,-0.868213513032198,0.249733743615708,,-0.6609046041567157,,
,3529.0,789.0,2239.0,966.0,1749.0,3037.0,1901.0,,,,0.0902154781325161,-0.867941307386481,0.249729264000978,,-1.088577419824283,,
,3531.0,788.0,2238.0,968.0,1742.0,3033.0,1887.0,,,,0.0902114685522543,-0.868179998748959,0.249840303777854,,-1.4866941986509326,,
,3533.0,786.0,2237.0,967.0,1747.0,3052.0,1875.0,,,,0.0902134182762489,-0.868181653164467,0.250067383731915,,-1.8563814881317797,,
,3530.0,789.0,2237.0,967.0,1753.0,3066.0,1867.0,,,,0.0902159993193741,-0.867811305424385,0.250071258769682,,-2.199738942118673,,
,3525.0,788.0,2236.0,964.0,1753.0,3076.0,1876.0,,,,0.0902127271863015,-0.867395086757843,0.250150821337268,,-2.5193699697855148,,
,3521.0,789.0,2233.0,961.0,1750.0,3073.0,1876.0,,,,0.0902248610363166,-0.867030712848324,0.250170005508543,,-2.8179106889121477,,
,3515.0,782.0,2231.0,960.0,1758.0,3062.0,1891.0,,,,0.090223257176698,-0.867304498100868,0.25023508133728,,-3.0975897781235657,,
,3506.0,781.0,2225.0,956.0,1774.0,3050.0,1881.0,,,,0.0902250122923433,-0.867084277278658,0.250690202650369,,-3.3598482938518646,,
,3503.0,782.0,2222.0,955.0,1776.0,3042.0,1870.0,,,,0.0902198131725721,-0.867354105460491,0.250632328085779,,-3.6050450634714712,,
,3493.0,778.0,2220.0,953.0,1760.0,3039.0,1887.0,,,,0.0902248904729186,-0.867146858922555,0.250562815092487,,-3.83226884042601,,
,3485.0,777.0,2215.0,947.0,1745.0,3030.0,1880.0,,,,0.0902280488475293,-0.867178649666972,0.250884623698065,,-4.039271973165659,,
,3477.0,775.0,2211.0,943.0,1756.0,3035.0,1892.0,,,,0.0902271499831104,-0.866228016986558,0.250601336036407,,-4.222531766179019,,
,3474.0,774.0,2207.0,940.0,1743.0,3035.0,1870.0,,,,0.0902252389099212,-0.866435514235436,0.251043751451663,,-4.377435870117651,,
,3469.0,773.0,2203.0,942.0,1743.0,3036.0,1874.0,,,,0.0902315436246224,-0.86569395949671,0.251093283420684,,-4.498578277327559,,
,3464.0,771.0,2203.0,939.0,1738.0,3040.0,1879.0,,,,0.0902303377392428,-0.86623548739783,0.251391572267289,,-4.5801440162611975,,
2025-07-01 21:44:09,3459.0,771.0,2199.0,937.0,1728.0,3039.0,1879.0,,,2025/07/01 09:44:09 PM,0.0902279091693121,-0.866404861477462,0.251138473884648,,-4.616354188421979,,
,3457.0,768.0,2198.0,937.0,1742.0,3034.0,1866.0,,,,0.0902315720727126,-0.865869283578065,0.251438914800008,,-4.601938883126499,,
,3458.0,769.0,2198.0,938.0,1739.0,3045.0,1867.0,,,,0.0902294282871564,-0.865935679984033,0.251693195472153,,-4.5326035779760225,,
,3454.0,770.0,2196.0,937.0,1738.0,3049.0,1861.0,,,,0.0902280025771045,-0.866594112967417,0.251709040863747,,-4.405454284315692,,
,3453.0,770.0,2195.0,937.0,1762.0,3050.0,1865.0,,,,0.0902307616998636,-0.865815612021126,0.251550585135462,,-4.219347338212268,,
,3450.0,767.0,2196.0,936.0,1739.0,3052.0,1852.0,,,,0.0902327277569057,-0.865740706881741,0.251816182389956,,-3.9751315675550676,,
,3449.0,766.0,2195.0,936.0,1754.0,3049.0,1851.0,,,,0.090241675989179,-0.865524971506429,0.251979170954009,,-3.6757548316626636,,
,3450.0,767.0,2192.0,936.0,1759.0,3043.0,1864.0,,,,0.0902431041187291,-0.865039221808427,0.252191526799067,,-3.3262151244188463,,
,3450.0,770.0,2192.0,936.0,1750.0,3042.0,1865.0,,,,0.0902370399741095,-0.864906165351758,0.252249302829886,,-2.9333490341721347,,
,3447.0,767.0,2191.0,935.0,1754.0,3050.0,1857.0,,,,0.090242150678641,-0.864994160136581,0.252209541673942,,-2.50546620892068,,
,3448.0,766.0,2193.0,937.0,1729.0,3048.0,1884.0,,,,0.0902406811206379,-0.864672794692716,0.252635634802629,,-2.051855247194379,,
,3448.0,766.0,2194.0,937.0,1728.0,3039.0,1877.0,,,,0.0902393547623364,-0.864217151151651,0.252853561495285,,-1.5822015994402672,,
,3447.0,768.0,2190.0,936.0,1735.0,3038.0,1887.0,,,,0.0902435605024262,-0.863891422556389,0.252699328019327,,-1.1059695718961133,,
,3447.0,766.0,2192.0,934.0,1733.0,3041.0,1900.0,,,,0.0902470265985553,-0.863781686934165,0.252871133497345,,-0.631806826820587,,
,3449.0,765.0,2191.0,935.0,1737.0,3048.0,1896.0,,,,0.0902451523225171,-0.863786647208027,0.253026211542587,,-0.16702974152225136,,
,3448.0,766.0,2193.0,938.0,1748.0,3043.0,1912.0,,,,0.0902490983200023,-0.863518214045775,0.252977346476419,,0.2827588214410115,,
,3447.0,766.0,2193.0,937.0,1745.0,3048.0,1879.0,,,,0.0902474594180636,-0.863407797441017,0.25324065892678,,0.7138808201129235,,
,3450.0,772.0,2192.0,935.0,1737.0,3054.0,1872.0,,,,0.0902494184713669,-0.863264576399045,0.253745573644903,,1.1246026857216123,,
,3447.0,764.0,2190.0,935.0,1744.0,3053.0,1885.0,,,,0.0902472158925415,-0.862734755840089,0.253759990076747,,1.5149629743044297,,
,3448.0,768.0,2192.0,936.0,1737.0,3051.0,1898.0,,,,0.0902524430190224,-0.86328999699334,0.253664556209683,,1.8864280399034696,,
,3447.0,768.0,2193.0,938.0,1745.0,3044.0,1889.0,,,,0.0902504590823739,-0.862466677163466,0.253482194919465,,2.2414133233504017,,
,3449.0,769.0,2191.0,938.0,1747.0,3058.0,1875.0,,,,0.090261048349176,-0.862303288640245,0.25393732035611,,2.582720296283968,,
,3447.0,764.0,2190.0,937.0,1737.0,3056.0,1879.0,,,,0.0902598978739659,-0.861451379387891,0.254191282484504,,2.9129452436799195,,
,3447.0,764.0,2190.0,936.0,1730.0,3053.0,1889.0,,,,0.0902562996036372,-0.861676418699676,0.25441045237379,,3.233916069782582,,
,3448.0,765.0,2190.0,936.0,1746.0,3060.0,1890.0,,,,0.0902582450340079,-0.861702285340289,0.254539726296542,,3.5462082398591166,,
,3446.0,765.0,2191.0,936.0,1731.0,3055.0,1893.0,,,,0.0902600714791336,-0.862004825465917,0.254264891075743,,3.8487821531963666,,
,3443.0,767.0,2187.0,934.0,1738.0,3060.0,1911.0,,,,0.0902654320578269,-0.862458331798684,0.253790462757582,,4.138772871858743,,
,3445.0,765.0,2188.0,935.0,1716.0,3054.0,1909.0,,,,0.0902624131730361,-0.86246763300831,0.253655669503487,,4.411450234798012,,
,3447.0,765.0,2190.0,937.0,1723.0,3057.0,1897.0,,,,0.0902573547301653,-0.862468179189676,0.253790673954792,,4.660353940716309,,
,3446.0,764.0,2189.0,935.0,1721.0,3053.0,1895.0,,,,0.090252244277269,-0.862755066274647,0.254030735010024,,4.877595103966919,,
,3445.0,765.0,2189.0,938.0,1720.0,3049.0,1879.0,,,,0.0902577619651509,-0.862670283703492,0.254088612385763,,5.054303887648251,,
,3445.0,765.0,2189.0,934.0,1702.0,3047.0,1885.0,,,,0.0902526691332758,-0.862741277236712,0.254148888880982,,5.1811927277569865,,
,3446.0,767.0,2187.0,935.0,1731.0,3058.0,1907.0,,,,0.0902558987938492,-0.862002208722572,0.25396281414471,,5.2491966516392985,,
,3443.0,766.0,2191.0,937.0,1730.0,3055.0,1901.0,,,,0.0902605854902097,-0.862796464292759,0.254350125424136,,5.250146043461107,,
,3446.0,765.0,2189.0,936.0,1727.0,3052.0,1895.0,,,,0.0902628501144511,-0.862243324659476,0.25431211696189,,5.177422542935582,,
,3445.0,765.0,2190.0,938.0,1726.0,3039.0,1891.0,,,,0.0902538653696389,-0.861819488921181,0.254419333969385,,5.026545842571098,,
,3447.0,766.0,2188.0,936.0,1737.0,3050.0,1892.0,,,,0.0902567467156099,-0.862203865541297,0.25461944828987,,4.79563936646818,,
,3446.0,766.0,2190.0,938.0,1722.0,3047.0,1900.0,,,,0.0902531991393092,-0.861812817005954,0.254471088795345,,4.485728166091678,,
,3449.0,769.0,2190.0,939.0,1726.0,3043.0,1900.0,,,,0.0902546646599116,-0.861863671203176,0.254649775387627,,4.100834162269187,,
,3449.0,768.0,2190.0,938.0,1724.0,3048.0,1892.0,,,,0.0902559960613457,-0.861748486951294,0.254455844187991,,3.647851666987735,,
,3449.0,763.0,2189.0,939.0,1731.0,3048.0,1879.0,,,,0.0902537487937465,-0.861877959288944,0.254705020569297,,3.136207705961668,,
,3451.0,767.0,2190.0,940.0,1728.0,3057.0,1889.0,,,,0.0902486346528386,-0.861298563802626,0.25474782992098,,2.5773337978476913,,
,3450.0,769.0,2193.0,940.0,1740.0,3045.0,1884.0,,,,0.0902446246546662,-0.861114263518378,0.254573705270021,,1.9839952217543217,,
,3452.0,767.0,2193.0,939.0,1741.0,3046.0,1883.0,,,,0.0902489819554402,-0.861357180632904,0.255094052445749,,1.3695377584844306,,
,3454.0,768.0,2193.0,943.0,1740.0,3053.0,1886.0,,,,0.0902496100743914,-0.861181789344452,0.25536524260497,,0.7471189651640334,,
,3454.0,767.0,2192.0,941.0,1727.0,3054.0,1884.0,,,,0.0902526404474285,-0.860940545361959,0.255244352505635,,0.12899120414871515,,
,3458.0,771.0,2194.0,942.0,1733.0,3047.0,1864.0,,,,0.0902623922197156,-0.860671858191563,0.255405102320422,,-0.47410223855778627,,
,3457.0,769.0,2197.0,942.0,1726.0,3050.0,1872.0,,,,0.0902655693905201,-0.860569802043128,0.255587586081088,,-1.0533677289988468,,
,3460.0,770.0,2196.0,944.0,1707.0,3046.0,1893.0,,,,0.0902707469157616,-0.860235377661031,0.255516831611152,,-1.6022042450164653,,
,3461.0,767.0,2195.0,943.0,1720.0,3045.0,1880.0,,,,0.0902673446022634,-0.859681536261257,0.25596110049062,,-2.11623430263428,,
,3462.0,768.0,2198.0,943.0,1740.0,3044.0,1883.0,,,,0.0902688305031921,-0.859940737579927,0.256049315567465,,-2.593130360141544,,
,3463.0,772.0,2198.0,947.0,1726.0,3043.0,1877.0,,,,0.0902715494501632,-0.860014965523332,0.256254754585382,,-3.0322652461034867,,
,3465.0,770.0,2198.0,945.0,1725.0,3044.0,1889.0,,,,0.0902696030400892,-0.859133980342367,0.256063697146178,,-3.4342323658671714,,
,3465.0,770.0,2197.0,944.0,1715.0,3047.0,1883.0,,,,0.0902777128798902,-0.85897002765389,0.25673305497924,,-3.8002927986086,,
,3467.0,769.0,2200.0,946.0,1725.0,3052.0,1881.0,,,,0.090273472818693,-0.858867265364993,0.256626923623365,,-4.131811097073595,,
,3471.0,774.0,2203.0,948.0,1730.0,3048.0,1879.0,,,,0.0902722535698553,-0.859219287563716,0.257043863907671,,-4.4297398390410265,,
,3473.0,772.0,2202.0,947.0,1734.0,3047.0,1872.0,,,,0.0902736663859768,-0.858737009096962,0.257224008186657,,-4.694205601613573,,
,3472.0,772.0,2203.0,951.0,1712.0,3055.0,1878.0,,,,0.0902695654722806,-0.85850536464481,0.256976935723259,,-4.924237264041502,,
,3473.0,772.0,2203.0,949.0,1733.0,3048.0,1884.0,,,,0.0902727404681591,-0.858263437189939,0.257210318500731,,-5.11766270203999,,
,3475.0,773.0,2201.0,949.0,1728.0,3050.0,1888.0,,,,0.0902738427665155,-0.857937569569707,0.257443655731595,,-5.27118313805289,,
,3474.0,775.0,2202.0,951.0,1739.0,3049.0,1897.0,,,,0.0902741459021023,-0.857392087618656,0.257602141107678,,-5.380616654161097,,
,3476.0,774.0,2205.0,952.0,1744.0,3050.0,1900.0,,,,0.0902721044276935,-0.857110529718735,0.257678702410968,,-5.441284965767055,,
,3475.0,774.0,2204.0,948.0,1739.0,3054.0,1888.0,,,,0.0902739664783277,-0.857319207583144,0.2580311170544,,-5.448502371936431,,
,3479.0,777.0,2208.0,952.0,1737.0,3047.0,1896.0,,,,0.0902781539121834,-0.857365120555654,0.258279619282198,,-5.398114866722157,,
,3481.0,776.0,2208.0,953.0,1732.0,3038.0,1887.0,,,,0.0902814209427151,-0.857108370622765,0.258056347296594,,-5.287032102801626,,
,3485.0,776.0,2209.0,953.0,1722.0,3039.0,1872.0,,,,0.0902797472733908,-0.857059081903918,0.258246110653008,,-5.113695600364918,,
,3486.0,775.0,2208.0,953.0,1731.0,3052.0,1875.0,,,,0.0902830796425747,-0.856565147266144,0.258363821065589,,-4.878432854672794,,
,3486.0,775.0,2210.0,954.0,1714.0,3054.0,1899.0,,,,0.0902878528393463,-0.856574780916777,0.258302804797913,,-4.583658056298683,,
,3487.0,778.0,2214.0,957.0,1726.0,3055.0,1883.0,,,,0.0902805700075149,-0.855916780304177,0.258456747458103,,-4.233895135201982,,
,3489.0,778.0,2212.0,956.0,1730.0,3045.0,1886.0,,,,0.0902823706279184,-0.855942067017439,0.258375895588913,,-3.835616678888668,,
,3492.0,779.0,2213.0,956.0,1729.0,3044.0,1892.0,,,,0.0902839184268608,-0.855646285174502,0.258956791346609,,-3.396911410206775,,
,3493.0,777.0,2216.0,956.0,1728.0,3054.0,1899.0,,,,0.090285590923064,-0.855634239069266,0.259101086909336,,-2.927011275955323,,
,3494.0,778.0,2215.0,959.0,1727.0,3048.0,1882.0,,,,0.0902918485450992,-0.855130218122681,0.259091182695193,,-2.435724358823433,,
,3498.0,780.0,2214.0,961.0,1726.0,3050.0,1878.0,,,,0.0902894202548945,-0.855190203187497,0.258941106523954,,-1.932829376299421,,
,3496.0,779.0,2217.0,957.0,1725.0,3047.0,1863.0,,,,0.0902955939446574,-0.854782068387762,0.259563983368501,,-1.4274897757020542,,
,3497.0,780.0,2216.0,961.0,1715.0,3041.0,1866.0,,,,0.0902973189419887,-0.854523462199696,0.259295558148804,,-0.9277401799180209,,
,3501.0,782.0,2219.0,959.0,1712.0,3041.0,1872.0,,,,0.090306947052299,-0.854064858195955,0.259899794518169,,-0.4400868397639919,,
,3503.0,782.0,2220.0,963.0,1707.0,3045.0,1887.0,,,,0.0903048170033583,-0.854018530028039,0.2597301975472,,0.030750279741264798,,
,3504.0,784.0,2221.0,964.0,1701.0,3045.0,1878.0,,,,0.0902993178717951,-0.854546776380065,0.260019962004057,,0.4819402324470587,,
,3508.0,782.0,2222.0,963.0,1727.0,3048.0,1881.0,,,,0.090304460154668,-0.85400093630192,0.260108121920225,,0.9124874830383471,,
,3506.0,780.0,2221.0,965.0,1738.0,3045.0,1899.0,,,,0.0903063192633856,-0.853479236786433,0.260313904544822,,1.3230310849357185,,
,3507.0,783.0,2224.0,966.0,1732.0,3044.0,1901.0,,,,0.090306933975838,-0.853308474047446,0.260410580665463,,1.7155143228448984,,
,3512.0,784.0,2224.0,963.0,1721.0,3045.0,1876.0,,,,0.0903082106928792,-0.853129973282764,0.260475158438856,,2.0927497407811666,,
,3510.0,782.0,2224.0,965.0,1726.0,3055.0,1882.0,,,,0.0903100524382099,-0.852849834909923,0.260764364402249,,2.457910587862997,,
,3502.0,781.0,2223.0,960.0,1735.0,3073.0,1863.0,,,,0.090303366563169,-0.852917277551251,0.260815341974742,,2.8139846681810123,,
,3503.0,780.0,2222.0,961.0,1732.0,3066.0,1881.0,,,,0.0902991522292387,-0.852501531141455,0.260704321766875,,3.163230202992859,,
,3499.0,780.0,2220.0,961.0,1733.0,3058.0,1881.0,,,,0.0903078254298201,-0.852239102541071,0.260941285695721,,3.5066752804082557,,
,3491.0,779.0,2219.0,956.0,1744.0,3051.0,1890.0,,,,0.0903048765563862,-0.852477272241161,0.260997681133446,,3.8437024060248404,,
,3483.0,776.0,2211.0,951.0,1734.0,3042.0,1896.0,,,,0.0903094277311549,-0.852125748362477,0.261237617803022,,4.171757297861087,,
,3473.0,773.0,2210.0,948.0,1717.0,3039.0,1883.0,,,,0.0903100285673307,-0.851958407949718,0.261458381935608,,4.486216139636232,,
,3469.0,773.0,2207.0,947.0,1718.0,3041.0,1893.0,,,,0.0903105432535208,-0.852004757861239,0.261141604686599,,4.780437518550633,,
,3462.0,771.0,2204.0,945.0,1713.0,3043.0,1907.0,,,,0.0903202410571274,-0.851736284799148,0.261751016399905,,5.046013433221229,,
,3456.0,767.0,2203.0,940.0,1723.0,3039.0,1907.0,,,,0.0903155451793666,-0.851464055447066,0.261966499595314,,5.273217573634091,,
,3448.0,765.0,2197.0,938.0,1717.0,3043.0,1893.0,,,,0.0903174967131493,-0.851349339855029,0.262004732272597,,5.451629277253357,,
,3447.0,765.0,2196.0,940.0,1713.0,3039.0,1892.0,,,,0.0903174508079324,-0.851469520330891,0.261965819426965,,5.570890447146397,,
,3444.0,767.0,2195.0,937.0,1720.0,3039.0,1894.0,,,,0.0903084950363599,-0.851377802356883,0.261751512869871,,5.621533529347128,,
,3441.0,766.0,2193.0,936.0,1709.0,3041.0,1892.0,,,,0.0903088467371384,-0.850937313685255,0.261913228191881,,5.5958046160372765,,
,3441.0,764.0,2189.0,935.0,1716.0,3052.0,1890.0,,,,0.0903149648258152,-0.851259784816961,0.261870517196685,,5.488399466140289,,
,3439.0,763.0,2191.0,934.0,1730.0,3056.0,1908.0,,,,0.0903117773865416,-0.850799942607654,0.261943439563572,,5.297033528877817,,
,3438.0,764.0,2192.0,936.0,1728.0,3047.0,1880.0,,,,0.0903125669193858,-0.850763819555226,0.261984080764761,,5.0227807659739785,,
,3438.0,764.0,2191.0,939.0,1736.0,3051.0,1864.0,,,,0.0903184985841301,-0.850494963925802,0.262212729138659,,4.67013953737805,,
,3437.0,763.0,2189.0,935.0,1734.0,3047.0,1877.0,,,,0.0903144360824875,-0.850418161083704,0.262291370086673,,4.246814338076406,,
,3437.0,763.0,2189.0,934.0,1726.0,3061.0,1869.0,,,,0.0903206724136711,-0.850219901431048,0.262614991529727,,3.763235146458497,,
,3435.0,764.0,2189.0,935.0,1723.0,3051.0,1886.0,,,,0.0903175532007796,-0.850302540716747,0.262568630675031,,3.2318661204637813,,
,3436.0,762.0,2188.0,936.0,1732.0,3058.0,1869.0,,,,0.0903284474674912,-0.850132235971962,0.262725847928868,,2.666377493801417,,
,3436.0,762.0,2190.0,938.0,1721.0,3054.0,1883.0,,,,0.0903283002907857,-0.849693666279578,0.262253253403491,,2.0807656740614706,,
,3435.0,762.0,2187.0,935.0,1729.0,3054.0,1901.0,,,,0.0903332555290551,-0.849617771989622,0.262638994474534,,1.488506009583258,,
,3433.0,764.0,2189.0,934.0,1725.0,3051.0,1896.0,,,,0.0903340727708556,-0.849963831141129,0.26259200529477,,0.9018120885401684,,
,3438.0,765.0,2191.0,937.0,1724.0,3051.0,1908.0,,,,0.0903298164282572,-0.850119042664589,0.262834945717569,,0.33105790435528093,,
,3439.0,766.0,2192.0,938.0,1726.0,3050.0,1900.0,,,,0.0903349881588457,-0.850176351328864,0.262699300255164,,-0.21560175743087745,,
,3438.0,765.0,2192.0,938.0,1725.0,3055.0,1916.0,,,,0.0903312810423803,-0.849179196646403,0.263112460124511,,-0.7323989049416295,,
,3437.0,764.0,2192.0,938.0,1718.0,3062.0,1898.0,,,,0.0903339459495168,-0.849817623385745,0.263035190955481,,-1.215914228300201,,
,3438.0,764.0,2193.0,937.0,1724.0,3059.0,1905.0,,,,0.0903386493331567,-0.84918626018873,0.26327259417653,,-1.6648570000065617,,
,3439.0,762.0,2193.0,937.0,1723.0,3050.0,1885.0,,,,0.0903396342757215,-0.848871404453734,0.263529827740398,,-2.0797002378955236,,
,3439.0,764.0,2193.0,939.0,1731.0,3047.0,1888.0,,,,0.090342881212994,-0.848164164106249,0.263939385394823,,-2.462217228795301,,
,3439.0,763.0,2191.0,937.0,1737.0,3043.0,1895.0,,,,0.0903422354502805,-0.847877184244988,0.264213028176529,,-2.814969278875494,,
,3440.0,763.0,2194.0,939.0,1731.0,3040.0,1884.0,,,,0.090353118106198,-0.847491272524424,0.264353651887377,,-3.140793351779684,,
,3441.0,764.0,2194.0,939.0,1720.0,3043.0,1882.0,,,,0.0903560271348343,-0.847427511213218,0.264632007833165,,-3.4423324980061207,,
,3441.0,763.0,2193.0,939.0,1714.0,3046.0,1872.0,,,,0.0903559290465055,-0.847553870804189,0.264263937570711,,-3.721642526604635,,
,3440.0,763.0,2196.0,937.0,1717.0,3052.0,1878.0,,,,0.0903540325491094,-0.847694578519159,0.264291111339138,,-3.9798968630212537,,
