TimeLabel,MEAS1_PPG1,MEAS1_PPG2,MEAS1_PPG3,MEAS1_PPG4,ACCX,ACCY,ACCZ,HR_timestamp,HR_value,radar_timestamp,phase_rx0,phase_rx1,phase_rx2,timestep,n_process,original_rate,calculated_rate
2025-08-06 22:02:55,7556.0,1143.0,5486.0,1225.0,-187.0,1419.0,3666.0,2025-08-06 22:03:25,88.0,2025/08/06 10:02:55 PM,-0.591756983705735,-2.91200504728169,-0.835499719304062,2025/08/06 10:02:55 PM,-1.81377890759022,20.847810745239254,22.616487455197134
,7559.0,1145.0,5488.0,1227.0,-181.0,1400.0,3684.0,2025-08-06 22:03:25,88.0,,-0.59209143239496,-2.91208040829016,-0.834987354973713,2025/08/06 10:03:05 PM,-1.8421370985091474,22.494888305664062,24.082096606758636
,7559.0,1144.0,5488.0,1225.0,-200.0,1403.0,3669.0,2025-08-06 22:03:26,89.0,,-0.591932639214872,-2.91208406107485,-0.835535811414455,2025/08/06 10:03:15 PM,-1.8678169222926166,22.821577072143555,22.81521500205002
,7560.0,1141.0,5487.0,1222.0,-196.0,1395.0,3661.0,2025-08-06 22:03:27,90.0,,-0.591857795113387,-2.91219231816746,-0.835131402384432,2025/08/06 10:03:25 PM,-1.8914048648503665,23.48754501342773,22.408668730650156
,7560.0,1142.0,5487.0,1224.0,-193.0,1389.0,3675.0,2025-08-06 22:03:28,90.0,,-0.591503233868169,-2.91206392183157,-0.834796254642719,2025/08/06 10:03:35 PM,-1.913581254879428,22.988506317138672,21.734238235677328
,7562.0,1141.0,5486.0,1223.0,-187.0,1415.0,3709.0,2025-08-06 22:03:29,90.0,,-0.591286847394994,-2.91204780111473,-0.834601202907052,2025/08/06 10:03:45 PM,-1.9350804428695352,22.42152404785156,22.371252690055552
,7564.0,1143.0,5486.0,1223.0,-184.0,1405.0,3686.0,2025-08-06 22:03:30,89.0,,-0.59143654432012,-2.91183916679539,-0.836182743410074,2025/08/06 10:03:55 PM,-1.9565560749793611,22.177419662475582,22.670478368591557
,7567.0,1142.0,5489.0,1227.0,-191.0,1400.0,3695.0,2025-08-06 22:03:31,89.0,,-0.59120691275991,-2.91186016173949,-0.83467737585912,2025/08/06 10:04:05 PM,-1.9783746478301194,22.66483497619629,23.11111111111113
,7567.0,1144.0,5485.0,1224.0,-187.0,1416.0,3694.0,2025-08-06 22:03:32,88.0,,-0.590994984141115,-2.91185626490229,-0.834929022894781,2025/08/06 10:04:15 PM,-2.0003732099182003,22.81368827819824,22.78664731494918
,7568.0,1144.0,5486.0,1225.0,-185.0,1417.0,3680.0,2025-08-06 22:03:33,87.0,,-0.590945055687539,-2.9118953850188,-0.834311737484426,2025/08/06 10:04:25 PM,-2.0216247611034315,22.916667938232425,23.244297719087648
,7570.0,1144.0,5489.0,1226.0,-176.0,1402.0,3711.0,2025-08-06 22:03:34,87.0,,-0.591395922089708,-2.91193703988912,-0.835062368196693,2025/08/06 10:04:35 PM,-2.0402564656640285,23.09307289123535,24.654092071611217
,7573.0,1145.0,5489.0,1226.0,-173.0,1403.0,3698.0,2025-08-06 22:03:35,87.0,,-0.591201503826709,-2.91178825964967,-0.834909695169479,2025/08/06 10:04:45 PM,-2.0533606227658083,23.75809860229492,23.969877119126217
,7575.0,1146.0,5490.0,1228.0,-169.0,1410.0,3690.0,2025-08-06 22:03:36,87.0,,-0.591111824374871,-2.9117732383274,-0.834545191218255,2025/08/06 10:04:55 PM,-2.0570264552188817,24.158126831054688,21.216790385192233
,7576.0,1143.0,5487.0,1226.0,-171.0,1407.0,3664.0,2025-08-06 22:03:37,86.0,,-0.591128393528196,-2.91173816640695,-0.834708681674442,2025/08/06 10:05:05 PM,-2.0465032932758613,23.125436782836918,21.73807035875999
,7576.0,1147.0,5489.0,1229.0,-177.0,1406.0,3668.0,2025-08-06 22:03:38,85.0,,-0.590568632726343,-2.91165987657708,-0.83346142773503,2025/08/06 10:05:15 PM,-2.0164854090185673,21.961933135986328,21.952861952861983
,7580.0,1144.0,5492.0,1228.0,-177.0,1421.0,3675.0,2025-08-06 22:03:39,84.0,,-0.590103865172782,-2.91157593371883,-0.834469435545045,2025/08/06 10:05:25 PM,-1.9614897322852463,21.5982723236084,21.285276654129092
,7580.0,1146.0,5492.0,1229.0,-170.0,1420.0,3678.0,2025-08-06 22:03:40,83.0,,-0.590232117863844,-2.91153374420315,-0.833789074765977,2025/08/06 10:05:35 PM,-1.8762838953807477,21.52080345153809,21.766381766381738
,7581.0,1146.0,5493.0,1228.0,-171.0,1402.0,3699.0,2025-08-06 22:03:41,83.0,,-0.590112331776234,-2.91152019127172,-0.834283518470019,2025/08/06 10:05:45 PM,-1.7563156793813774,21.613832473754883,22.71039319911502
,7584.0,1147.0,5495.0,1228.0,-189.0,1422.0,3702.0,2025-08-06 22:03:42,83.0,,-0.58990790829396,-2.91149211284054,-0.833778456577753,,-1.5980962194062338,,
,7584.0,1148.0,5494.0,1229.0,-182.0,1415.0,3691.0,2025-08-06 22:03:43,83.0,,-0.589669958130662,-2.91147369061452,-0.833577500728803,,-1.399497589871061,,
,7587.0,1145.0,5495.0,1231.0,-182.0,1410.0,3684.0,2025-08-06 22:03:44,84.0,,-0.589044384072094,-2.91148164337583,-0.833219190138392,,-1.1599396271897342,,
,7588.0,1145.0,5496.0,1227.0,-184.0,1399.0,3683.0,2025-08-06 22:03:45,84.0,,-0.588801969766855,-2.911399717,-0.832595095337253,,-0.8804592290199332,,
,7586.0,1144.0,5493.0,1229.0,-170.0,1416.0,3683.0,2025-08-06 22:03:46,84.0,,-0.588897148098638,-2.91142755869972,-0.832249726040472,,-0.5636745142512976,,
,7592.0,1146.0,5497.0,1228.0,-179.0,1406.0,3678.0,2025-08-06 22:03:47,85.0,,-0.587820731249011,-2.91140171470335,-0.832783434674973,,-0.2136715942056975,,
,7592.0,1146.0,5496.0,1232.0,-178.0,1400.0,3664.0,2025-08-06 22:03:48,85.0,,-0.588595333334245,-2.91128657293681,-0.831871334801843,,0.16415074255402007,,
,7590.0,1147.0,5497.0,1229.0,-182.0,1404.0,3679.0,2025-08-06 22:03:49,86.0,,-0.588325473150332,-2.91131115263425,-0.832804478871327,,0.5632452751419819,,
,7592.0,1146.0,5494.0,1229.0,-167.0,1428.0,3706.0,2025-08-06 22:03:50,86.0,,-0.587953543965519,-2.91134273076187,-0.833344779357901,,0.9760673651717409,,
,7594.0,1144.0,5498.0,1229.0,-181.0,1429.0,3708.0,2025-08-06 22:03:51,86.0,,-0.587854927813605,-2.91123884092032,-0.832538483999506,,1.3942071378708365,,
,7599.0,1149.0,5500.0,1231.0,-177.0,1436.0,3685.0,2025-08-06 22:03:52,86.0,,-0.588318243659452,-2.91129434140582,-0.832371065491483,,1.8085143459911408,,
,7598.0,1146.0,5499.0,1230.0,-185.0,1432.0,3676.0,2025-08-06 22:03:53,86.0,,-0.588058071108713,-2.91122363788563,-0.832674526255216,,2.2092398746301836,,
,7597.0,1143.0,5498.0,1230.0,-177.0,1417.0,3669.0,2025-08-06 22:03:54,86.0,,-0.588282947517746,-2.91120070058672,-0.833301867936823,,2.586222166514825,,
,7601.0,1147.0,5496.0,1230.0,-157.0,1395.0,3650.0,2025-08-06 22:03:55,86.0,,-0.587864527995074,-2.91109611080523,-0.831579538941527,,2.9291426573687387,,
,7603.0,1148.0,5502.0,1232.0,-180.0,1410.0,3661.0,2025-08-06 22:03:56,85.0,,-0.587113699207565,-2.91111711751226,-0.831685166840998,,3.2278636138821493,,
,7603.0,1147.0,5502.0,1233.0,-188.0,1425.0,3663.0,2025-08-06 22:03:57,85.0,,-0.587135920856373,-2.91104163507019,-0.832056057222054,,3.472847236897072,,
,7607.0,1146.0,5502.0,1231.0,-169.0,1428.0,3692.0,2025-08-06 22:03:58,85.0,,-0.586635229994368,-2.91111679875695,-0.831334952043642,,3.6556387575713254,,
,7606.0,1147.0,5504.0,1231.0,-173.0,1418.0,3689.0,2025-08-06 22:03:59,85.0,,-0.586839922362517,-2.91096988477613,-0.831729874641666,,3.7693803761611315,,
,7611.0,1150.0,5503.0,1233.0,-177.0,1395.0,3681.0,2025-08-06 22:04:00,85.0,,-0.58657147128152,-2.91100191264686,-0.831131175689994,,3.809309354093746,,
,7614.0,1147.0,5506.0,1234.0,-164.0,1409.0,3670.0,2025-08-06 22:04:01,85.0,,-0.586520526525626,-2.91100155619882,-0.831443895659768,,3.7731848383828845,,
,7612.0,1148.0,5506.0,1232.0,-163.0,1414.0,3679.0,2025-08-06 22:04:02,85.0,,-0.586239881890993,-2.91096242337856,-0.830856140793941,,3.6615864660085133,,
,7615.0,1147.0,5508.0,1233.0,-188.0,1418.0,3689.0,2025-08-06 22:04:03,85.0,,-0.586404344197286,-2.91089000199933,-0.831365300600865,,3.478035182235214,,
,7620.0,1150.0,5507.0,1235.0,-195.0,1417.0,3686.0,2025-08-06 22:04:04,85.0,,-0.586124192583743,-2.91094074958543,-0.830623003245913,,3.2289035296800805,,
,7621.0,1151.0,5508.0,1235.0,-187.0,1408.0,3694.0,2025-08-06 22:04:05,85.0,,-0.586260568079401,-2.91088989475535,-0.830204039702079,,2.9231074930633354,,
,7622.0,1151.0,5511.0,1235.0,-179.0,1379.0,3696.0,2025-08-06 22:04:06,86.0,,-0.586095839964933,-2.91088383561422,-0.8310181825046,,2.571600745694308,,
,7623.0,1150.0,5512.0,1234.0,-192.0,1400.0,3705.0,2025-08-06 22:04:07,86.0,,-0.586560362315159,-2.91104262478694,-0.831379156507345,,2.1867187197550013,,
,7626.0,1150.0,5514.0,1236.0,-179.0,1412.0,3689.0,2025-08-06 22:04:08,86.0,,-0.586932722821897,-2.91109420582334,-0.831964708023461,,1.7814384247095405,,
,7629.0,1153.0,5515.0,1237.0,-191.0,1422.0,3696.0,2025-08-06 22:04:09,87.0,,-0.587375790599457,-2.91124216091575,-0.832025727695922,,1.3686270685276851,,
,7631.0,1154.0,5517.0,1237.0,-184.0,1428.0,3672.0,2025-08-06 22:04:10,86.0,,-0.58814237172529,-2.91131409361693,-0.833501377496919,,0.9603482839042593,,
,7630.0,1154.0,5517.0,1238.0,-181.0,1423.0,3662.0,2025-08-06 22:04:11,86.0,,-0.589071977579707,-2.91153770466744,-0.833286484100879,,0.5672814903249165,,
,7633.0,1153.0,5518.0,1239.0,-186.0,1429.0,3670.0,2025-08-06 22:04:12,86.0,,-0.589597624145513,-2.91163001729888,-0.833802458875525,,0.19829104251665328,,
,7637.0,1154.0,5522.0,1240.0,-175.0,1410.0,3687.0,2025-08-06 22:04:13,86.0,,-0.590156520966235,-2.91160949440471,-0.833991912489652,,-0.13983912091803793,,
,7639.0,1154.0,5523.0,1242.0,-181.0,1411.0,3688.0,2025-08-06 22:04:14,86.0,,-0.590601643614086,-2.91178073515484,-0.835456130264643,,-0.4425093201215992,,
,7643.0,1156.0,5525.0,1243.0,-185.0,1420.0,3697.0,2025-08-06 22:04:15,86.0,,-0.591286678894315,-2.91189290655698,-0.835627337213878,,-0.707266179096203,,
,7644.0,1152.0,5525.0,1242.0,-171.0,1407.0,3680.0,2025-08-06 22:04:16,86.0,,-0.591473208460749,-2.91203070819854,-0.8351940409099,,-0.9336524252293892,,
,7644.0,1157.0,5529.0,1243.0,-173.0,1386.0,3670.0,2025-08-06 22:04:17,86.0,,-0.591595879664188,-2.91211197507725,-0.834718162843312,,-1.1229771407231863,,
,7647.0,1159.0,5532.0,1246.0,-182.0,1397.0,3663.0,2025-08-06 22:04:18,86.0,,-0.590941277256037,-2.91197742569034,-0.834670818405093,,-1.2780359360796456,,
,7650.0,1158.0,5536.0,1245.0,-185.0,1415.0,3671.0,2025-08-06 22:04:19,87.0,,-0.590480348096219,-2.91200846771126,-0.83552299674676,,-1.402802536180342,,
,7651.0,1157.0,5534.0,1245.0,-167.0,1419.0,3684.0,2025-08-06 22:04:20,87.0,,-0.590164485785405,-2.91190756205542,-0.835100538332991,,-1.5021035590239449,,
,7654.0,1156.0,5534.0,1243.0,-184.0,1419.0,3689.0,2025-08-06 22:04:21,87.0,,-0.590537323034252,-2.91176276204468,-0.834602117622989,,-1.5812804857728533,,
,7656.0,1160.0,5539.0,1248.0,-184.0,1410.0,3690.0,2025-08-06 22:04:22,87.0,,-0.590067942813838,-2.91200505560298,-0.834418527838615,,-1.645839566485041,,
,7659.0,1161.0,5540.0,1248.0,-190.0,1398.0,3692.0,2025-08-06 22:04:23,88.0,,-0.590296798990215,-2.91179516435787,-0.835191108631377,,-1.7010920192779708,,
,7662.0,1161.0,5541.0,1250.0,-179.0,1401.0,3682.0,2025-08-06 22:04:24,88.0,,-0.590071548356589,-2.91177269211136,-0.834361514570243,,-1.751791896421482,,
,7663.0,1159.0,5544.0,1247.0,-180.0,1413.0,3677.0,2025-08-06 22:04:25,88.0,,-0.589490989347167,-2.91172895811644,-0.834008499027425,,-1.8017854895599077,,
,7666.0,1160.0,5545.0,1252.0,-192.0,1422.0,3708.0,2025-08-06 22:04:26,88.0,,-0.589416931770354,-2.91176959020759,-0.833533425079159,,-1.8536925963059543,,
,7669.0,1161.0,5546.0,1251.0,-168.0,1427.0,3718.0,2025-08-06 22:04:27,88.0,,-0.589225676035123,-2.91166667543178,-0.833371349322367,,-1.9086451826164919,,
,7671.0,1162.0,5550.0,1253.0,-165.0,1432.0,3716.0,2025-08-06 22:04:28,88.0,,-0.588973339866148,-2.91165255622067,-0.833364479867014,,-1.9661117429069026,,
,7672.0,1162.0,5550.0,1252.0,-178.0,1415.0,3718.0,2025-08-06 22:04:29,88.0,,-0.588678077691012,-2.91166482360034,-0.833393284412371,,-2.02383470188598,,
,7676.0,1161.0,5552.0,1251.0,-172.0,1417.0,3686.0,2025-08-06 22:04:30,88.0,,-0.589005029854639,-2.91166270804818,-0.833620779986918,,-2.077902503487576,,
,7679.0,1165.0,5557.0,1255.0,-193.0,1414.0,3672.0,2025-08-06 22:04:31,88.0,,-0.588721528044579,-2.91155811503259,-0.834069386401987,,-2.122967243880124,,
,7678.0,1165.0,5557.0,1255.0,-192.0,1429.0,3664.0,2025-08-06 22:04:32,88.0,,-0.588511801078737,-2.91162143806171,-0.833626283210147,,-2.1526034351494614,,
,7679.0,1164.0,5557.0,1253.0,-178.0,1417.0,3668.0,2025-08-06 22:04:33,88.0,,-0.589182480941014,-2.9116153578516,-0.833074769177709,,-2.1597856380716554,,
,7680.0,1164.0,5555.0,1252.0,-177.0,1415.0,3680.0,2025-08-06 22:04:34,88.0,,-0.588503613175553,-2.91163585645169,-0.833209822794541,,-2.1374456378906075,,
,7677.0,1162.0,5558.0,1255.0,-177.0,1429.0,3691.0,2025-08-06 22:04:35,88.0,,-0.588593217501758,-2.9116632129049,-0.833292333728593,,-2.0790575575599455,,
,7676.0,1164.0,5556.0,1255.0,-179.0,1426.0,3685.0,2025-08-06 22:04:36,87.0,,-0.588161331305829,-2.91166795675898,-0.833130296249006,,-1.9791946696113916,,
,7675.0,1162.0,5551.0,1254.0,-172.0,1420.0,3671.0,2025-08-06 22:04:37,87.0,,-0.588317609477372,-2.91142276086414,-0.832761588650175,,-1.8340052187765612,,
,7672.0,1158.0,5548.0,1252.0,-169.0,1422.0,3665.0,2025-08-06 22:04:38,87.0,,-0.588265559110132,-2.91158116550789,-0.832927381486279,,-1.6415650625739526,,
,7668.0,1158.0,5545.0,1250.0,-192.0,1394.0,3669.0,2025-08-06 22:04:39,86.0,,-0.588341628688847,-2.91146893760806,-0.833409136774622,,-1.4020806152571608,,
,7669.0,1155.0,5541.0,1250.0,-201.0,1405.0,3671.0,2025-08-06 22:04:40,86.0,,-0.588185983906866,-2.91135102290094,-0.832830343342594,,-1.1179345196242307,,
,7666.0,1154.0,5536.0,1249.0,-199.0,1425.0,3673.0,2025-08-06 22:04:41,86.0,,-0.58769745408253,-2.91138880502358,-0.832242404817196,,-0.7935860481158659,,
,7662.0,1149.0,5528.0,1246.0,-178.0,1430.0,3688.0,2025-08-06 22:04:42,86.0,,-0.587634973417099,-2.91138755405853,-0.831915614357261,,-0.43535493336671055,,
,7658.0,1147.0,5526.0,1243.0,-198.0,1421.0,3691.0,2025-08-06 22:04:43,86.0,,-0.587919688943745,-2.91134644537949,-0.833324064061113,,-0.05112758956841229,,
,7658.0,1147.0,5522.0,1245.0,-188.0,1424.0,3701.0,2025-08-06 22:04:44,86.0,,-0.587767069759429,-2.91156051607552,-0.832652368788368,,0.3499737698615079,,
,7653.0,1146.0,5519.0,1243.0,-178.0,1432.0,3699.0,2025-08-06 22:04:45,86.0,,-0.587718298188894,-2.9115344818993,-0.833048980610423,,0.757925928988694,,
,7655.0,1147.0,5516.0,1243.0,-168.0,1423.0,3678.0,2025-08-06 22:04:46,86.0,,-0.588060809553968,-2.91147583863296,-0.832733178075027,,1.1621242420525535,,
,7652.0,1143.0,5508.0,1241.0,-184.0,1423.0,3665.0,2025-08-06 22:04:47,86.0,,-0.58797397929529,-2.91145863975901,-0.832210111504939,,1.5516845639629104,,
,7653.0,1144.0,5511.0,1242.0,-183.0,1418.0,3674.0,2025-08-06 22:04:48,86.0,,-0.587568404266642,-2.91159889163383,-0.83201349607469,,1.9157393684909219,,
,7653.0,1141.0,5507.0,1242.0,-165.0,1410.0,3699.0,2025-08-06 22:04:49,86.0,,-0.587958069574357,-2.91150140279662,-0.832925989598507,,2.243747126892906,,
,7652.0,1140.0,5504.0,1240.0,-169.0,1410.0,3693.0,2025-08-06 22:04:50,86.0,,-0.588218942530003,-2.91154331720783,-0.832784317416722,,2.52583222473877,,
,7650.0,1140.0,5499.0,1241.0,-183.0,1424.0,3693.0,2025-08-06 22:04:51,86.0,,-0.588123003055074,-2.91149608316506,-0.833175972495301,,2.753162962593578,,
,7654.0,1137.0,5499.0,1241.0,-183.0,1396.0,3686.0,2025-08-06 22:04:52,86.0,,-0.587863914773138,-2.91142880963869,-0.832433457255169,,2.918360621752604,,
,7649.0,1143.0,5503.0,1240.0,-193.0,1411.0,3685.0,2025-08-06 22:04:53,86.0,,-0.587666403599551,-2.91157490183458,-0.833348132781674,,3.0159166445001064,,
,7651.0,1141.0,5499.0,1239.0,-177.0,1406.0,3680.0,2025-08-06 22:04:54,86.0,,-0.587931310868011,-2.91148111742414,-0.8323259836663,,3.0425807016849395,,
,7652.0,1139.0,5499.0,1239.0,-169.0,1388.0,3676.0,2025-08-06 22:04:55,86.0,,-0.587811484522193,-2.91152394415552,-0.832488633180768,,2.997672457057544,,
,7651.0,1139.0,5496.0,1239.0,-183.0,1395.0,3678.0,2025-08-06 22:04:56,86.0,,-0.587400518163008,-2.91140399894884,-0.832646587220901,,2.883266660927782,,
,7652.0,1140.0,5497.0,1242.0,-182.0,1407.0,3659.0,2025-08-06 22:04:57,86.0,,-0.587415357965394,-2.91140079354537,-0.832593320118343,,2.704206838102754,,
,7653.0,1140.0,5498.0,1241.0,-176.0,1391.0,3667.0,2025-08-06 22:04:58,86.0,,-0.587859552867751,-2.91141348770622,-0.832753494587418,,2.4679181775396284,,
,7653.0,1141.0,5494.0,1241.0,-176.0,1392.0,3689.0,2025-08-06 22:04:59,86.0,,-0.587389390370183,-2.9112871347014,-0.832516783354393,,2.184014253628498,,
,7652.0,1141.0,5495.0,1239.0,-179.0,1408.0,3710.0,2025-08-06 22:05:00,86.0,,-0.587884005830632,-2.91130951842187,-0.832062114674021,,1.8637212889234351,,
,7653.0,1137.0,5495.0,1242.0,-190.0,1406.0,3700.0,2025-08-06 22:05:01,86.0,,-0.587859697747094,-2.9114347123331,-0.832151546207798,,1.5191717235059812,,
,7654.0,1139.0,5494.0,1242.0,-192.0,1411.0,3701.0,2025-08-06 22:05:02,86.0,,-0.587568871124175,-2.9111986961204,-0.832722811121458,,1.1626390252471734,,
,7655.0,1140.0,5493.0,1240.0,-193.0,1405.0,3713.0,2025-08-06 22:05:03,86.0,,-0.587575254047453,-2.91152797589799,-0.831541134110289,,0.8057931014659675,,
,7655.0,1141.0,5494.0,1243.0,-189.0,1408.0,3698.0,2025-08-06 22:05:04,86.0,,-0.587430358807446,-2.91125946921385,-0.831670816334537,,0.45904950981729487,,
,7657.0,1140.0,5493.0,1241.0,-173.0,1406.0,3697.0,2025-08-06 22:05:05,85.0,,-0.587452774985005,-2.91128987797426,-0.831250871950967,,0.1310688123913091,,
,7659.0,1143.0,5496.0,1241.0,-171.0,1401.0,3691.0,2025-08-06 22:05:06,85.0,,-0.587562559687842,-2.91122797200445,-0.831597409542942,,-0.17156047918307313,,
,7659.0,1142.0,5497.0,1243.0,-179.0,1407.0,3689.0,2025-08-06 22:05:07,85.0,,-0.587574462150079,-2.91125781936416,-0.832038032501278,,-0.4444463720055321,,
,7658.0,1140.0,5496.0,1243.0,-190.0,1401.0,3683.0,2025-08-06 22:05:08,85.0,,-0.587243042240643,-2.91128247568221,-0.831819343911237,,-0.6853387571211684,,
,7662.0,1141.0,5496.0,1244.0,-175.0,1414.0,3685.0,2025-08-06 22:05:09,85.0,,-0.58708822321015,-2.91121356264567,-0.832115315633601,,-0.893927084934607,,
,7664.0,1143.0,5499.0,1243.0,-178.0,1405.0,3677.0,2025-08-06 22:05:10,85.0,,-0.587041641689429,-2.91111382390213,-0.831597094563656,,-1.0715333939745755,,
,7663.0,1138.0,5498.0,1244.0,-165.0,1425.0,3676.0,2025-08-06 22:05:11,85.0,,-0.587043625593932,-2.91108844747545,-0.831569487558575,,-1.2207481252029033,,
,7665.0,1140.0,5498.0,1246.0,-181.0,1427.0,3674.0,2025-08-06 22:05:12,85.0,,-0.586867266107432,-2.91101748400399,-0.831107832043912,,-1.3450531740128617,,
,7664.0,1139.0,5498.0,1245.0,-193.0,1426.0,3699.0,2025-08-06 22:05:13,86.0,,-0.587345285574118,-2.91101972490132,-0.831764235250533,,-1.4484670549543321,,
,7663.0,1141.0,5498.0,1244.0,-207.0,1401.0,3678.0,2025-08-06 22:05:14,86.0,,-0.587121968407122,-2.91101567192808,-0.831676496203527,,-1.535232870986884,,
,7668.0,1143.0,5499.0,1247.0,-193.0,1425.0,3692.0,2025-08-06 22:05:15,86.0,,-0.587131618483134,-2.91096007191125,-0.831460310479689,,-1.6095543940385075,,
,7667.0,1143.0,5498.0,1248.0,-186.0,1423.0,3690.0,2025-08-06 22:05:16,86.0,,-0.586968227963708,-2.91096624274939,-0.831359360122613,,-1.6753730838542564,,
,7667.0,1142.0,5498.0,1247.0,-203.0,1395.0,3666.0,2025-08-06 22:05:17,86.0,,-0.587208482391054,-2.91106544562538,-0.830413177970637,,-1.7361724345909755,,
,7667.0,1140.0,5497.0,1245.0,-185.0,1390.0,3678.0,2025-08-06 22:05:18,86.0,,-0.586884401805587,-2.91110023978815,-0.831756458258006,,-1.794796413353811,,
,7667.0,1142.0,5499.0,1246.0,-181.0,1387.0,3696.0,2025-08-06 22:05:19,86.0,,-0.587018027267279,-2.91101692177844,-0.830883443792298,,-1.8532744635929077,,
,7672.0,1144.0,5499.0,1248.0,-179.0,1418.0,3677.0,2025-08-06 22:05:20,86.0,,-0.586351035396708,-2.91088527327769,-0.831544251963809,,-1.912654183210153,,
,7669.0,1141.0,5498.0,1249.0,-173.0,1428.0,3678.0,2025-08-06 22:05:21,86.0,,-0.586571694148125,-2.91095176241264,-0.830522082355128,,-1.972852139400175,,
,7669.0,1141.0,5496.0,1247.0,-177.0,1421.0,3685.0,2025-08-06 22:05:22,86.0,,-0.586348868745978,-2.91087505434523,-0.830859926715047,,-2.0325415220014604,,
,7672.0,1141.0,5501.0,1249.0,-196.0,1428.0,3683.0,2025-08-06 22:05:23,86.0,,-0.586074745253828,-2.9107304452041,-0.830909426608498,,-2.089100780528762,,
,7669.0,1141.0,5501.0,1248.0,-191.0,1425.0,3664.0,2025-08-06 22:05:24,86.0,,-0.586064993363347,-2.91072712236509,-0.830550403522366,,-2.1386485078728126,,
,7672.0,1142.0,5503.0,1250.0,-184.0,1416.0,3658.0,2025-08-06 22:05:25,86.0,,-0.586090148151144,-2.91084957597691,-0.830260372250983,,-2.1761855540905297,,
,7674.0,1141.0,5503.0,1249.0,-177.0,1414.0,3655.0,2025-08-06 22:05:26,86.0,,-0.585734112717414,-2.91089943650269,-0.830203677380004,,-2.195855338617354,,
,7673.0,1140.0,5501.0,1248.0,-170.0,1400.0,3668.0,2025-08-06 22:05:27,85.0,,-0.585652573526275,-2.91071297413481,-0.829345091254595,,-2.191318209862649,,
,7677.0,1143.0,5504.0,1251.0,-189.0,1375.0,3681.0,2025-08-06 22:05:28,85.0,,-0.585418548407835,-2.91075198724552,-0.829755504823176,,-2.1562174793607554,,
,7675.0,1144.0,5504.0,1251.0,-195.0,1371.0,3667.0,2025-08-06 22:05:29,85.0,,-0.585214234888345,-2.91075959429767,-0.829597619837568,,-2.084697065133701,,
,7676.0,1141.0,5505.0,1250.0,-201.0,1393.0,3660.0,2025-08-06 22:05:30,86.0,,-0.585399370305576,-2.91067662727354,-0.829664672038158,,-1.9719180874457847,,
,7676.0,1141.0,5504.0,1249.0,-185.0,1426.0,3674.0,2025-08-06 22:05:31,86.0,,-0.585369512274054,-2.91080352869186,-0.829384009676414,,-1.8145180312630544,,
2025-08-06 22:02:56,7680.0,1143.0,5506.0,1253.0,-173.0,1409.0,3687.0,2025-08-06 22:05:32,86.0,2025/08/06 10:02:56 PM,-0.585259399667994,-2.91065737485345,-0.828606721820625,,-1.6109625409052075,,
,7680.0,1146.0,5509.0,1254.0,-183.0,1400.0,3705.0,2025-08-06 22:05:33,86.0,,-0.585439825522342,-2.91067081433469,-0.829742208079164,,-1.361755115573595,,
,7682.0,1145.0,5509.0,1255.0,-190.0,1394.0,3708.0,2025-08-06 22:05:34,87.0,,-0.585346354786489,-2.9106532742122,-0.829602151851899,,-1.069490632675347,,
,7683.0,1144.0,5507.0,1253.0,-201.0,1406.0,3700.0,2025-08-06 22:05:35,87.0,,-0.585611809372142,-2.91076001143083,-0.830641921171926,,-0.7387605883253572,,
,7685.0,1143.0,5511.0,1255.0,-187.0,1402.0,3710.0,2025-08-06 22:05:36,87.0,,-0.58550536295588,-2.91061165002005,-0.829654913218195,,-0.3759369160548887,,
,7689.0,1146.0,5512.0,1257.0,-165.0,1430.0,3702.0,2025-08-06 22:05:37,87.0,,-0.58600388534004,-2.91067302181503,-0.830436679766038,,0.011126449427932087,,
,7688.0,1146.0,5513.0,1258.0,-165.0,1428.0,3692.0,2025-08-06 22:05:38,86.0,,-0.586449405975064,-2.9109921429835,-0.831405454044946,,0.413431582384187,,
,7691.0,1147.0,5514.0,1255.0,-180.0,1406.0,3707.0,2025-08-06 22:05:39,86.0,,-0.586805303460926,-2.91107541078257,-0.831134555603799,,0.8211767940214266,,
,7690.0,1146.0,5514.0,1256.0,-183.0,1404.0,3680.0,2025-08-06 22:05:40,85.0,,-0.587386990736881,-2.91118425085255,-0.832350746537056,,1.2240741145024303,,
,7695.0,1148.0,5516.0,1259.0,-197.0,1427.0,3686.0,2025-08-06 22:05:41,85.0,,-0.587666730305567,-2.91128676052982,-0.833016960264499,,1.6116355129487008,,
,7696.0,1150.0,5520.0,1260.0,-187.0,1429.0,3705.0,2025-08-06 22:05:42,85.0,,-0.588380750047945,-2.91150213349924,-0.832806047477295,,1.9734358931625289,,
,7696.0,1147.0,5521.0,1260.0,-173.0,1415.0,3709.0,2025-08-06 22:05:43,84.0,,-0.589280457039193,-2.91162067921749,-0.83386484747989,,2.2993730530272605,,
,7697.0,1146.0,5520.0,1259.0,-169.0,1422.0,3708.0,2025-08-06 22:05:44,84.0,,-0.589796218277259,-2.91176284161737,-0.833968128496476,,2.5799487149717764,,
,7700.0,1150.0,5523.0,1261.0,-200.0,1423.0,3701.0,2025-08-06 22:05:45,84.0,,-0.590120377190605,-2.91193075606926,-0.834752095029269,,2.806589007363594,,
,7702.0,1150.0,5526.0,1265.0,-189.0,1405.0,3677.0,2025-08-06 22:05:46,84.0,,-0.590470017002887,-2.91202276534071,-0.834757394621978,,2.972009094205827,,
,7706.0,1153.0,5528.0,1264.0,-187.0,1404.0,3675.0,2025-08-06 22:05:47,84.0,,-0.590480483446422,-2.91180481200438,-0.834922745923873,,3.070608750471277,,
,7702.0,1152.0,5527.0,1264.0,-174.0,1384.0,3675.0,2025-08-06 22:05:48,84.0,,-0.590352773309852,-2.91186538419628,-0.835348410821787,,3.0988675793642586,,
,7705.0,1149.0,5527.0,1265.0,-179.0,1398.0,3675.0,2025-08-06 22:05:49,84.0,,-0.590481227486153,-2.91183109403438,-0.835079486672838,,3.0556936540345463,,
,7709.0,1153.0,5532.0,1265.0,-172.0,1371.0,3685.0,2025-08-06 22:05:50,84.0,,-0.590203376799985,-2.91182058644789,-0.834971676586451,,2.9426706072403777,,
,7711.0,1154.0,5533.0,1267.0,-193.0,1412.0,3706.0,2025-08-06 22:05:51,84.0,,-0.590204006232626,-2.91186776786068,-0.834771641165802,,2.764148360381631,,
,7712.0,1151.0,5535.0,1268.0,-203.0,1418.0,3693.0,2025-08-06 22:05:52,85.0,,-0.589970386894611,-2.91186224398326,-0.833687139082908,,2.527133761299696,,
,7713.0,1151.0,5537.0,1267.0,-195.0,1403.0,3682.0,2025-08-06 22:05:53,85.0,,-0.589886158669628,-2.91188373014242,-0.833866429240972,,2.240959460760947,,
,7716.0,1153.0,5538.0,1268.0,-203.0,1412.0,3677.0,2025-08-06 22:05:54,86.0,,-0.589917057306509,-2.91182293210762,-0.833799775520166,,1.916739710152359,,
,7719.0,1158.0,5543.0,1272.0,-189.0,1427.0,3668.0,2025-08-06 22:05:55,86.0,,-0.589598136702551,-2.91184489408988,-0.834618490232672,,1.566654977981624,,
,7718.0,1157.0,5540.0,1268.0,-180.0,1403.0,3659.0,2025-08-06 22:05:56,86.0,,-0.589857700627145,-2.91164170378057,-0.834294876010475,,1.2031363038621223,,
,7722.0,1155.0,5541.0,1269.0,-184.0,1389.0,3648.0,2025-08-06 22:05:57,86.0,,-0.589524687549084,-2.91182743065221,-0.832677285193137,,0.8380384347988692,,
,7722.0,1155.0,5543.0,1271.0,-190.0,1404.0,3674.0,2025-08-06 22:05:58,86.0,,-0.589706580828796,-2.91165608609007,-0.83426391527391,,0.48189389744657124,,
,7725.0,1157.0,5550.0,1274.0,-186.0,1418.0,3688.0,2025-08-06 22:05:59,86.0,,-0.590164551394828,-2.91183583740062,-0.832924739371176,,0.14332815857726722,,
,7727.0,1156.0,5548.0,1274.0,-187.0,1424.0,3707.0,2025-08-06 22:06:00,87.0,,-0.590053197122949,-2.91178226630098,-0.8327584111298,,-0.17130743436488355,,
,7729.0,1159.0,5550.0,1275.0,-178.0,1427.0,3721.0,2025-08-06 22:06:01,87.0,,-0.590126772560751,-2.91170760536773,-0.834179747928897,,-0.45805765429796613,,
,7730.0,1157.0,5554.0,1274.0,-171.0,1413.0,3724.0,2025-08-06 22:06:02,87.0,,-0.590151272534647,-2.91166507914017,-0.833485286998096,,-0.7152431657407893,,
,7734.0,1160.0,5555.0,1278.0,-166.0,1377.0,3678.0,2025-08-06 22:06:03,87.0,,-0.590313937737377,-2.91172167671302,-0.834423026272037,,-0.9431277733368563,,
,7735.0,1159.0,5557.0,1279.0,-186.0,1413.0,3665.0,2025-08-06 22:06:04,87.0,,-0.589563384102102,-2.91168152547784,-0.83333345908672,,-1.1434239816988034,,
,7735.0,1161.0,5558.0,1279.0,-184.0,1430.0,3663.0,2025-08-06 22:06:05,87.0,,-0.589224741688562,-2.91177999644266,-0.833000210033525,,-1.3187016198144448,,
,7730.0,1159.0,5557.0,1278.0,-170.0,1444.0,3666.0,2025-08-06 22:06:06,87.0,,-0.58899979486815,-2.91159498767597,-0.833050677779404,,-1.4717703401834181,,
,7731.0,1159.0,5556.0,1277.0,-171.0,1435.0,3670.0,2025-08-06 22:06:07,87.0,,-0.589172231155462,-2.91164982332804,-0.833228647585887,,-1.6051049783865465,,
,7731.0,1159.0,5559.0,1277.0,-178.0,1441.0,3680.0,2025-08-06 22:06:08,87.0,,-0.589131388917885,-2.91143429947582,-0.833283986101579,,-1.7203735141301777,,
,7727.0,1157.0,5552.0,1277.0,-174.0,1425.0,3679.0,2025-08-06 22:06:09,87.0,,-0.589066626386248,-2.91165529391974,-0.83316926456887,,-1.8181116887344209,,
,7723.0,1155.0,5548.0,1276.0,-192.0,1409.0,3678.0,2025-08-06 22:06:10,87.0,,-0.588464072058304,-2.91155979147614,-0.83211886314704,,-1.8975681467573517,,
,7717.0,1150.0,5545.0,1276.0,-189.0,1415.0,3674.0,2025-08-06 22:06:11,87.0,,-0.588358462573677,-2.91130582216395,-0.833135931549197,,-1.956722561012162,,
,7715.0,1152.0,5542.0,1273.0,-200.0,1430.0,3686.0,2025-08-06 22:06:12,87.0,,-0.588419838587873,-2.91130298700616,-0.832349984795921,,-1.992460487969572,,
,7710.0,1149.0,5537.0,1272.0,-187.0,1439.0,3676.0,2025-08-06 22:06:13,86.0,,-0.58812693175271,-2.91138016358724,-0.832274973046337,,-2.0008754647000093,,
,7706.0,1146.0,5532.0,1273.0,-195.0,1411.0,3685.0,2025-08-06 22:06:14,86.0,,-0.588191144635141,-2.9114004604686,-0.831885232996761,,-1.977661552731281,,
,7700.0,1143.0,5524.0,1270.0,-197.0,1413.0,3679.0,2025-08-06 22:06:15,86.0,,-0.588396581208578,-2.91138038205564,-0.832583675072026,,-1.9185569048925335,,
,7697.0,1142.0,5524.0,1268.0,-176.0,1410.0,3677.0,2025-08-06 22:06:16,86.0,,-0.588253468719649,-2.91147076892398,-0.832349354497856,,-1.8197995676381216,,
,7693.0,1142.0,5519.0,1271.0,-163.0,1424.0,3704.0,2025-08-06 22:06:17,85.0,,-0.588607979546826,-2.91162309606596,-0.831749729022671,,-1.6785599509836113,,
,7690.0,1140.0,5516.0,1270.0,-164.0,1430.0,3700.0,2025-08-06 22:06:18,85.0,,-0.588580654871491,-2.9115748746414,-0.831993310772903,,-1.493320019371397,,
,7686.0,1139.0,5511.0,1267.0,-176.0,1408.0,3686.0,2025-08-06 22:06:19,85.0,,-0.589010574032298,-2.9114837505699,-0.832983964651501,,-1.2641768842699332,,
,7683.0,1138.0,5509.0,1267.0,-189.0,1370.0,3672.0,2025-08-06 22:06:20,86.0,,-0.588688117940787,-2.91142346553552,-0.832243786825822,,-0.9930570223646382,,
,7682.0,1140.0,5505.0,1268.0,-185.0,1364.0,3646.0,2025-08-06 22:06:21,86.0,,-0.589111706575736,-2.91145477942228,-0.832696539055526,,-0.6838350537728741,,
,7681.0,1137.0,5505.0,1267.0,-189.0,1386.0,3656.0,2025-08-06 22:06:22,86.0,,-0.588995684645233,-2.91154445095087,-0.833192664602321,,-0.3423560197986726,,
,7678.0,1136.0,5502.0,1269.0,-183.0,1407.0,3689.0,2025-08-06 22:06:23,86.0,,-0.588849069429959,-2.91163924699605,-0.833709224576794,,0.02363867889445801,,
,7676.0,1137.0,5502.0,1268.0,-180.0,1416.0,3688.0,,,,-0.588769778379075,-2.9115090480793,-0.832171166562935,,0.40468341520653767,,
,7673.0,1136.0,5500.0,1267.0,-167.0,1398.0,3675.0,,,,-0.588911211715507,-2.91155678991804,-0.8327964621261,,0.7898626718117645,,
,7675.0,1137.0,5498.0,1267.0,-190.0,1413.0,3674.0,,,,-0.588666320298868,-2.91147671191672,-0.832544798001868,,1.1671913117997867,,
,7674.0,1137.0,5498.0,1268.0,-190.0,1409.0,3673.0,,,,-0.588647930690924,-2.91140104796037,-0.832978882683391,,1.524099291438291,,
,7673.0,1136.0,5498.0,1268.0,-177.0,1412.0,3670.0,,,,-0.588548020365641,-2.91148196829854,-0.833055131627237,,1.8480095534931662,,
,7672.0,1136.0,5498.0,1269.0,-180.0,1409.0,3694.0,,,,-0.588730617135809,-2.91142766900701,-0.832818840392972,,2.126985380080985,,
,7672.0,1133.0,5497.0,1267.0,-182.0,1434.0,3698.0,,,,-0.588436112688445,-2.91139746608247,-0.83268709232669,,2.3504104810587325,,
,7672.0,1136.0,5499.0,1267.0,-183.0,1432.0,3701.0,,,,-0.588137954878811,-2.91136145244715,-0.832676718766448,,2.5096534340952297,,
,7670.0,1135.0,5497.0,1270.0,-186.0,1405.0,3700.0,,,,-0.587737484805578,-2.91135903588597,-0.832597836681532,,2.5986596043198995,,
,7669.0,1134.0,5497.0,1269.0,-172.0,1408.0,3677.0,,,,-0.587920503077023,-2.91141713345237,-0.832459294640954,,2.61441034679135,,
,7670.0,1136.0,5497.0,1269.0,-187.0,1403.0,3680.0,,,,-0.587827254541781,-2.91143714029442,-0.83278532544084,,2.5571930892447954,,
,7672.0,1135.0,5495.0,1273.0,-181.0,1413.0,3712.0,,,,-0.587695327928488,-2.91133322040807,-0.831931230044933,,2.430638233269431,,
,7672.0,1137.0,5498.0,1273.0,-179.0,1436.0,3720.0,,,,-0.588090076479947,-2.9113078536336,-0.831696791406157,,2.2415000351439343,,
,7674.0,1137.0,5497.0,1271.0,-181.0,1423.0,3681.0,,,,-0.588074012033554,-2.91136248541771,-0.832124995748468,,1.9991872625270355,,
,7674.0,1138.0,5499.0,1272.0,-183.0,1400.0,3671.0,,,,-0.587851594849488,-2.9112826417746,-0.832845822175447,,1.715081451707698,,
,7674.0,1139.0,5501.0,1274.0,-174.0,1420.0,3678.0,,,,-0.588006447911774,-2.91118564067787,-0.831843368169939,,1.401709598636916,,
,7672.0,1140.0,5500.0,1271.0,-172.0,1418.0,3682.0,,,,-0.587578032339254,-2.91122779690003,-0.832427472842451,,1.0718572843257776,,
,7674.0,1136.0,5498.0,1274.0,-167.0,1428.0,3708.0,,,,-0.587849420949623,-2.91121690740109,-0.832628073845728,,0.7377133738011776,,
,7675.0,1138.0,5500.0,1274.0,-164.0,1421.0,3681.0,,,,-0.587656970648674,-2.91123801272047,-0.831899268331161,,0.41012866933634307,,
,7674.0,1139.0,5500.0,1275.0,-180.0,1412.0,3692.0,,,,-0.587264238230984,-2.91123794728105,-0.831131393825427,,0.09805174700585408,,
,7674.0,1138.0,5502.0,1275.0,-190.0,1408.0,3696.0,,,,-0.587067887689814,-2.91114010237417,-0.831148419360519,,-0.19181970072886995,,
,7671.0,1140.0,5504.0,1277.0,-177.0,1410.0,3683.0,,,,-0.587298569363001,-2.91112028949485,-0.831415647397982,,-0.45516015438120844,,
,7674.0,1139.0,5503.0,1276.0,-179.0,1412.0,3687.0,,,,-0.587095954354237,-2.91112340968534,-0.831631587629811,,-0.6899230062750813,,
,7676.0,1138.0,5503.0,1278.0,-170.0,1410.0,3690.0,,,,-0.58755136741737,-2.91109103585001,-0.830968571565334,,-0.8960659287256234,,
,7672.0,1137.0,5505.0,1278.0,-174.0,1392.0,3693.0,,,,-0.587120979497104,-2.91108338451954,-0.83110011885657,,-1.0751423336382806,,
,7675.0,1139.0,5503.0,1279.0,-186.0,1390.0,3688.0,,,,-0.586719904849976,-2.91109811457901,-0.831515461611529,,-1.22981359433538,,
,7673.0,1137.0,5503.0,1277.0,-193.0,1404.0,3683.0,,,,-0.586816339413964,-2.91106291353351,-0.831987074809357,,-1.363336546140586,,
,7671.0,1138.0,5504.0,1278.0,-168.0,1408.0,3686.0,,,,-0.587189704555567,-2.91090028697657,-0.831154050807166,,-1.479073781450303,,
,7671.0,1138.0,5502.0,1278.0,-172.0,1421.0,3702.0,,,,-0.586586428549527,-2.91107297424647,-0.831666551570921,,-1.5800621635360077,,
,7672.0,1140.0,5503.0,1279.0,-177.0,1420.0,3703.0,,,,-0.586831048697942,-2.91100031146776,-0.830955142396327,,-1.6686610329061196,,
,7671.0,1140.0,5505.0,1279.0,-189.0,1417.0,3685.0,,,,-0.586667256453243,-2.91110575542855,-0.831008971738416,,-1.7462895935987945,,
,7674.0,1141.0,5502.0,1279.0,-183.0,1402.0,3680.0,,,,-0.586701314016833,-2.91106804470563,-0.831043419111569,,-1.8132554858718783,,
,7675.0,1140.0,5505.0,1279.0,-204.0,1403.0,3694.0,,,,-0.586772485262681,-2.91089383554655,-0.830174498773916,,-1.8686736364047833,,
,7672.0,1138.0,5504.0,1280.0,-199.0,1412.0,3707.0,,,,-0.586360730992714,-2.91095903671764,-0.830095215504388,,-1.910474335753758,,
,7672.0,1138.0,5504.0,1280.0,-186.0,1433.0,3713.0,,,,-0.586395859547174,-2.9109054977146,-0.830947001947501,,-1.935500035986427,,
,7673.0,1141.0,5506.0,1282.0,-176.0,1418.0,3674.0,,,,-0.586276256616464,-2.91084709605158,-0.831122826422814,,-1.9396901306342977,,
,7673.0,1143.0,5506.0,1282.0,-179.0,1404.0,3692.0,,,,-0.585954268027852,-2.91080876466826,-0.831095020201194,,-1.9183511239029831,,
,7672.0,1142.0,5507.0,1281.0,-183.0,1408.0,3696.0,,,,-0.586127058729156,-2.9107847188796,-0.830420339897506,,-1.8665056083030558,,
,7673.0,1138.0,5505.0,1281.0,-183.0,1420.0,3685.0,,,,-0.585874829102003,-2.91073326532718,-0.830663187779945,,-1.779307236330467,,
,7673.0,1138.0,5509.0,1284.0,-168.0,1427.0,3684.0,,,,-0.585744628329258,-2.91072784421365,-0.830850888931186,,-1.6525009105499884,,
,7675.0,1144.0,5510.0,1284.0,-182.0,1404.0,3681.0,,,,-0.585732824041497,-2.91076654346025,-0.830620652615966,,-1.4828988771441824,,
,7674.0,1142.0,5512.0,1286.0,-191.0,1408.0,3679.0,,,,-0.58581346619503,-2.91068865285593,-0.830533469937843,,-1.268835818015475,,
,7676.0,1142.0,5513.0,1286.0,-186.0,1416.0,3681.0,,,,-0.585858425911545,-2.91075075873107,-0.830125166223471,,-1.0105611617781063,,
,7679.0,1142.0,5513.0,1286.0,-182.0,1411.0,3697.0,,,,-0.585710259380966,-2.91082152169728,-0.830371262094885,,-0.7105266498651227,,
,7676.0,1142.0,5512.0,1285.0,-184.0,1426.0,3688.0,,,,-0.586134235334394,-2.91076889248397,-0.82959277619238,,-0.37353331176766097,,
,7680.0,1143.0,5514.0,1286.0,-174.0,1429.0,3699.0,,,,-0.58635677824521,-2.9108611848177,-0.830050592940126,,-0.006714404690715287,,
,7680.0,1141.0,5518.0,1288.0,-192.0,1433.0,3712.0,,,,-0.587056084391702,-2.9109659485354,-0.831239358139777,,0.38065278529663144,,
,7682.0,1143.0,5517.0,1289.0,-190.0,1414.0,3724.0,,,,-0.586721401651756,-2.91117474675117,-0.83088013628758,,0.7774967377863424,,
,7681.0,1145.0,5516.0,1289.0,-182.0,1388.0,3693.0,,,,-0.587909577777293,-2.91123424529326,-0.832294867972573,,1.1714395721544018,,
,7684.0,1143.0,5521.0,1291.0,-173.0,1391.0,3675.0,,,,-0.587714620280372,-2.91142287110438,-0.833528790444105,,1.5493894031874718,,
,7683.0,1145.0,5521.0,1291.0,-182.0,1416.0,3668.0,,,,-0.588806947795549,-2.91161320483242,-0.83265995574546,,1.8981972120849306,,
,7688.0,1146.0,5524.0,1292.0,-177.0,1431.0,3698.0,,,,-0.589310635634618,-2.91171918188717,-0.83385553986417,,2.20533502114862,,
,7689.0,1146.0,5526.0,1291.0,-180.0,1417.0,3719.0,,,,-0.589889201911883,-2.911937720243,-0.834892229569008,,2.4595516394853725,,
,7689.0,1148.0,5527.0,1294.0,-192.0,1423.0,3688.0,,,,-0.590308679546443,-2.91192419819085,-0.834974675386382,,2.6514643037504877,,
,7690.0,1147.0,5529.0,1294.0,-183.0,1425.0,3694.0,,,,-0.590567086106796,-2.91204876713186,-0.834928323769284,,2.7740491692433915,,
,7691.0,1149.0,5529.0,1294.0,-180.0,1417.0,3695.0,,,,-0.591274434339421,-2.91179275008847,-0.835771217493907,,2.823000796818468,,
,7693.0,1149.0,5531.0,1296.0,-175.0,1401.0,3691.0,,,,-0.590949485367356,-2.91178581048891,-0.834850155821664,,2.7969401125670252,,
,7694.0,1149.0,5532.0,1296.0,-165.0,1409.0,3709.0,,,,-0.591118213645738,-2.9119086756294,-0.835859906903916,,2.6974606469285476,,
,7699.0,1150.0,5537.0,1296.0,-174.0,1415.0,3691.0,,,,-0.590775187217977,-2.91197160604992,-0.834878934219475,,2.5290128034777037,,
,7699.0,1149.0,5536.0,1299.0,-175.0,1410.0,3697.0,,,,-0.590457046764532,-2.91173509820454,-0.834647322407847,,2.2986349421207017,,
,7700.0,1152.0,5539.0,1301.0,-177.0,1403.0,3690.0,,,,-0.590367745224682,-2.91193169284728,-0.834870320138631,,2.015548770366627,,
,7703.0,1151.0,5540.0,1298.0,-177.0,1410.0,3690.0,,,,-0.59056606981573,-2.91173509044626,-0.83401605893133,,1.690645351819151,,
,7701.0,1153.0,5537.0,1300.0,-177.0,1424.0,3689.0,,,,-0.590589580863081,-2.9118719370868,-0.834463519889602,,1.3358959839636662,,
,7703.0,1155.0,5544.0,1301.0,-180.0,1420.0,3701.0,,,,-0.590665356318266,-2.9119875498389,-0.834726974334147,,0.9637272271170995,,
,7706.0,1155.0,5545.0,1302.0,-171.0,1399.0,3708.0,,,,-0.590345218631295,-2.9118814221372,-0.834098447879982,,0.5863999219038638,,
,7708.0,1153.0,5548.0,1304.0,-176.0,1402.0,3677.0,,,,-0.590097563932647,-2.9118998698104,-0.834502236033835,,0.21542815010660987,,
,7707.0,1153.0,5548.0,1303.0,-190.0,1416.0,3685.0,,,,-0.589596716798131,-2.91163374910896,-0.833532395943617,,-0.13893274041192102,,
,7709.0,1154.0,5549.0,1306.0,-174.0,1404.0,3708.0,,,,-0.58965235804006,-2.91170879990776,-0.833254076166183,,-0.4681076756559874,,
,7713.0,1155.0,5551.0,1306.0,-167.0,1413.0,3715.0,,,,-0.58988246854131,-2.91164475065364,-0.833715313027396,,-0.7655183965556839,,
,7714.0,1156.0,5553.0,1308.0,-175.0,1419.0,3704.0,,,,-0.589879260857673,-2.91176110393171,-0.83343179327923,,-1.0267850085541208,,
,7715.0,1155.0,5552.0,1303.0,-175.0,1428.0,3680.0,,,,-0.589398340999121,-2.91162521590662,-0.833659977424027,,-1.2498046795065678,,
,7715.0,1154.0,5556.0,1310.0,-179.0,1415.0,3694.0,,,,-0.589438051233864,-2.91175736005552,-0.833620699709484,,-1.434700750872497,,
,7718.0,1156.0,5558.0,1311.0,-173.0,1416.0,3693.0,,,,-0.58910254605952,-2.91177202487849,-0.833436295798643,,-1.5836382355397387,,
,7717.0,1159.0,5560.0,1308.0,-171.0,1419.0,3696.0,,,,-0.589441403695692,-2.91164598984394,-0.833491705488708,,-1.7005079756438202,,
,7714.0,1157.0,5559.0,1308.0,-160.0,1414.0,3699.0,,,,-0.589500941960225,-2.91182083929782,-0.833720783139846,,-1.7904916065356091,,
,7713.0,1157.0,5557.0,1305.0,-174.0,1429.0,3674.0,,,,-0.589510309650476,-2.9115704166969,-0.83339626431343,,-1.8595311346751782,,
2025-08-06 22:02:57,7713.0,1155.0,5558.0,1309.0,-173.0,1419.0,3685.0,,,2025/08/06 10:02:57 PM,-0.589425214144637,-2.91164242668641,-0.832738337812907,,-1.9137381746191682,,
,7708.0,1155.0,5560.0,1308.0,-176.0,1417.0,3696.0,,,,-0.589051244383247,-2.9115285425421,-0.833218696233639,,-1.9587869838454932,,
,7699.0,1152.0,5551.0,1307.0,-178.0,1407.0,3694.0,,,,-0.588589839035945,-2.91140665864396,-0.832922490022154,,-1.9993412045922447,,
,7692.0,1151.0,5551.0,1305.0,-175.0,1387.0,3703.0,,,,-0.588356291014997,-2.91165878337034,-0.83315727071988,,-2.0385657233207635,,
,7687.0,1151.0,5546.0,1307.0,-171.0,1374.0,3712.0,,,,-0.588762629728029,-2.91157045054661,-0.832637393088925,,-2.0777714786992654,,
,7680.0,1148.0,5545.0,1305.0,-182.0,1411.0,3707.0,,,,-0.588919466151777,-2.91156498731577,-0.832143368524034,,-2.116231903344496,,
,7672.0,1146.0,5538.0,1302.0,-178.0,1406.0,3696.0,,,,-0.588504134850347,-2.91157195739881,-0.83271825757928,,-2.1511950448078676,,
,7667.0,1143.0,5531.0,1303.0,-185.0,1433.0,3682.0,,,,-0.588930092275371,-2.91143081474216,-0.833313660963908,,-2.1780960831540663,,
,7658.0,1143.0,5529.0,1304.0,-178.0,1430.0,3688.0,,,,-0.588689241294957,-2.91163001747801,-0.832704947063593,,-2.190952818911767,,
,7656.0,1142.0,5526.0,1304.0,-177.0,1432.0,3691.0,,,,-0.589040480981014,-2.91164667233335,-0.833029164607634,,-2.182905020791915,,
,7647.0,1141.0,5522.0,1304.0,-170.0,1423.0,3670.0,,,,-0.589136714490106,-2.91155735588503,-0.833085599396318,,-2.1468414780198133,,
,7643.0,1140.0,5520.0,1302.0,-167.0,1406.0,3674.0,,,,-0.588990817650663,-2.91142270400914,-0.832981824752577,,-2.0760496613052153,,
,7636.0,1138.0,5517.0,1303.0,-165.0,1424.0,3685.0,,,,-0.588807401998313,-2.91159502051763,-0.832301346713961,,-1.9648233261298613,,
,7636.0,1139.0,5514.0,1301.0,-181.0,1447.0,3703.0,,,,-0.589004701697432,-2.91153957951455,-0.832948454706903,,-1.8089723010191305,,
,7631.0,1137.0,5513.0,1303.0,-180.0,1422.0,3709.0,,,,-0.588946634613873,-2.9115138344322,-0.833038035885845,,-1.6061941696894977,,
,7628.0,1136.0,5512.0,1303.0,-180.0,1405.0,3705.0,,,,-0.589508209704031,-2.91145483066583,-0.833694765253324,,-1.3562873590909672,,
,7623.0,1136.0,5511.0,1302.0,-181.0,1431.0,3698.0,,,,-0.589124095993706,-2.91156234182376,-0.83385715602625,,-1.0612065794672727,,
,7622.0,1133.0,5508.0,1300.0,-179.0,1423.0,3698.0,,,,-0.589212267559601,-2.91153620469261,-0.83367722038382,,-0.724981132246309,,
,7621.0,1135.0,5508.0,1303.0,-189.0,1398.0,3697.0,,,,-0.589161764544786,-2.91160961733065,-0.832869171776315,,-0.3535305155413599,,
,7620.0,1136.0,5510.0,1304.0,-184.0,1399.0,3675.0,,,,-0.588975310020226,-2.91160935611532,-0.832919942067753,,0.04558285766554991,,
,7619.0,1137.0,5507.0,1305.0,-187.0,1412.0,3674.0,,,,-0.588945265550263,-2.91145512041868,-0.83361664737559,,0.46342804367806584,,
,7613.0,1135.0,5505.0,1301.0,-179.0,1424.0,3692.0,,,,-0.58858741553345,-2.91143892432969,-0.832636625139278,,0.8899832569398947,,
,7613.0,1136.0,5506.0,1303.0,-199.0,1427.0,3686.0,,,,-0.588527873479081,-2.9114528407007,-0.832649604060344,,1.3144094281661154,,
,7613.0,1135.0,5505.0,1303.0,-170.0,1413.0,3670.0,,,,-0.589216711843909,-2.91145002669676,-0.832957570068858,,1.7253279436910638,,
,7612.0,1137.0,5506.0,1303.0,-177.0,1404.0,3672.0,,,,-0.588787590627499,-2.91133959179477,-0.832771306746387,,2.1111211053783094,,
,7610.0,1135.0,5505.0,1302.0,-191.0,1401.0,3693.0,,,,-0.588480281549249,-2.91140189876911,-0.83223756443251,,2.4602756559150563,,
,7609.0,1136.0,5506.0,1304.0,-174.0,1391.0,3677.0,,,,-0.588508721459604,-2.91136412582345,-0.83244626615854,,2.7617831572226788,,
,7610.0,1138.0,5504.0,1303.0,-178.0,1386.0,3689.0,,,,-0.588006806169699,-2.91139389842858,-0.832933960142893,,3.005598325488631,,
,7609.0,1137.0,5508.0,1304.0,-176.0,1395.0,3686.0,,,,-0.587743161132478,-2.91132563404416,-0.83214190583642,,3.183140501899943,,
,7611.0,1136.0,5508.0,1306.0,-180.0,1428.0,3687.0,,,,-0.588221923421311,-2.9111870651163,-0.832195739192584,,3.287806956295482,,
,7608.0,1137.0,5505.0,1305.0,-168.0,1422.0,3692.0,,,,-0.587823028306432,-2.91132210445114,-0.832146399978829,,3.315452214076127,,
,7609.0,1139.0,5509.0,1307.0,-167.0,1439.0,3685.0,,,,-0.588116988973913,-2.91125993671966,-0.831996139324906,,3.2647777451038342,,
,7609.0,1138.0,5510.0,1308.0,-184.0,1420.0,3680.0,,,,-0.58781384968264,-2.91134340810535,-0.831769032791574,,3.1375738975738097,,
,7609.0,1141.0,5510.0,1310.0,-185.0,1404.0,3676.0,,,,-0.588253279108955,-2.91136249242016,-0.83181596074618,,2.9387631239040832,,
,7606.0,1137.0,5510.0,1310.0,-178.0,1387.0,3692.0,,,,-0.587598073140831,-2.91134977454214,-0.832201299506109,,2.6762112567768246,,
,7606.0,1136.0,5511.0,1308.0,-174.0,1384.0,3685.0,,,,-0.588028689467422,-2.91130755156086,-0.832132637110179,,2.360300681825707,,
,7609.0,1139.0,5510.0,1308.0,-171.0,1403.0,3701.0,,,,-0.588195892712205,-2.9114387473077,-0.831708753919938,,2.003291760107725,,
,7608.0,1138.0,5510.0,1309.0,-166.0,1407.0,3708.0,,,,-0.588117759266737,-2.91137556816482,-0.831700919685458,,1.6185301562531083,,
,7607.0,1141.0,5513.0,1309.0,-185.0,1415.0,3699.0,,,,-0.587894594051727,-2.91140436463317,-0.831926224253296,,1.2195804385183484,,
,7602.0,1139.0,5509.0,1308.0,-184.0,1416.0,3709.0,,,,-0.588090203673794,-2.91135025423241,-0.831623138534302,,0.8193753882061824,,
,7603.0,1138.0,5513.0,1308.0,-174.0,1418.0,3684.0,,,,-0.588141485074216,-2.91118982893995,-0.832012534774724,,0.42946513534984154,,
,7604.0,1139.0,5510.0,1311.0,-165.0,1420.0,3653.0,,,,-0.587956065766855,-2.91101164251564,-0.831922561325388,,0.059433406782344746,,
,7601.0,1139.0,5513.0,1313.0,-166.0,1420.0,3646.0,,,,-0.587463064241741,-2.91105583185678,-0.831445379057686,,-0.2834757427379696,,
,7599.0,1139.0,5514.0,1311.0,-185.0,1395.0,3654.0,,,,-0.587311488293371,-2.91110603136921,-0.831360436683345,,-0.5945039960000393,,
,7598.0,1138.0,5513.0,1311.0,-194.0,1408.0,3673.0,,,,-0.588002964844729,-2.91106449493665,-0.831878006161621,,-0.8713066078030047,,
,7600.0,1139.0,5513.0,1312.0,-186.0,1421.0,3703.0,,,,-0.58754494231372,-2.91119319359102,-0.831047002062892,,-1.1136927194387036,,
,7594.0,1141.0,5515.0,1311.0,-186.0,1430.0,3697.0,,,,-0.587354551622,-2.91106258888062,-0.831297523752833,,-1.3232243883648351,,
,7596.0,1139.0,5512.0,1314.0,-183.0,1433.0,3679.0,,,,-0.587518913583856,-2.91106741490407,-0.831237140475519,,-1.5027285252899494,,
,7592.0,1136.0,5514.0,1313.0,-179.0,1407.0,3683.0,,,,-0.587532814951365,-2.91103328011616,-0.831150864556741,,-1.6557760356117104,,
,7595.0,1140.0,5515.0,1314.0,-179.0,1386.0,3666.0,,,,-0.587448505138449,-2.91111728045012,-0.831551114714919,,-1.7861756182021802,,
,7593.0,1140.0,5515.0,1315.0,-174.0,1378.0,3684.0,,,,-0.58717937942961,-2.91114752074956,-0.830562570379097,,-1.8975181053177008,,
,7591.0,1138.0,5515.0,1315.0,-163.0,1398.0,3675.0,,,,-0.587191347073454,-2.91099801826952,-0.830761166545375,,-1.992794284552952,,
,7590.0,1139.0,5515.0,1312.0,-170.0,1429.0,3697.0,,,,-0.58698438872447,-2.91096776016432,-0.831420965837209,,-2.0740982607461045,,
,7593.0,1141.0,5518.0,1315.0,-181.0,1431.0,3686.0,,,,-0.586967665125218,-2.91098096047161,-0.830675731322073,,-2.142421542869484,,
,7593.0,1140.0,5517.0,1314.0,-174.0,1427.0,3676.0,,,,-0.586966595181826,-2.91093986024522,-0.830826184504966,,-2.1975399178988093,,
,7589.0,1139.0,5519.0,1314.0,-171.0,1421.0,3666.0,,,,-0.58640584048014,-2.91098989435655,-0.83057405861507,,-2.237994120939938,,
,7592.0,1142.0,5518.0,1315.0,-181.0,1393.0,3670.0,,,,-0.586373524473612,-2.91112508576425,-0.83033473269635,,-2.261164577703326,,
,7591.0,1138.0,5520.0,1318.0,-187.0,1415.0,3681.0,,,,-0.586063398734389,-2.9108798423363,-0.83027733317517,,-2.2634389388890654,,
,7593.0,1144.0,5521.0,1317.0,-185.0,1406.0,3692.0,,,,-0.585996677539293,-2.91094555193233,-0.829957219589216,,-2.2404681141506835,,
,7591.0,1143.0,5522.0,1318.0,-182.0,1417.0,3666.0,,,,-0.58614554089185,-2.91087548162355,-0.830729584898858,,-2.1875017016783893,,
,7595.0,1144.0,5524.0,1319.0,-187.0,1404.0,3651.0,,,,-0.586605786847266,-2.91095116180978,-0.829982207941522,,-2.0997871067783045,,
,7596.0,1141.0,5525.0,1317.0,-173.0,1400.0,3658.0,,,,-0.586755758163697,-2.91107254246364,-0.831001122205309,,-1.9730088119055844,,
,7595.0,1145.0,5524.0,1321.0,-175.0,1418.0,3676.0,,,,-0.587310544181599,-2.91124488229765,-0.832079811457655,,-1.8037363831302533,,
,7595.0,1145.0,5527.0,1320.0,-181.0,1425.0,3679.0,,,,-0.58749347975479,-2.9113753468403,-0.832779609374037,,-1.5898436328282308,,
,7598.0,1145.0,5530.0,1320.0,-184.0,1423.0,3675.0,,,,-0.588330163465646,-2.91149884649976,-0.832465977381067,,-1.3308591298716548,,
,7594.0,1142.0,5527.0,1319.0,-195.0,1390.0,3694.0,,,,-0.588878887001633,-2.91163650883894,-0.833497519537114,,-1.0282120930557759,,
,7597.0,1146.0,5535.0,1322.0,-188.0,1402.0,3678.0,,,,-0.589909770041842,-2.91174335354714,-0.834210496132898,,-0.6853484046364186,,
,7601.0,1145.0,5532.0,1323.0,-175.0,1408.0,3667.0,,,,-0.590502943983159,-2.91198987134021,-0.834441726782933,,-0.3077072976902282,,
,7599.0,1147.0,5533.0,1322.0,-179.0,1413.0,3667.0,,,,-0.591091517352109,-2.91205505507804,-0.835052372639972,,0.09743372433529325,,
,7600.0,1147.0,5536.0,1325.0,-214.0,1422.0,3689.0,,,,-0.591531879239384,-2.9122039909156,-0.836180216255438,,0.5212241512362258,,
,7602.0,1146.0,5537.0,1326.0,-175.0,1407.0,3689.0,,,,-0.591765718256778,-2.91216799589575,-0.835301355070858,,0.9535858012472096,,
,7602.0,1149.0,5540.0,1325.0,-172.0,1401.0,3678.0,,,,-0.592151936970202,-2.91224954000276,-0.836800029317347,,1.3836055542289707,,
,7606.0,1149.0,5541.0,1327.0,-187.0,1416.0,3668.0,,,,-0.591546389121589,-2.91226200800325,-0.8355590473503,,1.7999453701497576,,
,7608.0,1147.0,5544.0,1327.0,-186.0,1418.0,3688.0,,,,-0.592158190303083,-2.91219354358521,-0.835802658864917,,2.1912458136125266,,
,7607.0,1150.0,5543.0,1326.0,-182.0,1426.0,3703.0,,,,-0.592142929345348,-2.9121102422411,-0.834786293504041,,2.546507897410872,,
,7610.0,1151.0,5547.0,1328.0,-182.0,1414.0,3699.0,,,,-0.591716416063852,-2.91225317361678,-0.836523168507517,,2.8554473099940094,,
,7612.0,1150.0,5547.0,1329.0,-173.0,1398.0,3688.0,,,,-0.59185134513997,-2.91215153662878,-0.835803311808481,,3.108823301446521,,
,7615.0,1150.0,5549.0,1329.0,-168.0,1399.0,3675.0,,,,-0.591868988278088,-2.91205518591998,-0.835487728678165,,3.2987497377313892,,
,7613.0,1151.0,5551.0,1330.0,-184.0,1415.0,3664.0,,,,-0.591846863297194,-2.91218674160243,-0.83576494152829,,3.418996032301824,,
,7616.0,1152.0,5552.0,1331.0,-165.0,1440.0,3675.0,,,,-0.591321649020289,-2.91202267161772,-0.834944972407337,,3.465279514369085,,
,7618.0,1155.0,5556.0,1332.0,-176.0,1439.0,3686.0,,,,-0.591230616623024,-2.91209576596775,-0.834741165877103,,3.435539049563366,,
,7620.0,1153.0,5556.0,1332.0,-171.0,1393.0,3687.0,,,,-0.591435234297988,-2.91207730510864,-0.835208664771183,,3.3301657189745733,,
,7621.0,1154.0,5559.0,1334.0,-177.0,1400.0,3690.0,,,,-0.5913243842024,-2.91200169207435,-0.835112065331408,,3.1521549288279367,,
,7620.0,1152.0,5560.0,1333.0,-174.0,1418.0,3692.0,,,,-0.590880139496654,-2.9119637616875,-0.835584045218629,,2.907139852879453,,
,7622.0,1152.0,5563.0,1334.0,-198.0,1415.0,3670.0,,,,-0.591039889275094,-2.91202854952009,-0.83498300652286,,2.6032709355247166,,
,7625.0,1156.0,5565.0,1335.0,-184.0,1411.0,3669.0,,,,-0.591017858133737,-2.91188296664235,-0.835190180158826,,2.2509200528736364,,
,7627.0,1156.0,5565.0,1337.0,-176.0,1417.0,3682.0,,,,-0.591103487244316,-2.91203560849942,-0.834916508566617,,1.8622083401347291,,
,7622.0,1156.0,5566.0,1337.0,-178.0,1438.0,3659.0,,,,-0.591503095780037,-2.91192616435332,-0.83472092704733,,1.4503796789255425,,
,7622.0,1158.0,5569.0,1336.0,-170.0,1404.0,3657.0,,,,-0.591645311693347,-2.91199609224184,-0.835259447912175,,1.0290631333015785,,
,7619.0,1156.0,5568.0,1339.0,-178.0,1396.0,3687.0,,,,-0.591103770764156,-2.91208038046506,-0.835070219376257,,0.6114839562781541,,
,7613.0,1152.0,5567.0,1334.0,-178.0,1408.0,3703.0,,,,-0.591605182351426,-2.91204457672679,-0.834564881422522,,0.20969234631082193,,
,7609.0,1153.0,5566.0,1334.0,-187.0,1409.0,3694.0,,,,-0.591524742699625,-2.91196179553066,-0.834870857736719,,-0.16611908541069706,,
,7599.0,1150.0,5564.0,1330.0,-182.0,1408.0,3681.0,,,,-0.590817538006728,-2.91201663528007,-0.835070828323266,,-0.5081448944864122,,
,7591.0,1149.0,5561.0,1334.0,-174.0,1417.0,3687.0,,,,-0.590938315720634,-2.91182280727995,-0.834590685485041,,-0.811294308504517,,
,7584.0,1148.0,5554.0,1335.0,-178.0,1410.0,3672.0,,,,-0.591028242541522,-2.91194247184847,-0.834785412396129,,-1.0732892660696447,,
,7572.0,1147.0,5550.0,1333.0,-173.0,1410.0,3666.0,,,,-0.590253889215215,-2.91193051470851,-0.834906844576663,,-1.294530496665846,,
,7563.0,1146.0,5548.0,1330.0,-178.0,1420.0,3680.0,,,,-0.590571136586178,-2.91186706680707,-0.834913768560097,,-1.4777532604001382,,
,7556.0,1141.0,5542.0,1328.0,-183.0,1439.0,3707.0,,,,-0.590825214621903,-2.91187507317769,-0.833694350180166,,-1.627514471948805,,
,7550.0,1144.0,5538.0,1330.0,-187.0,1440.0,3711.0,,,,-0.590599698762528,-2.91212102615184,-0.834052604911007,,-1.7495671044891934,,
,7541.0,1142.0,5536.0,1331.0,-177.0,1420.0,3697.0,,,,-0.591000509576151,-2.91210060953022,-0.834034670972893,,-1.8501852140990889,,
,7536.0,1142.0,5532.0,1329.0,-183.0,1423.0,3689.0,,,,-0.590815654938198,-2.91187251209535,-0.834563609334288,,-1.9355035722888299,,
,7531.0,1139.0,5529.0,1327.0,-188.0,1424.0,3678.0,,,,-0.591031982437206,-2.91193351941113,-0.83571236154869,,-2.010930124805242,,
,7525.0,1139.0,5529.0,1327.0,-175.0,1414.0,3683.0,,,,-0.590987181093711,-2.91197238015413,-0.835051768235118,,-2.0806780787746444,,
,7517.0,1138.0,5527.0,1330.0,-174.0,1417.0,3677.0,,,,-0.590994925249033,-2.91206172450125,-0.834635597136464,,-2.1474485601075006,,
,7513.0,1137.0,5525.0,1329.0,-178.0,1430.0,3665.0,,,,-0.59089418823702,-2.91216085648984,-0.834157430432943,,-2.212276275092148,,
,7511.0,1139.0,5523.0,1328.0,-175.0,1423.0,3669.0,,,,-0.591116715500665,-2.91222697551558,-0.835180725450103,,-2.2745320599214667,,
,7505.0,1138.0,5521.0,1328.0,-184.0,1425.0,3698.0,,,,-0.591552684727687,-2.91208645074442,-0.835031401935737,,-2.3320608016899738,,
,7507.0,1134.0,5518.0,1327.0,-188.0,1435.0,3670.0,,,,-0.592030369912769,-2.9120637776532,-0.83531327463534,,-2.3814236409835625,,
,7503.0,1136.0,5522.0,1330.0,-180.0,1424.0,3667.0,,,,-0.591921164418147,-2.91203243550881,-0.835162207498582,,-2.418210406891492,,
,7500.0,1137.0,5519.0,1329.0,-172.0,1402.0,3710.0,,,,-0.592039352468032,-2.91210818448677,-0.835379666081416,,-2.4373905018874655,,
,7497.0,1134.0,5520.0,1328.0,-178.0,1404.0,3679.0,,,,-0.591717682122984,-2.91210007660664,-0.835484342511864,,-2.4336755435464057,,
,7498.0,1136.0,5519.0,1327.0,-181.0,1364.0,3667.0,,,,-0.591587023528342,-2.91202725541777,-0.835400126863853,,-2.4018729571520954,,
,7497.0,1135.0,5518.0,1329.0,-189.0,1398.0,3665.0,,,,-0.591865295966405,-2.91202635702684,-0.836289849965951,,-2.3372152187115427,,
,7494.0,1139.0,5521.0,1330.0,-176.0,1404.0,3676.0,,,,-0.591218074745873,-2.91200757513782,-0.835199542613051,,-2.2356539549465277,,
,7493.0,1135.0,5518.0,1327.0,-180.0,1409.0,3685.0,,,,-0.591260200422355,-2.91188103489822,-0.835227913084018,,-2.0941113249332437,,
,7493.0,1136.0,5519.0,1330.0,-189.0,1423.0,3700.0,,,,-0.591035713719541,-2.91182327364321,-0.83474176029388,,-1.9106831286080714,,
,7491.0,1138.0,5522.0,1331.0,-170.0,1397.0,3691.0,,,,-0.591138291916259,-2.91196887936494,-0.83458438894869,,-1.6847893575956814,,
,7492.0,1138.0,5522.0,1331.0,-171.0,1395.0,3674.0,,,,-0.591046117136022,-2.91187476660393,-0.833798750099579,,-1.4172689310133615,,
,7493.0,1138.0,5523.0,1333.0,-179.0,1403.0,3675.0,,,,-0.590421439432772,-2.91183421861158,-0.834360538257302,,-1.1104165123886571,,
,7493.0,1138.0,5522.0,1332.0,-177.0,1431.0,3674.0,,,,-0.590773260141644,-2.91179233879119,-0.83463621179889,,-0.7679609732778291,,
,7494.0,1140.0,5526.0,1333.0,-166.0,1436.0,3695.0,,,,-0.590828584498842,-2.91168972083604,-0.834883176612973,,-0.39498770803094296,,
,7494.0,1142.0,5526.0,1334.0,-171.0,1436.0,3701.0,,,,-0.591080469180581,-2.91184233484237,-0.834565858097183,,0.0021894033876251836,,
,7492.0,1141.0,5527.0,1332.0,-172.0,1430.0,3691.0,,,,-0.590705417894124,-2.91185663718409,-0.83486102932871,,0.416197031747185,,
,7491.0,1139.0,5526.0,1333.0,-180.0,1422.0,3677.0,,,,-0.591106121800052,-2.91184070623012,-0.834677207053062,,0.8388010600314597,,
,7492.0,1141.0,5527.0,1333.0,-178.0,1420.0,3690.0,,,,-0.590767644885712,-2.91196355172595,-0.834887988777002,,1.2611238696804166,,
,7492.0,1139.0,5527.0,1333.0,-172.0,1423.0,3706.0,,,,-0.590726528094974,-2.91193829370077,-0.834446326642652,,1.6738716701968321,,
,7492.0,1142.0,5529.0,1335.0,-175.0,1431.0,3697.0,,,,-0.590130354687574,-2.91183486764887,-0.834587838268361,,2.067566677977257,,
,7489.0,1141.0,5529.0,1333.0,-193.0,1414.0,3702.0,,,,-0.590518539644808,-2.91174613303423,-0.834632745010855,,2.4327822950188867,,
2025-08-06 22:02:58,7490.0,1143.0,5530.0,1333.0,-194.0,1413.0,3675.0,,,2025/08/06 10:02:58 PM,-0.590604521416884,-2.91179393735477,-0.833965096881025,,2.7603821409180687,,
,7490.0,1142.0,5532.0,1336.0,-178.0,1423.0,3671.0,,,,-0.590416307330862,-2.91188680009085,-0.834665718849408,,3.041765577633635,,
,7486.0,1142.0,5531.0,1336.0,-165.0,1436.0,3675.0,,,,-0.589939608495336,-2.91158506331775,-0.834052906987581,,3.269123086206771,,
,7487.0,1142.0,5533.0,1335.0,-167.0,1427.0,3677.0,,,,-0.589919970279793,-2.91164595809222,-0.834557719697729,,3.435704213843853,,
,7485.0,1142.0,5535.0,1337.0,-183.0,1428.0,3689.0,,,,-0.589842238277569,-2.91173185707926,-0.834417536219257,,3.53609806612163,,
,7485.0,1142.0,5536.0,1337.0,-167.0,1430.0,3677.0,,,,-0.590198554933228,-2.91173135849341,-0.834535221783479,,3.5665204561123667,,
,7485.0,1143.0,5536.0,1336.0,-173.0,1412.0,3680.0,,,,-0.589660238960695,-2.91199717472853,-0.833874127452342,,3.525092614046355,,
,7483.0,1144.0,5534.0,1335.0,-174.0,1422.0,3679.0,,,,-0.589901965704878,-2.91175333519964,-0.833648792328057,,3.412085549241861,,
,7483.0,1141.0,5534.0,1336.0,-190.0,1411.0,3678.0,,,,-0.589422196139838,-2.91160099743197,-0.832933332386678,,3.2300953420709426,,
,7486.0,1142.0,5536.0,1337.0,-177.0,1434.0,3679.0,,,,-0.589161727987206,-2.91155604752925,-0.833885785283643,,2.984111680831103,,
,7484.0,1143.0,5538.0,1339.0,-170.0,1431.0,3677.0,,,,-0.589021241176639,-2.9116413782409,-0.83267017459581,,2.681447060568776,,
,7484.0,1143.0,5539.0,1340.0,-171.0,1423.0,3684.0,,,,-0.588913261369155,-2.91164365668816,-0.832924496313765,,2.3315068916544797,,
,7481.0,1143.0,5540.0,1339.0,-180.0,1429.0,3683.0,,,,-0.588825119663798,-2.91136064735104,-0.833055150524643,,1.9453988074693183,,
,7481.0,1145.0,5540.0,1336.0,-182.0,1428.0,3667.0,,,,-0.588280738401315,-2.91149904805792,-0.833011335555037,,1.535399123454925,,
,7481.0,1144.0,5542.0,1336.0,-192.0,1440.0,3672.0,,,,-0.588215833296123,-2.91146072955215,-0.832790503544626,,1.1143121857218679,,
,7482.0,1148.0,5543.0,1340.0,-182.0,1440.0,3695.0,,,,-0.588283414487548,-2.91142241403078,-0.831503941391356,,0.694771718611628,,
,7484.0,1144.0,5542.0,1338.0,-179.0,1424.0,3706.0,,,,-0.588249668890562,-2.91128904180434,-0.832355928373921,,0.2885410578091465,,
,7482.0,1142.0,5545.0,1339.0,-189.0,1414.0,3687.0,,,,-0.588009773836499,-2.91147649279138,-0.832322273173631,,-0.09412880693690835,,
,7483.0,1145.0,5547.0,1340.0,-186.0,1420.0,3653.0,,,,-0.58788645879601,-2.91120161465702,-0.83221885274061,,-0.44502812730974717,,
,7484.0,1148.0,5547.0,1340.0,-194.0,1432.0,3661.0,,,,-0.587701162539255,-2.91127945292975,-0.832054024251591,,-0.7583585302567707,,
,7483.0,1147.0,5548.0,1344.0,-183.0,1436.0,3674.0,,,,-0.587576610258555,-2.91141026306626,-0.83232200170827,,-1.0309137744868881,,
,7485.0,1146.0,5553.0,1342.0,-174.0,1445.0,3713.0,,,,-0.587665103083045,-2.91147966459009,-0.832167917568064,,-1.2620593935816833,,
,7486.0,1148.0,5551.0,1342.0,-181.0,1424.0,3702.0,,,,-0.587849374810909,-2.91130435884621,-0.832921773709097,,-1.4535192797682936,,
,7486.0,1146.0,5554.0,1343.0,-181.0,1397.0,3687.0,,,,-0.588251923890399,-2.91153798776557,-0.832818367162472,,-1.6089950752938667,,
,7489.0,1149.0,5557.0,1343.0,-188.0,1393.0,3685.0,,,,-0.589072107582759,-2.91163649571667,-0.833228251284279,,-1.7336581172589347,,
,7490.0,1148.0,5556.0,1347.0,-189.0,1408.0,3696.0,,,,-0.589607562984675,-2.9117490411696,-0.83421257608493,,-1.8335627380978443,,
,7492.0,1148.0,5555.0,1346.0,-179.0,1410.0,3683.0,,,,-0.589852528035765,-2.91188583796134,-0.835074264213572,,-1.9150337281937555,,
,7493.0,1149.0,5558.0,1342.0,-183.0,1415.0,3687.0,,,,-0.59034929605681,-2.91211355631335,-0.834809494564593,,-1.9840797629281681,,
,7495.0,1154.0,5560.0,1347.0,-182.0,1432.0,3654.0,,,,-0.591358868599219,-2.91212365597708,-0.835793064230649,,-2.045878827993156,,
,7496.0,1153.0,5563.0,1348.0,-183.0,1422.0,3659.0,,,,-0.59207898311596,-2.912452179346,-0.837385808158147,,-2.104371671765368,,
,7495.0,1153.0,5563.0,1348.0,-182.0,1388.0,3689.0,,,,-0.592691136895241,-2.91238989610762,-0.836755239647156,,-2.161985986206892,,
,7498.0,1152.0,5564.0,1347.0,-192.0,1399.0,3683.0,,,,-0.59250341258845,-2.91258119675911,-0.836684219114586,,-2.2194989427012457,,
,7503.0,1155.0,5566.0,1349.0,-194.0,1412.0,3694.0,,,,-0.592769623845081,-2.91259713620421,-0.837019595494784,,-2.2760313958886553,,
,7505.0,1154.0,5570.0,1348.0,-190.0,1423.0,3683.0,,,,-0.592656143711567,-2.91248423796189,-0.837436724803625,,-2.3291564387167556,,
,7506.0,1157.0,5571.0,1351.0,-186.0,1427.0,3694.0,,,,-0.592069048243197,-2.91240771417055,-0.836941298161814,,-2.3750998698040218,,
,7505.0,1155.0,5571.0,1349.0,-187.0,1416.0,3674.0,,,,-0.592189698860172,-2.9123344164643,-0.836945745986367,,-2.4090101062132296,,
,7508.0,1152.0,5576.0,1352.0,-185.0,1417.0,3669.0,,,,-0.592103636931703,-2.91228393081058,-0.836764903994829,,-2.4252779985617168,,
,7509.0,1157.0,5577.0,1353.0,-184.0,1420.0,3685.0,,,,-0.591907797057543,-2.91246547983146,-0.837180989055563,,-2.4178905481624833,,
,7512.0,1157.0,5582.0,1352.0,-190.0,1409.0,3683.0,,,,-0.591968975954901,-2.91239074918678,-0.837325860016588,,-2.3808052092587677,,
,7515.0,1157.0,5581.0,1354.0,-199.0,1402.0,3663.0,,,,-0.591998068964426,-2.91227250612681,-0.835945134090752,,-2.3083326942028903,,
,7512.0,1157.0,5583.0,1352.0,-191.0,1415.0,3672.0,,,,-0.591172275125968,-2.91232992235051,-0.835905468787543,,-2.1955159041142167,,
,7516.0,1160.0,5588.0,1358.0,-184.0,1411.0,3658.0,,,,-0.591330095796129,-2.91220092493148,-0.836337387437869,,-2.0384910524038764,,
,7521.0,1160.0,5586.0,1355.0,-175.0,1415.0,3673.0,,,,-0.591267546671223,-2.91215129076785,-0.835064618744759,,-1.834814927129418,,
,7522.0,1160.0,5590.0,1360.0,-170.0,1424.0,3670.0,,,,-0.591202895461181,-2.91211182772243,-0.835361154648632,,-1.5837405434767942,,
,7518.0,1159.0,5588.0,1357.0,-183.0,1428.0,3667.0,,,,-0.591273281267837,-2.91213534318499,-0.835101607699385,,-1.286423055503925,,
,7522.0,1160.0,5592.0,1357.0,-191.0,1409.0,3689.0,,,,-0.591344094551422,-2.91201119810938,-0.835347640073577,,-0.9460392905410363,,
,7525.0,1162.0,5594.0,1359.0,-204.0,1413.0,3666.0,,,,-0.590777695929472,-2.91195678794658,-0.834575088082838,,-0.5678080389429562,,
,7522.0,1161.0,5593.0,1355.0,-200.0,1414.0,3666.0,,,,-0.591053012424328,-2.91192517617215,-0.835479754493701,,-0.15890441082612414,,
,7517.0,1162.0,5593.0,1355.0,-167.0,1409.0,3678.0,,,,-0.59088272704581,-2.91195965090333,-0.835172370071297,,0.27173057049698346,,
,7513.0,1159.0,5591.0,1358.0,-173.0,1420.0,3686.0,,,,-0.590901568791824,-2.91200174209074,-0.835415535629231,,0.7136761628115614,,
,7504.0,1158.0,5592.0,1355.0,-173.0,1413.0,3683.0,,,,-0.590893738264644,-2.91206275912757,-0.835591490129932,,1.1553989229072181,,
,7498.0,1159.0,5587.0,1354.0,-175.0,1387.0,3668.0,,,,-0.590348881840267,-2.91184981290065,-0.83488638468542,,1.5846821090003362,,
,7491.0,1158.0,5584.0,1356.0,-179.0,1404.0,3666.0,,,,-0.590112875413275,-2.91171395732053,-0.834158908423958,,1.989097609626134,,
,7479.0,1151.0,5578.0,1353.0,-178.0,1409.0,3677.0,,,,-0.58997315118747,-2.91176710808344,-0.833510325940904,,2.356500296521458,,
,7471.0,1152.0,5574.0,1351.0,-182.0,1408.0,3680.0,,,,-0.589978694261334,-2.91188990494332,-0.834026304386281,,2.675524950148072,,
,7462.0,1152.0,5574.0,1353.0,-187.0,1415.0,3671.0,,,,-0.589595628126768,-2.91185606519972,-0.833826726264365,,2.9360663177851176,,
,7452.0,1148.0,5568.0,1351.0,-190.0,1409.0,3681.0,,,,-0.589526035805808,-2.91167794369977,-0.833552070625122,,3.1297233549966643,,
,7441.0,1144.0,5563.0,1348.0,-193.0,1415.0,3688.0,,,,-0.589021269500441,-2.91176156294788,-0.833596527331362,,3.250189329541757,,
,7436.0,1144.0,5559.0,1347.0,-194.0,1429.0,3679.0,,,,-0.589145033579878,-2.91166763904526,-0.833138961377704,,3.2935701821478824,,
,7431.0,1143.0,5557.0,1347.0,-189.0,1434.0,3699.0,,,,-0.589226550772169,-2.91161680912842,-0.832585320842277,,3.2586139605825277,,
,7421.0,1143.0,5555.0,1345.0,-180.0,1441.0,3699.0,,,,-0.589285551846233,-2.91160309016378,-0.833091531704946,,3.1468339327492103,,
,7414.0,1142.0,5549.0,1347.0,-169.0,1440.0,3713.0,,,,-0.589198988876239,-2.91164758813279,-0.833782859048715,,2.9625078090536925,,
,7409.0,1140.0,5546.0,1343.0,-182.0,1416.0,3687.0,,,,-0.589442301245601,-2.9116971651019,-0.833214832343095,,2.712537476025288,,
,7406.0,1139.0,5547.0,1344.0,-190.0,1406.0,3675.0,,,,-0.589628600718121,-2.91156483614687,-0.833015803026528,,2.406160212956211,,
,7402.0,1141.0,5544.0,1343.0,-178.0,1392.0,3687.0,,,,-0.588961849531738,-2.91161270224567,-0.832515628812657,,2.0545143219061606,,
,7399.0,1139.0,5544.0,1343.0,-183.0,1399.0,3683.0,,,,-0.58873134337233,-2.91170245699433,-0.833732490581773,,1.6700775446653087,,
,7394.0,1139.0,5542.0,1341.0,-209.0,1438.0,3701.0,,,,-0.58891333394643,-2.91151741359284,-0.832583591431051,,1.266011884710832,,
,7395.0,1139.0,5541.0,1343.0,-198.0,1416.0,3710.0,,,,-0.588824911766985,-2.91156375033064,-0.83305553548972,,0.8554599990486371,,
,7390.0,1137.0,5540.0,1344.0,-187.0,1409.0,3682.0,,,,-0.589081310118145,-2.91157150324687,-0.833274538266222,,0.4508442963822174,,
,7390.0,1140.0,5540.0,1345.0,-182.0,1420.0,3667.0,,,,-0.588659317453999,-2.91149754967837,-0.833161780571476,,0.06322026136657087,,
,7384.0,1138.0,5540.0,1344.0,-175.0,1400.0,3662.0,,,,-0.588404840077128,-2.91148790237039,-0.832925946544599,,-0.298268449585399,,
,7382.0,1138.0,5539.0,1343.0,-175.0,1396.0,3670.0,,,,-0.588416536675862,-2.91142661766113,-0.832978048332457,,-0.6267924958187308,,
,7380.0,1136.0,5540.0,1341.0,-173.0,1415.0,3667.0,,,,-0.588327432959642,-2.91145483560728,-0.833033474764941,,-0.9180655015594533,,
,7380.0,1137.0,5538.0,1344.0,-179.0,1390.0,3713.0,,,,-0.588491732228105,-2.91141413288767,-0.833047802400507,,-1.1703793821110458,,
,7382.0,1139.0,5540.0,1343.0,-185.0,1383.0,3700.0,,,,-0.587933655928964,-2.91131939881191,-0.832568209033323,,-1.3844418026709258,,
,7380.0,1140.0,5538.0,1343.0,-190.0,1389.0,3678.0,,,,-0.587774477780289,-2.91141197945895,-0.832483843792993,,-1.5630281683737475,,
,7381.0,1138.0,5538.0,1341.0,-167.0,1425.0,3681.0,,,,-0.58751557412649,-2.9112840606076,-0.832791089286373,,-1.7104773138521447,,
,7376.0,1141.0,5539.0,1342.0,-183.0,1415.0,3694.0,,,,-0.587786565462537,-2.9111050676026,-0.831948373125529,,-1.8320744152708281,,
,7379.0,1140.0,5541.0,1343.0,-188.0,1419.0,3701.0,,,,-0.587371551502982,-2.91127713568783,-0.831547369386708,,-1.9333751060561994,,
,7380.0,1139.0,5540.0,1344.0,-198.0,1425.0,3685.0,,,,-0.587397035769885,-2.91125177127246,-0.831397763247464,,-2.0195306215166604,,
,7376.0,1141.0,5539.0,1342.0,-179.0,1437.0,3668.0,,,,-0.587546219620478,-2.91119544717584,-0.831305732584556,,-2.094674659503918,,
,7378.0,1139.0,5543.0,1346.0,-178.0,1441.0,3685.0,,,,-0.587012658507522,-2.91120390103949,-0.831455826803309,,-2.1614282496879884,,
,7380.0,1142.0,5543.0,1344.0,-172.0,1444.0,3675.0,,,,-0.587326144133727,-2.91119051916169,-0.831813953146103,,-2.2205691675604022,,
,7378.0,1141.0,5540.0,1345.0,-180.0,1434.0,3665.0,,,,-0.587261931575348,-2.91105652675002,-0.832038228806298,,-2.2708975636022277,,
,7378.0,1138.0,5542.0,1342.0,-187.0,1412.0,3680.0,,,,-0.587145535255776,-2.91120932028061,-0.831655463504704,,-2.30931027727995,,
,7378.0,1141.0,5544.0,1344.0,-190.0,1404.0,3670.0,,,,-0.58702490216763,-2.91104283763499,-0.831761665772266,,-2.3310743768411397,,
,7379.0,1144.0,5545.0,1345.0,-175.0,1393.0,3689.0,,,,-0.586697052962013,-2.91106112282442,-0.830691156273774,,-2.3302686370443815,,
,7379.0,1141.0,5543.0,1343.0,-172.0,1407.0,3695.0,,,,-0.586559751444663,-2.91106051988348,-0.8309471748486,,-2.300343700384514,,
,7377.0,1144.0,5547.0,1344.0,-169.0,1419.0,3721.0,,,,-0.58686598682943,-2.91113907203486,-0.830895999589035,,-2.2347408685716537,,
,7375.0,1141.0,5546.0,1343.0,-180.0,1416.0,3701.0,,,,-0.586560610711397,-2.91106189435424,-0.831026285347309,,-2.127507232007423,,
,7375.0,1144.0,5547.0,1344.0,-186.0,1424.0,3695.0,,,,-0.586512606338071,-2.9110316832903,-0.830021904448717,,-1.97385052716038,,
,7374.0,1144.0,5546.0,1347.0,-182.0,1423.0,3698.0,,,,-0.586485675242092,-2.91112689522577,-0.830893450880862,,-1.7705890870911571,,
,7376.0,1141.0,5547.0,1345.0,-190.0,1418.0,3687.0,,,,-0.586554260321782,-2.91096052238791,-0.831525433257311,,-1.516468698927855,,
,7374.0,1139.0,5547.0,1341.0,-193.0,1422.0,3664.0,,,,-0.586230892610583,-2.91111345212028,-0.831145148655293,,-1.2123369259454182,,
,7372.0,1141.0,5547.0,1343.0,-190.0,1439.0,3658.0,,,,-0.586248867027606,-2.91102490158451,-0.830789230221491,,-0.8611835067618268,,
,7369.0,1143.0,5546.0,1345.0,-196.0,1434.0,3684.0,,,,-0.585855938438907,-2.91096387865022,-0.830174350092869,,-0.46806934400421174,,
,7368.0,1142.0,5547.0,1346.0,-197.0,1435.0,3706.0,,,,-0.585820035624605,-2.91093899453358,-0.830493190325284,,-0.03997354245430593,,
,7368.0,1141.0,5549.0,1343.0,-187.0,1420.0,3699.0,,,,-0.585751489693034,-2.91082012160895,-0.829760427949299,,0.4144131409555237,,
,7367.0,1140.0,5547.0,1342.0,-186.0,1418.0,3693.0,,,,-0.585558729572742,-2.91076588479063,-0.829474136589913,,0.8849282724984904,,
,7370.0,1144.0,5549.0,1346.0,-173.0,1404.0,3666.0,,,,-0.585295651558441,-2.91081650949199,-0.829367132385943,,1.360203420725918,,
,7371.0,1142.0,5550.0,1344.0,-177.0,1401.0,3683.0,,,,-0.585667096818961,-2.91086955637198,-0.829116189344843,,1.8279602360636216,,
,7371.0,1143.0,5551.0,1346.0,-182.0,1405.0,3680.0,,,,-0.585262190707784,-2.91074795422467,-0.829308179358795,,2.2753496984857127,,
,7366.0,1142.0,5551.0,1343.0,-187.0,1421.0,3677.0,,,,-0.584970416871067,-2.91066411777387,-0.82995274921852,,2.689348451913101,,
,7372.0,1142.0,5554.0,1345.0,-175.0,1416.0,3672.0,,,,-0.584991715733706,-2.91071520137693,-0.82947206924585,,3.057220381175708,,
,7374.0,1143.0,5553.0,1346.0,-182.0,1415.0,3696.0,,,,-0.584829149667923,-2.91081247433682,-0.829638760333792,,3.367040665021005,,
,7372.0,1144.0,5555.0,1348.0,-189.0,1421.0,3712.0,,,,-0.584907322883626,-2.91072020137272,-0.82928898066107,,3.608265608542444,,
,7371.0,1145.0,5556.0,1346.0,-183.0,1428.0,3703.0,,,,-0.584982068574891,-2.91071694643857,-0.828958648962044,,3.7723166215111372,,
,7374.0,1143.0,5556.0,1346.0,-170.0,1410.0,3715.0,,,,-0.584729159829891,-2.91047849138383,-0.828734698125312,,3.853132922318632,,
,7375.0,1145.0,5557.0,1345.0,-187.0,1408.0,3694.0,,,,-0.585231201561887,-2.91059895826968,-0.829217720204476,,3.847637581453668,,
,7373.0,1144.0,5559.0,1347.0,-210.0,1402.0,3683.0,,,,-0.585031162782732,-2.9107040152976,-0.829452364541731,,3.75605833423196,,
,7377.0,1147.0,5559.0,1350.0,-193.0,1399.0,3705.0,,,,-0.585375741103554,-2.91073902351966,-0.829715310067371,,3.5820506718002787,,
,7377.0,1145.0,5561.0,1349.0,-178.0,1420.0,3688.0,,,,-0.586116930508677,-2.91098600708207,-0.829550829330809,,3.3325871595268066,,
,7376.0,1144.0,5563.0,1350.0,-183.0,1423.0,3684.0,,,,-0.58663285242462,-2.91110044758254,-0.831231241377056,,3.0176026004546586,,
,7381.0,1146.0,5564.0,1351.0,-198.0,1424.0,3687.0,,,,-0.587182959895612,-2.91111839910021,-0.83163076381543,,2.6494156304495657,,
,7382.0,1147.0,5567.0,1351.0,-206.0,1420.0,3672.0,,,,-0.587762339777364,-2.91121623711107,-0.831783417755831,,2.241977326148284,,
,7382.0,1147.0,5564.0,1351.0,-196.0,1411.0,3666.0,,,,-0.587621219480173,-2.91138532045887,-0.83286664985488,,1.8100197769554431,,
,7383.0,1147.0,5569.0,1349.0,-186.0,1399.0,3700.0,,,,-0.588520548905279,-2.91158393279423,-0.832864292184705,,1.3681878340315095,,
,7388.0,1149.0,5571.0,1352.0,-194.0,1407.0,3709.0,,,,-0.589269441829014,-2.91165098311054,-0.834769588096563,,0.9302344049007173,,
,7390.0,1152.0,5573.0,1352.0,-195.0,1415.0,3697.0,,,,-0.58920328204959,-2.91181625166196,-0.834022178322661,,0.508345712881111,,
,7390.0,1149.0,5574.0,1354.0,-184.0,1410.0,3671.0,,,,-0.589280290074637,-2.91186070227424,-0.834063021102723,,0.11264156268028748,,
,7392.0,1150.0,5574.0,1351.0,-174.0,1424.0,3696.0,,,,-0.589550592895658,-2.91197698114897,-0.83463354758244,,-0.24912895349068012,,
,7393.0,1153.0,5576.0,1353.0,-178.0,1433.0,3699.0,,,,-0.589780373564604,-2.91195291906512,-0.834138027806246,,-0.571699732434527,,
,7398.0,1153.0,5578.0,1354.0,-178.0,1428.0,3709.0,,,,-0.589666181428391,-2.91199791903326,-0.834322817207707,,-0.8522311389392588,,
,7398.0,1154.0,5585.0,1355.0,-180.0,1427.0,3709.0,,,,-0.590068219107583,-2.91190072230083,-0.834057751020366,,-1.0901212490907943,,
,7399.0,1151.0,5582.0,1355.0,-179.0,1414.0,3688.0,,,,-0.589524880797759,-2.91178816807962,-0.834687786973002,,-1.2867269497683167,,
,7401.0,1152.0,5584.0,1357.0,-190.0,1412.0,3678.0,,,,-0.590031796551598,-2.91187203957428,-0.835058286701045,,-1.4450345547065682,,
,7404.0,1155.0,5586.0,1355.0,-179.0,1415.0,3709.0,,,,-0.589999411965443,-2.91165107577877,-0.833989334135324,,-1.5693106641511443,,
,7404.0,1155.0,5584.0,1356.0,-175.0,1405.0,3697.0,,,,-0.589953233496331,-2.91174375942852,-0.834152849718926,,-1.6647518214755872,,
2025-08-06 22:02:59,7406.0,1155.0,5588.0,1359.0,-196.0,1411.0,3670.0,,,2025/08/06 10:02:59 PM,-0.589742770042787,-2.91176760085366,-0.833682055702626,,-1.73714029205448,,
,7408.0,1158.0,5591.0,1356.0,-195.0,1407.0,3669.0,,,,-0.589720998331627,-2.91162252640114,-0.833804789384876,,-1.7925062709006485,,
,7413.0,1157.0,5595.0,1359.0,-205.0,1385.0,3686.0,,,,-0.589555466892688,-2.91160916818624,-0.83323324040859,,-1.836795000771776,,
,7414.0,1159.0,5595.0,1360.0,-189.0,1421.0,3712.0,,,,-0.589276503480244,-2.91167699690134,-0.83374247805564,,-1.8755396165601057,,
,7416.0,1158.0,5595.0,1358.0,-176.0,1425.0,3707.0,,,,-0.589518813398469,-2.91150439309924,-0.833229586685315,,-1.9135452817609016,,
,7417.0,1158.0,5597.0,1359.0,-176.0,1415.0,3692.0,,,,-0.589200043304771,-2.91152852902389,-0.83313689901159,,-1.954595866475577,,
,7420.0,1158.0,5600.0,1360.0,-191.0,1403.0,3678.0,,,,-0.589237488184352,-2.91155295234236,-0.832306370130649,,-2.0011998577551826,,
,7418.0,1159.0,5599.0,1359.0,-183.0,1424.0,3660.0,,,,-0.589055538900594,-2.91150570075191,-0.833287605317118,,-2.0543961911641415,,
,7416.0,1158.0,5599.0,1361.0,-181.0,1431.0,3658.0,,,,-0.588833902843018,-2.91154867588556,-0.833498671089399,,-2.1136419807237505,,
,7410.0,1155.0,5596.0,1359.0,-169.0,1426.0,3676.0,,,,-0.588942068483612,-2.91151050377445,-0.833011080120673,,-2.176801643479732,,
,7403.0,1156.0,5598.0,1357.0,-192.0,1429.0,3682.0,,,,-0.588759110218197,-2.91153458127063,-0.832284239267195,,-2.2402500974204758,,
,7397.0,1154.0,5594.0,1356.0,-202.0,1433.0,3673.0,,,,-0.588816481046638,-2.91155569332514,-0.832533665328779,,-2.2990917780969453,,
,7390.0,1152.0,5592.0,1356.0,-200.0,1421.0,3680.0,,,,-0.589143298961889,-2.91140648375862,-0.83325406870304,,-2.3474836115991464,,
,7379.0,1150.0,5587.0,1352.0,-196.0,1405.0,3700.0,,,,-0.588515747756775,-2.91149250950488,-0.832958456917469,,-2.379036609912744,,
,7367.0,1148.0,5580.0,1351.0,-189.0,1410.0,3710.0,,,,-0.588561807159815,-2.91151628437743,-0.832514790608503,,-2.3872607476207337,,
,7355.0,1146.0,5577.0,1350.0,-167.0,1410.0,3686.0,,,,-0.587830456724613,-2.91136009960152,-0.832464855135158,,-2.3660134637658934,,
,7347.0,1143.0,5571.0,1350.0,-175.0,1431.0,3694.0,,,,-0.587947120999508,-2.91135290379643,-0.831888145190115,,-2.3099136317088282,,
,7337.0,1143.0,5569.0,1347.0,-181.0,1427.0,3679.0,,,,-0.587993797361065,-2.91120805429207,-0.831490714956358,,-2.2146887404402955,,
,7327.0,1141.0,5564.0,1346.0,-187.0,1420.0,3680.0,,,,-0.588044962547595,-2.91127997692295,-0.831872083089909,,-2.0774318215606247,,
,7320.0,1138.0,5560.0,1344.0,-183.0,1437.0,3684.0,,,,-0.588108680784906,-2.91138293293836,-0.831601113234831,,-1.8967555092860473,,
,7315.0,1137.0,5559.0,1343.0,-190.0,1422.0,3701.0,,,,-0.588155079186774,-2.91142672903897,-0.831364744082698,,-1.6728429632301023,,
,7310.0,1136.0,5552.0,1341.0,-177.0,1415.0,3707.0,,,,-0.588321331154327,-2.91148013943212,-0.832231761321139,,-1.4074080288051412,,
,7302.0,1136.0,5550.0,1341.0,-187.0,1380.0,3678.0,,,,-0.588305799838314,-2.91135842417365,-0.831944427780938,,-1.1035877985276594,,
,7298.0,1133.0,5549.0,1338.0,-187.0,1386.0,3682.0,,,,-0.588426578945642,-2.91145009682383,-0.832696744434242,,-0.7657969647355631,,
,7295.0,1134.0,5547.0,1339.0,-182.0,1394.0,3677.0,,,,-0.588320374765907,-2.9114416041123,-0.831511253053686,,-0.3995727846514516,,
,7292.0,1135.0,5544.0,1339.0,-186.0,1409.0,3659.0,,,,-0.588309915664393,-2.91153566327795,-0.832707857065333,,-0.011431612219525052,,
,7290.0,1134.0,5546.0,1338.0,-195.0,1416.0,3669.0,,,,-0.588180008711279,-2.91137937639229,-0.833240747503726,,0.39125509172581363,,
,7285.0,1133.0,5541.0,1338.0,-197.0,1422.0,3684.0,,,,-0.588583514408027,-2.91144079991204,-0.832169495694441,,0.8003713153336292,,
,7284.0,1134.0,5541.0,1338.0,-180.0,1395.0,3653.0,,,,-0.588341055686417,-2.91151930031872,-0.832641182113163,,1.2071701595653292,,
,7278.0,1131.0,5539.0,1338.0,-186.0,1400.0,3668.0,,,,-0.588618285154516,-2.91160151050846,-0.831906505260414,,1.602411790843611,,
,7280.0,1133.0,5540.0,1336.0,-184.0,1415.0,3672.0,,,,-0.588341558557693,-2.91154557838353,-0.831866384016437,,1.97654563898193,,
,7278.0,1133.0,5536.0,1333.0,-171.0,1422.0,3682.0,,,,-0.58827100457685,-2.91152297313641,-0.831634063463358,,2.319950986609646,,
,7274.0,1133.0,5536.0,1334.0,-181.0,1427.0,3681.0,,,,-0.588586384669583,-2.9115032742118,-0.832349918188761,,2.6232410831588253,,
,7275.0,1132.0,5537.0,1335.0,-184.0,1402.0,3677.0,,,,-0.588338312795397,-2.91156552850545,-0.83240172028259,,2.8776249437521324,,
,7274.0,1133.0,5537.0,1333.0,-199.0,1394.0,3692.0,,,,-0.588321920013599,-2.91136900542478,-0.832590699804558,,3.0753095225580362,,
,7273.0,1132.0,5536.0,1335.0,-191.0,1405.0,3686.0,,,,-0.587709942689198,-2.9112936499921,-0.83218159611921,,3.209914697111783,,
,7270.0,1134.0,5535.0,1331.0,-176.0,1423.0,3687.0,,,,-0.587529410813122,-2.91128537595395,-0.83140799115605,,3.2768660095858597,,
,7271.0,1134.0,5538.0,1336.0,-177.0,1419.0,3692.0,,,,-0.587725804883174,-2.91130346044922,-0.831880550692453,,3.273726554595734,,
,7271.0,1133.0,5536.0,1334.0,-194.0,1414.0,3705.0,,,,-0.58767710424605,-2.91124927608745,-0.831568457478587,,3.2004306745986506,,
,7271.0,1134.0,5538.0,1333.0,-188.0,1409.0,3686.0,,,,-0.587540934128643,-2.91110409197057,-0.832380599044309,,3.0593885642975054,,
,7270.0,1132.0,5539.0,1335.0,-173.0,1395.0,3662.0,,,,-0.587782972947347,-2.91106084141064,-0.832409286624873,,2.855441748165266,,
,7270.0,1131.0,5538.0,1334.0,-179.0,1423.0,3662.0,,,,-0.587802097854306,-2.91102999932963,-0.831878770413646,,2.595663038735829,,
,7270.0,1132.0,5535.0,1334.0,-171.0,1429.0,3682.0,,,,-0.587320758517057,-2.91121389868632,-0.831552385240939,,2.289009423259136,,
,7272.0,1133.0,5539.0,1334.0,-171.0,1440.0,3697.0,,,,-0.587226508130158,-2.9110942693991,-0.830987771270496,,1.9458511855908516,,
,7276.0,1134.0,5540.0,1334.0,-169.0,1442.0,3695.0,,,,-0.587376208342177,-2.9110989531003,-0.831171533329546,,1.5774138898894035,,
,7271.0,1133.0,5540.0,1334.0,-181.0,1428.0,3679.0,,,,-0.587050819667124,-2.9111648971595,-0.83145996756747,,1.1951791979812159,,
,7271.0,1135.0,5541.0,1332.0,-183.0,1409.0,3671.0,,,,-0.587239145097256,-2.91133823441396,-0.831415497549919,,0.8102935194169756,,
,7274.0,1134.0,5540.0,1334.0,-183.0,1415.0,3687.0,,,,-0.586809683592255,-2.91099444862862,-0.831482406375593,,0.43302945709277374,,
,7271.0,1134.0,5540.0,1334.0,-192.0,1431.0,3689.0,,,,-0.586825733886762,-2.91101274685634,-0.831240976854577,,0.072335280313354,,
,7269.0,1133.0,5539.0,1331.0,-194.0,1447.0,3686.0,,,,-0.586830779832495,-2.91109071112975,-0.830477060792499,,-0.2645050074859073,,
,7268.0,1132.0,5537.0,1331.0,-182.0,1426.0,3667.0,,,,-0.586559068351913,-2.91101390725255,-0.83175451049503,,-0.5720910051682612,,
,7269.0,1136.0,5541.0,1333.0,-185.0,1414.0,3683.0,,,,-0.58656351184919,-2.91098339789685,-0.830712536585561,,-0.8470046191054523,,
,7268.0,1135.0,5540.0,1333.0,-180.0,1400.0,3682.0,,,,-0.586546199816739,-2.91104917906548,-0.830785361650424,,-1.0877939951902174,,
,7266.0,1134.0,5540.0,1332.0,-183.0,1405.0,3684.0,,,,-0.586763981217302,-2.91095069498316,-0.830959205118193,,-1.2948504431188481,,
,7266.0,1134.0,5539.0,1333.0,-184.0,1440.0,3700.0,,,,-0.586600473996518,-2.91105906842263,-0.830750406500117,,-1.4701859500310277,,
,7264.0,1133.0,5539.0,1332.0,-187.0,1411.0,3681.0,,,,-0.586639911397148,-2.91090347519367,-0.831118269728031,,-1.6171195193256511,,
,7266.0,1134.0,5542.0,1332.0,-175.0,1373.0,3676.0,,,,-0.586756079567978,-2.91098814801633,-0.830812282433367,,-1.7398840448020472,,
,7266.0,1134.0,5541.0,1332.0,-175.0,1371.0,3677.0,,,,-0.586605517658681,-2.91097598734473,-0.830441554877378,,-1.8431717374172574,,
,7262.0,1134.0,5540.0,1331.0,-181.0,1402.0,3680.0,,,,-0.586405373599163,-2.91099860666384,-0.83082967273025,,-1.9316437423241553,,
,7265.0,1135.0,5540.0,1332.0,-170.0,1417.0,3683.0,,,,-0.586286898709252,-2.91086800992844,-0.830798828602596,,-2.009436745213035,,
,7265.0,1136.0,5543.0,1333.0,-190.0,1423.0,3681.0,,,,-0.586437385279808,-2.91086871338383,-0.830891865813518,,-2.0797046956694483,,
,7263.0,1135.0,5543.0,1332.0,-199.0,1424.0,3681.0,,,,-0.58593353637585,-2.91078323327434,-0.830090302550672,,-2.1442361939140993,,
,7264.0,1135.0,5541.0,1333.0,-190.0,1408.0,3711.0,,,,-0.586098402085774,-2.91094892031655,-0.829711900672433,,-2.203186607798533,,
,7263.0,1135.0,5542.0,1332.0,-191.0,1411.0,3698.0,,,,-0.586111787959476,-2.91075148521382,-0.830028261334786,,-2.2549577940314274,,
,7263.0,1135.0,5544.0,1333.0,-186.0,1432.0,3684.0,,,,-0.585814313798994,-2.91087482169913,-0.830251591806314,,-2.296247006879785,,
,7267.0,1135.0,5545.0,1334.0,-184.0,1435.0,3688.0,,,,-0.585821602405429,-2.91081323024927,-0.829998020964022,,-2.322270471887405,,
,7266.0,1136.0,5546.0,1332.0,-179.0,1417.0,3687.0,,,,-0.58590485160558,-2.91088398375375,-0.829295702015268,,-2.327147438395146,,
,7264.0,1134.0,5543.0,1332.0,-186.0,1405.0,3677.0,,,,-0.585491572072718,-2.91078858583156,-0.830136345429027,,-2.30440995691575,,
,7268.0,1137.0,5546.0,1333.0,-185.0,1404.0,3705.0,,,,-0.585478590431947,-2.91071659608896,-0.830060012771416,,-2.24758618522369,,
,7268.0,1137.0,5547.0,1333.0,-178.0,1408.0,3702.0,,,,-0.585820232447636,-2.91088327068357,-0.829788155179479,,-2.150794934642817,,
,7268.0,1136.0,5549.0,1333.0,-194.0,1415.0,3692.0,,,,-0.586523660603984,-2.91093990631754,-0.830295152435668,,-2.0092889725956673,,
,7271.0,1135.0,5547.0,1334.0,-194.0,1429.0,3686.0,,,,-0.587014051591161,-2.91105065613001,-0.830789999900409,,-1.8198942060860732,,
,7274.0,1134.0,5548.0,1332.0,-185.0,1418.0,3701.0,,,,-0.587692709638744,-2.91118183713897,-0.831516902875474,,-1.5813091501848395,,
,7275.0,1138.0,5552.0,1334.0,-187.0,1425.0,3683.0,,,,-0.58793104981335,-2.9114572693433,-0.831656569411729,,-1.2942508629279543,,
,7279.0,1141.0,5553.0,1337.0,-182.0,1415.0,3693.0,,,,-0.588710608385025,-2.91152908219503,-0.832399636380211,,-0.9614559452407082,,
,7278.0,1140.0,5553.0,1335.0,-186.0,1413.0,3699.0,,,,-0.589395213099052,-2.91158016633031,-0.833683303520513,,-0.5875639337492696,,
,7277.0,1138.0,5555.0,1335.0,-181.0,1411.0,3680.0,,,,-0.590167116383959,-2.91185994131799,-0.833258473696212,,-0.17892158078419096,,
,7282.0,1139.0,5555.0,1334.0,-168.0,1425.0,3696.0,,,,-0.590482414254971,-2.9119622711386,-0.834560331728512,,0.25665199544390566,,
,7282.0,1140.0,5559.0,1337.0,-176.0,1404.0,3690.0,,,,-0.590358342696858,-2.91178596409044,-0.835604669118573,,0.7101071707821708,,
,7286.0,1141.0,5558.0,1338.0,-183.0,1384.0,3691.0,,,,-0.590814863908527,-2.9119998113198,-0.835500727897242,,1.1713952699558157,,
,7284.0,1141.0,5559.0,1333.0,-168.0,1390.0,3678.0,,,,-0.590869590854525,-2.91191767864041,-0.834582890222818,,1.629689694630586,,
,7288.0,1140.0,5562.0,1336.0,-178.0,1426.0,3696.0,,,,-0.591070959300799,-2.91199181844285,-0.834944261400674,,2.0736122389980576,,
,7292.0,1142.0,5563.0,1338.0,-174.0,1427.0,3709.0,,,,-0.590909064446562,-2.91209727152246,-0.834121770006305,,2.491489065154545,,
,7295.0,1143.0,5565.0,1338.0,-179.0,1413.0,3709.0,,,,-0.590626238096924,-2.91187611494189,-0.834425449519084,,2.87166086513763,,
,7295.0,1143.0,5566.0,1339.0,-174.0,1402.0,3696.0,,,,-0.590824041075626,-2.9119179087154,-0.834857950589862,,3.202863249203155,,
,7296.0,1142.0,5569.0,1338.0,-177.0,1417.0,3682.0,,,,-0.590662413861598,-2.91181274425813,-0.835025709008999,,3.4746788213703645,,
,7298.0,1146.0,5569.0,1340.0,-182.0,1410.0,3677.0,,,,-0.590433206360306,-2.9117316678182,-0.834745674392385,,3.678044836672997,,
,7300.0,1146.0,5572.0,1340.0,-175.0,1424.0,3679.0,,,,-0.590467687373258,-2.91195214043762,-0.833662561516476,,3.805782649747508,,
,7306.0,1143.0,5572.0,1341.0,-174.0,1432.0,3691.0,,,,-0.590573293533373,-2.91187139138236,-0.83433307264244,,3.8531000443281695,,
,7304.0,1144.0,5573.0,1340.0,-182.0,1440.0,3670.0,,,,-0.590486201656153,-2.91175464552071,-0.834588579525042,,3.818007787664515,,
,7307.0,1146.0,5573.0,1341.0,-185.0,1438.0,3674.0,,,,-0.589962336053478,-2.91175613999782,-0.833645727583748,,3.7015901832408744,,
,7310.0,1149.0,5578.0,1342.0,-192.0,1428.0,3686.0,,,,-0.590271223156993,-2.9117575861603,-0.833991542862754,,3.508078138014363,,
,7313.0,1148.0,5580.0,1342.0,-191.0,1427.0,3680.0,,,,-0.590004323288401,-2.91177224626762,-0.833059512432079,,3.244692918020927,,
,7316.0,1146.0,5579.0,1343.0,-175.0,1423.0,3680.0,,,,-0.590446626236578,-2.91177137783878,-0.833621688323943,,2.921257471308439,,
,7317.0,1150.0,5581.0,1342.0,-167.0,1423.0,3691.0,,,,-0.589986510128603,-2.91172591993256,-0.834822367476227,,2.549604996161423,,
,7318.0,1150.0,5584.0,1345.0,-170.0,1421.0,3671.0,,,,-0.590210335419494,-2.91178620870778,-0.833163767778417,,2.1428440009761798,,
,7321.0,1149.0,5584.0,1343.0,-176.0,1404.0,3693.0,,,,-0.590034635023769,-2.91174074693462,-0.833399141748481,,1.714558319468413,,
,7321.0,1151.0,5585.0,1344.0,-179.0,1414.0,3687.0,,,,-0.590089345041665,-2.91176983534445,-0.833747980807714,,1.2780254713765118,,
,7319.0,1148.0,5586.0,1340.0,-176.0,1440.0,3691.0,,,,-0.589687234436275,-2.91176443374663,-0.833721869374926,,0.8455277876610623,,
,7318.0,1148.0,5585.0,1340.0,-171.0,1443.0,3696.0,,,,-0.589864079499886,-2.91164071186008,-0.833096029254839,,0.42781144635489493,,
,7312.0,1149.0,5584.0,1342.0,-177.0,1426.0,3687.0,,,,-0.589479184127451,-2.91162981970531,-0.832655286829608,,0.03372379451866994,,
,7307.0,1147.0,5583.0,1341.0,-183.0,1423.0,3672.0,,,,-0.589096427460734,-2.91153955730828,-0.833466809548388,,-0.3299663445838929,,
,7298.0,1145.0,5578.0,1339.0,-214.0,1423.0,3698.0,,,,-0.589066850040072,-2.9115638954916,-0.832806964014779,,-0.658583398548071,,
,7288.0,1142.0,5574.0,1338.0,-191.0,1410.0,3685.0,,,,-0.589057370914329,-2.91170329959916,-0.832983786298483,,-0.9494295715205608,,
,7278.0,1140.0,5570.0,1337.0,-191.0,1396.0,3687.0,,,,-0.589034268314246,-2.91159256694198,-0.832167311468498,,-1.2015827014707168,,
,7270.0,1138.0,5566.0,1333.0,-185.0,1436.0,3706.0,,,,-0.589012134478028,-2.9115977217222,-0.832210494761594,,-1.4156509871449434,,
,7262.0,1136.0,5561.0,1333.0,-178.0,1441.0,3692.0,,,,-0.588556440667846,-2.91154500521324,-0.83238960026407,,-1.5935199784841256,,
,7250.0,1135.0,5557.0,1330.0,-168.0,1438.0,3679.0,,,,-0.588625596614059,-2.91150449860024,-0.831865066877553,,-1.7381132173122242,,
,7242.0,1132.0,5553.0,1329.0,-172.0,1408.0,3673.0,,,,-0.588289245373427,-2.91138868079444,-0.832434104521108,,-1.8531720472949338,,
,7236.0,1131.0,5548.0,1327.0,-171.0,1395.0,3697.0,,,,-0.588750087824558,-2.91159255580982,-0.833183270717121,,-1.9430470951647978,,
,7231.0,1131.0,5544.0,1327.0,-164.0,1401.0,3693.0,,,,-0.588947094994445,-2.91156194649927,-0.832415829741219,,-2.01248717015855,,
,7224.0,1129.0,5541.0,1323.0,-170.0,1418.0,3694.0,,,,-0.58943290086112,-2.91172071091366,-0.832813666847631,,-2.0664115275224533,,
,7217.0,1127.0,5538.0,1322.0,-155.0,1409.0,3673.0,,,,-0.589185236125044,-2.91175393789652,-0.833210059498458,,-2.109657015488996,,
,7211.0,1128.0,5535.0,1322.0,-175.0,1408.0,3678.0,,,,-0.58936568275184,-2.91173774781226,-0.832772471226417,,-2.1467002736106098,,
,7208.0,1127.0,5534.0,1320.0,-198.0,1409.0,3674.0,,,,-0.589390600088156,-2.91166172026331,-0.833757304510399,,-2.1813649182015267,,
,7205.0,1128.0,5533.0,1320.0,-197.0,1407.0,3678.0,,,,-0.589680843381587,-2.91175369448989,-0.832811802454515,,-2.2165329870756794,,
,7202.0,1124.0,5527.0,1318.0,-194.0,1421.0,3698.0,,,,-0.589246614071708,-2.91164437026641,-0.833612123239332,,-2.253887319696496,,
,7202.0,1124.0,5527.0,1318.0,-186.0,1437.0,3695.0,,,,-0.589370896556473,-2.91167594319478,-0.833308481823872,,-2.2937154717489268,,
,7198.0,1124.0,5525.0,1316.0,-190.0,1433.0,3667.0,,,,-0.589307358486061,-2.91154231827999,-0.83273412389277,,-2.3348048914309483,,
,7196.0,1125.0,5523.0,1317.0,-185.0,1426.0,3657.0,,,,-0.589110257308663,-2.91167113682625,-0.832869269358136,,-2.3744527195741476,,
,7193.0,1125.0,5522.0,1315.0,-189.0,1396.0,3678.0,,,,-0.588907048820804,-2.91161272071174,-0.83212074927261,,-2.408601950570674,,
,7195.0,1121.0,5524.0,1315.0,-186.0,1398.0,3684.0,,,,-0.589534794511532,-2.91172853301956,-0.832881147646047,,-2.432100285491321,,
,7194.0,1125.0,5523.0,1319.0,-183.0,1409.0,3709.0,,,,-0.589129775170501,-2.91184904935498,-0.833640811397573,,-2.4390616738394724,,
,7192.0,1125.0,5521.0,1316.0,-197.0,1414.0,3688.0,,,,-0.589124534692626,-2.91172664044722,-0.833059873284075,,-2.4232968892750186,,
,7191.0,1124.0,5518.0,1316.0,-194.0,1401.0,3692.0,,,,-0.58903427423048,-2.91158015773889,-0.832761798477336,,-2.37877144239167,,
,7190.0,1122.0,5520.0,1312.0,-192.0,1407.0,3676.0,,,,-0.58897280856205,-2.91163713632334,-0.83338590944893,,-2.3000476701562618,,
,7189.0,1124.0,5522.0,1315.0,-200.0,1417.0,3680.0,,,,-0.588893892657971,-2.91156373635365,-0.833061113504644,,-2.182672105817092,,
,7192.0,1125.0,5520.0,1314.0,-191.0,1421.0,3700.0,,,,-0.589235887883164,-2.9116529602547,-0.832829014580255,,-2.0234778444775463,,
2025-08-06 22:03:00,7190.0,1123.0,5521.0,1314.0,-181.0,1416.0,3693.0,,,2025/08/06 10:03:00 PM,-0.589135920804831,-2.91161571448843,-0.832488336314303,,-1.8207835862013604,,
,7190.0,1124.0,5520.0,1312.0,-211.0,1440.0,3686.0,,,,-0.589043410347194,-2.91161680087375,-0.832830334266847,,-1.574485421926357,,
,7192.0,1125.0,5521.0,1312.0,-180.0,1438.0,3688.0,,,,-0.588585924672472,-2.91151109938435,-0.832217357416605,,-1.286052442136028,,
,7193.0,1126.0,5520.0,1312.0,-182.0,1420.0,3680.0,,,,-0.588643618750312,-2.91145994147128,-0.832342595089706,,-0.9584499756895768,,
,7193.0,1126.0,5523.0,1312.0,-171.0,1423.0,3695.0,,,,-0.588648895737993,-2.91150295763569,-0.831624182082883,,-0.5960214143161044,,
,7194.0,1127.0,5522.0,1315.0,-182.0,1432.0,3702.0,,,,-0.58858613159117,-2.91155104102449,-0.832723698279328,,-0.2043588242198502,,
,7194.0,1125.0,5521.0,1313.0,-183.0,1414.0,3713.0,,,,-0.588273339256208,-2.91166175102253,-0.832794278480558,,0.20981630371308752,,
,7197.0,1125.0,5526.0,1313.0,-177.0,1403.0,3686.0,,,,-0.588248994078767,-2.91163904530481,-0.832015214618147,,0.6387553711239017,,
,7197.0,1128.0,5522.0,1315.0,-183.0,1408.0,3667.0,,,,-0.588354984063598,-2.91147839034845,-0.832396765590886,,1.07377711578295,,
,7193.0,1127.0,5521.0,1313.0,-184.0,1412.0,3669.0,,,,-0.588452179745498,-2.91138068986766,-0.830909385297524,,1.5053755998409364,,
,7196.0,1125.0,5521.0,1312.0,-182.0,1428.0,3677.0,,,,-0.588438978664164,-2.91140225303453,-0.832443459628547,,1.923368842904359,,
,7189.0,1124.0,5522.0,1313.0,-183.0,1431.0,3716.0,,,,-0.588443911988981,-2.91129170116847,-0.832361822584817,,2.3171135507455913,,
,7191.0,1124.0,5521.0,1311.0,-179.0,1418.0,3690.0,,,,-0.588691795638337,-2.91143413304173,-0.832229369165726,,2.6758036111685826,,
,7193.0,1128.0,5521.0,1313.0,-186.0,1403.0,3693.0,,,,-0.58827828251487,-2.91144421312848,-0.832440015588395,,2.9888578700118544,,
,7193.0,1124.0,5521.0,1312.0,-178.0,1401.0,3660.0,,,,-0.587902629384374,-2.91145354031348,-0.832322454800159,,3.246387793123273,,
,7191.0,1125.0,5518.0,1308.0,-172.0,1401.0,3672.0,,,,-0.588483893191902,-2.91135005798463,-0.832745068637185,,3.43971966949481,,
,7189.0,1126.0,5520.0,1311.0,-166.0,1431.0,3669.0,,,,-0.587974569371353,-2.91135281328558,-0.832149445016367,,3.5619311444425676,,
,7192.0,1126.0,5522.0,1311.0,-175.0,1420.0,3699.0,,,,-0.588265827139959,-2.91133968093927,-0.831928020800581,,3.608350564342638,,
,7192.0,1127.0,5521.0,1313.0,-179.0,1431.0,3690.0,,,,-0.587993137225123,-2.91139214891486,-0.831873207701348,,3.5769622884268815,,
,7188.0,1127.0,5517.0,1310.0,-186.0,1420.0,3675.0,,,,-0.58804868203352,-2.91138504964908,-0.831665154002244,,3.4686637420398814,,
,7189.0,1126.0,5519.0,1309.0,-183.0,1413.0,3687.0,,,,-0.587331352381635,-2.91139845597906,-0.831752023857647,,3.2873315856520664,,
,7190.0,1129.0,5522.0,1312.0,-197.0,1414.0,3662.0,,,,-0.58748105049895,-2.91124940210956,-0.831498644520315,,3.039674349031214,,
,7191.0,1125.0,5523.0,1311.0,-191.0,1427.0,3664.0,,,,-0.587380618055394,-2.91116303518719,-0.829968249470083,,2.7348744176123545,,
,7189.0,1128.0,5520.0,1311.0,-183.0,1426.0,3664.0,,,,-0.586988623815794,-2.91109294566552,-0.831882966750379,,2.3840487073721235,,
,7186.0,1125.0,5519.0,1311.0,-176.0,1421.0,3671.0,,,,-0.586943458598675,-2.91109226683953,-0.831171314362545,,1.9995796061684685,,
,7190.0,1127.0,5525.0,1310.0,-169.0,1407.0,3682.0,,,,-0.587146513260376,-2.91114863609232,-0.831479601219456,,1.5943817349606144,,
,7194.0,1128.0,5524.0,1310.0,-176.0,1433.0,3691.0,,,,-0.586878586491748,-2.91114607467327,-0.83065954255728,,1.1811737583718345,,
,7192.0,1126.0,5524.0,1310.0,-179.0,1434.0,3679.0,,,,-0.587065905859305,-2.91113498291574,-0.830885632943169,,0.771818114052776,,
,7193.0,1124.0,5523.0,1309.0,-190.0,1411.0,3690.0,,,,-0.58691277878515,-2.91120720085755,-0.831434671845791,,0.37677734186602846,,
,7195.0,1128.0,5525.0,1309.0,-174.0,1421.0,3684.0,,,,-0.586985597426928,-2.91098686124368,-0.831023333093383,,0.0047170278054449975,,
,7198.0,1127.0,5524.0,1310.0,-176.0,1398.0,3683.0,,,,-0.5870526441614,-2.91091195937892,-0.831125231546965,,-0.33773415121991285,,
,7197.0,1128.0,5528.0,1311.0,-187.0,1401.0,3675.0,,,,-0.587580128002118,-2.91121487400373,-0.832074614005842,,-0.6460739690527447,,
,7198.0,1129.0,5526.0,1309.0,-167.0,1433.0,3692.0,,,,-0.588096582142227,-2.91142630813494,-0.832345685253308,,-0.9178848456345281,,
,7200.0,1130.0,5528.0,1309.0,-188.0,1443.0,3687.0,,,,-0.589006369150458,-2.91155376069353,-0.833820973334515,,-1.1526859035298527,,
,7200.0,1130.0,5533.0,1308.0,-176.0,1431.0,3697.0,,,,-0.58959856713149,-2.91165334372218,-0.833271478733373,,-1.3517038448157912,,
,7203.0,1131.0,5530.0,1311.0,-181.0,1443.0,3699.0,,,,-0.58966604614775,-2.91177378166026,-0.83399851359152,,-1.517582567738866,,
,7205.0,1132.0,5533.0,1310.0,-189.0,1439.0,3693.0,,,,-0.590278548301253,-2.91181594426328,-0.835041539935295,,-1.654044887332048,,
,7207.0,1131.0,5531.0,1313.0,-185.0,1448.0,3685.0,,,,-0.590978871962585,-2.91189868257206,-0.83501117933857,,-1.76551532234273,,
,7209.0,1128.0,5534.0,1311.0,-183.0,1430.0,3687.0,,,,-0.592159407499558,-2.91214268552171,-0.835218769104373,,-1.8567128347201445,,
,7212.0,1132.0,5534.0,1312.0,-183.0,1425.0,3679.0,,,,-0.592324381823782,-2.91231977205146,-0.836259894987213,,-1.9322264386105459,,
,7215.0,1133.0,5537.0,1315.0,-180.0,1430.0,3663.0,,,,-0.592869290779179,-2.91234772115881,-0.835838829281426,,-1.9960928629301269,,
,7213.0,1133.0,5537.0,1313.0,-176.0,1408.0,3675.0,,,,-0.592633890176325,-2.91252251766563,-0.836654524608961,,-2.0514018220849355,,
,7218.0,1133.0,5535.0,1313.0,-191.0,1415.0,3682.0,,,,-0.592617017985145,-2.91253330255841,-0.836333071164399,,-2.09995929984324,,
,7221.0,1134.0,5540.0,1315.0,-194.0,1436.0,3708.0,,,,-0.593133710917216,-2.91245392704614,-0.836878213088769,,-2.1420413911650162,,
,7220.0,1135.0,5538.0,1315.0,-191.0,1436.0,3704.0,,,,-0.593554515908703,-2.91244328100667,-0.837187149100409,,-2.1762696552624625,,
,7226.0,1137.0,5544.0,1314.0,-183.0,1430.0,3707.0,,,,-0.593329110162035,-2.9124784955482,-0.837718053263737,,-2.1996328282442885,,
,7225.0,1134.0,5545.0,1313.0,-181.0,1420.0,3701.0,,,,-0.592953673573206,-2.91248049019867,-0.83655490832632,,-2.207668832599752,,
,7226.0,1136.0,5545.0,1314.0,-181.0,1429.0,3675.0,,,,-0.592974635593565,-2.9124549177773,-0.836569025322094,,-2.1948056469129567,,
,7231.0,1138.0,5548.0,1317.0,-169.0,1418.0,3682.0,,,,-0.592957753874281,-2.91239829908121,-0.837259325049159,,-2.1548409443415464,,
,7233.0,1138.0,5548.0,1319.0,-165.0,1413.0,3680.0,,,,-0.592687329226479,-2.91241770790183,-0.836823585038384,,-2.0815209488353226,,
,7237.0,1139.0,5550.0,1318.0,-161.0,1410.0,3670.0,,,,-0.592940752044749,-2.91247168936726,-0.835834653346777,,-1.9691626377328828,,
,7241.0,1138.0,5553.0,1315.0,-180.0,1409.0,3695.0,,,,-0.592692660097835,-2.9123286714078,-0.8362276673763,,-1.8132546656796797,,
,7242.0,1140.0,5555.0,1319.0,-163.0,1427.0,3684.0,,,,-0.592521153903849,-2.91226823506735,-0.835777518919811,,-1.610974139131946,,
,7246.0,1144.0,5557.0,1318.0,-168.0,1442.0,3674.0,,,,-0.59228949606791,-2.91229710239571,-0.835540065682154,,-1.3615685701715998,,
,7247.0,1140.0,5557.0,1318.0,-162.0,1446.0,3685.0,,,,-0.591878482182282,-2.91234796685053,-0.835137974621542,,-1.066572018764378,,
,7248.0,1140.0,5556.0,1318.0,-169.0,1452.0,3730.0,,,,-0.59199455907202,-2.91219130767029,-0.835416998610518,,-0.7298471369038447,,
,7249.0,1140.0,5557.0,1320.0,-187.0,1442.0,3693.0,,,,-0.592113946194769,-2.91223755121598,-0.835022205904547,,-0.3574661053595502,,
,7251.0,1141.0,5560.0,1318.0,-215.0,1446.0,3677.0,,,,-0.591858015398982,-2.91221642917101,-0.835606572183997,,0.042540264809889664,,
,7246.0,1140.0,5557.0,1319.0,-201.0,1432.0,3674.0,,,,-0.59181977268686,-2.91224882408914,-0.835466294094809,,0.46052695825595763,,
,7244.0,1138.0,5557.0,1318.0,-180.0,1431.0,3676.0,,,,-0.592043343465235,-2.91225335232597,-0.83518813926508,,0.8856332719423089,,
,7235.0,1136.0,5555.0,1315.0,-180.0,1415.0,3677.0,,,,-0.592249572538482,-2.91223081345572,-0.835415266996792,,1.3062018872281804,,
,7230.0,1136.0,5555.0,1315.0,-192.0,1419.0,3702.0,,,,-0.591959516953848,-2.912344514971,-0.83531949107128,,1.710195928745392,,
,7222.0,1134.0,5553.0,1313.0,-190.0,1412.0,3705.0,,,,-0.591871237286092,-2.91220316307652,-0.835390933944326,,2.085604787957519,,
,7213.0,1133.0,5546.0,1310.0,-186.0,1415.0,3699.0,,,,-0.591590700882329,-2.91222520374466,-0.834809173435148,,2.420841816703193,,
,7203.0,1129.0,5540.0,1306.0,-192.0,1425.0,3683.0,,,,-0.591696440307811,-2.91212952271367,-0.835143965790316,,2.7051444714726935,,
,7193.0,1130.0,5537.0,1307.0,-188.0,1433.0,3686.0,,,,-0.59133379877877,-2.91208169136229,-0.834785437308896,,2.9289871449304243,,
,7187.0,1130.0,5530.0,1306.0,-179.0,1430.0,3674.0,,,,-0.591568169258866,-2.91212124823291,-0.835305758735015,,3.0845082838037476,,
,7179.0,1127.0,5526.0,1302.0,-170.0,1439.0,3666.0,,,,-0.591987518242759,-2.91219513236977,-0.835938730840525,,3.165938879105153,,
,7170.0,1124.0,5521.0,1301.0,-170.0,1437.0,3650.0,,,,-0.591838250269788,-2.91223549767125,-0.835481962284345,,3.170003137087847,,
,7165.0,1121.0,5518.0,1298.0,-189.0,1419.0,3657.0,,,,-0.591847119057767,-2.91229749795253,-0.835996710395902,,3.0962483164512125,,
,7160.0,1122.0,5516.0,1297.0,-189.0,1421.0,3668.0,,,,-0.59187882853819,-2.91225902742847,-0.835104701967933,,2.947252856176704,,
,7154.0,1122.0,5513.0,1296.0,-183.0,1418.0,3674.0,,,,-0.592113973169811,-2.91243199679643,-0.835537653127828,,2.7286627256931597,,
,7151.0,1121.0,5508.0,1296.0,-209.0,1409.0,3686.0,,,,-0.592055699625181,-2.91230979414441,-0.836207925438292,,2.4490171004439394,,
,7145.0,1118.0,5505.0,1292.0,-191.0,1411.0,3682.0,,,,-0.591946482597226,-2.91236941950945,-0.835739799365975,,2.1193458703386043,,
,7143.0,1119.0,5504.0,1293.0,-195.0,1419.0,3659.0,,,,-0.592621801478256,-2.91230292658282,-0.836233719281707,,1.7525503609171436,,
,7142.0,1121.0,5503.0,1291.0,-190.0,1423.0,3672.0,,,,-0.592189788268486,-2.91241222147563,-0.835917858819857,,1.3626098165458056,,
,7139.0,1118.0,5501.0,1291.0,-181.0,1415.0,3660.0,,,,-0.592015256756607,-2.91234055699403,-0.835628907005082,,0.9636834999773335,,
,7135.0,1116.0,5497.0,1291.0,-162.0,1415.0,3681.0,,,,-0.592253681623809,-2.91225345878037,-0.836202600047953,,0.5691962504384976,,
,7138.0,1117.0,5499.0,1288.0,-182.0,1402.0,3691.0,,,,-0.59223957202525,-2.91219489976935,-0.835575405701533,,0.19100046248600736,,
,7138.0,1118.0,5497.0,1289.0,-174.0,1412.0,3678.0,,,,-0.591809360151711,-2.91227576365151,-0.835467652958662,,-0.16130123130381657,,
,7133.0,1117.0,5497.0,1288.0,-171.0,1411.0,3667.0,,,,-0.591903916637923,-2.91235787631206,-0.835656350589318,,-0.48080879364851586,,
,7135.0,1118.0,5496.0,1287.0,-182.0,1434.0,3666.0,,,,-0.591655340946819,-2.91215456305786,-0.834732522477792,,-0.763517391202544,,
,7134.0,1116.0,5493.0,1285.0,-182.0,1415.0,3668.0,,,,-0.591924629321855,-2.91225626386085,-0.835654942592981,,-1.008244506685199,,
,7133.0,1118.0,5496.0,1287.0,-175.0,1397.0,3690.0,,,,-0.592165233007514,-2.91226219043974,-0.836190186995862,,-1.2163147632383535,,
,7135.0,1120.0,5498.0,1286.0,-209.0,1419.0,3677.0,,,,-0.591928225777807,-2.91213240120699,-0.835619906121169,,-1.3910491303332597,,
,7136.0,1117.0,5495.0,1286.0,-205.0,1432.0,3681.0,,,,-0.591663321502049,-2.91218434274561,-0.835699038478769,,-1.537121827291938,,
,7137.0,1118.0,5495.0,1286.0,-193.0,1437.0,3680.0,,,,-0.59159737840018,-2.91216111070021,-0.835811365241247,,-1.6598571043466115,,
,7137.0,1117.0,5497.0,1286.0,-176.0,1445.0,3686.0,,,,-0.59147027465095,-2.91201433544101,-0.83542683990278,,-1.7645388394792398,,
,7140.0,1118.0,5496.0,1287.0,-184.0,1425.0,3673.0,,,,-0.591620933190112,-2.91214734841026,-0.834157426600646,,-1.855798883748533,,
,7141.0,1121.0,5498.0,1285.0,-196.0,1415.0,3676.0,,,,-0.591467757690614,-2.91225069550814,-0.834867863658458,,-1.9371362936022938,,
,7140.0,1121.0,5496.0,1287.0,-191.0,1420.0,3672.0,,,,-0.59145709597563,-2.91203536796601,-0.835325394182155,,-2.0106006447105536,,
,7141.0,1120.0,5496.0,1286.0,-162.0,1428.0,3654.0,,,,-0.591334560696523,-2.91211931666987,-0.835293838990384,,-2.0766511081140546,,
,7144.0,1122.0,5499.0,1288.0,-198.0,1427.0,3687.0,,,,-0.591347830683663,-2.9121177045388,-0.835156238664727,,-2.1341824657109907,,
,7146.0,1123.0,5500.0,1287.0,-191.0,1423.0,3680.0,,,,-0.591284381535478,-2.9121020794208,-0.835533027569025,,-2.1806934077979556,,
,7147.0,1121.0,5500.0,1286.0,-195.0,1423.0,3685.0,,,,-0.591023106558015,-2.91211892970411,-0.8345854404662,,-2.212563408424177,,
,7148.0,1122.0,5499.0,1285.0,-188.0,1434.0,3679.0,,,,-0.591026248287647,-2.91190653950626,-0.835594901995853,,-2.2254018968376665,,
,7145.0,1121.0,5503.0,1284.0,-189.0,1414.0,3689.0,,,,-0.590855893533515,-2.91195404163424,-0.835760434332907,,-2.2144353088833597,,
,7146.0,1123.0,5500.0,1287.0,-178.0,1410.0,3675.0,,,,-0.591115962007113,-2.91201738723148,-0.83421417046866,,-2.1749017535149777,,
,7148.0,1124.0,5500.0,1284.0,-179.0,1416.0,3689.0,,,,-0.590842047224731,-2.91201714986686,-0.834497516461167,,-2.1024281476539732,,
,7146.0,1122.0,5501.0,1285.0,-187.0,1449.0,3706.0,,,,-0.590446813980765,-2.91195585430875,-0.834728710785704,,-1.9933701619024102,,
,7148.0,1121.0,5502.0,1284.0,-187.0,1417.0,3690.0,,,,-0.590561928057607,-2.91190599679328,-0.834342331303615,,-1.8451008366847774,,
,7150.0,1122.0,5503.0,1284.0,-182.0,1412.0,3692.0,,,,-0.590645136036445,-2.91183078117332,-0.835019208472846,,-1.6562390108540161,,
,7152.0,1122.0,5501.0,1287.0,-179.0,1418.0,3694.0,,,,-0.590545028337732,-2.91186486017836,-0.834326447678243,,-1.4268134921327607,,
,7148.0,1125.0,5502.0,1286.0,7.0,1384.0,3727.0,,,,-0.590202522538137,-2.91196748656979,-0.834361200610195,,-1.1583626535706573,,
,7150.0,1121.0,5503.0,1284.0,-262.0,1401.0,3687.0,,,,-0.589841745264175,-2.9119114813575,-0.833896319771855,,-0.8539710549919646,,
,7147.0,1123.0,5502.0,1283.0,-243.0,1441.0,3691.0,,,,-0.59007058897175,-2.91176490995968,-0.83429685881637,,-0.5182444752544783,,
,7150.0,1124.0,5503.0,1286.0,-166.0,1451.0,3695.0,,,,-0.589741887829083,-2.91180163796824,-0.834387126566004,,-0.1572234477033734,,
,7151.0,1125.0,5505.0,1284.0,-184.0,1462.0,3691.0,,,,-0.589762777969967,-2.91179960399926,-0.834082423356393,,0.22176505684589237,,
,7151.0,1126.0,5504.0,1282.0,-194.0,1472.0,3680.0,,,,-0.589395530793136,-2.91171086670987,-0.834360445222834,,0.610316499577198,,
,7153.0,1123.0,5504.0,1283.0,-174.0,1419.0,3663.0,,,,-0.589246805319352,-2.91173966729434,-0.833036712616679,,0.9992134762369357,,
,7153.0,1127.0,5508.0,1284.0,-199.0,1417.0,3677.0,,,,-0.589345282148313,-2.91186214262502,-0.833786763552483,,1.3787376462091556,,
,7153.0,1128.0,5508.0,1285.0,-202.0,1416.0,3680.0,,,,-0.589587895286423,-2.91164633183279,-0.833421762830761,,1.7390169064220855,,
,7153.0,1125.0,5506.0,1283.0,-186.0,1413.0,3679.0,,,,-0.589159188394926,-2.91152589203268,-0.833515733600777,,2.0703931607848816,,
,7153.0,1126.0,5506.0,1284.0,-200.0,1412.0,3667.0,,,,-0.58884454655483,-2.91159700232872,-0.833358427202286,,2.3637939911237975,,
,7158.0,1127.0,5508.0,1282.0,-202.0,1428.0,3670.0,,,,-0.588949543157301,-2.91154261068978,-0.834084913134284,,2.611090285453667,,
,7160.0,1125.0,5509.0,1285.0,-192.0,1430.0,3683.0,,,,-0.588617731046446,-2.91167815316167,-0.832955992419003,,2.8054218022346578,,
,7158.0,1127.0,5510.0,1285.0,-187.0,1439.0,3685.0,,,,-0.588522391542675,-2.91142196641993,-0.833052186219654,,2.9414740120565246,,
,7162.0,1127.0,5508.0,1281.0,-183.0,1423.0,3674.0,,,,-0.58835244125736,-2.91156651536322,-0.833122715371151,,3.015692391106867,,
,7165.0,1127.0,5512.0,1284.0,-188.0,1408.0,3667.0,,,,-0.588948857738623,-2.91155579351711,-0.832794530316732,,3.02642438688726,,
,7168.0,1128.0,5515.0,1285.0,-181.0,1421.0,3678.0,,,,-0.589324775176567,-2.91168937550796,-0.83289114267947,,2.973983787893678,,
,7168.0,1129.0,5514.0,1283.0,-184.0,1425.0,3687.0,,,,-0.589728269156556,-2.91184016210492,-0.8335429397325,,2.8606360300630365,,
,7172.0,1130.0,5514.0,1283.0,-177.0,1430.0,3684.0,,,,-0.589970840757028,-2.9119553296071,-0.834382015705809,,2.690505281230205,,
,7175.0,1130.0,5516.0,1283.0,-176.0,1407.0,3708.0,,,,-0.590752153821295,-2.91202417693126,-0.835299352125523,,2.4694054589666004,,
,7175.0,1131.0,5517.0,1286.0,-182.0,1393.0,3676.0,,,,-0.5915230679759,-2.91232000504092,-0.834449485464284,,2.2045991555008633,,
,7179.0,1132.0,5520.0,1287.0,-193.0,1394.0,3671.0,,,,-0.591775518298434,-2.91229476070522,-0.835716446663128,,1.9044919041521005,,
,7180.0,1130.0,5521.0,1285.0,-206.0,1397.0,3673.0,,,,-0.592522779313734,-2.91238174752248,-0.836332515480106,,1.5782740506952084,,
,7183.0,1131.0,5521.0,1285.0,-187.0,1428.0,3673.0,,,,-0.592948068325158,-2.91243847352469,-0.837557240630804,,1.235527217725465,,
,7189.0,1134.0,5526.0,1287.0,-178.0,1434.0,3679.0,,,,-0.59266094084863,-2.91262363827521,-0.83743643079548,,0.8858154250622835,,
2025-08-06 22:03:01,7189.0,1135.0,5526.0,1287.0,-178.0,1456.0,3680.0,,,2025/08/06 10:03:01 PM,-0.593068116930696,-2.91252028382278,-0.837267029055489,,0.538281700217309,,
,7190.0,1132.0,5525.0,1286.0,-181.0,1436.0,3673.0,,,,-0.593216223613078,-2.91264969859588,-0.836709940895884,,0.20126986011673903,,
,7193.0,1133.0,5529.0,1287.0,-201.0,1406.0,3691.0,,,,-0.593304379399225,-2.91270121073742,-0.836038030008487,,-0.11801093618153831,,
,7198.0,1135.0,5531.0,1287.0,-204.0,1415.0,3676.0,,,,-0.59324110133338,-2.91253762026565,-0.837678009586066,,-0.41376314500775324,,
,7200.0,1136.0,5532.0,1289.0,-205.0,1433.0,3677.0,,,,-0.592999061913784,-2.91248089481338,-0.837537715477805,,-0.6818045395977058,,
,7203.0,1136.0,5533.0,1288.0,-213.0,1433.0,3670.0,,,,-0.593182797665445,-2.9125432293332,-0.83787800770483,,-0.9196842475026,,
,7206.0,1137.0,5533.0,1292.0,-199.0,1428.0,3680.0,,,,-0.592965794833801,-2.91255037651526,-0.837188356703928,,-1.1266980614115336,,
,7209.0,1137.0,5536.0,1289.0,-180.0,1402.0,3668.0,,,,-0.592493241192425,-2.91248169695413,-0.836357341327753,,-1.303794170193881,,
,7212.0,1139.0,5537.0,1290.0,-175.0,1411.0,3661.0,,,,-0.592637548685518,-2.91240657971902,-0.835914914360655,,-1.4533682044562473,,
,7214.0,1139.0,5539.0,1291.0,-177.0,1425.0,3701.0,,,,-0.592693679823251,-2.91233617760597,-0.83657285431959,,-1.5789566642992274,,
,7218.0,1139.0,5539.0,1290.0,-183.0,1432.0,3713.0,,,,-0.592217960181075,-2.91234965195716,-0.836076770797616,,-1.684848308194973,,
,7219.0,1138.0,5540.0,1290.0,-176.0,1432.0,3689.0,,,,-0.592191656617747,-2.91234185218821,-0.836485212261091,,-1.7756421089389043,,
,7226.0,1140.0,5545.0,1292.0,-183.0,1423.0,3686.0,,,,-0.592321326320866,-2.91240375399386,-0.835358131906749,,-1.8557869172538495,,
,7226.0,1141.0,5544.0,1293.0,-194.0,1415.0,3661.0,,,,-0.591726942181225,-2.91218460068642,-0.836211381509311,,-1.929141533229561,,
,7228.0,1143.0,5545.0,1293.0,-193.0,1418.0,3660.0,,,,-0.59193992607686,-2.91193977185082,-0.836088307856835,,-1.9985940741327892,,
,7230.0,1141.0,5548.0,1292.0,-199.0,1422.0,3693.0,,,,-0.591588615612859,-2.91203092100246,-0.835715399168492,,-2.0657759676895604,,
,7233.0,1143.0,5549.0,1292.0,-187.0,1444.0,3689.0,,,,-0.59135987125935,-2.91208387109588,-0.83554898534052,,-2.130898396324778,,
,7233.0,1145.0,5549.0,1291.0,-185.0,1430.0,3699.0,,,,-0.591169441228175,-2.91194724356292,-0.835564046226502,,-2.1927276732714525,,
,7227.0,1141.0,5547.0,1291.0,-185.0,1416.0,3688.0,,,,-0.591212248279747,-2.9121165654383,-0.834880977321727,,-2.2487014769957177,,
,7222.0,1139.0,5545.0,1291.0,-182.0,1427.0,3655.0,,,,-0.590701399347295,-2.91185616329467,-0.834385044992462,,-2.295171740458618,,
,7215.0,1139.0,5543.0,1288.0,-204.0,1410.0,3664.0,,,,-0.590729385495022,-2.91186448422041,-0.834816120048723,,-2.3277451155353597,,
,7210.0,1137.0,5540.0,1286.0,-186.0,1395.0,3671.0,,,,-0.590318923283265,-2.91175813047605,-0.833741214887704,,-2.3416814976963893,,
,7203.0,1134.0,5536.0,1286.0,-180.0,1432.0,3699.0,,,,-0.590314895189298,-2.91174196731682,-0.833793883803442,,-2.3323070738403744,,
,7194.0,1135.0,5531.0,1281.0,-179.0,1425.0,3688.0,,,,-0.589945198146701,-2.91174716608635,-0.834286184922934,,-2.2954005809615357,,
,7183.0,1130.0,5524.0,1278.0,-184.0,1426.0,3691.0,,,,-0.589663772562854,-2.91174936857578,-0.83364548184633,,-2.2275182423496678,,
,7175.0,1129.0,5518.0,1277.0,-191.0,1416.0,3698.0,,,,-0.589822557218527,-2.91175927449281,-0.833480075788081,,-2.1262323823617866,,
,7168.0,1128.0,5513.0,1273.0,-190.0,1435.0,3704.0,,,,-0.58975103990923,-2.91172805552943,-0.834073287787426,,-1.9902699187188984,,
,7161.0,1127.0,5508.0,1273.0,-186.0,1443.0,3704.0,,,,-0.590123705639568,-2.91174915537753,-0.8337710426872,,-1.8195491330009486,,
,7154.0,1122.0,5505.0,1271.0,-176.0,1434.0,3697.0,,,,-0.590026349600104,-2.91176395168829,-0.834323966825485,,-1.6151254089042733,,
,7147.0,1122.0,5499.0,1270.0,-171.0,1406.0,3687.0,,,,-0.590011804015318,-2.91179999747556,-0.833906820447476,,-1.379067448555037,,
,7140.0,1122.0,5492.0,1268.0,-175.0,1395.0,3675.0,,,,-0.590264064981699,-2.91177630259947,-0.833605502630372,,-1.114292729408606,,
,7138.0,1121.0,5492.0,1268.0,-187.0,1384.0,3684.0,,,,-0.590232366136955,-2.91184685458744,-0.83317452498007,,-0.824392584940175,,
,7134.0,1119.0,5487.0,1264.0,-187.0,1395.0,3689.0,,,,-0.590086453372777,-2.91193901736608,-0.833709911960891,,-0.513472360332247,,
,7126.0,1117.0,5482.0,1262.0,-191.0,1413.0,3687.0,,,,-0.590305319753516,-2.91194492770386,-0.834384755190718,,-0.1860219728432589,,
,7125.0,1118.0,5482.0,1261.0,-193.0,1421.0,3690.0,,,,-0.590170429813918,-2.9118655630068,-0.834117379353705,,0.15317946852973233,,
,7124.0,1119.0,5477.0,1262.0,-196.0,1417.0,3687.0,,,,-0.589935222425575,-2.91198128201886,-0.833363207728757,,0.49913045855830895,,
,7121.0,1115.0,5476.0,1259.0,-188.0,1417.0,3686.0,,,,-0.590060440891439,-2.91193357307317,-0.834046614972895,,0.8466551579815166,,
,7119.0,1115.0,5474.0,1260.0,-187.0,1430.0,3696.0,,,,-0.590640381822582,-2.91185494934559,-0.833948620840807,,1.1904427247345175,,
,7119.0,1117.0,5471.0,1257.0,-175.0,1420.0,3684.0,,,,-0.590270648583527,-2.91189574867461,-0.833788449338606,,1.5250859269415251,,
,7117.0,1116.0,5471.0,1257.0,-184.0,1404.0,3678.0,,,,-0.591860380014236,-2.91215295001548,-0.835504790202026,,1.8451247980447651,,
,7116.0,1117.0,5470.0,1257.0,-199.0,1434.0,3667.0,,,,-0.591575240755257,-2.91225390733683,-0.835623864274526,,2.1450993997427226,,
,7117.0,1118.0,5469.0,1256.0,-201.0,1423.0,3658.0,,,,-0.590490553068809,-2.91180100532209,-0.833504826506029,,2.419614661905728,,
,7115.0,1116.0,5465.0,1253.0,-194.0,1396.0,3667.0,,,,-0.590518064979881,-2.91182351066839,-0.833694988220866,,2.663419604717095,,
,7115.0,1116.0,5467.0,1256.0,-194.0,1421.0,3692.0,,,,-0.590679653311423,-2.91189934753966,-0.833843669530451,,2.871502864540274,,
,7115.0,1117.0,5464.0,1254.0,-185.0,1400.0,3694.0,,,,-0.590212357830858,-2.91197495032392,-0.833862436986802,,3.0392061741726346,,
,7115.0,1115.0,5462.0,1254.0,-194.0,1400.0,3701.0,,,,-0.590729187148827,-2.91198932928546,-0.833379963911177,,3.1623571204346765,,
,7116.0,1114.0,5462.0,1252.0,-202.0,1412.0,3684.0,,,,-0.590836666983629,-2.91191306942266,-0.833801048133242,,3.2374218711818825,,
,7117.0,1115.0,5465.0,1253.0,-189.0,1394.0,3652.0,,,,-0.590227514802213,-2.91185154924067,-0.833147998278349,,3.2616769979746962,,
,7116.0,1114.0,5466.0,1253.0,-194.0,1398.0,3671.0,,,,-0.590110021914875,-2.91198108689525,-0.83360187821358,,3.2333959751616606,,
,7118.0,1117.0,5462.0,1252.0,-185.0,1406.0,3676.0,,,,-0.590065419532377,-2.91183466336636,-0.834936268623409,,3.1520398255032536,,
,7117.0,1116.0,5465.0,1254.0,-187.0,1426.0,3674.0,,,,-0.589987918577103,-2.91185504885642,-0.833173023486776,,3.0184337419892167,,
,7119.0,1115.0,5462.0,1253.0,-166.0,1430.0,3678.0,,,,-0.590053913155887,-2.91177770799551,-0.832528329892799,,2.834905021057394,,
,7121.0,1116.0,5462.0,1254.0,-173.0,1429.0,3670.0,,,,-0.58992482779497,-2.91165702332622,-0.832845411717318,,2.605355181410432,,
,7122.0,1117.0,5462.0,1253.0,-194.0,1419.0,3684.0,,,,-0.58969430070996,-2.91167572055867,-0.833291839912583,,2.3352421975198587,,
,7122.0,1117.0,5463.0,1253.0,-192.0,1425.0,3691.0,,,,-0.589802537348372,-2.91171906899055,-0.833439292676199,,2.031456889175409,,
,7124.0,1116.0,5464.0,1252.0,-181.0,1421.0,3689.0,,,,-0.58991535314505,-2.91173034612793,-0.832970877763204,,1.7020888675557884,,
,7126.0,1114.0,5462.0,1253.0,-180.0,1407.0,3691.0,,,,-0.589191247189679,-2.91155666624997,-0.832744725394595,,1.3560897671414234,,
,7125.0,1116.0,5462.0,1251.0,-185.0,1391.0,3675.0,,,,-0.589353316198127,-2.91173491728676,-0.832438905557926,,1.002852686017976,,
,7127.0,1118.0,5464.0,1253.0,-192.0,1389.0,3665.0,,,,-0.588978879083518,-2.91159821925593,-0.832104994705877,,0.6517354316553844,,
,7128.0,1118.0,5462.0,1251.0,-202.0,1389.0,3662.0,,,,-0.589573725676172,-2.91161075380779,-0.833217166205139,,0.31156112484716797,,
,7122.0,1115.0,5461.0,1250.0,-174.0,1439.0,3706.0,,,,-0.589354061106938,-2.91161886070713,-0.83290916551601,,-0.009866361483303132,,
,7124.0,1117.0,5463.0,1252.0,-199.0,1442.0,3694.0,,,,-0.589503660662851,-2.91157666932896,-0.831997809449608,,-0.3061924185833664,,
,7128.0,1117.0,5462.0,1250.0,-187.0,1430.0,3662.0,,,,-0.588913498069304,-2.91146993513058,-0.831849296485359,,-0.5728479126418998,,
,7127.0,1118.0,5464.0,1251.0,-189.0,1432.0,3654.0,,,,-0.58874104463607,-2.91155464312416,-0.832044809641255,,-0.8072572437212719,,
,7124.0,1116.0,5459.0,1249.0,-182.0,1413.0,3663.0,,,,-0.588992312227734,-2.91160808417274,-0.832546295882335,,-1.0088941645226785,,
,7124.0,1114.0,5463.0,1248.0,-179.0,1417.0,3665.0,,,,-0.588987711469924,-2.91157608402454,-0.831925109967042,,-1.1791757671909562,,
,7129.0,1116.0,5461.0,1250.0,-180.0,1422.0,3696.0,,,,-0.589162348434566,-2.9116859721048,-0.832898470196626,,-1.3212012755570328,,
,7127.0,1118.0,5462.0,1251.0,-193.0,1419.0,3690.0,,,,-0.588498970537592,-2.91172003127559,-0.832291896665079,,-1.4393577319648576,,
,7127.0,1117.0,5462.0,1250.0,-193.0,1419.0,3692.0,,,,-0.588116997833434,-2.91159552177415,-0.83181173543927,,-1.5388276215009782,,
,7129.0,1115.0,5462.0,1248.0,-193.0,1418.0,3698.0,,,,-0.588385222182121,-2.91156340028244,-0.8319675280892,,-1.6250428744043561,,
,7131.0,1119.0,5463.0,1251.0,-185.0,1434.0,3675.0,,,,-0.588387264925632,-2.91149501548293,-0.831261879033433,,-1.7031347368641245,,
,7131.0,1120.0,5464.0,1249.0,-194.0,1427.0,3688.0,,,,-0.588319067193384,-2.91152178609849,-0.831496612768269,,-1.777429090454086,,
,7131.0,1118.0,5464.0,1250.0,-202.0,1421.0,3694.0,,,,-0.588412170233762,-2.91151637659859,-0.831413409160901,,-1.851031709383731,,
,7133.0,1116.0,5464.0,1246.0,-194.0,1420.0,3678.0,,,,-0.588136784942742,-2.91158272909409,-0.831109727565099,,-1.9255379746189822,,
,7132.0,1120.0,5464.0,1248.0,-193.0,1413.0,3679.0,,,,-0.587912577761652,-2.91125648956608,-0.831336326171043,,-2.000887566957433,,
,7140.0,1118.0,5467.0,1251.0,-186.0,1420.0,3686.0,,,,-0.587941421146602,-2.91151289018318,-0.830711896559696,,-2.0753682730134675,,
,7139.0,1122.0,5465.0,1249.0,-182.0,1422.0,3688.0,,,,-0.58829336596862,-2.91150560637373,-0.831192932643371,,-2.145756963554736,,
,7141.0,1119.0,5466.0,1249.0,-187.0,1428.0,3679.0,,,,-0.5885020254869,-2.91145316060869,-0.831472792347944,,-2.207573293626125,,
,7142.0,1118.0,5467.0,1248.0,-177.0,1414.0,3663.0,,,,-0.588659358330502,-2.91161092295827,-0.832058821810923,,-2.2554149667607413,,
,7146.0,1123.0,5467.0,1249.0,-195.0,1408.0,3668.0,,,,-0.589182507146756,-2.91158503199298,-0.832561800642347,,-2.2833424760990666,,
,7149.0,1122.0,5468.0,1252.0,-197.0,1414.0,3679.0,,,,-0.589564357993957,-2.91168036402316,-0.832551015445968,,-2.2852841795288965,,
,7151.0,1121.0,5470.0,1249.0,-201.0,1412.0,3688.0,,,,-0.590681884079566,-2.91186485672628,-0.833980425372822,,-2.255437118737474,,
,7153.0,1120.0,5469.0,1248.0,-186.0,1439.0,3701.0,,,,-0.59095670488032,-2.91209128866213,-0.833586852075862,,-2.1886436676221024,,
,7157.0,1124.0,5473.0,1249.0,-185.0,1440.0,3675.0,,,,-0.591957392501349,-2.91226813622684,-0.83477475127402,,-2.080728285817111,,
,7160.0,1122.0,5474.0,1254.0,-186.0,1413.0,3672.0,,,,-0.592716992631831,-2.91245422925074,-0.835520723832303,,-1.9287821997835919,,
,7161.0,1126.0,5474.0,1252.0,-195.0,1405.0,3675.0,,,,-0.59297686044989,-2.91249316633037,-0.836778343048671,,-1.7313868087088717,,
,7161.0,1124.0,5477.0,1250.0,-193.0,1420.0,3694.0,,,,-0.59335064878882,-2.91263822580045,-0.836552755919347,,-1.4887693449713173,,
,7165.0,1124.0,5477.0,1252.0,-185.0,1418.0,3669.0,,,,-0.593755970311185,-2.91274225711443,-0.83636948372965,,-1.2028871541027544,,
,7167.0,1126.0,5481.0,1254.0,-183.0,1415.0,3686.0,,,,-0.59405438591762,-2.91266326141913,-0.836421475468164,,-0.8774397348336971,,
,7173.0,1127.0,5481.0,1253.0,-181.0,1436.0,3689.0,,,,-0.593942279398121,-2.91254028609771,-0.836032260450602,,-0.5178097617910228,,
,7174.0,1126.0,5484.0,1255.0,-183.0,1439.0,3691.0,,,,-0.594038973999215,-2.91273038448947,-0.836564133549334,,-0.13093548177630845,,
,7176.0,1123.0,5482.0,1253.0,-171.0,1432.0,3693.0,,,,-0.594105409699287,-2.9127866702861,-0.836439831789496,,0.27488213885956997,,
,7180.0,1129.0,5485.0,1254.0,-179.0,1403.0,3690.0,,,,-0.59421633643438,-2.9127348705521,-0.836670810857941,,0.6902324102678361,,
,7182.0,1129.0,5486.0,1255.0,-197.0,1400.0,3682.0,,,,-0.59464134183053,-2.91276751400031,-0.837372167721374,,1.1049004157537308,,
,7185.0,1127.0,5487.0,1256.0,-187.0,1404.0,3680.0,,,,-0.594578490880391,-2.912696180737,-0.837210046840234,,1.5082147428750319,,
,7190.0,1129.0,5488.0,1256.0,-182.0,1418.0,3689.0,,,,-0.59477516947575,-2.91278510979992,-0.837688510065734,,1.8894251120627628,,
,7191.0,1130.0,5491.0,1254.0,-178.0,1423.0,3669.0,,,,-0.594450822730347,-2.91279199748889,-0.836738221256117,,2.238096094570989,,
,7196.0,1129.0,5491.0,1257.0,-184.0,1426.0,3672.0,,,,-0.594065641021042,-2.91262163808244,-0.837111646437689,,2.5445019307332606,,
,7199.0,1132.0,5492.0,1257.0,-183.0,1435.0,3676.0,,,,-0.593869854195659,-2.91269833667914,-0.837105812354058,,2.800006381511174,,
,7200.0,1135.0,5497.0,1257.0,-195.0,1431.0,3695.0,,,,-0.59427576006391,-2.91261362567956,-0.836069548795241,,2.997410715642975,,
,7205.0,1131.0,5498.0,1258.0,-189.0,1438.0,3691.0,,,,-0.594116135328588,-2.91272714065626,-0.835857736365959,,3.1312527488350175,,
,7207.0,1133.0,5498.0,1258.0,-180.0,1420.0,3702.0,,,,-0.594031716460507,-2.91247631772652,-0.836568402632937,,3.1980408221687915,,
,7211.0,1134.0,5503.0,1260.0,-177.0,1408.0,3697.0,,,,-0.593946892812174,-2.91253061757262,-0.836133036111821,,3.1964091441595563,,
,7213.0,1136.0,5503.0,1260.0,-183.0,1408.0,3687.0,,,,-0.59356211201731,-2.91259543918218,-0.836281150009737,,3.1271848947210805,,
