TimeLabel,MEAS1_PPG1,MEAS1_PPG2,MEAS1_PPG3,MEAS1_PPG4,ACCX,ACCY,ACCZ,HR_timestamp,HR_value,radar_timestamp,phase_rx0,phase_rx1,phase_rx2,timestep,n_process,original_rate,calculated_rate
2025-07-17 17:11:46,2227.0,713.0,2600.0,948.0,1777.0,2293.0,2665.0,2025-07-17 17:11:51,89.0,2025/07/17 05:11:46 PM,-1.33664530519141,-2.96648871023874,-1.2771720453046,2025/07/17 05:11:46 PM,-0.18910401538767632,24.810476303100582,26.186400328954488
,2227.0,714.0,2601.0,945.0,1757.0,2287.0,2663.0,2025-07-17 17:11:52,88.0,,-1.33632652403983,-2.96676454056296,-1.27709190292781,2025/07/17 05:11:56 PM,-0.006438628346835219,24.140453338623047,26.344240004162586
,2227.0,714.0,2604.0,948.0,1781.0,2285.0,2653.0,2025-07-17 17:11:53,87.0,,-1.33493060876814,-2.96685164398358,-1.27630128164297,2025/07/17 05:12:06 PM,0.1819864213948973,25.97402572631836,25.445955158309353
,2226.0,716.0,2601.0,948.0,1776.0,2284.0,2651.0,2025-07-17 17:11:54,85.0,,-1.33376564095247,-2.96654781145486,-1.27551384887125,2025/07/17 05:12:16 PM,0.3749851202742635,25.99277877807617,24.26412872841443
,2226.0,713.0,2596.0,947.0,1766.0,2293.0,2658.0,2025-07-17 17:11:55,83.0,,-1.33371241132175,-2.96671510899102,-1.27559298899967,2025/07/17 05:12:26 PM,0.5715205483460455,25.17482566833496,25.453737461682167
,2225.0,714.0,2599.0,946.0,1781.0,2292.0,2666.0,2025-07-17 17:11:56,81.0,,-1.33300877792253,-2.96676115016819,-1.2752670850511,2025/07/17 05:12:36 PM,0.7705531975444769,24.879060745239254,27.29531338226991
,2225.0,716.0,2600.0,948.0,1781.0,2284.0,2648.0,2025-07-17 17:11:57,79.0,,-1.33248621250859,-2.96640786910857,-1.27440181454343,2025/07/17 05:12:46 PM,0.9708440972587232,26.052103042602536,25.815602836879442
,2226.0,715.0,2600.0,947.0,1785.0,2295.0,2648.0,2025-07-17 17:11:58,76.0,,-1.33270605181816,-2.96660644564637,-1.27549957481006,2025/07/17 05:12:56 PM,1.1707375052865772,26.23906707763672,24.62787668258793
,2223.0,713.0,2602.0,945.0,1779.0,2300.0,2667.0,2025-07-17 17:11:59,74.0,,-1.33160066525457,-2.96635141173087,-1.27449290273976,2025/07/17 05:13:06 PM,1.3679552197964802,25.862070083618164,24.582119940174657
,2225.0,714.0,2600.0,947.0,1779.0,2292.0,2668.0,2025-07-17 17:12:00,72.0,,-1.33280802818977,-2.96641441342007,-1.27556332427735,2025/07/17 05:13:16 PM,1.5594379034472925,25.22775077819824,25.17209436966277
,2224.0,715.0,2600.0,946.0,1785.0,2304.0,2677.0,2025-07-17 17:12:01,71.0,,-1.33261901782501,-2.96652213411431,-1.2751089488604,2025/07/17 05:13:26 PM,1.7412669045324833,24.49888610839844,25.277166833430876
,2224.0,716.0,2600.0,948.0,1782.0,2286.0,2662.0,2025-07-17 17:12:02,71.0,,-1.33290974306028,-2.96659769814126,-1.27548981207415,2025/07/17 05:13:36 PM,1.908692620100272,25.334272384643555,26.403201170320347
,2225.0,715.0,2603.0,950.0,1777.0,2287.0,2670.0,2025-07-17 17:12:03,71.0,,-1.33206775389434,-2.96625225980347,-1.27466862122684,2025/07/17 05:13:46 PM,2.056283377892941,25.604551315307617,26.102094020687918
,2221.0,715.0,2597.0,945.0,1762.0,2272.0,2673.0,2025-07-17 17:12:04,70.0,,-1.33202484068902,-2.96647199363634,-1.27480631692857,2025/07/17 05:13:56 PM,2.1781938719718026,25.936599731445312,27.021670190274822
,2222.0,714.0,2598.0,945.0,1754.0,2297.0,2712.0,2025-07-17 17:12:05,70.0,,-1.33200986199912,-2.96655104018784,-1.27440275673997,2025/07/17 05:14:06 PM,2.2685363993053542,26.476577758789062,26.00658761528327
,2222.0,714.0,2600.0,947.0,1755.0,2290.0,2696.0,2025-07-17 17:12:06,70.0,,-1.33223367120238,-2.96652478843215,-1.27468529191549,2025/07/17 05:14:16 PM,2.3218234519367913,26.23906707763672,28.971800129694856
,2225.0,713.0,2601.0,947.0,1758.0,2290.0,2674.0,2025-07-17 17:12:07,70.0,,-1.33211345785729,-2.96639983382433,-1.27480759318206,2025/07/17 05:14:26 PM,2.33343841545842,25.2100830078125,25.691389599318008
,2222.0,716.0,2599.0,946.0,1771.0,2289.0,2689.0,2025-07-17 17:12:08,70.0,,-1.33263404063984,-2.96622747520532,-1.2749208891597,2025/07/17 05:14:36 PM,2.3000838665970957,25.157232284545895,26.131462039885513
,2220.0,713.0,2599.0,943.0,1759.0,2287.0,2673.0,2025-07-17 17:12:09,70.0,,-1.33277561792206,-2.96650199561973,-1.27435111543822,,2.2201556338231807,,
,2220.0,711.0,2598.0,945.0,1775.0,2293.0,2649.0,2025-07-17 17:12:10,69.0,,-1.33268476589837,-2.96658647087176,-1.27446831554812,,2.0939962125217564,,
,2223.0,715.0,2601.0,947.0,1769.0,2293.0,2628.0,2025-07-17 17:12:11,68.0,,-1.33290074440473,-2.96640165847007,-1.27374109280789,,1.9239932595895808,,
,2222.0,713.0,2602.0,945.0,1775.0,2287.0,2628.0,2025-07-17 17:12:12,68.0,,-1.33234813443528,-2.96669102465694,-1.2739583265773,,1.7145065060808022,,
,2220.0,714.0,2600.0,946.0,1774.0,2299.0,2640.0,2025-07-17 17:12:13,69.0,,-1.33179987765574,-2.96633065552368,-1.27428346421221,,1.4716270261967694,,
,2221.0,713.0,2599.0,946.0,1778.0,2298.0,2645.0,2025-07-17 17:12:14,69.0,,-1.33174692831483,-2.96648180176183,-1.27367996005695,,1.2027930388480466,,
,2222.0,712.0,2600.0,947.0,1799.0,2292.0,2667.0,2025-07-17 17:12:15,70.0,,-1.33122229977366,-2.96637005996979,-1.27367772523019,,0.9163029972803602,,
,2222.0,714.0,2601.0,947.0,1803.0,2276.0,2675.0,2025-07-17 17:12:16,70.0,,-1.33105733569271,-2.96623391907125,-1.27339505497452,,0.6207772288827115,,
,2222.0,715.0,2600.0,946.0,1799.0,2274.0,2688.0,2025-07-17 17:12:17,70.0,,-1.33090089188073,-2.96627405732777,-1.27372362231704,,0.32462264018527204,,
,2221.0,712.0,2597.0,946.0,1781.0,2282.0,2657.0,2025-07-17 17:12:18,69.0,,-1.33085723235073,-2.96626886467581,-1.2733578751033,,0.03555110024385159,,
,2223.0,712.0,2600.0,948.0,1777.0,2281.0,2689.0,2025-07-17 17:12:19,69.0,,-1.33062484522661,-2.96638506461879,-1.27282806430269,,-0.23980763304635813,,
,2221.0,714.0,2601.0,947.0,1788.0,2279.0,2662.0,2025-07-17 17:12:20,68.0,,-1.33054299132955,-2.9662577981702,-1.27362033711099,,-0.4961710233923232,,
,2222.0,713.0,2603.0,948.0,1784.0,2281.0,2663.0,2025-07-17 17:12:21,68.0,,-1.33024128884652,-2.96613911591116,-1.27299462005959,,-0.7297342907904332,,
,2223.0,714.0,2598.0,947.0,1778.0,2292.0,2670.0,2025-07-17 17:12:22,68.0,,-1.32981165159673,-2.96606613103118,-1.27290459913764,,-0.9381679799077289,,
,2223.0,713.0,2599.0,946.0,1795.0,2306.0,2647.0,2025-07-17 17:12:23,68.0,,-1.32982586362562,-2.96616205636806,-1.27269368960382,,-1.1204964404766293,,
,2225.0,718.0,2602.0,948.0,1802.0,2274.0,2663.0,2025-07-17 17:12:24,68.0,,-1.3296139175038,-2.96619634434998,-1.27250396541105,,-1.276880587610539,,
,2224.0,715.0,2600.0,947.0,1806.0,2271.0,2662.0,2025-07-17 17:12:25,69.0,,-1.32905057989794,-2.96602018328667,-1.27195133967919,,-1.4083346432496195,,
,2223.0,713.0,2603.0,949.0,1793.0,2286.0,2643.0,2025-07-17 17:12:26,69.0,,-1.32884816017949,-2.96624893241725,-1.27251256860737,,-1.5164097092125748,,
,2224.0,714.0,2597.0,948.0,1789.0,2304.0,2653.0,2025-07-17 17:12:27,70.0,,-1.33003547547259,-2.96622023261351,-1.27229343799608,,-1.6028771777218127,,
,2223.0,713.0,2601.0,948.0,1793.0,2281.0,2662.0,2025-07-17 17:12:28,70.0,,-1.32956359633661,-2.96636807892162,-1.27298433282765,,-1.6694424156058834,,
,2226.0,715.0,2601.0,950.0,1800.0,2286.0,2680.0,2025-07-17 17:12:29,71.0,,-1.32962971231452,-2.9666215831972,-1.27274354762357,,-1.7175141398707647,,
,2225.0,712.0,2600.0,945.0,1795.0,2285.0,2680.0,2025-07-17 17:12:30,71.0,,-1.33008069355454,-2.96619137431089,-1.27359327307585,,-1.748047761641865,,
,2225.0,713.0,2599.0,946.0,1789.0,2270.0,2691.0,2025-07-17 17:12:31,70.0,,-1.32974351882436,-2.96631682340167,-1.27350706569242,,-1.761472209311528,,
,2225.0,714.0,2601.0,945.0,1806.0,2290.0,2696.0,2025-07-17 17:12:32,70.0,,-1.32953861992815,-2.96626146265603,-1.27284918645978,,-1.7577001254860116,,
,2228.0,715.0,2600.0,950.0,1801.0,2307.0,2668.0,2025-07-17 17:12:33,70.0,,-1.32962101093602,-2.96604815726665,-1.27305396114246,,-1.7362119510613307,,
,2227.0,716.0,2600.0,950.0,1791.0,2287.0,2659.0,2025-07-17 17:12:34,70.0,,-1.32972518686821,-2.96624991184744,-1.27257776256165,,-1.6961965691052714,,
,2227.0,714.0,2598.0,949.0,1768.0,2303.0,2673.0,2025-07-17 17:12:35,69.0,,-1.32971980837747,-2.96632254680038,-1.27341679985909,,-1.636726144246224,,
,2227.0,715.0,2599.0,947.0,1788.0,2304.0,2666.0,2025-07-17 17:12:36,70.0,,-1.3298367081629,-2.96649742779429,-1.27246155215136,,-1.5569413749814123,,
,2228.0,716.0,2602.0,951.0,1777.0,2304.0,2652.0,2025-07-17 17:12:37,70.0,,-1.32931553386516,-2.96634145083282,-1.27334565784771,,-1.4562256199535948,,
,2229.0,718.0,2602.0,949.0,1773.0,2312.0,2639.0,2025-07-17 17:12:38,69.0,,-1.32968182389873,-2.96630041128224,-1.27323603757398,,-1.334351520024989,,
,2227.0,716.0,2600.0,951.0,1780.0,2306.0,2645.0,2025-07-17 17:12:39,69.0,,-1.32975341257053,-2.9665857320147,-1.27352099337829,,-1.1915905522185684,,
,2229.0,716.0,2600.0,948.0,1793.0,2298.0,2695.0,2025-07-17 17:12:40,69.0,,-1.33006204102211,-2.9666056589695,-1.2738031548383,,-1.0287829974626832,,
,2229.0,716.0,2601.0,951.0,1787.0,2282.0,2656.0,2025-07-17 17:12:41,69.0,,-1.33052611748248,-2.96645534745485,-1.27280350359273,,-0.8473717980395682,,
,2230.0,716.0,2604.0,950.0,1796.0,2269.0,2650.0,2025-07-17 17:12:42,69.0,,-1.33048306837604,-2.96639596676406,-1.27369446729419,,-0.6494077691027779,,
,2228.0,717.0,2603.0,950.0,1798.0,2264.0,2666.0,2025-07-17 17:12:43,68.0,,-1.32969451210412,-2.96668138270785,-1.27310581792129,,-0.43753511514483867,,
,2232.0,715.0,2601.0,951.0,1801.0,2262.0,2669.0,2025-07-17 17:12:44,68.0,,-1.33035477817416,-2.96641641170703,-1.27330565965558,,-0.2149652174442293,,
,2231.0,717.0,2601.0,951.0,1798.0,2278.0,2669.0,2025-07-17 17:12:45,68.0,,-1.32992303723925,-2.96644498067441,-1.27362543142833,,0.014556292482598663,,
,2233.0,717.0,2601.0,954.0,1815.0,2267.0,2659.0,2025-07-17 17:12:46,69.0,,-1.33029052057858,-2.96624891136622,-1.27303647682898,,0.24678827207997472,,
,2232.0,716.0,2602.0,951.0,1800.0,2286.0,2679.0,2025-07-17 17:12:47,69.0,,-1.32967999088965,-2.96649145363515,-1.2738617188048,,0.4770420906763133,,
,2231.0,716.0,2602.0,951.0,1790.0,2291.0,2676.0,2025-07-17 17:12:48,69.0,,-1.32988769148653,-2.96656264331909,-1.27317021857043,,0.7002461700503556,,
,2232.0,718.0,2600.0,950.0,1801.0,2270.0,2646.0,2025-07-17 17:12:49,69.0,,-1.33072709792154,-2.96644672508713,-1.27317442617262,,0.9110366367622286,,
,2233.0,715.0,2602.0,953.0,1811.0,2291.0,2641.0,2025-07-17 17:12:50,69.0,,-1.33041318662968,-2.96644033014919,-1.272828755553,,1.103883882000207,,
,2238.0,718.0,2603.0,955.0,1804.0,2293.0,2664.0,2025-07-17 17:12:51,69.0,,-1.33080334163281,-2.96649378508957,-1.2735502440578,,1.2732622121908002,,
,2236.0,718.0,2604.0,953.0,1791.0,2297.0,2652.0,2025-07-17 17:12:52,69.0,,-1.33031012476548,-2.96664205524961,-1.27262708626726,,1.4138641379243326,,
,2235.0,718.0,2603.0,951.0,1791.0,2288.0,2633.0,2025-07-17 17:12:53,69.0,,-1.33072495004843,-2.96676845817814,-1.27267759997646,,1.5208528389571818,,
,2234.0,716.0,2603.0,953.0,1799.0,2278.0,2661.0,2025-07-17 17:12:54,69.0,,-1.3301863846312,-2.96667493100142,-1.27307583003195,,1.590137473177251,,
,2237.0,717.0,2602.0,954.0,1794.0,2279.0,2658.0,2025-07-17 17:12:55,69.0,,-1.32991863164035,-2.96679225901687,-1.27255651454258,,1.6186481748828787,,
,2239.0,718.0,2605.0,956.0,1806.0,2275.0,2658.0,2025-07-17 17:12:56,69.0,,-1.32977423418216,-2.96681491246696,-1.27265263213976,,1.604582555241881,,
,2240.0,719.0,2602.0,956.0,1806.0,2282.0,2660.0,2025-07-17 17:12:57,69.0,,-1.33009891522662,-2.96678941846399,-1.27151345299096,,1.5475945143997873,,
,2238.0,717.0,2603.0,955.0,1798.0,2268.0,2657.0,2025-07-17 17:12:58,69.0,,-1.33041622809706,-2.96700916675729,-1.27245784357758,,1.4488997904413634,,
,2238.0,718.0,2602.0,956.0,1805.0,2275.0,2658.0,2025-07-17 17:12:59,68.0,,-1.33007117870979,-2.96711668593702,-1.27245702980258,,1.3112807037561727,,
,2239.0,720.0,2603.0,957.0,1826.0,2284.0,2644.0,2025-07-17 17:13:00,68.0,,-1.33015302860768,-2.96680100275745,-1.27172423009706,,1.1389838074212926,,
,2242.0,720.0,2603.0,956.0,1810.0,2304.0,2635.0,2025-07-17 17:13:01,68.0,,-1.33097650142526,-2.96684700964246,-1.27267933130508,,0.9375164711914021,,
,2241.0,719.0,2605.0,956.0,1802.0,2298.0,2640.0,2025-07-17 17:13:02,67.0,,-1.33116406371644,-2.96678685910466,-1.27230495056703,,0.7133593615580265,,
,2242.0,720.0,2603.0,958.0,1803.0,2292.0,2650.0,2025-07-17 17:13:03,67.0,,-1.33145096103122,-2.96689698482566,-1.27252548488352,,0.47361959483560284,,
,2244.0,722.0,2605.0,959.0,1807.0,2288.0,2663.0,2025-07-17 17:13:04,67.0,,-1.33308764569573,-2.96706329730218,-1.27323847489935,,0.22565354407909965,,
,2243.0,719.0,2604.0,959.0,1800.0,2275.0,2660.0,2025-07-17 17:13:05,67.0,,-1.33288851191848,-2.96708600939935,-1.27321974856582,,-0.02331065386767696,,
,2243.0,721.0,2604.0,959.0,1808.0,2269.0,2669.0,2025-07-17 17:13:06,67.0,,-1.33354289919972,-2.96704418723596,-1.27284806765899,,-0.26652219061667515,,
,2245.0,719.0,2605.0,956.0,1815.0,2251.0,2682.0,2025-07-17 17:13:07,68.0,,-1.33358756142622,-2.96734091407743,-1.27317595576349,,-0.4980029021576758,,
,2246.0,722.0,2605.0,957.0,1826.0,2276.0,2678.0,2025-07-17 17:13:08,68.0,,-1.33402445572035,-2.96701888902442,-1.27364246681848,,-0.7127686609842395,,
,2245.0,719.0,2602.0,959.0,1827.0,2274.0,2665.0,2025-07-17 17:13:09,68.0,,-1.33395986559968,-2.96705683828229,-1.27360420986862,,-0.9069637025231928,,
,2248.0,721.0,2602.0,960.0,1827.0,2294.0,2669.0,2025-07-17 17:13:10,68.0,,-1.33432537502429,-2.96735740224589,-1.27393177081849,,-1.0779029292241056,,
,2244.0,720.0,2603.0,957.0,1816.0,2312.0,2664.0,2025-07-17 17:13:11,68.0,,-1.3355184501074,-2.96704034116922,-1.27407504017568,,-1.2240255809377496,,
,2247.0,721.0,2604.0,962.0,1805.0,2283.0,2656.0,2025-07-17 17:13:12,68.0,,-1.33588952351746,-2.96737315740023,-1.27359925952388,,-1.3447711631577843,,
,2243.0,722.0,2603.0,958.0,1805.0,2291.0,2676.0,2025-07-17 17:13:13,68.0,,-1.33755356964541,-2.96758028098397,-1.27492049080559,,-1.4403945291137907,,
,2245.0,722.0,2604.0,961.0,1812.0,2297.0,2686.0,2025-07-17 17:13:14,68.0,,-1.33801333297461,-2.96729718681312,-1.27443592583548,,-1.5117411907398708,,
,2245.0,719.0,2602.0,957.0,1814.0,2312.0,2666.0,2025-07-17 17:13:15,68.0,,-1.33781734596569,-2.96727997582761,-1.27532192132796,,-1.5600061215952568,,
,2242.0,719.0,2602.0,956.0,1796.0,2280.0,2678.0,2025-07-17 17:13:16,68.0,,-1.33748219688976,-2.96770803170245,-1.27571892240974,,-1.5864994421048546,,
,2241.0,719.0,2602.0,960.0,1798.0,2273.0,2685.0,2025-07-17 17:13:17,68.0,,-1.33814090287938,-2.96748778505666,-1.27552162773935,,-1.5924405350437103,,
,2241.0,719.0,2604.0,960.0,1814.0,2250.0,2640.0,2025-07-17 17:13:18,68.0,,-1.33764930465597,-2.96756702261037,-1.27478759162507,,-1.5787986159262992,,
,2237.0,718.0,2600.0,956.0,1811.0,2252.0,2660.0,2025-07-17 17:13:19,68.0,,-1.33771224418773,-2.96759979515388,-1.27524809209836,,-1.5461929739211036,,
,2237.0,718.0,2600.0,955.0,1815.0,2262.0,2649.0,2025-07-17 17:13:20,68.0,,-1.33799102382741,-2.96756067461643,-1.27510851612533,,-1.494860376153766,,
,2235.0,717.0,2603.0,957.0,1812.0,2251.0,2652.0,2025-07-17 17:13:21,68.0,,-1.33779620145839,-2.96785346984845,-1.27473841270532,,-1.424690818576375,,
,2237.0,718.0,2601.0,955.0,1814.0,2244.0,2640.0,2025-07-17 17:13:22,68.0,,-1.33863680048209,-2.96768915428762,-1.2762357478733,,-1.3353262859476287,,
,2234.0,717.0,2601.0,956.0,1818.0,2258.0,2634.0,2025-07-17 17:13:23,68.0,,-1.33929767121619,-2.96762552880676,-1.27645011572789,,-1.2263109776180772,,
,2232.0,714.0,2601.0,955.0,1807.0,2293.0,2637.0,2025-07-17 17:13:24,68.0,,-1.33880367564037,-2.96762908026304,-1.27728153613219,,-1.0972762658184854,,
,2231.0,716.0,2598.0,951.0,1809.0,2310.0,2664.0,2025-07-17 17:13:25,68.0,,-1.33954745671254,-2.9673166407902,-1.27761380713659,,-0.9481402864508649,,
,2231.0,717.0,2603.0,956.0,1824.0,2282.0,2673.0,2025-07-17 17:13:26,68.0,,-1.33962195795913,-2.96759598816173,-1.27744456951954,,-0.7793011984227365,,
,2232.0,716.0,2599.0,952.0,1823.0,2279.0,2658.0,2025-07-17 17:13:27,68.0,,-1.33910037745649,-2.96803544666402,-1.27720562306408,,-0.591804938469659,,
,2230.0,717.0,2601.0,951.0,1825.0,2284.0,2645.0,2025-07-17 17:13:28,68.0,,-1.33854762790767,-2.96803930668741,-1.27706488472183,,-0.3874721287900049,,
,2228.0,713.0,2600.0,951.0,1829.0,2306.0,2651.0,2025-07-17 17:13:29,69.0,,-1.33925459215619,-2.96793718850879,-1.27814059228489,,-0.168973533141422,,
,2228.0,712.0,2599.0,949.0,1808.0,2289.0,2653.0,2025-07-17 17:13:30,69.0,,-1.33865788261874,-2.96788281372599,-1.27863423307989,,0.060151977371750806,,
,2228.0,713.0,2601.0,952.0,1802.0,2297.0,2662.0,2025-07-17 17:13:31,69.0,,-1.33861657011743,-2.96792621797862,-1.27855018548503,,0.2955391951574731,,
,2228.0,715.0,2601.0,951.0,1807.0,2298.0,2685.0,2025-07-17 17:13:32,70.0,,-1.33858549774437,-2.96765346757142,-1.27927445554511,,0.5320973531710461,,
,2226.0,713.0,2600.0,951.0,1807.0,2293.0,2683.0,2025-07-17 17:13:33,70.0,,-1.33826256898087,-2.96795793316253,-1.27975138012708,,0.7641667001158051,,
,2228.0,714.0,2600.0,950.0,1812.0,2281.0,2663.0,2025-07-17 17:13:34,69.0,,-1.33848828089297,-2.96792024035486,-1.27992399675201,,0.9857252606038899,,
,2229.0,715.0,2600.0,951.0,1811.0,2253.0,2632.0,2025-07-17 17:13:35,69.0,,-1.33819782463299,-2.96784839479287,-1.27917885616083,,1.1906374328063138,,
,2229.0,714.0,2601.0,952.0,1800.0,2258.0,2655.0,2025-07-17 17:13:36,69.0,,-1.33769832379112,-2.96768863445979,-1.27987382186368,,1.3729327752404614,,
,2228.0,714.0,2600.0,952.0,1799.0,2287.0,2697.0,2025-07-17 17:13:37,69.0,,-1.3378265458249,-2.96800138932157,-1.28075687753735,,1.5270996047575782,,
,2228.0,715.0,2597.0,951.0,1819.0,2269.0,2702.0,2025-07-17 17:13:38,69.0,,-1.33636524026355,-2.96801008922799,-1.28099047428762,,1.6483744345777624,,
,2229.0,714.0,2599.0,949.0,1809.0,2252.0,2661.0,2025-07-17 17:13:39,69.0,,-1.33665772970182,-2.96796201697777,-1.28090083112899,,1.7330056417933872,,
,2228.0,714.0,2599.0,953.0,1800.0,2294.0,2654.0,2025-07-17 17:13:40,70.0,,-1.33656296213475,-2.96778900392258,-1.28068971630866,,1.7784689586293911,,
,2230.0,715.0,2600.0,951.0,1792.0,2291.0,2666.0,2025-07-17 17:13:41,70.0,,-1.33624083019564,-2.9679341883106,-1.28141760930531,,1.7836142009915894,,
,2228.0,711.0,2595.0,950.0,1780.0,2280.0,2658.0,2025-07-17 17:13:42,71.0,,-1.33530064363154,-2.96799721891125,-1.28193440786557,,1.7487273977723317,,
,2230.0,716.0,2602.0,950.0,1791.0,2281.0,2649.0,2025-07-17 17:13:43,71.0,,-1.33587673618645,-2.96793014133114,-1.28237958548733,,1.6754998074592833,,
,2230.0,711.0,2600.0,949.0,1799.0,2293.0,2633.0,2025-07-17 17:13:44,71.0,,-1.33549694068747,-2.96802468507778,-1.28235354266386,,1.5669043464820398,,
,2230.0,713.0,2600.0,951.0,1810.0,2283.0,2663.0,2025-07-17 17:13:45,71.0,,-1.33521244913028,-2.9681108006649,-1.28348597021432,,1.4269896393769783,,
,2229.0,713.0,2599.0,950.0,1799.0,2282.0,2672.0,2025-07-17 17:13:46,71.0,,-1.33626927293974,-2.96804522030164,-1.28314883366497,,1.2606109757239372,,
,2229.0,714.0,2601.0,951.0,1808.0,2308.0,2687.0,2025-07-17 17:13:47,71.0,,-1.33495964906259,-2.96810110989469,-1.28376506035757,,1.073124429204559,,
,2230.0,715.0,2600.0,951.0,1808.0,2285.0,2665.0,2025-07-17 17:13:48,71.0,,-1.33509366056183,-2.96831257635093,-1.28430351076491,,0.8700738713835885,,
,2229.0,713.0,2598.0,952.0,1817.0,2281.0,2640.0,2025-07-17 17:13:49,71.0,,-1.33479121385227,-2.96776579267194,-1.28322861831143,,0.6568999122671336,,
,2228.0,715.0,2600.0,952.0,1815.0,2279.0,2651.0,2025-07-17 17:13:50,72.0,,-1.33348473683761,-2.96825179442771,-1.28352211913674,,0.43869525918585267,,
,2230.0,713.0,2598.0,952.0,1821.0,2282.0,2674.0,2025-07-17 17:13:51,72.0,,-1.33337564083608,-2.96776715299387,-1.28415939811416,,0.22002372972642115,,
,2229.0,712.0,2599.0,951.0,1803.0,2278.0,2662.0,2025-07-17 17:13:52,73.0,,-1.33222824661865,-2.96786176008099,-1.28388633296295,,0.0048115372442840846,,
,2229.0,714.0,2601.0,952.0,1798.0,2269.0,2647.0,2025-07-17 17:13:53,73.0,,-1.33182450382337,-2.96809226091944,-1.28268745363476,,-0.203689325201769,,
,2229.0,715.0,2603.0,952.0,1793.0,2273.0,2653.0,2025-07-17 17:13:54,74.0,,-1.33194473276777,-2.96790628940451,-1.28379822084503,,-0.4028737418356267,,
,2228.0,714.0,2596.0,948.0,1810.0,2281.0,2653.0,2025-07-17 17:13:55,74.0,,-1.33118198537972,-2.96823404415681,-1.28344713593349,,-0.5907065145647697,,
,2226.0,712.0,2598.0,949.0,1804.0,2281.0,2654.0,2025-07-17 17:13:56,75.0,,-1.33148490995882,-2.9680254786268,-1.28414530712731,,-0.7656137657706891,,
,2229.0,714.0,2602.0,951.0,1820.0,2274.0,2659.0,2025-07-17 17:13:57,75.0,,-1.33204960722781,-2.96835310012947,-1.28395864960486,,-0.92636129753259,,
,2231.0,715.0,2597.0,953.0,1804.0,2258.0,2658.0,2025-07-17 17:13:58,76.0,,-1.3327955123191,-2.96813817899962,-1.28402835297563,,-1.0719362099393468,,
2025-07-17 17:11:47,2229.0,713.0,2599.0,952.0,1812.0,2239.0,2644.0,2025-07-17 17:13:59,77.0,2025/07/17 05:11:47 PM,-1.332561215629,-2.96808519538131,-1.28362683267913,,-1.2014436926891259,,
,2228.0,712.0,2598.0,948.0,1810.0,2267.0,2648.0,2025-07-17 17:14:00,77.0,,-1.3322414165003,-2.96825824620117,-1.28380907386599,,-1.3140258121246624,,
,2227.0,715.0,2599.0,950.0,1830.0,2274.0,2657.0,2025-07-17 17:14:01,77.0,,-1.3326325410436,-2.96786603311515,-1.28446676815487,,-1.408804782017935,,
,2228.0,714.0,2601.0,950.0,1839.0,2267.0,2666.0,2025-07-17 17:14:02,76.0,,-1.33263320315616,-2.968258188169,-1.2845312741026,,-1.4848504423450646,,
,2229.0,715.0,2600.0,951.0,1823.0,2269.0,2656.0,2025-07-17 17:14:03,75.0,,-1.33195410938593,-2.9679628924204,-1.28429174914888,,-1.5411703461692652,,
,2228.0,714.0,2599.0,950.0,1810.0,2267.0,2641.0,2025-07-17 17:14:04,74.0,,-1.33239987146354,-2.96810635798245,-1.2837905620479,,-1.5767203112358947,,
,2229.0,714.0,2598.0,951.0,1830.0,2272.0,2644.0,2025-07-17 17:14:05,74.0,,-1.33271352680117,-2.96789871671088,-1.28385748360513,,-1.5904329608418362,,
,2230.0,714.0,2601.0,950.0,1827.0,2271.0,2639.0,2025-07-17 17:14:06,73.0,,-1.33263328200727,-2.9681774737053,-1.28368108193587,,-1.5812614577249768,,
,2229.0,715.0,2599.0,952.0,1818.0,2263.0,2647.0,2025-07-17 17:14:07,73.0,,-1.33377368605345,-2.9682195239901,-1.28326259729841,,-1.5482353987032378,,
,2229.0,716.0,2602.0,952.0,1827.0,2261.0,2649.0,2025-07-17 17:14:08,72.0,,-1.33241978581975,-2.96820105966413,-1.28380116212996,,-1.4905258154077141,,
,2231.0,712.0,2598.0,952.0,1841.0,2269.0,2660.0,2025-07-17 17:14:09,72.0,,-1.33233201501731,-2.96825065980938,-1.28336098590813,,-1.407516504955165,,
,2229.0,714.0,2598.0,952.0,1839.0,2255.0,2637.0,2025-07-17 17:14:10,72.0,,-1.33173885013837,-2.96803490794247,-1.28299072098596,,-1.2988796097289277,,
,2234.0,714.0,2600.0,950.0,1829.0,2258.0,2643.0,2025-07-17 17:14:11,71.0,,-1.33275725366947,-2.96818840404323,-1.28307749517068,,-1.1646545972897029,,
,2234.0,714.0,2599.0,952.0,1829.0,2250.0,2657.0,2025-07-17 17:14:12,71.0,,-1.33249964401096,-2.96811881277895,-1.28383577634249,,-1.0053313786846918,,
,2232.0,714.0,2600.0,953.0,1822.0,2237.0,2663.0,2025-07-17 17:14:13,71.0,,-1.3328133028318,-2.96814946996167,-1.28365195859853,,-0.8219394665478457,,
,2233.0,712.0,2598.0,949.0,1822.0,2270.0,2638.0,2025-07-17 17:14:14,72.0,,-1.33264169444677,-2.96836062647017,-1.28306866294733,,-0.6161445833910909,,
,2233.0,714.0,2598.0,953.0,1824.0,2275.0,2637.0,2025-07-17 17:14:15,72.0,,-1.33216237607253,-2.96844793214887,-1.28286202435535,,-0.3903509661790503,,
,2234.0,717.0,2599.0,952.0,1821.0,2294.0,2659.0,2025-07-17 17:14:16,72.0,,-1.3322002443228,-2.96833886234234,-1.28260954265692,,-0.14780177509407927,,
,2232.0,716.0,2601.0,952.0,1817.0,2293.0,2663.0,2025-07-17 17:14:17,72.0,,-1.33242213852896,-2.9684478380655,-1.28350450523971,,0.10733707658205659,,
,2233.0,715.0,2597.0,951.0,1817.0,2260.0,2644.0,2025-07-17 17:14:18,72.0,,-1.33230938706206,-2.96840132877792,-1.28291687973468,,0.36993025237060895,,
,2235.0,714.0,2599.0,953.0,1818.0,2272.0,2653.0,2025-07-17 17:14:19,72.0,,-1.33215573354467,-2.96824792177138,-1.28239614048432,,0.6338864007847657,,
,2236.0,715.0,2601.0,954.0,1830.0,2264.0,2651.0,2025-07-17 17:14:20,72.0,,-1.33212035221683,-2.96830178167771,-1.28262572768024,,0.8922521661343731,,
,2237.0,716.0,2601.0,955.0,1835.0,2262.0,2660.0,2025-07-17 17:14:21,72.0,,-1.33197769715149,-2.96801916022245,-1.28298641142657,,1.1374005255697905,,
,2239.0,715.0,2598.0,951.0,1838.0,2266.0,2692.0,2025-07-17 17:14:22,72.0,,-1.33220561330713,-2.96812399261879,-1.28250641187095,,1.3613172029817695,,
,2236.0,715.0,2600.0,954.0,1836.0,2278.0,2659.0,2025-07-17 17:14:23,72.0,,-1.33202677213828,-2.9682253360258,-1.28198854895315,,1.5559771745328965,,
,2238.0,716.0,2598.0,952.0,1828.0,2258.0,2642.0,2025-07-17 17:14:24,72.0,,-1.33203911839262,-2.96817586332392,-1.28260583030491,,1.7137910583899623,,
,2239.0,714.0,2601.0,956.0,1792.0,2255.0,2655.0,2025-07-17 17:14:25,72.0,,-1.33282158503146,-2.96822700796785,-1.28195682258102,,1.828089673866572,,
,2239.0,715.0,2601.0,953.0,1795.0,2251.0,2653.0,2025-07-17 17:14:26,72.0,,-1.33261135677881,-2.9682407917079,-1.28250241184145,,1.8936055434790033,,
,2237.0,716.0,2600.0,955.0,1832.0,2258.0,2638.0,2025-07-17 17:14:27,72.0,,-1.3326769417122,-2.96822213701799,-1.28194090757243,,1.9069040104616295,,
,2239.0,716.0,2602.0,955.0,1819.0,2289.0,2652.0,2025-07-17 17:14:28,72.0,,-1.33240555503174,-2.96820782802396,-1.28231430266224,,1.866715383191148,,
,2242.0,719.0,2604.0,955.0,1820.0,2277.0,2648.0,2025-07-17 17:14:29,72.0,,-1.33286327929821,-2.96843080620895,-1.28258465215731,,1.7741243170135468,,
,2241.0,716.0,2601.0,954.0,1819.0,2274.0,2640.0,2025-07-17 17:14:30,72.0,,-1.33304971216164,-2.96821763096791,-1.28234156680881,,1.6325842075512738,,
,2240.0,716.0,2600.0,957.0,1837.0,2260.0,2656.0,2025-07-17 17:14:31,72.0,,-1.33418959161335,-2.96803456947704,-1.28239919990617,,1.4477423690218172,,
,2243.0,718.0,2600.0,955.0,1837.0,2247.0,2634.0,2025-07-17 17:14:32,72.0,,-1.33321653201271,-2.96815454183287,-1.28303259898829,,1.227084239894973,,
,2240.0,720.0,2602.0,958.0,1817.0,2272.0,2638.0,2025-07-17 17:14:33,72.0,,-1.33397645611849,-2.96818160483228,-1.28250281680625,,0.9794280976623002,,
,2244.0,718.0,2604.0,958.0,1804.0,2284.0,2631.0,2025-07-17 17:14:34,72.0,,-1.33322155199203,-2.96804093248263,-1.28167853177913,,0.7143212394002789,,
,2244.0,719.0,2600.0,957.0,1807.0,2282.0,2627.0,2025-07-17 17:14:35,71.0,,-1.33293301247822,-2.96817561059063,-1.28204776623747,,0.44140048682884886,,
,2245.0,718.0,2602.0,957.0,1819.0,2262.0,2638.0,2025-07-17 17:14:36,71.0,,-1.33316352144888,-2.96820091796742,-1.28231094322257,,0.1697824188785258,,
,2243.0,718.0,2600.0,958.0,1822.0,2254.0,2627.0,2025-07-17 17:14:37,71.0,,-1.33356439107284,-2.96822689050009,-1.28250136627139,,-0.09245757115824756,,
,2244.0,719.0,2603.0,957.0,1831.0,2266.0,2646.0,2025-07-17 17:14:38,71.0,,-1.33305059496042,-2.96833806261313,-1.28112138908398,,-0.3386713817973246,,
,2247.0,719.0,2601.0,958.0,1830.0,2274.0,2651.0,2025-07-17 17:14:39,71.0,,-1.33238164568125,-2.96835613736317,-1.28228522629965,,-0.5638607020168407,,
,2246.0,718.0,2601.0,959.0,1834.0,2267.0,2672.0,2025-07-17 17:14:40,71.0,,-1.3327623642566,-2.96834380240977,-1.2812422192358,,-0.7647260252849861,,
,2247.0,717.0,2601.0,957.0,1831.0,2278.0,2673.0,2025-07-17 17:14:41,71.0,,-1.33280618329297,-2.96834306337604,-1.28208441841664,,-0.9395507083012169,,
,2248.0,718.0,2601.0,959.0,1814.0,2258.0,2673.0,2025-07-17 17:14:42,72.0,,-1.33259031823901,-2.96856346638135,-1.28119150325234,,-1.087944785249845,,
,2248.0,721.0,2603.0,961.0,1802.0,2260.0,2673.0,2025-07-17 17:14:43,72.0,,-1.33308351814571,-2.96846178566433,-1.28122526445328,,-1.2104859112542812,,
,2250.0,720.0,2603.0,962.0,1822.0,2282.0,2652.0,2025-07-17 17:14:44,72.0,,-1.33380858148058,-2.96829054738009,-1.28134509103371,,-1.3083031837294192,,
,2252.0,719.0,2601.0,958.0,1819.0,2272.0,2666.0,2025-07-17 17:14:45,73.0,,-1.33326464032098,-2.96823935568678,-1.28168275844769,,-1.3826533934674288,,
,2252.0,718.0,2605.0,962.0,1828.0,2265.0,2669.0,2025-07-17 17:14:46,72.0,,-1.33368851081372,-2.96839558878115,-1.28106929344591,,-1.4345384808978467,,
,2251.0,721.0,2605.0,962.0,1819.0,2272.0,2671.0,2025-07-17 17:14:47,72.0,,-1.33330331998008,-2.96843709973474,-1.28098654631946,,-1.4644077221407166,,
,2253.0,719.0,2605.0,959.0,1813.0,2280.0,2666.0,2025-07-17 17:14:48,72.0,,-1.33320884544979,-2.96833321223812,-1.28055090808725,,-1.4719787061701024,,
,2251.0,720.0,2603.0,962.0,1812.0,2287.0,2652.0,2025-07-17 17:14:49,72.0,,-1.33310996920218,-2.96813775985866,-1.28052213557149,,-1.4561980525184341,,
,2254.0,720.0,2604.0,961.0,1827.0,2290.0,2643.0,2025-07-17 17:14:50,72.0,,-1.33295429043328,-2.96824370988053,-1.28041972753629,,-1.4153470403402388,,
,2256.0,724.0,2605.0,963.0,1804.0,2267.0,2637.0,,,,-1.33407586229541,-2.96839736993254,-1.28096150943348,,-1.3472803892622498,,
,2255.0,722.0,2602.0,965.0,1791.0,2264.0,2638.0,,,,-1.33453330460586,-2.9683980698354,-1.28021558742086,,-1.2497704584861817,,
,2256.0,722.0,2603.0,965.0,1800.0,2255.0,2630.0,,,,-1.33470926076642,-2.96833969764384,-1.28084154030136,,-1.1209165241154724,,
,2253.0,720.0,2604.0,963.0,1820.0,2250.0,2643.0,,,,-1.33464497678511,-2.9684033103234,-1.28072643036408,,-0.9595715368852645,,
,2255.0,721.0,2603.0,965.0,1840.0,2278.0,2686.0,,,,-1.33459991158582,-2.96829976150704,-1.2817654150781,,-0.7657377051586399,,
,2256.0,722.0,2604.0,963.0,1829.0,2262.0,2687.0,,,,-1.33559550219845,-2.96853930436987,-1.28139284967976,,-0.5408869558216645,,
,2255.0,722.0,2601.0,964.0,1827.0,2259.0,2681.0,,,,-1.33654489971428,-2.96867791775978,-1.2812216692735,,-0.28817142532550316,,
,2256.0,720.0,2604.0,961.0,1820.0,2288.0,2663.0,,,,-1.33765929783108,-2.96874375288651,-1.28197189060307,,-0.012500840743377544,,
,2256.0,722.0,2605.0,966.0,1806.0,2300.0,2648.0,,,,-1.33776731886768,-2.96857794687471,-1.28141553501498,,0.27952373987822177,,
,2255.0,722.0,2604.0,965.0,1809.0,2285.0,2651.0,,,,-1.33776822076527,-2.96853555239638,-1.2816715803452,,0.5798181244526665,,
,2253.0,723.0,2605.0,964.0,1817.0,2289.0,2652.0,,,,-1.33863408977893,-2.96864657868438,-1.28264173706134,,0.87915227290286,,
,2253.0,721.0,2604.0,964.0,1808.0,2289.0,2673.0,,,,-1.34015349580017,-2.96829944659894,-1.28257422051845,,1.1675940575983295,,
,2252.0,720.0,2603.0,964.0,1803.0,2301.0,2665.0,,,,-1.34047261438923,-2.96867918524874,-1.28245718686065,,1.4350286841617537,,
,2250.0,721.0,2604.0,964.0,1787.0,2292.0,2648.0,,,,-1.34080802256177,-2.96883296986426,-1.28283033468638,,1.6717166764154106,,
,2249.0,721.0,2605.0,964.0,1787.0,2268.0,2643.0,,,,-1.3408852934382,-2.96868414128564,-1.28261229235153,,1.8688494774725124,,
,2248.0,720.0,2605.0,963.0,1789.0,2279.0,2677.0,,,,-1.34179291721663,-2.9684616643525,-1.28194633638022,,2.0190608193054316,,
,2246.0,721.0,2602.0,960.0,1792.0,2289.0,2663.0,,,,-1.34175215971204,-2.968220708243,-1.28300700261533,,2.1168544679041927,,
,2244.0,718.0,2603.0,963.0,1784.0,2279.0,2636.0,,,,-1.3418839256427,-2.96858614483631,-1.28344936709398,,2.158914909277993,,
,2243.0,718.0,2605.0,961.0,1799.0,2283.0,2657.0,,,,-1.34219542158738,-2.96869603673415,-1.28340032960911,,2.1442767244304948,,
,2240.0,719.0,2602.0,960.0,1797.0,2295.0,2662.0,,,,-1.34220451582729,-2.96845225665243,-1.28278623337081,,2.0743400963173566,,
,2242.0,718.0,2603.0,959.0,1814.0,2299.0,2642.0,,,,-1.34219101729937,-2.96859233884581,-1.28307145170591,,1.952733146729816,,
,2240.0,717.0,2601.0,959.0,1790.0,2292.0,2651.0,,,,-1.34213092816263,-2.96865391875898,-1.28312480938576,,1.7850354735373102,,
,2240.0,718.0,2603.0,958.0,1788.0,2288.0,2643.0,,,,-1.34217652602283,-2.96860045809113,-1.28297362316885,,1.5783898349882142,,
,2238.0,719.0,2604.0,958.0,1800.0,2275.0,2654.0,,,,-1.34195296600208,-2.96861448732865,-1.28250486708437,,1.3410385782230496,,
,2237.0,717.0,2603.0,958.0,1821.0,2289.0,2642.0,,,,-1.34289732296483,-2.96855076115966,-1.2834162822039,,1.0818265445483206,,
,2233.0,715.0,2601.0,955.0,1814.0,2315.0,2652.0,,,,-1.34201469877774,-2.96826799605173,-1.28270972990995,,0.8097121008244472,,
,2235.0,718.0,2602.0,957.0,1829.0,2301.0,2641.0,,,,-1.34166771683522,-2.96865015949143,-1.28229347571458,,0.5333230216906882,,
,2236.0,716.0,2600.0,956.0,1810.0,2272.0,2647.0,,,,-1.34188155761191,-2.96851004350681,-1.28290064677861,,0.2605853371859976,,
,2234.0,715.0,2606.0,957.0,1797.0,2285.0,2651.0,,,,-1.34264324751725,-2.96841886252191,-1.28262195288304,,-0.0015575258938220764,,
,2233.0,715.0,2600.0,954.0,1800.0,2289.0,2657.0,,,,-1.34253235188587,-2.96869797832749,-1.28325394965229,,-0.24732932052188555,,
,2233.0,718.0,2601.0,956.0,1800.0,2282.0,2663.0,,,,-1.34300196572311,-2.96853703632357,-1.2826008696478,,-0.4722135544664,,
,2234.0,718.0,2602.0,955.0,1799.0,2310.0,2668.0,,,,-1.34344636465882,-2.96837549803573,-1.28378767375212,,-0.6729661149109747,,
,2234.0,716.0,2603.0,958.0,1795.0,2288.0,2693.0,,,,-1.34320755487369,-2.9685266453013,-1.28374160547079,,-0.8475643382248389,,
,2232.0,717.0,2602.0,956.0,1802.0,2288.0,2675.0,,,,-1.34393507544908,-2.96853315388237,-1.28258386336554,,-0.9951096443289466,,
,2233.0,714.0,2601.0,955.0,1795.0,2278.0,2645.0,,,,-1.34294521068655,-2.96850263738905,-1.28338260989501,,-1.1156985806889437,,
,2232.0,715.0,2605.0,955.0,1785.0,2281.0,2677.0,,,,-1.34222384489278,-2.96854368280236,-1.28317141314432,,-1.2102731989944882,,
,2231.0,717.0,2602.0,956.0,1791.0,2283.0,2677.0,,,,-1.34319095496099,-2.96847439091804,-1.28313433086862,,-1.280457776577769,,
,2230.0,716.0,2600.0,955.0,1786.0,2277.0,2678.0,,,,-1.34286385196482,-2.96846696108279,-1.28291896480516,,-1.3283862311055405,,
,2228.0,714.0,2603.0,955.0,1814.0,2287.0,2663.0,,,,-1.34207872653661,-2.96854379931588,-1.28297005478519,,-1.3565234876993986,,
,2230.0,715.0,2605.0,954.0,1797.0,2267.0,2661.0,,,,-1.34338151829145,-2.96828287942201,-1.28247178666655,,-1.3674841686905177,,
,2232.0,715.0,2603.0,955.0,1802.0,2281.0,2638.0,,,,-1.34318327626536,-2.96838335743408,-1.28204972636141,,-1.3638527753027043,,
,2231.0,717.0,2604.0,955.0,1801.0,2290.0,2650.0,,,,-1.34342906993696,-2.96829505573534,-1.28214141733616,,-1.3480106735460293,,
,2231.0,717.0,2603.0,955.0,1800.0,2289.0,2645.0,,,,-1.34251984993732,-2.96844612384464,-1.28308831807559,,-1.3219764833447456,,
,2232.0,715.0,2603.0,955.0,1795.0,2291.0,2644.0,,,,-1.34284316940964,-2.96824414327081,-1.28173279300117,,-1.2872677402586175,,
,2232.0,715.0,2603.0,956.0,1787.0,2288.0,2656.0,,,,-1.34298996200036,-2.96848001051351,-1.28134132530152,,-1.2447927619136625,,
,2229.0,715.0,2602.0,955.0,1779.0,2283.0,2667.0,,,,-1.34286349207438,-2.96820542058796,-1.28161019323618,,-1.1947822467560847,,
,2227.0,716.0,2603.0,953.0,1782.0,2281.0,2669.0,,,,-1.34273261941111,-2.96823310272451,-1.28111620410608,,-1.136769944521005,,
,2229.0,715.0,2602.0,952.0,1788.0,2284.0,2657.0,,,,-1.34323311254148,-2.96823148391811,-1.2816143948716,,-1.069630443292126,,
,2229.0,715.0,2604.0,954.0,1794.0,2280.0,2651.0,,,,-1.34329611242338,-2.96832865313828,-1.28243547348235,,-0.9916794344596238,,
,2228.0,718.0,2604.0,956.0,1776.0,2268.0,2647.0,,,,-1.34374888716508,-2.96805377208968,-1.28184178554299,,-0.9008375427638159,,
,2227.0,715.0,2602.0,956.0,1779.0,2281.0,2660.0,,,,-1.34216303371601,-2.96828322776883,-1.28182375395498,,-0.7948529305795187,,
,2226.0,716.0,2603.0,954.0,1774.0,2280.0,2673.0,,,,-1.34234337792915,-2.96842250825524,-1.28194034589986,,-0.6715707981937382,,
,2227.0,715.0,2600.0,954.0,1774.0,2274.0,2689.0,,,,-1.34237084942057,-2.96820747597172,-1.28179725180171,,-0.5292306279571805,,
,2228.0,717.0,2606.0,956.0,1779.0,2281.0,2667.0,,,,-1.34237922944887,-2.96803144925461,-1.28183749525315,,-0.36676613873791997,,
,2229.0,712.0,2602.0,956.0,1772.0,2302.0,2653.0,,,,-1.34242314396736,-2.96829613542344,-1.28134185359229,,-0.18407998376889576,,
,2227.0,715.0,2605.0,956.0,1769.0,2306.0,2644.0,,,,-1.34180871845929,-2.96820967909958,-1.28094744071038,,0.017734023558580534,,
,2227.0,714.0,2600.0,953.0,1784.0,2290.0,2652.0,,,,-1.3418956959231,-2.96826492778557,-1.28088853103421,,0.2362443377444175,,
,2227.0,713.0,2603.0,954.0,1773.0,2288.0,2649.0,,,,-1.34164950371213,-2.96794787269147,-1.28079371555888,,0.4676277443257521,,
,2227.0,716.0,2606.0,953.0,1777.0,2267.0,2654.0,,,,-1.34148175635674,-2.96807727557358,-1.28077812201307,,0.7067178095012516,,
,2226.0,716.0,2604.0,955.0,1777.0,2275.0,2666.0,,,,-1.34171893762636,-2.96781629638568,-1.28108736241973,,0.9471579629117347,,
,2225.0,716.0,2602.0,953.0,1774.0,2293.0,2645.0,,,,-1.34109751756977,-2.96784769087378,-1.2800463389654,,1.18165403808213,,
,2225.0,715.0,2603.0,953.0,1788.0,2279.0,2654.0,,,,-1.34163190741722,-2.96810992432329,-1.27966616457321,,1.4023139188737153,,
,2228.0,719.0,2604.0,956.0,1794.0,2307.0,2657.0,,,,-1.34142374531467,-2.96784216514784,-1.28066825061674,,1.6010551756281108,,
,2227.0,715.0,2605.0,954.0,1811.0,2273.0,2671.0,,,,-1.34120076355687,-2.96798586335904,-1.2801572286967,,1.7700554694218145,,
,2227.0,718.0,2606.0,955.0,1803.0,2281.0,2675.0,,,,-1.34132342392721,-2.96795772127142,-1.27959223075369,,1.9022154258084505,,
,2225.0,716.0,2600.0,953.0,1810.0,2282.0,2659.0,,,,-1.34124351266822,-2.96803631389259,-1.27929720776844,,1.9916001739590206,,
,2227.0,718.0,2603.0,954.0,1784.0,2308.0,2650.0,,,,-1.341343069923,-2.96795398798439,-1.27996641100226,,2.0338245367798975,,
,2229.0,717.0,2605.0,955.0,1779.0,2303.0,2671.0,,,,-1.34075904308931,-2.96786909907275,-1.27921394033277,,2.0263487532397835,,
,2230.0,718.0,2604.0,957.0,1775.0,2293.0,2678.0,,,,-1.34101871031469,-2.96766909222031,-1.27898800019815,,1.968657284524158,,
,2229.0,716.0,2603.0,955.0,1784.0,2258.0,2649.0,,,,-1.34020141482651,-2.96785709715096,-1.27973175772004,,1.8623028213826704,,
,2229.0,716.0,2605.0,953.0,1785.0,2296.0,2646.0,,,,-1.34032426054616,-2.96797926477139,-1.27987326572406,,1.7108102514741574,,
,2228.0,719.0,2604.0,957.0,1784.0,2311.0,2668.0,,,,-1.34000486686381,-2.96795489742932,-1.27815842175905,,1.5194493061001169,,
,2233.0,715.0,2606.0,955.0,1789.0,2277.0,2682.0,,,,-1.33976976061256,-2.96791813763435,-1.27854588795648,,1.2948976689799434,,
,2231.0,718.0,2605.0,956.0,1776.0,2277.0,2696.0,,,,-1.33952121196123,-2.96758289097751,-1.27958128596391,,1.0448264459236938,,
,2230.0,717.0,2606.0,956.0,1773.0,2279.0,2678.0,,,,-1.3397076669875,-2.96777096542832,-1.27942249057548,,0.7774456818209218,,
,2232.0,718.0,2605.0,955.0,1764.0,2283.0,2694.0,,,,-1.33979601691561,-2.96776007241339,-1.27807454507206,,0.5010486440304466,,
2025-07-17 17:11:48,2232.0,717.0,2605.0,958.0,1780.0,2291.0,2690.0,,,2025/07/17 05:11:48 PM,-1.33951003913331,-2.96749375769947,-1.27871867123508,,0.2235903736474408,,
,2233.0,719.0,2605.0,957.0,1792.0,2290.0,2683.0,,,,-1.33938728295199,-2.96747455016098,-1.27856198021191,,-0.047670371857378754,,
,2232.0,717.0,2605.0,956.0,1775.0,2284.0,2661.0,,,,-1.33879568349395,-2.96762853055694,-1.27865689040495,,-0.30644497625439454,,
,2234.0,717.0,2606.0,959.0,1786.0,2276.0,2670.0,,,,-1.33887963134196,-2.96774856528348,-1.27773381929832,,-0.5475930223380365,,
,2233.0,719.0,2607.0,958.0,1772.0,2288.0,2674.0,,,,-1.33946424344321,-2.96753780135794,-1.27773556290846,,-0.7672022492847786,,
,2232.0,719.0,2606.0,959.0,1764.0,2292.0,2662.0,,,,-1.33844071863678,-2.96764626985515,-1.27821174925425,,-0.9625767961442007,,
,2235.0,720.0,2607.0,958.0,1794.0,2296.0,2685.0,,,,-1.33893924586019,-2.96774396191498,-1.27768149182789,,-1.1321474453407592,,
,2234.0,719.0,2606.0,955.0,1794.0,2281.0,2670.0,,,,-1.33875437632169,-2.96773183834875,-1.27831555394125,,-1.2753228080413013,,
,2236.0,720.0,2607.0,958.0,1788.0,2266.0,2667.0,,,,-1.33851489276849,-2.96794861380123,-1.27674864050886,,-1.3923029865815821,,
,2236.0,720.0,2607.0,959.0,1786.0,2269.0,2668.0,,,,-1.338674857116,-2.96765418527951,-1.27816620770576,,-1.4838770514794872,,
,2237.0,722.0,2606.0,958.0,1789.0,2270.0,2669.0,,,,-1.33858969770126,-2.96768688819146,-1.27726170376231,,-1.5512230137847756,,
,2235.0,719.0,2604.0,954.0,1784.0,2282.0,2654.0,,,,-1.33785601951915,-2.96754894165751,-1.27799064184459,,-1.5957246998442898,,
,2236.0,718.0,2606.0,958.0,1787.0,2268.0,2650.0,,,,-1.3383330203298,-2.96778451055148,-1.2775704417693,,-1.6188151747610078,,
,2239.0,721.0,2607.0,960.0,1779.0,2285.0,2681.0,,,,-1.3387148918615,-2.96747081709653,-1.27729707787244,,-1.6218520513758905,,
,2238.0,721.0,2604.0,958.0,1755.0,2279.0,2692.0,,,,-1.3380455696884,-2.96745322103709,-1.27745026791663,,-1.6060265684576178,,
,2237.0,723.0,2606.0,961.0,1803.0,2297.0,2650.0,,,,-1.33711254672841,-2.96743254481077,-1.27585018031874,,-1.5723057139011143,,
,2238.0,722.0,2607.0,960.0,1787.0,2298.0,2648.0,,,,-1.33790809321325,-2.96739537811071,-1.27646147784773,,-1.5214048236592577,,
,2239.0,720.0,2608.0,960.0,1771.0,2277.0,2662.0,,,,-1.33759450534513,-2.96716991087747,-1.27666001380516,,-1.4537870278731662,,
,2240.0,721.0,2607.0,965.0,1785.0,2291.0,2665.0,,,,-1.33703310653128,-2.96755911006004,-1.27636664915649,,-1.3696857269526954,,
,2241.0,723.0,2606.0,961.0,1788.0,2286.0,2661.0,,,,-1.33737265288447,-2.96746588282989,-1.27671890888821,,-1.269146981434766,,
,2238.0,723.0,2609.0,959.0,1795.0,2287.0,2656.0,,,,-1.33737524476316,-2.96781843854582,-1.27654452833654,,-1.1520901121562164,,
,2240.0,722.0,2609.0,961.0,1792.0,2290.0,2664.0,,,,-1.33745243621406,-2.96759337731718,-1.27579375483067,,-1.0183864768908395,,
,2242.0,723.0,2608.0,961.0,1779.0,2305.0,2684.0,,,,-1.33731009136419,-2.9672868541643,-1.27613552581757,,-0.867957627750472,,
,2242.0,724.0,2607.0,963.0,1785.0,2310.0,2682.0,,,,-1.33692352189369,-2.967350781702,-1.27632476732351,,-0.7008941238649026,,
,2240.0,723.0,2609.0,960.0,1791.0,2291.0,2668.0,,,,-1.33654931148424,-2.96740108565435,-1.27492873205569,,-0.5175946508597141,,
,2244.0,721.0,2608.0,962.0,1790.0,2279.0,2666.0,,,,-1.33710265258354,-2.96727376913363,-1.27626535859877,,-0.31892166843372854,,
,2243.0,721.0,2609.0,964.0,1785.0,2257.0,2654.0,,,,-1.33644968447302,-2.96733042904316,-1.27502671214436,,-0.10636491225052351,,
,2246.0,722.0,2607.0,962.0,1774.0,2270.0,2646.0,,,,-1.33622168939277,-2.96718771065524,-1.27576780383468,,0.11780154500787482,,
,2245.0,723.0,2609.0,965.0,1777.0,2265.0,2652.0,,,,-1.33590630671582,-2.96730034958497,-1.27512231999128,,0.3503882049597527,,
,2243.0,723.0,2606.0,962.0,1799.0,2268.0,2650.0,,,,-1.3364053207425,-2.96711648470697,-1.27526461200108,,0.5872079510437868,,
,2246.0,724.0,2607.0,965.0,1785.0,2298.0,2658.0,,,,-1.33609076699824,-2.96712440493908,-1.27507330324527,,0.823065742395509,,
,2246.0,723.0,2607.0,963.0,1781.0,2271.0,2662.0,,,,-1.33618217881551,-2.96744707720408,-1.27536479145353,,1.0518390915128368,,
,2249.0,726.0,2609.0,965.0,1781.0,2279.0,2674.0,,,,-1.33610774972705,-2.96744923792039,-1.27556336301026,,1.2666602521378993,,
,2247.0,725.0,2608.0,964.0,1786.0,2286.0,2677.0,,,,-1.33667953882891,-2.96724903435229,-1.27504480756396,,1.4602003846634937,,
,2248.0,724.0,2609.0,965.0,1782.0,2266.0,2689.0,,,,-1.33678882451961,-2.96712627167724,-1.27482258420676,,1.6250441232977877,,
,2247.0,726.0,2612.0,966.0,1772.0,2273.0,2701.0,,,,-1.3370288258822,-2.96735355415728,-1.27494661236713,,1.7541313148901003,,
,2249.0,726.0,2610.0,968.0,1783.0,2271.0,2675.0,,,,-1.33734701595215,-2.96735390088785,-1.27559150725476,,1.8412323879162498,,
,2249.0,727.0,2611.0,963.0,1787.0,2286.0,2676.0,,,,-1.33819542011244,-2.9671427949342,-1.27541537706531,,1.8814159551522414,,
,2246.0,726.0,2608.0,967.0,1791.0,2302.0,2677.0,,,,-1.33909728780946,-2.96729501360489,-1.27572775109169,,1.871463089862561,,
,2250.0,727.0,2608.0,964.0,1789.0,2290.0,2655.0,,,,-1.33877576177765,-2.96723191289046,-1.27559506535044,,1.8101834713950147,,
,2250.0,726.0,2609.0,968.0,1788.0,2304.0,2643.0,,,,-1.3402332373788,-2.96718290468354,-1.27574867008083,,1.6985951076936767,,
,2246.0,727.0,2609.0,968.0,1794.0,2316.0,2647.0,,,,-1.34066584283996,-2.96718987792292,-1.27600941156963,,1.5399416211945791,,
,2246.0,725.0,2608.0,965.0,1784.0,2280.0,2666.0,,,,-1.340544050193,-2.96751692755774,-1.27676831679108,,1.3395379708171538,,
,2247.0,723.0,2609.0,964.0,1770.0,2299.0,2679.0,,,,-1.34033081179739,-2.96729545806223,-1.27595024833145,,1.104454574809708,,
,2245.0,726.0,2612.0,966.0,1781.0,2286.0,2673.0,,,,-1.34079875430227,-2.96708693435396,-1.27624034907489,,0.8430679733261389,,
,2245.0,724.0,2607.0,967.0,1774.0,2289.0,2663.0,,,,-1.34069310023654,-2.9669247180121,-1.27645534159138,,0.5645205745281845,,
,2241.0,722.0,2608.0,963.0,1780.0,2282.0,2661.0,,,,-1.33961123722244,-2.96727361918686,-1.27563266278546,,0.27814083569514136,,
,2241.0,720.0,2603.0,962.0,1771.0,2299.0,2682.0,,,,-1.3403381253589,-2.96698714637176,-1.27582667499584,,-0.00712230297309568,,
,2239.0,722.0,2608.0,963.0,1756.0,2275.0,2665.0,,,,-1.33975062615399,-2.96743956491944,-1.27611619517009,,-0.28320067714793334,,
,2239.0,723.0,2610.0,964.0,1758.0,2279.0,2676.0,,,,-1.34035913172022,-2.96704212466245,-1.2753772076365,,-0.5433028709479587,,
,2235.0,722.0,2607.0,962.0,1774.0,2279.0,2685.0,,,,-1.3408854165751,-2.96757917603808,-1.27555322449011,,-0.7821766683549258,,
,2234.0,719.0,2608.0,960.0,1776.0,2277.0,2670.0,,,,-1.34082618829766,-2.96716192024854,-1.27600329260284,,-0.9962241949022729,,
,2233.0,721.0,2607.0,959.0,1788.0,2290.0,2646.0,,,,-1.34073087111651,-2.96735131644881,-1.27555062908251,,-1.1834703590435494,,
,2231.0,719.0,2609.0,960.0,1785.0,2298.0,2647.0,,,,-1.34167144086132,-2.96742773286709,-1.27575727393018,,-1.3433982904853898,,
,2231.0,719.0,2607.0,959.0,1782.0,2300.0,2654.0,,,,-1.34180245545424,-2.96750612897742,-1.2765600900276,,-1.4766764282309592,,
,2228.0,718.0,2606.0,957.0,1789.0,2297.0,2643.0,,,,-1.34074367470128,-2.96749273346199,-1.2760009586957,,-1.584810173406742,,
,2229.0,718.0,2606.0,956.0,1791.0,2309.0,2656.0,,,,-1.34073597739578,-2.96766058099314,-1.27633736340823,,-1.6697561738360422,,
,2227.0,718.0,2606.0,958.0,1777.0,2305.0,2674.0,,,,-1.34091351832836,-2.96762099880468,-1.27584056883507,,-1.733539069420365,,
,2228.0,718.0,2607.0,957.0,1786.0,2316.0,2682.0,,,,-1.34074078019539,-2.96786667118304,-1.27619579577301,,-1.7779088048265594,,
,2224.0,719.0,2607.0,955.0,1776.0,2316.0,2671.0,,,,-1.34069714134563,-2.96732211201174,-1.27571104587151,,-1.8040715318260823,,
,2225.0,717.0,2605.0,956.0,1779.0,2304.0,2655.0,,,,-1.34099845521213,-2.96723709444961,-1.27541846853103,,-1.8125190301310177,,
,2225.0,717.0,2605.0,955.0,1788.0,2304.0,2681.0,,,,-1.34048802572959,-2.96733245719577,-1.27566598492841,,-1.802971060887324,,
,2229.0,720.0,2607.0,957.0,1768.0,2314.0,2680.0,,,,-1.3415785124555,-2.9673802871478,-1.27509029764225,,-1.774432971989818,,
,2223.0,716.0,2604.0,954.0,1769.0,2313.0,2686.0,,,,-1.34088218484867,-2.96708660785335,-1.27638089836517,,-1.7253583217873105,,
,2223.0,715.0,2605.0,953.0,1766.0,2292.0,2647.0,,,,-1.34106279781161,-2.96708697600517,-1.27553698438841,,-1.6538947104533315,,
,2221.0,718.0,2604.0,952.0,1760.0,2275.0,2671.0,,,,-1.34064367110146,-2.96721152927384,-1.27468279807044,,-1.5581820938411104,,
,2223.0,717.0,2606.0,954.0,1784.0,2283.0,2668.0,,,,-1.34048051418434,-2.96713598725475,-1.27509000782134,,-1.4366682165878804,,
,2223.0,719.0,2606.0,956.0,1789.0,2281.0,2665.0,,,,-1.34040078641158,-2.96690385003312,-1.2753548875921,,-1.2884063508117523,,
,2217.0,716.0,2607.0,952.0,1784.0,2277.0,2660.0,,,,-1.34017585061164,-2.96721972156472,-1.27508872064249,,-1.1133059516163792,,
,2221.0,716.0,2607.0,952.0,1776.0,2277.0,2679.0,,,,-1.34044801193872,-2.96716441927926,-1.2752110514522,,-0.9123156372433142,,
,2219.0,716.0,2605.0,953.0,1791.0,2277.0,2664.0,,,,-1.34115091234582,-2.96719824465289,-1.27456982072808,,-0.6875279243816035,,
,2221.0,715.0,2604.0,954.0,1788.0,2281.0,2662.0,,,,-1.34116582667447,-2.96717355415843,-1.27519136085961,,-0.4422043294121111,,
,2220.0,718.0,2607.0,952.0,1780.0,2279.0,2686.0,,,,-1.34137028193593,-2.96714117011768,-1.27568345588547,,-0.1807263778556947,,
,2221.0,717.0,2611.0,954.0,1778.0,2285.0,2666.0,,,,-1.34119460276703,-2.96731004693013,-1.27582398586619,,0.09151775352653418,,
,2219.0,716.0,2605.0,954.0,1783.0,2288.0,2649.0,,,,-1.34221497078767,-2.96717762400814,-1.27509774576279,,0.3682995263646776,,
,2222.0,717.0,2608.0,950.0,1778.0,2288.0,2666.0,,,,-1.34183528967693,-2.96731796819483,-1.27493499988945,,0.642757853947082,,
,2218.0,717.0,2607.0,952.0,1773.0,2306.0,2696.0,,,,-1.34209409664787,-2.96720127192493,-1.27618225439843,,0.907637948100649,,
,2220.0,716.0,2605.0,952.0,1774.0,2314.0,2681.0,,,,-1.34195461743619,-2.9672847982017,-1.27643492700329,,1.1555518100953746,,
,2219.0,718.0,2607.0,949.0,1778.0,2293.0,2676.0,,,,-1.34226139894476,-2.96766477103758,-1.27658004223461,,1.3792517996927287,,
,2221.0,716.0,2607.0,953.0,1766.0,2289.0,2672.0,,,,-1.34196353797229,-2.96749333919816,-1.27486480484662,,1.5719090211849998,,
,2220.0,715.0,2604.0,954.0,1766.0,2308.0,2700.0,,,,-1.34130943614843,-2.96705892518544,-1.27548671797909,,1.7273879574223971,,
,2218.0,715.0,2604.0,952.0,1765.0,2315.0,2690.0,,,,-1.34202871694843,-2.96716686959946,-1.27592275511737,,1.8405078757188231,,
,2217.0,715.0,2605.0,949.0,1785.0,2306.0,2687.0,,,,-1.34082881907656,-2.96730273299209,-1.27545836889451,,1.9072801100188765,,
,2218.0,713.0,2604.0,950.0,1760.0,2298.0,2694.0,,,,-1.34184432143193,-2.96694857242213,-1.27489465692036,,1.9251086022126436,,
,2218.0,717.0,2606.0,953.0,1760.0,2300.0,2698.0,,,,-1.34164756463011,-2.96712409658283,-1.27444619262736,,1.8929396222078319,,
,2217.0,718.0,2607.0,951.0,1770.0,2308.0,2665.0,,,,-1.34180837651349,-2.96708691893314,-1.27449394369488,,1.8113464522935803,,
,2215.0,715.0,2604.0,951.0,1781.0,2310.0,2680.0,,,,-1.34090525441227,-2.96679181611514,-1.27385453861437,,1.6825372430265733,,
,2216.0,713.0,2605.0,951.0,1774.0,2305.0,2663.0,,,,-1.33978028675228,-2.96714773623649,-1.27301548352959,,1.510279772138773,,
,2216.0,716.0,2604.0,951.0,1771.0,2297.0,2628.0,,,,-1.34047777435796,-2.9670378032796,-1.27388816996522,,1.2997447227353276,,
,2219.0,715.0,2607.0,950.0,1768.0,2279.0,2645.0,,,,-1.34009989699312,-2.96697813853149,-1.2739132952405,,1.0572775366526046,,
,2214.0,716.0,2607.0,950.0,1772.0,2288.0,2656.0,,,,-1.33966615689644,-2.96724001240198,-1.27353755983181,,0.7901159162520313,,
,2216.0,713.0,2606.0,949.0,1777.0,2284.0,2655.0,,,,-1.33902470126433,-2.96726351568535,-1.2735676338116,,0.5060743393843681,,
,2215.0,715.0,2607.0,950.0,1783.0,2266.0,2657.0,,,,-1.33943689165208,-2.96716923853267,-1.27393557571072,,0.2132181609805568,,
,2219.0,714.0,2604.0,951.0,1812.0,2279.0,2631.0,,,,-1.33975985630282,-2.96720761774246,-1.27335462976919,,-0.08045161712107465,,
,2218.0,714.0,2606.0,951.0,1813.0,2276.0,2647.0,,,,-1.33963348120709,-2.9672117958389,-1.27306939913161,,-0.3672851998352243,,
,2217.0,714.0,2606.0,952.0,1799.0,2277.0,2696.0,,,,-1.3386964460215,-2.96700944336864,-1.27331542490622,,-0.6402290089440831,,
,2214.0,712.0,2605.0,948.0,1782.0,2286.0,2678.0,,,,-1.33918017095309,-2.96704638528927,-1.27350481654332,,-0.8930195427010692,,
,2217.0,715.0,2607.0,950.0,1778.0,2285.0,2653.0,,,,-1.33890494565125,-2.96682275856031,-1.27324743806617,,-1.120320249143336,,
,2220.0,719.0,2606.0,952.0,1779.0,2311.0,2667.0,,,,-1.33920335183735,-2.96690164286299,-1.27352411533931,,-1.3177982800224415,,
,2217.0,715.0,2605.0,952.0,1768.0,2301.0,2669.0,,,,-1.33908563030112,-2.96692296443294,-1.27343309006793,,-1.4821403793818388,,
,2220.0,715.0,2607.0,948.0,1772.0,2274.0,2655.0,,,,-1.33941283363654,-2.96684344762831,-1.27392036784047,,-1.6110099755243132,,
,2217.0,716.0,2605.0,951.0,1770.0,2268.0,2653.0,,,,-1.33917255273163,-2.96711742079645,-1.27334714617629,,-1.70295133698391,,
,2218.0,716.0,2606.0,951.0,1787.0,2275.0,2637.0,,,,-1.33840192322782,-2.96688275174523,-1.27301303736767,,-1.7572513064569442,,
,2221.0,716.0,2605.0,950.0,1788.0,2281.0,2643.0,,,,-1.33887847535543,-2.96665100364619,-1.27389545428439,,-1.7737738234288836,,
,2220.0,713.0,2606.0,951.0,1801.0,2264.0,2667.0,,,,-1.33836721574515,-2.96695273943734,-1.27345216000543,,-1.7527861606722586,,
,2222.0,714.0,2605.0,948.0,1773.0,2284.0,2648.0,,,,-1.33812800174129,-2.96686337489699,-1.27267174880486,,-1.6947978718437122,,
,2220.0,716.0,2608.0,951.0,1779.0,2293.0,2667.0,,,,-1.33776157056588,-2.96681380717432,-1.27324540849108,,-1.6004337005861997,,
,2222.0,718.0,2607.0,951.0,1784.0,2311.0,2675.0,,,,-1.33759576612237,-2.96656294956555,-1.27272019648933,,-1.4703600849901206,,
,2218.0,715.0,2604.0,951.0,1778.0,2300.0,2682.0,,,,-1.33829631973365,-2.96681493339999,-1.27318282632147,,-1.3052811667722122,,
,2220.0,716.0,2605.0,950.0,1783.0,2287.0,2681.0,,,,-1.3377829957019,-2.96705502949487,-1.27322015603105,,-1.106014115827779,,
,2220.0,716.0,2605.0,951.0,1783.0,2275.0,2676.0,,,,-1.33829380148593,-2.96705345111523,-1.27414990625717,,-0.8736452034861727,,
,2224.0,716.0,2603.0,951.0,1795.0,2300.0,2657.0,,,,-1.33823781639836,-2.96697254130858,-1.27405117432849,,-0.6097579414146322,,
,2222.0,717.0,2607.0,951.0,1781.0,2302.0,2641.0,,,,-1.33924212339542,-2.96714799375065,-1.27446401380126,,-0.3167134959245435,,
,2222.0,716.0,2605.0,951.0,1775.0,2269.0,2652.0,,,,-1.33899853659172,-2.96721296604621,-1.27356973912712,,0.002047667309415076,,
,2221.0,717.0,2607.0,952.0,1780.0,2275.0,2634.0,,,,-1.33841149865613,-2.96702451293874,-1.27344472661834,,0.34172426552142765,,
,2225.0,718.0,2608.0,952.0,1772.0,2261.0,2653.0,,,,-1.33850649618882,-2.96714725591569,-1.27405019095228,,0.6959420145176628,,
,2223.0,714.0,2607.0,954.0,1783.0,2264.0,2669.0,,,,-1.33871697307999,-2.9668294226484,-1.27420333793838,,1.0566633455937655,,
,2224.0,718.0,2606.0,951.0,1784.0,2273.0,2666.0,,,,-1.33964401485101,-2.96695852062307,-1.27444084508181,,1.414268026133114,,
,2225.0,715.0,2607.0,953.0,1793.0,2262.0,2667.0,,,,-1.33946448834634,-2.96691975060326,-1.27450280544825,,1.7578407523024635,,
,2226.0,719.0,2607.0,949.0,1800.0,2259.0,2662.0,,,,-1.33943800362221,-2.96710143074707,-1.27463364149568,,2.0756778459854885,,
,2227.0,717.0,2605.0,954.0,1798.0,2275.0,2663.0,,,,-1.33966484041247,-2.96699359885248,-1.2753962213964,,2.355990592100574,,
,2228.0,720.0,2607.0,953.0,1791.0,2282.0,2665.0,,,,-1.33930702028954,-2.96707385719429,-1.27457839196262,,2.5877415268325206,,
,2225.0,718.0,2606.0,951.0,1792.0,2296.0,2654.0,,,,-1.33935693382512,-2.96696422244019,-1.27437793940791,,2.761511553635288,,
,2227.0,717.0,2605.0,955.0,1781.0,2293.0,2662.0,,,,-1.3389241758616,-2.96694530954156,-1.27504052063441,,2.8702739420066714,,
,2230.0,721.0,2609.0,955.0,1789.0,2282.0,2648.0,,,,-1.33841211096605,-2.96709151417563,-1.27457835880615,,2.9099581511302044,,
,2229.0,717.0,2608.0,956.0,1789.0,2271.0,2648.0,,,,-1.33802815658946,-2.96710254225727,-1.27422211972368,,2.879724011207813,,
,2231.0,717.0,2606.0,956.0,1801.0,2275.0,2666.0,,,,-1.33775527549806,-2.96731917982568,-1.27489930561439,,2.7819236561915224,,
,2228.0,719.0,2607.0,952.0,1798.0,2304.0,2628.0,,,,-1.33659787070636,-2.96705649722851,-1.27385617304638,,2.621785312242956,,
2025-07-17 17:11:49,2230.0,717.0,2607.0,956.0,1793.0,2283.0,2636.0,,,2025/07/17 05:11:49 PM,-1.33645978543205,-2.9670319483786,-1.27375292102304,,2.40689235899166,,
,2232.0,721.0,2610.0,955.0,1792.0,2277.0,2645.0,,,,-1.33540082548238,-2.96694899820219,-1.27302427524519,,2.146545632498212,,
,2234.0,721.0,2608.0,956.0,1791.0,2282.0,2648.0,,,,-1.3351827561787,-2.96674934608417,-1.27355335392407,,1.8510902405688967,,
,2231.0,719.0,2608.0,953.0,1777.0,2293.0,2664.0,,,,-1.33451258643346,-2.96699054845234,-1.27348149579405,,1.5312697918280895,,
,2234.0,719.0,2607.0,955.0,1790.0,2305.0,2672.0,,,,-1.33547292838499,-2.96666173185374,-1.27359485795759,,1.1976504171459292,,
,2233.0,720.0,2609.0,956.0,1786.0,2295.0,2640.0,,,,-1.33605656910068,-2.9670904059055,-1.27386554308572,,0.8601399832610018,,
,2234.0,718.0,2608.0,956.0,1788.0,2297.0,2649.0,,,,-1.33681812860324,-2.96697139309277,-1.27429192655831,,0.5276156973813801,,
,2235.0,719.0,2607.0,956.0,1802.0,2270.0,2657.0,,,,-1.33722384265504,-2.96702685860915,-1.27457221629821,,0.20766427940977716,,
,2236.0,720.0,2607.0,954.0,1785.0,2298.0,2667.0,,,,-1.33766543734532,-2.96737126164931,-1.27403932181358,,-0.09356882777047767,,
,2238.0,719.0,2609.0,958.0,1799.0,2295.0,2673.0,,,,-1.3377305917088,-2.96732039473639,-1.27487240330108,,-0.3714314482077848,,
,2238.0,719.0,2609.0,957.0,1796.0,2266.0,2657.0,,,,-1.33903179890981,-2.96739151248362,-1.27562124004592,,-0.6227326211652812,,
,2238.0,721.0,2608.0,959.0,1793.0,2261.0,2667.0,,,,-1.3391942191177,-2.96773622722749,-1.27625831431656,,-0.8456423765466978,,
,2239.0,719.0,2608.0,959.0,1806.0,2247.0,2670.0,,,,-1.33893517842936,-2.96729017890118,-1.27644897165971,,-1.0395371540589105,,
,2238.0,720.0,2607.0,960.0,1788.0,2277.0,2644.0,,,,-1.3397649878497,-2.96746345257925,-1.27639415212628,,-1.2048013876718044,,
,2243.0,722.0,2609.0,960.0,1785.0,2280.0,2671.0,,,,-1.34001673804049,-2.9675649818099,-1.27677436338707,,-1.3425936358057742,,
,2239.0,720.0,2606.0,957.0,1784.0,2275.0,2675.0,,,,-1.34094553686904,-2.96775627832109,-1.2766958990684,,-1.4545861021320394,,
,2240.0,718.0,2607.0,957.0,1802.0,2288.0,2653.0,,,,-1.3411987664545,-2.9673266302352,-1.27738773435804,,-1.5426894486499485,,
,2241.0,722.0,2608.0,959.0,1808.0,2282.0,2658.0,,,,-1.34302045958114,-2.96738091948069,-1.277872952614,,-1.6087793285166494,,
,2244.0,725.0,2609.0,960.0,1814.0,2301.0,2669.0,,,,-1.34276673386609,-2.96759063931243,-1.27792825993876,,-1.6544454105025401,,
,2244.0,723.0,2611.0,962.0,1815.0,2293.0,2655.0,,,,-1.34397286083121,-2.96743251377991,-1.27867711285741,,-1.6807861253845366,,
,2245.0,724.0,2610.0,961.0,1825.0,2287.0,2659.0,,,,-1.3447020451365,-2.96764426009572,-1.27832093060599,,-1.6882715673415456,,
,2242.0,719.0,2607.0,958.0,1807.0,2280.0,2645.0,,,,-1.34406307915186,-2.96757889812627,-1.2790527197838,,-1.6766922365086572,,
,2244.0,723.0,2607.0,961.0,1807.0,2294.0,2634.0,,,,-1.3442994400308,-2.96759911834967,-1.27887892814947,,-1.6452028242438659,,
,2241.0,720.0,2607.0,962.0,1812.0,2280.0,2628.0,,,,-1.34413790746912,-2.96754086994763,-1.27910546247097,,-1.5924591994210258,,
,2244.0,720.0,2608.0,961.0,1809.0,2277.0,2628.0,,,,-1.34358432147118,-2.96763706757932,-1.27848055299099,,-1.5168351557992432,,
,2243.0,722.0,2609.0,960.0,1809.0,2278.0,2630.0,,,,-1.3435466732221,-2.96720109068614,-1.27855692486622,,-1.4166956917360873,,
,2240.0,720.0,2607.0,960.0,1815.0,2292.0,2660.0,,,,-1.34255907341905,-2.96735663884581,-1.27924428600892,,-1.2906975344291487,,
,2243.0,720.0,2609.0,962.0,1794.0,2274.0,2665.0,,,,-1.34185535316186,-2.96745768363959,-1.27818760777847,,-1.138086045482548,,
,2242.0,721.0,2607.0,962.0,1783.0,2245.0,2649.0,,,,-1.34084888597593,-2.96757188941298,-1.27680171800472,,-0.9589600503153858,,
,2238.0,719.0,2610.0,960.0,1789.0,2255.0,2640.0,,,,-1.34039978398753,-2.96757688179812,-1.27781009019305,,-0.754481290535244,,
,2237.0,718.0,2606.0,959.0,1797.0,2257.0,2619.0,,,,-1.34136495196069,-2.96760312305992,-1.27739629723969,,-0.5270117875661031,,
,2234.0,718.0,2605.0,958.0,1796.0,2253.0,2635.0,,,,-1.34108022576598,-2.96761216654451,-1.27860206621321,,-0.2801693620802022,,
,2236.0,720.0,2609.0,957.0,1795.0,2248.0,2637.0,,,,-1.34239501245035,-2.96774234349577,-1.27947321399827,,-0.018798093440438677,,
,2230.0,717.0,2605.0,957.0,1807.0,2255.0,2658.0,,,,-1.34394854625521,-2.96768563757106,-1.27835811522172,,0.25114391278817544,,
,2229.0,717.0,2606.0,957.0,1811.0,2266.0,2641.0,,,,-1.3440967584038,-2.96748109227514,-1.27929803860842,,0.5227726974985148,,
,2227.0,715.0,2606.0,955.0,1809.0,2281.0,2642.0,,,,-1.3442559500326,-2.96761135332248,-1.27907517717539,,0.7885325389853849,,
,2229.0,716.0,2605.0,955.0,1811.0,2272.0,2647.0,,,,-1.34525173478758,-2.96768084006829,-1.28005413724499,,1.0405034694730821,,
,2228.0,717.0,2606.0,954.0,1816.0,2278.0,2641.0,,,,-1.34558025388591,-2.96798022957691,-1.28033907150649,,1.2707476986262551,,
,2227.0,716.0,2606.0,953.0,1813.0,2281.0,2642.0,,,,-1.3459024988776,-2.96812678372221,-1.28056168934045,,1.4716785761312146,,
,2225.0,714.0,2606.0,951.0,1809.0,2288.0,2626.0,,,,-1.34533007015569,-2.96790379710113,-1.27978032204293,,1.6364338316533542,,
,2226.0,716.0,2605.0,951.0,1816.0,2288.0,2643.0,,,,-1.34511495816173,-2.96779351037937,-1.28031788127518,,1.759232613517042,,
,2226.0,716.0,2606.0,952.0,1812.0,2277.0,2655.0,,,,-1.34589569637069,-2.96788225804757,-1.28076798248527,,1.8356932283784353,,
,2225.0,717.0,2605.0,953.0,1807.0,2270.0,2654.0,,,,-1.34491052662709,-2.96808268660406,-1.28038710192355,,1.8630863860718105,,
,2226.0,715.0,2606.0,950.0,1820.0,2281.0,2646.0,,,,-1.34481298733014,-2.96821094320596,-1.27995778040001,,1.8404994874884169,,
,2225.0,715.0,2605.0,951.0,1829.0,2263.0,2629.0,,,,-1.34518917494614,-2.96793323126294,-1.28066089235132,,1.7688934631639135,,
,2226.0,715.0,2604.0,951.0,1809.0,2270.0,2631.0,,,,-1.3453799212705,-2.96812826049098,-1.28106154644788,,1.6510450603357307,,
,2225.0,714.0,2605.0,952.0,1812.0,2284.0,2645.0,,,,-1.34567651738658,-2.96829985428134,-1.27943369097465,,1.4913813439049717,,
,2224.0,716.0,2604.0,949.0,1804.0,2286.0,2653.0,,,,-1.34538145556753,-2.96816756993506,-1.28040314321129,,1.2957251556224787,,
,2223.0,714.0,2604.0,948.0,1800.0,2264.0,2645.0,,,,-1.34538167873591,-2.96810420434181,-1.28046471421955,,1.0709773342456048,,
,2224.0,714.0,2604.0,951.0,1790.0,2262.0,2672.0,,,,-1.34497359872108,-2.96824853412731,-1.28027610431411,,0.8247632825918841,,
,2223.0,715.0,2606.0,952.0,1798.0,2274.0,2691.0,,,,-1.3454985520282,-2.9682077959852,-1.27953783317934,,0.5650694251362164,,
,2223.0,714.0,2604.0,951.0,1812.0,2265.0,2670.0,,,,-1.3460160844434,-2.96807364302527,-1.28019465871288,,0.29989077407450926,,
,2224.0,714.0,2606.0,948.0,1806.0,2286.0,2640.0,,,,-1.34623249289345,-2.9683166784808,-1.28040926376691,,0.03690510288154796,,
,2225.0,714.0,2603.0,949.0,1819.0,2283.0,2640.0,,,,-1.34678217082876,-2.96816267902966,-1.28106583879814,,-0.21681702207812892,,
,2224.0,713.0,2603.0,949.0,1806.0,2302.0,2649.0,,,,-1.34620284033362,-2.96815348729467,-1.28035508186418,,-0.4550622427386607,,
,2227.0,714.0,2606.0,949.0,1810.0,2292.0,2667.0,,,,-1.34721989275366,-2.96799247156992,-1.28089834523892,,-0.6726824128865397,,
,2221.0,712.0,2604.0,949.0,1806.0,2288.0,2639.0,,,,-1.34681889494202,-2.96829725355085,-1.28122034254927,,-0.8657569273214648,,
,2223.0,711.0,2603.0,949.0,1821.0,2278.0,2653.0,,,,-1.34743547347188,-2.96819723859044,-1.28047788416615,,-1.0317018997414638,,
,2224.0,710.0,2604.0,949.0,1802.0,2272.0,2655.0,,,,-1.34781374004887,-2.96850550548458,-1.28182824210331,,-1.1693155681022709,,
,2223.0,713.0,2604.0,952.0,1805.0,2258.0,2663.0,,,,-1.34656018496,-2.96818267684767,-1.28083201095463,,-1.2787490491729077,,
,2223.0,712.0,2601.0,947.0,1804.0,2260.0,2686.0,,,,-1.34718821319241,-2.9683073969201,-1.28110114367135,,-1.3613949936012588,,
,2222.0,712.0,2601.0,950.0,1813.0,2300.0,2656.0,,,,-1.34667267028829,-2.96836201845125,-1.28195529109966,,-1.419693380607808,,
,2224.0,713.0,2605.0,949.0,1795.0,2289.0,2683.0,,,,-1.34722815416185,-2.96840030632208,-1.28109408388539,,-1.4568623716850395,,
,2222.0,716.0,2603.0,951.0,1796.0,2260.0,2657.0,,,,-1.34729454252895,-2.96841693209368,-1.28163077245808,,-1.4765710976092674,,
,2223.0,713.0,2605.0,950.0,1795.0,2250.0,2655.0,,,,-1.34775557071414,-2.96814867754865,-1.28197120857766,,-1.482578853034435,,
,2219.0,712.0,2602.0,947.0,1812.0,2264.0,2654.0,,,,-1.34752914918975,-2.96850708564983,-1.28227749322031,,-1.478370309457676,,
,2222.0,713.0,2602.0,949.0,1811.0,2282.0,2673.0,,,,-1.3480794645506,-2.96828865143829,-1.28175326214457,,-1.4668185071485815,,
,2223.0,712.0,2604.0,949.0,1798.0,2248.0,2643.0,,,,-1.34880979559072,-2.96838926201004,-1.28265324028662,,-1.4499064449815537,,
,2224.0,713.0,2605.0,951.0,1799.0,2285.0,2689.0,,,,-1.34870657433633,-2.96856890994379,-1.28229477453005,,-1.4285342032304909,,
,2219.0,712.0,2604.0,950.0,1810.0,2279.0,2667.0,,,,-1.34803753039024,-2.96832178461855,-1.28196161317024,,-1.4024320423001742,,
,2221.0,710.0,2602.0,945.0,1815.0,2270.0,2632.0,,,,-1.34753753159654,-2.96856699084756,-1.28150029182712,,-1.3701913321619255,,
,2220.0,713.0,2604.0,950.0,1817.0,2283.0,2623.0,,,,-1.34785506436702,-2.96849982359458,-1.28155983150353,,-1.3294151345918082,,
,2224.0,714.0,2604.0,951.0,1809.0,2270.0,2648.0,,,,-1.34723209617699,-2.9685995396287,-1.28128357266302,,-1.2769795013808514,,
,2221.0,711.0,2602.0,947.0,1814.0,2280.0,2652.0,,,,-1.34702128650602,-2.96841821813328,-1.28194408765318,,-1.2093858479456319,,
,2224.0,710.0,2603.0,948.0,1804.0,2269.0,2652.0,,,,-1.34671762648992,-2.96841768807773,-1.28177176429787,,-1.1231750352271608,,
,2222.0,713.0,2602.0,948.0,1816.0,2259.0,2651.0,,,,-1.34711200402105,-2.96868691607706,-1.28187182058188,,-1.015366140483219,,
,2223.0,712.0,2604.0,947.0,1824.0,2279.0,2626.0,,,,-1.34752002368225,-2.9686250049486,-1.28226095047033,,-0.8838785109902438,,
,2221.0,713.0,2602.0,948.0,1827.0,2279.0,2630.0,,,,-1.34778953884886,-2.96872709979093,-1.28107860245781,,-0.7278956650107847,,
,2225.0,712.0,2607.0,948.0,1823.0,2283.0,2637.0,,,,-1.34771193713006,-2.96851157268455,-1.28190079297548,,-0.5481345572675939,,
,2222.0,711.0,2606.0,948.0,1809.0,2286.0,2641.0,,,,-1.34791673939231,-2.9686012030013,-1.2823316531518,,-0.34699331794737376,,
,2224.0,711.0,2604.0,950.0,1825.0,2285.0,2641.0,,,,-1.34784190108548,-2.96878342250458,-1.28249929854261,,-0.12856323237496786,,
,2223.0,713.0,2606.0,949.0,1824.0,2287.0,2644.0,,,,-1.34735743540857,-2.96879695664446,-1.2822387313531,,0.10149591257655907,,
,2225.0,713.0,2603.0,950.0,1819.0,2286.0,2655.0,,,,-1.34783232820688,-2.96841607968431,-1.2815645486094,,0.33620609153645437,,
,2224.0,710.0,2603.0,949.0,1802.0,2276.0,2662.0,,,,-1.34767052672455,-2.96820853392431,-1.28145136145611,,0.5676266108529342,,
,2224.0,712.0,2602.0,950.0,1810.0,2276.0,2636.0,,,,-1.34732389842734,-2.96829603331096,-1.28227396902052,,0.7872881381277459,,
,2224.0,715.0,2604.0,950.0,1808.0,2265.0,2634.0,,,,-1.34732825301111,-2.96844434700348,-1.28197441495196,,0.986674111599747,,
,2227.0,716.0,2605.0,949.0,1811.0,2276.0,2637.0,,,,-1.34759076670264,-2.96863724917002,-1.28269509193169,,1.1577160689215293,,
,2227.0,716.0,2601.0,951.0,1800.0,2307.0,2648.0,,,,-1.34828098683766,-2.96856153393459,-1.28243386953743,,1.2932686299791045,,
,2227.0,713.0,2603.0,951.0,1811.0,2294.0,2647.0,,,,-1.34834936748508,-2.96863392965795,-1.28271634956171,,1.3875306768863704,,
,2226.0,715.0,2605.0,953.0,1805.0,2274.0,2644.0,,,,-1.34883666260561,-2.9686890613749,-1.28331298861865,,1.4363820809840746,,
,2230.0,715.0,2602.0,951.0,1804.0,2284.0,2668.0,,,,-1.34921310422366,-2.96889900416267,-1.28230810026811,,1.4376106545150091,,
,2228.0,714.0,2606.0,950.0,1826.0,2287.0,2660.0,,,,-1.34897675989085,-2.96866804424298,-1.28225012545355,,1.3910121408824938,,
,2228.0,713.0,2602.0,951.0,1814.0,2276.0,2682.0,,,,-1.34816872998655,-2.96851501985156,-1.28218604164405,,1.2983567789335022,,
,2229.0,713.0,2605.0,952.0,1812.0,2270.0,2682.0,,,,-1.34791356023046,-2.96850957275584,-1.28169471728588,,1.163228393124027,,
,2230.0,716.0,2604.0,954.0,1815.0,2286.0,2685.0,,,,-1.34809756171707,-2.9686266843684,-1.28182824920073,,0.9907544106689453,,
,2229.0,715.0,2606.0,953.0,1812.0,2288.0,2676.0,,,,-1.34720172111883,-2.96871082284723,-1.2825460731607,,0.7872554884226366,,
,2229.0,712.0,2605.0,953.0,1804.0,2303.0,2658.0,,,,-1.3469811726886,-2.9683497339908,-1.28263470309276,,0.5598496184137859,,
,2231.0,713.0,2605.0,951.0,1807.0,2282.0,2637.0,,,,-1.34737855479069,-2.9688523108656,-1.28221481929812,,0.3160469041964049,,
,2229.0,713.0,2605.0,951.0,1790.0,2284.0,2646.0,,,,-1.34807216352447,-2.96859422354197,-1.28272404175924,,0.06336822993547914,,
,2232.0,714.0,2604.0,952.0,1785.0,2264.0,2634.0,,,,-1.34836995213964,-2.96876223867505,-1.2828769439407,,-0.19098491372794094,,
,2231.0,714.0,2602.0,954.0,1800.0,2261.0,2650.0,,,,-1.34850339151512,-2.96852954898933,-1.2834402049188,,-0.4403898451917273,,
,2232.0,715.0,2604.0,952.0,1801.0,2291.0,2656.0,,,,-1.34827624675915,-2.96875146908772,-1.28333213399106,,-0.6789802224562198,,
,2232.0,714.0,2606.0,953.0,1810.0,2278.0,2653.0,,,,-1.34881598839363,-2.96860084776638,-1.28170784903794,,-0.9017392460932695,,
,2235.0,717.0,2607.0,955.0,1823.0,2282.0,2645.0,,,,-1.34907405689536,-2.96890800183553,-1.28249943140765,,-1.1045143943349247,,
,2234.0,716.0,2606.0,953.0,1826.0,2283.0,2646.0,,,,-1.34805813279536,-2.96867278216631,-1.28276767961227,,-1.283966806174278,,
,2234.0,717.0,2605.0,954.0,1799.0,2268.0,2623.0,,,,-1.34757612473911,-2.96884722019137,-1.28258299584966,,-1.4374739917083563,,
,2234.0,716.0,2606.0,955.0,1797.0,2289.0,2650.0,,,,-1.34740973594308,-2.96883220199268,-1.28263871540177,,-1.5630078697148388,,
,2236.0,716.0,2607.0,955.0,1810.0,2275.0,2650.0,,,,-1.34728450433981,-2.96858931314323,-1.28214674805027,,-1.6590107783442853,,
,2237.0,718.0,2608.0,956.0,1815.0,2290.0,2620.0,,,,-1.34770210810166,-2.96859301064458,-1.28313238632535,,-1.7242898308219112,,
,2236.0,715.0,2608.0,956.0,1820.0,2295.0,2646.0,,,,-1.34766732493627,-2.96875239482158,-1.28305342243065,,-1.757944897755718,,
,2236.0,717.0,2607.0,954.0,1815.0,2295.0,2650.0,,,,-1.34719805432553,-2.96868215794137,-1.28234746237087,,-1.7593382168295302,,
,2237.0,717.0,2608.0,957.0,1808.0,2275.0,2639.0,,,,-1.34652364520672,-2.96867752276457,-1.28183449759596,,-1.7281053780838747,,
,2238.0,716.0,2607.0,956.0,1801.0,2285.0,2627.0,,,,-1.34751805468103,-2.96856465095439,-1.28254167459262,,-1.6641998855423206,,
,2238.0,716.0,2608.0,958.0,1799.0,2283.0,2627.0,,,,-1.34680682453678,-2.96871119147474,-1.28326006668472,,-1.5679583562453998,,
,2237.0,721.0,2606.0,958.0,1792.0,2291.0,2644.0,,,,-1.34689558845803,-2.96876826624567,-1.28155906026709,,-1.440171766224885,,
,2237.0,715.0,2607.0,956.0,1809.0,2284.0,2644.0,,,,-1.34676355901486,-2.96847766099903,-1.28198970201028,,-1.282149982228913,,
,2242.0,718.0,2610.0,959.0,1822.0,2279.0,2647.0,,,,-1.3473098119212,-2.96874647654186,-1.28283332397064,,-1.0957710902817044,,
,2243.0,722.0,2608.0,959.0,1798.0,2271.0,2650.0,,,,-1.34771142584323,-2.96868058637409,-1.28277389146645,,-0.8835121427128225,,
,2239.0,721.0,2607.0,959.0,1793.0,2252.0,2655.0,,,,-1.3477437877745,-2.96864150006271,-1.28259294140687,,-0.6484622770167886,,
,2240.0,719.0,2607.0,956.0,1803.0,2252.0,2656.0,,,,-1.3478506230926,-2.968906703725,-1.28269956301743,,-0.3943215484672679,,
,2241.0,720.0,2608.0,961.0,1788.0,2270.0,2650.0,,,,-1.3487683786957,-2.96862216361475,-1.28234617319277,,-0.12538881663241208,,
,2242.0,721.0,2609.0,960.0,1787.0,2283.0,2666.0,,,,-1.34848856811002,-2.9686392834605,-1.2821100633134,,0.15346008907869085,,
,2242.0,719.0,2609.0,962.0,1784.0,2292.0,2678.0,,,,-1.34821311847389,-2.96862981296851,-1.28294261182086,,0.43680610974425566,,
,2243.0,722.0,2607.0,957.0,1786.0,2284.0,2668.0,,,,-1.34871575806335,-2.9688423857917,-1.28268524118598,,0.7187384313335691,,
,2241.0,720.0,2607.0,958.0,1793.0,2282.0,2676.0,,,,-1.34930852231425,-2.96845736276277,-1.28414818097838,,0.9929324318399061,,
,2245.0,722.0,2609.0,959.0,1795.0,2285.0,2675.0,,,,-1.34964342306798,-2.96885372380357,-1.28348639900529,,1.2527643533188282,,
,2246.0,723.0,2610.0,962.0,1805.0,2269.0,2657.0,,,,-1.35047022688742,-2.96875856652142,-1.28438488448558,,1.4914726775531928,,
,2246.0,720.0,2608.0,962.0,1814.0,2265.0,2646.0,,,,-1.35127692878534,-2.96869983017422,-1.28473125258122,,1.7023738683589655,,
2025-07-17 17:11:50,2242.0,718.0,2606.0,960.0,1819.0,2266.0,2656.0,,,2025/07/17 05:11:50 PM,-1.35208188971662,-2.96895524999116,-1.28383055131012,,1.8791355561291079,,
,2245.0,722.0,2609.0,961.0,1814.0,2258.0,2681.0,,,,-1.35214448989343,-2.96891538212333,-1.28438644337381,,2.0161031792517425,,
,2248.0,721.0,2609.0,961.0,1805.0,2266.0,2637.0,,,,-1.3527523713357,-2.96885083666877,-1.28539070056601,,2.1086666272963885,,
,2247.0,719.0,2609.0,962.0,1805.0,2276.0,2639.0,,,,-1.35340201652285,-2.96860645561459,-1.28550732763467,,2.15364233435338,,
,2245.0,720.0,2610.0,961.0,1779.0,2282.0,2657.0,,,,-1.35252296739963,-2.96901146250473,-1.28489337448195,,2.149635332089922,,
,2243.0,720.0,2607.0,958.0,1778.0,2280.0,2635.0,,,,-1.3533519454206,-2.9687983861566,-1.28579301536569,,2.097337517770887,,
,2242.0,719.0,2608.0,961.0,1788.0,2304.0,2662.0,,,,-1.35377594873502,-2.96882282412769,-1.28496758374989,,1.999715369984096,,
,2241.0,719.0,2608.0,959.0,1773.0,2311.0,2653.0,,,,-1.35295152807541,-2.96881275222856,-1.28514127701159,,1.862044366982938,,
,2237.0,719.0,2609.0,960.0,1766.0,2293.0,2653.0,,,,-1.3542131420802,-2.96879115015751,-1.28557746274765,,1.69175900972848,,
,2238.0,718.0,2608.0,958.0,1748.0,2283.0,2634.0,,,,-1.35332487653778,-2.96900296788114,-1.2860510294244,,1.4981057244065112,,
,2235.0,717.0,2606.0,958.0,1758.0,2299.0,2647.0,,,,-1.3533333924845,-2.96896562156867,-1.28581055558167,,1.2916086174141646,,
,2233.0,717.0,2610.0,957.0,1767.0,2287.0,2654.0,,,,-1.3541726755247,-2.96893257222915,-1.2852145967819,,1.0833815592313922,,
,2232.0,718.0,2608.0,956.0,1772.0,2282.0,2663.0,,,,-1.35482970695884,-2.96888960292644,-1.2857296029963,,0.8843406340396871,,
,2229.0,716.0,2608.0,955.0,1779.0,2302.0,2671.0,,,,-1.35463855911419,-2.96908257985187,-1.28638405795934,,0.7043856772129506,,
,2228.0,716.0,2606.0,954.0,1804.0,2299.0,2669.0,,,,-1.35533784403478,-2.96901532460567,-1.28624590491621,,0.5516268796009907,,
,2226.0,717.0,2606.0,955.0,1796.0,2283.0,2679.0,,,,-1.35450065451249,-2.96887522648353,-1.28576863740444,,0.4317319086330369,,
,2228.0,717.0,2605.0,955.0,1789.0,2298.0,2663.0,,,,-1.35537020242452,-2.96879307342728,-1.28535788236621,,0.3474609000208267,,
,2227.0,716.0,2606.0,954.0,1785.0,2294.0,2664.0,,,,-1.3553638130282,-2.96880140289308,-1.28575379649674,,0.29844126872235727,,
,2224.0,714.0,2606.0,950.0,1789.0,2286.0,2668.0,,,,-1.35577043863564,-2.96875923197548,-1.28540584991273,,0.2812118642960364,,
,2226.0,716.0,2605.0,952.0,1795.0,2292.0,2673.0,,,,-1.356276321931,-2.96901264589917,-1.28588812701786,,0.28953772190547583,,
,2223.0,715.0,2607.0,952.0,1803.0,2268.0,2655.0,,,,-1.35525406523658,-2.96889067558063,-1.28637764718289,,0.3149659269507921,,
,2225.0,713.0,2607.0,950.0,1794.0,2271.0,2653.0,,,,-1.35592626393513,-2.96889824465131,-1.28603407078255,,0.34756571229041705,,
,2221.0,716.0,2604.0,951.0,1787.0,2275.0,2661.0,,,,-1.35605691423876,-2.96890823083869,-1.28666938552487,,0.37677774243735446,,
,2223.0,713.0,2605.0,949.0,1781.0,2269.0,2679.0,,,,-1.35576745881798,-2.96911861253266,-1.28522942735291,,0.3922914400267771,,
,2222.0,714.0,2606.0,950.0,1788.0,2269.0,2654.0,,,,-1.35530314989658,-2.96899586681295,-1.28600285352913,,0.384873958901331,,
,2223.0,714.0,2607.0,952.0,1795.0,2302.0,2650.0,,,,-1.35556289403654,-2.96893234753659,-1.28593297366735,,0.3470865302189765,,
,2223.0,715.0,2603.0,950.0,1796.0,2291.0,2652.0,,,,-1.35589046669856,-2.96888854153669,-1.28632441333581,,0.27383998035345763,,
,2220.0,710.0,2604.0,948.0,1776.0,2274.0,2649.0,,,,-1.35627009259724,-2.9692406190848,-1.28583100007885,,0.16275879663385853,,
,2223.0,714.0,2607.0,950.0,1777.0,2298.0,2661.0,,,,-1.35583976425318,-2.96910728911436,-1.28544272006557,,0.01434041449527601,,
,2222.0,713.0,2606.0,949.0,1776.0,2283.0,2672.0,,,,-1.35609726177368,-2.96885253106236,-1.28631215406951,,-0.16808808956017568,,
,2221.0,715.0,2604.0,951.0,1777.0,2273.0,2696.0,,,,-1.35594930548503,-2.96893732945485,-1.28645800617138,,-0.37860102269776397,,
,2221.0,713.0,2607.0,949.0,1782.0,2279.0,2698.0,,,,-1.35601042474399,-2.96890412857207,-1.28542142918068,,-0.6090682102652303,,
,2222.0,713.0,2603.0,948.0,1774.0,2285.0,2662.0,,,,-1.35585753185165,-2.96892298708538,-1.28603725446358,,-0.8496801561188769,,
,2220.0,713.0,2606.0,949.0,1787.0,2273.0,2652.0,,,,-1.35578719063701,-2.96871350530974,-1.28572215125336,,-1.089566011896321,,
,2221.0,716.0,2604.0,945.0,1772.0,2291.0,2646.0,,,,-1.35562453380542,-2.96881008455167,-1.28641066104591,,-1.3174610314531514,,
,2220.0,716.0,2605.0,948.0,1762.0,2289.0,2655.0,,,,-1.35580024051701,-2.9688604672188,-1.28613959343313,,-1.5223768189283158,,
,2219.0,714.0,2605.0,948.0,1770.0,2273.0,2667.0,,,,-1.35630369269081,-2.96886478905651,-1.28598888454573,,-1.6942275224124692,,
,2218.0,714.0,2604.0,948.0,1782.0,2279.0,2691.0,,,,-1.35514157502612,-2.96905700651058,-1.28557361291721,,-1.8243694572871312,,
,2219.0,714.0,2606.0,950.0,1760.0,2292.0,2686.0,,,,-1.35567846808292,-2.9686798341679,-1.28592279503727,,-1.906020541688375,,
,2218.0,714.0,2604.0,950.0,1767.0,2287.0,2660.0,,,,-1.35475641660781,-2.96876594423272,-1.28562769851287,,-1.9345380859814711,,
,2220.0,712.0,2604.0,946.0,1776.0,2295.0,2661.0,,,,-1.35462287200342,-2.96887046084379,-1.28647507109426,,-1.9075469534458998,,
,2218.0,712.0,2605.0,948.0,1780.0,2302.0,2652.0,,,,-1.35498161349881,-2.96878778860251,-1.2856810728578,,-1.8249231763213878,,
,2219.0,713.0,2604.0,947.0,1777.0,2323.0,2687.0,,,,-1.35503027583299,-2.96872838010295,-1.28483847062168,,-1.6886496023757487,,
,2217.0,714.0,2606.0,947.0,1782.0,2310.0,2684.0,,,,-1.35451974496183,-2.96879299669208,-1.28572082895104,,-1.50256934084672,,
,2217.0,714.0,2605.0,949.0,1783.0,2299.0,2682.0,,,,-1.3545735245312,-2.96864327886148,-1.28576347429115,,-1.272069156418014,,
,2217.0,714.0,2606.0,946.0,1778.0,2281.0,2660.0,,,,-1.35515693104456,-2.96895407284018,-1.28443696511643,,-1.0037280521834617,,
,2218.0,714.0,2606.0,946.0,1760.0,2297.0,2675.0,,,,-1.35373729668149,-2.96866481095715,-1.28441051926938,,-0.704965698668742,,
,2219.0,716.0,2605.0,947.0,1776.0,2294.0,2652.0,,,,-1.35483308977159,-2.96879612318873,-1.28506136774829,,-0.38372100181239804,,
,2215.0,715.0,2607.0,947.0,1779.0,2283.0,2659.0,,,,-1.35569350182043,-2.96878709303236,-1.28530111844837,,-0.04818329508559077,,
,2216.0,713.0,2607.0,948.0,1782.0,2286.0,2656.0,,,,-1.35495464518175,-2.9689535803773,-1.28381522682626,,0.2934118292977129,,
,2215.0,714.0,2606.0,945.0,1772.0,2287.0,2661.0,,,,-1.35389617128505,-2.96880560637634,-1.28465759376158,,0.6329220060988593,,
,2216.0,712.0,2607.0,948.0,1781.0,2291.0,2660.0,,,,-1.35430831032909,-2.96891663185632,-1.28522937592523,,0.9623847984772755,,
,2215.0,711.0,2604.0,947.0,1783.0,2268.0,2650.0,,,,-1.35480115950628,-2.96916972304632,-1.28518661827959,,1.2740735292852459,,
,2219.0,714.0,2606.0,947.0,1794.0,2277.0,2648.0,,,,-1.35525160513814,-2.96869573938227,-1.28487564557935,,1.5605501629859035,,
,2216.0,715.0,2604.0,947.0,1780.0,2264.0,2664.0,,,,-1.35480612010243,-2.96855860782634,-1.28509059897908,,1.8147434414338186,,
,2215.0,713.0,2605.0,945.0,1777.0,2289.0,2649.0,,,,-1.35535023344303,-2.96861743073982,-1.28515173854886,,2.030074414859571,,
,2217.0,715.0,2606.0,946.0,1777.0,2283.0,2678.0,,,,-1.355390230854,-2.96849566472565,-1.28459303387887,,2.2006400093942284,,
,2216.0,713.0,2606.0,948.0,1780.0,2289.0,2665.0,,,,-1.35521155206775,-2.968692166173,-1.28582439406684,,2.3214505951074362,,
,2217.0,716.0,2607.0,945.0,1771.0,2286.0,2658.0,,,,-1.35446643968586,-2.96888262252352,-1.2853598241109,,2.388702620113468,,
,2217.0,713.0,2606.0,946.0,1775.0,2289.0,2643.0,,,,-1.35510688401745,-2.96869203755528,-1.28443089623523,,2.4000551069103895,,
,2218.0,716.0,2607.0,949.0,1795.0,2287.0,2637.0,,,,-1.35393579854035,-2.96855178204049,-1.28482820777648,,2.3548713459718926,,
,2218.0,717.0,2609.0,948.0,1783.0,2285.0,2641.0,,,,-1.35372586330229,-2.96879209765723,-1.28479070603971,,2.254385863585487,,
,2219.0,714.0,2608.0,946.0,1784.0,2283.0,2639.0,,,,-1.35331213315046,-2.96854670824032,-1.28412837238558,,2.101762323425664,,
,2221.0,715.0,2608.0,948.0,1781.0,2278.0,2650.0,,,,-1.35346538423854,-2.96866531383496,-1.28512386413612,,1.902020002196786,,
,2216.0,713.0,2604.0,946.0,1779.0,2286.0,2664.0,,,,-1.35402672292575,-2.96854732915264,-1.28509560255597,,1.6618229250353258,,
,2218.0,715.0,2609.0,948.0,1781.0,2295.0,2666.0,,,,-1.35342646165186,-2.9685850435409,-1.28437348643327,,1.389143475737224,,
,2220.0,714.0,2608.0,949.0,1795.0,2288.0,2628.0,,,,-1.35343538634477,-2.96859195373733,-1.28432293271541,,1.092827896957211,,
,2220.0,714.0,2608.0,950.0,1797.0,2286.0,2628.0,,,,-1.35427352914686,-2.96844604498284,-1.28482987476725,,0.782102070554641,,
,2218.0,716.0,2607.0,945.0,1801.0,2299.0,2670.0,,,,-1.35438013031369,-2.96859257774212,-1.28474695642287,,0.46606133908824665,,
,2223.0,716.0,2608.0,950.0,1787.0,2293.0,2668.0,,,,-1.35377891857147,-2.96844098083594,-1.28523795944741,,0.153188209732498,,
,2221.0,717.0,2608.0,947.0,1777.0,2295.0,2677.0,,,,-1.35362203551245,-2.96851387017899,-1.28508678137545,,-0.14906256240976234,,
,2221.0,717.0,2610.0,949.0,1787.0,2299.0,2667.0,,,,-1.35370621810094,-2.96850255611904,-1.2852635861172,,-0.4345799463028554,,
,2223.0,717.0,2605.0,947.0,1798.0,2306.0,2678.0,,,,-1.35295609868924,-2.9687072910453,-1.28423152008189,,-0.698792776490134,,
,2224.0,716.0,2608.0,949.0,1794.0,2305.0,2672.0,,,,-1.35285986236537,-2.96870065022927,-1.2848313997302,,-0.9387373864661789,,
,2223.0,716.0,2609.0,951.0,1787.0,2299.0,2666.0,,,,-1.3518469298531,-2.96838976251618,-1.28338407394252,,-1.1530001551422635,,
,2224.0,717.0,2608.0,950.0,1792.0,2305.0,2660.0,,,,-1.35270910005122,-2.96850194785374,-1.2840619142644,,-1.341548821889442,,
,2223.0,718.0,2610.0,950.0,1791.0,2299.0,2647.0,,,,-1.35232136108001,-2.9682682211961,-1.28444570755751,,-1.505474265922699,,
,2226.0,716.0,2608.0,947.0,1797.0,2304.0,2653.0,,,,-1.35350961645026,-2.96844550710088,-1.28419507009454,,-1.6466695012582948,,
,2225.0,717.0,2610.0,951.0,1790.0,2294.0,2663.0,,,,-1.35299688457955,-2.96850594768375,-1.28383275759627,,-1.7674751791792067,,
,2226.0,719.0,2607.0,950.0,1794.0,2292.0,2658.0,,,,-1.35306049604191,-2.96843532472059,-1.28414147053948,,-1.870321314356563,,
,2223.0,718.0,2608.0,950.0,1783.0,2277.0,2650.0,,,,-1.35323106682099,-2.96848020405751,-1.28436370901342,,-1.957393621269871,,
,2225.0,718.0,2608.0,949.0,1780.0,2295.0,2664.0,,,,-1.35187850225186,-2.96827478716807,-1.28319890495307,,-2.030350051850347,,
,2224.0,718.0,2608.0,948.0,1789.0,2284.0,2661.0,,,,-1.35165722728763,-2.96846387710117,-1.28404812945913,,-2.090109038170993,,
,2226.0,721.0,2609.0,950.0,1761.0,2279.0,2660.0,,,,-1.35160843118648,-2.9681561935524,-1.28324460037584,,-2.1367256170198434,,
,2228.0,717.0,2609.0,952.0,1770.0,2304.0,2676.0,,,,-1.3507448632978,-2.96825240669476,-1.28292262324696,,-2.1693650555132695,,
,2227.0,718.0,2606.0,952.0,1773.0,2316.0,2680.0,,,,-1.35034381345657,-2.96788975949518,-1.28276546987849,,-2.186375886897876,,
,2227.0,716.0,2605.0,949.0,1766.0,2304.0,2675.0,,,,-1.3491218281802,-2.96807450426388,-1.28224680802107,,-2.185455623666991,,
,2227.0,719.0,2608.0,951.0,1783.0,2298.0,2661.0,,,,-1.34939688211924,-2.96778636556599,-1.28244794486511,,-2.1638933133840172,,
,2232.0,719.0,2612.0,953.0,1784.0,2320.0,2674.0,,,,-1.34873924400923,-2.96801281143226,-1.28218433079204,,-2.118864465248641,,
,2232.0,721.0,2610.0,953.0,1778.0,2316.0,2690.0,,,,-1.34932444708551,-2.96801726172652,-1.28279956551969,,-2.0477471351950145,,
,2228.0,719.0,2608.0,950.0,1784.0,2277.0,2668.0,,,,-1.34882106320726,-2.96806409379389,-1.28182007419093,,-1.9484246654734956,,
,2228.0,721.0,2606.0,953.0,1771.0,2301.0,2625.0,,,,-1.34876762642992,-2.9677866532116,-1.28210471669396,,-1.8195417335209754,,
,2230.0,719.0,2608.0,955.0,1773.0,2286.0,2632.0,,,,-1.34867283818567,-2.96780181820422,-1.28106653807821,,-1.6606860544392377,,
,2232.0,721.0,2611.0,955.0,1784.0,2280.0,2651.0,,,,-1.3486336590952,-2.96800016326865,-1.28194375742492,,-1.4724776142341183,,
,2234.0,722.0,2613.0,954.0,1773.0,2285.0,2644.0,,,,-1.34955525087124,-2.96788179766526,-1.28171152307581,,-1.2565595815454909,,
,2233.0,721.0,2609.0,952.0,1777.0,2290.0,2667.0,,,,-1.34867965249797,-2.96795785532786,-1.28169109685619,,-1.0154986945436542,,
,2232.0,720.0,2612.0,955.0,1792.0,2309.0,2663.0,,,,-1.34860680380424,-2.96802595436072,-1.28127419092546,,-0.7526162242161462,,
,2235.0,726.0,2611.0,956.0,1803.0,2296.0,2649.0,,,,-1.34847604089294,-2.9678544134903,-1.28229721611351,,-0.47178131064102424,,
,2233.0,720.0,2610.0,954.0,1793.0,2285.0,2648.0,,,,-1.34846897027319,-2.96792231330187,-1.28125250477502,,-0.17720399430227157,,
,2234.0,720.0,2609.0,953.0,1787.0,2280.0,2674.0,,,,-1.34843372190275,-2.96800143900685,-1.28125945699072,,0.12673626555829506,,
,2235.0,722.0,2609.0,955.0,1794.0,2269.0,2665.0,,,,-1.34860068195774,-2.96777215135863,-1.28160572370602,,0.43559949740944914,,
,2236.0,723.0,2611.0,955.0,1790.0,2285.0,2670.0,,,,-1.34810618836678,-2.96773425199804,-1.28069175350625,,0.7449185122755123,,
,2236.0,723.0,2610.0,955.0,1777.0,2273.0,2659.0,,,,-1.34923546041659,-2.96788623009995,-1.28077480830189,,1.0501600514983678,,
,2238.0,723.0,2613.0,955.0,1770.0,2269.0,2652.0,,,,-1.34853256152784,-2.96762022608617,-1.27961597723076,,1.3466332498538338,,
,2237.0,722.0,2612.0,954.0,1780.0,2259.0,2627.0,,,,-1.34796506473297,-2.96752815921796,-1.28026925323189,,1.629377802041879,,
,2240.0,723.0,2612.0,956.0,1785.0,2246.0,2651.0,,,,-1.34885081986894,-2.96766990464595,-1.28059978346375,,1.8930718849099732,,
,2242.0,724.0,2612.0,957.0,1777.0,2280.0,2668.0,,,,-1.3492107825298,-2.96774039649693,-1.28069069762875,,2.1320006041809125,,
,2239.0,725.0,2613.0,956.0,1776.0,2290.0,2694.0,,,,-1.34957849201438,-2.96761077132825,-1.28020877768774,,2.3401188073594335,,
,2242.0,723.0,2612.0,957.0,1788.0,2277.0,2683.0,,,,-1.3496752343849,-2.96796703695807,-1.28084356811147,,2.5112283208908748,,
,2240.0,722.0,2611.0,956.0,1784.0,2292.0,2683.0,,,,-1.35013430658562,-2.9679877501389,-1.28116193464081,,2.639271254603438,,
,2242.0,725.0,2613.0,958.0,1802.0,2301.0,2664.0,,,,-1.35036024639304,-2.96789007854665,-1.281474155178,,2.718720997332542,,
,2242.0,724.0,2611.0,957.0,1780.0,2289.0,2675.0,,,,-1.35148588382396,-2.9678793823802,-1.28140137066113,,2.7450339726129496,,
,2244.0,727.0,2612.0,959.0,1776.0,2297.0,2687.0,,,,-1.35177565362564,-2.96790473752926,-1.28196873707104,,2.715110829509927,,
,2242.0,726.0,2610.0,957.0,1797.0,2303.0,2668.0,,,,-1.35087160873797,-2.96791449405093,-1.28161469614648,,2.627707829910891,,
,2243.0,725.0,2611.0,958.0,1811.0,2302.0,2652.0,,,,-1.35180156120505,-2.96789822195077,-1.28137989825163,,2.4837396709688444,,
,2243.0,726.0,2615.0,960.0,1790.0,2295.0,2651.0,,,,-1.35183594913914,-2.96786757664744,-1.28104377249232,,2.2864248436555634,,
,2242.0,724.0,2611.0,958.0,1788.0,2292.0,2644.0,,,,-1.35153308078107,-2.96792725804073,-1.28147115935779,,2.041243098458827,,
,2242.0,725.0,2611.0,958.0,1758.0,2288.0,2663.0,,,,-1.35146542103884,-2.96768970488851,-1.2814620556261,,1.7556986557042868,,
,2239.0,724.0,2611.0,959.0,1768.0,2270.0,2683.0,,,,-1.35260407526714,-2.96774597075974,-1.28139247172272,,1.438907824712013,,
,2240.0,724.0,2611.0,958.0,1767.0,2279.0,2682.0,,,,-1.35186546492747,-2.96791521371388,-1.281174973545,,1.1010510220093592,,
,2237.0,725.0,2614.0,958.0,1769.0,2280.0,2665.0,,,,-1.35237102619064,-2.96777503346235,-1.28143469695243,,0.7527437223168782,,
,2235.0,725.0,2613.0,958.0,1774.0,2269.0,2677.0,,,,-1.35251068260814,-2.96793162901867,-1.2820798267235,,0.40438767842395845,,
,2235.0,721.0,2611.0,955.0,1777.0,2258.0,2666.0,,,,-1.3527961511699,-2.96770605201163,-1.28084151055353,,0.06556331630254995,,
,2233.0,721.0,2610.0,956.0,1780.0,2277.0,2670.0,,,,-1.35217040002633,-2.96797469238487,-1.28080361333571,,-0.2554824867261184,,
,2231.0,722.0,2610.0,955.0,1771.0,2291.0,2646.0,,,,-1.35247313506616,-2.96765598899792,-1.28171796983995,,-0.552210998570096,,
,2228.0,722.0,2611.0,955.0,1776.0,2298.0,2636.0,,,,-1.35169129123057,-2.96774235774297,-1.2807422322183,,-0.8200022666003479,,
,2226.0,721.0,2609.0,951.0,1792.0,2308.0,2666.0,,,,-1.35246552794365,-2.96773362111409,-1.28155634353506,,-1.056193376548725,,
,2227.0,720.0,2612.0,950.0,1804.0,2290.0,2670.0,,,,-1.35115340869756,-2.96792735224418,-1.28092027489703,,-1.2599535990805626,,
2025-07-17 17:11:51,2229.0,720.0,2608.0,952.0,1778.0,2294.0,2670.0,,,2025/07/17 05:11:51 PM,-1.35144408970548,-2.96778213263426,-1.28058425682716,,-1.4320209931651282,,
,2227.0,719.0,2610.0,950.0,1770.0,2276.0,2657.0,,,,-1.35133036447563,-2.96780069608779,-1.28100432314523,,-1.5743363584749284,,
,2224.0,721.0,2609.0,951.0,1776.0,2263.0,2647.0,,,,-1.35101117154954,-2.96812094473607,-1.28088172727442,,-1.6896168760176087,,
,2223.0,717.0,2607.0,947.0,1790.0,2260.0,2658.0,,,,-1.35138588321845,-2.96788399696773,-1.28067623929006,,-1.7809132626300201,,
,2221.0,719.0,2609.0,949.0,1774.0,2274.0,2687.0,,,,-1.35098555327788,-2.96776680228353,-1.27994933638106,,-1.8511914184154552,,
,2221.0,718.0,2609.0,947.0,1789.0,2290.0,2673.0,,,,-1.35078904352241,-2.96798009965197,-1.27989510943087,,-1.9029734396504379,,
,2222.0,718.0,2608.0,948.0,1784.0,2296.0,2682.0,,,,-1.35081184066947,-2.96793461045527,-1.28042069685598,,-1.938064683105506,,
,2220.0,719.0,2608.0,948.0,1788.0,2297.0,2665.0,,,,-1.35063826265056,-2.96769255322882,-1.28066040643368,,-1.9573842987519923,,
,2220.0,716.0,2608.0,947.0,1786.0,2291.0,2649.0,,,,-1.34997852115669,-2.96758757220351,-1.27991278213804,,-1.9609070059355584,,
,2221.0,719.0,2605.0,947.0,1800.0,2295.0,2640.0,,,,-1.35112027730551,-2.96782910524269,-1.28012672615846,,-1.9477143804243007,,
,2221.0,716.0,2610.0,947.0,1784.0,2290.0,2636.0,,,,-1.35031991817373,-2.96780925259611,-1.28061835124518,,-1.916144968985314,,
,2220.0,720.0,2610.0,947.0,1791.0,2298.0,2635.0,,,,-1.35004954285644,-2.96793715473109,-1.27919527469691,,-1.8640245589465587,,
,2215.0,717.0,2606.0,944.0,1786.0,2289.0,2652.0,,,,-1.3501336570678,-2.96769400857476,-1.28000220631384,,-1.788951397225668,,
,2217.0,716.0,2607.0,945.0,1815.0,2278.0,2664.0,,,,-1.35048403693742,-2.96784773753432,-1.27939847797698,,-1.6886068236601866,,
,2219.0,718.0,2608.0,945.0,1795.0,2268.0,2669.0,,,,-1.35059448681149,-2.96765610195177,-1.28009862059071,,-1.5610606178379716,,
,2219.0,719.0,2608.0,945.0,1795.0,2274.0,2674.0,,,,-1.35040192122064,-2.96772675792703,-1.27975186161517,,-1.4050430634939681,,
,2217.0,716.0,2605.0,944.0,1785.0,2260.0,2689.0,,,,-1.35001893642424,-2.96756741392165,-1.28044084731316,,-1.220162126821298,,
,2217.0,719.0,2608.0,944.0,1786.0,2269.0,2670.0,,,,-1.35063839523421,-2.96787979757311,-1.27953664034727,,-1.0070529315779704,,
,2217.0,719.0,2607.0,945.0,1781.0,2294.0,2690.0,,,,-1.34983669958755,-2.96767040683862,-1.27984446390613,,-0.7674559184176416,,
,2220.0,720.0,2610.0,946.0,1787.0,2282.0,2651.0,,,,-1.34919103530127,-2.96774283471785,-1.28032872344716,,-0.5042277963809515,,
,2217.0,717.0,2606.0,943.0,1788.0,2289.0,2640.0,,,,-1.34980470804082,-2.96790022321481,-1.27901358325582,,-0.22129441946085038,,
,2215.0,717.0,2606.0,944.0,1791.0,2275.0,2658.0,,,,-1.34982079009987,-2.96773129846276,-1.28018632259649,,0.07644326050802834,,
,2218.0,717.0,2605.0,943.0,1785.0,2305.0,2657.0,,,,-1.34939001611348,-2.96787832406795,-1.27888746949781,,0.38323957020849286,,
,2217.0,717.0,2609.0,946.0,1769.0,2304.0,2675.0,,,,-1.34917479278601,-2.96774864147616,-1.27929703003585,,0.6926624771824079,,
,2217.0,717.0,2607.0,945.0,1770.0,2299.0,2665.0,,,,-1.3491122813242,-2.96784222675338,-1.28010113673947,,0.9977744699784928,,
,2214.0,716.0,2606.0,945.0,1776.0,2305.0,2639.0,,,,-1.35065528951511,-2.96766732594375,-1.27989650419539,,1.2913329617065017,,
,2217.0,716.0,2606.0,944.0,1780.0,2299.0,2664.0,,,,-1.35076119302621,-2.96781472712217,-1.2799189213243,,1.566008549018516,,
,2216.0,714.0,2607.0,943.0,1778.0,2283.0,2675.0,,,,-1.3499781603722,-2.96759642846088,-1.28018236532912,,1.8146193240550483,,
,2215.0,715.0,2609.0,946.0,1777.0,2286.0,2678.0,,,,-1.34984706173282,-2.96790791042464,-1.28024885055767,,2.0303779597533285,,
,2217.0,717.0,2609.0,946.0,1776.0,2283.0,2674.0,,,,-1.34927405173336,-2.96756361511049,-1.28031297808616,,2.2071458858659976,,
,2216.0,715.0,2606.0,941.0,1773.0,2286.0,2671.0,,,,-1.34942674316325,-2.96803908608394,-1.27967728127273,,2.3396860265773616,,
,2215.0,716.0,2607.0,943.0,1798.0,2300.0,2676.0,,,,-1.34958218083162,-2.96757709894794,-1.28013980813877,,2.4239025763561077,,
,2213.0,717.0,2608.0,945.0,1787.0,2287.0,2674.0,,,,-1.34997173079897,-2.96786580979017,-1.28028374316997,,2.4570532686965985,,
,2214.0,717.0,2608.0,944.0,1789.0,2276.0,2650.0,,,,-1.34997377524492,-2.96806301453465,-1.27999600822072,,2.4379169317571594,,
,2215.0,715.0,2606.0,944.0,1795.0,2304.0,2648.0,,,,-1.34969044062891,-2.96765628017107,-1.28066322131892,,2.3668979048513026,,
,2216.0,716.0,2606.0,941.0,1799.0,2292.0,2665.0,,,,-1.34970399320982,-2.96762819302359,-1.28021354215545,,2.2460506149453354,,
,2215.0,717.0,2609.0,944.0,1803.0,2291.0,2644.0,,,,-1.35048600804555,-2.96788512021178,-1.28065835500367,,2.0790132778304105,,
,2215.0,717.0,2608.0,943.0,1786.0,2288.0,2636.0,,,,-1.34963375178512,-2.96775813788121,-1.2813102932019,,1.8708488880603626,,
,2214.0,717.0,2608.0,944.0,1801.0,2295.0,2636.0,,,,-1.35014397956492,-2.96776537269023,-1.28167748705829,,1.6278024894370249,,
,2213.0,714.0,2604.0,943.0,1811.0,2267.0,2638.0,,,,-1.35017915977977,-2.96809895124373,-1.28148203146538,,1.3569936091655,,
,2218.0,720.0,2609.0,944.0,1801.0,2275.0,2642.0,,,,-1.35063947394749,-2.96785832723505,-1.28109920241477,,1.0660695893334151,,
,2218.0,716.0,2606.0,945.0,1812.0,2271.0,2634.0,,,,-1.35060134747778,-2.96788097476712,-1.28140326952495,,0.76284832694942,,
,2215.0,717.0,2606.0,944.0,1800.0,2269.0,2649.0,,,,-1.35065024769773,-2.96804185967513,-1.28195695597768,,0.45497766105906273,,
,2216.0,718.0,2608.0,945.0,1806.0,2268.0,2642.0,,,,-1.35142006379817,-2.96799352269033,-1.28174497185062,,0.14963411477201918,,
,2215.0,713.0,2605.0,938.0,1802.0,2291.0,2648.0,,,,-1.35191196593863,-2.96809762477635,-1.28173543604966,,-0.14672283418006132,,
,2220.0,717.0,2609.0,944.0,1820.0,2280.0,2645.0,,,,-1.35150532408025,-2.96799210113537,-1.28176254486471,,-0.428531907003012,,
,2217.0,717.0,2606.0,945.0,1810.0,2278.0,2659.0,,,,-1.35200395640918,-2.96840934736406,-1.28189261229374,,-0.6912440028754103,,
,2216.0,718.0,2608.0,945.0,1795.0,2276.0,2660.0,,,,-1.35205201069155,-2.96809903499749,-1.28321025685688,,-0.9313713033448182,,
,2216.0,715.0,2605.0,944.0,1812.0,2261.0,2659.0,,,,-1.3523800712586,-2.96817387249179,-1.28281245590176,,-1.1464768593153838,,
,2216.0,716.0,2606.0,943.0,1781.0,2280.0,2651.0,,,,-1.35177919902039,-2.96804808315759,-1.28306122664895,,-1.3351115921992878,,
,2219.0,718.0,2609.0,946.0,1794.0,2298.0,2656.0,,,,-1.3522732904948,-2.96824400761936,-1.28328771083537,,-1.4967065519861877,,
,2217.0,715.0,2607.0,945.0,1799.0,2294.0,2650.0,,,,-1.3517749579161,-2.96797066627489,-1.28313938913457,,-1.6314292975533642,,
,2217.0,716.0,2607.0,946.0,1809.0,2280.0,2659.0,,,,-1.35204981480367,-2.96825762957711,-1.28345861990923,,-1.7400146182639975,,
,2218.0,716.0,2606.0,944.0,1811.0,2276.0,2649.0,,,,-1.35136730354383,-2.96854719364251,-1.28356647889795,,-1.8235811252017888,,
,2220.0,717.0,2609.0,944.0,1801.0,2274.0,2640.0,,,,-1.35100690853258,-2.96775022853099,-1.28308939585277,,-1.8834459603085714,,
,2221.0,718.0,2608.0,945.0,1811.0,2283.0,2662.0,,,,-1.35134670922891,-2.96818704948983,-1.28256860421562,,-1.920949708672412,,
,2223.0,718.0,2608.0,948.0,1806.0,2287.0,2675.0,,,,-1.3506682582008,-2.96811794508644,-1.28304057092759,,-1.9373025946906623,,
,2222.0,717.0,2607.0,945.0,1796.0,2285.0,2674.0,,,,-1.34986465576316,-2.96818271645642,-1.2824601578855,,-1.933461394314745,,
,2220.0,718.0,2606.0,944.0,1787.0,2296.0,2648.0,,,,-1.34998568451568,-2.96820426564663,-1.28315206336437,,-1.9100443685743187,,
,2221.0,717.0,2607.0,945.0,1796.0,2294.0,2676.0,,,,-1.34912357239258,-2.96817353828336,-1.2826366801088,,-1.8672890189046156,,
,2224.0,718.0,2607.0,947.0,1788.0,2278.0,2681.0,,,,-1.34962621320016,-2.9681379014323,-1.28218399436343,,-1.8050547126096743,,
,2225.0,718.0,2607.0,946.0,1794.0,2273.0,2667.0,,,,-1.3489752664448,-2.96793429515455,-1.28287828359817,,-1.722869460282103,,
,2226.0,717.0,2606.0,944.0,1809.0,2254.0,2639.0,,,,-1.34931336992657,-2.96815410926456,-1.28362781889454,,-1.6200176409327547,,
,2223.0,720.0,2607.0,948.0,1799.0,2261.0,2659.0,,,,-1.3493634947023,-2.96834535341607,-1.28334559846876,,-1.4956634970558407,,
,2225.0,721.0,2608.0,946.0,1809.0,2275.0,2654.0,,,,-1.35037330769865,-2.96835643964361,-1.28356413686946,,-1.3490038089235448,,
,2225.0,718.0,2606.0,947.0,1811.0,2285.0,2657.0,,,,-1.35050669755841,-2.96812420555778,-1.28365294438053,,-1.179442110361228,,
,2223.0,719.0,2607.0,947.0,1803.0,2256.0,2657.0,,,,-1.35106892093119,-2.96813921956427,-1.28372458474473,,-0.9867757549384791,,
,2229.0,718.0,2608.0,948.0,1810.0,2260.0,2659.0,,,,-1.3517775498765,-2.96812752150081,-1.28378850866571,,-0.7713857753792469,,
,2227.0,721.0,2609.0,949.0,1816.0,2274.0,2656.0,,,,-1.35139767345376,-2.96850209242345,-1.28397124980919,,-0.5344178452913599,,
,2228.0,720.0,2607.0,950.0,1808.0,2288.0,2648.0,,,,-1.35110432356706,-2.96839684537424,-1.28398091924083,,-0.27794115485538695,,
,2232.0,720.0,2609.0,951.0,1806.0,2295.0,2655.0,,,,-1.35140244533116,-2.9681224001598,-1.28463552862675,,-0.005071077156093324,,
,2230.0,718.0,2607.0,947.0,1803.0,2310.0,2637.0,,,,-1.35102580413194,-2.96854161111026,-1.28467726158249,,0.27995869426210557,,
,2229.0,719.0,2609.0,949.0,1796.0,2300.0,2637.0,,,,-1.35157690617643,-2.96835213445986,-1.28508001243693,,0.5717882750653835,,
,2231.0,721.0,2609.0,950.0,1802.0,2286.0,2661.0,,,,-1.35059992621125,-2.96856487670603,-1.28451967629085,,0.8640001874836961,,
,2229.0,721.0,2609.0,949.0,1806.0,2290.0,2666.0,,,,-1.35144491950108,-2.96852442985919,-1.28535200740028,,1.1492737203750338,,
,2230.0,720.0,2608.0,947.0,1812.0,2287.0,2657.0,,,,-1.35202540613398,-2.96854814578229,-1.28493663597217,,1.4196295738112354,,
,2232.0,722.0,2609.0,951.0,1801.0,2307.0,2638.0,,,,-1.35181334723184,-2.96850498624264,-1.28471701097998,,1.6667622990048268,,
,2232.0,719.0,2609.0,951.0,1792.0,2285.0,2686.0,,,,-1.35294431309101,-2.96863381103125,-1.28525512457703,,1.8824487977919746,,
,2233.0,724.0,2609.0,951.0,1800.0,2255.0,2661.0,,,,-1.35302003393011,-2.96867387229922,-1.28532120231488,,2.05901032665148,,
,2234.0,722.0,2610.0,950.0,1811.0,2257.0,2664.0,,,,-1.35366452709027,-2.9686249932395,-1.286420615454,,2.1897945982239024,,
,2234.0,721.0,2609.0,951.0,1811.0,2273.0,2652.0,,,,-1.35434914467358,-2.96881280333911,-1.28607531453219,,2.2696359209013437,,
,2234.0,721.0,2608.0,954.0,1828.0,2273.0,2642.0,,,,-1.35384445684836,-2.96890598628068,-1.28544556959842,,2.2952471223600037,,
,2237.0,722.0,2610.0,950.0,1810.0,2284.0,2653.0,,,,-1.35411479412917,-2.96864626879115,-1.28724738994304,,2.26549886287893,,
,2236.0,722.0,2609.0,953.0,1796.0,2278.0,2653.0,,,,-1.35487099177396,-2.96858364265112,-1.2863238017627,,2.1815504937954215,,
,2236.0,722.0,2609.0,953.0,1816.0,2264.0,2657.0,,,,-1.3548925833333,-2.96877061765495,-1.28675094524504,,2.0468114123319294,,
,2238.0,723.0,2607.0,952.0,1812.0,2272.0,2668.0,,,,-1.35599764153395,-2.9687939180149,-1.28670896277949,,1.8667311527007833,,
,2239.0,721.0,2610.0,952.0,1813.0,2260.0,2649.0,,,,-1.35594940839923,-2.96895644474284,-1.28750024529056,,1.6484370942969429,,
,2238.0,723.0,2608.0,954.0,1795.0,2266.0,2643.0,,,,-1.35692829165056,-2.96907527323575,-1.28732237690333,,1.400256757318848,,
,2239.0,724.0,2609.0,955.0,1802.0,2282.0,2644.0,,,,-1.35776864702585,-2.96893751434816,-1.28839946606961,,1.131173824008639,,
,2241.0,722.0,2607.0,952.0,1815.0,2282.0,2649.0,,,,-1.35902299464079,-2.9691851725535,-1.28829360850094,,0.8502716096692498,,
,2240.0,723.0,2609.0,954.0,1814.0,2260.0,2634.0,,,,-1.35887408986811,-2.96887212206661,-1.28840493423128,,0.5662150162014752,,
,2243.0,725.0,2608.0,956.0,1809.0,2291.0,2656.0,,,,-1.35915684772341,-2.96912126354856,-1.2882880417049,,0.2868136344599577,,
,2242.0,726.0,2612.0,956.0,1801.0,2284.0,2679.0,,,,-1.35993348486464,-2.96895019592264,-1.28964417452765,,0.018696633546450594,,
,2243.0,725.0,2611.0,956.0,1821.0,2272.0,2695.0,,,,-1.35952910220401,-2.96916204753254,-1.28842213807206,,-0.2328837240066407,,
,2245.0,725.0,2607.0,954.0,1839.0,2294.0,2676.0,,,,-1.35954621763098,-2.9691357697842,-1.28994037586648,,-0.46411706596769164,,
,2243.0,726.0,2611.0,956.0,1833.0,2291.0,2657.0,,,,-1.35985671805683,-2.96915086981235,-1.2893938532,,-0.6725783323578999,,
,2246.0,725.0,2608.0,956.0,1830.0,2285.0,2647.0,,,,-1.36024674246626,-2.9690259917445,-1.28919603554485,,-0.8570701852482935,,
,2246.0,724.0,2611.0,959.0,1825.0,2297.0,2660.0,,,,-1.36070444020374,-2.96899292978649,-1.28940823862458,,-1.0173925296491642,,
,2247.0,724.0,2609.0,958.0,1827.0,2294.0,2661.0,,,,-1.36022143152119,-2.96914294505393,-1.28939874391121,,-1.154071226224876,,
,2245.0,727.0,2611.0,958.0,1815.0,2270.0,2641.0,,,,-1.36027723081763,-2.96906057642533,-1.28919650866263,,-1.2680782095064815,,
,2246.0,726.0,2610.0,957.0,1822.0,2276.0,2635.0,,,,-1.36052036619308,-2.96922806320297,-1.28934027579922,,-1.3605717904208243,,
,2245.0,723.0,2609.0,957.0,1815.0,2282.0,2643.0,,,,-1.36054605624552,-2.96893101644768,-1.28960479673236,,-1.432679613628657,,
,2242.0,723.0,2609.0,957.0,1801.0,2255.0,2664.0,,,,-1.36093522967529,-2.96907521115966,-1.288993793888,,-1.4853386060843317,,
,2242.0,722.0,2609.0,954.0,1792.0,2246.0,2658.0,,,,-1.36111553191622,-2.96924310409935,-1.28905067416795,,-1.5191976095605761,,
,2241.0,722.0,2609.0,955.0,1788.0,2252.0,2652.0,,,,-1.36180541425621,-2.96928969905394,-1.28921172458803,,-1.5345805868349702,,
,2244.0,726.0,2609.0,956.0,1812.0,2254.0,2638.0,,,,-1.36122986907523,-2.96925441450862,-1.29039325412902,,-1.531502281166891,,
,2241.0,722.0,2607.0,954.0,1815.0,2245.0,2628.0,,,,-1.36105545199012,-2.96930925478724,-1.28966777980225,,-1.5097242815046308,,
,2238.0,721.0,2609.0,955.0,1801.0,2268.0,2638.0,,,,-1.36087483053105,-2.96936193955404,-1.29046092320094,,-1.468837437548058,,
,2236.0,720.0,2609.0,953.0,1801.0,2290.0,2630.0,,,,-1.36157184019612,-2.96939789445132,-1.29039171108808,,-1.4083562803188574,,
,2238.0,722.0,2604.0,952.0,1801.0,2286.0,2641.0,,,,-1.36208994279706,-2.96919744804186,-1.2903235516585,,-1.327812496974764,,
,2235.0,723.0,2607.0,952.0,1811.0,2291.0,2636.0,,,,-1.36255147355854,-2.96940556154866,-1.29120576521262,,-1.2268375912591245,,
,2233.0,721.0,2607.0,952.0,1814.0,2290.0,2637.0,,,,-1.36205680340093,-2.9696838811826,-1.29043124020637,,-1.1052294265627027,,
,2232.0,721.0,2605.0,952.0,1823.0,2270.0,2659.0,,,,-1.36222603125332,-2.96941261438809,-1.28964801052351,,-0.9630027815453871,,
,2233.0,720.0,2608.0,952.0,1824.0,2283.0,2651.0,,,,-1.36297051956075,-2.96935790103929,-1.2903721752063,,-0.8004293556143132,,
,2232.0,717.0,2605.0,949.0,1814.0,2281.0,2631.0,,,,-1.36327864616422,-2.96947094351201,-1.29054614521551,,-0.6180766913242949,,
,2234.0,720.0,2605.0,949.0,1800.0,2283.0,2624.0,,,,-1.36228428602896,-2.96928360041548,-1.29050228957711,,-0.4168571630664711,,
,2228.0,717.0,2604.0,949.0,1815.0,2300.0,2658.0,,,,-1.36299215993762,-2.96923630054086,-1.29050205975568,,-0.1980967357482429,,
,2230.0,718.0,2606.0,947.0,1839.0,2271.0,2640.0,,,,-1.36285657699309,-2.96928842966878,-1.29076410120483,,0.03637163638098679,,
,2229.0,718.0,2606.0,949.0,1838.0,2265.0,2640.0,,,,-1.36268607001792,-2.96951136685121,-1.29097663066162,,0.28409281665642283,,
,2231.0,720.0,2605.0,948.0,1824.0,2268.0,2620.0,,,,-1.36232453606699,-2.9694591050831,-1.29097239234527,,0.5418645845190738,,
,2228.0,717.0,2608.0,948.0,1824.0,2266.0,2629.0,,,,-1.36163533930696,-2.96954143502348,-1.28982239868601,,0.8056239049624729,,
,2231.0,718.0,2606.0,946.0,1833.0,2248.0,2646.0,,,,-1.36204224612485,-2.96983765318816,-1.28995784939842,,1.070371469289286,,
,2228.0,719.0,2606.0,947.0,1820.0,2265.0,2656.0,,,,-1.36219620981339,-2.9696090796708,-1.2908404639275,,1.3301634073187558,,
,2229.0,721.0,2606.0,948.0,1833.0,2279.0,2663.0,,,,-1.36321252552581,-2.96956218706804,-1.29016067737905,,1.5781953349367712,,
,2229.0,719.0,2607.0,949.0,1832.0,2272.0,2655.0,,,,-1.36369055128217,-2.96951693401185,-1.29089070436393,,1.806994719454967,,
,2229.0,719.0,2605.0,948.0,1822.0,2264.0,2642.0,,,,-1.3639252399182,-2.9694095917551,-1.29028033009915,,2.0087242787781254,,
,2230.0,718.0,2607.0,946.0,1831.0,2259.0,2669.0,,,,-1.36443817689317,-2.96942611686972,-1.29140078920512,,2.1755839017371885,,
,2229.0,718.0,2608.0,948.0,1827.0,2268.0,2628.0,,,,-1.3629030881975,-2.96952742325864,-1.29127349780019,,2.3002836521864998,,
2025-07-17 17:11:52,2231.0,723.0,2606.0,949.0,1816.0,2251.0,2637.0,,,2025/07/17 05:11:52 PM,-1.36413257448379,-2.96955581054191,-1.29051656171807,,2.376547868767647,,
,2230.0,720.0,2607.0,948.0,1804.0,2261.0,2644.0,,,,-1.36364642374826,-2.96973318452989,-1.29035314356414,,2.3996019606518546,,
,2228.0,716.0,2605.0,944.0,1806.0,2273.0,2644.0,,,,-1.36433546921319,-2.96973008451839,-1.29099283573778,,2.3665906140441297,,
,2230.0,719.0,2604.0,949.0,1801.0,2290.0,2674.0,,,,-1.36349831132471,-2.96927517820094,-1.29077238995734,,2.276879626294932,,
,2231.0,720.0,2606.0,948.0,1805.0,2299.0,2671.0,,,,-1.36383667140139,-2.96958134991615,-1.2902881650953,,2.1322035894073905,,
,2230.0,721.0,2606.0,948.0,1800.0,2306.0,2687.0,,,,-1.36341444569984,-2.96959375625125,-1.29025425436083,,1.93663730202845,,
,2230.0,720.0,2606.0,946.0,1809.0,2289.0,2675.0,,,,-1.36401906793356,-2.96961122769415,-1.29083669205197,,1.6963881551593936,,
,2228.0,717.0,2607.0,946.0,1799.0,2297.0,2655.0,,,,-1.36397315753105,-2.96945843481285,-1.29146738123403,,1.4194269247676743,,
,2228.0,718.0,2606.0,948.0,1807.0,2309.0,2644.0,,,,-1.36338263102768,-2.96961628614686,-1.29107753450592,,1.11499221187679,,
,2230.0,720.0,2607.0,949.0,1804.0,2282.0,2663.0,,,,-1.36312634033136,-2.96941471497566,-1.29098085285035,,0.793016583566482,,
,2228.0,716.0,2605.0,947.0,1804.0,2277.0,2682.0,,,,-1.36299163177219,-2.96953502688706,-1.29058347410165,,0.46352883216759155,,
,2228.0,718.0,2604.0,946.0,1803.0,2259.0,2676.0,,,,-1.36252194409229,-2.96916089386931,-1.29069039513221,,0.13608635744376632,,
,2229.0,718.0,2605.0,946.0,1788.0,2278.0,2691.0,,,,-1.3627052697869,-2.96945506245551,-1.29071046978543,,-0.18071494449747735,,
,2228.0,721.0,2607.0,948.0,1796.0,2289.0,2669.0,,,,-1.36258595352881,-2.96938808579081,-1.29024295199037,,-0.4796173231693218,,
,2229.0,720.0,2608.0,946.0,1799.0,2295.0,2655.0,,,,-1.36281876779612,-2.96935979807721,-1.29153926113333,,-0.7549424713822549,,
,2225.0,718.0,2604.0,948.0,1789.0,2298.0,2663.0,,,,-1.36344115298723,-2.9692481038046,-1.29094606725376,,-1.0026900345100698,,
,2227.0,717.0,2607.0,946.0,1784.0,2288.0,2661.0,,,,-1.36333819099624,-2.96984319036593,-1.29073745190037,,-1.2204989032275713,,
,2229.0,716.0,2607.0,948.0,1789.0,2287.0,2675.0,,,,-1.36302211765913,-2.96946130321968,-1.29120103131954,,-1.407487625383553,,
,2226.0,720.0,2605.0,946.0,1769.0,2288.0,2661.0,,,,-1.36313351672722,-2.96961734502856,-1.29148144152989,,-1.5639985923943829,,
,2229.0,721.0,2608.0,946.0,1783.0,2293.0,2654.0,,,,-1.36315012978227,-2.96958329670976,-1.29095465358388,,-1.6912764749582998,,
,2226.0,717.0,2603.0,945.0,1800.0,2292.0,2653.0,,,,-1.36299999333724,-2.96967346348859,-1.29157944275602,,-1.7911145601519265,,
,2227.0,720.0,2605.0,945.0,1787.0,2281.0,2657.0,,,,-1.36246265291012,-2.96945659544169,-1.29185605948159,,-1.865503073587735,,
,2229.0,721.0,2607.0,947.0,1796.0,2274.0,2651.0,,,,-1.36322915129833,-2.96969703889555,-1.29216400928004,,-1.91631134221765,,
,2229.0,719.0,2606.0,948.0,1804.0,2277.0,2664.0,,,,-1.3623847109198,-2.96961949547524,-1.29127341344917,,-1.9450310280768772,,
,2230.0,720.0,2606.0,945.0,1800.0,2276.0,2673.0,,,,-1.36232259853108,-2.96945849315191,-1.29086938930671,,-1.9526010067426005,,
,2228.0,718.0,2605.0,945.0,1796.0,2268.0,2673.0,,,,-1.36278766656591,-2.96946343053899,-1.29067586337658,,-1.9393262428739748,,
,2229.0,722.0,2606.0,949.0,1782.0,2253.0,2687.0,,,,-1.36237293107225,-2.96936860672742,-1.29124818749759,,-1.9048938358040723,,
,2229.0,721.0,2604.0,946.0,1789.0,2268.0,2639.0,,,,-1.36279061142788,-2.96939164923774,-1.29055907615767,,-1.848480047048162,,
,2229.0,721.0,2607.0,946.0,1798.0,2283.0,2638.0,,,,-1.36142219640752,-2.96961899397686,-1.29079502831961,,-1.7689335583692216,,
,2229.0,719.0,2606.0,946.0,1789.0,2293.0,2653.0,,,,-1.36239085574741,-2.96917436530527,-1.29151163677407,,-1.6650135922330007,,
,2230.0,720.0,2607.0,947.0,1789.0,2276.0,2633.0,,,,-1.36148195176838,-2.96949684325714,-1.29041899095136,,-1.5356578696972552,,
,2230.0,720.0,2607.0,949.0,1795.0,2280.0,2633.0,,,,-1.36220006537374,-2.96953513007459,-1.29062020070654,,-1.3802550260934061,,
,2231.0,720.0,2608.0,946.0,1793.0,2285.0,2647.0,,,,-1.36169083106902,-2.9694981842759,-1.29053333988679,,-1.1988984116865449,,
,2231.0,719.0,2609.0,948.0,1788.0,2296.0,2643.0,,,,-1.36272596479341,-2.96932841167792,-1.29125926172484,,-0.9926018636236348,,
,2232.0,720.0,2604.0,947.0,1782.0,2286.0,2641.0,,,,-1.36251928592604,-2.96942846473698,-1.29142859992822,,-0.7634618255100876,,
,2232.0,720.0,2604.0,949.0,1804.0,2282.0,2659.0,,,,-1.36125776631937,-2.96926879691335,-1.29069712052457,,-0.5147535763114834,,
,2233.0,721.0,2609.0,948.0,1801.0,2284.0,2665.0,,,,-1.36136745311439,-2.96975065965263,-1.29050553361866,,-0.25095248853523966,,
,2234.0,723.0,2608.0,948.0,1795.0,2282.0,2689.0,,,,-1.36142786222557,-2.96973414957531,-1.29023791101825,,0.022325360842587613,,
,2231.0,720.0,2605.0,946.0,1795.0,2285.0,2678.0,,,,-1.35995647548708,-2.96925587790414,-1.29032524816142,,0.2984648888229683,,
,2231.0,719.0,2604.0,948.0,1802.0,2289.0,2660.0,,,,-1.35967427786853,-2.96944330887754,-1.28995299186912,,0.5700729086568647,,
,2233.0,723.0,2609.0,949.0,1791.0,2261.0,2618.0,,,,-1.36015736524595,-2.9695467507777,-1.29065962659917,,0.8292696946728485,,
,2236.0,722.0,2609.0,952.0,1809.0,2265.0,2637.0,,,,-1.3597699507601,-2.96972473633506,-1.2896959355484,,1.068036929869862,,
,2233.0,721.0,2609.0,949.0,1794.0,2259.0,2624.0,,,,-1.35990671985454,-2.96929252659163,-1.29010412377762,,1.2786023068747054,,
,2235.0,720.0,2608.0,948.0,1770.0,2266.0,2647.0,,,,-1.35983381034553,-2.96938791567777,-1.28948482469508,,1.4538365592547695,,
,2235.0,722.0,2607.0,948.0,1789.0,2306.0,2661.0,,,,-1.35968850087593,-2.96968861341719,-1.29003511907584,,1.5876358524546952,,
,2236.0,724.0,2609.0,949.0,1794.0,2302.0,2657.0,,,,-1.35993682245981,-2.96938587984005,-1.29025482171886,,1.6752618465007638,,
,2236.0,723.0,2607.0,949.0,1792.0,2300.0,2664.0,,,,-1.35996788236094,-2.96914113562399,-1.28996232198051,,1.7136135237141834,,
,2233.0,722.0,2608.0,949.0,1785.0,2296.0,2641.0,,,,-1.35951459132709,-2.96926035734045,-1.28984766927603,,1.7014087792473853,,
,2237.0,721.0,2608.0,951.0,1775.0,2281.0,2639.0,,,,-1.35889872232833,-2.96953641409574,-1.28985979667747,,1.6392595488930743,,
,2240.0,723.0,2609.0,951.0,1776.0,2293.0,2630.0,,,,-1.35913392450115,-2.96919241435262,-1.28976574665507,,1.5296320207062493,,
,2237.0,724.0,2611.0,952.0,1795.0,2286.0,2672.0,,,,-1.35953469080033,-2.96912204061529,-1.28957651197877,,1.3766933833319794,,
,2240.0,725.0,2610.0,951.0,1788.0,2289.0,2675.0,,,,-1.35782439930932,-2.96948102979184,-1.28998064591964,,1.1860579148780397,,
,2237.0,725.0,2606.0,951.0,1790.0,2315.0,2655.0,,,,-1.35783944610883,-2.96926882508356,-1.28950915538614,,0.9644560816734254,,
,2239.0,724.0,2608.0,952.0,1782.0,2312.0,2647.0,,,,-1.35809041515705,-2.96931557975556,-1.28940933087535,,0.7193581885632018,,
,2241.0,726.0,2610.0,952.0,1782.0,2294.0,2665.0,,,,-1.35749662556545,-2.96937418727482,-1.2897917497846,,0.4585871862180223,,
,2241.0,724.0,2612.0,954.0,1796.0,2288.0,2674.0,,,,-1.35762418850102,-2.969280128948,-1.28914576201635,,0.18995315841448102,,
,2241.0,721.0,2608.0,954.0,1787.0,2297.0,2683.0,,,,-1.35755517591359,-2.96966919931671,-1.28953793989962,,-0.07906425568811101,,
,2239.0,722.0,2608.0,951.0,1786.0,2307.0,2687.0,,,,-1.35837788688366,-2.96971457741714,-1.28997208660176,,-0.3415681178795785,,
,2243.0,724.0,2607.0,953.0,1808.0,2313.0,2673.0,,,,-1.35791901860082,-2.96910373097904,-1.28880757564147,,-0.591423537373225,,
,2241.0,726.0,2609.0,954.0,1791.0,2287.0,2664.0,,,,-1.35725582713548,-2.96930828611141,-1.28874860318247,,-0.8233657292926545,,
,2243.0,727.0,2610.0,957.0,1787.0,2295.0,2664.0,,,,-1.35646659769015,-2.96912833589737,-1.28958283135017,,-1.0330457684873007,,
,2241.0,725.0,2608.0,952.0,1796.0,2307.0,2660.0,,,,-1.35637346916117,-2.96939862173689,-1.28932966721115,,-1.2170276143383898,,
,2245.0,726.0,2608.0,954.0,1778.0,2279.0,2663.0,,,,-1.3562476140756,-2.96902722052386,-1.28928628968174,,-1.372751387272512,,
,2244.0,725.0,2610.0,955.0,1777.0,2276.0,2651.0,,,,-1.3561222370483,-2.96907570861777,-1.28841081433081,,-1.4984764086842615,,
,2246.0,727.0,2611.0,955.0,1776.0,2295.0,2649.0,,,,-1.35758124102156,-2.96934307222716,-1.28901048441937,,-1.5932142111203615,,
,2247.0,727.0,2610.0,956.0,1776.0,2307.0,2629.0,,,,-1.35767439347664,-2.96915055897102,-1.28919344601713,,-1.6566578495872752,,
,2247.0,726.0,2610.0,956.0,1771.0,2316.0,2650.0,,,,-1.35951789133413,-2.96933013522017,-1.28964533046775,,-1.689110271484938,,
,2248.0,728.0,2611.0,958.0,1785.0,2310.0,2665.0,,,,-1.35941274957092,-2.96928710561071,-1.29032223767641,,-1.6914115934561051,,
,2246.0,729.0,2612.0,957.0,1789.0,2281.0,2676.0,,,,-1.35962265617367,-2.96949225465072,-1.29006544940564,,-1.6648630794861832,,
,2249.0,728.0,2611.0,956.0,1787.0,2284.0,2681.0,,,,-1.35933095408314,-2.96917586580979,-1.28946001127264,,-1.6111447030794699,,
,2244.0,727.0,2612.0,956.0,1775.0,2271.0,2704.0,,,,-1.36043661217878,-2.96902449245798,-1.29050495510957,,-1.5322237246037247,,
,2248.0,727.0,2610.0,957.0,1773.0,2285.0,2695.0,,,,-1.36125975143534,-2.96914431054817,-1.29130142450521,,-1.4302538328659953,,
,2250.0,727.0,2610.0,960.0,1773.0,2291.0,2686.0,,,,-1.36157596816815,-2.96943596619533,-1.29083388581439,,-1.3074678074080899,,
,2253.0,730.0,2609.0,959.0,1775.0,2290.0,2682.0,,,,-1.36190939722503,-2.96945547564922,-1.290328376635,,-1.1660706697940384,,
,2251.0,731.0,2610.0,961.0,1782.0,2312.0,2672.0,,,,-1.36248803980477,-2.96903336990091,-1.29129798917373,,-1.00814396015707,,
,2251.0,727.0,2610.0,959.0,1793.0,2312.0,2692.0,,,,-1.36155225035283,-2.9692298711746,-1.29133286251421,,-0.8355740933742314,,
,2254.0,730.0,2611.0,958.0,1776.0,2316.0,2674.0,,,,-1.3618582452563,-2.9692854177322,-1.29109913651292,,-0.6500178581559353,,
,2255.0,730.0,2611.0,958.0,1777.0,2277.0,2645.0,,,,-1.36211240394761,-2.96913892931625,-1.29104810997918,,-0.45291551572300004,,
,2251.0,730.0,2609.0,959.0,1791.0,2282.0,2646.0,,,,-1.36264921092239,-2.96914576296445,-1.29116539548316,,-0.2455566490973476,,
,2252.0,731.0,2612.0,959.0,1798.0,2306.0,2656.0,,,,-1.36210357698909,-2.96903681433683,-1.29202966152767,,-0.02919651420822587,,
,2253.0,730.0,2612.0,960.0,1788.0,2288.0,2658.0,,,,-1.3617522748212,-2.96926641379872,-1.29096353444701,,0.19478766918017956,,
,2257.0,732.0,2614.0,962.0,1795.0,2298.0,2659.0,,,,-1.36166630478438,-2.96907510363611,-1.29096218386886,,0.42471863427155354,,
,2254.0,729.0,2612.0,959.0,1802.0,2304.0,2654.0,,,,-1.36189602426764,-2.96925394362912,-1.29030126772533,,0.658442534016806,,
,2253.0,732.0,2610.0,962.0,1788.0,2305.0,2646.0,,,,-1.36205315173016,-2.96909536220524,-1.29104769822864,,0.8931791206873758,,
,2253.0,727.0,2611.0,959.0,1791.0,2308.0,2697.0,,,,-1.36244700025672,-2.96910208950816,-1.29092753689465,,1.1254222957475948,,
,2249.0,731.0,2610.0,959.0,1776.0,2283.0,2683.0,,,,-1.36286666785732,-2.96924492462486,-1.29124342106042,,1.3509105737117066,,
,2251.0,730.0,2613.0,958.0,1779.0,2291.0,2687.0,,,,-1.36163949419713,-2.96934813159588,-1.29037010227955,,1.5646810526538601,,
,2248.0,727.0,2611.0,960.0,1772.0,2299.0,2680.0,,,,-1.36214660653447,-2.9693254735148,-1.28999679185218,,1.7612132038154305,,
,2245.0,727.0,2609.0,957.0,1760.0,2281.0,2666.0,,,,-1.36247932048696,-2.96940153417886,-1.29058287164829,,1.9346604286624947,,
,2244.0,727.0,2610.0,957.0,1778.0,2287.0,2638.0,,,,-1.36176526470973,-2.96933682872135,-1.29101327000927,,2.0791580529258136,,
,2246.0,724.0,2611.0,957.0,1771.0,2309.0,2656.0,,,,-1.36121866361999,-2.96938377422986,-1.29135484840899,,2.1891866751951046,,
,2240.0,725.0,2608.0,955.0,1778.0,2283.0,2669.0,,,,-1.36208817684702,-2.96941211496604,-1.29072338428137,,2.259960581145462,,
,2240.0,726.0,2609.0,956.0,1787.0,2279.0,2665.0,,,,-1.36150639199895,-2.96926618911959,-1.29048398073258,,2.2878038126332974,,
,2238.0,723.0,2609.0,952.0,1776.0,2276.0,2674.0,,,,-1.36167279316378,-2.96927656087756,-1.2907863878594,,2.2704731175516675,,
,2240.0,724.0,2610.0,954.0,1778.0,2268.0,2674.0,,,,-1.36162938530087,-2.96903862442856,-1.290471987291,,2.207388787344597,,
,2237.0,724.0,2611.0,954.0,1777.0,2287.0,2669.0,,,,-1.36131796652668,-2.96888946517703,-1.29055533500176,,2.099742079131016,,
,2236.0,726.0,2609.0,952.0,1793.0,2285.0,2661.0,,,,-1.3608282253451,-2.96882359225466,-1.29018260020275,,1.9504613504991999,,
,2235.0,722.0,2606.0,952.0,1816.0,2306.0,2656.0,,,,-1.36121799429415,-2.96899349093605,-1.28988903632006,,1.7640367396534553,,
,2233.0,725.0,2607.0,951.0,1815.0,2280.0,2671.0,,,,-1.36043541402856,-2.96885107049199,-1.28959703912995,,1.5462221948731665,,
,2234.0,725.0,2607.0,951.0,1814.0,2275.0,2661.0,,,,-1.36032988363291,-2.96882483980626,-1.28895416160852,,1.303649842938869,,
,2233.0,725.0,2608.0,951.0,1799.0,2301.0,2641.0,,,,-1.36030086470626,-2.96900182920011,-1.28891448163807,,1.0434015011393025,,
,2233.0,723.0,2609.0,952.0,1794.0,2304.0,2635.0,,,,-1.3598502645882,-2.96877283202454,-1.28916864928774,,0.7725840643763087,,
,2232.0,723.0,2610.0,950.0,1770.0,2286.0,2639.0,,,,-1.35976164835421,-2.96888354739194,-1.28901639493459,,0.4979504407077753,,
,2232.0,724.0,2608.0,950.0,1791.0,2297.0,2645.0,,,,-1.35979860843916,-2.96909912422134,-1.28885190956347,,0.22559796144526756,,
,2231.0,723.0,2609.0,952.0,1786.0,2287.0,2653.0,,,,-1.35983000965058,-2.96902216188322,-1.28957108126648,,-0.03923587593632749,,
,2231.0,723.0,2611.0,950.0,1790.0,2282.0,2654.0,,,,-1.35896838292757,-2.96871506909894,-1.28865840309002,,-0.2922730697651624,,
,2230.0,720.0,2609.0,948.0,1780.0,2277.0,2663.0,,,,-1.35780101261391,-2.96864025345754,-1.28842724291488,,-0.5301947652739879,,
,2231.0,722.0,2609.0,950.0,1776.0,2279.0,2652.0,,,,-1.35836461202242,-2.96873932961571,-1.28858453709286,,-0.7505555920155422,,
,2233.0,724.0,2608.0,950.0,1776.0,2277.0,2671.0,,,,-1.35764372322333,-2.96872436569824,-1.28872161629444,,-0.9516350357991777,,
,2229.0,723.0,2610.0,950.0,1764.0,2281.0,2668.0,,,,-1.35779562837671,-2.96909612891151,-1.28802166493331,,-1.1322529384278315,,
,2230.0,723.0,2607.0,949.0,1770.0,2279.0,2670.0,,,,-1.35723621506371,-2.96887393661044,-1.28781489249154,,-1.2915778274589147,,
,2230.0,723.0,2609.0,949.0,1780.0,2275.0,2668.0,,,,-1.35799832343882,-2.96898128170051,-1.28870206521614,,-1.4289551627286858,,
,2229.0,722.0,2609.0,948.0,1784.0,2280.0,2686.0,,,,-1.3573347981134,-2.9688364247161,-1.28832401161396,,-1.543777851855768,,
,2231.0,723.0,2609.0,948.0,1803.0,2302.0,2673.0,,,,-1.35754727653814,-2.96862631511032,-1.28780490921753,,-1.6354139501881735,,
,2227.0,724.0,2611.0,950.0,1799.0,2294.0,2659.0,,,,-1.35725701384943,-2.96845863749093,-1.28797872727056,,-1.7031971306669405,,
,2228.0,722.0,2608.0,949.0,1768.0,2306.0,2699.0,,,,-1.35702743793241,-2.9685785408295,-1.28832642153214,,-1.7464755073222464,,
,2229.0,723.0,2608.0,949.0,1769.0,2281.0,2685.0,,,,-1.35728870598269,-2.96888850173693,-1.28691109758605,,-1.7647052748628822,,
,2229.0,724.0,2608.0,948.0,1760.0,2309.0,2704.0,,,,-1.35590268964145,-2.96882706840065,-1.28794244396744,,-1.7575689591865529,,
,2230.0,724.0,2611.0,948.0,1749.0,2272.0,2679.0,,,,-1.35595558510152,-2.96855305890852,-1.28771836401301,,-1.7250949425524742,,
,2227.0,721.0,2606.0,947.0,1762.0,2262.0,2668.0,,,,-1.35585175729666,-2.9684498557705,-1.28652485058523,,-1.6677555935822608,,
,2225.0,722.0,2607.0,947.0,1756.0,2281.0,2650.0,,,,-1.35543028488276,-2.96832208333987,-1.28642295405478,,-1.586525373969037,,
,2228.0,723.0,2608.0,948.0,1770.0,2286.0,2656.0,,,,-1.35479425996252,-2.96842409044753,-1.28613297524564,,-1.482886945826966,,
,2228.0,723.0,2607.0,948.0,1768.0,2279.0,2632.0,,,,-1.35417842641229,-2.9685384424509,-1.28720952651281,,-1.358781609307792,,
,2228.0,725.0,2607.0,949.0,1772.0,2285.0,2647.0,,,,-1.35435954276147,-2.9685587053444,-1.28655813949192,,-1.2165092118009828,,
,2228.0,723.0,2606.0,948.0,1748.0,2289.0,2691.0,,,,-1.35436400366374,-2.96861312760165,-1.28645231031583,,-1.0585907240720658,,
,2226.0,721.0,2606.0,947.0,1749.0,2328.0,2673.0,,,,-1.35389252089565,-2.96861675879781,-1.28565964500398,,-0.8876127952834909,,
,2228.0,722.0,2610.0,948.0,1754.0,2345.0,2718.0,,,,-1.35498405007359,-2.96854415530383,-1.28668143014659,,-0.7060769215758445,,
,2227.0,724.0,2608.0,950.0,1768.0,2326.0,2731.0,,,,-1.35510888543187,-2.96854094761544,-1.28644671965859,,-0.516275999312433,,
2025-07-17 17:11:53,2227.0,722.0,2609.0,948.0,1769.0,2329.0,2713.0,,,2025/07/17 05:11:53 PM,-1.35404186147393,-2.96830899009929,-1.28590848123991,,-0.320218013449375,,
,2226.0,721.0,2609.0,948.0,1765.0,2344.0,2687.0,,,,-1.35387114105249,-2.96842363112656,-1.28650538609468,,-0.11961076263849048,,
