TimeLabel,MEAS1_PPG1,MEAS1_PPG2,MEAS1_PPG3,MEAS1_PPG4,ACCX,ACCY,ACCZ,HR_timestamp,HR_value,radar_timestamp,phase_rx0,phase_rx1,phase_rx2,timestep,n_process,original_rate,calculated_rate
2025-08-05 18:33:46,3899.0,956.0,3233.0,847.0,1914.0,3372.0,928.0,2025-08-05 18:34:19,85.0,2025/08/05 06:33:46 PM,0.0773564538952853,-1.63559993313376,0.0907815121076325,2025/08/05 06:33:46 PM,8.062913219918169,0.0,18.852611940298505
,3894.0,954.0,3231.0,847.0,1900.0,3371.0,939.0,2025-08-05 18:34:20,85.0,,0.0773290127492433,-1.63511278882948,0.0908046533207438,2025/08/05 06:33:56 PM,7.964368138724519,16.141429901123047,19.416476937347152
,3899.0,957.0,3231.0,846.0,1900.0,3364.0,935.0,2025-08-05 18:34:21,85.0,,0.0773269456761134,-1.63451980734852,0.0909105828290022,2025/08/05 06:34:06 PM,7.7513189838702825,17.686071395874023,19.057377049180335
,3898.0,956.0,3233.0,848.0,1901.0,3367.0,917.0,2025-08-05 18:34:22,84.0,,0.0773728941929125,-1.63432671284333,0.090878919751265,2025/08/05 06:34:16 PM,7.423703432106718,19.340972900390625,18.86798310978638
,3897.0,957.0,3233.0,848.0,1899.0,3359.0,914.0,2025-08-05 18:34:23,84.0,,0.0773980753878468,-1.63409704797395,0.0909115998197554,2025/08/05 06:34:26 PM,6.985694974337387,19.12181282043457,19.672131147541002
,3896.0,956.0,3230.0,847.0,1897.0,3335.0,920.0,2025-08-05 18:34:24,84.0,,0.0774139761098652,-1.63415688048926,0.0909508926534044,2025/08/05 06:34:36 PM,6.4456623500203944,19.203413009643555,20.10186757215619
,3894.0,958.0,3233.0,845.0,1905.0,3342.0,917.0,2025-08-05 18:34:25,83.0,,0.0774393997015912,-1.63355561182782,0.0910005636469541,2025/08/05 06:34:46 PM,5.815792538600643,19.536903381347656,19.467485919098824
,3898.0,955.0,3230.0,848.0,1903.0,3341.0,926.0,2025-08-05 18:34:26,83.0,,0.0774478951912788,-1.6330177093023,0.0909729962995395,2025/08/05 06:34:56 PM,5.111413176403205,20.013341903686523,19.399604227190437
,3899.0,956.0,3231.0,847.0,1907.0,3338.0,922.0,2025-08-05 18:34:27,84.0,,0.0774780737232351,-1.63284360225105,0.0910341376070188,2025/08/05 06:35:06 PM,4.350082817798554,19.65065574645996,19.28271352000164
,3895.0,955.0,3231.0,846.0,1905.0,3363.0,929.0,2025-08-05 18:34:28,84.0,,0.0775062215531905,-1.6332378076844,0.0910715649152282,2025/08/05 06:35:16 PM,3.55054020616119,19.36872291564941,18.761453600163282
,3898.0,957.0,3232.0,846.0,1908.0,3352.0,929.0,2025-08-05 18:34:29,85.0,,0.0774880936707913,-1.63277392421238,0.0910554993520959,2025/08/05 06:35:26 PM,2.7316147717360315,19.203413009643555,17.274233637116843
,3897.0,956.0,3232.0,846.0,1909.0,3359.0,929.0,2025-08-05 18:34:30,86.0,,0.077496957095565,-1.63305279842525,0.0911219926296885,2025/08/05 06:35:36 PM,1.9111991784869846,18.53281784057617,17.945845004668513
,3900.0,960.0,3231.0,847.0,1911.0,3361.0,924.0,2025-08-05 18:34:31,88.0,,0.0775166540533361,-1.63342608779843,0.091049954430135,2025/08/05 06:35:46 PM,1.1053713240845278,18.03155517578125,18.520674276850684
,3898.0,955.0,3232.0,846.0,1917.0,3344.0,923.0,2025-08-05 18:34:32,89.0,,0.0775048450624711,-1.6341897614932,0.0910358529894985,2025/08/05 06:35:56 PM,0.32773004136459777,17.923824310302734,18.13106729367766
,3897.0,957.0,3231.0,848.0,1912.0,3355.0,931.0,2025-08-05 18:34:33,90.0,,0.0775222122302308,-1.63427695104222,0.0910515503621888,2025/08/05 06:36:06 PM,-0.41101991643856856,18.41903305053711,17.519181585677693
,3901.0,959.0,3232.0,849.0,1915.0,3355.0,930.0,2025-08-05 18:34:34,90.0,,0.0774998972097189,-1.63411047041537,0.090992161424362,2025/08/05 06:36:16 PM,-1.1032271762994124,18.278751373291016,17.11566008964468
,3900.0,955.0,3232.0,846.0,1911.0,3337.0,920.0,2025-08-05 18:34:35,89.0,,0.0774914433353145,-1.63463409600921,0.0910351488904284,2025/08/05 06:36:26 PM,-1.7442162661268572,17.55669403076172,18.20170854411415
,3901.0,957.0,3234.0,848.0,1910.0,3362.0,906.0,2025-08-05 18:34:36,89.0,,0.0775048359462997,-1.63486257964148,0.0909892577009093,2025/08/05 06:36:36 PM,-2.332011231158701,17.67304801940918,17.408057750463374
,3901.0,956.0,3231.0,847.0,1912.0,3346.0,901.0,2025-08-05 18:34:37,88.0,,0.0774919935520141,-1.63412056894547,0.091024329281957,,-2.866909787681738,,
,3903.0,959.0,3235.0,848.0,1907.0,3362.0,918.0,2025-08-05 18:34:38,88.0,,0.0775033972177252,-1.63378364929925,0.0910196508990069,,-3.3509620503356974,,
,3901.0,957.0,3235.0,849.0,1905.0,3362.0,919.0,2025-08-05 18:34:39,87.0,,0.0775202487816797,-1.63351383402907,0.0910431672310281,,-3.787406843615854,,
,3904.0,958.0,3234.0,851.0,1901.0,3361.0,925.0,2025-08-05 18:34:40,87.0,,0.0774913891525007,-1.63317849916503,0.0910245967898403,,-4.180113687728828,,
,3902.0,957.0,3233.0,848.0,1902.0,3352.0,915.0,2025-08-05 18:34:41,86.0,,0.0775450912869731,-1.63322827855213,0.0910952928570104,,-4.533071143378224,,
,3905.0,959.0,3234.0,849.0,1909.0,3369.0,918.0,2025-08-05 18:34:42,83.0,,0.0775696562023093,-1.63266794106473,0.0911201130892126,,-4.849953043912569,,
,3902.0,958.0,3235.0,850.0,1906.0,3384.0,937.0,2025-08-05 18:34:43,80.0,,0.0775514417521935,-1.63230579006083,0.0911806424447029,,-5.133783545559114,,
,3907.0,959.0,3235.0,848.0,1908.0,3371.0,918.0,2025-08-05 18:34:44,74.0,,0.0775817714892715,-1.63161025814282,0.0911603481976403,,-5.386710381658629,,
,3902.0,958.0,3234.0,849.0,1903.0,3361.0,927.0,2025-08-05 18:34:45,70.0,,0.0775702874725927,-1.63036462119763,0.0912302477127604,,-5.609884440438366,,
,3906.0,959.0,3235.0,847.0,1911.0,3341.0,905.0,2025-08-05 18:34:46,68.0,,0.0775934568969647,-1.63050332803614,0.0912122243041161,,-5.803434758397552,,
,3906.0,959.0,3235.0,849.0,1913.0,3347.0,922.0,2025-08-05 18:34:47,66.0,,0.0776116605811299,-1.62978429910075,0.0912409834599814,,-5.966523022710743,,
,3906.0,958.0,3235.0,850.0,1912.0,3338.0,927.0,2025-08-05 18:34:48,65.0,,0.0776550897005172,-1.62963603183685,0.0912364925050209,,-6.097461032184578,,
,3905.0,957.0,3235.0,848.0,1909.0,3345.0,914.0,2025-08-05 18:34:49,65.0,,0.0776683539028243,-1.62975831160143,0.0913103988685537,,-6.193876757009913,,
,3904.0,958.0,3232.0,848.0,1907.0,3379.0,919.0,2025-08-05 18:34:50,65.0,,0.0777063918450488,-1.6293492861818,0.0913359819078409,,-6.252917319064338,,
,3909.0,959.0,3237.0,851.0,1908.0,3397.0,928.0,2025-08-05 18:34:51,65.0,,0.0777177675618719,-1.62960710173088,0.091339093959681,,-6.271478648630232,,
,3908.0,957.0,3237.0,850.0,1912.0,3385.0,931.0,2025-08-05 18:34:52,66.0,,0.0776857210999344,-1.62917835985693,0.0913655474497931,,-6.246451250744914,,
,3908.0,958.0,3235.0,847.0,1908.0,3363.0,928.0,2025-08-05 18:34:53,66.0,,0.0776729546591869,-1.62883076838835,0.091366391544497,,-6.174969835019642,,
,3909.0,960.0,3235.0,850.0,1912.0,3371.0,927.0,2025-08-05 18:34:54,68.0,,0.0776842915447552,-1.62874721648585,0.0913783956271557,,-6.054652296439464,,
,3911.0,963.0,3236.0,850.0,1913.0,3365.0,917.0,2025-08-05 18:34:55,69.0,,0.0777217055947154,-1.62980646408837,0.091376476586614,,-5.883811605786255,,
,3911.0,962.0,3237.0,852.0,1916.0,3365.0,918.0,2025-08-05 18:34:56,70.0,,0.0777013438587372,-1.62953899928534,0.0913622447607072,,-5.661623627860415,,
,3912.0,961.0,3235.0,851.0,1911.0,3353.0,930.0,2025-08-05 18:34:57,71.0,,0.0777183100713742,-1.62934910362842,0.0913604551434069,,-5.388235683242667,,
,3909.0,960.0,3236.0,850.0,1910.0,3359.0,931.0,2025-08-05 18:34:58,73.0,,0.0777536402983355,-1.62940437899165,0.091378635999365,,-5.0648051816570385,,
,3911.0,960.0,3236.0,850.0,1912.0,3360.0,920.0,2025-08-05 18:34:59,74.0,,0.0777131725126704,-1.62937551617353,0.0914237737144467,,-4.693464298600421,,
,3914.0,963.0,3240.0,854.0,1912.0,3354.0,919.0,2025-08-05 18:35:00,75.0,,0.0777338036067047,-1.62869551798947,0.0914427166968053,,-4.277214006790513,,
,3912.0,963.0,3238.0,849.0,1913.0,3350.0,914.0,2025-08-05 18:35:01,75.0,,0.077724071568416,-1.62875964757424,0.0913628643833274,,-3.8197573035690002,,
,3913.0,961.0,3238.0,849.0,1910.0,3337.0,915.0,2025-08-05 18:35:02,76.0,,0.0777332266622161,-1.62887864474717,0.0914048952598311,,-3.325286584728747,,
,3916.0,965.0,3240.0,853.0,1907.0,3352.0,940.0,2025-08-05 18:35:03,77.0,,0.0777385567275271,-1.62839180786287,0.0914609519495603,,-2.7982442667923433,,
,3914.0,962.0,3237.0,855.0,1912.0,3357.0,931.0,2025-08-05 18:35:04,77.0,,0.0777034198586479,-1.62759962084525,0.0914279045552103,,-2.2430795932215544,,
,3914.0,965.0,3240.0,852.0,1913.0,3346.0,933.0,2025-08-05 18:35:05,78.0,,0.0777594278807762,-1.62798896267248,0.0913971518521193,,-1.6640279208626336,,
,3914.0,960.0,3237.0,849.0,1911.0,3343.0,936.0,2025-08-05 18:35:06,79.0,,0.0777871348697821,-1.62703578586276,0.0914072049141787,,-1.0649406546314593,,
,3917.0,964.0,3240.0,855.0,1905.0,3339.0,924.0,2025-08-05 18:35:07,79.0,,0.0777855796430175,-1.6267865119471,0.0914837114888621,,-0.44919313420536616,,
,3917.0,965.0,3240.0,855.0,1902.0,3358.0,931.0,2025-08-05 18:35:08,81.0,,0.0777929504668545,-1.62715737018196,0.0914682619853724,,0.1803067216525441,,
,3916.0,962.0,3241.0,853.0,1903.0,3363.0,938.0,2025-08-05 18:35:09,82.0,,0.0778104988917811,-1.62649744571173,0.0914700375918912,,0.8209946612250346,,
,3919.0,964.0,3239.0,852.0,1902.0,3331.0,941.0,2025-08-05 18:35:10,83.0,,0.0777880569442547,-1.62665910489566,0.0915132365971251,,1.47040900478699,,
,3919.0,962.0,3239.0,852.0,1914.0,3348.0,938.0,2025-08-05 18:35:11,84.0,,0.0777999722044389,-1.62605283096857,0.0915567092454468,,2.1258448449791305,,
,3919.0,962.0,3242.0,853.0,1911.0,3332.0,923.0,2025-08-05 18:35:12,84.0,,0.0778190847851658,-1.62553629294116,0.0916699222747751,,2.7839322545935397,,
,3921.0,964.0,3242.0,854.0,1908.0,3337.0,928.0,2025-08-05 18:35:13,84.0,,0.0778524563822324,-1.62476362891637,0.0916305489049154,,3.440182481969885,,
,3919.0,962.0,3242.0,851.0,1902.0,3343.0,947.0,2025-08-05 18:35:14,82.0,,0.0778677604552091,-1.62440040841337,0.0916046823774365,,4.088558426255506,,
,3921.0,966.0,3240.0,852.0,1897.0,3345.0,939.0,2025-08-05 18:35:15,81.0,,0.0778770822780403,-1.6246086562108,0.0916623544754649,,4.72113313121532,,
,3922.0,966.0,3243.0,856.0,1903.0,3371.0,935.0,2025-08-05 18:35:16,80.0,,0.0778786394872552,-1.62397720773522,0.091690038003702,,5.32790102588642,,
,3921.0,965.0,3241.0,854.0,1911.0,3367.0,942.0,2025-08-05 18:35:17,79.0,,0.0778973580631238,-1.62339750061582,0.0916820205694104,,5.896799693366757,,
,3918.0,966.0,3239.0,852.0,1913.0,3369.0,935.0,2025-08-05 18:35:18,78.0,,0.0779240812240671,-1.62278228330441,0.0917516171977117,,6.413983908340269,,
,3917.0,964.0,3239.0,851.0,1904.0,3367.0,930.0,2025-08-05 18:35:19,78.0,,0.0779377458331799,-1.6220706930685,0.0917878185265092,,6.864368694513433,,
,3917.0,962.0,3242.0,853.0,1903.0,3384.0,922.0,2025-08-05 18:35:20,77.0,,0.0779608242916162,-1.62130190282383,0.0917841344238682,,7.2324264091372115,,
,3916.0,966.0,3240.0,853.0,1908.0,3373.0,932.0,2025-08-05 18:35:21,76.0,,0.0779444255897463,-1.62197075036329,0.0918291227417363,,7.503188204550433,,
,3913.0,961.0,3238.0,851.0,1903.0,3381.0,935.0,2025-08-05 18:35:22,76.0,,0.0779550995231529,-1.6213847339564,0.0918642193420297,,7.663367293473706,,
,3910.0,962.0,3235.0,850.0,1909.0,3397.0,934.0,2025-08-05 18:35:23,75.0,,0.0779654523724878,-1.6205096872723,0.0918229029184889,,7.70249528741317,,
,3908.0,960.0,3234.0,852.0,1912.0,3359.0,951.0,2025-08-05 18:35:24,74.0,,0.0779937957863636,-1.62015412186503,0.0919196837111928,,7.613948454766715,,
,3904.0,961.0,3234.0,849.0,1911.0,3363.0,953.0,2025-08-05 18:35:25,73.0,,0.0780111224718545,-1.62035356158471,0.091872289730218,,7.395742019776721,,
,3903.0,961.0,3235.0,849.0,1904.0,3352.0,951.0,2025-08-05 18:35:26,72.0,,0.0779863803602046,-1.62000671649629,0.0919324160858093,,7.050989443277329,,
,3899.0,961.0,3232.0,845.0,1897.0,3348.0,935.0,2025-08-05 18:35:27,72.0,,0.0780233841623499,-1.61951179457231,0.0920108227314795,,6.587958775117427,,
,3901.0,961.0,3234.0,850.0,1904.0,3336.0,935.0,2025-08-05 18:35:28,71.0,,0.0780830871062001,-1.61847707611569,0.0920072325111415,,6.019704911335698,,
,3897.0,959.0,3231.0,849.0,1905.0,3361.0,931.0,2025-08-05 18:35:29,71.0,,0.0780432300337154,-1.61831401101295,0.0919744960294612,,5.363307395065726,,
,3894.0,957.0,3229.0,847.0,1901.0,3372.0,933.0,2025-08-05 18:35:30,71.0,,0.0780986594332257,-1.61732270834202,0.0920837583046208,,4.638789955115557,,
,3892.0,957.0,3228.0,846.0,1906.0,3369.0,937.0,2025-08-05 18:35:31,71.0,,0.07812301135139,-1.61681599966594,0.0921566178593385,,3.867833332508204,,
,3893.0,959.0,3228.0,846.0,1902.0,3359.0,928.0,2025-08-05 18:35:32,72.0,,0.0781553242065554,-1.61615247778672,0.0921951235950673,,3.0724125355171465,,
,3893.0,956.0,3230.0,849.0,1896.0,3363.0,926.0,2025-08-05 18:35:33,72.0,,0.0781768661811866,-1.61583724259029,0.0922104202714143,,2.273491374243125,,
,3891.0,958.0,3229.0,846.0,1899.0,3361.0,929.0,2025-08-05 18:35:34,73.0,,0.0781569737448172,-1.61520689456756,0.0922730627232591,,1.4898915212982258,,
,3891.0,957.0,3227.0,847.0,1906.0,3339.0,932.0,2025-08-05 18:35:35,74.0,,0.0781842706908786,-1.61443290778361,0.0923673496770523,,0.7374240566679684,,
,3891.0,956.0,3226.0,846.0,1906.0,3339.0,927.0,2025-08-05 18:35:36,73.0,,0.0782276795523406,-1.61370980445486,0.0923414564850436,,0.028334573786381243,,
,3892.0,956.0,3229.0,851.0,1903.0,3377.0,909.0,2025-08-05 18:35:37,73.0,,0.0782232291482055,-1.6126288891906,0.0924270516998748,,-0.628924883423877,,
,3889.0,956.0,3227.0,846.0,1900.0,3382.0,909.0,2025-08-05 18:35:38,72.0,,0.0782368246249169,-1.61193077838942,0.0924525771246932,,-1.2296171924128927,,
,3888.0,957.0,3227.0,845.0,1902.0,3406.0,906.0,2025-08-05 18:35:39,72.0,,0.0783088186301288,-1.61121729946855,0.0924774454223909,,-1.772380792859246,,
,3887.0,954.0,3227.0,845.0,1912.0,3387.0,920.0,2025-08-05 18:35:40,71.0,,0.0782862602176659,-1.61120964119038,0.0925657669452647,,-2.2586924633031478,,
,3890.0,956.0,3227.0,847.0,1913.0,3383.0,912.0,2025-08-05 18:35:41,70.0,,0.0783392078719537,-1.61070130623907,0.0925140833624782,,-2.6922030834817434,,
,3888.0,957.0,3228.0,846.0,1911.0,3379.0,921.0,2025-08-05 18:35:42,70.0,,0.0783371559396735,-1.60947929288921,0.0925632019260433,,-3.0780172319843273,,
,3888.0,957.0,3226.0,846.0,1904.0,3397.0,934.0,2025-08-05 18:35:43,70.0,,0.0783932222447765,-1.60955970036902,0.0927234258240953,,-3.421981076399594,,
,3886.0,956.0,3226.0,844.0,1908.0,3388.0,933.0,2025-08-05 18:35:44,70.0,,0.0784265553684731,-1.6084427048101,0.0926523791133261,,-3.7300320236863027,,
,3888.0,959.0,3228.0,846.0,1904.0,3376.0,936.0,2025-08-05 18:35:45,70.0,,0.0784361047567801,-1.60813171275729,0.0927926112852849,,-4.007649614423618,,
,3886.0,958.0,3228.0,845.0,1904.0,3362.0,942.0,2025-08-05 18:35:46,71.0,,0.0784587347791295,-1.60822455438853,0.0928201214014379,,-4.259431546956671,,
,3888.0,957.0,3228.0,845.0,1899.0,3356.0,939.0,2025-08-05 18:35:47,72.0,,0.0784932293691294,-1.60820447541328,0.0928042060652348,,-4.48880299079327,,
,3887.0,954.0,3223.0,847.0,1909.0,3362.0,946.0,2025-08-05 18:35:48,72.0,,0.0784437911764694,-1.6073237656067,0.0928832582220758,,-4.697853403726878,,
,3887.0,955.0,3226.0,845.0,1918.0,3353.0,950.0,2025-08-05 18:35:49,73.0,,0.0785407672902631,-1.60667347379585,0.0929347741436155,,-4.887285020469686,,
,3888.0,957.0,3227.0,846.0,1914.0,3365.0,938.0,2025-08-05 18:35:50,73.0,,0.0785772564991259,-1.60630937316046,0.0928606315992343,,-5.056452431930378,,
,3889.0,958.0,3227.0,846.0,1909.0,3363.0,940.0,2025-08-05 18:35:51,73.0,,0.0785813890513844,-1.6053366309748,0.0929334091473799,,-5.20347303768916,,
,3884.0,955.0,3227.0,844.0,1906.0,3367.0,931.0,2025-08-05 18:35:52,73.0,,0.0785633810872291,-1.60605417827905,0.0929315474511403,,-5.325391908465564,,
,3886.0,954.0,3228.0,845.0,1907.0,3377.0,945.0,2025-08-05 18:35:53,74.0,,0.0786406870151935,-1.60511386744809,0.0929491377451416,,-5.418389359987461,,
,3886.0,957.0,3225.0,845.0,1908.0,3358.0,941.0,2025-08-05 18:35:54,74.0,,0.0786320534660144,-1.60541851468213,0.0930286089793886,,-5.47802324541894,,
,3887.0,956.0,3225.0,846.0,1906.0,3356.0,936.0,2025-08-05 18:35:55,74.0,,0.0786579565075812,-1.60474421596671,0.0929518289339535,,-5.499499409832461,,
,3884.0,956.0,3225.0,845.0,1907.0,3345.0,951.0,2025-08-05 18:35:56,75.0,,0.0786670572389367,-1.60444981963236,0.0931321948588086,,-5.477962650843355,,
,3885.0,957.0,3226.0,846.0,1904.0,3373.0,954.0,2025-08-05 18:35:57,75.0,,0.0786351702971906,-1.60349604062748,0.0931110021819661,,-5.408797426709519,,
,3887.0,956.0,3224.0,846.0,1903.0,3376.0,962.0,2025-08-05 18:35:58,75.0,,0.0786352935425792,-1.60296035302482,0.0931693854325849,,-5.2879235372574875,,
,3883.0,954.0,3225.0,843.0,1906.0,3376.0,956.0,2025-08-05 18:35:59,76.0,,0.0786938894688686,-1.60201762900774,0.0932436419089458,,-5.112068383000554,,
,3883.0,952.0,3225.0,845.0,1901.0,3352.0,945.0,2025-08-05 18:36:00,76.0,,0.0787464959915079,-1.60158569952453,0.0932935787738256,,-4.878995381416491,,
,3884.0,955.0,3226.0,845.0,1896.0,3347.0,951.0,2025-08-05 18:36:01,76.0,,0.0787737281484609,-1.60162813633206,0.0933446048347049,,-4.587668631776535,,
,3884.0,957.0,3227.0,847.0,1905.0,3347.0,945.0,2025-08-05 18:36:02,76.0,,0.0787704698056252,-1.60004956738185,0.0933351581035354,,-4.238337694814063,,
,3882.0,955.0,3227.0,845.0,1907.0,3343.0,940.0,2025-08-05 18:36:03,75.0,,0.078820951867074,-1.59973445091971,0.0933791411743191,,-3.8325338354581926,,
,3885.0,955.0,3226.0,846.0,1905.0,3347.0,954.0,2025-08-05 18:36:04,75.0,,0.0788227930919082,-1.59856253016107,0.0934428776114983,,-3.3729800145871605,,
,3882.0,954.0,3226.0,846.0,1905.0,3372.0,937.0,2025-08-05 18:36:05,75.0,,0.0788661691864932,-1.59879824886533,0.0934966505533599,,-2.863429746139325,,
,3883.0,955.0,3225.0,843.0,1902.0,3369.0,939.0,2025-08-05 18:36:06,75.0,,0.0788552808012318,-1.59862917170083,0.0933936832551746,,-2.3084617404279073,,
,3884.0,955.0,3227.0,845.0,1901.0,3374.0,942.0,2025-08-05 18:36:07,75.0,,0.0788439205138565,-1.59808977838455,0.0934755852171465,,-1.71326485584763,,
,3883.0,957.0,3224.0,846.0,1897.0,3401.0,933.0,2025-08-05 18:36:08,75.0,,0.0788900281102695,-1.59758392521758,0.0934984975921972,,-1.0834493979979252,,
,3885.0,955.0,3226.0,846.0,1896.0,3384.0,948.0,2025-08-05 18:36:09,74.0,,0.0789025182583543,-1.59752543548407,0.093567897099478,,-0.42491628873392245,,
,3882.0,958.0,3225.0,847.0,1899.0,3356.0,948.0,2025-08-05 18:36:10,74.0,,0.078902681372942,-1.59711912046727,0.0935863683131972,,0.25619359421901466,,
,3885.0,957.0,3227.0,846.0,1907.0,3350.0,949.0,2025-08-05 18:36:11,74.0,,0.0789337257117014,-1.59684628434093,0.0935508757202337,,0.9534599265612416,,
,3885.0,956.0,3226.0,846.0,1908.0,3376.0,945.0,2025-08-05 18:36:12,73.0,,0.0789410807603482,-1.59662951848628,0.0935498844467634,,1.6600572880103734,,
,3885.0,956.0,3226.0,845.0,1912.0,3366.0,938.0,2025-08-05 18:36:13,73.0,,0.0789420685128669,-1.59706679992891,0.0935389189237118,,2.3685616085066736,,
,3887.0,958.0,3226.0,845.0,1904.0,3335.0,932.0,2025-08-05 18:36:14,73.0,,0.0789438667170986,-1.59663657106253,0.0935528254625868,,3.0707201188997457,,
,3885.0,957.0,3228.0,846.0,1904.0,3356.0,946.0,2025-08-05 18:36:15,73.0,,0.0789474917807085,-1.59700798856777,0.093558200910324,,3.757226918977594,,
,3886.0,956.0,3228.0,845.0,1907.0,3344.0,933.0,2025-08-05 18:36:16,73.0,,0.0789610621934324,-1.59733335606268,0.0934863796931236,,4.417553376674799,,
,3886.0,956.0,3226.0,847.0,1904.0,3360.0,934.0,2025-08-05 18:36:17,73.0,,0.0789641929573474,-1.5971767848294,0.0935452061574617,,5.039884996598895,,
,3889.0,959.0,3227.0,848.0,1904.0,3359.0,933.0,2025-08-05 18:36:18,72.0,,0.0789572194336637,-1.59702722518272,0.0935718763527523,,5.6112127760842485,,
,3890.0,961.0,3231.0,848.0,1907.0,3371.0,933.0,2025-08-05 18:36:19,72.0,,0.0790236805536492,-1.59663247290378,0.0935616135916218,,6.117615751936776,,
,3891.0,959.0,3228.0,848.0,1905.0,3358.0,934.0,2025-08-05 18:36:20,71.0,,0.0790209744539939,-1.59574242170819,0.0936255803431408,,6.544751526066104,,
,3890.0,956.0,3226.0,845.0,1905.0,3386.0,935.0,2025-08-05 18:36:21,71.0,,0.0790309904045432,-1.59526823318186,0.0936643674079602,,6.878544316301022,,
,3889.0,958.0,3228.0,844.0,1904.0,3360.0,943.0,2025-08-05 18:36:22,71.0,,0.0790141731671139,-1.59482003380227,0.0936883192243634,,7.106029342846962,,
,3890.0,959.0,3231.0,850.0,1905.0,3339.0,947.0,2025-08-05 18:36:23,71.0,,0.0790221343465591,-1.59423350951126,0.0937149122482193,,7.21628342430058,,
,3892.0,960.0,3228.0,848.0,1911.0,3355.0,957.0,2025-08-05 18:36:24,71.0,,0.0790415093860843,-1.5939195021554,0.0937591978442737,,7.201349711892515,,
,3891.0,959.0,3230.0,846.0,1901.0,3397.0,953.0,2025-08-05 18:36:25,71.0,,0.0790350792355615,-1.59387244921496,0.0937361077483364,,7.057053667938005,,
,3891.0,959.0,3230.0,848.0,1902.0,3390.0,953.0,2025-08-05 18:36:26,70.0,,0.0790789389074822,-1.5934713607679,0.0937844108064117,,6.783610422856514,,
2025-08-05 18:33:47,3892.0,957.0,3227.0,848.0,1901.0,3366.0,946.0,2025-08-05 18:36:27,70.0,2025/08/05 06:33:47 PM,0.0790432324853003,-1.59330775307144,0.0938146476115736,,6.385941416188739,,
,3894.0,963.0,3231.0,847.0,1900.0,3347.0,940.0,2025-08-05 18:36:28,70.0,,0.0790629570820112,-1.59356349392447,0.093775736616835,,5.8736489963051355,,
,3892.0,958.0,3231.0,847.0,1899.0,3361.0,928.0,2025-08-05 18:36:29,70.0,,0.0790760753721617,-1.59322856219387,0.0938100219208931,,5.260636646949019,,
,3895.0,961.0,3230.0,849.0,1903.0,3358.0,933.0,2025-08-05 18:36:30,70.0,,0.0791011178071531,-1.5932162997724,0.09378294194136,,4.564402875346222,,
,3899.0,961.0,3231.0,848.0,1905.0,3343.0,942.0,2025-08-05 18:36:31,71.0,,0.0790884383391043,-1.59293829966072,0.0937559547772015,,3.805071792045385,,
,3898.0,960.0,3231.0,851.0,1904.0,3350.0,948.0,2025-08-05 18:36:32,71.0,,0.0791188804059568,-1.59365186445415,0.0937135313995272,,3.0042485550892315,,
,3896.0,961.0,3233.0,850.0,1901.0,3363.0,944.0,2025-08-05 18:36:33,71.0,,0.0790782744983181,-1.59352985451928,0.0937395871535344,,2.1838015746462007,,
,3896.0,961.0,3228.0,847.0,1902.0,3382.0,944.0,2025-08-05 18:36:34,71.0,,0.079022289232878,-1.59378356155624,0.0937080105215846,,1.3646759067650993,,
,3898.0,961.0,3233.0,848.0,1897.0,3360.0,937.0,2025-08-05 18:36:35,71.0,,0.0790326506375261,-1.59430954823425,0.093677395256367,,0.565834247962547,,
,3902.0,962.0,3235.0,850.0,1898.0,3335.0,942.0,2025-08-05 18:36:36,72.0,,0.079010959660579,-1.59441118956,0.0936649062401982,,-0.19659564868561744,,
,3901.0,960.0,3233.0,850.0,1893.0,3349.0,939.0,2025-08-05 18:36:37,72.0,,0.0790803961043763,-1.59397656747692,0.0937278639181105,,-0.909913355668105,,
,3900.0,960.0,3231.0,849.0,1900.0,3357.0,944.0,2025-08-05 18:36:38,72.0,,0.0790651962110488,-1.59500949180932,0.0936083235588683,,-1.5651531484320962,,
,3902.0,965.0,3233.0,850.0,1900.0,3346.0,931.0,2025-08-05 18:36:39,73.0,,0.0790715522016847,-1.59546560776199,0.0936423440493206,,-2.157110341678906,,
,3904.0,965.0,3234.0,851.0,1908.0,3335.0,938.0,2025-08-05 18:36:40,73.0,,0.0790991620743665,-1.59533398160577,0.093635002330044,,-2.6841153415704704,,
,3903.0,962.0,3233.0,850.0,1909.0,3345.0,939.0,2025-08-05 18:36:41,73.0,,0.0791087365475593,-1.59540604930841,0.0936348975064907,,-3.147602313472869,,
,3903.0,961.0,3233.0,850.0,1906.0,3342.0,935.0,2025-08-05 18:36:42,74.0,,0.0791072469451138,-1.59451930485186,0.0936317146811188,,-3.5515296106531387,,
,3905.0,963.0,3236.0,852.0,1897.0,3380.0,945.0,2025-08-05 18:36:43,74.0,,0.079070155525026,-1.59445762721661,0.0936555949696751,,-3.901711718278769,,
,3906.0,964.0,3235.0,849.0,1900.0,3367.0,956.0,2025-08-05 18:36:44,75.0,,0.0790563353697191,-1.5945080143961,0.0937441006463779,,-4.205118926690163,,
,3906.0,965.0,3238.0,850.0,1898.0,3377.0,952.0,2025-08-05 18:36:45,75.0,,0.0790481763343749,-1.59432347977981,0.093693593202308,,-4.46919331750619,,
,3906.0,962.0,3236.0,849.0,1899.0,3366.0,939.0,2025-08-05 18:36:46,75.0,,0.0790603255524981,-1.5940209773245,0.0936411217402888,,-4.701219822783381,,
,3910.0,964.0,3236.0,851.0,1899.0,3371.0,946.0,2025-08-05 18:36:47,76.0,,0.0790806718410445,-1.59373784516402,0.0937066724623012,,-4.9077804679250425,,
,3908.0,965.0,3238.0,852.0,1896.0,3376.0,938.0,2025-08-05 18:36:48,76.0,,0.0790741489364353,-1.59380239168207,0.0936809084515842,,-5.094309414278689,,
,3909.0,962.0,3234.0,849.0,1899.0,3376.0,935.0,2025-08-05 18:36:49,77.0,,0.079094258599815,-1.59454801128348,0.0937328918662519,,-5.2647570597990025,,
,3911.0,965.0,3234.0,850.0,1915.0,3359.0,943.0,2025-08-05 18:36:50,78.0,,0.0790695320634212,-1.5940267738232,0.0936885062591771,,-5.421364382583832,,
,3911.0,966.0,3238.0,850.0,1907.0,3344.0,938.0,2025-08-05 18:36:51,78.0,,0.0790900423154575,-1.5941259946469,0.0937378949064592,,-5.564544831307388,,
,3913.0,965.0,3240.0,852.0,1909.0,3386.0,958.0,2025-08-05 18:36:52,79.0,,0.0791124031460148,-1.59354253774009,0.0936669260093,,-5.692870320368016,,
,3914.0,966.0,3240.0,854.0,1908.0,3373.0,945.0,2025-08-05 18:36:53,80.0,,0.0791137556697,-1.59391120251869,0.0937133697627919,,-5.803158985266752,,
,3916.0,967.0,3239.0,852.0,1904.0,3360.0,939.0,2025-08-05 18:36:54,80.0,,0.079096360261653,-1.59327992384299,0.0937599323007542,,-5.8906633561032296,,
,3912.0,966.0,3238.0,851.0,1901.0,3368.0,953.0,2025-08-05 18:36:55,81.0,,0.0791411249946687,-1.59320424603752,0.0937523712526686,,-5.949356815419764,,
,3915.0,966.0,3242.0,854.0,1904.0,3362.0,955.0,2025-08-05 18:36:56,81.0,,0.0791242650914911,-1.5929178338287,0.0938000283046441,,-5.972312673059091,,
,3915.0,967.0,3243.0,855.0,1905.0,3381.0,950.0,2025-08-05 18:36:57,80.0,,0.0791740891774703,-1.59213208086614,0.0938178890038687,,-5.9521637812967665,,
,3916.0,965.0,3244.0,854.0,1907.0,3371.0,951.0,2025-08-05 18:36:58,80.0,,0.0791773150093295,-1.59198170019978,0.0938383356734379,,-5.881621937122661,,
,3912.0,966.0,3239.0,852.0,1906.0,3380.0,940.0,2025-08-05 18:36:59,79.0,,0.0791317581889602,-1.59188473504129,0.093805133909145,,-5.754026669641735,,
,3915.0,967.0,3241.0,852.0,1906.0,3378.0,956.0,2025-08-05 18:37:00,79.0,,0.079138223717526,-1.59171106804084,0.0938497369695561,,-5.563884207200044,,
,3911.0,966.0,3238.0,854.0,1906.0,3374.0,945.0,2025-08-05 18:37:01,78.0,,0.0791519770448844,-1.59165293474412,0.093813169017707,,-5.307351462461166,,
,3910.0,965.0,3239.0,852.0,1903.0,3362.0,946.0,2025-08-05 18:37:02,78.0,,0.0790512080197683,-1.59248837277081,0.0937911225075949,,-4.982618543885889,,
,3907.0,964.0,3237.0,850.0,1905.0,3376.0,933.0,2025-08-05 18:37:03,77.0,,0.0790918850509481,-1.5914227037668,0.0937820701290785,,-4.5901477849411965,,
,3907.0,964.0,3235.0,850.0,1908.0,3375.0,933.0,2025-08-05 18:37:04,78.0,,0.0790640351576989,-1.59176737653616,0.0938158160888947,,-4.132737888544907,,
,3907.0,964.0,3236.0,851.0,1901.0,3379.0,945.0,2025-08-05 18:37:05,78.0,,0.0790783728046304,-1.59134088788651,0.0938525104432781,,-3.6153978786159473,,
,3904.0,963.0,3235.0,853.0,1905.0,3351.0,938.0,2025-08-05 18:37:06,79.0,,0.0791346501246785,-1.59149348081336,0.0938552181031214,,-3.0450356391627587,,
,3898.0,961.0,3233.0,849.0,1907.0,3373.0,940.0,2025-08-05 18:37:07,79.0,,0.0790808559133154,-1.59143712468715,0.0937584913678865,,-2.4299875380203724,,
,3894.0,960.0,3234.0,848.0,1901.0,3380.0,941.0,2025-08-05 18:37:08,79.0,,0.0790735946108157,-1.5914412140309,0.0937925951983718,,-1.7794357950768367,,
,3896.0,962.0,3233.0,848.0,1900.0,3383.0,944.0,2025-08-05 18:37:09,79.0,,0.0790864432177511,-1.59116461896274,0.093821429374274,,-1.1027755349122401,,
,3892.0,960.0,3231.0,846.0,1898.0,3386.0,947.0,2025-08-05 18:37:10,79.0,,0.0790687568948273,-1.59145651504495,0.0938072372891696,,-0.4090014774309724,,
,3890.0,958.0,3230.0,847.0,1892.0,3383.0,944.0,2025-08-05 18:37:11,78.0,,0.0790471573098264,-1.5908019633444,0.0938238805255148,,0.29381591060350865,,
,3890.0,958.0,3231.0,847.0,1902.0,3362.0,964.0,2025-08-05 18:37:12,77.0,,0.0790427973273816,-1.59073446752538,0.0938290274347236,,0.998902947982622,,
,3889.0,959.0,3229.0,846.0,1903.0,3374.0,950.0,2025-08-05 18:37:13,77.0,,0.0790396583610701,-1.59069727165307,0.0937631178061367,,1.700957008266477,,
,3888.0,958.0,3226.0,845.0,1902.0,3377.0,944.0,2025-08-05 18:37:14,76.0,,0.0791196092907809,-1.59209596094341,0.0938035737535642,,2.396096212072208,,
,3883.0,958.0,3228.0,848.0,1895.0,3392.0,932.0,2025-08-05 18:37:15,75.0,,0.0791055436733453,-1.59161061971346,0.0938546116561781,,3.081582949981639,,
,3887.0,958.0,3229.0,846.0,1897.0,3367.0,948.0,2025-08-05 18:37:16,75.0,,0.0790904032592041,-1.59180712616657,0.0937843525206023,,3.7553462307862135,,
,3887.0,959.0,3231.0,848.0,1899.0,3380.0,932.0,2025-08-05 18:37:17,75.0,,0.0790898388869401,-1.59161399047375,0.0937928056535596,,4.415353654862728,,
,3886.0,957.0,3228.0,849.0,1899.0,3374.0,926.0,2025-08-05 18:37:18,75.0,,0.0790923336294765,-1.5919125958187,0.0938193828178734,,5.058906221271748,,
,3885.0,958.0,3228.0,846.0,1900.0,3387.0,928.0,,,,0.0790971139903463,-1.59212777192602,0.0937627075284732,,5.681945804825067,,
,3882.0,957.0,3230.0,846.0,1895.0,3363.0,935.0,,,,0.0790529648200443,-1.59301610988116,0.0937335903752471,,6.278473477301678,,
,3884.0,959.0,3229.0,844.0,1899.0,3368.0,944.0,,,,0.0790235488412792,-1.59335699649596,0.0937294665306885,,6.840174145755429,,
,3883.0,959.0,3228.0,846.0,1892.0,3358.0,940.0,,,,0.0790087981609078,-1.59353758825321,0.0936525891882956,,7.356327215184223,,
,3884.0,957.0,3224.0,846.0,1898.0,3353.0,935.0,,,,0.0789859397630139,-1.59366225107001,0.0936841781642267,,7.8140542844495515,,
,3880.0,954.0,3226.0,845.0,1902.0,3364.0,916.0,,,,0.0789659225088726,-1.59387282833016,0.093589378535391,,8.198916074836955,,
,3882.0,959.0,3228.0,846.0,1902.0,3361.0,927.0,,,,0.0789454256569819,-1.59489223592447,0.0935792241628441,,8.495826722111543,,
,3881.0,956.0,3227.0,846.0,1901.0,3355.0,932.0,,,,0.0789531228503974,-1.59525813561408,0.0935629925375839,,8.690210067965202,,
,3882.0,955.0,3228.0,844.0,1905.0,3380.0,931.0,,,,0.0789313550233721,-1.5957026872516,0.0935027497374,,8.769285638877115,,
,3881.0,954.0,3226.0,844.0,1895.0,3350.0,938.0,,,,0.0789485391447773,-1.59657879694889,0.0934261633253588,,8.723347017105105,,
,3882.0,958.0,3227.0,845.0,1905.0,3348.0,940.0,,,,0.0789144461630678,-1.59728950077011,0.0934338683166037,,8.546886410355517,,
,3884.0,957.0,3228.0,848.0,1904.0,3367.0,951.0,,,,0.0788569265686455,-1.59780165329541,0.0933871295535856,,8.239428600163325,,
,3882.0,958.0,3228.0,846.0,1900.0,3373.0,954.0,,,,0.0788523738083607,-1.59883108133299,0.093285953333073,,7.805965047499115,,
,3880.0,955.0,3227.0,843.0,1900.0,3362.0,950.0,,,,0.0788714089840467,-1.59899915547138,0.0932458833329729,,7.2569224181261,,
,3880.0,959.0,3227.0,847.0,1905.0,3373.0,918.0,,,,0.0788821381837015,-1.59965252024224,0.0932375749278265,,6.607654444403637,,
,3881.0,957.0,3227.0,846.0,1897.0,3369.0,934.0,,,,0.0788300917388946,-1.60057711235915,0.0931808289047129,,5.87750470159347,,
,3881.0,955.0,3226.0,844.0,1902.0,3374.0,935.0,,,,0.0787710720894221,-1.60122803426417,0.0930434031002557,,5.088541332870659,,
,3879.0,954.0,3227.0,845.0,1898.0,3382.0,941.0,,,,0.0787369830745275,-1.60261669161948,0.092993291814972,,4.264103294710342,,
,3878.0,956.0,3226.0,846.0,1902.0,3377.0,948.0,,,,0.0787574274853407,-1.60336446428987,0.0930129947875822,,3.427314008946945,,
,3884.0,956.0,3228.0,847.0,1900.0,3395.0,949.0,,,,0.0786969654860657,-1.60398481266448,0.0929587210115169,,2.599710472081077,,
,3879.0,953.0,3226.0,844.0,1906.0,3377.0,947.0,,,,0.0786840702087932,-1.60476220161113,0.0928560596675788,,1.8001080498439304,,
,3880.0,956.0,3227.0,846.0,1907.0,3340.0,944.0,,,,0.0786384690458949,-1.60528923537945,0.0927325655407961,,1.0437813800863684,,
,3879.0,955.0,3227.0,845.0,1899.0,3350.0,949.0,,,,0.0786460367933285,-1.6063146867219,0.0928340158506128,,0.34199849563525675,,
,3880.0,956.0,3231.0,847.0,1903.0,3332.0,958.0,,,,0.0786193903850189,-1.60708823853925,0.0926964582968469,,-0.298094953628123,,
,3880.0,954.0,3225.0,846.0,1904.0,3334.0,953.0,,,,0.0785865641319126,-1.60796468640168,0.0926330558430634,,-0.8732776520828078,,
,3878.0,956.0,3224.0,843.0,1905.0,3348.0,945.0,,,,0.0785751865113523,-1.60900205266232,0.0926160046562627,,-1.3838011375120352,,
,3878.0,956.0,3225.0,843.0,1905.0,3374.0,955.0,,,,0.0785584272693538,-1.60964398160466,0.0925686725588731,,-1.8327596073230346,,
,3879.0,956.0,3226.0,845.0,1894.0,3355.0,945.0,,,,0.0785252541918293,-1.61011904899786,0.0925027106782578,,-2.2253602171110187,,
,3879.0,956.0,3226.0,846.0,1895.0,3338.0,939.0,,,,0.0785125752346637,-1.61075796380711,0.0924801284287661,,-2.5681684407136585,,
,3879.0,957.0,3228.0,844.0,1904.0,3342.0,945.0,,,,0.0784330493646751,-1.61149716131989,0.0924013552638571,,-2.8683909216598007,,
,3880.0,956.0,3226.0,844.0,1904.0,3335.0,943.0,,,,0.0784532014161843,-1.61221908611079,0.0923594029597755,,-3.1332411348473186,,
,3880.0,958.0,3227.0,845.0,1905.0,3347.0,941.0,,,,0.0784660069476649,-1.6134480527019,0.0923232013153795,,-3.369414372445391,,
,3882.0,957.0,3227.0,846.0,1908.0,3371.0,952.0,,,,0.0784355002339051,-1.61387802268618,0.0923148708003041,,-3.58268155270359,,
,3881.0,957.0,3226.0,844.0,1909.0,3379.0,955.0,,,,0.0784181519847068,-1.61479303478091,0.0922798972866608,,-3.777598762223378,,
,3879.0,954.0,3225.0,844.0,1907.0,3381.0,938.0,,,,0.0784197595410285,-1.61485740851907,0.0922855671152534,,-3.957322139447139,,
,3882.0,957.0,3228.0,846.0,1904.0,3359.0,942.0,,,,0.0784061129529598,-1.61575306084655,0.0923077113213969,,-4.12351486234002,,
,3881.0,958.0,3231.0,847.0,1909.0,3369.0,942.0,,,,0.0783956820252247,-1.61619625679411,0.0922643228674468,,-4.2763331065788375,,
,3882.0,957.0,3229.0,844.0,1907.0,3374.0,945.0,,,,0.078412431053351,-1.61653019043395,0.0922324182037014,,-4.414479588906756,,
,3881.0,955.0,3228.0,845.0,1913.0,3370.0,954.0,,,,0.0784012962229409,-1.61734701273995,0.0921173696965952,,-4.5353158131710565,,
,3881.0,956.0,3229.0,845.0,1901.0,3334.0,943.0,,,,0.0783571824664454,-1.61859564448551,0.0921211200680383,,-4.635026729918132,,
,3882.0,958.0,3230.0,848.0,1906.0,3340.0,928.0,,,,0.0783541330687783,-1.61863708100312,0.092053030396284,,-4.70883362026345,,
,3884.0,957.0,3231.0,846.0,1908.0,3349.0,923.0,,,,0.0783348040145041,-1.61985940453343,0.092046747627965,,-4.7512520855257225,,
,3884.0,956.0,3230.0,844.0,1905.0,3321.0,953.0,,,,0.07833078187638,-1.62050245471609,0.0919791305711172,,-4.756391562327913,,
,3883.0,957.0,3229.0,845.0,1903.0,3368.0,948.0,,,,0.0783201672807636,-1.62085308711815,0.0919679594720144,,-4.718290337688575,,
,3886.0,959.0,3230.0,846.0,1909.0,3356.0,954.0,,,,0.0782956253765934,-1.62065444693064,0.0919583066193344,,-4.631275368893789,,
,3887.0,959.0,3229.0,843.0,1909.0,3355.0,946.0,,,,0.0782744771184556,-1.62126302044837,0.0918942689772095,,-4.490329602758772,,
,3884.0,957.0,3230.0,846.0,1907.0,3367.0,947.0,,,,0.078253011870832,-1.62163877182936,0.0918754479462333,,-4.291442199257751,,
,3885.0,957.0,3230.0,846.0,1905.0,3340.0,947.0,,,,0.0782526787051092,-1.62190336894663,0.0918405741362863,,-4.031911668592803,,
,3892.0,959.0,3232.0,847.0,1891.0,3329.0,945.0,,,,0.0782368707623955,-1.62223147415571,0.0918374789515912,,-3.7105717733442547,,
,3890.0,958.0,3233.0,849.0,1890.0,3353.0,942.0,,,,0.0782252568339766,-1.62226881708728,0.0917690310851915,,-3.3279174417157913,,
,3888.0,959.0,3230.0,846.0,1899.0,3360.0,938.0,,,,0.0782107232989665,-1.62240907812015,0.0918191821462672,,-2.8861223078409872,,
,3886.0,959.0,3230.0,846.0,1900.0,3329.0,926.0,,,,0.078207488809436,-1.62312483039761,0.0917498812510148,,-2.388957237940194,,
,3891.0,960.0,3233.0,847.0,1904.0,3322.0,931.0,,,,0.0781809891667935,-1.62320098206518,0.0917859452266281,,-1.8416354202070546,,
,3889.0,961.0,3231.0,849.0,1907.0,3327.0,928.0,,,,0.0781920863888636,-1.62362346518191,0.0917676829039089,,-1.2506201869892146,,
,3892.0,959.0,3230.0,848.0,1920.0,3347.0,934.0,,,,0.0781838413614411,-1.62403895536272,0.0916849102246623,,-0.6234344804380515,,
,3891.0,958.0,3228.0,846.0,1910.0,3356.0,939.0,,,,0.0781421223126057,-1.62420148901699,0.0917165185179398,,0.031494510410673235,,
,3894.0,960.0,3232.0,848.0,1901.0,3362.0,938.0,,,,0.0781413707524531,-1.62464203832695,0.0916794833516676,,0.7049341079502685,,
,3894.0,960.0,3233.0,849.0,1900.0,3357.0,942.0,,,,0.0781482663881723,-1.62462929491721,0.0916599508083365,,1.386882913965084,,
,3893.0,960.0,3234.0,848.0,1903.0,3357.0,953.0,,,,0.0781170659010821,-1.62569876272696,0.0916303777231684,,2.066557005798903,,
,3895.0,959.0,3233.0,846.0,1903.0,3367.0,950.0,,,,0.0781088383016608,-1.62695626848508,0.0915599702033911,,2.732352102674562,,
,3894.0,960.0,3235.0,850.0,1902.0,3363.0,956.0,,,,0.0781046556466085,-1.62721425431673,0.0915832502516825,,3.3718202826634447,,
,3894.0,961.0,3233.0,848.0,1899.0,3342.0,960.0,,,,0.0780805832324398,-1.62735953006204,0.0915859223741547,,3.971707502793991,,
,3897.0,962.0,3234.0,850.0,1896.0,3350.0,960.0,,,,0.078076045246241,-1.62796919736042,0.0915190555952739,,4.518099469110464,,
,3896.0,963.0,3236.0,849.0,1895.0,3370.0,950.0,,,,0.07803528166236,-1.62846411938025,0.0914725356456424,,4.9967159895432856,,
,3899.0,962.0,3236.0,851.0,1905.0,3351.0,954.0,,,,0.0780415789028173,-1.62865334905921,0.0914150955357595,,5.393376694381631,,
,3898.0,962.0,3236.0,849.0,1905.0,3345.0,952.0,,,,0.0780098715822688,-1.62976736723153,0.0914938017560209,,5.694635287197551,,
,3899.0,963.0,3234.0,847.0,1904.0,3344.0,955.0,,,,0.0780039440969254,-1.62979859333643,0.0915215975652457,,5.888549105568837,,
,3899.0,962.0,3234.0,848.0,1907.0,3357.0,942.0,,,,0.0779967309007943,-1.62943037436989,0.091418568810194,,5.965520975145812,,
,3900.0,964.0,3237.0,850.0,1902.0,3369.0,951.0,,,,0.0779713037875419,-1.62969350713424,0.0913969263962833,,5.919126722796889,,
,3904.0,965.0,3239.0,851.0,1906.0,3372.0,941.0,,,,0.0779633411733663,-1.63013145097599,0.0913953785166016,,5.7468293219139985,,
,3903.0,965.0,3237.0,850.0,1906.0,3379.0,944.0,,,,0.077954730744259,-1.63017049084525,0.0913764188150165,,5.450483072383784,,
,3902.0,966.0,3238.0,851.0,1911.0,3352.0,953.0,,,,0.0779252757746109,-1.63030950404311,0.0913716225065169,,5.036549545177426,,
,3904.0,966.0,3234.0,850.0,1908.0,3363.0,957.0,,,,0.0779211558577193,-1.63142194994959,0.091343807871932,,4.515978973044023,,
,3905.0,964.0,3238.0,851.0,1910.0,3326.0,949.0,,,,0.0778971916782868,-1.63119519827596,0.0912743865306359,,3.903750973925233,,
,3907.0,964.0,3238.0,852.0,1909.0,3338.0,943.0,,,,0.0778698925770013,-1.63158938751347,0.09132793749291,,3.218110053683474,,
,3906.0,964.0,3239.0,852.0,1909.0,3356.0,937.0,,,,0.0778445016176883,-1.63206430244736,0.0911907979889662,,2.4795676069171493,,
2025-08-05 18:33:48,3905.0,962.0,3238.0,852.0,1904.0,3346.0,940.0,,,2025/08/05 06:33:48 PM,0.0777764519926768,-1.63279645265889,0.0911345261288674,,1.7097676035864002,,
,3908.0,966.0,3237.0,855.0,1904.0,3320.0,942.0,,,,0.0777537275822096,-1.63326342046182,0.0911012002646452,,0.9303239018536488,,
,3909.0,967.0,3240.0,853.0,1909.0,3319.0,948.0,,,,0.0777039391393986,-1.63376358689937,0.09113612206386,,0.1617319586323371,,
,3911.0,967.0,3243.0,854.0,1905.0,3314.0,954.0,,,,0.0777045989501737,-1.63416594513233,0.0910956218697288,,-0.5775609432619127,,
,3910.0,963.0,3238.0,852.0,1904.0,3325.0,969.0,,,,0.0776929755877436,-1.63449420897681,0.0910591307152244,,-1.2718697590350019,,
,3913.0,969.0,3242.0,853.0,1902.0,3369.0,943.0,,,,0.0777051736571722,-1.63531420514292,0.0910382525315355,,-1.9087423418528167,,
,3913.0,969.0,3242.0,851.0,1905.0,3349.0,946.0,,,,0.0776712519657453,-1.63466728777892,0.0910560513328503,,-2.4791865704806604,,
,3911.0,968.0,3242.0,853.0,1907.0,3348.0,943.0,,,,0.0777081370754967,-1.63480278609639,0.0909839673128224,,-2.9776764298061504,,
,3909.0,966.0,3239.0,851.0,1903.0,3351.0,947.0,,,,0.077658005879003,-1.63505358820056,0.0909545473828306,,-3.4019752922958792,,
,3909.0,964.0,3240.0,852.0,1903.0,3375.0,928.0,,,,0.0776449540998063,-1.63579213756213,0.0909348663104282,,-3.75282267139239,,
,3908.0,966.0,3240.0,853.0,1905.0,3395.0,930.0,,,,0.0776382867009608,-1.63585442594948,0.0908733996973884,,-4.033531278529225,,
,3907.0,966.0,3235.0,853.0,1908.0,3383.0,925.0,,,,0.0776045979513726,-1.63649835223311,0.0909062576764784,,-4.249535688485841,,
,3903.0,963.0,3234.0,849.0,1910.0,3373.0,929.0,,,,0.0775554029748842,-1.63691849413657,0.0909011235591475,,-4.407924244884381,,
,3901.0,964.0,3234.0,850.0,1898.0,3375.0,934.0,,,,0.0775543507049442,-1.63701012598357,0.0908184748607167,,-4.5169740226710555,,
,3899.0,960.0,3235.0,848.0,1903.0,3351.0,936.0,,,,0.0775949912792424,-1.63698981012037,0.0908776740638164,,-4.5856968197220755,,
,3898.0,961.0,3236.0,848.0,1906.0,3332.0,928.0,,,,0.0775374060496297,-1.63700129159851,0.0907969703567316,,-4.623394753412585,,
,3895.0,963.0,3231.0,845.0,1904.0,3328.0,935.0,,,,0.0775224532914534,-1.63727463362618,0.090812540963422,,-4.63921958844787,,
,3892.0,961.0,3231.0,849.0,1904.0,3344.0,938.0,,,,0.0775214832822908,-1.63750901180474,0.0907904493655391,,-4.641731908157791,,
,3892.0,960.0,3233.0,848.0,1900.0,3336.0,936.0,,,,0.0775295318876173,-1.63753392183188,0.0907941840620075,,-4.638464266300531,,
,3891.0,959.0,3231.0,847.0,1902.0,3338.0,938.0,,,,0.0774617813117547,-1.63797502017732,0.0907717996965746,,-4.635504191361287,,
,3887.0,958.0,3229.0,845.0,1896.0,3355.0,942.0,,,,0.0774868208963118,-1.63788631259111,0.0907398802818006,,-4.6371247385627745,,
,3886.0,958.0,3225.0,843.0,1905.0,3354.0,939.0,,,,0.0774605172339839,-1.63807841696865,0.0907486012850336,,-4.645498245529203,,
,3888.0,958.0,3229.0,846.0,1908.0,3369.0,938.0,,,,0.0774991937580314,-1.63846450712194,0.0907342253098695,,-4.6605299552876565,,
,3884.0,956.0,3226.0,845.0,1908.0,3380.0,936.0,,,,0.0774563205059556,-1.63895371848611,0.0906659308737725,,-4.679841154593491,,
,3885.0,959.0,3226.0,842.0,1913.0,3369.0,929.0,,,,0.0774425275955583,-1.63950803643209,0.0906337004978895,,-4.698917883903365,,
,3883.0,958.0,3228.0,846.0,1906.0,3360.0,937.0,,,,0.07739261572105,-1.63987722648124,0.0905589891016667,,-4.711424405714266,,
,3882.0,957.0,3227.0,846.0,1903.0,3383.0,942.0,,,,0.0773760276745577,-1.64039292270919,0.0904968829342317,,-4.709663985173382,,
,3885.0,959.0,3228.0,845.0,1902.0,3364.0,953.0,,,,0.0773337547898107,-1.64080982136858,0.0904953971116656,,-4.685155287127402,,
,3884.0,960.0,3227.0,845.0,1913.0,3360.0,940.0,,,,0.0773432869749803,-1.64142995500596,0.0904115070220866,,-4.629281271879597,,
,3884.0,958.0,3227.0,843.0,1916.0,3355.0,932.0,,,,0.0772704901557764,-1.64157953792584,0.0903767165407055,,-4.533958784683571,,
,3881.0,959.0,3229.0,843.0,1913.0,3376.0,930.0,,,,0.0772482753865287,-1.64239732775135,0.090343792334833,,-4.392271839467103,,
,3883.0,959.0,3227.0,844.0,1909.0,3377.0,930.0,,,,0.0772641900023689,-1.64245386068266,0.0903296166429396,,-4.199011533243862,,
,3882.0,958.0,3227.0,842.0,1910.0,3361.0,936.0,,,,0.0772296491128556,-1.64284925251526,0.0902719901514024,,-3.951071867121065,,
,3881.0,957.0,3224.0,843.0,1909.0,3359.0,943.0,,,,0.0772669308856387,-1.64318219494128,0.0902543962321904,,-3.6476634549434857,,
,3883.0,959.0,3229.0,843.0,1906.0,3361.0,936.0,,,,0.0772536847155507,-1.64346133219424,0.0902614040174907,,-3.2903249388761258,,
,3881.0,958.0,3229.0,844.0,1909.0,3383.0,929.0,,,,0.0772291416361704,-1.64365448461371,0.0902242712121387,,-2.8827329221759084,,
,3883.0,960.0,3226.0,845.0,1912.0,3378.0,938.0,,,,0.0772481851040917,-1.64372791549556,0.0902150754993083,,-2.430332821658705,,
,3881.0,955.0,3225.0,840.0,1903.0,3350.0,943.0,,,,0.0772197936705084,-1.64372468990519,0.0901607336682255,,-1.9398323791620964,,
,3881.0,960.0,3227.0,843.0,1906.0,3358.0,941.0,,,,0.0772093906506608,-1.64388278979566,0.0901812772247924,,-1.418614153042941,,
,3883.0,959.0,3227.0,843.0,1905.0,3372.0,921.0,,,,0.0772056391732497,-1.64471931223107,0.0901611494088741,,-0.874131574937052,,
,3881.0,959.0,3228.0,847.0,1907.0,3383.0,932.0,,,,0.0772376863926051,-1.6441245119971,0.0901971346998281,,-0.31335445508576637,,
,3882.0,957.0,3226.0,842.0,1900.0,3370.0,945.0,,,,0.0771947563535233,-1.64502310476365,0.0901077697630183,,0.2576759036098545,,
,3880.0,959.0,3225.0,841.0,1898.0,3371.0,941.0,,,,0.0772372369690404,-1.64454175032104,0.0901292540381461,,0.8341339950465131,,
,3879.0,956.0,3225.0,845.0,1907.0,3356.0,938.0,,,,0.077166140230312,-1.64513340692233,0.0900703459157667,,1.4125089495457546,,
,3881.0,957.0,3227.0,844.0,1910.0,3352.0,940.0,,,,0.0771664635735452,-1.64540217058968,0.0900838528357488,,1.9905039649252065,,
,3878.0,956.0,3224.0,845.0,1901.0,3353.0,938.0,,,,0.0771542172452942,-1.64610769895765,0.0900581765873464,,2.5667458997397192,,
,3878.0,954.0,3224.0,843.0,1895.0,3379.0,949.0,,,,0.0771348477278779,-1.64615064719874,0.0900125822914628,,3.140334245161624,,
,3879.0,957.0,3224.0,840.0,1896.0,3376.0,948.0,,,,0.0771277650612847,-1.64595267094544,0.090028084609571,,3.7102762775637497,,
,3878.0,956.0,3225.0,842.0,1900.0,3352.0,940.0,,,,0.0770508053601682,-1.64612021489814,0.0899948845199829,,4.274869334944109,,
,3879.0,957.0,3224.0,842.0,1907.0,3362.0,941.0,,,,0.0770933349095184,-1.6464345262588,0.0899909215915156,,4.8311001921988845,,
,3877.0,957.0,3223.0,842.0,1903.0,3351.0,945.0,,,,0.0770796199731865,-1.64683624529687,0.0900263955313205,,5.374134011698291,,
,3875.0,956.0,3222.0,841.0,1899.0,3366.0,956.0,,,,0.0770402883424974,-1.6467596760043,0.0900303572032086,,5.896960755016948,,
,3877.0,956.0,3224.0,841.0,1906.0,3369.0,962.0,,,,0.0770480437155741,-1.64676237821253,0.0900036076499847,,6.390255746586973,,
,3876.0,954.0,3224.0,842.0,1911.0,3359.0,961.0,,,,0.0770367405392096,-1.64735932235966,0.0900052610714483,,6.842494477280926,,
,3876.0,958.0,3224.0,842.0,1905.0,3361.0,939.0,,,,0.0770081938432064,-1.64718074244839,0.0899892781113446,,7.240340976405653,,
,3876.0,956.0,3223.0,840.0,1912.0,3379.0,951.0,,,,0.0770043198629703,-1.64752208574073,0.0898846486204778,,7.569304853360847,,
,3879.0,957.0,3226.0,842.0,1909.0,3373.0,949.0,,,,0.0770016928924902,-1.64728520353462,0.0899311557657586,,7.814634567668466,,
,3877.0,955.0,3225.0,842.0,1910.0,3362.0,947.0,,,,0.0769761453053164,-1.64742284255825,0.0899040536673161,,7.96238443434622,,
,3877.0,958.0,3224.0,842.0,1898.0,3397.0,937.0,,,,0.0769821144616653,-1.64778705572453,0.0899152892007968,,8.000563471660207,,
,3879.0,955.0,3225.0,842.0,1904.0,3342.0,949.0,,,,0.076982115743456,-1.64759410491062,0.0899244537098827,,7.920251352751309,,
,3878.0,958.0,3225.0,841.0,1903.0,3357.0,944.0,,,,0.0770044377453941,-1.64740494238009,0.0898868330899392,,7.716557220496211,,
,3878.0,956.0,3225.0,843.0,1904.0,3366.0,933.0,,,,0.0770194872702032,-1.64749844420239,0.0899606109971429,,7.389305688659139,,
,3877.0,954.0,3225.0,842.0,1907.0,3367.0,929.0,,,,0.0769777058910919,-1.6475319134286,0.0899450199823005,,6.943361417545763,,
,3878.0,956.0,3225.0,842.0,1908.0,3379.0,942.0,,,,0.0770006211247985,-1.64807259969225,0.0899246937247635,,6.388544922068518,,
,3881.0,959.0,3227.0,843.0,1905.0,3385.0,937.0,,,,0.0769678147963627,-1.64834859220879,0.0899167267020127,,5.739140119513244,,
,3879.0,958.0,3226.0,842.0,1908.0,3373.0,929.0,,,,0.0769536252022463,-1.64875695666833,0.0898245207629144,,5.0130401897298595,,
,3878.0,957.0,3225.0,841.0,1902.0,3374.0,929.0,,,,0.0769472110695173,-1.64912840734519,0.0898690776175401,,4.23061605376904,,
,3881.0,954.0,3225.0,841.0,1897.0,3370.0,944.0,,,,0.0769160300635873,-1.64923001249636,0.0898173718430012,,3.4134176245370025,,
,3883.0,957.0,3227.0,844.0,1906.0,3339.0,923.0,,,,0.0769015364292467,-1.64930540528499,0.0898271444063662,,2.5828307556736494,,
,3882.0,957.0,3226.0,843.0,1906.0,3358.0,925.0,,,,0.0769140959618711,-1.64944839210582,0.089766055101222,,1.7588123505280082,,
,3882.0,958.0,3223.0,842.0,1906.0,3360.0,928.0,,,,0.0769035095329366,-1.65023973609191,0.0897668830745507,,0.958812752426314,,
,3881.0,955.0,3225.0,839.0,1901.0,3365.0,932.0,,,,0.0768893888494496,-1.64995332782255,0.0897617221563884,,0.19696986683662895,,
,3887.0,960.0,3228.0,844.0,1909.0,3379.0,933.0,,,,0.0768778368730849,-1.65016750031888,0.0897798296738664,,-0.5163730789704989,,
,3882.0,961.0,3224.0,844.0,1910.0,3379.0,931.0,,,,0.0768598725403153,-1.65030362425902,0.089687189877941,,-1.174809749512301,,
,3884.0,959.0,3226.0,844.0,1905.0,3355.0,941.0,,,,0.0768307138368587,-1.65041414991564,0.0897417782479247,,-1.775690143708324,,
,3885.0,958.0,3226.0,841.0,1904.0,3338.0,939.0,,,,0.0768357685418257,-1.65019898947596,0.0897316366858266,,-2.319662707618717,,
,3887.0,957.0,3228.0,844.0,1908.0,3377.0,929.0,,,,0.0768372888926589,-1.65040600756253,0.0897313969941493,,-2.8100050756087036,,
,3885.0,959.0,3227.0,844.0,1908.0,3354.0,930.0,,,,0.076800202041316,-1.65058326559582,0.0897319580984422,,-3.251821102033825,,
,3887.0,958.0,3227.0,844.0,1910.0,3330.0,930.0,,,,0.0767831491541976,-1.65022050165998,0.0898386900051732,,-3.6511846097228955,,
,3885.0,959.0,3226.0,841.0,1912.0,3364.0,940.0,,,,0.0768251073743165,-1.65120139086308,0.0897654835228057,,-4.014305055259569,,
,3886.0,961.0,3229.0,842.0,1913.0,3353.0,937.0,,,,0.0767980394719258,-1.65069954437009,0.0897231711204227,,-4.346778876817902,,
,3889.0,959.0,3229.0,845.0,1913.0,3370.0,942.0,,,,0.0768042992433604,-1.65086737944308,0.0897082155577807,,-4.652974862799548,,
,3888.0,958.0,3231.0,845.0,1910.0,3353.0,944.0,,,,0.0767833943222593,-1.65078459893562,0.0898298208619069,,-4.935584883155136,,
,3888.0,957.0,3226.0,846.0,1910.0,3363.0,934.0,,,,0.0768341558781815,-1.65077788306295,0.0897947083356331,,-5.195355236729216,,
,3889.0,959.0,3228.0,843.0,1908.0,3341.0,930.0,,,,0.0768300948131652,-1.65071002077265,0.0898088662961532,,-5.431000692140522,,
,3889.0,963.0,3230.0,845.0,1910.0,3370.0,937.0,,,,0.0768381694999336,-1.65016650681521,0.0897541879170013,,-5.639293721189615,,
,3889.0,959.0,3228.0,845.0,1910.0,3380.0,939.0,,,,0.0768761958094311,-1.65006325901946,0.089789386373683,,-5.81531445604902,,
,3889.0,959.0,3228.0,844.0,1911.0,3374.0,935.0,,,,0.0768393419792588,-1.64974671081967,0.0898333623825985,,-5.952840707704303,,
,3890.0,958.0,3229.0,842.0,1909.0,3346.0,929.0,,,,0.0768533254985686,-1.64924413324432,0.089833822216987,,-6.044850689856866,,
,3892.0,961.0,3232.0,847.0,1901.0,3346.0,933.0,,,,0.0768676928834448,-1.64979474096737,0.0898382034672847,,-6.084103877166347,,
,3893.0,961.0,3230.0,846.0,1898.0,3356.0,936.0,,,,0.0769122154093917,-1.64985452622741,0.0899073344215967,,-6.063758498996936,,
,3891.0,958.0,3229.0,843.0,1903.0,3396.0,937.0,,,,0.0769008289025779,-1.64907654074573,0.0898254313968178,,-5.9779785614923115,,
,3894.0,961.0,3229.0,845.0,1911.0,3356.0,936.0,,,,0.0769277831267366,-1.64876669454731,0.08991396404627,,-5.822480189403411,,
,3894.0,961.0,3231.0,846.0,1900.0,3357.0,918.0,,,,0.07689762346215,-1.64876135699692,0.0898926963232231,,-5.594967953195365,,
,3894.0,961.0,3229.0,845.0,1902.0,3366.0,919.0,,,,0.0769175917441821,-1.64905142928941,0.0899539580441547,,-5.295418133898481,,
,3895.0,960.0,3230.0,846.0,1906.0,3348.0,928.0,,,,0.076925053228014,-1.64862705563536,0.0899174560689376,,-4.926178225348639,,
,3897.0,961.0,3231.0,846.0,1909.0,3358.0,919.0,,,,0.0769010678628367,-1.64895638682043,0.0899427313263481,,-4.491869539716054,,
,3897.0,960.0,3232.0,843.0,1904.0,3361.0,926.0,,,,0.0768913290790406,-1.64866627239313,0.0899616897640482,,-3.9991002209005977,,
,3898.0,961.0,3230.0,845.0,1911.0,3362.0,929.0,,,,0.0769235299421026,-1.64910994327227,0.0899802488348392,,-3.4560163175386296,,
,3899.0,963.0,3232.0,844.0,1909.0,3379.0,946.0,,,,0.0769277403787336,-1.64922339335872,0.0899134402046362,,-2.8717363232498325,,
,3897.0,960.0,3231.0,846.0,1907.0,3336.0,931.0,,,,0.0768936489845451,-1.64880990406065,0.0898864285529518,,-2.255728025129338,,
,3900.0,965.0,3234.0,846.0,1902.0,3345.0,932.0,,,,0.0769162712130553,-1.64849201501492,0.0899800350107968,,-1.6171943053587061,,
,3899.0,964.0,3232.0,845.0,1908.0,3319.0,931.0,,,,0.0769396620597848,-1.64865439810246,0.0899233766511941,,-0.9645356995754212,,
,3901.0,963.0,3235.0,847.0,1907.0,3323.0,943.0,,,,0.0769052836447413,-1.64837489277881,0.0898892261541712,,-0.30495151533998327,,
,3900.0,961.0,3233.0,846.0,1905.0,3350.0,936.0,,,,0.0768574579627176,-1.64856732348064,0.0899292261395994,,0.3557717741211055,,
,3902.0,966.0,3236.0,849.0,1910.0,3345.0,921.0,,,,0.0768622400158624,-1.64784169390887,0.0899750995911505,,1.0132556914320203,,
,3904.0,965.0,3234.0,849.0,1909.0,3361.0,933.0,,,,0.0768815796347829,-1.64786065797675,0.0899859661453445,,1.6643038954430294,,
,3903.0,962.0,3233.0,846.0,1904.0,3365.0,931.0,,,,0.0768461127842914,-1.64754654427263,0.0900182051872633,,2.3064778301277227,,
,3903.0,962.0,3232.0,846.0,1913.0,3380.0,938.0,,,,0.0768810739865758,-1.64746458709182,0.0899714936257,,2.9375224731864096,,
,3902.0,964.0,3235.0,848.0,1913.0,3385.0,940.0,,,,0.0769104833834878,-1.64732105194137,0.0900072790155561,,3.554712063328551,,
,3903.0,962.0,3232.0,844.0,1914.0,3397.0,929.0,,,,0.0768786496948837,-1.64704265128385,0.0900024710500307,,4.154199458475102,,
,3900.0,960.0,3229.0,843.0,1914.0,3376.0,927.0,,,,0.076859168597627,-1.64672101125425,0.0900258064909433,,4.730457826993696,,
,3895.0,957.0,3227.0,844.0,1912.0,3367.0,947.0,,,,0.0769077672243438,-1.64647708651226,0.0900140623433053,,5.275899487669239,,
,3894.0,959.0,3230.0,843.0,1908.0,3361.0,943.0,,,,0.0769262337432795,-1.64650583054353,0.0900530074573306,,5.7807437196686005,,
,3892.0,961.0,3230.0,846.0,1912.0,3372.0,949.0,,,,0.0769467223490926,-1.64619718645902,0.0901010991595511,,6.233182958610959,,
,3890.0,960.0,3229.0,841.0,1915.0,3349.0,946.0,,,,0.076947681472837,-1.64558011644314,0.0901309010877103,,6.619865536932248,,
,3887.0,957.0,3227.0,841.0,1911.0,3356.0,941.0,,,,0.0769447898139372,-1.64571834015862,0.0901143188887184,,6.9266755943404075,,
,3885.0,958.0,3224.0,840.0,1912.0,3347.0,941.0,,,,0.0769822246756401,-1.64591618342078,0.0901125917793887,,7.139751637046212,,
,3885.0,958.0,3224.0,843.0,1909.0,3331.0,946.0,,,,0.0770022833715371,-1.64533554757083,0.0902175622094089,,7.246650082249705,,
,3880.0,955.0,3223.0,841.0,1909.0,3338.0,945.0,,,,0.0770268626894152,-1.64534086809961,0.0901653136662626,,7.23753423709855,,
,3880.0,959.0,3222.0,838.0,1902.0,3328.0,935.0,,,,0.0770312991025333,-1.64480637654115,0.0902080555408803,,7.106256622939416,,
,3878.0,953.0,3221.0,838.0,1900.0,3343.0,921.0,,,,0.0770219957762892,-1.6443595750607,0.0902142467915279,,6.8512060075675425,,
,3877.0,956.0,3220.0,840.0,1908.0,3362.0,935.0,,,,0.0770202054119239,-1.64455979791755,0.0902334692491093,,6.475810881548646,,
,3876.0,956.0,3218.0,840.0,1915.0,3346.0,920.0,,,,0.077021468926841,-1.64450228385075,0.0902562629011234,,5.9886270970973285,,
,3876.0,956.0,3222.0,839.0,1914.0,3341.0,915.0,,,,0.0770747457271856,-1.64416486561923,0.0903144161457585,,5.40298483415613,,
,3873.0,953.0,3219.0,838.0,1912.0,3355.0,921.0,,,,0.0770677586169006,-1.64387916467677,0.0902545024118395,,4.736222141450691,,
,3875.0,955.0,3217.0,838.0,1911.0,3373.0,931.0,,,,0.0770819053805117,-1.6437909834918,0.090294292354959,,4.008580938436551,,
,3877.0,955.0,3220.0,838.0,1903.0,3389.0,919.0,,,,0.0771141891276337,-1.64362336224633,0.0902968928155805,,3.2418792371088747,,
2025-08-05 18:33:49,3875.0,954.0,3217.0,837.0,1907.0,3382.0,924.0,,,2025/08/05 06:33:49 PM,0.0770956844394589,-1.64326507391906,0.0902818955894868,,2.4580952493517434,,
,3873.0,953.0,3219.0,839.0,1910.0,3360.0,913.0,,,,0.0770732331530266,-1.64343278295434,0.0903074207066624,,1.6780024302206156,,
,3874.0,955.0,3218.0,840.0,1907.0,3361.0,917.0,,,,0.0770867198908684,-1.64321961986382,0.0902924116170623,,0.919979930200675,,
,3874.0,954.0,3218.0,838.0,1912.0,3355.0,913.0,,,,0.077065405432889,-1.64292502911036,0.0902729449817477,,0.199094341617737,,
,3875.0,955.0,3218.0,836.0,1912.0,3345.0,912.0,,,,0.077083748758375,-1.64308283415037,0.0902851766214432,,-0.4734876377515567,,
,3873.0,953.0,3215.0,835.0,1907.0,3360.0,925.0,,,,0.0770883761430572,-1.64294447774769,0.0903470340331583,,-1.0907334388687209,,
,3873.0,954.0,3217.0,836.0,1908.0,3343.0,920.0,,,,0.0771463389838719,-1.64219713285107,0.0903165122465861,,-1.6496373920299883,,
,3873.0,954.0,3215.0,837.0,1911.0,3341.0,916.0,,,,0.0771223992146744,-1.64176746646074,0.090321871813628,,-2.1508112635927863,,
,3873.0,954.0,3219.0,837.0,1912.0,3356.0,918.0,,,,0.077116225752935,-1.6424511619485,0.0903633708509081,,-2.5978321819290167,,
,3875.0,952.0,3216.0,837.0,1914.0,3356.0,934.0,,,,0.0771479123873631,-1.64185847746574,0.0903497048229657,,-2.996420820575534,,
,3873.0,953.0,3214.0,838.0,1915.0,3369.0,925.0,,,,0.077179906725386,-1.64135253778214,0.0904013470297845,,-3.3535293892267406,,
,3873.0,954.0,3214.0,836.0,1907.0,3361.0,932.0,,,,0.0771754751129373,-1.6414562015226,0.0903670161860575,,-3.676419740641899,,
,3872.0,956.0,3216.0,837.0,1907.0,3335.0,925.0,,,,0.0771456574680635,-1.64150805939725,0.0904311327016837,,-3.971807006633892,,
,3872.0,952.0,3215.0,834.0,1908.0,3341.0,941.0,,,,0.0771638821041397,-1.6411953437819,0.0904244681229355,,-4.245133628125336,,
,3872.0,953.0,3215.0,838.0,1912.0,3348.0,918.0,,,,0.0771822621082459,-1.64122064791872,0.0904604267055713,,-4.500022861338781,,
,3869.0,952.0,3213.0,838.0,1912.0,3338.0,926.0,,,,0.0771909884075558,-1.64106554116739,0.0904043928304555,,-4.737941390524257,,
,3869.0,954.0,3215.0,837.0,1917.0,3354.0,916.0,,,,0.0772142408623557,-1.64057316069706,0.0904851916543456,,-4.958080314939089,,
,3870.0,954.0,3213.0,837.0,1914.0,3356.0,921.0,,,,0.0772052230869018,-1.64039394291747,0.0904873061035226,,-5.15744552078517,,
,3869.0,953.0,3213.0,834.0,1915.0,3354.0,932.0,,,,0.077227630324741,-1.64041917552479,0.0904876707174685,,-5.331134193490603,,
,3870.0,955.0,3214.0,836.0,1912.0,3359.0,932.0,,,,0.0772026685785764,-1.64027850712208,0.0904893597172859,,-5.472764137784971,,
,3868.0,952.0,3212.0,837.0,1908.0,3345.0,934.0,,,,0.0772161408614119,-1.64009632220491,0.0904958160686274,,-5.575015792437814,,
,3869.0,952.0,3212.0,837.0,1903.0,3334.0,933.0,,,,0.0772150703540089,-1.6401838576051,0.0904818598615614,,-5.630242540186252,,
,3865.0,951.0,3211.0,834.0,1909.0,3340.0,942.0,,,,0.0772137783642164,-1.63997484477175,0.0904828253323748,,-5.631102738458938,,
,3867.0,950.0,3213.0,835.0,1912.0,3361.0,939.0,,,,0.0772158540384457,-1.63976409970703,0.0905376517700643,,-5.571166703914354,,
,3867.0,954.0,3214.0,836.0,1910.0,3353.0,947.0,,,,0.0772452363509885,-1.64004398873879,0.0905372361387159,,-5.445453712105,,
,3867.0,949.0,3210.0,836.0,1911.0,3341.0,943.0,,,,0.0772533862192287,-1.63974136180198,0.0905727779360268,,-5.250858284518125,,
,3866.0,951.0,3212.0,834.0,1912.0,3352.0,924.0,,,,0.0772342536700223,-1.64001674218419,0.0905916121927023,,-4.9864323509668065,,
,3866.0,950.0,3212.0,835.0,1906.0,3367.0,934.0,,,,0.0772639249114265,-1.64001649058649,0.0905658010378796,,-4.653500939228507,,
,3868.0,950.0,3213.0,834.0,1907.0,3353.0,928.0,,,,0.0772729615168433,-1.63981627344228,0.0905074332846652,,-4.255603613899074,,
,3867.0,952.0,3214.0,838.0,1906.0,3352.0,934.0,,,,0.0772616089755611,-1.63935040043916,0.0905776837656613,,-3.798270306895752,,
,3865.0,949.0,3209.0,834.0,1901.0,3352.0,921.0,,,,0.0773013671034919,-1.63892792570952,0.0905641769164822,,-3.288655804783785,,
,3866.0,951.0,3208.0,834.0,1906.0,3361.0,923.0,,,,0.0773076473335793,-1.63841504238198,0.0906154697506017,,-2.7350696956818896,,
,3867.0,950.0,3213.0,834.0,1907.0,3340.0,938.0,,,,0.0773082134257763,-1.63834160315043,0.0907085283317129,,-2.146447275946366,,
,3865.0,951.0,3211.0,834.0,1910.0,3348.0,938.0,,,,0.0773323898121382,-1.63821779415646,0.0906495280750268,,-1.5318121588344893,,
,3868.0,951.0,3212.0,834.0,1915.0,3339.0,924.0,,,,0.0772565191884668,-1.63790433097831,0.0907033283449577,,-0.8997830971998508,,
,3867.0,950.0,3210.0,833.0,1915.0,3312.0,918.0,,,,0.0773009828726428,-1.63785898167244,0.0907552624535316,,-0.25817482981296375,,
,3869.0,951.0,3211.0,835.0,1918.0,3327.0,927.0,,,,0.0772797335620073,-1.63770419334759,0.0907735084091893,,0.38626536793849814,,
,3868.0,953.0,3210.0,836.0,1916.0,3327.0,924.0,,,,0.0773025962690672,-1.6377327662261,0.0907686614420615,,1.0279571500254305,,
,3869.0,950.0,3213.0,836.0,1915.0,3340.0,905.0,,,,0.0773286023928224,-1.63763231004784,0.0907774925034858,,1.6624117194651833,,
,3868.0,949.0,3209.0,833.0,1909.0,3347.0,913.0,,,,0.0773599818211296,-1.63777035577544,0.0908429714548781,,2.2859903616141226,,
,3869.0,950.0,3211.0,835.0,1905.0,3333.0,919.0,,,,0.0773351897990017,-1.6378241738173,0.0907838915351352,,2.895525474949607,,
,3871.0,953.0,3211.0,834.0,1905.0,3328.0,924.0,,,,0.0773205813748318,-1.6372401112936,0.0908435978205809,,3.487850544060002,,
,3871.0,950.0,3211.0,837.0,1904.0,3335.0,930.0,,,,0.0773641298734563,-1.63767291282831,0.0908050872072986,,4.059299157602375,,
,3869.0,949.0,3212.0,835.0,1905.0,3339.0,933.0,,,,0.0773406713504727,-1.63779335320217,0.0907435877672416,,4.605240685476943,,
,3870.0,952.0,3210.0,835.0,1907.0,3340.0,935.0,,,,0.0773395845930523,-1.63802141838641,0.0908245333175691,,5.119720408692692,,
,3873.0,954.0,3211.0,836.0,1911.0,3356.0,942.0,,,,0.0773272886358211,-1.63774505424339,0.0907644395687198,,5.59526450457751,,
,3873.0,955.0,3213.0,835.0,1912.0,3354.0,927.0,,,,0.0773149290041742,-1.63805719237145,0.090784601450746,,6.022895855368924,,
,3872.0,952.0,3212.0,837.0,1911.0,3347.0,917.0,,,,0.0773206870466341,-1.6383774851203,0.0907963302024446,,6.3923860897892535,,
,3872.0,950.0,3211.0,835.0,1909.0,3351.0,933.0,,,,0.0773236549808698,-1.63832830847816,0.0908150314736152,,6.6927437251902635,,
,3872.0,952.0,3210.0,836.0,1903.0,3363.0,935.0,,,,0.0773322936046184,-1.63827727681914,0.0907498923421171,,6.912909491580338,,
,3874.0,952.0,3211.0,836.0,1900.0,3367.0,936.0,,,,0.0773288090944775,-1.63801718677952,0.0907900046274663,,7.042600897726758,,
,3873.0,952.0,3211.0,834.0,1905.0,3341.0,930.0,,,,0.0773509440363473,-1.63752813582615,0.0908024776578646,,7.073223212485037,,
,3875.0,953.0,3211.0,836.0,1909.0,3338.0,938.0,,,,0.0773838034132624,-1.63782093654876,0.0907591475428797,,6.998748068758644,,
,3874.0,954.0,3215.0,836.0,1907.0,3367.0,926.0,,,,0.0773951764766001,-1.63774568373779,0.0908551838246511,,6.816457632001289,,
,3875.0,953.0,3212.0,836.0,1906.0,3360.0,937.0,,,,0.0773648651810907,-1.63761976116058,0.0908610117790164,,6.527463373506804,,
,3875.0,953.0,3214.0,835.0,1909.0,3352.0,923.0,,,,0.0773995331957178,-1.63808486551595,0.0908386938007131,,6.13693294909218,,
,3877.0,952.0,3211.0,835.0,1912.0,3369.0,939.0,,,,0.0773903844213154,-1.63746188238059,0.0908675018151839,,5.6539927347891,,
,3877.0,954.0,3211.0,836.0,1913.0,3354.0,950.0,,,,0.0773879609497156,-1.63696838459047,0.0909105805554697,,5.091311244276767,,
,3877.0,953.0,3213.0,836.0,1914.0,3361.0,946.0,,,,0.077399931581013,-1.63667885024507,0.0908481165011133,,4.464403418412514,,
,3875.0,955.0,3212.0,837.0,1900.0,3382.0,912.0,,,,0.0774622776183948,-1.63669658262634,0.0909106788746742,,3.790722737086509,,
,3879.0,953.0,3212.0,837.0,1907.0,3375.0,913.0,,,,0.0775241390540561,-1.6363712672587,0.0909144420033095,,3.088625256474496,,
,3877.0,953.0,3211.0,836.0,1901.0,3386.0,922.0,,,,0.0775012297173727,-1.63644443859097,0.0909598382017038,,2.37629738020653,,
,3878.0,953.0,3211.0,838.0,1903.0,3393.0,923.0,,,,0.0775094742832243,-1.63628291541579,0.0909846151248729,,1.6707385452869652,,
,3878.0,956.0,3213.0,837.0,1897.0,3375.0,922.0,,,,0.0774891348269197,-1.63600396876186,0.090979307422074,,0.9868816670665665,,
,3880.0,954.0,3213.0,835.0,1902.0,3399.0,909.0,,,,0.0775239170292983,-1.63608318739976,0.0909865888942328,,0.3369183291587221,,
,3880.0,957.0,3213.0,835.0,1902.0,3392.0,922.0,,,,0.0775353330167097,-1.63645402217313,0.0909872909127207,,-0.2701267698423374,,
,3876.0,956.0,3214.0,837.0,1911.0,3354.0,922.0,,,,0.077554556889769,-1.63656008533507,0.0910335776851479,,-0.8285541540379654,,
,3880.0,958.0,3214.0,839.0,1918.0,3354.0,927.0,,,,0.0774871411605025,-1.63653695317742,0.0910116876080304,,-1.3358896449656112,,
,3879.0,957.0,3213.0,838.0,1911.0,3365.0,951.0,,,,0.0774449546142177,-1.63664156147725,0.0910971346624939,,-1.7925587664339293,,
,3879.0,956.0,3216.0,839.0,1910.0,3384.0,938.0,,,,0.0774523865096423,-1.63647224582502,0.0910035069104992,,-2.2013857743967984,,
,3885.0,956.0,3217.0,837.0,1904.0,3375.0,915.0,,,,0.0774546373556237,-1.63631196184019,0.0910495500495463,,-2.566977870235386,,
,3882.0,957.0,3214.0,838.0,1907.0,3354.0,909.0,,,,0.0774432906440541,-1.63599702653994,0.0910459002047437,,-2.895057670575605,,
,3881.0,955.0,3214.0,835.0,1910.0,3340.0,930.0,,,,0.0775129451824688,-1.63668844101055,0.0910652548340427,,-3.1918026437020512,,
,3884.0,958.0,3217.0,838.0,1910.0,3357.0,936.0,,,,0.0775391486823773,-1.63676635213498,0.0910208704988309,,-3.4632407852196274,,
,3883.0,956.0,3215.0,839.0,1904.0,3363.0,945.0,,,,0.0775056535950019,-1.6365434643169,0.0910208555179661,,-3.7147394940461615,,
,3883.0,956.0,3216.0,839.0,1900.0,3341.0,939.0,,,,0.0774992827020541,-1.63615891592185,0.0910623649396157,,-3.9506113968933128,,
,3885.0,957.0,3218.0,839.0,1905.0,3363.0,906.0,,,,0.0774814868970288,-1.63660375640866,0.0910741348553209,,-4.173848074061345,,
,3884.0,957.0,3217.0,840.0,1911.0,3364.0,934.0,,,,0.0774349691455652,-1.63656893594745,0.0910533625306519,,-4.385980928448539,,
,3885.0,958.0,3216.0,841.0,1913.0,3342.0,943.0,,,,0.077482868837485,-1.6362689299321,0.0910238038091761,,-4.587058276914772,,
,3883.0,958.0,3217.0,839.0,1910.0,3368.0,937.0,,,,0.0775551793845908,-1.63539339994726,0.0911675693690552,,-4.775719966511116,,
,3883.0,958.0,3214.0,840.0,1902.0,3365.0,933.0,,,,0.0775679754139438,-1.63488849568854,0.0910931903399362,,-4.949346716497012,,
,3877.0,955.0,3213.0,838.0,1906.0,3387.0,945.0,,,,0.0775915980751533,-1.63409185589137,0.0912037089705988,,-5.104261886775417,,
,3875.0,957.0,3216.0,839.0,1907.0,3386.0,954.0,,,,0.077589073112482,-1.63375525259438,0.0912308049079696,,-5.235967940485434,,
,3876.0,955.0,3212.0,837.0,1904.0,3392.0,943.0,,,,0.0776573171038403,-1.63299875687924,0.0912549337580317,,-5.339406316540766,,
,3872.0,954.0,3212.0,837.0,1902.0,3384.0,938.0,,,,0.0776568991599891,-1.63266076179781,0.0913404713657049,,-5.409234956275663,,
,3869.0,953.0,3209.0,834.0,1908.0,3365.0,937.0,,,,0.0776925515138755,-1.63234207460448,0.0912818895073003,,-5.440120267251866,,
,3866.0,953.0,3210.0,835.0,1910.0,3354.0,950.0,,,,0.0776531950204904,-1.63206713268879,0.0913602951496154,,-5.427039164427133,,
,3866.0,953.0,3209.0,831.0,1911.0,3319.0,954.0,,,,0.0776982278392808,-1.63174176249281,0.0913316177163725,,-5.365582545307117,,
,3862.0,953.0,3209.0,835.0,1907.0,3329.0,952.0,,,,0.0777646240850289,-1.63147473329094,0.0914418630450967,,-5.252245523428816,,
,3861.0,951.0,3206.0,832.0,1900.0,3348.0,946.0,,,,0.0777877414090802,-1.63092730719118,0.091468459088641,,-5.084683923880461,,
,3859.0,948.0,3205.0,832.0,1904.0,3370.0,952.0,,,,0.0778419047083449,-1.63025282386481,0.0914589373295595,,-4.861913108598993,,
,3856.0,950.0,3206.0,833.0,1900.0,3349.0,944.0,,,,0.0778785171417724,-1.63026293260746,0.0915250917936117,,-4.584425902784027,,
,3856.0,950.0,3205.0,831.0,1904.0,3347.0,945.0,,,,0.0778628488805115,-1.62953912945034,0.0915687347976098,,-4.254211851565386,,
,3852.0,947.0,3203.0,829.0,1903.0,3362.0,944.0,,,,0.0779052258407771,-1.6285183882264,0.0916393294781934,,-3.874669364756064,,
,3852.0,947.0,3200.0,832.0,1903.0,3355.0,934.0,,,,0.0779130910741567,-1.62846286892833,0.0916203890679912,,-3.4504135530846587,,
,3851.0,948.0,3202.0,830.0,1901.0,3366.0,931.0,,,,0.0779386073180045,-1.62733842813582,0.0916977844717365,,-2.986993827305207,,
,3852.0,948.0,3198.0,832.0,1909.0,3375.0,930.0,,,,0.0779521433109766,-1.62727895089768,0.0917154312397114,,-2.4905456631807295,,
,3849.0,946.0,3200.0,830.0,1909.0,3361.0,928.0,,,,0.0779976945694909,-1.62631942755746,0.091787319055953,,-1.9674099692878857,,
,3848.0,945.0,3200.0,830.0,1911.0,3354.0,931.0,,,,0.078021822506887,-1.62570607115357,0.0918053971722048,,-1.4237604153538335,,
,3850.0,948.0,3201.0,830.0,1908.0,3383.0,937.0,,,,0.078040532395481,-1.62519599272428,0.0918705619879462,,-0.8652822852164324,,
,3849.0,948.0,3200.0,831.0,1912.0,3370.0,924.0,,,,0.0780955846862848,-1.62499387458585,0.0919167131281679,,-0.2969442896364263,,
,3846.0,944.0,3199.0,831.0,1908.0,3375.0,905.0,,,,0.0781295872039576,-1.62423122236572,0.0919302380312015,,0.2771033850420631,,
,3847.0,947.0,3200.0,829.0,1902.0,3361.0,902.0,,,,0.0781053145861986,-1.62358838644791,0.0919552823510426,,0.8534850910629316,,
,3849.0,948.0,3201.0,830.0,1912.0,3349.0,922.0,,,,0.0781231927572874,-1.62298798144445,0.0919984837459939,,1.4294073382359929,,
,3847.0,945.0,3198.0,831.0,1915.0,3357.0,921.0,,,,0.0781712139388539,-1.62264603308833,0.0920774175244972,,2.0023341178752307,,
,3845.0,945.0,3199.0,828.0,1910.0,3386.0,911.0,,,,0.0781953982425845,-1.62235622098264,0.0921089313117499,,2.5695635744287726,,
,3844.0,944.0,3196.0,828.0,1913.0,3353.0,929.0,,,,0.0782164662827693,-1.62211779632386,0.092074735259703,,3.1277542986223814,,
,3847.0,949.0,3197.0,827.0,1907.0,3358.0,929.0,,,,0.0782070596653953,-1.62162611670371,0.0920919285553567,,3.6724598399316943,,
,3844.0,944.0,3196.0,828.0,1904.0,3361.0,927.0,,,,0.0782661096231665,-1.62172284386224,0.0921735461254931,,4.197735086603361,,
,3844.0,948.0,3198.0,827.0,1911.0,3367.0,913.0,,,,0.0782741373332617,-1.62065757892287,0.0922106631218226,,4.695877330882292,,
,3844.0,945.0,3198.0,829.0,1913.0,3364.0,926.0,,,,0.0783111300050993,-1.6199398089817,0.0922027101313919,,5.157357643256767,,
,3842.0,946.0,3195.0,829.0,1908.0,3369.0,927.0,,,,0.0783003484151125,-1.6201313911192,0.0922392638292177,,5.570983972934938,,
,3841.0,946.0,3196.0,830.0,1907.0,3360.0,937.0,,,,0.0783024875401041,-1.6203636369792,0.092247112586623,,5.924315705983641,,
,3844.0,943.0,3195.0,826.0,1907.0,3355.0,932.0,,,,0.0783513640565876,-1.61891569023291,0.0923698035932204,,6.204321129904298,,
,3844.0,945.0,3197.0,826.0,1909.0,3369.0,924.0,,,,0.0783514425634051,-1.61895991195047,0.0923324686603727,,6.398237409319008,,
,3843.0,945.0,3196.0,829.0,1899.0,3372.0,937.0,,,,0.0783803249788349,-1.61880293020278,0.0923903012163475,,6.494561887704462,,
,3846.0,945.0,3194.0,829.0,1900.0,3372.0,942.0,,,,0.0783586304371352,-1.61774390795318,0.0923681183160724,,6.484078690074124,,
,3842.0,947.0,3196.0,827.0,1898.0,3383.0,948.0,,,,0.0784068624589834,-1.61788296960042,0.0923972160641213,,6.360810031549382,,
,3839.0,943.0,3193.0,824.0,1888.0,3361.0,936.0,,,,0.0784446604988648,-1.6177668916587,0.0924503550719097,,6.122780720099824,,
,3841.0,945.0,3194.0,826.0,1891.0,3381.0,934.0,,,,0.0784501272182234,-1.61695115393384,0.0924761324376011,,5.7724989153481525,,
,3842.0,947.0,3192.0,828.0,1896.0,3381.0,930.0,,,,0.0784460623677419,-1.61603580861113,0.0924666432300816,,5.317085485637732,,
,3842.0,946.0,3193.0,826.0,1896.0,3368.0,935.0,,,,0.0784953751906533,-1.61531885863428,0.0925659928786291,,4.768024179469875,,
,3840.0,946.0,3194.0,827.0,1896.0,3396.0,940.0,,,,0.0785305360093079,-1.61429459488455,0.0926096295784748,,4.140548644091204,,
,3839.0,943.0,3196.0,826.0,1902.0,3375.0,922.0,,,,0.0785532398264445,-1.61359161366522,0.0926626589787613,,3.452723114771588,,
,3839.0,946.0,3193.0,827.0,1897.0,3377.0,924.0,,,,0.0785520864474285,-1.61353428615345,0.0926965998235744,,2.724306110509257,,
,3840.0,947.0,3195.0,825.0,1894.0,3387.0,925.0,,,,0.0785677385915533,-1.61290237660671,0.092664312175842,,1.9755076640912288,,
,3839.0,945.0,3192.0,826.0,1888.0,3387.0,910.0,,,,0.078593369811897,-1.6120511358601,0.0928157131078351,,1.2257589398136286,,
,3841.0,944.0,3195.0,825.0,1890.0,3388.0,946.0,,,,0.0786195405972354,-1.61188366528027,0.0927480520949591,,0.49260783707563477,,
2025-08-05 18:33:50,3839.0,944.0,3194.0,826.0,1878.0,3388.0,936.0,,,2025/08/05 06:33:50 PM,0.0786217414822722,-1.61074899717265,0.0927950312057748,,-0.20916424664268626,,
,3841.0,945.0,3193.0,825.0,1889.0,3350.0,942.0,,,,0.0786344860335278,-1.61029174758011,0.0928475664833397,,-0.8681384109254888,,
,3842.0,946.0,3193.0,829.0,1893.0,3363.0,933.0,,,,0.0786478208040991,-1.61025170527681,0.0928724722488497,,-1.4765358373486253,,
,3840.0,942.0,3193.0,827.0,1906.0,3355.0,935.0,,,,0.0786639555723365,-1.60990208163213,0.0929101041586492,,-2.0301806929516486,,
,3840.0,945.0,3194.0,828.0,1904.0,3360.0,924.0,,,,0.0786976195504335,-1.60911147268779,0.0928823378716141,,-2.5281820799693624,,
,3839.0,944.0,3193.0,827.0,1901.0,3388.0,917.0,,,,0.0787154927154868,-1.60878389308602,0.0929205258687467,,-2.9723909798939268,,
,3841.0,945.0,3192.0,827.0,1898.0,3376.0,935.0,,,,0.0786923816053371,-1.60882710902722,0.0930051361486934,,-3.366701562554955,,
,3843.0,946.0,3193.0,827.0,1906.0,3369.0,956.0,,,,0.078733794543728,-1.6080272901583,0.0930226936171246,,-3.716271136960126,,
,3843.0,947.0,3197.0,828.0,1909.0,3357.0,936.0,,,,0.0787331736868396,-1.60711904851042,0.0930614132681596,,-4.026730575278901,,
,3844.0,945.0,3195.0,831.0,1902.0,3363.0,935.0,,,,0.0787738285324335,-1.60712516266777,0.0930396592390687,,-4.303448979350278,,
,3844.0,946.0,3195.0,827.0,1898.0,3364.0,939.0,,,,0.078768334233223,-1.60727315091549,0.0931016646840247,,-4.550904587691569,,
,3842.0,944.0,3193.0,826.0,1895.0,3368.0,940.0,,,,0.0787516126432863,-1.60694408377766,0.0930901776629201,,-4.7722001478309695,,
,3843.0,946.0,3196.0,828.0,1898.0,3365.0,943.0,,,,0.0787913095623324,-1.60695569731705,0.0931001614817052,,-4.968746571943021,,
,3845.0,948.0,3198.0,829.0,1896.0,3376.0,952.0,,,,0.0788322018429084,-1.60710104341686,0.093015731826347,,-5.140124726004392,,
,3846.0,948.0,3196.0,829.0,1895.0,3373.0,952.0,,,,0.0788516566643494,-1.60690661177408,0.0930782231321041,,-5.284122508635648,,
,3843.0,946.0,3195.0,827.0,1887.0,3373.0,943.0,,,,0.0788355552347171,-1.60640894067874,0.0930261713661907,,-5.396933572953471,,
,3846.0,944.0,3196.0,828.0,1901.0,3382.0,945.0,,,,0.078851077831119,-1.60550542711567,0.0931610874974428,,-5.47349547013805,,
,3847.0,946.0,3196.0,830.0,1897.0,3362.0,940.0,,,,0.0788914195379244,-1.6049383102191,0.0931158182112452,,-5.507938536228564,,
,3847.0,947.0,3199.0,829.0,1898.0,3360.0,926.0,,,,0.0788707261644664,-1.60443035671751,0.0931841927768854,,-5.494111942101339,,
,3846.0,947.0,3199.0,827.0,1890.0,3367.0,935.0,,,,0.0788970369894075,-1.60412905553108,0.0931862758742852,,-5.426149357519323,,
,3848.0,947.0,3197.0,828.0,1902.0,3363.0,944.0,,,,0.0789017052297492,-1.60365986096837,0.093197057687381,,-5.299033456456352,,
,3849.0,947.0,3196.0,829.0,1907.0,3350.0,933.0,,,,0.078906656906575,-1.60339245997419,0.0932111234985357,,-5.109116442567648,,
,3846.0,947.0,3198.0,828.0,1910.0,3364.0,950.0,,,,0.0789148550041992,-1.60245724520236,0.0932750110811016,,-4.854553804219625,,
,3850.0,948.0,3196.0,829.0,1912.0,3362.0,954.0,,,,0.0789125002729125,-1.60178295753749,0.0932863232283003,,-4.5356117799317195,,
,3849.0,947.0,3195.0,830.0,1907.0,3343.0,943.0,,,,0.0788917765166653,-1.6015104067072,0.0932988244857417,,-4.154816717533531,,
,3849.0,947.0,3199.0,831.0,1908.0,3375.0,926.0,,,,0.0789008305700563,-1.60119058756888,0.0933076464354889,,-3.716927373439805,,
,3850.0,947.0,3198.0,830.0,1908.0,3369.0,931.0,,,,0.0788841254231628,-1.60173507873195,0.0933448868310777,,-3.2287286416577263,,
,3849.0,950.0,3200.0,831.0,1910.0,3362.0,939.0,,,,0.0789490933377531,-1.60180705991412,0.0933652569335969,,-2.698664689160415,,
,3850.0,947.0,3197.0,829.0,1906.0,3378.0,916.0,,,,0.0789328049685304,-1.60153742323449,0.09329761134827,,-2.1363469850712193,,
,3853.0,948.0,3199.0,831.0,1908.0,3370.0,910.0,,,,0.0789819021135501,-1.60142602741445,0.0933045489469943,,-1.551984440182819,,
,3853.0,950.0,3202.0,833.0,1893.0,3366.0,932.0,,,,0.0790016819649371,-1.60114297872711,0.0933895717789509,,-0.955787059904171,,
,3852.0,948.0,3200.0,829.0,1900.0,3368.0,937.0,,,,0.078985875909956,-1.60165211829108,0.0933114251790164,,-0.35739211634132306,,
,3853.0,946.0,3201.0,832.0,1908.0,3379.0,931.0,,,,0.0790157673475146,-1.60180179579368,0.0932926651976303,,0.23464439182558547,,
,3853.0,950.0,3198.0,829.0,1900.0,3373.0,943.0,,,,0.0789843847744706,-1.60107608380721,0.0932867929981293,,0.8132556271008657,,
,3856.0,950.0,3203.0,830.0,1903.0,3380.0,929.0,,,,0.07899368906245,-1.60144396616316,0.0933002150193649,,1.373143119033988,,
,3856.0,951.0,3203.0,831.0,1906.0,3395.0,925.0,,,,0.0789983369513858,-1.60130812866379,0.0933609962244499,,1.9109067301694453,,
,3858.0,950.0,3200.0,829.0,1908.0,3370.0,936.0,,,,0.0789906334991319,-1.60071652461043,0.0933756409047676,,2.425013202164831,,
,3854.0,951.0,3200.0,831.0,1899.0,3372.0,932.0,,,,0.0789668724240708,-1.60051023506901,0.093355109906613,,2.9156009294027037,,
,3861.0,951.0,3202.0,833.0,1899.0,3353.0,925.0,,,,0.0789363752232163,-1.60025326504324,0.0933764445829668,,3.3841299059576415,,
,3859.0,951.0,3200.0,831.0,1902.0,3352.0,928.0,,,,0.0789726614443517,-1.60018506246837,0.0933712537015428,,3.832898105971657,,
,3857.0,953.0,3203.0,831.0,1910.0,3355.0,939.0,,,,0.0790453093533248,-1.59897806030231,0.0934446015028023,,4.264458041999771,,
,3858.0,950.0,3201.0,832.0,1896.0,3364.0,923.0,,,,0.0790087857154074,-1.59857031803483,0.0933919762540798,,4.6809787185577685,,
,3863.0,953.0,3205.0,835.0,1894.0,3384.0,929.0,,,,0.0790226654842896,-1.59831022983832,0.0934381719484859,,5.083607273195166,,
,3862.0,952.0,3206.0,832.0,1902.0,3368.0,939.0,,,,0.0789759304573453,-1.59802641901443,0.093432193988847,,5.471889955861841,,
,3860.0,953.0,3206.0,835.0,1898.0,3367.0,935.0,,,,0.0790097741286696,-1.59779533219776,0.0934712903194124,,5.843312797542398,,
,3860.0,950.0,3204.0,831.0,1899.0,3368.0,943.0,,,,0.079012053822169,-1.59733000885451,0.0934788836486372,,6.193017939976635,,
,3860.0,952.0,3203.0,835.0,1901.0,3354.0,932.0,,,,0.0790693513535866,-1.59710326002917,0.0935132507567823,,6.513741983549537,,
,3861.0,951.0,3202.0,833.0,1903.0,3375.0,945.0,,,,0.0790453434157875,-1.59727573444324,0.0934915531757312,,6.7960075239935565,,
,3860.0,951.0,3202.0,833.0,1905.0,3377.0,942.0,,,,0.0789847076094551,-1.59709422414178,0.0935127122711801,,7.0285779566182365,,
,3856.0,949.0,3203.0,832.0,1899.0,3388.0,935.0,,,,0.0789742574330447,-1.59750213037346,0.0935022361687381,,7.199159338143092,,
,3855.0,952.0,3201.0,830.0,1896.0,3398.0,940.0,,,,0.0790145289083369,-1.59711943017021,0.0935403657562593,,7.295304117175144,,
,3854.0,951.0,3200.0,831.0,1897.0,3399.0,942.0,,,,0.0789712960484868,-1.59704876955476,0.0935348856775658,,7.30544373079083,,
,3850.0,950.0,3200.0,832.0,1903.0,3370.0,946.0,,,,0.0789991654463489,-1.59727162815531,0.0935550238840699,,7.219954645641418,,
,3847.0,946.0,3196.0,828.0,1910.0,3353.0,939.0,,,,0.0789911999358689,-1.59716180861648,0.0935853727649292,,7.032149423739118,,
,3846.0,947.0,3196.0,828.0,1905.0,3368.0,946.0,,,,0.0790074945771623,-1.59736959127011,0.0935039353028622,,6.739084224352553,,
,3843.0,946.0,3197.0,829.0,1901.0,3355.0,936.0,,,,0.078974058295995,-1.59684649620811,0.0935670791329252,,6.342088724252566,,
,3840.0,946.0,3194.0,830.0,1904.0,3368.0,940.0,,,,0.0790879446071481,-1.59676713108963,0.0935956883102849,,5.846952992163426,,
,3835.0,943.0,3193.0,826.0,1897.0,3328.0,944.0,,,,0.0790800391605244,-1.59654305970045,0.0935714412992422,,5.263744399581924,,
,3835.0,944.0,3191.0,825.0,1893.0,3353.0,941.0,,,,0.0790737965264594,-1.5967157023454,0.0935927815891826,,4.606269737500888,,
,3836.0,945.0,3193.0,827.0,1901.0,3364.0,950.0,,,,0.0790804171446726,-1.5956156826265,0.0935553704226967,,3.891236392664368,,
,3834.0,943.0,3191.0,827.0,1904.0,3369.0,943.0,,,,0.0790678619243978,-1.59569030151774,0.0936308644478827,,3.1371963846551223,,
,3831.0,943.0,3192.0,823.0,1886.0,3376.0,933.0,,,,0.0790618602594341,-1.59544939732984,0.09367550139267,,2.363375603647918,,
,3831.0,942.0,3189.0,824.0,1888.0,3399.0,936.0,,,,0.0790848056232745,-1.59502799005364,0.0935922050863583,,1.5884972567588138,,
,3830.0,943.0,3191.0,824.0,1892.0,3391.0,941.0,,,,0.0791038162756074,-1.5951872645775,0.0936466316227667,,0.829703812328413,,
,3830.0,946.0,3192.0,827.0,1897.0,3368.0,938.0,,,,0.0790704937624518,-1.59413225722554,0.0936883672669111,,0.10166640277960576,,
,3830.0,941.0,3186.0,821.0,1889.0,3360.0,950.0,,,,0.079071852346633,-1.59461672655657,0.0936807163601854,,-0.5840535883068133,,
,3829.0,941.0,3185.0,823.0,1892.0,3370.0,938.0,,,,0.0790768725441732,-1.59435135322118,0.0936710685638495,,-1.2193557640467378,,
,3830.0,943.0,3191.0,825.0,1899.0,3381.0,930.0,,,,0.0790863582701464,-1.59352657557708,0.0937516697930626,,-1.7996604347738545,,
,3826.0,941.0,3188.0,824.0,1899.0,3396.0,936.0,,,,0.079083334027642,-1.59347274311567,0.0937366690941782,,-2.3236997940848756,,
,3826.0,939.0,3185.0,824.0,1898.0,3365.0,953.0,,,,0.0790334381231587,-1.59357879518309,0.0936975885650803,,-2.7930847050587917,,
,3824.0,940.0,3185.0,822.0,1905.0,3370.0,929.0,,,,0.0790926121875393,-1.59366019254483,0.0937242158308157,,-3.2117050365177287,,
,3826.0,942.0,3188.0,824.0,1899.0,3381.0,939.0,,,,0.0790922993009841,-1.59361147185902,0.0936807455969036,,-3.585027733603277,,
,3826.0,942.0,3188.0,823.0,1898.0,3385.0,936.0,,,,0.0790590165323327,-1.59455795777998,0.0936829916391775,,-3.919356211030184,,
,3827.0,943.0,3186.0,823.0,1893.0,3380.0,936.0,,,,0.0790277433325612,-1.59521952094773,0.0936939696977588,,-4.221108688889044,,
,3825.0,944.0,3184.0,821.0,1898.0,3398.0,932.0,,,,0.079042359902188,-1.5953523123286,0.0936184188761271,,-4.496163760177313,,
,3826.0,941.0,3186.0,823.0,1899.0,3380.0,938.0,,,,0.0790391621930196,-1.595590159732,0.0935456139528727,,-4.749310853844838,,
,3826.0,942.0,3185.0,824.0,1898.0,3380.0,923.0,,,,0.0789961790112227,-1.59604583852855,0.0935298633313538,,-4.9838329100502605,,
,3825.0,941.0,3182.0,822.0,1900.0,3353.0,922.0,,,,0.0790039421520251,-1.59727752956134,0.0934592680649258,,-5.201239176622876,,
,3825.0,940.0,3182.0,821.0,1896.0,3379.0,935.0,,,,0.0789833861207609,-1.59761706103194,0.0934519031550997,,-5.401157246036532,,
,3825.0,940.0,3187.0,822.0,1898.0,3368.0,935.0,,,,0.0789367658268716,-1.59806302799839,0.0933579211163893,,-5.581384448478294,,
,3824.0,939.0,3181.0,820.0,1899.0,3393.0,937.0,,,,0.0789409186303001,-1.59889677528992,0.0933513664134316,,-5.7380890315748845,,
,3825.0,942.0,3185.0,821.0,1898.0,3389.0,942.0,,,,0.0789259848950851,-1.59936275424738,0.0932485326291039,,-5.866141771823746,,
,3823.0,939.0,3183.0,821.0,1904.0,3365.0,933.0,,,,0.0788579108119299,-1.59999697595562,0.0932106071598594,,-5.959550193832014,,
,3823.0,938.0,3184.0,821.0,1904.0,3385.0,932.0,,,,0.0788526385061708,-1.60098898243787,0.0931586914376135,,-6.011961593094919,,
,3825.0,940.0,3183.0,822.0,1901.0,3396.0,945.0,,,,0.0788608363810683,-1.60156204090574,0.0931284664815945,,-6.01719764435497,,
,3822.0,942.0,3184.0,820.0,1901.0,3388.0,940.0,,,,0.0788205199750691,-1.60215586008427,0.0930066896486998,,-5.969781826128315,,
,3822.0,939.0,3182.0,819.0,1897.0,3394.0,934.0,,,,0.0788294853690364,-1.60295109611281,0.0930279582898769,,-5.865420710714914,,
,3823.0,941.0,3184.0,819.0,1902.0,3393.0,928.0,,,,0.0787291403717364,-1.60366746153383,0.0929407494514371,,-5.701401648785719,,
,3822.0,939.0,3183.0,823.0,1900.0,3375.0,947.0,,,,0.0787488304159627,-1.60481353056873,0.0928935685840951,,-5.47687337616968,,
,3822.0,940.0,3183.0,823.0,1901.0,3364.0,939.0,,,,0.0787226778098042,-1.60643761762594,0.0928073950562883,,-5.192983448674021,,
,3822.0,940.0,3181.0,821.0,1883.0,3348.0,956.0,,,,0.0786927637271649,-1.60750954190821,0.0927953050744707,,-4.852857558555009,,
,3820.0,938.0,3182.0,821.0,1888.0,3357.0,970.0,,,,0.0786699366014407,-1.60799236473844,0.0926483492455151,,-4.461420280403931,,
,3824.0,939.0,3183.0,820.0,1899.0,3352.0,965.0,,,,0.0786397197014834,-1.60979319840762,0.0926314159578271,,-4.025073171258505,,
,3822.0,939.0,3182.0,822.0,1908.0,3360.0,945.0,,,,0.0785876486245811,-1.61061924851926,0.0925605122730128,,-3.551262007350523,,
,3822.0,940.0,3184.0,823.0,1911.0,3351.0,934.0,,,,0.0785716759252263,-1.61172281740763,0.0925453899276888,,-3.0479775085004515,,
,3823.0,937.0,3182.0,820.0,1903.0,3360.0,934.0,,,,0.0785133060704861,-1.61291102540794,0.0925083237191396,,-2.523240839652309,,
,3822.0,940.0,3183.0,821.0,1900.0,3373.0,938.0,,,,0.078477688912831,-1.61404912261201,0.0923970236657114,,-1.9846251998887594,,
,3822.0,938.0,3182.0,820.0,1903.0,3362.0,950.0,,,,0.0784688086448473,-1.61519578517051,0.0923629475874897,,-1.438858008518981,,
,3821.0,939.0,3182.0,823.0,1906.0,3361.0,948.0,,,,0.078423412507332,-1.61582173803623,0.0922805310040608,,-0.8915361623662044,,
,3822.0,939.0,3181.0,818.0,1908.0,3368.0,943.0,,,,0.0783644054204258,-1.61656406551236,0.0922056387943004,,-0.34697235034025187,,
,3825.0,940.0,3184.0,822.0,1909.0,3353.0,943.0,,,,0.0783930477611612,-1.61667512593083,0.0921542223684365,,0.19182354604005541,,
,3824.0,939.0,3185.0,822.0,1909.0,3337.0,938.0,,,,0.0783799187068443,-1.61774495578094,0.0921983473171767,,0.7230354500714012,,
,3823.0,941.0,3182.0,823.0,1904.0,3362.0,940.0,,,,0.078361252464967,-1.61807948943849,0.092108177216155,,1.2458206630054398,,
,3822.0,941.0,3185.0,820.0,1905.0,3360.0,947.0,,,,0.0783466641301319,-1.618931164693,0.0920205917691014,,1.7600005790582203,,
,3825.0,941.0,3187.0,821.0,1892.0,3375.0,936.0,,,,0.0783302219089987,-1.61944136898501,0.0920334595624291,,2.2656897028778973,,
,3824.0,941.0,3183.0,822.0,1901.0,3360.0,926.0,,,,0.0783115843580269,-1.62008175813835,0.0920156224234224,,2.762893136422768,,
,3826.0,943.0,3184.0,823.0,1906.0,3360.0,935.0,,,,0.0783088147092799,-1.62080140773696,0.0919892596712311,,3.251104193014042,,
,3826.0,938.0,3183.0,820.0,1901.0,3372.0,936.0,,,,0.0782784555179065,-1.62164415981358,0.0919596117015321,,3.728933846109576,,
,3825.0,940.0,3185.0,825.0,1896.0,3381.0,942.0,,,,0.0782231995239656,-1.62275789235781,0.0919126132752245,,4.193802310998666,,
,3827.0,942.0,3186.0,821.0,1899.0,3381.0,948.0,,,,0.0782007257010102,-1.62299111917838,0.0918458981414899,,4.641720007083141,,
,3828.0,940.0,3184.0,822.0,1898.0,3377.0,955.0,,,,0.0782261868318698,-1.62462319493263,0.0917739178889116,,5.067180308734452,,
,3829.0,942.0,3185.0,824.0,1900.0,3376.0,920.0,,,,0.0782550247723234,-1.62505937039747,0.0917688986171039,,5.463180032043173,,
,3828.0,940.0,3184.0,821.0,1903.0,3360.0,927.0,,,,0.0782207345835947,-1.62579515540151,0.0917196350775345,,5.821376035305027,,
,3829.0,941.0,3186.0,824.0,1906.0,3356.0,953.0,,,,0.0781766823877385,-1.62652390753316,0.09165874868822,,6.132378234527495,,
,3831.0,941.0,3187.0,823.0,1905.0,3357.0,954.0,,,,0.0781875347097549,-1.62778569083326,0.091654706612143,,6.386171042024102,,
,3830.0,941.0,3188.0,824.0,1890.0,3372.0,963.0,,,,0.0781540515530163,-1.62786167635737,0.091679547076232,,6.572646357028559,,
,3829.0,943.0,3184.0,823.0,1898.0,3364.0,934.0,,,,0.0781478138014453,-1.62748639995541,0.0916085106627348,,6.682220988897544,,
,3832.0,942.0,3186.0,826.0,1904.0,3365.0,928.0,,,,0.0780903621026176,-1.62810066498587,0.0916013387897729,,6.70649971327847,,
,3834.0,942.0,3188.0,824.0,1908.0,3382.0,928.0,,,,0.0780872234830506,-1.62878710038631,0.0915117894049228,,6.638933800233397,,
,3833.0,945.0,3189.0,825.0,1902.0,3376.0,926.0,,,,0.078068039657166,-1.62891056566984,0.0915128569716696,,6.475417122889371,,
,3832.0,940.0,3184.0,822.0,1899.0,3359.0,939.0,,,,0.0780630412246307,-1.62983956277903,0.0914935093337344,,6.214761156352938,,
,3834.0,944.0,3187.0,825.0,1903.0,3351.0,930.0,,,,0.0780583728289417,-1.63026949635852,0.0914614190950724,,5.858997917362329,,
,3834.0,944.0,3186.0,824.0,1905.0,3367.0,934.0,,,,0.0780441872053174,-1.6307127504346,0.0914351015432746,,5.413475370946433,,
,3835.0,943.0,3189.0,823.0,1899.0,3370.0,945.0,,,,0.0780557243672686,-1.63109922259865,0.0914396128209319,,4.886730281561558,,
,3836.0,943.0,3188.0,824.0,1895.0,3373.0,935.0,,,,0.0780278452479652,-1.63087369620169,0.091404004331436,,4.290145292467752,,
,3836.0,943.0,3190.0,826.0,1896.0,3380.0,942.0,,,,0.0780103201264343,-1.6313599209141,0.0913642195345433,,3.6374167395651402,,
,3835.0,944.0,3190.0,825.0,1891.0,3373.0,948.0,,,,0.0780059660564602,-1.63197542166654,0.091293657320104,,2.943874814444555,,
,3838.0,944.0,3191.0,826.0,1897.0,3378.0,941.0,,,,0.0779850713013924,-1.63284674544811,0.0912240517626148,,2.225707028090847,,
2025-08-05 18:33:51,3838.0,944.0,3190.0,826.0,1899.0,3399.0,929.0,,,2025/08/05 06:33:51 PM,0.0779687409248654,-1.63417501412757,0.0912618429792868,,1.4991398375846414,,
,3837.0,944.0,3192.0,830.0,1900.0,3363.0,941.0,,,,0.0779100878883102,-1.6343143836463,0.0912097372730665,,0.7796332723523396,,
,3839.0,943.0,3192.0,827.0,1896.0,3361.0,941.0,,,,0.0778952733609803,-1.6347031068152,0.0912422181920194,,0.08114120420989894,,
,3840.0,944.0,3194.0,827.0,1896.0,3352.0,935.0,,,,0.0778971405233181,-1.63527227502494,0.0911543967187391,,-0.5845135418184657,,
,3839.0,944.0,3189.0,822.0,1891.0,3369.0,951.0,,,,0.0778654465217165,-1.63568109588697,0.0911736601734166,,-1.208105463646606,,
,3841.0,946.0,3193.0,828.0,1897.0,3383.0,921.0,,,,0.0778627687966309,-1.63585521483577,0.0912145662442207,,-1.7832795402117645,,
,3842.0,945.0,3192.0,826.0,1904.0,3362.0,936.0,,,,0.0778477941725685,-1.63592332889516,0.0911601668087093,,-2.3066111095737116,,
,3842.0,948.0,3192.0,830.0,1906.0,3359.0,924.0,,,,0.0777995475558101,-1.63664584413244,0.091072929712596,,-2.7774507662421297,,
,3846.0,945.0,3192.0,827.0,1898.0,3368.0,954.0,,,,0.0778186063846224,-1.63706092839241,0.0911015530358834,,-3.197572165104132,,
,3844.0,947.0,3193.0,826.0,1896.0,3371.0,954.0,,,,0.0778161824833662,-1.63682303399888,0.0911098324932891,,-3.5706578818217993,,
,3847.0,946.0,3193.0,828.0,1902.0,3367.0,933.0,,,,0.0777886945773905,-1.63706939332946,0.0910587757482976,,-3.9016709765494944,,
,3848.0,947.0,3196.0,830.0,1903.0,3369.0,921.0,,,,0.0777976305640629,-1.63769160941392,0.0910669203959343,,-4.196166750315069,,
,3847.0,948.0,3195.0,829.0,1904.0,3357.0,924.0,,,,0.0777762879693578,-1.63820394854156,0.0910321247529463,,-4.459600821434318,,
,3847.0,946.0,3192.0,827.0,1903.0,3358.0,938.0,,,,0.077755289066113,-1.63850901491035,0.0910711940844039,,-4.696687262434401,,
,3850.0,947.0,3196.0,831.0,1895.0,3368.0,940.0,,,,0.0777431771001354,-1.63883294030834,0.0910170441914445,,-4.910855272407342,,
,3850.0,951.0,3198.0,831.0,1905.0,3356.0,943.0,,,,0.0777195785232096,-1.64005335892584,0.0908983571716999,,-5.103845287718584,,
,3848.0,949.0,3197.0,831.0,1904.0,3354.0,951.0,,,,0.077702397168263,-1.63972995074513,0.0909250117680099,,-5.27547558186444,,
,3849.0,947.0,3195.0,828.0,1897.0,3343.0,943.0,,,,0.0777091925877025,-1.64098003190787,0.090987731955976,,-5.423598214972594,,
,3850.0,949.0,3197.0,828.0,1895.0,3370.0,924.0,,,,0.0776775802609844,-1.64164447189037,0.0909126419054263,,-5.544248880145985,,
,3845.0,948.0,3194.0,828.0,1895.0,3374.0,936.0,,,,0.077654470927582,-1.64215654825973,0.0908522960227884,,-5.631979266608213,,
,3844.0,946.0,3190.0,828.0,1896.0,3380.0,943.0,,,,0.0776596960377386,-1.64269813298385,0.0908379723277147,,-5.680343873378665,,
,3843.0,945.0,3191.0,826.0,1898.0,3373.0,952.0,,,,0.0776132353339479,-1.64325776000188,0.0907888754815143,,-5.68249730991489,,
,3840.0,946.0,3191.0,827.0,1899.0,3373.0,956.0,,,,0.0775841934318029,-1.64361796837842,0.0908061463448653,,-5.631845380500462,,
,3839.0,946.0,3192.0,827.0,1903.0,3364.0,962.0,,,,0.0775339017095808,-1.64389490312013,0.0908211217474416,,-5.522686153894121,,
,3837.0,945.0,3190.0,825.0,1903.0,3372.0,964.0,,,,0.0774973122679056,-1.64425167592954,0.0907970377511269,,-5.350777288441966,,
,3833.0,943.0,3188.0,826.0,1901.0,3382.0,938.0,,,,0.0774714543457613,-1.64424136574875,0.0907169608849783,,-5.113773254040105,,
,3829.0,940.0,3185.0,823.0,1905.0,3387.0,952.0,,,,0.0774733068885965,-1.64423010038982,0.0906820006808159,,-4.811489966097573,,
,3829.0,941.0,3184.0,823.0,1908.0,3374.0,961.0,,,,0.077453390819832,-1.6446296216131,0.0906821128002981,,-4.445973460891177,,
,3825.0,942.0,3183.0,822.0,1911.0,3349.0,956.0,,,,0.077410120434511,-1.64496346456841,0.090701026795121,,-4.021371756493795,,
,3823.0,939.0,3185.0,820.0,1908.0,3344.0,953.0,,,,0.0774040926988896,-1.64563493356336,0.0906766043252834,,-3.5436321746927333,,
,3823.0,942.0,3184.0,822.0,1900.0,3337.0,954.0,,,,0.0774022067231472,-1.6460500402087,0.0906620303307798,,-3.0200666333322705,,
,3821.0,941.0,3185.0,820.0,1900.0,3370.0,944.0,,,,0.0774113675818634,-1.64576238656975,0.0906808693920217,,-2.458841502536212,,
,3822.0,940.0,3185.0,821.0,1899.0,3376.0,942.0,,,,0.0774101984300789,-1.64589026082275,0.0906670013913314,,-1.8684545729776048,,
,3820.0,938.0,3184.0,820.0,1896.0,3353.0,956.0,,,,0.0774632619712959,-1.6456219526849,0.0905986494394458,,-1.2572591402637572,,
,3818.0,939.0,3180.0,820.0,1897.0,3364.0,953.0,,,,0.0774043805700393,-1.64591326485321,0.0906254263782322,,-0.6330851517050825,,
,3818.0,938.0,3181.0,821.0,1903.0,3367.0,949.0,,,,0.0774412158170632,-1.64579610011131,0.0906610917128327,,-0.002991678756516724,,
,3819.0,940.0,3182.0,822.0,1903.0,3352.0,945.0,,,,0.0774190883748859,-1.64603653140374,0.090695981864757,,0.6268339601464843,,
,3817.0,940.0,3183.0,822.0,1900.0,3359.0,933.0,,,,0.0774514575162079,-1.64563596528626,0.0906626248622386,,1.2510346926528,,
,3817.0,937.0,3180.0,817.0,1901.0,3393.0,923.0,,,,0.07746471911078,-1.64559737616126,0.0907163434502669,,1.8649215906555916,,
,3818.0,940.0,3182.0,821.0,1895.0,3399.0,920.0,,,,0.0774271881181525,-1.64560775199131,0.0907345215812869,,2.464225971674029,,
,3817.0,939.0,3180.0,819.0,1901.0,3354.0,934.0,,,,0.0774608592491012,-1.64595470166831,0.0907064653015026,,3.0448076327779394,,
,3819.0,941.0,3181.0,820.0,1905.0,3356.0,929.0,,,,0.0774370660863212,-1.64563628967097,0.090736430444659,,3.6023626079202806,,
,3818.0,938.0,3179.0,819.0,1905.0,3371.0,930.0,,,,0.0774758402810214,-1.64509142736721,0.0908227503704587,,4.1321708781401965,,
,3817.0,935.0,3182.0,821.0,1898.0,3388.0,931.0,,,,0.0774943506795812,-1.64513044166158,0.0907888083015721,,4.6289183189800855,,
,3816.0,938.0,3181.0,820.0,1908.0,3397.0,931.0,,,,0.0774912311829642,-1.64499790023696,0.0908520301806467,,5.086618591729784,,
,3818.0,939.0,3179.0,821.0,1909.0,3384.0,936.0,,,,0.0774858634389564,-1.64485869175013,0.0907852235633607,,5.498650211126896,,
,3816.0,936.0,3181.0,819.0,1902.0,3359.0,941.0,,,,0.0775268113554777,-1.64497353000635,0.090817094467971,,5.857912321827243,,
,3818.0,937.0,3179.0,819.0,1903.0,3366.0,927.0,,,,0.0775073075404141,-1.64463238861523,0.090780618762519,,6.157090602604464,,
,3817.0,938.0,3182.0,819.0,1896.0,3367.0,944.0,,,,0.0775065953507598,-1.64385927845429,0.0908345716206942,,6.389013066987559,,
,3817.0,939.0,3179.0,820.0,1899.0,3373.0,940.0,,,,0.0775299400962009,-1.64448339507541,0.0908237216826459,,6.547065356298356,,
,3816.0,937.0,3178.0,820.0,1916.0,3379.0,930.0,,,,0.0775254891814485,-1.64410709159313,0.0909120859659027,,6.625627588314964,,
,3816.0,939.0,3181.0,822.0,1905.0,3380.0,931.0,,,,0.0775247308637638,-1.64385817114003,0.0909038254959751,,6.620491010699231,,
,3818.0,939.0,3180.0,819.0,1904.0,3366.0,931.0,,,,0.077526454974795,-1.64439771399107,0.090947904757194,,6.529213428684837,,
,3816.0,939.0,3179.0,821.0,1903.0,3380.0,934.0,,,,0.0775412144486771,-1.64399270514212,0.0908851631533028,,6.351378137360512,,
,3814.0,936.0,3178.0,820.0,1897.0,3353.0,927.0,,,,0.0775408378863492,-1.64436151025996,0.0909250965911512,,6.088731695502266,,
,3812.0,937.0,3178.0,818.0,1899.0,3393.0,933.0,,,,0.0775249833894442,-1.64459210505794,0.090837793575532,,5.745189772905771,,
,3813.0,937.0,3180.0,818.0,1902.0,3380.0,952.0,,,,0.077507108992594,-1.64454770928732,0.0908832665327451,,5.3267146464571065,,
,3816.0,936.0,3181.0,818.0,1906.0,3371.0,952.0,,,,0.0774784371066037,-1.64472034586066,0.0908793640453143,,4.841079857700614,,
,3815.0,938.0,3180.0,818.0,1906.0,3369.0,944.0,,,,0.077489715686392,-1.64510649052511,0.0908918427237115,,4.297545589409548,,
,3811.0,935.0,3177.0,818.0,1895.0,3359.0,937.0,,,,0.0774910209674337,-1.64534775605181,0.0908708855744011,,3.7064725234791918,,
,3816.0,939.0,3180.0,818.0,1900.0,3371.0,950.0,,,,0.0774706506704061,-1.64591180608068,0.0908135617763359,,3.0789029919209656,,
,3815.0,937.0,3179.0,819.0,1891.0,3367.0,940.0,,,,0.0774788523249362,-1.6456285890393,0.0908574741638472,,2.4261367051998324,,
,3815.0,935.0,3176.0,819.0,1890.0,3375.0,940.0,,,,0.0774425591548844,-1.64578999351793,0.0908405900978357,,1.7593247806009524,,
,3812.0,934.0,3177.0,816.0,1903.0,3359.0,952.0,,,,0.077423429387666,-1.64624270620788,0.0909209617973237,,1.089101021205925,,
,3814.0,935.0,3178.0,817.0,1902.0,3373.0,949.0,,,,0.0774080487425825,-1.64654569268707,0.0908041977104274,,0.4252643888462775,,
,3814.0,938.0,3179.0,819.0,1910.0,3367.0,951.0,,,,0.077376324003062,-1.64662863662374,0.0908384552105176,,-0.22347793375251412,,
,3816.0,936.0,3179.0,819.0,1911.0,3364.0,950.0,,,,0.0773667246933031,-1.64685062134333,0.0907798213853852,,-0.8497013227416522,,
,3813.0,937.0,3177.0,817.0,1901.0,3368.0,953.0,,,,0.0774308068001966,-1.64702210191519,0.0907447716918139,,-1.4473857956579206,,
,3815.0,939.0,3179.0,819.0,1899.0,3383.0,952.0,,,,0.0773883039788848,-1.64730391074698,0.0907347603702328,,-2.011968964733409,,
,3816.0,935.0,3178.0,817.0,1910.0,3373.0,936.0,,,,0.0773702036103418,-1.64738281912822,0.0906662443569988,,-2.5403304474827655,,
,3814.0,938.0,3178.0,817.0,1913.0,3369.0,940.0,,,,0.0773456819814024,-1.64747545442673,0.0907106329949415,,-3.030708287843285,,
,3815.0,937.0,3179.0,818.0,1908.0,3381.0,947.0,,,,0.0773366632072271,-1.64790830643557,0.0906864853610738,,-3.482547526109192,,
,3818.0,938.0,3177.0,816.0,1904.0,3373.0,943.0,,,,0.077277083727812,-1.64793168254139,0.090679931087858,,-3.8962817708832866,,
,3819.0,936.0,3180.0,820.0,1908.0,3405.0,935.0,,,,0.0773112526437882,-1.64824203518771,0.090646891708568,,-4.273052095173701,,
,3817.0,938.0,3182.0,820.0,1905.0,3386.0,941.0,,,,0.0772938284819873,-1.64783411701411,0.0907106835159589,,-4.61437413638794,,
,3819.0,936.0,3178.0,821.0,1903.0,3358.0,955.0,,,,0.0772966243326221,-1.64833293312159,0.0907069182765359,,-4.921772461709332,,
,3820.0,938.0,3179.0,819.0,1903.0,3354.0,950.0,,,,0.0772906151871278,-1.64846283345413,0.0906633144112159,,-5.196408878257007,,
,3820.0,937.0,3180.0,820.0,1901.0,3360.0,945.0,,,,0.0772961424154112,-1.64819181163488,0.0907102461250237,,-5.438736850987468,,
,3820.0,939.0,3178.0,820.0,1899.0,3355.0,941.0,,,,0.0773184769763571,-1.64820229127175,0.0907194233874839,,-5.648216834400506,,
,3821.0,939.0,3180.0,818.0,1903.0,3374.0,920.0,,,,0.0772851101099738,-1.64803272563945,0.0907153945484233,,-5.823126695371738,,
,3820.0,939.0,3179.0,820.0,1907.0,3388.0,935.0,,,,0.0773179508833044,-1.64812800155222,0.0907112554397939,,-5.96049694798136,,
,3821.0,938.0,3181.0,819.0,1902.0,3385.0,946.0,,,,0.0772384773840251,-1.64856555403261,0.0906775539989386,,-6.05619181609134,,
,3819.0,939.0,3182.0,821.0,1907.0,3371.0,939.0,,,,0.0772226133069936,-1.64885052504267,0.0906865577901978,,-6.105144425166378,,
,3821.0,936.0,3179.0,817.0,1903.0,3357.0,935.0,,,,0.0772403310068647,-1.64868780315435,0.0905959624899423,,-6.10173874638905,,
,3822.0,938.0,3180.0,819.0,1900.0,3366.0,924.0,,,,0.0772567929650262,-1.64859049725863,0.0906714052604675,,-6.040313821545741,,
,3824.0,938.0,3182.0,820.0,1907.0,3388.0,931.0,,,,0.0772772537897541,-1.6487581699443,0.0906308032069261,,-5.91574906331258,,
,3826.0,940.0,3184.0,822.0,1901.0,3399.0,929.0,,,,0.0772623322292597,-1.64875707480879,0.0906471277260132,,-5.724075026191886,,
,3827.0,941.0,3184.0,818.0,1904.0,3399.0,941.0,,,,0.0772710392201343,-1.6491326888218,0.0906223259981728,,-5.463044140387856,,
,3822.0,937.0,3182.0,817.0,1905.0,3383.0,948.0,,,,0.0772478516226195,-1.64906819560226,0.0905523578861223,,-5.13259272846314,,
,3825.0,938.0,3182.0,819.0,1901.0,3375.0,926.0,,,,0.0772404974406169,-1.64925232187546,0.0905302049250287,,-4.735131229601518,,
,3827.0,938.0,3183.0,821.0,1906.0,3351.0,927.0,,,,0.0772492730166309,-1.64953881025757,0.090535772843937,,-4.275615117179381,,
,3827.0,939.0,3184.0,820.0,1907.0,3359.0,928.0,,,,0.0772179779838786,-1.64970399675447,0.09056916495213,,-3.7613736915592013,,
,3828.0,939.0,3182.0,820.0,1907.0,3373.0,939.0,,,,0.0772216131841333,-1.64947727933027,0.0904991990660989,,-3.201704266126475,,
,3830.0,940.0,3187.0,821.0,1902.0,3378.0,942.0,,,,0.0772273527478982,-1.64917757234562,0.0905174212458666,,-2.6072698761933593,,
,3830.0,940.0,3185.0,821.0,1906.0,3371.0,950.0,,,,0.0771980318621063,-1.64971855419261,0.0904897441363257,,-1.9893642215292997,,
,3829.0,942.0,3183.0,821.0,1906.0,3396.0,938.0,,,,0.0772054155582246,-1.64920475610801,0.0905306704901936,,-1.3591244148859287,,
,3830.0,938.0,3184.0,821.0,1903.0,3375.0,928.0,,,,0.0771868892156151,-1.64907607628444,0.0904983625450123,,-0.7267785469582716,,
,3829.0,941.0,3182.0,822.0,1901.0,3357.0,930.0,,,,0.0772397899123851,-1.649050663835,0.090508110017181,,-0.10101101619546345,,
,3831.0,943.0,3185.0,822.0,1902.0,3388.0,919.0,,,,0.077217190125536,-1.64913688501092,0.090520803771361,,0.5114848498806327,,
,3833.0,943.0,3184.0,821.0,1906.0,3394.0,933.0,,,,0.0772031454332108,-1.64951929603653,0.0904636382364529,,1.106218118318556,,
,3830.0,944.0,3183.0,822.0,1906.0,3374.0,952.0,,,,0.0772288854438568,-1.64885584383756,0.0904849422241191,,1.680852344312192,,
,3831.0,941.0,3186.0,820.0,1899.0,3377.0,938.0,,,,0.0772196055058479,-1.6486342836522,0.0905275577844853,,2.234903022115598,,
,3834.0,942.0,3185.0,825.0,1905.0,3369.0,945.0,,,,0.0772329275460486,-1.64866053256811,0.0905438501690754,,2.7692123507222033,,
,3834.0,944.0,3188.0,823.0,1901.0,3369.0,937.0,,,,0.0771613230567002,-1.64890082678534,0.0905750991022321,,3.2852578892268425,,
,3837.0,944.0,3187.0,824.0,1910.0,3372.0,937.0,,,,0.0771858579032415,-1.64832973442158,0.0905509127443276,,3.7843714335292864,,
,3836.0,942.0,3187.0,821.0,1912.0,3356.0,935.0,,,,0.0771891415101468,-1.64864159380221,0.0905912839586731,,4.2669573221641315,,
,3838.0,943.0,3190.0,823.0,1910.0,3366.0,938.0,,,,0.0772423440458542,-1.64796996718049,0.0905768866791211,,4.731803293602217,,
,3839.0,941.0,3188.0,823.0,1906.0,3375.0,930.0,,,,0.0772330057413447,-1.64786229850264,0.0905912471009808,,5.175570352635154,,
,3837.0,945.0,3188.0,824.0,1906.0,3382.0,933.0,,,,0.0772582087089517,-1.64770226730339,0.0906199256625096,,5.592530803143834,,
,3836.0,941.0,3190.0,822.0,1909.0,3369.0,926.0,,,,0.0772651406821264,-1.64803208350473,0.0906722854376177,,5.974597630907687,,
,3839.0,944.0,3188.0,824.0,1913.0,3347.0,930.0,,,,0.0772581561153313,-1.64779583113817,0.0905806399169522,,6.3116569892805146,,
,3840.0,945.0,3190.0,824.0,1904.0,3362.0,944.0,,,,0.0772544423299431,-1.64787215655058,0.0905574560577893,,6.592182108341733,,
,3840.0,944.0,3190.0,824.0,1904.0,3364.0,947.0,,,,0.077230668462557,-1.64805072770335,0.0905369346678676,,6.804074911297833,,
,3845.0,946.0,3190.0,823.0,1906.0,3378.0,943.0,,,,0.0772603407418763,-1.64836627181188,0.0905736654770367,,6.9356544604312536,,
,3842.0,943.0,3190.0,824.0,1911.0,3383.0,938.0,,,,0.0772327594711915,-1.64873067765043,0.0905688507069677,,6.976692470041977,,
,3846.0,945.0,3190.0,825.0,1912.0,3356.0,936.0,,,,0.0772372834341179,-1.64855074881208,0.0904670010121031,,6.919388213876457,,
,3842.0,946.0,3193.0,825.0,1906.0,3372.0,914.0,,,,0.0772475300456775,-1.64848147950237,0.0904472070373995,,6.759179576406691,,
,3845.0,947.0,3190.0,824.0,1901.0,3365.0,917.0,,,,0.0772254030879747,-1.64865248346965,0.0904384204965344,,6.495303543297847,,
,3841.0,943.0,3188.0,823.0,1906.0,3408.0,942.0,,,,0.0772478063265568,-1.64835832529806,0.090469233916564,,6.131046454672162,,
,3842.0,946.0,3190.0,825.0,1898.0,3391.0,934.0,,,,0.0772231066761395,-1.64813649373392,0.0904768817297724,,5.673658913375985,,
,3841.0,946.0,3190.0,822.0,1904.0,3381.0,931.0,,,,0.0772191089255787,-1.64811442150181,0.0904802590197659,,5.13394815292318,,
,3840.0,944.0,3189.0,826.0,1905.0,3377.0,919.0,,,,0.0771851156438123,-1.64842138534032,0.0904357949946985,,4.525596685784129,,
,3838.0,941.0,3186.0,822.0,1909.0,3381.0,943.0,,,,0.0771857098427501,-1.64865560364904,0.0904957115778705,,3.864284598158745,,
,3832.0,941.0,3185.0,824.0,1911.0,3375.0,941.0,,,,0.0771738484706769,-1.64879477657576,0.0904848214780721,,3.1667094299620913,,
,3833.0,940.0,3185.0,820.0,1907.0,3372.0,944.0,,,,0.0771631622913805,-1.64829877758265,0.0904608790793778,,2.44960036422891,,
,3829.0,940.0,3184.0,820.0,1904.0,3340.0,951.0,,,,0.0771785105203235,-1.64873173783402,0.0904032502740955,,1.728813881441091,,
,3827.0,938.0,3181.0,818.0,1904.0,3345.0,941.0,,,,0.0771611778282645,-1.64897663421612,0.0904031467407559,,1.0185797115823785,,
,3827.0,939.0,3182.0,820.0,1903.0,3355.0,942.0,,,,0.077098854134317,-1.64871051333336,0.0903753267816965,,0.33094295558176856,,
2025-08-05 18:33:52,3822.0,940.0,3180.0,818.0,1899.0,3331.0,925.0,,,2025/08/05 06:33:52 PM,0.0771121988114366,-1.64925230434604,0.0904134829533723,,-0.32457569724226365,,
,3821.0,937.0,3177.0,817.0,1899.0,3330.0,931.0,,,,0.077125400397093,-1.64914272524023,0.0904256626193123,,-0.9411017445449172,,
,3819.0,936.0,3178.0,815.0,1892.0,3356.0,944.0,,,,0.0771516405871041,-1.64874975208465,0.0904439735447128,,-1.514328785972405,,
,3819.0,937.0,3178.0,817.0,1892.0,3354.0,925.0,,,,0.077183789001835,-1.64878667776621,0.0903688619178803,,-2.042271834262078,,
,3820.0,936.0,3176.0,816.0,1890.0,3343.0,928.0,,,,0.0771752311659953,-1.64860407371587,0.0904742840951595,,-2.5248914083844833,,
,3820.0,937.0,3177.0,818.0,1899.0,3343.0,927.0,,,,0.0772157807045961,-1.64854902470928,0.0905045860846126,,-2.9636314780298902,,
,3816.0,936.0,3175.0,815.0,1903.0,3374.0,937.0,,,,0.0772013440062186,-1.64840726830339,0.0904102750748296,,-3.3609142168234327,,
,3816.0,935.0,3177.0,816.0,1900.0,3381.0,932.0,,,,0.0771896312966133,-1.64861807458084,0.0904307979513821,,-3.7196312296145697,,
,3817.0,937.0,3176.0,817.0,1906.0,3371.0,926.0,,,,0.0772110956657747,-1.64841890590108,0.0904335690755411,,-4.042665231181125,,
,3820.0,936.0,3176.0,818.0,1908.0,3392.0,915.0,,,,0.0771954543618958,-1.64827419596337,0.0904687593741991,,-4.332469279109208,,
,3815.0,936.0,3174.0,817.0,1906.0,3361.0,905.0,,,,0.0772692096994941,-1.64816982900375,0.0904480119515872,,-4.590724102087024,,
,3817.0,936.0,3174.0,816.0,1907.0,3375.0,932.0,,,,0.0771992519733186,-1.64870089367904,0.0904414618926523,,-4.818088913879259,,
,3816.0,937.0,3175.0,818.0,1899.0,3381.0,942.0,,,,0.0772139778931775,-1.64804864160461,0.0904719067504152,,-5.0140573170752925,,
,3816.0,934.0,3175.0,818.0,1906.0,3387.0,933.0,,,,0.0772053475540017,-1.64805052191223,0.0904149854166617,,-5.176926338862254,,
,3817.0,937.0,3173.0,817.0,1910.0,3369.0,932.0,,,,0.0771876851195347,-1.64860625456289,0.0904202937458075,,-5.303881966196226,,
,3816.0,934.0,3173.0,813.0,1917.0,3336.0,912.0,,,,0.0772124347480639,-1.6487062249254,0.09038117311109,,-5.391198082378718,,
,3816.0,933.0,3174.0,816.0,1914.0,3325.0,910.0,,,,0.0772063638641665,-1.64847633959806,0.0904184765389183,,-5.434537617459308,,
,3820.0,935.0,3174.0,816.0,1913.0,3364.0,934.0,,,,0.0772218975363803,-1.64872047302182,0.0903635799733631,,-5.429335759780767,,
,3818.0,938.0,3174.0,817.0,1907.0,3369.0,935.0,,,,0.0772087447292804,-1.6490084837825,0.0903189482880441,,-5.371236301306752,,
,3818.0,936.0,3174.0,815.0,1910.0,3345.0,933.0,,,,0.0771548712347461,-1.64916676606546,0.0903075065624562,,-5.25654485362457,,
,3816.0,936.0,3174.0,816.0,1902.0,3349.0,919.0,,,,0.0771423525457104,-1.64934858731132,0.0903728950626101,,-5.082658109344373,,
,3818.0,935.0,3174.0,818.0,1911.0,3311.0,920.0,,,,0.0771545970066149,-1.64910181346085,0.0903255065207545,,-4.84842775764941,,
,3816.0,935.0,3171.0,816.0,1914.0,3322.0,917.0,,,,0.0771795079738797,-1.6491492359905,0.0903174065122424,,-4.554421848746063,,
,3816.0,934.0,3172.0,814.0,1914.0,3334.0,922.0,,,,0.0771474545359587,-1.6494244618413,0.0903587791623177,,-4.203055243274394,,
,3815.0,934.0,3172.0,814.0,1908.0,3364.0,934.0,,,,0.0771381187195947,-1.64981482759182,0.0902729878743908,,-3.798573201366362,,
,3817.0,935.0,3174.0,815.0,1908.0,3377.0,926.0,,,,0.0771535108176001,-1.64979809809599,0.090356078245779,,-3.3468864883126295,,
,3814.0,933.0,3174.0,814.0,1909.0,3346.0,937.0,,,,0.0771534527688642,-1.64936055909643,0.0902859578176832,,-2.855271028217667,,
,3813.0,934.0,3172.0,814.0,1909.0,3348.0,933.0,,,,0.0771060192236516,-1.65014111121049,0.09031946471486,,-2.3319589315289213,,
,3814.0,937.0,3174.0,815.0,1908.0,3368.0,950.0,,,,0.0771449547131083,-1.6505516151678,0.0902871047161555,,-1.7856594402708137,,
,3814.0,930.0,3172.0,813.0,1909.0,3354.0,940.0,,,,0.0771196660139443,-1.65026708770745,0.0902623567593869,,-1.2250564663743955,,
,3817.0,932.0,3173.0,814.0,1905.0,3369.0,936.0,,,,0.077053390603946,-1.65086095860067,0.0902540231900413,,-0.6583326225493474,,
,3814.0,933.0,3171.0,814.0,1903.0,3337.0,924.0,,,,0.0771233184493213,-1.6508964427329,0.090218704151053,,-0.09276746083014573,,
,3813.0,933.0,3172.0,815.0,1903.0,3333.0,942.0,,,,0.0770715961288034,-1.65109503906694,0.0902411220816461,,0.4655495874715624,,
,3815.0,933.0,3169.0,814.0,1889.0,3353.0,940.0,,,,0.0770545923627804,-1.65102279583754,0.0903128165387866,,1.0118624395435258,,
,3816.0,933.0,3173.0,816.0,1898.0,3373.0,941.0,,,,0.0770577787531782,-1.65113005352049,0.0902921191679632,,1.542732966223442,,
,3812.0,934.0,3173.0,814.0,1904.0,3355.0,938.0,,,,0.0770605275048232,-1.6511367248239,0.0902617453252731,,2.055868163504769,,
,3813.0,932.0,3170.0,813.0,1901.0,3364.0,921.0,,,,0.0770655952047153,-1.65086757282643,0.0902995215830265,,2.549807274620824,,
,3814.0,934.0,3173.0,815.0,1899.0,3360.0,932.0,,,,0.0771241851100124,-1.65065678884865,0.0902797974545808,,3.023501267660207,,
,3814.0,933.0,3170.0,816.0,1903.0,3375.0,953.0,,,,0.0771076514126775,-1.65055125911708,0.0903325819694104,,3.475829663936358,,
,3816.0,934.0,3172.0,814.0,1902.0,3385.0,947.0,,,,0.0771037077047212,-1.65035058072513,0.0903084571124759,,3.9051088472013644,,
,3815.0,933.0,3171.0,814.0,1905.0,3366.0,936.0,,,,0.0771450058555132,-1.65005081920163,0.0903290773028581,,4.308650850363338,,
,3817.0,934.0,3171.0,815.0,1907.0,3392.0,921.0,,,,0.0771240455331965,-1.65012512536597,0.0902786898455356,,4.682431332352698,,
,3816.0,934.0,3169.0,815.0,1914.0,3343.0,923.0,,,,0.0770611025549926,-1.65019072265377,0.0903250835812948,,5.020918882660096,,
,3816.0,935.0,3171.0,814.0,1917.0,3335.0,928.0,,,,0.0770901222446534,-1.65032188731187,0.0902808975692534,,5.317104076336099,,
,3818.0,931.0,3169.0,813.0,1909.0,3354.0,946.0,,,,0.0771033009967352,-1.65013386612122,0.0903896731527544,,5.56274632860289,,
,3815.0,936.0,3173.0,816.0,1908.0,3366.0,934.0,,,,0.0771356904999356,-1.64949038336053,0.0903559133583596,,5.74883174378061,,
,3819.0,934.0,3173.0,816.0,1905.0,3375.0,940.0,,,,0.0771534315475099,-1.64988650727808,0.0903147531582211,,5.8662090046200035,,
,3818.0,936.0,3173.0,816.0,1904.0,3373.0,931.0,,,,0.0771721524491561,-1.64988238693494,0.0903983665374628,,5.906346260187829,,
,3818.0,935.0,3171.0,815.0,1893.0,3381.0,929.0,,,,0.0771618914223601,-1.64987762450971,0.0903935858714974,,5.862133182683525,,
,3820.0,938.0,3171.0,816.0,1906.0,3376.0,922.0,,,,0.0771807486158469,-1.65040052970571,0.0903568822453675,,5.728641893406878,,
,3822.0,935.0,3172.0,815.0,1912.0,3370.0,931.0,,,,0.0771647025297078,-1.65043907699829,0.0904112602081247,,5.503760575738952,,
,3821.0,936.0,3173.0,819.0,1908.0,3368.0,924.0,,,,0.0771790949033015,-1.65004101384009,0.0903387022925246,,5.18862501825816,,
,3822.0,935.0,3173.0,816.0,1914.0,3377.0,939.0,,,,0.077159071130798,-1.64999640141869,0.0903917386649739,,4.7877947696609775,,
,3822.0,937.0,3170.0,816.0,1906.0,3366.0,914.0,,,,0.0771538255397984,-1.65002235902847,0.0903548209145441,,4.3091489386370005,,
,3824.0,935.0,3175.0,817.0,1909.0,3348.0,932.0,,,,0.07718691040474,-1.64994263352868,0.0903857340646882,,3.7635077981708087,,
,3822.0,937.0,3173.0,816.0,1908.0,3333.0,926.0,,,,0.0771671814936729,-1.64992437382373,0.0903586221937072,,3.164016084027568,,
,3825.0,937.0,3174.0,817.0,1903.0,3350.0,921.0,,,,0.0771990629014026,-1.64988652085621,0.0904074185084976,,2.525348760188451,,
,3822.0,936.0,3174.0,815.0,1907.0,3371.0,938.0,,,,0.0771850393198921,-1.64958815379938,0.0904101554259909,,1.8628174618256876,,
,3825.0,938.0,3172.0,818.0,1899.0,3350.0,923.0,,,,0.077223789617286,-1.64948488452721,0.0904636674640529,,1.1914639350434149,,
,3825.0,937.0,3176.0,818.0,1903.0,3349.0,935.0,,,,0.0772771542112376,-1.64839418235443,0.0904914426408226,,0.5252246973560681,,
,3825.0,936.0,3175.0,816.0,1901.0,3350.0,938.0,,,,0.0772330198399612,-1.64777760413707,0.0905226554565484,,-0.12376042579694661,,
,3824.0,935.0,3174.0,818.0,1908.0,3360.0,918.0,,,,0.0772609435057735,-1.64731003278723,0.0905302613857393,,-0.7456419421879513,,
,3828.0,937.0,3175.0,818.0,1912.0,3352.0,935.0,,,,0.0772844863230147,-1.64664504563257,0.0906263871261542,,-1.3331252980333115,,
,3829.0,938.0,3177.0,819.0,1914.0,3354.0,928.0,,,,0.0772999735164297,-1.64643854715284,0.0905873406981864,,-1.8814989784268195,,
,3827.0,939.0,3174.0,819.0,1912.0,3359.0,914.0,,,,0.0773575712653322,-1.64618603935789,0.0906616671129999,,-2.3884408914910944,,
,3827.0,936.0,3174.0,814.0,1908.0,3350.0,931.0,,,,0.0773515643396157,-1.64546637645082,0.090755513269208,,-2.8536366921418685,,
,3828.0,937.0,3176.0,818.0,1914.0,3353.0,934.0,,,,0.0773729790068403,-1.64517496188456,0.0906744086810463,,-3.2782579410598585,,
,3829.0,937.0,3178.0,821.0,1912.0,3375.0,939.0,,,,0.0774626687427276,-1.64488883487228,0.0906769850678438,,-3.6643570941152506,,
,3829.0,938.0,3175.0,821.0,1911.0,3384.0,938.0,,,,0.0774693483692888,-1.64493634512937,0.0907457639863134,,-4.0142403492650285,,
,3829.0,938.0,3179.0,819.0,1909.0,3354.0,934.0,,,,0.0774530145061325,-1.64465998745211,0.0908127534833449,,-4.329878638540631,,
,3829.0,938.0,3176.0,820.0,1912.0,3350.0,925.0,,,,0.0775208409510283,-1.64352516217306,0.0908756914020981,,-4.6124117594248935,,
,3831.0,939.0,3175.0,819.0,1912.0,3355.0,940.0,,,,0.0775160001753812,-1.64362916123526,0.0908569456577333,,-4.861790945740985,,
,3831.0,939.0,3177.0,818.0,1914.0,3347.0,934.0,,,,0.0775587964861124,-1.64326687501851,0.0908573340245446,,-5.076591455310001,,
,3833.0,942.0,3177.0,821.0,1901.0,3379.0,918.0,,,,0.077568669619286,-1.64294727392005,0.0909610393430771,,-5.254009901894662,,
,3831.0,939.0,3178.0,820.0,1905.0,3386.0,940.0,,,,0.0775822286081468,-1.64174215133433,0.0909698533260012,,-5.390042693288959,,
,3835.0,940.0,3177.0,820.0,1903.0,3395.0,943.0,,,,0.0776368236439376,-1.64162229998299,0.0910833179045636,,-5.479824257121494,,
,3836.0,941.0,3179.0,824.0,1907.0,3396.0,942.0,,,,0.0776330371034558,-1.64140435868103,0.0910661472230164,,-5.51808893492691,,
,3835.0,942.0,3180.0,820.0,1912.0,3389.0,939.0,,,,0.0776840932014311,-1.64075500462946,0.0910895751562412,,-5.4997098930215325,,
,3836.0,940.0,3178.0,819.0,1910.0,3351.0,946.0,,,,0.0777181135981024,-1.6404112330848,0.0911819663308004,,-5.4202624209550185,,
,3837.0,941.0,3180.0,820.0,1907.0,3363.0,944.0,,,,0.0777230508631785,-1.63941672834736,0.0911809969391745,,-5.276557216591152,,
,3839.0,940.0,3184.0,822.0,1902.0,3357.0,925.0,,,,0.0777423033436014,-1.63914804830638,0.0911814866663876,,-5.067091458477276,,
,3840.0,944.0,3179.0,820.0,1900.0,3350.0,920.0,,,,0.0777367399828756,-1.63909479140566,0.0912100664102673,,-4.792371848640596,,
,3838.0,941.0,3179.0,820.0,1906.0,3345.0,936.0,,,,0.0777404961487562,-1.63889637785121,0.0912306244028534,,-4.455074689085483,,
,3838.0,942.0,3179.0,821.0,1908.0,3364.0,932.0,,,,0.0777712657574865,-1.63876516712101,0.0911609784423693,,-4.060023250847265,,
,3842.0,945.0,3182.0,822.0,1906.0,3370.0,938.0,,,,0.0777435362954409,-1.63840341976697,0.0912609584071259,,-3.6139811313685883,,
,3840.0,943.0,3181.0,822.0,1904.0,3362.0,936.0,,,,0.0777458366952076,-1.63856046117717,0.0912476209626752,,-3.1252799739587322,,
,3841.0,940.0,3183.0,824.0,1911.0,3340.0,928.0,,,,0.0777512549454075,-1.63815399794362,0.0912361298681791,,-2.6033181720353786,,
,3840.0,943.0,3181.0,823.0,1912.0,3347.0,937.0,,,,0.0777823900861151,-1.63815604072045,0.0912325782385069,,-2.0579811914452475,,
,3842.0,944.0,3183.0,824.0,1908.0,3383.0,924.0,,,,0.0777706060874757,-1.63771180816948,0.0912648603763495,,-1.4990416882481676,,
,3842.0,942.0,3182.0,822.0,1907.0,3376.0,930.0,,,,0.0778124830109396,-1.63744941772952,0.09132783135392,,-0.935597646718399,,
,3837.0,940.0,3180.0,823.0,1907.0,3378.0,930.0,,,,0.0778211180448155,-1.63679585114523,0.0913392105996045,,-0.37559975044876676,,
,3838.0,941.0,3180.0,821.0,1911.0,3374.0,942.0,,,,0.0778201697638227,-1.63692542659286,0.0913631522062219,,0.1744930296291721,,
,3838.0,943.0,3178.0,824.0,1914.0,3378.0,950.0,,,,0.0778286829021395,-1.63651259899577,0.091332111973646,,0.7099052908490655,,
,3834.0,939.0,3177.0,822.0,1911.0,3376.0,949.0,,,,0.0778478521079876,-1.63666226090141,0.0913513161435165,,1.2275744847324306,,
,3832.0,939.0,3174.0,819.0,1903.0,3360.0,940.0,,,,0.0778196056114616,-1.63575295923328,0.0914040886052785,,1.7260201793991052,,
,3831.0,939.0,3174.0,820.0,1910.0,3349.0,934.0,,,,0.0778713926381368,-1.63559099031607,0.0913537563324202,,2.2050667948071734,,
,3829.0,934.0,3176.0,819.0,1914.0,3359.0,938.0,,,,0.0778690566319994,-1.63568756901921,0.0914859351520909,,2.6654434826095526,,
,3827.0,940.0,3175.0,821.0,1917.0,3349.0,947.0,,,,0.0778657239187768,-1.63496441042706,0.0914383211936441,,3.1082945377687943,,
,3826.0,937.0,3174.0,817.0,1908.0,3352.0,937.0,,,,0.077895855891987,-1.63472188439679,0.0914613274023194,,3.534642320449597,,
,3821.0,935.0,3171.0,816.0,1913.0,3338.0,937.0,,,,0.0779480740820161,-1.6341354221537,0.0915151594403397,,3.944850839309897,,
,3822.0,936.0,3171.0,817.0,1906.0,3345.0,948.0,,,,0.0779596273537824,-1.6337462561304,0.091530934452071,,4.338140623595345,,
,3819.0,938.0,3171.0,818.0,1908.0,3350.0,959.0,,,,0.0779757916352084,-1.63287873173665,0.0915696266173802,,4.712203499810304,,
,3820.0,937.0,3170.0,816.0,1905.0,3356.0,955.0,,,,0.0780200536453,-1.63282847277282,0.0915662458927975,,5.062959243332393,,
,3816.0,933.0,3168.0,815.0,1908.0,3359.0,939.0,,,,0.0780030842116997,-1.63198844052598,0.0916097602547818,,5.384485284993817,,
,3818.0,937.0,3169.0,814.0,1903.0,3388.0,937.0,,,,0.0779976963715123,-1.63173635609924,0.0916466304239172,,5.669136718895229,,
,3817.0,935.0,3170.0,815.0,1905.0,3385.0,916.0,,,,0.0780293994521052,-1.63138280071301,0.0916521758134065,,5.907858062099101,,
,3814.0,936.0,3165.0,816.0,1898.0,3390.0,907.0,,,,0.0780618361277206,-1.63125245205563,0.091640076511227,,6.090671909904242,,
,3814.0,931.0,3165.0,813.0,1889.0,3405.0,928.0,,,,0.0780898200536899,-1.63079497485894,0.0916771358736241,,6.207314080607673,,
,3816.0,934.0,3166.0,816.0,1893.0,3393.0,937.0,,,,0.0780742809400031,-1.63031037082744,0.091778725649516,,6.247970994334382,,
,3815.0,936.0,3166.0,816.0,1905.0,3387.0,939.0,,,,0.0781246832164218,-1.62961885456562,0.0917643040070873,,6.20406336764413,,
,3817.0,937.0,3168.0,816.0,1908.0,3374.0,941.0,,,,0.0781463012229192,-1.62925540022856,0.0918591466012276,,6.069011397790609,,
,3812.0,934.0,3165.0,813.0,1906.0,3350.0,928.0,,,,0.0781714090716821,-1.62883525483773,0.0918222470036417,,5.838912053599295,,
,3812.0,934.0,3163.0,813.0,1909.0,3354.0,942.0,,,,0.0781581227116613,-1.62819426028376,0.0917683299495625,,5.51306147699631,,
,3818.0,934.0,3165.0,816.0,1903.0,3376.0,927.0,,,,0.0782144120974386,-1.62700363378945,0.0919510382221121,,5.094266802883187,,
,3814.0,933.0,3166.0,815.0,1902.0,3370.0,927.0,,,,0.0782404755262516,-1.62736226045514,0.0919226010486422,,4.588911473150492,,
,3814.0,931.0,3164.0,811.0,1896.0,3379.0,925.0,,,,0.078235079968411,-1.62698448530529,0.0919880041122944,,4.006763245334391,,
,3813.0,933.0,3165.0,813.0,1910.0,3368.0,925.0,,,,0.0783029201753611,-1.62620044636647,0.0919886018871869,,3.360540212677967,,
,3813.0,935.0,3168.0,817.0,1913.0,3344.0,929.0,,,,0.0782712701823972,-1.62574982514591,0.092016615424905,,2.6652733042614702,,
,3815.0,936.0,3168.0,817.0,1911.0,3357.0,933.0,,,,0.0783101927685062,-1.62551183950738,0.0920521046668865,,1.9375211761200182,,
,3816.0,935.0,3167.0,816.0,1910.0,3367.0,946.0,,,,0.0783055027225818,-1.62484697887267,0.0920575351869937,,1.1945035793939802,,
,3814.0,931.0,3165.0,814.0,1915.0,3360.0,938.0,,,,0.0783216383382251,-1.62440003400164,0.0920727397487253,,0.45322172787832776,,
,3813.0,935.0,3167.0,816.0,1908.0,3347.0,926.0,,,,0.0782974599867931,-1.62499217913062,0.0921262480008996,,-0.27037037231414346,,
,3814.0,936.0,3168.0,817.0,1911.0,3367.0,940.0,,,,0.0783201452620495,-1.62397966035871,0.0921438939371687,,-0.9620893277588456,,
,3815.0,935.0,3167.0,817.0,1906.0,3371.0,941.0,,,,0.0783204895298783,-1.62409850227661,0.0920993904466838,,-1.6100985056902974,,
,3811.0,934.0,3163.0,812.0,1906.0,3374.0,937.0,,,,0.0784178765068717,-1.62389566333028,0.0921709171574393,,-2.2053077849009757,,
,3814.0,932.0,3165.0,815.0,1907.0,3372.0,938.0,,,,0.0784289794141095,-1.62354203316823,0.0921785881724744,,-2.7415800662746164,,
,3812.0,937.0,3166.0,817.0,1904.0,3378.0,938.0,,,,0.078392415008098,-1.62289050139529,0.0922064766588068,,-3.2157394869509295,,
,3813.0,935.0,3167.0,817.0,1898.0,3396.0,939.0,,,,0.0784153535413717,-1.62232041954101,0.0922463626793059,,-3.6273881657637044,,
