TimeLabel,MEAS1_PPG1,MEAS1_PPG2,MEAS1_PPG3,MEAS1_PPG4,ACCX,ACCY,ACCZ,HR_timestamp,HR_value,radar_timestamp,phase_rx0,phase_rx1,phase_rx2,timestep,n_process,original_rate,calculated_rate
2025-07-04 15:43:33,8896.0,1518.0,4915.0,1668.0,1911.0,2474.0,2315.0,2025-07-04 15:43:33,65.0,2025/07/04 03:43:33 PM,0.0480649998807106,-1.37274419904571,0.096478381733963,2025/07/04 03:43:33 PM,8.650451334345862,15.0,15.83333333333333
,8899.0,1521.0,4915.0,1669.0,1913.0,2465.0,2335.0,2025-07-04 15:43:34,65.0,,0.0480323471854602,-1.37288596953485,0.0964848769511704,2025/07/04 03:43:43 PM,8.840298913272646,15.373353004455566,12.742681342199802
,8901.0,1522.0,4918.0,1672.0,1914.0,2469.0,2341.0,2025-07-04 15:43:35,65.0,,0.0480223995228796,-1.37247136046378,0.0964900691449447,2025/07/04 03:43:53 PM,8.899567126089961,14.40000057220459,14.201680672268903
,8902.0,1524.0,4922.0,1669.0,1919.0,2468.0,2313.0,2025-07-04 15:43:36,65.0,,0.048028629060555,-1.37229035514459,0.096481547787168,2025/07/04 03:44:03 PM,8.826870058714373,13.888888359069824,14.814814814814826
,8906.0,1526.0,4923.0,1673.0,1918.0,2472.0,2297.0,2025-07-04 15:43:37,66.0,,0.0480437840031246,-1.37215561390487,0.0964852219655744,2025/07/04 03:44:13 PM,8.62483865935618,13.729976654052734,16.809068229454965
,8905.0,1527.0,4924.0,1672.0,1918.0,2469.0,2302.0,2025-07-04 15:43:38,66.0,,0.0480625839457665,-1.37187397807126,0.0964957423267167,2025/07/04 03:44:23 PM,8.300256313714353,15.21739101409912,17.622309197651663
,8911.0,1530.0,4925.0,1674.0,1916.0,2465.0,2300.0,2025-07-04 15:43:39,66.0,,0.0481239402856412,-1.3715573950849,0.0964891225439029,2025/07/04 03:44:33 PM,7.86392140742846,16.449623107910156,16.00189663347558
,8913.0,1532.0,4928.0,1674.0,1917.0,2469.0,2304.0,2025-07-04 15:43:40,65.0,,0.0481515123976155,-1.37146724200557,0.096479076552972,2025/07/04 03:44:43 PM,7.330229343757716,16.50943374633789,20.73351791661648
,8914.0,1531.0,4930.0,1675.0,1916.0,2466.0,2315.0,2025-07-04 15:43:41,65.0,,0.0481605814903671,-1.37201904332921,0.0964868697665362,2025/07/04 03:44:53 PM,6.716501957490685,18.012008666992188,14.346349745331088
,8915.0,1533.0,4928.0,1676.0,1908.0,2470.0,2303.0,2025-07-04 15:43:42,64.0,,0.0481359529839171,-1.37219139082646,0.0964985182261472,2025/07/04 03:45:03 PM,6.042121767877291,14.716187477111816,13.181272509003595
,8918.0,1536.0,4932.0,1676.0,1912.0,2455.0,2313.0,2025-07-04 15:43:43,64.0,,0.0481416335338114,-1.37207755550785,0.0964843631482488,2025/07/04 03:45:13 PM,5.327546574473153,15.8490571975708,15.36544850498337
,8920.0,1538.0,4936.0,1680.0,1911.0,2465.0,2320.0,2025-07-04 15:43:44,64.0,,0.0480951339296084,-1.37211447353539,0.0964885925599372,2025/07/04 03:45:23 PM,4.593285097662859,10.204081535339355,16.30895304666458
,8922.0,1540.0,4936.0,1679.0,1912.0,2469.0,2318.0,2025-07-04 15:43:45,63.0,,0.0481830437069719,-1.37229750438578,0.096477037135147,2025/07/04 03:45:33 PM,3.8589089116048876,15.254237174987791,16.3272861902999
,8924.0,1542.0,4938.0,1681.0,1910.0,2461.0,2319.0,2025-07-04 15:43:46,64.0,,0.048111055328119,-1.37228761948919,0.0964547183002893,2025/07/04 03:45:43 PM,3.1421639028571553,16.216215133666992,15.538482205148883
,8926.0,1540.0,4939.0,1683.0,1916.0,2463.0,2317.0,2025-07-04 15:43:47,64.0,,0.0480353218675956,-1.37265575180945,0.0964466483651455,2025/07/04 03:45:53 PM,2.4582301408241816,16.053512573242188,14.175186515612037
,8930.0,1543.0,4941.0,1682.0,1908.0,2472.0,2328.0,2025-07-04 15:43:48,64.0,,0.0480530302053926,-1.37267387385161,0.096449704563435,2025/07/04 03:46:03 PM,1.8191654255895058,15.294974327087402,14.9873115390357
,8928.0,1546.0,4944.0,1684.0,1914.0,2469.0,2305.0,2025-07-04 15:43:49,64.0,,0.0480047054906383,-1.37324730295477,0.0964243594067374,2025/07/04 03:46:13 PM,1.2335558782129474,14.827018737792969,13.977774802517054
,8929.0,1543.0,4947.0,1685.0,1917.0,2473.0,2303.0,2025-07-04 15:43:50,64.0,,0.048003331073257,-1.37362276441523,0.0964305129012412,2025/07/04 03:46:23 PM,0.7063856875172078,14.393420219421388,19.766674003962166
,8927.0,1541.0,4943.0,1686.0,1920.0,2473.0,2316.0,2025-07-04 15:43:51,64.0,,0.0479515130680542,-1.37338216164242,0.0964211712347775,,0.23912577722290274,,
,8921.0,1533.0,4947.0,1685.0,1912.0,2471.0,2333.0,2025-07-04 15:43:52,63.0,,0.047966027445519,-1.37363802825852,0.0964275591991315,,-0.1699728197678526,,
,8914.0,1523.0,4944.0,1686.0,1915.0,2468.0,2337.0,2025-07-04 15:43:53,63.0,,0.0479927694493601,-1.3745580021315,0.0964084243069969,,-0.5254092889079454,,
,8898.0,1513.0,4940.0,1685.0,1916.0,2475.0,2331.0,2025-07-04 15:43:54,63.0,,0.047937037793605,-1.37411115215177,0.0964022250239001,,-0.8338274994897154,,
,8877.0,1502.0,4937.0,1682.0,1911.0,2470.0,2321.0,2025-07-04 15:43:55,63.0,,0.0479363117181952,-1.37450415011155,0.0964153412169647,,-1.1033230239467322,,
,8860.0,1490.0,4931.0,1679.0,1914.0,2477.0,2335.0,2025-07-04 15:43:56,62.0,,0.0478897384375286,-1.37483869439108,0.09641705456903,,-1.3427144258135673,,
,8842.0,1483.0,4925.0,1679.0,1913.0,2489.0,2343.0,2025-07-04 15:43:57,62.0,,0.0479199886371168,-1.37429718597808,0.0964152048830495,,-1.5608295211610808,,
,8824.0,1478.0,4919.0,1679.0,1912.0,2482.0,2355.0,2025-07-04 15:43:58,63.0,,0.0478950900682409,-1.37416089138454,0.0964179666158682,,-1.7658527944453806,,
,8805.0,1470.0,4910.0,1673.0,1921.0,2469.0,2333.0,2025-07-04 15:43:59,63.0,,0.047909430020484,-1.37398192109222,0.0964220124402907,,-1.9647729901073097,,
,8788.0,1461.0,4897.0,1670.0,1920.0,2466.0,2312.0,2025-07-04 15:44:00,63.0,,0.0479767062778217,-1.37399660892867,0.0964279933111571,,-2.162961022986667,,
,8773.0,1459.0,4895.0,1667.0,1914.0,2469.0,2327.0,2025-07-04 15:44:01,63.0,,0.0479553881211063,-1.37400791752894,0.0964098181548796,,-2.3638987158081735,,
,8761.0,1453.0,4886.0,1664.0,1916.0,2469.0,2335.0,2025-07-04 15:44:02,63.0,,0.0479016082439178,-1.37413567237686,0.0964412983043652,,-2.5690693194937686,,
,8748.0,1447.0,4875.0,1657.0,1914.0,2471.0,2322.0,2025-07-04 15:44:03,63.0,,0.0479650514894892,-1.37368849419072,0.0964556058092315,,-2.7780116666221804,,
,8737.0,1442.0,4867.0,1653.0,1911.0,2469.0,2317.0,2025-07-04 15:44:04,62.0,,0.0479569158577523,-1.37319604885261,0.0964390388235693,,-2.988530823767175,,
,8732.0,1442.0,4862.0,1652.0,1906.0,2471.0,2327.0,2025-07-04 15:44:05,62.0,,0.0479913262773461,-1.3730995298606,0.096447886752547,,-3.1970484874229053,,
,8726.0,1442.0,4857.0,1647.0,1918.0,2476.0,2322.0,2025-07-04 15:44:06,62.0,,0.0479863266445959,-1.37358502294744,0.0964549369964298,,-3.3990655889966,,
,8719.0,1439.0,4851.0,1644.0,1915.0,2478.0,2327.0,2025-07-04 15:44:07,62.0,,0.0480009339715735,-1.37332133378716,0.0964412680541661,,-3.5896980910655603,,
,8717.0,1437.0,4846.0,1644.0,1906.0,2474.0,2310.0,2025-07-04 15:44:08,62.0,,0.0480414593150105,-1.37286589573091,0.0964356143031097,,-3.764236704846125,,
,8717.0,1441.0,4842.0,1643.0,1915.0,2462.0,2300.0,2025-07-04 15:44:09,62.0,,0.0481137092136092,-1.37298633358137,0.0964598634537935,,-3.9186753951175812,,
,8719.0,1440.0,4843.0,1642.0,1912.0,2469.0,2322.0,2025-07-04 15:44:10,62.0,,0.0480712456800843,-1.37297797274044,0.0964611370403329,,-4.05015494738375,,
,8722.0,1442.0,4841.0,1637.0,1909.0,2475.0,2323.0,2025-07-04 15:44:11,62.0,,0.048052868929335,-1.37248674229414,0.0964627056659444,,-4.157277220501452,,
,8719.0,1440.0,4836.0,1634.0,1909.0,2467.0,2338.0,2025-07-04 15:44:12,62.0,,0.0481251454544913,-1.37220718738765,0.0964858138214716,,-4.2402609095155706,,
,8723.0,1443.0,4837.0,1636.0,1913.0,2466.0,2305.0,2025-07-04 15:44:13,63.0,,0.0480971028575604,-1.3718105392265,0.0964962307230946,,-4.300927280608819,,
,8726.0,1443.0,4835.0,1636.0,1920.0,2474.0,2322.0,2025-07-04 15:44:14,62.0,,0.0481454635121255,-1.37128393246189,0.0964916819887913,,-4.34252148623068,,
,8729.0,1445.0,4835.0,1636.0,1916.0,2476.0,2328.0,2025-07-04 15:44:15,62.0,,0.0481616802661823,-1.37128344365351,0.0965025710619306,,-4.369389982753415,,
,8732.0,1446.0,4835.0,1633.0,1906.0,2481.0,2305.0,2025-07-04 15:44:16,61.0,,0.0482072184927743,-1.37095739474601,0.096511243822606,,-4.386546361090481,,
,8736.0,1449.0,4835.0,1634.0,1905.0,2481.0,2297.0,2025-07-04 15:44:17,61.0,,0.0482334546429537,-1.37100468184101,0.0965092089816766,,-4.399166038893665,,
,8736.0,1448.0,4835.0,1636.0,1912.0,2473.0,2318.0,2025-07-04 15:44:18,60.0,,0.0483475842144245,-1.37073207550667,0.0965338794427751,,-4.412054501183498,,
,8742.0,1450.0,4834.0,1635.0,1913.0,2467.0,2339.0,2025-07-04 15:44:19,60.0,,0.0484416868035128,-1.36896189596954,0.0965602146241649,,-4.429134274119273,,
,8744.0,1450.0,4837.0,1634.0,1910.0,2481.0,2337.0,2025-07-04 15:44:20,61.0,,0.0486098491642962,-1.36656088686424,0.0966294923552572,,-4.4529931146319,,
,8747.0,1452.0,4837.0,1633.0,1911.0,2479.0,2335.0,2025-07-04 15:44:21,61.0,,0.0486685441050629,-1.36517119252215,0.0966543020028915,,-4.484530646785014,,
,8750.0,1451.0,4837.0,1636.0,1910.0,2475.0,2350.0,2025-07-04 15:44:22,62.0,,0.0486899797333926,-1.36479875994149,0.0966599833388621,,-4.522733380790457,,
,8754.0,1453.0,4837.0,1635.0,1910.0,2473.0,2342.0,2025-07-04 15:44:23,63.0,,0.0487619329130532,-1.3645570590188,0.0966570058119518,,-4.564598991084967,,
,8759.0,1456.0,4839.0,1634.0,1912.0,2467.0,2328.0,2025-07-04 15:44:24,63.0,,0.0487103876634797,-1.3645983142819,0.0966565054962809,,-4.605219966258517,,
,8762.0,1454.0,4839.0,1635.0,1913.0,2468.0,2349.0,2025-07-04 15:44:25,64.0,,0.0487273867054196,-1.3648903440012,0.0966688080214454,,-4.6380242511298,,
,8764.0,1457.0,4840.0,1638.0,1911.0,2467.0,2319.0,2025-07-04 15:44:26,64.0,,0.048704230240638,-1.36531302257493,0.0966542483762058,,-4.655156623818217,,
,8769.0,1456.0,4839.0,1636.0,1909.0,2452.0,2330.0,2025-07-04 15:44:27,65.0,,0.0487099175775662,-1.36517289054654,0.0966407438055867,,-4.647970662794423,,
,8767.0,1457.0,4843.0,1637.0,1911.0,2455.0,2332.0,2025-07-04 15:44:28,66.0,,0.048659749192495,-1.36546386563002,0.0966572123846469,,-4.6075897447257,,
,8771.0,1457.0,4840.0,1639.0,1914.0,2465.0,2333.0,2025-07-04 15:44:29,67.0,,0.0487112895054012,-1.3654889451874,0.0966574895003934,,-4.52548903783924,,
,8774.0,1455.0,4840.0,1636.0,1909.0,2464.0,2329.0,2025-07-04 15:44:30,68.0,,0.0487306706508162,-1.36444192232086,0.0966554261653153,,-4.3940498194115625,,
,8775.0,1459.0,4845.0,1640.0,1910.0,2476.0,2335.0,2025-07-04 15:44:31,69.0,,0.0488123639753748,-1.36423116227395,0.0966641219173795,,-4.207041609586818,,
,8777.0,1456.0,4843.0,1636.0,1909.0,2475.0,2335.0,2025-07-04 15:44:32,70.0,,0.0488213139660239,-1.36389539612348,0.0966660866005664,,-3.9599947669771325,,
,8776.0,1456.0,4842.0,1640.0,1912.0,2468.0,2329.0,2025-07-04 15:44:33,71.0,,0.0487590129815874,-1.36402555171952,0.0966773858048255,,-3.650435283954104,,
,8775.0,1455.0,4844.0,1637.0,1915.0,2460.0,2337.0,2025-07-04 15:44:34,71.0,,0.0487778962406147,-1.36390098586741,0.0966691197499776,,-3.2779647924993722,,
,8776.0,1456.0,4844.0,1640.0,1913.0,2465.0,2358.0,2025-07-04 15:44:35,71.0,,0.0487353297138685,-1.36386268769633,0.096678813703801,,-2.8441830136698387,,
,8775.0,1455.0,4843.0,1639.0,1912.0,2467.0,2363.0,2025-07-04 15:44:36,70.0,,0.0487463086284665,-1.3637992328688,0.0966771973566661,,-2.352467040411955,,
,8774.0,1453.0,4845.0,1640.0,1909.0,2472.0,2343.0,2025-07-04 15:44:37,70.0,,0.0487299403585242,-1.3639053787247,0.0966666067848656,,-1.807640267077687,,
,8774.0,1453.0,4843.0,1639.0,1911.0,2466.0,2329.0,2025-07-04 15:44:38,69.0,,0.0487726429768759,-1.36365444066474,0.0966837408538335,,-1.2155802517288736,,
,8774.0,1453.0,4844.0,1640.0,1912.0,2471.0,2326.0,2025-07-04 15:44:39,68.0,,0.0486691714938985,-1.36304168702168,0.0966906757923747,,-0.5828255386069061,,
,8777.0,1454.0,4844.0,1640.0,1913.0,2470.0,2325.0,2025-07-04 15:44:40,66.0,,0.0487319905715111,-1.36305490400019,0.0966979337509218,,0.08375655930712603,,
,8773.0,1452.0,4842.0,1638.0,1911.0,2469.0,2319.0,2025-07-04 15:44:41,65.0,,0.0487308592851375,-1.36283979235639,0.0966776548285415,,0.7771873966867099,,
,8771.0,1449.0,4842.0,1639.0,1915.0,2460.0,2330.0,2025-07-04 15:44:42,65.0,,0.0487519608847568,-1.3632510831579,0.0966760949285377,,1.490443734116776,,
,8774.0,1455.0,4843.0,1637.0,1914.0,2460.0,2310.0,2025-07-04 15:44:43,64.0,,0.0488712771914722,-1.36308442875554,0.0966919487364333,,2.2163635672171136,,
,8776.0,1452.0,4843.0,1639.0,1916.0,2460.0,2305.0,2025-07-04 15:44:44,64.0,,0.0488800827564452,-1.36294290174523,0.0967022256141604,,2.9474110756464946,,
,8779.0,1455.0,4843.0,1638.0,1921.0,2464.0,2308.0,2025-07-04 15:44:45,64.0,,0.0489421999513994,-1.36312244828381,0.0966921229417159,,3.675350703730864,,
,8778.0,1452.0,4843.0,1640.0,1920.0,2472.0,2285.0,2025-07-04 15:44:46,64.0,,0.0488916122394151,-1.36295959166561,0.096683277546224,,4.390904061402656,,
,8780.0,1455.0,4844.0,1640.0,1921.0,2464.0,2323.0,2025-07-04 15:44:47,64.0,,0.0488594149338654,-1.36344876331117,0.0966759800483626,,5.083474989228202,,
,8786.0,1457.0,4845.0,1642.0,1916.0,2461.0,2314.0,2025-07-04 15:44:48,65.0,,0.0488602866390303,-1.36317677541592,0.0966817263654297,,5.741024754639718,,
,8785.0,1457.0,4846.0,1640.0,1916.0,2464.0,2304.0,2025-07-04 15:44:49,65.0,,0.0488957741086259,-1.3635425116538,0.0966887271206386,,6.350161880977153,,
,8788.0,1457.0,4846.0,1640.0,1919.0,2472.0,2305.0,2025-07-04 15:44:50,65.0,,0.0488895285162237,-1.36346511595772,0.0966803373836174,,6.896483463190018,,
,8792.0,1458.0,4849.0,1642.0,1917.0,2467.0,2298.0,2025-07-04 15:44:51,65.0,,0.0489408005703992,-1.36344980253054,0.096663027939499,,7.36517170548137,,
,8794.0,1463.0,4849.0,1643.0,1918.0,2465.0,2307.0,2025-07-04 15:44:52,66.0,,0.0488929057091146,-1.36369995193503,0.0966618411481408,,7.741814862063562,,
,8798.0,1462.0,4848.0,1644.0,1919.0,2464.0,2317.0,2025-07-04 15:44:53,66.0,,0.0488891663143373,-1.36373834067874,0.0966575187834491,,8.013388989816853,,
,8801.0,1461.0,4847.0,1645.0,1920.0,2458.0,2338.0,2025-07-04 15:44:54,67.0,,0.0488623548050827,-1.36358257635736,0.0966791977576142,,8.169308940610717,,
,8804.0,1465.0,4850.0,1643.0,1919.0,2458.0,2336.0,2025-07-04 15:44:55,67.0,,0.0488963632172916,-1.36361700740021,0.0966814675097103,,8.202437168058365,,
,8812.0,1465.0,4854.0,1647.0,1916.0,2465.0,2337.0,2025-07-04 15:44:56,67.0,,0.0488676191052111,-1.36390390706901,0.096679219462206,,8.109930795261468,,
,8810.0,1468.0,4854.0,1649.0,1918.0,2465.0,2332.0,2025-07-04 15:44:57,66.0,,0.048918924419209,-1.36363923909488,0.0966659968852758,,7.893814115639017,,
,8816.0,1470.0,4856.0,1644.0,1912.0,2462.0,2325.0,2025-07-04 15:44:58,66.0,,0.0488984573160856,-1.36344772569262,0.0966483657448504,,7.561186866840134,,
,8822.0,1470.0,4856.0,1646.0,1918.0,2463.0,2310.0,2025-07-04 15:44:59,66.0,,0.0488535162861922,-1.36374522100389,0.096660096620579,,7.124017179265037,,
,8827.0,1475.0,4861.0,1648.0,1913.0,2465.0,2337.0,2025-07-04 15:45:00,66.0,,0.0487827723274302,-1.36379345527822,0.0966435790562657,,6.59851755161798,,
,8831.0,1477.0,4860.0,1651.0,1917.0,2470.0,2337.0,2025-07-04 15:45:01,67.0,,0.0488273976761323,-1.36359559218107,0.0966274188946404,,6.004154692118643,,
,8833.0,1478.0,4863.0,1650.0,1919.0,2472.0,2334.0,2025-07-04 15:45:02,68.0,,0.0488030288485802,-1.36339918180922,0.0966250640535479,,5.362390109836952,,
,8835.0,1478.0,4862.0,1652.0,1919.0,2465.0,2312.0,2025-07-04 15:45:03,68.0,,0.0487815135392237,-1.36423129814699,0.0966402846221656,,4.695279763307844,,
,8842.0,1482.0,4867.0,1653.0,1912.0,2471.0,2308.0,2025-07-04 15:45:04,69.0,,0.0487636800804883,-1.36437321528662,0.0966427271254997,,4.024073336302177,,
,8843.0,1484.0,4868.0,1653.0,1912.0,2470.0,2319.0,2025-07-04 15:45:05,69.0,,0.0487741505261908,-1.36387539645926,0.0966573097473275,,3.3679465043836117,,
,8846.0,1483.0,4869.0,1654.0,1911.0,2467.0,2321.0,2025-07-04 15:45:06,69.0,,0.048769602433533,-1.36387079262994,0.0966397950564198,,2.742976029929324,,
,8849.0,1485.0,4870.0,1654.0,1912.0,2463.0,2319.0,2025-07-04 15:45:07,68.0,,0.0487451121254464,-1.36405564164043,0.0966504980607885,,2.1614330284093604,,
,8849.0,1489.0,4872.0,1654.0,1915.0,2456.0,2290.0,2025-07-04 15:45:08,67.0,,0.048725029203549,-1.36414282781796,0.0966228508414241,,1.6314304779754984,,
,8855.0,1491.0,4873.0,1658.0,1917.0,2465.0,2303.0,2025-07-04 15:45:09,66.0,,0.0487714416085254,-1.36446992275222,0.0966170511271258,,1.1569227935444983,,
,8860.0,1491.0,4876.0,1658.0,1915.0,2467.0,2296.0,2025-07-04 15:45:10,66.0,,0.0487318548422442,-1.36461745628807,0.0966413263392975,,0.7380225374021687,,
,8861.0,1493.0,4879.0,1659.0,1916.0,2466.0,2308.0,2025-07-04 15:45:11,66.0,,0.0488041376947588,-1.36479052517502,0.0966252164592966,,0.37157477214417467,,
,8863.0,1495.0,4880.0,1658.0,1914.0,2458.0,2312.0,2025-07-04 15:45:12,65.0,,0.0487500424666861,-1.36447573975012,0.0966062007926178,,0.051914089982411045,,
,8865.0,1498.0,4883.0,1661.0,1915.0,2461.0,2311.0,2025-07-04 15:45:13,65.0,,0.048731759312172,-1.36486878635286,0.0966196922437304,,-0.22827741974458135,,
,8868.0,1499.0,4885.0,1664.0,1918.0,2463.0,2320.0,2025-07-04 15:45:14,65.0,,0.0487054891202978,-1.36493244249637,0.0966208221049654,,-0.4770922303601316,,
,8870.0,1498.0,4883.0,1661.0,1917.0,2466.0,2305.0,2025-07-04 15:45:15,65.0,,0.0487034218140109,-1.36490019059978,0.0966090463942291,,-0.7025736391439475,,
,8875.0,1500.0,4885.0,1665.0,1916.0,2468.0,2316.0,2025-07-04 15:45:16,64.0,,0.0486861611874037,-1.36493999037222,0.0966230215122168,,-0.9120091782242224,,
,8876.0,1504.0,4890.0,1664.0,1915.0,2473.0,2312.0,2025-07-04 15:45:17,63.0,,0.0486949963033925,-1.36501042575322,0.0966178124943566,,-1.1113897541013535,,
,8876.0,1503.0,4891.0,1665.0,1917.0,2464.0,2344.0,2025-07-04 15:45:18,63.0,,0.0487081314971935,-1.36539862686366,0.0966157671795749,,-1.305066320932023,,
,8880.0,1510.0,4893.0,1667.0,1917.0,2464.0,2337.0,2025-07-04 15:45:19,63.0,,0.0486996807993011,-1.36562046506628,0.0965991560656194,,-1.4956169942184787,,
,8881.0,1504.0,4893.0,1667.0,1916.0,2468.0,2337.0,2025-07-04 15:45:20,63.0,,0.0486163195959659,-1.36340970915935,0.0965967106944856,,-1.6839169271908707,,
,8884.0,1507.0,4898.0,1669.0,1914.0,2470.0,2328.0,2025-07-04 15:45:21,63.0,,0.048656210502694,-1.36595515907631,0.0965724513381053,,-1.8693825044262702,,
,8885.0,1511.0,4898.0,1667.0,1914.0,2468.0,2298.0,2025-07-04 15:45:22,63.0,,0.0486422913321865,-1.36571634469413,0.0965933341693616,,-2.0503434539428245,,
,8888.0,1509.0,4898.0,1669.0,1916.0,2470.0,2296.0,2025-07-04 15:45:23,63.0,,0.0486139198619299,-1.36588086959214,0.0965772335448193,,-2.224484994107296,,
,8891.0,1510.0,4899.0,1670.0,1910.0,2465.0,2322.0,2025-07-04 15:45:24,63.0,,0.0486904562680908,-1.36582893068331,0.0965897286342899,,-2.389299559508613,,
,8892.0,1511.0,4902.0,1673.0,1918.0,2462.0,2295.0,2025-07-04 15:45:25,63.0,,0.0486568996640832,-1.36601529441855,0.096600473024488,,-2.5424938390118044,,
,8893.0,1514.0,4907.0,1672.0,1919.0,2462.0,2280.0,2025-07-04 15:45:26,63.0,,0.0486926101170791,-1.36617032033651,0.0966070075374257,,-2.6823093814616694,,
,8897.0,1514.0,4905.0,1674.0,1920.0,2466.0,2280.0,2025-07-04 15:45:27,64.0,,0.0487009846344277,-1.36548302828175,0.0966043277668171,,-2.8077306899634182,,
,8897.0,1517.0,4906.0,1672.0,1916.0,2475.0,2300.0,2025-07-04 15:45:28,64.0,,0.0487147980986487,-1.36579449528518,0.0965886491368459,,-2.9185708369620293,,
,8899.0,1517.0,4910.0,1673.0,1915.0,2464.0,2290.0,2025-07-04 15:45:29,64.0,,0.0487450514930579,-1.36544418690822,0.096590308371952,,-3.0154393412297997,,
,8904.0,1518.0,4913.0,1675.0,1914.0,2468.0,2324.0,2025-07-04 15:45:30,64.0,,0.0487507782275904,-1.36561264092768,0.0966122793429877,,-3.099609216130257,,
,8905.0,1521.0,4914.0,1679.0,1919.0,2471.0,2342.0,2025-07-04 15:45:31,64.0,,0.0487720730010874,-1.36517279438774,0.0965908388853227,,-3.1728091150017455,,
,8908.0,1521.0,4913.0,1680.0,1922.0,2471.0,2315.0,2025-07-04 15:45:32,64.0,,0.0487750146897034,-1.36477278291633,0.0965873512472834,,-3.236972125227184,,
,8907.0,1522.0,4914.0,1678.0,1916.0,2464.0,2322.0,2025-07-04 15:45:33,64.0,,0.0488067774707752,-1.36421513309758,0.0966119508707174,,-3.2939750003855734,,
,8912.0,1526.0,4916.0,1681.0,1915.0,2464.0,2338.0,2025-07-04 15:45:34,64.0,,0.0487767609658737,-1.36445992190895,0.0965961934238281,,-3.345400676109839,,
,8911.0,1527.0,4919.0,1683.0,1917.0,2472.0,2317.0,2025-07-04 15:45:35,64.0,,0.0488114793815417,-1.36410696873512,0.0966084029413427,,-3.392353209528547,,
,8914.0,1526.0,4921.0,1681.0,1917.0,2472.0,2322.0,2025-07-04 15:45:36,64.0,,0.0488142886886096,-1.36442078763585,0.0966065039588956,,-3.435348347190076,,
,8916.0,1526.0,4922.0,1683.0,1918.0,2467.0,2328.0,2025-07-04 15:45:37,64.0,,0.0488036199739983,-1.36474257497119,0.0966150701221168,,-3.474295178344788,,
,8919.0,1529.0,4923.0,1683.0,1920.0,2463.0,2309.0,2025-07-04 15:45:38,64.0,,0.048787668966534,-1.36488951815044,0.0965971520938799,,-3.508574910503697,,
,8919.0,1530.0,4926.0,1687.0,1920.0,2463.0,2327.0,2025-07-04 15:45:39,65.0,,0.0488436769170598,-1.36475111299964,0.0965893992263806,,-3.537211691641343,,
,8922.0,1533.0,4927.0,1687.0,1923.0,2469.0,2310.0,2025-07-04 15:45:40,66.0,,0.0488480509477676,-1.36468541663624,0.0966029898000851,,-3.559117843206271,,
2025-07-04 15:43:34,8923.0,1533.0,4929.0,1688.0,1920.0,2469.0,2311.0,2025-07-04 15:45:41,67.0,2025/07/04 03:43:34 PM,0.0488120686844653,-1.36466539917885,0.0965921919796474,,-3.5733830215103057,,
,8926.0,1535.0,4930.0,1688.0,1920.0,2467.0,2294.0,2025-07-04 15:45:42,67.0,,0.0487984021881506,-1.3648067267397,0.0966144840361521,,-3.57956619903446,,
,8927.0,1536.0,4934.0,1686.0,1920.0,2467.0,2283.0,2025-07-04 15:45:43,67.0,,0.0488102847668789,-1.36519590640968,0.096570270251702,,-3.5779441757046615,,
,8928.0,1536.0,4931.0,1686.0,1918.0,2464.0,2277.0,2025-07-04 15:45:44,67.0,,0.0488098946144407,-1.3643935139131,0.0965946021674919,,-3.5696727952920417,,
,8928.0,1537.0,4932.0,1687.0,1916.0,2460.0,2292.0,2025-07-04 15:45:45,67.0,,0.0487910855749112,-1.36484311741873,0.0965923474372166,,-3.5568269774339187,,
,8932.0,1538.0,4935.0,1693.0,1917.0,2461.0,2306.0,2025-07-04 15:45:46,67.0,,0.0488489619240618,-1.36455698681482,0.0966035574944659,,-3.5423008404780445,,
,8934.0,1544.0,4939.0,1693.0,1920.0,2459.0,2316.0,2025-07-04 15:45:47,67.0,,0.0488488943922655,-1.36482011077156,0.0966001902465402,,-3.529566675264442,,
,8937.0,1543.0,4940.0,1693.0,1916.0,2472.0,2319.0,2025-07-04 15:45:48,67.0,,0.0488715414145256,-1.36541050569077,0.0965685718390991,,-3.522308868290598,,
,8938.0,1545.0,4944.0,1694.0,1916.0,2467.0,2319.0,2025-07-04 15:45:49,68.0,,0.0488283218565737,-1.36494046431932,0.0965734983968149,,-3.5239643049634273,,
,8941.0,1547.0,4946.0,1696.0,1922.0,2469.0,2290.0,2025-07-04 15:45:50,67.0,,0.0488254048513893,-1.36521366849962,0.0965841728991403,,-3.537212986991996,,
,8943.0,1547.0,4945.0,1696.0,1918.0,2484.0,2291.0,2025-07-04 15:45:51,67.0,,0.0488241535541988,-1.36525348681414,0.0965835485689613,,-3.5634704850707872,,
,8944.0,1549.0,4946.0,1697.0,1918.0,2477.0,2280.0,2025-07-04 15:45:52,67.0,,0.0488062856169366,-1.36529230177415,0.0965623585391517,,-3.6024367160532345,,
,8947.0,1552.0,4949.0,1698.0,1921.0,2466.0,2272.0,2025-07-04 15:45:53,67.0,,0.048790098293564,-1.36586765316621,0.0965711707793864,,-3.6517532504658625,,
,8945.0,1551.0,4948.0,1698.0,1920.0,2461.0,2295.0,2025-07-04 15:45:54,67.0,,0.0488087639253046,-1.36593842784927,0.0965444077452079,,-3.7068142435511557,,
,8946.0,1547.0,4950.0,1700.0,1922.0,2462.0,2295.0,2025-07-04 15:45:55,68.0,,0.0487801743310693,-1.36571178893373,0.0965553902361839,,-3.760764656884973,,
,8945.0,1545.0,4953.0,1702.0,1923.0,2464.0,2294.0,2025-07-04 15:45:56,68.0,,0.0488007682023142,-1.36597781580596,0.0965523058689751,,-3.8047043031883283,,
,8937.0,1540.0,4952.0,1703.0,1926.0,2467.0,2313.0,2025-07-04 15:45:57,68.0,,0.0487768938847767,-1.36596940934737,0.0965287536870049,,-3.828098139774514,,
,8931.0,1527.0,4952.0,1701.0,1920.0,2459.0,2336.0,2025-07-04 15:45:58,68.0,,0.0487472489522962,-1.36584229747481,0.0965510513446868,,-3.8193730532767116,,
,8913.0,1518.0,4947.0,1697.0,1914.0,2453.0,2316.0,2025-07-04 15:45:59,68.0,,0.0487430346426947,-1.36646956584521,0.0965457321820649,,-3.7666602814251466,,
,8895.0,1508.0,4943.0,1699.0,1912.0,2463.0,2313.0,2025-07-04 15:46:00,69.0,,0.0487382665185088,-1.3670193567049,0.0965615482816396,,-3.6586224647585794,,
,8878.0,1498.0,4936.0,1695.0,1916.0,2472.0,2322.0,2025-07-04 15:46:01,69.0,,0.0487418831652184,-1.36604284515905,0.0965556086066189,,-3.4852882581937545,,
,8858.0,1491.0,4931.0,1695.0,1918.0,2475.0,2313.0,2025-07-04 15:46:02,69.0,,0.0487678153925116,-1.36603117406781,0.0965569205246692,,-3.2388097368883635,,
,8842.0,1481.0,4922.0,1692.0,1922.0,2463.0,2290.0,2025-07-04 15:46:03,70.0,,0.0487931726870354,-1.36619726062555,0.0965652093670295,,-2.9140623425517242,,
,8829.0,1478.0,4916.0,1689.0,1924.0,2469.0,2292.0,2025-07-04 15:46:04,71.0,,0.0487372118130438,-1.36566894257596,0.0965630904375543,,-2.509025057633557,,
,8812.0,1470.0,4907.0,1684.0,1919.0,2460.0,2306.0,2025-07-04 15:46:05,72.0,,0.0487766308466528,-1.3655516065968,0.0965715754299601,,-2.024907357234274,,
,8796.0,1463.0,4901.0,1679.0,1920.0,2459.0,2313.0,2025-07-04 15:46:06,73.0,,0.0488211909175171,-1.36505851531796,0.0965985692725784,,-1.4660237583781666,,
,8785.0,1461.0,4892.0,1679.0,1918.0,2461.0,2333.0,2025-07-04 15:46:07,73.0,,0.0488234872388167,-1.36479324906867,0.0965968268081152,,-0.8394498154450856,,
,8777.0,1456.0,4885.0,1677.0,1915.0,2464.0,2347.0,2025-07-04 15:46:08,72.0,,0.0488505798805617,-1.36438117583981,0.0965769868536135,,-0.15451926097235805,,
,8767.0,1451.0,4879.0,1672.0,1918.0,2465.0,2317.0,2025-07-04 15:46:09,71.0,,0.0488622420218905,-1.36450615343241,0.0965909846234855,,0.5777633591000371,,
,8758.0,1452.0,4871.0,1668.0,1918.0,2467.0,2299.0,2025-07-04 15:46:10,70.0,,0.0488609788192122,-1.36436040601422,0.0966141653605972,,1.3453182700604023,,
,8758.0,1449.0,4866.0,1666.0,1919.0,2475.0,2298.0,2025-07-04 15:46:11,69.0,,0.0488796045174522,-1.36383507300758,0.096604210228864,,2.135527715983914,,
,8755.0,1447.0,4862.0,1663.0,1918.0,2470.0,2328.0,2025-07-04 15:46:12,69.0,,0.0488889546071239,-1.36351799087554,0.0966213913291694,,2.9356666785183165,,
,8756.0,1451.0,4863.0,1662.0,1915.0,2473.0,2309.0,2025-07-04 15:46:13,70.0,,0.0489187605307001,-1.36363742754377,0.0966141790220525,,3.733201899450118,,
,8752.0,1449.0,4858.0,1658.0,1915.0,2477.0,2295.0,2025-07-04 15:46:14,69.0,,0.048907963947934,-1.36369703766381,0.0966186663741555,,4.51595774507049,,
,8751.0,1446.0,4856.0,1656.0,1927.0,2465.0,2320.0,2025-07-04 15:46:15,69.0,,0.0489251582914499,-1.363486370599,0.0966049474794827,,5.272168445400281,,
,8752.0,1450.0,4854.0,1656.0,1922.0,2467.0,2291.0,2025-07-04 15:46:16,68.0,,0.0489163681387353,-1.3634563593517,0.096615516950678,,5.9904521216962054,,
,8758.0,1451.0,4853.0,1655.0,1920.0,2462.0,2292.0,2025-07-04 15:46:17,67.0,,0.0489285510581242,-1.36359408115289,0.0966336302849372,,6.659751633324236,,
,8758.0,1452.0,4849.0,1655.0,1917.0,2461.0,2296.0,2025-07-04 15:46:18,66.0,,0.0489455158870858,-1.36334343666432,0.096639700463061,,7.269290596748409,,
,8762.0,1452.0,4849.0,1652.0,1923.0,2464.0,2290.0,2025-07-04 15:46:19,65.0,,0.0489778077243717,-1.36314525171531,0.0966351257739381,,7.808590388438139,,
,8764.0,1453.0,4849.0,1653.0,1921.0,2466.0,2298.0,2025-07-04 15:46:20,64.0,,0.0490387573785907,-1.36267141227635,0.0966191463907462,,8.267585696503494,,
,8765.0,1455.0,4847.0,1654.0,1917.0,2463.0,2279.0,2025-07-04 15:46:21,64.0,,0.048976903534674,-1.36281495432991,0.0966257488334551,,8.636861947081593,,
,8770.0,1453.0,4848.0,1656.0,1922.0,2462.0,2289.0,2025-07-04 15:46:22,64.0,,0.0489556714342151,-1.36268662034127,0.0966428556816256,,8.90801778483744,,
,8772.0,1455.0,4848.0,1652.0,1924.0,2463.0,2292.0,2025-07-04 15:46:23,63.0,,0.0489816979417899,-1.3623954761199,0.0966550951183597,,9.074131473714573,,
,8778.0,1456.0,4849.0,1654.0,1921.0,2459.0,2307.0,2025-07-04 15:46:24,63.0,,0.0489860779242268,-1.3621463359865,0.0966515917160461,,9.130285511413849,,
,8783.0,1458.0,4851.0,1653.0,1920.0,2453.0,2313.0,2025-07-04 15:46:25,63.0,,0.0490588569370759,-1.36223105247499,0.0966481125653685,,9.07408409368229,,
,8786.0,1460.0,4853.0,1655.0,1918.0,2454.0,2300.0,2025-07-04 15:46:26,63.0,,0.0490653529789736,-1.36208154485486,0.0966682994920602,,8.906088170729914,,
,8789.0,1460.0,4852.0,1655.0,1920.0,2456.0,2306.0,2025-07-04 15:46:27,64.0,,0.0490063726653801,-1.36233441926778,0.0966689870631619,,8.630095880252723,,
,8792.0,1462.0,4849.0,1654.0,1919.0,2475.0,2335.0,2025-07-04 15:46:28,65.0,,0.0490468574317568,-1.36174635435329,0.0966643971688377,,8.253212692730447,,
,8798.0,1464.0,4854.0,1657.0,1923.0,2462.0,2295.0,2025-07-04 15:46:29,66.0,,0.0490370380311558,-1.36141886421567,0.0966773204569279,,7.785683040404007,,
,8802.0,1464.0,4855.0,1656.0,1924.0,2461.0,2288.0,2025-07-04 15:46:30,67.0,,0.049055403855003,-1.36154687401752,0.0966774584332096,,7.2404878294801795,,
,8806.0,1464.0,4857.0,1656.0,1924.0,2464.0,2282.0,2025-07-04 15:46:31,67.0,,0.04911227479083,-1.36105597346031,0.096695788797398,,6.632742782015722,,
,8806.0,1467.0,4856.0,1655.0,1919.0,2455.0,2304.0,2025-07-04 15:46:32,67.0,,0.0490814717523268,-1.36103478911484,0.0967130315484614,,5.978954736465828,,
,8808.0,1465.0,4857.0,1656.0,1921.0,2451.0,2304.0,,,,0.0490825365037461,-1.36067989289051,0.0966877368904896,,5.296203762938905,,
,8810.0,1465.0,4859.0,1659.0,1919.0,2463.0,2285.0,,,,0.049092795031857,-1.36052538269121,0.0967239267405551,,4.601318788888926,,
,8811.0,1466.0,4859.0,1660.0,1921.0,2458.0,2300.0,,,,0.049144797011764,-1.36043633948047,0.0967090767365451,,3.910106410508518,,
,8810.0,1463.0,4862.0,1659.0,1921.0,2473.0,2317.0,,,,0.0491521532467289,-1.36001293049241,0.0967202841691599,,3.2366804942533975,,
,8809.0,1463.0,4858.0,1657.0,1917.0,2464.0,2330.0,,,,0.0491614728922488,-1.35982299035428,0.0967375936359192,,2.5929273761097487,,
,8808.0,1463.0,4860.0,1657.0,1917.0,2469.0,2313.0,,,,0.0492035949569483,-1.359138890512,0.096738451257457,,1.9881299375352637,,
,8807.0,1463.0,4857.0,1657.0,1918.0,2467.0,2309.0,,,,0.049191863902943,-1.35905741550678,0.0967622526202849,,1.428763777310258,,
,8807.0,1463.0,4859.0,1660.0,1914.0,2464.0,2322.0,,,,0.0491392463843369,-1.3589076585717,0.0967523076555151,,0.9184689289224893,,
,8803.0,1458.0,4856.0,1656.0,1916.0,2468.0,2316.0,,,,0.0492221029194852,-1.35866552742079,0.0967636017795817,,0.4581899571186265,,
,8801.0,1456.0,4857.0,1660.0,1919.0,2460.0,2293.0,,,,0.0492157079703125,-1.35864048564304,0.0967751761975241,,0.0464660162801605,,
,8800.0,1456.0,4856.0,1659.0,1920.0,2455.0,2302.0,,,,0.0492886503163131,-1.35843099524481,0.0967691343903067,,-0.32015788647056714,,
,8797.0,1455.0,4853.0,1659.0,1920.0,2453.0,2305.0,,,,0.0492709510965749,-1.3584079618166,0.0967616917757286,,-0.6466347943117192,,
,8799.0,1453.0,4854.0,1656.0,1916.0,2461.0,2308.0,,,,0.0493444283605535,-1.35794315989654,0.0967860996865978,,-0.9388750369853706,,
,8798.0,1456.0,4855.0,1658.0,1921.0,2460.0,2315.0,,,,0.0493844693276408,-1.35792530145174,0.0967716644736053,,-1.2032008591008858,,
,8796.0,1454.0,4855.0,1658.0,1920.0,2466.0,2309.0,,,,0.0494392600689462,-1.3574023962397,0.0967901796410157,,-1.4458330928697876,,
,8797.0,1454.0,4852.0,1659.0,1921.0,2460.0,2319.0,,,,0.0494105333183414,-1.35660078291944,0.0968034367365079,,-1.6724407087553375,,
,8797.0,1453.0,4850.0,1655.0,1918.0,2458.0,2309.0,,,,0.0494632443597819,-1.35662682571477,0.0967973120155499,,-1.887776831222336,,
,8797.0,1455.0,4852.0,1657.0,1922.0,2458.0,2317.0,,,,0.0494406882182553,-1.35626031275249,0.0968223774137021,,-2.09541713362299,,
,8800.0,1457.0,4852.0,1659.0,1925.0,2455.0,2304.0,,,,0.0494690007542066,-1.35641760717413,0.096798699921595,,-2.2976092423816956,,
,8800.0,1455.0,4852.0,1656.0,1921.0,2455.0,2310.0,,,,0.0495304238698985,-1.35613369401222,0.0968287751842524,,-2.4952353291786467,,
,8803.0,1456.0,4853.0,1659.0,1919.0,2454.0,2301.0,,,,0.049546995119696,-1.35569733031596,0.0968133161699837,,-2.68788449390773,,
,8805.0,1457.0,4852.0,1654.0,1917.0,2464.0,2297.0,,,,0.0495377476116863,-1.35550038780847,0.0968325096660939,,-2.8740265193062373,,
,8809.0,1457.0,4852.0,1658.0,1917.0,2459.0,2296.0,,,,0.0495433313238167,-1.35518599220498,0.0968369494242829,,-3.051273478723951,,
,8811.0,1460.0,4854.0,1657.0,1924.0,2459.0,2291.0,,,,0.0495555246311635,-1.3556252932218,0.096826440195375,,-3.2167098002351873,,
,8815.0,1461.0,4854.0,1659.0,1923.0,2458.0,2302.0,,,,0.0495219057984327,-1.35545697330811,0.0968282803342305,,-3.367264518722814,,
,8817.0,1460.0,4856.0,1661.0,1928.0,2456.0,2316.0,,,,0.0495003472045487,-1.35511729346593,0.0968248702845003,,-3.5000925630993995,,
,8822.0,1465.0,4857.0,1661.0,1929.0,2471.0,2308.0,,,,0.0495181812507818,-1.35496597929494,0.0968387791884563,,-3.612927413665895,,
,8827.0,1466.0,4859.0,1660.0,1927.0,2465.0,2307.0,,,,0.0495055814200138,-1.35486158628408,0.0968352974981462,,-3.7043681225381024,,
,8829.0,1467.0,4859.0,1662.0,1921.0,2464.0,2297.0,,,,0.0494704239249641,-1.35457816429609,0.0968443244779059,,-3.7740709093781097,,
,8832.0,1468.0,4858.0,1661.0,1922.0,2458.0,2305.0,,,,0.0495385512148928,-1.35458570764829,0.0968563082514759,,-3.8228281637176855,,
,8834.0,1470.0,4861.0,1661.0,1924.0,2463.0,2308.0,,,,0.0495108872310766,-1.35438996748282,0.0968296404278787,,-3.8525325279017673,,
,8838.0,1470.0,4863.0,1664.0,1923.0,2456.0,2315.0,,,,0.0495198451652325,-1.35438552368333,0.096847510776745,,-3.866037291752814,,
,8844.0,1472.0,4863.0,1666.0,1921.0,2457.0,2308.0,,,,0.0494818663012155,-1.35453971057674,0.0968468508919642,,-3.8669342552392916,,
,8845.0,1472.0,4866.0,1667.0,1926.0,2466.0,2309.0,,,,0.0495252139111265,-1.35452145213124,0.0968415963263755,,-3.859275819569562,,
,8849.0,1476.0,4867.0,1664.0,1923.0,2461.0,2297.0,,,,0.04952166750968,-1.35449157216057,0.0968342863745147,,-3.8472698987990337,,
,8853.0,1477.0,4868.0,1664.0,1921.0,2460.0,2296.0,,,,0.0494710916995483,-1.35466395812515,0.0968341045958425,,-3.8349753548129453,,
,8858.0,1480.0,4870.0,1667.0,1921.0,2464.0,2276.0,,,,0.0494406552057673,-1.35486296918867,0.0968305625600478,,-3.8260230734294978,,
,8861.0,1481.0,4871.0,1670.0,1921.0,2465.0,2277.0,,,,0.0494601491806867,-1.35518053074462,0.0968210111303779,,-3.8233842814597216,,
,8862.0,1481.0,4873.0,1669.0,1919.0,2467.0,2296.0,,,,0.0494412612635047,-1.35511044034008,0.0968166038504462,,-3.8292036655329764,,
,8867.0,1484.0,4876.0,1668.0,1918.0,2460.0,2313.0,,,,0.0494325773643523,-1.35515873338345,0.0968159405532314,,-3.8447103557232456,,
,8867.0,1487.0,4875.0,1669.0,1922.0,2460.0,2298.0,,,,0.049416989335355,-1.3556440143634,0.096813462282251,,-3.870214665937804,,
,8868.0,1488.0,4878.0,1671.0,1921.0,2465.0,2310.0,,,,0.0494255618834995,-1.35495694380034,0.0968098920485844,,-3.9051922400449155,,
,8871.0,1490.0,4882.0,1671.0,1920.0,2463.0,2296.0,,,,0.0494316953558962,-1.35516711218665,0.0968054864412428,,-3.9484495246944253,,
,8875.0,1488.0,4880.0,1673.0,1918.0,2450.0,2309.0,,,,0.0494376646367378,-1.35583810918352,0.0967973559632141,,-3.9983551695078505,,
,8879.0,1490.0,4884.0,1675.0,1917.0,2455.0,2320.0,,,,0.0494235917550331,-1.35586732454386,0.0967953503497333,,-4.053111667301744,,
,8881.0,1493.0,4884.0,1676.0,1919.0,2459.0,2320.0,,,,0.049392073752049,-1.35487830964031,0.096790982437977,,-4.11103203333164,,
,8884.0,1493.0,4887.0,1674.0,1918.0,2448.0,2332.0,,,,0.049387951767649,-1.3557224122198,0.0967908802768854,,-4.170780383731882,,
,8886.0,1493.0,4888.0,1677.0,1925.0,2463.0,2306.0,,,,0.0493650064442248,-1.3557598080952,0.0967911734847007,,-4.231535763453198,,
,8889.0,1497.0,4890.0,1681.0,1922.0,2473.0,2302.0,,,,0.0494263458435694,-1.35511740043882,0.0967762934340878,,-4.293046775795614,,
,8888.0,1497.0,4893.0,1681.0,1923.0,2462.0,2324.0,,,,0.049342291869759,-1.35559203700504,0.096778524021672,,-4.355559254978343,,
,8891.0,1499.0,4896.0,1678.0,1912.0,2461.0,2331.0,,,,0.0493126722175906,-1.35529083379109,0.0967849345956422,,-4.41961728486439,,
,8892.0,1498.0,4894.0,1681.0,1918.0,2463.0,2314.0,,,,0.0493803983281133,-1.35517111698205,0.0967955896924312,,-4.4857558437132266,,
,8896.0,1500.0,4897.0,1682.0,1922.0,2457.0,2304.0,,,,0.0493649113562252,-1.35519103123031,0.0967772883880686,,-4.5541186411537655,,
,8899.0,1503.0,4900.0,1683.0,1923.0,2465.0,2318.0,,,,0.0494144525919726,-1.3550422597645,0.0967862176581542,,-4.624045789746812,,
,8900.0,1502.0,4902.0,1683.0,1921.0,2465.0,2309.0,,,,0.0494344518193298,-1.35520591535902,0.0967854367789972,,-4.6936820364921035,,
,8901.0,1503.0,4899.0,1685.0,1919.0,2471.0,2314.0,,,,0.0493710248550048,-1.35519598275943,0.0967868228478467,,-4.759657043453752,,
,8903.0,1505.0,4902.0,1684.0,1916.0,2464.0,2318.0,,,,0.0494649862583907,-1.35557666736321,0.0968013224251237,,-4.816884756833962,,
,8906.0,1505.0,4907.0,1685.0,1914.0,2462.0,2333.0,,,,0.049389298473634,-1.35537905616815,0.0967718065129589,,-4.858519722493718,,
,8908.0,1505.0,4906.0,1688.0,1920.0,2462.0,2326.0,,,,0.0494058661691379,-1.3554673523838,0.0967863174654337,,-4.876094952290609,,
,8908.0,1505.0,4905.0,1685.0,1924.0,2466.0,2313.0,,,,0.049368222129656,-1.35528276309484,0.0967756641227676,,-4.8598493795251825,,
,8909.0,1507.0,4910.0,1689.0,1925.0,2470.0,2305.0,,,,0.0493638046646567,-1.35587869512318,0.0967711842524508,,-4.7992340837567244,,
,8911.0,1511.0,4911.0,1689.0,1921.0,2467.0,2340.0,,,,0.0492983976363771,-1.35621860457314,0.0967424749083911,,-4.6835667151915095,,
,8915.0,1511.0,4912.0,1690.0,1922.0,2471.0,2334.0,,,,0.0491821097715532,-1.35818244348051,0.0967181935986085,,-4.50278459111034,,
,8917.0,1513.0,4915.0,1691.0,1920.0,2470.0,2296.0,,,,0.0491492972241173,-1.35912906162574,0.0966849391058623,,-4.248230639328099,,
,8915.0,1513.0,4917.0,1691.0,1923.0,2462.0,2297.0,,,,0.0489978657194147,-1.35979844530511,0.0966490587910601,,-3.913394911775307,,
,8919.0,1514.0,4919.0,1695.0,1915.0,2455.0,2283.0,,,,0.0490757571468842,-1.36092033572498,0.0966384366331993,,-3.4945305530171376,,
,8920.0,1519.0,4917.0,1693.0,1916.0,2470.0,2288.0,,,,0.0490464145121981,-1.36151042593911,0.096637483242297,,-2.9910700392753533,,
,8922.0,1517.0,4923.0,1697.0,1917.0,2475.0,2303.0,,,,0.0490749320408942,-1.3610321242439,0.0966413656312589,,-2.4057873713932283,,
,8925.0,1517.0,4921.0,1693.0,1921.0,2468.0,2273.0,,,,0.0490068709900932,-1.36134939083362,0.0966314815466324,,-1.744683659183684,,
,8928.0,1519.0,4921.0,1696.0,1924.0,2461.0,2295.0,,,,0.049017176138139,-1.36149717682001,0.0966167117209462,,-1.0166116965069587,,
,8930.0,1520.0,4924.0,1697.0,1917.0,2456.0,2295.0,,,,0.0489571399677867,-1.36210400462879,0.0965956433713774,,-0.23269129683912565,,
,8932.0,1523.0,4928.0,1699.0,1919.0,2459.0,2305.0,,,,0.048927224529307,-1.36210995719224,0.0966014592637395,,0.5944064883755469,,
,8931.0,1523.0,4930.0,1700.0,1919.0,2470.0,2318.0,,,,0.0488840052674515,-1.36299601921018,0.0965896252357508,,1.4512159582764248,,
,8934.0,1524.0,4930.0,1699.0,1920.0,2460.0,2325.0,,,,0.0488761154438033,-1.36302159380696,0.0965939158996495,,2.324186082178075,,
,8938.0,1528.0,4933.0,1702.0,1918.0,2467.0,2326.0,,,,0.0488807331210458,-1.36301301383417,0.0965834818845746,,3.200268607619377,,
,8939.0,1528.0,4932.0,1703.0,1923.0,2463.0,2326.0,,,,0.0488167861743834,-1.36350670607529,0.0965712081979201,,4.067333497458145,,
2025-07-04 15:43:35,8939.0,1529.0,4934.0,1702.0,1923.0,2465.0,2330.0,,,2025/07/04 03:43:35 PM,0.0488390657124892,-1.36378815103416,0.0965633235859186,,4.914387492885982,,
,8938.0,1528.0,4936.0,1702.0,1921.0,2465.0,2324.0,,,,0.048850207732957,-1.36386214235156,0.0965730232698723,,5.731600103752133,,
,8938.0,1529.0,4936.0,1706.0,1920.0,2462.0,2307.0,,,,0.0487968826909645,-1.36441514457009,0.0965366718499012,,6.510167493747875,,
,8931.0,1520.0,4936.0,1703.0,1921.0,2463.0,2302.0,,,,0.0487975010934646,-1.36453282430127,0.0965395500180786,,7.242065208446294,,
,8921.0,1510.0,4937.0,1704.0,1922.0,2468.0,2295.0,,,,0.0487861576265014,-1.36441896474696,0.0965353512213874,,7.9197530411320445,,
,8906.0,1501.0,4931.0,1702.0,1918.0,2463.0,2312.0,,,,0.0487771667275528,-1.36466702074058,0.0965279057087989,,8.535898566677869,,
,8887.0,1493.0,4928.0,1702.0,1920.0,2455.0,2314.0,,,,0.0488075930236224,-1.36456664302548,0.0965074513174143,,9.08318052035352,,
,8870.0,1480.0,4921.0,1700.0,1918.0,2462.0,2291.0,,,,0.0488143768749144,-1.36464657116497,0.0964994961240806,,9.55422066292364,,
,8851.0,1474.0,4913.0,1696.0,1914.0,2461.0,2297.0,,,,0.0487855433688041,-1.3650693806732,0.0965088706926135,,9.941674495862397,,
,8839.0,1466.0,4907.0,1694.0,1919.0,2460.0,2311.0,,,,0.0487851182622267,-1.36563300600004,0.0965053152723279,,10.238488326964815,,
,8824.0,1461.0,4903.0,1692.0,1918.0,2458.0,2315.0,,,,0.0488403354854944,-1.36543443145891,0.0964974102448798,,10.43830429938252,,
,8811.0,1457.0,4892.0,1688.0,1915.0,2453.0,2302.0,,,,0.048798241107029,-1.36489520531598,0.0965067234748382,,10.535969141690249,,
,8796.0,1449.0,4884.0,1684.0,1912.0,2457.0,2301.0,,,,0.0488503730392657,-1.36438359724084,0.0965249985591636,,10.528081239644782,,
,8782.0,1445.0,4875.0,1681.0,1915.0,2455.0,2311.0,,,,0.0488615444549272,-1.36453924542753,0.0965582698940366,,10.41349911226051,,
,8771.0,1444.0,4869.0,1676.0,1918.0,2461.0,2296.0,,,,0.048848621763553,-1.36416599324571,0.0965403390840472,,10.193735830695312,,
,8766.0,1440.0,4864.0,1676.0,1920.0,2467.0,2291.0,,,,0.0488953688267753,-1.36452707997245,0.0965401026516314,,9.873178714845276,,
,8758.0,1437.0,4859.0,1674.0,1918.0,2464.0,2300.0,,,,0.0488605182968278,-1.36470110403543,0.0965314420126909,,9.45909878347492,,
,8750.0,1438.0,4851.0,1668.0,1923.0,2462.0,2337.0,,,,0.0488505494821746,-1.36472401234588,0.0965528626778105,,8.961444262236089,,
,8748.0,1436.0,4849.0,1665.0,1922.0,2468.0,2323.0,,,,0.0489018100037464,-1.3642404564177,0.0965608762633993,,8.392440350569839,,
,8746.0,1434.0,4843.0,1662.0,1919.0,2468.0,2295.0,,,,0.0489004938392785,-1.36417038473126,0.0965530530854865,,7.766037992830143,,
,8746.0,1432.0,4842.0,1662.0,1918.0,2472.0,2295.0,,,,0.0489299772897985,-1.36463678865057,0.0965569656709929,,7.097265028246907,,
,8749.0,1437.0,4840.0,1661.0,1913.0,2480.0,2301.0,,,,0.0489328700687499,-1.36393079157745,0.0965560419236622,,6.401534428605168,,
,8748.0,1433.0,4838.0,1660.0,1917.0,2465.0,2307.0,,,,0.048889770458089,-1.36408324058916,0.0965337003707391,,5.693959175220166,,
,8748.0,1436.0,4838.0,1661.0,1914.0,2464.0,2295.0,,,,0.0489358160857679,-1.36449713448028,0.0965423222662722,,4.988715113022252,,
,8753.0,1438.0,4837.0,1657.0,1917.0,2460.0,2301.0,,,,0.0488399980470304,-1.36433390252672,0.0965431875993052,,4.298484649683332,,
,8755.0,1438.0,4837.0,1659.0,1919.0,2459.0,2312.0,,,,0.0488231892981398,-1.36427643686025,0.0965368736355103,,3.6340069559376773,,
,8757.0,1436.0,4834.0,1656.0,1923.0,2458.0,2303.0,,,,0.0487730719159221,-1.36453534399028,0.0965243241867449,,3.0037543915412965,,
,8761.0,1439.0,4834.0,1658.0,1919.0,2459.0,2307.0,,,,0.0488171654977339,-1.36493572756586,0.0965365018772892,,2.4137489655774678,,
,8766.0,1441.0,4836.0,1657.0,1920.0,2467.0,2294.0,,,,0.0488368260983408,-1.3643888762569,0.0965473915159942,,1.8675251336050842,,
,8770.0,1440.0,4835.0,1658.0,1920.0,2477.0,2295.0,,,,0.0487878222129189,-1.36443702741655,0.0965465029699396,,1.366235611177473,,
,8771.0,1441.0,4834.0,1655.0,1919.0,2469.0,2317.0,,,,0.0488252948248644,-1.36444755717669,0.0965315733969362,,0.9088863713558666,,
,8773.0,1442.0,4835.0,1657.0,1918.0,2461.0,2307.0,,,,0.0488559791265734,-1.36418126623221,0.0965695261509752,,0.4926777943125137,,
,8776.0,1443.0,4837.0,1657.0,1923.0,2467.0,2335.0,,,,0.0488609792783339,-1.36417700847568,0.0965493722384161,,0.11342281857646243,,
,8783.0,1447.0,4838.0,1658.0,1920.0,2462.0,2325.0,,,,0.0488312185938194,-1.36413955160203,0.0965642520722844,,-0.2339895851055723,,
,8785.0,1445.0,4837.0,1658.0,1919.0,2466.0,2329.0,,,,0.048849206099652,-1.36462115253651,0.0965558553010654,,-0.5551168758141402,,
,8789.0,1447.0,4840.0,1657.0,1920.0,2462.0,2321.0,,,,0.0488953357771478,-1.36422052718437,0.0965644141057052,,-0.8555003562967329,,
,8797.0,1449.0,4840.0,1656.0,1917.0,2469.0,2306.0,,,,0.0489174828138563,-1.3640913516495,0.0965676397353051,,-1.1402434758294835,,
,8799.0,1451.0,4845.0,1660.0,1916.0,2464.0,2297.0,,,,0.0489042453050564,-1.36349196375273,0.0965866360181417,,-1.4136536296459479,,
,8800.0,1450.0,4844.0,1659.0,1916.0,2458.0,2292.0,,,,0.0489200675843911,-1.36309622561779,0.0966082762630827,,-1.6789666735731281,,
,8802.0,1449.0,4846.0,1658.0,1914.0,2456.0,2318.0,,,,0.0489310465688307,-1.36314517960931,0.0965837242672968,,-1.9381697959463957,,
,8801.0,1450.0,4847.0,1662.0,1915.0,2468.0,2318.0,,,,0.0489424187559559,-1.36274103238605,0.0966090299010067,,-2.1919342344125003,,
,8803.0,1450.0,4846.0,1662.0,1921.0,2462.0,2305.0,,,,0.0489337739542179,-1.36265935428537,0.0966219775542111,,-2.43966397760253,,
,8805.0,1452.0,4846.0,1660.0,1920.0,2461.0,2304.0,,,,0.04897963994963,-1.36197089525008,0.0966157545216166,,-2.679659329320123,,
,8802.0,1449.0,4846.0,1659.0,1920.0,2458.0,2315.0,,,,0.0489730170240342,-1.3620188526974,0.0966276434354931,,-2.9093845812811807,,
,8803.0,1447.0,4846.0,1663.0,1917.0,2471.0,2304.0,,,,0.0489674229539041,-1.36201351433059,0.0966179824868904,,-3.1258174968165506,,
,8809.0,1449.0,4847.0,1661.0,1919.0,2476.0,2306.0,,,,0.0489705608021797,-1.36203055996495,0.0966270201721006,,-3.3258467897362047,,
,8803.0,1447.0,4847.0,1661.0,1920.0,2475.0,2312.0,,,,0.0489512047444897,-1.36198854155504,0.0966206238950732,,-3.5066754498588155,,
,8801.0,1445.0,4846.0,1661.0,1918.0,2463.0,2310.0,,,,0.0489352982278137,-1.36243501674233,0.096633777480083,,-3.6661855354162225,,
,8799.0,1446.0,4845.0,1660.0,1920.0,2466.0,2301.0,,,,0.048936421892013,-1.36242670609474,0.0966254510817907,,-3.8032248993449693,,
,8799.0,1442.0,4845.0,1662.0,1921.0,2461.0,2323.0,,,,0.0488921540642044,-1.36204796151131,0.0966269386266301,,-3.917786858636641,,
,8800.0,1443.0,4849.0,1662.0,1926.0,2466.0,2332.0,,,,0.0489420582295988,-1.36235506356718,0.096616645659885,,-4.0110673373907835,,
,8799.0,1442.0,4845.0,1662.0,1924.0,2468.0,2310.0,,,,0.0488848395396641,-1.36241476438099,0.0966074863816134,,-4.08539783900232,,
,8797.0,1440.0,4843.0,1660.0,1918.0,2462.0,2299.0,,,,0.0488761857660272,-1.36267893481887,0.0966236668112062,,-4.144064902805389,,
,8798.0,1442.0,4845.0,1662.0,1922.0,2459.0,2308.0,,,,0.0489188655263631,-1.36213816965416,0.0966189344490744,,-4.191036583168532,,
,8797.0,1439.0,4844.0,1663.0,1920.0,2461.0,2304.0,,,,0.0489221065487735,-1.36199901516528,0.0966237499675928,,-4.230623671394223,,
,8796.0,1441.0,4844.0,1661.0,1918.0,2453.0,2295.0,,,,0.048934594615799,-1.3623384047983,0.0966291690250215,,-4.267107862894968,,
,8801.0,1440.0,4841.0,1661.0,1919.0,2461.0,2320.0,,,,0.0489262314668861,-1.36220655250315,0.0966169779563023,,-4.304371018424429,,
,8802.0,1442.0,4845.0,1660.0,1922.0,2467.0,2297.0,,,,0.0489522273065502,-1.36234212675721,0.0966149554939287,,-4.345559376572566,,
,8805.0,1443.0,4845.0,1664.0,1920.0,2469.0,2300.0,,,,0.0490192334430051,-1.36240058951315,0.096604657635828,,-4.392814330113798,,
,8808.0,1445.0,4845.0,1664.0,1922.0,2464.0,2295.0,,,,0.0490084885936033,-1.36208305876178,0.0966138202462791,,-4.447097201215576,,
,8807.0,1443.0,4847.0,1663.0,1922.0,2459.0,2305.0,,,,0.0489967392790366,-1.36196285109999,0.0966127441628028,,-4.508128992712698,,
,8811.0,1447.0,4848.0,1665.0,1922.0,2453.0,2301.0,,,,0.0489457786011824,-1.36208343622215,0.0966226346172196,,-4.57445687815995,,
,8817.0,1447.0,4849.0,1664.0,1919.0,2465.0,2302.0,,,,0.0489603507471726,-1.36250153329811,0.0966171100162845,,-4.643647050642854,,
,8819.0,1450.0,4848.0,1665.0,1916.0,2468.0,2310.0,,,,0.0489115489946568,-1.36263618746542,0.0966052476749982,,-4.712589003629453,,
,8817.0,1449.0,4850.0,1664.0,1919.0,2472.0,2293.0,,,,0.0489085994269197,-1.36247721063656,0.0966301599737666,,-4.777880957188947,,
,8826.0,1454.0,4853.0,1666.0,1914.0,2486.0,2306.0,,,,0.0489352200694703,-1.36259497541079,0.096618596898821,,-4.836252855019061,,
,8829.0,1457.0,4856.0,1669.0,1919.0,2471.0,2344.0,,,,0.0489337250563536,-1.3630032200684,0.0966109924975785,,-4.884975675297891,,
,8831.0,1458.0,4855.0,1669.0,1917.0,2469.0,2326.0,,,,0.0488827054896235,-1.36292730630175,0.0966044667931627,,-4.9222061242719,,
,8835.0,1459.0,4857.0,1666.0,1916.0,2479.0,2311.0,,,,0.0489859837249233,-1.36320998755363,0.0966182756446897,,-4.947223889163837,,
,8840.0,1460.0,4857.0,1669.0,1917.0,2472.0,2299.0,,,,0.0489180481512814,-1.36268950004463,0.096592597140129,,-4.9605320029754285,,
,8847.0,1462.0,4861.0,1670.0,1915.0,2466.0,2314.0,,,,0.0489331825946719,-1.36318569846274,0.0965958284528934,,-4.96380643131358,,
,8850.0,1464.0,4863.0,1673.0,1917.0,2460.0,2321.0,,,,0.0488750844394049,-1.36379844386993,0.0965921607326999,,-4.959696453991497,,
,8852.0,1466.0,4862.0,1671.0,1919.0,2460.0,2317.0,,,,0.0489115011150339,-1.36394190304366,0.0965661320021515,,-4.951491561569251,,
,8856.0,1468.0,4865.0,1673.0,1919.0,2457.0,2316.0,,,,0.0488370976877768,-1.36421207794759,0.0965642538495865,,-4.942682813617991,,
,8858.0,1472.0,4868.0,1674.0,1917.0,2459.0,2305.0,,,,0.0488654347630296,-1.36467430336215,0.0965566830715775,,-4.936456523087374,,
,8862.0,1472.0,4868.0,1675.0,1917.0,2458.0,2316.0,,,,0.0488738676821684,-1.36443369861714,0.0965590123372043,,-4.93516544374113,,
,8867.0,1473.0,4871.0,1676.0,1919.0,2459.0,2322.0,,,,0.0488506668669126,-1.36488195769351,0.0965379483374321,,-4.939827065116739,,
,8868.0,1476.0,4874.0,1674.0,1917.0,2464.0,2314.0,,,,0.048806563139487,-1.36531414388181,0.0965393066045036,,-4.949699786431064,,
,8872.0,1478.0,4875.0,1677.0,1916.0,2463.0,2296.0,,,,0.0488221655983949,-1.3651194350087,0.09652155022577,,-4.961985181995628,,
,8873.0,1479.0,4876.0,1678.0,1918.0,2457.0,2326.0,,,,0.0488324299704263,-1.36545432514489,0.0965202434529328,,-4.971697824564004,,
,8879.0,1481.0,4881.0,1680.0,1920.0,2453.0,2316.0,,,,0.0488189677435529,-1.36584593323729,0.0965242797521331,,-4.971732798209761,,
,8881.0,1481.0,4881.0,1679.0,1915.0,2459.0,2312.0,,,,0.0488073082288664,-1.36653244922537,0.0964993840624702,,-4.953144902870701,,
,8885.0,1481.0,4883.0,1681.0,1921.0,2467.0,2313.0,,,,0.0488244106665345,-1.36589495577101,0.0965109802821158,,-4.905632961778964,,
,8886.0,1487.0,4883.0,1682.0,1919.0,2462.0,2329.0,,,,0.0487910359742679,-1.36601586587678,0.0965100692761897,,-4.818198922681273,,
,8890.0,1487.0,4886.0,1683.0,1920.0,2461.0,2330.0,,,,0.0488027446665206,-1.36606048174334,0.0964959256417374,,-4.6799273771013725,,
,8889.0,1487.0,4886.0,1684.0,1922.0,2461.0,2314.0,,,,0.0488084978870195,-1.36603655880886,0.0964989311817243,,-4.480811040051037,,
,8893.0,1488.0,4893.0,1683.0,1923.0,2468.0,2311.0,,,,0.0487532689540102,-1.36640168224659,0.0965076817758574,,-4.212536544858381,,
,8895.0,1489.0,4895.0,1687.0,1923.0,2464.0,2307.0,,,,0.0487837355337,-1.36669952073676,0.0964735955382762,,-3.8691461300054835,,
,8896.0,1491.0,4895.0,1686.0,1922.0,2466.0,2306.0,,,,0.0487693388224566,-1.36709206296023,0.0964935681938908,,-3.4475050636940425,,
,8903.0,1491.0,4895.0,1687.0,1922.0,2483.0,2314.0,,,,0.0487661024501101,-1.36703411919981,0.0964702482977208,,-2.947529810127886,,
,8903.0,1493.0,4895.0,1688.0,1918.0,2466.0,2336.0,,,,0.0487799767938059,-1.3668356345876,0.0964768516157175,,-2.3721639589141352,,
,8903.0,1497.0,4900.0,1690.0,1925.0,2467.0,2311.0,,,,0.0487472394681988,-1.36713415810548,0.0964709688414924,,-1.7271226075516337,,
,8908.0,1498.0,4903.0,1689.0,1922.0,2463.0,2297.0,,,,0.0487353247747993,-1.36774737566832,0.0964719453905265,,-1.0204554562437584,,
,8909.0,1498.0,4901.0,1691.0,1922.0,2465.0,2306.0,,,,0.0487545335086846,-1.36795032781235,0.0964661557790853,,-0.26199921697450784,,
,8911.0,1498.0,4905.0,1689.0,1923.0,2463.0,2294.0,,,,0.0486939863991881,-1.36861378628761,0.0964643169780748,,0.5372020198224203,,
,8912.0,1501.0,4904.0,1690.0,1917.0,2459.0,2303.0,,,,0.0486697323179042,-1.36856497293251,0.0964515280144244,,1.3654343237376045,,
,8914.0,1502.0,4908.0,1694.0,1918.0,2462.0,2293.0,,,,0.0486482946733768,-1.36909179951951,0.0964305023936574,,2.210750067421308,,
,8915.0,1503.0,4911.0,1696.0,1919.0,2467.0,2284.0,,,,0.0485822067374532,-1.36929035253772,0.0964187043816407,,3.0612649883906218,,
,8916.0,1503.0,4908.0,1692.0,1920.0,2467.0,2317.0,,,,0.0486084527264966,-1.3693245523818,0.0964020803658233,,3.9053031764906145,,
,8918.0,1505.0,4913.0,1696.0,1914.0,2468.0,2316.0,,,,0.0486004566954909,-1.36913332768007,0.0964067384513472,,4.731401711105004,,
,8920.0,1509.0,4916.0,1697.0,1916.0,2470.0,2326.0,,,,0.0485756539412243,-1.36953094438035,0.0963874046883134,,5.528209183674599,,
,8922.0,1508.0,4916.0,1699.0,1918.0,2472.0,2311.0,,,,0.0485541666639049,-1.36982980995501,0.0964086679743185,,6.284330812171564,,
,8924.0,1511.0,4918.0,1698.0,1921.0,2463.0,2303.0,,,,0.0485575029000075,-1.37005707175697,0.0963938386873454,,6.988185241726084,,
,8926.0,1510.0,4917.0,1698.0,1922.0,2470.0,2314.0,,,,0.0485871870938359,-1.37045657241403,0.0963818935724094,,7.627941945019134,,
,8930.0,1513.0,4921.0,1701.0,1921.0,2464.0,2301.0,,,,0.0485568299190407,-1.37067185260484,0.0963878611517911,,8.191600919699066,,
,8931.0,1515.0,4924.0,1702.0,1922.0,2470.0,2303.0,,,,0.048533163758048,-1.37081538576025,0.0963937402220534,,8.667256894385455,,
,8935.0,1515.0,4925.0,1704.0,1916.0,2474.0,2325.0,,,,0.0485409440684652,-1.37067865792637,0.0963795839314438,,9.043559982047293,,
,8933.0,1515.0,4925.0,1699.0,1919.0,2469.0,2325.0,,,,0.0485416905348013,-1.37071290148842,0.0963653519615864,,9.310348427332181,,
,8938.0,1520.0,4928.0,1702.0,1917.0,2468.0,2325.0,,,,0.0485242640058665,-1.37140578409026,0.0963444019556036,,9.459393704568015,,
,8942.0,1520.0,4929.0,1705.0,1919.0,2455.0,2315.0,,,,0.0485251058850197,-1.37124908860541,0.0963733568057877,,9.4851706712048,,
,8938.0,1522.0,4935.0,1706.0,1918.0,2454.0,2334.0,,,,0.0485266482191649,-1.37126431267835,0.0963621476619592,,9.385551035840594,,
,8942.0,1521.0,4934.0,1706.0,1910.0,2455.0,2331.0,,,,0.0485235093738142,-1.37133866750972,0.096348205684143,,9.1623200290417,,
,8944.0,1525.0,4937.0,1709.0,1914.0,2456.0,2319.0,,,,0.0485242041092856,-1.37153733654932,0.0963438961568377,,8.821434319830841,,
,8947.0,1529.0,4936.0,1709.0,1918.0,2459.0,2316.0,,,,0.0484910026888149,-1.37145771804336,0.0963537203079773,,8.372971381809482,,
,8952.0,1529.0,4940.0,1712.0,1919.0,2460.0,2329.0,,,,0.0484868554590262,-1.37143010484066,0.0963437776578821,,7.830760882237972,,
,8950.0,1528.0,4941.0,1706.0,1914.0,2462.0,2336.0,,,,0.0485275046398484,-1.37214050933231,0.0963231454287667,,7.211729087774397,,
,8950.0,1531.0,4941.0,1710.0,1921.0,2466.0,2324.0,,,,0.0484625360146257,-1.37255817956181,0.0963160276639115,,6.535019768223058,,
,8957.0,1534.0,4946.0,1710.0,1918.0,2460.0,2331.0,,,,0.0484358744830925,-1.37254579545477,0.0963091926448411,,5.8209746862770935,,
,8957.0,1534.0,4947.0,1713.0,1918.0,2463.0,2330.0,,,,0.0483583642227219,-1.37319824726423,0.0962934370290333,,5.090062791805619,,
,8958.0,1535.0,4949.0,1710.0,1914.0,2465.0,2316.0,,,,0.0483100785608244,-1.37307397239153,0.0962844322944663,,4.361842292149199,,
,8956.0,1532.0,4947.0,1711.0,1917.0,2465.0,2307.0,,,,0.0483033595412286,-1.37402957803507,0.096274074016281,,3.654027862389951,,
,8957.0,1535.0,4952.0,1714.0,1916.0,2458.0,2319.0,,,,0.0482746820574062,-1.37436874366292,0.0962705378285535,,2.9817202249203865,,
,8953.0,1530.0,4950.0,1715.0,1921.0,2457.0,2324.0,,,,0.0482956115363936,-1.37408186374534,0.0962598395614137,,2.3568396477867144,,
,8948.0,1521.0,4950.0,1713.0,1916.0,2478.0,2308.0,,,,0.0482277174688988,-1.37425887070542,0.0962628007270413,,1.7877891742734282,,
,8933.0,1508.0,4948.0,1714.0,1912.0,2469.0,2301.0,,,,0.0482006123700989,-1.3745480011722,0.0962494311232971,,1.2793569886363096,,
,8914.0,1498.0,4945.0,1715.0,1915.0,2465.0,2313.0,,,,0.0482057193741911,-1.37478457092696,0.096258339981737,,0.8328500573895262,,
,8896.0,1488.0,4941.0,1712.0,1918.0,2452.0,2324.0,,,,0.048170798725125,-1.3746587782849,0.09626230189573,,0.4464342908910637,,
,8875.0,1479.0,4932.0,1713.0,1921.0,2455.0,2321.0,,,,0.0481868423883545,-1.37541702514728,0.0962587537609554,,0.11564204850588206,,
2025-07-04 15:43:36,8858.0,1469.0,4924.0,1706.0,1920.0,2459.0,2324.0,,,2025/07/04 03:43:36 PM,0.0481723281831992,-1.37594203485666,0.0962447114962062,,-0.16600233524287014,,
,8843.0,1460.0,4918.0,1703.0,1922.0,2466.0,2310.0,,,,0.0481770796318705,-1.37559689996888,0.0962440202177994,,-0.4062933137966159,,
,8826.0,1456.0,4911.0,1701.0,1921.0,2459.0,2322.0,,,,0.0481479641398313,-1.37552552377709,0.0962448919374477,,-0.6136453126116134,,
,8810.0,1450.0,4900.0,1694.0,1921.0,2460.0,2317.0,,,,0.0480949248307016,-1.37555512229778,0.0962471145252899,,-0.7964337421507933,,
,8794.0,1443.0,4894.0,1691.0,1915.0,2459.0,2316.0,,,,0.0481174425740814,-1.37535829934544,0.0962302660478549,,-0.9624170457704584,,
,8783.0,1439.0,4886.0,1689.0,1915.0,2453.0,2316.0,,,,0.0480772800347917,-1.37554979147972,0.0962447317695816,,-1.1182706741541473,,
,8775.0,1434.0,4879.0,1684.0,1913.0,2460.0,2330.0,,,,0.0481122790337019,-1.37628506666023,0.0962325936552936,,-1.2692529025187422,,
,8764.0,1433.0,4872.0,1681.0,1911.0,2460.0,2326.0,,,,0.0481102992065471,-1.37589149349822,0.0962549523868862,,-1.4190119994483503,,
,8755.0,1429.0,4864.0,1678.0,1917.0,2470.0,2342.0,,,,0.0481404411874579,-1.37590259321844,0.0962413060921744,,-1.5695351189901645,,
,8751.0,1431.0,4861.0,1675.0,1915.0,2465.0,2355.0,,,,0.0481539020192534,-1.37621994829715,0.0962607095977807,,-1.7212314402743794,,
,8749.0,1429.0,4857.0,1672.0,1912.0,2460.0,2324.0,,,,0.0481649772734284,-1.37510999431475,0.0962446835568811,,-1.8731349991155088,,
,8748.0,1427.0,4851.0,1672.0,1915.0,2459.0,2315.0,,,,0.0481747569931703,-1.37521219478336,0.0962623633034854,,-2.023205706046566,,
,8745.0,1428.0,4850.0,1668.0,1924.0,2457.0,2315.0,,,,0.0482401352661595,-1.37490817251197,0.0962670708697655,,-2.1686999835264396,,
,8745.0,1427.0,4847.0,1667.0,1923.0,2460.0,2302.0,,,,0.0482526680266653,-1.37507541452133,0.0962733335203082,,-2.306575913687231,,
,8749.0,1428.0,4847.0,1666.0,1922.0,2462.0,2314.0,,,,0.0482400020831222,-1.37517798972745,0.0962719628320014,,-2.4338935355054043,,
,8750.0,1430.0,4845.0,1665.0,1919.0,2458.0,2308.0,,,,0.0482397026275098,-1.37517486708105,0.0962648598170985,,-2.548171308801968,,
,8751.0,1430.0,4843.0,1663.0,1915.0,2459.0,2316.0,,,,0.0482138848526121,-1.37507968240616,0.0962793659145044,,-2.647666121174678,,
,8753.0,1428.0,4841.0,1661.0,1911.0,2462.0,2289.0,,,,0.0481193529647853,-1.37496893775403,0.0962672091823253,,-2.731555608452332,,
,8758.0,1429.0,4841.0,1662.0,1915.0,2461.0,2273.0,,,,0.0482172108365103,-1.37518996633365,0.0962858956077491,,-2.800015109829001,,
,8758.0,1432.0,4842.0,1664.0,1918.0,2459.0,2289.0,,,,0.0482922836393632,-1.37534808226678,0.0962779401087872,,-2.8541941008992464,,
,8764.0,1432.0,4841.0,1663.0,1916.0,2464.0,2297.0,,,,0.0482784795270248,-1.37526280262596,0.0962725683382666,,-2.8961063427157145,,
,8765.0,1433.0,4843.0,1662.0,1916.0,2470.0,2304.0,,,,0.0483442145627512,-1.37468168631315,0.0962773849238475,,-2.928453573380211,,
,8767.0,1432.0,4843.0,1661.0,1919.0,2461.0,2291.0,,,,0.048334951812495,-1.37443733803174,0.0962721113192459,,-2.9544046472295196,,
,8769.0,1434.0,4843.0,1664.0,1920.0,2462.0,2325.0,,,,0.0483996086936568,-1.37445398589912,0.0962936371777489,,-2.977351329928304,,
,8773.0,1434.0,4841.0,1661.0,1922.0,2461.0,2320.0,,,,0.0483672575575322,-1.37419146181449,0.0962796478796914,,-3.0006594113553717,,
,8772.0,1436.0,4842.0,1662.0,1918.0,2469.0,2305.0,,,,0.0483650514274159,-1.37424527332571,0.096296302763486,,-3.0274304356733954,,
,8780.0,1438.0,4843.0,1662.0,1922.0,2463.0,2327.0,,,,0.048342731641349,-1.37401332243649,0.0963016012460509,,-3.0602861309686755,,
,8782.0,1439.0,4846.0,1663.0,1919.0,2459.0,2340.0,,,,0.0483925748174026,-1.37405429656593,0.0963014013280995,,-3.101185166832824,,
,8787.0,1440.0,4848.0,1663.0,1918.0,2456.0,2345.0,,,,0.0483969427779171,-1.37383491943688,0.0962986503044282,,-3.151280262246359,,
,8788.0,1439.0,4846.0,1663.0,1915.0,2478.0,2334.0,,,,0.0483652659752476,-1.37392968118878,0.0963119512665783,,-3.210822457549061,,
,8790.0,1438.0,4848.0,1664.0,1916.0,2468.0,2320.0,,,,0.0484082420488667,-1.37432692088607,0.0963247958169766,,-3.2791177282506774,,
,8795.0,1441.0,4849.0,1666.0,1921.0,2463.0,2303.0,,,,0.0483963479489123,-1.37500363185529,0.09632413053878,,-3.3545381169072708,,
,8795.0,1441.0,4850.0,1664.0,1923.0,2461.0,2315.0,,,,0.0483989561148021,-1.37415246267962,0.0963154855100125,,-3.434584571110082,,
,8796.0,1440.0,4849.0,1667.0,1915.0,2460.0,2337.0,,,,0.0484072792507118,-1.37432335178977,0.0963159002885368,,-3.515992122397978,,
,8796.0,1438.0,4847.0,1664.0,1913.0,2461.0,2339.0,,,,0.0483861433327047,-1.37394808082394,0.0963003778995424,,-3.5948619262265433,,
,8796.0,1440.0,4850.0,1668.0,1910.0,2465.0,2346.0,,,,0.0483335988612349,-1.37444546413608,0.0963005255913991,,-3.6668018625369316,,
,8797.0,1439.0,4850.0,1669.0,1917.0,2471.0,2358.0,,,,0.0483281129046746,-1.37467480035311,0.0962940020121436,,-3.7270596003390133,,
,8795.0,1438.0,4850.0,1665.0,1918.0,2462.0,2351.0,,,,0.0483489193628694,-1.37460681562407,0.0962890314141292,,-3.770638498780623,,
,8796.0,1436.0,4849.0,1665.0,1920.0,2462.0,2338.0,,,,0.0483435370915616,-1.37526267212264,0.0962757981617574,,-3.792394827575431,,
,8792.0,1435.0,4848.0,1667.0,1917.0,2469.0,2348.0,,,,0.048369189521328,-1.37525540916145,0.0962866792933526,,-3.787121766693926,,
,8796.0,1435.0,4848.0,1665.0,1919.0,2464.0,2332.0,,,,0.0483806003733379,-1.37584738757325,0.0962768774929827,,-3.7496297204748417,,
,8796.0,1433.0,4850.0,1667.0,1922.0,2460.0,2331.0,,,,0.0483858970133971,-1.37527578761364,0.0962783726638626,,-3.6748330284533273,,
,8792.0,1433.0,4849.0,1666.0,1926.0,2467.0,2310.0,,,,0.0483649334430684,-1.37548066769432,0.0963010315390477,,-3.5578503946814726,,
,8793.0,1433.0,4848.0,1667.0,1912.0,2473.0,2302.0,,,,0.0483527873438534,-1.37555307915895,0.0962780721213776,,-3.3941212390253863,,
,8797.0,1435.0,4849.0,1668.0,1913.0,2465.0,2321.0,,,,0.048359287600025,-1.37554126397093,0.0962716261946592,,-3.179534410036533,,
,8795.0,1433.0,4850.0,1668.0,1917.0,2463.0,2342.0,,,,0.0483472099731145,-1.37543227068305,0.0962917072414626,,-2.910561482882254,,
,8793.0,1434.0,4848.0,1666.0,1918.0,2475.0,2320.0,,,,0.0482757391003978,-1.37545912342712,0.0962894769412855,,-2.5843861478048495,,
,8795.0,1434.0,4846.0,1664.0,1920.0,2463.0,2316.0,,,,0.0483373896663003,-1.3754611757544,0.0962918056412013,,-2.199024884110448,,
,8796.0,1435.0,4850.0,1665.0,1918.0,2462.0,2336.0,,,,0.0482967320355068,-1.37589991257868,0.0963027874424265,,-1.7534415144917816,,
,8799.0,1435.0,4849.0,1665.0,1915.0,2461.0,2329.0,,,,0.0483380463548795,-1.37547404470265,0.0962981912222629,,-1.2476668225233454,,
,8801.0,1436.0,4849.0,1669.0,1915.0,2459.0,2297.0,,,,0.0483066283470456,-1.37575657030177,0.0962873080141818,,-0.6829402456240039,,
,8803.0,1436.0,4851.0,1669.0,1924.0,2461.0,2313.0,,,,0.0483466093631014,-1.3755632608329,0.0963127727086492,,-0.06188967182203942,,
,8810.0,1438.0,4852.0,1668.0,1921.0,2459.0,2318.0,,,,0.0483580940364845,-1.37596327399107,0.0963190326820927,,0.6112445976646551,,
,8807.0,1441.0,4852.0,1670.0,1920.0,2464.0,2297.0,,,,0.0483500794986864,-1.37604967394364,0.0962863610994003,,1.3303532202478192,,
,8813.0,1440.0,4852.0,1667.0,1918.0,2464.0,2293.0,,,,0.0483664537835823,-1.37600403692654,0.0962655648027071,,2.087200192852304,,
,8814.0,1442.0,4852.0,1668.0,1919.0,2465.0,2297.0,,,,0.0483307202658055,-1.3766624400234,0.0962668720727531,,2.871212278998493,,
,8819.0,1441.0,4855.0,1669.0,1920.0,2470.0,2292.0,,,,0.0482969330114801,-1.37708780346229,0.0962632771280042,,3.6693713200516407,,
,8825.0,1443.0,4859.0,1670.0,1917.0,2468.0,2317.0,,,,0.048301834776331,-1.37717424495942,0.0962507531904902,,4.466263078328788,,
,8828.0,1448.0,4857.0,1672.0,1916.0,2464.0,2317.0,,,,0.0482193498255054,-1.37681358205893,0.0962565518183506,,5.2443252090571875,,
,8831.0,1449.0,4859.0,1672.0,1916.0,2459.0,2365.0,,,,0.0482480626868903,-1.37704578833547,0.0962496937028827,,5.98431911580149,,
,8837.0,1448.0,4861.0,1672.0,1917.0,2452.0,2306.0,,,,0.0482310586646625,-1.37724226753375,0.0962630980245872,,6.6660279768117485,,
,8840.0,1454.0,4866.0,1674.0,1917.0,2457.0,2298.0,,,,0.048259999103834,-1.37721013089425,0.096257699720953,,7.269158369404863,,
,8843.0,1454.0,4864.0,1674.0,1919.0,2460.0,2306.0,,,,0.0482276024954393,-1.37731694752458,0.0962533372798306,,7.774398046801446,,
,8843.0,1453.0,4863.0,1675.0,1918.0,2456.0,2318.0,,,,0.0482438215411164,-1.3775930902286,0.0962582376838481,,8.16455989348561,,
,8850.0,1457.0,4868.0,1675.0,1919.0,2460.0,2320.0,,,,0.0481824045778384,-1.3775930781994,0.0962518642109417,,8.425723877062683,,
,8857.0,1459.0,4869.0,1677.0,1920.0,2465.0,2338.0,,,,0.0482300594735373,-1.37719430321612,0.0962348321446038,,8.54827647171634,,
,8858.0,1464.0,4873.0,1678.0,1918.0,2463.0,2328.0,,,,0.048184532202595,-1.37724456090285,0.0962354044782647,,8.527742261419196,,
,8864.0,1463.0,4875.0,1680.0,1914.0,2478.0,2296.0,,,,0.0481911336894695,-1.37705339213511,0.0962680385880426,,8.365307783028147,,
,8865.0,1464.0,4875.0,1678.0,1917.0,2465.0,2313.0,,,,0.0482744008079658,-1.37723660082306,0.0962412744632417,,8.067956199932809,,
,8869.0,1466.0,4876.0,1682.0,1923.0,2468.0,2317.0,,,,0.0482761955538628,-1.37717631077537,0.096263950703382,,7.648165060345745,,
,8872.0,1467.0,4879.0,1682.0,1915.0,2468.0,2320.0,,,,0.0482807449836898,-1.37660256305626,0.0962555904496897,,7.123166821733518,,
,8873.0,1471.0,4884.0,1684.0,1912.0,2476.0,2321.0,,,,0.0482232359822499,-1.37665473231309,0.0962592475538697,,6.513826726715597,,
,8876.0,1469.0,4883.0,1683.0,1912.0,2453.0,2351.0,,,,0.0482770991710123,-1.37671147942855,0.0962526166810353,,5.843244200447521,,
,8878.0,1473.0,4886.0,1684.0,1909.0,2450.0,2365.0,,,,0.0482297467433283,-1.37696930535572,0.0962642326368892,,5.135220253937202,,
,8882.0,1474.0,4887.0,1685.0,1913.0,2455.0,2332.0,,,,0.0482565028580437,-1.37700348206,0.0962590970727885,,4.412746399373042,,
,8886.0,1476.0,4889.0,1687.0,1915.0,2456.0,2335.0,,,,0.0483030267859177,-1.37663869446232,0.0962566591032226,,3.69665945960613,,
,8887.0,1479.0,4890.0,1688.0,1917.0,2458.0,2324.0,,,,0.0482973030869448,-1.37665192335849,0.0962552959687978,,3.0045767605751603,,
,8891.0,1478.0,4892.0,1687.0,1918.0,2467.0,2335.0,,,,0.0482596617362187,-1.37672588047113,0.0962633828797516,,2.350185581531473,,
,8895.0,1480.0,4893.0,1689.0,1924.0,2459.0,2310.0,,,,0.0482841624711737,-1.37623797061432,0.0962626777077543,,1.7429169795488149,,
,8894.0,1483.0,4895.0,1689.0,1921.0,2454.0,2309.0,,,,0.0483046038600308,-1.37607134937579,0.0962517384786324,,1.18799291262775,,
,8895.0,1483.0,4897.0,1691.0,1920.0,2455.0,2323.0,,,,0.0482969004598869,-1.37667236864035,0.0962754071188745,,0.6868008116045216,,
,8899.0,1483.0,4899.0,1692.0,1915.0,2457.0,2337.0,,,,0.0483092519685389,-1.37656419244779,0.0962442006673131,,0.23752387698966398,,
,8903.0,1488.0,4903.0,1693.0,1915.0,2455.0,2333.0,,,,0.0481654895188021,-1.37694986780469,0.0962357084649819,,-0.1640602565106133,,
,8904.0,1487.0,4902.0,1696.0,1913.0,2457.0,2334.0,,,,0.048160362651457,-1.37745738121177,0.0962648239449467,,-0.5237051489358728,,
,8905.0,1489.0,4906.0,1694.0,1911.0,2469.0,2343.0,,,,0.0481608016976372,-1.37702356923808,0.0962481750966157,,-0.8478342792738514,,
,8907.0,1489.0,4906.0,1696.0,1911.0,2466.0,2321.0,,,,0.0482254741326202,-1.37674224863994,0.0962586278103262,,-1.1427706293586628,,
,8912.0,1492.0,4911.0,1696.0,1915.0,2465.0,2290.0,,,,0.0481596989806661,-1.37715762705962,0.0962508346448533,,-1.4141187467317364,,
,8912.0,1494.0,4911.0,1696.0,1916.0,2461.0,2312.0,,,,0.0482272995067311,-1.37722391300258,0.0962517317192609,,-1.6663412241734838,,
,8917.0,1493.0,4913.0,1699.0,1914.0,2463.0,2317.0,,,,0.0482077696483798,-1.37754445120658,0.0962330719392632,,-1.902549330052836,,
,8917.0,1496.0,4914.0,1698.0,1917.0,2464.0,2306.0,,,,0.0482638730859639,-1.37871825503469,0.0962328366736018,,-2.124503767068175,,
,8921.0,1495.0,4916.0,1699.0,1921.0,2459.0,2321.0,,,,0.0482255378966989,-1.37825690426273,0.0962404190711999,,-2.3327979489600823,,
,8921.0,1498.0,4916.0,1700.0,1924.0,2458.0,2322.0,,,,0.0482281689551519,-1.37758343714892,0.0962516498370136,,-2.527175773303348,,
,8921.0,1500.0,4921.0,1701.0,1920.0,2464.0,2332.0,,,,0.0482560484751969,-1.37768204938897,0.0962284013873866,,-2.706922478206684,,
,8922.0,1501.0,4921.0,1700.0,1923.0,2465.0,2333.0,,,,0.0481681480384849,-1.37811978488362,0.096233890942395,,-2.8712638026469546,,
,8926.0,1501.0,4922.0,1702.0,1913.0,2480.0,2341.0,,,,0.0481980886273958,-1.37860080084318,0.0962242479911211,,-3.0197156431614722,,
,8928.0,1503.0,4924.0,1705.0,1921.0,2472.0,2308.0,,,,0.0482271785454865,-1.37793817255423,0.0962300797429595,,-3.1523410730571735,,
,8929.0,1504.0,4928.0,1703.0,1918.0,2472.0,2309.0,,,,0.0481815213030065,-1.37805103100317,0.096221594909228,,-3.2698899231647927,,
,8933.0,1505.0,4926.0,1705.0,1917.0,2464.0,2335.0,,,,0.0481670862121954,-1.37826752453474,0.0962187251848439,,-3.373814530724401,,
,8935.0,1506.0,4931.0,1707.0,1916.0,2471.0,2343.0,,,,0.0481907178337595,-1.37803132357637,0.0962208119960385,,-3.466171436171088,,
,8936.0,1509.0,4930.0,1709.0,1918.0,2476.0,2318.0,,,,0.0481605674347779,-1.37823639770276,0.0962180877987696,,-3.54943154989697,,
,8940.0,1512.0,4933.0,1708.0,1915.0,2464.0,2318.0,,,,0.0481968884880772,-1.37766801005749,0.0962144250926681,,-3.626230088239913,,
,8942.0,1512.0,4932.0,1710.0,1910.0,2462.0,2321.0,,,,0.0482064119397108,-1.37778188787144,0.0962393157654621,,-3.699092241819833,,
,8941.0,1514.0,4936.0,1710.0,1917.0,2460.0,2319.0,,,,0.048221580605173,-1.37757124308213,0.0962419134208256,,-3.7701712426911227,,
,8945.0,1515.0,4937.0,1711.0,1918.0,2461.0,2307.0,,,,0.048302038718795,-1.37646391098101,0.0962455984502341,,-3.8410326203145644,,
,8949.0,1518.0,4940.0,1712.0,1916.0,2462.0,2306.0,,,,0.0483215849123225,-1.37653232352236,0.0962555235685029,,-3.912512490634625,,
,8949.0,1520.0,4939.0,1713.0,1911.0,2462.0,2324.0,,,,0.0483393921448899,-1.37621613033776,0.0962621225860142,,-3.984669267833998,,
,8952.0,1518.0,4941.0,1712.0,1919.0,2458.0,2349.0,,,,0.048368578384631,-1.37542670782722,0.0962748661534956,,-4.056837745190787,,
,8953.0,1519.0,4945.0,1715.0,1915.0,2465.0,2332.0,,,,0.0483923460197532,-1.37543483654345,0.096281243039587,,-4.127782492698048,,
,8955.0,1526.0,4946.0,1717.0,1918.0,2456.0,2360.0,,,,0.048413909080072,-1.37527417542741,0.0962923303372192,,-4.1959344531190625,,
,8960.0,1526.0,4947.0,1716.0,1918.0,2453.0,2364.0,,,,0.0484323010949802,-1.37526962725098,0.0963053944422003,,-4.2596814086548775,,
,8956.0,1528.0,4950.0,1714.0,1918.0,2449.0,2340.0,,,,0.0484477226035199,-1.37545195032504,0.096281680376147,,-4.3176714495546245,,
,8962.0,1529.0,4952.0,1718.0,1922.0,2449.0,2302.0,,,,0.0484125527612646,-1.37532681113065,0.0962685128072702,,-4.369081496265973,,
,8962.0,1531.0,4954.0,1716.0,1924.0,2455.0,2301.0,,,,0.0483735118190961,-1.37564947461901,0.0962866098631542,,-4.4138032716177396,,
,8966.0,1531.0,4955.0,1720.0,1923.0,2455.0,2316.0,,,,0.0483832995928425,-1.37597127348025,0.0962794957977757,,-4.45250840769646,,
,8965.0,1532.0,4957.0,1721.0,1920.0,2458.0,2304.0,,,,0.0483473090275298,-1.37599932423026,0.0962821728525647,,-4.486571420481291,,
,8963.0,1528.0,4958.0,1722.0,1918.0,2464.0,2324.0,,,,0.0482260326042441,-1.37614678032064,0.0962481420938519,,-4.517850518612757,,
,8961.0,1526.0,4960.0,1721.0,1918.0,2463.0,2328.0,,,,0.0482994680560747,-1.37690774718474,0.0962582787235498,,-4.5483473022704395,,
,8954.0,1516.0,4960.0,1722.0,1917.0,2457.0,2335.0,,,,0.0482584381849985,-1.37703634240278,0.0962345475729579,,-4.579783837676386,,
,8942.0,1505.0,4957.0,1723.0,1921.0,2454.0,2351.0,,,,0.0482054091116635,-1.37734283988994,0.0962444072054554,,-4.613147253802378,,
,8925.0,1497.0,4951.0,1720.0,1914.0,2458.0,2333.0,,,,0.0482697907507004,-1.37775598232411,0.0962176800823938,,-4.648257054631801,,
,8904.0,1481.0,4948.0,1718.0,1919.0,2453.0,2336.0,,,,0.0482106957166215,-1.37730079426434,0.0962266694084575,,-4.683408868358593,,
,8884.0,1473.0,4941.0,1718.0,1915.0,2463.0,2337.0,,,,0.0482274784004169,-1.37790465545545,0.0962250546117568,,-4.715141139369872,,
,8867.0,1466.0,4936.0,1716.0,1916.0,2461.0,2336.0,,,,0.0482519778452412,-1.37753296911022,0.0962458220086653,,-4.7381595046883325,,
,8851.0,1456.0,4926.0,1710.0,1918.0,2463.0,2319.0,,,,0.0482131557113946,-1.37766372436222,0.096242048662939,,-4.745438626697427,,
,8832.0,1452.0,4918.0,1707.0,1918.0,2469.0,2314.0,,,,0.0481913564621077,-1.37780057461937,0.0962232788379772,,-4.7285044115062504,,
,8821.0,1444.0,4909.0,1703.0,1918.0,2457.0,2338.0,,,,0.0482394498104974,-1.3778311784657,0.0962491949308917,,-4.677882122972573,,
,8806.0,1441.0,4905.0,1702.0,1916.0,2455.0,2320.0,,,,0.0482357442707442,-1.37720178915778,0.0962474389595603,,-4.583679141117304,,
,8792.0,1435.0,4895.0,1698.0,1911.0,2461.0,2299.0,,,,0.0483214970592964,-1.37632054300288,0.0962552789486458,,-4.43625615976946,,
2025-07-04 15:43:37,8782.0,1432.0,4888.0,1691.0,1916.0,2464.0,2294.0,,,2025/07/04 03:43:37 PM,0.0483576651969152,-1.37555274683379,0.0963026216631152,,-4.226928655785229,,
,8776.0,1429.0,4881.0,1688.0,1916.0,2456.0,2302.0,,,,0.0484247475357694,-1.37520707835408,0.0963204209385598,,-3.948633059473422,,
,8768.0,1426.0,4877.0,1688.0,1912.0,2466.0,2320.0,,,,0.0484887091053292,-1.37471249415702,0.0963257741828698,,-3.5964915016505374,,
,8762.0,1426.0,4871.0,1680.0,1912.0,2464.0,2330.0,,,,0.0484760922998121,-1.37396135428872,0.0963506198260205,,-3.1682178923686495,,
,8762.0,1423.0,4864.0,1679.0,1919.0,2468.0,2303.0,,,,0.0485456365561654,-1.37366057819588,0.0963599049823696,,-2.6643275590596494,,
,8760.0,1424.0,4864.0,1680.0,1917.0,2473.0,2309.0,,,,0.0485201477736184,-1.37355396628653,0.0963574016758043,,-2.088140418163002,,
,8759.0,1424.0,4861.0,1676.0,1920.0,2468.0,2310.0,,,,0.0485638448496424,-1.37282168225583,0.0963685532651226,,-1.4455975935044603,,
,8755.0,1423.0,4860.0,1676.0,1921.0,2467.0,2304.0,,,,0.0486102189006706,-1.37234241274819,0.0963725659650479,,-0.7449360787534038,,
,8758.0,1421.0,4855.0,1674.0,1917.0,2477.0,2310.0,,,,0.0486245048182688,-1.37236551693944,0.0963821869283251,,0.003719900223591499,,
,8761.0,1424.0,4857.0,1672.0,1916.0,2471.0,2308.0,,,,0.0485969804242388,-1.37264935136713,0.0963738732991393,,0.7887902070160326,,
,8763.0,1424.0,4853.0,1673.0,1914.0,2475.0,2305.0,,,,0.0486543842614199,-1.37207907858214,0.0963803192425596,,1.5976406808318169,,
,8769.0,1425.0,4855.0,1673.0,1914.0,2474.0,2312.0,,,,0.0486908285252175,-1.37172163320996,0.0964067793690474,,2.4169195271315362,,
,8768.0,1424.0,4852.0,1670.0,1918.0,2472.0,2295.0,,,,0.0486977351152592,-1.37229629893643,0.0963837275896792,,3.232812641112523,,
,8771.0,1427.0,4852.0,1671.0,1926.0,2479.0,2309.0,,,,0.0486948363477511,-1.37206389224875,0.0963913098945545,,4.031223815102949,,
,8775.0,1427.0,4852.0,1671.0,1922.0,2462.0,2300.0,,,,0.0486958474668735,-1.37230364234954,0.0964007450343997,,4.797904719575612,,
,8774.0,1427.0,4852.0,1672.0,1920.0,2456.0,2291.0,,,,0.0486750982319661,-1.37186787900263,0.0964012862712736,,5.518572692178212,,
,8778.0,1431.0,4851.0,1670.0,1915.0,2451.0,2332.0,,,,0.0486518479685067,-1.37184221686808,0.096395541653295,,6.17905964110732,,
,8781.0,1429.0,4854.0,1670.0,1917.0,2452.0,2326.0,,,,0.0486960143221275,-1.37216838972363,0.0963842286672369,,6.765532127385242,,
,8787.0,1430.0,4854.0,1671.0,1918.0,2459.0,2324.0,,,,0.0486541088247872,-1.37280779204328,0.0963803296907862,,7.26481168202424,,
,8792.0,1433.0,4855.0,1671.0,1918.0,2462.0,2328.0,,,,0.0487017135361865,-1.37249659142826,0.0963902323645772,,7.664807498867844,,
,8791.0,1432.0,4856.0,1671.0,1916.0,2463.0,2338.0,,,,0.0486988550742376,-1.37238065928547,0.0963868777724175,,7.955053251975615,,
,8796.0,1434.0,4857.0,1670.0,1916.0,2461.0,2320.0,,,,0.0486824865861683,-1.37208720337661,0.096401836847607,,8.127318285615834,,
,8799.0,1435.0,4857.0,1672.0,1914.0,2461.0,2305.0,,,,0.0486900722396156,-1.37182120267861,0.0963807891859022,,8.176242931714754,,
,8801.0,1434.0,4859.0,1672.0,1915.0,2453.0,2295.0,,,,0.0487169946267381,-1.37183397535621,0.0964136700988186,,8.09993064614155,,
,8804.0,1435.0,4860.0,1674.0,1912.0,2455.0,2304.0,,,,0.0487117740633902,-1.37135321867158,0.0964389322399718,,7.900419466117837,,
,8805.0,1435.0,4857.0,1671.0,1915.0,2460.0,2309.0,,,,0.0487863667551928,-1.37066503705356,0.0964404653882194,,7.583956120021261,,
,8809.0,1437.0,4860.0,1676.0,1917.0,2457.0,2297.0,,,,0.0488040243019893,-1.37037336950795,0.0964415238171855,,7.161010942099703,,
,8808.0,1436.0,4860.0,1674.0,1918.0,2458.0,2326.0,,,,0.0487900878761732,-1.37007581208415,0.096454748649125,,6.645999934438519,,
,8807.0,1434.0,4861.0,1673.0,1920.0,2460.0,2335.0,,,,0.0487752211663155,-1.37037109979723,0.0964745295696104,,6.056716536808594,,
,8810.0,1435.0,4859.0,1673.0,1919.0,2464.0,2352.0,,,,0.0488226069050287,-1.3710201901083,0.0964328587547089,,5.413511447383072,,
,8806.0,1434.0,4860.0,1674.0,1918.0,2461.0,2350.0,,,,0.0487968622916939,-1.37087273565968,0.0964342065204508,,4.738286303342313,,
,8810.0,1434.0,4863.0,1675.0,1915.0,2457.0,2348.0,,,,0.0487808109682938,-1.37078225309022,0.0964615108909064,,4.053382066179869,,
,8812.0,1431.0,4861.0,1677.0,1917.0,2458.0,2326.0,,,,0.0487881179622997,-1.37087313873811,0.0964432038200512,,3.3804458012514784,,
,8804.0,1430.0,4859.0,1676.0,1916.0,2464.0,2321.0,,,,0.0487676027992955,-1.37085175479665,0.0964675464195732,,2.7393532557634357,,
,8806.0,1429.0,4861.0,1674.0,1919.0,2461.0,2333.0,,,,0.0487833724366882,-1.37079794151455,0.0964662624348741,,2.1472531559077574,,
,8806.0,1431.0,4861.0,1675.0,1915.0,2466.0,2308.0,,,,0.048805711939424,-1.37023642913118,0.0964577701960925,,1.6177859180212883,,
,8807.0,1433.0,4859.0,1675.0,1915.0,2459.0,2300.0,,,,0.0487894236898101,-1.37015163988227,0.0964555960769052,,1.160516870208927,,
,8806.0,1428.0,4860.0,1675.0,1912.0,2458.0,2310.0,,,,0.0488522223526965,-1.37011425683993,0.0964489768672259,,0.7806132090012778,,
,8806.0,1430.0,4856.0,1675.0,1917.0,2461.0,2339.0,,,,0.0488053471705133,-1.37017897219985,0.0964530862758862,,0.47878443879536337,,
,8808.0,1430.0,4860.0,1676.0,1918.0,2462.0,2353.0,,,,0.048823353764979,-1.36970036688387,0.0964391321749661,,0.2514959922392937,,
,8807.0,1428.0,4859.0,1676.0,1921.0,2468.0,2340.0,,,,0.0488688302881512,-1.37005103196741,0.0964639278202175,,0.09145184130526172,,
,8809.0,1427.0,4860.0,1673.0,1923.0,2472.0,2335.0,,,,0.0488549117106789,-1.37039741528443,0.0964396082454867,,-0.01167865997962199,,
,8811.0,1427.0,4860.0,1673.0,1923.0,2462.0,2342.0,,,,0.0488560326426766,-1.37040338659766,0.0964518936083272,,-0.07034131965843934,,
,8812.0,1429.0,4859.0,1675.0,1921.0,2457.0,2315.0,,,,0.0488571551858722,-1.36989888612069,0.0964496864887254,,-0.09806442745908378,,
,8817.0,1431.0,4862.0,1676.0,1915.0,2451.0,2314.0,,,,0.0488399236903399,-1.37008217656226,0.0964616689251768,,-0.108412017017706,,
,8815.0,1430.0,4862.0,1675.0,1914.0,2455.0,2298.0,,,,0.0488284056548085,-1.37003423215349,0.0964440976739617,,-0.11402603970210973,,
,8817.0,1430.0,4861.0,1676.0,1919.0,2463.0,2328.0,,,,0.0488687853913094,-1.37014021645829,0.096440899768046,,-0.12584563095545104,,
,8824.0,1433.0,4863.0,1679.0,1912.0,2461.0,2315.0,,,,0.0488434282282517,-1.37025704559711,0.0964587858343193,,-0.15256221681943444,,
,8826.0,1432.0,4865.0,1676.0,1916.0,2468.0,2326.0,,,,0.0488558948552564,-1.36988360331504,0.0964613191647712,,-0.20033305756912217,,
,8830.0,1436.0,4865.0,1679.0,1918.0,2466.0,2315.0,,,,0.0488523497808898,-1.37006683603331,0.0964596392031397,,-0.2727411579024165,,
,8832.0,1438.0,4866.0,1677.0,1926.0,2456.0,2330.0,,,,0.0488561288816514,-1.37009354241624,0.0964344683593938,,-0.3709624571569398,,
,8837.0,1439.0,4869.0,1679.0,1923.0,2457.0,2338.0,,,,0.0488913527305106,-1.37006473906937,0.0964547230451778,,-0.4940853090104471,,
,8839.0,1441.0,4869.0,1679.0,1921.0,2453.0,2322.0,,,,0.0488938049934374,-1.370449648345,0.0964463511877461,,-0.639523240425814,,
,8844.0,1443.0,4870.0,1682.0,1923.0,2457.0,2345.0,,,,0.0488811436640918,-1.36999894823706,0.0964458859394459,,-0.8034681678871555,,
,8849.0,1443.0,4871.0,1681.0,1933.0,2473.0,2332.0,,,,0.0488083900485645,-1.3694985147769,0.0964598725053647,,-0.981344031346428,,
,8851.0,1445.0,4870.0,1683.0,1923.0,2467.0,2323.0,,,,0.0487788320805123,-1.36959619617744,0.0964506753110854,,-1.168235507545559,,
,8853.0,1447.0,4876.0,1684.0,1919.0,2462.0,2317.0,,,,0.0488568681603495,-1.36971613524459,0.0964403643139212,,-1.3592785254453434,,
,8857.0,1448.0,4876.0,1684.0,1921.0,2474.0,2322.0,,,,0.0488499539126508,-1.36957015188578,0.0964758735818085,,-1.5500055798866694,,
,8862.0,1450.0,4877.0,1685.0,1920.0,2467.0,2310.0,,,,0.0488718653487953,-1.36944552355923,0.0964521823082663,,-1.736638754064351,,
,8867.0,1453.0,4880.0,1684.0,1918.0,2469.0,2302.0,,,,0.0488501821938355,-1.36992711001902,0.0964581430829228,,-1.9163193562818732,,
,8868.0,1455.0,4882.0,1686.0,1921.0,2470.0,2319.0,,,,0.048797981600832,-1.37006840990465,0.0964452874406325,,-2.0872594655408983,,
,8872.0,1456.0,4886.0,1688.0,1918.0,2463.0,2329.0,,,,0.0488679851473492,-1.37015659653629,0.0964329073079044,,-2.2488011724270796,,
,8876.0,1460.0,4886.0,1689.0,1918.0,2460.0,2324.0,,,,0.0488306440005938,-1.37023059081148,0.096414880003675,,-2.4013749737262997,,
,8877.0,1458.0,4888.0,1687.0,1915.0,2460.0,2308.0,,,,0.0488268825548698,-1.37048422443265,0.0964087715356774,,-2.546358004487585,,
,8883.0,1461.0,4891.0,1688.0,1915.0,2461.0,2313.0,,,,0.0488010392156001,-1.37027582131011,0.0964027353445649,,-2.6858427210968996,,
,8887.0,1464.0,4893.0,1692.0,1917.0,2459.0,2285.0,,,,0.0488197143952977,-1.37054036454844,0.096412347217558,,-2.8223348368234307,,
,8889.0,1464.0,4896.0,1690.0,1918.0,2455.0,2300.0,,,,0.0488058026110347,-1.37085209482157,0.0963936583509405,,-2.9584045519642244,,
,8892.0,1465.0,4896.0,1691.0,1917.0,2461.0,2328.0,,,,0.0488044978557103,-1.37119030342176,0.0964085909385212,,-3.0963173833730875,,
,8891.0,1466.0,4897.0,1691.0,1918.0,2462.0,2319.0,,,,0.0487983109734032,-1.3711808880244,0.0963990314503447,,-3.23767082646664,,
,8896.0,1470.0,4899.0,1694.0,1921.0,2464.0,2314.0,,,,0.0487683991076662,-1.37091009169791,0.0963857201533092,,-3.383061617694811,,
,8899.0,1472.0,4903.0,1696.0,1923.0,2461.0,2319.0,,,,0.0487169745153513,-1.37114733129678,0.0963903130923882,,-3.531806481436051,,
,8902.0,1472.0,4903.0,1696.0,1922.0,2460.0,2334.0,,,,0.0487463831507474,-1.37123872111721,0.0963622720427984,,-3.6817375444442106,,
,8901.0,1473.0,4903.0,1694.0,1918.0,2469.0,2313.0,,,,0.0487264515999994,-1.37118686677192,0.0963660200764128,,-3.8290919870388915,,
,8904.0,1475.0,4907.0,1697.0,1921.0,2473.0,2327.0,,,,0.0487231187139595,-1.37150239888284,0.0963815592139078,,-3.9685132723790963,,
,8908.0,1476.0,4909.0,1700.0,1922.0,2475.0,2314.0,,,,0.0487579120795059,-1.37181225155758,0.09635354739839,,-4.093177476627568,,
,8913.0,1477.0,4910.0,1701.0,1918.0,2474.0,2314.0,,,,0.0487469398404407,-1.37224501164048,0.0963548254706307,,-4.19505179518752,,
,8910.0,1476.0,4909.0,1700.0,1919.0,2462.0,2306.0,,,,0.0486904181959675,-1.37229304898771,0.0963713405649681,,-4.2652823136066615,,
,8913.0,1479.0,4912.0,1700.0,1925.0,2463.0,2298.0,,,,0.0487067831853107,-1.37153143491312,0.096371915413162,,-4.294694333789111,,
,8916.0,1481.0,4915.0,1704.0,1918.0,2461.0,2313.0,,,,0.0486564160406713,-1.37189928367209,0.0963640438889158,,-4.274372147867307,,
,8918.0,1482.0,4913.0,1704.0,1923.0,2459.0,2294.0,,,,0.0486817086900128,-1.37247598165036,0.0963577691252403,,-4.196269407502162,,
,8918.0,1486.0,4918.0,1703.0,1924.0,2464.0,2309.0,,,,0.0487130417463451,-1.3722960577229,0.0963604917425784,,-4.053790743658486,,
,8923.0,1486.0,4919.0,1705.0,1918.0,2474.0,2319.0,,,,0.048717476906832,-1.37217740650578,0.0963516027754318,,-3.8422839312264423,,
,8922.0,1486.0,4920.0,1706.0,1917.0,2459.0,2312.0,,,,0.0487112121002567,-1.37179120215019,0.0963600632557873,,-3.5593908993613104,,
,8928.0,1487.0,4923.0,1709.0,1919.0,2456.0,2308.0,,,,0.0487221402829773,-1.37177746356998,0.0963405287766246,,-3.2052235800403013,,
,8929.0,1488.0,4924.0,1708.0,1922.0,2460.0,2318.0,,,,0.0486896295480283,-1.37198437304837,0.0963298292241858,,-2.782353462292635,,
,8931.0,1489.0,4926.0,1709.0,1921.0,2464.0,2312.0,,,,0.0486538455302833,-1.37245456242177,0.0963446205369218,,-2.295627634938247,,
,8931.0,1492.0,4928.0,1710.0,1920.0,2466.0,2309.0,,,,0.04873244767283,-1.37246825756159,0.0963436821584832,,-1.7518449908995348,,
,8933.0,1493.0,4928.0,1712.0,1921.0,2463.0,2295.0,,,,0.0486615738482273,-1.37249461204583,0.096324513306699,,-1.159340738742463,,
,8935.0,1490.0,4933.0,1711.0,1921.0,2452.0,2324.0,,,,0.0486298172842272,-1.37261498184684,0.0963253149469433,,-0.5275334628649161,,
,8937.0,1495.0,4933.0,1710.0,1919.0,2457.0,2306.0,,,,0.0486063138909439,-1.37255192966771,0.0963161649903442,,0.13351324944276843,,
,8942.0,1497.0,4936.0,1715.0,1918.0,2454.0,2312.0,,,,0.0485861142391277,-1.37293934848191,0.0963181429639555,,0.8134712974858481,,
,8942.0,1497.0,4936.0,1715.0,1917.0,2459.0,2320.0,,,,0.0486089631145443,-1.3733533616657,0.0963110198457104,,1.5020399697488327,,
,8944.0,1498.0,4938.0,1716.0,1916.0,2455.0,2310.0,,,,0.0486082168000739,-1.37326767253767,0.0963201007649345,,2.1891328181349268,,
,8946.0,1501.0,4942.0,1714.0,1918.0,2472.0,2324.0,,,,0.0485694071032977,-1.37329559786788,0.0963062625853765,,2.8649573831638175,,
,8948.0,1503.0,4941.0,1718.0,1916.0,2463.0,2328.0,,,,0.0486185731398814,-1.37280177148577,0.0963225369457041,,3.5199990777835195,,
,8950.0,1503.0,4944.0,1717.0,1919.0,2453.0,2321.0,,,,0.0486169148595117,-1.37296311814927,0.0963154638877382,,4.144932722655991,,
,8953.0,1505.0,4945.0,1720.0,1918.0,2449.0,2330.0,,,,0.0486248567955003,-1.37296104945117,0.096307818176563,,4.730496144544871,,
,8951.0,1506.0,4945.0,1720.0,1919.0,2445.0,2313.0,,,,0.0486575407706347,-1.37231957836005,0.0963209574056021,,5.267369420840956,,
,8954.0,1506.0,4949.0,1722.0,1920.0,2443.0,2290.0,,,,0.0487343044681083,-1.37274442223833,0.0963173435701924,,5.746109038614728,,
,8958.0,1509.0,4951.0,1721.0,1923.0,2447.0,2297.0,,,,0.0487026437155988,-1.37268469414334,0.0963339758735177,,6.1571855600051535,,
,8962.0,1510.0,4952.0,1721.0,1920.0,2454.0,2300.0,,,,0.0486809237221884,-1.37320912644951,0.0963319777448683,,6.491163707352266,,
,8962.0,1510.0,4953.0,1724.0,1913.0,2451.0,2335.0,,,,0.0486659022898768,-1.37301775268535,0.0963201640582504,,6.739044447563226,,
,8964.0,1514.0,4955.0,1726.0,1922.0,2461.0,2344.0,,,,0.0486565306110737,-1.37326480544212,0.0963278972044986,,6.8927617369481835,,
,8964.0,1513.0,4956.0,1724.0,1917.0,2461.0,2309.0,,,,0.0486690329861649,-1.3730937761268,0.0963239277639466,,6.945796325606466,,
,8968.0,1517.0,4959.0,1726.0,1914.0,2460.0,2322.0,,,,0.0486468799592178,-1.37327688410527,0.0963188020967464,,6.893840926823823,,
,8969.0,1518.0,4958.0,1726.0,1928.0,2478.0,2332.0,,,,0.0486445491586237,-1.37314311196394,0.0963072345926275,,6.735431142750435,,
,8967.0,1518.0,4961.0,1728.0,1923.0,2481.0,2300.0,,,,0.0486940231491039,-1.37290838426002,0.0963051228740385,,6.472450155484611,,
,8972.0,1521.0,4963.0,1730.0,1920.0,2475.0,2324.0,,,,0.0486453891551606,-1.37283196093494,0.0963289520734082,,6.110425299312726,,
,8971.0,1519.0,4963.0,1729.0,1923.0,2471.0,2314.0,,,,0.0486476261121233,-1.37289679193256,0.0963140689125169,,5.658560147805805,,
,8974.0,1519.0,4964.0,1731.0,1921.0,2466.0,2308.0,,,,0.0486839873367278,-1.37290022149765,0.0963190323325813,,5.129481137097997,,
,8970.0,1515.0,4964.0,1729.0,1920.0,2463.0,2310.0,,,,0.0486536792232857,-1.37381232345824,0.0963027160571864,,4.538714662242514,,
,8963.0,1509.0,4963.0,1732.0,1920.0,2460.0,2313.0,,,,0.0486411474023152,-1.3731219564231,0.0963091556326767,,3.9039411699071986,,
,8954.0,1498.0,4966.0,1731.0,1922.0,2460.0,2341.0,,,,0.0486709916825503,-1.37327045306721,0.0963097727737799,,3.244092482355689,,
,8937.0,1489.0,4960.0,1729.0,1921.0,2469.0,2346.0,,,,0.0486896223706669,-1.37368431340643,0.0962959184236453,,2.5783668956641885,,
,8919.0,1475.0,4957.0,1727.0,1920.0,2456.0,2329.0,,,,0.0486832700182322,-1.37363796595937,0.096308826344297,,1.9252358574627548,,
,8900.0,1467.0,4949.0,1726.0,1918.0,2455.0,2328.0,,,,0.0487066089437547,-1.37324464850882,0.0963195186525224,,1.3015097553620854,,
,8883.0,1461.0,4945.0,1723.0,1922.0,2448.0,2291.0,,,,0.048708039849776,-1.37373948346274,0.096309817941644,,0.721521664811903,,
,8868.0,1456.0,4938.0,1720.0,1918.0,2449.0,2287.0,,,,0.0487006159797016,-1.37306851549498,0.096326156821388,,0.1964785176764715,,
,8851.0,1445.0,4928.0,1716.0,1917.0,2462.0,2310.0,,,,0.0486538691261519,-1.37308003236447,0.0963230096797522,,-0.2659810119194608,,
,8836.0,1439.0,4920.0,1714.0,1918.0,2455.0,2300.0,,,,0.0486919045403187,-1.37265502591899,0.0963387950868416,,-0.6619947762097014,,
,8828.0,1437.0,4914.0,1711.0,1919.0,2463.0,2315.0,,,,0.0487888642091893,-1.37254442015546,0.096342409653281,,-0.9914395834249934,,
,8812.0,1432.0,4907.0,1707.0,1918.0,2463.0,2319.0,,,,0.0488153630179559,-1.3719432912917,0.0963654431794227,,-1.2576534103520383,,
,8802.0,1425.0,4898.0,1704.0,1918.0,2456.0,2319.0,,,,0.0488066590320655,-1.37190621330628,0.0963541010238512,,-1.4669412239759312,,
,8796.0,1421.0,4891.0,1697.0,1918.0,2457.0,2306.0,,,,0.0488282203876075,-1.37149331200875,0.0963536589827773,,-1.6279047480035034,,
,8787.0,1421.0,4887.0,1698.0,1922.0,2462.0,2299.0,,,,0.0488516005720136,-1.37200647155816,0.0963583078335859,,-1.7506495149779613,,
,8785.0,1420.0,4882.0,1697.0,1921.0,2469.0,2296.0,,,,0.0488083552055645,-1.37130449796172,0.0963564670255179,,-1.8459309260695436,,
,8780.0,1419.0,4880.0,1691.0,1921.0,2471.0,2304.0,,,,0.0487891542928809,-1.37196489925959,0.0963864620523097,,-1.9243043143814582,,
,8779.0,1416.0,4873.0,1687.0,1927.0,2473.0,2297.0,,,,0.0488236044695836,-1.37150751912176,0.0963719467167716,,-1.9953422745693623,,
2025-07-04 15:43:38,8778.0,1416.0,4872.0,1688.0,1922.0,2474.0,2302.0,,,2025/07/04 03:43:38 PM,0.0488497123049152,-1.37100098363935,0.0963731508378709,,-2.0669762883909084,,
,8780.0,1418.0,4873.0,1688.0,1920.0,2468.0,2319.0,,,,0.0488266825180497,-1.37067104005191,0.0963994475756986,,-2.1450095216385727,,
,8782.0,1416.0,4870.0,1687.0,1920.0,2462.0,2310.0,,,,0.0489010330605424,-1.36985342396069,0.0964059240833372,,-2.2328340816712746,,
,8781.0,1416.0,4863.0,1683.0,1925.0,2455.0,2298.0,,,,0.0490308790377719,-1.36898306708738,0.0964098097975342,,-2.3313696580281604,,
,8784.0,1418.0,4865.0,1683.0,1920.0,2460.0,2308.0,,,,0.048924192246667,-1.36840140543315,0.0964146235045679,,-2.4392225044028537,,
,8787.0,1421.0,4867.0,1684.0,1920.0,2459.0,2313.0,,,,0.0490121496076897,-1.36831074462965,0.0964258188630898,,-2.553045793547553,,
,8790.0,1421.0,4866.0,1685.0,1920.0,2457.0,2324.0,,,,0.0490429627798816,-1.36811001005186,0.0964517078093347,,-2.668066011342356,,
,8792.0,1421.0,4864.0,1681.0,1928.0,2470.0,2320.0,,,,0.0490859672193264,-1.36784924177398,0.0964543233346674,,-2.778726209452956,,
,8793.0,1421.0,4864.0,1686.0,1927.0,2465.0,2325.0,,,,0.0491258356739945,-1.36771292461025,0.0964532507067198,,-2.879386081245102,,
,8797.0,1425.0,4866.0,1681.0,1923.0,2454.0,2322.0,,,,0.0491342519880629,-1.36759164028098,0.0964649179568422,,-2.965011462361143,,
,8801.0,1423.0,4866.0,1683.0,1921.0,2454.0,2326.0,,,,0.049180624005135,-1.367585601041,0.0964619944951028,,-3.0317831565831828,,
,8806.0,1424.0,4866.0,1683.0,1922.0,2460.0,2327.0,,,,0.0491785003132536,-1.36715807493273,0.0964716807517028,,-3.0775591088101764,,
,8808.0,1423.0,4866.0,1683.0,1920.0,2455.0,2335.0,,,,0.0491749612181105,-1.36739983353975,0.0964790030360149,,-3.1021372663881106,,
,8810.0,1428.0,4868.0,1684.0,1927.0,2461.0,2329.0,,,,0.0491982733926428,-1.36680159552458,0.0964670392280677,,-3.10728967676057,,
,8817.0,1429.0,4869.0,1685.0,1917.0,2455.0,2309.0,,,,0.0492187168155758,-1.36709025171895,0.0964784551492055,,-3.0965687759227607,,
,8819.0,1429.0,4870.0,1684.0,1914.0,2452.0,2286.0,,,,0.0491465298501281,-1.36687451502047,0.0965018260196192,,-3.0749182960736987,,
,8821.0,1427.0,4869.0,1683.0,1922.0,2464.0,2322.0,,,,0.0491625836403621,-1.36678031420323,0.0965029391271716,,-3.048146082424336,,
,8822.0,1428.0,4869.0,1684.0,1923.0,2454.0,2343.0,,,,0.0491647509187469,-1.36750755890393,0.096483106436383,,-3.022328385271564,,
,8830.0,1431.0,4871.0,1686.0,1925.0,2443.0,2333.0,,,,0.0491740379818727,-1.36689681503777,0.0964852045655723,,-3.0032134472665115,,
,8826.0,1429.0,4870.0,1688.0,1923.0,2451.0,2333.0,,,,0.0491397013914804,-1.36742263220372,0.0964696095610556,,-2.995679806599726,,
,8828.0,1430.0,4873.0,1685.0,1919.0,2456.0,2349.0,,,,0.0490883784455666,-1.36721217109017,0.0964731934758992,,-3.0032874477239417,,
,8824.0,1431.0,4872.0,1686.0,1918.0,2477.0,2321.0,,,,0.0490850588891183,-1.36687511435409,0.0964624549833642,,-3.0279429672687836,,
,8828.0,1428.0,4873.0,1687.0,1917.0,2464.0,2333.0,,,,0.0490787097629491,-1.36686146066391,0.0964702796256606,,-3.0696864419004593,,
,8829.0,1426.0,4873.0,1685.0,1919.0,2464.0,2338.0,,,,0.0491131270208767,-1.36757385020835,0.096486831044671,,-3.1265988345181492,,
,8824.0,1426.0,4872.0,1684.0,1921.0,2463.0,2334.0,,,,0.0491241031869672,-1.36745807630432,0.0964527548072332,,-3.1948242992526152,,
,8824.0,1426.0,4871.0,1686.0,1915.0,2463.0,2342.0,,,,0.0491893649396675,-1.36758316145005,0.0964536301806087,,-3.268700479445534,,
,8826.0,1425.0,4872.0,1688.0,1915.0,2465.0,2331.0,,,,0.0491521436977105,-1.36775160869764,0.0964598755145291,,-3.3409901450729875,,
,8823.0,1424.0,4872.0,1686.0,1919.0,2455.0,2321.0,,,,0.0491476130041962,-1.36694908737815,0.0964787711915861,,-3.403207443482613,,
,8822.0,1421.0,4871.0,1684.0,1924.0,2466.0,2310.0,,,,0.0491694793759537,-1.3671247517611,0.0964922906699951,,-3.446029982054341,,
,8818.0,1420.0,4869.0,1686.0,1923.0,2472.0,2316.0,,,,0.0491796548062511,-1.36709447745107,0.0964929746158185,,-3.4597828062171483,,
,8819.0,1419.0,4871.0,1684.0,1914.0,2466.0,2312.0,,,,0.0491484009039796,-1.36721289542187,0.0964858305627568,,-3.4349719900518947,,
,8819.0,1422.0,4869.0,1687.0,1917.0,2469.0,2304.0,,,,0.0491693758064306,-1.3666768276625,0.0964796520093922,,-3.3628354673915535,,
,8819.0,1419.0,4869.0,1685.0,1926.0,2460.0,2291.0,,,,0.0491900842481414,-1.36636721244981,0.0964834305098428,,-3.235869934081013,,
,8816.0,1415.0,4868.0,1686.0,1923.0,2458.0,2309.0,,,,0.0492134078405016,-1.36674188663649,0.096483443930378,,-3.048288778557015,,
,8818.0,1419.0,4868.0,1686.0,1926.0,2445.0,2289.0,,,,0.0492178503142749,-1.36639929957685,0.0965132894764074,,-2.7963694605120337,,
,8818.0,1419.0,4866.0,1685.0,1923.0,2453.0,2313.0,,,,0.0492682091848422,-1.36626652645932,0.0965130874072279,,-2.4786594450549115,,
,8821.0,1417.0,4868.0,1684.0,1919.0,2455.0,2330.0,,,,0.0492421436584589,-1.3661701725272,0.0965093157384021,,-2.0960254423341413,,
,8819.0,1420.0,4866.0,1685.0,1920.0,2452.0,2309.0,,,,0.0492656242910352,-1.36597138762463,0.0965065203193023,,-1.6515483692758923,,
,8823.0,1419.0,4870.0,1685.0,1917.0,2460.0,2284.0,,,,0.0493358955618653,-1.36604822842052,0.0965202728200663,,-1.150283610049453,,
,8824.0,1419.0,4869.0,1687.0,1922.0,2455.0,2297.0,,,,0.0493429716836071,-1.36535344061636,0.0965178829936651,,-0.5989206929164679,,
,8828.0,1419.0,4870.0,1684.0,1917.0,2445.0,2304.0,,,,0.0493067908069388,-1.3656392668542,0.0964946782436576,,-0.0053864927632285625,,
,8831.0,1417.0,4871.0,1685.0,1923.0,2464.0,2311.0,,,,0.0493405516075231,-1.36556471283512,0.0965118717118773,,0.6215599847772926,,
,8833.0,1422.0,4869.0,1686.0,1930.0,2498.0,2315.0,,,,0.0493224611946196,-1.36553314025301,0.0964942740944106,,1.272695830732896,,
,8834.0,1424.0,4871.0,1687.0,1923.0,2487.0,2286.0,,,,0.0492834820812289,-1.36599656498635,0.0964981881688979,,1.938628758816438,,
,8839.0,1424.0,4872.0,1689.0,1921.0,2471.0,2278.0,,,,0.0493173795959566,-1.36614965160934,0.0965036565750896,,2.6099945725071083,,
,8842.0,1423.0,4872.0,1689.0,1928.0,2467.0,2307.0,,,,0.0492762701102465,-1.36583919559909,0.0964848115304953,,3.277550322628449,,
,8841.0,1424.0,4874.0,1688.0,1931.0,2467.0,2315.0,,,,0.049281004085259,-1.36590748100086,0.0964898009186043,,3.9321725543027046,,
,8847.0,1425.0,4873.0,1689.0,1930.0,2462.0,2315.0,,,,0.0492740536332335,-1.36629524024123,0.0964814329216827,,4.564785087108702,,
,8849.0,1428.0,4878.0,1693.0,1925.0,2458.0,2300.0,,,,0.0492647909124716,-1.36655197631242,0.0964898109776628,,5.166252552869282,,
,8853.0,1428.0,4880.0,1690.0,1928.0,2458.0,2312.0,,,,0.0492420965012499,-1.36644802147025,0.0964891003503998,,5.7272833426563,,
,8857.0,1430.0,4880.0,1691.0,1928.0,2464.0,2305.0,,,,0.0492031297901693,-1.36618750724177,0.0964572218689677,,6.23838781819412,,
,8861.0,1430.0,4881.0,1692.0,1926.0,2461.0,2317.0,,,,0.0491820707642374,-1.36565874141625,0.0964576116451702,,6.689933602184835,,
,8867.0,1434.0,4882.0,1693.0,1924.0,2454.0,2305.0,,,,0.0492017792951265,-1.36610012605042,0.0964631531430417,,7.072328474241141,,
,8867.0,1434.0,4886.0,1695.0,1924.0,2456.0,2303.0,,,,0.0492324586634957,-1.36606112557671,0.0964525697858141,,7.376342791492349,,
,8867.0,1436.0,4882.0,1693.0,1920.0,2455.0,2313.0,,,,0.0492194625932878,-1.36578540134859,0.096467096346603,,7.593559320886528,,
,8871.0,1435.0,4886.0,1693.0,1922.0,2459.0,2303.0,,,,0.0491963879146942,-1.36593214724633,0.0964710343300354,,7.7169128605021795,,
,8874.0,1436.0,4887.0,1695.0,1922.0,2452.0,2295.0,,,,0.0492348970716086,-1.36601799738161,0.0964796478023655,,7.741259948961811,,
,8879.0,1437.0,4889.0,1697.0,1926.0,2455.0,2295.0,,,,0.0492216052045749,-1.36627456829536,0.0964882334754586,,7.663904875038821,,
,8879.0,1438.0,4890.0,1696.0,1926.0,2448.0,2324.0,,,,0.0491764715862387,-1.36615857849396,0.0964773357498051,,7.485005598888179,,
,8882.0,1439.0,4891.0,1696.0,1924.0,2453.0,2322.0,,,,0.0492536343962749,-1.36608753890535,0.0964527904813109,,7.2077941481701435,,
,8883.0,1441.0,4894.0,1698.0,1921.0,2455.0,2294.0,,,,0.0492829278294264,-1.36588230674635,0.0964671695825791,,6.838570370902188,,
,8886.0,1442.0,4898.0,1698.0,1922.0,2455.0,2294.0,,,,0.0491763813255226,-1.3663562489263,0.0964572500526491,,6.386461848446397,,
,8885.0,1446.0,4898.0,1699.0,1931.0,2464.0,2322.0,,,,0.0492061196587309,-1.36612115620365,0.0964783981415703,,5.862978600526065,,
,8890.0,1441.0,4899.0,1698.0,1922.0,2458.0,2288.0,,,,0.0491908186293183,-1.3661251771369,0.0964675589978201,,5.281419511934872,,
,8893.0,1445.0,4897.0,1699.0,1926.0,2466.0,2312.0,,,,0.0491828408947802,-1.36692156609296,0.0964678175498484,,4.656201065531102,,
,8896.0,1446.0,4902.0,1700.0,1925.0,2455.0,2320.0,,,,0.049176092653717,-1.36576757874999,0.0964636607392651,,4.00217637954923,,
,8895.0,1445.0,4905.0,1704.0,1924.0,2453.0,2306.0,,,,0.0491796325315864,-1.36612692757831,0.0964491079037314,,3.3339977708721436,,
,8896.0,1447.0,4901.0,1700.0,1920.0,2457.0,2298.0,,,,0.0491414566556654,-1.36597235250694,0.0964329244590618,,2.665556217228709,,
,8898.0,1447.0,4906.0,1702.0,1921.0,2463.0,2286.0,,,,0.0491048187747899,-1.3666652927393,0.0964475402634162,,2.0095130963156995,,
,8901.0,1447.0,4908.0,1705.0,1926.0,2461.0,2280.0,,,,0.0491452707722904,-1.36663923905249,0.0964497102100972,,1.3769278399394982,,
,8901.0,1448.0,4907.0,1703.0,1926.0,2453.0,2280.0,,,,0.0491236235028091,-1.36673692959022,0.0964438343244669,,0.7769805170711673,,
,8904.0,1449.0,4910.0,1705.0,1927.0,2459.0,2297.0,,,,0.049196764431749,-1.36612781237314,0.0964461890807478,,0.21678854632419037,,
,8906.0,1454.0,4912.0,1707.0,1923.0,2455.0,2289.0,,,,0.049162321500058,-1.36592900678563,0.0964597488468991,,-0.2986819675514847,,
,8908.0,1451.0,4915.0,1708.0,1926.0,2454.0,2300.0,,,,0.0491590208177392,-1.36584782954113,0.0964691701568353,,-0.7666102037465312,,
,8909.0,1455.0,4913.0,1707.0,1929.0,2459.0,2303.0,,,,0.0491504408764836,-1.36597230518071,0.0964263568575885,,-1.1862227185773038,,
,8911.0,1453.0,4916.0,1707.0,1927.0,2455.0,2271.0,,,,0.0491454790809967,-1.36626425263956,0.0964477877583816,,-1.5586109386061964,,
,8913.0,1453.0,4916.0,1707.0,1927.0,2459.0,2279.0,,,,0.0491256621884302,-1.36638524168926,0.0964524870322045,,-1.8864760206582674,,
,8913.0,1458.0,4918.0,1711.0,1918.0,2463.0,2314.0,,,,0.0491573056977575,-1.36599652921837,0.0964551996311104,,-2.173816962003431,,
,8918.0,1459.0,4920.0,1713.0,1919.0,2467.0,2318.0,,,,0.0490444996527504,-1.36596413522221,0.0964427859185731,,-2.425580530261802,,
,8917.0,1458.0,4920.0,1715.0,1927.0,2462.0,2297.0,,,,0.049081160983776,-1.36571806197759,0.0964519417529728,,-2.647292999483836,,
,8919.0,1455.0,4921.0,1712.0,1923.0,2459.0,2295.0,,,,0.0490635076744492,-1.36613722665219,0.096438105042124,,-2.8446940044549955,,
,8923.0,1458.0,4926.0,1712.0,1927.0,2455.0,2305.0,,,,0.0491326642131376,-1.36540747988649,0.0964665587694302,,-3.02339231664975,,
,8921.0,1459.0,4927.0,1713.0,1925.0,2474.0,2306.0,,,,0.0491463063146129,-1.36528901685413,0.0964400681933319,,-3.188562217798269,,
,8922.0,1460.0,4926.0,1717.0,1927.0,2470.0,2294.0,,,,0.0491868039757081,-1.36562562406028,0.0964491702030056,,-3.3446974296421956,,
,8921.0,1459.0,4924.0,1711.0,1927.0,2462.0,2298.0,,,,0.0491372457140455,-1.3656192692159,0.0964386236145018,,-3.4954369884237284,,
,8925.0,1463.0,4928.0,1715.0,1923.0,2455.0,2308.0,,,,0.0491678435768343,-1.3657001862991,0.0964467143421827,,-3.643473477715245,,
,8930.0,1463.0,4928.0,1715.0,1920.0,2459.0,2308.0,,,,0.0491303310453915,-1.36649025293169,0.0964301934548643,,-3.790547965843639,,
,8928.0,1463.0,4933.0,1716.0,1920.0,2454.0,2292.0,,,,0.0491310424978344,-1.36689803897301,0.0964469299048073,,-3.937527382129976,,
,8930.0,1464.0,4933.0,1719.0,1927.0,2456.0,2296.0,,,,0.0491420189200765,-1.36630109157918,0.0964399448952483,,-4.084549303084924,,
,8932.0,1464.0,4935.0,1718.0,1920.0,2456.0,2287.0,,,,0.049103870698793,-1.36688629397373,0.0964328652322441,,-4.231208054704973,,
,8934.0,1468.0,4936.0,1719.0,1925.0,2458.0,2295.0,,,,0.0491533746998972,-1.36609225245228,0.0964513406619708,,-4.3767478874008106,,
,8938.0,1470.0,4938.0,1718.0,1926.0,2453.0,2291.0,,,,0.0492029308548134,-1.36560250365206,0.0964608565150717,,-4.5202270048379285,,
,8935.0,1469.0,4938.0,1722.0,1939.0,2466.0,2286.0,,,,0.0492020146492787,-1.36596177717843,0.0964460533969141,,-4.660621848909011,,
,8938.0,1471.0,4939.0,1723.0,1928.0,2459.0,2278.0,,,,0.049221567820525,-1.36604575574224,0.0964373611965132,,-4.796852966950363,,
,8944.0,1473.0,4941.0,1723.0,1927.0,2460.0,2295.0,,,,0.0491596584945091,-1.36589437612209,0.0964185456747517,,-4.927728827583977,,
,8943.0,1472.0,4944.0,1724.0,1924.0,2459.0,2297.0,,,,0.0491862839652801,-1.36632263849913,0.0964227746105676,,-5.051818716725358,,
,8939.0,1470.0,4943.0,1723.0,1923.0,2469.0,2317.0,,,,0.0491320193402966,-1.36602834030584,0.0964127969869521,,-5.167277963486136,,
,8936.0,1464.0,4943.0,1722.0,1923.0,2463.0,2321.0,,,,0.0491040268020898,-1.3664132880414,0.0964060566280352,,-5.2716570306782256,,
,8928.0,1456.0,4940.0,1725.0,1920.0,2450.0,2331.0,,,,0.0490454844351472,-1.36679049542203,0.0963989432072771,,-5.361729977633251,,
,8913.0,1449.0,4938.0,1722.0,1922.0,2450.0,2316.0,,,,0.0490631338334501,-1.36723627583259,0.0963751680136852,,-5.433377309611102,,
,8895.0,1443.0,4933.0,1722.0,1916.0,2454.0,2296.0,,,,0.0490037297836937,-1.36809510437387,0.0963558177891781,,-5.481553414157059,,
,8875.0,1430.0,4929.0,1718.0,1920.0,2447.0,2312.0,,,,0.0490083382463321,-1.36830866640524,0.0963302267803448,,-5.500360187666838,,
,8861.0,1426.0,4922.0,1719.0,1922.0,2453.0,2307.0,,,,0.0489602928061588,-1.36860397156891,0.0963309308981858,,-5.483236990592134,,
,8846.0,1420.0,4914.0,1715.0,1922.0,2458.0,2321.0,,,,0.0488370361452719,-1.36926714861737,0.0963507650413618,,-5.423263929341609,,
,8826.0,1410.0,4907.0,1712.0,1921.0,2452.0,2320.0,,,,0.048859927294297,-1.36991284578847,0.0962984848622035,,-5.313561969206427,,
,8814.0,1406.0,4895.0,1707.0,1920.0,2458.0,2302.0,,,,0.0488460048730622,-1.37019986327412,0.0963120500741415,,-5.147760832949696,,
,8797.0,1401.0,4891.0,1703.0,1920.0,2459.0,2299.0,,,,0.0488463697912127,-1.3704089164253,0.0963009451040943,,-4.920495271468698,,
,8785.0,1394.0,4882.0,1702.0,1919.0,2455.0,2278.0,,,,0.0488041465616505,-1.37028879826053,0.0963045239720081,,-4.627883442007896,,
,8772.0,1392.0,4873.0,1696.0,1921.0,2454.0,2279.0,,,,0.0488216622025021,-1.37032309821735,0.0963147542025465,,-4.267939414934657,,
,8762.0,1389.0,4866.0,1692.0,1923.0,2461.0,2317.0,,,,0.0488228812124365,-1.37017732345959,0.0963145112998039,,-3.8408769297977723,,
,8752.0,1385.0,4860.0,1688.0,1922.0,2461.0,2302.0,,,,0.048807214936387,-1.37033219037511,0.0963234222216626,,-3.3492741000005517,,
,8750.0,1384.0,4855.0,1687.0,1936.0,2463.0,2292.0,,,,0.0488597989917689,-1.36918741856868,0.0963266593590038,,-2.798087040347523,,
,8744.0,1384.0,4849.0,1682.0,1929.0,2470.0,2293.0,,,,0.0488411037166714,-1.36915988969795,0.0963222332860975,,-2.1945200059315484,,
,8742.0,1382.0,4846.0,1680.0,1923.0,2473.0,2280.0,,,,0.0489234376768139,-1.36885500361508,0.0963476607905648,,-1.5477756355203651,,
,8739.0,1380.0,4842.0,1675.0,1922.0,2451.0,2269.0,,,,0.0488931673509569,-1.36832399929231,0.0963408761758776,,-0.8687181830565303,,
,8740.0,1383.0,4843.0,1673.0,1922.0,2455.0,2275.0,,,,0.0489368752447333,-1.36812733737757,0.0963772993355243,,-0.16948474558424467,,
,8739.0,1384.0,4842.0,1676.0,1925.0,2456.0,2297.0,,,,0.0489299666954026,-1.36808527032016,0.0963765281307499,,0.5369241921988922,,
,8740.0,1382.0,4840.0,1675.0,1921.0,2469.0,2293.0,,,,0.0489374467703097,-1.36755665713498,0.0963598742235769,,1.237051075104148,,
,8739.0,1381.0,4832.0,1668.0,1924.0,2461.0,2296.0,,,,0.0489922442686056,-1.36743257697823,0.096365213034812,,1.917369852074009,,
,8742.0,1384.0,4833.0,1671.0,1925.0,2470.0,2300.0,,,,0.0489613472143918,-1.36773763378466,0.0963721036519742,,2.5646510298252743,,
,8746.0,1382.0,4836.0,1668.0,1928.0,2471.0,2277.0,,,,0.0489999861275995,-1.36738081369991,0.0963797129024256,,3.1663038981949385,,
,8748.0,1384.0,4834.0,1668.0,1923.0,2461.0,2314.0,,,,0.049000695511704,-1.36723425862425,0.0963630735919119,,3.710699445257991,,
,8748.0,1385.0,4832.0,1669.0,1921.0,2456.0,2292.0,,,,0.049035482523715,-1.3673956656203,0.0963732944536094,,4.1874765665041584,,
,8750.0,1386.0,4834.0,1669.0,1928.0,2462.0,2282.0,,,,0.0490249161394239,-1.36742091143061,0.0963560435750387,,4.58783064516099,,
,8755.0,1386.0,4837.0,1670.0,1923.0,2462.0,2270.0,,,,0.0490643761882826,-1.36759750670627,0.0963563090330297,,4.904779163038647,,
,8760.0,1385.0,4835.0,1669.0,1921.0,2460.0,2279.0,,,,0.0490902906090422,-1.3676271418161,0.0963639990806159,,5.13339506131189,,
,8762.0,1390.0,4834.0,1666.0,1926.0,2441.0,2293.0,,,,0.0490768116718531,-1.36761936892863,0.0963396350758275,,5.270995422897042,,
,8764.0,1387.0,4834.0,1667.0,1921.0,2451.0,2336.0,,,,0.0490881419317991,-1.36777236684994,0.0963895592699641,,5.317270061874187,,
2025-07-04 15:43:39,8771.0,1391.0,4838.0,1669.0,1918.0,2467.0,2306.0,,,2025/07/04 03:43:39 PM,0.0491378439210428,-1.36774698843529,0.096352360314571,,5.274331320772812,,
,8775.0,1394.0,4837.0,1669.0,1924.0,2460.0,2312.0,,,,0.0491301202130638,-1.36719642697707,0.0963740626115786,,5.146663982341192,,
,8775.0,1395.0,4839.0,1670.0,1923.0,2461.0,2303.0,,,,0.0491295604327857,-1.36724573028691,0.0963650720178043,,4.940955873848857,,
,8779.0,1394.0,4839.0,1667.0,1919.0,2457.0,2283.0,,,,0.0491155834474449,-1.36656748104699,0.0963885894880787,,4.665798870954355,,
,8781.0,1394.0,4841.0,1669.0,1921.0,2456.0,2288.0,,,,0.0491437730351806,-1.36647405100051,0.0963774491478307,,4.331267246094611,,
,8783.0,1394.0,4842.0,1672.0,1918.0,2459.0,2286.0,,,,0.0491291466808462,-1.36612533088931,0.0963828464231183,,3.9484017359315997,,
,8783.0,1394.0,4842.0,1672.0,1919.0,2466.0,2332.0,,,,0.0491293961733204,-1.36642710080179,0.0963895373105423,,3.528646140016476,,
,8785.0,1393.0,4840.0,1668.0,1920.0,2461.0,2318.0,,,,0.0491011646777216,-1.36654878321994,0.0963990485875587,,3.083292313371762,,
,8785.0,1394.0,4843.0,1670.0,1922.0,2458.0,2327.0,,,,0.0490929436598593,-1.3660196958684,0.0964018644828986,,2.622987048231316,,
,8787.0,1391.0,4842.0,1671.0,1919.0,2460.0,2319.0,,,,0.0491370087408464,-1.3662466834904,0.096403437231956,,2.157343046950712,,
,8783.0,1391.0,4841.0,1671.0,1920.0,2461.0,2312.0,,,,0.0490900032329879,-1.36629721167552,0.0963887801498169,,1.694680261446105,,
,8783.0,1389.0,4840.0,1669.0,1924.0,2455.0,2300.0,,,,0.0491198046308831,-1.36624861720444,0.0964033461781536,,1.24190663237579,,
,8784.0,1389.0,4840.0,1672.0,1924.0,2456.0,2307.0,,,,0.0491363888674295,-1.36614679421962,0.0964069135388361,,0.8045302008504154,,
,8782.0,1389.0,4842.0,1671.0,1930.0,2465.0,2290.0,,,,0.0490816749590548,-1.36663612783951,0.0964144204656763,,0.3867783929782217,,
,8778.0,1387.0,4838.0,1671.0,1928.0,2464.0,2291.0,,,,0.0491440464029759,-1.36596120354072,0.0964172890735274,,-0.008213456812185632,,
,8777.0,1386.0,4839.0,1669.0,1920.0,2466.0,2302.0,,,,0.0490755792986546,-1.3661344806658,0.0964224471675238,,-0.3781904402639245,,
,8777.0,1384.0,4837.0,1670.0,1918.0,2465.0,2301.0,,,,0.0490999439465598,-1.36530399571376,0.0964329453514932,,-0.72158854173837,,
,8778.0,1387.0,4838.0,1670.0,1921.0,2464.0,2292.0,,,,0.0491161500498833,-1.36520854835014,0.0964233063585596,,-1.0374018424931026,,
,8776.0,1386.0,4838.0,1670.0,1922.0,2465.0,2314.0,,,,0.0491486822983332,-1.36509956405692,0.096425629955814,,-1.3251237409315344,,
,8777.0,1384.0,4836.0,1671.0,1921.0,2465.0,2306.0,,,,0.0491313906989937,-1.36480499599921,0.0964276843856017,,-1.5847607981631735,,
,8780.0,1383.0,4837.0,1666.0,1921.0,2466.0,2285.0,,,,0.0491472288290726,-1.36497504158441,0.0964520258346392,,-1.8169019308084244,,
,8781.0,1387.0,4837.0,1671.0,1920.0,2459.0,2285.0,,,,0.0492081086795301,-1.36460947661749,0.0964625375077465,,-2.0228141653580423,,
,8782.0,1385.0,4840.0,1672.0,1920.0,2457.0,2316.0,,,,0.0492327550896275,-1.36419004632197,0.0964669730788848,,-2.2045291631126656,,
,8784.0,1386.0,4838.0,1671.0,1920.0,2462.0,2316.0,,,,0.0492712096691208,-1.36414585462086,0.0964608167909513,,-2.364882243971375,,
,8784.0,1385.0,4836.0,1667.0,1920.0,2459.0,2324.0,,,,0.0492482381645805,-1.36398317767214,0.0964649673449295,,-2.507467982321683,,
,8789.0,1388.0,4837.0,1669.0,1921.0,2463.0,2275.0,,,,0.0492519075863748,-1.36396155586635,0.0964687863694885,,-2.636483800466434,,
,8790.0,1390.0,4837.0,1673.0,1923.0,2462.0,2316.0,,,,0.0492790735394883,-1.36347110109646,0.0964628219054379,,-2.756444974590697,,
,8797.0,1391.0,4838.0,1672.0,1922.0,2466.0,2309.0,,,,0.0492824014309171,-1.36357591646345,0.0964847011147971,,-2.871770129534682,,
,8796.0,1389.0,4837.0,1670.0,1926.0,2459.0,2342.0,,,,0.0493107500328419,-1.36300300608472,0.0964858118630148,,-2.98625431275127,,
,8804.0,1390.0,4839.0,1672.0,1925.0,2456.0,2307.0,,,,0.0493031632087887,-1.36257325419963,0.0964980810808875,,-3.1024656592329443,,
,8807.0,1395.0,4841.0,1673.0,1923.0,2464.0,2302.0,,,,0.0492827524839585,-1.36324586415845,0.0965021654132731,,-3.22111994785765,,
,8809.0,1394.0,4843.0,1674.0,1928.0,2461.0,2302.0,,,,0.0493449729480837,-1.36268856777991,0.0965184575946466,,-3.3405031821129167,,
,8812.0,1394.0,4844.0,1675.0,1919.0,2488.0,2285.0,,,,0.049381428589252,-1.36273239266667,0.0965046548567305,,-3.456023230231031,,
,8816.0,1398.0,4846.0,1675.0,1917.0,2470.0,2305.0,,,,0.0493952844838885,-1.3617391832374,0.0965335082374245,,-3.559974086085714,,
,8822.0,1400.0,4848.0,1676.0,1922.0,2462.0,2316.0,,,,0.0494042432689606,-1.36144690978977,0.0965213520316273,,-3.6415864297589002,,
,8826.0,1400.0,4849.0,1678.0,1924.0,2466.0,2320.0,,,,0.0494496976606867,-1.36158102982719,0.0965503342173944,,-3.687413050053378,,
,8827.0,1405.0,4850.0,1676.0,1919.0,2465.0,2305.0,,,,0.0495419912077648,-1.35997029249534,0.0965739641323832,,-3.682058432880425,,
,8831.0,1402.0,4849.0,1676.0,1920.0,2460.0,2300.0,,,,0.0495365718761366,-1.35932714998277,0.0965823096711826,,-3.6092148309892864,,
,8837.0,1406.0,4852.0,1676.0,1924.0,2463.0,2301.0,,,,0.0496110850292589,-1.35897083551362,0.0965919208733839,,-3.4529222223217704,,
,8842.0,1406.0,4854.0,1679.0,1926.0,2461.0,2307.0,,,,0.0496168616261027,-1.35885592035196,0.0966143506013657,,-3.198935745830444,,
,8844.0,1408.0,4858.0,1680.0,1922.0,2461.0,2299.0,,,,0.0495816367501417,-1.3590433557879,0.096600948792316,,-2.8360666629294355,,
,8846.0,1407.0,4857.0,1681.0,1919.0,2456.0,2296.0,,,,0.0496146161865083,-1.35871194235074,0.0965894094820029,,-2.3573628607835073,,
,8851.0,1412.0,4859.0,1680.0,1920.0,2458.0,2317.0,,,,0.0496169685946908,-1.35925292800492,0.0965980640094268,,-1.7610109323828658,,
,8854.0,1412.0,4862.0,1682.0,1917.0,2464.0,2310.0,,,,0.0496251064215806,-1.35961774358303,0.0966065903793145,,-1.0508707963086619,,
,8857.0,1413.0,4863.0,1682.0,1924.0,2466.0,2324.0,,,,0.0496528505720307,-1.35937108313435,0.0966069848302876,,-0.23659153503464636,,
,8859.0,1414.0,4864.0,1683.0,1924.0,2461.0,2323.0,,,,0.0496877684008594,-1.35894908789191,0.0966023576249454,,0.6667006971273448,,
,8863.0,1416.0,4869.0,1683.0,1927.0,2462.0,2340.0,,,,0.0496584733270312,-1.3583446978528,0.0966096472773965,,1.6391091612599764,,
,8867.0,1419.0,4870.0,1687.0,1922.0,2458.0,2312.0,,,,0.0496979103479755,-1.35766575904969,0.0966114211858443,,2.6569943666368534,,
,8870.0,1419.0,4868.0,1687.0,1921.0,2462.0,2308.0,,,,0.0496898594619881,-1.35819369806032,0.0966300385518699,,3.6942181977424102,,
,8867.0,1418.0,4870.0,1687.0,1921.0,2457.0,2316.0,,,,0.0497258183596909,-1.35807651524256,0.0966331026604573,,4.723480337191934,,
,8872.0,1417.0,4875.0,1689.0,1920.0,2457.0,2362.0,,,,0.049695266888482,-1.35830240088629,0.0966177657918469,,5.717622251161113,,
,8877.0,1422.0,4876.0,1691.0,1921.0,2456.0,2332.0,,,,0.0497181731376775,-1.35805532495846,0.0966183035086604,,6.650792931922687,,
,8877.0,1426.0,4879.0,1690.0,1921.0,2454.0,2328.0,,,,0.0496908903543078,-1.3580121334632,0.0966277244725799,,7.499404938029003,,
,8879.0,1424.0,4879.0,1689.0,1923.0,2455.0,2300.0,,,,0.0496871930517771,-1.35811161737231,0.0966396118101518,,8.242850507205363,,
,8881.0,1425.0,4881.0,1691.0,1920.0,2461.0,2312.0,,,,0.0496757690402102,-1.35787548864543,0.0966110464344807,,8.863986252230745,,
,8883.0,1427.0,4883.0,1692.0,1919.0,2455.0,2317.0,,,,0.0496573027373963,-1.35764337238082,0.0966349317763844,,9.349423812201918,,
,8885.0,1429.0,4886.0,1693.0,1915.0,2456.0,2313.0,,,,0.0496711328135196,-1.35736554868269,0.0966361318109944,,9.689678672226679,,
,8888.0,1430.0,4888.0,1696.0,1913.0,2458.0,2304.0,,,,0.049693096199145,-1.35801818833846,0.0966349257428927,,9.879229149389507,,
,8890.0,1430.0,4885.0,1695.0,1914.0,2457.0,2293.0,,,,0.0497161663296201,-1.3580361302542,0.0966329707436696,,9.91652380381297,,
,8893.0,1431.0,4892.0,1697.0,1916.0,2463.0,2318.0,,,,0.0497635615260491,-1.35754179289434,0.0966508875453816,,9.803952103337052,,
,8894.0,1435.0,4893.0,1698.0,1919.0,2460.0,2346.0,,,,0.0497358374452445,-1.35820567917665,0.0966299016061755,,9.54776621028891,,
,8897.0,1433.0,4896.0,1699.0,1923.0,2459.0,2334.0,,,,0.0496873342696394,-1.35837172115989,0.0966326594617301,,9.15791937939588,,
,8897.0,1434.0,4894.0,1696.0,1916.0,2460.0,2287.0,,,,0.0496575033742784,-1.35810234466116,0.0966163271682462,,8.647776974052825,,
,8900.0,1436.0,4899.0,1699.0,1921.0,2456.0,2308.0,,,,0.0496784045026196,-1.3579515995256,0.0966138545982317,,8.033664716018526,,
,8904.0,1440.0,4899.0,1704.0,1921.0,2460.0,2300.0,,,,0.0496914060491773,-1.35846065674528,0.096624001912209,,7.334244219086171,,
,8904.0,1439.0,4900.0,1703.0,1920.0,2464.0,2305.0,,,,0.0496465411831805,-1.35861043563844,0.0966139810479094,,6.56973985875571,,
,8908.0,1440.0,4901.0,1702.0,1926.0,2459.0,2309.0,,,,0.0496686155282298,-1.35829718345023,0.0966259808809017,,5.761071837387644,,
,8906.0,1441.0,4903.0,1704.0,1921.0,2450.0,2305.0,,,,0.0496330959219163,-1.35907902184229,0.0966041390049501,,4.928968131264324,,
,8910.0,1444.0,4907.0,1704.0,1922.0,2453.0,2320.0,,,,0.0496816961369653,-1.35864723114639,0.0966185596201482,,4.093128840279394,,
,8909.0,1443.0,4908.0,1706.0,1925.0,2454.0,2314.0,,,,0.0496286933976751,-1.3588988594343,0.0966103905506218,,3.271502513742219,,
,8913.0,1444.0,4909.0,1707.0,1924.0,2467.0,2289.0,,,,0.0495965988717679,-1.35880006497936,0.0966167882717385,,2.479711855752074,,
,8914.0,1445.0,4909.0,1708.0,1917.0,2460.0,2285.0,,,,0.0496250740900751,-1.35873478651638,0.0966042763370397,,1.7306439090980712,,
,8917.0,1447.0,4913.0,1707.0,1915.0,2463.0,2298.0,,,,0.0495889071844345,-1.35903166373912,0.0966024087548106,,1.0342037242339581,,
,8920.0,1448.0,4914.0,1709.0,1920.0,2461.0,2311.0,,,,0.0495636303155077,-1.35896081885309,0.0965938359539725,,0.39722251895241756,,
,8921.0,1452.0,4917.0,1709.0,1917.0,2459.0,2328.0,,,,0.0495851379342239,-1.35893581082012,0.0965891012523337,,-0.17649121929869663,,
,8922.0,1450.0,4916.0,1708.0,1917.0,2468.0,2329.0,,,,0.0495313869986203,-1.35919982002462,0.0965952568084358,,-0.6859704290532186,,
,8928.0,1451.0,4918.0,1713.0,1919.0,2462.0,2317.0,,,,0.0495572678239483,-1.35905325371969,0.0965741346280425,,-1.1327928609541185,,
,8930.0,1455.0,4923.0,1710.0,1919.0,2462.0,2311.0,,,,0.0495284836105856,-1.35949645402991,0.0965919269723083,,-1.5206872583044937,,
,8930.0,1458.0,4926.0,1711.0,1918.0,2469.0,2308.0,,,,0.0495233414054707,-1.35998070027633,0.0965750490608475,,-1.8550640191205285,,
,8932.0,1458.0,4924.0,1712.0,1919.0,2462.0,2308.0,,,,0.049522261776346,-1.36005277462261,0.0965732691002289,,-2.142495439964185,,
,8934.0,1459.0,4927.0,1715.0,1921.0,2482.0,2307.0,,,,0.0494341580771967,-1.36051531050558,0.0965491827815192,,-2.3901734437485405,,
,8935.0,1460.0,4928.0,1716.0,1920.0,2464.0,2297.0,,,,0.049400597057852,-1.36100283847721,0.0965561712950966,,-2.6053744326177015,,
,8934.0,1459.0,4932.0,1715.0,1920.0,2465.0,2310.0,,,,0.0494052422485661,-1.3614657029104,0.0965403207855863,,-2.7949612921065974,,
,8933.0,1456.0,4930.0,1715.0,1931.0,2463.0,2323.0,,,,0.0493810655415217,-1.3618793912713,0.0965418273733264,,-2.9649515713656296,,
,8929.0,1448.0,4928.0,1715.0,1922.0,2456.0,2317.0,,,,0.0493418837937348,-1.36219644170123,0.0965275569038866,,-3.120178535803547,,
,8920.0,1444.0,4930.0,1717.0,1920.0,2455.0,2285.0,,,,0.0493578743725092,-1.36214338897825,0.0965014323082517,,-3.2640680550799037,,
,8902.0,1437.0,4924.0,1717.0,1924.0,2453.0,2292.0,,,,0.0493944450559289,-1.36166897220223,0.0965075120710798,,-3.398548857137249,,
,8884.0,1428.0,4919.0,1716.0,1925.0,2455.0,2293.0,,,,0.0493878862474299,-1.36159951711583,0.0965306743815159,,-3.524106128750309,,
,8864.0,1417.0,4914.0,1711.0,1919.0,2459.0,2322.0,,,,0.0493847288970407,-1.36181531556986,0.0965171474637515,,-3.6399784238345614,,
,8846.0,1409.0,4908.0,1709.0,1921.0,2475.0,2313.0,,,,0.0494023588881219,-1.36170833372076,0.0965351309273079,,-3.7444853041544364,,
,8829.0,1400.0,4899.0,1705.0,1920.0,2463.0,2292.0,,,,0.0493854877857805,-1.3617313626427,0.0965051607019517,,-3.835458601690119,,
,8811.0,1394.0,4892.0,1703.0,1923.0,2459.0,2284.0,,,,0.0493947111929663,-1.3613259314397,0.0965282890541837,,-3.910735154204918,,
,8795.0,1389.0,4880.0,1699.0,1925.0,2450.0,2311.0,,,,0.04938372948242,-1.36202349804506,0.0965303505207908,,-3.968656169907538,,
,8778.0,1384.0,4874.0,1695.0,1921.0,2459.0,2321.0,,,,0.0494261432265787,-1.36152542498439,0.0965287306532099,,-4.008511685481037,,
,8766.0,1379.0,4863.0,1689.0,1923.0,2455.0,2337.0,,,,0.0494575636304289,-1.36184590001654,0.0965458048377102,,-4.030870629855348,,
,8754.0,1376.0,4858.0,1687.0,1921.0,2456.0,2342.0,,,,0.049454059124255,-1.36165728765756,0.096548209696815,,-4.0377480456578505,,
,8742.0,1373.0,4851.0,1682.0,1917.0,2455.0,2329.0,,,,0.0494605433409901,-1.36233577514493,0.0965652962548977,,-4.032578970646204,,
,8736.0,1371.0,4842.0,1678.0,1919.0,2462.0,2342.0,,,,0.0494753187058061,-1.36156897127465,0.0965421502355902,,-4.019990401555369,,
,8732.0,1369.0,4838.0,1674.0,1916.0,2459.0,2342.0,,,,0.0494888986233526,-1.36177686831999,0.0965534349021556,,-4.005386131234622,,
,8727.0,1369.0,4834.0,1674.0,1917.0,2460.0,2319.0,,,,0.0495072682229785,-1.36174422595123,0.0965544407800197,,-3.9943822302737733,,
,8721.0,1366.0,4830.0,1669.0,1920.0,2460.0,2313.0,,,,0.0494937516737505,-1.36157193132529,0.0965342573488254,,-3.9921518530063578,,
,8719.0,1365.0,4824.0,1668.0,1922.0,2469.0,2295.0,,,,0.0494719394252883,-1.36138289527919,0.0965382105527146,,-4.002754729286974,,
,8720.0,1364.0,4822.0,1664.0,1922.0,2463.0,2306.0,,,,0.0494710192405752,-1.36159447865839,0.0965321426834458,,-4.028536419684585,,
,8720.0,1365.0,4824.0,1666.0,1920.0,2463.0,2289.0,,,,0.0495571812787198,-1.36159513600496,0.0965331242318075,,-4.069682381377953,,
,8720.0,1366.0,4818.0,1663.0,1920.0,2461.0,2307.0,,,,0.0495404642255561,-1.36170046567728,0.0965370104614809,,-4.124000198525351,,
,8720.0,1365.0,4819.0,1659.0,1920.0,2457.0,2328.0,,,,0.0495327361961129,-1.36173934079841,0.0965495654313983,,-4.186979789168283,,
