TimeLabel,MEAS1_PPG1,MEAS1_PPG2,MEAS1_PPG3,MEAS1_PPG4,ACCX,ACCY,ACCZ,HR_timestamp,HR_value,radar_timestamp,phase_rx0,phase_rx1,phase_rx2,timestep,n_process,original_rate,calculated_rate
2025-06-30 21:53:29,2731.0,633.0,1598.0,497.0,2436.0,2448.0,1957.0,2025-06-30 21:53:29,76.0,2025/06/30 09:53:29 PM,-0.570908211374618,-2.88386327596331,-0.836408709914496,2025/06/30 09:53:29 PM,2.1856106477079362,19.36872291564941,19.79977753058954
,2732.0,635.0,1600.0,497.0,2428.0,2445.0,1955.0,2025-06-30 21:53:30,77.0,,-0.568908607631271,-2.88334233652332,-0.83667454111695,2025/06/30 09:53:39 PM,2.1814230423549086,18.828453063964844,21.63782096751312
,2736.0,638.0,1603.0,497.0,2424.0,2440.0,1961.0,2025-06-30 21:53:31,77.0,,-0.567333891732578,-2.88329421551424,-0.836070766367458,2025/06/30 09:53:49 PM,2.1374121160584307,20.24291610717773,23.02786377708979
,2737.0,637.0,1601.0,497.0,2439.0,2432.0,1950.0,2025-06-30 21:53:32,78.0,,-0.566592335842141,-2.88254813843432,-0.835822294846251,2025/06/30 09:53:59 PM,2.0536165191445015,21.41327667236328,23.50287120590648
,2737.0,639.0,1603.0,496.0,2439.0,2431.0,1949.0,2025-06-30 21:53:33,78.0,,-0.565097584439624,-2.88234152763565,-0.835356956705405,2025/06/30 09:54:09 PM,1.9315884203593925,22.388059616088867,24.882978723404257
,2732.0,636.0,1602.0,496.0,2431.0,2437.0,1951.0,2025-06-30 21:53:34,80.0,,-0.564179348041717,-2.88207423325431,-0.834980985188823,2025/06/30 09:54:19 PM,1.7743481782185837,23.622047424316406,24.274658472226843
,2733.0,634.0,1599.0,498.0,2426.0,2435.0,1968.0,2025-06-30 21:53:35,81.0,,-0.563057761176707,-2.88190709319885,-0.834305047677849,2025/06/30 09:54:29 PM,1.586233433241668,24.623804092407227,23.656385631175567
,2728.0,633.0,1599.0,495.0,2428.0,2433.0,1973.0,2025-06-30 21:53:36,81.0,,-0.562284004552307,-2.88176204179318,-0.832960898821079,2025/06/30 09:54:39 PM,1.3726626038637182,24.30044174194336,23.76470588235292
,2720.0,632.0,1596.0,495.0,2428.0,2432.0,1978.0,2025-06-30 21:53:37,82.0,,-0.561132061986098,-2.88149950296964,-0.83244374449362,2025/06/30 09:54:49 PM,1.1398389548782437,23.895727157592773,26.09929078014184
,2714.0,629.0,1595.0,492.0,2429.0,2435.0,1970.0,2025-06-30 21:53:38,81.0,,-0.560593116931912,-2.88099348659452,-0.831482959676281,2025/06/30 09:54:59 PM,0.8944224345803509,24.506465911865234,25.037070795015524
,2712.0,630.0,1594.0,489.0,2433.0,2416.0,1960.0,2025-06-30 21:53:39,80.0,,-0.560307215914635,-2.88084049316919,-0.832636801705075,2025/06/30 09:55:09 PM,0.6431940207853518,24.896265029907227,23.72448979591836
,2706.0,630.0,1591.0,491.0,2420.0,2399.0,1965.0,2025-06-30 21:53:40,79.0,,-0.559719355342028,-2.88063896919629,-0.831095887225174,2025/06/30 09:55:19 PM,0.3927335670455559,5.928853988647461,23.324141153288515
,2697.0,628.0,1587.0,491.0,2422.0,2407.0,1968.0,2025-06-30 21:53:41,77.0,,-0.559512401222555,-2.88061019666318,-0.831238451135178,2025/06/30 09:55:29 PM,0.1491287022664097,9.404389381408691,23.842326098718022
,2690.0,625.0,1584.0,489.0,2427.0,2412.0,1972.0,2025-06-30 21:53:42,77.0,,-0.558868544150762,-2.88056283273337,-0.831903900395592,2025/06/30 09:55:39 PM,-0.08227037308854741,11.560693740844728,23.84200056834329
,2687.0,624.0,1584.0,487.0,2423.0,2416.0,1963.0,2025-06-30 21:53:43,77.0,,-0.558930137388512,-2.88039288371091,-0.831421633519073,2025/06/30 09:55:49 PM,-0.29703807816185634,23.84393119812012,25.15471785383901
,2680.0,624.0,1581.0,485.0,2413.0,2426.0,1958.0,2025-06-30 21:53:44,77.0,,-0.558716696177129,-2.88020217994565,-0.831062365630222,2025/06/30 09:55:59 PM,-0.49179448483249694,24.291498184204105,25.410145556835158
,2676.0,621.0,1582.0,485.0,2411.0,2428.0,1968.0,2025-06-30 21:53:45,77.0,,-0.558741915178206,-2.88022918535731,-0.831413523289761,2025/06/30 09:56:09 PM,-0.6642578707118263,24.810476303100582,24.87787668258791
,2673.0,620.0,1577.0,484.0,2419.0,2426.0,1951.0,2025-06-30 21:53:46,77.0,,-0.558341671698222,-2.88014374461931,-0.831404521577787,2025/06/30 09:56:19 PM,-0.813233320360695,25.19244384765625,24.856418332260578
,2669.0,619.0,1573.0,483.0,2426.0,2430.0,1936.0,2025-06-30 21:53:47,77.0,,-0.558079668716627,-2.88031713880342,-0.831038644890126,,-0.9385477549082586,,
,2665.0,620.0,1574.0,484.0,2424.0,2425.0,1964.0,2025-06-30 21:53:48,77.0,,-0.557910815195855,-2.88026180186489,-0.829972635306922,,-1.0409446735337433,,
,2664.0,618.0,1575.0,485.0,2427.0,2435.0,1960.0,2025-06-30 21:53:49,76.0,,-0.557897925306791,-2.88015027925493,-0.831138079150805,,-1.1219512819735882,,
,2659.0,617.0,1573.0,482.0,2429.0,2432.0,1961.0,2025-06-30 21:53:50,75.0,,-0.557965386946049,-2.88028830983035,-0.830878624109646,,-1.1837277002986086,,
,2657.0,615.0,1573.0,481.0,2425.0,2437.0,1933.0,2025-06-30 21:53:51,75.0,,-0.557678782920928,-2.88012047241222,-0.831434512088554,,-1.228904584874357,,
,2658.0,618.0,1574.0,483.0,2429.0,2446.0,1944.0,2025-06-30 21:53:52,75.0,,-0.557708015747066,-2.88024559751051,-0.830690237715194,,-1.260413354713572,,
,2660.0,617.0,1572.0,481.0,2427.0,2443.0,1946.0,2025-06-30 21:53:53,75.0,,-0.558044166207356,-2.88027915607786,-0.831049795075113,,-1.281312722717273,,
,2662.0,617.0,1572.0,481.0,2422.0,2433.0,1947.0,2025-06-30 21:53:54,75.0,,-0.558021202268548,-2.88019868632402,-0.830029273952916,,-1.2946159144240288,,
,2659.0,616.0,1570.0,480.0,2420.0,2443.0,1954.0,2025-06-30 21:53:55,75.0,,-0.558108750199834,-2.88030342431736,-0.830306409242562,,-1.3031240745487263,,
,2663.0,617.0,1571.0,483.0,2431.0,2438.0,1947.0,2025-06-30 21:53:56,74.0,,-0.557738950102875,-2.88029876347871,-0.830479688831154,,-1.3092723816651968,,
,2666.0,617.0,1573.0,482.0,2430.0,2446.0,1957.0,2025-06-30 21:53:57,74.0,,-0.557942834824247,-2.88013022312899,-0.83020346936638,,-1.31499606186004,,
,2665.0,619.0,1573.0,483.0,2427.0,2447.0,1956.0,2025-06-30 21:53:58,74.0,,-0.557640781703279,-2.88008626628085,-0.830679368623421,,-1.3216237334415453,,
,2664.0,616.0,1572.0,482.0,2416.0,2444.0,1952.0,2025-06-30 21:53:59,73.0,,-0.557424747337972,-2.87995841360331,-0.830306492341929,,-1.3298052901863953,,
,2665.0,617.0,1572.0,481.0,2423.0,2436.0,1968.0,2025-06-30 21:54:00,74.0,,-0.557107913737636,-2.87958668223822,-0.831037171962948,,-1.3394807393765058,,
,2669.0,619.0,1573.0,483.0,2425.0,2438.0,1964.0,2025-06-30 21:54:01,74.0,,-0.557207264516319,-2.87964307610291,-0.830252738432987,,-1.3498948432740088,,
,2669.0,620.0,1573.0,482.0,2434.0,2436.0,1975.0,2025-06-30 21:54:02,75.0,,-0.557564415105295,-2.87969654677139,-0.830848727132585,,-1.3596598397272774,,
,2671.0,618.0,1577.0,484.0,2435.0,2442.0,1975.0,2025-06-30 21:54:03,76.0,,-0.5573714333737,-2.87987897020939,-0.830524684599774,,-1.3668648644496986,,
,2670.0,615.0,1572.0,482.0,2424.0,2428.0,1966.0,2025-06-30 21:54:04,76.0,,-0.557506273750487,-2.87972436956361,-0.830031201889531,,-1.369226148472583,,
,2673.0,618.0,1575.0,483.0,2425.0,2421.0,1976.0,2025-06-30 21:54:05,76.0,,-0.557575323082823,-2.8798070115362,-0.830868411923049,,-1.364267098609505,,
,2674.0,621.0,1577.0,482.0,2424.0,2430.0,1983.0,2025-06-30 21:54:06,76.0,,-0.557335644870083,-2.87982247913035,-0.830923792621282,,-1.3495128108093914,,
,2674.0,619.0,1576.0,484.0,2426.0,2431.0,1972.0,2025-06-30 21:54:07,76.0,,-0.557460862928509,-2.87976684022781,-0.83117441664065,,-1.3226805083213864,,
,2673.0,620.0,1574.0,483.0,2424.0,2436.0,1951.0,2025-06-30 21:54:08,76.0,,-0.557368098441553,-2.87996303218201,-0.830693707790507,,-1.2818468178185816,,
,2673.0,618.0,1574.0,483.0,2417.0,2437.0,1967.0,2025-06-30 21:54:09,77.0,,-0.557384072974868,-2.87956936971084,-0.829787570297923,,-1.225575104286392,,
,2675.0,621.0,1575.0,484.0,2418.0,2436.0,1974.0,2025-06-30 21:54:10,77.0,,-0.557131188745287,-2.87963891753172,-0.82944585497087,,-1.152990980842495,,
,2674.0,619.0,1574.0,485.0,2411.0,2436.0,1975.0,2025-06-30 21:54:11,77.0,,-0.557288357517029,-2.87946529417479,-0.830444243304958,,-1.0638008095107208,,
,2674.0,621.0,1574.0,483.0,2411.0,2439.0,1975.0,2025-06-30 21:54:12,78.0,,-0.557056901601664,-2.87956392184725,-0.829060676410502,,-0.9582555315160078,,
,2672.0,622.0,1574.0,482.0,2419.0,2433.0,1962.0,2025-06-30 21:54:13,79.0,,-0.556831669160208,-2.87949418974263,-0.830226176944158,,-0.8370694911220427,,
,2674.0,619.0,1574.0,482.0,2425.0,2425.0,1966.0,2025-06-30 21:54:14,80.0,,-0.556849458331236,-2.8793332210325,-0.830497998067162,,-0.7013100623040124,,
,2672.0,623.0,1576.0,483.0,2422.0,2431.0,1975.0,2025-06-30 21:54:15,80.0,,-0.556888088799708,-2.87948806862288,-0.830858096924777,,-0.5522779891072378,,
,2674.0,619.0,1574.0,483.0,2417.0,2418.0,1976.0,2025-06-30 21:54:16,80.0,,-0.556475338456229,-2.87920119277208,-0.829016655847956,,-0.3913997658445993,,
,2671.0,616.0,1575.0,482.0,2422.0,2429.0,1971.0,2025-06-30 21:54:17,81.0,,-0.55652679419247,-2.8793775306588,-0.829520407744649,,-0.22015175909899407,,
,2673.0,619.0,1574.0,483.0,2421.0,2432.0,1980.0,2025-06-30 21:54:18,80.0,,-0.55620136031638,-2.87919679819402,-0.829099671900359,,-0.040031057693343634,,
,2674.0,621.0,1573.0,483.0,2424.0,2442.0,1972.0,2025-06-30 21:54:19,80.0,,-0.555997280914414,-2.87922509082661,-0.829408699707256,,0.14741950885884014,,
,2675.0,622.0,1574.0,483.0,2425.0,2442.0,1973.0,2025-06-30 21:54:20,80.0,,-0.555787035096485,-2.87926563415854,-0.829802040487137,,0.34053443038639153,,
,2672.0,617.0,1573.0,482.0,2424.0,2437.0,1981.0,2025-06-30 21:54:21,79.0,,-0.555565667271089,-2.87915251606699,-0.82856759667183,,0.5374094101188377,,
,2673.0,621.0,1575.0,484.0,2420.0,2437.0,1965.0,2025-06-30 21:54:22,79.0,,-0.555524040857769,-2.87911641268406,-0.82886558067713,,0.7357681870206625,,
,2674.0,620.0,1574.0,484.0,2417.0,2444.0,1962.0,2025-06-30 21:54:23,79.0,,-0.555434620147773,-2.8789110577913,-0.829679025957524,,0.9328403799525009,,
,2675.0,621.0,1575.0,483.0,2417.0,2433.0,1966.0,2025-06-30 21:54:24,78.0,,-0.554815498525467,-2.8790825479406,-0.827964408047318,,1.1252796508378689,,
,2677.0,621.0,1576.0,483.0,2422.0,2437.0,1983.0,2025-06-30 21:54:25,78.0,,-0.555162446465092,-2.87903117246271,-0.829387410059974,,1.30914770134579,,
,2677.0,621.0,1575.0,485.0,2423.0,2435.0,1974.0,2025-06-30 21:54:26,77.0,,-0.555251297285321,-2.87907759558238,-0.829046148895991,,1.4799817106542255,,
,2679.0,620.0,1575.0,485.0,2429.0,2424.0,1971.0,2025-06-30 21:54:27,76.0,,-0.555129221870641,-2.87903375439376,-0.829661324634489,,1.632952154476525,,
,2681.0,623.0,1575.0,484.0,2430.0,2425.0,1966.0,2025-06-30 21:54:28,76.0,,-0.554604838159131,-2.87886018841508,-0.827917406326203,,1.763106008230754,,
,2681.0,619.0,1575.0,482.0,2421.0,2429.0,1959.0,2025-06-30 21:54:29,75.0,,-0.554329653585708,-2.87873370303539,-0.829416184519524,,1.865678560927138,,
,2683.0,623.0,1578.0,480.0,2417.0,2430.0,1956.0,2025-06-30 21:54:30,75.0,,-0.554783010419871,-2.87872159120471,-0.828058214105861,,1.936446706981037,,
,2686.0,623.0,1579.0,485.0,2416.0,2423.0,1969.0,2025-06-30 21:54:31,74.0,,-0.554885606661194,-2.87875221575952,-0.828464068985133,,1.9720887027973117,,
,2687.0,623.0,1580.0,485.0,2417.0,2433.0,1967.0,2025-06-30 21:54:32,74.0,,-0.554970158519406,-2.87864798061301,-0.828416953221673,,1.9705109208584253,,
,2690.0,625.0,1579.0,487.0,2409.0,2434.0,1955.0,2025-06-30 21:54:33,74.0,,-0.554942110148082,-2.87871859959706,-0.828729486692835,,1.9311020067674594,,
,2689.0,623.0,1579.0,484.0,2417.0,2429.0,1977.0,2025-06-30 21:54:34,74.0,,-0.555009584288565,-2.87881750031267,-0.828023400421863,,1.854879816511634,,
,2691.0,626.0,1581.0,487.0,2417.0,2432.0,1973.0,2025-06-30 21:54:35,74.0,,-0.554907085935104,-2.87879852657907,-0.827114275154842,,1.7445069053480347,,
,2697.0,625.0,1585.0,487.0,2423.0,2428.0,1975.0,2025-06-30 21:54:36,75.0,,-0.554861138735296,-2.87871011841536,-0.827693250641572,,1.6041655082730966,,
,2695.0,627.0,1585.0,487.0,2429.0,2426.0,1969.0,2025-06-30 21:54:37,75.0,,-0.555101927084251,-2.87857622015744,-0.828059873341333,,1.4393008078459855,,
,2698.0,624.0,1583.0,485.0,2424.0,2417.0,1970.0,2025-06-30 21:54:38,75.0,,-0.555009218185323,-2.87872628695941,-0.827803883875451,,1.2562583933709335,,
,2699.0,627.0,1582.0,487.0,2423.0,2418.0,1977.0,2025-06-30 21:54:39,75.0,,-0.555333524362096,-2.87858418704871,-0.828172394542616,,1.06185447057169,,
,2702.0,626.0,1584.0,487.0,2414.0,2430.0,1970.0,2025-06-30 21:54:40,74.0,,-0.55521090894592,-2.87857037833687,-0.827512436633936,,0.8629232416161614,,
,2704.0,627.0,1587.0,487.0,2406.0,2433.0,1978.0,2025-06-30 21:54:41,74.0,,-0.554940760135707,-2.87882227022267,-0.82675606389043,,0.6658848727184599,,
,2706.0,627.0,1587.0,489.0,2416.0,2439.0,1976.0,2025-06-30 21:54:42,74.0,,-0.55515367647342,-2.87885477778816,-0.828342058164333,,0.47637129251339766,,
,2706.0,627.0,1585.0,489.0,2417.0,2441.0,1973.0,2025-06-30 21:54:43,73.0,,-0.555281899199462,-2.87877493995203,-0.828205557371481,,0.29893794159647463,,
,2709.0,631.0,1588.0,490.0,2421.0,2432.0,1960.0,2025-06-30 21:54:44,74.0,,-0.555190017015556,-2.878767321569,-0.827863545997318,,0.13687933302876878,,
,2711.0,631.0,1585.0,489.0,2425.0,2436.0,1973.0,2025-06-30 21:54:45,74.0,,-0.554904019716822,-2.87877427658379,-0.828451683201503,,-0.00784402796350049,,
,2713.0,630.0,1589.0,489.0,2424.0,2436.0,1972.0,2025-06-30 21:54:46,74.0,,-0.555059850148869,-2.87870386647314,-0.827007751815156,,-0.13456965671652696,,
,2712.0,630.0,1588.0,488.0,2420.0,2439.0,1971.0,2025-06-30 21:54:47,74.0,,-0.555138122264739,-2.87871364109339,-0.82829058861753,,-0.24379941854863402,,
,2716.0,632.0,1588.0,490.0,2421.0,2435.0,1966.0,2025-06-30 21:54:48,75.0,,-0.555353147794851,-2.8788946502479,-0.827201420702607,,-0.3369876163198722,,
,2718.0,633.0,1592.0,491.0,2424.0,2432.0,1967.0,2025-06-30 21:54:49,75.0,,-0.555315643858668,-2.87865355606034,-0.828482147908013,,-0.41627678231326365,,
,2718.0,630.0,1589.0,491.0,2423.0,2434.0,1976.0,2025-06-30 21:54:50,75.0,,-0.555198862071069,-2.87838561589973,-0.827483620729789,,-0.48421119077305835,,
,2721.0,633.0,1592.0,490.0,2424.0,2437.0,1969.0,2025-06-30 21:54:51,75.0,,-0.555234806178068,-2.87833035103961,-0.827826607315925,,-0.5434586589220395,,
,2723.0,633.0,1596.0,492.0,2421.0,2437.0,1963.0,2025-06-30 21:54:52,75.0,,-0.555149405744541,-2.87843528428193,-0.828152617442094,,-0.5965674753640584,,
,2725.0,633.0,1594.0,491.0,2418.0,2426.0,1953.0,2025-06-30 21:54:53,75.0,,-0.555463781250968,-2.87839319828773,-0.82768240654907,,-0.645777488748228,,
,2727.0,631.0,1595.0,495.0,2416.0,2429.0,1958.0,2025-06-30 21:54:54,75.0,,-0.55498349412644,-2.8784268607081,-0.827025275752609,,-0.6928940695141411,,
,2729.0,632.0,1595.0,492.0,2424.0,2423.0,1968.0,2025-06-30 21:54:55,75.0,,-0.554812307105236,-2.87863936123885,-0.827249059337076,,-0.7392234299230656,,
,2732.0,635.0,1596.0,493.0,2427.0,2436.0,1969.0,2025-06-30 21:54:56,75.0,,-0.554877771794235,-2.8783342024759,-0.826719365243066,,-0.7855601217809995,,
,2733.0,634.0,1600.0,493.0,2425.0,2440.0,1967.0,2025-06-30 21:54:57,76.0,,-0.55470417762941,-2.87875849890918,-0.82720166544235,,-0.83221353344482,,
,2732.0,634.0,1600.0,494.0,2422.0,2438.0,1961.0,2025-06-30 21:54:58,76.0,,-0.55456120044942,-2.87849598729432,-0.827508999768045,,-0.8790594326580692,,
,2738.0,637.0,1598.0,493.0,2418.0,2432.0,1980.0,2025-06-30 21:54:59,77.0,,-0.554551954744827,-2.87860589446067,-0.827703468392971,,-0.9256038713065666,,
,2737.0,635.0,1598.0,492.0,2417.0,2415.0,1961.0,2025-06-30 21:55:00,77.0,,-0.554158711606528,-2.87856995990566,-0.827697976062077,,-0.9710490772486945,,
,2740.0,636.0,1601.0,494.0,2417.0,2428.0,1961.0,2025-06-30 21:55:01,77.0,,-0.554531857721624,-2.87869109093004,-0.826225581212297,,-1.0143538427452115,,
,2741.0,639.0,1602.0,495.0,2413.0,2417.0,1971.0,2025-06-30 21:55:02,77.0,,-0.55543761266046,-2.87892210366004,-0.827940178631328,,-1.054284279444866,,
,2744.0,637.0,1603.0,496.0,2416.0,2406.0,1971.0,2025-06-30 21:55:03,77.0,,-0.556767914430954,-2.87921448005697,-0.828525746240112,,-1.089454503032027,,
,2744.0,639.0,1602.0,495.0,2421.0,2415.0,1980.0,2025-06-30 21:55:04,77.0,,-0.557405090317685,-2.87933317961558,-0.829670961230133,,-1.1183603785438299,,
,2748.0,640.0,1605.0,497.0,2418.0,2423.0,1978.0,2025-06-30 21:55:05,76.0,,-0.557899474202387,-2.87959392314628,-0.831796640811836,,-1.1394121849254064,,
,2748.0,642.0,1605.0,499.0,2425.0,2433.0,1975.0,2025-06-30 21:55:06,76.0,,-0.558433441311026,-2.87988204434378,-0.830771592718135,,-1.150973232107884,,
,2752.0,640.0,1607.0,498.0,2424.0,2438.0,1975.0,2025-06-30 21:55:07,76.0,,-0.559271772004784,-2.88012484527039,-0.832902504644334,,-1.151410608958403,,
,2750.0,639.0,1605.0,496.0,2425.0,2436.0,1972.0,2025-06-30 21:55:08,76.0,,-0.559447267826436,-2.88046388866831,-0.832079019643665,,-1.1391612673509686,,
,2753.0,640.0,1608.0,498.0,2426.0,2426.0,1975.0,2025-06-30 21:55:09,75.0,,-0.559721745665558,-2.8804476340343,-0.833617929538019,,-1.1128119929815148,,
,2750.0,639.0,1606.0,498.0,2426.0,2438.0,1970.0,2025-06-30 21:55:10,75.0,,-0.559537692950349,-2.88048984717849,-0.833469280088354,,-1.0711865366252384,,
,2749.0,639.0,1607.0,497.0,2424.0,2440.0,1976.0,2025-06-30 21:55:11,75.0,,-0.560266365387468,-2.88050018976029,-0.834146515056531,,-1.0134288467002812,,
,2745.0,637.0,1604.0,497.0,2419.0,2444.0,1972.0,2025-06-30 21:55:12,75.0,,-0.560592539040942,-2.88068886816426,-0.833762383525293,,-0.9390695263550594,,
,2739.0,638.0,1601.0,495.0,2427.0,2436.0,1969.0,2025-06-30 21:55:13,74.0,,-0.560949077220465,-2.88080325590889,-0.833219062229594,,-0.8480641839800557,,
,2736.0,638.0,1602.0,497.0,2429.0,2419.0,1978.0,2025-06-30 21:55:14,74.0,,-0.561506906149097,-2.88069676338444,-0.833564778494229,,-0.740796960028396,,
,2726.0,636.0,1598.0,495.0,2427.0,2427.0,1974.0,2025-06-30 21:55:15,74.0,,-0.561455722280227,-2.88056587895947,-0.833146510786093,,-0.6180489707837074,,
,2721.0,634.0,1596.0,493.0,2427.0,2445.0,1972.0,2025-06-30 21:55:16,75.0,,-0.561276409108458,-2.880779818759,-0.83207957601862,,-0.48093813806892766,,
,2713.0,631.0,1594.0,491.0,2421.0,2431.0,1972.0,2025-06-30 21:55:17,75.0,,-0.561025601209623,-2.88057818558574,-0.832342482256712,,-0.3308424381830531,,
,2706.0,630.0,1593.0,491.0,2418.0,2418.0,1988.0,2025-06-30 21:55:18,75.0,,-0.560545012971284,-2.8806340133773,-0.832546416705727,,-0.16932195301354244,,
,2703.0,628.0,1589.0,489.0,2416.0,2424.0,1970.0,2025-06-30 21:55:19,75.0,,-0.560886067840693,-2.88045733414002,-0.83241393395315,,0.0019443114853055666,,
,2693.0,627.0,1585.0,487.0,2418.0,2429.0,1973.0,2025-06-30 21:55:20,76.0,,-0.560236056647771,-2.88027786636483,-0.831214530196057,,0.18119308901117337,,
,2688.0,624.0,1584.0,484.0,2414.0,2426.0,1973.0,2025-06-30 21:55:21,76.0,,-0.560174761302266,-2.88026586174452,-0.831653219760073,,0.36657388794475243,,
,2681.0,624.0,1580.0,486.0,2398.0,2423.0,1979.0,2025-06-30 21:55:22,76.0,,-0.560205342315019,-2.88003907604108,-0.831144808004257,,0.5561057849868405,,
,2676.0,621.0,1578.0,484.0,2413.0,2432.0,1968.0,2025-06-30 21:55:23,76.0,,-0.560031891322138,-2.88021224592297,-0.831727452569909,,0.747599072765324,,
,2673.0,621.0,1575.0,483.0,2419.0,2420.0,1972.0,2025-06-30 21:55:24,76.0,,-0.559795133902303,-2.88017841832473,-0.831138519308309,,0.9385549930736542,,
,2669.0,619.0,1576.0,482.0,2413.0,2427.0,1965.0,2025-06-30 21:55:25,78.0,,-0.559706424680654,-2.88037099900283,-0.83038065312714,,1.1260642909368301,,
,2667.0,618.0,1573.0,483.0,2415.0,2423.0,1970.0,2025-06-30 21:55:26,78.0,,-0.558785374246249,-2.88005251081191,-0.830701247462845,,1.306730711363926,,
,2667.0,617.0,1572.0,483.0,2424.0,2425.0,1963.0,2025-06-30 21:55:27,78.0,,-0.558912996397369,-2.88017085120041,-0.830451896184741,,1.4766470577495312,,
,2665.0,620.0,1573.0,481.0,2423.0,2427.0,1962.0,2025-06-30 21:55:28,79.0,,-0.559035536225678,-2.88018100286975,-0.829259027906033,,1.6314476567842406,,
,2666.0,618.0,1573.0,484.0,2426.0,2422.0,1955.0,2025-06-30 21:55:29,79.0,,-0.55892124859685,-2.88014535165981,-0.830128392481146,,1.7664518931846132,,
,2666.0,617.0,1573.0,482.0,2426.0,2437.0,1955.0,2025-06-30 21:55:30,79.0,,-0.558923363005404,-2.88017965071487,-0.830518410603212,,1.87690023688807,,
,2662.0,619.0,1574.0,483.0,2429.0,2440.0,1966.0,2025-06-30 21:55:31,79.0,,-0.558877109555409,-2.88015531664736,-0.83055090191665,,1.958269167091403,,
,2665.0,616.0,1575.0,483.0,2422.0,2423.0,1962.0,2025-06-30 21:55:32,77.0,,-0.559098548785646,-2.88020659568231,-0.831447515741938,,2.0066370569021346,,
,2666.0,619.0,1574.0,483.0,2418.0,2417.0,1966.0,2025-06-30 21:55:33,76.0,,-0.559249813817688,-2.88026868563047,-0.830312728633364,,2.019061601862761,,
,2667.0,617.0,1572.0,481.0,2429.0,2441.0,1970.0,2025-06-30 21:55:34,75.0,,-0.559022133259363,-2.88012709027403,-0.829791786413589,,1.9939225550306319,,
,2666.0,621.0,1575.0,482.0,2427.0,2428.0,1967.0,2025-06-30 21:55:35,75.0,,-0.559335351821552,-2.88001359959813,-0.83014599236811,,1.9311827432473847,,
,2668.0,621.0,1576.0,484.0,2421.0,2427.0,1972.0,2025-06-30 21:55:36,74.0,,-0.558956898328902,-2.88014166797895,-0.830406629553629,,1.8325263294947904,,
2025-06-30 21:53:30,2664.0,619.0,1574.0,481.0,2425.0,2439.0,1979.0,2025-06-30 21:55:37,74.0,2025/06/30 09:53:30 PM,-0.559147897150945,-2.88008481376333,-0.83118166444052,,1.7013458542257816,,
,2667.0,618.0,1572.0,483.0,2427.0,2443.0,1973.0,2025-06-30 21:55:38,74.0,,-0.559551671429968,-2.88013088009727,-0.83031286453987,,1.542567368758785,,
,2668.0,618.0,1575.0,480.0,2432.0,2429.0,1972.0,2025-06-30 21:55:39,74.0,,-0.559531077980178,-2.8799432772503,-0.830322397825411,,1.3623235283178234,,
,2669.0,621.0,1576.0,484.0,2410.0,2438.0,1963.0,2025-06-30 21:55:40,74.0,,-0.559683238216375,-2.88012967574736,-0.831141804864293,,1.167504757453167,,
,2670.0,621.0,1575.0,483.0,2406.0,2429.0,1955.0,2025-06-30 21:55:41,73.0,,-0.559886188838264,-2.88007787727503,-0.830985195408942,,0.9652353472879776,,
,2670.0,619.0,1575.0,481.0,2422.0,2416.0,1961.0,2025-06-30 21:55:42,73.0,,-0.560133646744301,-2.88008366513575,-0.831386235204428,,0.7623317837814749,,
,2669.0,617.0,1573.0,481.0,2421.0,2401.0,1978.0,2025-06-30 21:55:43,73.0,,-0.559912086121458,-2.88019077742503,-0.831153390899244,,0.5648028756081418,,
,2673.0,621.0,1575.0,484.0,2423.0,2423.0,1976.0,2025-06-30 21:55:44,72.0,,-0.55992474554754,-2.88026048920949,-0.831541126410625,,0.37744506026065866,,
,2673.0,621.0,1575.0,483.0,2421.0,2428.0,1979.0,2025-06-30 21:55:45,72.0,,-0.560158017073003,-2.88018449579429,-0.829971464769635,,0.20357307706411498,,
,2671.0,621.0,1575.0,482.0,2430.0,2425.0,1993.0,2025-06-30 21:55:46,71.0,,-0.559736676185437,-2.88012618829782,-0.83073836221053,,0.04490860121848251,,
,2672.0,619.0,1575.0,480.0,2423.0,2432.0,1983.0,2025-06-30 21:55:47,71.0,,-0.559972213261566,-2.88002500888716,-0.831120234354154,,-0.09836977127190288,,
,2672.0,620.0,1574.0,483.0,2419.0,2425.0,1980.0,2025-06-30 21:55:48,71.0,,-0.559662072669404,-2.87993665079821,-0.830948892166997,,-0.22743020777510778,,
,2671.0,619.0,1576.0,482.0,2418.0,2433.0,1984.0,2025-06-30 21:55:49,71.0,,-0.559929280814558,-2.87992926705675,-0.831434179794452,,-0.3444756839256347,,
,2672.0,620.0,1575.0,481.0,2419.0,2433.0,1986.0,2025-06-30 21:55:50,71.0,,-0.559216759277794,-2.87991368552856,-0.82954410828466,,-0.4523583521493838,,
,2671.0,616.0,1574.0,482.0,2419.0,2425.0,1986.0,2025-06-30 21:55:51,71.0,,-0.559054011944327,-2.88001011343587,-0.830497757637309,,-0.5541677094049676,,
,2672.0,619.0,1575.0,483.0,2427.0,2432.0,1990.0,2025-06-30 21:55:52,71.0,,-0.558943900922914,-2.87997797707127,-0.830696128713016,,-0.6528391858636529,,
,2672.0,620.0,1574.0,481.0,2416.0,2425.0,1982.0,2025-06-30 21:55:53,71.0,,-0.558746105076967,-2.87992284165146,-0.830026460935765,,-0.7508231509478464,,
,2671.0,618.0,1572.0,481.0,2421.0,2421.0,1980.0,2025-06-30 21:55:54,71.0,,-0.55809169817908,-2.88006184329067,-0.828875581666133,,-0.849843523617659,,
,2671.0,618.0,1573.0,481.0,2420.0,2421.0,1981.0,2025-06-30 21:55:55,71.0,,-0.558212590004831,-2.87966315896307,-0.829234874117015,,-0.9507619701419818,,
,2670.0,618.0,1574.0,483.0,2423.0,2440.0,1978.0,2025-06-30 21:55:56,72.0,,-0.557591644478067,-2.87977513070437,-0.830295880424673,,-1.053549581036923,,
,2672.0,618.0,1576.0,481.0,2414.0,2418.0,1959.0,2025-06-30 21:55:57,74.0,,-0.557648366713792,-2.87926808105548,-0.828986397875505,,-1.1573544223742775,,
,2674.0,619.0,1574.0,482.0,2419.0,2427.0,1952.0,2025-06-30 21:55:58,75.0,,-0.557030228628988,-2.87951931260347,-0.829971501214615,,-1.2606422934145978,,
,2671.0,618.0,1575.0,482.0,2425.0,2421.0,1966.0,2025-06-30 21:55:59,75.0,,-0.556675475762541,-2.87928201762325,-0.827870028516009,,-1.3613813079779744,,
,2672.0,617.0,1575.0,482.0,2425.0,2427.0,1975.0,2025-06-30 21:56:00,74.0,,-0.556650880712583,-2.87915841208059,-0.828290907785564,,-1.4572396938713608,,
,2675.0,619.0,1575.0,482.0,2427.0,2437.0,1950.0,2025-06-30 21:56:01,74.0,,-0.556779568214585,-2.87910757662263,-0.82760191361838,,-1.5457701783115603,,
,2675.0,620.0,1573.0,485.0,2422.0,2424.0,1975.0,2025-06-30 21:56:02,73.0,,-0.556527861082734,-2.87921634749382,-0.827781487392669,,-1.6245618878511483,,
,2677.0,620.0,1576.0,484.0,2426.0,2420.0,1983.0,2025-06-30 21:56:03,72.0,,-0.556738455357679,-2.87913991422594,-0.827764888486693,,-1.6913497093313994,,
,2676.0,618.0,1577.0,481.0,2421.0,2420.0,1984.0,2025-06-30 21:56:04,71.0,,-0.556839736944298,-2.87894622380012,-0.827892497937925,,-1.7440796970457408,,
,2679.0,620.0,1578.0,483.0,2423.0,2433.0,1959.0,2025-06-30 21:56:05,71.0,,-0.556466439363581,-2.87892841589572,-0.826956616832341,,-1.7809361706070435,,
,2678.0,621.0,1578.0,484.0,2425.0,2424.0,1955.0,2025-06-30 21:56:06,72.0,,-0.557132591017105,-2.87913958574718,-0.825910356633007,,-1.8003410019241803,,
,2681.0,621.0,1579.0,484.0,2426.0,2424.0,1963.0,2025-06-30 21:56:07,73.0,,-0.557297036267035,-2.87902717564435,-0.825294102611144,,-1.8009380275296836,,
,2682.0,621.0,1576.0,484.0,2422.0,2411.0,1967.0,2025-06-30 21:56:08,74.0,,-0.557506390175388,-2.87897089109422,-0.826176316879645,,-1.7815756581737303,,
,2685.0,621.0,1578.0,485.0,2427.0,2411.0,1981.0,2025-06-30 21:56:09,75.0,,-0.557594313306324,-2.87892572224036,-0.825605431313439,,-1.7412989618381574,,
,2688.0,622.0,1580.0,484.0,2427.0,2425.0,1983.0,2025-06-30 21:56:10,75.0,,-0.558238454645637,-2.87913832541815,-0.827609959597969,,-1.6793592779540476,,
,2688.0,624.0,1580.0,484.0,2424.0,2426.0,1979.0,2025-06-30 21:56:11,75.0,,-0.558633173153003,-2.87901295003857,-0.825536925593902,,-1.5952452908879977,,
,2688.0,622.0,1581.0,484.0,2421.0,2442.0,1958.0,2025-06-30 21:56:12,74.0,,-0.558678465202635,-2.87917107063872,-0.825955488517971,,-1.488734925767602,,
,2692.0,622.0,1583.0,482.0,2419.0,2431.0,1968.0,2025-06-30 21:56:13,74.0,,-0.558373724420362,-2.87930267738379,-0.826751877304182,,-1.3599629829751076,,
,2695.0,622.0,1584.0,487.0,2418.0,2423.0,1978.0,2025-06-30 21:56:14,74.0,,-0.558467368936961,-2.87934428873313,-0.82655076401898,,-1.2094958271523624,,
,2698.0,623.0,1586.0,485.0,2418.0,2430.0,1972.0,2025-06-30 21:56:15,74.0,,-0.558245405181167,-2.87935705797874,-0.825889907707417,,-1.0384024208629312,,
,2696.0,626.0,1583.0,485.0,2419.0,2427.0,1973.0,2025-06-30 21:56:16,74.0,,-0.55846234072982,-2.87919897212559,-0.825243494906514,,-0.8483109068673044,,
,2699.0,626.0,1583.0,486.0,2424.0,2419.0,1973.0,2025-06-30 21:56:17,74.0,,-0.558461160561723,-2.87927421120728,-0.825482160984465,,-0.6414416522423386,,
,2699.0,625.0,1585.0,485.0,2421.0,2426.0,1986.0,2025-06-30 21:56:18,73.0,,-0.558551788275249,-2.87925492333979,-0.82646287865834,,-0.42061071574911096,,
,2704.0,627.0,1588.0,489.0,2412.0,2420.0,1972.0,2025-06-30 21:56:19,73.0,,-0.558335006517866,-2.87927260063742,-0.825392041328475,,-0.1892015073379438,,
,2703.0,628.0,1588.0,484.0,2413.0,2419.0,1966.0,2025-06-30 21:56:20,72.0,,-0.558004604819674,-2.87915294017229,-0.825658808559441,,0.048893757238648576,,
,2709.0,626.0,1586.0,488.0,2411.0,2438.0,1966.0,2025-06-30 21:56:21,71.0,,-0.558151391697361,-2.87935505555349,-0.82581148838451,,0.289358221856837,,
,2708.0,630.0,1589.0,489.0,2409.0,2439.0,1968.0,2025-06-30 21:56:22,71.0,,-0.558346357291014,-2.87899845730825,-0.825541762436405,,0.5275541709050796,,
,2711.0,630.0,1589.0,489.0,2416.0,2437.0,1975.0,2025-06-30 21:56:23,71.0,,-0.558046410646194,-2.87893211889838,-0.826506763823346,,0.7586406850936382,,
,2713.0,630.0,1590.0,490.0,2417.0,2433.0,1976.0,2025-06-30 21:56:24,71.0,,-0.55835173354882,-2.878954503149,-0.824710658105249,,0.9777008512494625,,
,2715.0,631.0,1591.0,489.0,2422.0,2421.0,1972.0,2025-06-30 21:56:25,72.0,,-0.558349956462704,-2.87886534445771,-0.825634343966637,,1.179875985019281,,
,2716.0,628.0,1591.0,488.0,2428.0,2421.0,1982.0,2025-06-30 21:56:26,72.0,,-0.558462127255412,-2.87890773645819,-0.825840641116509,,1.3605058317610534,,
,2716.0,630.0,1591.0,489.0,2423.0,2429.0,1968.0,2025-06-30 21:56:27,72.0,,-0.558695793673581,-2.87896606933267,-0.82627850869169,,1.515274597899933,,
,2718.0,631.0,1593.0,488.0,2421.0,2436.0,1979.0,2025-06-30 21:56:28,72.0,,-0.558430902409124,-2.87907081141905,-0.825228973532562,,1.640362702420849,,
,2723.0,632.0,1596.0,489.0,2421.0,2435.0,1981.0,,,,-0.558226027924169,-2.87900991316461,-0.825909412778958,,1.732602980674141,,
,2725.0,631.0,1596.0,490.0,2418.0,2445.0,1979.0,,,,-0.558431609303792,-2.87891707575899,-0.824693005327754,,1.7896373400167485,,
,2725.0,634.0,1598.0,492.0,2412.0,2441.0,1961.0,,,,-0.558386779470283,-2.8790566122599,-0.825490497456837,,1.810065639865543,,
,2726.0,634.0,1596.0,492.0,2416.0,2428.0,1978.0,,,,-0.558975856168675,-2.87892335200574,-0.825134965112953,,1.7935737866413572,,
,2727.0,635.0,1599.0,493.0,2416.0,2427.0,1980.0,,,,-0.558840953525643,-2.87914842188848,-0.824116700315609,,1.7410242872225217,,
,2731.0,633.0,1597.0,490.0,2416.0,2428.0,1974.0,,,,-0.558931283299871,-2.87916786590633,-0.825022739302218,,1.654491416917751,,
,2733.0,635.0,1597.0,492.0,2421.0,2438.0,1983.0,,,,-0.559247172751018,-2.87926739928305,-0.824926094739556,,1.5372257854949503,,
,2734.0,635.0,1598.0,493.0,2421.0,2426.0,1981.0,,,,-0.559519301433031,-2.8789848798649,-0.824533612803121,,1.39353947499298,,
,2740.0,637.0,1600.0,493.0,2417.0,2424.0,1980.0,,,,-0.559954539500261,-2.8793806718803,-0.825664367051959,,1.2286119729433558,,
,2739.0,635.0,1599.0,493.0,2414.0,2429.0,1986.0,,,,-0.559971842474766,-2.87940212650869,-0.824890565845593,,1.0482269500728134,,
,2739.0,639.0,1602.0,495.0,2421.0,2420.0,1985.0,,,,-0.561146903381087,-2.87965012055129,-0.827095720658103,,0.8584586306693186,,
,2742.0,636.0,1602.0,493.0,2420.0,2428.0,1985.0,,,,-0.56220165217735,-2.8800647537231,-0.826452045761776,,0.6653328047068406,,
,2743.0,638.0,1605.0,496.0,2411.0,2438.0,1983.0,,,,-0.562535295754768,-2.88022510909438,-0.828513970088523,,0.4744909221573531,,
,2749.0,640.0,1607.0,494.0,2411.0,2432.0,1977.0,,,,-0.563507752463707,-2.88054925986029,-0.828537529997045,,0.2908861306633769,,
,2748.0,639.0,1604.0,495.0,2413.0,2441.0,1984.0,,,,-0.564336766954969,-2.88102753439068,-0.829860906648729,,0.11853758900747688,,
,2751.0,639.0,1607.0,497.0,2421.0,2425.0,1991.0,,,,-0.564973942672147,-2.8810211348896,-0.830228835286465,,-0.039636065014329515,,
,2753.0,640.0,1606.0,496.0,2423.0,2417.0,1988.0,,,,-0.565524359650462,-2.88110849231898,-0.830046149646849,,-0.18189125372771858,,
,2754.0,640.0,1607.0,495.0,2421.0,2420.0,1983.0,,,,-0.566003092302194,-2.8815022474813,-0.829940881708693,,-0.3076387600168414,,
,2755.0,641.0,1609.0,496.0,2416.0,2422.0,1979.0,,,,-0.566565017830995,-2.88130060315798,-0.831101229122026,,-0.41733408648017295,,
,2757.0,640.0,1609.0,499.0,2419.0,2435.0,1988.0,,,,-0.566581987320374,-2.88156210116453,-0.830732881835949,,-0.5122931889597615,,
,2759.0,642.0,1609.0,498.0,2417.0,2447.0,1991.0,,,,-0.567005727237733,-2.88163941144199,-0.831440021374748,,-0.5944536027967716,,
,2760.0,643.0,1613.0,498.0,2417.0,2445.0,1989.0,,,,-0.566681004275695,-2.88181882815467,-0.831149552500099,,-0.6661041717826237,,
,2762.0,641.0,1613.0,498.0,2418.0,2450.0,1973.0,,,,-0.566805849790311,-2.8815264930531,-0.830271019350732,,-0.7296073215671746,,
,2759.0,642.0,1608.0,497.0,2418.0,2449.0,1985.0,,,,-0.566855036819266,-2.88166671294487,-0.830942689770295,,-0.7871363140619462,,
,2760.0,642.0,1610.0,497.0,2409.0,2448.0,1971.0,,,,-0.566899354632417,-2.8815372833634,-0.830289230889704,,-0.8404466967538959,,
,2753.0,641.0,1608.0,496.0,2409.0,2448.0,1970.0,,,,-0.566916349989331,-2.88162837703187,-0.829842804882583,,-0.8906970001629292,,
,2749.0,638.0,1606.0,497.0,2416.0,2453.0,1977.0,,,,-0.566901097224133,-2.88160363915781,-0.83013897809106,,-0.9383293707584743,,
,2741.0,636.0,1605.0,495.0,2416.0,2448.0,1981.0,,,,-0.566869283144191,-2.88127078173549,-0.828445508205164,,-0.9830166080807834,,
,2734.0,635.0,1600.0,493.0,2420.0,2429.0,1977.0,,,,-0.566481427999542,-2.88135341621436,-0.829890006336777,,-1.023677915515012,,
,2727.0,634.0,1597.0,493.0,2423.0,2428.0,1977.0,,,,-0.566340982559095,-2.88144561625181,-0.829152008157328,,-1.058561262892715,,
,2723.0,632.0,1596.0,493.0,2419.0,2430.0,1981.0,,,,-0.566178548625828,-2.88113884492326,-0.828908823037169,,-1.0853853285273474,,
,2711.0,631.0,1590.0,489.0,2415.0,2410.0,1985.0,,,,-0.56581811042181,-2.88116878872773,-0.829042271601117,,-1.1015285698116373,,
,2707.0,629.0,1589.0,489.0,2413.0,2410.0,1971.0,,,,-0.565305231800949,-2.88104597424547,-0.827765420652218,,-1.104247690466235,,
,2698.0,628.0,1587.0,486.0,2414.0,2417.0,1976.0,,,,-0.565127745504615,-2.88093155126738,-0.828548260586001,,-1.0909039077276244,,
,2693.0,626.0,1586.0,487.0,2411.0,2419.0,1971.0,,,,-0.565267425630553,-2.8808464783369,-0.828653652093955,,-1.0591743753542484,,
,2686.0,623.0,1583.0,484.0,2402.0,2431.0,1979.0,,,,-0.56501803704026,-2.8809812347344,-0.827827111509752,,-1.0072285908686693,,
,2681.0,624.0,1579.0,486.0,2413.0,2438.0,1968.0,,,,-0.56538053249184,-2.88098187576155,-0.82826957437484,,-0.9338552302598584,,
,2677.0,622.0,1579.0,484.0,2417.0,2432.0,1979.0,,,,-0.565592997906438,-2.88082798079145,-0.828111345264295,,-0.838532440089847,,
,2674.0,621.0,1578.0,484.0,2419.0,2443.0,1975.0,,,,-0.565430675224458,-2.88078165523293,-0.828137133396968,,-0.7214427625921039,,
,2676.0,621.0,1577.0,484.0,2419.0,2447.0,1967.0,,,,-0.565262740232765,-2.88084609445391,-0.827643245774002,,-0.5834413042266166,,
,2671.0,617.0,1575.0,482.0,2419.0,2437.0,1956.0,,,,-0.565262745228858,-2.88063036268107,-0.828450754860306,,-0.4259914865935254,,
,2670.0,620.0,1574.0,484.0,2418.0,2447.0,1968.0,,,,-0.564996568055229,-2.88065254035507,-0.828114285004077,,-0.2510860187081631,,
,2672.0,617.0,1575.0,482.0,2428.0,2430.0,1971.0,,,,-0.56518911121095,-2.88066936847312,-0.827591082450465,,-0.06117114488912796,,
,2670.0,621.0,1575.0,482.0,2424.0,2431.0,1972.0,,,,-0.56470672109475,-2.88083828373084,-0.828304882737787,,0.14091041406951457,,
,2669.0,617.0,1575.0,482.0,2421.0,2436.0,1977.0,,,,-0.564889516276718,-2.88110594008405,-0.829378366574403,,0.35194792736564057,,
,2668.0,618.0,1573.0,482.0,2416.0,2433.0,1975.0,,,,-0.565244715830057,-2.88096073199153,-0.8284007225859,,0.5683604801081233,,
,2670.0,618.0,1575.0,481.0,2408.0,2432.0,1967.0,,,,-0.565234187850831,-2.88119260369878,-0.827341459449359,,0.7861713378813802,,
,2670.0,619.0,1575.0,481.0,2417.0,2433.0,1962.0,,,,-0.565526097577416,-2.88091385083803,-0.828757665003347,,1.000975216315818,,
,2668.0,620.0,1574.0,482.0,2421.0,2440.0,1948.0,,,,-0.565515503463598,-2.88095572297717,-0.828428094824467,,1.207922042048953,,
,2669.0,618.0,1575.0,481.0,2418.0,2439.0,1956.0,,,,-0.565325986764172,-2.88116167272534,-0.829349302912077,,1.4017438843742696,,
,2670.0,619.0,1579.0,485.0,2412.0,2444.0,1972.0,,,,-0.56602080437317,-2.88111722389953,-0.830182203255743,,1.5768491307283754,,
,2672.0,619.0,1573.0,483.0,2424.0,2429.0,1961.0,,,,-0.566153434684895,-2.88123492512352,-0.830027553715277,,1.7274995334824612,,
,2674.0,621.0,1576.0,483.0,2423.0,2437.0,1964.0,,,,-0.566138559336071,-2.88132068754433,-0.829026591141212,,1.848072855981593,,
,2673.0,619.0,1572.0,483.0,2424.0,2429.0,1963.0,,,,-0.565317138078341,-2.88114606029404,-0.829254544746207,,1.9333987797790555,,
,2674.0,622.0,1578.0,484.0,2422.0,2432.0,1964.0,,,,-0.565679980566674,-2.88133327404887,-0.829009347051944,,1.9791409987281914,,
,2674.0,622.0,1577.0,483.0,2423.0,2435.0,1969.0,,,,-0.565710764755964,-2.88121678306605,-0.829255497141429,,1.9821863394782477,,
,2677.0,621.0,1575.0,484.0,2422.0,2439.0,1954.0,,,,-0.565723647945075,-2.88115811126774,-0.829421566770465,,1.9409943054584238,,
,2671.0,619.0,1576.0,482.0,2419.0,2444.0,1976.0,,,,-0.565131801603865,-2.88136994083952,-0.829779475254506,,1.855859175225364,,
,2675.0,619.0,1572.0,483.0,2416.0,2446.0,1987.0,,,,-0.565771342865869,-2.88126004378045,-0.829264210918242,,1.7290425208700515,,
,2676.0,621.0,1576.0,483.0,2416.0,2442.0,1991.0,,,,-0.56589205278112,-2.88095843027285,-0.827691306521007,,1.5647465621090944,,
,2676.0,619.0,1576.0,484.0,2413.0,2448.0,1991.0,,,,-0.566316481753462,-2.88111048111038,-0.829017002684815,,1.3689167550292374,,
,2674.0,617.0,1575.0,481.0,2406.0,2438.0,1985.0,,,,-0.566013298166794,-2.88106395893301,-0.829177143999696,,1.1488829679104655,,
,2677.0,617.0,1575.0,483.0,2412.0,2429.0,1986.0,,,,-0.565572230856393,-2.88093111544627,-0.829162410949685,,0.9128694436762249,,
,2673.0,619.0,1578.0,484.0,2406.0,2431.0,1973.0,,,,-0.56542067518233,-2.88104839858845,-0.829122514099888,,0.6694213693899749,,
,2674.0,619.0,1577.0,482.0,2416.0,2436.0,1972.0,,,,-0.565012495866704,-2.8809923346595,-0.828593241894741,,0.42680748861937506,,
,2675.0,618.0,1575.0,481.0,2413.0,2438.0,1976.0,,,,-0.565412820953555,-2.88092407875329,-0.826886388531313,,0.19246173585141962,,
,2673.0,620.0,1575.0,481.0,2413.0,2426.0,1979.0,,,,-0.565177009361088,-2.88093882956616,-0.829526726641979,,-0.02747841356397794,,
,2674.0,621.0,1576.0,483.0,2410.0,2443.0,1975.0,,,,-0.564768060877614,-2.88080821303556,-0.828508757063357,,-0.22849234034611052,,
,2674.0,619.0,1575.0,482.0,2411.0,2439.0,1990.0,,,,-0.564544561931718,-2.88065287832126,-0.827658334873115,,-0.4078295495328635,,
,2675.0,618.0,1573.0,484.0,2416.0,2436.0,1991.0,,,,-0.56404753436568,-2.88088998477862,-0.826986868392239,,-0.5644910645710102,,
,2674.0,618.0,1575.0,479.0,2417.0,2442.0,1989.0,,,,-0.563958187524686,-2.88075023340601,-0.828352849011986,,-0.6990546136710614,,
,2676.0,617.0,1576.0,482.0,2421.0,2433.0,1962.0,,,,-0.563661690129959,-2.88079942187061,-0.827739482880538,,-0.8133759867515706,,
,2676.0,621.0,1578.0,483.0,2411.0,2435.0,1964.0,,,,-0.564356278975241,-2.88070447059666,-0.828233158205918,,-0.910209729767731,,
,2677.0,620.0,1576.0,483.0,2413.0,2432.0,1967.0,,,,-0.56374747283749,-2.88054513545267,-0.827071035055955,,-0.9927963329886383,,
,2676.0,620.0,1576.0,481.0,2427.0,2432.0,1971.0,,,,-0.563790095589346,-2.88065000779816,-0.827718837865437,,-1.0644608141909586,,
,2677.0,620.0,1575.0,483.0,2423.0,2429.0,1975.0,,,,-0.563695964938849,-2.88027791760099,-0.827746099910526,,-1.1282605676039597,,
2025-06-30 21:53:31,2681.0,620.0,1577.0,483.0,2424.0,2430.0,1984.0,,,2025/06/30 09:53:31 PM,-0.563908796493142,-2.88063010246867,-0.828838614047017,,-1.1867102949888861,,
,2681.0,621.0,1577.0,486.0,2415.0,2441.0,1979.0,,,,-0.564059263527692,-2.88047483135516,-0.827411966078017,,-1.241600363853824,,
,2681.0,621.0,1577.0,482.0,2425.0,2444.0,1973.0,,,,-0.564030434469542,-2.88060497701853,-0.827104476289572,,-1.2939133039058799,,
,2681.0,621.0,1578.0,483.0,2424.0,2445.0,1971.0,,,,-0.564097687037683,-2.88040886830322,-0.828078087212362,,-1.3438322725552911,,
,2683.0,621.0,1579.0,485.0,2416.0,2436.0,1967.0,,,,-0.564399881705636,-2.88057216000026,-0.828077348475265,,-1.390826048393241,,
,2685.0,621.0,1578.0,484.0,2418.0,2438.0,1974.0,,,,-0.564077092936574,-2.88052305926388,-0.82748087552724,,-1.4337884865400914,,
,2690.0,621.0,1583.0,484.0,2420.0,2440.0,1978.0,,,,-0.56449760295977,-2.88069186409104,-0.827132266594394,,-1.471207399739969,,
,2688.0,623.0,1581.0,483.0,2420.0,2421.0,1978.0,,,,-0.564540917806026,-2.88052758403198,-0.827128740398567,,-1.501338890846681,,
,2689.0,625.0,1582.0,483.0,2420.0,2425.0,1984.0,,,,-0.5643275723197,-2.88075583119064,-0.826783973507734,,-1.5223676004649562,,
,2693.0,622.0,1583.0,488.0,2415.0,2431.0,1974.0,,,,-0.564307574788263,-2.88061685550839,-0.827200547828252,,-1.532539674474732,,
,2693.0,625.0,1584.0,487.0,2412.0,2430.0,1976.0,,,,-0.564166784064422,-2.88051058062138,-0.82781998071469,,-1.5302618515876245,,
,2698.0,624.0,1585.0,486.0,2413.0,2430.0,1986.0,,,,-0.563652478458363,-2.88048806073391,-0.826670019770897,,-1.514165686596576,,
,2698.0,628.0,1585.0,485.0,2417.0,2431.0,1977.0,,,,-0.563523775167009,-2.88053242942301,-0.827041295672351,,-1.4831399939511702,,
,2701.0,625.0,1586.0,484.0,2422.0,2423.0,1981.0,,,,-0.563448252431951,-2.88042228851377,-0.826032524342004,,-1.4363371634496191,,
,2702.0,627.0,1589.0,489.0,2412.0,2434.0,1985.0,,,,-0.563404306433306,-2.88024804327257,-0.827796181407312,,-1.3731604920967655,,
,2704.0,625.0,1589.0,488.0,2417.0,2436.0,1986.0,,,,-0.563392719378105,-2.88036180349979,-0.826147678020427,,-1.2932406063292674,,
,2704.0,625.0,1588.0,487.0,2418.0,2430.0,1982.0,,,,-0.563190298475842,-2.88017788609913,-0.826495293396201,,-1.1964097220200214,,
,2707.0,626.0,1592.0,487.0,2414.0,2437.0,1987.0,,,,-0.563099752257118,-2.8799318726023,-0.826721179247536,,-1.0826828066148142,,
,2710.0,628.0,1592.0,489.0,2416.0,2419.0,1988.0,,,,-0.5629877338789,-2.88014845648309,-0.826598692991006,,-0.952254173671667,,
,2712.0,631.0,1593.0,488.0,2416.0,2413.0,1980.0,,,,-0.563054914635849,-2.88007060427636,-0.826296878571749,,-0.8055160206034699,,
,2712.0,629.0,1591.0,489.0,2425.0,2419.0,1975.0,,,,-0.563043724189286,-2.8803356750088,-0.82605514096389,,-0.6431015861209242,,
,2717.0,630.0,1593.0,488.0,2411.0,2434.0,1975.0,,,,-0.562702390018683,-2.88005438349406,-0.825853624640724,,-0.46595037271364936,,
,2718.0,632.0,1592.0,491.0,2411.0,2438.0,1972.0,,,,-0.563025001378146,-2.88010148422802,-0.82622376930088,,-0.27538748121341594,,
,2719.0,629.0,1595.0,490.0,2415.0,2435.0,1973.0,,,,-0.562607184988423,-2.87996248966927,-0.826178780762653,,-0.07320501030042334,,
,2721.0,632.0,1597.0,490.0,2410.0,2423.0,1982.0,,,,-0.562370060355519,-2.8800689528317,-0.82559499550464,,0.13826841172840762,,
,2720.0,629.0,1595.0,491.0,2415.0,2432.0,1986.0,,,,-0.562340401996753,-2.87987793976592,-0.82504615467533,,0.3561235266800958,,
,2725.0,633.0,1599.0,491.0,2424.0,2427.0,1979.0,,,,-0.562251277255928,-2.88002069735065,-0.826147748102926,,0.5768631893464465,,
,2729.0,632.0,1599.0,494.0,2421.0,2425.0,1976.0,,,,-0.562501245798538,-2.88011771462087,-0.825097406609263,,0.7964399969723736,,
,2732.0,633.0,1601.0,495.0,2420.0,2435.0,1978.0,,,,-0.562506277404179,-2.88018019695565,-0.824399489054453,,1.0103427639145404,,
,2730.0,632.0,1600.0,491.0,2427.0,2438.0,1954.0,,,,-0.56345259929746,-2.88022305008883,-0.827136035427934,,1.213731420160238,,
,2732.0,634.0,1601.0,494.0,2420.0,2432.0,1964.0,,,,-0.564327197681604,-2.88032373208632,-0.828048442842893,,1.4016155695432435,,
,2739.0,634.0,1602.0,493.0,2423.0,2438.0,1964.0,,,,-0.565231320747405,-2.8809290860234,-0.828539957579935,,1.56906783715532,,
,2736.0,636.0,1603.0,497.0,2428.0,2435.0,1971.0,,,,-0.565915702217205,-2.88111335604532,-0.829419716568676,,1.7114593542791325,,
,2737.0,635.0,1604.0,492.0,2418.0,2426.0,1978.0,,,,-0.566362991750428,-2.88135614424918,-0.830003980144959,,1.8247014595471838,,
,2740.0,634.0,1604.0,496.0,2419.0,2426.0,1961.0,,,,-0.56718590018575,-2.88149857568937,-0.830584584074316,,1.905475455203598,,
,2744.0,637.0,1606.0,496.0,2421.0,2422.0,1971.0,,,,-0.56718677222988,-2.88188313418574,-0.829638110489226,,1.9514317925113644,,
,2745.0,636.0,1606.0,497.0,2416.0,2421.0,1984.0,,,,-0.567296936675894,-2.8818925672758,-0.83125548317314,,1.9613418512168674,,
,2745.0,637.0,1606.0,497.0,2406.0,2427.0,1979.0,,,,-0.567718420940648,-2.88197650658461,-0.831227146092742,,1.935189274671,,
,2746.0,636.0,1605.0,496.0,2419.0,2432.0,1978.0,,,,-0.568187331501281,-2.88254738122793,-0.83073443240827,,1.874192710203787,,
,2751.0,639.0,1608.0,499.0,2425.0,2437.0,1978.0,,,,-0.568279113447905,-2.88228315221716,-0.829837391493728,,1.7807568701873049,,
,2755.0,639.0,1607.0,497.0,2422.0,2433.0,1967.0,,,,-0.568581705440422,-2.88221558647705,-0.830915406352538,,1.6583537592028288,,
,2754.0,640.0,1609.0,496.0,2426.0,2435.0,1972.0,,,,-0.568856085059524,-2.88216937217282,-0.831626330193164,,1.5113408427728814,,
,2755.0,639.0,1611.0,498.0,2424.0,2430.0,1970.0,,,,-0.568616239467591,-2.88217302852706,-0.831945748981956,,1.3447278260421884,,
,2758.0,642.0,1613.0,500.0,2419.0,2418.0,1947.0,,,,-0.568699060193844,-2.88213096271742,-0.830413484097732,,1.163908059782661,,
,2760.0,643.0,1614.0,499.0,2417.0,2414.0,1949.0,,,,-0.56896459577342,-2.88210065280066,-0.830861630498127,,0.9743736881032018,,
,2760.0,641.0,1614.0,501.0,2412.0,2424.0,1961.0,,,,-0.568278462865508,-2.88228711931896,-0.830140749693812,,0.7814350178529826,,
,2764.0,642.0,1616.0,502.0,2413.0,2408.0,1970.0,,,,-0.568118264834006,-2.88217457310126,-0.830087233444785,,0.5899641341809407,,
,2764.0,642.0,1615.0,501.0,2425.0,2432.0,1960.0,,,,-0.567954073928949,-2.88237053495929,-0.830619365943049,,0.4041806450896705,,
,2767.0,643.0,1617.0,502.0,2423.0,2433.0,1965.0,,,,-0.567669626483623,-2.88196838757376,-0.828781101801131,,0.22749375448729026,,
,2769.0,645.0,1618.0,502.0,2426.0,2426.0,1964.0,,,,-0.567746987081035,-2.88178821925218,-0.829003178172322,,0.06240978170908096,,
,2771.0,645.0,1619.0,502.0,2427.0,2438.0,1966.0,,,,-0.567493335210738,-2.88159813819856,-0.83011099875857,,-0.08949190140772184,,
,2770.0,644.0,1618.0,499.0,2431.0,2435.0,1954.0,,,,-0.5675778649399,-2.88182624850506,-0.830547665765196,,-0.2275180224963365,,
,2774.0,646.0,1621.0,502.0,2431.0,2435.0,1970.0,,,,-0.567581290902492,-2.88176084624737,-0.829356889534642,,-0.35176483556817467,,
,2771.0,645.0,1620.0,504.0,2430.0,2443.0,1969.0,,,,-0.567641380023195,-2.88180401257278,-0.829833156641871,,-0.4629787888178511,,
,2768.0,644.0,1621.0,502.0,2427.0,2448.0,1973.0,,,,-0.567252322865113,-2.88172971440247,-0.829045667297917,,-0.5623888585132235,,
,2761.0,642.0,1617.0,499.0,2426.0,2447.0,1978.0,,,,-0.567285291875299,-2.88180747097435,-0.828701695285415,,-0.6515246135540188,,
,2757.0,640.0,1615.0,502.0,2424.0,2435.0,1979.0,,,,-0.567305894481727,-2.88160309760461,-0.828949769985224,,-0.7320328112714435,,
,2753.0,642.0,1613.0,500.0,2424.0,2423.0,1986.0,,,,-0.567052456126181,-2.88159899366596,-0.828527074322007,,-0.8055037607066466,,
,2747.0,640.0,1611.0,498.0,2422.0,2419.0,1984.0,,,,-0.566880850572584,-2.88150373616032,-0.829089134240244,,-0.8733169138943284,,
,2738.0,635.0,1606.0,495.0,2418.0,2421.0,1987.0,,,,-0.566875433645263,-2.88131382289791,-0.828745913885985,,-0.9365130811217179,,
,2733.0,635.0,1606.0,496.0,2425.0,2406.0,1985.0,,,,-0.566585963903605,-2.88147851377325,-0.828427368552649,,-0.9956984136257785,,
,2727.0,633.0,1603.0,495.0,2424.0,2408.0,1975.0,,,,-0.56656290282867,-2.8812841280927,-0.828587247605251,,-1.0509831562615832,,
,2716.0,631.0,1597.0,494.0,2427.0,2408.0,1975.0,,,,-0.566435320796591,-2.88148749972646,-0.827826078007509,,-1.1019564689131311,,
,2712.0,629.0,1597.0,492.0,2426.0,2418.0,1955.0,,,,-0.566655308134159,-2.88125098590397,-0.828920196260542,,-1.147697525853518,,
,2705.0,629.0,1594.0,491.0,2421.0,2430.0,1967.0,,,,-0.566458478799227,-2.88159327527153,-0.828419388090125,,-1.1868225115496032,,
,2700.0,625.0,1594.0,491.0,2414.0,2410.0,1975.0,,,,-0.56694226132956,-2.88148253053919,-0.829017302385206,,-1.2175665693002429,,
,2696.0,627.0,1590.0,491.0,2421.0,2432.0,1966.0,,,,-0.567067961497617,-2.88138765101984,-0.827967222381024,,-1.2378985365475477,,
,2694.0,624.0,1588.0,492.0,2425.0,2426.0,1956.0,,,,-0.566744781354853,-2.88144894739435,-0.828596142560694,,-1.2456638339527433,,
,2691.0,624.0,1586.0,487.0,2420.0,2434.0,1954.0,,,,-0.566964558963413,-2.88156065449363,-0.828559344967585,,-1.2387470651775778,,
,2687.0,626.0,1584.0,489.0,2425.0,2438.0,1966.0,,,,-0.567030783136371,-2.88144015708762,-0.828873318731134,,-1.2152414195643844,,
,2689.0,625.0,1588.0,490.0,2417.0,2432.0,1959.0,,,,-0.567009000559934,-2.8818032978627,-0.830412310786926,,-1.1736083201297487,,
,2686.0,625.0,1586.0,489.0,2421.0,2432.0,1952.0,,,,-0.567041302277219,-2.88156145186827,-0.828524340917821,,-1.1128096095062256,,
,2686.0,620.0,1585.0,486.0,2412.0,2425.0,1949.0,,,,-0.567173878245586,-2.88167063111042,-0.828209613294582,,-1.0323969281938474,,
,2682.0,622.0,1583.0,488.0,2424.0,2439.0,1955.0,,,,-0.567331363344157,-2.88158611470472,-0.829154036681358,,-0.9325486168866501,,
,2685.0,622.0,1586.0,491.0,2422.0,2442.0,1968.0,,,,-0.567773621315263,-2.88173910679244,-0.829231066350255,,-0.8140522287589469,,
,2683.0,623.0,1583.0,489.0,2423.0,2444.0,1958.0,,,,-0.567556226920351,-2.88174322922354,-0.828915980008872,,-0.6782388609650049,,
,2686.0,622.0,1583.0,486.0,2425.0,2437.0,1955.0,,,,-0.567510442671407,-2.88171661853339,-0.828184943806953,,-0.5268824064125605,,
,2684.0,623.0,1585.0,489.0,2430.0,2439.0,1959.0,,,,-0.56777764400782,-2.88195616704973,-0.827633606854487,,-0.3620813795850272,,
,2687.0,622.0,1587.0,488.0,2425.0,2444.0,1960.0,,,,-0.567746037106989,-2.88178198106821,-0.829704258831486,,-0.1861427003867387,,
,2688.0,627.0,1587.0,490.0,2421.0,2441.0,1956.0,,,,-0.567607997964083,-2.88147953456659,-0.828128041425342,,-0.001485721595032406,,
,2689.0,624.0,1586.0,492.0,2423.0,2438.0,1962.0,,,,-0.567634503405481,-2.88153206072885,-0.828965612663185,,0.18941895659827515,,
,2685.0,624.0,1585.0,490.0,2422.0,2441.0,1969.0,,,,-0.567602297054892,-2.88162098223425,-0.828137621503029,,0.3840674724532234,,
,2691.0,623.0,1587.0,491.0,2417.0,2446.0,1957.0,,,,-0.567415670884306,-2.8817740920715,-0.827867980534858,,0.5798971023476646,,
,2691.0,624.0,1587.0,492.0,2420.0,2437.0,1958.0,,,,-0.567501438191589,-2.88149227780918,-0.827682957224642,,0.7742256658753958,,
,2692.0,623.0,1586.0,490.0,2421.0,2439.0,1958.0,,,,-0.567420793762536,-2.88133161715564,-0.827958913172318,,0.9641730464424443,,
,2691.0,623.0,1586.0,490.0,2418.0,2416.0,1971.0,,,,-0.567314518441514,-2.88154685375791,-0.828013900061703,,1.1465882485289955,,
,2690.0,622.0,1586.0,488.0,2423.0,2420.0,1975.0,,,,-0.567138175262939,-2.88155802611596,-0.828651716830884,,1.318007766382421,,
,2692.0,625.0,1589.0,493.0,2425.0,2435.0,1978.0,,,,-0.56725189442931,-2.88137871790405,-0.827742753152983,,1.4746683224167585,,
,2691.0,626.0,1590.0,490.0,2424.0,2438.0,1964.0,,,,-0.567222632932474,-2.88137957875663,-0.82838592044385,,1.6125893866650132,,
,2692.0,626.0,1588.0,491.0,2420.0,2428.0,1966.0,,,,-0.566987498478292,-2.8811779922283,-0.827951496161694,,1.727729728189286,,
,2692.0,626.0,1587.0,491.0,2416.0,2430.0,1984.0,,,,-0.566828592998578,-2.88146569658762,-0.826579109162751,,1.8162097062674845,,
,2692.0,626.0,1587.0,492.0,2420.0,2444.0,1972.0,,,,-0.567262031759222,-2.88145607496209,-0.827976140071166,,1.8745792836509783,,
,2693.0,626.0,1587.0,491.0,2424.0,2431.0,1976.0,,,,-0.5674361029822,-2.88151885041927,-0.828116010507787,,1.9001026976510782,,
,2690.0,625.0,1587.0,489.0,2423.0,2431.0,1977.0,,,,-0.567279198614481,-2.88158104545078,-0.827123144515918,,1.891025692554005,,
,2689.0,622.0,1586.0,487.0,2420.0,2434.0,1963.0,,,,-0.567467256041389,-2.8813536044263,-0.828104142423745,,1.8467909315432476,,
,2691.0,626.0,1589.0,490.0,2421.0,2441.0,1957.0,,,,-0.567867970049851,-2.88142792943263,-0.826668340696666,,1.7681717471318077,,
,2689.0,626.0,1589.0,490.0,2418.0,2438.0,1956.0,,,,-0.566698195446441,-2.88131166754703,-0.828162809728204,,1.6573031640916935,,
,2692.0,624.0,1587.0,491.0,2419.0,2434.0,1952.0,,,,-0.567090465267355,-2.8813189682738,-0.827762360643179,,1.517600950661361,,
,2688.0,624.0,1583.0,489.0,2424.0,2423.0,1962.0,,,,-0.566863356905004,-2.8812272432046,-0.828369106041098,,1.3535727180825827,,
,2688.0,623.0,1586.0,492.0,2423.0,2441.0,1963.0,,,,-0.566756985151212,-2.88142934632773,-0.827253118395225,,1.170538012331456,,
,2689.0,624.0,1589.0,492.0,2428.0,2416.0,1954.0,,,,-0.566814709284137,-2.8814602343067,-0.828184710842249,,0.9742851916018265,,
,2689.0,624.0,1589.0,491.0,2425.0,2429.0,1953.0,,,,-0.567369865983907,-2.88133830089143,-0.826829263024612,,0.7707001576166497,,
,2690.0,624.0,1584.0,491.0,2420.0,2434.0,1950.0,,,,-0.567503127303382,-2.8816212182631,-0.826837030583873,,0.5654046367398866,,
,2690.0,623.0,1586.0,491.0,2419.0,2432.0,1962.0,,,,-0.567427786600206,-2.88152525841447,-0.827043039025799,,0.3634392759321401,,
,2689.0,625.0,1588.0,493.0,2421.0,2435.0,1955.0,,,,-0.567587215011541,-2.8816588626226,-0.827915942404253,,0.16901975908502997,,
,2693.0,626.0,1591.0,493.0,2428.0,2427.0,1977.0,,,,-0.567463535110119,-2.88154503526725,-0.827298719050748,,-0.014616232906701662,,
,2690.0,625.0,1587.0,493.0,2428.0,2433.0,1970.0,,,,-0.567396007760915,-2.88157894264877,-0.827591632452578,,-0.18526517623105154,,
,2694.0,625.0,1589.0,492.0,2430.0,2441.0,1968.0,,,,-0.567444108490661,-2.88143565345474,-0.827376834026793,,-0.3417221175753744,,
,2695.0,626.0,1591.0,492.0,2420.0,2438.0,1960.0,,,,-0.567469957052736,-2.88144695210362,-0.827382021944779,,-0.4836675560309862,,
,2696.0,626.0,1590.0,493.0,2421.0,2441.0,1971.0,,,,-0.567000140382616,-2.88151570556544,-0.827090055376896,,-0.6114971228490975,,
,2697.0,625.0,1590.0,493.0,2424.0,2430.0,1969.0,,,,-0.566935907349676,-2.88148359340624,-0.826750798978431,,-0.7261174251451503,,
,2698.0,623.0,1590.0,491.0,2424.0,2432.0,1974.0,,,,-0.567301787759353,-2.88148757378607,-0.826945394221625,,-0.8287317176553609,,
,2702.0,628.0,1593.0,493.0,2424.0,2427.0,1960.0,,,,-0.56788325539431,-2.88135047442958,-0.826921067378889,,-0.9206371616950659,,
,2702.0,627.0,1592.0,495.0,2427.0,2424.0,1965.0,,,,-0.567332211534824,-2.88142744460882,-0.827255844982881,,-1.0030518008409814,,
,2704.0,630.0,1594.0,496.0,2424.0,2419.0,1977.0,,,,-0.567559976544352,-2.8814766340238,-0.826734651964874,,-1.076984417321495,,
,2704.0,626.0,1594.0,495.0,2449.0,2425.0,1965.0,,,,-0.567442397256677,-2.88149263154054,-0.826287136331971,,-1.143154569370787,,
,2705.0,630.0,1594.0,492.0,2428.0,2419.0,1965.0,,,,-0.567437473479413,-2.88152740765084,-0.8272174598988,,-1.2019638805690906,,
,2708.0,630.0,1595.0,497.0,2423.0,2434.0,1969.0,,,,-0.56716373547253,-2.88131814408333,-0.827278525914731,,-1.2535135710415732,,
,2711.0,630.0,1596.0,496.0,2428.0,2429.0,1969.0,,,,-0.567108619579136,-2.88129356892006,-0.827482105480157,,-1.297657789675687,,
,2714.0,632.0,1598.0,497.0,2422.0,2426.0,1960.0,,,,-0.566756683058241,-2.88130534496594,-0.826471698216609,,-1.33407823554506,,
,2716.0,629.0,1597.0,497.0,2426.0,2435.0,1965.0,,,,-0.567012446452213,-2.88134575733129,-0.825518994032028,,-1.3623637471181678,,
,2717.0,630.0,1598.0,496.0,2426.0,2438.0,1974.0,,,,-0.567251310214675,-2.88129817976892,-0.826032290911476,,-1.382079576575906,,
,2717.0,630.0,1598.0,495.0,2425.0,2426.0,1958.0,,,,-0.56681203169476,-2.88106631476157,-0.826230042182177,,-1.392814747613951,,
,2719.0,634.0,1601.0,500.0,2422.0,2425.0,1964.0,,,,-0.56661549607268,-2.88115737706177,-0.827020514534243,,-1.3942013143128391,,
,2720.0,631.0,1599.0,496.0,2418.0,2438.0,1972.0,,,,-0.566458739046317,-2.880886238157,-0.827347622084999,,-1.385905351807683,,
,2724.0,633.0,1603.0,499.0,2418.0,2422.0,1977.0,,,,-0.566351314740109,-2.88107136096235,-0.825239392273035,,-1.3675950775497114,,
,2725.0,633.0,1604.0,499.0,2416.0,2430.0,1978.0,,,,-0.566272568932409,-2.8808860975483,-0.826323104603142,,-1.3388958158511386,,
,2725.0,633.0,1604.0,498.0,2416.0,2438.0,1968.0,,,,-0.566002329581808,-2.88098634294642,-0.82541100899673,,-1.2993440397223937,,
2025-06-30 21:53:32,2730.0,635.0,1605.0,496.0,2417.0,2432.0,1969.0,,,2025/06/30 09:53:32 PM,-0.565871784419949,-2.88086082224287,-0.827251435095288,,-1.248353242768621,,
,2731.0,634.0,1607.0,501.0,2424.0,2432.0,1976.0,,,,-0.565616562070192,-2.88076257729931,-0.827628877088536,,-1.1852030820334136,,
,2731.0,636.0,1606.0,501.0,2426.0,2431.0,1945.0,,,,-0.565687117545662,-2.88091754103325,-0.82604226390446,,-1.1090605655069792,,
,2732.0,633.0,1604.0,496.0,2423.0,2422.0,1943.0,,,,-0.565857239979826,-2.88105115204149,-0.826384498815581,,-1.0190385558897528,,
,2733.0,636.0,1609.0,501.0,2425.0,2429.0,1963.0,,,,-0.566497631504418,-2.88122889484248,-0.828262954554078,,-0.9142928231212583,,
,2735.0,635.0,1606.0,498.0,2424.0,2426.0,1973.0,,,,-0.566747606962087,-2.88148739627921,-0.828542701030735,,-0.7941543223299907,,
,2736.0,637.0,1608.0,498.0,2427.0,2435.0,1975.0,,,,-0.567300176227724,-2.88193866997,-0.82973107502331,,-0.6582882807458548,,
,2742.0,637.0,1610.0,502.0,2422.0,2442.0,1968.0,,,,-0.568088298528892,-2.88215696115352,-0.830199118594828,,-0.506866406625267,,
,2742.0,639.0,1611.0,501.0,2421.0,2445.0,1962.0,,,,-0.568783535874537,-2.88250513221224,-0.829159118902703,,-0.34073404845563615,,
,2742.0,635.0,1611.0,502.0,2419.0,2434.0,1970.0,,,,-0.569581983093676,-2.88274145274218,-0.831086184762683,,-0.1615516362546218,,
,2745.0,638.0,1611.0,502.0,2424.0,2444.0,1982.0,,,,-0.570045269398295,-2.8829947953122,-0.831850266232134,,0.028110037066371905,,
,2748.0,638.0,1613.0,502.0,2427.0,2426.0,1973.0,,,,-0.570486309978867,-2.88310239539178,-0.831663770151599,,0.22473825613531148,,
,2749.0,640.0,1615.0,503.0,2425.0,2427.0,1956.0,,,,-0.570898766294862,-2.88308771529549,-0.832034682358236,,0.42392316639624367,,
,2749.0,638.0,1611.0,501.0,2419.0,2436.0,1964.0,,,,-0.571244835882058,-2.88300117364158,-0.833737879087937,,0.6204851834920047,,
,2751.0,641.0,1616.0,502.0,2422.0,2443.0,1957.0,,,,-0.571753079994926,-2.88323533405529,-0.832467909380761,,0.8086840954434704,,
,2754.0,640.0,1615.0,506.0,2422.0,2424.0,1952.0,,,,-0.571413543368181,-2.88334953785,-0.832715371043437,,0.9825012457713909,,
,2754.0,642.0,1615.0,505.0,2423.0,2432.0,1964.0,,,,-0.571459048407038,-2.88314047789828,-0.831510535941768,,1.1359784853922792,,
,2758.0,642.0,1617.0,505.0,2431.0,2422.0,1981.0,,,,-0.571579459983466,-2.88334097974752,-0.8315159918108,,1.263590405189879,,
,2758.0,640.0,1616.0,503.0,2428.0,2432.0,1963.0,,,,-0.571171210698085,-2.88317203593905,-0.831818050108852,,1.36062040613107,,
,2761.0,643.0,1617.0,506.0,2426.0,2427.0,1965.0,,,,-0.571196677891208,-2.88324500734323,-0.831675987831115,,1.4235072903684274,,
,2764.0,645.0,1618.0,508.0,2422.0,2432.0,1964.0,,,,-0.571186000880137,-2.88328167900504,-0.831216124129143,,1.450128209376864,,
,2765.0,641.0,1618.0,505.0,2422.0,2438.0,1963.0,,,,-0.5711769282633,-2.88296738954819,-0.831536519000673,,1.4399868131939992,,
,2767.0,643.0,1620.0,505.0,2421.0,2438.0,1964.0,,,,-0.570860928423386,-2.88290040451015,-0.830636917892249,,1.3942827482223656,,
,2769.0,645.0,1622.0,507.0,2419.0,2445.0,1967.0,,,,-0.570585694828331,-2.88273727520072,-0.830882649465998,,1.3158499788728826,,
,2771.0,648.0,1624.0,509.0,2415.0,2449.0,1971.0,,,,-0.570480221774441,-2.88268037027814,-0.830493807709221,,1.2089655329535558,,
,2772.0,645.0,1624.0,509.0,2421.0,2453.0,1975.0,,,,-0.570175247151891,-2.88239598397078,-0.830753790826398,,1.0790450991827598,,
,2773.0,643.0,1623.0,506.0,2420.0,2452.0,1963.0,,,,-0.569989600138283,-2.88258190577441,-0.829659124314654,,0.9322549820156589,,
,2773.0,647.0,1622.0,509.0,2429.0,2450.0,1966.0,,,,-0.569577836013,-2.88214860144926,-0.830908179629987,,0.7750790802888516,,
,2772.0,646.0,1622.0,509.0,2427.0,2456.0,1967.0,,,,-0.569356377489642,-2.88233121735089,-0.829944835756437,,0.6138834504276873,,
,2769.0,648.0,1622.0,509.0,2424.0,2449.0,1967.0,,,,-0.568780526129285,-2.8821550185138,-0.829198162132201,,0.45451933799987254,,
,2765.0,645.0,1619.0,506.0,2425.0,2443.0,1964.0,,,,-0.568421678314017,-2.88218158869316,-0.828738221516305,,0.3019989413760281,,
,2759.0,644.0,1617.0,504.0,2423.0,2440.0,1968.0,,,,-0.567924693335324,-2.881882659077,-0.829827243417092,,0.16026783750242388,,
,2755.0,641.0,1615.0,504.0,2423.0,2440.0,1964.0,,,,-0.567686073114647,-2.8818697865807,-0.829187872868571,,0.032085492107879816,,
,2750.0,641.0,1616.0,503.0,2422.0,2441.0,1977.0,,,,-0.566880197564154,-2.88178488720644,-0.830102589470152,,-0.0809877317621562,,
,2741.0,639.0,1612.0,502.0,2422.0,2436.0,1971.0,,,,-0.566967009345538,-2.88175917575066,-0.829591896056672,,-0.17851046138992985,,
,2734.0,634.0,1607.0,501.0,2425.0,2431.0,1979.0,,,,-0.567323230071186,-2.88179163040399,-0.829430289472538,,-0.26100943393262854,,
,2729.0,635.0,1605.0,499.0,2419.0,2431.0,1986.0,,,,-0.567249007662028,-2.88170497910679,-0.829693931521594,,-0.3297848539040346,,
,2723.0,633.0,1605.0,500.0,2418.0,2414.0,1981.0,,,,-0.567798768751533,-2.88167811509864,-0.828737886319281,,-0.38669880495736564,,
,2717.0,632.0,1599.0,496.0,2420.0,2418.0,1980.0,,,,-0.567313773232646,-2.88172984637282,-0.829891492256394,,-0.43396912249463765,,
,2707.0,627.0,1595.0,497.0,2419.0,2437.0,1960.0,,,,-0.567327903698133,-2.88170201844753,-0.829494928864556,,-0.4739841059277669,,
,2707.0,629.0,1595.0,497.0,2415.0,2429.0,1958.0,,,,-0.567812699580599,-2.88167972938508,-0.829318171841036,,-0.5091456951494424,,
,2704.0,628.0,1595.0,497.0,2418.0,2434.0,1964.0,,,,-0.567489617615302,-2.88173227970302,-0.828720543145172,,-0.5417419362301158,,
,2701.0,628.0,1591.0,494.0,2419.0,2440.0,1967.0,,,,-0.56752339200096,-2.88168844181729,-0.828758484992269,,-0.5738448780639136,,
,2698.0,626.0,1590.0,496.0,2416.0,2437.0,1961.0,,,,-0.567659130425999,-2.88174529229409,-0.8295382832761,,-0.6072278577661578,,
,2696.0,625.0,1589.0,494.0,2421.0,2439.0,1967.0,,,,-0.568155496460825,-2.88174733421517,-0.829499210772138,,-0.6432960895666334,,
,2695.0,627.0,1590.0,495.0,2416.0,2448.0,1963.0,,,,-0.568103730439415,-2.88183323678505,-0.828508674901789,,-0.683025901880548,,
,2695.0,628.0,1585.0,493.0,2431.0,2444.0,1959.0,,,,-0.567991021655977,-2.88191786903814,-0.829496510581935,,-0.7269102968870267,,
,2695.0,627.0,1589.0,494.0,2434.0,2445.0,1964.0,,,,-0.56825477142653,-2.88185771673674,-0.830091498263776,,-0.7749112911589964,,
,2694.0,624.0,1585.0,495.0,2422.0,2449.0,1947.0,,,,-0.568271218202492,-2.88194157600636,-0.828119314352672,,-0.8264222833245838,,
,2693.0,626.0,1587.0,495.0,2417.0,2450.0,1949.0,,,,-0.568288056230911,-2.88178940540035,-0.82912351502461,,-0.8802460379489647,,
,2693.0,626.0,1590.0,496.0,2419.0,2456.0,1957.0,,,,-0.568453322037817,-2.88180734161752,-0.829614054621179,,-0.9345954352583318,,
,2694.0,626.0,1587.0,493.0,2421.0,2456.0,1965.0,,,,-0.56818951658328,-2.8819318445894,-0.829804096921142,,-0.9871246714760555,,
,2696.0,625.0,1586.0,492.0,2422.0,2448.0,1955.0,,,,-0.56855891925393,-2.881720177056,-0.829405341023908,,-1.0349978241936142,,
,2695.0,624.0,1586.0,492.0,2420.0,2450.0,1957.0,,,,-0.568542677651806,-2.88160282314902,-0.82943607695999,,-1.0749992437431921,,
,2700.0,627.0,1588.0,498.0,2420.0,2439.0,1964.0,,,,-0.568454007684151,-2.88168008471275,-0.829811931935607,,-1.1036858034835955,,
,2697.0,626.0,1588.0,494.0,2415.0,2445.0,1975.0,,,,-0.568299240290399,-2.88172403178038,-0.828547551237126,,-1.1175748535979246,,
,2699.0,627.0,1586.0,497.0,2417.0,2443.0,1975.0,,,,-0.56838384339338,-2.88169122975938,-0.828162058969652,,-1.113354882226946,,
,2699.0,624.0,1588.0,494.0,2423.0,2438.0,1976.0,,,,-0.568403849068545,-2.88178146254413,-0.829718021808929,,-1.0881002919180118,,
,2700.0,626.0,1589.0,496.0,2416.0,2432.0,1978.0,,,,-0.568451102003596,-2.88172372179946,-0.828070328630936,,-1.039469232012608,,
,2701.0,626.0,1587.0,495.0,2417.0,2440.0,1977.0,,,,-0.56865242027292,-2.88169231132141,-0.829473445821902,,-0.9658649663694793,,
,2703.0,627.0,1589.0,494.0,2410.0,2441.0,1967.0,,,,-0.568353184449135,-2.88140216625856,-0.829295633915724,,-0.866546338112553,,
,2699.0,628.0,1586.0,492.0,2412.0,2436.0,1979.0,,,,-0.568380947454377,-2.88145593027717,-0.828462285335856,,-0.7416802003947903,,
,2702.0,626.0,1589.0,494.0,2419.0,2433.0,1970.0,,,,-0.568264167427454,-2.88143461033395,-0.828368749014057,,-0.5923366928353552,,
,2702.0,628.0,1587.0,495.0,2419.0,2432.0,1975.0,,,,-0.568234291903442,-2.88132710685247,-0.827827410848483,,-0.4204355528741812,,
,2699.0,627.0,1588.0,495.0,2417.0,2430.0,1973.0,,,,-0.568183296941193,-2.8815590438844,-0.827765138529546,,-0.22865708096030204,,
,2700.0,622.0,1585.0,494.0,2419.0,2438.0,1982.0,,,,-0.56824226274831,-2.88147797705323,-0.828213519947302,,-0.02033411884073257,,
,2701.0,627.0,1586.0,497.0,2423.0,2443.0,1977.0,,,,-0.568155227233752,-2.88139840516917,-0.828069915744738,,0.20065885717111198,,
,2700.0,628.0,1587.0,496.0,2415.0,2438.0,1979.0,,,,-0.567955668017131,-2.88127213784969,-0.826198272596751,,0.4300065221313384,,
,2700.0,623.0,1588.0,495.0,2411.0,2439.0,1973.0,,,,-0.567858420074354,-2.88137428099732,-0.828390464297383,,0.6630358095701708,,
,2697.0,625.0,1586.0,496.0,2401.0,2441.0,1969.0,,,,-0.568144488075144,-2.88121429463877,-0.827658310245814,,0.8947808302272635,,
,2697.0,627.0,1584.0,495.0,2410.0,2446.0,1968.0,,,,-0.568255120543074,-2.88128127979179,-0.827954136555891,,1.1200366757724152,,
,2696.0,626.0,1586.0,497.0,2416.0,2446.0,1957.0,,,,-0.568057546746451,-2.88129139839944,-0.828427939705606,,1.3334158516329528,,
,2696.0,625.0,1583.0,493.0,2416.0,2448.0,1967.0,,,,-0.568205135011274,-2.88127479366095,-0.826773297890957,,1.5294251119914408,,
,2698.0,626.0,1584.0,495.0,2421.0,2448.0,1962.0,,,,-0.568019593472378,-2.88131141976361,-0.826795663690569,,1.7025803038638017,,
,2700.0,625.0,1584.0,495.0,2426.0,2432.0,1961.0,,,,-0.568112651887097,-2.88141777291638,-0.828135787997836,,1.8475717968162928,,
,2695.0,627.0,1584.0,494.0,2423.0,2441.0,1965.0,,,,-0.568038038460511,-2.88133474504829,-0.828518171625458,,1.9594838072562049,,
,2698.0,626.0,1583.0,496.0,2423.0,2444.0,1978.0,,,,-0.567830445677062,-2.88135901527026,-0.828332925411742,,2.0340591274674495,,
,2696.0,627.0,1586.0,496.0,2425.0,2436.0,1963.0,,,,-0.567797108165976,-2.88097857123963,-0.828902284939532,,2.0679886738049547,,
,2698.0,627.0,1582.0,493.0,2421.0,2422.0,1960.0,,,,-0.567563839984954,-2.88108902322138,-0.828003114969186,,2.0591951676820393,,
,2697.0,626.0,1585.0,495.0,2424.0,2437.0,1959.0,,,,-0.56675129583788,-2.88096138008555,-0.828054275546299,,2.007074199343151,,
,2699.0,626.0,1586.0,493.0,2427.0,2430.0,1957.0,,,,-0.566465152215718,-2.88078849458711,-0.828687714696945,,1.912655450605646,,
,2700.0,625.0,1585.0,496.0,2425.0,2432.0,1956.0,,,,-0.565594451855177,-2.88065917239824,-0.828850432842974,,1.7786527552997307,,
,2698.0,627.0,1586.0,497.0,2418.0,2434.0,1966.0,,,,-0.56494110061008,-2.88069078820607,-0.827498905189019,,1.609383613043776,,
,2702.0,625.0,1587.0,496.0,2415.0,2426.0,1978.0,,,,-0.564554511698985,-2.88056612436611,-0.82714787404368,,1.4105550382478649,,
,2703.0,627.0,1588.0,496.0,2407.0,2426.0,1965.0,,,,-0.563944981738022,-2.88023447775835,-0.827406980179473,,1.1889304222712325,,
,2705.0,626.0,1584.0,497.0,2411.0,2433.0,1973.0,,,,-0.563368308320391,-2.8803926436411,-0.828165286702711,,0.9519082730174664,,
,2705.0,627.0,1587.0,498.0,2412.0,2436.0,1972.0,,,,-0.563173479814945,-2.88012774319639,-0.828026166886796,,0.7070555215307447,,
,2708.0,625.0,1587.0,494.0,2413.0,2434.0,1969.0,,,,-0.563118408476457,-2.88010646713175,-0.826874787557406,,0.4616435845587145,,
,2708.0,628.0,1591.0,498.0,2415.0,2425.0,1975.0,,,,-0.56337992865443,-2.88003185430308,-0.827235312733348,,0.22223369697241863,,
,2712.0,629.0,1589.0,499.0,2417.0,2437.0,1972.0,,,,-0.563271197664319,-2.88008655508059,-0.827249873091696,,-0.005650169934104092,,
,2712.0,630.0,1592.0,497.0,2423.0,2440.0,1976.0,,,,-0.563289312872241,-2.88008369374417,-0.827450939657683,,-0.2177351215389789,,
,2712.0,630.0,1590.0,499.0,2428.0,2424.0,1974.0,,,,-0.562842836047723,-2.88009675552455,-0.826784207651461,,-0.41108859787829016,,
,2715.0,629.0,1593.0,498.0,2417.0,2419.0,1982.0,,,,-0.563075388300096,-2.88006629790603,-0.826673907284914,,-0.5840857338722918,,
,2718.0,631.0,1591.0,498.0,2409.0,2423.0,1978.0,,,,-0.562559885982689,-2.88000349828769,-0.826503072235689,,-0.7362696191809217,,
,2718.0,632.0,1594.0,500.0,2417.0,2429.0,1971.0,,,,-0.562845740553886,-2.87992808706203,-0.826561703310863,,-0.8681288132934247,,
,2720.0,629.0,1592.0,499.0,2419.0,2418.0,1982.0,,,,-0.562371599621398,-2.87971347591063,-0.825680051367816,,-0.9808228144292983,,
,2723.0,631.0,1591.0,501.0,2414.0,2433.0,1970.0,,,,-0.562162974765905,-2.87972799258352,-0.826764620679786,,-1.0758887448013472,,
,2723.0,631.0,1593.0,499.0,2414.0,2424.0,1978.0,,,,-0.562417922902378,-2.87965090472251,-0.826714990719328,,-1.1549611180725976,,
,2725.0,631.0,1596.0,502.0,2412.0,2431.0,1986.0,,,,-0.562522318736596,-2.8799409110046,-0.826009608736298,,-1.219531681158339,,
,2725.0,631.0,1598.0,500.0,2406.0,2412.0,1991.0,,,,-0.562197365684528,-2.87979022493489,-0.827759173123884,,-1.2707689949842162,,
,2728.0,634.0,1596.0,501.0,2417.0,2431.0,1973.0,,,,-0.562195240589483,-2.87992811413375,-0.826679852566741,,-1.309408788000645,,
,2729.0,636.0,1599.0,504.0,2411.0,2435.0,1975.0,,,,-0.562017200013958,-2.87971122798171,-0.826847330303886,,-1.3357171681999842,,
,2732.0,634.0,1597.0,505.0,2418.0,2441.0,1965.0,,,,-0.562434791943745,-2.87970427449927,-0.825949307652751,,-1.349520344444392,,
,2731.0,635.0,1598.0,504.0,2423.0,2445.0,1961.0,,,,-0.561970237809864,-2.87971828330289,-0.826735165020741,,-1.350287423054022,,
,2735.0,636.0,1599.0,502.0,2418.0,2444.0,1962.0,,,,-0.562371639313466,-2.8798302621711,-0.82504062181881,,-1.3372480010381105,,
,2735.0,634.0,1601.0,502.0,2416.0,2438.0,1970.0,,,,-0.562521924039427,-2.87989489685571,-0.825968682950795,,-1.3095243993739087,,
,2739.0,635.0,1603.0,505.0,2419.0,2443.0,1972.0,,,,-0.56228266087052,-2.88014482474532,-0.826160649943726,,-1.2662596814788605,,
,2738.0,637.0,1603.0,506.0,2421.0,2439.0,1967.0,,,,-0.562384641471876,-2.87987869671902,-0.827622641482187,,-1.206726606802627,,
,2741.0,636.0,1603.0,502.0,2423.0,2434.0,1973.0,,,,-0.562564308450213,-2.88024571984734,-0.827806396324345,,-1.1304083767324595,,
,2742.0,635.0,1605.0,505.0,2419.0,2433.0,1978.0,,,,-0.563125305237795,-2.88039332740337,-0.828961628672579,,-1.0370482993638872,,
,2744.0,637.0,1604.0,508.0,2413.0,2436.0,1986.0,,,,-0.563427208804357,-2.88044447335352,-0.829576816628716,,-0.9266713782300829,,
,2747.0,638.0,1605.0,505.0,2416.0,2437.0,1983.0,,,,-0.563685633147431,-2.88038527727813,-0.830190897549641,,-0.7995856610981836,,
,2749.0,640.0,1607.0,507.0,2411.0,2413.0,1973.0,,,,-0.563460070509686,-2.88067624932084,-0.830424535794942,,-0.6563745322666222,,
,2747.0,640.0,1606.0,508.0,2416.0,2421.0,1983.0,,,,-0.563979124524222,-2.88085972779577,-0.830336723993823,,-0.4978926346640075,,
,2752.0,642.0,1609.0,510.0,2420.0,2418.0,1978.0,,,,-0.563508552926469,-2.88086006186339,-0.831220891321664,,-0.32527739170388315,,
,2751.0,640.0,1607.0,508.0,2421.0,2431.0,1979.0,,,,-0.563269798898572,-2.88093766549686,-0.831361806926355,,-0.13998484978581435,,
,2754.0,640.0,1607.0,507.0,2417.0,2435.0,1977.0,,,,-0.563117278648713,-2.88087746248487,-0.831830663388334,,0.05614723697808655,,
,2756.0,642.0,1608.0,505.0,2421.0,2437.0,1977.0,,,,-0.562494635241913,-2.88078538389098,-0.831817767097145,,0.2608139583185434,,
,2757.0,640.0,1609.0,510.0,2422.0,2440.0,1972.0,,,,-0.562353958192221,-2.88051132824743,-0.832107940714482,,0.4711488252904958,,
,2762.0,643.0,1610.0,511.0,2414.0,2430.0,1981.0,,,,-0.562331653057242,-2.88047913051678,-0.830950090152513,,0.6836410601600944,,
,2761.0,641.0,1610.0,510.0,2419.0,2439.0,1981.0,,,,-0.561634929712278,-2.88061222846743,-0.830521676842371,,0.8940893746220258,,
,2761.0,641.0,1608.0,508.0,2432.0,2429.0,1972.0,,,,-0.561587965653336,-2.88038644867314,-0.83221642290769,,1.0976166323492549,,
,2764.0,641.0,1614.0,508.0,2423.0,2431.0,1968.0,,,,-0.560374438794831,-2.88039680763526,-0.830186729322544,,1.2887647807479936,,
,2766.0,644.0,1612.0,511.0,2419.0,2434.0,1957.0,,,,-0.559836258905634,-2.8800935679119,-0.829942721629674,,1.4616804663340073,,
,2767.0,645.0,1616.0,512.0,2417.0,2437.0,1959.0,,,,-0.559456465403657,-2.87985002197546,-0.829208043916922,,1.6103899578050789,,
,2769.0,646.0,1616.0,512.0,2426.0,2441.0,1967.0,,,,-0.559211091706094,-2.87988965135689,-0.829412271730108,,1.7291488647612887,,
,2770.0,645.0,1615.0,513.0,2426.0,2436.0,1983.0,,,,-0.558710532973864,-2.87978148080485,-0.828793695821794,,1.8128393535198568,,
,2772.0,645.0,1619.0,511.0,2422.0,2435.0,1972.0,,,,-0.558659897951688,-2.87961021025743,-0.827978976809027,,1.857376863524502,,
2025-06-30 21:53:33,2774.0,647.0,1620.0,514.0,2422.0,2432.0,1964.0,,,2025/06/30 09:53:33 PM,-0.558762857176411,-2.87959126527815,-0.828011118144604,,1.8600814006095765,,
,2774.0,646.0,1618.0,513.0,2429.0,2450.0,1964.0,,,,-0.558048844390756,-2.87978457107989,-0.82708081716643,,1.8199668870169632,,
,2770.0,642.0,1616.0,511.0,2421.0,2446.0,1963.0,,,,-0.558027802206496,-2.87937308588316,-0.827636711680218,,1.7379070306712041,,
,2769.0,642.0,1614.0,513.0,2418.0,2447.0,1962.0,,,,-0.557895472159876,-2.87926213640971,-0.827593717254136,,1.616648268730501,,
,2764.0,644.0,1615.0,512.0,2425.0,2444.0,1974.0,,,,-0.557808850892906,-2.8792240485643,-0.828378202138067,,1.4606587536100348,,
,2759.0,644.0,1613.0,509.0,2426.0,2442.0,1976.0,,,,-0.557597465765074,-2.87914824507175,-0.826703234065328,,1.2758244592308834,,
,2752.0,638.0,1610.0,508.0,2415.0,2428.0,1980.0,,,,-0.557669842596833,-2.87910096561414,-0.826803113614237,,1.0690250003382937,,
,2747.0,637.0,1606.0,508.0,2420.0,2429.0,1980.0,,,,-0.557342666319431,-2.87913188300983,-0.826667972402945,,0.8476379960656881,,
,2740.0,636.0,1606.0,507.0,2416.0,2434.0,1973.0,,,,-0.557160371104445,-2.87909456655009,-0.82572545311426,,0.619028553709053,,
,2730.0,634.0,1605.0,505.0,2418.0,2439.0,1980.0,,,,-0.557463994989509,-2.87888122562937,-0.826793503463277,,0.3900790352881308,,
,2722.0,632.0,1600.0,506.0,2412.0,2431.0,1982.0,,,,-0.55762094055326,-2.87899117878983,-0.826611237635377,,0.16680519760053536,,
,2718.0,629.0,1597.0,502.0,2403.0,2422.0,1988.0,,,,-0.557286897993095,-2.87911432240771,-0.825844999631802,,-0.045909422390777097,,
,2710.0,628.0,1593.0,503.0,2417.0,2419.0,1988.0,,,,-0.557339951704269,-2.87909228356001,-0.827187451581264,,-0.244445753756826,,
,2703.0,629.0,1590.0,501.0,2419.0,2416.0,1988.0,,,,-0.55743915427498,-2.87901133936937,-0.826383755422786,,-0.42644985667384705,,
,2698.0,624.0,1587.0,501.0,2414.0,2431.0,1988.0,,,,-0.557355710845833,-2.87917979177198,-0.824925847428582,,-0.5907187788478858,,
,2691.0,624.0,1585.0,496.0,2413.0,2436.0,1973.0,,,,-0.557449354888613,-2.87899920132248,-0.826494786928578,,-0.7369997059898955,,
,2691.0,626.0,1585.0,498.0,2410.0,2429.0,1982.0,,,,-0.557002490552026,-2.87917090412405,-0.826588607036134,,-0.8657370759692935,,
,2686.0,622.0,1583.0,495.0,2412.0,2423.0,1982.0,,,,-0.557609958093169,-2.87893008199382,-0.827132671603462,,-0.9778038401404474,,
,2684.0,622.0,1581.0,497.0,2417.0,2425.0,1979.0,,,,-0.557446495952405,-2.8789281350928,-0.826309765767153,,-1.074249927849377,,
,2680.0,618.0,1580.0,495.0,2417.0,2421.0,1976.0,,,,-0.557792077839351,-2.87902003415132,-0.826443670321583,,-1.1560940437503964,,
,2682.0,622.0,1578.0,496.0,2417.0,2425.0,1970.0,,,,-0.55800120068929,-2.879120494316,-0.82676667622155,,-1.224175336803421,,
,2679.0,621.0,1578.0,495.0,2422.0,2433.0,1968.0,,,,-0.557956794110445,-2.87915702589875,-0.826732862222392,,-1.2790706795879603,,
,2677.0,621.0,1579.0,496.0,2422.0,2443.0,1965.0,,,,-0.558210275295437,-2.87939691090862,-0.827429082667664,,-1.3210730572164102,,
,2678.0,619.0,1578.0,494.0,2425.0,2431.0,1978.0,,,,-0.558417469790394,-2.87956825312811,-0.827377094847268,,-1.350218675019652,,
,2680.0,622.0,1576.0,495.0,2428.0,2429.0,1963.0,,,,-0.558877207978011,-2.8794825889333,-0.827745530832619,,-1.3663460576910051,,
,2678.0,619.0,1577.0,496.0,2428.0,2422.0,1960.0,,,,-0.558526837817496,-2.87942207762478,-0.827727067853536,,-1.3691697750686493,,
,2678.0,620.0,1579.0,497.0,2426.0,2427.0,1957.0,,,,-0.558210004135191,-2.87932229473534,-0.827497841100652,,-1.3583536717638558,,
,2678.0,620.0,1577.0,494.0,2418.0,2438.0,1978.0,,,,-0.558152884547005,-2.87932068040611,-0.826609752484384,,-1.3335723890195565,,
,2676.0,620.0,1575.0,495.0,2424.0,2425.0,1972.0,,,,-0.5581408422222,-2.87941997630823,-0.827542178809425,,-1.2945545306393154,,
,2680.0,621.0,1577.0,493.0,2415.0,2435.0,1979.0,,,,-0.558048744430345,-2.87943453914646,-0.827072386765929,,-1.2411054478995192,,
,2681.0,623.0,1578.0,494.0,2423.0,2406.0,1978.0,,,,-0.558427282175175,-2.87926245110432,-0.825936644045282,,-1.1731119957960512,,
,2680.0,622.0,1579.0,496.0,2423.0,2394.0,1979.0,,,,-0.558375971921867,-2.87923734638481,-0.827524507519577,,-1.090535488533722,,
,2681.0,619.0,1576.0,494.0,2424.0,2412.0,1982.0,,,,-0.558129981302181,-2.87931203210345,-0.82650417684001,,-0.9934021265983708,,
,2682.0,619.0,1578.0,493.0,2421.0,2420.0,1982.0,,,,-0.558289927224989,-2.87907622203805,-0.825476004400532,,-0.88180194623936,,
,2682.0,621.0,1580.0,494.0,2417.0,2433.0,1979.0,,,,-0.558415646989849,-2.87935071917893,-0.82644711156786,,-0.7559073062531283,,
,2682.0,623.0,1578.0,495.0,2414.0,2432.0,1980.0,,,,-0.55846910880882,-2.87932987623254,-0.82611618867097,,-0.616019529235736,,
,2681.0,621.0,1577.0,492.0,2416.0,2431.0,1974.0,,,,-0.558370796474939,-2.87911992969018,-0.826911819789466,,-0.46264735184105,,
,2684.0,623.0,1577.0,494.0,2420.0,2431.0,1969.0,,,,-0.558215677844491,-2.8792525600219,-0.824999070483351,,-0.2966138878837867,,
,2686.0,623.0,1579.0,495.0,2424.0,2433.0,1977.0,,,,-0.558496088216895,-2.87904438089941,-0.825131470389423,,-0.11918136203695706,,
,2683.0,621.0,1578.0,494.0,2426.0,2434.0,1976.0,,,,-0.558463790082175,-2.8789412584037,-0.826242800914932,,0.06782316298998775,,
,2684.0,620.0,1575.0,494.0,2428.0,2426.0,1979.0,,,,-0.558076115958103,-2.87903629290632,-0.825978988751401,,0.26190105237342864,,
,2682.0,622.0,1578.0,493.0,2417.0,2430.0,1974.0,,,,-0.55854296119575,-2.87906259512528,-0.825930086389168,,0.4598143508077552,,
,2682.0,619.0,1577.0,494.0,2415.0,2429.0,1975.0,,,,-0.558737202027966,-2.87874729900512,-0.825507214451645,,0.6575742653648896,,
,2684.0,623.0,1576.0,495.0,2408.0,2427.0,1969.0,,,,-0.558303649114674,-2.87881942257602,-0.825825257074918,,0.8504983586062527,,
,2683.0,620.0,1576.0,493.0,2405.0,2424.0,1968.0,,,,-0.55857775594636,-2.878794261452,-0.825995444949632,,1.0333427826926924,,
,2682.0,619.0,1572.0,493.0,2412.0,2419.0,1981.0,,,,-0.558247577633857,-2.87885480866086,-0.827221874319769,,1.200508781115192,,
,2684.0,621.0,1573.0,494.0,2416.0,2423.0,1985.0,,,,-0.558315030533168,-2.87891797199522,-0.825535026558063,,1.34631492057199,,
,2684.0,621.0,1575.0,493.0,2415.0,2424.0,1975.0,,,,-0.558023691993496,-2.87873312890064,-0.82614075977492,,1.4653184648572315,,
,2685.0,622.0,1574.0,495.0,2419.0,2429.0,1965.0,,,,-0.558141633164913,-2.87884352753427,-0.826294387010752,,1.552661631580224,,
,2685.0,620.0,1572.0,492.0,2421.0,2436.0,1976.0,,,,-0.557920540385639,-2.87881884014917,-0.824874251261357,,1.6044122325964638,,
,2687.0,621.0,1574.0,495.0,2416.0,2442.0,1963.0,,,,-0.557669852289007,-2.87881805943399,-0.825412846207181,,1.6178647219622257,,
,2688.0,621.0,1573.0,493.0,2417.0,2429.0,1972.0,,,,-0.557813446720033,-2.87860057004068,-0.825631786306338,,1.5917682705273961,,
,2689.0,622.0,1573.0,492.0,2418.0,2424.0,1972.0,,,,-0.557768225883363,-2.87854007950792,-0.825634490349576,,1.5264539915835993,,
,2688.0,621.0,1572.0,491.0,2422.0,2434.0,1974.0,,,,-0.557638484121761,-2.87867277705806,-0.824875705985348,,1.4238437497693766,,
,2694.0,621.0,1573.0,493.0,2428.0,2436.0,1982.0,,,,-0.558149074293833,-2.87868048235202,-0.825784772311339,,1.2873367942336171,,
,2694.0,620.0,1574.0,493.0,2422.0,2437.0,1986.0,,,,-0.558361961717684,-2.87861625698707,-0.825955669951404,,1.1215854555784537,,
,2696.0,622.0,1574.0,495.0,2421.0,2433.0,1978.0,,,,-0.558035488417924,-2.87867503445508,-0.824533085080931,,0.9321845714856591,,
,2697.0,621.0,1574.0,491.0,2417.0,2430.0,1979.0,,,,-0.558288867657469,-2.87879024666783,-0.825486394448998,,0.7253086881085633,,
,2699.0,622.0,1573.0,491.0,2421.0,2442.0,1979.0,,,,-0.558289670963596,-2.87859587638504,-0.826366778197801,,0.507334983497615,,
,2700.0,626.0,1574.0,492.0,2417.0,2444.0,1975.0,,,,-0.558142852589482,-2.87891243977524,-0.82470669764916,,0.2844882220278592,,
,2702.0,625.0,1575.0,494.0,2422.0,2435.0,1966.0,,,,-0.558095779132362,-2.87907485452651,-0.824917440617304,,0.06253791148485535,,
,2704.0,622.0,1575.0,496.0,2424.0,2441.0,1968.0,,,,-0.55815170487982,-2.87892954421335,-0.824746184924226,,-0.1534313031803021,,
,2704.0,625.0,1577.0,495.0,2419.0,2438.0,1981.0,,,,-0.558284540798196,-2.87884394215518,-0.825623534097843,,-0.35916558696668593,,
,2706.0,625.0,1576.0,495.0,2416.0,2421.0,1976.0,,,,-0.558366080745116,-2.87876087992475,-0.82567933130427,,-0.5513044443205418,,
,2710.0,627.0,1575.0,495.0,2413.0,2423.0,1984.0,,,,-0.558238571071191,-2.87874134097362,-0.823941913300501,,-0.7273694695098712,,
,2713.0,626.0,1577.0,495.0,2418.0,2422.0,1977.0,,,,-0.558271666421182,-2.87878257503844,-0.825429610499464,,-0.8856958884874157,,
,2712.0,627.0,1576.0,496.0,2414.0,2431.0,1966.0,,,,-0.558192812888255,-2.8787347506835,-0.824182457943485,,-1.0253269780536933,,
,2716.0,626.0,1577.0,495.0,2415.0,2436.0,1974.0,,,,-0.558325856297963,-2.87867917410481,-0.825197550233993,,-1.1458910913986486,,
,2718.0,627.0,1581.0,496.0,2424.0,2438.0,1966.0,,,,-0.558462864803699,-2.87866529831366,-0.825009081382897,,-1.2474771677583543,,
,2719.0,629.0,1579.0,496.0,2427.0,2429.0,1971.0,,,,-0.558676790361077,-2.8788853851814,-0.824996476915092,,-1.330518649312025,,
,2721.0,630.0,1583.0,495.0,2414.0,2431.0,1972.0,,,,-0.558645578883433,-2.87887596901528,-0.826324870510124,,-1.3956897168178974,,
,2725.0,630.0,1581.0,496.0,2419.0,2432.0,1974.0,,,,-0.558530827322801,-2.87877747400684,-0.825975357747456,,-1.443813482944126,,
,2726.0,631.0,1583.0,498.0,2418.0,2427.0,1973.0,,,,-0.558723540881569,-2.87886417683252,-0.825401634234161,,-1.4757799898547566,,
,2728.0,631.0,1583.0,499.0,2421.0,2428.0,1970.0,,,,-0.558790002523685,-2.87880283826507,-0.826319186286372,,-1.4924721600095066,,
,2730.0,630.0,1582.0,498.0,2424.0,2432.0,1968.0,,,,-0.558657349352889,-2.87870789428346,-0.825663780632094,,-1.4946992875104883,,
,2728.0,631.0,1582.0,497.0,2428.0,2441.0,1976.0,,,,-0.558797364362991,-2.87847479374112,-0.824572102649642,,-1.4831392889724992,,
,2732.0,633.0,1586.0,499.0,2421.0,2438.0,1972.0,,,,-0.55880401730735,-2.87867559601834,-0.825357959386374,,-1.458292125506351,,
,2735.0,632.0,1587.0,499.0,2419.0,2442.0,1972.0,,,,-0.558593929710323,-2.87855138672447,-0.824908741964431,,-1.420447308475466,,
,2739.0,635.0,1590.0,498.0,2420.0,2439.0,1970.0,,,,-0.559047604613582,-2.87874672566252,-0.824922468002247,,-1.3696683056073822,,
,2737.0,633.0,1585.0,499.0,2416.0,2436.0,1981.0,,,,-0.558616647285508,-2.87853233519512,-0.824966255721692,,-1.3057962703186452,,
,2739.0,633.0,1589.0,498.0,2420.0,2445.0,1970.0,,,,-0.558716497781679,-2.87843354213321,-0.824949080389828,,-1.228475077622521,,
,2742.0,633.0,1588.0,499.0,2421.0,2444.0,1981.0,,,,-0.558426299962782,-2.87839643528317,-0.825061473815265,,-1.1371991413380196,,
,2742.0,637.0,1591.0,500.0,2418.0,2424.0,1978.0,,,,-0.558516596976198,-2.87880883529056,-0.826075944650222,,-1.0313845793836018,,
,2746.0,635.0,1590.0,497.0,2415.0,2419.0,1968.0,,,,-0.558988546195728,-2.87900786123587,-0.825861456156895,,-0.9104625748641345,,
,2749.0,636.0,1591.0,499.0,2420.0,2428.0,1972.0,,,,-0.559974717310661,-2.87916008761004,-0.826808197945036,,-0.7739911632276611,,
,2750.0,636.0,1595.0,500.0,2420.0,2428.0,1980.0,,,,-0.561042299864304,-2.87958011780973,-0.827876628741701,,-0.621778712276258,,
,2751.0,637.0,1592.0,500.0,2413.0,2439.0,1989.0,,,,-0.561648189251191,-2.88000852228236,-0.829404332322085,,-0.45401007199892707,,
,2752.0,640.0,1595.0,502.0,2419.0,2435.0,1983.0,,,,-0.56260110567987,-2.88009596954304,-0.828849243843186,,-0.27136555291074366,,
,2754.0,636.0,1592.0,500.0,2417.0,2433.0,1984.0,,,,-0.563174372195365,-2.88045994426915,-0.82885468214057,,-0.0751235277530277,,
,2758.0,639.0,1596.0,503.0,2417.0,2436.0,1985.0,,,,-0.56427485776374,-2.88067959532227,-0.829699984736999,,0.13276117491668066,,
,2757.0,638.0,1598.0,503.0,2413.0,2436.0,1975.0,,,,-0.564573052246284,-2.88088841085036,-0.83052519883824,,0.34960958037140855,,
,2759.0,639.0,1596.0,503.0,2415.0,2437.0,1972.0,,,,-0.564944875668217,-2.88111546944499,-0.829973968559985,,0.5720071180181756,,
,2760.0,638.0,1598.0,501.0,2416.0,2419.0,1977.0,,,,-0.564945253302899,-2.88124133479706,-0.830284126117774,,0.7958332388485096,,
,2764.0,639.0,1600.0,504.0,2411.0,2428.0,1972.0,,,,-0.564964172782714,-2.88093271418721,-0.830914043928453,,1.0163360599830884,,
,2764.0,642.0,1600.0,503.0,2419.0,2435.0,1980.0,,,,-0.565005360363208,-2.88082153495757,-0.831215916774448,,1.2282545124123898,,
,2769.0,643.0,1600.0,505.0,2415.0,2440.0,1978.0,,,,-0.564242411720092,-2.88085689770309,-0.830907010722137,,1.4259880279548984,,
,2769.0,643.0,1603.0,504.0,2409.0,2441.0,1977.0,,,,-0.564110156667685,-2.88093496577732,-0.830088930595371,,1.6038103540069042,,
,2769.0,641.0,1599.0,504.0,2416.0,2442.0,1970.0,,,,-0.563617044671486,-2.88067939949465,-0.829448196917565,,1.7561199622435353,,
,2769.0,642.0,1603.0,506.0,2414.0,2443.0,1966.0,,,,-0.562724298593606,-2.88027166799697,-0.830500322888335,,1.8777153709634504,,
,2777.0,646.0,1606.0,506.0,2410.0,2445.0,1967.0,,,,-0.562206426094107,-2.88018822815329,-0.830024594678785,,1.9640801973106785,,
,2777.0,647.0,1604.0,505.0,2417.0,2439.0,1971.0,,,,-0.561220262237851,-2.88008327915644,-0.828601579995942,,2.0116601543806447,,
,2776.0,642.0,1603.0,506.0,2416.0,2439.0,1978.0,,,,-0.560410618317002,-2.87973881796314,-0.829128820417731,,2.0181122817270154,,
,2780.0,645.0,1606.0,505.0,2414.0,2441.0,1963.0,,,,-0.559454457975316,-2.87963895560305,-0.828132342375867,,1.9825053051671064,,
,2780.0,647.0,1606.0,506.0,2416.0,2440.0,1974.0,,,,-0.558984332240061,-2.8792882086143,-0.828807115025049,,1.9054497839543474,,
,2784.0,644.0,1606.0,508.0,2416.0,2444.0,1981.0,,,,-0.558236575466104,-2.87929248718792,-0.828047805527519,,1.7891389252153458,,
,2784.0,648.0,1607.0,507.0,2413.0,2432.0,1965.0,,,,-0.558332188433811,-2.87922286912164,-0.828555207812279,,1.637286758196059,,
,2785.0,645.0,1606.0,504.0,2409.0,2435.0,1970.0,,,,-0.557584615679602,-2.87917878023017,-0.828101172477287,,1.4549598025065498,,
,2790.0,650.0,1608.0,507.0,2418.0,2445.0,1973.0,,,,-0.557417304147641,-2.87897062778988,-0.826862821943678,,1.2483100502199433,,
,2788.0,650.0,1609.0,508.0,2422.0,2444.0,1973.0,,,,-0.557282571594311,-2.87874827279637,-0.827701339792759,,1.0242286717978968,,
,2787.0,649.0,1608.0,507.0,2416.0,2440.0,1983.0,,,,-0.556627864060837,-2.87886805306348,-0.827023434520444,,0.789949010755541,,
,2784.0,647.0,1603.0,505.0,2424.0,2447.0,1983.0,,,,-0.556234305564928,-2.87849452197254,-0.827232905970102,,0.5526326220862618,,
,2779.0,644.0,1601.0,505.0,2419.0,2446.0,1976.0,,,,-0.556412481914276,-2.87867490371205,-0.82652624632262,,0.3189729080518952,,
,2777.0,644.0,1600.0,505.0,2420.0,2455.0,1975.0,,,,-0.556715398909392,-2.87842407579909,-0.828165738256121,,0.09484786649479862,,
,2769.0,642.0,1597.0,503.0,2419.0,2454.0,1983.0,,,,-0.556542137618396,-2.87870890871404,-0.826622598720236,,-0.11495223355041972,,
,2762.0,643.0,1592.0,501.0,2417.0,2438.0,1989.0,,,,-0.556739112398274,-2.87873476234129,-0.826473901330854,,-0.3069035564029499,,
,2755.0,640.0,1592.0,500.0,2412.0,2433.0,1985.0,,,,-0.557009968106537,-2.87872983182789,-0.828003279464736,,-0.47882288734834144,,
,2749.0,636.0,1586.0,501.0,2410.0,2431.0,1980.0,,,,-0.557231361109305,-2.8787678962737,-0.826618556092628,,-0.6298347567862747,,
,2747.0,636.0,1584.0,497.0,2415.0,2432.0,1980.0,,,,-0.557354239271101,-2.87883129048205,-0.827384414932297,,-0.7602378818581136,,
,2735.0,633.0,1581.0,494.0,2410.0,2445.0,1966.0,,,,-0.557538224154759,-2.87877508416868,-0.827853335213322,,-0.8712862759542532,,
,2733.0,632.0,1575.0,495.0,2407.0,2428.0,1976.0,,,,-0.557391439626955,-2.87907246460132,-0.827739772840854,,-0.9649081785598141,,
,2730.0,631.0,1576.0,495.0,2404.0,2423.0,1985.0,,,,-0.557540834217453,-2.87914380568931,-0.828714944123256,,-1.043391333434515,,
,2724.0,630.0,1574.0,494.0,2408.0,2430.0,1984.0,,,,-0.557521224913221,-2.87895557367115,-0.827437089641313,,-1.1090654156164814,,
,2721.0,631.0,1574.0,494.0,2403.0,2423.0,1979.0,,,,-0.557124570960476,-2.87911031157736,-0.828777870470515,,-1.1640115427895112,,
,2716.0,625.0,1567.0,492.0,2420.0,2423.0,1970.0,,,,-0.557646380531477,-2.87918884267228,-0.828101295715646,,-1.209825127127456,,
,2717.0,628.0,1570.0,493.0,2422.0,2432.0,1962.0,,,,-0.557571524651124,-2.87886897862543,-0.828004805700196,,-1.2474523072314487,,
,2715.0,628.0,1569.0,493.0,2421.0,2428.0,1960.0,,,,-0.557762103113516,-2.87912719915739,-0.829124571167962,,-1.277112438610314,,
,2714.0,629.0,1568.0,492.0,2420.0,2429.0,1957.0,,,,-0.558177654365109,-2.8792576782194,-0.828640975114482,,-1.2983103376574288,,
,2712.0,626.0,1565.0,490.0,2420.0,2428.0,1955.0,,,,-0.55809332609189,-2.87918595766669,-0.827626815414673,,-1.309932988017712,,
2025-06-30 21:53:34,2713.0,628.0,1565.0,490.0,2420.0,2430.0,1956.0,,,2025/06/30 09:53:34 PM,-0.558366816976569,-2.87926276976795,-0.828153555416078,,-1.310417023740705,,
,2715.0,627.0,1567.0,491.0,2422.0,2435.0,1957.0,,,,-0.558135455008741,-2.87933449636403,-0.828881943907736,,-1.2979661435506937,,
,2715.0,628.0,1566.0,492.0,2424.0,2441.0,1960.0,,,,-0.55796137701595,-2.8791335611404,-0.828082144474393,,-1.2707922092540282,,
,2711.0,628.0,1567.0,494.0,2422.0,2433.0,1961.0,,,,-0.557963017107357,-2.87900254854452,-0.828346780583595,,-1.2273507583675163,,
,2711.0,626.0,1566.0,489.0,2426.0,2432.0,1956.0,,,,-0.557932708465247,-2.87899380835549,-0.827875807100235,,-1.1665418874944748,,
,2714.0,630.0,1568.0,492.0,2426.0,2435.0,1965.0,,,,-0.557727672466212,-2.87900274367579,-0.827734474081739,,-1.087851796253978,,
,2714.0,629.0,1565.0,490.0,2428.0,2436.0,1971.0,,,,-0.557795296808433,-2.87878745892062,-0.82773464782325,,-0.9914188627361556,,
,2715.0,627.0,1565.0,489.0,2435.0,2445.0,1983.0,,,,-0.557589496392205,-2.87897712422796,-0.826935737154257,,-0.8780198299252562,,
,2715.0,626.0,1565.0,490.0,2433.0,2430.0,1986.0,,,,-0.557719262199025,-2.87887458512472,-0.827790302169198,,-0.7489843231459143,,
,2718.0,627.0,1565.0,490.0,2423.0,2414.0,1982.0,,,,-0.557244409912986,-2.8788648562263,-0.827386553668912,,-0.6060569735978584,,
,2716.0,628.0,1568.0,490.0,2427.0,2425.0,1980.0,,,,-0.556743886646314,-2.87880103922633,-0.827164384035654,,-0.4512338104825741,,
,2718.0,628.0,1567.0,491.0,2422.0,2424.0,1978.0,,,,-0.556611934205575,-2.87865184197466,-0.827247609931677,,-0.286602167396397,,
,2718.0,627.0,1568.0,489.0,2421.0,2416.0,1980.0,,,,-0.556609340407547,-2.87855222395654,-0.826835402353389,,-0.11421114992195397,,
,2719.0,628.0,1571.0,491.0,2420.0,2431.0,1977.0,,,,-0.556338346981362,-2.87841648352691,-0.826311571791251,,0.0640063197170598,,
,2719.0,628.0,1568.0,491.0,2420.0,2446.0,1973.0,,,,-0.556042732389613,-2.87827953579693,-0.826551847619952,,0.24624744447438787,,
,2719.0,627.0,1566.0,490.0,2425.0,2441.0,1976.0,,,,-0.556049935595901,-2.87857768722311,-0.825576192137136,,0.43078701356663274,,
,2719.0,628.0,1565.0,491.0,2409.0,2442.0,1973.0,,,,-0.556073358525789,-2.87831292033077,-0.827155675891906,,0.6158663141497519,,
,2719.0,632.0,1569.0,492.0,2415.0,2450.0,1975.0,,,,-0.555465893029608,-2.87835358333234,-0.825863459883873,,0.7995413845156246,,
,2718.0,630.0,1568.0,492.0,2418.0,2425.0,1977.0,,,,-0.555660078371007,-2.87827973726057,-0.825705111999578,,0.9795170656912623,,
,2719.0,630.0,1568.0,491.0,2414.0,2436.0,1978.0,,,,-0.55566965024146,-2.87828046163807,-0.82632401208225,,1.1529991944071902,,
,2717.0,628.0,1567.0,491.0,2404.0,2430.0,1975.0,,,,-0.555310798525623,-2.87826636622089,-0.82552975437581,,1.3165989178894015,,
,2718.0,627.0,1568.0,487.0,2412.0,2415.0,1979.0,,,,-0.555498450578593,-2.87801255496781,-0.825427505214265,,1.4663192781370404,,
,2715.0,630.0,1569.0,491.0,2410.0,2426.0,1958.0,,,,-0.555346363802045,-2.87809579103081,-0.824444622455755,,1.5976447816656272,,
,2717.0,630.0,1569.0,492.0,2405.0,2436.0,1963.0,,,,-0.554539071656049,-2.87824468790485,-0.824520569942313,,1.7057407845162695,,
,2718.0,630.0,1569.0,489.0,2408.0,2435.0,1956.0,,,,-0.554816867097978,-2.87810487632389,-0.82485468164408,,1.7857532228686577,,
,2716.0,627.0,1568.0,486.0,2413.0,2425.0,1978.0,,,,-0.55490170714349,-2.87809074485971,-0.825053430365979,,1.8331829654251606,,
,2714.0,631.0,1567.0,491.0,2415.0,2429.0,1976.0,,,,-0.554652181042544,-2.87819573584062,-0.825289423257643,,1.8442953549444638,,
,2716.0,630.0,1568.0,491.0,2424.0,2418.0,1972.0,,,,-0.555082514434163,-2.87818145785067,-0.82574767235439,,1.8165165774489724,,
,2714.0,630.0,1567.0,492.0,2424.0,2423.0,1964.0,,,,-0.555246605541914,-2.87811270880378,-0.825758814169669,,1.7487660377604706,,
,2714.0,629.0,1567.0,488.0,2423.0,2428.0,1979.0,,,,-0.555011335946846,-2.87812388913549,-0.825125316831367,,1.6416787865805398,,
,2715.0,631.0,1569.0,489.0,2422.0,2432.0,1979.0,,,,-0.555324593124382,-2.87806327291109,-0.82495755337785,,1.497683984032601,,
,2719.0,632.0,1570.0,491.0,2428.0,2442.0,1971.0,,,,-0.555245059464952,-2.87830927938851,-0.825859051646917,,1.3209228949664744,,
,2717.0,632.0,1569.0,490.0,2425.0,2436.0,1967.0,,,,-0.555126996166799,-2.8782902184441,-0.826242563244087,,1.1170104200787723,,
,2720.0,630.0,1569.0,490.0,2413.0,2432.0,1971.0,,,,-0.55528059803978,-2.87831493445395,-0.826413185322759,,0.8926645086289506,,
,2719.0,630.0,1572.0,489.0,2419.0,2428.0,1974.0,,,,-0.555367395606559,-2.87843099592982,-0.825361049635851,,0.6552447383711921,,
,2722.0,633.0,1572.0,491.0,2422.0,2430.0,1978.0,,,,-0.555500559232022,-2.87827626439831,-0.824440717060216,,0.4122520691487815,,
,2722.0,633.0,1573.0,490.0,2416.0,2418.0,1984.0,,,,-0.555471353287831,-2.87824783025116,-0.825285865466604,,0.17084450319928401,,
,2723.0,633.0,1572.0,490.0,2421.0,2419.0,1980.0,,,,-0.555707332007969,-2.87817570602138,-0.825221003973516,,-0.06258199839810129,,
,2726.0,633.0,1575.0,492.0,2423.0,2430.0,1977.0,,,,-0.555653208050827,-2.87814513330637,-0.824238998883799,,-0.282709876115066,,
,2728.0,634.0,1579.0,490.0,2422.0,2440.0,1968.0,,,,-0.55552512876643,-2.87818381725052,-0.8249503961852,,-0.48549182784199085,,
,2729.0,635.0,1577.0,492.0,2421.0,2432.0,1973.0,,,,-0.55582361804568,-2.8781902292061,-0.824346031877441,,-0.6682129693169494,,
,2730.0,634.0,1577.0,493.0,2422.0,2437.0,1970.0,,,,-0.555296485075163,-2.87803967863576,-0.824818930931653,,-0.8294331407434731,,
,2730.0,635.0,1574.0,493.0,2423.0,2426.0,1968.0,,,,-0.555226411753304,-2.87809957842655,-0.824776255389266,,-0.9688309479710083,,
,2735.0,636.0,1577.0,491.0,2420.0,2427.0,1973.0,,,,-0.554948910185565,-2.87806210092464,-0.824783369771516,,-1.0869786760006077,,
,2734.0,639.0,1580.0,494.0,2420.0,2427.0,1978.0,,,,-0.554998969693534,-2.87826241400191,-0.8239222014372,,-1.1850804295523645,,
,2737.0,639.0,1581.0,494.0,2424.0,2433.0,1965.0,,,,-0.554762452684074,-2.87798797858305,-0.823997615211817,,-1.2647052046841691,,
,2739.0,638.0,1580.0,491.0,2430.0,2440.0,1960.0,,,,-0.554751445999001,-2.8780701164689,-0.823564756198506,,-1.3275428216492708,,
,2738.0,636.0,1580.0,492.0,2427.0,2428.0,1962.0,,,,-0.55466973816002,-2.87800993848903,-0.823245840205384,,-1.3752044597161381,,
,2742.0,640.0,1585.0,496.0,2427.0,2428.0,1963.0,,,,-0.554556941857079,-2.87785744781163,-0.823156649304351,,-1.4090815273668045,,
,2743.0,639.0,1582.0,493.0,2427.0,2424.0,1960.0,,,,-0.554542359748168,-2.87813676459602,-0.82377700829398,,-1.4302675295058538,,
,2746.0,641.0,1586.0,495.0,2422.0,2437.0,1948.0,,,,-0.554724485317485,-2.87786022146052,-0.822801981871343,,-1.4395386585233985,,
,2749.0,640.0,1582.0,492.0,2420.0,2439.0,1949.0,,,,-0.554570146911778,-2.87797797483163,-0.823000198782609,,-1.4373815216145527,,
,2749.0,640.0,1584.0,494.0,2417.0,2436.0,1963.0,,,,-0.554782128966366,-2.8780427524061,-0.823155817606407,,-1.4240518827256594,,
,2752.0,644.0,1589.0,499.0,2426.0,2437.0,1968.0,,,,-0.554961470590378,-2.87805587136152,-0.82233007372622,,-1.3996469355316177,,
,2754.0,644.0,1587.0,497.0,2420.0,2437.0,1969.0,,,,-0.554713433879518,-2.87797309527508,-0.823082813521787,,-1.3641751374601858,,
,2754.0,643.0,1589.0,495.0,2416.0,2420.0,1976.0,,,,-0.554933140359117,-2.87818511614555,-0.82339267987612,,-1.3176113713805826,,
,2759.0,644.0,1586.0,495.0,2423.0,2423.0,1980.0,,,,-0.554957449754212,-2.87803417075309,-0.822876484285874,,-1.2599303637616572,,
,2763.0,646.0,1591.0,499.0,2427.0,2421.0,1966.0,,,,-0.555582509036993,-2.87813240420625,-0.825791445781326,,-1.1911170123253927,,
,2765.0,646.0,1590.0,497.0,2432.0,2418.0,1968.0,,,,-0.555954843592928,-2.87844751426827,-0.825011964204925,,-1.1111577271991913,,
,2767.0,648.0,1593.0,495.0,2427.0,2417.0,1977.0,,,,-0.556713533950735,-2.87864972132523,-0.825433249073443,,-1.0200213608344089,,
,2769.0,648.0,1594.0,498.0,2429.0,2430.0,1980.0,,,,-0.557361059715956,-2.87883690361997,-0.826080506209471,,-0.9176412006501357,,
,2775.0,653.0,1595.0,500.0,2421.0,2437.0,1978.0,,,,-0.558084410406791,-2.8792242612292,-0.827652204064153,,-0.8039102497547433,,
,2775.0,650.0,1595.0,497.0,2420.0,2437.0,1954.0,,,,-0.559011550083328,-2.8794243417226,-0.828560819541062,,-0.6787001475955867,,
,2777.0,652.0,1594.0,498.0,2428.0,2429.0,1963.0,,,,-0.559504100054305,-2.8795340654772,-0.827265064389459,,-0.5419096009036797,,
,2777.0,651.0,1596.0,497.0,2419.0,2421.0,1982.0,,,,-0.560005791073672,-2.87999635827489,-0.828664455687114,,-0.3935420373316312,,
,2781.0,651.0,1597.0,500.0,2425.0,2412.0,1968.0,,,,-0.561179427903663,-2.88009732321252,-0.828952896040746,,-0.2338060986133378,,
,2784.0,654.0,1600.0,501.0,2431.0,2433.0,1956.0,,,,-0.561094804981449,-2.8802504240497,-0.829578627614239,,-0.06322828435429342,,
,2785.0,654.0,1602.0,499.0,2432.0,2429.0,1964.0,,,,-0.561832057850684,-2.88010314880163,-0.828532932925278,,0.11723469750727458,,
,2785.0,654.0,1600.0,499.0,2424.0,2425.0,1967.0,,,,-0.561976531635067,-2.88015825926073,-0.828673716082253,,0.3060959744120181,,
,2787.0,657.0,1603.0,501.0,2423.0,2429.0,1956.0,,,,-0.561557415897836,-2.88017297341764,-0.829012577827193,,0.5012616700549501,,
,2792.0,657.0,1604.0,500.0,2424.0,2430.0,1975.0,,,,-0.561453926775933,-2.88016246369534,-0.828660590109485,,0.6999863681753602,,
,2795.0,656.0,1606.0,501.0,2423.0,2433.0,1973.0,,,,-0.561427986443416,-2.88022112282428,-0.828590185598754,,0.8988686445291307,,
,2797.0,656.0,1607.0,502.0,2431.0,2439.0,1967.0,,,,-0.560982423968644,-2.88006221909599,-0.828335035849698,,1.0938928543314934,,
,2797.0,658.0,1609.0,503.0,2426.0,2437.0,1977.0,,,,-0.560988830034879,-2.88013257218897,-0.827792891182445,,1.2805211115722757,,
,2802.0,660.0,1611.0,503.0,2421.0,2430.0,1967.0,,,,-0.561011341199106,-2.88006711738825,-0.8271009151132,,1.4538360884583097,,
,2802.0,660.0,1610.0,504.0,2418.0,2432.0,1967.0,,,,-0.560699012404752,-2.88000011238805,-0.827391236837574,,1.6087309592287664,,
,2801.0,660.0,1607.0,504.0,2421.0,2430.0,1948.0,,,,-0.560515844872709,-2.87962476376974,-0.826460319163601,,1.740138132179031,,
,2806.0,660.0,1610.0,502.0,2423.0,2417.0,1956.0,,,,-0.560460504967516,-2.87984683863522,-0.826846418831163,,1.8432842707910777,,
,2808.0,661.0,1613.0,504.0,2421.0,2429.0,1951.0,,,,-0.560437029283035,-2.87983287805836,-0.827230057582005,,1.913956138412739,,
,2812.0,662.0,1614.0,505.0,2424.0,2437.0,1944.0,,,,-0.55998740012294,-2.87987418446662,-0.827220542256471,,1.948759971792783,,
,2812.0,663.0,1614.0,507.0,2428.0,2431.0,1958.0,,,,-0.560055219046572,-2.87961178114407,-0.827575048130977,,1.9453559426427143,,
,2812.0,662.0,1617.0,505.0,2426.0,2435.0,1958.0,,,,-0.56041935047503,-2.87973607503325,-0.827503597606367,,1.902648695677842,,
,2819.0,666.0,1618.0,507.0,2429.0,2432.0,1952.0,,,,-0.560567558936856,-2.87989882893862,-0.826126266467822,,1.8209156147839125,,
,2818.0,666.0,1618.0,508.0,2429.0,2432.0,1966.0,,,,-0.560775171349373,-2.87990445362072,-0.826383587825032,,1.7018573707339513,,
,2819.0,667.0,1618.0,507.0,2431.0,2438.0,1976.0,,,,-0.560809768041254,-2.87981703186916,-0.827820373662367,,1.5485609501033142,,
,2818.0,665.0,1616.0,504.0,2432.0,2446.0,1962.0,,,,-0.560634372330348,-2.87969138357744,-0.827617170585453,,1.3653732241674208,,
,2815.0,661.0,1616.0,503.0,2425.0,2444.0,1969.0,,,,-0.560567163543935,-2.87956279677779,-0.825871020777621,,1.1576917990469628,,
,2809.0,665.0,1615.0,505.0,2427.0,2436.0,1956.0,,,,-0.560662540621118,-2.87965965622287,-0.826935135935549,,0.9316878787200911,,
,2803.0,662.0,1615.0,505.0,2427.0,2438.0,1957.0,,,,-0.560601345552162,-2.87968036469973,-0.826607496029594,,0.6939821433350459,,
,2796.0,660.0,1610.0,502.0,2435.0,2433.0,1972.0,,,,-0.560362448641321,-2.87967974467798,-0.826665837012114,,0.4512987058347965,,
,2792.0,658.0,1608.0,499.0,2426.0,2426.0,1970.0,,,,-0.560075891119478,-2.87982597461339,-0.826785647430509,,0.2101238868931522,,
,2784.0,658.0,1604.0,501.0,2419.0,2431.0,1962.0,,,,-0.559840232228419,-2.87974311111387,-0.825987444677355,,-0.023604097492757603,,
,2781.0,656.0,1604.0,501.0,2421.0,2432.0,1961.0,,,,-0.559658000589821,-2.87963875488683,-0.826514830100636,,-0.2447511960161991,,
,2772.0,656.0,1599.0,496.0,2421.0,2429.0,1950.0,,,,-0.55985983464335,-2.87980799803556,-0.826178820247036,,-0.4491707321056023,,
,2767.0,652.0,1597.0,496.0,2418.0,2425.0,1971.0,,,,-0.55954945462187,-2.87962876720346,-0.828404740430688,,-0.6338019042012243,,
,2759.0,653.0,1594.0,495.0,2414.0,2434.0,1967.0,,,,-0.560139259238374,-2.87958785663403,-0.827546365638005,,-0.7966801489169105,,
,2757.0,650.0,1595.0,495.0,2420.0,2439.0,1980.0,,,,-0.560534218634605,-2.88003670300429,-0.827480682121457,,-0.9368650728598172,,
,2753.0,648.0,1593.0,495.0,2421.0,2432.0,1982.0,,,,-0.561533554177544,-2.88030477397463,-0.82908521380208,,-1.0543000623967007,,
,2747.0,649.0,1587.0,494.0,2424.0,2416.0,1973.0,,,,-0.563396771297825,-2.88093209373426,-0.830076996153762,,-1.1496241008611259,,
,2747.0,645.0,1586.0,491.0,2418.0,2436.0,1971.0,,,,-0.564911633982271,-2.88133800971482,-0.831758091265345,,-1.2239600130284705,,
,2743.0,649.0,1592.0,494.0,2426.0,2436.0,1962.0,,,,-0.56687165945266,-2.88234800004376,-0.832480217764887,,-1.27870401749391,,
,2741.0,647.0,1588.0,493.0,2428.0,2438.0,1961.0,,,,-0.568497115671662,-2.8827118055797,-0.833656322446212,,-1.3153391105422525,,
,2742.0,649.0,1586.0,492.0,2436.0,2445.0,1968.0,,,,-0.569959037937927,-2.88316839830091,-0.834995844738852,,-1.335289768848235,,
,2740.0,646.0,1588.0,491.0,2426.0,2436.0,1961.0,,,,-0.571077257232501,-2.88343318035748,-0.835715231528747,,-1.339828500263123,,
,2742.0,646.0,1586.0,492.0,2430.0,2444.0,1951.0,,,,-0.572109800673405,-2.88389583125994,-0.837557940380184,,-1.3300369746014449,,
,2739.0,647.0,1586.0,493.0,2426.0,2439.0,1936.0,,,,-0.573130170579292,-2.88429111739931,-0.838390769145597,,-1.3068168968875227,,
,2741.0,644.0,1588.0,492.0,2430.0,2435.0,1938.0,,,,-0.574128806351587,-2.88454547415822,-0.837799350972661,,-1.2709392176951124,,
,2743.0,644.0,1584.0,490.0,2422.0,2420.0,1954.0,,,,-0.574969950872509,-2.8846875511635,-0.838631366811313,,-1.2231152560715008,,
,2741.0,645.0,1586.0,491.0,2422.0,2429.0,1960.0,,,,-0.575524102401281,-2.88475730450975,-0.838106519613335,,-1.1640704432286222,,
,2743.0,646.0,1587.0,491.0,2417.0,2432.0,1960.0,,,,-0.576092943129469,-2.88479447617083,-0.839418416275627,,-1.094601444167924,,
,2744.0,646.0,1588.0,492.0,2424.0,2431.0,1967.0,,,,-0.576442084443532,-2.88485564937116,-0.838022921995605,,-1.015600985807519,,
,2744.0,648.0,1590.0,490.0,2429.0,2419.0,1955.0,,,,-0.576126052888923,-2.88498611759019,-0.838696452247843,,-0.9280417071434531,,
,2743.0,648.0,1587.0,490.0,2429.0,2428.0,1957.0,,,,-0.575834922674368,-2.88485379783876,-0.838512798155408,,-0.8329196316805729,,
,2747.0,647.0,1586.0,491.0,2429.0,2426.0,1963.0,,,,-0.575779008177628,-2.8846611000844,-0.836943440610867,,-0.7311675459129333,,
,2747.0,648.0,1591.0,493.0,2429.0,2418.0,1969.0,,,,-0.575662771733199,-2.88490456629179,-0.83761688819494,,-0.6235565452091061,,
,2747.0,649.0,1591.0,493.0,2430.0,2426.0,1967.0,,,,-0.575444183338817,-2.88486186116219,-0.837570102920272,,-0.510608559968868,,
,2744.0,646.0,1588.0,492.0,2425.0,2412.0,1963.0,,,,-0.576076917546349,-2.88494304601294,-0.838275601904912,,-0.3925428760067576,,
,2749.0,650.0,1592.0,492.0,2429.0,2415.0,1977.0,,,,-0.576188146303958,-2.88508110842192,-0.838064654139815,,-0.26927554107598095,,
,2750.0,649.0,1591.0,493.0,2428.0,2422.0,1982.0,,,,-0.576245112299199,-2.88502192367641,-0.83900343400925,,-0.14048295016750403,,
,2748.0,650.0,1592.0,494.0,2427.0,2420.0,1978.0,,,,-0.576441585287008,-2.88494845067308,-0.839030858558249,,-0.005731124218958928,,
,2749.0,647.0,1591.0,493.0,2423.0,2427.0,1974.0,,,,-0.576675527417828,-2.88487954063343,-0.838556564841813,,0.13533839275613027,,
,2748.0,650.0,1590.0,494.0,2426.0,2425.0,1977.0,,,,-0.57639071971333,-2.88493537397686,-0.837808897796843,,0.28278521481932706,,
,2749.0,647.0,1589.0,494.0,2423.0,2428.0,1974.0,,,,-0.576616788988295,-2.88485047168307,-0.838193687065361,,0.4361369148522337,,
,2747.0,647.0,1592.0,493.0,2420.0,2421.0,1964.0,,,,-0.576339422606179,-2.88472328491333,-0.838833881574332,,0.5941785996568112,,
,2747.0,646.0,1590.0,493.0,2420.0,2405.0,1972.0,,,,-0.576091955503646,-2.8847957657456,-0.837908960090458,,0.7547984774028081,,
,2747.0,646.0,1591.0,492.0,2420.0,2432.0,1962.0,,,,-0.575806303200227,-2.88446779176915,-0.836703456391363,,0.9149180781766593,,
,2749.0,648.0,1592.0,494.0,2423.0,2428.0,1958.0,,,,-0.575911269199843,-2.88470014033588,-0.836203140041839,,1.0705266378251659,,
,2748.0,649.0,1592.0,493.0,2418.0,2420.0,1961.0,,,,-0.576253446761114,-2.88458769631432,-0.836253146661236,,1.2168268113662217,,
2025-06-30 21:53:35,2746.0,648.0,1592.0,494.0,2426.0,2418.0,1954.0,,,2025/06/30 09:53:35 PM,-0.576115249190953,-2.88437770147376,-0.837604137714145,,1.348485161640522,,
,2745.0,646.0,1588.0,490.0,2421.0,2426.0,1949.0,,,,-0.575885571742602,-2.88444737180789,-0.836763354452797,,1.4599676578368397,,
,2747.0,648.0,1591.0,493.0,2425.0,2429.0,1960.0,,,,-0.575633462751316,-2.88431411150281,-0.837350330064404,,1.5459294391684073,,
,2747.0,649.0,1592.0,492.0,2419.0,2428.0,1950.0,,,,-0.575073136620053,-2.88424282483176,-0.836376308294953,,1.6016207246062855,,
,2746.0,647.0,1591.0,492.0,2425.0,2426.0,1958.0,,,,-0.574738132707985,-2.88422752646627,-0.835779873199516,,1.6232678556654445,,
,2746.0,645.0,1590.0,492.0,2434.0,2424.0,1968.0,,,,-0.574157196492502,-2.88412182673979,-0.835635886354885,,1.6083903533961021,,
,2746.0,649.0,1591.0,493.0,2427.0,2430.0,1972.0,,,,-0.574003719722052,-2.88380802826946,-0.835710062150317,,1.5560213761550565,,
,2747.0,649.0,1592.0,491.0,2429.0,2420.0,1961.0,,,,-0.573721202903796,-2.88376736987264,-0.836441718923611,,1.4668095418089726,,
,2749.0,647.0,1593.0,495.0,2430.0,2424.0,1958.0,,,,-0.573584277065534,-2.88379442736345,-0.835591012252099,,1.3429936799306006,,
,2750.0,648.0,1592.0,490.0,2429.0,2425.0,1943.0,,,,-0.573730503654268,-2.88359844080512,-0.834475195822028,,1.1882568051042885,,
,2751.0,646.0,1593.0,493.0,2430.0,2434.0,1951.0,,,,-0.574108973595048,-2.88369455784536,-0.835156051376709,,1.0074788318439654,,
,2751.0,649.0,1592.0,495.0,2433.0,2432.0,1966.0,,,,-0.57339730488653,-2.88354560066988,-0.835143959714321,,0.8064169306774458,,
,2751.0,648.0,1594.0,494.0,2431.0,2427.0,1968.0,,,,-0.572943459042874,-2.88358805029976,-0.835400332382631,,0.5913468880323307,,
,2754.0,650.0,1593.0,492.0,2431.0,2427.0,1952.0,,,,-0.572325553559203,-2.88375938668241,-0.833562124391068,,0.36869868115477966,,
,2754.0,648.0,1595.0,492.0,2427.0,2424.0,1960.0,,,,-0.572061807185165,-2.88342353909425,-0.833538430411996,,0.1447157306756237,,
,2755.0,650.0,1598.0,496.0,2422.0,2424.0,1960.0,,,,-0.571882293560959,-2.88361739766864,-0.833718990446255,,-0.07483885434714549,,
,2757.0,649.0,1596.0,494.0,2426.0,2424.0,1961.0,,,,-0.571577994989081,-2.88347876176508,-0.833534953905499,,-0.2849130773120855,,
,2760.0,649.0,1597.0,495.0,2429.0,2435.0,1960.0,,,,-0.571409112763867,-2.88348316238628,-0.833985427607453,,-0.4813254284522828,,
,2759.0,649.0,1597.0,493.0,2424.0,2430.0,1960.0,,,,-0.571087939726482,-2.88319745023568,-0.833096018453622,,-0.6608511908801633,,
,2762.0,651.0,1598.0,496.0,2426.0,2433.0,1949.0,,,,-0.571151953009881,-2.88326517972654,-0.831944468742522,,-0.8212397186250802,,
,2766.0,654.0,1599.0,497.0,2421.0,2427.0,1955.0,,,,-0.570985551627574,-2.88319171517102,-0.833625870598391,,-0.9611709504074665,,
,2766.0,653.0,1600.0,497.0,2417.0,2431.0,1955.0,,,,-0.570940936567604,-2.8831425898671,-0.833064887009612,,-1.0801619716509758,,
,2765.0,652.0,1602.0,494.0,2419.0,2429.0,1952.0,,,,-0.57103620411821,-2.88297266563683,-0.834009343206464,,-1.1784352887098897,,
,2768.0,652.0,1599.0,494.0,2419.0,2447.0,1950.0,,,,-0.570827481894032,-2.88309051243321,-0.833310240819593,,-1.25675997772836,,
,2772.0,653.0,1602.0,498.0,2418.0,2436.0,1957.0,,,,-0.570887246098571,-2.88321374063536,-0.833768462214782,,-1.3162757686971551,,
,2772.0,656.0,1604.0,498.0,2418.0,2427.0,1960.0,,,,-0.571070924665155,-2.88310945821538,-0.833373367407586,,-1.3583093654691125,,
,2771.0,654.0,1604.0,500.0,2425.0,2413.0,1968.0,,,,-0.571133993365912,-2.88296133167387,-0.832566488040043,,-1.3841925451654327,,
,2773.0,652.0,1601.0,498.0,2411.0,2428.0,1952.0,,,,-0.570998620864156,-2.88310278759502,-0.834258125274294,,-1.3950927664051744,,
,2775.0,654.0,1606.0,497.0,2423.0,2430.0,1950.0,,,,-0.570913219739272,-2.88309345722367,-0.833434227751242,,-1.3918683842639987,,
,2779.0,656.0,1606.0,502.0,2418.0,2437.0,1953.0,,,,-0.571609492033589,-2.88336769452493,-0.834759948895396,,-1.3749611389049468,,
,2777.0,656.0,1606.0,499.0,2413.0,2429.0,1954.0,,,,-0.572382407214754,-2.88355836522048,-0.834758296106095,,-1.3443376453267544,,
,2778.0,655.0,1607.0,500.0,2424.0,2420.0,1961.0,,,,-0.573460282938644,-2.88366082299121,-0.835424447224213,,-1.2994889301590855,,
,2780.0,658.0,1608.0,502.0,2429.0,2432.0,1969.0,,,,-0.574392686802326,-2.88427669845099,-0.836654571931067,,-1.239492838854702,,
,2782.0,657.0,1608.0,503.0,2428.0,2433.0,1954.0,,,,-0.575851093975296,-2.8848404310256,-0.838776005543425,,-1.1631388460491563,,
,2783.0,658.0,1608.0,502.0,2431.0,2436.0,1947.0,,,,-0.578010323192738,-2.88541285833211,-0.839407965937578,,-1.0691090177568447,,
,2784.0,659.0,1610.0,499.0,2432.0,2439.0,1957.0,,,,-0.580924440376206,-2.88660841684878,-0.842699595159961,,-0.9562031885644839,,
,2785.0,655.0,1609.0,501.0,2426.0,2440.0,1949.0,,,,-0.583831261629745,-2.88757244200538,-0.845748913172532,,-0.8235913916213801,,
,2787.0,658.0,1612.0,503.0,2424.0,2422.0,1962.0,,,,-0.586937724614392,-2.88846944502672,-0.848921471793127,,-0.6710726205740246,,
,2790.0,657.0,1612.0,502.0,2426.0,2414.0,1970.0,,,,-0.589919628587604,-2.88934421332715,-0.851416976514213,,-0.49931626949483116,,
,2790.0,657.0,1613.0,503.0,2414.0,2437.0,1969.0,,,,-0.592320359908391,-2.89031569463767,-0.853076155840048,,-0.31006119234157836,,
,2791.0,657.0,1613.0,503.0,2417.0,2429.0,1965.0,,,,-0.594942985469556,-2.89134133110412,-0.856902380061256,,-0.10624766149271579,,
,2793.0,657.0,1613.0,503.0,2419.0,2428.0,1965.0,,,,-0.596722413703836,-2.89193056955051,-0.858299917626726,,0.1079396881146211,,
,2794.0,659.0,1615.0,503.0,2427.0,2427.0,1970.0,,,,-0.598391971390879,-2.89246025518712,-0.860102941333043,,0.3271340589813197,,
,2796.0,656.0,1614.0,505.0,2424.0,2423.0,1962.0,,,,-0.600125676374669,-2.89293290520285,-0.861235750857525,,0.5449613936751271,,
,2795.0,660.0,1614.0,505.0,2428.0,2422.0,1961.0,,,,-0.601871208678382,-2.89338372821765,-0.86203483201166,,0.7543250072939871,,
,2798.0,659.0,1615.0,505.0,2434.0,2434.0,1952.0,,,,-0.602843567918713,-2.89394063298781,-0.86316978978542,,0.9477855887417008,,
,2799.0,663.0,1617.0,506.0,2427.0,2428.0,1954.0,,,,-0.604035636156689,-2.89421732037808,-0.863932930513814,,1.1180111012260971,,
,2802.0,662.0,1618.0,505.0,2419.0,2429.0,1964.0,,,,-0.604809863733112,-2.89454921531535,-0.86479953980313,,1.258261417866925,,
,2801.0,660.0,1618.0,504.0,2427.0,2428.0,1973.0,,,,-0.605593085199106,-2.89471191120352,-0.864660949784206,,1.3628654015303443,,
,2804.0,663.0,1620.0,508.0,2419.0,2424.0,1970.0,,,,-0.605976137229038,-2.89487145711376,-0.86585687450258,,1.4276447027917727,,
,2805.0,664.0,1622.0,508.0,2421.0,2423.0,1968.0,,,,-0.605873501482628,-2.89503883463325,-0.866125693352205,,1.450239801164421,,
,2808.0,665.0,1620.0,506.0,2420.0,2423.0,1968.0,,,,-0.606131648758958,-2.89459105049953,-0.86413876561728,,1.4303005363233263,,
,2806.0,664.0,1621.0,509.0,2423.0,2430.0,1981.0,,,,-0.606238903220767,-2.89496505413808,-0.865516504665038,,1.3695159498725542,,
,2809.0,663.0,1620.0,505.0,2426.0,2435.0,1969.0,,,,-0.606490252403568,-2.89513820334716,-0.865915731355531,,1.27147611479355,,
,2810.0,664.0,1623.0,508.0,2424.0,2450.0,1970.0,,,,-0.606929050583178,-2.8949803224094,-0.866626739509534,,1.1413795159640194,,
,2808.0,664.0,1622.0,505.0,2427.0,2445.0,1974.0,,,,-0.606843566003708,-2.89515249995924,-0.866745379279686,,0.9856194930279775,,
,2809.0,666.0,1621.0,507.0,2429.0,2434.0,1965.0,,,,-0.60692736214905,-2.89513640294733,-0.866400172515036,,0.811297893560722,,
,2802.0,663.0,1619.0,505.0,2423.0,2441.0,1951.0,,,,-0.606913157205654,-2.89508587215964,-0.866407703758221,,0.6257204879512475,,
,2798.0,662.0,1619.0,507.0,2424.0,2435.0,1961.0,,,,-0.606540419305037,-2.89492807430133,-0.865901728274835,,0.4359263047394101,,
,2793.0,661.0,1616.0,506.0,2429.0,2436.0,1960.0,,,,-0.606895454958601,-2.89487046199684,-0.865392505575166,,0.24829324970324063,,
,2788.0,660.0,1614.0,504.0,2426.0,2416.0,1952.0,,,,-0.606540650081299,-2.89486351327045,-0.864988823694718,,0.0682476872382626,,
,2780.0,656.0,1609.0,502.0,2423.0,2409.0,1963.0,,,,-0.606301246651939,-2.89512860131539,-0.866023877907577,,-0.09991086044716802,,
,2775.0,656.0,1608.0,503.0,2420.0,2411.0,1967.0,,,,-0.606275780219134,-2.89497256058122,-0.865428597826009,,-0.25307398982918494,,
,2767.0,654.0,1607.0,501.0,2420.0,2428.0,1975.0,,,,-0.60588462858408,-2.89477068895547,-0.865295467058788,,-0.38929326197708103,,
,2762.0,651.0,1602.0,499.0,2415.0,2425.0,1976.0,,,,-0.605545913653266,-2.89449343209081,-0.865652394000199,,-0.5076758218670022,,
,2753.0,648.0,1601.0,497.0,2409.0,2428.0,1955.0,,,,-0.605263297754573,-2.89436232971065,-0.864283828086712,,-0.6082309989027693,,
,2747.0,647.0,1594.0,497.0,2406.0,2445.0,1971.0,,,,-0.604845388051723,-2.89445434540185,-0.864266519751872,,-0.6916905699040062,,
,2744.0,647.0,1595.0,498.0,2408.0,2436.0,1961.0,,,,-0.604443274096168,-2.89428396652892,-0.864170210017738,,-0.7593214474720937,,
,2740.0,644.0,1594.0,497.0,2413.0,2433.0,1969.0,,,,-0.603801214331844,-2.89388941170176,-0.863170215392075,,-0.8127441934923705,,
,2738.0,643.0,1592.0,495.0,2410.0,2442.0,1951.0,,,,-0.602854785049141,-2.8937419987062,-0.862253479658149,,-0.8537648928897036,,
,2735.0,644.0,1588.0,493.0,2420.0,2453.0,1972.0,,,,-0.60225639647447,-2.89346920065972,-0.862479206453125,,-0.8842227262559021,,
,2731.0,645.0,1590.0,494.0,2428.0,2443.0,1960.0,,,,-0.60141943785553,-2.89315770539303,-0.861355569131888,,-0.9058523027259976,,
,2732.0,645.0,1590.0,495.0,2429.0,2434.0,1963.0,,,,-0.601217635338364,-2.89274224375583,-0.860024889501281,,-0.920159198844833,,
,2731.0,643.0,1588.0,496.0,2427.0,2436.0,1951.0,,,,-0.600155965260223,-2.89286141222092,-0.860735084562868,,-0.9283089142317404,,
,2730.0,642.0,1588.0,492.0,2421.0,2441.0,1952.0,,,,-0.599784406970172,-2.89256141375304,-0.859775121951826,,-0.9310324234622359,,
,2732.0,642.0,1589.0,494.0,2426.0,2447.0,1965.0,,,,-0.599361686895053,-2.89249759059712,-0.859578425436489,,-0.928554260675851,,
,2731.0,642.0,1590.0,494.0,2421.0,2444.0,1951.0,,,,-0.599180682091609,-2.89234577043702,-0.859372155902484,,-0.9205505936813073,,
,2731.0,643.0,1590.0,494.0,2416.0,2442.0,1950.0,,,,-0.598862773396456,-2.89234654642542,-0.858813122864137,,-0.9061446370895587,,
,2728.0,641.0,1588.0,491.0,2416.0,2433.0,1965.0,,,,-0.598286230811823,-2.89201751772102,-0.85735822558942,,-0.8839451567666345,,
,2731.0,641.0,1589.0,492.0,2429.0,2441.0,1969.0,,,,-0.597801425672264,-2.89174903255565,-0.859004426711632,,-0.8521311422073368,,
,2729.0,642.0,1587.0,492.0,2424.0,2446.0,1969.0,,,,-0.597507801976612,-2.89136577436935,-0.856626702880336,,-0.8085824203355365,,
,2732.0,643.0,1587.0,494.0,2426.0,2442.0,1965.0,,,,-0.596827295110646,-2.89138738070917,-0.855122516011719,,-0.7510523879342831,,
,2731.0,643.0,1589.0,493.0,2419.0,2442.0,1951.0,,,,-0.596531494378733,-2.89105884838453,-0.856468527334941,,-0.677375296113424,,
,2733.0,643.0,1588.0,496.0,2422.0,2433.0,1961.0,,,,-0.595868297801579,-2.89074412299127,-0.855295224379433,,-0.5856966302896084,,
,2733.0,644.0,1591.0,496.0,2421.0,2429.0,1969.0,,,,-0.594983334745606,-2.89063122599655,-0.855796863664462,,-0.4747111620481663,,
,2734.0,644.0,1591.0,493.0,2420.0,2439.0,1966.0,,,,-0.594186295951354,-2.89037200667218,-0.854541319704049,,-0.3438896725042659,,
,2734.0,644.0,1589.0,493.0,2424.0,2439.0,1958.0,,,,-0.594398911654536,-2.89036938122154,-0.854452093904531,,-0.1936731705134365,,
,2734.0,643.0,1590.0,495.0,2421.0,2441.0,1972.0,,,,-0.593983429781159,-2.89025464938223,-0.853661434458383,,-0.025613788979754377,,
,2736.0,645.0,1591.0,495.0,2430.0,2441.0,1972.0,,,,-0.593214038516728,-2.88985779951987,-0.852376585570685,,0.15755510049371668,,
,2737.0,643.0,1592.0,496.0,2424.0,2436.0,1987.0,,,,-0.592733872909152,-2.88991347912095,-0.853188232880153,,0.3519312628090724,,
,2736.0,643.0,1591.0,493.0,2424.0,2431.0,1990.0,,,,-0.592493489477782,-2.88953688197152,-0.852190733886919,,0.5525432468757077,,
,2736.0,643.0,1591.0,495.0,2427.0,2428.0,1981.0,,,,-0.592275707293223,-2.88961619324626,-0.851349506320413,,0.7535350616487286,,
,2737.0,644.0,1591.0,496.0,2428.0,2427.0,1972.0,,,,-0.59208095209746,-2.88943030625135,-0.851189871881052,,0.9484270523199941,,
,2734.0,645.0,1588.0,494.0,2430.0,2430.0,1957.0,,,,-0.591726495005772,-2.88926834337388,-0.852584042822372,,1.130438132604335,,
,2734.0,644.0,1590.0,495.0,2432.0,2426.0,1962.0,,,,-0.591513052948229,-2.88916622479849,-0.850626999226758,,1.2928491164256835,,
,2735.0,644.0,1588.0,492.0,2424.0,2447.0,1969.0,,,,-0.591285557596874,-2.8891295936566,-0.852958146434172,,1.4293822803241754,,
,2732.0,642.0,1589.0,492.0,2421.0,2437.0,1965.0,,,,-0.590973949285083,-2.88905648259631,-0.851175047135128,,1.5345689594014371,,
,2733.0,643.0,1589.0,497.0,2419.0,2416.0,1969.0,,,,-0.590723920345493,-2.88908499640219,-0.851031162464789,,1.6040757172478253,,
,2734.0,642.0,1588.0,495.0,2421.0,2426.0,1971.0,,,,-0.590944486257433,-2.88927786750293,-0.851651750209991,,1.634961379806617,,
,2734.0,645.0,1587.0,496.0,2420.0,2427.0,1971.0,,,,-0.590766589293136,-2.88898575531935,-0.851556361351893,,1.6258426768466165,,
,2730.0,640.0,1585.0,493.0,2420.0,2439.0,1979.0,,,,-0.591421794821867,-2.88916577213668,-0.850272714162943,,1.5769552204555857,,
,2731.0,642.0,1587.0,491.0,2423.0,2442.0,1965.0,,,,-0.591829652481982,-2.88941528456484,-0.850075708446215,,1.490107726581336,,
,2733.0,643.0,1590.0,495.0,2428.0,2437.0,1962.0,,,,-0.592063028887091,-2.88950438504935,-0.851884230215485,,1.3685386361650085,,
,2732.0,641.0,1586.0,492.0,2426.0,2434.0,1966.0,,,,-0.592490214936129,-2.88942701332779,-0.851915410516646,,1.216693522929519,,
,2732.0,646.0,1590.0,495.0,2420.0,2448.0,1966.0,,,,-0.5934374251005,-2.88984812280943,-0.852166024015708,,1.03994746616125,,
,2733.0,642.0,1590.0,493.0,2425.0,2443.0,1970.0,,,,-0.595209896735383,-2.89011246452919,-0.852488509344673,,0.8442984692909009,,
,2734.0,643.0,1589.0,497.0,2432.0,2443.0,1965.0,,,,-0.597736402414503,-2.89105491582133,-0.854012351773205,,0.6360564861761382,,
,2737.0,644.0,1591.0,495.0,2433.0,2439.0,1962.0,,,,-0.601026679185858,-2.89189412210282,-0.855650728168992,,0.4215487048180253,,
,2737.0,646.0,1591.0,494.0,2432.0,2431.0,1968.0,,,,-0.604628921067795,-2.89300614157712,-0.857817126087436,,0.20685654387710667,,
,2736.0,641.0,1588.0,495.0,2427.0,2431.0,1966.0,,,,-0.607783309973383,-2.89406779548119,-0.859925870968078,,-0.00240579121555444,,
,2741.0,647.0,1591.0,494.0,2431.0,2435.0,1961.0,,,,-0.61005138927678,-2.89464599948514,-0.861613129220177,,-0.20126674021406796,,
,2742.0,646.0,1592.0,497.0,2431.0,2439.0,1963.0,,,,-0.611645672720269,-2.89510052909287,-0.862013147762865,,-0.3855269043143738,,
,2741.0,645.0,1594.0,497.0,2427.0,2436.0,1969.0,,,,-0.61294479198681,-2.89545652793269,-0.86418372267268,,-0.5518457059993644,,
,2744.0,644.0,1593.0,493.0,2427.0,2444.0,1969.0,,,,-0.612857086774255,-2.89555616403985,-0.864517858831785,,-0.697789089366689,,
,2744.0,648.0,1595.0,496.0,2427.0,2434.0,1974.0,,,,-0.612830151647653,-2.89557398562662,-0.86433015587176,,-0.8218410164933153,,
,2744.0,645.0,1592.0,493.0,2433.0,2440.0,1949.0,,,,-0.61249342692726,-2.89562892206648,-0.864812977226873,,-0.9233794072970954,,
,2747.0,647.0,1594.0,495.0,2426.0,2431.0,1951.0,,,,-0.612112664338649,-2.89542465036351,-0.863709543826422,,-1.0026156147453136,,
