TimeLabel,MEAS1_PPG1,MEAS1_PPG2,MEAS1_PPG3,MEAS1_PPG4,ACCX,ACCY,ACCZ,HR_timestamp,HR_value,radar_timestamp,phase_rx0,phase_rx1,phase_rx2,timestep,n_process,original_rate,calculated_rate
2025-07-23 17:07:01,5841.0,694.0,5858.0,1046.0,-92.0,1856.0,3523.0,2025-07-23 17:07:20,79.0,2025/07/23 05:07:01 PM,-0.285453424180965,-2.73458859713203,-0.47411006326682,2025/07/23 05:07:01 PM,3.1171184445158673,6.25,18.09136137494346
,5842.0,693.0,5859.0,1049.0,-82.0,1868.0,3515.0,2025-07-23 17:07:21,80.0,,-0.285261402934798,-2.73470818925367,-0.473295742238921,2025/07/23 05:07:11 PM,3.163586806972428,16.74808120727539,20.050956303224908
,5843.0,696.0,5858.0,1046.0,-71.0,1872.0,3511.0,2025-07-23 17:07:22,80.0,,-0.285413234755359,-2.73468874201081,-0.473776723928557,2025/07/23 05:07:21 PM,3.153856670273588,19.39655303955078,21.377274133228358
,5839.0,692.0,5857.0,1044.0,-73.0,1879.0,3515.0,2025-07-23 17:07:23,80.0,,-0.285399563181718,-2.73470751584314,-0.473612626688463,2025/07/23 05:07:31 PM,3.0866026596825162,19.9115047454834,21.21682020636232
,5837.0,694.0,5854.0,1042.0,-87.0,1860.0,3508.0,2025-07-23 17:07:24,81.0,,-0.285355945554164,-2.73450980147294,-0.474561090992692,2025/07/23 05:07:41 PM,2.962515977128487,21.310182571411133,20.5402711323764
,5836.0,692.0,5848.0,1039.0,-92.0,1860.0,3513.0,2025-07-23 17:07:25,82.0,,-0.285318874619966,-2.73456255912922,-0.474152439400093,2025/07/23 05:07:51 PM,2.7844735834222756,21.037868499755856,22.249596808420332
,5833.0,693.0,5845.0,1039.0,-91.0,1859.0,3532.0,2025-07-23 17:07:26,82.0,,-0.28533452869207,-2.7345450705477,-0.473642045579151,2025/07/23 05:08:01 PM,2.5575547968671066,21.55172538757324,23.11492281303604
,5826.0,692.0,5841.0,1034.0,-88.0,1848.0,3526.0,2025-07-23 17:07:27,83.0,,-0.285194065413886,-2.7343701656757,-0.474833455941284,2025/07/23 05:08:11 PM,2.288884288722572,22.01027107238769,23.782826338082383
,5822.0,693.0,5834.0,1031.0,-84.0,1827.0,3512.0,2025-07-23 17:07:28,83.0,,-0.285100446985085,-2.73449101092387,-0.473474669036813,2025/07/23 05:08:21 PM,1.9872996732750021,23.239437103271484,21.71644880818597
,5820.0,692.0,5828.0,1029.0,-85.0,1824.0,3533.0,2025-07-23 17:07:29,83.0,,-0.284945612004066,-2.73435950822777,-0.473555844874465,2025/07/23 05:08:31 PM,1.6628631842951034,23.076923370361328,20.930735930735935
,5819.0,691.0,5828.0,1029.0,-85.0,1860.0,3530.0,2025-07-23 17:07:30,82.0,,-0.285145441303422,-2.73429848192735,-0.47361478629431,2025/07/23 05:08:41 PM,1.326257499083668,22.12389373779297,23.468674182959894
,5813.0,691.0,5825.0,1028.0,-78.0,1864.0,3538.0,2025-07-23 17:07:31,81.0,,-0.285076854219839,-2.73415272850181,-0.473240744399209,2025/07/23 05:08:51 PM,0.9881223232761489,21.613832473754883,22.242572242572255
,5813.0,693.0,5822.0,1027.0,-85.0,1846.0,3520.0,2025-07-23 17:07:32,81.0,,-0.284661553161045,-2.73417273562634,-0.473659178294556,2025/07/23 05:09:01 PM,0.6583976708498193,22.25519180297852,22.241296439409627
,5812.0,689.0,5817.0,1025.0,-79.0,1860.0,3512.0,2025-07-23 17:07:33,80.0,,-0.284485978501676,-2.73398939055871,-0.473483318056426,2025/07/23 05:09:11 PM,0.3457397102458602,22.66483497619629,21.866573454509172
,5808.0,690.0,5819.0,1026.0,-82.0,1863.0,3523.0,2025-07-23 17:07:34,78.0,,-0.28456264081939,-2.73375018653773,-0.473152777105182,2025/07/23 05:09:21 PM,0.05706543539601795,22.07505416870117,21.95696598148814
,5809.0,690.0,5813.0,1024.0,-78.0,1855.0,3512.0,2025-07-23 17:07:35,77.0,,-0.284438976063835,-2.73385504764151,-0.472704715773441,2025/07/23 05:09:31 PM,-0.2027347057716015,21.723388671875,21.871496747576053
,5806.0,690.0,5811.0,1022.0,-83.0,1851.0,3515.0,2025-07-23 17:07:36,77.0,,-0.284352150609603,-2.73375083871929,-0.472520149681505,2025/07/23 05:09:41 PM,-0.43089825035031193,22.01467704772949,21.44249512670564
,5805.0,688.0,5812.0,1022.0,-75.0,1886.0,3528.0,2025-07-23 17:07:37,76.0,,-0.284466167976505,-2.73375075839266,-0.472199775491053,2025/07/23 05:09:51 PM,-0.6267097530647685,21.52080345153809,21.38953152111047
,5802.0,687.0,5809.0,1022.0,-77.0,1871.0,3511.0,2025-07-23 17:07:38,73.0,,-0.284536544462156,-2.73382685923282,-0.471349104737621,,-0.7912598848266176,,
,5801.0,690.0,5809.0,1021.0,-82.0,1860.0,3531.0,2025-07-23 17:07:39,73.0,,-0.284305767967857,-2.73383863752778,-0.471763626065012,,-0.9270816701994309,,
,5799.0,690.0,5805.0,1020.0,-83.0,1855.0,3532.0,2025-07-23 17:07:40,73.0,,-0.284388189182746,-2.73343884365759,-0.472537124986471,,-1.0377103033309822,,
,5800.0,687.0,5804.0,1020.0,-75.0,1838.0,3527.0,2025-07-23 17:07:41,72.0,,-0.284210785884809,-2.73372007937556,-0.47186654341471,,-1.1272168608688151,,
,5798.0,687.0,5804.0,1018.0,-74.0,1863.0,3514.0,2025-07-23 17:07:42,72.0,,-0.284317684167777,-2.73348375285848,-0.471574455741775,,-1.1997648672617924,,
,5801.0,690.0,5805.0,1020.0,-82.0,1850.0,3521.0,2025-07-23 17:07:43,72.0,,-0.283961915260464,-2.73349893713196,-0.472213899927073,,-1.2592326437903256,,
,5801.0,688.0,5805.0,1020.0,-80.0,1854.0,3535.0,2025-07-23 17:07:44,72.0,,-0.28410554539861,-2.73347409075546,-0.471185481390046,,-1.308934369424995,,
,5798.0,689.0,5802.0,1019.0,-92.0,1849.0,3542.0,2025-07-23 17:07:45,72.0,,-0.284263064483975,-2.73346692271325,-0.471616130144976,,-1.3514595065734627,,
,5797.0,689.0,5800.0,1016.0,-85.0,1844.0,3547.0,2025-07-23 17:07:46,72.0,,-0.284020301346018,-2.73342865979158,-0.472190364380288,,-1.3886346523388233,,
,5798.0,690.0,5801.0,1018.0,-84.0,1853.0,3541.0,2025-07-23 17:07:47,72.0,,-0.284038842841688,-2.7334372423684,-0.471043806510376,,-1.421595513737957,,
,5798.0,691.0,5802.0,1020.0,-86.0,1838.0,3544.0,2025-07-23 17:07:48,72.0,,-0.284037493023097,-2.73317628649357,-0.471851355969089,,-1.4509418568427523,,
,5798.0,687.0,5801.0,1019.0,-91.0,1846.0,3518.0,2025-07-23 17:07:49,71.0,,-0.284005554279836,-2.73314834556923,-0.471335771933424,,-1.4769376295613312,,
,5794.0,687.0,5798.0,1017.0,-85.0,1841.0,3542.0,2025-07-23 17:07:50,71.0,,-0.284043134175475,-2.73314539650754,-0.470677228310235,,-1.4997142432205193,,
,5796.0,688.0,5801.0,1022.0,-86.0,1846.0,3533.0,2025-07-23 17:07:51,71.0,,-0.283951770957427,-2.73318115422251,-0.470665265723329,,-1.5194380410615138,,
,5798.0,690.0,5798.0,1018.0,-93.0,1839.0,3519.0,2025-07-23 17:07:52,71.0,,-0.283885653582651,-2.73322037306951,-0.470447912963078,,-1.536412292159211,,
,5799.0,687.0,5796.0,1019.0,-93.0,1845.0,3511.0,2025-07-23 17:07:53,70.0,,-0.283842853343723,-2.73312468159273,-0.47049376593771,,-1.5510973312288876,,
,5795.0,689.0,5799.0,1016.0,-89.0,1867.0,3512.0,2025-07-23 17:07:54,70.0,,-0.283844446394532,-2.73309315926668,-0.470079644400747,,-1.5640471038196875,,
,5797.0,684.0,5797.0,1018.0,-85.0,1861.0,3531.0,2025-07-23 17:07:55,70.0,,-0.283757368120297,-2.73312489770405,-0.470158932821149,,-1.5757741995801795,,
,5796.0,688.0,5797.0,1018.0,-76.0,1855.0,3546.0,2025-07-23 17:07:56,69.0,,-0.284306439476738,-2.73296088726769,-0.470546923831736,,-1.586566910029629,,
,5797.0,691.0,5797.0,1022.0,-84.0,1851.0,3556.0,2025-07-23 17:07:57,69.0,,-0.2842193397023,-2.73285326463545,-0.470705634641183,,-1.5962897963722458,,
,5796.0,687.0,5797.0,1017.0,-69.0,1849.0,3537.0,2025-07-23 17:07:58,69.0,,-0.284088717524858,-2.73301185919273,-0.470021398897788,,-1.6042028624706808,,
,5793.0,686.0,5795.0,1015.0,-80.0,1846.0,3524.0,2025-07-23 17:07:59,69.0,,-0.283794130985763,-2.7331316354801,-0.470285645631743,,-1.608833289608539,,
,5796.0,688.0,5797.0,1015.0,-86.0,1869.0,3538.0,2025-07-23 17:08:00,69.0,,-0.283941769411359,-2.73292174904679,-0.47089846427713,,-1.6079279424857065,,
,5797.0,687.0,5796.0,1018.0,-78.0,1864.0,3522.0,2025-07-23 17:08:01,70.0,,-0.283646464754802,-2.73290919298561,-0.470036973537179,,-1.5985051091834401,,
,5795.0,688.0,5794.0,1017.0,-74.0,1858.0,3521.0,2025-07-23 17:08:02,72.0,,-0.283793503821989,-2.73318185592563,-0.471164522344782,,-1.5770111153833666,,
,5794.0,687.0,5796.0,1016.0,-81.0,1849.0,3526.0,2025-07-23 17:08:03,72.0,,-0.283594688156281,-2.73324285478203,-0.470092141926942,,-1.5395727814663227,,
,5792.0,687.0,5792.0,1016.0,-76.0,1857.0,3542.0,2025-07-23 17:08:04,72.0,,-0.28357656143606,-2.73288836306623,-0.47021159586842,,-1.482321878073722,,
,5795.0,686.0,5795.0,1017.0,-78.0,1850.0,3542.0,2025-07-23 17:08:05,72.0,,-0.283511911710923,-2.73278296719711,-0.470274493505419,,-1.4017551254532528,,
,5793.0,686.0,5789.0,1014.0,-74.0,1839.0,3531.0,2025-07-23 17:08:06,73.0,,-0.283796961537605,-2.73258028374567,-0.469941874980058,,-1.2950856038315341,,
,5793.0,686.0,5790.0,1017.0,-71.0,1841.0,3536.0,2025-07-23 17:08:07,73.0,,-0.283593341453266,-2.73268019434412,-0.470319878232812,,-1.1605409582112758,,
,5789.0,687.0,5790.0,1014.0,-83.0,1853.0,3529.0,2025-07-23 17:08:08,73.0,,-0.283629280378199,-2.73284560498687,-0.469841449198396,,-0.9975711882803617,,
,5793.0,689.0,5793.0,1015.0,-80.0,1846.0,3531.0,2025-07-23 17:08:09,73.0,,-0.283788907013636,-2.73300649129483,-0.469515859115876,,-0.8069426518174614,,
,5793.0,686.0,5790.0,1015.0,-75.0,1861.0,3524.0,2025-07-23 17:08:10,73.0,,-0.283520679158047,-2.73250730311894,-0.468862953300325,,-0.5907120165983553,,
,5790.0,686.0,5788.0,1015.0,-67.0,1866.0,3553.0,2025-07-23 17:08:11,73.0,,-0.283482474213336,-2.73251032930931,-0.469490720536505,,-0.35209071013684423,,
,5788.0,687.0,5787.0,1014.0,-79.0,1861.0,3544.0,2025-07-23 17:08:12,73.0,,-0.283277285002612,-2.73238918905784,-0.469941294551953,,-0.09522419399140536,,
,5789.0,686.0,5786.0,1016.0,-81.0,1846.0,3546.0,2025-07-23 17:08:13,74.0,,-0.283170539746178,-2.73241392963121,-0.469181030963366,,0.17508042707844138,,
,5792.0,688.0,5790.0,1013.0,-86.0,1837.0,3536.0,2025-07-23 17:08:14,74.0,,-0.283207064620806,-2.73245097946089,-0.469329713082744,,0.4536410001841726,,
,5793.0,689.0,5790.0,1016.0,-84.0,1847.0,3539.0,2025-07-23 17:08:15,74.0,,-0.282966095856544,-2.73238781942406,-0.469949913714739,,0.7351649320369306,,
,5789.0,684.0,5785.0,1014.0,-80.0,1871.0,3508.0,2025-07-23 17:08:16,74.0,,-0.28304789254875,-2.7324887243949,-0.46925739696625,,1.0144615574017206,,
,5790.0,687.0,5786.0,1019.0,-87.0,1863.0,3533.0,2025-07-23 17:08:17,74.0,,-0.282916019146913,-2.73243699249772,-0.46885610163536,,1.286581722233186,,
,5791.0,685.0,5787.0,1017.0,-83.0,1863.0,3538.0,2025-07-23 17:08:18,74.0,,-0.282995077001897,-2.7321735261141,-0.468308826162663,,1.5468764687808962,,
,5791.0,689.0,5784.0,1015.0,-79.0,1866.0,3524.0,2025-07-23 17:08:19,74.0,,-0.282878374255986,-2.73215613291147,-0.468694282257833,,1.7909807196335503,,
,5792.0,686.0,5784.0,1016.0,-79.0,1857.0,3520.0,2025-07-23 17:08:20,74.0,,-0.282961923151748,-2.73215516040859,-0.469054998815628,,2.0147419233482005,,
,5792.0,686.0,5786.0,1017.0,-89.0,1863.0,3541.0,2025-07-23 17:08:21,74.0,,-0.282917736162508,-2.73208154614376,-0.468260906010956,,2.2141255235640487,,
,5794.0,688.0,5788.0,1017.0,-86.0,1851.0,3530.0,2025-07-23 17:08:22,74.0,,-0.28282709763991,-2.73237533438087,-0.468663818903931,,2.3851360131041486,,
,5794.0,686.0,5785.0,1018.0,-85.0,1844.0,3521.0,2025-07-23 17:08:23,74.0,,-0.282809395715851,-2.7319866986832,-0.469236103925052,,2.523791719516264,,
,5792.0,685.0,5787.0,1017.0,-94.0,1833.0,3537.0,2025-07-23 17:08:24,74.0,,-0.282788548782095,-2.73224118974123,-0.467759687213098,,2.626182512519514,,
,5794.0,687.0,5789.0,1019.0,-87.0,1849.0,3542.0,2025-07-23 17:08:25,75.0,,-0.282730424677701,-2.73225160510565,-0.467407974786269,,2.6886239011938664,,
,5797.0,687.0,5787.0,1017.0,-78.0,1859.0,3539.0,2025-07-23 17:08:26,76.0,,-0.282562261505429,-2.7320542351019,-0.468548027934879,,2.707901890322643,,
,5795.0,689.0,5789.0,1021.0,-85.0,1857.0,3544.0,2025-07-23 17:08:27,76.0,,-0.282490039292673,-2.73186220466014,-0.467981055720196,,2.6815843365430427,,
,5798.0,688.0,5793.0,1021.0,-77.0,1867.0,3547.0,2025-07-23 17:08:28,76.0,,-0.282488595761846,-2.73200794689004,-0.467757044750616,,2.6083595803106587,,
,5796.0,685.0,5792.0,1018.0,-77.0,1862.0,3524.0,2025-07-23 17:08:29,76.0,,-0.282448520372693,-2.73203442128585,-0.468476825278473,,2.488354025028029,,
,5798.0,686.0,5793.0,1022.0,-77.0,1856.0,3532.0,2025-07-23 17:08:30,76.0,,-0.282891209548855,-2.73230309953027,-0.469591416174769,,2.323378371389962,,
,5802.0,685.0,5793.0,1020.0,-90.0,1844.0,3545.0,2025-07-23 17:08:31,76.0,,-0.283024088757359,-2.73269550636189,-0.469872118384066,,2.117057745175773,,
,5802.0,687.0,5793.0,1023.0,-88.0,1840.0,3534.0,2025-07-23 17:08:32,76.0,,-0.283558854675346,-2.73303995148663,-0.470759350568287,,1.8748132621165456,,
,5800.0,688.0,5796.0,1022.0,-77.0,1849.0,3514.0,2025-07-23 17:08:33,76.0,,-0.284093022160976,-2.73348288215294,-0.471382519145056,,1.6036799434341442,,
,5801.0,687.0,5795.0,1021.0,-80.0,1853.0,3521.0,2025-07-23 17:08:34,76.0,,-0.284451629969413,-2.73374382276596,-0.472681672868851,,1.3119659956898106,,
,5803.0,687.0,5797.0,1023.0,-69.0,1838.0,3525.0,2025-07-23 17:08:35,77.0,,-0.28496389732412,-2.73423356782961,-0.473836828728833,,1.0087787065825693,,
,5803.0,690.0,5798.0,1024.0,-83.0,1856.0,3540.0,2025-07-23 17:08:36,77.0,,-0.285332158438287,-2.7347959733652,-0.474621928139964,,0.7034599069529566,,
,5804.0,687.0,5799.0,1021.0,-89.0,1848.0,3532.0,2025-07-23 17:08:37,77.0,,-0.285746194939371,-2.73496934401348,-0.475365307687416,,0.40498647965306817,,
,5804.0,685.0,5801.0,1024.0,-88.0,1855.0,3531.0,2025-07-23 17:08:38,77.0,,-0.286176725574118,-2.73523662679145,-0.476170264736878,,0.12139661105640483,,
,5804.0,691.0,5801.0,1025.0,-80.0,1858.0,3518.0,2025-07-23 17:08:39,77.0,,-0.286647145792582,-2.73568473777055,-0.4769309139436,,-0.14070053748385744,,
,5806.0,686.0,5802.0,1026.0,-81.0,1860.0,3520.0,2025-07-23 17:08:40,77.0,,-0.286547261188038,-2.73580196790169,-0.477903922350282,,-0.37648456761092064,,
,5807.0,690.0,5806.0,1028.0,-81.0,1860.0,3524.0,2025-07-23 17:08:41,76.0,,-0.286872084510889,-2.73597952267216,-0.477072196598265,,-0.5831217519904457,,
,5808.0,687.0,5807.0,1026.0,-81.0,1830.0,3520.0,2025-07-23 17:08:42,76.0,,-0.286983093138601,-2.73600268619772,-0.477265999857969,,-0.7597885507192952,,
,5812.0,689.0,5808.0,1028.0,-79.0,1863.0,3524.0,2025-07-23 17:08:43,75.0,,-0.287094878635101,-2.73607697500683,-0.477926231108938,,-0.9075268886366764,,
,5813.0,692.0,5810.0,1032.0,-78.0,1859.0,3552.0,2025-07-23 17:08:44,75.0,,-0.287015397238515,-2.73589878341769,-0.477576916527531,,-1.0289538360005985,,
,5811.0,689.0,5810.0,1029.0,-81.0,1853.0,3548.0,2025-07-23 17:08:45,75.0,,-0.286817565137524,-2.73596741500983,-0.478013865662831,,-1.127861063050967,,
,5812.0,687.0,5812.0,1030.0,-83.0,1848.0,3520.0,2025-07-23 17:08:46,75.0,,-0.28692075770161,-2.73587451300194,-0.477199141373117,,-1.208747521594929,,
,5813.0,691.0,5814.0,1031.0,-90.0,1849.0,3523.0,2025-07-23 17:08:47,75.0,,-0.286724624943476,-2.73576306961882,-0.477199857181724,,-1.2763319054622002,,
,5811.0,691.0,5815.0,1032.0,-89.0,1859.0,3530.0,2025-07-23 17:08:48,75.0,,-0.286680983859454,-2.73579881860733,-0.477136444122685,,-1.3350898110470022,,
,5818.0,690.0,5817.0,1034.0,-88.0,1856.0,3543.0,2025-07-23 17:08:49,75.0,,-0.286828943465249,-2.73587058969622,-0.477330320465272,,-1.3888549340552854,,
,5814.0,691.0,5816.0,1031.0,-76.0,1848.0,3539.0,2025-07-23 17:08:50,75.0,,-0.286375343120821,-2.73544385949047,-0.476929898343782,,-1.4405150446927817,,
,5815.0,692.0,5820.0,1034.0,-83.0,1868.0,3506.0,2025-07-23 17:08:51,75.0,,-0.286281421846519,-2.73561613581547,-0.476231852208593,,-1.4918226694575194,,
,5818.0,689.0,5821.0,1034.0,-82.0,1846.0,3505.0,2025-07-23 17:08:52,75.0,,-0.286381939375438,-2.73553140026679,-0.477138091455032,,-1.54332802004096,,
,5819.0,690.0,5824.0,1035.0,-88.0,1846.0,3506.0,2025-07-23 17:08:53,74.0,,-0.286570918720348,-2.73564245309386,-0.475972472008691,,-1.5944285934587026,,
,5823.0,692.0,5828.0,1036.0,-92.0,1836.0,3511.0,2025-07-23 17:08:54,74.0,,-0.286454430624085,-2.73546710024328,-0.477603450029808,,-1.6435174393094114,,
,5822.0,690.0,5826.0,1032.0,-89.0,1853.0,3510.0,2025-07-23 17:08:55,73.0,,-0.286403686302977,-2.73546993346548,-0.477192511232722,,-1.6882023439346747,,
,5822.0,690.0,5828.0,1034.0,-93.0,1849.0,3517.0,2025-07-23 17:08:56,73.0,,-0.286549080199007,-2.73562424304113,-0.4765865691891,,-1.7255630718377648,,
,5821.0,691.0,5829.0,1037.0,-76.0,1838.0,3508.0,2025-07-23 17:08:57,74.0,,-0.286465910208289,-2.7354162889523,-0.476291434749734,,-1.7524142812605805,,
,5821.0,692.0,5836.0,1036.0,-74.0,1840.0,3508.0,2025-07-23 17:08:58,74.0,,-0.286627755301986,-2.73529990545525,-0.47624159556948,,-1.765547157286688,,
,5823.0,693.0,5832.0,1037.0,-78.0,1836.0,3530.0,2025-07-23 17:08:59,74.0,,-0.286414514672317,-2.73536958821964,-0.47679981598706,,-1.7619312824267725,,
,5824.0,690.0,5834.0,1035.0,-84.0,1838.0,3524.0,2025-07-23 17:09:00,75.0,,-0.286458692932537,-2.73530949768824,-0.476016857410657,,-1.7388675916928753,,
,5827.0,693.0,5840.0,1039.0,-86.0,1878.0,3499.0,2025-07-23 17:09:01,75.0,,-0.286298890172548,-2.73544927065981,-0.476204075400515,,-1.6940917665406774,,
,5826.0,692.0,5842.0,1040.0,-83.0,1866.0,3514.0,2025-07-23 17:09:02,75.0,,-0.286310040285206,-2.73540395860742,-0.476321855098515,,-1.6258341702936248,,
,5831.0,692.0,5845.0,1041.0,-89.0,1850.0,3536.0,2025-07-23 17:09:03,76.0,,-0.286286583066474,-2.73528783584885,-0.476154219827442,,-1.5328469901855608,,
,5828.0,692.0,5845.0,1040.0,-81.0,1840.0,3532.0,2025-07-23 17:09:04,76.0,,-0.286319463231997,-2.73525203448147,-0.476357755230454,,-1.4144115391854748,,
,5832.0,693.0,5848.0,1042.0,-90.0,1834.0,3525.0,2025-07-23 17:09:05,76.0,,-0.28620364003463,-2.73522963295265,-0.476687914808696,,-1.2703388863269642,,
,5835.0,692.0,5852.0,1044.0,-87.0,1846.0,3511.0,2025-07-23 17:09:06,76.0,,-0.286304617600652,-2.73510309133997,-0.475835177608153,,-1.1009754805435674,,
,5833.0,695.0,5855.0,1043.0,-89.0,1836.0,3504.0,2025-07-23 17:09:07,76.0,,-0.286322752865865,-2.73534112390801,-0.476993752538428,,-0.9072224455643868,,
,5832.0,690.0,5856.0,1045.0,-84.0,1858.0,3528.0,2025-07-23 17:09:08,76.0,,-0.286386175780242,-2.73524650617054,-0.47608140027169,,-0.690572731715553,,
,5837.0,693.0,5857.0,1046.0,-80.0,1870.0,3512.0,2025-07-23 17:09:09,75.0,,-0.286384538728841,-2.73531061227153,-0.476196848409786,,-0.4531642848452812,,
,5836.0,694.0,5856.0,1046.0,-82.0,1868.0,3527.0,2025-07-23 17:09:10,75.0,,-0.286321444493959,-2.735245052816,-0.476092440411184,,-0.19784036719355708,,
,5837.0,693.0,5861.0,1046.0,-84.0,1858.0,3532.0,2025-07-23 17:09:11,75.0,,-0.286470155883034,-2.735282176732,-0.476559769482588,,0.07179836091874305,,
,5841.0,694.0,5865.0,1047.0,-75.0,1852.0,3514.0,2025-07-23 17:09:12,74.0,,-0.2865390485331,-2.73531443289012,-0.477614158967912,,0.3513693248590303,,
,5838.0,695.0,5868.0,1048.0,-89.0,1865.0,3538.0,2025-07-23 17:09:13,74.0,,-0.286590582059749,-2.73549288008404,-0.476273822046394,,0.6357301843169547,,
,5841.0,697.0,5871.0,1050.0,-81.0,1875.0,3512.0,2025-07-23 17:09:14,74.0,,-0.286679051358531,-2.73553070611997,-0.47721116955187,,0.9190622637400945,,
,5842.0,697.0,5874.0,1050.0,-74.0,1866.0,3517.0,2025-07-23 17:09:15,73.0,,-0.286876384764117,-2.73576777801211,-0.477667457540176,,1.1950224549870974,,
,5843.0,696.0,5879.0,1051.0,-75.0,1855.0,3513.0,2025-07-23 17:09:16,73.0,,-0.287150429882654,-2.73572693013301,-0.477698798399813,,1.456962162115721,,
,5842.0,696.0,5876.0,1048.0,-85.0,1858.0,3524.0,2025-07-23 17:09:17,73.0,,-0.287150724415732,-2.735700392857,-0.477290408595689,,1.6982033352110095,,
,5841.0,696.0,5877.0,1049.0,-92.0,1865.0,3544.0,2025-07-23 17:09:18,73.0,,-0.286565764361364,-2.73573679155478,-0.476798416973438,,1.9123539112882786,,
,5838.0,699.0,5879.0,1048.0,-82.0,1851.0,3523.0,2025-07-23 17:09:19,72.0,,-0.286720487335616,-2.73579627368022,-0.477305477163082,,2.093638562211974,,
,5838.0,695.0,5876.0,1046.0,-82.0,1853.0,3513.0,2025-07-23 17:09:20,72.0,,-0.286723670246821,-2.73565246990494,-0.478228204205412,,2.237216201264289,,
,5835.0,694.0,5872.0,1046.0,-80.0,1862.0,3518.0,2025-07-23 17:09:21,72.0,,-0.28691080341424,-2.73581931047931,-0.477572744817503,,2.339453976366572,,
,5833.0,695.0,5870.0,1042.0,-75.0,1861.0,3529.0,2025-07-23 17:09:22,72.0,,-0.286697090198828,-2.73590901005624,-0.477269362270993,,2.3981291361992407,,
,5830.0,694.0,5870.0,1039.0,-79.0,1843.0,3531.0,2025-07-23 17:09:23,72.0,,-0.286467856757744,-2.73560528062335,-0.477438128476588,,2.412535643356097,,
,5828.0,694.0,5865.0,1038.0,-73.0,1843.0,3520.0,2025-07-23 17:09:24,72.0,,-0.286568554493108,-2.73575436084136,-0.476593852538165,,2.3834818517474186,,
,5824.0,693.0,5862.0,1037.0,-78.0,1871.0,3508.0,2025-07-23 17:09:25,72.0,,-0.286331741258121,-2.73553447255005,-0.476936929929997,,2.3131784316814312,,
,5818.0,692.0,5859.0,1032.0,-81.0,1875.0,3519.0,2025-07-23 17:09:26,73.0,,-0.286508671935312,-2.73535839559112,-0.476221470117122,,2.2050303147985244,,
,5817.0,694.0,5857.0,1034.0,-83.0,1870.0,3538.0,2025-07-23 17:09:27,73.0,,-0.286231613182724,-2.73544462912634,-0.47661022890127,,2.063359747513455,,
2025-07-23 17:07:02,5817.0,693.0,5854.0,1031.0,-75.0,1852.0,3524.0,2025-07-23 17:09:28,73.0,2025/07/23 05:07:02 PM,-0.286370382700421,-2.73538234080871,-0.476902059917415,,1.8930961772971087,,
,5815.0,694.0,5854.0,1032.0,-80.0,1852.0,3523.0,2025-07-23 17:09:29,73.0,,-0.28602713917059,-2.73514265741078,-0.476751592951737,,1.699470441081468,,
,5811.0,692.0,5850.0,1027.0,-85.0,1867.0,3545.0,2025-07-23 17:09:30,73.0,,-0.286035250221318,-2.73521962986764,-0.476056867349555,,1.48774567496254,,
,5807.0,691.0,5852.0,1025.0,-78.0,1861.0,3542.0,2025-07-23 17:09:31,73.0,,-0.286138074093192,-2.7349694363373,-0.476085128635025,,1.2630075977387554,,
,5810.0,695.0,5852.0,1030.0,-82.0,1854.0,3531.0,2025-07-23 17:09:32,73.0,,-0.285803828230465,-2.73491123465381,-0.475491316927208,,1.0300250651116079,,
,5810.0,693.0,5851.0,1027.0,-79.0,1859.0,3531.0,2025-07-23 17:09:33,73.0,,-0.285697164066826,-2.73490179372561,-0.475349528945507,,0.7931802856794034,,
,5806.0,693.0,5847.0,1028.0,-76.0,1869.0,3534.0,2025-07-23 17:09:34,73.0,,-0.285634428894086,-2.73503367722332,-0.47464197851277,,0.5564582940432422,,
,5803.0,691.0,5846.0,1024.0,-79.0,1864.0,3525.0,2025-07-23 17:09:35,72.0,,-0.28567941640167,-2.73489387737999,-0.475320736434407,,0.32347807784657456,,
,5805.0,693.0,5849.0,1026.0,-76.0,1865.0,3537.0,2025-07-23 17:09:36,72.0,,-0.285457815208349,-2.73470721848492,-0.474208485146148,,0.09754362542323018,,
,5805.0,692.0,5851.0,1027.0,-73.0,1856.0,3514.0,2025-07-23 17:09:37,72.0,,-0.285390918744972,-2.7345098434872,-0.474755099147455,,-0.11830777785556,,
,5802.0,693.0,5849.0,1026.0,-78.0,1851.0,3520.0,2025-07-23 17:09:38,72.0,,-0.285476832449041,-2.73460255922029,-0.474952664050112,,-0.32128048815712584,,
,5804.0,692.0,5851.0,1026.0,-82.0,1858.0,3517.0,2025-07-23 17:09:39,72.0,,-0.28517916084574,-2.73447361577826,-0.474734062350898,,-0.5088339628293261,,
,5803.0,691.0,5855.0,1028.0,-89.0,1847.0,3523.0,2025-07-23 17:09:40,72.0,,-0.285190813580339,-2.73443076744686,-0.474319223439021,,-0.6787420956584024,,
,5803.0,693.0,5851.0,1026.0,-88.0,1855.0,3537.0,2025-07-23 17:09:41,71.0,,-0.285214788141101,-2.73461262422594,-0.474234897793462,,-0.8291958339515811,,
,5804.0,691.0,5852.0,1024.0,-83.0,1849.0,3530.0,2025-07-23 17:09:42,71.0,,-0.285180051607444,-2.73433015313832,-0.474300009604465,,-0.9589359244323041,,
,5805.0,694.0,5856.0,1023.0,-80.0,1848.0,3511.0,2025-07-23 17:09:43,71.0,,-0.285037966866565,-2.73419288466807,-0.473119994294477,,-1.0673935455795314,,
,5801.0,690.0,5854.0,1028.0,-76.0,1854.0,3547.0,2025-07-23 17:09:44,71.0,,-0.28505445878544,-2.73422270900681,-0.473627558653492,,-1.1548112261139272,,
,5804.0,693.0,5856.0,1028.0,-75.0,1861.0,3555.0,2025-07-23 17:09:45,71.0,,-0.284884560562564,-2.73402677762244,-0.473943011098119,,-1.2223163512711588,,
,5802.0,693.0,5856.0,1027.0,-77.0,1857.0,3549.0,2025-07-23 17:09:46,71.0,,-0.284840452130049,-2.73398974753489,-0.472966113604567,,-1.2719247650313086,,
,5805.0,695.0,5860.0,1024.0,-75.0,1846.0,3557.0,2025-07-23 17:09:47,71.0,,-0.284640374898296,-2.73396224015499,-0.472139152232166,,-1.3064610876474305,,
,5802.0,694.0,5860.0,1029.0,-77.0,1864.0,3527.0,2025-07-23 17:09:48,71.0,,-0.284908730515304,-2.73399293329574,-0.472995531140593,,-1.3293933167456597,,
,5805.0,693.0,5861.0,1027.0,-74.0,1848.0,3540.0,2025-07-23 17:09:49,71.0,,-0.284600424686262,-2.73386813037835,-0.472732168107881,,-1.3445901863637644,,
,5808.0,694.0,5865.0,1030.0,-77.0,1857.0,3538.0,2025-07-23 17:09:50,71.0,,-0.28463873315588,-2.73380141118391,-0.472616423232882,,-1.3560193140499814,,
,5806.0,692.0,5864.0,1028.0,-79.0,1855.0,3534.0,2025-07-23 17:09:51,72.0,,-0.284677761223587,-2.7337633234682,-0.472380460010718,,-1.3674115719723345,,
,5804.0,692.0,5863.0,1027.0,-77.0,1863.0,3531.0,2025-07-23 17:09:52,72.0,,-0.2843377462547,-2.73366330852295,-0.472263385962023,,-1.3819218999799907,,
,5805.0,694.0,5867.0,1029.0,-78.0,1872.0,3519.0,2025-07-23 17:09:53,73.0,,-0.284548039273278,-2.73358394422213,-0.471687203877669,,-1.401818687613902,,
,5807.0,694.0,5865.0,1030.0,-79.0,1854.0,3538.0,2025-07-23 17:09:54,73.0,,-0.284350026649579,-2.73348363808484,-0.472895796562275,,-1.4282327997109696,,
,5807.0,694.0,5866.0,1028.0,-82.0,1853.0,3530.0,2025-07-23 17:09:55,73.0,,-0.284238457727911,-2.73321537062816,-0.47204471746686,,-1.4609933046282582,,
,5804.0,693.0,5865.0,1029.0,-81.0,1856.0,3559.0,2025-07-23 17:09:56,73.0,,-0.284280979141378,-2.73328638034568,-0.472246993181774,,-1.4985700477170774,,
,5806.0,693.0,5867.0,1031.0,-76.0,1869.0,3542.0,2025-07-23 17:09:57,73.0,,-0.284089142501456,-2.73323646441233,-0.471751362061337,,-1.5381336091707791,,
,5804.0,694.0,5866.0,1031.0,-80.0,1861.0,3520.0,2025-07-23 17:09:58,73.0,,-0.284055601559595,-2.7333282049156,-0.471906959133865,,-1.5757314523188966,,
,5806.0,695.0,5867.0,1028.0,-84.0,1851.0,3528.0,2025-07-23 17:09:59,73.0,,-0.284274694730293,-2.73307607381646,-0.471184511829728,,-1.606566354614687,,
,5804.0,694.0,5868.0,1028.0,-83.0,1850.0,3518.0,2025-07-23 17:10:00,72.0,,-0.284307199669698,-2.73299795542917,-0.47188273542332,,-1.6253513871172467,,
,5804.0,692.0,5868.0,1029.0,-79.0,1855.0,3544.0,2025-07-23 17:10:01,72.0,,-0.284204356873436,-2.73291181710269,-0.471192302913163,,-1.626707038784798,,
,5804.0,696.0,5869.0,1028.0,-76.0,1857.0,3540.0,2025-07-23 17:10:02,72.0,,-0.28398919564617,-2.7329308379705,-0.471062258563864,,-1.6055623777171544,,
,5804.0,695.0,5868.0,1028.0,-82.0,1861.0,3538.0,2025-07-23 17:10:03,72.0,,-0.283881989944946,-2.73285385505277,-0.470971320936155,,-1.5575238872226802,,
,5806.0,696.0,5868.0,1027.0,-85.0,1858.0,3531.0,2025-07-23 17:10:04,71.0,,-0.283579222349753,-2.73269929349768,-0.470487649150594,,-1.4791818488290127,,
,5803.0,693.0,5864.0,1025.0,-87.0,1867.0,3532.0,2025-07-23 17:10:05,72.0,,-0.283643229169142,-2.7328929470019,-0.470341738146835,,-1.3683331580441507,,
,5805.0,694.0,5866.0,1028.0,-89.0,1862.0,3533.0,2025-07-23 17:10:06,72.0,,-0.283483704241781,-2.73262017085891,-0.470020382798159,,-1.2241096623195542,,
,5802.0,694.0,5871.0,1028.0,-86.0,1872.0,3549.0,2025-07-23 17:10:07,72.0,,-0.28361730867226,-2.73265182010094,-0.470406343760273,,-1.0470113929735816,,
,5803.0,695.0,5867.0,1028.0,-86.0,1869.0,3542.0,2025-07-23 17:10:08,72.0,,-0.283313820098088,-2.73265122186631,-0.470796518856443,,-0.8388536025363921,,
,5803.0,693.0,5866.0,1026.0,-89.0,1855.0,3527.0,2025-07-23 17:10:09,72.0,,-0.283295291127411,-2.73253137685412,-0.470397142064677,,-0.6026445342322991,,
,5802.0,692.0,5868.0,1026.0,-86.0,1861.0,3545.0,2025-07-23 17:10:10,72.0,,-0.283296825964457,-2.7323786197783,-0.47007827443696,,-0.34241656299157913,,
,5802.0,695.0,5868.0,1027.0,-83.0,1862.0,3525.0,2025-07-23 17:10:11,72.0,,-0.283255257105981,-2.73238068014341,-0.469417602351802,,-0.06303603412881045,,
,5806.0,698.0,5871.0,1030.0,-86.0,1857.0,3528.0,2025-07-23 17:10:12,72.0,,-0.283293445365623,-2.73237896967612,-0.468842144464684,,0.22998381615519103,,
,5803.0,695.0,5870.0,1028.0,-87.0,1871.0,3505.0,2025-07-23 17:10:13,72.0,,-0.282903479090805,-2.73239174211228,-0.469157222867852,,0.5306473606082691,,
,5804.0,694.0,5871.0,1028.0,-85.0,1865.0,3521.0,2025-07-23 17:10:14,72.0,,-0.283216360238569,-2.73234136720797,-0.469305744153841,,0.8326076123703554,,
,5804.0,692.0,5873.0,1032.0,-82.0,1862.0,3519.0,2025-07-23 17:10:15,71.0,,-0.283284527098012,-2.73250761915536,-0.470875196931726,,1.1292642121609249,,
,5807.0,695.0,5874.0,1030.0,-79.0,1854.0,3527.0,2025-07-23 17:10:16,71.0,,-0.283569251504882,-2.73257976231306,-0.471406087209838,,1.4138407710585768,,
,5806.0,696.0,5872.0,1029.0,-84.0,1857.0,3523.0,2025-07-23 17:10:17,70.0,,-0.283700145282587,-2.73272091582824,-0.471334862961401,,1.6794636328609112,,
,5806.0,692.0,5873.0,1030.0,-90.0,1870.0,3512.0,2025-07-23 17:10:18,70.0,,-0.283996766823994,-2.73342344718625,-0.471290001483262,,1.9192683818862206,,
,5808.0,694.0,5874.0,1029.0,-83.0,1858.0,3529.0,2025-07-23 17:10:19,70.0,,-0.284481594428029,-2.73366130609188,-0.472651691314999,,2.126557448759756,,
,5811.0,697.0,5879.0,1032.0,-83.0,1872.0,3523.0,,,,-0.284937430697492,-2.73403383268379,-0.474092958740693,,2.2950223539972563,,
,5809.0,693.0,5877.0,1030.0,-79.0,1865.0,3510.0,,,,-0.285369262085698,-2.73435016347691,-0.474208362172072,,2.4190298696327397,,
,5809.0,693.0,5878.0,1032.0,-75.0,1881.0,3528.0,,,,-0.285642875729271,-2.7347710367826,-0.474566058944174,,2.493955890616957,,
,5809.0,694.0,5880.0,1031.0,-77.0,1875.0,3533.0,,,,-0.285816582423195,-2.73473934101499,-0.474956445163544,,2.516537022251477,,
,5810.0,695.0,5880.0,1032.0,-80.0,1861.0,3521.0,,,,-0.286028853042046,-2.73537134458294,-0.476642864292489,,2.485200041092473,,
,5812.0,696.0,5884.0,1034.0,-74.0,1850.0,3526.0,,,,-0.28620741506766,-2.73522476300328,-0.476501520482066,,2.4003250532469713,,
,5814.0,695.0,5884.0,1032.0,-71.0,1849.0,3526.0,,,,-0.28646483862645,-2.73530861064015,-0.476909281302425,,2.264400233446166,,
,5813.0,693.0,5884.0,1034.0,-82.0,1867.0,3541.0,,,,-0.286273320769819,-2.73555739262965,-0.476749119006298,,2.0820344487137126,,
,5814.0,693.0,5883.0,1035.0,-82.0,1856.0,3528.0,,,,-0.286324416317511,-2.73517977807906,-0.47691521320192,,1.8598078741815451,,
,5815.0,695.0,5887.0,1035.0,-80.0,1857.0,3528.0,,,,-0.286220947761075,-2.73529034648227,-0.476279294847736,,1.605958241809646,,
,5817.0,695.0,5887.0,1037.0,-76.0,1856.0,3513.0,,,,-0.286240500438885,-2.73518045131995,-0.476064688658918,,1.3299196251632777,,
,5816.0,694.0,5890.0,1036.0,-77.0,1865.0,3512.0,,,,-0.286127602160427,-2.73515340211076,-0.477167233465795,,1.0417494191344991,,
,5817.0,696.0,5894.0,1038.0,-75.0,1861.0,3536.0,,,,-0.285951618693512,-2.73495403505446,-0.476315497258902,,0.7514948663270885,,
,5820.0,696.0,5896.0,1040.0,-77.0,1862.0,3535.0,,,,-0.285853260037136,-2.73504882244646,-0.474751788758782,,0.4685603277250881,,
,5823.0,697.0,5897.0,1041.0,-79.0,1864.0,3513.0,,,,-0.285693424100057,-2.73464910192233,-0.475485511663459,,0.20113813004576467,,
,5819.0,697.0,5895.0,1038.0,-88.0,1864.0,3518.0,,,,-0.285626201235395,-2.73451426502718,-0.475510627352384,,-0.044241646713126574,,
,5821.0,697.0,5898.0,1039.0,-81.0,1852.0,3525.0,,,,-0.285599427931473,-2.73459238583491,-0.475315774060722,,-0.2630023776780391,,
,5824.0,697.0,5899.0,1042.0,-74.0,1857.0,3522.0,,,,-0.285753261728588,-2.73441565571961,-0.475306584701467,,-0.4526330688473169,,
,5825.0,698.0,5904.0,1041.0,-84.0,1852.0,3513.0,,,,-0.285573739096441,-2.73457309312316,-0.474098121997971,,-0.6126225238893805,,
,5824.0,696.0,5901.0,1041.0,-83.0,1850.0,3524.0,,,,-0.285443495648178,-2.7346252655405,-0.474447783476113,,-0.744235439626535,,
,5825.0,695.0,5902.0,1042.0,-82.0,1856.0,3544.0,,,,-0.285432182791239,-2.73447251237267,-0.473899986165342,,-0.8501650825578448,,
,5826.0,700.0,5905.0,1042.0,-80.0,1858.0,3552.0,,,,-0.285314082568947,-2.7342662766522,-0.475536564448776,,-0.9341066750563706,,
,5829.0,698.0,5909.0,1044.0,-83.0,1862.0,3554.0,,,,-0.285255761334458,-2.73403706229192,-0.473947625863269,,-1.000299578930221,,
,5829.0,697.0,5910.0,1045.0,-83.0,1870.0,3534.0,,,,-0.285354130412553,-2.73409295040027,-0.474720273611145,,-1.0530850982581352,,
,5828.0,696.0,5910.0,1046.0,-78.0,1859.0,3542.0,,,,-0.285419444132313,-2.734161427094,-0.474182053438129,,-1.0965209305381072,,
,5830.0,696.0,5911.0,1043.0,-82.0,1870.0,3549.0,,,,-0.285234757653053,-2.73408122801458,-0.473117273334466,,-1.1340838571495104,,
,5833.0,698.0,5914.0,1048.0,-74.0,1865.0,3544.0,,,,-0.285122522907929,-2.73404939915397,-0.473025907657325,,-1.1684800732309502,,
,5832.0,698.0,5914.0,1046.0,-74.0,1860.0,3543.0,,,,-0.284893998817544,-2.73392617349361,-0.473982157825109,,-1.2015685448169893,,
,5829.0,697.0,5915.0,1046.0,-71.0,1865.0,3525.0,,,,-0.28482498473967,-2.73395523523023,-0.473262786376239,,-1.2343881622140083,,
,5833.0,699.0,5918.0,1045.0,-81.0,1874.0,3525.0,,,,-0.284690713294062,-2.73378446040891,-0.47402249581709,,-1.2672660101639142,,
,5836.0,698.0,5919.0,1048.0,-79.0,1863.0,3544.0,,,,-0.28484699958837,-2.73378170135128,-0.473138145355628,,-1.2999741263002114,,
,5836.0,699.0,5922.0,1050.0,-78.0,1859.0,3550.0,,,,-0.284510965892907,-2.73368366815583,-0.473981233051259,,-1.3318979391867956,,
,5835.0,699.0,5920.0,1049.0,-80.0,1862.0,3547.0,,,,-0.284517355872765,-2.73378741284764,-0.472887379464406,,-1.362182299337083,,
,5838.0,698.0,5924.0,1047.0,-85.0,1856.0,3540.0,,,,-0.284855398384492,-2.73375212655009,-0.472737108297176,,-1.3898298992894882,,
,5838.0,699.0,5928.0,1048.0,-80.0,1849.0,3530.0,,,,-0.284857327918133,-2.73364579578281,-0.473072911181709,,-1.4137395950139733,,
,5840.0,700.0,5929.0,1052.0,-78.0,1866.0,3537.0,,,,-0.28487258124527,-2.73407392845606,-0.472236104902977,,-1.4326858331641408,,
,5841.0,698.0,5929.0,1051.0,-83.0,1860.0,3530.0,,,,-0.284909309858906,-2.73391567752398,-0.473421161617455,,-1.4452526405503032,,
,5841.0,700.0,5930.0,1052.0,-79.0,1863.0,3540.0,,,,-0.285033426059777,-2.73427558565165,-0.473436383770142,,-1.4497448227177732,,
,5842.0,702.0,5934.0,1054.0,-78.0,1869.0,3546.0,,,,-0.285117237149403,-2.73409947319663,-0.47400887307289,,-1.4441041850557546,,
,5845.0,700.0,5935.0,1054.0,-86.0,1858.0,3534.0,,,,-0.285150093365703,-2.73423170842855,-0.473918631343916,,-1.4258592722353476,,
,5843.0,700.0,5934.0,1054.0,-85.0,1859.0,3530.0,,,,-0.285044826163383,-2.73431199893487,-0.474554482373579,,-1.3921334044209575,,
,5843.0,700.0,5933.0,1053.0,-87.0,1839.0,3526.0,,,,-0.28498664968438,-2.73420153258653,-0.47372986654266,,-1.3397283249304284,,
,5843.0,697.0,5934.0,1054.0,-87.0,1839.0,3528.0,,,,-0.285054990384712,-2.73424113578391,-0.474571700571079,,-1.265290598393148,,
,5846.0,700.0,5936.0,1051.0,-85.0,1848.0,3508.0,,,,-0.284894185737063,-2.73438199468639,-0.473304671431605,,-1.1655561708462947,,
,5841.0,699.0,5934.0,1050.0,-86.0,1850.0,3533.0,,,,-0.285082134132645,-2.73426144958249,-0.473930471642826,,-1.0376564247363915,,
,5840.0,702.0,5932.0,1051.0,-78.0,1858.0,3513.0,,,,-0.284937535514149,-2.73421214375707,-0.473885527742621,,-0.8794580042210666,,
,5835.0,698.0,5927.0,1047.0,-86.0,1864.0,3533.0,,,,-0.284990264130925,-2.73422058095387,-0.473866870491062,,-0.689900352258886,,
,5833.0,697.0,5923.0,1044.0,-84.0,1856.0,3545.0,,,,-0.284657733133491,-2.73429053045001,-0.473499800328632,,-0.4692911731386257,,
,5831.0,699.0,5918.0,1042.0,-86.0,1861.0,3551.0,,,,-0.284902112846023,-2.73413158966017,-0.473989463164473,,-0.21952227225453735,,
,5824.0,698.0,5915.0,1040.0,-84.0,1854.0,3538.0,,,,-0.284683048943476,-2.73394949744615,-0.473277110947726,,0.055823645309645925,,
,5825.0,696.0,5914.0,1040.0,-91.0,1822.0,3537.0,,,,-0.284708905138683,-2.73385690394879,-0.472900731725541,,0.3514924100241414,,
,5818.0,698.0,5908.0,1037.0,-86.0,1851.0,3531.0,,,,-0.284553843280652,-2.7336539872195,-0.47322856900474,,0.66070765901295,,
,5816.0,697.0,5905.0,1035.0,-87.0,1856.0,3522.0,,,,-0.28442972099767,-2.73388118118585,-0.472535903052547,,0.9754409476341959,,
,5815.0,696.0,5901.0,1033.0,-87.0,1857.0,3520.0,,,,-0.284233788692634,-2.73354419948108,-0.471962962158643,,1.2867833105913786,,
,5813.0,696.0,5901.0,1033.0,-85.0,1856.0,3524.0,,,,-0.284374910851325,-2.73359430003691,-0.472754378844562,,1.5853909554777026,,
,5809.0,692.0,5896.0,1030.0,-92.0,1860.0,3534.0,,,,-0.284345987304805,-2.73340027122817,-0.472354842061888,,1.861972273646131,,
,5810.0,693.0,5893.0,1031.0,-80.0,1857.0,3521.0,,,,-0.284272140319348,-2.73335881428318,-0.472226060024773,,2.1077802746834435,,
,5807.0,696.0,5893.0,1031.0,-77.0,1873.0,3502.0,,,,-0.284155436462618,-2.73341659626223,-0.472819209643429,,2.315073938862023,,
,5806.0,696.0,5893.0,1031.0,-74.0,1871.0,3500.0,,,,-0.283962993315933,-2.73318850418811,-0.471490088713737,,2.477513979257483,,
,5803.0,694.0,5890.0,1030.0,-73.0,1863.0,3492.0,,,,-0.283835820778916,-2.73316969118873,-0.471724482317444,,2.590463429981745,,
,5801.0,694.0,5887.0,1028.0,-75.0,1865.0,3524.0,,,,-0.283870857615291,-2.73300859905641,-0.471026510318305,,2.651171692482447,,
,5804.0,695.0,5890.0,1030.0,-76.0,1865.0,3535.0,,,,-0.28379358998578,-2.73286617701454,-0.47161142802617,,2.6588321017538723,,
,5801.0,695.0,5890.0,1030.0,-80.0,1861.0,3540.0,,,,-0.283608608410433,-2.73311444299488,-0.471129755870599,,2.6145165637142056,,
,5803.0,695.0,5890.0,1029.0,-78.0,1844.0,3532.0,,,,-0.28353302324322,-2.73284377207659,-0.470849445805548,,2.521003931050822,,
,5801.0,693.0,5887.0,1027.0,-79.0,1854.0,3547.0,,,,-0.283541477796774,-2.73249222964913,-0.4707790420826,,2.3825286008828797,,
,5803.0,695.0,5887.0,1029.0,-82.0,1865.0,3541.0,,,,-0.283670702336983,-2.73262274543837,-0.469730173172896,,2.2044803641018347,,
,5805.0,693.0,5888.0,1031.0,-90.0,1871.0,3535.0,,,,-0.28361817431052,-2.732523831351,-0.468925724320111,,1.993085759387434,,
,5802.0,694.0,5886.0,1028.0,-87.0,1870.0,3539.0,,,,-0.283552528161288,-2.73225309415154,-0.469897257141473,,1.7550965932190903,,
,5803.0,693.0,5886.0,1028.0,-81.0,1867.0,3505.0,,,,-0.283329929529601,-2.7322041473355,-0.468787370918225,,1.4975047293160644,,
,5800.0,694.0,5886.0,1028.0,-84.0,1873.0,3517.0,,,,-0.283131861402675,-2.73232522226048,-0.4699158665993,,1.2272950184935927,,
,5803.0,694.0,5888.0,1030.0,-81.0,1871.0,3515.0,,,,-0.283241989731482,-2.73221506559218,-0.469074120580483,,0.9512410845670257,,
,5801.0,695.0,5888.0,1031.0,-79.0,1862.0,3517.0,,,,-0.28292812289876,-2.73195583170849,-0.469701306600372,,0.6757422268038843,,
,5803.0,694.0,5886.0,1029.0,-74.0,1854.0,3531.0,,,,-0.282996361609646,-2.73224177499988,-0.468750412052472,,0.406694577263744,,
,5804.0,694.0,5886.0,1027.0,-71.0,1885.0,3520.0,,,,-0.282922592393161,-2.73210304708468,-0.469584726929867,,0.1493864270873934,,
,5804.0,693.0,5886.0,1030.0,-74.0,1856.0,3526.0,,,,-0.282859399334103,-2.73207614541204,-0.468429737694751,,-0.09159317418957207,,
,5802.0,695.0,5888.0,1031.0,-78.0,1856.0,3535.0,,,,-0.282962613141964,-2.73213418999969,-0.469082561883041,,-0.312441391602681,,
2025-07-23 17:07:03,5805.0,693.0,5885.0,1028.0,-78.0,1850.0,3519.0,,,2025/07/23 05:07:03 PM,-0.282721384957867,-2.73179397027184,-0.469054726886528,,-0.5102280375260295,,
,5805.0,692.0,5886.0,1027.0,-84.0,1852.0,3541.0,,,,-0.282947492169554,-2.73175203175585,-0.469086650472922,,-0.6829783105748618,,
,5804.0,692.0,5888.0,1028.0,-82.0,1856.0,3523.0,,,,-0.282712762121661,-2.73165457907773,-0.468516129391014,,-0.8297414103603207,,
,5805.0,692.0,5887.0,1029.0,-84.0,1858.0,3523.0,,,,-0.282739061234727,-2.73188717387853,-0.467625988291145,,-0.9506294648856315,,
,5804.0,693.0,5884.0,1030.0,-81.0,1858.0,3526.0,,,,-0.282674698613871,-2.73186101539601,-0.468285339092415,,-1.046810096162111,,
,5801.0,692.0,5885.0,1028.0,-75.0,1859.0,3537.0,,,,-0.2825555112976,-2.73165741892461,-0.468389689747392,,-1.1204393315667975,,
,5804.0,691.0,5885.0,1027.0,-75.0,1867.0,3537.0,,,,-0.282565446590126,-2.73171378673451,-0.468259667687273,,-1.1745284189071614,,
,5804.0,693.0,5887.0,1028.0,-75.0,1872.0,3545.0,,,,-0.282494979497869,-2.73156209155528,-0.468139847196685,,-1.2127466045483533,,
,5803.0,695.0,5885.0,1030.0,-75.0,1877.0,3542.0,,,,-0.282441084646584,-2.73165199744918,-0.467770838438401,,-1.2391703428382619,,
,5805.0,690.0,5886.0,1029.0,-93.0,1860.0,3531.0,,,,-0.282493395932979,-2.73151655431883,-0.467811559258884,,-1.2579965078929742,,
,5801.0,694.0,5882.0,1025.0,-79.0,1855.0,3543.0,,,,-0.282457023423626,-2.73146086535968,-0.467450289654187,,-1.273242240162147,,
,5802.0,695.0,5884.0,1028.0,-72.0,1855.0,3530.0,,,,-0.282491360241444,-2.73146912294445,-0.468243259958208,,-1.288456619938858,,
,5800.0,692.0,5882.0,1027.0,-68.0,1859.0,3536.0,,,,-0.282354586859381,-2.73125438427499,-0.467774742011849,,-1.3064691963481976,,
,5799.0,692.0,5879.0,1027.0,-69.0,1864.0,3537.0,,,,-0.28224479544937,-2.73129972214397,-0.46796567841924,,-1.3291975593449157,,
,5798.0,688.0,5878.0,1025.0,-80.0,1858.0,3544.0,,,,-0.282383022709908,-2.73159494947142,-0.466903598397092,,-1.3575308482675428,,
,5801.0,693.0,5879.0,1027.0,-81.0,1868.0,3552.0,,,,-0.282330751111086,-2.73143377483177,-0.468348644664733,,-1.3912986577835376,,
,5800.0,690.0,5881.0,1026.0,-81.0,1874.0,3529.0,,,,-0.282347423231489,-2.73156914637089,-0.468409209667967,,-1.4293257348884083,,
,5800.0,692.0,5879.0,1030.0,-71.0,1873.0,3536.0,,,,-0.28248459930424,-2.7314787871653,-0.467937433252183,,-1.4695630744775805,,
,5798.0,691.0,5878.0,1029.0,-99.0,1852.0,3535.0,,,,-0.282522044353544,-2.73134245739484,-0.467815430333619,,-1.5092769787337368,,
,5799.0,691.0,5876.0,1027.0,-84.0,1864.0,3540.0,,,,-0.282661381904089,-2.73123937345494,-0.468313065040503,,-1.5452712176592571,,
,5800.0,692.0,5877.0,1029.0,-85.0,1867.0,3525.0,,,,-0.282372124059275,-2.73111906226712,-0.467980713060299,,-1.5741152994763286,,
,5800.0,696.0,5877.0,1029.0,-80.0,1855.0,3535.0,,,,-0.282010894986221,-2.73114987723128,-0.466698995256583,,-1.5923546377081153,,
,5800.0,693.0,5877.0,1027.0,-80.0,1851.0,3524.0,,,,-0.281961412965064,-2.73110847290173,-0.466085107159795,,-1.5966851427093545,,
,5799.0,689.0,5879.0,1027.0,-76.0,1869.0,3522.0,,,,-0.282213908197813,-2.73120375908297,-0.467560732006562,,-1.5840834545746432,,
,5800.0,693.0,5877.0,1030.0,-83.0,1867.0,3544.0,,,,-0.282586735676924,-2.73150198213735,-0.468294440978593,,-1.5518926053082898,,
,5805.0,694.0,5882.0,1031.0,-86.0,1853.0,3547.0,,,,-0.282921538624401,-2.73180842479403,-0.468378303988837,,-1.497869935534805,,
,5801.0,692.0,5880.0,1029.0,-88.0,1866.0,3525.0,,,,-0.283284729173213,-2.73212140760951,-0.470341739517189,,-1.4202088937417285,,
,5802.0,692.0,5881.0,1028.0,-82.0,1867.0,3514.0,,,,-0.283842038109046,-2.73259102660555,-0.470211553103288,,-1.317548693085777,,
,5802.0,692.0,5880.0,1028.0,-78.0,1844.0,3531.0,,,,-0.284225614993061,-2.73322822602878,-0.47207272665219,,-1.1889858141831913,,
,5802.0,691.0,5883.0,1029.0,-75.0,1848.0,3527.0,,,,-0.284672719061553,-2.73362155417757,-0.472216832878241,,-1.0340994196877775,,
,5803.0,693.0,5883.0,1033.0,-77.0,1850.0,3527.0,,,,-0.28511407774247,-2.73403197210451,-0.473686810570402,,-0.8529993358113674,,
,5807.0,693.0,5883.0,1033.0,-79.0,1851.0,3523.0,,,,-0.285450169484698,-2.73442522993701,-0.474343929238078,,-0.6464005459887082,,
,5807.0,692.0,5882.0,1030.0,-84.0,1852.0,3521.0,,,,-0.285747907720776,-2.734743546,-0.474725056904218,,-0.41572205549055646,,
,5808.0,693.0,5883.0,1031.0,-82.0,1861.0,3529.0,,,,-0.285837070361461,-2.73471189591651,-0.475503701314336,,-0.16320066314131218,,
,5811.0,693.0,5885.0,1034.0,-85.0,1857.0,3532.0,,,,-0.2858741717719,-2.73508880824658,-0.476194741617898,,0.10799740977818062,,
,5809.0,693.0,5884.0,1035.0,-86.0,1859.0,3534.0,,,,-0.285810604638394,-2.73502821568257,-0.476629582849171,,0.3936900281386501,,
,5808.0,693.0,5885.0,1032.0,-72.0,1855.0,3545.0,,,,-0.285782792502554,-2.73520085011223,-0.476283082387951,,0.6886430176679446,,
,5812.0,691.0,5887.0,1034.0,-81.0,1854.0,3534.0,,,,-0.285746272543322,-2.73529408542152,-0.47545462204097,,0.986607101019515,,
,5814.0,693.0,5889.0,1036.0,-86.0,1853.0,3513.0,,,,-0.285763565222935,-2.73519398789208,-0.475964027171391,,1.2804438009455021,,
,5814.0,693.0,5890.0,1039.0,-89.0,1852.0,3514.0,,,,-0.285960567147288,-2.735069803613,-0.475723365620835,,1.5623467099322543,,
,5813.0,691.0,5888.0,1036.0,-93.0,1847.0,3540.0,,,,-0.285801559742772,-2.73515193118261,-0.474948047536405,,1.8241538928769616,,
,5813.0,691.0,5888.0,1036.0,-87.0,1857.0,3552.0,,,,-0.285802495666902,-2.73492625601291,-0.475050372835106,,2.057736539165762,,
,5815.0,690.0,5891.0,1039.0,-90.0,1841.0,3552.0,,,,-0.285482102031715,-2.73481660147233,-0.475390570123864,,2.2554390587925384,,
,5817.0,693.0,5893.0,1041.0,-86.0,1843.0,3529.0,,,,-0.28559305610634,-2.73469141940027,-0.475461930216909,,2.41053737637434,,
,5819.0,695.0,5894.0,1039.0,-88.0,1844.0,3523.0,,,,-0.28550932486173,-2.73457908379242,-0.475571649750969,,2.51767614074679,,
,5816.0,694.0,5895.0,1037.0,-88.0,1846.0,3516.0,,,,-0.285252410686024,-2.7345704655824,-0.47481804576867,,2.5732429288213217,,
,5818.0,696.0,5892.0,1039.0,-75.0,1845.0,3537.0,,,,-0.285323877757087,-2.73465506134164,-0.474310487706758,,2.5756392149675538,,
,5821.0,692.0,5895.0,1038.0,-81.0,1846.0,3532.0,,,,-0.285137929847508,-2.73443077133561,-0.474359149655952,,2.5254146919326006,,
,5824.0,694.0,5898.0,1042.0,-80.0,1852.0,3520.0,,,,-0.285260833839352,-2.73419983915,-0.474200360177157,,2.425243840963887,,
,5821.0,693.0,5899.0,1044.0,-78.0,1870.0,3533.0,,,,-0.28518188266053,-2.73456035029724,-0.474312173359027,,2.279740833674411,,
,5821.0,695.0,5898.0,1043.0,-76.0,1864.0,3536.0,,,,-0.285281387703586,-2.7343669756012,-0.473924671813075,,2.0951286865135073,,
,5821.0,691.0,5903.0,1045.0,-87.0,1859.0,3539.0,,,,-0.285176047421389,-2.73423340186534,-0.47354795278753,,1.8787972839193021,,
,5826.0,695.0,5902.0,1046.0,-88.0,1837.0,3538.0,,,,-0.285225299407248,-2.73434511522646,-0.473704553822109,,1.6387982116266118,,
,5825.0,694.0,5901.0,1042.0,-88.0,1825.0,3524.0,,,,-0.285324050066815,-2.73435161577253,-0.473763277122884,,1.3833295086505213,,
,5824.0,693.0,5902.0,1045.0,-84.0,1849.0,3538.0,,,,-0.285145430515346,-2.73418793648484,-0.474407753507054,,1.1202602720040464,,
,5828.0,696.0,5906.0,1046.0,-79.0,1864.0,3509.0,,,,-0.28522876119006,-2.73423915680338,-0.474449025367203,,0.8567354734238063,,
,5828.0,695.0,5906.0,1044.0,-87.0,1846.0,3511.0,,,,-0.285150819240107,-2.73414782651334,-0.474364284497732,,0.5988880027455938,,
,5828.0,693.0,5907.0,1048.0,-84.0,1850.0,3518.0,,,,-0.285246651166109,-2.73429740035371,-0.473516411321057,,0.3516701158656694,,
,5828.0,693.0,5906.0,1045.0,-78.0,1856.0,3505.0,,,,-0.28487362604231,-2.73402323139628,-0.474298364750601,,0.11880190659626383,,
,5831.0,694.0,5911.0,1047.0,-85.0,1852.0,3530.0,,,,-0.284818725323031,-2.73400254942019,-0.472958557217623,,-0.09717835578900066,,
,5833.0,697.0,5911.0,1050.0,-83.0,1851.0,3537.0,,,,-0.285034811746615,-2.73400946025723,-0.473333811800084,,-0.2947868877286313,,
,5832.0,696.0,5912.0,1050.0,-82.0,1851.0,3535.0,,,,-0.284822546771782,-2.73380749311046,-0.472859081297772,,-0.47342060628353105,,
,5834.0,694.0,5913.0,1049.0,-77.0,1837.0,3553.0,,,,-0.284936486552871,-2.7338882519651,-0.472895262293933,,-0.633168565848549,,
,5833.0,693.0,5916.0,1048.0,-86.0,1840.0,3543.0,,,,-0.284850846409279,-2.73394580236274,-0.473444470541963,,-0.774636617970683,,
,5838.0,696.0,5918.0,1052.0,-90.0,1865.0,3525.0,,,,-0.28512831725032,-2.73415167598995,-0.473410509292785,,-0.898805177508921,,
,5838.0,695.0,5918.0,1051.0,-93.0,1861.0,3533.0,,,,-0.284944865513582,-2.73402886878191,-0.473780079202685,,-1.0069285985230887,,
,5838.0,696.0,5922.0,1052.0,-90.0,1852.0,3525.0,,,,-0.284960712852595,-2.73425128901571,-0.474177406641438,,-1.1004722156618991,,
,5839.0,697.0,5922.0,1052.0,-83.0,1843.0,3551.0,,,,-0.284962052717152,-2.73439137968347,-0.473699202676483,,-1.1810724541589723,,
,5841.0,696.0,5923.0,1053.0,-82.0,1866.0,3535.0,,,,-0.285233583345163,-2.73435134661848,-0.474534388122064,,-1.2504992329612705,,
,5840.0,698.0,5926.0,1052.0,-84.0,1864.0,3525.0,,,,-0.28520066572049,-2.73444158112298,-0.474676195414816,,-1.3105996347483648,,
,5842.0,695.0,5925.0,1051.0,-86.0,1848.0,3531.0,,,,-0.285170274164262,-2.73448942609251,-0.474313526048354,,-1.363207159428172,,
,5842.0,695.0,5926.0,1053.0,-83.0,1843.0,3498.0,,,,-0.28538782986307,-2.73445605474223,-0.475005021409923,,-1.410010029356155,,
,5840.0,696.0,5926.0,1051.0,-74.0,1854.0,3512.0,,,,-0.285517939534886,-2.73422783648816,-0.475775429951512,,-1.4523826570315657,,
,5837.0,699.0,5924.0,1052.0,-76.0,1858.0,3541.0,,,,-0.285359163024505,-2.73421994027454,-0.474395695917537,,-1.4911944900524694,,
,5837.0,698.0,5921.0,1049.0,-74.0,1887.0,3527.0,,,,-0.28571541013781,-2.73423689087508,-0.474467391818837,,-1.5266185791484688,,
,5831.0,697.0,5918.0,1046.0,-76.0,1881.0,3522.0,,,,-0.285380326056403,-2.73416116527209,-0.474209814082357,,-1.5579673957855655,,
,5827.0,693.0,5913.0,1043.0,-81.0,1868.0,3517.0,,,,-0.285222952194328,-2.73419817434639,-0.473797816462749,,-1.5835849574640288,,
,5826.0,693.0,5908.0,1041.0,-76.0,1849.0,3529.0,,,,-0.285382890834162,-2.73414492978032,-0.474122400369844,,-1.600821799897421,,
,5822.0,695.0,5905.0,1041.0,-84.0,1844.0,3521.0,,,,-0.285111879500373,-2.73414295568422,-0.474255316727947,,-1.6061127543205298,,
,5819.0,695.0,5902.0,1040.0,-85.0,1840.0,3520.0,,,,-0.285267285753098,-2.73424124079659,-0.473852534008891,,-1.5951672510179837,,
,5814.0,691.0,5896.0,1034.0,-90.0,1831.0,3542.0,,,,-0.285106451880742,-2.73399985897154,-0.474165281757279,,-1.5632688029334931,,
,5812.0,692.0,5892.0,1034.0,-79.0,1856.0,3524.0,,,,-0.285056759696676,-2.73420167477556,-0.473741283624308,,-1.5056657369838322,,
,5809.0,692.0,5891.0,1031.0,-84.0,1865.0,3540.0,,,,-0.284954671060122,-2.73380468777093,-0.47335100150119,,-1.418021050517085,,
,5804.0,691.0,5886.0,1032.0,-86.0,1854.0,3531.0,,,,-0.284754059118167,-2.73370584086045,-0.473163026777885,,-1.2968779825830625,,
,5803.0,694.0,5884.0,1031.0,-81.0,1842.0,3525.0,,,,-0.284929133871708,-2.73371745418753,-0.473523274134961,,-1.1400921359659648,,
,5803.0,693.0,5883.0,1026.0,-82.0,1857.0,3516.0,,,,-0.284646219782877,-2.73378057856276,-0.473372009270281,,-0.9471825392420151,,
,5800.0,693.0,5880.0,1029.0,-77.0,1853.0,3533.0,,,,-0.284800169170181,-2.73356124060489,-0.472356560203273,,-0.7195628546585595,,
,5799.0,692.0,5879.0,1029.0,-74.0,1856.0,3520.0,,,,-0.284692878736637,-2.7335059633487,-0.472509184281685,,-0.4606280081542715,,
,5798.0,691.0,5879.0,1027.0,-79.0,1854.0,3527.0,,,,-0.284437463323429,-2.73354390915562,-0.472606156545715,,-0.175687767144199,,
,5796.0,693.0,5877.0,1025.0,-85.0,1837.0,3530.0,,,,-0.284354318759094,-2.73357580302673,-0.472600282705178,,0.12824559786368378,,
,5797.0,689.0,5875.0,1025.0,-86.0,1854.0,3516.0,,,,-0.284292366695202,-2.73312251239695,-0.472361079220706,,0.44279524613062793,,
,5795.0,693.0,5878.0,1028.0,-86.0,1838.0,3527.0,,,,-0.284123184242476,-2.73296745274743,-0.47195144374688,,0.7586530769231791,,
,5794.0,692.0,5875.0,1025.0,-90.0,1829.0,3529.0,,,,-0.284251577601886,-2.73314635823068,-0.471938693980942,,1.0660719549178,,
,5794.0,689.0,5871.0,1025.0,-88.0,1860.0,3528.0,,,,-0.284145177205125,-2.73319281503916,-0.471892652721654,,1.3553778115013715,,
,5796.0,691.0,5873.0,1025.0,-80.0,1856.0,3550.0,,,,-0.284048239846391,-2.73328500382358,-0.471952236785468,,1.6174633937126952,,
,5795.0,690.0,5874.0,1027.0,-91.0,1853.0,3538.0,,,,-0.284051547924826,-2.73306040749808,-0.471259693895299,,1.8442292508484208,,
,5795.0,690.0,5872.0,1027.0,-83.0,1863.0,3533.0,,,,-0.284071490895708,-2.73288881219173,-0.470727379422085,,2.028944093107779,,
,5791.0,691.0,5869.0,1027.0,-85.0,1854.0,3526.0,,,,-0.283960323787182,-2.73282837400336,-0.470548161351669,,2.16650565481647,,
,5792.0,690.0,5870.0,1024.0,-91.0,1837.0,3537.0,,,,-0.283873280155644,-2.73278568264445,-0.47155685341942,,2.2535939643188434,,
,5791.0,688.0,5868.0,1024.0,-91.0,1853.0,3551.0,,,,-0.283937047380575,-2.73274588452995,-0.470916542140821,,2.2887199520542816,,
,5795.0,692.0,5873.0,1025.0,-82.0,1842.0,3558.0,,,,-0.283856910158619,-2.7324908631663,-0.470644983517287,,2.272181451419516,,
,5795.0,692.0,5869.0,1026.0,-80.0,1845.0,3552.0,,,,-0.283754890765325,-2.73243300609949,-0.470484807576583,,2.2059440582438716,,
,5790.0,691.0,5868.0,1024.0,-86.0,1858.0,3540.0,,,,-0.283726207413225,-2.73266227780955,-0.470915618126961,,2.093465670002903,,
,5793.0,690.0,5867.0,1025.0,-78.0,1849.0,3515.0,,,,-0.283626284113211,-2.73266695501923,-0.470788985046436,,1.9394820165518285,,
,5795.0,690.0,5866.0,1025.0,-80.0,1874.0,3494.0,,,,-0.283621315235127,-2.73274624514757,-0.47094613079083,,1.7497678103323342,,
,5794.0,689.0,5865.0,1025.0,-82.0,1860.0,3499.0,,,,-0.283583798551872,-2.73245555898345,-0.47022326985869,,1.5308853592226197,,
,5795.0,689.0,5866.0,1025.0,-81.0,1859.0,3517.0,,,,-0.283625648585791,-2.73257333623423,-0.469708902266888,,1.2899297981390616,,
,5790.0,690.0,5862.0,1023.0,-81.0,1854.0,3528.0,,,,-0.283641984952941,-2.73256802140557,-0.470666429471851,,1.034277370686335,,
,5794.0,692.0,5867.0,1026.0,-75.0,1851.0,3527.0,,,,-0.283621493623677,-2.73222310283101,-0.470137674995944,,0.7713405091040633,,
,5794.0,690.0,5863.0,1025.0,-80.0,1856.0,3531.0,,,,-0.283466097586513,-2.73203612906963,-0.469886965167068,,0.508331175829791,,
,5792.0,689.0,5864.0,1026.0,-82.0,1869.0,3528.0,,,,-0.283297992575394,-2.73210829753101,-0.470385741847755,,0.2520325043161447,,
,5792.0,688.0,5861.0,1022.0,-86.0,1862.0,3529.0,,,,-0.28349052895751,-2.73196305389799,-0.46955279395404,,0.008578711131469413,,
,5792.0,689.0,5860.0,1024.0,-74.0,1847.0,3547.0,,,,-0.283587487846378,-2.73201921147251,-0.470007583826193,,-0.21675498446658972,,
,5791.0,690.0,5858.0,1024.0,-80.0,1848.0,3537.0,,,,-0.283342303175774,-2.73200061234182,-0.469685459802689,,-0.4197469567450023,,
,5794.0,690.0,5860.0,1021.0,-82.0,1851.0,3530.0,,,,-0.283258075780296,-2.73196483259851,-0.468484903265804,,-0.597397677186166,,
,5789.0,688.0,5857.0,1022.0,-80.0,1832.0,3537.0,,,,-0.283103421044611,-2.731869075757,-0.468821814843462,,-0.7480564942019651,,
,5790.0,690.0,5858.0,1022.0,-79.0,1846.0,3550.0,,,,-0.283031029074365,-2.73174078820853,-0.469126253428348,,-0.8714881857092921,,
,5794.0,692.0,5857.0,1025.0,-81.0,1851.0,3540.0,,,,-0.282892417652757,-2.73176025597946,-0.468582610030874,,-0.9688617406917688,,
,5792.0,690.0,5853.0,1022.0,-77.0,1852.0,3540.0,,,,-0.282940939606897,-2.73173165827041,-0.468708316192439,,-1.0426490595183238,,
,5788.0,688.0,5852.0,1023.0,-76.0,1863.0,3534.0,,,,-0.282795500903908,-2.73182210278818,-0.469497498199812,,-1.0964298044727383,,
,5788.0,689.0,5850.0,1021.0,-83.0,1872.0,3539.0,,,,-0.282935035565003,-2.73172411229562,-0.468952713139936,,-1.1346086972817389,,
,5791.0,688.0,5849.0,1023.0,-86.0,1872.0,3528.0,,,,-0.283112593504702,-2.73184073236611,-0.468853410697259,,-1.162061390910355,,
,5789.0,689.0,5852.0,1021.0,-80.0,1865.0,3550.0,,,,-0.283197830295606,-2.73184647121498,-0.468467349821159,,-1.1837334146273244,,
,5790.0,689.0,5850.0,1020.0,-75.0,1844.0,3546.0,,,,-0.282955941535726,-2.73177270929473,-0.46887208904277,,-1.2042228733333866,,
,5789.0,687.0,5846.0,1020.0,-78.0,1851.0,3535.0,,,,-0.283103670750849,-2.73183029833997,-0.468261224570621,,-1.2273810629477309,,
,5787.0,688.0,5845.0,1019.0,-78.0,1852.0,3535.0,,,,-0.282758015821486,-2.73166264992991,-0.46853935243824,,-1.255965564672153,,
,5787.0,688.0,5849.0,1022.0,-79.0,1868.0,3544.0,,,,-0.282850026822511,-2.73165801906839,-0.468449627494787,,-1.291377542087554,,
,5790.0,688.0,5847.0,1020.0,-77.0,1872.0,3541.0,,,,-0.282777694679022,-2.73175934478726,-0.467426496620545,,-1.3335089546703613,,
2025-07-23 17:07:04,5788.0,687.0,5843.0,1022.0,-76.0,1867.0,3526.0,,,2025/07/23 05:07:04 PM,-0.28264172061471,-2.73165325665298,-0.468183467120511,,-1.3807164469780908,,
,5788.0,687.0,5845.0,1020.0,-79.0,1872.0,3529.0,,,,-0.282450560313278,-2.7313499690938,-0.467355963107173,,-1.4299272109357206,,
,5790.0,688.0,5845.0,1020.0,-80.0,1858.0,3508.0,,,,-0.282562865693233,-2.73125073100343,-0.467627213002786,,-1.4768690322568228,,
,5793.0,690.0,5846.0,1022.0,-83.0,1849.0,3534.0,,,,-0.282767224450472,-2.73151145418461,-0.467999938393838,,-1.5164035897297026,,
,5790.0,687.0,5848.0,1023.0,-80.0,1840.0,3532.0,,,,-0.28288021351684,-2.73180054942323,-0.468906622361393,,-1.5429310415183777,,
,5792.0,688.0,5843.0,1021.0,-90.0,1860.0,3528.0,,,,-0.283115403454325,-2.73221638658346,-0.468922473828768,,-1.5508271400185636,,
,5794.0,688.0,5846.0,1023.0,-78.0,1843.0,3523.0,,,,-0.283427328402854,-2.73244335367476,-0.469809871646649,,-1.534872763814414,,
,5794.0,687.0,5849.0,1027.0,-82.0,1856.0,3535.0,,,,-0.283714231255719,-2.73296604252592,-0.471359219350047,,-1.4906395651699167,,
,5794.0,689.0,5849.0,1023.0,-79.0,1863.0,3525.0,,,,-0.284411880910757,-2.73327830319318,-0.472080320577685,,-1.4148029604217511,,
,5793.0,688.0,5846.0,1023.0,-85.0,1839.0,3514.0,,,,-0.284946906946862,-2.73363804502172,-0.472834148363602,,-1.305363234430035,,
,5794.0,686.0,5846.0,1025.0,-87.0,1843.0,3517.0,,,,-0.285279893710303,-2.73427813368343,-0.473894205427564,,-1.161765831839252,,
,5797.0,691.0,5850.0,1026.0,-83.0,1844.0,3517.0,,,,-0.285533380565645,-2.73445179418052,-0.475016290382746,,-0.9849221637564305,,
,5799.0,690.0,5849.0,1027.0,-77.0,1846.0,3533.0,,,,-0.285817511187289,-2.73447035367681,-0.475286657087929,,-0.7771417279040675,,
,5798.0,692.0,5849.0,1027.0,-83.0,1839.0,3542.0,,,,-0.286099182973519,-2.73491087622264,-0.476349214456725,,-0.541994127968273,,
,5800.0,689.0,5848.0,1025.0,-80.0,1842.0,3530.0,,,,-0.286314610279776,-2.73495223821467,-0.47585526142314,,-0.28412472703733815,,
,5804.0,690.0,5853.0,1030.0,-77.0,1832.0,3544.0,,,,-0.286307469804072,-2.73504325276204,-0.476138648895491,,-0.009049362999745184,,
,5804.0,688.0,5851.0,1027.0,-83.0,1837.0,3525.0,,,,-0.286469911768195,-2.73497299324498,-0.476250554599608,,0.2770487291601889,,
,5803.0,691.0,5856.0,1028.0,-81.0,1847.0,3521.0,,,,-0.286420479453703,-2.7349068736429,-0.476188869287299,,0.5675029845545346,,
,5802.0,690.0,5852.0,1029.0,-77.0,1870.0,3514.0,,,,-0.286553999376372,-2.73510286217818,-0.476084830300021,,0.8553215550298561,,
,5803.0,689.0,5855.0,1030.0,-72.0,1839.0,3545.0,,,,-0.286118685344124,-2.73525256404955,-0.476196288166833,,1.1333238994251935,,
,5805.0,691.0,5857.0,1032.0,-81.0,1844.0,3536.0,,,,-0.286085677883713,-2.73528511204192,-0.475217017984118,,1.3942710003044199,,
,5806.0,691.0,5857.0,1030.0,-74.0,1853.0,3533.0,,,,-0.286015140498775,-2.73499309008498,-0.475541885007476,,1.631010475834557,,
,5809.0,689.0,5859.0,1031.0,-78.0,1853.0,3547.0,,,,-0.286108795599942,-2.73499435306146,-0.47447423093872,,1.8366574132113496,,
,5806.0,688.0,5858.0,1031.0,-75.0,1851.0,3520.0,,,,-0.286193375912733,-2.73498158813694,-0.475754313436672,,2.0048245052322446,,
,5810.0,690.0,5861.0,1035.0,-78.0,1844.0,3532.0,,,,-0.285808333277276,-2.73464525614437,-0.475655202305027,,2.129902911568818,,
,5808.0,691.0,5860.0,1032.0,-77.0,1868.0,3538.0,,,,-0.285792681330324,-2.73474033137015,-0.475142336633346,,2.207381047345912,,
,5813.0,691.0,5865.0,1035.0,-75.0,1860.0,3536.0,,,,-0.285946643595418,-2.73485861328272,-0.475041566263158,,2.234174966168171,,
,5809.0,689.0,5862.0,1034.0,-77.0,1864.0,3537.0,,,,-0.286155414033662,-2.73492043526827,-0.47512636138536,,2.2089334364317526,,
,5812.0,692.0,5866.0,1035.0,-74.0,1848.0,3553.0,,,,-0.285944882791858,-2.7348271454524,-0.475815029672054,,2.132275151963335,,
,5813.0,692.0,5868.0,1037.0,-76.0,1857.0,3561.0,,,,-0.28597779204852,-2.73485658565795,-0.474867952909013,,2.0069162737178345,,
,5814.0,692.0,5870.0,1035.0,-79.0,1861.0,3556.0,,,,-0.285977715974258,-2.73475589284241,-0.47526383684538,,1.8376542742570252,,
,5817.0,690.0,5869.0,1037.0,-88.0,1848.0,3541.0,,,,-0.285969788906749,-2.73492737815469,-0.475367596448572,,1.6311882030961375,,
,5815.0,690.0,5869.0,1037.0,-82.0,1854.0,3540.0,,,,-0.286161238159174,-2.73478974427939,-0.475422605703092,,1.3957742066366974,,
,5816.0,691.0,5871.0,1038.0,-91.0,1846.0,3539.0,,,,-0.286148012268074,-2.73475505019851,-0.475491612297168,,1.1407358835769317,,
,5817.0,692.0,5874.0,1037.0,-85.0,1861.0,3534.0,,,,-0.286153436653825,-2.73494393082653,-0.475624172652892,,0.8758689270805159,,
,5820.0,694.0,5874.0,1037.0,-89.0,1854.0,3536.0,,,,-0.286168024200353,-2.73464120255068,-0.475698318658147,,0.6107953954004736,,
,5821.0,691.0,5873.0,1037.0,-89.0,1864.0,3531.0,,,,-0.286165252883339,-2.73514985094233,-0.475362350972364,,0.35433186773104275,,
,5820.0,691.0,5875.0,1041.0,-85.0,1869.0,3527.0,,,,-0.286129471509987,-2.73495948263165,-0.475562908400682,,0.11393558872234379,,
,5823.0,693.0,5878.0,1042.0,-79.0,1837.0,3524.0,,,,-0.286132702730169,-2.7346087226948,-0.475444615477275,,-0.1047167253344328,,
,5823.0,692.0,5881.0,1042.0,-81.0,1849.0,3519.0,,,,-0.286106481462828,-2.73480288913284,-0.475920541763509,,-0.2979794763165389,,
,5822.0,693.0,5882.0,1040.0,-82.0,1845.0,3495.0,,,,-0.285774083104467,-2.73469283546523,-0.474827473048126,,-0.464300870423165,,
,5825.0,693.0,5882.0,1042.0,-80.0,1856.0,3513.0,,,,-0.28608388344722,-2.7347279760376,-0.476286285549957,,-0.6041014358995533,,
,5828.0,694.0,5886.0,1045.0,-83.0,1831.0,3554.0,,,,-0.28620672624226,-2.73463787812025,-0.476035725926816,,-0.7194908077507216,,
,5827.0,693.0,5887.0,1043.0,-81.0,1862.0,3526.0,,,,-0.286532105477997,-2.73490358353535,-0.475401329870975,,-0.8138598623725816,,
,5828.0,693.0,5889.0,1043.0,-80.0,1859.0,3512.0,,,,-0.28623763194128,-2.73491286746206,-0.475971819624167,,-0.8913949452193111,,
,5829.0,692.0,5890.0,1045.0,-71.0,1866.0,3529.0,,,,-0.286282709856045,-2.73498280783328,-0.476545838137728,,-0.9565652284984717,,
,5831.0,695.0,5893.0,1047.0,-80.0,1849.0,3536.0,,,,-0.286613760923967,-2.73517195063401,-0.476613464176776,,-1.0136332499589855,,
,5832.0,696.0,5895.0,1048.0,-79.0,1867.0,3530.0,,,,-0.286897321352491,-2.73521127521297,-0.476046243819404,,-1.0662328785036719,,
,5833.0,696.0,5897.0,1049.0,-80.0,1867.0,3525.0,,,,-0.286772916562785,-2.73550907037902,-0.476588906704277,,-1.117049027121093,,
,5832.0,693.0,5896.0,1045.0,-78.0,1870.0,3532.0,,,,-0.28684120863492,-2.73535544539862,-0.477155478049167,,-1.1676202950127839,,
,5833.0,694.0,5899.0,1046.0,-85.0,1850.0,3514.0,,,,-0.286914851372237,-2.73531998478607,-0.477935548590082,,-1.2182706334999314,,
,5835.0,695.0,5900.0,1049.0,-85.0,1842.0,3526.0,,,,-0.28673218921229,-2.73546137745566,-0.476347569989797,,-1.2681609185655363,,
,5833.0,694.0,5896.0,1045.0,-87.0,1858.0,3526.0,,,,-0.286914668806424,-2.73536021097683,-0.477646717493433,,-1.3154383153632727,,
,5830.0,693.0,5892.0,1043.0,-89.0,1858.0,3539.0,,,,-0.28672154435227,-2.7354128535135,-0.477037487954695,,-1.3574528463572308,,
,5826.0,693.0,5887.0,1040.0,-86.0,1875.0,3544.0,,,,-0.286782034050872,-2.73553571301087,-0.477639610502325,,-1.391008001862784,,
,5824.0,694.0,5890.0,1042.0,-89.0,1866.0,3524.0,,,,-0.286788833707896,-2.73559907764272,-0.476899098852415,,-1.4126153412569973,,
,5823.0,692.0,5881.0,1038.0,-82.0,1855.0,3520.0,,,,-0.286529661647491,-2.73552144935619,-0.476419188879111,,-1.4187301566002248,,
,5820.0,693.0,5877.0,1036.0,-80.0,1840.0,3513.0,,,,-0.286476052206457,-2.73550617757364,-0.476596609816981,,-1.405954168668341,,
,5817.0,691.0,5875.0,1033.0,-76.0,1819.0,3528.0,,,,-0.286512330588786,-2.73528034941343,-0.477457360346614,,-1.3712000050955204,,
,5812.0,693.0,5870.0,1031.0,-83.0,1831.0,3548.0,,,,-0.286544931817794,-2.73540683365283,-0.477186333680386,,-1.3118196638606223,,
,5806.0,692.0,5864.0,1029.0,-82.0,1840.0,3552.0,,,,-0.28645903785695,-2.73543265013966,-0.477138389615073,,-1.2257045990799564,,
,5805.0,690.0,5861.0,1024.0,-78.0,1848.0,3550.0,,,,-0.286385167182353,-2.73528340590263,-0.476814948323164,,-1.1113681063132708,,
,5803.0,688.0,5855.0,1024.0,-82.0,1867.0,3545.0,,,,-0.286224442563032,-2.73518562861954,-0.475811303935321,,-0.9680212662817554,,
,5798.0,690.0,5854.0,1023.0,-79.0,1869.0,3537.0,,,,-0.286333279965305,-2.73491442455141,-0.476556103540095,,-0.7956520271479947,,
,5799.0,692.0,5850.0,1025.0,-79.0,1865.0,3526.0,,,,-0.286198386987089,-2.73519776139829,-0.475604309493496,,-0.5951133022685413,,
,5800.0,691.0,5847.0,1022.0,-82.0,1856.0,3514.0,,,,-0.286219281409682,-2.73501382895299,-0.476706108697488,,-0.36822032177036673,,
,5799.0,688.0,5847.0,1022.0,-84.0,1846.0,3526.0,,,,-0.286379140397799,-2.73507823259789,-0.476503158051881,,-0.11785005596904755,,
,5794.0,691.0,5844.0,1021.0,-89.0,1864.0,3533.0,,,,-0.286062522267618,-2.73493128040118,-0.475536208640161,,0.15197283959828795,,
,5792.0,687.0,5842.0,1019.0,-82.0,1855.0,3533.0,,,,-0.286145903413273,-2.73504334336635,-0.475921832172908,,0.4360264757572844,,
,5790.0,688.0,5841.0,1019.0,-81.0,1854.0,3535.0,,,,-0.286415743133275,-2.734889734053,-0.475592731715129,,0.7279052525267575,,
,5792.0,688.0,5840.0,1018.0,-75.0,1860.0,3537.0,,,,-0.286442284685906,-2.73500689927218,-0.4758323397369,,1.020121275515931,,
,5787.0,687.0,5836.0,1017.0,-79.0,1853.0,3544.0,,,,-0.286370679056251,-2.7348433813254,-0.475177276945231,,1.3043107702496055,,
,5787.0,688.0,5835.0,1019.0,-80.0,1848.0,3554.0,,,,-0.286170829266224,-2.73481653514727,-0.47469531937219,,1.5715505223238861,,
,5789.0,689.0,5834.0,1019.0,-76.0,1848.0,3534.0,,,,-0.286012108664429,-2.73496371006104,-0.475222514158047,,1.8127752243354007,,
,5788.0,689.0,5833.0,1018.0,-77.0,1844.0,3525.0,,,,-0.285827457199965,-2.73511923454413,-0.475626034843502,,2.019272445869796,,
,5788.0,687.0,5834.0,1017.0,-86.0,1841.0,3523.0,,,,-0.286071755093603,-2.73474826258386,-0.475323671359285,,2.183219283161318,,
,5786.0,690.0,5832.0,1017.0,-82.0,1833.0,3543.0,,,,-0.285864128277754,-2.73467213701008,-0.475661988028774,,2.2982148960959554,,
,5784.0,687.0,5830.0,1018.0,-80.0,1840.0,3538.0,,,,-0.285856877698676,-2.73479185227844,-0.474994520568639,,2.3597574848282594,,
,5787.0,688.0,5830.0,1017.0,-84.0,1848.0,3550.0,,,,-0.285963815391688,-2.73449142027093,-0.474729166449826,,2.3656141204023644,,
,5787.0,688.0,5830.0,1015.0,-83.0,1843.0,3545.0,,,,-0.285719471167092,-2.73456822226679,-0.47429867007305,,2.3160380786077615,,
,5788.0,686.0,5827.0,1014.0,-84.0,1846.0,3531.0,,,,-0.285783899036185,-2.73454597503079,-0.475421003958683,,2.213801033535444,,
,5786.0,687.0,5831.0,1017.0,-83.0,1859.0,3505.0,,,,-0.285758522927298,-2.73451810415562,-0.474552304802646,,2.06402591709142,,
,5787.0,688.0,5828.0,1016.0,-82.0,1851.0,3529.0,,,,-0.285667227869282,-2.73426940284749,-0.474420764064859,,1.873828756016732,,
,5789.0,689.0,5828.0,1017.0,-78.0,1850.0,3535.0,,,,-0.285529136632411,-2.73453297609803,-0.474405387779231,,1.6518014397160974,,
,5786.0,689.0,5828.0,1016.0,-80.0,1865.0,3520.0,,,,-0.285581575903214,-2.73447990657554,-0.474162659589358,,1.407388043455044,,
,5788.0,690.0,5830.0,1016.0,-84.0,1858.0,3513.0,,,,-0.285787230392479,-2.73440519060088,-0.474492108564346,,1.1502206816627198,,
,5788.0,688.0,5830.0,1016.0,-82.0,1856.0,3521.0,,,,-0.285833087522118,-2.734470396761,-0.474220046669646,,0.8894839588522323,,
,5789.0,687.0,5827.0,1017.0,-79.0,1860.0,3506.0,,,,-0.285722843803956,-2.73420770708714,-0.474372291106487,,0.6333696816842127,,
,5787.0,689.0,5827.0,1015.0,-74.0,1861.0,3518.0,,,,-0.285568261681703,-2.73439328068732,-0.474559125280183,,0.3886679712760333,,
,5789.0,689.0,5826.0,1016.0,-80.0,1863.0,3538.0,,,,-0.285595060341243,-2.73425073840673,-0.474068240415277,,0.16052096941116803,,
,5789.0,688.0,5825.0,1016.0,-82.0,1848.0,3537.0,,,,-0.285602274154946,-2.73414342860027,-0.47399499677079,,-0.0476554424737134,,
,5788.0,690.0,5826.0,1017.0,-83.0,1854.0,3549.0,,,,-0.285495293921074,-2.73421825525487,-0.474417923728404,,-0.23409535059709394,,
,5787.0,690.0,5825.0,1015.0,-79.0,1849.0,3556.0,,,,-0.285425744651036,-2.73404484422007,-0.474186770561233,,-0.39848048203727915,,
,5785.0,688.0,5823.0,1013.0,-80.0,1858.0,3536.0,,,,-0.285318299150115,-2.73405051642123,-0.473532329783067,,-0.5416506250260571,,
,5786.0,689.0,5821.0,1014.0,-77.0,1870.0,3528.0,,,,-0.285238018119845,-2.73392776206692,-0.47360078631807,,-0.6652704711475229,,
,5786.0,691.0,5822.0,1014.0,-84.0,1872.0,3537.0,,,,-0.285199792814347,-2.73392702056641,-0.473550818654004,,-0.7714960995661089,,
,5783.0,688.0,5823.0,1013.0,-83.0,1872.0,3536.0,,,,-0.28511602618107,-2.7339023402889,-0.473765686644146,,-0.8626788639237335,,
,5784.0,688.0,5820.0,1013.0,-87.0,1859.0,3532.0,,,,-0.285068794027415,-2.7338241470537,-0.473484149166498,,-0.9411346174461107,,
,5785.0,686.0,5820.0,1012.0,-83.0,1860.0,3536.0,,,,-0.285252601144761,-2.7337009358988,-0.47307925402066,,-1.0089930705693297,,
,5784.0,690.0,5819.0,1013.0,-82.0,1867.0,3530.0,,,,-0.285165820674676,-2.73372755808039,-0.472505377123418,,-1.0681272770722792,,
,5785.0,687.0,5816.0,1013.0,-76.0,1874.0,3531.0,,,,-0.284904418642027,-2.73356295480902,-0.472896669267153,,-1.1201491459458852,,
,5782.0,688.0,5816.0,1011.0,-70.0,1864.0,3532.0,,,,-0.284846821530273,-2.73349600051663,-0.472598000819092,,-1.1664462233254218,,
,5782.0,688.0,5818.0,1011.0,-73.0,1862.0,3514.0,,,,-0.28488593659267,-2.73364427128729,-0.47272417546131,,-1.2082300771271526,,
,5784.0,688.0,5815.0,1013.0,-77.0,1852.0,3517.0,,,,-0.284439866991793,-2.73351422742037,-0.47215744004975,,-1.2465683048863385,,
,5783.0,687.0,5816.0,1012.0,-84.0,1867.0,3531.0,,,,-0.284415498122066,-2.73367731125673,-0.472225987763624,,-1.2823795255903736,,
,5782.0,688.0,5817.0,1011.0,-80.0,1873.0,3542.0,,,,-0.284400117930291,-2.73357121124474,-0.472614365408029,,-1.3163815290594016,,
,5784.0,689.0,5814.0,1011.0,-92.0,1857.0,3538.0,,,,-0.284708275248641,-2.73353389183962,-0.472255619673628,,-1.3489946239173272,,
,5784.0,686.0,5815.0,1012.0,-85.0,1861.0,3511.0,,,,-0.284605337541002,-2.73332633604983,-0.473233073366012,,-1.3802131704926655,,
,5783.0,689.0,5814.0,1013.0,-83.0,1861.0,3518.0,,,,-0.284731016746883,-2.73357593636578,-0.472624433313711,,-1.409466894241689,,
,5786.0,688.0,5814.0,1013.0,-78.0,1861.0,3535.0,,,,-0.284651893071347,-2.73381099821354,-0.472425115066103,,-1.4354988536966635,,
,5784.0,687.0,5816.0,1013.0,-77.0,1855.0,3520.0,,,,-0.285120894955855,-2.73393503547778,-0.473292316648639,,-1.4562882484032509,,
,5787.0,690.0,5813.0,1015.0,-84.0,1868.0,3536.0,,,,-0.285557985610233,-2.73408333627978,-0.473900166444614,,-1.4690433761695116,,
,5786.0,688.0,5815.0,1013.0,-77.0,1861.0,3540.0,,,,-0.285655840711479,-2.7343789704688,-0.473966486563007,,-1.47028319369381,,
,5788.0,693.0,5817.0,1014.0,-83.0,1832.0,3544.0,,,,-0.286217601586531,-2.73455956258594,-0.476380761356416,,-1.4560156706983778,,
,5788.0,687.0,5814.0,1015.0,-83.0,1838.0,3540.0,,,,-0.286451245367896,-2.7351637333659,-0.477489965474603,,-1.422008361527937,,
,5787.0,687.0,5817.0,1014.0,-73.0,1855.0,3512.0,,,,-0.286877974749344,-2.73562837077991,-0.477775079774164,,-1.3641327101734355,,
,5790.0,689.0,5818.0,1016.0,-77.0,1855.0,3559.0,,,,-0.28727646582275,-2.73621232869373,-0.479296179117847,,-1.2787505507717918,,
,5791.0,689.0,5818.0,1015.0,-76.0,1867.0,3549.0,,,,-0.287794538747081,-2.73652224798543,-0.479174503426972,,-1.1631016461723132,,
,5791.0,689.0,5816.0,1014.0,-78.0,1877.0,3543.0,,,,-0.288073684923677,-2.7367732645632,-0.480181021176846,,-1.0156474773459663,,
,5789.0,687.0,5818.0,1013.0,-87.0,1866.0,3530.0,,,,-0.288174442796338,-2.73729478073085,-0.480414079893281,,-0.836330296577805,,
,5793.0,689.0,5821.0,1017.0,-90.0,1854.0,3530.0,,,,-0.288465444333972,-2.73734972768334,-0.481989331526349,,-0.6267171414554061,,
,5795.0,688.0,5819.0,1019.0,-82.0,1867.0,3523.0,,,,-0.288381643853148,-2.73743277511375,-0.481273013899383,,-0.3900136373038449,,
,5793.0,690.0,5823.0,1017.0,-81.0,1870.0,3538.0,,,,-0.288596555163831,-2.7374906012419,-0.481993144528458,,-0.1309487297720793,,
,5795.0,689.0,5822.0,1018.0,-79.0,1860.0,3526.0,,,,-0.288421856129449,-2.73753906253758,-0.481924249001952,,0.1444538516621602,,
,5796.0,690.0,5823.0,1020.0,-84.0,1873.0,3536.0,,,,-0.288461340142133,-2.73736308682029,-0.481933631350285,,0.4291904105225438,,
,5801.0,691.0,5825.0,1020.0,-82.0,1877.0,3519.0,,,,-0.288386493947057,-2.73738145300867,-0.480805953791123,,0.7156446024997405,,
,5799.0,692.0,5827.0,1019.0,-78.0,1869.0,3544.0,,,,-0.288400833054119,-2.73732555906121,-0.481192158443322,,0.9959713941834991,,
,5801.0,691.0,5827.0,1020.0,-80.0,1861.0,3537.0,,,,-0.288176556707611,-2.73736383416148,-0.481055880674139,,1.2624641607518259,,
2025-07-23 17:07:05,5799.0,690.0,5826.0,1019.0,-88.0,1835.0,3533.0,,,2025/07/23 05:07:05 PM,-0.288072296480424,-2.73723603234286,-0.481123765893993,,1.5078774995162578,,
,5802.0,690.0,5828.0,1020.0,-85.0,1834.0,3540.0,,,,-0.288047066341532,-2.73709993954802,-0.481034418932964,,1.7256871846799655,,
,5806.0,692.0,5834.0,1024.0,-76.0,1860.0,3544.0,,,,-0.288162486011547,-2.73710360159501,-0.480280851745327,,1.9102792843049516,,
,5801.0,694.0,5832.0,1024.0,-84.0,1867.0,3546.0,,,,-0.287915428949609,-2.73706715870192,-0.480520821152222,,2.057071480829103,,
,5806.0,693.0,5833.0,1022.0,-80.0,1869.0,3542.0,,,,-0.288074845422937,-2.7371183175045,-0.480537668042184,,2.1625791740449998,,
,5806.0,693.0,5833.0,1021.0,-79.0,1870.0,3540.0,,,,-0.287919661101368,-2.73677576818942,-0.480575226235735,,2.224444710791886,,
,5810.0,693.0,5837.0,1027.0,-87.0,1858.0,3541.0,,,,-0.288426712653233,-2.73669996339766,-0.480019681729863,,2.2414483570116803,,
,5807.0,692.0,5838.0,1024.0,-88.0,1854.0,3534.0,,,,-0.288114640485231,-2.73696548416141,-0.479355425832651,,2.21351441967018,,
,5811.0,692.0,5837.0,1024.0,-87.0,1839.0,3540.0,,,,-0.28805909021805,-2.73702774433393,-0.479908351991677,,2.141717281127836,,
,5808.0,691.0,5837.0,1025.0,-86.0,1859.0,3514.0,,,,-0.28811817145591,-2.73684680408105,-0.480669365478233,,2.028283067260334,,
,5812.0,692.0,5840.0,1025.0,-81.0,1864.0,3526.0,,,,-0.288083744817975,-2.73695837691891,-0.480440645517146,,1.8765757782361028,,
,5815.0,693.0,5843.0,1028.0,-74.0,1866.0,3533.0,,,,-0.287882230672709,-2.7368925072638,-0.480134444237982,,1.6910532155270916,,
,5814.0,694.0,5842.0,1028.0,-76.0,1874.0,3529.0,,,,-0.288021372381785,-2.73682723891866,-0.480523901140183,,1.477178053825043,,
,5813.0,694.0,5842.0,1027.0,-78.0,1889.0,3535.0,,,,-0.287904623746467,-2.73688525179828,-0.479658557846167,,1.2412724788920622,,
,5815.0,694.0,5847.0,1029.0,-84.0,1863.0,3547.0,,,,-0.287972308991847,-2.7369451153428,-0.479449093139964,,0.9903102995010499,,
,5815.0,692.0,5844.0,1028.0,-78.0,1868.0,3544.0,,,,-0.287745244576602,-2.73675306988464,-0.47950781598813,,0.7316476214294463,,
,5817.0,696.0,5849.0,1026.0,-79.0,1867.0,3547.0,,,,-0.287941264597026,-2.73654700507439,-0.480199069071311,,0.4727013071626341,,
,5819.0,696.0,5849.0,1029.0,-75.0,1847.0,3534.0,,,,-0.287666290905689,-2.73663436890314,-0.479545585990205,,0.22059282363416047,,
,5819.0,694.0,5849.0,1030.0,-89.0,1858.0,3521.0,,,,-0.287642998868946,-2.73696617176053,-0.479975135804808,,-0.018217131555261782,,
,5821.0,694.0,5855.0,1031.0,-80.0,1852.0,3530.0,,,,-0.287569403603085,-2.73660992902053,-0.479319551419555,,-0.23827186988719687,,
,5819.0,696.0,5853.0,1030.0,-76.0,1867.0,3533.0,,,,-0.287730352341863,-2.73682763175074,-0.480042594805072,,-0.4354059749774936,,
,5821.0,695.0,5855.0,1034.0,-75.0,1860.0,3527.0,,,,-0.287685030269527,-2.73694053915483,-0.48004657950565,,-0.6069452301067826,,
,5821.0,696.0,5856.0,1033.0,-81.0,1848.0,3537.0,,,,-0.287820558527443,-2.73698756515638,-0.479922325178855,,-0.751795705233419,,
,5822.0,695.0,5856.0,1032.0,-82.0,1871.0,3525.0,,,,-0.288134038895115,-2.73709717986258,-0.480711338338558,,-0.8704105431277795,,
,5823.0,697.0,5859.0,1033.0,-82.0,1868.0,3551.0,,,,-0.288405309255633,-2.73720207114367,-0.480547850367096,,-0.9646368944299304,,
,5825.0,696.0,5860.0,1034.0,-79.0,1868.0,3550.0,,,,-0.288335675678638,-2.73727655832981,-0.481059022850422,,-1.0374587420870416,,
,5826.0,696.0,5862.0,1032.0,-83.0,1870.0,3538.0,,,,-0.288436970099452,-2.73739162414283,-0.480487963176229,,-1.0926621773999134,,
,5825.0,696.0,5865.0,1037.0,-78.0,1880.0,3543.0,,,,-0.288288988522262,-2.73716402733906,-0.480448739853056,,-1.1344570217477326,,
,5828.0,698.0,5867.0,1034.0,-77.0,1848.0,3541.0,,,,-0.288411890658828,-2.73725078383448,-0.480653212365333,,-1.1670920946057763,,
,5829.0,697.0,5867.0,1037.0,-77.0,1855.0,3546.0,,,,-0.288317138782813,-2.73748133956503,-0.481000894175593,,-1.1945008046809131,,
,5827.0,696.0,5867.0,1033.0,-82.0,1868.0,3521.0,,,,-0.288500831025586,-2.73729441035905,-0.480268445597912,,-1.2200092363853103,,
,5826.0,695.0,5866.0,1034.0,-75.0,1862.0,3544.0,,,,-0.288594166595578,-2.73723814776721,-0.48154790720001,,-1.2461309156036318,,
,5826.0,698.0,5865.0,1032.0,-79.0,1868.0,3539.0,,,,-0.288516416464076,-2.73731790823018,-0.481326968971498,,-1.2744615973919953,,
,5822.0,698.0,5863.0,1034.0,-83.0,1868.0,3535.0,,,,-0.288579610562319,-2.7373812709109,-0.481288943957671,,-1.3056746662617935,,
,5817.0,696.0,5858.0,1028.0,-78.0,1852.0,3533.0,,,,-0.288582829135579,-2.73717551858805,-0.480517053354373,,-1.3396045462570827,,
,5818.0,696.0,5852.0,1027.0,-81.0,1832.0,3530.0,,,,-0.288395007580552,-2.73732840308681,-0.481240182771735,,-1.3753940137051928,,
,5813.0,697.0,5852.0,1025.0,-83.0,1841.0,3535.0,,,,-0.288367165574553,-2.73709508242794,-0.48132893714305,,-1.411673947269047,,
,5809.0,693.0,5846.0,1022.0,-77.0,1848.0,3523.0,,,,-0.288232525314672,-2.7369472976619,-0.480188350033554,,-1.4467427008721179,,
,5807.0,696.0,5841.0,1020.0,-78.0,1862.0,3512.0,,,,-0.288129729928774,-2.73702005311727,-0.480163488213062,,-1.4787172455913071,,
,5804.0,693.0,5839.0,1018.0,-79.0,1854.0,3508.0,,,,-0.287975118204805,-2.73699852134292,-0.480438514125119,,-1.50563800005505,,
,5799.0,693.0,5834.0,1017.0,-85.0,1848.0,3524.0,,,,-0.288096302456825,-2.73680216826584,-0.480509362178944,,-1.5255212713539945,,
,5796.0,694.0,5832.0,1016.0,-89.0,1850.0,3537.0,,,,-0.288051222469854,-2.73661631641397,-0.480804076288178,,-1.536364888251029,,
,5797.0,696.0,5827.0,1012.0,-84.0,1861.0,3544.0,,,,-0.28810770811299,-2.73660630228021,-0.480227324746245,,-1.5361220788458747,,
,5795.0,694.0,5826.0,1013.0,-82.0,1867.0,3550.0,,,,-0.288139029332402,-2.73635358417654,-0.480038233009493,,-1.5226648357104342,,
,5790.0,692.0,5823.0,1012.0,-90.0,1857.0,3536.0,,,,-0.28803956599612,-2.73669853382633,-0.479656052962807,,-1.493760324589624,,
,5794.0,695.0,5823.0,1013.0,-85.0,1865.0,3542.0,,,,-0.287918248241989,-2.7366925786157,-0.479204638001117,,-1.447082128101126,,
,5789.0,692.0,5822.0,1012.0,-85.0,1863.0,3540.0,,,,-0.287882963945429,-2.73625673990704,-0.479793995962346,,-1.3802725371751325,,
,5789.0,693.0,5819.0,1011.0,-84.0,1862.0,3539.0,,,,-0.287691440279738,-2.73629159490031,-0.479712037598467,,-1.2910634256261992,,
,5788.0,693.0,5820.0,1009.0,-82.0,1870.0,3546.0,,,,-0.287363133432181,-2.7362738226002,-0.479000529681902,,-1.1774525507467302,,
,5787.0,693.0,5818.0,1010.0,-83.0,1887.0,3531.0,,,,-0.287322244856029,-2.73612734766204,-0.478732976943067,,-1.037920865470882,,
,5787.0,693.0,5816.0,1009.0,-87.0,1865.0,3518.0,,,,-0.28731704285315,-2.73605501597944,-0.477937275732367,,-0.8716664816051511,,
,5786.0,693.0,5816.0,1010.0,-89.0,1864.0,3514.0,,,,-0.287044329034913,-2.73574148117907,-0.478188514705214,,-0.6788244573141294,,
,5785.0,693.0,5814.0,1010.0,-84.0,1868.0,3523.0,,,,-0.287237186660697,-2.73567865904348,-0.477991771750871,,-0.46064043934115184,,
,5782.0,690.0,5813.0,1007.0,-75.0,1857.0,3518.0,,,,-0.287099431619644,-2.73570229413955,-0.478160681425324,,-0.2195709390239858,,
,5786.0,690.0,5815.0,1008.0,-79.0,1854.0,3511.0,,,,-0.286835163992232,-2.73572539504544,-0.477398113765038,,0.04070750459424623,,
,5786.0,695.0,5814.0,1009.0,-75.0,1853.0,3530.0,,,,-0.286747296127165,-2.73551069629173,-0.478155441517052,,0.31538611730475047,,
,5786.0,693.0,5814.0,1007.0,-75.0,1850.0,3532.0,,,,-0.286789701309912,-2.73534064110207,-0.477805592615301,,0.5987025114734108,,
,5783.0,692.0,5814.0,1009.0,-84.0,1866.0,3524.0,,,,-0.286835528666345,-2.73524742338469,-0.477135544893367,,0.8841937684633903,,
,5784.0,692.0,5812.0,1009.0,-83.0,1865.0,3511.0,,,,-0.286751894042601,-2.73530234164914,-0.478131305128823,,1.165000191304477,,
,5784.0,693.0,5812.0,1010.0,-80.0,1851.0,3516.0,,,,-0.286690547072033,-2.73536166854361,-0.476087716552014,,1.4341918200804156,,
,5787.0,693.0,5813.0,1010.0,-86.0,1849.0,3523.0,,,,-0.286569842029693,-2.73521413356918,-0.476455117212582,,1.6850890163369876,,
,5786.0,694.0,5815.0,1009.0,-81.0,1855.0,3509.0,,,,-0.286516511766458,-2.73529278505938,-0.476797017099631,,1.911550689221766,,
,5784.0,693.0,5814.0,1008.0,-77.0,1856.0,3514.0,,,,-0.286520613639691,-2.7350016570783,-0.476793503598549,,2.1082086673636127,,
,5787.0,694.0,5814.0,1009.0,-82.0,1858.0,3519.0,,,,-0.286394717261218,-2.73503932602909,-0.476943131729682,,2.2706340074139795,,
,5785.0,693.0,5812.0,1011.0,-83.0,1863.0,3537.0,,,,-0.286287815612132,-2.7347614779953,-0.476111173648776,,2.3954303434859505,,
,5789.0,690.0,5811.0,1008.0,-85.0,1874.0,3536.0,,,,-0.28629948189765,-2.7349265680885,-0.476119082891337,,2.480259842136418,,
,5788.0,692.0,5810.0,1008.0,-72.0,1870.0,3541.0,,,,-0.286526375656097,-2.73509421068038,-0.476432111261607,,2.5238169823598025,,
,5787.0,692.0,5810.0,1008.0,-74.0,1856.0,3531.0,,,,-0.286486077559241,-2.73517049623414,-0.475806435981537,,2.525771524236195,,
,5787.0,691.0,5812.0,1009.0,-79.0,1853.0,3536.0,,,,-0.286456122912358,-2.73496988986429,-0.4760432114575,,2.4867025894512382,,
,5786.0,692.0,5809.0,1009.0,-76.0,1847.0,3535.0,,,,-0.28623520344359,-2.73493089408789,-0.476529797826954,,2.4080406805017915,,
,5784.0,692.0,5809.0,1008.0,-84.0,1835.0,3527.0,,,,-0.286319610908267,-2.73496251491048,-0.47599742862252,,2.2920257073914247,,
,5785.0,694.0,5809.0,1009.0,-87.0,1857.0,3550.0,,,,-0.286163429925847,-2.73495973658771,-0.475548809391047,,2.141679510020802,,
,5788.0,693.0,5807.0,1007.0,-83.0,1864.0,3542.0,,,,-0.285971095069408,-2.73478093920337,-0.476090667227443,,1.9607833015220923,,
,5784.0,691.0,5807.0,1006.0,-79.0,1856.0,3532.0,,,,-0.285817286662583,-2.73473851121766,-0.475274140875261,,1.7538452248181846,,
,5786.0,692.0,5805.0,1007.0,-80.0,1845.0,3507.0,,,,-0.286014083003899,-2.73491813040136,-0.475652359965633,,1.5260413251123397,,
,5785.0,693.0,5805.0,1005.0,-76.0,1862.0,3513.0,,,,-0.285744260033016,-2.7346148887655,-0.475105565120974,,1.283114729966654,,
,5783.0,691.0,5803.0,1009.0,-81.0,1848.0,3529.0,,,,-0.285851075611536,-2.73468774516099,-0.475671131925915,,1.0312223269570033,,
,5785.0,694.0,5805.0,1006.0,-84.0,1853.0,3542.0,,,,-0.285790005087519,-2.73462527197752,-0.475560740115347,,0.7767250512916822,,
,5784.0,692.0,5803.0,1005.0,-82.0,1864.0,3545.0,,,,-0.285647491929535,-2.73469387417737,-0.475012678513249,,0.5259262967998763,,
,5781.0,692.0,5799.0,1003.0,-91.0,1865.0,3532.0,,,,-0.285517214939328,-2.73455735142557,-0.47518431116865,,0.28477222806530567,,
,5781.0,693.0,5799.0,1004.0,-85.0,1864.0,3544.0,,,,-0.285360619246609,-2.73449578832203,-0.474867381642042,,0.05853691379102295,,
,5782.0,693.0,5800.0,1006.0,-91.0,1863.0,3543.0,,,,-0.28533227210886,-2.73429595037618,-0.473696678488068,,-0.14847737689386467,,
,5782.0,693.0,5796.0,1006.0,-90.0,1859.0,3534.0,,,,-0.285281153344684,-2.73430681986152,-0.474437052031177,,-0.3331907262136166,,
,5783.0,693.0,5798.0,1006.0,-90.0,1868.0,3541.0,,,,-0.285463499537464,-2.73442011615131,-0.475368098298763,,-0.493914791677693,,
,5778.0,692.0,5797.0,1006.0,-84.0,1866.0,3536.0,,,,-0.285624778610611,-2.73480884886282,-0.474854885101552,,-0.6304161162775985,,
,5782.0,694.0,5797.0,1005.0,-81.0,1850.0,3541.0,,,,-0.286069115151553,-2.73503608848616,-0.475522079148898,,-0.7438609221511769,,
,5784.0,692.0,5798.0,1006.0,-88.0,1858.0,3554.0,,,,-0.286448767551669,-2.73509780124636,-0.476202678592642,,-0.836642729263038,,
,5784.0,693.0,5798.0,1006.0,-94.0,1854.0,3546.0,,,,-0.286925830750654,-2.73582781719979,-0.476840777848372,,-0.9121076033362812,,
,5782.0,692.0,5797.0,1006.0,-82.0,1872.0,3543.0,,,,-0.287171741058995,-2.73628462333811,-0.478316368755847,,-0.9742030309904142,,
,5784.0,692.0,5796.0,1006.0,-85.0,1859.0,3548.0,,,,-0.287607216895139,-2.73638866012517,-0.478240742660807,,-1.0270843032586858,,
,5786.0,692.0,5798.0,1007.0,-93.0,1850.0,3533.0,,,,-0.287960724032065,-2.73655266477648,-0.480370156435994,,-1.0747163478830648,,
,5785.0,694.0,5801.0,1008.0,-87.0,1862.0,3533.0,,,,-0.288212149041075,-2.73698212156496,-0.479900486880936,,-1.1205090141730503,,
,5784.0,694.0,5799.0,1006.0,-92.0,1870.0,3520.0,,,,-0.288533248743451,-2.73703973334991,-0.481788749854789,,-1.167019985845557,,
,5786.0,695.0,5800.0,1008.0,-88.0,1872.0,3518.0,,,,-0.288568797870766,-2.73727569951432,-0.48147491830158,,-1.215752119036864,,
,5785.0,694.0,5803.0,1008.0,-85.0,1868.0,3524.0,,,,-0.288744869435495,-2.737459194526,-0.4819630474609,,-1.267061633412285,,
,5788.0,691.0,5797.0,1008.0,-89.0,1862.0,3528.0,,,,-0.288729927545836,-2.73761619749186,-0.481540295716384,,-1.3201810657571744,,
,5790.0,693.0,5802.0,1010.0,-84.0,1864.0,3533.0,,,,-0.288692785886904,-2.73759588942957,-0.481208398079048,,-1.3733475070066505,,
,5792.0,693.0,5803.0,1009.0,-88.0,1840.0,3549.0,,,,-0.288635801243437,-2.73741235590872,-0.480808284925228,,-1.424014226935375,,
,5790.0,693.0,5801.0,1009.0,-86.0,1840.0,3550.0,,,,-0.288729704984991,-2.73726031881695,-0.480254654395029,,-1.4691145923882583,,
,5791.0,693.0,5802.0,1010.0,-84.0,1851.0,3547.0,,,,-0.288348923822714,-2.73719093567471,-0.480805336454496,,-1.5053431895750242,,
,5794.0,692.0,5807.0,1011.0,-81.0,1846.0,3535.0,,,,-0.288295463744202,-2.73709241335475,-0.480672580234139,,-1.5294210393416843,,
,5794.0,693.0,5806.0,1011.0,-85.0,1850.0,3509.0,,,,-0.288232467686305,-2.73714593237296,-0.480485226394549,,-1.5383188188486248,,
,5793.0,694.0,5806.0,1012.0,-77.0,1867.0,3512.0,,,,-0.288262141520524,-2.73675991772867,-0.480031390713182,,-1.5294219266097446,,
,5795.0,694.0,5804.0,1013.0,-79.0,1853.0,3508.0,,,,-0.288126644307218,-2.73683191048802,-0.479383550076094,,-1.5006317310170993,,
,5797.0,694.0,5806.0,1014.0,-83.0,1848.0,3514.0,,,,-0.288034620657756,-2.73688525000648,-0.479364930421164,,-1.45040672810324,,
,5795.0,692.0,5809.0,1011.0,-87.0,1865.0,3501.0,,,,-0.287750688151097,-2.73653370658675,-0.479769061633493,,-1.3777546764244661,,
,5798.0,692.0,5809.0,1013.0,-83.0,1860.0,3527.0,,,,-0.287964231328112,-2.7364251170424,-0.478915638322362,,-1.2821916842710366,,
,5796.0,695.0,5810.0,1013.0,-81.0,1852.0,3526.0,,,,-0.287621771568536,-2.73677932210874,-0.479087556444998,,-1.1636866339025616,,
,5801.0,694.0,5813.0,1015.0,-78.0,1853.0,3529.0,,,,-0.287702716381715,-2.73644749896668,-0.479277879010836,,-1.0226093838456354,,
,5800.0,695.0,5813.0,1013.0,-74.0,1869.0,3555.0,,,,-0.287874960724938,-2.73638167917049,-0.479201693956741,,-0.8596990499755868,,
,5797.0,693.0,5814.0,1014.0,-87.0,1870.0,3530.0,,,,-0.287921824775303,-2.73660296479612,-0.48028191815238,,-0.676064299838453,,
,5804.0,697.0,5818.0,1019.0,-90.0,1854.0,3537.0,,,,-0.287880719475171,-2.73666547688457,-0.478694887363488,,-0.47322088605028734,,
,5804.0,693.0,5816.0,1017.0,-88.0,1858.0,3524.0,,,,-0.287892833570646,-2.73657146614138,-0.479107864726914,,-0.2531628875340736,,
,5805.0,697.0,5818.0,1017.0,-88.0,1853.0,3542.0,,,,-0.287480880170561,-2.73643766509034,-0.478904995050456,,-0.018454583141213912,,
,5799.0,694.0,5818.0,1015.0,-84.0,1860.0,3534.0,,,,-0.287498532387564,-2.73638752829026,-0.478796033496006,,0.22767819944586842,,
,5804.0,695.0,5819.0,1017.0,-81.0,1857.0,3544.0,,,,-0.28760329078479,-2.73626902116147,-0.479777424294021,,0.4812826542538269,,
,5809.0,696.0,5823.0,1019.0,-75.0,1847.0,3510.0,,,,-0.287317868039885,-2.73605140319848,-0.478845263725971,,0.7376640165335767,,
,5809.0,697.0,5824.0,1022.0,-67.0,1855.0,3509.0,,,,-0.287337782649668,-2.73619328635936,-0.477866089196006,,0.9914400208825469,,
,5807.0,696.0,5823.0,1019.0,-80.0,1842.0,3516.0,,,,-0.287304679167786,-2.7361965298521,-0.478075957710659,,1.2366751021319289,,
,5807.0,695.0,5822.0,1020.0,-89.0,1852.0,3504.0,,,,-0.287297279269133,-2.73586941390673,-0.478390938578694,,1.4670944383508349,,
,5809.0,697.0,5823.0,1021.0,-85.0,1862.0,3519.0,,,,-0.287343868176173,-2.73569992005252,-0.478164779649179,,1.6763674331979248,,
,5809.0,695.0,5825.0,1020.0,-87.0,1866.0,3503.0,,,,-0.287233021724335,-2.73589055263545,-0.47857214293519,,1.8584403916760457,,
,5812.0,695.0,5826.0,1023.0,-91.0,1859.0,3518.0,,,,-0.287111410010344,-2.7357380280088,-0.478043402315755,,2.007889938342286,,
,5810.0,693.0,5825.0,1022.0,-86.0,1858.0,3528.0,,,,-0.286991321804904,-2.7355795967103,-0.478801066632622,,2.120263199994953,,
,5813.0,697.0,5827.0,1023.0,-83.0,1866.0,3523.0,,,,-0.28723226092747,-2.73592054378971,-0.4780581727346,,2.192368893087361,,
,5811.0,699.0,5832.0,1024.0,-81.0,1872.0,3503.0,,,,-0.287144144970853,-2.73565499932544,-0.477746360408172,,2.2224860375494946,,
,5816.0,697.0,5834.0,1025.0,-81.0,1874.0,3515.0,,,,-0.287270011017498,-2.73581421772504,-0.478523357634067,,2.210464622781797,,
,5815.0,696.0,5833.0,1024.0,-67.0,1849.0,3507.0,,,,-0.287206330094758,-2.73605514446857,-0.478583742847154,,2.1577050735978722,,
2025-07-23 17:07:06,5813.0,696.0,5834.0,1024.0,-83.0,1863.0,3518.0,,,2025/07/23 05:07:06 PM,-0.287361568652328,-2.73600947838933,-0.47851561433143,,2.0670193786447904,,
,5819.0,698.0,5838.0,1027.0,-81.0,1854.0,3523.0,,,,-0.287245507599368,-2.73602539601704,-0.478299996897297,,1.9423931933214154,,
,5817.0,700.0,5837.0,1027.0,-83.0,1852.0,3530.0,,,,-0.287089867612419,-2.73605109796972,-0.478682485107969,,1.7886811737449888,,
,5819.0,696.0,5836.0,1026.0,-89.0,1844.0,3550.0,,,,-0.287146265613397,-2.7358706350172,-0.478397057665917,,1.6112741405970885,,
,5816.0,697.0,5833.0,1025.0,-89.0,1852.0,3537.0,,,,-0.287092685714072,-2.73605009194272,-0.478056230854308,,1.4157756421895633,,
,5817.0,697.0,5833.0,1025.0,-77.0,1872.0,3515.0,,,,-0.287218341863659,-2.73591960569419,-0.478124948292561,,1.207718646238252,,
,5815.0,696.0,5831.0,1022.0,-82.0,1864.0,3520.0,,,,-0.286964149912892,-2.7359360421503,-0.477994307309657,,0.9923429861020615,,
,5810.0,697.0,5828.0,1022.0,-81.0,1866.0,3530.0,,,,-0.287087637788052,-2.73601168330748,-0.477828303252364,,0.7744430263108563,,
,5809.0,697.0,5821.0,1019.0,-76.0,1874.0,3527.0,,,,-0.287041769416288,-2.73607674036862,-0.47836677934026,,0.5582843224793823,,
,5806.0,695.0,5820.0,1017.0,-78.0,1867.0,3540.0,,,,-0.286879697441315,-2.73583462469628,-0.477796547823646,,0.34757896801417454,,
,5802.0,695.0,5815.0,1015.0,-89.0,1850.0,3525.0,,,,-0.286738320850078,-2.73573988885662,-0.477939962473344,,0.14550272274636245,,
,5796.0,695.0,5809.0,1012.0,-86.0,1854.0,3523.0,,,,-0.286829387360109,-2.73560100495251,-0.477366707983039,,-0.04526655396702268,,
,5794.0,692.0,5802.0,1010.0,-83.0,1865.0,3519.0,,,,-0.286768269097944,-2.73549973777331,-0.47716415994294,,-0.2225099352175666,,
,5791.0,693.0,5799.0,1007.0,-78.0,1843.0,3529.0,,,,-0.286537017451537,-2.73547374313221,-0.47733345200545,,-0.38444558416321895,,
,5787.0,693.0,5798.0,1005.0,-78.0,1855.0,3523.0,,,,-0.286547104323673,-2.73545942575628,-0.477442535896135,,-0.5297352858273969,,
,5786.0,693.0,5789.0,1006.0,-83.0,1861.0,3516.0,,,,-0.286344429310242,-2.7352241452958,-0.476728810668022,,-0.6575215452580795,,
,5782.0,692.0,5789.0,1003.0,-88.0,1857.0,3505.0,,,,-0.286323901993068,-2.73515078856606,-0.475793270070224,,-0.7674872779133847,,
,5779.0,692.0,5783.0,1000.0,-86.0,1863.0,3538.0,,,,-0.286306673718942,-2.73539790740354,-0.476284993061486,,-0.8599211883992973,,
,5777.0,692.0,5781.0,1002.0,-78.0,1858.0,3551.0,,,,-0.28623650846549,-2.73517733014904,-0.475965497483195,,-0.9357667215405686,,
,5778.0,692.0,5782.0,1004.0,-72.0,1842.0,3535.0,,,,-0.286005823009186,-2.73527567901918,-0.476070783909959,,-0.9966325162303872,,
,5774.0,691.0,5778.0,1002.0,-76.0,1845.0,3533.0,,,,-0.286136136465923,-2.73506876621301,-0.476521409911036,,-1.044747465254814,,
,5774.0,692.0,5775.0,997.0,-76.0,1853.0,3495.0,,,,-0.285977602883532,-2.73497130736201,-0.475953862288118,,-1.0828521722072522,,
,5772.0,688.0,5770.0,1000.0,-87.0,1845.0,3525.0,,,,-0.285862813474533,-2.73503996173321,-0.476109529968514,,-1.1140286157305932,,
,5771.0,692.0,5772.0,1002.0,-93.0,1856.0,3534.0,,,,-0.285929569987889,-2.73506725952745,-0.47556170371777,,-1.1414792911833165,,
,5773.0,694.0,5772.0,999.0,-85.0,1870.0,3525.0,,,,-0.285733049750932,-2.73491830147372,-0.475639516589147,,-1.1682747384733114,,
,5772.0,690.0,5770.0,1000.0,-81.0,1871.0,3520.0,,,,-0.285745204809083,-2.73502999958805,-0.475935807198251,,-1.197093461531795,,
,5769.0,690.0,5764.0,997.0,-82.0,1865.0,3526.0,,,,-0.285569002570221,-2.73489055592035,-0.475126497950098,,-1.2299804665420833,,
,5768.0,689.0,5766.0,998.0,-88.0,1846.0,3529.0,,,,-0.28557192861045,-2.73460773461585,-0.474577798864267,,-1.2681499556340727,,
,5770.0,691.0,5766.0,997.0,-87.0,1862.0,3536.0,,,,-0.285453715898661,-2.73440821228468,-0.475175534229049,,-1.311854249832542,,
,5770.0,689.0,5765.0,998.0,-92.0,1867.0,3554.0,,,,-0.285319198403932,-2.73460778608905,-0.474131405553277,,-1.3603349654099057,,
,5767.0,688.0,5764.0,995.0,-89.0,1852.0,3550.0,,,,-0.285232723551439,-2.73452301180572,-0.4749148264693,,-1.4118640843205208,,
,5769.0,691.0,5765.0,999.0,-87.0,1844.0,3537.0,,,,-0.285138711425123,-2.73422060914509,-0.474453616877417,,-1.463872390746702,,
,5768.0,689.0,5763.0,997.0,-83.0,1839.0,3529.0,,,,-0.285229543718077,-2.7341296706504,-0.474047187610492,,-1.513151928829571,,
,5768.0,690.0,5762.0,998.0,-84.0,1842.0,3536.0,,,,-0.284953270656558,-2.73421042756674,-0.473666432741616,,-1.5561094846051942,,
,5767.0,689.0,5761.0,998.0,-85.0,1850.0,3529.0,,,,-0.285009102383985,-2.73413115286182,-0.473383136396664,,-1.58904172022958,,
,5767.0,688.0,5760.0,994.0,-83.0,1877.0,3526.0,,,,-0.284826787014386,-2.73389084796386,-0.473155528196427,,-1.6084010623990488,,
,5769.0,689.0,5759.0,998.0,-81.0,1865.0,3541.0,,,,-0.28483683069747,-2.73403680055493,-0.473070434795797,,-1.6110249890953856,,
,5767.0,691.0,5760.0,1000.0,-82.0,1865.0,3539.0,,,,-0.284441651509847,-2.73374780173474,-0.472701948303361,,-1.5943087332133399,,
,5768.0,688.0,5760.0,998.0,-84.0,1858.0,3528.0,,,,-0.284123138208275,-2.73341848123009,-0.472720070854373,,-1.5563106689689148,,
,5767.0,688.0,5758.0,996.0,-91.0,1848.0,3529.0,,,,-0.283890165140186,-2.73334924195046,-0.47165031799482,,-1.4957890171457568,,
,5769.0,688.0,5759.0,997.0,-86.0,1855.0,3537.0,,,,-0.283648978526561,-2.73281661683668,-0.470904615372579,,-1.4121768948336235,,
,5766.0,688.0,5755.0,997.0,-80.0,1876.0,3532.0,,,,-0.28327849644587,-2.73284552119864,-0.471219149706928,,-1.305509563378968,,
,5765.0,688.0,5757.0,997.0,-81.0,1875.0,3526.0,,,,-0.283332089595644,-2.73267797485313,-0.470277494519331,,-1.1763226525873152,,
,5767.0,688.0,5756.0,996.0,-78.0,1840.0,3511.0,,,,-0.283039764243521,-2.73251021357809,-0.469698857304763,,-1.0255428860745424,,
,5766.0,688.0,5750.0,995.0,-77.0,1848.0,3512.0,,,,-0.283116763250824,-2.73245675853563,-0.469563731757767,,-0.8543930962828429,,
,5764.0,687.0,5752.0,994.0,-76.0,1866.0,3527.0,,,,-0.28308677048428,-2.73250806568589,-0.469830744899454,,-0.6643306992787281,,
,5764.0,689.0,5751.0,997.0,-79.0,1842.0,3528.0,,,,-0.282869559618819,-2.73248833214186,-0.470069988744218,,-0.45703294443139447,,
,5765.0,687.0,5748.0,996.0,-78.0,1839.0,3516.0,,,,-0.283014324437335,-2.7324358212292,-0.469867123832709,,-0.23443328402942148,,
,5763.0,684.0,5747.0,994.0,-86.0,1861.0,3526.0,,,,-0.28298666419316,-2.73242016629807,-0.470390517052516,,0.0011977612147042154,,
,5762.0,688.0,5748.0,994.0,-82.0,1872.0,3517.0,,,,-0.283023216932442,-2.73227147836668,-0.469794946673845,,0.24714459345333112,,
,5763.0,690.0,5747.0,995.0,-82.0,1863.0,3528.0,,,,-0.2831229898741,-2.73223211560855,-0.469534827122239,,0.500136517034815,,
,5764.0,688.0,5745.0,994.0,-81.0,1862.0,3533.0,,,,-0.283047031848329,-2.73242194320293,-0.469725462103076,,0.7562637053706657,,
,5759.0,687.0,5741.0,994.0,-82.0,1847.0,3529.0,,,,-0.283207586759009,-2.73242439512062,-0.469372671723254,,1.0109447960060776,,
,5759.0,687.0,5739.0,991.0,-87.0,1862.0,3524.0,,,,-0.283222053181361,-2.73230764718752,-0.470107213665381,,1.2589653206288105,,
,5762.0,688.0,5740.0,994.0,-82.0,1848.0,3540.0,,,,-0.2831561091351,-2.73242949313448,-0.470264638495174,,1.4945972970114705,,
,5760.0,688.0,5740.0,994.0,-86.0,1836.0,3541.0,,,,-0.283333653287717,-2.73263928336327,-0.469269678924563,,1.711800267289019,,
,5761.0,688.0,5740.0,995.0,-79.0,1834.0,3538.0,,,,-0.283136500793423,-2.73275874590002,-0.470334896502421,,1.9044937441967444,,
,5759.0,687.0,5736.0,995.0,-83.0,1843.0,3532.0,,,,-0.283368140675134,-2.73278278565433,-0.470803322589353,,2.0668812778249874,,
,5761.0,688.0,5739.0,994.0,-80.0,1853.0,3535.0,,,,-0.283291910833266,-2.73257090494908,-0.470736546411523,,2.1937981693471786,,
,5762.0,689.0,5739.0,995.0,-86.0,1876.0,3512.0,,,,-0.283324270681418,-2.73266206492896,-0.470467974328014,,2.2810492533714166,,
,5762.0,687.0,5737.0,995.0,-88.0,1863.0,3514.0,,,,-0.283278259615731,-2.73272341996093,-0.470298290442329,,2.3257011472512525,,
,5758.0,684.0,5738.0,993.0,-84.0,1853.0,3516.0,,,,-0.283675032649733,-2.73288004423683,-0.471404842532279,,2.3262959138798154,,
,5762.0,687.0,5736.0,995.0,-84.0,1858.0,3520.0,,,,-0.28382374872683,-2.73336343574554,-0.471734931298552,,2.282960886166963,,
,5761.0,689.0,5737.0,997.0,-92.0,1863.0,3540.0,,,,-0.284068968434082,-2.73379941912858,-0.472692946964297,,2.1974021069548426,,
,5761.0,688.0,5740.0,997.0,-97.0,1856.0,3538.0,,,,-0.284505349029173,-2.73413119346544,-0.473383415508707,,2.0727844006343803,,
,5763.0,687.0,5737.0,995.0,-95.0,1846.0,3532.0,,,,-0.285108986796345,-2.7346210472497,-0.47475379284174,,1.9135159915358828,,
,5763.0,687.0,5738.0,995.0,-81.0,1864.0,3523.0,,,,-0.285428986239163,-2.73485171455303,-0.474961563522189,,1.72496622880542,,
,5763.0,687.0,5740.0,995.0,-92.0,1867.0,3517.0,,,,-0.285900870333212,-2.73521665447547,-0.475927323967272,,1.5131493920135264,,
,5764.0,687.0,5740.0,998.0,-86.0,1873.0,3538.0,,,,-0.286329499671256,-2.73567996296245,-0.477643432418056,,1.284406021156458,,
,5766.0,688.0,5741.0,999.0,-84.0,1871.0,3546.0,,,,-0.286638862438253,-2.73598849664785,-0.478592063372687,,1.0451075387131634,,
,5764.0,688.0,5741.0,998.0,-83.0,1851.0,3527.0,,,,-0.286858843218172,-2.73616697955033,-0.478806197601119,,0.8014021310953837,,
,5767.0,689.0,5743.0,997.0,-83.0,1871.0,3532.0,,,,-0.287145487907775,-2.73647348308644,-0.479957600682953,,0.559011420500164,,
,5766.0,689.0,5743.0,1000.0,-84.0,1867.0,3523.0,,,,-0.28752796954115,-2.73637664601525,-0.478845610089171,,0.32307941288662695,,
,5767.0,689.0,5746.0,998.0,-79.0,1878.0,3526.0,,,,-0.287711513306616,-2.73651832510619,-0.478742310186813,,0.0980684270026212,,
,5768.0,687.0,5745.0,999.0,-78.0,1856.0,3532.0,,,,-0.287341842944372,-2.73673866589513,-0.479301198673293,,-0.1123080410985272,,
,5771.0,688.0,5746.0,998.0,-83.0,1870.0,3543.0,,,,-0.287356064918235,-2.73679015202505,-0.478658300948229,,-0.305127692330617,,
,5769.0,689.0,5746.0,1001.0,-79.0,1877.0,3548.0,,,,-0.28732430478372,-2.73637392949662,-0.479371282073063,,-0.47828829555987296,,
,5773.0,692.0,5749.0,1001.0,-79.0,1872.0,3543.0,,,,-0.287157800849041,-2.7363453711848,-0.478611508256063,,-0.6305302336243631,,
,5772.0,691.0,5749.0,1000.0,-69.0,1856.0,3530.0,,,,-0.287170687458243,-2.73626397306999,-0.478597941232745,,-0.7614532417619625,,
,5771.0,689.0,5751.0,1003.0,-82.0,1857.0,3537.0,,,,-0.286863831541503,-2.73643162651269,-0.477973959506985,,-0.8715202067151785,,
,5774.0,690.0,5751.0,1004.0,-86.0,1862.0,3541.0,,,,-0.287146732901861,-2.73618832220165,-0.478335559820153,,-0.9620346512512148,,
,5773.0,690.0,5753.0,1004.0,-91.0,1854.0,3550.0,,,,-0.286939077360218,-2.73606463104952,-0.477780842125554,,-1.0350760284900693,,
,5774.0,691.0,5754.0,1002.0,-91.0,1851.0,3543.0,,,,-0.286898509478035,-2.73605390025177,-0.477733556513511,,-1.0933793777348486,,
,5772.0,687.0,5755.0,1003.0,-89.0,1847.0,3527.0,,,,-0.286834046526364,-2.73613189778676,-0.478239235008389,,-1.1401527429222515,,
,5774.0,689.0,5757.0,1003.0,-89.0,1858.0,3534.0,,,,-0.286898622751515,-2.73577479413953,-0.478098035243688,,-1.1788352626559304,,
,5774.0,688.0,5756.0,1005.0,-87.0,1859.0,3542.0,,,,-0.286859774637793,-2.73585137170785,-0.478047503498505,,-1.2128089169107306,,
,5777.0,692.0,5757.0,1007.0,-85.0,1862.0,3547.0,,,,-0.286945324984403,-2.73592326661621,-0.478321289759805,,-1.245085832383281,,
,5777.0,688.0,5760.0,1004.0,-80.0,1846.0,3560.0,,,,-0.286855569755682,-2.73602717401489,-0.477479297314016,,-1.2779996030999217,,
,5776.0,690.0,5759.0,1003.0,-84.0,1860.0,3545.0,,,,-0.286972233168966,-2.73597052135077,-0.478337694499153,,-1.312932466340325,,
,5780.0,693.0,5761.0,1006.0,-86.0,1842.0,3540.0,,,,-0.286733336212334,-2.736035802772,-0.478213941081213,,-1.3501098868614063,,
,5781.0,693.0,5765.0,1009.0,-80.0,1860.0,3533.0,,,,-0.286648591234782,-2.73584364766932,-0.478024471225607,,-1.3884899658916887,,
,5780.0,690.0,5765.0,1009.0,-74.0,1860.0,3529.0,,,,-0.286760888674194,-2.73568380253442,-0.478402958644208,,-1.4257672351714872,,
,5779.0,689.0,5763.0,1004.0,-83.0,1842.0,3538.0,,,,-0.286653858773503,-2.73578978118426,-0.477888556419929,,-1.4584992580737899,,
,5783.0,692.0,5765.0,1008.0,-88.0,1847.0,3539.0,,,,-0.286591473530562,-2.73575756802684,-0.476561138136867,,-1.482350905047602,,
,5782.0,692.0,5769.0,1009.0,-74.0,1849.0,3539.0,,,,-0.286490307392865,-2.73557022394265,-0.477453609085958,,-1.4924367037709885,,
,5783.0,693.0,5770.0,1009.0,-72.0,1863.0,3531.0,,,,-0.286261073953812,-2.73580084806921,-0.477035151903303,,-1.4837285193609098,,
,5784.0,692.0,5771.0,1007.0,-91.0,1854.0,3533.0,,,,-0.286288897518238,-2.73573976283259,-0.476348205925058,,-1.4514866149558063,,
,5782.0,691.0,5770.0,1007.0,-92.0,1836.0,3515.0,,,,-0.286332661802856,-2.73547489469645,-0.477271253991827,,-1.3916690026420975,,
,5785.0,694.0,5775.0,1012.0,-87.0,1846.0,3517.0,,,,-0.286604933976112,-2.73570232387505,-0.477640061498871,,-1.3012776174841132,,
,5786.0,694.0,5774.0,1011.0,-87.0,1847.0,3538.0,,,,-0.286705454030199,-2.73567205326157,-0.476829126780396,,-1.1786092675401487,,
,5785.0,691.0,5775.0,1012.0,-87.0,1829.0,3539.0,,,,-0.28661140760329,-2.73594102591509,-0.476723112546365,,-1.0233925219148448,,
,5785.0,692.0,5775.0,1012.0,-89.0,1827.0,3552.0,,,,-0.286680538055772,-2.73552961587465,-0.477186151193023,,-0.8368064809625272,,
,5788.0,692.0,5779.0,1013.0,-91.0,1843.0,3524.0,,,,-0.286741969854983,-2.73558043591988,-0.477118573398992,,-0.62139170572509,,
,5788.0,693.0,5782.0,1012.0,-81.0,1862.0,3532.0,,,,-0.28639680245038,-2.73560877789253,-0.477309735780531,,-0.3808756670219672,,
,5790.0,695.0,5782.0,1014.0,-79.0,1860.0,3531.0,,,,-0.286654264010372,-2.73569712653502,-0.477639467623925,,-0.11994340338495449,,
,5790.0,692.0,5783.0,1012.0,-81.0,1859.0,3530.0,,,,-0.286704989665375,-2.73581073539229,-0.476651376971975,,0.15601236229677756,,
,5791.0,694.0,5781.0,1013.0,-88.0,1858.0,3536.0,,,,-0.286647962024139,-2.7356923851924,-0.477181683513675,,0.4411290550195867,,
,5789.0,694.0,5783.0,1012.0,-78.0,1844.0,3528.0,,,,-0.286625557727959,-2.73596814501834,-0.477667107675195,,0.7292742655482615,,
,5792.0,696.0,5786.0,1017.0,-75.0,1846.0,3523.0,,,,-0.286757141026503,-2.73601664241693,-0.477231388703228,,1.014193577832899,,
,5790.0,693.0,5782.0,1013.0,-69.0,1854.0,3518.0,,,,-0.286695343603604,-2.73598087189716,-0.477747278378382,,1.2896062649349482,,
,5791.0,694.0,5782.0,1015.0,-75.0,1857.0,3530.0,,,,-0.286637294955302,-2.73605875252932,-0.477938324352237,,1.5492636921406502,,
,5789.0,695.0,5783.0,1015.0,-77.0,1837.0,3554.0,,,,-0.286616719874686,-2.73588316911927,-0.477281165344545,,1.7869967793784962,,
,5787.0,694.0,5778.0,1013.0,-87.0,1832.0,3541.0,,,,-0.286534381372991,-2.73600591029618,-0.477318987494315,,1.996783760112198,,
,5784.0,695.0,5777.0,1009.0,-83.0,1856.0,3525.0,,,,-0.286550514872003,-2.73605612620574,-0.478239888080653,,2.1728660982649375,,
,5781.0,691.0,5771.0,1008.0,-81.0,1868.0,3525.0,,,,-0.28648754867627,-2.7357901338212,-0.477999763936586,,2.3099296047280555,,
,5779.0,693.0,5767.0,1004.0,-75.0,1861.0,3534.0,,,,-0.286304876477395,-2.73560642085531,-0.476755378622413,,2.4033522314260884,,
,5774.0,694.0,5763.0,1003.0,-82.0,1848.0,3529.0,,,,-0.286291201281254,-2.73557584985349,-0.476267555273039,,2.4495030365363863,,
,5770.0,691.0,5757.0,1001.0,-83.0,1855.0,3529.0,,,,-0.286195737761804,-2.73545869167685,-0.47671474699806,,2.4460614308811497,,
,5764.0,688.0,5751.0,997.0,-88.0,1846.0,3533.0,,,,-0.286034812016147,-2.73529742331866,-0.47668339249923,,2.392314589878785,,
,5760.0,689.0,5747.0,995.0,-84.0,1836.0,3535.0,,,,-0.285856634968465,-2.73526593907986,-0.476413291225535,,2.2893859990936902,,
,5758.0,691.0,5744.0,994.0,-77.0,1863.0,3549.0,,,,-0.285982777378149,-2.73553983613795,-0.475651804786167,,2.1403508894087686,,
,5754.0,689.0,5738.0,995.0,-78.0,1866.0,3539.0,,,,-0.286095341124116,-2.73528960660157,-0.476060858114618,,1.9502048920867592,,
,5753.0,689.0,5736.0,994.0,-91.0,1862.0,3513.0,,,,-0.286014064220461,-2.73516295476809,-0.476458259909937,,1.7256692324147187,,
,5748.0,690.0,5730.0,989.0,-86.0,1859.0,3514.0,,,,-0.285738293455138,-2.73521271735769,-0.476051429652493,,1.4748367272549718,,
,5746.0,686.0,5728.0,988.0,-88.0,1849.0,3542.0,,,,-0.285771878562699,-2.73496236989485,-0.475961877521588,,1.2066846959142192,,
,5746.0,691.0,5726.0,989.0,-86.0,1845.0,3541.0,,,,-0.286023406235585,-2.73509084120606,-0.475216451291154,,0.9305002756654539,,
,5744.0,688.0,5726.0,988.0,-80.0,1843.0,3555.0,,,,-0.285841539795896,-2.73503351240942,-0.475471336210338,,0.6552771609209046,,
,5743.0,685.0,5722.0,986.0,-81.0,1866.0,3555.0,,,,-0.285405096514959,-2.73490237587927,-0.475833350064667,,0.38914765682783353,,
2025-07-23 17:07:07,5740.0,686.0,5722.0,987.0,-82.0,1861.0,3544.0,,,2025/07/23 05:07:07 PM,-0.285506661804108,-2.73479467899908,-0.475229923605898,,0.13890896604913236,,
,5739.0,687.0,5720.0,988.0,-83.0,1850.0,3527.0,,,,-0.285360131840598,-2.73477599654225,-0.475365053009607,,-0.09031104766022281,,
,5739.0,688.0,5715.0,988.0,-88.0,1860.0,3517.0,,,,-0.285354089142725,-2.73462479027149,-0.474541431123667,,-0.2952226448676306,,
,5737.0,687.0,5717.0,986.0,-88.0,1875.0,3550.0,,,,-0.285328171857002,-2.73467343948421,-0.474893579187503,,-0.4743726184452776,,
,5736.0,687.0,5715.0,986.0,-82.0,1868.0,3547.0,,,,-0.285290940804352,-2.73464024398697,-0.474567548358056,,-0.6279869217625095,,
,5738.0,688.0,5714.0,986.0,-80.0,1866.0,3535.0,,,,-0.285221133307029,-2.73458459287731,-0.474215495128358,,-0.7576878522158774,,
,5736.0,688.0,5713.0,986.0,-85.0,1861.0,3524.0,,,,-0.284996052501733,-2.73440892475522,-0.474190268476113,,-0.8661267974229937,,
,5734.0,687.0,5712.0,984.0,-82.0,1856.0,3502.0,,,,-0.285061285852441,-2.73463299574975,-0.474110360546154,,-0.9565786570619345,,
,5734.0,686.0,5711.0,985.0,-86.0,1859.0,3531.0,,,,-0.284964087686216,-2.73416163315094,-0.47379318589887,,-1.0325436848402165,,
,5731.0,688.0,5706.0,983.0,-81.0,1850.0,3539.0,,,,-0.284817924100154,-2.73429862721498,-0.473489137240119,,-1.0973971166896073,,
,5732.0,686.0,5708.0,986.0,-87.0,1832.0,3541.0,,,,-0.284709456790678,-2.73431644168078,-0.473115161191305,,-1.1541172249207405,,
,5731.0,687.0,5708.0,983.0,-86.0,1839.0,3527.0,,,,-0.284787107963381,-2.7342162073887,-0.473753293051081,,-1.2051092983952065,,
,5732.0,687.0,5707.0,985.0,-92.0,1858.0,3525.0,,,,-0.284692072984756,-2.73399461053966,-0.473206668407591,,-1.2521279795348377,,
,5731.0,687.0,5708.0,988.0,-86.0,1856.0,3540.0,,,,-0.284625027547116,-2.73401264515654,-0.472723006814062,,-1.2962855962601134,,
,5731.0,686.0,5705.0,984.0,-83.0,1840.0,3552.0,,,,-0.284301193178363,-2.73408164713476,-0.472802563130932,,-1.3381223066658576,,
,5733.0,686.0,5708.0,985.0,-87.0,1841.0,3540.0,,,,-0.284371695656175,-2.73391169778866,-0.473240626285294,,-1.3777074649764638,,
,5732.0,686.0,5704.0,984.0,-81.0,1860.0,3541.0,,,,-0.28454061387299,-2.73379147853415,-0.473313729180641,,-1.414741825569801,,
,5732.0,685.0,5703.0,982.0,-82.0,1853.0,3547.0,,,,-0.284518719008715,-2.73380688247852,-0.472273567386761,,-1.448636436419832,,
,5730.0,686.0,5703.0,984.0,-79.0,1853.0,3514.0,,,,-0.284424152744622,-2.73359083920862,-0.473480734734348,,-1.4785542480314926,,
,5731.0,687.0,5705.0,985.0,-81.0,1841.0,3541.0,,,,-0.284412808714923,-2.73377028884949,-0.47309825148496,,-1.5034119700065178,,
,5729.0,685.0,5701.0,983.0,-80.0,1849.0,3544.0,,,,-0.284448358323276,-2.73386770973563,-0.472498579832794,,-1.5218503357758941,,
,5728.0,686.0,5700.0,982.0,-80.0,1846.0,3547.0,,,,-0.284257021478176,-2.73389489262352,-0.47262414819207,,-1.5321891973766568,,
,5729.0,686.0,5701.0,984.0,-89.0,1865.0,3553.0,,,,-0.28417922555426,-2.73394005513951,-0.472702545124627,,-1.5323888442969031,,
,5731.0,686.0,5697.0,984.0,-82.0,1842.0,3533.0,,,,-0.284147431723231,-2.73392572812259,-0.472321685194976,,-1.5200401253490512,,
,5728.0,686.0,5696.0,984.0,-84.0,1838.0,3514.0,,,,-0.284063123951265,-2.73350772404974,-0.472538604760847,,-1.4924032924806754,,
,5728.0,687.0,5698.0,983.0,-98.0,1842.0,3540.0,,,,-0.283980711422527,-2.73363144982614,-0.472351762617757,,-1.4465093513672769,,
,5727.0,684.0,5694.0,982.0,-99.0,1857.0,3549.0,,,,-0.284084280542342,-2.73350262922346,-0.47158679567869,,-1.3793287979463762,,
,5726.0,685.0,5694.0,982.0,-86.0,1870.0,3533.0,,,,-0.283785402477948,-2.73334769981486,-0.471844924242648,,-1.288001931998869,,
,5728.0,685.0,5694.0,982.0,-87.0,1873.0,3525.0,,,,-0.283960699275397,-2.73328818456919,-0.471963055045517,,-1.1701138233861745,,
,5725.0,684.0,5692.0,981.0,-87.0,1858.0,3546.0,,,,-0.28395723379685,-2.73361367979335,-0.471679441250644,,-1.0239872719096152,,
,5722.0,684.0,5689.0,980.0,-82.0,1850.0,3541.0,,,,-0.284179791250856,-2.73340298188844,-0.472234694311216,,-0.8489608381171792,,
,5724.0,686.0,5690.0,982.0,-78.0,1870.0,3540.0,,,,-0.284188736681143,-2.73357335859003,-0.471894711328954,,-0.6456179590263125,,
,5725.0,686.0,5689.0,982.0,-77.0,1867.0,3549.0,,,,-0.284130853737357,-2.73311504217983,-0.471194283909812,,-0.41593779799608094,,
,5725.0,684.0,5690.0,982.0,-79.0,1865.0,3538.0,,,,-0.283541672325894,-2.73329388670345,-0.471262492172398,,-0.163347674285589,,
,5724.0,684.0,5687.0,980.0,-77.0,1865.0,3543.0,,,,-0.283876504403645,-2.73340448596993,-0.472138407868126,,0.10733158558669101,,
,5723.0,685.0,5685.0,981.0,-87.0,1865.0,3537.0,,,,-0.28356004485724,-2.73315852705642,-0.470829522238532,,0.390044544216062,,
,5724.0,685.0,5686.0,984.0,-81.0,1844.0,3547.0,,,,-0.283574487815838,-2.73310982370646,-0.471211979794234,,0.6777515496557276,,
,5726.0,684.0,5687.0,982.0,-80.0,1854.0,3540.0,,,,-0.283751926978271,-2.73325207282256,-0.472150975519658,,0.9627502801743613,,
,5727.0,684.0,5686.0,985.0,-81.0,1859.0,3507.0,,,,-0.283834065132037,-2.73344079191161,-0.471826436968008,,1.2370430271672321,,
,5725.0,684.0,5685.0,982.0,-76.0,1874.0,3527.0,,,,-0.284216900531299,-2.73372738327336,-0.471959968458003,,1.4927217500376408,,
,5726.0,685.0,5685.0,980.0,-81.0,1859.0,3530.0,,,,-0.284554021431401,-2.7342579599128,-0.473716515350508,,1.7223427297603908,,
,5726.0,686.0,5686.0,983.0,-80.0,1854.0,3538.0,,,,-0.285181651655028,-2.73455733087795,-0.474461658069322,,1.9192647264547407,,
,5728.0,686.0,5685.0,984.0,-78.0,1857.0,3526.0,,,,-0.28548848140484,-2.73485055948563,-0.475841190809862,,2.07792900763937,,
,5727.0,684.0,5684.0,981.0,-86.0,1840.0,3511.0,,,,-0.285872072647194,-2.73550699263819,-0.476590565137548,,2.1940664466820117,,
,5726.0,685.0,5687.0,983.0,-87.0,1853.0,3529.0,,,,-0.286503080094198,-2.73578714933939,-0.477260394093255,,2.2648254771532716,,
,5728.0,685.0,5689.0,985.0,-87.0,1874.0,3523.0,,,,-0.286767482704901,-2.73625887898031,-0.477715442507921,,2.288823486256186,,
,5729.0,685.0,5685.0,986.0,-82.0,1876.0,3530.0,,,,-0.287308410329711,-2.73655337408963,-0.479015591984488,,2.266131138352642,,
,5727.0,684.0,5683.0,983.0,-74.0,1843.0,3503.0,,,,-0.287256565747774,-2.73676194273748,-0.479823271440878,,2.198202566011929,,
,5729.0,684.0,5684.0,985.0,-83.0,1848.0,3520.0,,,,-0.287619203879635,-2.73687659180117,-0.479341326777865,,2.0877642802801697,,
,5729.0,683.0,5686.0,985.0,-85.0,1868.0,3526.0,,,,-0.287906346565524,-2.73686037656348,-0.48063788369888,,1.9386733651197594,,
,5732.0,683.0,5689.0,987.0,-84.0,1870.0,3548.0,,,,-0.287921194432687,-2.73684607957448,-0.479902606025278,,1.7557527036267024,,
,5732.0,685.0,5690.0,985.0,-86.0,1848.0,3548.0,,,,-0.287818699250088,-2.73712464768173,-0.480024484041808,,1.5446086405220922,,
,5732.0,684.0,5688.0,985.0,-87.0,1841.0,3537.0,,,,-0.287844372005947,-2.73707871195214,-0.480326480751129,,1.3114347813804392,,
,5734.0,683.0,5690.0,988.0,-87.0,1846.0,3519.0,,,,-0.287774255039018,-2.73678745837068,-0.480204640184111,,1.0628043918430397,,
,5737.0,686.0,5691.0,986.0,-90.0,1854.0,3547.0,,,,-0.287782368062177,-2.7368868364548,-0.480754234920102,,0.8054530443135581,,
,5736.0,685.0,5695.0,988.0,-85.0,1864.0,3546.0,,,,-0.287917962227218,-2.73709897012021,-0.479962537777758,,0.5460529063054751,,
,5735.0,683.0,5693.0,987.0,-79.0,1842.0,3526.0,,,,-0.287677729614358,-2.73664083253092,-0.480219534687532,,0.29098061854377016,,
,5738.0,687.0,5694.0,989.0,-77.0,1851.0,3538.0,,,,-0.287588495707774,-2.73672663526678,-0.478866845072152,,0.04608241745239592,,
,5739.0,686.0,5697.0,989.0,-84.0,1860.0,3538.0,,,,-0.287704154912141,-2.73663274255231,-0.479805413367195,,-0.18355666089239764,,
,5741.0,686.0,5697.0,989.0,-79.0,1862.0,3551.0,,,,-0.287560403474148,-2.73690658125243,-0.479616341029888,,-0.3938280885515288,,
,5741.0,687.0,5696.0,990.0,-91.0,1858.0,3540.0,,,,-0.287665138534446,-2.73663215427344,-0.479601863341684,,-0.5817832091687083,,
,5740.0,685.0,5699.0,991.0,-89.0,1850.0,3538.0,,,,-0.287684792980985,-2.73677934968784,-0.479121270924448,,-0.7457644202535224,,
,5744.0,687.0,5701.0,991.0,-87.0,1850.0,3544.0,,,,-0.287787551533425,-2.73663046035595,-0.479654666986135,,-0.8854634182512944,,
,5746.0,685.0,5704.0,994.0,-96.0,1858.0,3535.0,,,,-0.287601338287931,-2.73684707893337,-0.479318366066035,,-1.0018897168576415,,
,5748.0,688.0,5705.0,996.0,-96.0,1853.0,3538.0,,,,-0.287806320549699,-2.73675477972549,-0.479993834398796,,-1.097240824990677,,
,5743.0,685.0,5704.0,992.0,-89.0,1838.0,3534.0,,,,-0.2877404578688,-2.73703642854221,-0.479709830202574,,-1.174676220848635,,
,5746.0,688.0,5706.0,993.0,-81.0,1845.0,3536.0,,,,-0.287889754867203,-2.73677876856949,-0.479281600207301,,-1.238008436443448,,
,5747.0,686.0,5706.0,996.0,-85.0,1847.0,3520.0,,,,-0.287705869637087,-2.73683630962627,-0.478918226266476,,-1.2913343854513328,,
,5749.0,686.0,5707.0,992.0,-80.0,1846.0,3512.0,,,,-0.287786837797102,-2.73671871889037,-0.479361769087961,,-1.338637442334459,,
,5749.0,686.0,5708.0,994.0,-84.0,1857.0,3547.0,,,,-0.287518532893877,-2.73665163168816,-0.47889343181416,,-1.383395151194191,,
,5752.0,687.0,5707.0,995.0,-84.0,1859.0,3540.0,,,,-0.287605632111508,-2.73639846412966,-0.479179389479504,,-1.4282284996646675,,
,5750.0,687.0,5710.0,999.0,-90.0,1863.0,3552.0,,,,-0.287546715474734,-2.73679792151443,-0.47929386036166,,-1.4746263157436152,,
,5753.0,688.0,5713.0,996.0,-91.0,1856.0,3542.0,,,,-0.287668942680647,-2.73644995009889,-0.479385404699207,,-1.5227726320603225,,
,5754.0,689.0,5715.0,998.0,-82.0,1853.0,3533.0,,,,-0.287495325286115,-2.73644457005709,-0.479769585980507,,-1.5714961079981173,,
,5752.0,686.0,5717.0,998.0,-86.0,1853.0,3517.0,,,,-0.287571995838882,-2.73646463292095,-0.478564290571421,,-1.6183492853463755,,
,5754.0,688.0,5717.0,999.0,-75.0,1844.0,3529.0,,,,-0.287654643984136,-2.7364832182386,-0.479730164931974,,-1.6598123322275797,,
,5758.0,691.0,5720.0,1000.0,-89.0,1847.0,3533.0,,,,-0.287610369533972,-2.73655113423697,-0.479777008888428,,-1.6916022045805976,,
,5759.0,688.0,5721.0,1001.0,-90.0,1850.0,3533.0,,,,-0.287630170588406,-2.73639584880805,-0.479184489055551,,-1.7090555967664822,,
,5757.0,686.0,5722.0,999.0,-77.0,1829.0,3544.0,,,,-0.287823249664254,-2.73665701339842,-0.479094468104479,,-1.7075448422708992,,
,5760.0,689.0,5723.0,1001.0,-83.0,1834.0,3543.0,,,,-0.287870519556164,-2.73676286546381,-0.480014988053356,,-1.6828820440775856,,
,5763.0,688.0,5726.0,1003.0,-83.0,1844.0,3543.0,,,,-0.287764742668799,-2.73680319510217,-0.480720457935617,,-1.6316691470414413,,
,5761.0,689.0,5726.0,1002.0,-81.0,1853.0,3538.0,,,,-0.287793926064919,-2.73691892880324,-0.479995420069667,,-1.5515599569817395,,
,5764.0,691.0,5729.0,1003.0,-82.0,1875.0,3546.0,,,,-0.287989987729136,-2.73693945401408,-0.480265567965765,,-1.4414126154171947,,
,5762.0,688.0,5734.0,1002.0,-80.0,1872.0,3538.0,,,,-0.288120345725377,-2.73722850965729,-0.480002025703987,,-1.3013256218422096,,
,5765.0,690.0,5734.0,1007.0,-79.0,1876.0,3531.0,,,,-0.288137529722329,-2.73686992034666,-0.481041627913468,,-1.132565142806523,,
,5767.0,691.0,5737.0,1006.0,-78.0,1883.0,3541.0,,,,-0.288066135209844,-2.73741473994747,-0.480432889275581,,-0.9374043393905542,,
,5765.0,688.0,5735.0,1005.0,-78.0,1884.0,3541.0,,,,-0.28826236428732,-2.7372554921242,-0.480867792316629,,-0.7189053214910668,,
,5766.0,690.0,5737.0,1002.0,-78.0,1875.0,3530.0,,,,-0.288181018133286,-2.73719589079485,-0.479930774386591,,-0.4806799644952306,,
,5765.0,689.0,5735.0,1005.0,-76.0,1839.0,3546.0,,,,-0.288169760989877,-2.73703503451571,-0.480479640198975,,-0.22666651968751625,,
,5764.0,691.0,5736.0,1003.0,-79.0,1840.0,3529.0,,,,-0.28817865425371,-2.7370976620633,-0.481220533676444,,0.03904548749769378,,
,5761.0,690.0,5730.0,1003.0,-84.0,1845.0,3517.0,,,,-0.288116519877581,-2.73723644200864,-0.480958873154551,,0.3123188829058557,,
,5757.0,686.0,5727.0,999.0,-86.0,1853.0,3549.0,,,,-0.2879894744241,-2.73694614796611,-0.480980451973071,,0.5889911940460998,,
,5756.0,688.0,5725.0,996.0,-89.0,1842.0,3552.0,,,,-0.287959261089091,-2.73701281442578,-0.480381988336434,,0.8648219549512121,,
,5751.0,688.0,5720.0,996.0,-78.0,1838.0,3519.0,,,,-0.288023370760488,-2.73688909250908,-0.47993896571953,,1.135387564408766,,
,5749.0,688.0,5716.0,993.0,-83.0,1847.0,3512.0,,,,-0.288147680409897,-2.73685720523074,-0.480675168735444,,1.3959598672639468,,
,5743.0,687.0,5713.0,993.0,-90.0,1827.0,3537.0,,,,-0.287815978524043,-2.73695593360739,-0.479874409547403,,1.6414120486895827,,
,5743.0,687.0,5709.0,989.0,-82.0,1840.0,3536.0,,,,-0.287979141739932,-2.73689992534458,-0.479690107301449,,1.8661943928590243,,
,5739.0,685.0,5705.0,988.0,-82.0,1849.0,3534.0,,,,-0.287771179673016,-2.73674605328599,-0.480309912531611,,2.064412796263519,,
,5736.0,689.0,5701.0,986.0,-83.0,1844.0,3529.0,,,,-0.288019272571554,-2.73679850473867,-0.479891291026763,,2.2300266467386214,,
,5732.0,685.0,5700.0,985.0,-84.0,1845.0,3540.0,,,,-0.287553198026776,-2.7366416841221,-0.480083604194857,,2.3571629135829686,,
,5730.0,685.0,5696.0,984.0,-83.0,1860.0,3499.0,,,,-0.287854866103684,-2.73673669466761,-0.480704631110864,,2.4405231615679472,,
,5730.0,684.0,5693.0,986.0,-90.0,1861.0,3514.0,,,,-0.287645122110251,-2.73683891429596,-0.478901317179855,,2.4758423885983043,,
,5729.0,687.0,5693.0,985.0,-83.0,1864.0,3514.0,,,,-0.28754276475673,-2.73653885976366,-0.479039639600484,,2.460345496051531,,
,5726.0,685.0,5694.0,984.0,-86.0,1863.0,3517.0,,,,-0.287507886030038,-2.73678522598161,-0.478642007664042,,2.3931409838921898,,
,5722.0,686.0,5689.0,983.0,-79.0,1849.0,3533.0,,,,-0.287447695743443,-2.73671034975249,-0.478190217543044,,2.2754936233334604,,
,5723.0,683.0,5688.0,983.0,-90.0,1873.0,3542.0,,,,-0.287195065781818,-2.73650108209868,-0.479154991778133,,2.11092874421004,,
,5723.0,685.0,5689.0,982.0,-82.0,1866.0,3533.0,,,,-0.287302319533923,-2.73657623829262,-0.478479153175501,,1.9051393553880018,,
,5723.0,686.0,5689.0,983.0,-86.0,1854.0,3507.0,,,,-0.287234583472625,-2.73640818935807,-0.478777840694226,,1.66569132470263,,
,5720.0,685.0,5688.0,979.0,-86.0,1851.0,3513.0,,,,-0.287133622458328,-2.73631452435472,-0.478288317295857,,1.4015480378680152,,
,5721.0,684.0,5685.0,981.0,-82.0,1861.0,3518.0,,,,-0.286955326141258,-2.73621789013477,-0.478775244100351,,1.122460397164619,,
,5720.0,684.0,5684.0,982.0,-74.0,1861.0,3520.0,,,,-0.287025750031743,-2.73628480160959,-0.478027401978174,,0.8382865236463837,,
,5722.0,686.0,5687.0,982.0,-81.0,1854.0,3525.0,,,,-0.286958335592097,-2.73619116206394,-0.478686221173233,,0.5583145554154328,,
,5719.0,683.0,5686.0,980.0,-87.0,1853.0,3526.0,,,,-0.28685468612924,-2.73638847814668,-0.479016913628113,,0.29065982917017763,,
,5719.0,682.0,5684.0,980.0,-80.0,1852.0,3548.0,,,,-0.286898676099902,-2.73623824778937,-0.477743285710369,,0.04179546375798733,,
,5718.0,682.0,5684.0,979.0,-84.0,1854.0,3530.0,,,,-0.286923095191472,-2.7361136469831,-0.477158216392033,,-0.18374389699016555,,
,5722.0,686.0,5687.0,981.0,-93.0,1841.0,3546.0,,,,-0.286673282495612,-2.73600159226186,-0.477715172060858,,-0.3834676832900306,,
,5718.0,684.0,5685.0,984.0,-94.0,1846.0,3541.0,,,,-0.286823457791252,-2.73583741705455,-0.477949207670508,,-0.5568485887310812,,
,5721.0,685.0,5686.0,982.0,-86.0,1843.0,3544.0,,,,-0.286738106149578,-2.7360188781729,-0.477737066538974,,-0.7050783680656019,,
,5718.0,685.0,5685.0,982.0,-87.0,1844.0,3555.0,,,,-0.286791942993132,-2.7357599401375,-0.477822731619253,,-0.8306975523309184,,
