TimeLabel,MEAS1_PPG1,MEAS1_PPG2,MEAS1_PPG3,MEAS1_PPG4,ACCX,ACCY,ACCZ,HR_timestamp,HR_value,radar_timestamp,phase_rx0,phase_rx1,phase_rx2,timestep,n_process,original_rate,calculated_rate
2025-07-01 21:16:08,5313.0,1077.0,4737.0,891.0,2552.0,2995.0,573.0,2025-07-01 21:16:09,97.0,2025/07/01 09:16:08 PM,-0.454253199025741,-2.89995316888405,-1.09853964904959,2025/07/01 09:16:08 PM,13.09222807738987,12.802275657653809,10.35714285714286
,5315.0,1081.0,4736.0,891.0,2562.0,3004.0,563.0,2025-07-01 21:16:10,97.0,,-0.454665068609946,-2.90003214924426,-1.09903935522527,2025/07/01 09:16:18 PM,13.121669653019667,11.792452812194824,8.275862068965518
,5317.0,1080.0,4740.0,893.0,2586.0,3012.0,554.0,2025-07-01 21:16:11,97.0,,-0.455169531349805,-2.90018412768755,-1.09945190655176,2025/07/01 09:16:28 PM,13.085624237030476,10.445682525634766,15.7544757033248
,5317.0,1079.0,4741.0,891.0,2590.0,3010.0,590.0,2025-07-01 21:16:11,97.0,,-0.454829971012817,-2.90006620636883,-1.09851984664165,2025/07/01 09:16:38 PM,12.978769871181784,8.995502471923826,10.042016806722692
,5316.0,1079.0,4741.0,889.0,2585.0,3015.0,562.0,2025-07-01 21:16:12,97.0,,-0.455191029675771,-2.89995878246837,-1.09965845640823,2025/07/01 09:16:48 PM,12.796765671370405,8.935219764709473,10.056100981767178
,5319.0,1080.0,4745.0,893.0,2563.0,3011.0,585.0,2025-07-01 21:16:14,97.0,,-0.454770523295788,-2.90002166182272,-1.09961658258678,2025/07/01 09:16:58 PM,12.536619855754266,10.094212532043455,9.374999999999991
,5317.0,1080.0,4747.0,894.0,2558.0,3001.0,592.0,2025-07-01 21:16:15,97.0,,-0.454916980229417,-2.89997227870465,-1.09904967575143,2025/07/01 09:17:08 PM,12.197013834813735,9.803921699523924,9.878542510121466
,5319.0,1083.0,4749.0,891.0,2567.0,2996.0,582.0,2025-07-01 21:16:16,97.0,,-0.454702348247218,-2.89991491784871,-1.09822898245015,2025/07/01 09:17:18 PM,11.778543825758318,10.006670951843262,8.391608391608385
,5316.0,1081.0,4749.0,892.0,2573.0,3006.0,595.0,2025-07-01 21:16:17,97.0,,-0.454671184591998,-2.89994705691242,-1.09784131348834,2025/07/01 09:17:28 PM,11.283846065474469,9.309542655944824,8.955722639933162
,5320.0,1082.0,4751.0,892.0,2597.0,3008.0,575.0,2025-07-01 21:16:18,97.0,,-0.454393909923432,-2.89977881927187,-1.09813205739606,2025/07/01 09:17:38 PM,10.717582164845167,9.090909004211424,11.740121580547115
,5322.0,1086.0,4754.0,894.0,2569.0,3011.0,562.0,2025-07-01 21:16:18,96.0,,-0.454131948751557,-2.89991917808721,-1.09685494628561,2025/07/01 09:17:48 PM,10.086275606438669,10.0401611328125,10.899271745356348
,5320.0,1085.0,4757.0,892.0,2571.0,3011.0,555.0,2025-07-01 21:16:20,96.0,,-0.454150278537225,-2.89980799715878,-1.0976606166344,2025/07/01 09:17:58 PM,9.398007011576611,10.8695650100708,8.823529411764728
,5320.0,1083.0,4758.0,893.0,2564.0,3006.0,540.0,2025-07-01 21:16:20,95.0,,-0.454100884024255,-2.89978764564012,-1.09787477656725,2025/07/01 09:18:08 PM,8.661992764716302,10.653409004211426,9.024597116200162
,5319.0,1084.0,4758.0,894.0,2557.0,3013.0,591.0,2025-07-01 21:16:21,95.0,,-0.45405155214748,-2.8999233823158,-1.09653632621639,2025/07/01 09:18:18 PM,7.888086577536947,9.868420600891112,9.160305343511475
,5323.0,1087.0,4766.0,895.0,2551.0,3019.0,591.0,2025-07-01 21:16:22,94.0,,-0.453631665116939,-2.89982595032568,-1.09733826415245,2025/07/01 09:18:28 PM,7.086254099313161,9.05660343170166,8.794158702888431
,5325.0,1087.0,4767.0,895.0,2557.0,3012.0,589.0,2025-07-01 21:16:23,94.0,,-0.453479521456466,-2.89976089842922,-1.0968930556409,2025/07/01 09:18:38 PM,6.266074690170014,8.858267784118652,9.302325581395325
,5325.0,1088.0,4772.0,897.0,2568.0,2997.0,604.0,2025-07-01 21:16:24,94.0,,-0.453190882920479,-2.89973159212059,-1.09735967463756,2025/07/01 09:18:48 PM,5.436320713122969,9.049774169921877,9.33866279069768
,5325.0,1085.0,4770.0,895.0,2575.0,3007.0,593.0,2025-07-01 21:16:25,94.0,,-0.453302636026714,-2.89962019193247,-1.09706162736446,2025/07/01 09:18:58 PM,4.604653085544037,9.900989532470703,7.843137254901955
,5327.0,1087.0,4774.0,897.0,2587.0,3004.0,581.0,2025-07-01 21:16:26,94.0,,-0.452951058759328,-2.89978409807862,-1.09750224843863,,3.7774541452431,,
,5327.0,1089.0,4776.0,899.0,2583.0,3011.0,571.0,2025-07-01 21:16:27,94.0,,-0.453306487879638,-2.89974774191275,-1.0968348414332,,2.9597987743994776,,
,5327.0,1091.0,4782.0,898.0,2577.0,3017.0,569.0,2025-07-01 21:16:28,94.0,,-0.453650513101409,-2.89961084551192,-1.09698527525682,,2.1555462956639078,,
,5330.0,1088.0,4787.0,899.0,2575.0,3008.0,575.0,2025-07-01 21:16:30,93.0,,-0.453679733159199,-2.8997054416836,-1.09770586913364,,1.3675218825449285,,
,5330.0,1090.0,4786.0,900.0,2565.0,3007.0,582.0,2025-07-01 21:16:31,92.0,,-0.453602073513719,-2.89979481882328,-1.09856870035147,,0.5977485783362687,,
,5333.0,1092.0,4792.0,900.0,2564.0,3008.0,605.0,2025-07-01 21:16:31,91.0,,-0.453770465161277,-2.89972332352302,-1.09677874375235,,-0.15231001065112687,,
,5333.0,1092.0,4794.0,900.0,2557.0,3005.0,616.0,2025-07-01 21:16:33,91.0,,-0.453796853586127,-2.89980901797732,-1.09725390373445,,-0.8815309375213243,,
,5335.0,1091.0,4795.0,902.0,2543.0,3008.0,594.0,2025-07-01 21:16:33,91.0,,-0.453842443376401,-2.89976793553943,-1.09712596681872,,-1.5889611094257903,,
,5336.0,1094.0,4798.0,901.0,2572.0,3011.0,631.0,2025-07-01 21:16:35,90.0,,-0.4537344781046,-2.89971286034253,-1.09842854105204,,-2.27370481256025,,
,5335.0,1090.0,4805.0,901.0,2583.0,3011.0,608.0,2025-07-01 21:16:35,89.0,,-0.453838024719667,-2.89991204994439,-1.09777696500096,,-2.934865544914902,,
,5337.0,1093.0,4806.0,903.0,2588.0,3013.0,590.0,2025-07-01 21:16:36,88.0,,-0.454399127147611,-2.89981152114409,-1.09857783455781,,-3.5715259299334843,,
,5337.0,1094.0,4804.0,902.0,2583.0,3015.0,597.0,2025-07-01 21:16:38,87.0,,-0.454588013617264,-2.89980642650391,-1.09840408292073,,-4.182742566520106,,
,5338.0,1094.0,4807.0,901.0,2563.0,3021.0,584.0,2025-07-01 21:16:38,86.0,,-0.454741311596165,-2.89988928488459,-1.09890186158655,,-4.767533277455178,,
,5337.0,1092.0,4801.0,900.0,2547.0,3016.0,561.0,2025-07-01 21:16:40,86.0,,-0.454143718439472,-2.89995436551706,-1.09736608122794,,-5.324842082328342,,
,5338.0,1092.0,4797.0,901.0,2538.0,3011.0,572.0,2025-07-01 21:16:40,86.0,,-0.454373964193896,-2.89992855131539,-1.09775755463437,,-5.853479285459368,,
,5334.0,1089.0,4787.0,900.0,2543.0,3012.0,587.0,2025-07-01 21:16:42,87.0,,-0.454002326843011,-2.8998820660459,-1.09784540550302,,-6.352046145612138,,
,5331.0,1085.0,4773.0,896.0,2538.0,2993.0,588.0,2025-07-01 21:16:42,87.0,,-0.453871481002977,-2.89988250386241,-1.0976262821693,,-6.81886239848731,,
,5330.0,1082.0,4757.0,894.0,2546.0,2997.0,608.0,2025-07-01 21:16:44,88.0,,-0.453973213646942,-2.89976820289112,-1.0970556405344,,-7.251918900588401,,
,5324.0,1083.0,4740.0,890.0,2536.0,2990.0,610.0,2025-07-01 21:16:44,88.0,,-0.454536474778489,-2.89985233521865,-1.09829035844259,,-7.6488767919182985,,
,5320.0,1075.0,4724.0,887.0,2560.0,2996.0,620.0,2025-07-01 21:16:45,88.0,,-0.454474886607927,-2.89985012088268,-1.09765431748213,,-8.007129645815908,,
,5319.0,1075.0,4707.0,885.0,2561.0,2990.0,606.0,2025-07-01 21:16:47,88.0,,-0.454504639173408,-2.89982684021891,-1.09775743909409,,-8.323937186226347,,
,5314.0,1071.0,4693.0,881.0,2568.0,3010.0,579.0,2025-07-01 21:16:47,89.0,,-0.453929046285276,-2.89982284347088,-1.09724131494492,,-8.596629252015406,,
,5314.0,1068.0,4681.0,879.0,2532.0,3017.0,571.0,2025-07-01 21:16:49,89.0,,-0.453963256958551,-2.8998143087336,-1.09654091454892,,-8.822867633905087,,
,5310.0,1066.0,4670.0,879.0,2541.0,3014.0,597.0,2025-07-01 21:16:50,88.0,,-0.453793207910909,-2.89984335843176,-1.09708317962424,,-9.0009426005863,,
,5306.0,1066.0,4663.0,876.0,2564.0,3017.0,582.0,2025-07-01 21:16:51,88.0,,-0.45379960878016,-2.89979881725272,-1.09844609527735,,-9.130072643727544,,
,5306.0,1062.0,4657.0,876.0,2567.0,3002.0,566.0,2025-07-01 21:16:51,86.0,,-0.453530370703824,-2.89965590062478,-1.09864875874814,,-9.210672461544094,,
,5302.0,1063.0,4649.0,877.0,2574.0,3008.0,568.0,2025-07-01 21:16:53,85.0,,-0.453536538853045,-2.89968772959123,-1.09849441225555,,-9.244556120825935,,
,5301.0,1064.0,4648.0,877.0,2592.0,3012.0,585.0,2025-07-01 21:16:53,85.0,,-0.453210444818827,-2.89969200127754,-1.09696657029668,,-9.23504834439161,,
,5304.0,1063.0,4644.0,877.0,2601.0,3012.0,587.0,2025-07-01 21:16:55,85.0,,-0.45289448829609,-2.89961596851783,-1.09835580498518,,-9.186984987676155,,
,5300.0,1061.0,4644.0,877.0,2584.0,3004.0,584.0,2025-07-01 21:16:56,84.0,,-0.453154722351186,-2.8997025768579,-1.09772903959303,,-9.106592847983624,,
,5298.0,1060.0,4642.0,874.0,2555.0,3004.0,568.0,2025-07-01 21:16:56,84.0,,-0.45274242126335,-2.89966352895003,-1.09730774779683,,-9.00124877796357,,
,5297.0,1061.0,4645.0,873.0,2564.0,3007.0,581.0,2025-07-01 21:16:58,85.0,,-0.452741486778922,-2.89966525241941,-1.09672169025144,,-8.87912854687672,,
,5299.0,1062.0,4648.0,875.0,2573.0,3011.0,554.0,2025-07-01 21:16:58,85.0,,-0.452999762768008,-2.89972705956849,-1.09826722422043,,-8.748766355765444,,
,5297.0,1062.0,4647.0,874.0,2583.0,3017.0,570.0,2025-07-01 21:17:00,86.0,,-0.452772841713107,-2.89973865401924,-1.09738775273604,,-8.618555050922685,,
,5294.0,1060.0,4645.0,874.0,2563.0,3006.0,594.0,2025-07-01 21:17:01,87.0,,-0.452926622051274,-2.89970387527031,-1.09684487475401,,-8.496223306399097,,
,5295.0,1063.0,4648.0,875.0,2590.0,3010.0,588.0,2025-07-01 21:17:02,88.0,,-0.452967639343015,-2.8997034168337,-1.09881990375257,,-8.388328326510523,,
,5295.0,1063.0,4652.0,875.0,2587.0,3017.0,579.0,2025-07-01 21:17:02,88.0,,-0.453161283411964,-2.89984717382536,-1.09798997691201,,-8.299801329329512,,
,5294.0,1063.0,4654.0,878.0,2585.0,3016.0,578.0,2025-07-01 21:17:03,89.0,,-0.453604463846604,-2.89971597116275,-1.09785213059198,,-8.233579897539173,,
,5298.0,1061.0,4656.0,877.0,2574.0,3011.0,584.0,2025-07-01 21:17:05,89.0,,-0.453578231804693,-2.89968871674683,-1.09847900768391,,-8.190357681867136,,
,5293.0,1062.0,4658.0,875.0,2592.0,3004.0,598.0,2025-07-01 21:17:06,89.0,,-0.453320638850049,-2.8997716482746,-1.09797212568136,,-8.168477555634231,,
,5295.0,1064.0,4658.0,879.0,2606.0,3011.0,573.0,2025-07-01 21:17:07,89.0,,-0.453486651221634,-2.89972162174425,-1.09823303719302,,-8.163987291077438,,
,5295.0,1064.0,4662.0,879.0,2587.0,3009.0,557.0,2025-07-01 21:17:08,88.0,,-0.453555360093326,-2.89973407447395,-1.09831758875364,,-8.17086576988199,,
,5295.0,1064.0,4666.0,881.0,2593.0,3015.0,563.0,2025-07-01 21:17:08,88.0,,-0.454128703406208,-2.89974783005876,-1.09856790422369,,-8.181413101605765,,
,5293.0,1064.0,4667.0,879.0,2569.0,3012.0,580.0,2025-07-01 21:17:09,88.0,,-0.453607808734798,-2.89983967283086,-1.09763113756207,,-8.186781722092348,,
,5294.0,1064.0,4668.0,879.0,2548.0,3002.0,606.0,2025-07-01 21:17:11,88.0,,-0.453991495391006,-2.89983987336559,-1.09872726876217,,-8.177609853622847,,
,5295.0,1065.0,4669.0,879.0,2559.0,3005.0,591.0,2025-07-01 21:17:12,88.0,,-0.453828038964902,-2.89978690160238,-1.09811350436085,,-8.144705649649582,,
,5294.0,1065.0,4672.0,881.0,2553.0,3013.0,578.0,2025-07-01 21:17:13,89.0,,-0.454015575720426,-2.89978603001479,-1.09865513445329,,-8.079721588452081,,
,5294.0,1063.0,4672.0,881.0,2563.0,3011.0,594.0,2025-07-01 21:17:14,89.0,,-0.453805706624095,-2.8999015352211,-1.09788615647092,,-7.975755500282038,,
,5296.0,1062.0,4671.0,882.0,2570.0,3017.0,584.0,2025-07-01 21:17:15,89.0,,-0.454024235960883,-2.89987281188295,-1.09930684339558,,-7.827817990437601,,
,5294.0,1064.0,4671.0,880.0,2559.0,3016.0,598.0,2025-07-01 21:17:16,90.0,,-0.453679236759266,-2.89988303978969,-1.09821821816055,,-7.633116871266017,,
,5295.0,1063.0,4670.0,881.0,2551.0,3010.0,600.0,2025-07-01 21:17:17,90.0,,-0.453918667634536,-2.89980719618776,-1.09822545017054,,-7.391128023668951,,
,5295.0,1064.0,4669.0,878.0,2563.0,3011.0,562.0,2025-07-01 21:17:17,91.0,,-0.453894383105949,-2.89973456248018,-1.09796895541258,,-7.103447592383479,,
,5294.0,1063.0,4667.0,879.0,2574.0,3014.0,594.0,2025-07-01 21:17:18,92.0,,-0.45362009360825,-2.89984180002044,-1.09765435948013,,-6.773448580144182,,
,5294.0,1064.0,4667.0,879.0,2577.0,3011.0,598.0,2025-07-01 21:17:19,91.0,,-0.453603659080042,-2.899775617912,-1.09850428880813,,-6.405790108074895,,
,5293.0,1062.0,4667.0,881.0,2574.0,3016.0,602.0,2025-07-01 21:17:20,91.0,,-0.453745230103288,-2.89968946447523,-1.09760805043214,,-6.0058450779931,,
,5293.0,1063.0,4665.0,877.0,2565.0,3014.0,599.0,2025-07-01 21:17:21,91.0,,-0.453650277502894,-2.89973628345928,-1.09875992574692,,-5.579119402568184,,
,5293.0,1062.0,4665.0,879.0,2566.0,2996.0,579.0,2025-07-01 21:17:22,91.0,,-0.453240058215774,-2.89979741551189,-1.09846236655773,,-5.1307333068891365,,
,5291.0,1062.0,4666.0,878.0,2565.0,3002.0,597.0,2025-07-01 21:17:23,91.0,,-0.453230451854352,-2.89973717860509,-1.09759073747155,,-4.665023676124975,,
,5290.0,1064.0,4667.0,879.0,2565.0,3012.0,589.0,2025-07-01 21:17:25,91.0,,-0.453472020857403,-2.89979905164422,-1.09763803748897,,-4.185307900390849,,
,5287.0,1062.0,4667.0,878.0,2577.0,3014.0,589.0,2025-07-01 21:17:26,90.0,,-0.453110667900319,-2.89974951740321,-1.09767602475176,,-3.6938264469764595,,
,5290.0,1062.0,4669.0,878.0,2566.0,3001.0,589.0,2025-07-01 21:17:27,89.0,,-0.453582403376803,-2.89997883437689,-1.09791546834054,,-3.1918562251648295,,
,5288.0,1062.0,4666.0,878.0,2552.0,3010.0,581.0,2025-07-01 21:17:28,88.0,,-0.453525342523785,-2.89977685703711,-1.09809539261011,,-2.6799631569807567,,
,5292.0,1063.0,4671.0,882.0,2560.0,3014.0,591.0,2025-07-01 21:17:28,87.0,,-0.453897687081383,-2.89990349424856,-1.09804562120031,,-2.158344361095976,,
,5290.0,1061.0,4672.0,880.0,2558.0,3004.0,571.0,2025-07-01 21:17:30,86.0,,-0.453778695983162,-2.89977010384465,-1.09796623212627,,-1.6272016256482464,,
,5290.0,1065.0,4673.0,881.0,2570.0,3009.0,569.0,2025-07-01 21:17:31,86.0,,-0.454208870585602,-2.89979983895675,-1.09906383836048,,-1.0870895469311368,,
,5288.0,1065.0,4673.0,880.0,2582.0,3012.0,552.0,2025-07-01 21:17:31,86.0,,-0.454114776004253,-2.8997592281377,-1.0983750681224,,-0.5391918268409599,,
,5291.0,1063.0,4680.0,880.0,2577.0,3010.0,556.0,2025-07-01 21:17:33,86.0,,-0.45406304706492,-2.89977991741644,-1.09837944752608,,0.0145058882283826,,
,5293.0,1067.0,4679.0,882.0,2565.0,3017.0,534.0,2025-07-01 21:17:34,85.0,,-0.453954309384385,-2.89981183066506,-1.09834569906184,,0.5711617824825524,,
,5292.0,1065.0,4682.0,879.0,2559.0,3010.0,545.0,2025-07-01 21:17:34,85.0,,-0.453717410889119,-2.89961871109133,-1.09640018330994,,1.12714148104591,,
,5292.0,1067.0,4684.0,879.0,2566.0,2982.0,590.0,2025-07-01 21:17:35,85.0,,-0.453476480240653,-2.89964901213668,-1.09664948228635,,1.6781847352838979,,
,5291.0,1066.0,4685.0,882.0,2576.0,2991.0,582.0,2025-07-01 21:17:36,85.0,,-0.453178241109083,-2.89956150379327,-1.09545981231752,,2.219649521974696,,
,5293.0,1067.0,4690.0,883.0,2559.0,2995.0,589.0,2025-07-01 21:17:38,86.0,,-0.452957671572868,-2.89958127838338,-1.09697238888762,,2.7468010742761457,,
,5295.0,1067.0,4695.0,884.0,2573.0,3002.0,599.0,2025-07-01 21:17:39,87.0,,-0.452973236625982,-2.8995253446458,-1.09674157791771,,3.2551116098214745,,
,5296.0,1070.0,4696.0,882.0,2594.0,3016.0,593.0,2025-07-01 21:17:39,87.0,,-0.452656697107366,-2.89947474213186,-1.09639534833472,,3.7405403424004984,,
,5294.0,1067.0,4697.0,883.0,2575.0,2997.0,581.0,2025-07-01 21:17:41,86.0,,-0.452815167977834,-2.89958239183214,-1.09678753619986,,4.1997716404560075,,
,5296.0,1070.0,4701.0,885.0,2569.0,2992.0,587.0,2025-07-01 21:17:42,86.0,,-0.452427610039602,-2.89946923798161,-1.09584032321967,,4.630398881887501,,
,5296.0,1070.0,4704.0,882.0,2581.0,3011.0,581.0,2025-07-01 21:17:42,85.0,,-0.452490556881094,-2.89951557234165,-1.09581305551914,,5.031049275060285,,
,5296.0,1071.0,4709.0,884.0,2581.0,3009.0,571.0,2025-07-01 21:17:44,86.0,,-0.452355910769618,-2.89950053586093,-1.09657123652111,,5.401448987271857,,
,5295.0,1068.0,4712.0,886.0,2568.0,3007.0,593.0,2025-07-01 21:17:44,86.0,,-0.452923162133639,-2.89929141246687,-1.09647129911575,,5.742428811969402,,
,5297.0,1070.0,4713.0,885.0,2579.0,3013.0,586.0,2025-07-01 21:17:46,87.0,,-0.453191540426239,-2.89957992787809,-1.09587216855098,,6.05587002788903,,
,5299.0,1073.0,4717.0,888.0,2566.0,3013.0,554.0,2025-07-01 21:17:46,88.0,,-0.453183198040571,-2.89969820588557,-1.09686241482728,,6.344590011118335,,
,5299.0,1072.0,4721.0,885.0,2561.0,3012.0,564.0,2025-07-01 21:17:47,88.0,,-0.453091140263179,-2.89979920639394,-1.09728228245835,,6.612168965842131,,
,5301.0,1073.0,4722.0,888.0,2558.0,3004.0,560.0,2025-07-01 21:17:49,89.0,,-0.453746589589716,-2.89973396879374,-1.0978291065948,,6.862723078735963,,
,5302.0,1077.0,4729.0,891.0,2569.0,3007.0,581.0,2025-07-01 21:17:50,90.0,,-0.453925348778002,-2.89973375900278,-1.09647665686111,,7.100634622045879,,
,5301.0,1077.0,4729.0,888.0,2553.0,3012.0,583.0,2025-07-01 21:17:51,90.0,,-0.453914501163959,-2.89974743595085,-1.09683419904584,,7.330255053280719,,
,5302.0,1074.0,4734.0,890.0,2564.0,3014.0,596.0,2025-07-01 21:17:52,91.0,,-0.453784853366166,-2.89981855582563,-1.09731454224348,,7.55560254176985,,
,5305.0,1075.0,4736.0,889.0,2559.0,3015.0,602.0,2025-07-01 21:17:52,91.0,,-0.453960921765679,-2.89988505686991,-1.09764585560966,,7.780080033232294,,
,5303.0,1076.0,4738.0,890.0,2554.0,2997.0,588.0,2025-07-01 21:17:54,91.0,,-0.454030777506151,-2.89992245312294,-1.09819429760007,,8.006242297757655,,
,5302.0,1076.0,4741.0,890.0,2561.0,2988.0,584.0,2025-07-01 21:17:55,90.0,,-0.454320767050066,-2.89994128276089,-1.09793925729131,,8.2356381123996,,
,5304.0,1076.0,4744.0,891.0,2585.0,3018.0,596.0,2025-07-01 21:17:55,90.0,,-0.45415331213858,-2.89989446183147,-1.09729249431106,,8.468745620647487,,
,5307.0,1078.0,4745.0,892.0,2581.0,3026.0,595.0,2025-07-01 21:17:57,89.0,,-0.454262134210641,-2.89986578950695,-1.09712421572613,,8.705006078562247,,
,5306.0,1077.0,4741.0,890.0,2561.0,3016.0,586.0,2025-07-01 21:17:58,89.0,,-0.454186401875502,-2.89995378062321,-1.09761028090991,,8.942946571687411,,
,5303.0,1075.0,4739.0,891.0,2554.0,3021.0,601.0,2025-07-01 21:17:58,89.0,,-0.454258146355375,-2.8999856272635,-1.09791206518423,,9.180369255925278,,
,5302.0,1074.0,4733.0,890.0,2553.0,3026.0,571.0,2025-07-01 21:17:59,89.0,,-0.454137938428228,-2.89999542640677,-1.09764205620876,,9.414575851540041,,
,5299.0,1073.0,4721.0,888.0,2583.0,3018.0,591.0,2025-07-01 21:18:01,89.0,,-0.453987823080199,-2.89991361270089,-1.09814192306345,,9.642592704169907,,
,5294.0,1072.0,4707.0,883.0,2583.0,3013.0,614.0,2025-07-01 21:18:01,88.0,,-0.453998942182273,-2.89992298608956,-1.09789767079598,,9.861363581719658,,
,5288.0,1067.0,4690.0,882.0,2552.0,3007.0,613.0,2025-07-01 21:18:03,88.0,,-0.454311831203107,-2.89980754130569,-1.09882845423377,,10.067883685688056,,
,5287.0,1063.0,4677.0,880.0,2541.0,3009.0,629.0,2025-07-01 21:18:04,87.0,,-0.454148942091538,-2.89983889422501,-1.09777259910596,,10.25925824530421,,
,5281.0,1060.0,4658.0,874.0,2537.0,2995.0,621.0,2025-07-01 21:18:05,87.0,,-0.454348975262292,-2.89988651107638,-1.09814700475772,,10.432681545057598,,
,5277.0,1055.0,4647.0,872.0,2539.0,2994.0,620.0,2025-07-01 21:18:06,88.0,,-0.454109764639366,-2.89986349947921,-1.09781660818463,,10.585345701187467,,
,5272.0,1052.0,4629.0,869.0,2526.0,2997.0,603.0,2025-07-01 21:18:06,88.0,,-0.453684339512482,-2.8998892684542,-1.09847789177399,,10.714300585420743,,
,5272.0,1052.0,4619.0,868.0,2528.0,3000.0,599.0,2025-07-01 21:18:08,89.0,,-0.453737088496427,-2.89979709106129,-1.09849854048307,,10.81629464181467,,
,5269.0,1052.0,4612.0,867.0,2522.0,3005.0,594.0,2025-07-01 21:18:08,89.0,,-0.45363305690176,-2.89977574675732,-1.09924918943867,,10.88762976352113,,
,5265.0,1050.0,4604.0,866.0,2536.0,3015.0,592.0,2025-07-01 21:18:09,89.0,,-0.453896351523372,-2.89987836346352,-1.09779853039523,,10.924062114138286,,
,5262.0,1049.0,4600.0,867.0,2554.0,3017.0,595.0,2025-07-01 21:18:11,89.0,,-0.453888603851179,-2.89993251144321,-1.09898884757179,,10.920775467015748,,
,5260.0,1048.0,4596.0,866.0,2566.0,3013.0,604.0,2025-07-01 21:18:12,89.0,,-0.453929351483361,-2.89980399139707,-1.097139516586,,10.872444662617028,,
,5258.0,1047.0,4596.0,864.0,2596.0,3016.0,610.0,2025-07-01 21:18:12,90.0,,-0.453931223061236,-2.89975623041385,-1.09842217862789,,10.7733947577777,,
,5256.0,1049.0,4595.0,866.0,2594.0,3017.0,581.0,2025-07-01 21:18:14,90.0,,-0.454177803198704,-2.89974207080492,-1.09846888240422,,10.617848077289013,,
,5255.0,1048.0,4595.0,867.0,2587.0,3016.0,593.0,2025-07-01 21:18:15,90.0,,-0.454316663036489,-2.89965574141341,-1.09929687651876,,10.40023927018713,,
,5252.0,1046.0,4594.0,863.0,2576.0,3016.0,575.0,2025-07-01 21:18:16,89.0,,-0.454602115698708,-2.89984185183213,-1.0990362130843,,10.115569978977819,,
2025-07-01 21:16:09,5252.0,1047.0,4595.0,864.0,2553.0,3013.0,558.0,2025-07-01 21:18:17,89.0,2025/07/01 09:16:09 PM,-0.454566673102732,-2.89983699716708,-1.09864868013512,,9.75977104167442,,
,5252.0,1046.0,4596.0,866.0,2579.0,3010.0,584.0,2025-07-01 21:18:18,89.0,,-0.454560385718831,-2.89986666448778,-1.09854450469444,,9.330041022985563,,
,5251.0,1049.0,4597.0,863.0,2585.0,3008.0,587.0,2025-07-01 21:18:18,89.0,,-0.454901741215044,-2.89988538847768,-1.09839013257805,,8.825133966542289,,
,5246.0,1046.0,4598.0,866.0,2583.0,3013.0,570.0,2025-07-01 21:18:19,90.0,,-0.45524516690482,-2.90002051859446,-1.09829712232353,,8.245574827803152,,
,5248.0,1046.0,4602.0,869.0,2580.0,3017.0,573.0,2025-07-01 21:18:21,90.0,,-0.455040361381243,-2.90016293444068,-1.09855099727989,,7.593786830030416,,
,5246.0,1049.0,4603.0,870.0,2557.0,2999.0,570.0,2025-07-01 21:18:21,90.0,,-0.455258505509903,-2.899970077605,-1.09903032558275,,6.874120868556478,,
,5249.0,1050.0,4606.0,870.0,2554.0,3000.0,595.0,2025-07-01 21:18:23,90.0,,-0.455227502685204,-2.90004433010135,-1.09791029658022,,6.09278373863913,,
,5249.0,1050.0,4611.0,868.0,2551.0,2998.0,601.0,2025-07-01 21:18:23,90.0,,-0.455183613580215,-2.89997725288256,-1.09891959723355,,5.257669549893905,,
,5245.0,1049.0,4611.0,868.0,2568.0,2995.0,597.0,2025-07-01 21:18:24,91.0,,-0.455513773174709,-2.89995078576336,-1.09959408255519,,4.378106146530007,,
,5247.0,1049.0,4615.0,869.0,2570.0,2985.0,605.0,2025-07-01 21:18:26,91.0,,-0.455451434094941,-2.89993900849615,-1.09932085535991,,3.4645340402146454,,
,5246.0,1049.0,4619.0,871.0,2569.0,3000.0,620.0,2025-07-01 21:18:26,92.0,,-0.455327617250014,-2.89998474733402,-1.09909637496226,,2.5281382931018364,,
,5245.0,1049.0,4620.0,869.0,2575.0,3001.0,604.0,2025-07-01 21:18:27,92.0,,-0.455306134730226,-2.89997404250788,-1.09851800475245,,1.5804542023543577,,
,5247.0,1050.0,4623.0,872.0,2548.0,2998.0,560.0,2025-07-01 21:18:29,92.0,,-0.455161579682969,-2.89992136318798,-1.09882190596819,,0.6329667249976227,,
,5244.0,1051.0,4624.0,870.0,2580.0,3018.0,575.0,2025-07-01 21:18:30,91.0,,-0.455209673895528,-2.89987965897648,-1.09923945936674,,-0.30327725600206246,,
,5246.0,1054.0,4626.0,875.0,2560.0,3006.0,599.0,2025-07-01 21:18:30,90.0,,-0.455271078568012,-2.89994665113371,-1.09897746247637,,-1.218024712587763,,
,5247.0,1052.0,4629.0,873.0,2560.0,2998.0,601.0,2025-07-01 21:18:31,90.0,,-0.455282872919704,-2.9000128628244,-1.09951524406053,,-2.102120811870843,,
,5243.0,1051.0,4624.0,871.0,2554.0,3001.0,608.0,2025-07-01 21:18:33,89.0,,-0.454899339334333,-2.89998824808952,-1.09953224050422,,-2.9477432744538694,,
,5242.0,1050.0,4627.0,868.0,2551.0,3007.0,609.0,2025-07-01 21:18:34,89.0,,-0.454944901814493,-2.89988139476493,-1.10008506415657,,-3.7485522571663483,,
,5246.0,1051.0,4632.0,872.0,2535.0,3014.0,596.0,2025-07-01 21:18:35,90.0,,-0.454880161030004,-2.89998829516757,-1.0998543654986,,-4.499748792888383,,
,5246.0,1050.0,4630.0,873.0,2543.0,3005.0,600.0,2025-07-01 21:18:35,90.0,,-0.454382631710743,-2.89997773956838,-1.099394712722,,-5.198044382331826,,
,5244.0,1052.0,4630.0,873.0,2559.0,3016.0,619.0,2025-07-01 21:18:37,90.0,,-0.454562044938152,-2.90008283544678,-1.10009781991448,,-5.841553740171861,,
,5243.0,1049.0,4627.0,870.0,2534.0,3006.0,631.0,2025-07-01 21:18:37,92.0,,-0.454414643444407,-2.89987758431454,-1.10048469021405,,-6.429630274394632,,
,5244.0,1052.0,4630.0,870.0,2537.0,2999.0,612.0,2025-07-01 21:18:38,93.0,,-0.454434384169063,-2.8999718316796,-1.09957704559396,,-6.962668714573803,,
,5243.0,1051.0,4630.0,872.0,2548.0,2999.0,601.0,2025-07-01 21:18:40,93.0,,-0.454829412594743,-2.90000803505644,-1.10060772880859,,-7.441900837676058,,
,5242.0,1051.0,4630.0,872.0,2547.0,2993.0,603.0,2025-07-01 21:18:41,93.0,,-0.45477226084506,-2.90006566763707,-1.09850691145789,,-7.869208090439803,,
,5242.0,1049.0,4628.0,870.0,2548.0,3004.0,625.0,2025-07-01 21:18:41,92.0,,-0.454698945196062,-2.90004148325684,-1.09982101135951,,-8.24696914592344,,
,5242.0,1049.0,4631.0,872.0,2561.0,2999.0,586.0,2025-07-01 21:18:42,91.0,,-0.454795705760284,-2.90001383271878,-1.09955912625963,,-8.577951761261957,,
,5240.0,1051.0,4631.0,872.0,2565.0,2998.0,604.0,2025-07-01 21:18:44,90.0,,-0.455201485682445,-2.900180570711,-1.09988333572634,,-8.865247963917424,,
,5242.0,1054.0,4636.0,873.0,2551.0,3000.0,596.0,2025-07-01 21:18:45,90.0,,-0.455293351065387,-2.90025163774303,-1.09920779223679,,-9.112241313806786,,
,5242.0,1052.0,4638.0,872.0,2559.0,3007.0,608.0,2025-07-01 21:18:45,90.0,,-0.455430249624977,-2.90024688880011,-1.10079275113892,,-9.322587084083695,,
,5238.0,1051.0,4636.0,872.0,2557.0,3004.0,595.0,2025-07-01 21:18:47,91.0,,-0.455554753904008,-2.90022226587753,-1.10029686841455,,-9.500183170182833,,
,5240.0,1051.0,4640.0,871.0,2552.0,3008.0,588.0,2025-07-01 21:18:47,91.0,,-0.45535360240184,-2.90012392790769,-1.10000103724974,,-9.649112704899741,,
,5242.0,1052.0,4644.0,874.0,2548.0,3014.0,611.0,2025-07-01 21:18:49,90.0,,-0.455519394211,-2.90025531879195,-1.09991352650852,,-9.773547664144735,,
,5240.0,1056.0,4646.0,874.0,2546.0,3017.0,620.0,2025-07-01 21:18:50,90.0,,-0.455535042643448,-2.90014179402611,-1.09924853584766,,-9.877613179462536,,
,5240.0,1053.0,4649.0,876.0,2560.0,3009.0,627.0,2025-07-01 21:18:50,89.0,,-0.456164530427731,-2.90010736837335,-1.09928209168555,,-9.965221717479714,,
,5241.0,1053.0,4651.0,872.0,2576.0,3011.0,591.0,2025-07-01 21:18:51,89.0,,-0.455699514684319,-2.90014991341693,-1.10009987464822,,-10.039892975180909,,
,5242.0,1057.0,4655.0,875.0,2569.0,3008.0,583.0,2025-07-01 21:18:52,90.0,,-0.455385632382127,-2.90013397797847,-1.1002156289738,,-10.104578869857033,,
,5243.0,1058.0,4657.0,876.0,2549.0,3013.0,593.0,2025-07-01 21:18:53,90.0,,-0.455094444702731,-2.90005386273413,-1.09948550774283,,-10.161513580376148,,
,5242.0,1056.0,4661.0,875.0,2563.0,3015.0,596.0,2025-07-01 21:18:55,89.0,,-0.454733325017662,-2.90004673794386,-1.09894582386266,,-10.212106482345037,,
,5242.0,1058.0,4662.0,876.0,2580.0,3004.0,605.0,2025-07-01 21:18:55,89.0,,-0.454486656490323,-2.8999557642876,-1.09852546056836,,-10.25689120031167,,
,5243.0,1059.0,4672.0,876.0,2595.0,3015.0,590.0,2025-07-01 21:18:56,88.0,,-0.454308867500234,-2.89997124865979,-1.09858611707691,,-10.295537111396131,,
,5240.0,1061.0,4671.0,878.0,2575.0,3012.0,576.0,2025-07-01 21:18:57,88.0,,-0.454011757841495,-2.900055103537,-1.09818888927872,,-10.326921118764261,,
,5242.0,1061.0,4676.0,878.0,2554.0,3005.0,589.0,2025-07-01 21:18:58,88.0,,-0.454532101245229,-2.89995580593941,-1.09824743302511,,-10.34924890610048,,
,5244.0,1058.0,4678.0,875.0,2565.0,3013.0,591.0,2025-07-01 21:18:59,89.0,,-0.454195682786992,-2.90010564045836,-1.09874307317166,,-10.360208578028834,,
,5245.0,1060.0,4681.0,876.0,2558.0,3009.0,577.0,2025-07-01 21:19:00,89.0,,-0.454533242211341,-2.89995375216778,-1.09903651779646,,-10.357137666022831,,
,5248.0,1065.0,4684.0,879.0,2553.0,3005.0,586.0,2025-07-01 21:19:01,89.0,,-0.454795637318335,-2.90007701345678,-1.10037492821259,,-10.337187142844563,,
,5247.0,1065.0,4689.0,879.0,2559.0,3001.0,603.0,2025-07-01 21:19:02,89.0,,-0.4551945525501,-2.89994510024244,-1.09978232064659,,-10.297471437390596,,
,5247.0,1062.0,4692.0,880.0,2572.0,2992.0,609.0,2025-07-01 21:19:03,89.0,,-0.455280158488592,-2.90012885989805,-1.09912216887507,,-10.235198912623938,,
,5248.0,1064.0,4696.0,879.0,2587.0,3012.0,630.0,2025-07-01 21:19:04,89.0,,-0.455421143420738,-2.90007032493401,-1.09994895479203,,-10.14778119965189,,
,5248.0,1066.0,4700.0,882.0,2565.0,3002.0,615.0,2025-07-01 21:19:06,89.0,,-0.455518964740374,-2.90005820140543,-1.10035935483095,,-10.032921782785625,,
,5251.0,1066.0,4704.0,883.0,2574.0,2993.0,627.0,2025-07-01 21:19:06,90.0,,-0.455677710497106,-2.90015182361316,-1.09943734900107,,-9.888684712019282,,
,5250.0,1067.0,4705.0,882.0,2568.0,2988.0,622.0,2025-07-01 21:19:08,89.0,,-0.455871278827834,-2.90021010166663,-1.10042849915034,,-9.713543948674088,,
,5248.0,1064.0,4708.0,881.0,2583.0,2999.0,599.0,,,,-0.455781253204054,-2.9001123469911,-1.10055798502339,,-9.50641315719452,,
,5250.0,1069.0,4714.0,884.0,2549.0,2987.0,586.0,,,,-0.456125139497136,-2.90023724130279,-1.09949666233523,,-9.26665490260922,,
,5252.0,1069.0,4718.0,885.0,2561.0,2986.0,580.0,,,,-0.456080318856358,-2.90019152239982,-1.10136683636397,,-8.99406723723033,,
,5253.0,1070.0,4723.0,885.0,2562.0,2985.0,588.0,,,,-0.456342591752955,-2.90022209681227,-1.09989488251945,,-8.688845181948166,,
,5255.0,1070.0,4726.0,885.0,2548.0,2986.0,577.0,,,,-0.456338432815882,-2.90035952483484,-1.10013913810798,,-8.35151599636489,,
,5257.0,1070.0,4731.0,885.0,2561.0,2988.0,597.0,,,,-0.456241679830874,-2.90020444493203,-1.10133186085552,,-7.9828513483280075,,
,5255.0,1071.0,4732.0,887.0,2565.0,2999.0,620.0,,,,-0.456385328994824,-2.90012618488735,-1.10100259079081,,-7.583765711456006,,
,5260.0,1074.0,4737.0,888.0,2549.0,3000.0,631.0,,,,-0.45629009761802,-2.90023225487462,-1.10055129800557,,-7.155216130234182,,
,5259.0,1073.0,4739.0,887.0,2572.0,3006.0,633.0,,,,-0.456368371235844,-2.90029783217772,-1.10064096495825,,-6.698121535818375,,
,5259.0,1073.0,4741.0,890.0,2596.0,3019.0,608.0,,,,-0.456569362658411,-2.90025685038669,-1.10018220382928,,-6.213319035814571,,
,5259.0,1075.0,4744.0,889.0,2593.0,3017.0,592.0,,,,-0.456808508767219,-2.90027374272793,-1.10084485370704,,-5.701570314376162,,
,5267.0,1076.0,4746.0,890.0,2571.0,3018.0,598.0,,,,-0.455861299399899,-2.90013828472033,-1.10068830216151,,-5.163624358418439,,
,5260.0,1073.0,4739.0,889.0,2572.0,3017.0,594.0,,,,-0.455800794575586,-2.90023330166154,-1.10117310247646,,-4.600334138175621,,
,5257.0,1072.0,4734.0,887.0,2549.0,3014.0,574.0,,,,-0.455725463135222,-2.90027465860282,-1.10068925033045,,-4.012815507182677,,
,5256.0,1070.0,4727.0,885.0,2550.0,3003.0,595.0,,,,-0.455849520425288,-2.90026477774874,-1.10036672089145,,-3.402627483251644,,
,5254.0,1069.0,4716.0,884.0,2561.0,2994.0,599.0,,,,-0.455792228920331,-2.90021595421536,-1.10040855027033,,-2.771945848968298,,
,5248.0,1064.0,4699.0,879.0,2559.0,3002.0,597.0,,,,-0.455747443290697,-2.90037185636562,-1.10037752150548,,-2.1236989005659606,,
,5243.0,1061.0,4681.0,877.0,2563.0,3005.0,588.0,,,,-0.456005936603137,-2.90026943369855,-1.10208831166858,,-1.461636977555023,,
,5237.0,1056.0,4666.0,875.0,2548.0,2998.0,593.0,,,,-0.455932083684881,-2.90019545500161,-1.10178629936468,,-0.790316040126195,,
,5235.0,1055.0,4654.0,874.0,2543.0,2998.0,636.0,,,,-0.455796819095517,-2.90015177888281,-1.10110869141367,,-0.11498785546031147,,
,5230.0,1055.0,4643.0,871.0,2549.0,3002.0,603.0,,,,-0.455320259525913,-2.90029639360213,-1.1010888739483,,0.5585975609470074,,
,5228.0,1053.0,4633.0,869.0,2531.0,3001.0,601.0,,,,-0.455216662132155,-2.90031253139261,-1.10070676137932,,1.2244598352691813,,
,5225.0,1050.0,4625.0,869.0,2544.0,2987.0,577.0,,,,-0.455214802657274,-2.90022300589951,-1.1012746545428,,1.8766997324350874,,
,5223.0,1050.0,4621.0,867.0,2542.0,2983.0,595.0,,,,-0.45523018887966,-2.90034468396731,-1.10211890911369,,2.509821488943459,,
,5225.0,1050.0,4616.0,867.0,2549.0,2974.0,605.0,,,,-0.455724187439196,-2.900349953407,-1.10220352434941,,3.119031276767892,,
,5218.0,1048.0,4617.0,867.0,2549.0,2984.0,576.0,,,,-0.456157532040899,-2.90025284710233,-1.10253851971847,,3.7004799637514756,,
,5218.0,1051.0,4617.0,865.0,2562.0,2999.0,583.0,,,,-0.456074776311189,-2.90013861022141,-1.10238357641562,,4.251426079210057,,
,5218.0,1049.0,4617.0,869.0,2577.0,3009.0,579.0,,,,-0.456165801173485,-2.90025949726512,-1.1015527405129,,4.770306476803217,,
,5217.0,1051.0,4619.0,868.0,2565.0,3023.0,571.0,,,,-0.456085659526151,-2.90034292097473,-1.10112497300958,,5.256715272823335,,
,5216.0,1052.0,4621.0,870.0,2568.0,3021.0,575.0,,,,-0.456297931810557,-2.90032299592577,-1.1012600630866,,5.711303234646788,,
,5215.0,1051.0,4623.0,870.0,2584.0,3003.0,568.0,,,,-0.455948316952694,-2.90038481889355,-1.10129017960034,,6.135617566833811,,
,5215.0,1051.0,4624.0,870.0,2582.0,3005.0,567.0,,,,-0.456030470623399,-2.90022429750876,-1.10264564490963,,6.53190508825987,,
,5214.0,1051.0,4627.0,868.0,2582.0,3004.0,582.0,,,,-0.456122002126976,-2.90030202358166,-1.10232577801033,,6.9029003710524925,,
,5216.0,1050.0,4631.0,870.0,2564.0,3016.0,583.0,,,,-0.455807843841508,-2.90037902261863,-1.10222483144443,,7.251615538082716,,
,5215.0,1052.0,4634.0,870.0,2561.0,3010.0,605.0,,,,-0.456089806467795,-2.90037709255421,-1.10264472933714,,7.581141889241863,,
,5213.0,1051.0,4639.0,870.0,2571.0,3016.0,592.0,,,,-0.456210311918386,-2.90032100500131,-1.10226000101036,,7.89446768661195,,
,5214.0,1052.0,4640.0,870.0,2574.0,3013.0,604.0,,,,-0.456076491190817,-2.9001491082428,-1.1016328007956,,8.194313219781801,,
,5215.0,1055.0,4644.0,876.0,2568.0,3019.0,600.0,,,,-0.456391738135314,-2.90030917445792,-1.10263029883744,,8.482984351156594,,
,5215.0,1056.0,4651.0,873.0,2557.0,3020.0,604.0,,,,-0.456163971835341,-2.90038215521387,-1.1023597691987,,8.762248351183082,,
,5215.0,1057.0,4654.0,873.0,2576.0,3004.0,633.0,,,,-0.456222250630924,-2.90026801746432,-1.10345576215312,,9.033239259128433,,
,5212.0,1054.0,4656.0,872.0,2591.0,2981.0,613.0,,,,-0.456493932425104,-2.90033634136447,-1.10218459656194,,9.296402144882537,,
,5215.0,1056.0,4658.0,873.0,2573.0,3012.0,598.0,,,,-0.456263128335078,-2.90028808350829,-1.10288520734033,,9.551484745576163,,
,5215.0,1057.0,4659.0,874.0,2542.0,3007.0,596.0,,,,-0.456324232336095,-2.90032564109142,-1.10227934251455,,9.797580503826522,,
,5214.0,1057.0,4663.0,875.0,2549.0,3013.0,590.0,,,,-0.45607384593617,-2.90035941639792,-1.10177103662491,,10.033220210519689,,
,5214.0,1055.0,4662.0,874.0,2561.0,3022.0,570.0,,,,-0.456310472726117,-2.90037126813688,-1.10249729642291,,10.256502385654747,,
,5212.0,1059.0,4666.0,877.0,2563.0,3007.0,605.0,,,,-0.456318152494896,-2.90031778410289,-1.10276553402544,,10.465247016550746,,
,5218.0,1059.0,4670.0,876.0,2563.0,3012.0,630.0,,,,-0.456391559151412,-2.90027326620059,-1.10257037872568,,10.657154190633962,,
,5216.0,1059.0,4671.0,877.0,2563.0,3009.0,622.0,,,,-0.456273507410383,-2.90031236348242,-1.1024992976999,,10.829948841839473,,
,5215.0,1058.0,4671.0,876.0,2561.0,2984.0,631.0,,,,-0.456221880101147,-2.90038493424507,-1.10345527788799,,10.981495430152291,,
,5214.0,1057.0,4671.0,875.0,2554.0,2999.0,626.0,,,,-0.456183019572125,-2.90029176725668,-1.10343544914561,,11.109871696435622,,
,5215.0,1058.0,4673.0,877.0,2566.0,3017.0,611.0,,,,-0.456039356717228,-2.90042539787491,-1.10296713794812,,11.213397894120678,,
,5215.0,1059.0,4673.0,876.0,2552.0,3023.0,596.0,,,,-0.456264300576028,-2.90032153442755,-1.10346786863451,,11.290625704239309,,
,5215.0,1060.0,4671.0,877.0,2545.0,3024.0,584.0,,,,-0.456152517685207,-2.90024123415288,-1.10312969593548,,11.340297458792246,,
,5214.0,1057.0,4672.0,876.0,2555.0,3016.0,589.0,,,,-0.455924405013814,-2.90049139654771,-1.10206272467323,,11.361289341324392,,
,5214.0,1060.0,4675.0,877.0,2543.0,3013.0,586.0,,,,-0.455817418260512,-2.90036083739617,-1.10257813718167,,11.352551095251837,,
,5214.0,1059.0,4673.0,875.0,2553.0,3019.0,598.0,,,,-0.455506586991392,-2.90037289050227,-1.10278391682488,,11.313050790623723,,
,5214.0,1061.0,4678.0,878.0,2566.0,3021.0,602.0,,,,-0.455943805571837,-2.90042977166318,-1.10291417637458,,11.24172902115745,,
,5213.0,1059.0,4677.0,875.0,2570.0,3005.0,605.0,,,,-0.455930823817077,-2.9003466697086,-1.10233391188413,,11.137464351832307,,
,5215.0,1061.0,4679.0,878.0,2552.0,3009.0,623.0,,,,-0.455998210292566,-2.90044895757766,-1.1028116326788,,10.999051000198927,,
,5216.0,1062.0,4684.0,878.0,2550.0,3007.0,643.0,,,,-0.456101767920335,-2.90054857864063,-1.10289031051535,,10.825190006443309,,
,5215.0,1063.0,4686.0,878.0,2532.0,3002.0,634.0,,,,-0.456564882944586,-2.90057852110802,-1.10400267798426,,10.614496208829951,,
,5219.0,1063.0,4687.0,879.0,2541.0,3012.0,611.0,,,,-0.456195145838317,-2.9006554899678,-1.10258003432844,,10.365524764387143,,
,5215.0,1063.0,4690.0,878.0,2541.0,3012.0,621.0,,,,-0.456020797110579,-2.90058962998386,-1.10349992133461,,10.076821745144015,,
,5218.0,1066.0,4694.0,880.0,2556.0,2995.0,605.0,,,,-0.455875891142346,-2.90053882382377,-1.1022137816621,,9.747002513152069,,
,5220.0,1065.0,4699.0,880.0,2555.0,2999.0,593.0,,,,-0.45583888316872,-2.90049207882846,-1.102642858888,,9.37485881001978,,
,5217.0,1066.0,4700.0,882.0,2572.0,3008.0,601.0,,,,-0.455396512407422,-2.90039502597964,-1.10211214665261,,8.95949105576721,,
,5218.0,1068.0,4702.0,881.0,2552.0,2999.0,609.0,,,,-0.455317307355679,-2.90048757860493,-1.10114641871796,,8.500457033924626,,
,5221.0,1068.0,4705.0,883.0,2554.0,3017.0,579.0,,,,-0.455066794317558,-2.90037872217341,-1.10177709966961,,7.997923505794453,,
,5221.0,1069.0,4711.0,883.0,2537.0,2998.0,580.0,,,,-0.454951931291073,-2.90010350696914,-1.10085129199246,,7.452805172872075,,
,5222.0,1071.0,4714.0,886.0,2541.0,3006.0,576.0,,,,-0.454886572148964,-2.90028524970377,-1.10072756847548,,6.866876541817099,,
,5222.0,1073.0,4717.0,884.0,2541.0,3010.0,616.0,,,,-0.454571436632682,-2.90021646680113,-1.10077587712385,,6.242845709315696,,
,5219.0,1070.0,4720.0,884.0,2540.0,3015.0,599.0,,,,-0.454562490000107,-2.90027957170898,-1.10104148621625,,5.584383186152833,,
,5224.0,1070.0,4726.0,885.0,2535.0,2984.0,623.0,,,,-0.454523660935952,-2.90014974604113,-1.10137171755895,,4.896102387454058,,
,5225.0,1072.0,4730.0,886.0,2548.0,2996.0,602.0,,,,-0.45444350565474,-2.90009480926796,-1.10068191491255,,4.18349083105615,,
,5227.0,1073.0,4732.0,886.0,2546.0,3005.0,607.0,,,,-0.454787784195796,-2.90025853798858,-1.10123438392344,,3.4527923990743696,,
,5226.0,1075.0,4735.0,886.0,2547.0,3007.0,613.0,,,,-0.455059151523713,-2.90021810742745,-1.10121311281548,,2.7108417528729785,,
2025-07-01 21:16:10,5228.0,1074.0,4739.0,887.0,2565.0,3022.0,609.0,,,2025/07/01 09:16:10 PM,-0.455443851809539,-2.90042149554753,-1.10201018711615,,1.9648532426390448,,
,5230.0,1076.0,4744.0,889.0,2575.0,3021.0,593.0,,,,-0.455245998528629,-2.90024759419341,-1.10216199790412,,1.222169416615387,,
,5231.0,1076.0,4750.0,890.0,2577.0,3023.0,606.0,,,,-0.455437768550825,-2.90038516732215,-1.10170629366448,,0.48997848687507195,,
,5231.0,1077.0,4751.0,888.0,2549.0,3016.0,608.0,,,,-0.455791502811826,-2.90045340813913,-1.10179000091751,,-0.22498518847759943,,
,5231.0,1079.0,4756.0,891.0,2573.0,3002.0,613.0,,,,-0.45618886607934,-2.90056822098849,-1.1025596440986,,-0.9167394221455057,,
,5236.0,1080.0,4761.0,894.0,2558.0,2987.0,607.0,,,,-0.456106761883747,-2.90052058799919,-1.10264802228514,,-1.580329891072261,,
,5235.0,1079.0,4764.0,893.0,2558.0,2993.0,608.0,,,,-0.456239793650654,-2.90067100371126,-1.10259300390866,,-2.2120593818012497,,
,5235.0,1082.0,4768.0,894.0,2553.0,3002.0,619.0,,,,-0.456605990446339,-2.90049529002879,-1.10339105297419,,-2.809645428321956,,
,5235.0,1080.0,4770.0,892.0,2571.0,3005.0,577.0,,,,-0.456586497232569,-2.90050497109889,-1.10339842956348,,-3.372281420939821,,
,5236.0,1084.0,4775.0,895.0,2567.0,2994.0,606.0,,,,-0.456459931772902,-2.90052117227184,-1.10317457783357,,-3.900578472902169,,
,5240.0,1084.0,4780.0,894.0,2556.0,3004.0,596.0,,,,-0.456624073067116,-2.90053659870851,-1.10305005134471,,-4.396369850589562,,
,5243.0,1086.0,4782.0,893.0,2558.0,3016.0,588.0,,,,-0.456235822841394,-2.90063140270999,-1.10303925617216,,-4.86236735781524,,
,5244.0,1086.0,4787.0,893.0,2549.0,3020.0,608.0,,,,-0.456541481555872,-2.90058167876215,-1.10361426551851,,-5.301670891619177,,
,5243.0,1086.0,4788.0,895.0,2565.0,3016.0,636.0,,,,-0.456044185514877,-2.90042628997381,-1.10216106850287,,-5.717149153411037,,
,5247.0,1087.0,4794.0,898.0,2571.0,3014.0,634.0,,,,-0.456490119907369,-2.9005335085096,-1.10220195046275,,-6.110730473183667,,
,5247.0,1089.0,4798.0,899.0,2560.0,3007.0,613.0,,,,-0.456308326216306,-2.90056026707975,-1.1021227912425,,-6.482665718705858,,
,5249.0,1090.0,4799.0,899.0,2560.0,3013.0,599.0,,,,-0.456130092248733,-2.90038870021874,-1.10177408770377,,-6.830847227144482,,
,5251.0,1090.0,4799.0,898.0,2557.0,3001.0,589.0,,,,-0.455676026004836,-2.9004673128003,-1.10224336179158,,-7.150284646867192,,
,5250.0,1088.0,4796.0,899.0,2563.0,2998.0,601.0,,,,-0.455756603860724,-2.90050346322785,-1.10233661314027,,-7.432845607690651,,
,5249.0,1091.0,4793.0,898.0,2559.0,3012.0,596.0,,,,-0.455796597465652,-2.90051746097305,-1.10197396499236,,-7.667361380708262,,
,5247.0,1086.0,4786.0,897.0,2557.0,3016.0,616.0,,,,-0.456027771652839,-2.90042584936473,-1.10318536228975,,-7.840172212027976,,
,5245.0,1082.0,4773.0,892.0,2544.0,3022.0,622.0,,,,-0.456267879385282,-2.90047143028826,-1.1028122999076,,-7.936144297485699,,
,5241.0,1078.0,4760.0,890.0,2534.0,3019.0,652.0,,,,-0.456218473985609,-2.90050914174642,-1.10211066727785,,-7.940134381388682,,
,5235.0,1078.0,4744.0,886.0,2537.0,3009.0,628.0,,,,-0.456063429750397,-2.90051399899292,-1.10262401761827,,-7.838815064559452,,
,5234.0,1079.0,4733.0,887.0,2560.0,3006.0,629.0,,,,-0.45620223012973,-2.90054007941698,-1.10250182531637,,-7.622711455451878,,
,5232.0,1075.0,4720.0,885.0,2556.0,3005.0,619.0,,,,-0.455936722437515,-2.90049228721873,-1.10214200834235,,-7.288245327092324,,
,5225.0,1070.0,4707.0,881.0,2552.0,2992.0,637.0,,,,-0.455900190970821,-2.90054296635979,-1.10304614576596,,-6.839543888206281,,
,5226.0,1073.0,4700.0,880.0,2534.0,3005.0,629.0,,,,-0.455460137122567,-2.90046106312303,-1.10320956607154,,-6.28975383877765,,
,5227.0,1071.0,4691.0,879.0,2536.0,2991.0,628.0,,,,-0.45588148141702,-2.90050965539458,-1.10289114191844,,-5.661614348528944,,
,5224.0,1070.0,4688.0,882.0,2543.0,3001.0,610.0,,,,-0.45579715558045,-2.9005011681154,-1.10192464350403,,-4.987090848549986,,
,5222.0,1066.0,4680.0,879.0,2562.0,3018.0,592.0,,,,-0.45563634948101,-2.90039796101272,-1.10201631904023,,-4.30595808070517,,
,5219.0,1070.0,4681.0,877.0,2576.0,3024.0,583.0,,,,-0.455928302923726,-2.90050742683396,-1.10297419687557,,-3.6633421680981946,,
,5220.0,1069.0,4681.0,880.0,2578.0,3013.0,611.0,,,,-0.455377199067877,-2.90044927119673,-1.10170568290085,,-3.1063744235447532,,
,5223.0,1069.0,4683.0,881.0,2581.0,3005.0,615.0,,,,-0.45529635480498,-2.900449496696,-1.10226513355585,,-2.6802520598793453,,
,5220.0,1067.0,4684.0,880.0,2584.0,2997.0,604.0,,,,-0.455124555500463,-2.90027807740491,-1.10140040531782,,-2.4241160858301405,,
,5222.0,1069.0,4681.0,880.0,2573.0,3005.0,608.0,,,,-0.454783762952488,-2.90033488362675,-1.10158513622967,,-2.367219321735047,,
,5219.0,1072.0,4686.0,882.0,2557.0,2999.0,623.0,,,,-0.455219607337101,-2.90021675852762,-1.10094632141242,,-2.525851136130358,,
,5220.0,1071.0,4688.0,882.0,2548.0,3013.0,607.0,,,,-0.454837310762959,-2.90040033387588,-1.10186172423145,,-2.9014078150889873,,
,5222.0,1074.0,4692.0,883.0,2551.0,3005.0,601.0,,,,-0.455014868096998,-2.90034894760089,-1.1007620297048,,-3.4798610646833934,,
,5220.0,1070.0,4696.0,881.0,2553.0,3001.0,594.0,,,,-0.455268479461413,-2.90036938732057,-1.10182802104668,,-4.2327050119929845,,
,5223.0,1073.0,4702.0,884.0,2554.0,3016.0,619.0,,,,-0.455418927204571,-2.90049382600888,-1.10145664157629,,-5.119281067659314,,
,5222.0,1073.0,4704.0,882.0,2589.0,3015.0,604.0,,,,-0.455569202745007,-2.90038870542834,-1.10227379554705,,-6.090216315559579,,
,5222.0,1075.0,4709.0,884.0,2584.0,3012.0,582.0,,,,-0.455305621398793,-2.90048822558048,-1.10223626635708,,-7.091587614384937,,
,5224.0,1076.0,4712.0,887.0,2554.0,3007.0,591.0,,,,-0.455328490611139,-2.90033555135424,-1.10142517790945,,-8.069357155628218,,
,5226.0,1074.0,4715.0,885.0,2560.0,3001.0,584.0,,,,-0.45508646032746,-2.90034471902269,-1.10149186561959,,-8.973622667944706,,
,5225.0,1078.0,4720.0,887.0,2546.0,2991.0,596.0,,,,-0.454953523227909,-2.90031176776398,-1.10122688131734,,-9.762280958529571,,
,5229.0,1077.0,4725.0,887.0,2571.0,3004.0,610.0,,,,-0.45534203701349,-2.90045230552106,-1.10124344771386,,-10.403800236785326,,
,5228.0,1079.0,4727.0,888.0,2573.0,3008.0,597.0,,,,-0.455025239275778,-2.90041198764768,-1.10124996505352,,-10.878913170414691,,
,5229.0,1076.0,4729.0,887.0,2569.0,3009.0,590.0,,,,-0.45506891095414,-2.90037888091827,-1.10177341205441,,-11.181159995190525,,
,5229.0,1077.0,4731.0,887.0,2545.0,3011.0,613.0,,,,-0.454877748276171,-2.90040704995376,-1.10207779087047,,-11.316317319605774,,
,5229.0,1079.0,4734.0,889.0,2539.0,3000.0,615.0,,,,-0.454938887699389,-2.90042694965479,-1.10135573136395,,-11.30083851265091,,
,5230.0,1082.0,4738.0,891.0,2536.0,2998.0,610.0,,,,-0.455241606749698,-2.90031472116122,-1.10225616572383,,-11.159504717173904,,
,5231.0,1081.0,4740.0,891.0,2519.0,2994.0,630.0,,,,-0.455283668196231,-2.90031188282286,-1.10213577159274,,-10.922541197887659,,
,5234.0,1079.0,4738.0,892.0,2543.0,3002.0,619.0,,,,-0.455135989997688,-2.90038471608063,-1.10203032019929,,-10.622489537556751,,
,5232.0,1081.0,4739.0,891.0,2532.0,2995.0,603.0,,,,-0.454954791587305,-2.90037797174582,-1.10196505031702,,-10.29113700052695,,
,5235.0,1081.0,4742.0,890.0,2548.0,2998.0,597.0,,,,-0.455216991795138,-2.90034851702717,-1.10244820095423,,-9.95678466050539,,
,5234.0,1081.0,4742.0,894.0,2534.0,3003.0,597.0,,,,-0.455175666196217,-2.90039114352107,-1.10156287180294,,-9.642084618246614,,
,5233.0,1078.0,4740.0,889.0,2534.0,3009.0,619.0,,,,-0.454962140574674,-2.90037626874618,-1.10119160690195,,-9.36260091395963,,
,5234.0,1078.0,4742.0,893.0,2538.0,3015.0,620.0,,,,-0.455005891788445,-2.9002886353175,-1.10207239668508,,-9.126162194379335,,
,5237.0,1081.0,4743.0,891.0,2556.0,2996.0,604.0,,,,-0.454837023214103,-2.90028673552258,-1.10111708126628,,-8.932990854131221,,
,5238.0,1082.0,4744.0,892.0,2549.0,3002.0,611.0,,,,-0.455074806842139,-2.90029147459652,-1.10133699130516,,-8.776522337320179,,
,5235.0,1083.0,4743.0,895.0,2542.0,2989.0,624.0,,,,-0.454898334329747,-2.90033481952824,-1.10159639884598,,-8.644773226103327,,
,5238.0,1084.0,4744.0,893.0,2539.0,2997.0,618.0,,,,-0.455043872895855,-2.90043945330993,-1.10156001865499,,-8.522078815310678,,
,5239.0,1084.0,4748.0,893.0,2552.0,2999.0,610.0,,,,-0.45495389314621,-2.90036672717204,-1.10041381134024,,-8.391001252006957,,
,5237.0,1084.0,4748.0,891.0,2566.0,2999.0,607.0,,,,-0.455481296166405,-2.90041984025864,-1.1020685025742,,-8.234209562058249,,
,5239.0,1083.0,4751.0,894.0,2575.0,3004.0,621.0,,,,-0.455479490945855,-2.9004393877642,-1.10145940764662,,-8.036153725395451,,
,5242.0,1083.0,4752.0,895.0,2538.0,3012.0,616.0,,,,-0.455582141742297,-2.90053405877968,-1.10296611411847,,-7.784394604805903,,
,5242.0,1087.0,4754.0,893.0,2537.0,3003.0,643.0,,,,-0.454749072170483,-2.90046211406558,-1.1018566461952,,-7.4705042655890335,,
,5242.0,1087.0,4756.0,894.0,2553.0,3006.0,630.0,,,,-0.45490112223805,-2.90050158980664,-1.10075919063899,,-7.090507486147864,,
,5246.0,1088.0,4760.0,896.0,2568.0,3016.0,615.0,,,,-0.45482670646346,-2.90050899096549,-1.10133404988567,,-6.644884411308217,,
,5244.0,1088.0,4762.0,896.0,2562.0,3003.0,611.0,,,,-0.454851024161972,-2.90035019516786,-1.10028367880331,,-6.138189439734868,,
,5246.0,1086.0,4767.0,895.0,2561.0,2998.0,621.0,,,,-0.454738571120418,-2.90034019070109,-1.10003294493485,,-5.578362755188521,,
,5248.0,1090.0,4770.0,898.0,2593.0,2994.0,602.0,,,,-0.454288005069374,-2.90042086936697,-1.09916593304967,,-4.9758238457358495,,
,5248.0,1092.0,4772.0,898.0,2597.0,2992.0,591.0,,,,-0.454677155773181,-2.90028947273782,-1.10024647782362,,-4.34244563951689,,
,5252.0,1092.0,4778.0,899.0,2575.0,3008.0,618.0,,,,-0.454409501113738,-2.90027187294258,-1.09937321424304,,-3.6905133839988022,,
,5251.0,1090.0,4780.0,899.0,2544.0,3019.0,580.0,,,,-0.45420747485158,-2.9002636229831,-1.09956172082011,,-3.0317703603029638,,
,5256.0,1093.0,4786.0,900.0,2558.0,3008.0,602.0,,,,-0.454054440248069,-2.90012641650864,-1.09968805219844,,-2.376639772051708,,
,5255.0,1095.0,4788.0,901.0,2555.0,3009.0,597.0,,,,-0.453754558314073,-2.90017336968397,-1.09916017972933,,-1.7336887866893442,,
,5258.0,1096.0,4792.0,901.0,2550.0,3010.0,596.0,,,,-0.453551205231269,-2.90018120727264,-1.0988241825324,,-1.1093698557321634,,
,5256.0,1093.0,4793.0,903.0,2551.0,3014.0,595.0,,,,-0.453697959551563,-2.9002035846263,-1.09926603901383,,-0.5080402698286599,,
,5260.0,1097.0,4799.0,903.0,2553.0,3003.0,604.0,,,,-0.453902532320839,-2.90007807901185,-1.0989372906185,,0.06777289189329477,,
,5263.0,1098.0,4800.0,905.0,2557.0,3003.0,635.0,,,,-0.453749826218123,-2.90011223300291,-1.09976508962513,,0.6169256265831344,,
,5265.0,1098.0,4807.0,906.0,2550.0,3004.0,638.0,,,,-0.454135174672285,-2.90012976911815,-1.10004952835545,,1.1391147741463141,,
,5267.0,1097.0,4809.0,906.0,2554.0,3005.0,610.0,,,,-0.454348624369597,-2.90007643481863,-1.09975001895052,,1.6343415373864678,,
,5269.0,1100.0,4811.0,903.0,2555.0,3017.0,596.0,,,,-0.454560406707168,-2.90017711437485,-1.09996014484232,,2.1024812109529423,,
,5274.0,1103.0,4816.0,907.0,2552.0,3016.0,604.0,,,,-0.454811954576879,-2.90024407668198,-1.09943019174972,,2.5430417636003635,,
,5272.0,1104.0,4819.0,908.0,2554.0,3004.0,610.0,,,,-0.455096465826619,-2.90020089433502,-1.10018681244626,,2.9551583727524164,,
,5275.0,1101.0,4823.0,910.0,2553.0,3006.0,601.0,,,,-0.455127138517706,-2.90020396528411,-1.09988520253126,,3.337822500560786,,
,5274.0,1101.0,4824.0,908.0,2565.0,3007.0,594.0,,,,-0.455045921867174,-2.9002700194742,-1.09979150966202,,3.6902929138757976,,
,5278.0,1105.0,4829.0,910.0,2569.0,3007.0,602.0,,,,-0.454821952514381,-2.90031747763864,-1.10103527148593,,4.012595232372326,,
,5278.0,1106.0,4834.0,914.0,2594.0,3006.0,589.0,,,,-0.454932272471222,-2.90039186139781,-1.10115620578154,,4.305996876140219,,
,5283.0,1106.0,4838.0,911.0,2575.0,2996.0,577.0,,,,-0.455077943012987,-2.90026733823813,-1.10078904393937,,4.573349727192783,,
,5285.0,1105.0,4841.0,912.0,2556.0,2999.0,595.0,,,,-0.455523978569566,-2.90028908639326,-1.1010946968687,,4.8192197987227,,
,5284.0,1106.0,4845.0,913.0,2544.0,2994.0,602.0,,,,-0.455265022039348,-2.90029406415945,-1.10053238199863,,5.049763220070815,,
,5286.0,1109.0,4850.0,914.0,2535.0,2999.0,605.0,,,,-0.455278590610775,-2.90036563829787,-1.10009593944708,,5.272351764485395,,
,5288.0,1111.0,4852.0,916.0,2544.0,3015.0,608.0,,,,-0.455383410131827,-2.90037881847924,-1.10097224339345,,5.49499181214816,,
,5292.0,1112.0,4856.0,914.0,2563.0,3017.0,614.0,,,,-0.455054733594552,-2.9003577462712,-1.10020863577883,,5.725612836622189,,
,5291.0,1110.0,4858.0,914.0,2592.0,3024.0,609.0,,,,-0.455521009139257,-2.90027885084869,-1.10096813174913,,5.971321126330922,,
,5292.0,1114.0,4861.0,915.0,2581.0,3010.0,608.0,,,,-0.455112699065237,-2.90031842985308,-1.10006598959402,,6.237718843495746,,
,5296.0,1113.0,4866.0,916.0,2570.0,3006.0,628.0,,,,-0.455273280542607,-2.90030925677363,-1.10122962241759,,6.52837757051383,,
,5297.0,1113.0,4862.0,918.0,2582.0,3010.0,606.0,,,,-0.455249776475233,-2.9003788702603,-1.10012901842973,,6.844531856775883,,
,5296.0,1111.0,4858.0,913.0,2573.0,3015.0,613.0,,,,-0.455180573612787,-2.90032437763597,-1.10075245711874,,7.185026322865909,,
,5297.0,1112.0,4854.0,915.0,2551.0,3015.0,629.0,,,,-0.455090302764638,-2.90032250785617,-1.10058348234819,,7.546514455939322,,
,5297.0,1109.0,4847.0,913.0,2537.0,2999.0,610.0,,,,-0.455242281729534,-2.90022704439717,-1.10040189831879,,7.923873178713579,,
,5295.0,1109.0,4832.0,910.0,2541.0,2998.0,600.0,,,,-0.454815962826866,-2.90018717502577,-1.10052176817634,,8.31076936801399,,
,5291.0,1104.0,4820.0,909.0,2549.0,2985.0,610.0,,,,-0.454925394415708,-2.90026440127503,-1.10058471347939,,8.700297125655336,,
,5289.0,1101.0,4807.0,906.0,2535.0,2999.0,621.0,,,,-0.455489660304719,-2.9002992980263,-1.10101862854727,,9.085600867418515,,
,5288.0,1099.0,4792.0,903.0,2552.0,3005.0,627.0,,,,-0.45471224317894,-2.90021847110558,-1.10076885014467,,9.460409798824703,,
,5286.0,1096.0,4777.0,903.0,2553.0,3001.0,620.0,,,,-0.454800896297907,-2.90026646720568,-1.10039607779409,,9.819431390388965,,
,5283.0,1095.0,4767.0,901.0,2554.0,2995.0,627.0,,,,-0.455120816561384,-2.90032008902459,-1.10095747646347,,10.15857941592976,,
,5280.0,1094.0,4753.0,898.0,2563.0,3002.0,625.0,,,,-0.455112346235488,-2.90041600184398,-1.10173238003847,,10.475039169671302,,
,5280.0,1090.0,4749.0,900.0,2539.0,2990.0,627.0,,,,-0.455064011551329,-2.90028908932597,-1.100818190833,,10.767193067147943,,
,5280.0,1092.0,4740.0,896.0,2529.0,3017.0,638.0,,,,-0.455137821948833,-2.90030495802231,-1.10043758831582,,11.034441243607114,,
,5278.0,1091.0,4736.0,897.0,2538.0,3010.0,636.0,,,,-0.455230259154353,-2.90030373139518,-1.10036940785523,,11.276954092544218,,
,5278.0,1092.0,4738.0,894.0,2552.0,2994.0,606.0,,,,-0.455117869416815,-2.90040128634053,-1.10025000173158,,11.495388846542152,,
,5280.0,1093.0,4732.0,896.0,2549.0,3016.0,604.0,,,,-0.455313273737397,-2.90029107434112,-1.10006392403448,,11.69059317741602,,
,5279.0,1095.0,4735.0,900.0,2564.0,3014.0,582.0,,,,-0.455621439847782,-2.9002672771934,-1.09967435055691,,11.86330892969035,,
,5280.0,1094.0,4737.0,898.0,2571.0,3016.0,597.0,,,,-0.455457068113762,-2.9003307428412,-1.10117659794421,,12.013882325964858,,
,5280.0,1095.0,4738.0,899.0,2586.0,3016.0,593.0,,,,-0.455606257538623,-2.90030761121834,-1.10080337835996,,12.141986374630074,,
,5280.0,1095.0,4740.0,898.0,2592.0,3012.0,597.0,,,,-0.45560944524748,-2.9003888536467,-1.10094985733756,,12.246367762853845,,
,5281.0,1095.0,4746.0,901.0,2574.0,3023.0,611.0,,,,-0.456113493025141,-2.9003923615488,-1.10065491129083,,12.324642291549846,,
,5282.0,1096.0,4748.0,899.0,2567.0,3016.0,574.0,,,,-0.456292997136694,-2.90040373670374,-1.10170537739141,,12.373175277290677,,
,5280.0,1097.0,4749.0,902.0,2553.0,3019.0,570.0,,,,-0.455685786378302,-2.90031234945585,-1.10028148607723,,12.387090574498323,,
,5281.0,1097.0,4753.0,902.0,2557.0,3003.0,586.0,,,,-0.455866204459966,-2.90043127102395,-1.10058838952578,,12.360449559081891,,
,5283.0,1098.0,4756.0,902.0,2585.0,3008.0,590.0,,,,-0.45635209988439,-2.90046192730546,-1.10124822580505,,12.28662826717934,,
,5285.0,1100.0,4763.0,904.0,2580.0,3003.0,595.0,,,,-0.455982476165243,-2.90049525558779,-1.10098351045016,,12.158898315497195,,
,5285.0,1101.0,4767.0,904.0,2585.0,3006.0,606.0,,,,-0.456291727623567,-2.90023241881515,-1.10143590475271,,11.971187413123802,,
,5288.0,1099.0,4771.0,905.0,2587.0,3003.0,592.0,,,,-0.456291332386927,-2.90036849329854,-1.10030353242592,,11.718960297578437,,
2025-07-01 21:16:11,5285.0,1099.0,4773.0,906.0,2564.0,2993.0,596.0,,,2025/07/01 09:16:11 PM,-0.456729637585076,-2.90033963715672,-1.10144446012474,,11.40012443785224,,
,5288.0,1102.0,4780.0,909.0,2549.0,2994.0,617.0,,,,-0.456331949173775,-2.90038307081586,-1.10086614598758,,11.015834009501681,,
,5292.0,1104.0,4779.0,905.0,2576.0,3004.0,623.0,,,,-0.456360916906588,-2.90027459560629,-1.09968383971553,,10.571050422696814,,
,5293.0,1102.0,4784.0,908.0,2568.0,3001.0,620.0,,,,-0.456085413545579,-2.90029837660946,-1.10086458510076,,10.074727152982138,,
,5292.0,1101.0,4786.0,907.0,2560.0,2992.0,600.0,,,,-0.455699789570666,-2.90035164432933,-1.09972859783912,,9.539524699823827,,
,5294.0,1100.0,4788.0,909.0,2540.0,3012.0,598.0,,,,-0.456360937912422,-2.90030936070188,-1.10097063544672,,8.981024522849895,,
,5296.0,1104.0,4791.0,908.0,2551.0,3028.0,592.0,,,,-0.455964085808568,-2.90033617968878,-1.1002711497116,,8.416487917379424,,
,5296.0,1105.0,4792.0,912.0,2557.0,3023.0,614.0,,,,-0.455797037401855,-2.90029570350477,-1.10076866841317,,7.863281517876534,,
,5297.0,1104.0,4794.0,912.0,2540.0,3016.0,616.0,,,,-0.455676283371012,-2.90040461932997,-1.10065769147456,,7.337149374274511,,
,5295.0,1102.0,4791.0,909.0,2527.0,3007.0,608.0,,,,-0.455149665502887,-2.90027040103378,-1.0999732033089,,6.85054023896371,,
,5300.0,1104.0,4794.0,910.0,2534.0,3003.0,606.0,,,,-0.455263208208964,-2.90030696376889,-1.10066448204011,,6.411193498834431,,
,5299.0,1106.0,4794.0,912.0,2547.0,3012.0,624.0,,,,-0.455331261115167,-2.90040480314776,-1.10097353535695,,6.021152334783714,,
,5300.0,1104.0,4792.0,910.0,2553.0,3011.0,630.0,,,,-0.455219868681756,-2.90042503745459,-1.10083616045835,,5.676318199596304,,
,5303.0,1105.0,4792.0,912.0,2572.0,3009.0,616.0,,,,-0.455533832686641,-2.9003375459953,-1.10048324791192,,5.366597958767616,,
,5302.0,1104.0,4794.0,910.0,2551.0,3011.0,606.0,,,,-0.455700424382483,-2.90033434288331,-1.10026949189826,,5.076633514489731,,
,5303.0,1105.0,4792.0,912.0,2567.0,3010.0,604.0,,,,-0.45539759226852,-2.90045598437325,-1.10000768185754,,4.787049545351055,,
,5306.0,1103.0,4795.0,914.0,2562.0,3013.0,611.0,,,,-0.455580999309716,-2.90041396971731,-1.09960395758236,,4.47611068170437,,
,5305.0,1105.0,4794.0,911.0,2579.0,3020.0,603.0,,,,-0.455902426172292,-2.90052651949776,-1.1006856271918,,4.121644814361802,,
,5303.0,1106.0,4794.0,911.0,2580.0,3006.0,612.0,,,,-0.456037578243459,-2.90055226219598,-1.1010512032872,,3.7030634592571476,,
,5306.0,1105.0,4796.0,912.0,2568.0,3003.0,633.0,,,,-0.456326846093474,-2.90062651958545,-1.10099476195882,,3.20329422990379,,
,5306.0,1108.0,4797.0,912.0,2550.0,3005.0,633.0,,,,-0.456280731836697,-2.90050311522227,-1.10153770838304,,2.610438770817926,,
,5306.0,1106.0,4799.0,913.0,2542.0,3004.0,653.0,,,,-0.456325530917626,-2.90055254374315,-1.10034563343535,,1.9189879258602567,,
,5306.0,1106.0,4800.0,910.0,2566.0,3016.0,601.0,,,,-0.456393499776093,-2.90049161206367,-1.10081380142975,,1.13046798099566,,
,5311.0,1109.0,4802.0,914.0,2578.0,3014.0,617.0,,,,-0.456462297611023,-2.90047283046489,-1.10081667472957,,0.25345471803528313,,
,5310.0,1110.0,4808.0,913.0,2563.0,3013.0,614.0,,,,-0.456288540348306,-2.90056001489956,-1.10078567312578,,-0.6970340765161346,,
,5313.0,1110.0,4812.0,916.0,2563.0,3016.0,605.0,,,,-0.456095737300976,-2.90048530827965,-1.0994011559697,,-1.7006857475503245,,
,5310.0,1110.0,4812.0,916.0,2595.0,3019.0,620.0,,,,-0.456072939709422,-2.90051699449522,-1.10041119276768,,-2.733441600315236,,
,5315.0,1109.0,4813.0,914.0,2601.0,3006.0,623.0,,,,-0.455609850516799,-2.90038900603325,-1.09934080076876,,-3.7692761872476397,,
,5313.0,1110.0,4817.0,917.0,2592.0,2999.0,614.0,,,,-0.455706056021829,-2.90034874990459,-1.09910387841054,,-4.782026844858175,,
,5316.0,1114.0,4823.0,918.0,2582.0,3001.0,611.0,,,,-0.456179546730531,-2.90054410075095,-1.09975937704864,,-5.747105674753094,,
,5316.0,1114.0,4826.0,920.0,2576.0,3004.0,622.0,,,,-0.455671263374279,-2.90024403983105,-1.09928247001493,,-6.642954952693647,,
,5319.0,1114.0,4825.0,917.0,2569.0,3006.0,613.0,,,,-0.455543561239135,-2.90031045559069,-1.09963360184392,,-7.452146709299593,,
,5322.0,1113.0,4834.0,923.0,2568.0,3003.0,644.0,,,,-0.455847996568253,-2.90034854377154,-1.09898774715707,,-8.162072515574655,,
,5322.0,1117.0,4836.0,920.0,2558.0,3007.0,622.0,,,,-0.455663800881061,-2.90018222730399,-1.09925399503967,,-8.765214854997769,,
,5326.0,1118.0,4838.0,920.0,2553.0,3012.0,611.0,,,,-0.455957418870228,-2.90032269642519,-1.0998674564004,,-9.25903172247152,,
,5322.0,1117.0,4842.0,923.0,2557.0,3017.0,605.0,,,,-0.455507412725042,-2.9003388552398,-1.09926388161212,,-9.64551713273233,,
,5324.0,1116.0,4846.0,921.0,2565.0,3015.0,626.0,,,,-0.455624591254729,-2.90047364201454,-1.09904306731256,,-9.930519556220947,,
,5327.0,1119.0,4846.0,924.0,2559.0,3006.0,613.0,,,,-0.456235026373873,-2.90041026096263,-1.09976824974354,,-10.122907397378956,,
,5331.0,1123.0,4852.0,923.0,2584.0,3010.0,602.0,,,,-0.456009686111681,-2.90041163133765,-1.09938185770156,,-10.233667007669771,,
,5332.0,1119.0,4854.0,925.0,2571.0,3008.0,604.0,,,,-0.456129936265458,-2.90045676520275,-1.09934264105007,,-10.275007635138067,,
,5333.0,1119.0,4857.0,923.0,2569.0,3008.0,615.0,,,,-0.456704194840767,-2.90051576772631,-1.10111648703064,,-10.259533046643018,,
,5334.0,1122.0,4862.0,924.0,2560.0,2994.0,630.0,,,,-0.456646952297005,-2.90048293271649,-1.09994017765238,,-10.199524298282283,,
,5336.0,1124.0,4867.0,926.0,2567.0,2988.0,629.0,,,,-0.456506815711331,-2.90041947103321,-1.10091777204568,,-10.106363503177969,,
,5341.0,1125.0,4869.0,927.0,2566.0,2999.0,614.0,,,,-0.456735862518449,-2.90051850980232,-1.09975828101669,,-9.990114489515614,,
,5338.0,1122.0,4873.0,926.0,2559.0,2993.0,599.0,,,,-0.456600168963772,-2.90040320610651,-1.0998555667269,,-9.8592629581885,,
,5340.0,1126.0,4874.0,925.0,2561.0,2998.0,609.0,,,,-0.457014818887481,-2.90055954528571,-1.10037114563638,,-9.720606641317072,,
,5344.0,1127.0,4879.0,929.0,2560.0,2989.0,618.0,,,,-0.457206653650262,-2.90060798967317,-1.10068748456447,,-9.579275769333604,,
,5343.0,1129.0,4883.0,929.0,2545.0,2994.0,622.0,,,,-0.457191394159103,-2.90062067956576,-1.09999510407684,,-9.4388564943447,,
,5347.0,1128.0,4886.0,928.0,2542.0,2998.0,648.0,,,,-0.45754638541444,-2.90052099049877,-1.10060052670004,,-9.301585216253168,,
,5344.0,1127.0,4887.0,930.0,2562.0,3005.0,628.0,,,,-0.457387202411063,-2.90063780247741,-1.10036250421658,,-9.168580188746905,,
,5348.0,1129.0,4893.0,933.0,2568.0,3007.0,646.0,,,,-0.457246106173167,-2.90061927620404,-1.10007807226571,,-9.040078038924426,,
,5350.0,1131.0,4895.0,933.0,2565.0,3022.0,623.0,,,,-0.457712195248622,-2.9005224121348,-1.10075276214973,,-8.915646073051228,,
,5354.0,1129.0,4899.0,933.0,2581.0,3021.0,622.0,,,,-0.457194342309415,-2.90054932470324,-1.10130662604754,,-8.794345573894226,,
,5352.0,1131.0,4898.0,935.0,2583.0,3009.0,587.0,,,,-0.457440794818282,-2.90034114548411,-1.10086232583285,,-8.674826644877143,,
,5353.0,1131.0,4895.0,934.0,2570.0,3018.0,593.0,,,,-0.457209888679646,-2.9005754165815,-1.10106892677013,,-8.555342652178826,,
,5353.0,1132.0,4890.0,933.0,2571.0,3008.0,607.0,,,,-0.456958892494473,-2.9004509622693,-1.10065847073873,,-8.433683412413808,,
,5353.0,1131.0,4884.0,930.0,2557.0,2999.0,603.0,,,,-0.456921142012833,-2.90042433433037,-1.10004867342986,,-8.307040955732539,,
,5350.0,1125.0,4870.0,927.0,2544.0,2993.0,633.0,,,,-0.45710212191912,-2.90055633001904,-1.10024775632386,,-8.171837556787219,,
,5349.0,1122.0,4860.0,926.0,2537.0,3002.0,635.0,,,,-0.456969385016181,-2.90037967584018,-1.10158126367571,,-8.023559043473451,,
,5345.0,1120.0,4843.0,923.0,2540.0,3005.0,651.0,,,,-0.456785350321393,-2.90041335561487,-1.10138687252334,,-7.8566440091015615,,
,5343.0,1119.0,4831.0,922.0,2547.0,3013.0,659.0,,,,-0.456591781449316,-2.90041673488041,-1.10077993703064,,-7.664479847365614,,
,5340.0,1115.0,4816.0,920.0,2549.0,3015.0,648.0,,,,-0.456434221006919,-2.90045934131856,-1.10036830642063,,-7.43954929194238,,
,5338.0,1116.0,4800.0,916.0,2542.0,3009.0,636.0,,,,-0.456856996462613,-2.90048049506602,-1.10120774219832,,-7.173757171843541,,
,5335.0,1111.0,4791.0,914.0,2519.0,3008.0,649.0,,,,-0.456506476946682,-2.9005127847898,-1.10111930667439,,-6.858947857301262,,
,5337.0,1113.0,4783.0,916.0,2546.0,3007.0,646.0,,,,-0.456469053001826,-2.90038962191116,-1.10148065674367,,-6.4876011033581,,
,5336.0,1112.0,4779.0,914.0,2543.0,3000.0,616.0,,,,-0.456608284601617,-2.90045886562737,-1.10069858001974,,-6.0536693298882795,,
,5332.0,1107.0,4772.0,913.0,2558.0,2991.0,602.0,,,,-0.4565034275644,-2.90054672759989,-1.10135558147961,,-5.553494377574487,,
,5332.0,1108.0,4771.0,913.0,2551.0,3000.0,595.0,,,,-0.456598491459498,-2.90067223128747,-1.09997158235611,,-4.986718614113642,,
,5333.0,1109.0,4770.0,914.0,2562.0,3008.0,596.0,,,,-0.456769655443784,-2.90042605454345,-1.10113465179001,,-4.357087508392316,,
,5332.0,1111.0,4771.0,916.0,2527.0,3014.0,614.0,,,,-0.456885169827439,-2.90039084609151,-1.10133377335798,,-3.673033257844264,,
,5334.0,1109.0,4770.0,913.0,2533.0,3017.0,600.0,,,,-0.456893023220549,-2.90049464703004,-1.10081413047871,,-2.947935944414934,,
,5335.0,1111.0,4772.0,913.0,2532.0,3010.0,609.0,,,,-0.457014230014682,-2.90049676848953,-1.10053223242206,,-2.1999811724830227,,
,5335.0,1110.0,4776.0,913.0,2551.0,3007.0,580.0,,,,-0.456793501433037,-2.90054234591838,-1.09956641100742,,-1.4515684715432997,,
,5335.0,1112.0,4778.0,914.0,2566.0,3021.0,575.0,,,,-0.457044379936728,-2.90053416476425,-1.10150332973877,,-0.7282676973669936,,
,5336.0,1112.0,4780.0,916.0,2581.0,3026.0,580.0,,,,-0.457095838604385,-2.90051802787175,-1.10071250859023,,-0.057365864792791044,,
,5336.0,1113.0,4784.0,915.0,2575.0,3017.0,608.0,,,,-0.457253794277442,-2.90062456782783,-1.10250264404823,,0.5339097407208709,,
,5336.0,1112.0,4784.0,914.0,2560.0,3018.0,630.0,,,,-0.457013417030096,-2.90059129668949,-1.10054109561045,,1.0203674130849925,,
,5337.0,1114.0,4791.0,917.0,2545.0,3021.0,601.0,,,,-0.457518824095325,-2.9004825448017,-1.10101691224609,,1.380868993212587,,
,5337.0,1116.0,4795.0,919.0,2555.0,3013.0,608.0,,,,-0.457357770583893,-2.90055216638949,-1.10182562738949,,1.6002108194884619,,
,5337.0,1117.0,4801.0,918.0,2566.0,3013.0,615.0,,,,-0.457504779101444,-2.90059152512024,-1.10115772314688,,1.6706801699638594,,
,5341.0,1117.0,4803.0,919.0,2563.0,3001.0,616.0,,,,-0.457405695843571,-2.90066275135855,-1.10090499318588,,1.5931101566175179,,
,5341.0,1115.0,4807.0,922.0,2565.0,2997.0,633.0,,,,-0.456991632236761,-2.90057988758993,-1.1003464133148,,1.3772893148449323,,
,5339.0,1116.0,4808.0,922.0,2551.0,3000.0,614.0,,,,-0.457394258217234,-2.90049383570903,-1.10178726267377,,1.041639091973939,,
,5340.0,1118.0,4814.0,923.0,2562.0,2999.0,598.0,,,,-0.457264869134506,-2.90056644121549,-1.10104914384802,,0.612148269259282,,
,5343.0,1116.0,4814.0,922.0,2557.0,2993.0,613.0,,,,-0.457119734066821,-2.90046371700193,-1.1012278065265,,0.12063631792026369,,
,5343.0,1118.0,4819.0,923.0,2542.0,3008.0,626.0,,,,-0.45706767637434,-2.9005438169203,-1.10099361749456,,-0.397508229016686,,
,5344.0,1119.0,4823.0,924.0,2516.0,3006.0,607.0,,,,-0.457031436423091,-2.90041373978653,-1.10106976434505,,-0.9059164292153391,,
,5345.0,1122.0,4823.0,924.0,2523.0,3003.0,630.0,,,,-0.456982416558968,-2.90048861599145,-1.10163800635277,,-1.3699316882089567,,
,5346.0,1120.0,4824.0,922.0,2536.0,3004.0,661.0,,,,-0.457391455392273,-2.90050310560149,-1.10129610103063,,-1.7591825002947115,,
,5346.0,1117.0,4825.0,923.0,2534.0,2994.0,620.0,,,,-0.457268759139163,-2.90050851352193,-1.10114357455858,,-2.049827941313995,,
,5350.0,1121.0,4828.0,926.0,2530.0,3011.0,657.0,,,,-0.45713772806242,-2.90058294808631,-1.10178586464846,,-2.226299444988369,,
,5350.0,1122.0,4829.0,925.0,2542.0,3026.0,619.0,,,,-0.457379721291834,-2.90049321777819,-1.10180395660932,,-2.2824044779497505,,
,5350.0,1119.0,4827.0,926.0,2552.0,3022.0,610.0,,,,-0.45704913922583,-2.90054733255692,-1.10182829655247,,-2.2217085929702196,,
,5352.0,1120.0,4826.0,927.0,2554.0,3011.0,636.0,,,,-0.45686819526929,-2.9004712392073,-1.10031123773725,,-2.057168302773471,,
,5352.0,1120.0,4826.0,923.0,2543.0,3007.0,633.0,,,,-0.45672789757839,-2.90049105919794,-1.10166319554749,,-1.8100436843481478,,
,5352.0,1121.0,4826.0,928.0,2569.0,3015.0,615.0,,,,-0.456861333254136,-2.90047372443324,-1.10009129084825,,-1.508172425708784,,
,5355.0,1121.0,4827.0,925.0,2554.0,3010.0,614.0,,,,-0.456521725825424,-2.90042093651019,-1.1013068202652,,-1.1837337869854536,,
,5354.0,1121.0,4825.0,925.0,2568.0,3008.0,595.0,,,,-0.45668410665525,-2.9005257402408,-1.10125353002344,,-0.8706709124561778,,
,5355.0,1121.0,4825.0,925.0,2565.0,3012.0,613.0,,,,-0.456626096538016,-2.90045822456919,-1.10058269981249,,-0.601971800949069,,
,5356.0,1122.0,4827.0,925.0,2547.0,3020.0,615.0,,,,-0.457404329701472,-2.90056916861024,-1.10232283548444,,-0.4070291452416205,,
,5357.0,1123.0,4829.0,928.0,2558.0,3014.0,621.0,,,,-0.457327016421804,-2.90061046940847,-1.10173909266875,,-0.30930134872983317,,
,5357.0,1121.0,4829.0,929.0,2545.0,3015.0,605.0,,,,-0.45711971188977,-2.90058432493604,-1.10166439515424,,-0.32447636737377744,,
,5358.0,1122.0,4830.0,927.0,2542.0,3011.0,625.0,,,,-0.457301591758947,-2.90056987436791,-1.10138953705441,,-0.4592953143767704,,
,5358.0,1121.0,4835.0,928.0,2549.0,2998.0,610.0,,,,-0.456826682965504,-2.90052410674963,-1.10059521538312,,-0.7111277991227902,,
,5360.0,1126.0,4839.0,928.0,2560.0,3006.0,602.0,,,,-0.45698790286069,-2.90049887034136,-1.100909853319,,-1.0683145489837982,,
,5364.0,1124.0,4838.0,928.0,2545.0,3002.0,597.0,,,,-0.456497503964655,-2.90063662143182,-1.10118672234139,,-1.511216799296599,,
,5363.0,1126.0,4840.0,928.0,2542.0,2992.0,592.0,,,,-0.456254563133835,-2.90037744449642,-1.10094986730969,,-2.0138474066103154,,
,5363.0,1125.0,4843.0,929.0,2565.0,3002.0,591.0,,,,-0.45591104738108,-2.90045139768649,-1.10040521564053,,-2.545912878427627,,
,5364.0,1128.0,4849.0,930.0,2570.0,3003.0,611.0,,,,-0.45581333924158,-2.90036935544607,-1.10010862054849,,-3.075071005210223,,
,5368.0,1128.0,4850.0,930.0,2566.0,3000.0,596.0,,,,-0.455530598398808,-2.9004095394355,-1.09927246763966,,-3.5692048094179327,,
,5367.0,1128.0,4850.0,932.0,2559.0,2996.0,581.0,,,,-0.455385708724013,-2.90031038247792,-1.0989560434646,,-3.9985281236368717,,
,5368.0,1126.0,4856.0,932.0,2548.0,3001.0,589.0,,,,-0.455266903465632,-2.90024547723438,-1.09905137978004,,-4.337368645148201,,
,5370.0,1130.0,4857.0,934.0,2582.0,3020.0,616.0,,,,-0.455258869067805,-2.90018624601309,-1.09941711729186,,-4.565516735142603,,
,5370.0,1130.0,4862.0,935.0,2558.0,3010.0,603.0,,,,-0.455280922643485,-2.90023388564617,-1.09916636836921,,-4.669076724726484,,
,5375.0,1131.0,4867.0,934.0,2553.0,3006.0,602.0,,,,-0.455426445819125,-2.90020034858353,-1.09843514089345,,-4.640805769460314,,
,5373.0,1128.0,4867.0,934.0,2565.0,2981.0,596.0,,,,-0.45544663890856,-2.90020183186381,-1.0992870137484,,-4.479968471193549,,
,5377.0,1131.0,4871.0,934.0,2555.0,3007.0,617.0,,,,-0.455712307196198,-2.9003057091511,-1.09941485712714,,-4.191770806462288,,
,5376.0,1135.0,4876.0,936.0,2551.0,3002.0,623.0,,,,-0.455799361085076,-2.90023502298436,-1.09979869392611,,-3.786463042674094,,
,5383.0,1135.0,4878.0,938.0,2573.0,3003.0,608.0,,,,-0.455452659204756,-2.90017691402724,-1.09997291564852,,-3.2782173371243113,,
,5382.0,1136.0,4883.0,939.0,2586.0,3005.0,605.0,,,,-0.455588415948025,-2.90042168251751,-1.10046928930378,,-2.6838907421281424,,
,5383.0,1136.0,4885.0,939.0,2547.0,3013.0,637.0,,,,-0.455629982040391,-2.90032247903842,-1.10018515992953,,-2.0217782473495434,,
,5384.0,1138.0,4887.0,938.0,2573.0,3016.0,651.0,,,,-0.456399747159935,-2.90050752407592,-1.10014333793283,,-1.3104445736165384,,
,5389.0,1138.0,4893.0,940.0,2570.0,2991.0,630.0,,,,-0.455979360812937,-2.90039750517056,-1.09995480613162,,-0.5677005704054593,,
,5388.0,1137.0,4894.0,939.0,2566.0,2989.0,626.0,,,,-0.456107302020648,-2.90045564111287,-1.10030338703337,,0.19023553233646306,,
,5390.0,1139.0,4899.0,939.0,2558.0,2995.0,606.0,,,,-0.456274757887473,-2.90055493645401,-1.09945361480351,,0.9493752370726973,,
,5390.0,1140.0,4901.0,940.0,2547.0,3004.0,588.0,,,,-0.456299802249501,-2.90049878586391,-1.10032766574153,,1.6983958031431354,,
,5392.0,1141.0,4905.0,941.0,2555.0,2994.0,585.0,,,,-0.456333308865622,-2.90030624558646,-1.10114543737755,,2.4288856053421264,,
,5396.0,1140.0,4909.0,943.0,2555.0,2994.0,584.0,,,,-0.456724957195526,-2.90043830975302,-1.10016666962255,,3.1354133500931805,,
2025-07-01 21:16:12,5400.0,1142.0,4912.0,943.0,2552.0,2988.0,580.0,,,2025/07/01 09:16:12 PM,-0.456651480046733,-2.90055443547978,-1.10025982977887,,3.8154368296950922,,
,5397.0,1144.0,4914.0,943.0,2560.0,2988.0,592.0,,,,-0.457178795561391,-2.90051203879812,-1.10051168908086,,4.469067102581639,,
,5400.0,1144.0,4919.0,946.0,2561.0,3000.0,616.0,,,,-0.457131788615284,-2.90050149168572,-1.1005680477472,,5.0987040674682165,,
,5402.0,1143.0,4922.0,946.0,2573.0,3000.0,612.0,,,,-0.457164127761742,-2.90066900709639,-1.10091718286294,,5.7085598266683295,,
,5405.0,1147.0,4927.0,948.0,2577.0,3004.0,615.0,,,,-0.456934574466623,-2.90041337901294,-1.10030867632354,,6.304087728133599,,
,5406.0,1146.0,4930.0,946.0,2591.0,3010.0,613.0,,,,-0.456955639400127,-2.9004010920162,-1.10012738783157,,6.891338373347246,,
,5405.0,1145.0,4931.0,948.0,2568.0,3012.0,581.0,,,,-0.456501733775401,-2.9005307681007,-1.10044932097155,,7.47626964309027,,
,5407.0,1146.0,4931.0,946.0,2543.0,3020.0,574.0,,,,-0.45686607376565,-2.9005426241793,-1.100610291102,,8.064045529040413,,
,5408.0,1146.0,4928.0,946.0,2532.0,3023.0,581.0,,,,-0.456687147034061,-2.90057053275431,-1.10021643994447,,8.6583666176029,,
,5406.0,1146.0,4924.0,948.0,2542.0,3032.0,628.0,,,,-0.456322179233519,-2.90050497260717,-1.10077841348269,,9.26088057237735,,
,5407.0,1143.0,4916.0,945.0,2559.0,3019.0,621.0,,,,-0.456327165265049,-2.90042027430645,-1.10092619468566,,9.870720828561566,,
,5405.0,1141.0,4902.0,943.0,2573.0,3015.0,641.0,,,,-0.456031882479242,-2.90037999134174,-1.10155052000885,,10.48421446656231,,
,5403.0,1138.0,4892.0,941.0,2544.0,3001.0,621.0,,,,-0.456212465976177,-2.90023384658914,-1.10178796717796,,11.094786985381784,,
,5400.0,1135.0,4873.0,938.0,2551.0,3007.0,633.0,,,,-0.455849859268446,-2.90034287670498,-1.10069788675855,,11.69307532622062,,
,5392.0,1128.0,4857.0,933.0,2550.0,2982.0,634.0,,,,-0.455820002789073,-2.90025397776026,-1.10102160687553,,12.267243898546562,,
,5394.0,1129.0,4845.0,934.0,2549.0,2988.0,625.0,,,,-0.455703730851792,-2.90040504295568,-1.10061813853034,,12.803483408357572,,
,5391.0,1130.0,4832.0,933.0,2550.0,2995.0,630.0,,,,-0.455739523441837,-2.90044205771336,-1.10117179323489,,13.286659884665214,,
,5388.0,1126.0,4820.0,930.0,2554.0,3002.0,619.0,,,,-0.456105749929849,-2.9005729825813,-1.10048356507366,,13.701071791237144,,
,5387.0,1124.0,4810.0,927.0,2544.0,3009.0,614.0,,,,-0.455916712648526,-2.90048549699637,-1.10072712919171,,14.031266636423759,,
,5387.0,1121.0,4803.0,923.0,2548.0,3001.0,601.0,,,,-0.455780619940184,-2.90040781514132,-1.10083396321349,,14.262865311716165,,
,5387.0,1122.0,4797.0,927.0,2567.0,3007.0,595.0,,,,-0.45580534688839,-2.90039214811629,-1.10033589156501,,14.383342903482227,,
,5385.0,1121.0,4794.0,926.0,2579.0,3007.0,580.0,,,,-0.455884818893933,-2.90039864088308,-1.10004291238176,,14.382718914754289,,
,5385.0,1121.0,4793.0,926.0,2580.0,3011.0,569.0,,,,-0.456467003501068,-2.90040092591416,-1.10054166501175,,14.254116711213712,,
,5383.0,1121.0,4793.0,923.0,2569.0,3009.0,587.0,,,,-0.45636975577452,-2.90028706154742,-1.10056658177942,,13.994160169733421,,
,5384.0,1123.0,4794.0,926.0,2578.0,3023.0,607.0,,,,-0.456369336186863,-2.90049501675848,-1.10112519486673,,13.603184546733942,,
,5386.0,1123.0,4796.0,927.0,2566.0,3010.0,597.0,,,,-0.45649060281873,-2.90034099296404,-1.10058576694769,,13.085249355298657,,
,5386.0,1123.0,4798.0,927.0,2573.0,3007.0,595.0,,,,-0.456601605028207,-2.90051547146693,-1.10015648407178,,12.447954151943225,,
,5383.0,1123.0,4800.0,927.0,2562.0,3001.0,589.0,,,,-0.456655701660814,-2.90042751976023,-1.10114419428558,,11.702072507090726,,
,5385.0,1122.0,4801.0,927.0,2542.0,3002.0,584.0,,,,-0.456836612543251,-2.90047619614641,-1.10122473438988,,10.861032763176452,,
,5387.0,1124.0,4806.0,929.0,2548.0,3009.0,606.0,,,,-0.456368964331624,-2.90046787567479,-1.10090957915148,,9.940284529965474,,
,5385.0,1125.0,4808.0,929.0,2546.0,3012.0,592.0,,,,-0.456485731681433,-2.90050350587819,-1.10072527177143,,8.956596383396493,,
,5386.0,1124.0,4812.0,930.0,2565.0,3012.0,564.0,,,,-0.456185968518199,-2.90037862545213,-1.10056974703411,,7.927332725014817,,
,5386.0,1125.0,4814.0,929.0,2546.0,3015.0,589.0,,,,-0.456269060449072,-2.90032269553244,-1.10102020041479,,6.869756357051202,,
,5388.0,1127.0,4821.0,929.0,2554.0,3018.0,581.0,,,,-0.456300697010404,-2.9003181695328,-1.10067355660334,,5.8003987321913995,,
,5392.0,1126.0,4828.0,932.0,2549.0,2997.0,593.0,,,,-0.456436501252922,-2.90038139274822,-1.1004277982689,,4.734533042146267,,
,5392.0,1126.0,4828.0,934.0,2560.0,2998.0,588.0,,,,-0.456338671142773,-2.90052652594162,-1.09982817328285,,3.685776546469454,,
,5388.0,1125.0,4831.0,932.0,2574.0,3003.0,588.0,,,,-0.456709672067013,-2.90040134068195,-1.10096215953911,,2.66583699541635,,
,5392.0,1129.0,4836.0,934.0,2538.0,2996.0,593.0,,,,-0.456548058327166,-2.90043731992864,-1.10087238536395,,1.6844033873425124,,
,5392.0,1130.0,4838.0,935.0,2562.0,3001.0,567.0,,,,-0.456560104646646,-2.90019650033243,-1.10087257156857,,0.7491656883033039,,
,5394.0,1130.0,4838.0,935.0,2566.0,3004.0,576.0,,,,-0.455921338021179,-2.90028019720216,-1.10051336416439,,-0.13406451335809294,,
,5396.0,1132.0,4841.0,935.0,2563.0,2998.0,599.0,,,,-0.455863182346342,-2.90030198524286,-1.10128422724397,,-0.9611668636428207,,
,5394.0,1130.0,4842.0,934.0,2557.0,2999.0,614.0,,,,-0.456138750222235,-2.90033985712812,-1.10103544946816,,-1.7294927413999557,,
,5398.0,1131.0,4845.0,936.0,2536.0,3018.0,607.0,,,,-0.45556324680717,-2.90040684346715,-1.10061539001075,,-2.437642524894606,,
,5397.0,1130.0,4846.0,935.0,2533.0,3003.0,599.0,,,,-0.455858016286203,-2.90034335310774,-1.10060429553927,,-3.0852617207424795,,
,5399.0,1133.0,4846.0,937.0,2547.0,3001.0,599.0,,,,-0.455751564034494,-2.90032584770373,-1.09985416334529,,-3.672870674776161,,
,5399.0,1129.0,4845.0,935.0,2556.0,3001.0,605.0,,,,-0.455821969161678,-2.90022516291968,-1.10094198257757,,-4.2017354024449185,,
,5400.0,1129.0,4844.0,936.0,2578.0,3007.0,604.0,,,,-0.456066146087835,-2.90034346850907,-1.10004010293401,,-4.673780066851987,,
,5401.0,1132.0,4847.0,938.0,2562.0,2999.0,580.0,,,,-0.455919536721833,-2.90020615429666,-1.09992309093357,,-5.091534659591933,,
,5398.0,1130.0,4843.0,937.0,2551.0,3002.0,587.0,,,,-0.456171913397223,-2.90026466771927,-1.10104365608328,,-5.458104638174062,,
,5400.0,1126.0,4843.0,936.0,2574.0,3005.0,603.0,,,,-0.456207562152623,-2.90030349481485,-1.10010829658786,,-5.777143669833755,,
,5402.0,1129.0,4843.0,937.0,2568.0,2998.0,610.0,,,,-0.45616403840204,-2.90021571346632,-1.10007683400574,,-6.052808242665701,,
,5402.0,1127.0,4844.0,935.0,2559.0,3012.0,602.0,,,,-0.456033562430638,-2.9004642348615,-1.09971986374353,,-6.289675539440851,,
,5403.0,1129.0,4841.0,935.0,2554.0,3005.0,601.0,,,,-0.456185880680968,-2.90041396518617,-1.10116604372671,,-6.492613696392869,,
,5404.0,1129.0,4844.0,935.0,2566.0,3010.0,601.0,,,,-0.456559948644949,-2.90041245619521,-1.09994659366368,,-6.666604544752961,,
,5404.0,1127.0,4841.0,934.0,2559.0,3003.0,612.0,,,,-0.456802333705018,-2.9004612336324,-1.10177302169989,,-6.816530527601581,,
,5403.0,1127.0,4841.0,935.0,2550.0,3015.0,604.0,,,,-0.456634013003796,-2.90048410020666,-1.10035592098734,,-6.946947299531343,,
,5406.0,1129.0,4845.0,936.0,2581.0,3008.0,605.0,,,,-0.456651398250436,-2.9004778764954,-1.10089040876557,,-7.06186967584377,,
,5405.0,1129.0,4847.0,938.0,2573.0,3013.0,617.0,,,,-0.45681605509871,-2.90032653788866,-1.09973003298496,,-7.1645998186928255,,
,5406.0,1130.0,4849.0,936.0,2531.0,3010.0,593.0,,,,-0.456418852552207,-2.90032529798214,-1.09986206260876,,-7.257622372479221,,
,5407.0,1130.0,4850.0,936.0,2556.0,3018.0,579.0,,,,-0.456318083911596,-2.90037558403292,-1.10042175465458,,-7.342582272787341,,
,5409.0,1130.0,4855.0,937.0,2558.0,3013.0,589.0,,,,-0.456671199698921,-2.90041113504683,-1.09941819130317,,-7.420348686611692,,
,5409.0,1131.0,4857.0,939.0,2549.0,3015.0,593.0,,,,-0.455749965611668,-2.9003039335544,-1.0994601126133,,-7.491155120695771,,
,5409.0,1130.0,4858.0,938.0,2560.0,3006.0,609.0,,,,-0.455966499114379,-2.90016945377227,-1.09868190243464,,-7.554793573812063,,
,5410.0,1131.0,4857.0,937.0,2585.0,3010.0,617.0,,,,-0.4551772806283,-2.90008997172937,-1.09842617449618,,-7.610832265821431,,
,5412.0,1134.0,4865.0,939.0,2581.0,3008.0,598.0,,,,-0.455399952897087,-2.90017897595972,-1.09745838746809,,-7.658824115050905,,
,5416.0,1134.0,4866.0,940.0,2576.0,3001.0,591.0,,,,-0.455306706399292,-2.90019590349271,-1.09768062726209,,-7.698477364317366,,
,5414.0,1135.0,4868.0,940.0,2581.0,3006.0,578.0,,,,-0.455723458547933,-2.90004285208349,-1.09830219439329,,-7.729768945574886,,
,5414.0,1134.0,4871.0,940.0,2558.0,2994.0,562.0,,,,-0.455410637469863,-2.90003077524468,-1.09742736268186,,-7.752992348558414,,
,5416.0,1135.0,4871.0,942.0,2560.0,3005.0,583.0,,,,-0.45538555091112,-2.90004089397662,-1.09788660938824,,-7.7687422870833815,,
,5420.0,1138.0,4877.0,943.0,2566.0,3009.0,581.0,,,,-0.455224907803274,-2.90015240760705,-1.09815290569107,,-7.7778468911965755,,
,5421.0,1136.0,4880.0,944.0,2571.0,3011.0,565.0,,,,-0.455207332061102,-2.90007317547307,-1.09745377420091,,-7.781263921396749,,
,5420.0,1137.0,4885.0,942.0,2562.0,3019.0,578.0,,,,-0.455195843566954,-2.90007481124734,-1.09802854201628,,-7.779960376723524,,
,5420.0,1139.0,4884.0,942.0,2546.0,3013.0,601.0,,,,-0.455348418580147,-2.90014822079272,-1.09865595062223,,-7.7747948438758065,,
,5425.0,1140.0,4890.0,944.0,2560.0,3007.0,608.0,,,,-0.455277428251528,-2.90027851456787,-1.09719679308063,,-7.766419237834869,,
,5425.0,1138.0,4893.0,947.0,2560.0,3010.0,581.0,,,,-0.455621194725077,-2.9001769189039,-1.09856355320712,,-7.7552115171159866,,
,5426.0,1142.0,4896.0,944.0,2565.0,3003.0,580.0,,,,-0.455521580835287,-2.9001784367421,-1.09863472550315,,-7.741243821590633,,
,5427.0,1140.0,4899.0,947.0,2582.0,3001.0,602.0,,,,-0.455774096780591,-2.90004625399976,-1.09727956333778,,-7.724282074667707,,
,5427.0,1140.0,4902.0,945.0,2563.0,3009.0,610.0,,,,-0.455964811034361,-2.90024400276814,-1.09875192673532,,-7.703805406334821,,
,5433.0,1143.0,4904.0,948.0,2555.0,3020.0,552.0,,,,-0.45609918016058,-2.9002267182278,-1.09867152078861,,-7.679029620823991,,
,5433.0,1142.0,4907.0,948.0,2564.0,3016.0,547.0,,,,-0.456073736676791,-2.90019330259776,-1.09796133679097,,-7.648920224412363,,
,5433.0,1143.0,4910.0,947.0,2567.0,3009.0,588.0,,,,-0.45626127581228,-2.9003323698411,-1.09966240571565,,-7.612186625148748,,
,5433.0,1143.0,4912.0,946.0,2600.0,2997.0,602.0,,,,-0.456484877513246,-2.90043964561604,-1.09907875246885,,-7.5672573935538425,,
,5436.0,1145.0,4919.0,950.0,2587.0,3008.0,606.0,,,,-0.45681047492732,-2.90030830472936,-1.09851651022024,,-7.512244134944362,,
,5437.0,1144.0,4921.0,951.0,2586.0,3014.0,599.0,,,,-0.456266835372192,-2.90034632269637,-1.09842966926984,,-7.444906842675986,,
,5437.0,1144.0,4924.0,950.0,2591.0,3013.0,600.0,,,,-0.457109630307209,-2.9002804847566,-1.09928881446223,,-7.362635957969161,,
,5437.0,1145.0,4925.0,947.0,2597.0,3008.0,586.0,,,,-0.456604115555518,-2.90032911518416,-1.09915772471098,,-7.262465792382696,,
,5443.0,1147.0,4929.0,952.0,2588.0,3009.0,609.0,,,,-0.456536290380927,-2.90015890486997,-1.0975276142599,,-7.141130773575165,,
,5441.0,1146.0,4930.0,951.0,2601.0,3020.0,582.0,,,,-0.456832075399763,-2.90028311345124,-1.09870961662864,,-6.995170456360135,,
,5446.0,1148.0,4932.0,954.0,2596.0,3020.0,578.0,,,,-0.456859283953724,-2.9002161352336,-1.09892185036843,,-6.821081700988766,,
,5441.0,1144.0,4926.0,952.0,2581.0,3010.0,605.0,,,,-0.456570822881485,-2.90029234524065,-1.09900410992282,,-6.615507569622339,,
,5441.0,1140.0,4918.0,949.0,2567.0,2999.0,621.0,,,,-0.456331930066332,-2.90024794361437,-1.09887202908003,,-6.375444026094214,,
,5439.0,1140.0,4911.0,949.0,2548.0,2993.0,604.0,,,,-0.456530526487834,-2.90024584906837,-1.09836679824514,,-6.098440131731051,,
,5439.0,1138.0,4896.0,944.0,2554.0,2993.0,608.0,,,,-0.456162333313797,-2.90016589832272,-1.09803246496214,,-5.782767571662389,,
,5432.0,1135.0,4883.0,943.0,2567.0,2989.0,613.0,,,,-0.456382607866182,-2.90028904098019,-1.09714876402109,,-5.427541415917611,,
,5428.0,1131.0,4866.0,936.0,2561.0,2988.0,619.0,,,,-0.456290123044268,-2.90018043881449,-1.09934792155555,,-5.032783785312772,,
,5425.0,1128.0,4851.0,939.0,2537.0,3003.0,605.0,,,,-0.456077829869423,-2.90021726979526,-1.09792350743365,,-4.59943220470234,,
,5422.0,1124.0,4837.0,936.0,2570.0,3012.0,591.0,,,,-0.456391808792696,-2.90021880414297,-1.09878921166749,,-4.129302343932454,,
,5418.0,1123.0,4822.0,932.0,2565.0,3011.0,574.0,,,,-0.456061977330053,-2.90020489604979,-1.09844766240999,,-3.625019438641346,,
,5413.0,1122.0,4809.0,927.0,2552.0,3007.0,581.0,,,,-0.456000749354046,-2.90020809196927,-1.097876052537,,-3.089933805750231,,
,5414.0,1118.0,4802.0,930.0,2583.0,3002.0,600.0,,,,-0.455956450827153,-2.90026761854997,-1.09868710572173,,-2.5280339210870117,,
,5410.0,1119.0,4796.0,928.0,2588.0,3000.0,586.0,,,,-0.456057695881457,-2.90022541700921,-1.0979973160949,,-1.94386610498714,,
,5408.0,1115.0,4790.0,930.0,2593.0,3008.0,569.0,,,,-0.45619968466178,-2.90018681333566,-1.09857847382721,,-1.3424634318842903,,
,5406.0,1114.0,4786.0,925.0,2582.0,3002.0,570.0,,,,-0.456183930931727,-2.90026802635475,-1.09870651655998,,-0.7292785832591119,,
,5403.0,1115.0,4784.0,924.0,2590.0,3017.0,575.0,,,,-0.456374571834995,-2.90025434175358,-1.09854367316101,,-0.11010751231727442,,
,5402.0,1114.0,4784.0,924.0,2587.0,3005.0,569.0,,,,-0.456108150151884,-2.90024093220505,-1.09842722098864,,0.5090141180324369,,
,5404.0,1116.0,4786.0,925.0,2587.0,3009.0,582.0,,,,-0.456305055364795,-2.90011723372781,-1.09841722619176,,1.1219586977564293,,
,5398.0,1112.0,4786.0,926.0,2561.0,3004.0,598.0,,,,-0.456628523328819,-2.90019225467339,-1.09834225228297,,1.7227075424393987,,
,5401.0,1115.0,4786.0,924.0,2579.0,3006.0,563.0,,,,-0.456389406088561,-2.90018084852189,-1.09838672249167,,2.3056005936234047,,
,5399.0,1114.0,4794.0,927.0,2579.0,3006.0,553.0,,,,-0.45689086064215,-2.90026107177318,-1.09820756422269,,2.865616016427137,,
,5398.0,1113.0,4794.0,926.0,2577.0,3010.0,559.0,,,,-0.456897286894353,-2.90009437488425,-1.09837794315139,,3.3986483206649614,,
,5399.0,1115.0,4796.0,929.0,2574.0,3008.0,545.0,,,,-0.457057905951318,-2.90021186043147,-1.09812567140499,,3.901746096906038,,
,5396.0,1114.0,4798.0,925.0,2586.0,3010.0,565.0,,,,-0.457126572954896,-2.90027055947354,-1.09832546241353,,4.373269706357921,,
,5394.0,1116.0,4802.0,926.0,2555.0,3017.0,590.0,,,,-0.456080281032562,-2.90021414570961,-1.09883011715052,,4.812936525538952,,
,5399.0,1116.0,4807.0,927.0,2574.0,3009.0,588.0,,,,-0.456399576755954,-2.90009780374628,-1.09806189633098,,5.221736712549046,,
,5394.0,1116.0,4813.0,930.0,2569.0,3006.0,576.0,,,,-0.456351175015839,-2.9001883607832,-1.09825387662053,,5.601723976906206,,
,5396.0,1118.0,4810.0,928.0,2578.0,2999.0,602.0,,,,-0.456933194133138,-2.90020343467406,-1.09782867946347,,5.955709048081471,,
,5395.0,1115.0,4816.0,927.0,2567.0,3008.0,592.0,,,,-0.456580334655849,-2.90014009380863,-1.09880787062337,,6.28690223020127,,
,5394.0,1116.0,4822.0,932.0,2564.0,2994.0,586.0,,,,-0.456693724012276,-2.90005048081641,-1.09759977761503,,6.598559786904194,,
,5394.0,1118.0,4823.0,931.0,2571.0,2988.0,607.0,,,,-0.456357078025386,-2.90021235437543,-1.09824292336391,,6.893684313296575,,
,5395.0,1119.0,4828.0,932.0,2568.0,2987.0,594.0,,,,-0.45622274722983,-2.90002856124069,-1.09807749596482,,7.174813824989653,,
,5394.0,1114.0,4830.0,931.0,2562.0,3000.0,583.0,,,,-0.45612789323561,-2.90005905583567,-1.09882465040875,,7.443913613076397,,
,5396.0,1119.0,4831.0,932.0,2553.0,2986.0,597.0,,,,-0.456145932540935,-2.90001272785833,-1.09784991577052,,7.702365017113358,,
,5397.0,1119.0,4832.0,931.0,2541.0,2996.0,633.0,,,,-0.456140659244071,-2.89991134879407,-1.09790076927781,,7.95103033314329,,
,5394.0,1115.0,4832.0,933.0,2558.0,2998.0,635.0,,,,-0.455863377731628,-2.90007933498721,-1.09812566568879,,8.190364985033806,,
,5397.0,1117.0,4832.0,930.0,2556.0,2996.0,629.0,,,,-0.456721758384989,-2.90008163943505,-1.09765310200778,,8.420546881454209,,
,5393.0,1116.0,4833.0,932.0,2544.0,2991.0,625.0,,,,-0.455810039675126,-2.9001284821343,-1.09790750672896,,8.641597132258116,,
,5394.0,1115.0,4832.0,932.0,2523.0,2991.0,606.0,,,,-0.456381997113255,-2.90017122317361,-1.09927718970899,,8.853473776274674,,
,5394.0,1116.0,4833.0,931.0,2528.0,3000.0,589.0,,,,-0.455425392615726,-2.9001177713959,-1.09827232871079,,9.056128857091737,,
2025-07-01 21:16:13,5393.0,1116.0,4831.0,930.0,2541.0,2995.0,575.0,,,2025/07/01 09:16:13 PM,-0.455726175950197,-2.90008339503075,-1.0981109392968,,9.24952764294704,,
,5390.0,1115.0,4830.0,931.0,2564.0,2998.0,609.0,,,,-0.455662985786748,-2.90008019077467,-1.09726311570811,,9.433635561104266,,
,5388.0,1114.0,4827.0,929.0,2580.0,2999.0,588.0,,,,-0.455565369129201,-2.89998028780004,-1.09668161105768,,9.608381781669793,,
,5391.0,1115.0,4830.0,930.0,2570.0,3010.0,595.0,,,,-0.455786871485587,-2.90005374470625,-1.09766558830374,,9.773607505085485,,
,5391.0,1116.0,4829.0,931.0,2562.0,3015.0,583.0,,,,-0.456162122113649,-2.90016043032301,-1.0986263775563,,9.929003092679233,,
,5389.0,1114.0,4827.0,929.0,2591.0,2987.0,575.0,,,,-0.455947794547609,-2.90013860907984,-1.09796743040233,,10.074033830695532,,
,5386.0,1114.0,4826.0,929.0,2572.0,2993.0,574.0,,,,-0.456437975833029,-2.90013760159892,-1.09797121259292,,10.207851507907504,,
,5386.0,1115.0,4831.0,929.0,2557.0,3002.0,585.0,,,,-0.456146423937308,-2.90027569935627,-1.09810039333318,,10.329188994167096,,
,5389.0,1114.0,4831.0,930.0,2555.0,3015.0,587.0,,,,-0.456186318492615,-2.9000893856606,-1.09869331021247,,10.436237740776644,,
,5387.0,1116.0,4832.0,931.0,2545.0,3008.0,592.0,,,,-0.456133290556264,-2.90012294995586,-1.09788462970686,,10.526513416382741,,
,5385.0,1111.0,4830.0,928.0,2550.0,3009.0,592.0,,,,-0.456031249468448,-2.9002232033068,-1.09776083711549,,10.596721997862186,,
,5386.0,1114.0,4834.0,929.0,2558.0,3001.0,592.0,,,,-0.455698375431084,-2.90013837326959,-1.09763275548016,,10.64264597109871,,
,5390.0,1113.0,4836.0,930.0,2578.0,2997.0,598.0,,,,-0.455515084327266,-2.90010399306876,-1.0971982841738,,10.659075980371696,,
,5389.0,1116.0,4838.0,932.0,2575.0,3005.0,597.0,,,,-0.4556378006072,-2.90012734206363,-1.09680836398612,,10.639815844314358,,
,5386.0,1113.0,4840.0,927.0,2579.0,2995.0,587.0,,,,-0.455266730256536,-2.90015727331943,-1.09721499522282,,10.577787322459207,,
,5385.0,1113.0,4842.0,930.0,2579.0,3018.0,574.0,,,,-0.454926303654443,-2.89996865146645,-1.09622695234436,,10.465254466708751,,
,5386.0,1114.0,4847.0,932.0,2601.0,3011.0,592.0,,,,-0.45469699349191,-2.90013289971409,-1.0963054078912,,10.294175407655946,,
,5387.0,1116.0,4848.0,929.0,2601.0,3002.0,595.0,,,,-0.454973482484155,-2.90008231100602,-1.09575959848451,,10.056672975334926,,
,5386.0,1117.0,4854.0,930.0,2567.0,2994.0,590.0,,,,-0.454606169739549,-2.89996280474817,-1.09501766701423,,9.745597049422845,,
,5386.0,1117.0,4853.0,932.0,2580.0,2998.0,577.0,,,,-0.454458177024347,-2.90000928305204,-1.09540090659028,,9.355133871110608,,
,5390.0,1117.0,4856.0,930.0,2593.0,3009.0,565.0,,,,-0.454624427914839,-2.90004721458382,-1.09560694401826,,8.881403527894667,,
,5389.0,1118.0,4859.0,933.0,2579.0,3012.0,581.0,,,,-0.454598296296456,-2.89990505863541,-1.09654043274697,,8.322979368098578,,
,5389.0,1117.0,4863.0,934.0,2576.0,3015.0,568.0,,,,-0.454616806195665,-2.8999851234755,-1.09650231088912,,7.6812649954534535,,
,5388.0,1116.0,4863.0,931.0,2553.0,3007.0,582.0,,,,-0.454697272645565,-2.899997551347,-1.09594616267637,,6.960676996968915,,
,5390.0,1118.0,4868.0,933.0,2558.0,3005.0,594.0,,,,-0.45487561590118,-2.89995105341941,-1.09674622853068,,6.1686032349648965,,
,5390.0,1118.0,4873.0,935.0,2593.0,3002.0,575.0,,,,-0.45552893101085,-2.89995462997487,-1.09605861502879,,5.315133616105853,,
,5392.0,1120.0,4876.0,937.0,2586.0,3000.0,580.0,,,,-0.455708962122562,-2.89997867897216,-1.09686775059183,,4.412588063155352,,
,5392.0,1119.0,4877.0,935.0,2570.0,3001.0,600.0,,,,-0.455952685663071,-2.89997992034648,-1.09637605222095,,3.474890472091577,,
,5393.0,1120.0,4881.0,934.0,2578.0,2982.0,606.0,,,,-0.455266963408378,-2.89996467780109,-1.09609800538293,,2.516853742487577,,
,5394.0,1119.0,4882.0,936.0,2587.0,2993.0,599.0,,,,-0.455540997804205,-2.900087910953,-1.09805278261896,,1.5534464914042974,,
,5395.0,1122.0,4884.0,936.0,2576.0,3002.0,578.0,,,,-0.455562250960079,-2.89998048791754,-1.09641642483751,,0.5991060790566798,,
,5395.0,1122.0,4890.0,939.0,2569.0,3008.0,583.0,,,,-0.455559036320131,-2.90000028177622,-1.09654257254179,,-0.33285223695922045,,
,5396.0,1120.0,4891.0,935.0,2571.0,3021.0,598.0,,,,-0.455486672109692,-2.90008389380116,-1.09649711325672,,-1.2306987419006374,,
,5395.0,1123.0,4898.0,937.0,2567.0,3015.0,576.0,,,,-0.455873547775626,-2.90008669208673,-1.09747794177099,,-2.084611522813142,,
,5398.0,1124.0,4900.0,938.0,2576.0,3018.0,561.0,,,,-0.456134279569423,-2.90007402777738,-1.09790870008527,,-2.886857910887823,,
,5397.0,1123.0,4902.0,939.0,2567.0,3014.0,587.0,,,,-0.455926662313629,-2.9001129101307,-1.09721639552341,,-3.6318461858891893,,
,5398.0,1123.0,4905.0,937.0,2558.0,3002.0,614.0,,,,-0.456280756216383,-2.90014368426854,-1.09782098207647,,-4.316066508251822,,
,5399.0,1123.0,4908.0,940.0,2587.0,3004.0,616.0,,,,-0.455937070633791,-2.90006239227408,-1.09662898952578,,-4.937945253909822,,
,5401.0,1124.0,4911.0,940.0,2602.0,3018.0,584.0,,,,-0.455862026152191,-2.90013209803885,-1.09718394532989,,-5.497639184477113,,
,5403.0,1126.0,4914.0,939.0,2605.0,3022.0,586.0,,,,-0.455544000099838,-2.9001032149215,-1.09735939535907,,-5.996794941638913,,
,5400.0,1125.0,4916.0,941.0,2599.0,3022.0,583.0,,,,-0.455497180412573,-2.9001135870602,-1.09753340914531,,-6.438295192831007,,
,5400.0,1125.0,4914.0,939.0,2585.0,3013.0,573.0,,,,-0.455477377016535,-2.90014193165324,-1.09787968014344,,-6.826005819103485,,
,5400.0,1125.0,4914.0,937.0,2569.0,3002.0,575.0,,,,-0.455398268850532,-2.90008449800078,-1.09837036009904,,-7.164530301995105,,
,5399.0,1123.0,4908.0,936.0,2556.0,3004.0,589.0,,,,-0.454896942775389,-2.89994628972129,-1.09720544790917,,-7.458970659987651,,
,5395.0,1120.0,4897.0,934.0,2552.0,2997.0,589.0,,,,-0.455168964860928,-2.8999019833873,-1.09677394467639,,-7.714691709278735,,
,5393.0,1116.0,4881.0,931.0,2553.0,2979.0,578.0,,,,-0.455062979000564,-2.89997795114288,-1.09757123023446,,-7.93708791320836,,
,5384.0,1112.0,4867.0,927.0,2550.0,2984.0,593.0,,,,-0.455394420713265,-2.90014082607975,-1.09739817549711,,-8.131357720610447,,
,5383.0,1107.0,4849.0,927.0,2565.0,2996.0,599.0,,,,-0.455022160517651,-2.90002059038633,-1.09750937053422,,-8.302295895320738,,
,5376.0,1105.0,4833.0,926.0,2560.0,2995.0,568.0,,,,-0.455017101147569,-2.9000341464154,-1.09785654667172,,-8.45411759989732,,
,5368.0,1103.0,4816.0,922.0,2552.0,2995.0,591.0,,,,-0.45478180923042,-2.90002546260597,-1.09666154326271,,-8.59032825227103,,
,5362.0,1097.0,4803.0,916.0,2543.0,3008.0,610.0,,,,-0.454608792151234,-2.90009593873819,-1.09689011694761,,-8.713650809954965,,
,5360.0,1096.0,4789.0,916.0,2573.0,3003.0,591.0,,,,-0.45502361993228,-2.89999550243173,-1.09687968487025,,-8.826017822848545,,
,5354.0,1093.0,4780.0,912.0,2556.0,3013.0,586.0,,,,-0.455050511174882,-2.9000220586396,-1.09729144487492,,-8.92862995177781,,
,5345.0,1090.0,4770.0,909.0,2568.0,3011.0,589.0,,,,-0.455220331076303,-2.90022227860839,-1.09657504400657,,-9.02207614821158,,
,5342.0,1088.0,4763.0,909.0,2587.0,3008.0,603.0,,,,-0.45560505696346,-2.90003516485572,-1.09726610508011,,-9.10650363489278,,
,5341.0,1085.0,4761.0,908.0,2597.0,3017.0,577.0,,,,-0.455522808646836,-2.90010618928788,-1.09603997157446,,-9.181818568487348,,
,5335.0,1086.0,4757.0,906.0,2599.0,3005.0,573.0,,,,-0.455612179045079,-2.9000620194526,-1.09655316151287,,-9.247891724245452,,
,5330.0,1083.0,4756.0,907.0,2602.0,3011.0,549.0,,,,-0.45591525336923,-2.90009681813904,-1.09739281556922,,-9.304739584688328,,
,5330.0,1084.0,4756.0,907.0,2604.0,3008.0,584.0,,,,-0.455991380557386,-2.90015503766834,-1.09801399877838,,-9.35265210376293,,
,5326.0,1082.0,4755.0,905.0,2607.0,3006.0,573.0,,,,-0.455974888121944,-2.90005420018434,-1.09711467624992,,-9.392245286889093,,
,5323.0,1085.0,4756.0,905.0,2580.0,3006.0,575.0,,,,-0.455732159763607,-2.900194872975,-1.09674730156889,,-9.424428404445413,,
,5321.0,1083.0,4758.0,906.0,2569.0,3000.0,583.0,,,,-0.455748750344625,-2.90006142605732,-1.09715783665621,,-9.450289206787927,,
,5320.0,1084.0,4761.0,906.0,2576.0,2993.0,582.0,,,,-0.455663509692921,-2.90017996451105,-1.09693578145921,,-9.470912949442297,,
,5315.0,1081.0,4761.0,904.0,2574.0,3000.0,596.0,,,,-0.455840544870581,-2.90010533018889,-1.09715062385722,,-9.487160508142788,,
,5316.0,1084.0,4765.0,905.0,2585.0,3003.0,575.0,,,,-0.456202667445601,-2.90016207824855,-1.096983513204,,-9.49943656599428,,
,5316.0,1082.0,4769.0,907.0,2578.0,3009.0,575.0,,,,-0.455719629994167,-2.90006608900361,-1.09751855074391,,-9.507480521098852,,
,5313.0,1082.0,4770.0,908.0,2586.0,3007.0,579.0,,,,-0.455752933056467,-2.90014772348629,-1.09790902576127,,-9.510210484081622,,
,5313.0,1082.0,4774.0,906.0,2575.0,3013.0,576.0,,,,-0.455280150286608,-2.90009069731464,-1.09737509578343,,-9.505645035535878,,
,5311.0,1081.0,4775.0,904.0,2576.0,3008.0,590.0,,,,-0.455453195806006,-2.90004923552118,-1.09765016781991,,-9.490919057708703,,
,5309.0,1082.0,4779.0,906.0,2602.0,2987.0,567.0,,,,-0.45530054317496,-2.90005060150384,-1.09802331349141,,-9.46239953645939,,
,5308.0,1083.0,4784.0,908.0,2596.0,2993.0,598.0,,,,-0.455268680520874,-2.8999591061833,-1.09788838801954,,-9.415895096930809,,
,5309.0,1084.0,4786.0,907.0,2602.0,2996.0,610.0,,,,-0.455398443898049,-2.90007859417132,-1.09709411644058,,-9.346939876782798,,
,5306.0,1083.0,4788.0,908.0,2596.0,3009.0,609.0,,,,-0.454896309950529,-2.89998549368329,-1.09685982573797,,-9.251120025876299,,
,5307.0,1084.0,4789.0,907.0,2583.0,3017.0,584.0,,,,-0.455329927803395,-2.89992684856977,-1.09844460555274,,-9.124402750365322,,
,5307.0,1085.0,4791.0,909.0,2577.0,3014.0,598.0,,,,-0.455482826454849,-2.89987231793884,-1.09832386782104,,-8.963426310425229,,
,5306.0,1082.0,4793.0,909.0,2590.0,3013.0,595.0,,,,-0.454866043177249,-2.90004896792584,-1.09773439803063,,-8.76571562635497,,
,5304.0,1084.0,4796.0,907.0,2569.0,3023.0,622.0,,,,-0.455164637841698,-2.90003531958687,-1.09711227539214,,-8.52980052278982,,
,5303.0,1084.0,4794.0,908.0,2563.0,3019.0,633.0,,,,-0.455243838234855,-2.90005720775455,-1.09767303041872,,-8.255229141242822,,
,5305.0,1084.0,4798.0,908.0,2566.0,3012.0,605.0,,,,-0.454872984871364,-2.89993746973615,-1.09689341111824,,-7.942484663512849,,
,5304.0,1083.0,4795.0,908.0,2576.0,3001.0,597.0,,,,-0.455025612739242,-2.89991278808761,-1.09766922793683,,-7.59282679342665,,
,5301.0,1084.0,4795.0,909.0,2577.0,3005.0,605.0,,,,-0.455191367872083,-2.89989437494991,-1.09731706637263,,-7.208088756362919,,
,5297.0,1081.0,4793.0,905.0,2555.0,3006.0,597.0,,,,-0.455465981771355,-2.90004645766881,-1.09823600766567,,-6.790465030040847,,
,5298.0,1079.0,4793.0,906.0,2591.0,2997.0,595.0,,,,-0.455404371765919,-2.90001738772366,-1.0974847403331,,-6.342324402195372,,
,5297.0,1081.0,4790.0,905.0,2580.0,3014.0,602.0,,,,-0.455654772069952,-2.89997273977105,-1.09805308948468,,-5.866077245263962,,
,5297.0,1079.0,4791.0,905.0,2575.0,3012.0,610.0,,,,-0.455207948409915,-2.90004493587999,-1.09782119705292,,-5.3641151287606625,,
,5292.0,1077.0,4788.0,906.0,2613.0,2999.0,600.0,,,,-0.455502427832326,-2.89995575630246,-1.09759386863372,,-4.838825706396459,,
,5293.0,1075.0,4787.0,904.0,2603.0,3004.0,588.0,,,,-0.455848384679584,-2.89997466411612,-1.09781212593782,,-4.292668515660151,,
,5291.0,1079.0,4789.0,903.0,2569.0,2994.0,602.0,,,,-0.455697708302225,-2.90017565862172,-1.09799430450647,,-3.7282822634413884,,
,5292.0,1077.0,4790.0,904.0,2580.0,3000.0,608.0,,,,-0.456215554704529,-2.90008771027352,-1.09860709948504,,-3.148586416470779,,
,5288.0,1076.0,4791.0,903.0,2576.0,3005.0,600.0,,,,-0.455843576371138,-2.90014621060367,-1.09813935832178,,-2.556842454826703,,
,5286.0,1077.0,4790.0,901.0,2562.0,2983.0,580.0,,,,-0.456052103925458,-2.90004980787056,-1.09767415708633,,-1.9566517975226625,,
,5287.0,1079.0,4793.0,904.0,2591.0,2987.0,566.0,,,,-0.456178918621431,-2.90007049895036,-1.09661480233772,,-1.3518836074524412,,
,5285.0,1080.0,4793.0,906.0,2571.0,2983.0,593.0,,,,-0.45580834296516,-2.90001227149581,-1.09832940721565,,-0.7465414178282768,,
,5284.0,1078.0,4796.0,903.0,2568.0,2995.0,575.0,,,,-0.455728164952034,-2.89995601112554,-1.09582282300127,,-0.14458955595034456,,
,5285.0,1077.0,4798.0,903.0,2577.0,3006.0,587.0,,,,-0.455480067837728,-2.90004516848296,-1.09634105866296,,0.4502326965215602,,
,5284.0,1078.0,4800.0,902.0,2588.0,3004.0,579.0,,,,-0.455417553841557,-2.89999790655191,-1.09686249602228,,1.0345797407024842,,
,5285.0,1078.0,4806.0,906.0,2578.0,3001.0,573.0,,,,-0.454988134819625,-2.90000030743018,-1.09664167135141,,1.6056253549560033,,
,5284.0,1078.0,4804.0,905.0,2575.0,3005.0,567.0,,,,-0.454776179222805,-2.89983066492837,-1.09620103380152,,2.161127944026598,,
,5280.0,1078.0,4805.0,905.0,2559.0,3004.0,597.0,,,,-0.455061660069035,-2.89984724526622,-1.09663290278625,,2.699429255647137,,
,5283.0,1077.0,4810.0,904.0,2571.0,2994.0,577.0,,,,-0.455150982969743,-2.89990792107528,-1.09567163169496,,3.2193931482121623,,
,5281.0,1080.0,4816.0,907.0,2576.0,3003.0,585.0,,,,-0.455181489634717,-2.89988518277437,-1.09635627103646,,3.720302402617444,,
,5284.0,1080.0,4817.0,907.0,2574.0,3006.0,595.0,,,,-0.454930901311032,-2.89987207298018,-1.09654505045588,,4.201738924917742,,
,5285.0,1082.0,4821.0,906.0,2569.0,3007.0,588.0,,,,-0.45461485405237,-2.89984087277607,-1.09574110176221,,4.663473874528036,,
,5283.0,1079.0,4819.0,906.0,2555.0,2989.0,566.0,,,,-0.454861765714779,-2.8998771226322,-1.09630127419291,,5.105389036523372,,
,5282.0,1079.0,4823.0,906.0,2563.0,3015.0,561.0,,,,-0.454654002230034,-2.89989714383118,-1.0964074182559,,5.527441169301767,,
,5285.0,1080.0,4829.0,906.0,2580.0,3019.0,574.0,,,,-0.454834116122035,-2.89994243790349,-1.09661137317612,,5.92967047032954,,
,5284.0,1080.0,4832.0,908.0,2582.0,3019.0,601.0,,,,-0.455541613264755,-2.89979455183898,-1.09687536010084,,6.312245708787549,,
,5285.0,1083.0,4835.0,907.0,2586.0,3005.0,581.0,,,,-0.455321655205276,-2.89998858161187,-1.09778320589809,,6.675533364509141,,
,5285.0,1081.0,4835.0,906.0,2593.0,3004.0,611.0,,,,-0.455714818158393,-2.90003869462341,-1.09733268659498,,7.020176066343753,,
,5287.0,1085.0,4841.0,910.0,2584.0,3012.0,622.0,,,,-0.455354881493312,-2.9000231653695,-1.09691825244151,,7.347165743091983,,
,5285.0,1083.0,4842.0,907.0,2575.0,2994.0,595.0,,,,-0.455721283804747,-2.9000748554722,-1.09740312278856,,7.657898279618899,,
,5287.0,1085.0,4847.0,910.0,2566.0,2995.0,586.0,,,,-0.455817684683302,-2.90009500776836,-1.09760657868079,,7.954198753766672,,
,5288.0,1084.0,4850.0,906.0,2594.0,3004.0,588.0,,,,-0.455633998923128,-2.90007095077306,-1.09770192334768,,8.238309673420797,,
,5288.0,1084.0,4851.0,909.0,2588.0,3009.0,588.0,,,,-0.456020976731082,-2.90010617599706,-1.0967413133012,,8.51283924195362,,
,5290.0,1085.0,4857.0,910.0,2566.0,2990.0,575.0,,,,-0.455952460037242,-2.90005656402815,-1.09759733980115,,8.780672167396986,,
,5288.0,1086.0,4859.0,913.0,2564.0,3000.0,563.0,,,,-0.456345355910415,-2.90009124961635,-1.09860690566824,,9.044850503516134,,
,5288.0,1086.0,4862.0,910.0,2579.0,3000.0,555.0,,,,-0.456317446769051,-2.90010866719263,-1.09804315675259,,9.30843438660766,,
,5287.0,1087.0,4866.0,911.0,2560.0,3011.0,568.0,,,,-0.456388735368206,-2.90013123764,-1.09789160473229,,9.574350843641678,,
,5291.0,1088.0,4871.0,912.0,2594.0,3021.0,565.0,,,,-0.456615586533008,-2.90013331022175,-1.0970357966626,,9.845233689903688,,
,5288.0,1090.0,4873.0,911.0,2600.0,3016.0,561.0,,,,-0.45639912398035,-2.90003025820815,-1.09817647521167,,10.123251518935549,,
,5292.0,1088.0,4877.0,913.0,2584.0,3010.0,545.0,,,,-0.456081574372997,-2.90018482473333,-1.09766838178702,,10.409916847854848,,
,5292.0,1089.0,4877.0,913.0,2597.0,3022.0,583.0,,,,-0.4567732234237,-2.90006457408739,-1.09795955726574,,10.705869435149074,,
,5294.0,1089.0,4878.0,914.0,2588.0,3003.0,594.0,,,,-0.456377755534451,-2.90007171901427,-1.09786030640889,,11.010631355207948,,
,5296.0,1090.0,4881.0,915.0,2590.0,3005.0,571.0,,,,-0.456345924089336,-2.89999643283411,-1.09771260997493,,11.32234060100591,,
,5292.0,1088.0,4879.0,911.0,2589.0,3006.0,580.0,,,,-0.456255566195679,-2.90010940944769,-1.09759566913311,,11.637482745629665,,
,5290.0,1087.0,4873.0,911.0,2594.0,3001.0,560.0,,,,-0.455743731134835,-2.9000956747802,-1.09816483202226,,11.950654036492644,,
,5287.0,1084.0,4863.0,909.0,2582.0,2989.0,564.0,,,,-0.455848037172651,-2.90008203236009,-1.09795246694742,,12.254400781845069,,
,5285.0,1080.0,4850.0,906.0,2565.0,2996.0,593.0,,,,-0.45591883611137,-2.89998878320694,-1.09849790637017,,12.539185561803876,,
2025-07-01 21:16:14,5280.0,1077.0,4836.0,904.0,2555.0,2995.0,594.0,,,2025/07/01 09:16:14 PM,-0.455926157161094,-2.89998421275113,-1.09753586142086,,12.793527782518996,,
,5275.0,1073.0,4819.0,901.0,2587.0,2991.0,603.0,,,,-0.455750249855286,-2.90014029660262,-1.09791592359737,,13.004352554112387,,
,5267.0,1070.0,4802.0,895.0,2568.0,3006.0,616.0,,,,-0.455753330950786,-2.9000286532325,-1.09801764879834,,13.157558004081833,,
,5263.0,1066.0,4788.0,895.0,2554.0,3015.0,609.0,,,,-0.455478243394874,-2.8999959206334,-1.09800707338077,,13.238780344677165,,
,5254.0,1062.0,4772.0,891.0,2553.0,2995.0,576.0,,,,-0.455667612826137,-2.90016694991611,-1.09675363285216,,13.234304641890262,,
,5249.0,1058.0,4758.0,890.0,2568.0,2996.0,561.0,,,,-0.455964657349029,-2.90003344145726,-1.09746000226784,,13.132043993325514,,
,5242.0,1057.0,4746.0,885.0,2585.0,3002.0,565.0,,,,-0.456302818974347,-2.90007373420072,-1.09859262896228,,12.922494729986447,,
,5239.0,1053.0,4740.0,884.0,2574.0,2988.0,570.0,,,,-0.455907779828214,-2.89999767707134,-1.09837675943369,,12.599570978479722,,
,5237.0,1054.0,4737.0,884.0,2603.0,2999.0,560.0,,,,-0.456282454181228,-2.90010427468612,-1.0983802126653,,12.161227714128799,,
,5230.0,1053.0,4734.0,883.0,2615.0,3002.0,561.0,,,,-0.456528538772474,-2.89990285148124,-1.09765451530835,,11.609796987454954,,
,5227.0,1051.0,4727.0,880.0,2609.0,2986.0,546.0,,,,-0.456725130828146,-2.90004286760511,-1.09976475233617,,10.951987262027032,,
,5225.0,1049.0,4729.0,881.0,2613.0,3008.0,542.0,,,,-0.456306075186333,-2.90025092440811,-1.09791923542923,,10.198529704199862,,
,5224.0,1050.0,4727.0,880.0,2624.0,3013.0,545.0,,,,-0.456531537949843,-2.90003130430074,-1.09791733577885,,9.363494916036869,,
,5220.0,1050.0,4727.0,881.0,2606.0,3011.0,547.0,,,,-0.456865158094876,-2.90018313984541,-1.09787954658168,,8.46334414378205,,
,5218.0,1049.0,4726.0,881.0,2612.0,3010.0,548.0,,,,-0.456383884542199,-2.90004911176253,-1.09813649283178,,7.515814033795513,,
,5214.0,1049.0,4729.0,879.0,2577.0,3005.0,547.0,,,,-0.45661492894996,-2.90016305030438,-1.09811676803259,,6.538756673586016,,
,5213.0,1050.0,4733.0,881.0,2565.0,2996.0,539.0,,,,-0.456738851069438,-2.90007720433531,-1.0985342154249,,5.549061360691679,,
,5212.0,1050.0,4735.0,882.0,2576.0,3002.0,539.0,,,,-0.456937984809206,-2.90004391654887,-1.09858371154668,,4.56176920618862,,
,5212.0,1051.0,4734.0,880.0,2582.0,3010.0,554.0,,,,-0.456955455237626,-2.90007594925481,-1.0978022474984,,3.5894593246274487,,
,5209.0,1048.0,4741.0,882.0,2576.0,3015.0,583.0,,,,-0.456913337710756,-2.9002488164663,-1.09735631001041,,2.641943425933051,,
,5208.0,1049.0,4740.0,879.0,2591.0,3000.0,590.0,,,,-0.456878660428413,-2.90008657467856,-1.09899210988186,,1.726262829859663,,
,5207.0,1049.0,4746.0,882.0,2581.0,2991.0,556.0,,,,-0.456655789893627,-2.90011030163243,-1.09897982267134,,0.8469450570489104,,
,5209.0,1049.0,4746.0,884.0,2593.0,2989.0,573.0,,,,-0.456754329902326,-2.90007008430591,-1.09946036631206,,0.006450033644349323,,
,5204.0,1051.0,4749.0,883.0,2591.0,2989.0,560.0,,,,-0.456709571920369,-2.90017883937392,-1.09826698027734,,-0.7942796936859902,,
,5206.0,1049.0,4752.0,881.0,2591.0,2992.0,546.0,,,,-0.456472772282999,-2.89999686078626,-1.09801925839314,,-1.5552538326067173,,
,5206.0,1050.0,4756.0,884.0,2575.0,2994.0,555.0,,,,-0.456252784621795,-2.90006892676844,-1.09838010148343,,-2.276934879445167,,
,5206.0,1054.0,4761.0,884.0,2587.0,3004.0,567.0,,,,-0.456464677895055,-2.90005572764822,-1.09795807372299,,-2.9598654408953484,,
,5205.0,1050.0,4762.0,883.0,2587.0,3004.0,563.0,,,,-0.456296191044657,-2.90002551368418,-1.09872297461026,,-3.604455599535141,,
,5204.0,1050.0,4765.0,884.0,2579.0,2998.0,588.0,,,,-0.456138932655944,-2.90007772358329,-1.09936794600156,,-4.210931489527298,,
,5203.0,1052.0,4766.0,884.0,2584.0,3002.0,562.0,,,,-0.456116644761353,-2.90002593056006,-1.09772590782751,,-4.7794158351735,,
,5202.0,1054.0,4768.0,887.0,2584.0,2993.0,566.0,,,,-0.456442773877826,-2.90000958242216,-1.09913677659906,,-5.310088988596927,,
,5204.0,1050.0,4769.0,883.0,2577.0,2996.0,569.0,,,,-0.456570793517229,-2.90010873297974,-1.09926632045634,,-5.803369975216058,,
,5202.0,1052.0,4770.0,886.0,2547.0,3007.0,571.0,,,,-0.456183472406207,-2.90007823831699,-1.0978799256694,,-6.260062385565389,,
,5201.0,1048.0,4771.0,885.0,2553.0,3005.0,582.0,,,,-0.456545711547234,-2.90008898038787,-1.09960167607159,,-6.681426331275636,,
,5199.0,1052.0,4770.0,885.0,2568.0,3007.0,589.0,,,,-0.456809295479715,-2.90006260685194,-1.09940522493074,,-7.069159199801563,,
,5199.0,1049.0,4768.0,885.0,2572.0,3003.0,582.0,,,,-0.456494530369159,-2.9002022707928,-1.09903973991298,,-7.425289022964464,,
,5198.0,1049.0,4770.0,886.0,2577.0,2988.0,580.0,,,,-0.456434062130617,-2.90019801077393,-1.09851809631196,,-7.75200137878823,,
,5192.0,1046.0,4763.0,882.0,2569.0,3001.0,569.0,,,,-0.45656379024595,-2.90007006806404,-1.09955978704139,,-8.051432199007104,,
,5196.0,1049.0,4764.0,882.0,2593.0,2995.0,567.0,,,,-0.457164123564886,-2.90017924506771,-1.09888793245969,,-8.325463985483623,,
,5195.0,1049.0,4766.0,879.0,2589.0,2998.0,585.0,,,,-0.457576713804211,-2.90019495253901,-1.09878843798035,,-8.575561696031516,,
,5189.0,1050.0,4764.0,881.0,2580.0,2997.0,579.0,,,,-0.457127441209657,-2.90036381019587,-1.0995964508747,,-8.802677604205185,,
,5190.0,1046.0,4763.0,881.0,2587.0,3005.0,593.0,,,,-0.457046243510959,-2.90039501600975,-1.09935960052267,,-9.007243096814694,,
,5188.0,1047.0,4767.0,880.0,2604.0,3002.0,586.0,,,,-0.457454317083592,-2.90032763820401,-1.0996773638306,,-9.189251326320719,,
,5185.0,1047.0,4768.0,880.0,2594.0,2985.0,573.0,,,,-0.457170264619302,-2.90030762520408,-1.09914952697832,,-9.348419746263861,,
,5185.0,1049.0,4770.0,881.0,2608.0,2989.0,565.0,,,,-0.457204579393862,-2.90042360148039,-1.09953832996048,,-9.484408044554646,,
,5187.0,1050.0,4769.0,883.0,2593.0,2996.0,564.0,,,,-0.457044107500114,-2.90019292926199,-1.09864526266166,,-9.597057472213818,,
,5183.0,1046.0,4769.0,882.0,2568.0,3001.0,556.0,,,,-0.457048192137588,-2.90034362980452,-1.09866659750805,,-9.686614367395112,,
,5184.0,1046.0,4772.0,881.0,2599.0,2999.0,548.0,,,,-0.457143183642319,-2.90023837866194,-1.09849740985897,,-9.753904520306934,,
,5184.0,1049.0,4774.0,884.0,2596.0,3009.0,544.0,,,,-0.457043786677141,-2.90007310679705,-1.09775177735326,,-9.800434313631332,,
,5180.0,1050.0,4778.0,881.0,2600.0,3003.0,547.0,,,,-0.456199063099756,-2.90002741568261,-1.0979745836512,,-9.828406206171703,,
,5184.0,1048.0,4778.0,881.0,2561.0,2995.0,562.0,,,,-0.456056216172346,-2.90012446781699,-1.09745712462032,,-9.840647251953778,,
,5181.0,1049.0,4782.0,882.0,2571.0,3000.0,591.0,,,,-0.455664959867063,-2.90005322256635,-1.09674633530133,,-9.840458451071022,,
,5181.0,1051.0,4782.0,883.0,2581.0,2996.0,582.0,,,,-0.455609032552053,-2.89997676677289,-1.09778660751898,,-9.831399501963281,,
,5184.0,1051.0,4789.0,886.0,2601.0,3001.0,570.0,,,,-0.455659746553452,-2.8999831316467,-1.0975358356042,,-9.817028207980501,,
,5180.0,1053.0,4794.0,884.0,2591.0,3002.0,566.0,,,,-0.455404605603265,-2.89996397564738,-1.09662554178237,,-9.80061671511489,,
,5181.0,1050.0,4794.0,884.0,2607.0,2996.0,555.0,,,,-0.455493336803871,-2.90005226136968,-1.09760156134123,,-9.784868108803225,,
,5183.0,1052.0,4797.0,884.0,2611.0,3004.0,560.0,,,,-0.455260462792421,-2.89996526073081,-1.09672426919188,,-9.771656567461674,,
,5183.0,1054.0,4798.0,885.0,2586.0,2999.0,578.0,,,,-0.45567968056994,-2.90002190376295,-1.09742190509523,,-9.761811879815184,,
,5184.0,1054.0,4802.0,887.0,2594.0,2999.0,580.0,,,,-0.455757108400745,-2.90006372759188,-1.09760737422745,,-9.75496440590611,,
,5185.0,1054.0,4806.0,884.0,2597.0,2996.0,561.0,,,,-0.455521853208414,-2.90006179043444,-1.09862540237113,,-9.749460001016365,,
,5183.0,1052.0,4807.0,887.0,2583.0,3008.0,578.0,,,,-0.455634991518567,-2.89995704499263,-1.09814588495727,,-9.742347734806117,,
,5186.0,1053.0,4813.0,884.0,2573.0,2998.0,560.0,,,,-0.45573748231825,-2.89992633016935,-1.09710923600255,,-9.729438684211697,,
,5186.0,1056.0,4816.0,888.0,2578.0,2997.0,549.0,,,,-0.456179053660272,-2.90005226366669,-1.09809876007482,,-9.705432829366954,,
,5186.0,1057.0,4819.0,890.0,2583.0,3013.0,584.0,,,,-0.455671375890932,-2.90022344800735,-1.0980691564576,,-9.664112150574525,,
,5186.0,1057.0,4820.0,888.0,2583.0,2992.0,572.0,,,,-0.455927968066305,-2.90011919567186,-1.09716896284293,,-9.598599000172793,,
,5187.0,1059.0,4825.0,888.0,2619.0,2987.0,570.0,,,,-0.456132494222926,-2.9000821839194,-1.09735277329474,,-9.501677565725178,,
,5191.0,1059.0,4830.0,890.0,2603.0,2971.0,579.0,,,,-0.456047588062665,-2.90000879216796,-1.09824153283935,,-9.366171899025064,,
,5191.0,1061.0,4832.0,890.0,2605.0,2977.0,581.0,,,,-0.456476404025461,-2.90009651820766,-1.09834054410842,,-9.185366978533633,,
,5189.0,1059.0,4835.0,890.0,2598.0,2991.0,555.0,,,,-0.457028284048816,-2.90006840753361,-1.09762300609741,,-8.953450895506833,,
,5189.0,1059.0,4837.0,892.0,2599.0,3000.0,546.0,,,,-0.456638816218584,-2.90013686992663,-1.09833620773806,,-8.66594821788529,,
,5193.0,1062.0,4843.0,890.0,2579.0,3000.0,547.0,,,,-0.456244860082081,-2.90006068222624,-1.09894635372585,,-8.320108417015936,,
,5189.0,1066.0,4846.0,891.0,2576.0,3002.0,554.0,,,,-0.456449894398543,-2.90010047172502,-1.09912297754917,,-7.915209846205344,,
,5193.0,1063.0,4848.0,890.0,2587.0,2998.0,561.0,,,,-0.456245619779024,-2.90013585341726,-1.09776660648373,,-7.4527397394520785,,
,5191.0,1064.0,4851.0,890.0,2579.0,2999.0,589.0,,,,-0.456251289901999,-2.90016437489968,-1.09873208434818,,-6.936415250771459,,
,5192.0,1066.0,4855.0,893.0,2603.0,2992.0,603.0,,,,-0.45630793299336,-2.90022908319385,-1.09760121650836,,-6.372021684773096,,
,5194.0,1067.0,4858.0,892.0,2633.0,3013.0,591.0,,,,-0.45640301280855,-2.90030551169346,-1.09773132501433,,-5.767063028494124,,
,5195.0,1068.0,4860.0,894.0,2609.0,3017.0,572.0,,,,-0.456179425453725,-2.90011452719938,-1.09791272957693,,-5.130244831115118,,
,5195.0,1067.0,4862.0,892.0,2589.0,3018.0,562.0,,,,-0.456183023916277,-2.90018209188262,-1.09877594477523,,-4.4708350065080795,,
,5193.0,1067.0,4864.0,893.0,2573.0,3006.0,529.0,,,,-0.45585198762812,-2.90016606158096,-1.09868295365134,,-3.7979678459679085,,
,5196.0,1067.0,4865.0,896.0,2555.0,3009.0,538.0,,,,-0.455883337728892,-2.90015793299635,-1.09738904290868,,-3.119966170603952,,
,5191.0,1063.0,4858.0,893.0,2563.0,3003.0,554.0,,,,-0.456209808622981,-2.90008850295663,-1.09753666156278,,-2.4437552344106646,,
,5190.0,1061.0,4850.0,889.0,2589.0,2986.0,583.0,,,,-0.456071262467058,-2.90021413141584,-1.09796820313213,,-1.7744312828002171,,
,5186.0,1059.0,4836.0,888.0,2562.0,2983.0,587.0,,,,-0.455772886195455,-2.90010940187392,-1.09867575195455,,-1.115030068707197,,
,5180.0,1056.0,4826.0,886.0,2573.0,2985.0,580.0,,,,-0.455296934678102,-2.90015722196042,-1.09789538600031,,-0.46651849347970087,,
,5175.0,1051.0,4809.0,881.0,2558.0,2978.0,608.0,,,,-0.455349247254745,-2.9000925086147,-1.09816194247218,,0.17199214834212784,,
,5170.0,1049.0,4793.0,879.0,2547.0,2981.0,607.0,,,,-0.455266727920675,-2.89999328165744,-1.09733789854237,,0.8028381211229945,,
,5161.0,1044.0,4778.0,875.0,2561.0,2986.0,601.0,,,,-0.455630203477123,-2.90008475349886,-1.09855730261726,,1.4292504641604094,,
,5155.0,1043.0,4764.0,873.0,2544.0,2983.0,571.0,,,,-0.455890872560276,-2.90015171305622,-1.09874476975966,,2.054725259711968,,
,5150.0,1040.0,4753.0,869.0,2578.0,3005.0,577.0,,,,-0.455512311071964,-2.9000733899726,-1.09835958792444,,2.682393309737242,,
,5145.0,1035.0,4741.0,870.0,2596.0,3017.0,556.0,,,,-0.456030891724408,-2.8999318212573,-1.09787589718922,,3.3144630036208995,,
,5137.0,1035.0,4733.0,865.0,2604.0,3004.0,554.0,,,,-0.455902721343155,-2.89999655194756,-1.09794468931296,,3.9517971845310997,,
,5135.0,1034.0,4727.0,864.0,2594.0,3004.0,563.0,,,,-0.455872270534269,-2.90008940712354,-1.09759105817787,,4.593664595164589,,
,5129.0,1034.0,4724.0,868.0,2604.0,3006.0,562.0,,,,-0.455943060088817,-2.90016133176249,-1.09757454877318,,5.237683189594968,,
,5128.0,1034.0,4721.0,867.0,2596.0,3007.0,553.0,,,,-0.455808386786809,-2.90009456409499,-1.09750644567557,,5.8799499552503125,,
,5125.0,1032.0,4720.0,864.0,2589.0,3002.0,597.0,,,,-0.456516711689766,-2.90013228906844,-1.09770481521592,,6.51533237355356,,
,5121.0,1029.0,4717.0,864.0,2629.0,2995.0,581.0,,,,-0.456050730785603,-2.90031054690927,-1.0985420226399,,7.137881704886585,,
,5119.0,1032.0,4720.0,866.0,2607.0,3004.0,557.0,,,,-0.456216396867987,-2.90019102009371,-1.09801650501499,,7.7413188544597595,,
,5117.0,1031.0,4723.0,865.0,2593.0,3002.0,553.0,,,,-0.45630406214655,-2.90009536337908,-1.09747341686407,,8.31954027474098,,
,5117.0,1030.0,4725.0,865.0,2586.0,3003.0,553.0,,,,-0.456330492326375,-2.90011827689701,-1.09852821664791,,8.867094280813124,,
,5112.0,1030.0,4725.0,863.0,2601.0,3003.0,574.0,,,,-0.456570615210456,-2.90021983682114,-1.09709454021287,,9.379586459546692,,
,5110.0,1033.0,4727.0,862.0,2590.0,2995.0,563.0,,,,-0.456280550781697,-2.9002581769454,-1.0976330573449,,9.853984452203713,,
,5113.0,1032.0,4731.0,865.0,2566.0,2990.0,577.0,,,,-0.456530305814011,-2.90012643052517,-1.09852024784938,,10.28880437661033,,
,5111.0,1032.0,4736.0,862.0,2580.0,3003.0,574.0,,,,-0.456544026286907,-2.90021362951027,-1.09803878108138,,10.684171198627606,,
,5108.0,1034.0,4735.0,866.0,2590.0,2999.0,581.0,,,,-0.456736672136793,-2.90024648442332,-1.09850470746604,,11.041752960068935,,
,5106.0,1034.0,4740.0,866.0,2581.0,2997.0,566.0,,,,-0.456449825092983,-2.90014018103293,-1.09910191470077,,11.36457500170613,,
,5107.0,1034.0,4743.0,866.0,2594.0,2999.0,565.0,,,,-0.456675126249413,-2.90019247522689,-1.09889932494224,,11.656726366770606,,
,5106.0,1034.0,4748.0,867.0,2606.0,3006.0,561.0,,,,-0.45639390890195,-2.90002565914411,-1.09910242470259,,11.922976616510107,,
,5106.0,1035.0,4751.0,866.0,2600.0,3013.0,571.0,,,,-0.456270346035926,-2.9000390564776,-1.09829821614026,,12.168326700234864,,
,5103.0,1034.0,4754.0,866.0,2610.0,3013.0,552.0,,,,-0.456586545703564,-2.90008692342124,-1.09830154218197,,12.397521654184933,,
,5106.0,1035.0,4755.0,866.0,2607.0,2993.0,576.0,,,,-0.456142141463762,-2.90026753719154,-1.09847458539337,,12.614555575234029,,
,5106.0,1036.0,4761.0,869.0,2581.0,3010.0,589.0,,,,-0.456526838897967,-2.90023847265892,-1.09862234958251,,12.82220071682852,,
,5105.0,1037.0,4765.0,868.0,2562.0,3019.0,574.0,,,,-0.456468005487006,-2.90018448308485,-1.09899088205657,,13.02159291078689,,
,5105.0,1036.0,4761.0,868.0,2581.0,3006.0,568.0,,,,-0.456458356297239,-2.90014498539236,-1.09901744289807,,13.211904747333637,,
,5105.0,1036.0,4763.0,868.0,2577.0,3019.0,589.0,,,,-0.456625691414381,-2.90010646527951,-1.09951645030197,,13.390135420159275,,
,5104.0,1036.0,4767.0,869.0,2566.0,3007.0,581.0,,,,-0.456712245224555,-2.90004244284699,-1.09944179566521,,13.551040917008088,,
,5104.0,1038.0,4767.0,870.0,2576.0,3010.0,612.0,,,,-0.456829613834198,-2.90013552341602,-1.10001093156312,,13.687219930001875,,
,5105.0,1035.0,4768.0,867.0,2563.0,2998.0,605.0,,,,-0.456461414198287,-2.8999833369003,-1.09872319329024,,13.789360342140855,,
,5100.0,1034.0,4766.0,868.0,2546.0,3007.0,590.0,,,,-0.456521351324352,-2.90008800820201,-1.0974055449199,,13.846639922960543,,
,5099.0,1037.0,4768.0,866.0,2563.0,3006.0,603.0,,,,-0.456611229828214,-2.90014430435948,-1.09955710521929,,13.847263828905353,,
,5098.0,1036.0,4768.0,867.0,2558.0,3010.0,581.0,,,,-0.456300114140752,-2.90011061309268,-1.09925473192062,,13.779110756427183,,
,5097.0,1036.0,4766.0,867.0,2566.0,2995.0,586.0,,,,-0.456644892420658,-2.89999244434981,-1.09935207741823,,13.630449489839709,,
,5094.0,1036.0,4764.0,867.0,2565.0,2974.0,600.0,,,,-0.456745217354045,-2.90012912527554,-1.09786420328525,,13.390679375321414,,
,5094.0,1035.0,4766.0,866.0,2586.0,2986.0,598.0,,,,-0.457146398643377,-2.90029139531519,-1.09913491482295,,13.051043530511489,,
,5095.0,1036.0,4763.0,864.0,2594.0,2992.0,568.0,,,,-0.457770498973672,-2.90022504611919,-1.10025037679764,,12.605263406106536,,
,5093.0,1034.0,4765.0,867.0,2597.0,2998.0,567.0,,,,-0.457632878578141,-2.90023418774217,-1.09974235802908,,12.050047863053342,,
,5092.0,1035.0,4765.0,868.0,2596.0,3007.0,556.0,,,,-0.457870037522241,-2.90031355184377,-1.0992899132136,,11.38543874712889,,
,5090.0,1035.0,4765.0,865.0,2583.0,3001.0,565.0,,,,-0.457383110479189,-2.90033663719955,-1.1002211180091,,10.614967027673414,,
,5090.0,1037.0,4770.0,866.0,2574.0,2996.0,556.0,,,,-0.457447061446464,-2.90036264032788,-1.09930521896683,,9.745607708659785,,
