TimeLabel,MEAS1_PPG1,MEAS1_PPG2,MEAS1_PPG3,MEAS1_PPG4,ACCX,ACCY,ACCZ,HR_timestamp,HR_value,radar_timestamp,phase_rx0,phase_rx1,phase_rx2,timestep,n_process,original_rate,calculated_rate
2025-08-20 17:47:29,7102.0,1080.0,4391.0,1276.0,-170.0,1692.0,3579.0,2025-08-20 17:47:29,69.0,2025/08/20 05:47:29 PM,-2.05413361343419,-3.0126134967292,-1.51768276089403,2025/08/20 05:47:29 PM,-0.2986592289941208,19.607843399047848,19.04285952261964
,7104.0,1080.0,4392.0,1277.0,-172.0,1678.0,3591.0,2025-08-20 17:47:30,69.0,,-2.05447502701028,-3.01261008991088,-1.5176847408776,2025/08/20 05:47:39 PM,0.21822269789518292,20.02670288085937,19.93474123085289
,7105.0,1081.0,4393.0,1277.0,-185.0,1696.0,3572.0,2025-08-20 17:47:31,69.0,,-2.05433706513465,-3.0126716036664,-1.51743579788272,2025/08/20 05:47:49 PM,0.7634459190197675,19.607843399047848,20.96670721897582
,7108.0,1081.0,4397.0,1276.0,-186.0,1684.0,3567.0,2025-08-20 17:47:32,68.0,,-2.0549511301354,-3.01266937631046,-1.51625112615228,2025/08/20 05:47:59 PM,1.3278543220185046,20.05943489074707,18.787878787878785
,7107.0,1082.0,4396.0,1275.0,-176.0,1685.0,3587.0,2025-08-20 17:47:33,68.0,,-2.05518573626846,-3.01265138395425,-1.51720487727709,2025/08/20 05:48:09 PM,1.9003909667085659,20.120723724365234,20.800819252432166
,7108.0,1083.0,4396.0,1278.0,-178.0,1705.0,3583.0,2025-08-20 17:47:34,68.0,,-2.05576229806079,-3.01250063389814,-1.51663566853716,2025/08/20 05:48:19 PM,2.468326368199446,20.089284896850582,18.825396825396815
,7110.0,1083.0,4398.0,1277.0,-183.0,1700.0,3587.0,2025-08-20 17:47:35,68.0,,-2.05495486120993,-3.01263326413003,-1.51745274142905,2025/08/20 05:48:29 PM,3.01763432693611,19.24447631835937,18.968491462770636
,7112.0,1084.0,4399.0,1279.0,-181.0,1713.0,3586.0,2025-08-20 17:47:36,68.0,,-2.05572386864555,-3.01260684027763,-1.51778382572127,2025/08/20 05:48:39 PM,3.53350735837196,19.382627487182617,19.727602905569004
,7114.0,1084.0,4401.0,1278.0,-202.0,1699.0,3591.0,2025-08-20 17:47:37,68.0,,-2.0555101928946,-3.01256399217977,-1.5175296191797,2025/08/20 05:48:49 PM,4.000991021791752,18.63354110717773,19.968931968277882
,7114.0,1082.0,4398.0,1276.0,-198.0,1707.0,3584.0,2025-08-20 17:47:38,68.0,,-2.05585076503527,-3.01263601873639,-1.51785611183817,2025/08/20 05:48:59 PM,4.405703776771338,19.28571510314941,20.640301318267433
,7118.0,1084.0,4404.0,1279.0,-187.0,1690.0,3575.0,2025-08-20 17:47:39,68.0,,-2.05518768816098,-3.01270485252721,-1.51743153427116,2025/08/20 05:49:09 PM,4.734597156522607,20.423599243164062,20.935960591133014
,7119.0,1085.0,4402.0,1278.0,-186.0,1670.0,3590.0,2025-08-20 17:47:40,67.0,,-2.05619517658237,-3.01263792582747,-1.51793306028365,2025/08/20 05:49:19 PM,4.9767013290504,20.394290924072266,19.33403700893888
,7120.0,1085.0,4404.0,1280.0,-192.0,1664.0,3593.0,2025-08-20 17:47:41,67.0,,-2.05543142252861,-3.01266082619044,-1.51735560077377,2025/08/20 05:49:29 PM,5.123795095835462,20.38043594360352,21.863214185195606
,7120.0,1084.0,4404.0,1279.0,-182.0,1682.0,3589.0,2025-08-20 17:47:42,65.0,,-2.05596836428417,-3.01255071150669,-1.51821295552786,2025/08/20 05:49:39 PM,5.170938635045861,21.023124694824215,20.225988700564958
,7126.0,1083.0,4406.0,1281.0,-186.0,1679.0,3599.0,2025-08-20 17:47:43,64.0,,-2.05551844199501,-3.01260240757375,-1.518351563758,2025/08/20 05:49:49 PM,5.116813247940283,20.505809783935547,20.711705010360774
,7129.0,1087.0,4408.0,1281.0,-195.0,1707.0,3588.0,2025-08-20 17:47:44,63.0,,-2.05539687397811,-3.01267076064337,-1.51791697224778,2025/08/20 05:49:59 PM,4.963826068972153,21.044427871704105,21.312136139722302
,7126.0,1089.0,4407.0,1282.0,-187.0,1704.0,3586.0,2025-08-20 17:47:45,63.0,,-2.05583717258984,-3.01251735828456,-1.51763773971268,2025/08/20 05:50:09 PM,4.717959355417365,20.718231201171875,21.37808070777286
,7128.0,1086.0,4409.0,1280.0,-194.0,1691.0,3592.0,2025-08-20 17:47:46,62.0,,-2.05510825930423,-3.01261001334085,-1.51714531058096,2025/08/20 05:50:19 PM,4.3883719968645964,20.995332717895508,21.34437468791907
,7133.0,1088.0,4409.0,1282.0,-182.0,1691.0,3578.0,2025-08-20 17:47:47,62.0,,-2.053869417981,-3.01260848839797,-1.51773708027114,,3.986791033216078,,
,7133.0,1089.0,4411.0,1284.0,-175.0,1695.0,3591.0,2025-08-20 17:47:48,62.0,,-2.05437641250075,-3.01249229147053,-1.51681925716357,,3.526756830444226,,
,7136.0,1090.0,4413.0,1284.0,-171.0,1678.0,3600.0,2025-08-20 17:47:49,63.0,,-2.05402562670724,-3.01253037051381,-1.51687522041248,,3.0228010487607206,,
,7135.0,1089.0,4411.0,1282.0,-176.0,1688.0,3589.0,2025-08-20 17:47:50,63.0,,-2.05440336047121,-3.01258472589218,-1.51719289010087,,2.4896387414940517,,
,7137.0,1088.0,4411.0,1282.0,-182.0,1691.0,3604.0,2025-08-20 17:47:51,63.0,,-2.0540908108525,-3.0124954391668,-1.51690694033401,,1.941445988567085,,
,7142.0,1091.0,4417.0,1287.0,-172.0,1689.0,3601.0,2025-08-20 17:47:52,64.0,,-2.05441758217815,-3.01252922147698,-1.51738266063077,,1.3912761566014296,,
,7145.0,1090.0,4413.0,1283.0,-174.0,1692.0,3593.0,2025-08-20 17:47:53,64.0,,-2.05462376300208,-3.0125880948569,-1.51688133231667,,0.8506454601586184,,
,7143.0,1088.0,4416.0,1284.0,-195.0,1698.0,3596.0,2025-08-20 17:47:54,64.0,,-2.0543430762787,-3.0125496264137,-1.51738385367333,,0.32929550977624406,,
,7147.0,1092.0,4416.0,1285.0,-169.0,1700.0,3590.0,2025-08-20 17:47:55,64.0,,-2.05341343587025,-3.01252009447808,-1.51786260544301,,-0.16488035670559353,,
,7148.0,1092.0,4416.0,1287.0,-185.0,1697.0,3590.0,2025-08-20 17:47:56,65.0,,-2.05398696617861,-3.01252192304855,-1.51692112326563,,-0.6257768734385348,,
,7149.0,1090.0,4417.0,1285.0,-187.0,1716.0,3578.0,2025-08-20 17:47:57,65.0,,-2.05415615851813,-3.01257109078907,-1.51791325639931,,-1.0489237112871381,,
,7153.0,1092.0,4418.0,1283.0,-180.0,1709.0,3580.0,2025-08-20 17:47:58,65.0,,-2.05365614701835,-3.01255761331851,-1.51682092037515,,-1.4312848809593541,,
,7153.0,1092.0,4419.0,1285.0,-178.0,1703.0,3590.0,2025-08-20 17:47:59,64.0,,-2.05326830363096,-3.01244118722691,-1.51767864463722,,-1.771054140225425,,
,7158.0,1094.0,4422.0,1287.0,-178.0,1681.0,3579.0,2025-08-20 17:48:00,64.0,,-2.05374887265224,-3.01256153260786,-1.51687379532575,,-2.0674818648803592,,
,7159.0,1093.0,4422.0,1288.0,-182.0,1681.0,3589.0,2025-08-20 17:48:01,64.0,,-2.05405819371546,-3.0125604874207,-1.51750948248744,,-2.3207558913313693,,
,7160.0,1095.0,4422.0,1286.0,-196.0,1670.0,3608.0,2025-08-20 17:48:02,64.0,,-2.05415007903807,-3.01255513086448,-1.51694097643855,,-2.531942510931535,,
,7159.0,1095.0,4423.0,1287.0,-188.0,1679.0,3600.0,2025-08-20 17:48:03,64.0,,-2.0538151194788,-3.01259643621362,-1.51666541728131,,-2.7029763617181555,,
,7163.0,1095.0,4424.0,1287.0,-184.0,1680.0,3601.0,2025-08-20 17:48:04,63.0,,-2.05346881681479,-3.01263878532179,-1.51672270553292,,-2.836672515129445,,
,7167.0,1095.0,4427.0,1290.0,-173.0,1696.0,3591.0,2025-08-20 17:48:05,63.0,,-2.05264076794373,-3.01256510352743,-1.51707728412373,,-2.936724022582328,,
,7168.0,1097.0,4425.0,1289.0,-163.0,1695.0,3589.0,2025-08-20 17:48:06,63.0,,-2.05241757807002,-3.01260540831595,-1.51644709213635,,-3.0076461561819614,,
,7170.0,1096.0,4425.0,1289.0,-159.0,1698.0,3598.0,2025-08-20 17:48:07,64.0,,-2.05250106172946,-3.01253946904399,-1.51730367842534,,-3.0546351853716236,,
,7172.0,1096.0,4428.0,1289.0,-170.0,1665.0,3592.0,2025-08-20 17:48:08,64.0,,-2.05299700494485,-3.0125400192504,-1.5174622084935,,-3.0833232017321124,,
,7176.0,1098.0,4432.0,1289.0,-166.0,1675.0,3592.0,2025-08-20 17:48:09,64.0,,-2.05239732666606,-3.0125165865997,-1.51764736171298,,-3.0994281915128132,,
,7179.0,1099.0,4430.0,1291.0,-179.0,1661.0,3583.0,2025-08-20 17:48:10,64.0,,-2.05272332167453,-3.01248298864112,-1.51803241908905,,-3.1083169868428957,,
,7180.0,1099.0,4433.0,1291.0,-179.0,1699.0,3594.0,2025-08-20 17:48:11,64.0,,-2.05416279192372,-3.01255778496365,-1.51724216511209,,-3.114515265845215,,
,7179.0,1099.0,4434.0,1292.0,-182.0,1697.0,3599.0,2025-08-20 17:48:12,64.0,,-2.05543252409323,-3.01264254828975,-1.51706623496525,,-3.1212115116768944,,
,7182.0,1100.0,4434.0,1293.0,-185.0,1707.0,3596.0,2025-08-20 17:48:13,64.0,,-2.05620349124113,-3.01269750444853,-1.51815793488034,,-3.1298094312656617,,
,7178.0,1099.0,4436.0,1292.0,-181.0,1704.0,3589.0,2025-08-20 17:48:14,65.0,,-2.05773292413805,-3.01270341114861,-1.51812461519222,,-3.1395850114238653,,
,7180.0,1098.0,4434.0,1291.0,-163.0,1701.0,3582.0,2025-08-20 17:48:15,65.0,,-2.05971668089264,-3.01267895204775,-1.51824405153961,,-3.1474999723673776,,
,7174.0,1099.0,4436.0,1290.0,-179.0,1717.0,3582.0,2025-08-20 17:48:16,65.0,,-2.06101466383672,-3.01272096818973,-1.51895220861343,,-3.148213026991271,,
,7172.0,1099.0,4437.0,1292.0,-177.0,1700.0,3576.0,2025-08-20 17:48:17,65.0,,-2.06282267727651,-3.01285912659419,-1.51981321986007,,-3.1343143831106666,,
,7171.0,1097.0,4432.0,1288.0,-168.0,1686.0,3578.0,2025-08-20 17:48:18,65.0,,-2.06456413330715,-3.01286014856958,-1.51944679881956,,-3.09678794769565,,
,7164.0,1099.0,4432.0,1287.0,-189.0,1694.0,3584.0,2025-08-20 17:48:19,65.0,,-2.06571270815537,-3.01286659119232,-1.519843984008,,-3.0256809300592837,,
,7162.0,1096.0,4435.0,1286.0,-192.0,1705.0,3585.0,2025-08-20 17:48:20,65.0,,-2.06713675855356,-3.01290760893745,-1.52011663108401,,-2.9109340692632264,,
,7154.0,1094.0,4432.0,1285.0,-177.0,1695.0,3582.0,2025-08-20 17:48:21,65.0,,-2.06736758582817,-3.01295337038014,-1.52038495523997,,-2.7433007003688776,,
,7148.0,1092.0,4432.0,1283.0,-170.0,1693.0,3583.0,2025-08-20 17:48:22,65.0,,-2.06664351810953,-3.01295024625148,-1.52058709789818,,-2.515263828906401,,
,7144.0,1092.0,4431.0,1282.0,-173.0,1680.0,3577.0,2025-08-20 17:48:23,65.0,,-2.06650497418678,-3.01288723031659,-1.52057040942656,,-2.221852579992126,,
,7137.0,1090.0,4427.0,1278.0,-182.0,1679.0,3596.0,2025-08-20 17:48:24,64.0,,-2.06594622573741,-3.01287352034265,-1.52073377205586,,-1.8612668059048323,,
,7135.0,1091.0,4430.0,1276.0,-169.0,1669.0,3592.0,2025-08-20 17:48:25,64.0,,-2.06578911975733,-3.01298167381318,-1.52000626526089,,-1.4352414341703872,,
,7135.0,1089.0,4431.0,1277.0,-176.0,1682.0,3584.0,2025-08-20 17:48:26,64.0,,-2.0648082238536,-3.01295364256787,-1.51936409212109,,-0.9491158578016696,,
,7128.0,1090.0,4430.0,1278.0,-176.0,1695.0,3574.0,2025-08-20 17:48:27,65.0,,-2.06581883240837,-3.01297489044594,-1.51943524231659,,-0.4116109525627663,,
,7127.0,1091.0,4429.0,1277.0,-182.0,1703.0,3590.0,2025-08-20 17:48:28,65.0,,-2.06413893903972,-3.01287694537818,-1.51883568781831,,0.16565014824463528,,
,7127.0,1089.0,4432.0,1277.0,-182.0,1702.0,3587.0,2025-08-20 17:48:29,65.0,,-2.06429373776252,-3.01291443790784,-1.51939702655596,,0.7688166119679248,,
,7127.0,1088.0,4433.0,1275.0,-172.0,1695.0,3593.0,2025-08-20 17:48:30,65.0,,-2.06516241215246,-3.01290293418739,-1.51948825220198,,1.3826050578228632,,
,7123.0,1090.0,4433.0,1276.0,-168.0,1687.0,3594.0,2025-08-20 17:48:31,65.0,,-2.06492103902704,-3.01289242421167,-1.51973750522456,,1.9911375131478146,,
,7123.0,1087.0,4430.0,1271.0,-170.0,1667.0,3595.0,2025-08-20 17:48:32,65.0,,-2.06476647374367,-3.01280835341836,-1.51995647741496,,2.5787503357984836,,
,7124.0,1088.0,4432.0,1272.0,-170.0,1680.0,3591.0,2025-08-20 17:48:33,65.0,,-2.06430344859418,-3.01277438515145,-1.51985378329035,,3.1307145383029313,,
,7120.0,1090.0,4433.0,1275.0,-185.0,1702.0,3591.0,2025-08-20 17:48:34,65.0,,-2.06471433673588,-3.01278006481588,-1.51909501040709,,3.6338237345263895,,
,7121.0,1090.0,4432.0,1274.0,-182.0,1688.0,3597.0,2025-08-20 17:48:35,65.0,,-2.06465799157698,-3.01282632267241,-1.51924173214433,,4.076822881034518,,
,7117.0,1087.0,4430.0,1272.0,-180.0,1714.0,3594.0,2025-08-20 17:48:36,66.0,,-2.06401016858137,-3.01282479368202,-1.51926323016477,,4.450667603191071,,
,7117.0,1089.0,4434.0,1272.0,-177.0,1709.0,3602.0,2025-08-20 17:48:37,66.0,,-2.06443404469485,-3.01282596203886,-1.51928588507792,,4.748619598214182,,
,7116.0,1089.0,4429.0,1273.0,-169.0,1687.0,3588.0,2025-08-20 17:48:38,67.0,,-2.06590400214595,-3.01286798808227,-1.52045454838296,,4.966198328800074,,
,7116.0,1089.0,4431.0,1274.0,-170.0,1681.0,3580.0,2025-08-20 17:48:39,67.0,,-2.06644398834756,-3.01293444346982,-1.52070779809584,,5.101022455117602,,
,7112.0,1088.0,4431.0,1271.0,-176.0,1707.0,3590.0,2025-08-20 17:48:40,67.0,,-2.06725142626968,-3.01289182523584,-1.52107334593996,,5.152584288294255,,
,7115.0,1088.0,4433.0,1271.0,-180.0,1701.0,3591.0,2025-08-20 17:48:41,68.0,,-2.06459414306059,-3.01285322571067,-1.51975985607974,,5.122003932161522,,
,7113.0,1091.0,4433.0,1270.0,-178.0,1716.0,3588.0,2025-08-20 17:48:42,68.0,,-2.06527525671774,-3.01292715703813,-1.51953009519113,,5.011804520684582,,
,7112.0,1090.0,4435.0,1272.0,-185.0,1719.0,3599.0,2025-08-20 17:48:43,68.0,,-2.06511765239512,-3.01290617246948,-1.51871143285416,,4.82573686860593,,
,7112.0,1086.0,4432.0,1267.0,-197.0,1698.0,3601.0,2025-08-20 17:48:44,68.0,,-2.06542154053949,-3.0129004268532,-1.51930877317947,,4.568664794002201,,
,7112.0,1085.0,4433.0,1267.0,-179.0,1670.0,3594.0,2025-08-20 17:48:45,68.0,,-2.06486353029386,-3.01294230176686,-1.51971964301577,,4.246506062682832,,
,7110.0,1087.0,4434.0,1268.0,-173.0,1699.0,3578.0,2025-08-20 17:48:46,68.0,,-2.06397580289699,-3.01286212603616,-1.52076432472488,,3.8662114888078256,,
,7114.0,1087.0,4435.0,1269.0,-172.0,1706.0,3583.0,2025-08-20 17:48:47,68.0,,-2.06368937311266,-3.01279721797331,-1.51967680046113,,3.435757021370483,,
,7112.0,1087.0,4433.0,1270.0,-168.0,1708.0,3589.0,2025-08-20 17:48:48,68.0,,-2.0642383567849,-3.01287843103735,-1.51909969940414,,2.964120244845013,,
,7113.0,1091.0,4434.0,1268.0,-166.0,1711.0,3586.0,2025-08-20 17:48:49,68.0,,-2.063983409909,-3.01275388312689,-1.51953052739617,,2.46121338345947,,
,7111.0,1090.0,4434.0,1269.0,-168.0,1708.0,3574.0,2025-08-20 17:48:50,68.0,,-2.06432308034343,-3.01282706365424,-1.51982913346746,,1.93774971645614,,
,7111.0,1090.0,4436.0,1266.0,-166.0,1691.0,3577.0,2025-08-20 17:48:51,68.0,,-2.06501056267603,-3.01282482677116,-1.51973813141544,,1.4050288637336563,,
,7112.0,1089.0,4435.0,1269.0,-161.0,1691.0,3585.0,2025-08-20 17:48:52,69.0,,-2.06467090887919,-3.0128413448776,-1.51930013640554,,0.8746372264480446,,
,7112.0,1087.0,4435.0,1269.0,-170.0,1694.0,3568.0,2025-08-20 17:48:53,69.0,,-2.06334897485722,-3.01283380778385,-1.51946914273244,,0.35807100201192943,,
,7115.0,1089.0,4436.0,1270.0,-182.0,1695.0,3579.0,2025-08-20 17:48:54,70.0,,-2.06367923369689,-3.01276837595207,-1.52017430555742,,-0.13370077699590172,,
,7112.0,1087.0,4438.0,1268.0,-187.0,1706.0,3588.0,2025-08-20 17:48:55,70.0,,-2.06314467503236,-3.0128364764297,-1.51923276692009,,-0.5907071420646157,,
,7112.0,1091.0,4438.0,1267.0,-173.0,1699.0,3571.0,2025-08-20 17:48:56,70.0,,-2.06289421494386,-3.01267069770464,-1.51917414582542,,-1.0044466072733311,,
,7111.0,1088.0,4437.0,1267.0,-181.0,1687.0,3591.0,2025-08-20 17:48:57,70.0,,-2.06407993085337,-3.01275571393828,-1.51925550717751,,-1.368319860630334,,
,7112.0,1088.0,4438.0,1267.0,-183.0,1700.0,3584.0,2025-08-20 17:48:58,70.0,,-2.06370786153826,-3.01281783657127,-1.52062540606791,,-1.6779818520256453,,
,7109.0,1090.0,4437.0,1267.0,-185.0,1687.0,3596.0,2025-08-20 17:48:59,70.0,,-2.06355781852498,-3.01290978425847,-1.51876199939174,,-1.9315741861101754,,
,7111.0,1090.0,4438.0,1268.0,-182.0,1687.0,3589.0,2025-08-20 17:49:00,70.0,,-2.06485295095484,-3.01283445665499,-1.51981442069584,,-2.1298079048508978,,
,7108.0,1086.0,4438.0,1266.0,-169.0,1687.0,3594.0,2025-08-20 17:49:01,70.0,,-2.06488842341476,-3.01282628159321,-1.51987009027951,,-2.2758809700691787,,
,7112.0,1092.0,4439.0,1267.0,-167.0,1702.0,3580.0,2025-08-20 17:49:02,70.0,,-2.06354905516938,-3.01288246738322,-1.5200488052506,,-2.3752310846678597,,
,7109.0,1090.0,4441.0,1267.0,-177.0,1706.0,3586.0,2025-08-20 17:49:03,70.0,,-2.06352428392064,-3.01286834134024,-1.51967960757932,,-2.435139956201911,,
,7114.0,1090.0,4441.0,1266.0,-184.0,1702.0,3578.0,2025-08-20 17:49:04,71.0,,-2.06225314000782,-3.01293156897441,-1.51914080537187,,-2.4642177534692054,,
,7113.0,1087.0,4441.0,1265.0,-184.0,1706.0,3574.0,2025-08-20 17:49:05,72.0,,-2.06275915650359,-3.01278552351377,-1.51861465617126,,-2.47180546897506,,
,7113.0,1088.0,4442.0,1266.0,-173.0,1709.0,3589.0,2025-08-20 17:49:06,72.0,,-2.06193571017008,-3.01272781166065,-1.5187042121428,,-2.467337982601722,,
,7112.0,1091.0,4442.0,1267.0,-161.0,1681.0,3597.0,2025-08-20 17:49:07,72.0,,-2.06184909915764,-3.01270798306604,-1.51908246790518,,-2.459711991362484,,
,7114.0,1094.0,4442.0,1269.0,-181.0,1687.0,3600.0,2025-08-20 17:49:08,71.0,,-2.06149315230036,-3.01270991277437,-1.51943422835784,,-2.4567010993189804,,
,7112.0,1090.0,4443.0,1264.0,-197.0,1703.0,3580.0,2025-08-20 17:49:09,71.0,,-2.06102514276657,-3.01277987202841,-1.51883113689727,,-2.464455958755753,,
,7117.0,1089.0,4444.0,1268.0,-188.0,1685.0,3586.0,2025-08-20 17:49:10,70.0,,-2.06187715083567,-3.01280257633681,-1.5189597696707,,-2.4871211248114125,,
,7119.0,1093.0,4446.0,1266.0,-180.0,1688.0,3589.0,2025-08-20 17:49:11,70.0,,-2.06152519306153,-3.01281865869861,-1.5195240288275,,-2.526592668717185,,
,7118.0,1091.0,4446.0,1267.0,-178.0,1690.0,3590.0,2025-08-20 17:49:12,70.0,,-2.06228112981166,-3.01273260164343,-1.51941281767322,,-2.5824316410709964,,
,7120.0,1091.0,4444.0,1267.0,-177.0,1700.0,3551.0,2025-08-20 17:49:13,70.0,,-2.06032694588357,-3.01276675712201,-1.51916932391132,,-2.6519379688319726,,
,7119.0,1091.0,4444.0,1267.0,-178.0,1705.0,3574.0,2025-08-20 17:49:14,70.0,,-2.05964219385086,-3.01277287049633,-1.51876089975929,,-2.7303771907308554,,
,7124.0,1093.0,4447.0,1268.0,-169.0,1690.0,3590.0,2025-08-20 17:49:15,71.0,,-2.0590563979585,-3.0127462673094,-1.51781632592997,,-2.811339179841586,,
,7122.0,1091.0,4446.0,1266.0,-170.0,1679.0,3597.0,2025-08-20 17:49:16,71.0,,-2.0596542179392,-3.01268019912459,-1.51851256752763,,-2.8871955855090508,,
,7126.0,1092.0,4447.0,1266.0,-171.0,1694.0,3588.0,2025-08-20 17:49:17,71.0,,-2.05809244482977,-3.01262829221956,-1.51779467976036,,-2.9496141901290165,,
,7127.0,1092.0,4446.0,1267.0,-185.0,1700.0,3599.0,2025-08-20 17:49:18,72.0,,-2.05787123142409,-3.01263627998362,-1.51808204274863,,-2.9900863328472718,,
,7127.0,1093.0,4449.0,1269.0,-180.0,1725.0,3588.0,2025-08-20 17:49:19,72.0,,-2.05830102630084,-3.01264930924852,-1.51847117788507,,-3.000428357348085,,
,7133.0,1094.0,4452.0,1268.0,-166.0,1720.0,3577.0,2025-08-20 17:49:20,72.0,,-2.05717975755954,-3.01272335339614,-1.51827911949976,,-2.973227471422274,,
,7130.0,1093.0,4449.0,1269.0,-187.0,1722.0,3570.0,2025-08-20 17:49:21,71.0,,-2.05748164000596,-3.01260465195565,-1.51833158246529,,-2.9022131124384574,,
,7130.0,1093.0,4449.0,1269.0,-185.0,1719.0,3570.0,2025-08-20 17:49:22,71.0,,-2.05693535769947,-3.0126666990117,-1.51805674912411,,-2.782544223749095,,
,7133.0,1094.0,4452.0,1269.0,-182.0,1709.0,3587.0,2025-08-20 17:49:23,70.0,,-2.05752699434327,-3.01265850951613,-1.51835840011621,,-2.6110095630054877,,
,7137.0,1094.0,4452.0,1269.0,-171.0,1704.0,3600.0,2025-08-20 17:49:24,70.0,,-2.05749619491716,-3.0126077504319,-1.51793122660303,,-2.3861422709500326,,
,7140.0,1097.0,4454.0,1271.0,-169.0,1710.0,3598.0,2025-08-20 17:49:25,70.0,,-2.05814009175077,-3.01265983394049,-1.51788329419197,,-2.108252129925347,,
,7137.0,1096.0,4453.0,1269.0,-176.0,1711.0,3591.0,2025-08-20 17:49:26,69.0,,-2.05774101836556,-3.01255655046269,-1.51759180682164,,-1.7793804872877126,,
,7139.0,1097.0,4454.0,1271.0,-186.0,1691.0,3581.0,2025-08-20 17:49:27,69.0,,-2.05759372956845,-3.01256245852523,-1.51876747090489,,-1.4031852170640378,,
,7142.0,1099.0,4456.0,1270.0,-170.0,1656.0,3576.0,2025-08-20 17:49:28,69.0,,-2.05772359309751,-3.01249735606225,-1.51829524670411,,-0.9847673390246097,,
,7143.0,1097.0,4456.0,1271.0,-175.0,1661.0,3582.0,2025-08-20 17:49:29,70.0,,-2.05723651916845,-3.01263576341562,-1.51740011499541,,-0.5304567362662126,,
,7147.0,1096.0,4455.0,1268.0,-164.0,1680.0,3586.0,2025-08-20 17:49:30,69.0,,-2.05661658032063,-3.01262488861624,-1.51784319445252,,-0.04758015862553384,,
,7145.0,1096.0,4455.0,1271.0,-183.0,1703.0,3590.0,2025-08-20 17:49:31,69.0,,-2.05652483790476,-3.01266170510999,-1.51847230393834,,0.455762054635374,,
,7149.0,1096.0,4457.0,1271.0,-177.0,1696.0,3584.0,2025-08-20 17:49:32,69.0,,-2.05541068206401,-3.0125455406676,-1.51780121974397,,0.970885599732153,,
,7148.0,1099.0,4456.0,1272.0,-175.0,1697.0,3583.0,2025-08-20 17:49:33,68.0,,-2.05679665465656,-3.01254652161674,-1.51750069954431,,1.4886607441160031,,
,7152.0,1098.0,4455.0,1269.0,-189.0,1683.0,3574.0,2025-08-20 17:49:34,68.0,,-2.0562873640712,-3.01270174128337,-1.51855159003134,,1.9995956181053463,,
,7151.0,1099.0,4458.0,1271.0,-182.0,1698.0,3580.0,2025-08-20 17:49:35,68.0,,-2.05635986708113,-3.01263506528137,-1.51737029692737,,2.493877216709899,,
,7157.0,1099.0,4462.0,1271.0,-171.0,1702.0,3590.0,2025-08-20 17:49:36,68.0,,-2.05631455371083,-3.01255037956102,-1.51735726295873,,2.9614001365230176,,
2025-08-20 17:47:30,7155.0,1098.0,4461.0,1274.0,-169.0,1681.0,3596.0,2025-08-20 17:49:37,69.0,2025/08/20 05:47:30 PM,-2.05569594038716,-3.01259471893888,-1.5183036986202,,3.3918249365731024,,
,7158.0,1100.0,4462.0,1273.0,-178.0,1685.0,3600.0,2025-08-20 17:49:38,69.0,,-2.05508059370253,-3.01265229490439,-1.51741316583837,,3.774710099677239,,
,7159.0,1099.0,4464.0,1272.0,-177.0,1689.0,3579.0,2025-08-20 17:49:39,69.0,,-2.05496527920006,-3.01258154036621,-1.51725845654228,,4.099752139750813,,
,7163.0,1101.0,4465.0,1274.0,-197.0,1718.0,3581.0,2025-08-20 17:49:40,69.0,,-2.05544507803247,-3.01253475233104,-1.51823684332668,,4.357149337592781,,
,7163.0,1102.0,4467.0,1275.0,-183.0,1705.0,3582.0,2025-08-20 17:49:41,69.0,,-2.05465517749722,-3.01260285668137,-1.51792107297791,,4.538080311793092,,
,7165.0,1101.0,4465.0,1271.0,-197.0,1699.0,3589.0,2025-08-20 17:49:42,69.0,,-2.05423363169938,-3.01258893562461,-1.51724016531618,,4.635264224438187,,
,7166.0,1099.0,4465.0,1272.0,-190.0,1689.0,3576.0,2025-08-20 17:49:43,68.0,,-2.05363169954094,-3.01249520728679,-1.51664976294985,,4.643549257553066,,
,7169.0,1103.0,4467.0,1274.0,-185.0,1682.0,3595.0,2025-08-20 17:49:44,68.0,,-2.05389478787564,-3.01262426825753,-1.51765884476774,,4.5604632703339565,,
,7170.0,1102.0,4465.0,1274.0,-174.0,1695.0,3583.0,2025-08-20 17:49:45,68.0,,-2.05349109708874,-3.01252333061815,-1.51690452437707,,4.386657265275075,,
,7172.0,1101.0,4465.0,1273.0,-183.0,1691.0,3566.0,2025-08-20 17:49:46,68.0,,-2.05289927095744,-3.01256231147517,-1.51654649437067,,4.126179117786929,,
,7171.0,1102.0,4469.0,1274.0,-181.0,1712.0,3573.0,2025-08-20 17:49:47,69.0,,-2.05278137498411,-3.01252357060549,-1.51718474925255,,3.786530938666281,,
,7176.0,1102.0,4471.0,1276.0,-160.0,1704.0,3588.0,2025-08-20 17:49:48,69.0,,-2.05341197239053,-3.0124890639624,-1.51673045910803,,3.378485706364658,,
,7176.0,1105.0,4472.0,1277.0,-167.0,1703.0,3604.0,2025-08-20 17:49:49,69.0,,-2.05251251937791,-3.01250026161656,-1.51663573643803,,2.9156636101309,,
,7179.0,1104.0,4469.0,1275.0,-168.0,1695.0,3605.0,2025-08-20 17:49:50,70.0,,-2.05304945011775,-3.01260131822159,-1.51640844764604,,2.413892089437812,,
,7178.0,1102.0,4470.0,1276.0,-174.0,1714.0,3595.0,2025-08-20 17:49:51,70.0,,-2.05347697498893,-3.01249403645395,-1.51724609664742,,1.8903931002136454,,
,7183.0,1103.0,4472.0,1275.0,-173.0,1696.0,3583.0,2025-08-20 17:49:52,70.0,,-2.05248631162825,-3.01248559527621,-1.51729572083375,,1.3628554939998674,,
,7184.0,1106.0,4472.0,1274.0,-187.0,1696.0,3580.0,2025-08-20 17:49:53,71.0,,-2.05216423054736,-3.01255200419686,-1.51667759770743,,0.8484596677000749,,
,7186.0,1106.0,4474.0,1277.0,-182.0,1702.0,3580.0,2025-08-20 17:49:54,71.0,,-2.052631089541,-3.01259288570868,-1.51677693926228,,0.36292637744773476,,
,7187.0,1106.0,4472.0,1277.0,-171.0,1700.0,3576.0,2025-08-20 17:49:55,71.0,,-2.05305292644573,-3.01254779003148,-1.51761711637387,,-0.08033820586173629,,
,7191.0,1108.0,4474.0,1277.0,-175.0,1703.0,3573.0,2025-08-20 17:49:56,72.0,,-2.05296410576765,-3.01255713181624,-1.51699666481929,,-0.4709345241106198,,
,7190.0,1106.0,4477.0,1278.0,-168.0,1685.0,3577.0,2025-08-20 17:49:57,72.0,,-2.05426617334799,-3.01259940363374,-1.51693172933405,,-0.8019443417691038,,
,7194.0,1109.0,4478.0,1278.0,-185.0,1684.0,3578.0,2025-08-20 17:49:58,72.0,,-2.05420100955642,-3.01259024273496,-1.5169000987923,,-1.0701527981229697,,
,7198.0,1105.0,4475.0,1277.0,-175.0,1719.0,3583.0,2025-08-20 17:49:59,72.0,,-2.05394423820861,-3.01250812199629,-1.51706657539105,,-1.276005963917208,,
,7199.0,1105.0,4478.0,1277.0,-172.0,1706.0,3592.0,2025-08-20 17:50:00,73.0,,-2.05332618669325,-3.01254190264712,-1.51723313465952,,-1.4233162201971963,,
,7202.0,1109.0,4480.0,1280.0,-162.0,1677.0,3582.0,2025-08-20 17:50:01,73.0,,-2.05305410282724,-3.01254603256244,-1.51717446943752,,-1.518749018761158,,
,7203.0,1108.0,4478.0,1280.0,-167.0,1683.0,3582.0,2025-08-20 17:50:02,72.0,,-2.05391772558727,-3.01247537645144,-1.51716895952772,,-1.5711406770859049,,
,7205.0,1107.0,4480.0,1280.0,-183.0,1700.0,3581.0,2025-08-20 17:50:03,72.0,,-2.05349256415047,-3.01244162201174,-1.51759606386853,,-1.5907069953352038,,
,7206.0,1110.0,4479.0,1281.0,-179.0,1701.0,3580.0,2025-08-20 17:50:04,71.0,,-2.05349666160635,-3.01255983558813,-1.51690026214721,,-1.5882067503145754,,
,7210.0,1108.0,4483.0,1280.0,-180.0,1700.0,3578.0,2025-08-20 17:50:05,71.0,,-2.05346448319241,-3.01264050018021,-1.5164280457153,,-1.5741230720212507,,
,7210.0,1110.0,4482.0,1279.0,-171.0,1680.0,3582.0,2025-08-20 17:50:06,70.0,,-2.05320817930988,-3.01250990079209,-1.51641187115157,,-1.5579202521384992,,
,7207.0,1109.0,4484.0,1281.0,-172.0,1692.0,3571.0,2025-08-20 17:50:07,70.0,,-2.05399602079076,-3.01253549999733,-1.51697565737159,,-1.547424865128408,,
,7206.0,1107.0,4482.0,1283.0,-179.0,1687.0,3579.0,2025-08-20 17:50:08,70.0,,-2.0548934367203,-3.01266573192603,-1.51743369952118,,-1.5483694060660638,,
,7206.0,1108.0,4484.0,1278.0,-179.0,1686.0,3587.0,2025-08-20 17:50:09,70.0,,-2.05536171403688,-3.01261076322849,-1.51720152927822,,-1.5641248765556903,,
,7202.0,1109.0,4485.0,1279.0,-179.0,1714.0,3572.0,2025-08-20 17:50:10,70.0,,-2.05593888817129,-3.01270368194216,-1.51684917461149,,-1.5956363674130707,,
,7199.0,1110.0,4483.0,1277.0,-191.0,1708.0,3583.0,2025-08-20 17:50:11,71.0,,-2.05707808565427,-3.01265938500731,-1.51787492712103,,-1.6415627852041592,,
,7195.0,1107.0,4480.0,1277.0,-190.0,1705.0,3599.0,2025-08-20 17:50:12,71.0,,-2.05870312986483,-3.01258600380858,-1.51883206259746,,-1.6986082805432323,,
,7190.0,1108.0,4481.0,1274.0,-193.0,1693.0,3590.0,2025-08-20 17:50:13,71.0,,-2.06132773057094,-3.01273751524508,-1.51868887205322,,-1.7620184819501932,,
,7187.0,1107.0,4480.0,1273.0,-191.0,1702.0,3573.0,2025-08-20 17:50:14,71.0,,-2.06177423148613,-3.01269906597404,-1.51932944484731,,-1.8261995497796437,,
,7182.0,1102.0,4480.0,1273.0,-176.0,1686.0,3575.0,2025-08-20 17:50:15,71.0,,-2.06390943446085,-3.01284035822819,-1.51955886248653,,-1.885403589321001,,
,7176.0,1102.0,4477.0,1271.0,-170.0,1704.0,3581.0,2025-08-20 17:50:16,71.0,,-2.0655894690982,-3.01288685765173,-1.51936946040669,,-1.934412831301209,,
,7174.0,1103.0,4478.0,1270.0,-176.0,1720.0,3575.0,2025-08-20 17:50:17,71.0,,-2.06617291982821,-3.01299067617426,-1.51960016535842,,-1.9691508206785677,,
,7173.0,1103.0,4478.0,1268.0,-171.0,1703.0,3587.0,2025-08-20 17:50:18,71.0,,-2.0676967444854,-3.01294380870027,-1.51985166825741,,-1.9871542415387338,,
,7169.0,1103.0,4475.0,1267.0,-171.0,1707.0,3581.0,2025-08-20 17:50:19,71.0,,-2.06802452017546,-3.01299017892854,-1.52037490042236,,-1.987853761894951,,
,7167.0,1101.0,4475.0,1265.0,-177.0,1718.0,3580.0,2025-08-20 17:50:20,71.0,,-2.06743023017398,-3.01307515105167,-1.52003126198234,,-1.9726335484978272,,
,7166.0,1102.0,4473.0,1265.0,-180.0,1718.0,3586.0,2025-08-20 17:50:21,72.0,,-2.06691102957705,-3.01303565095668,-1.52010673960603,,-1.9446630045650866,,
,7165.0,1102.0,4475.0,1266.0,-176.0,1700.0,3583.0,2025-08-20 17:50:22,72.0,,-2.06621965965874,-3.0129737708765,-1.52002874432615,,-1.90851751669037,,
,7164.0,1102.0,4475.0,1266.0,-185.0,1703.0,3584.0,2025-08-20 17:50:23,72.0,,-2.0656393412115,-3.01291421740848,-1.52057984478278,,-1.869625331747092,,
,7163.0,1101.0,4473.0,1266.0,-183.0,1697.0,3584.0,2025-08-20 17:50:24,72.0,,-2.06388730630966,-3.01292074183466,-1.51900341833627,,-1.8335936829020674,,
,7162.0,1103.0,4474.0,1265.0,-177.0,1685.0,3580.0,2025-08-20 17:50:25,73.0,,-2.06390447731605,-3.01288164887319,-1.51892052909896,,-1.8054780382517026,,
,7160.0,1100.0,4474.0,1267.0,-177.0,1695.0,3587.0,2025-08-20 17:50:26,72.0,,-2.06295584454,-3.01287924164077,-1.51888852773352,,-1.7890635384643063,,
,7161.0,1100.0,4473.0,1266.0,-180.0,1687.0,3595.0,2025-08-20 17:50:27,72.0,,-2.06174983508534,-3.01293483200838,-1.51958147891431,,-1.7862275883488739,,
,7160.0,1101.0,4472.0,1266.0,-191.0,1672.0,3592.0,2025-08-20 17:50:28,72.0,,-2.06168464709934,-3.0128539012264,-1.51907877271602,,-1.796447689652853,,
,7161.0,1100.0,4474.0,1264.0,-178.0,1686.0,3582.0,,,,-2.06223611903686,-3.01291517971726,-1.51954494539409,,-1.8165093411452145,,
,7159.0,1101.0,4472.0,1263.0,-173.0,1690.0,3580.0,,,,-2.06129679555597,-3.01283503335795,-1.51944309177877,,-1.8404553605654312,,
,7162.0,1101.0,4474.0,1264.0,-179.0,1686.0,3574.0,,,,-2.06146034425397,-3.01280572348846,-1.51867671048643,,-1.8598003977607176,,
,7160.0,1103.0,4472.0,1265.0,-184.0,1710.0,3556.0,,,,-2.06164741799662,-3.0128880700236,-1.51898891579881,,-1.8640129470757643,,
,7159.0,1101.0,4472.0,1262.0,-188.0,1710.0,3577.0,,,,-2.06119967578271,-3.01286335985379,-1.51936501299059,,-1.841242503270889,,
,7161.0,1102.0,4471.0,1263.0,-186.0,1719.0,3586.0,,,,-2.06204369805856,-3.01270282548975,-1.51942117639617,,-1.7792431440933423,,
,7160.0,1104.0,4473.0,1264.0,-190.0,1714.0,3586.0,,,,-2.06254487017991,-3.01278375503091,-1.51968147620493,,-1.666419541591532,,
,7162.0,1105.0,4472.0,1262.0,-193.0,1689.0,3579.0,,,,-2.06292331383543,-3.01288042768003,-1.51955757428536,,-1.492901464544514,,
,7161.0,1104.0,4472.0,1263.0,-196.0,1670.0,3579.0,,,,-2.06228220393558,-3.01289758139341,-1.5198667153945,,-1.2515432251954421,,
,7165.0,1103.0,4472.0,1263.0,-192.0,1689.0,3593.0,,,,-2.06273103925106,-3.01288758904555,-1.51987968815904,,-0.9387488508113532,,
,7164.0,1101.0,4473.0,1261.0,-193.0,1693.0,3579.0,,,,-2.06275993377812,-3.01286237267942,-1.51902933067653,,-0.5550420455496221,,
,7163.0,1105.0,4473.0,1264.0,-196.0,1698.0,3577.0,,,,-2.06274536525936,-3.01288736223401,-1.51951564463965,,-0.10532834852585268,,
,7158.0,1103.0,4473.0,1262.0,-193.0,1682.0,3585.0,,,,-2.06242973821143,-3.01284228222114,-1.5198387520942,,0.40117068944976525,,
,7165.0,1104.0,4472.0,1263.0,-195.0,1697.0,3580.0,,,,-2.06286130015648,-3.01286649829902,-1.51857552719748,,0.9513005551541814,,
,7163.0,1105.0,4473.0,1264.0,-182.0,1707.0,3577.0,,,,-2.06272528072927,-3.01282613880733,-1.51938855360882,,1.528637490988303,,
,7161.0,1104.0,4472.0,1262.0,-178.0,1708.0,3579.0,,,,-2.06121182086957,-3.01279535022027,-1.51924200538065,,2.114377289259805,,
,7160.0,1103.0,4470.0,1261.0,-181.0,1706.0,3583.0,,,,-2.06198030458501,-3.01275139618473,-1.51917697024911,,2.688381479084515,,
,7163.0,1103.0,4475.0,1260.0,-194.0,1717.0,3588.0,,,,-2.06102073167796,-3.0128880478482,-1.51922832702942,,3.230307305612699,,
,7164.0,1105.0,4473.0,1263.0,-186.0,1702.0,3580.0,,,,-2.06123407978396,-3.01275002141166,-1.51912861511626,,3.720746860372308,,
,7164.0,1105.0,4474.0,1262.0,-178.0,1706.0,3586.0,,,,-2.0608815207292,-3.01283906883198,-1.51968176657846,,4.142303169068917,,
,7162.0,1104.0,4472.0,1262.0,-195.0,1701.0,3593.0,,,,-2.06123241091453,-3.01268532156866,-1.51905566005564,,4.480535915973994,,
,7161.0,1103.0,4471.0,1261.0,-196.0,1706.0,3580.0,,,,-2.06110764754401,-3.01286756942751,-1.51881775966472,,4.7247163789654465,,
,7162.0,1104.0,4474.0,1264.0,-197.0,1708.0,3567.0,,,,-2.06192758778022,-3.01274239790335,-1.51927086128567,,4.868340551075597,,
,7164.0,1106.0,4474.0,1261.0,-192.0,1701.0,3572.0,,,,-2.06304042074288,-3.01282442321333,-1.51963986845081,,4.909362639982273,,
,7163.0,1103.0,4472.0,1261.0,-173.0,1676.0,3584.0,,,,-2.06187202296387,-3.01292756994952,-1.51980328669835,,4.850129667979214,,
,7163.0,1102.0,4472.0,1260.0,-181.0,1687.0,3584.0,,,,-2.06169443780807,-3.01281563769896,-1.51959864167389,,4.6970222233852486,,
,7163.0,1105.0,4473.0,1261.0,-179.0,1675.0,3584.0,,,,-2.06181764850327,-3.01283789173279,-1.51996703508455,,4.45983466619038,,
,7166.0,1107.0,4475.0,1260.0,-184.0,1671.0,3587.0,,,,-2.0620219833071,-3.01286708698844,-1.51924026370714,,4.150955560857131,,
,7163.0,1104.0,4468.0,1262.0,-186.0,1729.0,3576.0,,,,-2.06073003058751,-3.01292352982764,-1.51976889526572,,3.7844296299008664,,
,7162.0,1102.0,4470.0,1258.0,-189.0,1718.0,3592.0,,,,-2.06089035304609,-3.01277603482755,-1.51960232724329,,3.3749913188234673,,
,7165.0,1106.0,4469.0,1260.0,-195.0,1711.0,3593.0,,,,-2.06102843770727,-3.01297451147896,-1.5184719702109,,2.937156017496669,,
,7165.0,1104.0,4470.0,1258.0,-194.0,1717.0,3576.0,,,,-2.06019978175156,-3.01276673230391,-1.51923206790471,,2.4844406148083475,,
,7168.0,1105.0,4471.0,1262.0,-184.0,1690.0,3581.0,,,,-2.06008963950457,-3.01284183686407,-1.51915787305318,,2.0287646870791867,,
,7165.0,1107.0,4473.0,1258.0,-184.0,1704.0,3573.0,,,,-2.06001395633629,-3.01284602578907,-1.51885007495955,,1.5800612837616754,,
,7170.0,1105.0,4473.0,1263.0,-179.0,1684.0,3586.0,,,,-2.05953830728822,-3.01277544399346,-1.51819569037263,,1.146104643646762,,
,7172.0,1107.0,4473.0,1261.0,-204.0,1686.0,3590.0,,,,-2.05939475146592,-3.01274263831498,-1.51832617144302,,0.7325425753668459,,
,7171.0,1108.0,4473.0,1261.0,-206.0,1692.0,3582.0,,,,-2.05960481063886,-3.01288575746915,-1.51950805349757,,0.34310429382540625,,
,7173.0,1106.0,4472.0,1261.0,-191.0,1705.0,3585.0,,,,-2.05979961129151,-3.01287480566069,-1.51922525233393,,-0.020059213933381333,,
,7172.0,1105.0,4473.0,1262.0,-195.0,1700.0,3595.0,,,,-2.05918169108158,-3.01281556504452,-1.51948217390919,,-0.35595490167575616,,
,7178.0,1108.0,4474.0,1263.0,-188.0,1697.0,3571.0,,,,-2.05917343111805,-3.01287746089469,-1.5194508900331,,-0.6643047742822548,,
,7176.0,1109.0,4476.0,1262.0,-170.0,1708.0,3570.0,,,,-2.05885939869382,-3.01273947888243,-1.51953546365597,,-0.9451367655949428,,
,7177.0,1106.0,4475.0,1261.0,-215.0,1666.0,3581.0,,,,-2.05872837434712,-3.01266855100255,-1.51911110644579,,-1.1984589722071135,,
,7182.0,1109.0,4477.0,1263.0,-244.0,1720.0,3595.0,,,,-2.05803918274778,-3.01285648883323,-1.51908021898127,,-1.4240545692706614,,
,7183.0,1110.0,4476.0,1264.0,-177.0,1710.0,3599.0,,,,-2.05805721783278,-3.01278947212489,-1.51923801620734,,-1.6214178276809497,,
,7184.0,1109.0,4476.0,1263.0,-158.0,1698.0,3600.0,,,,-2.05837663654025,-3.01275097830994,-1.51931549335216,,-1.7898315660395658,,
,7183.0,1107.0,4477.0,1264.0,-178.0,1731.0,3577.0,,,,-2.05860221213118,-3.01278701594637,-1.51966346979961,,-1.9285655353807618,,
,7186.0,1109.0,4477.0,1264.0,-183.0,1716.0,3586.0,,,,-2.05736758993753,-3.01284885648172,-1.51838034060637,,-2.0371571104160044,,
,7189.0,1110.0,4479.0,1265.0,-186.0,1713.0,3592.0,,,,-2.05758466443949,-3.01277932949508,-1.51904441762562,,-2.11572390465168,,
,7188.0,1109.0,4478.0,1267.0,-189.0,1697.0,3593.0,,,,-2.05709645408753,-3.01284656632034,-1.51889143544347,,-2.165254810735068,,
,7190.0,1112.0,4479.0,1264.0,-178.0,1688.0,3583.0,,,,-2.05767548701168,-3.01282375424357,-1.518783008563,,-2.1878312879334727,,
,7190.0,1111.0,4478.0,1267.0,-184.0,1683.0,3586.0,,,,-2.05791914069725,-3.0128371230577,-1.51886179040621,,-2.1867421789035424,,
,7195.0,1111.0,4479.0,1268.0,-178.0,1700.0,3579.0,,,,-2.05856947142535,-3.0127908655098,-1.51949128146242,,-2.1664699599187083,,
,7195.0,1112.0,4480.0,1267.0,-187.0,1699.0,3576.0,,,,-2.05896950164752,-3.01277674629259,-1.51988845047081,,-2.132541648397976,,
,7196.0,1111.0,4477.0,1266.0,-194.0,1693.0,3574.0,,,,-2.05917568108929,-3.01280816895999,-1.51879218928118,,-2.091251977355944,,
,7196.0,1110.0,4478.0,1264.0,-195.0,1706.0,3579.0,,,,-2.0597699872144,-3.01282377797907,-1.51845134251432,,-2.04927885454157,,
,7199.0,1110.0,4480.0,1265.0,-194.0,1703.0,3593.0,,,,-2.05976512105787,-3.01278636785993,-1.51876878137806,,-2.0132208954151802,,
,7200.0,1113.0,4484.0,1269.0,-187.0,1699.0,3580.0,,,,-2.05985094420015,-3.01279628131045,-1.51913279457929,,-1.9890936949241873,,
,7202.0,1112.0,4479.0,1266.0,-182.0,1682.0,3581.0,,,,-2.05908894438594,-3.01288401674486,-1.51919767486793,,-1.9818256124157372,,
,7202.0,1111.0,4483.0,1267.0,-167.0,1702.0,3580.0,,,,-2.05977185611509,-3.01283466947937,-1.51906482293199,,-1.9947954844955953,,
,7206.0,1116.0,4484.0,1266.0,-172.0,1714.0,3592.0,,,,-2.05975373954168,-3.01273633130127,-1.5192508705702,,-2.0294539925186044,,
,7209.0,1115.0,4483.0,1268.0,-186.0,1719.0,3593.0,,,,-2.05951386327845,-3.01281361448815,-1.51949450910005,,-2.0850671372682608,,
,7209.0,1114.0,4481.0,1267.0,-188.0,1731.0,3579.0,,,,-2.05993925185506,-3.0128294777257,-1.51993933930742,,-2.1586137468758664,,
,7208.0,1113.0,4483.0,1267.0,-181.0,1732.0,3590.0,,,,-2.06036362356004,-3.01278191523755,-1.5189268155234,,-2.2448583850861623,,
,7209.0,1116.0,4483.0,1268.0,-176.0,1700.0,3556.0,,,,-2.0597834847782,-3.01282179162734,-1.51864664268338,,-2.3366060929298746,,
,7210.0,1117.0,4484.0,1269.0,-176.0,1702.0,3572.0,,,,-2.05840932498253,-3.01287657133361,-1.51961917942933,,-2.425126864282598,,
,7215.0,1116.0,4484.0,1269.0,-182.0,1714.0,3582.0,,,,-2.05851315009256,-3.01285143254257,-1.51857163678207,,-2.5007180866693988,,
,7215.0,1114.0,4486.0,1268.0,-164.0,1682.0,3592.0,,,,-2.05767848213747,-3.01282322866106,-1.51871722555579,,-2.5533562936061407,,
,7217.0,1118.0,4483.0,1269.0,-176.0,1671.0,3592.0,,,,-2.05913052475775,-3.01278950744658,-1.51871115383025,,-2.573379310873441,,
,7219.0,1118.0,4490.0,1270.0,-182.0,1704.0,3585.0,,,,-2.05923257546901,-3.01273010993759,-1.51914490895723,,-2.55213803452102,,
,7223.0,1116.0,4486.0,1271.0,-185.0,1695.0,3578.0,,,,-2.05954229710907,-3.0127470350974,-1.51940177958923,,-2.4825627683349314,,
,7222.0,1117.0,4486.0,1271.0,-177.0,1697.0,3573.0,,,,-2.05966766777122,-3.01278541060076,-1.51873012557476,,-2.359599842475674,,
,7221.0,1117.0,4488.0,1270.0,-176.0,1690.0,3581.0,,,,-2.05879062985646,-3.01275183587673,-1.51894709939556,,-2.1804878591990304,,
,7225.0,1117.0,4487.0,1271.0,-182.0,1691.0,3584.0,,,,-2.05907268613708,-3.01274915861616,-1.51839776399936,,-1.9448580775723194,,
,7228.0,1118.0,4487.0,1271.0,-185.0,1695.0,3587.0,,,,-2.05857358531955,-3.01277573124639,-1.51944366721695,,-1.6546594986920344,,
,7230.0,1117.0,4488.0,1272.0,-173.0,1693.0,3576.0,,,,-2.05826376446509,-3.01277562619208,-1.51886151550923,,-1.3139254185846627,,
,7230.0,1117.0,4490.0,1271.0,-187.0,1701.0,3574.0,,,,-2.05767925642965,-3.0127164366615,-1.52002612640287,,-0.9284135117049505,,
2025-08-20 17:47:31,7237.0,1119.0,4490.0,1274.0,-185.0,1698.0,3583.0,,,2025/08/20 05:47:31 PM,-2.05827883194667,-3.01274865933081,-1.51868173092855,,-0.5051645344629632,,
,7232.0,1120.0,4491.0,1274.0,-180.0,1682.0,3573.0,,,,-2.05874416291495,-3.01277044607807,-1.51858824804053,,-0.05203384433230159,,
,7236.0,1121.0,4492.0,1273.0,-188.0,1702.0,3585.0,,,,-2.05874684825355,-3.01281636407832,-1.51813697826045,,0.42274672615785835,,
,7239.0,1120.0,4493.0,1273.0,-184.0,1704.0,3599.0,,,,-2.0589183088031,-3.01269657091765,-1.51899001877447,,0.9109231053784405,,
,7241.0,1122.0,4495.0,1275.0,-171.0,1678.0,3580.0,,,,-2.05844073533054,-3.01281661049896,-1.51968927099119,,1.4044478777839353,,
,7243.0,1123.0,4493.0,1274.0,-165.0,1682.0,3588.0,,,,-2.05821341823722,-3.01292468512417,-1.51860015983463,,1.895562033602764,,
,7245.0,1122.0,4496.0,1276.0,-185.0,1685.0,3602.0,,,,-2.05837692440415,-3.01280148063894,-1.51918793911663,,2.3767330329467793,,
,7243.0,1121.0,4494.0,1274.0,-185.0,1694.0,3604.0,,,,-2.05839980134355,-3.01276492334,-1.51935163552288,,2.8404800299170057,,
,7240.0,1121.0,4496.0,1273.0,-183.0,1711.0,3597.0,,,,-2.05764128603727,-3.01272195202097,-1.51842719913217,,3.279141595449995,,
,7238.0,1120.0,4493.0,1274.0,-176.0,1721.0,3587.0,,,,-2.05755990432015,-3.01274165304194,-1.51837028631477,,3.6846571730555304,,
,7235.0,1119.0,4494.0,1272.0,-179.0,1691.0,3564.0,,,,-2.05828362763074,-3.01273330257166,-1.51877864713513,,4.048436311418867,,
,7230.0,1119.0,4492.0,1272.0,-191.0,1698.0,3572.0,,,,-2.05698173445062,-3.01283449475769,-1.517661283554,,4.361378173291578,,
,7227.0,1120.0,4493.0,1272.0,-184.0,1689.0,3574.0,,,,-2.05784804672471,-3.01274026704705,-1.51850151120648,,4.6140803825697185,,
,7224.0,1119.0,4491.0,1270.0,-191.0,1695.0,3579.0,,,,-2.05781658289163,-3.0127636064699,-1.51864957237352,,4.797245816831242,,
,7221.0,1118.0,4489.0,1270.0,-189.0,1684.0,3579.0,,,,-2.0575112270739,-3.01274979480581,-1.51802056654077,,4.902263797112852,,
,7213.0,1114.0,4485.0,1266.0,-199.0,1702.0,3583.0,,,,-2.05822814368092,-3.0128300896114,-1.51804989157332,,4.921912728985934,,
,7208.0,1115.0,4484.0,1267.0,-187.0,1688.0,3581.0,,,,-2.0591576631242,-3.01282440811517,-1.51882326408788,,4.851108128880748,,
,7206.0,1112.0,4483.0,1262.0,-180.0,1705.0,3586.0,,,,-2.06083849892318,-3.0128027990216,-1.51902424534391,,4.687606194918833,,
,7199.0,1114.0,4481.0,1264.0,-171.0,1703.0,3587.0,,,,-2.06284251084246,-3.01288703975795,-1.52004559228458,,4.432571085599309,,
,7196.0,1112.0,4480.0,1260.0,-181.0,1681.0,3584.0,,,,-2.06548335265109,-3.01291086797752,-1.51971876775129,,4.0909246616573,,
,7195.0,1112.0,4479.0,1261.0,-182.0,1692.0,3594.0,,,,-2.06709047716099,-3.01295307451285,-1.52078210790374,,3.671419120393807,,
,7194.0,1112.0,4479.0,1262.0,-185.0,1705.0,3599.0,,,,-2.06852577383725,-3.01306762645803,-1.52103588432164,,3.1864022217196624,,
,7188.0,1112.0,4478.0,1261.0,-182.0,1700.0,3579.0,,,,-2.07009116705913,-3.01314103900918,-1.52167301108076,,2.651277310780342,,
,7190.0,1111.0,4474.0,1258.0,-183.0,1707.0,3562.0,,,,-2.07062132818884,-3.01312383589837,-1.52229958381496,,2.083692064154669,,
,7185.0,1112.0,4472.0,1258.0,-182.0,1691.0,3565.0,,,,-2.07033663404794,-3.0130442513703,-1.52137824129106,,1.502517843219954,,
,7185.0,1110.0,4471.0,1258.0,-195.0,1689.0,3580.0,,,,-2.07116875105146,-3.0130726423774,-1.5212055887321,,0.9267036551271248,,
,7182.0,1112.0,4469.0,1258.0,-183.0,1685.0,3585.0,,,,-2.07146698473667,-3.01320487164896,-1.52093963116777,,0.37410314956476237,,
,7182.0,1109.0,4469.0,1257.0,-175.0,1683.0,3591.0,,,,-2.07158737483257,-3.01314943512733,-1.52231287673824,,-0.13962220830982355,,
,7181.0,1108.0,4467.0,1255.0,-178.0,1695.0,3581.0,,,,-2.07139204455001,-3.01312604114823,-1.52192661459268,,-0.6019272374533549,,
,7178.0,1111.0,4468.0,1256.0,-184.0,1716.0,3576.0,,,,-2.07033160806888,-3.01311074580819,-1.52173383000186,,-1.0040555996247789,,
,7179.0,1110.0,4468.0,1256.0,-186.0,1701.0,3582.0,,,,-2.07020118240026,-3.01314131896547,-1.52138152535909,,-1.3414083043847944,,
,7178.0,1110.0,4465.0,1254.0,-192.0,1703.0,3576.0,,,,-2.0677693231054,-3.01307533286124,-1.52058462000362,,-1.6135861875979625,,
,7177.0,1111.0,4468.0,1252.0,-176.0,1669.0,3582.0,,,,-2.06703010282889,-3.01311169078979,-1.52015832474775,,-1.8241146711783807,,
,7174.0,1112.0,4465.0,1254.0,-203.0,1713.0,3588.0,,,,-2.06490514966362,-3.01306322273136,-1.5201357766002,,-1.9798857342417864,,
,7174.0,1110.0,4466.0,1252.0,-195.0,1714.0,3593.0,,,,-2.06467025470027,-3.01301914897185,-1.52016862410581,,-2.0903730205773376,,
,7172.0,1110.0,4461.0,1251.0,-162.0,1673.0,3598.0,,,,-2.06485736025672,-3.01291576772055,-1.52011574856382,,-2.166690477714331,,
,7169.0,1110.0,4460.0,1250.0,-186.0,1674.0,3588.0,,,,-2.06515942860215,-3.01310255722923,-1.5202636355391,,-2.2205726792368443,,
,7170.0,1110.0,4460.0,1252.0,-195.0,1659.0,3592.0,,,,-2.06496054574454,-3.01296174523595,-1.52001254403968,,-2.2633564233302366,,
,7170.0,1112.0,4459.0,1253.0,-202.0,1646.0,3589.0,,,,-2.06621443994118,-3.01291735302343,-1.51968309293444,,-2.305039187765409,,
,7168.0,1110.0,4458.0,1253.0,-206.0,1678.0,3585.0,,,,-2.06643543276754,-3.01290586311256,-1.51978646520267,,-2.3534815817349517,,
,7164.0,1109.0,4456.0,1248.0,-186.0,1692.0,3597.0,,,,-2.06647454625932,-3.01295507914793,-1.52007767773102,,-2.4138089453166702,,
,7166.0,1112.0,4459.0,1254.0,-180.0,1697.0,3589.0,,,,-2.06489302241849,-3.01299768237165,-1.52012871503468,,-2.488052261588628,,
,7168.0,1111.0,4458.0,1252.0,-180.0,1698.0,3593.0,,,,-2.06463569443222,-3.01302996399461,-1.51989784282694,,-2.5750508252624615,,
,7166.0,1111.0,4456.0,1252.0,-190.0,1686.0,3592.0,,,,-2.06409900877854,-3.01290242998916,-1.52018496845093,,-2.6706189005190692,,
,7163.0,1108.0,4452.0,1249.0,-173.0,1693.0,3585.0,,,,-2.06449033434563,-3.01292305383052,-1.52014718813845,,-2.7679566709614583,,
,7168.0,1111.0,4456.0,1249.0,-172.0,1708.0,3591.0,,,,-2.06426696593762,-3.0129288441597,-1.51973337766341,,-2.8582640878991734,,
,7168.0,1112.0,4456.0,1251.0,-177.0,1705.0,3578.0,,,,-2.06408742869279,-3.01285631956191,-1.51960181494536,,-2.931498059379179,,
,7164.0,1111.0,4454.0,1250.0,-179.0,1698.0,3580.0,,,,-2.06439079544205,-3.0129185123377,-1.52022131190526,,-2.9772023581289115,,
,7161.0,1109.0,4453.0,1248.0,-174.0,1710.0,3583.0,,,,-2.06431186541256,-3.01293772371942,-1.52003793624204,,-2.9853375549620322,,
,7162.0,1111.0,4452.0,1248.0,-181.0,1689.0,3577.0,,,,-2.06397455695998,-3.01289762238223,-1.52046233810236,,-2.9470444005741414,,
,7164.0,1114.0,4453.0,1250.0,-183.0,1686.0,3561.0,,,,-2.06291417553558,-3.01285685362031,-1.52002497468578,,-2.8552857790288466,,
,7165.0,1113.0,4453.0,1247.0,-175.0,1690.0,3572.0,,,,-2.06146386994348,-3.01294715235576,-1.5186920798758,,-2.705326994756004,,
,7162.0,1111.0,4452.0,1248.0,-177.0,1702.0,3586.0,,,,-2.06142623279902,-3.0127666311166,-1.51905539322912,,-2.495030076892766,,
,7161.0,1111.0,4449.0,1247.0,-166.0,1654.0,3592.0,,,,-2.06068964678511,-3.01287507918215,-1.51920382292525,,-2.224954189167258,,
,7162.0,1111.0,4450.0,1247.0,-167.0,1657.0,3582.0,,,,-2.05994877686432,-3.01279974014019,-1.51919794935493,,-1.898270490130526,,
,7162.0,1111.0,4450.0,1246.0,-163.0,1670.0,3594.0,,,,-2.05958753082481,-3.01278980239409,-1.51849703051861,,-1.5205150073582685,,
,7159.0,1110.0,4450.0,1246.0,-153.0,1686.0,3584.0,,,,-2.05936533651386,-3.01288719342989,-1.51966533147881,,-1.0992161362169761,,
,7161.0,1110.0,4445.0,1246.0,-171.0,1707.0,3585.0,,,,-2.05951574946932,-3.01291516068742,-1.51891646880888,,-0.6434430018146075,,
,7159.0,1114.0,4450.0,1248.0,-183.0,1708.0,3583.0,,,,-2.05906761092866,-3.01276084735432,-1.518432410695,,-0.16332584895739719,,
,7161.0,1114.0,4448.0,1247.0,-175.0,1695.0,3579.0,,,,-2.05917281186611,-3.01276830950054,-1.51924264850508,,0.3304013019528826,,
,7161.0,1112.0,4447.0,1249.0,-178.0,1687.0,3581.0,,,,-2.05891481305193,-3.01273048010681,-1.5189926528592,,0.826792984416554,,
,7160.0,1108.0,4448.0,1248.0,-177.0,1695.0,3591.0,,,,-2.05853894845451,-3.01276021110454,-1.51908598788347,,1.314990845462281,,
,7160.0,1111.0,4445.0,1248.0,-184.0,1704.0,3587.0,,,,-2.05842990189616,-3.01281273652524,-1.51843999639959,,1.7844190487089318,,
,7164.0,1113.0,4447.0,1248.0,-185.0,1676.0,3590.0,,,,-2.05829317544879,-3.0127907956412,-1.51855012666226,,2.224889292116215,,
,7163.0,1114.0,4446.0,1250.0,-179.0,1652.0,3590.0,,,,-2.05829747449986,-3.01283182226462,-1.51830154035206,,2.626648849791418,,
,7163.0,1113.0,4445.0,1248.0,-170.0,1670.0,3577.0,,,,-2.0573405989974,-3.0127992434591,-1.5189043238401,,2.980418799238289,,
,7164.0,1111.0,4445.0,1247.0,-179.0,1685.0,3581.0,,,,-2.05723809941485,-3.01284707492856,-1.51874462640651,,3.2774720717295907,,
,7167.0,1112.0,4447.0,1247.0,-182.0,1701.0,3578.0,,,,-2.05718658630118,-3.012814707368,-1.51806303891069,,3.5097909614629046,,
,7167.0,1115.0,4447.0,1247.0,-178.0,1710.0,3583.0,,,,-2.05663207813647,-3.01276023758465,-1.5180666985444,,3.6703238113866106,,
,7170.0,1113.0,4444.0,1247.0,-176.0,1716.0,3581.0,,,,-2.05723556086736,-3.01270751792414,-1.51803022869826,,3.7533357379482215,,
,7169.0,1114.0,4447.0,1249.0,-171.0,1688.0,3597.0,,,,-2.05585809558575,-3.01277340621398,-1.51870607489748,,3.7548238596685586,,
,7172.0,1112.0,4446.0,1250.0,-183.0,1690.0,3572.0,,,,-2.05547762488559,-3.01267789856601,-1.51877354966906,,3.6729480192156734,,
,7172.0,1116.0,4446.0,1252.0,-176.0,1685.0,3572.0,,,,-2.05396660571784,-3.01271752178877,-1.51711327530466,,3.5084165744075335,,
,7173.0,1115.0,4444.0,1248.0,-190.0,1714.0,3591.0,,,,-2.05471669781696,-3.01268697269269,-1.51865858544523,,3.2647652666984515,,
,7175.0,1114.0,4445.0,1250.0,-182.0,1699.0,3589.0,,,,-2.05357000316369,-3.01266035151103,-1.51722948508707,,2.9484756319466636,,
,7176.0,1116.0,4443.0,1251.0,-180.0,1694.0,3585.0,,,,-2.05412638746451,-3.01265817757318,-1.51769659645605,,2.568896187295619,,
,7175.0,1115.0,4446.0,1249.0,-187.0,1700.0,3575.0,,,,-2.05309788611405,-3.01269020374465,-1.51685324548413,,2.137951425269445,,
,7177.0,1114.0,4447.0,1250.0,-193.0,1691.0,3580.0,,,,-2.0527084566032,-3.0127556889899,-1.51778591023844,,1.6696465921422219,,
,7180.0,1117.0,4444.0,1249.0,-201.0,1664.0,3588.0,,,,-2.0523923360544,-3.01271271590108,-1.51744474705899,,1.179396997208359,,
,7183.0,1116.0,4446.0,1250.0,-198.0,1694.0,3589.0,,,,-2.05106681178446,-3.01267967995653,-1.51746535601924,,0.6832271804399281,,
,7182.0,1119.0,4448.0,1251.0,-180.0,1697.0,3589.0,,,,-2.05136580195896,-3.01252182466965,-1.51726662899567,,0.19689704484742088,,
,7182.0,1115.0,4446.0,1251.0,-176.0,1683.0,3578.0,,,,-2.05219433733014,-3.01253332807756,-1.5168653502638,,-0.2649807109873992,,
,7185.0,1116.0,4448.0,1252.0,-170.0,1713.0,3565.0,,,,-2.05387422590724,-3.01266199595901,-1.51822170715532,,-0.6897646231674757,,
,7187.0,1118.0,4448.0,1252.0,-176.0,1708.0,3573.0,,,,-2.05340075711036,-3.01270215882352,-1.51812131554228,,-1.0674846897535761,,
,7188.0,1119.0,4450.0,1253.0,-171.0,1699.0,3575.0,,,,-2.05194250195925,-3.01258149192109,-1.51703763423762,,-1.3913615015432936,,
,7188.0,1118.0,4447.0,1253.0,-182.0,1688.0,3589.0,,,,-2.05099874932271,-3.0126514678679,-1.51708674514243,,-1.658101424088973,,
,7190.0,1116.0,4449.0,1250.0,-182.0,1705.0,3599.0,,,,-2.05061326652289,-3.01262759168856,-1.51788752948998,,-1.8679445445664395,,
,7192.0,1119.0,4450.0,1252.0,-190.0,1692.0,3592.0,,,,-2.05073717144394,-3.01254712260744,-1.51726959164854,,-2.0244638338560406,,
,7192.0,1119.0,4450.0,1254.0,-196.0,1661.0,3569.0,,,,-2.05097515761693,-3.01265751011807,-1.51631566531671,,-2.1341346626267423,,
,7196.0,1119.0,4449.0,1254.0,-196.0,1675.0,3573.0,,,,-2.05139902944867,-3.01255836210012,-1.51638864045999,,-2.205711158448895,,
,7193.0,1118.0,4449.0,1254.0,-205.0,1664.0,3585.0,,,,-2.05269630201107,-3.01264597066617,-1.51784036057769,,-2.2494587969432196,,
,7197.0,1120.0,4451.0,1254.0,-184.0,1689.0,3591.0,,,,-2.05348277279008,-3.01268655874102,-1.51757513967808,,-2.27630079095693,,
,7201.0,1120.0,4450.0,1254.0,-178.0,1685.0,3586.0,,,,-2.0535426395857,-3.01263173858218,-1.51803352313664,,-2.296939424841056,,
,7202.0,1120.0,4449.0,1256.0,-185.0,1675.0,3587.0,,,,-2.05336964999426,-3.01256393040855,-1.51768083867431,,-2.321012945337345,,
,7200.0,1121.0,4450.0,1253.0,-194.0,1684.0,3586.0,,,,-2.05412197877397,-3.01255398961412,-1.51760314290966,,-2.356344675358392,,
,7201.0,1118.0,4450.0,1254.0,-181.0,1676.0,3587.0,,,,-2.05393701101857,-3.01260327680962,-1.51796841788763,,-2.408334393859565,,
,7204.0,1119.0,4450.0,1256.0,-185.0,1699.0,3592.0,,,,-2.05365638263557,-3.01258959972178,-1.51694519792391,,-2.47953322788226,,
,7206.0,1124.0,4451.0,1256.0,-201.0,1712.0,3594.0,,,,-2.05384743528092,-3.01257964156772,-1.5169239321382,,-2.5694324681788205,,
,7205.0,1120.0,4451.0,1254.0,-196.0,1669.0,3573.0,,,,-2.05426453877028,-3.01261133010968,-1.51799648818425,,-2.6744836493022968,,
,7209.0,1119.0,4452.0,1255.0,-176.0,1680.0,3585.0,,,,-2.05379890576623,-3.01260763434361,-1.51751244298113,,-2.7883516416558054,,
,7209.0,1123.0,4453.0,1256.0,-189.0,1675.0,3594.0,,,,-2.05384796298697,-3.01263612149846,-1.51796669419249,,-2.902384501912537,,
,7215.0,1125.0,4453.0,1257.0,-188.0,1681.0,3596.0,,,,-2.05413999070954,-3.01261765104637,-1.51686314178023,,-3.0062646097637584,,
,7212.0,1122.0,4451.0,1256.0,-197.0,1713.0,3588.0,,,,-2.05411201237198,-3.0126142386649,-1.51732182338543,,-3.088787877118908,,
,7215.0,1124.0,4455.0,1256.0,-187.0,1692.0,3596.0,,,,-2.05419050206733,-3.01263165701684,-1.51724221993688,,-3.138705122789725,,
,7219.0,1123.0,4451.0,1261.0,-176.0,1682.0,3593.0,,,,-2.05307441159667,-3.01255830318729,-1.51794368484632,,-3.14555474747537,,
,7218.0,1123.0,4454.0,1259.0,-184.0,1691.0,3588.0,,,,-2.05349053716343,-3.01265526591085,-1.51750590510905,,-3.1004189649091467,,
,7219.0,1123.0,4455.0,1260.0,-186.0,1705.0,3584.0,,,,-2.05364370501143,-3.01269659331093,-1.51779341276014,,-2.996545292440682,,
,7221.0,1123.0,4454.0,1258.0,-199.0,1722.0,3575.0,,,,-2.05347663639225,-3.01260448479222,-1.51857754006051,,-2.829788415279061,,
,7224.0,1125.0,4455.0,1260.0,-177.0,1709.0,3588.0,,,,-2.05419208669278,-3.01266967528181,-1.51752770696317,,-2.5988431832169536,,
,7225.0,1126.0,4454.0,1261.0,-168.0,1689.0,3596.0,,,,-2.05289955857806,-3.0127204568068,-1.51754656598935,,-2.3052565108143437,,
,7231.0,1128.0,4461.0,1261.0,-184.0,1675.0,3597.0,,,,-2.0529794541803,-3.01265208112143,-1.51819086145947,,-1.9532238783148386,,
,7231.0,1126.0,4458.0,1260.0,-181.0,1677.0,3596.0,,,,-2.05295257866735,-3.01257246033144,-1.51761848349015,,-1.5491944608834234,,
,7230.0,1128.0,4457.0,1260.0,-169.0,1674.0,3590.0,,,,-2.05339265507982,-3.01265948500408,-1.51736269935524,,-1.101326800620153,,
,7235.0,1125.0,4461.0,1262.0,-184.0,1689.0,3594.0,,,,-2.05279025727809,-3.0126464152608,-1.51706041031681,,-0.6188529279988,,
,7232.0,1128.0,4462.0,1261.0,-185.0,1690.0,3586.0,,,,-2.05278037324663,-3.01254407100439,-1.5173179463808,,-0.11142071343593392,,
,7238.0,1127.0,4459.0,1261.0,-179.0,1706.0,3593.0,,,,-2.05201120340222,-3.01266839621674,-1.51782311691923,,0.4115107208067634,,
,7240.0,1129.0,4461.0,1263.0,-183.0,1655.0,3594.0,,,,-2.05285631576751,-3.0125204040126,-1.51830609823111,,0.9411518809428646,,
,7242.0,1128.0,4463.0,1265.0,-196.0,1677.0,3590.0,,,,-2.05194247877122,-3.01256556813953,-1.51763774379876,,1.4696840935224655,,
,7247.0,1129.0,4464.0,1264.0,-182.0,1698.0,3594.0,,,,-2.05190929186686,-3.01262075156102,-1.51727498364514,,1.9903496566238148,,
,7245.0,1128.0,4463.0,1262.0,-179.0,1698.0,3594.0,,,,-2.05294675472825,-3.01258563835159,-1.51737883282027,,2.4973314552425143,,
,7249.0,1131.0,4466.0,1264.0,-185.0,1713.0,3585.0,,,,-2.05302576881808,-3.01255216632975,-1.51762094698037,,2.985456520813938,,
,7249.0,1128.0,4466.0,1264.0,-183.0,1720.0,3574.0,,,,-2.05448129451387,-3.01260650163168,-1.51844399541284,,3.4497873918766144,,
,7249.0,1130.0,4468.0,1266.0,-180.0,1715.0,3585.0,,,,-2.05545991322799,-3.01258293236802,-1.51705127405007,,3.8851836975042593,,
,7247.0,1129.0,4465.0,1265.0,-182.0,1713.0,3592.0,,,,-2.05692604622544,-3.01274434805778,-1.51835017124028,,4.285920776638319,,
,7243.0,1129.0,4467.0,1265.0,-191.0,1711.0,3597.0,,,,-2.05875046589153,-3.01277728102153,-1.51804569240845,,4.645442711611714,,
,7243.0,1131.0,4465.0,1266.0,-186.0,1689.0,3593.0,,,,-2.06016487233141,-3.01278148490255,-1.51975768427127,,4.956306938452289,,
,7237.0,1130.0,4464.0,1262.0,-187.0,1702.0,3588.0,,,,-2.06142984809984,-3.01288454936395,-1.51940760102481,,5.210350628754796,,
,7233.0,1126.0,4460.0,1262.0,-184.0,1718.0,3570.0,,,,-2.06429621373914,-3.01286738828699,-1.52073192647195,,5.399079111896057,,
2025-08-20 17:47:32,7230.0,1122.0,4458.0,1261.0,-185.0,1672.0,3571.0,,,2025/08/20 05:47:32 PM,-2.06412291296918,-3.01298426240444,-1.51946505997995,,5.514246950709411,,
,7223.0,1125.0,4457.0,1258.0,-176.0,1677.0,3585.0,,,,-2.06536220813501,-3.01295003716752,-1.52064307720826,,5.548575737578827,,
,7219.0,1123.0,4455.0,1257.0,-174.0,1695.0,3588.0,,,,-2.06605420321898,-3.01295069454488,-1.51949621845356,,5.496531774517806,,
,7213.0,1123.0,4452.0,1257.0,-169.0,1715.0,3598.0,,,,-2.06684128971425,-3.01299332841026,-1.52031347869113,,5.355073646649816,,
,7209.0,1122.0,4448.0,1254.0,-170.0,1696.0,3594.0,,,,-2.06731648304422,-3.01295250077494,-1.52032706160217,,5.124275942795431,,
,7208.0,1120.0,4447.0,1255.0,-189.0,1697.0,3567.0,,,,-2.0673459372427,-3.01290701851138,-1.52047509438357,,4.807742274261518,,
,7204.0,1121.0,4448.0,1254.0,-198.0,1704.0,3562.0,,,,-2.06820686947898,-3.01306715264206,-1.52026702723253,,4.412738967146799,,
,7202.0,1124.0,4446.0,1253.0,-190.0,1707.0,3557.0,,,,-2.06767766271716,-3.01299478040013,-1.52030206850807,,3.9500098703327606,,
,7197.0,1118.0,4441.0,1251.0,-164.0,1721.0,3581.0,,,,-2.06776996818559,-3.01295444417137,-1.52023718147885,,3.4332702526272088,,
,7197.0,1119.0,4440.0,1250.0,-189.0,1700.0,3594.0,,,,-2.06657583573378,-3.01299591788573,-1.52051389606408,,2.8784189677772196,,
,7196.0,1119.0,4441.0,1248.0,-195.0,1680.0,3582.0,,,,-2.06602803043443,-3.01299596540766,-1.52060054159255,,2.302545960552674,,
,7196.0,1120.0,4439.0,1250.0,-190.0,1680.0,3598.0,,,,-2.06650210164071,-3.01283809072046,-1.51993775174134,,1.7228391912539758,,
,7192.0,1119.0,4436.0,1249.0,-191.0,1682.0,3597.0,,,,-2.06665993300464,-3.01290160873435,-1.5203987456635,,1.1555057678946794,,
,7193.0,1120.0,4435.0,1250.0,-178.0,1684.0,3588.0,,,,-2.0667182968718,-3.01302167125835,-1.52058014483401,,0.6148154314416162,,
,7191.0,1122.0,4436.0,1249.0,-180.0,1697.0,3584.0,,,,-2.06660747701628,-3.012941565316,-1.51971633999875,,0.11235370478290267,,
,7188.0,1121.0,4436.0,1248.0,-180.0,1690.0,3590.0,,,,-2.0657996962555,-3.01288814237559,-1.52000123810028,,-0.343457593455206,,
,7186.0,1119.0,4432.0,1246.0,-186.0,1701.0,3594.0,,,,-2.06695290396354,-3.01300380892904,-1.51964099936931,,-0.7475476835910786,,
,7186.0,1118.0,4430.0,1245.0,-194.0,1693.0,3591.0,,,,-2.06783708072409,-3.01292149492184,-1.52063891024697,,-1.0980991546601702,,
,7185.0,1117.0,4432.0,1247.0,-193.0,1694.0,3585.0,,,,-2.06809718394346,-3.01303202629401,-1.52079154662538,,-1.3962003814603818,,
,7184.0,1117.0,4427.0,1247.0,-192.0,1700.0,3577.0,,,,-2.06864969152316,-3.01298450989127,-1.52110078683836,,-1.645304934728698,,
,7181.0,1117.0,4424.0,1245.0,-179.0,1722.0,3585.0,,,,-2.0688781518411,-3.01297271221879,-1.52045700934419,,-1.8505690796384893,,
,7180.0,1118.0,4425.0,1247.0,-179.0,1699.0,3593.0,,,,-2.07014416728338,-3.01303619581342,-1.52054255936341,,-2.018144270042898,,
,7181.0,1116.0,4424.0,1245.0,-181.0,1681.0,3590.0,,,,-2.06894200483252,-3.01300154149204,-1.52132476981213,,-2.1544990360232665,,
,7181.0,1118.0,4424.0,1247.0,-189.0,1684.0,3598.0,,,,-2.06886031392754,-3.01297595030446,-1.52045611956875,,-2.2658345945622425,,
,7177.0,1115.0,4421.0,1242.0,-203.0,1659.0,3593.0,,,,-2.0708062037066,-3.01291079394496,-1.52136547874477,,-2.357642176310919,,
,7175.0,1118.0,4421.0,1243.0,-180.0,1679.0,3584.0,,,,-2.07089080834451,-3.01304226705603,-1.52108475868066,,-2.43442911023405,,
,7177.0,1117.0,4420.0,1244.0,-187.0,1681.0,3589.0,,,,-2.07170555491437,-3.01298685007952,-1.52115593300013,,-2.499617130753295,,
,7179.0,1118.0,4420.0,1245.0,-189.0,1683.0,3586.0,,,,-2.07130185918227,-3.0128968475705,-1.52152669210413,,-2.5555926934823545,,
,7177.0,1118.0,4420.0,1244.0,-195.0,1677.0,3587.0,,,,-2.07155525724115,-3.0129868552934,-1.52097084877205,,-2.603868670707233,,
,7176.0,1117.0,4417.0,1243.0,-189.0,1693.0,3583.0,,,,-2.07092940066798,-3.01303403311526,-1.52002111038506,,-2.645303560743798,,
,7176.0,1118.0,4416.0,1242.0,-183.0,1704.0,3587.0,,,,-2.07113764130638,-3.01299731940045,-1.52072485728233,,-2.6803213396519263,,
,7175.0,1116.0,4417.0,1243.0,-186.0,1714.0,3599.0,,,,-2.07142839277048,-3.01305547490233,-1.52085347205473,,-2.709082827591164,,
,7177.0,1118.0,4419.0,1243.0,-175.0,1709.0,3598.0,,,,-2.07103256440868,-3.01287859844103,-1.52030201568912,,-2.731575523927287,,
,7176.0,1114.0,4418.0,1243.0,-180.0,1706.0,3602.0,,,,-2.07028007846617,-3.01295217578789,-1.5205206945983,,-2.747609175722553,,
,7175.0,1118.0,4415.0,1243.0,-193.0,1691.0,3597.0,,,,-2.07024885696023,-3.01291430835544,-1.52139489913736,,-2.756724817807963,,
,7174.0,1117.0,4414.0,1244.0,-195.0,1713.0,3591.0,,,,-2.07074054070352,-3.01290618659949,-1.52040593581363,,-2.7580426182782882,,
,7173.0,1118.0,4413.0,1244.0,-195.0,1709.0,3588.0,,,,-2.07039469284435,-3.01304159615338,-1.52010144099865,,-2.7500865145814704,,
,7174.0,1115.0,4412.0,1241.0,-184.0,1702.0,3591.0,,,,-2.0710125984415,-3.01291255610553,-1.52226138212934,,-2.7306299265243283,,
,7173.0,1117.0,4415.0,1244.0,-178.0,1701.0,3583.0,,,,-2.07174707474587,-3.01303640389203,-1.52105834350917,,-2.6966061328387725,,
,7173.0,1118.0,4411.0,1244.0,-171.0,1691.0,3599.0,,,,-2.07103893765903,-3.01298884844677,-1.52131168662239,,-2.6441195762252527,,
,7171.0,1118.0,4409.0,1243.0,-169.0,1686.0,3602.0,,,,-2.07073160630214,-3.01297803420814,-1.52119386938224,,-2.5685817696333704,,
,7169.0,1114.0,4407.0,1240.0,-184.0,1692.0,3602.0,,,,-2.07178696481934,-3.01301230982484,-1.52085225472757,,-2.4649795261100453,,
,7167.0,1115.0,4408.0,1240.0,-183.0,1679.0,3595.0,,,,-2.07184232763936,-3.01306779299198,-1.5209568328046,,-2.32826592792849,,
,7169.0,1118.0,4411.0,1240.0,-173.0,1680.0,3592.0,,,,-2.07155499527388,-3.01307515616337,-1.52117046874575,,-2.153847591918329,,
,7171.0,1117.0,4409.0,1238.0,-167.0,1668.0,3586.0,,,,-2.0703577917888,-3.01299776107073,-1.52056240725585,,-1.9381269639820897,,
,7170.0,1118.0,4406.0,1240.0,-183.0,1679.0,3564.0,,,,-2.06977092896825,-3.01305069796342,-1.52027174935624,,-1.679047126670158,,
,7169.0,1114.0,4405.0,1240.0,-185.0,1696.0,3587.0,,,,-2.06925463212088,-3.01296175457041,-1.52145627942473,,-1.3765806029173235,,
,7171.0,1118.0,4410.0,1239.0,-176.0,1697.0,3576.0,,,,-2.07002977197245,-3.01308589586506,-1.52077957011952,,-1.033104599629026,,
,7172.0,1119.0,4407.0,1242.0,-185.0,1703.0,3572.0,,,,-2.06918077165546,-3.0128910538026,-1.51999085439129,,-0.6536140716320242,,
,7169.0,1119.0,4405.0,1242.0,-181.0,1699.0,3572.0,,,,-2.06790734638173,-3.0128038775984,-1.52040358710774,,-0.24574003480039813,,
,7172.0,1117.0,4405.0,1240.0,-176.0,1707.0,3569.0,,,,-2.06894086815216,-3.01285999432799,-1.51971155467934,,0.1804394452351248,,
,7173.0,1118.0,4404.0,1243.0,-176.0,1682.0,3585.0,,,,-2.06789226161836,-3.01290423796757,-1.5195119140952,,0.6127883521345285,,
,7176.0,1119.0,4408.0,1244.0,-181.0,1690.0,3589.0,,,,-2.0688194005853,-3.01298771909226,-1.52094146454912,,1.0376779976791477,,
,7174.0,1118.0,4405.0,1242.0,-178.0,1701.0,3591.0,,,,-2.06753665047018,-3.01295275667054,-1.51997732322644,,1.4406918666132598,,
,7176.0,1118.0,4403.0,1240.0,-165.0,1717.0,3593.0,,,,-2.06766371316447,-3.01285653380481,-1.51963149631248,,1.807424235640813,,
,7176.0,1120.0,4406.0,1243.0,-177.0,1706.0,3590.0,,,,-2.06694150848392,-3.01283712177432,-1.52006329429707,,2.1243206173595004,,
,7176.0,1120.0,4406.0,1241.0,-175.0,1701.0,3598.0,,,,-2.06639576542106,-3.01283608627985,-1.52059813235085,,2.3795047158372915,,
,7179.0,1119.0,4406.0,1244.0,-183.0,1706.0,3591.0,,,,-2.06614620937002,-3.01295936686998,-1.52055844058862,,2.563535872901779,,
,7179.0,1119.0,4405.0,1244.0,-177.0,1667.0,3583.0,,,,-2.06593963447343,-3.0128504777322,-1.51946172513414,,2.670042768324178,,
,7180.0,1117.0,4404.0,1244.0,-176.0,1703.0,3586.0,,,,-2.06522500710717,-3.01291794890487,-1.52019324958023,,2.6961833084520137,,
,7181.0,1120.0,4408.0,1243.0,-174.0,1701.0,3585.0,,,,-2.06541624719846,-3.01295795746623,-1.52011444082066,,2.642887420255854,,
,7182.0,1121.0,4405.0,1243.0,-191.0,1697.0,3592.0,,,,-2.06570919982634,-3.01296106506603,-1.52018780788003,,2.5148497292101797,,
,7181.0,1119.0,4404.0,1244.0,-172.0,1698.0,3593.0,,,,-2.06499116104618,-3.01285522030014,-1.52047676143381,,2.32025430179293,,
,7185.0,1121.0,4405.0,1242.0,-173.0,1697.0,3574.0,,,,-2.06455382842718,-3.01284669569598,-1.51882020150811,,2.0702350009976667,,
,7190.0,1122.0,4408.0,1246.0,-174.0,1711.0,3581.0,,,,-2.06349312274891,-3.01278960259687,-1.51928926357163,,1.77810201576846,,
,7188.0,1121.0,4408.0,1246.0,-174.0,1714.0,3574.0,,,,-2.06347130356903,-3.01276443552644,-1.51941339314658,,1.458394197696861,,
,7188.0,1120.0,4405.0,1243.0,-176.0,1717.0,3569.0,,,,-2.06423335221716,-3.01280799907788,-1.52007609364867,,1.1258415758364917,,
,7190.0,1120.0,4406.0,1246.0,-170.0,1714.0,3589.0,,,,-2.06426737068265,-3.01278917320278,-1.51957519575327,,0.7943361279274266,,
,7191.0,1122.0,4405.0,1245.0,-176.0,1694.0,3587.0,,,,-2.0637381504151,-3.01282760700463,-1.51928729184298,,0.47600790061172243,,
,7189.0,1121.0,4408.0,1244.0,-171.0,1689.0,3595.0,,,,-2.06382374065042,-3.01286237079616,-1.51931772129778,,0.18048884830697554,,
,7192.0,1121.0,4405.0,1244.0,-194.0,1709.0,3609.0,,,,-2.06381680022971,-3.01280185522416,-1.52010509664301,,-0.08557728822340192,,
,7194.0,1123.0,4406.0,1245.0,-175.0,1692.0,3587.0,,,,-2.06312041635215,-3.01282023359724,-1.51962931019691,,-0.31874879776774934,,
,7193.0,1124.0,4410.0,1245.0,-175.0,1706.0,3579.0,,,,-2.06409389683292,-3.0128804951403,-1.51959020937976,,-0.5187209948608371,,
,7196.0,1127.0,4409.0,1246.0,-187.0,1699.0,3582.0,,,,-2.06387167430596,-3.01278291671011,-1.51968611605436,,-0.6880045021599109,,
,7198.0,1123.0,4407.0,1246.0,-177.0,1692.0,3589.0,,,,-2.06548477374655,-3.01285269955376,-1.51921612696379,,-0.8313887340869521,,
,7199.0,1122.0,4406.0,1245.0,-171.0,1697.0,3583.0,,,,-2.06623647064613,-3.01274647673287,-1.52028871356567,,-0.9552466998909277,,
,7197.0,1124.0,4409.0,1248.0,-180.0,1691.0,3588.0,,,,-2.06647278179943,-3.0129444788817,-1.51996730335582,,-1.0667458260795515,,
,7201.0,1124.0,4410.0,1250.0,-166.0,1691.0,3590.0,,,,-2.0665877986994,-3.0128721287443,-1.52032059774991,,-1.1730329557054278,,
,7201.0,1125.0,4406.0,1249.0,-170.0,1692.0,3590.0,,,,-2.06598344750162,-3.01282943867107,-1.52016523851233,,-1.280460613025287,,
,7202.0,1123.0,4409.0,1244.0,-162.0,1714.0,3591.0,,,,-2.06649124775513,-3.01277168255786,-1.51924511630468,,-1.3939164291111248,,
,7203.0,1127.0,4411.0,1250.0,-183.0,1714.0,3583.0,,,,-2.06644167254664,-3.01282818430953,-1.51936282405964,,-1.516308421369658,,
,7208.0,1124.0,4411.0,1250.0,-173.0,1706.0,3594.0,,,,-2.06673492457318,-3.01287118958937,-1.51870410399911,,-1.6482455412766888,,
,7210.0,1126.0,4409.0,1248.0,-170.0,1703.0,3587.0,,,,-2.06528369473453,-3.0127968175279,-1.52021851941944,,-1.787935633290794,,
,7209.0,1127.0,4409.0,1248.0,-168.0,1696.0,3589.0,,,,-2.06520132700546,-3.01281395692752,-1.51992650777082,,-1.931302402403837,,
,7208.0,1123.0,4411.0,1248.0,-154.0,1695.0,3592.0,,,,-2.06464291102983,-3.01274571677718,-1.5192673157223,,-2.0723010399441324,,
,7210.0,1126.0,4412.0,1250.0,-169.0,1681.0,3599.0,,,,-2.06598830645921,-3.01279135307939,-1.5195329970267,,-2.2033920873370985,,
,7214.0,1127.0,4414.0,1252.0,-164.0,1676.0,3590.0,,,,-2.06475389787106,-3.0127919579427,-1.5193248964221,,-2.3161189128676636,,
,7215.0,1126.0,4411.0,1251.0,-170.0,1697.0,3583.0,,,,-2.06467018076728,-3.01289097845777,-1.51996601219113,,-2.4017286955719865,,
,7217.0,1127.0,4415.0,1249.0,-175.0,1697.0,3580.0,,,,-2.0644698826118,-3.01279863615619,-1.51933501240591,,-2.4517801778478985,,
,7222.0,1128.0,4414.0,1252.0,-184.0,1684.0,3572.0,,,,-2.06378863566852,-3.01278094617416,-1.51901404477897,,-2.45869120458074,,
,7220.0,1127.0,4416.0,1252.0,-182.0,1668.0,3574.0,,,,-2.06273743819193,-3.01274409264437,-1.51950832746558,,-2.416191801023735,,
,7223.0,1127.0,4414.0,1253.0,-189.0,1695.0,3565.0,,,,-2.06243894452855,-3.01285660123509,-1.51947882100388,,-2.3196615255819464,,
,7224.0,1128.0,4413.0,1251.0,-180.0,1716.0,3568.0,,,,-2.06230961331721,-3.01267320884286,-1.51866379693978,,-2.166341638444102,,
,7225.0,1129.0,4416.0,1252.0,-178.0,1708.0,3578.0,,,,-2.06123491084822,-3.01267814564268,-1.51850810559993,,-1.9554228156801323,,
,7227.0,1128.0,4416.0,1252.0,-178.0,1702.0,3582.0,,,,-2.0605276804438,-3.0127581655697,-1.51837030573208,,-1.6880177858772993,,
,7232.0,1129.0,4417.0,1254.0,-178.0,1706.0,3587.0,,,,-2.0603000565078,-3.01274297496616,-1.51853055395424,,-1.3670357286915313,,
,7229.0,1131.0,4415.0,1254.0,-195.0,1704.0,3598.0,,,,-2.06003979696574,-3.01286349202254,-1.51912743787033,,-0.9969819064332278,,
,7231.0,1132.0,4417.0,1255.0,-182.0,1699.0,3591.0,,,,-2.0594870585857,-3.01262078827495,-1.51750854482109,,-0.5837116348797305,,
,7236.0,1130.0,4417.0,1257.0,-177.0,1702.0,3587.0,,,,-2.05946250347318,-3.01269614184167,-1.51860934937903,,-0.13417133939267403,,
,7234.0,1132.0,4417.0,1255.0,-169.0,1695.0,3586.0,,,,-2.05837039556124,-3.0126819963806,-1.51899040852044,,0.3438404686462414,,
,7237.0,1131.0,4416.0,1254.0,-176.0,1697.0,3590.0,,,,-2.05735970612671,-3.0126616953541,-1.51765126036488,,0.8418643920082198,,
,7240.0,1132.0,4419.0,1255.0,-179.0,1704.0,3584.0,,,,-2.05662758173556,-3.0126395734129,-1.51809965328732,,1.3509063286357876,,
,7245.0,1131.0,4422.0,1258.0,-168.0,1706.0,3595.0,,,,-2.05538650423266,-3.01262321150696,-1.51816920454963,,1.8614974188350466,,
,7244.0,1133.0,4421.0,1255.0,-172.0,1695.0,3593.0,,,,-2.05470195595476,-3.01266002414877,-1.51782746740489,,2.3637055395710367,,
,7242.0,1131.0,4423.0,1256.0,-175.0,1708.0,3581.0,,,,-2.05539146533216,-3.01260503916224,-1.51616868157587,,2.8471339620379994,,
,7248.0,1133.0,4423.0,1257.0,-175.0,1704.0,3596.0,,,,-2.05415262468685,-3.01256299860908,-1.5176345847242,,3.3009542438708515,,
,7250.0,1131.0,4423.0,1259.0,-192.0,1716.0,3600.0,,,,-2.0531522631044,-3.01262644526059,-1.51749440582471,,3.7140213058217713,,
,7253.0,1137.0,4427.0,1258.0,-175.0,1700.0,3599.0,,,,-2.05332915719965,-3.0126724183697,-1.51668973627648,,4.075107848480413,,
,7253.0,1132.0,4422.0,1260.0,-174.0,1684.0,3592.0,,,,-2.05381609066275,-3.01258146697207,-1.51843371208015,,4.373275236898924,,
,7255.0,1135.0,4425.0,1260.0,-185.0,1679.0,3581.0,,,,-2.05475136115267,-3.01271019963722,-1.5179899315906,,4.598373255015533,,
,7258.0,1136.0,4428.0,1262.0,-194.0,1695.0,3590.0,,,,-2.05534809518769,-3.01273195617431,-1.51737372701207,,4.741636417212061,,
,7259.0,1134.0,4427.0,1261.0,-186.0,1704.0,3591.0,,,,-2.05634849004261,-3.01265429359847,-1.51878870204621,,4.796323636755961,,
,7261.0,1135.0,4428.0,1258.0,-175.0,1716.0,3576.0,,,,-2.0580935978009,-3.01264884373682,-1.51916483582088,,4.758333827280387,,
,7261.0,1137.0,4430.0,1262.0,-183.0,1711.0,3586.0,,,,-2.05863435032958,-3.01275318476864,-1.51941306499357,,4.626724482744532,,
,7258.0,1135.0,4429.0,1262.0,-181.0,1714.0,3566.0,,,,-2.05988415527104,-3.0127390942983,-1.51969829013698,,4.404064477213088,,
,7259.0,1135.0,4430.0,1261.0,-184.0,1699.0,3572.0,,,,-2.06092680933155,-3.01287272283852,-1.51943623627966,,4.096565866674965,,
,7256.0,1134.0,4429.0,1259.0,-179.0,1703.0,3588.0,,,,-2.06129428318312,-3.01286318905138,-1.5195028625561,,3.7139604593619935,,
,7256.0,1134.0,4428.0,1260.0,-189.0,1702.0,3582.0,,,,-2.06202704597716,-3.01282514361754,-1.51983727912834,,3.2691123798686323,,
,7253.0,1135.0,4429.0,1260.0,-187.0,1702.0,3586.0,,,,-2.06209630952984,-3.01289756809271,-1.51968415219187,,2.777384517049568,,
,7244.0,1134.0,4428.0,1256.0,-189.0,1708.0,3592.0,,,,-2.06188270319328,-3.01284512324701,-1.51981013370338,,2.2558017288892462,,
,7242.0,1135.0,4426.0,1257.0,-172.0,1708.0,3596.0,,,,-2.06220299041118,-3.01281636928226,-1.52035715499424,,1.7220747580913562,,
,7236.0,1129.0,4425.0,1256.0,-174.0,1691.0,3593.0,,,,-2.06087376427849,-3.01295634531704,-1.51964908243172,,1.1935642056511067,,
,7231.0,1131.0,4423.0,1252.0,-180.0,1705.0,3593.0,,,,-2.06206045037129,-3.0128495405527,-1.51969457929306,,0.6862718037154342,,
,7228.0,1130.0,4423.0,1255.0,-175.0,1709.0,3593.0,,,,-2.06144779747063,-3.01287209743492,-1.52023862013404,,0.21394480391256074,,
,7222.0,1128.0,4415.0,1253.0,-179.0,1717.0,3588.0,,,,-2.06139100520316,-3.01287305103433,-1.51972615022771,,-0.21263231047102255,,
,7218.0,1128.0,4413.0,1251.0,-178.0,1711.0,3591.0,,,,-2.06057088886571,-3.01282866469563,-1.51868687941702,,-0.5861050916899938,,
,7218.0,1128.0,4414.0,1253.0,-175.0,1715.0,3591.0,,,,-2.06041567249486,-3.01282757940411,-1.5193951266622,,-0.9027475892330702,,
,7215.0,1125.0,4412.0,1248.0,-182.0,1715.0,3591.0,,,,-2.06008868868424,-3.0127983402659,-1.51917189074883,,-1.16239108470216,,
2025-08-20 17:47:33,7211.0,1127.0,4411.0,1246.0,-176.0,1718.0,3586.0,,,2025/08/20 05:47:33 PM,-2.05960013279902,-3.01280656696043,-1.51906516384092,,-1.368106176832311,,
,7204.0,1127.0,4406.0,1246.0,-173.0,1698.0,3594.0,,,,-2.0599661288568,-3.01280032428853,-1.51909900277701,,-1.5256800768822125,,
,7206.0,1126.0,4404.0,1248.0,-177.0,1683.0,3597.0,,,,-2.05933281825101,-3.01275392021075,-1.51878463597587,,-1.6429435899051876,,
,7208.0,1125.0,4406.0,1248.0,-166.0,1679.0,3585.0,,,,-2.06040931080973,-3.01284227434765,-1.51902797585807,,-1.729008669888068,,
,7204.0,1125.0,4405.0,1247.0,-171.0,1686.0,3584.0,,,,-2.05995725987489,-3.0127187188187,-1.51869311704227,,-1.793478191613463,,
,7203.0,1126.0,4404.0,1246.0,-158.0,1692.0,3582.0,,,,-2.06169789419648,-3.01274197731314,-1.51961904245662,,-1.845685676515169,,
,7201.0,1126.0,4401.0,1245.0,-169.0,1706.0,3585.0,,,,-2.06143309272298,-3.01284725568649,-1.51903607050311,,-1.8940154078685894,,
,7203.0,1127.0,4403.0,1246.0,-180.0,1703.0,3583.0,,,,-2.06186092220153,-3.01282681351116,-1.51911774900049,,-1.9453438869491886,,
,7203.0,1126.0,4398.0,1245.0,-189.0,1703.0,3576.0,,,,-2.06221316091123,-3.01285526969342,-1.5194833115896,,-2.0046327911632513,,
,7200.0,1123.0,4399.0,1243.0,-185.0,1700.0,3593.0,,,,-2.06328842076893,-3.01279910771628,-1.51953126734602,,-2.0746918916931865,,
,7200.0,1124.0,4397.0,1246.0,-178.0,1693.0,3591.0,,,,-2.06323032639901,-3.01280186602966,-1.5202596530681,,-2.1561177613110503,,
,7199.0,1125.0,4398.0,1243.0,-180.0,1680.0,3596.0,,,,-2.06472701217298,-3.01282611905757,-1.52051942205751,,-2.247400479075405,,
,7199.0,1126.0,4397.0,1245.0,-187.0,1692.0,3592.0,,,,-2.06473221733758,-3.01272386410765,-1.52032676752526,,-2.3451763616516734,,
,7194.0,1125.0,4395.0,1245.0,-177.0,1692.0,3597.0,,,,-2.06499741940946,-3.0128701323416,-1.51942014584469,,-2.444591601844719,,
,7194.0,1123.0,4397.0,1242.0,-187.0,1700.0,3601.0,,,,-2.06551103338476,-3.01285828640765,-1.52033881975958,,-2.5397323564020136,,
,7197.0,1125.0,4394.0,1246.0,-164.0,1688.0,3594.0,,,,-2.06506215730175,-3.01283863959459,-1.51999834523963,,-2.624074173603374,,
,7195.0,1124.0,4395.0,1246.0,-178.0,1677.0,3588.0,,,,-2.06553696450726,-3.01296752970617,-1.51985760949937,,-2.6909088468957223,,
,7196.0,1125.0,4394.0,1244.0,-194.0,1696.0,3582.0,,,,-2.06569524077531,-3.01287435041139,-1.5204301089013,,-2.733718294905616,,
,7193.0,1124.0,4393.0,1240.0,-190.0,1701.0,3568.0,,,,-2.06462915909879,-3.0128779274421,-1.52021521706217,,-2.746479445828579,,
,7194.0,1128.0,4392.0,1244.0,-176.0,1700.0,3593.0,,,,-2.06583174589897,-3.01281023628922,-1.52036224827538,,-2.723897720035708,,
,7194.0,1128.0,4394.0,1246.0,-175.0,1698.0,3591.0,,,,-2.06576021115539,-3.01278005214832,-1.52038551401018,,-2.661577056128691,,
,7195.0,1126.0,4394.0,1246.0,-180.0,1716.0,3586.0,,,,-2.06540044860872,-3.01301518742505,-1.52085240657698,,-2.556140323187823,,
,7195.0,1126.0,4390.0,1243.0,-169.0,1726.0,3579.0,,,,-2.06756563967714,-3.01286976770187,-1.52012271461762,,-2.4053151921115203,,
,7195.0,1126.0,4390.0,1244.0,-184.0,1725.0,3569.0,,,,-2.06761470112604,-3.01295839320291,-1.52038489316862,,-2.2079977656559575,,
,7194.0,1127.0,4393.0,1245.0,-194.0,1714.0,3592.0,,,,-2.0675828340376,-3.01289971498975,-1.52066489143258,,-1.9643011090554197,,
,7194.0,1126.0,4392.0,1246.0,-184.0,1709.0,3592.0,,,,-2.06770870466351,-3.01296102635786,-1.52045704339482,,-1.675590557633004,,
,7189.0,1123.0,4387.0,1240.0,-183.0,1704.0,3584.0,,,,-2.06788414959567,-3.01292996794507,-1.52056291423565,,-1.344504428676586,,
,7190.0,1126.0,4392.0,1243.0,-183.0,1683.0,3592.0,,,,-2.06808383937896,-3.01293147405125,-1.52064985366044,,-0.9749585576443217,,
,7191.0,1126.0,4391.0,1244.0,-170.0,1690.0,3585.0,,,,-2.06843080404873,-3.01297069395314,-1.52058091229684,,-0.5721352316487323,,
,7194.0,1127.0,4389.0,1244.0,-172.0,1691.0,3582.0,,,,-2.0678725790634,-3.01292322014886,-1.52067196392393,,-0.14245933197126437,,
,7191.0,1124.0,4386.0,1243.0,-173.0,1692.0,3586.0,,,,-2.06783415003275,-3.01282796057574,-1.52078304527065,,0.30643602315666096,,
,7190.0,1125.0,4390.0,1243.0,-171.0,1701.0,3591.0,,,,-2.06813760716007,-3.01294965722455,-1.52129166464642,,0.7657571383760833,,
,7190.0,1125.0,4387.0,1244.0,-175.0,1706.0,3583.0,,,,-2.06805149535356,-3.01288850071269,-1.52042479968458,,1.225622583470074,,
,7191.0,1125.0,4386.0,1244.0,-176.0,1700.0,3580.0,,,,-2.06709338977405,-3.0130012694026,-1.52080081243165,,1.675182852776037,,
,7188.0,1126.0,4386.0,1240.0,-169.0,1692.0,3582.0,,,,-2.06741362491647,-3.01295932913896,-1.52014538495619,,2.102814166535094,,
,7187.0,1126.0,4384.0,1241.0,-178.0,1705.0,3586.0,,,,-2.06783166194156,-3.01294908049776,-1.52098374181443,,2.496411646687846,,
,7190.0,1126.0,4387.0,1243.0,-184.0,1713.0,3591.0,,,,-2.06824681735382,-3.01296418209114,-1.52115858789803,,2.843796483908847,,
,7191.0,1127.0,4386.0,1242.0,-180.0,1714.0,3591.0,,,,-2.06718007688459,-3.01288549115891,-1.52119203168697,,3.133234790539311,,
,7186.0,1125.0,4383.0,1240.0,-181.0,1686.0,3579.0,,,,-2.06754047366099,-3.01290665358009,-1.52079739244779,,3.3540462453698043,,
,7188.0,1124.0,4383.0,1242.0,-192.0,1699.0,3580.0,,,,-2.06840111727056,-3.01296965175572,-1.52035502156023,,3.497261909632986,,
,7192.0,1124.0,4382.0,1244.0,-172.0,1706.0,3591.0,,,,-2.06763088155484,-3.01293104602558,-1.52072038255725,,3.556275544615697,,
,7194.0,1126.0,4387.0,1242.0,-178.0,1705.0,3595.0,,,,-2.06719715366205,-3.01301787584794,-1.5214935693153,,3.5274236874404883,,
,7193.0,1124.0,4385.0,1243.0,-173.0,1706.0,3595.0,,,,-2.06782626931519,-3.01292984498141,-1.52140793881968,,3.4104285679643254,,
,7191.0,1125.0,4384.0,1241.0,-180.0,1694.0,3589.0,,,,-2.0685809929373,-3.01292283364826,-1.52099559071142,,3.20864573857766,,
,7193.0,1125.0,4383.0,1244.0,-186.0,1697.0,3592.0,,,,-2.06795320879816,-3.01289722659183,-1.52095838509872,,2.929074495542627,,
,7198.0,1128.0,4386.0,1246.0,-195.0,1714.0,3593.0,,,,-2.0681790789868,-3.01288518225706,-1.52070434919165,,2.5821114447359976,,
,7199.0,1129.0,4387.0,1243.0,-200.0,1717.0,3583.0,,,,-2.06770427471919,-3.01286329452863,-1.52106748888108,,2.181052435463544,,
,7194.0,1129.0,4384.0,1244.0,-177.0,1707.0,3582.0,,,,-2.06763610441662,-3.01293186808751,-1.52036005514681,,1.7413721840038454,,
,7199.0,1127.0,4386.0,1244.0,-186.0,1706.0,3595.0,,,,-2.06708504946746,-3.0128937188569,-1.51996017133612,,1.279831908998191,,
,7199.0,1128.0,4386.0,1247.0,-183.0,1709.0,3585.0,,,,-2.06698686027463,-3.0129639409345,-1.5206455249219,,0.81348197917094,,
,7203.0,1127.0,4386.0,1246.0,-181.0,1705.0,3612.0,,,,-2.06714635047147,-3.0129469156017,-1.52124654541665,,0.3586381080797795,,
,7200.0,1126.0,4384.0,1243.0,-147.0,1718.0,3610.0,,,,-2.0673001535609,-3.01290621189486,-1.52148258015964,,-0.07008519234553799,,
,7205.0,1128.0,4386.0,1245.0,-179.0,1686.0,3615.0,,,,-2.06740250668019,-3.01288768539916,-1.52023404013177,,-0.46060308748721074,,
,7207.0,1129.0,4384.0,1246.0,-229.0,1749.0,3593.0,,,,-2.06741106592458,-3.01286794158889,-1.52076094652399,,-0.8039822375118346,,
,7209.0,1128.0,4385.0,1248.0,-212.0,1760.0,3585.0,,,,-2.06790257328333,-3.0128852558462,-1.52082448357547,,-1.0948082609528305,,
,7209.0,1129.0,4387.0,1249.0,-173.0,1733.0,3576.0,,,,-2.06763339910264,-3.01287907333938,-1.52069330188199,,-1.3312776241715956,,
,7211.0,1128.0,4387.0,1247.0,-178.0,1756.0,3588.0,,,,-2.06765508648427,-3.01276381454565,-1.52072812536851,,-1.515020284592248,,
,7211.0,1130.0,4390.0,1248.0,-176.0,1687.0,3573.0,,,,-2.06709543333542,-3.01291195695047,-1.52000665547913,,-1.650683827146691,,
,7215.0,1131.0,4392.0,1249.0,-175.0,1699.0,3577.0,,,,-2.06786742200433,-3.01294567431354,-1.52126502770598,,-1.745328408327189,,
,7214.0,1128.0,4388.0,1248.0,-167.0,1693.0,3582.0,,,,-2.06869259417375,-3.01294699024799,-1.52031057654348,,-1.807693493520776,,
,7216.0,1131.0,4390.0,1246.0,-171.0,1716.0,3574.0,,,,-2.06803868837666,-3.01294114483799,-1.52067834840525,,-1.8474021672317846,,
,7216.0,1132.0,4389.0,1249.0,-165.0,1720.0,3586.0,,,,-2.0676241980459,-3.01292698500143,-1.52093006895098,,-1.8741673635526126,,
,7220.0,1133.0,4390.0,1249.0,-169.0,1704.0,3592.0,,,,-2.06906410824464,-3.01299902830745,-1.5208815790331,,-1.8970578243932135,,
,7219.0,1128.0,4390.0,1248.0,-174.0,1700.0,3593.0,,,,-2.06857140170657,-3.01297263030669,-1.52108189341094,,-1.9238714323061767,,
,7224.0,1129.0,4391.0,1250.0,-179.0,1711.0,3579.0,,,,-2.06839914331315,-3.01297893880768,-1.52055767172369,,-1.96065139161616,,
,7225.0,1133.0,4390.0,1248.0,-187.0,1718.0,3576.0,,,,-2.06792788174199,-3.0129954825131,-1.52054166632966,,-2.011367934057909,,
,7227.0,1132.0,4392.0,1249.0,-188.0,1699.0,3569.0,,,,-2.0670073538833,-3.01293310580927,-1.520018778814,,-2.0777756770554197,,
,7227.0,1131.0,4392.0,1252.0,-189.0,1682.0,3593.0,,,,-2.06727712291077,-3.01297689650685,-1.52047171482592,,-2.1594447079868515,,
,7227.0,1129.0,4392.0,1251.0,-189.0,1686.0,3593.0,,,,-2.06666000036382,-3.01300947900218,-1.52064820366283,,-2.253951683915704,,
,7230.0,1133.0,4394.0,1251.0,-208.0,1691.0,3579.0,,,,-2.06738598482301,-3.01283250056148,-1.52121427334003,,-2.3572054926658104,,
,7230.0,1134.0,4393.0,1251.0,-177.0,1703.0,3588.0,,,,-2.06753574616137,-3.01292088631007,-1.52030123116149,,-2.463870764941525,,
,7230.0,1132.0,4394.0,1252.0,-174.0,1680.0,3587.0,,,,-2.06736131287633,-3.01288177323356,-1.52063695399317,,-2.5678434983617016,,
,7234.0,1132.0,4393.0,1252.0,-182.0,1699.0,3580.0,,,,-2.06631251879636,-3.01295599472314,-1.52081375804384,,-2.6627290387133113,,
,7232.0,1133.0,4394.0,1253.0,-175.0,1719.0,3582.0,,,,-2.06642710516543,-3.01280067745628,-1.52039729016452,,-2.7422759227566686,,
,7236.0,1134.0,4395.0,1253.0,-181.0,1704.0,3588.0,,,,-2.06555261319163,-3.01291005488818,-1.52028680969483,,-2.8007295758273143,,
,7238.0,1135.0,4398.0,1253.0,-186.0,1709.0,3584.0,,,,-2.06513513382006,-3.01293171302251,-1.52052083992393,,-2.8330849510586837,,
,7238.0,1133.0,4395.0,1253.0,-181.0,1698.0,3577.0,,,,-2.06491635519691,-3.01288060630088,-1.52009193404711,,-2.8352331035032785,,
,7239.0,1135.0,4396.0,1252.0,-173.0,1691.0,3577.0,,,,-2.06508652621371,-3.01285126029219,-1.52020433257315,,-2.804010205333095,,
,7244.0,1137.0,4397.0,1254.0,-178.0,1711.0,3565.0,,,,-2.06549153465764,-3.01290125808165,-1.5205162509514,,-2.737166855564398,,
,7246.0,1135.0,4397.0,1254.0,-180.0,1720.0,3574.0,,,,-2.06578226416374,-3.01301396540995,-1.52066400827595,,-2.6332802087284493,,
,7246.0,1134.0,4398.0,1254.0,-180.0,1718.0,3577.0,,,,-2.06598970608146,-3.01288889310718,-1.5203750110146,,-2.491631774410706,,
,7249.0,1134.0,4398.0,1256.0,-188.0,1718.0,3595.0,,,,-2.06554168960486,-3.01299189861642,-1.52090566358035,,-2.3120708128405543,,
,7249.0,1135.0,4398.0,1257.0,-179.0,1695.0,3588.0,,,,-2.06548285373552,-3.01288708690857,-1.51994060852405,,-2.094878881559774,,
,7250.0,1137.0,4395.0,1254.0,-185.0,1681.0,3591.0,,,,-2.06526982449194,-3.01293894582914,-1.52055785969727,,-1.8406473621349957,,
,7248.0,1134.0,4399.0,1256.0,-178.0,1705.0,3594.0,,,,-2.06457502065064,-3.01296150239091,-1.51978035508937,,-1.5501782999056706,,
,7253.0,1135.0,4399.0,1257.0,-179.0,1695.0,3577.0,,,,-2.06509639366763,-3.01288886484749,-1.5206266969302,,-1.2244199683821824,,
,7254.0,1138.0,4402.0,1257.0,-187.0,1717.0,3598.0,,,,-2.06559079544619,-3.01283167713016,-1.521434201291,,-0.864450941404706,,
,7258.0,1135.0,4401.0,1258.0,-189.0,1721.0,3603.0,,,,-2.06507567042868,-3.01288820136529,-1.52001737809825,,-0.4715274815140644,,
,7257.0,1137.0,4404.0,1258.0,-189.0,1712.0,3581.0,,,,-2.06510316941222,-3.01296068531802,-1.52047351089527,,-0.047205798174224725,,
,7260.0,1138.0,4401.0,1258.0,-190.0,1700.0,3590.0,,,,-2.06422497638476,-3.01280986270101,-1.52022330022098,,0.40645850698064306,,
,7266.0,1140.0,4405.0,1260.0,-183.0,1705.0,3583.0,,,,-2.06419830312534,-3.01272188914484,-1.52001902908395,,0.8866459293823703,,
,7267.0,1138.0,4405.0,1263.0,-186.0,1713.0,3587.0,,,,-2.06263940603648,-3.0129260733999,-1.51994083868998,,1.3894718260290526,,
,7266.0,1140.0,4407.0,1260.0,-185.0,1708.0,3570.0,,,,-2.06262210239649,-3.01288517488029,-1.51929942537158,,1.9096900857201864,,
,7266.0,1138.0,4406.0,1258.0,-182.0,1719.0,3579.0,,,,-2.061509522789,-3.01270566522225,-1.51956911503108,,2.440449985926659,,
,7269.0,1141.0,4407.0,1264.0,-190.0,1718.0,3581.0,,,,-2.06073470643361,-3.01288581526539,-1.51927982279706,,2.9731534603752636,,
,7270.0,1139.0,4410.0,1260.0,-193.0,1716.0,3583.0,,,,-2.0599531125633,-3.01276317573684,-1.51963457129607,,3.4974525793638502,,
,7265.0,1138.0,4405.0,1260.0,-191.0,1709.0,3588.0,,,,-2.06098813425351,-3.01289568671173,-1.5197395547869,,4.0014153413274824,,
,7260.0,1137.0,4406.0,1260.0,-198.0,1697.0,3596.0,,,,-2.06085144225212,-3.0128286589432,-1.51935829806462,,4.471873269070528,,
,7261.0,1138.0,4407.0,1259.0,-195.0,1702.0,3594.0,,,,-2.06197265293008,-3.01290678203591,-1.52002827908392,,4.89494739080528,,
,7258.0,1137.0,4405.0,1258.0,-176.0,1673.0,3603.0,,,,-2.06341658319894,-3.01286688875443,-1.52021803911224,,5.256730623013492,,
,7251.0,1135.0,4402.0,1256.0,-169.0,1667.0,3601.0,,,,-2.06519249841958,-3.01286949593408,-1.52023572034954,,5.544085696268988,,
,7245.0,1135.0,4402.0,1255.0,-190.0,1666.0,3588.0,,,,-2.06740836102675,-3.01293229252144,-1.52056728896962,,5.745500478094154,,
,7238.0,1132.0,4398.0,1255.0,-183.0,1685.0,3589.0,,,,-2.06934674291434,-3.01295754816943,-1.52113416533412,,5.851928873271788,,
,7237.0,1133.0,4397.0,1256.0,-175.0,1696.0,3590.0,,,,-2.07082293569089,-3.0130683208378,-1.52161692646089,,5.857537324563442,,
,7232.0,1132.0,4393.0,1252.0,-174.0,1698.0,3592.0,,,,-2.07293105434377,-3.01320910857276,-1.52222198429378,,5.760276125901875,,
,7226.0,1131.0,4391.0,1251.0,-178.0,1685.0,3583.0,,,,-2.07365870311973,-3.01318255215944,-1.52263164678978,,5.562203109011682,,
,7222.0,1130.0,4388.0,1250.0,-158.0,1681.0,3588.0,,,,-2.07414623334144,-3.01311114143442,-1.52266352708068,,5.2695062377264765,,
,7220.0,1130.0,4388.0,1250.0,-163.0,1694.0,3588.0,,,,-2.0754442391848,-3.01328814666189,-1.5241542241826,,4.892201386789728,,
,7217.0,1130.0,4387.0,1249.0,-162.0,1709.0,3585.0,,,,-2.07600925865249,-3.01332073172586,-1.52276858651743,,4.443519521256147,,
,7214.0,1128.0,4386.0,1247.0,-165.0,1707.0,3583.0,,,,-2.07574670531842,-3.01328963192608,-1.52311850364991,,3.9390375700456532,,
,7212.0,1126.0,4385.0,1248.0,-166.0,1694.0,3587.0,,,,-2.07616542332754,-3.01329006694563,-1.52356008583212,,3.395641169927438,,
,7209.0,1127.0,4382.0,1245.0,-166.0,1689.0,3588.0,,,,-2.07582257696965,-3.0133113343422,-1.52340785739465,,2.83042771521461,,
,7207.0,1125.0,4378.0,1245.0,-174.0,1681.0,3590.0,,,,-2.07529677183586,-3.01321784232725,-1.52302783225648,,2.2596613310604052,,
,7203.0,1125.0,4377.0,1244.0,-184.0,1686.0,3576.0,,,,-2.07424406147956,-3.01323160428447,-1.52239078689531,,1.6978787402545612,,
,7203.0,1126.0,4376.0,1245.0,-170.0,1695.0,3590.0,,,,-2.07422385903021,-3.01323148373672,-1.5230419024597,,1.15722077889311,,
,7206.0,1130.0,4377.0,1244.0,-185.0,1699.0,3586.0,,,,-2.07390868490591,-3.01319778709194,-1.52269795372975,,0.6470336031756933,,
,7203.0,1129.0,4373.0,1244.0,-187.0,1686.0,3584.0,,,,-2.07374473860573,-3.01326140713001,-1.52280281245218,,0.17375104071748954,,
,7201.0,1125.0,4373.0,1243.0,-182.0,1682.0,3576.0,,,,-2.07324975385881,-3.01317705369515,-1.52208075442504,,-0.25896104948989623,,
,7198.0,1124.0,4373.0,1241.0,-209.0,1683.0,3590.0,,,,-2.07425198754408,-3.01325925620261,-1.52229146895653,,-0.6498430852716783,,
,7196.0,1128.0,4371.0,1242.0,-189.0,1649.0,3590.0,,,,-2.07305982669362,-3.01314340016519,-1.52243816665711,,-0.9995258654113115,,
,7197.0,1125.0,4370.0,1240.0,-194.0,1682.0,3599.0,,,,-2.07361219621925,-3.01316091470319,-1.52253586743513,,-1.3099340009245721,,
,7198.0,1125.0,4371.0,1246.0,-177.0,1708.0,3601.0,,,,-2.07368612956777,-3.01316345852122,-1.52289079789939,,-1.5836844867632514,,
,7192.0,1124.0,4368.0,1243.0,-166.0,1691.0,3586.0,,,,-2.07398219127878,-3.01308366341123,-1.5226802540294,,-1.8235508483644483,,
,7194.0,1124.0,4366.0,1241.0,-175.0,1702.0,3590.0,,,,-2.0737123537133,-3.01311964346872,-1.52305384939201,,-2.0320509739041643,,
,7192.0,1125.0,4365.0,1242.0,-170.0,1688.0,3598.0,,,,-2.07478321571047,-3.01318259378248,-1.52276966708628,,-2.2111983906101025,,
,7191.0,1127.0,4365.0,1241.0,-180.0,1666.0,3595.0,,,,-2.07564708760776,-3.01325928145987,-1.52337577608116,,-2.3624336911219537,,
,7190.0,1124.0,4366.0,1242.0,-186.0,1675.0,3595.0,,,,-2.07601366497767,-3.01324167618896,-1.5230651756976,,-2.486727222962401,,
,7189.0,1123.0,4361.0,1242.0,-177.0,1692.0,3589.0,,,,-2.07601599513739,-3.01343473868242,-1.52288082209864,,-2.584819370697291,,
2025-08-20 17:47:34,7190.0,1123.0,4365.0,1239.0,-172.0,1700.0,3598.0,,,2025/08/20 05:47:34 PM,-2.07696719909302,-3.01322874548161,-1.52322807014133,,-2.657545066011455,,
,7189.0,1124.0,4361.0,1242.0,-172.0,1686.0,3588.0,,,,-2.07617653056761,-3.01331795079425,-1.52242735225791,,-2.7061784328011735,,
,7190.0,1124.0,4362.0,1241.0,-174.0,1704.0,3589.0,,,,-2.07589521004729,-3.0132674059883,-1.52319342210383,,-2.7327334206340304,,
,7190.0,1122.0,4360.0,1243.0,-164.0,1700.0,3584.0,,,,-2.07632916164657,-3.01318810915252,-1.52346875628325,,-2.740165750048157,,
,7191.0,1125.0,4362.0,1242.0,-171.0,1685.0,3588.0,,,,-2.07548818421345,-3.01313991471688,-1.52375604051458,,-2.7324374571996293,,
,7190.0,1125.0,4360.0,1244.0,-182.0,1694.0,3583.0,,,,-2.07452215374497,-3.01309717116146,-1.52335512770901,,-2.714424489228601,,
,7188.0,1124.0,4360.0,1240.0,-180.0,1679.0,3592.0,,,,-2.07452348633712,-3.01308915968371,-1.52352356874789,,-2.6916675742594176,,
,7188.0,1124.0,4356.0,1241.0,-183.0,1683.0,3604.0,,,,-2.07294675014744,-3.01319089707891,-1.52188314181349,,-2.6699851094099314,,
,7189.0,1125.0,4357.0,1241.0,-172.0,1695.0,3589.0,,,,-2.07304262881611,-3.01313449193753,-1.52253195085715,,-2.654982623191514,,
,7185.0,1125.0,4356.0,1242.0,-179.0,1703.0,3597.0,,,,-2.07183182856066,-3.01309862304364,-1.5220205598896,,-2.6515053780612106,,
,7184.0,1123.0,4357.0,1241.0,-172.0,1715.0,3603.0,,,,-2.07166431935398,-3.01311565971358,-1.52202851425694,,-2.663088303776356,,
,7184.0,1122.0,4353.0,1240.0,-172.0,1697.0,3602.0,,,,-2.07046248431321,-3.01300540705857,-1.52214453392308,,-2.6914605635069693,,
,7184.0,1123.0,4356.0,1239.0,-182.0,1700.0,3596.0,,,,-2.07142226400233,-3.01315203501864,-1.52151299594603,,-2.7361606340693485,,
,7184.0,1124.0,4356.0,1242.0,-187.0,1692.0,3598.0,,,,-2.07145488792239,-3.01319645563957,-1.52193570138952,,-2.794311640413742,,
,7183.0,1123.0,4355.0,1240.0,-190.0,1690.0,3604.0,,,,-2.07185595835532,-3.01308453112449,-1.52111539215754,,-2.8605954641852915,,
,7183.0,1123.0,4352.0,1240.0,-185.0,1703.0,3602.0,,,,-2.07206665048494,-3.01311102804435,-1.52243267386291,,-2.9274475952391557,,
,7182.0,1121.0,4354.0,1239.0,-187.0,1719.0,3587.0,,,,-2.07168376698503,-3.01311101854868,-1.52166710429487,,-2.985473147069672,,
,7181.0,1125.0,4352.0,1241.0,-186.0,1709.0,3584.0,,,,-2.07195990340679,-3.01308448969318,-1.52242152806306,,-3.024059454863494,,
,7185.0,1122.0,4354.0,1239.0,-179.0,1679.0,3587.0,,,,-2.07163778321408,-3.01315082231943,-1.52171063323668,,-3.0321355041669666,,
,7180.0,1123.0,4350.0,1237.0,-171.0,1705.0,3579.0,,,,-2.07128285781383,-3.013096604951,-1.52212094391853,,-2.9990078328277456,,
,7182.0,1123.0,4351.0,1241.0,-182.0,1694.0,3595.0,,,,-2.07118736799768,-3.01308967537347,-1.52119538126409,,-2.915191051627184,,
,7184.0,1125.0,4351.0,1242.0,-192.0,1718.0,3591.0,,,,-2.06959189276841,-3.01311326891003,-1.52128016689657,,-2.7731510948212095,,
,7185.0,1124.0,4349.0,1241.0,-189.0,1716.0,3589.0,,,,-2.06819832216968,-3.01310101049643,-1.52156528676087,,-2.5678902376752806,,
,7182.0,1123.0,4351.0,1239.0,-178.0,1686.0,3583.0,,,,-2.06801883284766,-3.01307495616901,-1.52077740118824,,-2.2973223742706965,,
,7184.0,1123.0,4351.0,1242.0,-188.0,1673.0,3591.0,,,,-2.06753820616875,-3.01303939793864,-1.52167396442553,,-1.9624119697243805,,
,7184.0,1121.0,4349.0,1240.0,-184.0,1672.0,3595.0,,,,-2.06678216292226,-3.01295794855078,-1.52061024773055,,-1.5670773408221088,,
,7187.0,1123.0,4349.0,1242.0,-186.0,1689.0,3588.0,,,,-2.06679940127643,-3.01305669171514,-1.52093764291168,,-1.1178851469630962,,
,7184.0,1122.0,4348.0,1239.0,-175.0,1715.0,3589.0,,,,-2.06692561066351,-3.01298148954317,-1.52146023414001,,-0.623584697285012,,
,7190.0,1124.0,4349.0,1241.0,-175.0,1710.0,3595.0,,,,-2.06644231726844,-3.01301570733952,-1.52124819017365,,-0.09454480575802997,,
,7190.0,1124.0,4353.0,1244.0,-195.0,1708.0,3572.0,,,,-2.0659253158633,-3.01307206101453,-1.52194330529494,,0.4578394438096801,,
,7190.0,1125.0,4351.0,1241.0,-194.0,1702.0,3573.0,,,,-2.06591923805073,-3.01299876270317,-1.52093772152417,,1.0217076279320843,,
,7193.0,1125.0,4350.0,1241.0,-201.0,1692.0,3579.0,,,,-2.06374192154018,-3.0129056613352,-1.52047500831637,,1.5852130150060266,,
,7194.0,1126.0,4352.0,1241.0,-194.0,1713.0,3575.0,,,,-2.06359093505772,-3.01298837324502,-1.5205764643271,,2.136887772494844,,
,7196.0,1124.0,4354.0,1242.0,-175.0,1712.0,3582.0,,,,-2.06248934191787,-3.01290590894922,-1.52014913362296,,2.6658819117212746,,
,7194.0,1124.0,4352.0,1242.0,-175.0,1698.0,3593.0,,,,-2.06186029876433,-3.0129021414648,-1.52046150734683,,3.1620825978325473,,
,7196.0,1127.0,4353.0,1242.0,-191.0,1713.0,3608.0,,,,-2.06074813045724,-3.01287453953694,-1.520208295019,,3.6161377362683362,,
,7198.0,1125.0,4352.0,1243.0,-190.0,1695.0,3591.0,,,,-2.0603766072896,-3.01288065244271,-1.51916336059098,,4.0194220716643265,,
,7201.0,1126.0,4352.0,1245.0,-182.0,1691.0,3591.0,,,,-2.06071234042336,-3.01285704353179,-1.51911683866836,,4.363993530821832,,
,7201.0,1126.0,4352.0,1244.0,-178.0,1702.0,3589.0,,,,-2.05946743906341,-3.01281448098814,-1.51925454140607,,4.642589473060072,,
,7200.0,1125.0,4351.0,1246.0,-176.0,1685.0,3584.0,,,,-2.06086367502211,-3.01279579405075,-1.51958790374975,,4.848704454187151,,
,7202.0,1124.0,4351.0,1244.0,-183.0,1674.0,3585.0,,,,-2.0611414072109,-3.01277048975651,-1.51983397814761,,4.976772952481588,,
,7205.0,1127.0,4355.0,1245.0,-198.0,1683.0,3588.0,,,,-2.06073148608789,-3.01291175481189,-1.51938353853125,,5.022455505013858,,
,7204.0,1127.0,4354.0,1245.0,-188.0,1692.0,3594.0,,,,-2.05987840422513,-3.01279388182337,-1.51901864642182,,4.983000519306919,,
,7206.0,1128.0,4354.0,1246.0,-175.0,1713.0,3614.0,,,,-2.0595057436425,-3.01281971526694,-1.51975956283216,,4.8576325926360795,,
,7206.0,1126.0,4356.0,1245.0,-177.0,1710.0,3594.0,,,,-2.05977995937706,-3.01275675837956,-1.5193772971008,,4.647905893297438,,
,7208.0,1131.0,4359.0,1246.0,-183.0,1700.0,3589.0,,,,-2.05933290015266,-3.01287355093297,-1.51955052656185,,4.357960076058781,,
,7211.0,1129.0,4356.0,1246.0,-184.0,1700.0,3583.0,,,,-2.05898961207887,-3.01287354868004,-1.51896901758299,,3.9946259922314606,,
,7210.0,1128.0,4356.0,1248.0,-178.0,1704.0,3589.0,,,,-2.05897912079269,-3.01279087243828,-1.5195394115109,,3.5673467995575447,,
,7213.0,1127.0,4357.0,1246.0,-184.0,1714.0,3599.0,,,,-2.05950245028691,-3.01276297754178,-1.51983499472337,,3.087903204013019,,
,7211.0,1128.0,4359.0,1246.0,-176.0,1718.0,3590.0,,,,-2.05986166101341,-3.01287771718197,-1.51944630826451,,2.5699550540857636,,
,7215.0,1129.0,4358.0,1246.0,-180.0,1696.0,3584.0,,,,-2.05902114471344,-3.01276443115181,-1.5189852552357,,2.028431410338029,,
,7220.0,1129.0,4360.0,1250.0,-187.0,1694.0,3582.0,,,,-2.05908835285638,-3.01274957496527,-1.51924453501631,,1.4788150850238844,,
,7217.0,1128.0,4357.0,1248.0,-178.0,1706.0,3591.0,,,,-2.05930514914942,-3.01282218190743,-1.51828573722035,,0.9363750059967569,,
,7220.0,1131.0,4359.0,1248.0,-203.0,1703.0,3595.0,,,,-2.05859753170171,-3.01276758590074,-1.51882091603143,,0.4154017465502508,,
,7222.0,1132.0,4360.0,1248.0,-201.0,1706.0,3604.0,,,,-2.05806883062053,-3.01279005462038,-1.51850068362855,,-0.07150007196057923,,
,7222.0,1131.0,4361.0,1249.0,-192.0,1695.0,3599.0,,,,-2.05822911425954,-3.01271987485498,-1.51885119877346,,-0.5140129352040357,,
,7224.0,1130.0,4360.0,1248.0,-187.0,1682.0,3599.0,,,,-2.05648432631545,-3.01277116302266,-1.51762137729352,,-0.904558443955224,,
,7226.0,1131.0,4360.0,1247.0,-163.0,1692.0,3586.0,,,,-2.05627498228797,-3.01267867972098,-1.51833376995257,,-1.2385680883417471,,
,7227.0,1131.0,4363.0,1250.0,-169.0,1711.0,3594.0,,,,-2.05548585659202,-3.01276989614785,-1.51842021193005,,-1.5145553594552814,,
,7230.0,1129.0,4361.0,1249.0,-171.0,1720.0,3597.0,,,,-2.05575977723284,-3.01270182557717,-1.51809550038455,,-1.7339889803420871,,
,7231.0,1132.0,4362.0,1249.0,-173.0,1705.0,3588.0,,,,-2.05494744410877,-3.01259533865605,-1.51822130253948,,-1.9009840437313765,,
,7231.0,1133.0,4364.0,1251.0,-187.0,1701.0,3590.0,,,,-2.05463777448209,-3.01266282189846,-1.51739435371855,,-2.021842008457796,,
,7234.0,1134.0,4365.0,1252.0,-185.0,1679.0,3593.0,,,,-2.0542234729852,-3.01267367651288,-1.5185343222792,,-2.1044803348050465,,
,7235.0,1134.0,4365.0,1254.0,-180.0,1669.0,3598.0,,,,-2.05384532490256,-3.01279091824426,-1.51807107072933,,-2.157797761120175,,
,7236.0,1133.0,4364.0,1253.0,-187.0,1679.0,3594.0,,,,-2.05457420177865,-3.01273184528252,-1.51744020566288,,-2.191022271717722,,
,7238.0,1133.0,4364.0,1252.0,-179.0,1685.0,3595.0,,,,-2.05537829506116,-3.01263943901211,-1.51870812025546,,-2.213086348358484,,
,7241.0,1133.0,4370.0,1253.0,-161.0,1673.0,3592.0,,,,-2.05498970526303,-3.0126887652077,-1.51865364711578,,-2.232068916724922,,
,7245.0,1133.0,4367.0,1255.0,-160.0,1678.0,3597.0,,,,-2.05452989886638,-3.01263094893214,-1.51887793852906,,-2.254736350763486,,
,7243.0,1134.0,4366.0,1254.0,-161.0,1698.0,3596.0,,,,-2.05404161001558,-3.01265729271424,-1.51746894020573,,-2.2862067505496624,,
,7243.0,1134.0,4369.0,1256.0,-163.0,1706.0,3596.0,,,,-2.05359591791259,-3.01269989024907,-1.51755549630592,,-2.329752955336417,,
,7246.0,1135.0,4370.0,1256.0,-187.0,1709.0,3586.0,,,,-2.05403754560397,-3.01265463853632,-1.51783623435763,,-2.3867505021092987,,
,7250.0,1132.0,4370.0,1256.0,-178.0,1712.0,3581.0,,,,-2.05381093481684,-3.01258655755301,-1.518305120369,,-2.4567667685007732,,
,7252.0,1136.0,4370.0,1256.0,-181.0,1675.0,3561.0,,,,-2.05405884507178,-3.01264607964239,-1.51740353261187,,-2.5377765799420153,,
,7253.0,1136.0,4369.0,1254.0,-178.0,1688.0,3596.0,,,,-2.05396469048593,-3.01253802972833,-1.51700747777455,,-2.6264778608784214,,
,7256.0,1137.0,4375.0,1258.0,-175.0,1695.0,3582.0,,,,-2.05308431356426,-3.01259020608576,-1.51822621870866,,-2.718669890410022,,
,7258.0,1138.0,4374.0,1259.0,-176.0,1678.0,3604.0,,,,-2.0533573849252,-3.01267968810986,-1.5176108327324,,-2.809649146749807,,
,7257.0,1139.0,4374.0,1256.0,-193.0,1691.0,3597.0,,,,-2.05446897290935,-3.01272451549399,-1.51821921046191,,-2.894576671267071,,
,7259.0,1137.0,4376.0,1257.0,-192.0,1708.0,3590.0,,,,-2.05476919141339,-3.01259665034406,-1.51788503071078,,-2.9687778582506525,,
,7263.0,1138.0,4376.0,1257.0,-172.0,1694.0,3600.0,,,,-2.05424723187728,-3.01264843797536,-1.5174676775449,,-3.0279493024227535,,
,7261.0,1139.0,4375.0,1259.0,-175.0,1673.0,3589.0,,,,-2.05557840076652,-3.01260931753217,-1.51836751822416,,-3.0682643389322255,,
,7268.0,1139.0,4375.0,1261.0,-184.0,1685.0,3593.0,,,,-2.05630851841574,-3.01273061866747,-1.51814792172755,,-3.086385320941165,,
,7268.0,1137.0,4379.0,1260.0,-176.0,1699.0,3585.0,,,,-2.0587673981934,-3.01273621162682,-1.51898121838263,,-3.0794036855280447,,
,7269.0,1138.0,4377.0,1259.0,-181.0,1706.0,3577.0,,,,-2.05971221974717,-3.01279634383783,-1.51937610522327,,-3.044736985266249,,
,7271.0,1139.0,4380.0,1261.0,-183.0,1689.0,3582.0,,,,-2.06166841864536,-3.01273870419337,-1.51947367527409,,-2.9800147883705463,,
,7274.0,1140.0,4381.0,1264.0,-190.0,1693.0,3586.0,,,,-2.0640429202494,-3.01303307269968,-1.52017493960313,,-2.8829829006919203,,
,7273.0,1138.0,4381.0,1261.0,-184.0,1701.0,3574.0,,,,-2.06541049540897,-3.0130719668802,-1.52025254863188,,-2.751448790809947,,
,7270.0,1141.0,4382.0,1262.0,-174.0,1695.0,3573.0,,,,-2.06662474087825,-3.01290546944416,-1.5207681270894,,-2.583282181712496,,
,7269.0,1140.0,4384.0,1261.0,-178.0,1692.0,3583.0,,,,-2.06779087539797,-3.01297000040144,-1.52060947237344,,-2.3764755550352,,
,7267.0,1136.0,4381.0,1260.0,-177.0,1679.0,3585.0,,,,-2.06806108681246,-3.01302724558541,-1.52097036386705,,-2.129261547000064,,
,7258.0,1136.0,4379.0,1260.0,-183.0,1683.0,3577.0,,,,-2.06834856542033,-3.01298948203102,-1.5209496597383,,-1.8402788893229332,,
,7256.0,1136.0,4380.0,1257.0,-193.0,1674.0,3576.0,,,,-2.06827833900544,-3.01307153595053,-1.52061955617055,,-1.5087756258708644,,
,7252.0,1135.0,4378.0,1257.0,-193.0,1691.0,3578.0,,,,-2.06882700405859,-3.01309100746608,-1.5211995038278,,-1.1348368042750803,,
,7245.0,1135.0,4375.0,1257.0,-182.0,1686.0,3577.0,,,,-2.06804823425444,-3.01296056506418,-1.52122168163122,,-0.7196222171848878,,
,7239.0,1133.0,4370.0,1255.0,-172.0,1661.0,3587.0,,,,-2.06836112761317,-3.01291198681333,-1.52163251527559,,-0.2655970600057797,,
,7234.0,1132.0,4367.0,1251.0,-196.0,1695.0,3579.0,,,,-2.06793805759918,-3.01306557258199,-1.52092229140331,,0.22326499005677536,,
,7230.0,1130.0,4367.0,1251.0,-181.0,1691.0,3577.0,,,,-2.0679529358576,-3.01303250856623,-1.52104184197891,,0.7413290829385744,,
,7226.0,1132.0,4364.0,1250.0,-175.0,1693.0,3578.0,,,,-2.06675158816856,-3.01300719829879,-1.52081843622895,,1.2812194028545139,,
,7222.0,1128.0,4362.0,1248.0,-194.0,1700.0,3581.0,,,,-2.06668912075727,-3.01306380094324,-1.52003185118853,,1.8338316637639853,,
,7216.0,1127.0,4358.0,1246.0,-207.0,1702.0,3588.0,,,,-2.06567003538067,-3.01295175664227,-1.52089393768106,,2.3884522772501744,,
,7218.0,1125.0,4360.0,1247.0,-185.0,1686.0,3577.0,,,,-2.06646830978823,-3.01312122721568,-1.51972854575933,,2.9329926615917516,,
,7211.0,1127.0,4356.0,1252.0,-188.0,1700.0,3579.0,,,,-2.0667234696929,-3.01285838416126,-1.52028482035518,,3.4543406134732537,,
,7209.0,1128.0,4354.0,1247.0,-204.0,1709.0,3581.0,,,,-2.06562143575307,-3.01300626218859,-1.52053550247868,,3.9388231775870923,,
,7208.0,1126.0,4351.0,1244.0,-185.0,1698.0,3590.0,,,,-2.06574481226243,-3.01298553929964,-1.52064797267335,,4.372766730913341,,
,7206.0,1126.0,4350.0,1246.0,-180.0,1675.0,3595.0,,,,-2.06692261740496,-3.01289352789999,-1.52073826915784,,4.743130185221127,,
,7205.0,1125.0,4349.0,1245.0,-199.0,1657.0,3611.0,,,,-2.06724290759441,-3.01290649288279,-1.52055547315792,,5.0381768870819235,,
,7201.0,1125.0,4349.0,1244.0,-196.0,1671.0,3604.0,,,,-2.06675241808213,-3.01300088046342,-1.52059002688973,,5.248140906277177,,
,7198.0,1120.0,4345.0,1242.0,-185.0,1675.0,3574.0,,,,-2.06750205204333,-3.01299309037174,-1.52182623374245,,5.3658353101164735,,
,7199.0,1125.0,4342.0,1242.0,-170.0,1671.0,3578.0,,,,-2.06676519310662,-3.01291401406043,-1.52017748555701,,5.387145607980261,,
,7194.0,1123.0,4343.0,1244.0,-198.0,1696.0,3595.0,,,,-2.06724798479382,-3.01297828569724,-1.52117238773515,,5.311353190655903,,
,7192.0,1124.0,4340.0,1244.0,-212.0,1719.0,3603.0,,,,-2.0678895177741,-3.01293996459308,-1.52051213705921,,5.141243621457978,,
,7192.0,1121.0,4338.0,1242.0,-157.0,1687.0,3598.0,,,,-2.06825594201325,-3.01298919407922,-1.52031431092466,,4.882974162332302,,
,7190.0,1121.0,4335.0,1244.0,-174.0,1685.0,3587.0,,,,-2.06904502145383,-3.01298175796962,-1.52090535175575,,4.545702328237788,,
,7187.0,1121.0,4338.0,1241.0,-201.0,1674.0,3583.0,,,,-2.06992876470607,-3.01299732158289,-1.52143637183641,,4.141007600700178,,
,7186.0,1122.0,4336.0,1242.0,-185.0,1673.0,3575.0,,,,-2.07024687732658,-3.01302271743169,-1.52165138968972,,3.6821647447782655,,
,7184.0,1123.0,4335.0,1242.0,-181.0,1680.0,3567.0,,,,-2.06992581538977,-3.01299211505788,-1.52122870038223,,3.1833435305364497,,
,7185.0,1122.0,4332.0,1240.0,-190.0,1715.0,3589.0,,,,-2.06961911537123,-3.01300292009636,-1.52111884467278,,2.658813615642632,,
,7182.0,1123.0,4331.0,1241.0,-183.0,1692.0,3608.0,,,,-2.06865959659086,-3.01293391818647,-1.52089252291208,,2.122226069766079,,
,7183.0,1122.0,4330.0,1243.0,-184.0,1674.0,3601.0,,,,-2.0682310103888,-3.01305023253143,-1.52007704134194,,1.5860276463538217,,
,7185.0,1122.0,4329.0,1239.0,-180.0,1664.0,3601.0,,,,-2.06801587608387,-3.01299255785299,-1.51992030427477,,1.0610438315494464,,
,7181.0,1120.0,4328.0,1240.0,-178.0,1666.0,3601.0,,,,-2.06807233393283,-3.01307983446342,-1.52007348045187,,0.5562448505992664,,
,7183.0,1123.0,4330.0,1240.0,-182.0,1678.0,3594.0,,,,-2.06925511986579,-3.01297112634801,-1.5215300212127,,0.07868768956276267,,
,7180.0,1121.0,4327.0,1242.0,-187.0,1702.0,3590.0,,,,-2.06956039114482,-3.0130953408144,-1.52134184778819,,-0.36639104498239,,
,7181.0,1120.0,4328.0,1241.0,-181.0,1700.0,3590.0,,,,-2.0700426897151,-3.01294334843326,-1.52034330789767,,-0.7753703367663269,,
,7178.0,1119.0,4326.0,1239.0,-189.0,1700.0,3575.0,,,,-2.07068638308863,-3.01307776935028,-1.52098322423277,,-1.1459752663379086,,
,7181.0,1121.0,4326.0,1239.0,-177.0,1701.0,3585.0,,,,-2.070534888206,-3.01302567544226,-1.5217664385262,,-1.4769925792701808,,
,7178.0,1123.0,4326.0,1240.0,-182.0,1694.0,3596.0,,,,-2.07027322166245,-3.01294576766847,-1.52051254409138,,-1.7680177488522721,,
,7179.0,1121.0,4324.0,1240.0,-194.0,1702.0,3593.0,,,,-2.07104258343166,-3.01306872961824,-1.52123489438993,,-2.0192708061249927,,
,7176.0,1121.0,4324.0,1236.0,-186.0,1713.0,3590.0,,,,-2.07112965940093,-3.01302877298949,-1.52092865720882,,-2.2315035866144277,,
2025-08-20 17:47:35,7178.0,1122.0,4322.0,1238.0,-186.0,1705.0,3593.0,,,2025/08/20 05:47:35 PM,-2.07028894440158,-3.01306161740313,-1.52158031122933,,-2.4060020643269193,,
,7176.0,1120.0,4325.0,1239.0,-186.0,1704.0,3581.0,,,,-2.07109566103988,-3.01295497255257,-1.52202636683913,,-2.5446665121844836,,
,7173.0,1118.0,4324.0,1237.0,-185.0,1689.0,3576.0,,,,-2.07094732369206,-3.01292002543312,-1.52085622793722,,-2.650133263467346,,
,7171.0,1117.0,4319.0,1238.0,-178.0,1687.0,3604.0,,,,-2.07047577117449,-3.01305798097765,-1.52126271726783,,-2.7258894354325354,,
,7174.0,1119.0,4320.0,1239.0,-171.0,1705.0,3609.0,,,,-2.07080978145903,-3.01299939517591,-1.52178512426147,,-2.776329417135292,,
,7175.0,1119.0,4323.0,1239.0,-159.0,1688.0,3593.0,,,,-2.07060030522624,-3.01307302268151,-1.52164804468128,,-2.806709631982469,,
,7172.0,1121.0,4318.0,1238.0,-169.0,1690.0,3579.0,,,,-2.0703723474104,-3.01299425113943,-1.5214085284724,,-2.822973695614828,,
,7170.0,1120.0,4318.0,1237.0,-170.0,1683.0,3585.0,,,,-2.07056506916625,-3.0130315114492,-1.52099043095473,,-2.8314399508016406,,
,7166.0,1120.0,4317.0,1240.0,-179.0,1667.0,3587.0,,,,-2.07053502697721,-3.01304726616531,-1.52121255331855,,-2.8383640650935016,,
,7173.0,1119.0,4319.0,1239.0,-173.0,1675.0,3592.0,,,,-2.06971420964973,-3.01304083311752,-1.52093288447178,,-2.8494084032301625,,
,7173.0,1120.0,4317.0,1241.0,-169.0,1680.0,3589.0,,,,-2.06945839297552,-3.01290279199438,-1.52153322446004,,-2.869065418170465,,
,7168.0,1115.0,4317.0,1236.0,-158.0,1690.0,3581.0,,,,-2.06923835171201,-3.01296668612937,-1.52187038834159,,-2.9000929394591504,,
,7173.0,1120.0,4316.0,1236.0,-183.0,1691.0,3593.0,,,,-2.06862578027162,-3.01302686536521,-1.52099320488556,,-2.943024044966557,,
,7170.0,1120.0,4318.0,1238.0,-178.0,1699.0,3586.0,,,,-2.06935041824998,-3.01297738121322,-1.52192696189523,,-2.995812846010696,,
,7170.0,1118.0,4316.0,1239.0,-180.0,1693.0,3580.0,,,,-2.06836953384898,-3.01295888291362,-1.52001888370382,,-3.0536701010381937,,
,7172.0,1119.0,4316.0,1237.0,-177.0,1694.0,3576.0,,,,-2.06820991781006,-3.01291492716582,-1.52057775282899,,-3.1091293676796283,,
,7174.0,1119.0,4315.0,1239.0,-186.0,1715.0,3588.0,,,,-2.06775788385244,-3.01308041282645,-1.52131808044241,,-3.1523657529126208,,
,7175.0,1120.0,4318.0,1242.0,-180.0,1674.0,3585.0,,,,-2.06719536247922,-3.01295649665668,-1.51969972943714,,-3.171765845002595,,
,7177.0,1123.0,4318.0,1240.0,-182.0,1671.0,3586.0,,,,-2.06658162128375,-3.01292537452171,-1.52085175693673,,-3.1547203826664916,,
,7176.0,1123.0,4319.0,1240.0,-181.0,1679.0,3590.0,,,,-2.06589024135747,-3.01288321500506,-1.52058869409737,,-3.0885830299236803,,
,7176.0,1121.0,4316.0,1239.0,-175.0,1691.0,3593.0,,,,-2.06537233198692,-3.01298809145308,-1.52024324124831,,-2.9617131838202746,,
,7177.0,1120.0,4317.0,1241.0,-162.0,1716.0,3588.0,,,,-2.06643223214569,-3.01288458690178,-1.5203696700792,,-2.764503239052659,,
,7180.0,1122.0,4319.0,1243.0,-185.0,1731.0,3589.0,,,,-2.06670028102771,-3.01285304242611,-1.52030235506013,,-2.4902861895956927,,
,7180.0,1119.0,4318.0,1242.0,-176.0,1724.0,3590.0,,,,-2.06705518379851,-3.01294180216864,-1.52005630000143,,-2.1360304493638114,,
,7182.0,1119.0,4316.0,1239.0,-172.0,1707.0,3585.0,,,,-2.06724809454648,-3.01294189653119,-1.52048253096387,,-1.7027539423834193,,
,7184.0,1121.0,4317.0,1242.0,-176.0,1722.0,3599.0,,,,-2.06785332033633,-3.01294808139439,-1.51976350605157,,-1.1956238276756328,,
,7184.0,1122.0,4320.0,1243.0,-180.0,1696.0,3585.0,,,,-2.06781783481342,-3.01295184591252,-1.52079613404289,,-0.6237449061113327,,
,7185.0,1121.0,4319.0,1241.0,-179.0,1692.0,3593.0,,,,-2.06733911242303,-3.01300365330511,-1.52045622531519,,0.00032751241308347754,,
,7187.0,1121.0,4320.0,1240.0,-180.0,1688.0,3584.0,,,,-2.06741674792404,-3.01290936547969,-1.52125675419228,,0.6612900804785037,,
,7186.0,1121.0,4319.0,1244.0,-177.0,1671.0,3586.0,,,,-2.06820095091481,-3.01295975937247,-1.5208047870938,,1.3419348420207582,,
,7188.0,1123.0,4322.0,1244.0,-203.0,1678.0,3587.0,,,,-2.06789002534074,-3.01290133209642,-1.52067609104103,,2.024055139879071,,
,7191.0,1123.0,4321.0,1242.0,-203.0,1667.0,3589.0,,,,-2.06780465646982,-3.01290183773182,-1.52062423827808,,2.689339954162644,,
,7191.0,1122.0,4318.0,1242.0,-194.0,1683.0,3605.0,,,,-2.06829440240797,-3.01295805406141,-1.51955003456042,,3.320193336649557,,
,7192.0,1123.0,4322.0,1244.0,-188.0,1689.0,3597.0,,,,-2.06858126172535,-3.01293262760741,-1.52067089192122,,3.900430250226215,,
,7195.0,1121.0,4321.0,1245.0,-184.0,1688.0,3590.0,,,,-2.06877734038149,-3.01291403834744,-1.52109070028233,,4.415816766016631,,
,7198.0,1126.0,4326.0,1245.0,-191.0,1687.0,3589.0,,,,-2.06870724777707,-3.01295960044581,-1.52120377970047,,4.854440061747519,,
,7194.0,1123.0,4321.0,1245.0,-189.0,1695.0,3580.0,,,,-2.06863202524873,-3.01293866170977,-1.52041946951632,,5.206911461385821,,
,7197.0,1123.0,4322.0,1247.0,-172.0,1685.0,3602.0,,,,-2.06901039145731,-3.01287304467075,-1.52078334587828,,5.4664230583577,,
,7200.0,1125.0,4325.0,1247.0,-180.0,1690.0,3593.0,,,,-2.06820840373714,-3.01296091808068,-1.52068085112888,,5.628693147076618,,
,7203.0,1126.0,4326.0,1249.0,-184.0,1688.0,3594.0,,,,-2.06960790266893,-3.01298207803237,-1.52114436213373,,5.69184421143247,,
,7201.0,1126.0,4325.0,1246.0,-180.0,1676.0,3570.0,,,,-2.06895257914452,-3.01295990928696,-1.52185814752043,,5.6562563034923246,,
,7202.0,1124.0,4325.0,1246.0,-174.0,1692.0,3588.0,,,,-2.0679146443553,-3.01300362291456,-1.51979861864064,,5.524427728533374,,
,7204.0,1127.0,4326.0,1249.0,-176.0,1695.0,3600.0,,,,-2.06837061347713,-3.01297160868837,-1.52152406462025,,5.300857291938889,,
,7206.0,1128.0,4325.0,1249.0,-171.0,1690.0,3591.0,,,,-2.06845983563601,-3.01295611317023,-1.5207054049871,,4.991943704963982,,
,7211.0,1125.0,4326.0,1247.0,-161.0,1678.0,3591.0,,,,-2.06849871589686,-3.01289320179915,-1.52037161536774,,4.605883600525368,,
,7208.0,1124.0,4326.0,1248.0,-172.0,1695.0,3592.0,,,,-2.06861041055641,-3.0129183518217,-1.52052428005131,,4.152543092065031,,
,7209.0,1124.0,4328.0,1249.0,-176.0,1714.0,3586.0,,,,-2.06864132612476,-3.01285066137687,-1.52095383530584,,3.643279124397754,,
,7210.0,1127.0,4328.0,1250.0,-177.0,1711.0,3584.0,,,,-2.06843579878939,-3.01298100061257,-1.51996786957231,,3.0906941073216623,,
,7214.0,1127.0,4329.0,1249.0,-180.0,1707.0,3590.0,,,,-2.06905527170398,-3.01294973683688,-1.52174102658345,,2.5083176098281115,,
,7210.0,1127.0,4329.0,1251.0,-177.0,1690.0,3595.0,,,,-2.069129814892,-3.0129264618872,-1.5200427491357,,1.9102193194276134,,
,7217.0,1127.0,4332.0,1252.0,-169.0,1707.0,3582.0,,,,-2.07002857963406,-3.01288975500529,-1.5214306591138,,1.310565878339473,,
,7218.0,1128.0,4328.0,1251.0,-185.0,1705.0,3586.0,,,,-2.06983976580632,-3.01293434604878,-1.52082735129019,,0.7231397429084697,,
,7218.0,1126.0,4329.0,1250.0,-195.0,1703.0,3595.0,,,,-2.07047771889273,-3.01295914929604,-1.52074643213804,,0.16084139226411187,,
,7219.0,1127.0,4329.0,1252.0,-203.0,1682.0,3595.0,,,,-2.06945285022141,-3.01294366751983,-1.52080597314613,,-0.3648016200593911,,
,7224.0,1130.0,4332.0,1251.0,-175.0,1684.0,3600.0,,,,-2.06892161623292,-3.01289506625592,-1.52071717853567,,-0.8440928597207871,,
,7225.0,1129.0,4332.0,1254.0,-181.0,1686.0,3587.0,,,,-2.06833952416829,-3.01294739770234,-1.5206847534872,,-1.2695635998224697,,
,7226.0,1129.0,4333.0,1254.0,-179.0,1689.0,3594.0,,,,-2.06885419967418,-3.01282818956546,-1.5202850955822,,-1.6362767668934461,,
,7228.0,1131.0,4335.0,1254.0,-193.0,1686.0,3592.0,,,,-2.06858299593636,-3.01290300482826,-1.52065849745071,,-1.942008199055568,,
,7227.0,1129.0,4333.0,1254.0,-200.0,1673.0,3593.0,,,,-2.06823543671901,-3.01287991284982,-1.52054099224741,,-2.18728136859439,,
,7231.0,1130.0,4336.0,1253.0,-192.0,1680.0,3592.0,,,,-2.06892325487336,-3.01292962941651,-1.52078008984403,,-2.3752431556513933,,
,7232.0,1130.0,4335.0,1254.0,-190.0,1691.0,3589.0,,,,-2.06890610058902,-3.01289969895313,-1.52087516873514,,-2.511382793179778,,
,7234.0,1130.0,4337.0,1256.0,-190.0,1694.0,3578.0,,,,-2.06813016359627,-3.01284705339315,-1.52092473459371,,-2.6031107066061714,,
,7238.0,1131.0,4339.0,1254.0,-178.0,1698.0,3582.0,,,,-2.0674801927243,-3.0129845934078,-1.52022164763825,,-2.659226191426959,,
,7237.0,1132.0,4338.0,1255.0,-166.0,1694.0,3582.0,,,,-2.06787968447302,-3.01289980963181,-1.52053645483493,,-2.689311462380917,,
,7241.0,1133.0,4340.0,1256.0,-185.0,1681.0,3591.0,,,,-2.06619153246064,-3.01296749055906,-1.52050219338831,,-2.703094268735937,,
,7246.0,1133.0,4340.0,1255.0,-191.0,1698.0,3591.0,,,,-2.06641843674972,-3.01280291647891,-1.52056092421461,,-2.709822162157658,,
,7244.0,1131.0,4341.0,1257.0,-178.0,1691.0,3598.0,,,,-2.06600704429312,-3.01283695287684,-1.52029633649323,,-2.7176890732914893,,
,7248.0,1133.0,4343.0,1260.0,-181.0,1683.0,3599.0,,,,-2.06537525991561,-3.01287133147376,-1.51938955277991,,-2.733349817782072,,
,7252.0,1135.0,4343.0,1261.0,-181.0,1692.0,3582.0,,,,-2.06523893350219,-3.01275185230939,-1.51959018614533,,-2.761551327627485,,
,7252.0,1136.0,4347.0,1260.0,-175.0,1705.0,3587.0,,,,-2.06715184430988,-3.01290286709923,-1.52029616150752,,-2.8049014296245085,,
,7252.0,1134.0,4345.0,1259.0,-176.0,1708.0,3596.0,,,,-2.06759364145921,-3.01294894589434,-1.52076954398484,,-2.863787143675347,,
,7254.0,1136.0,4346.0,1260.0,-171.0,1713.0,3585.0,,,,-2.06887343895239,-3.01292735867035,-1.52118272981041,,-2.936444643128397,,
,7257.0,1134.0,4349.0,1260.0,-176.0,1709.0,3592.0,,,,-2.07060184724739,-3.01298668909001,-1.5213011750473,,-3.01917196835021,,
,7259.0,1134.0,4347.0,1263.0,-182.0,1704.0,3593.0,,,,-2.0722004053781,-3.0130455311971,-1.52102152869763,,-3.106663517190683,,
,7262.0,1135.0,4346.0,1261.0,-175.0,1706.0,3598.0,,,,-2.07342820219616,-3.01320083622153,-1.52174978364067,,-3.1924335945610247,,
,7264.0,1135.0,4350.0,1264.0,-169.0,1700.0,3584.0,,,,-2.0753431675502,-3.01311373704187,-1.52206959874747,,-3.2692875195792217,,
,7267.0,1137.0,4349.0,1264.0,-175.0,1670.0,3585.0,,,,-2.07556141485536,-3.01315743228689,-1.52281501541181,,-3.3297958312100127,,
,7268.0,1136.0,4353.0,1264.0,-179.0,1680.0,3586.0,,,,-2.07703591548869,-3.01312630448269,-1.52347351327627,,-3.366731309703067,,
,7270.0,1136.0,4353.0,1264.0,-180.0,1704.0,3601.0,,,,-2.07682322694915,-3.01312090366385,-1.52243953547322,,-3.373438578680842,,
,7271.0,1138.0,4355.0,1262.0,-172.0,1684.0,3593.0,,,,-2.0767951377624,-3.01322186356655,-1.52245113514712,,-3.3441188645295417,,
,7275.0,1136.0,4354.0,1266.0,-164.0,1686.0,3585.0,,,,-2.07678613067635,-3.01326786122163,-1.52278208896513,,-3.274024860043978,,
,7275.0,1137.0,4359.0,1266.0,-164.0,1693.0,3592.0,,,,-2.07727365352546,-3.01315476775229,-1.52348298825709,,-3.1595705258100963,,
,7278.0,1139.0,4354.0,1266.0,-184.0,1698.0,3585.0,,,,-2.07625305912499,-3.01314992704145,-1.52270871829603,,-2.9983672885892303,,
,7281.0,1140.0,4358.0,1266.0,-186.0,1708.0,3591.0,,,,-2.07566032416324,-3.01315955210994,-1.52302021031612,,-2.7892015171647184,,
,7285.0,1140.0,4360.0,1267.0,-181.0,1699.0,3592.0,,,,-2.07581977813283,-3.01312828128739,-1.52259762092233,,-2.531969109587293,,
,7286.0,1143.0,4362.0,1271.0,-180.0,1688.0,3569.0,,,,-2.07480824925674,-3.01304872826583,-1.52283146437585,,-2.2275829173192023,,
,7286.0,1142.0,4361.0,1270.0,-181.0,1702.0,3568.0,,,,-2.07406433572166,-3.01311675880353,-1.52224706538601,,-1.8778691063646578,,
,7289.0,1141.0,4360.0,1266.0,-184.0,1692.0,3589.0,,,,-2.07427484055355,-3.01304072126352,-1.5232680979503,,-1.4854700757383166,,
,7291.0,1143.0,4362.0,1271.0,-165.0,1708.0,3600.0,,,,-2.07395090102725,-3.01309478434626,-1.52204385873786,,-1.053773342765704,,
,7292.0,1141.0,4365.0,1268.0,-191.0,1687.0,3598.0,,,,-2.07483137491848,-3.01315047476899,-1.52152216802383,,-0.5868857834948227,,
,7293.0,1143.0,4365.0,1274.0,-212.0,1695.0,3594.0,,,,-2.07528130609396,-3.01318986883096,-1.52221892171574,,-0.089668521006633,,
,7291.0,1141.0,4363.0,1270.0,-185.0,1713.0,3594.0,,,,-2.07571682115069,-3.01319192178398,-1.52231288147638,,0.4321618723477405,,
,7293.0,1141.0,4365.0,1273.0,-174.0,1734.0,3594.0,,,,-2.07483670391258,-3.01309882579501,-1.52201361680077,,0.9718752887341363,,
,7286.0,1141.0,4366.0,1271.0,-179.0,1702.0,3586.0,,,,-2.07481146782836,-3.0130564665336,-1.52274891876263,,1.5215409867655891,,
,7283.0,1142.0,4367.0,1272.0,-187.0,1666.0,3592.0,,,,-2.07509376536083,-3.01305587208252,-1.52204867163623,,2.071856868193915,,
,7276.0,1138.0,4364.0,1270.0,-202.0,1683.0,3589.0,,,,-2.07473793914438,-3.01306474356712,-1.52150145300176,,2.612051763602135,,
,7274.0,1136.0,4362.0,1269.0,-180.0,1681.0,3581.0,,,,-2.07319377420393,-3.01296687843306,-1.52166976307877,,3.129918163771458,,
,7269.0,1139.0,4362.0,1266.0,-174.0,1701.0,3596.0,,,,-2.07474118250529,-3.01294150991642,-1.52239209536481,,3.6120220669719303,,
,7262.0,1135.0,4361.0,1267.0,-180.0,1704.0,3601.0,,,,-2.07427117579395,-3.01305224034085,-1.52268831505871,,4.0441162941852955,,
,7258.0,1134.0,4358.0,1265.0,-184.0,1704.0,3604.0,,,,-2.07600272921526,-3.01313953306152,-1.52238509473561,,4.4117574302489135,,
,7253.0,1132.0,4354.0,1261.0,-190.0,1713.0,3600.0,,,,-2.0755895547455,-3.01318522724664,-1.52187917460616,,4.701098257756269,,
,7247.0,1131.0,4352.0,1263.0,-167.0,1692.0,3599.0,,,,-2.0755439492622,-3.01309107437714,-1.52345026933398,,4.899800439642812,,
,7247.0,1129.0,4350.0,1262.0,-167.0,1679.0,3603.0,,,,-2.07487789457453,-3.0130989284624,-1.52194308066241,,4.997989233355991,,
,7241.0,1132.0,4347.0,1260.0,-188.0,1697.0,3606.0,,,,-2.07505490025836,-3.01312932594879,-1.52251661314694,,4.989156042112733,,
,7236.0,1128.0,4342.0,1258.0,-185.0,1690.0,3589.0,,,,-2.07532255618819,-3.01315398874904,-1.52117528688614,,4.870908227499266,,
,7234.0,1129.0,4344.0,1258.0,-186.0,1699.0,3584.0,,,,-2.07471923209905,-3.01310644149699,-1.52280522228341,,4.645470767809586,,
,7234.0,1127.0,4341.0,1259.0,-197.0,1697.0,3579.0,,,,-2.07454060559433,-3.01305196669141,-1.52237233481648,,4.319861925141747,,
,7228.0,1130.0,4341.0,1258.0,-200.0,1694.0,3586.0,,,,-2.0742668342874,-3.01302653859102,-1.5215017315652,,3.9056945006140382,,
,7226.0,1126.0,4339.0,1254.0,-175.0,1681.0,3588.0,,,,-2.07408786947023,-3.01300121211219,-1.52092526499997,,3.4185931006915977,,
,7227.0,1126.0,4338.0,1257.0,-173.0,1671.0,3589.0,,,,-2.07376976717345,-3.0130573321843,-1.52047091354921,,2.8772616562419397,,
,7229.0,1127.0,4336.0,1256.0,-181.0,1701.0,3570.0,,,,-2.07274702576303,-3.01309150005555,-1.52187653549136,,2.302278039484142,,
,7225.0,1128.0,4333.0,1256.0,-171.0,1703.0,3576.0,,,,-2.07366752726506,-3.01297544363672,-1.52169673464343,,1.7147271452028312,,
,7225.0,1125.0,4331.0,1255.0,-177.0,1711.0,3580.0,,,,-2.07348256011583,-3.01314502760319,-1.52234077564765,,1.1348042472031183,,
,7224.0,1125.0,4330.0,1253.0,-181.0,1702.0,3575.0,,,,-2.07408463063575,-3.01300168350664,-1.52264549036471,,0.580523232819922,,
,7220.0,1126.0,4331.0,1258.0,-178.0,1700.0,3581.0,,,,-2.07451465398572,-3.01319040046647,-1.52159247277339,,0.0666494046073051,,
,7219.0,1127.0,4332.0,1257.0,-176.0,1709.0,3582.0,,,,-2.07422422610562,-3.01303678825691,-1.52135508840285,,-0.39605250563950445,,
,7219.0,1126.0,4330.0,1255.0,-189.0,1720.0,3591.0,,,,-2.07426798029489,-3.01300945668661,-1.52148506278947,,-0.8012016953452259,,
,7219.0,1127.0,4327.0,1254.0,-184.0,1723.0,3585.0,,,,-2.07376519116286,-3.01303614851516,-1.52224110972874,,-1.1468017806024398,,
,7219.0,1126.0,4329.0,1257.0,-179.0,1714.0,3590.0,,,,-2.07368855231536,-3.01300176164406,-1.52232714447491,,-1.4348804037426914,,
