TimeLabel,MEAS1_PPG1,MEAS1_PPG2,MEAS1_PPG3,MEAS1_PPG4,ACCX,ACCY,ACCZ,HR_timestamp,HR_value,radar_timestamp,phase_rx0,phase_rx1,phase_rx2,timestep,n_process,original_rate,calculated_rate
2025-08-19 22:00:52,4687.0,943.0,4453.0,942.0,2480.0,2275.0,1995.0,2025-08-19 22:00:52,71.0,2025/08/19 10:00:52 PM,0.0574046591669959,-1.68096190212876,0.0933435509032479,2025/08/19 10:00:52 PM,-0.5919582753137929,20.485584259033203,21.348270100538706
,4687.0,945.0,4451.0,942.0,2480.0,2282.0,1990.0,2025-08-19 22:00:53,71.0,,0.0573863758870646,-1.68187245447785,0.0933252286615167,2025/08/19 10:01:02 PM,-0.1986992761624965,22.01467704772949,19.983950475753762
,4688.0,944.0,4456.0,942.0,2463.0,2276.0,1993.0,2025-08-19 22:00:54,70.0,,0.0573590480423187,-1.6826567752813,0.0932959463565841,2025/08/19 10:01:12 PM,0.20815979407839982,21.00840377807617,20.432649420160573
,4688.0,944.0,4456.0,943.0,2469.0,2278.0,1989.0,2025-08-19 22:00:55,70.0,,0.0574006802073752,-1.68301900903395,0.0933244210935377,2025/08/19 10:01:22 PM,0.6237592997583947,20.61068725585937,19.463960447567004
,4688.0,943.0,4455.0,943.0,2484.0,2273.0,1993.0,2025-08-19 22:00:56,70.0,,0.0572810110968712,-1.68348419962742,0.0932687764043086,2025/08/19 10:01:32 PM,1.0429620955783432,20.134227752685547,20.003704732796134
,4688.0,945.0,4460.0,943.0,2476.0,2277.0,1992.0,2025-08-19 22:00:57,70.0,,0.0572536650151456,-1.68281546715846,0.0932648783256684,2025/08/19 10:01:42 PM,1.4602359209403428,19.89683151245117,19.106396657023485
,4692.0,946.0,4461.0,943.0,2483.0,2290.0,1983.0,2025-08-19 22:00:58,69.0,,0.0572919605913635,-1.68301419947721,0.0932759839317133,2025/08/19 10:01:52 PM,1.8695303062548112,19.494585037231445,18.85490131758788
,4693.0,942.0,4461.0,944.0,2481.0,2294.0,1986.0,2025-08-19 22:00:59,69.0,,0.0572637400317903,-1.68304019887268,0.0932741067935792,2025/08/19 10:02:02 PM,2.2641864764646957,19.382627487182617,19.781420765027303
,4693.0,944.0,4459.0,944.0,2473.0,2285.0,1994.0,2025-08-19 22:01:00,69.0,,0.0573582218279532,-1.68251566837947,0.0932784089604252,2025/08/19 10:02:12 PM,2.636917003004297,19.494585037231445,19.781420765027335
,4691.0,945.0,4463.0,946.0,2490.0,2279.0,1988.0,2025-08-19 22:01:01,69.0,,0.0573680348960963,-1.68229012895896,0.0932806832966459,2025/08/19 10:02:22 PM,2.9798841693107128,19.43844413757324,20.0148312940304
,4695.0,946.0,4466.0,945.0,2488.0,2266.0,1990.0,2025-08-19 22:01:02,68.0,,0.0574147461312807,-1.68176227304824,0.0933285067413901,2025/08/19 10:02:32 PM,3.2848936096139827,19.823789596557617,19.83870967741934
,4692.0,947.0,4462.0,947.0,2490.0,2259.0,1991.0,2025-08-19 22:01:03,68.0,,0.0574094159946051,-1.68150614437242,0.0933404335391892,2025/08/19 10:02:42 PM,3.5437045301219348,20.36659812927246,19.194192969578324
,4697.0,949.0,4465.0,947.0,2492.0,2271.0,1990.0,2025-08-19 22:01:04,68.0,,0.0574642361180038,-1.6807724238756,0.0933320114901403,2025/08/19 10:02:52 PM,3.7484415303330363,20.013341903686523,21.186822856514326
,4695.0,949.0,4467.0,945.0,2499.0,2275.0,1991.0,2025-08-19 22:01:05,69.0,,0.0574265714734116,-1.68121850891006,0.0933452413703997,2025/08/19 10:03:02 PM,3.892077497598128,20.119224548339844,20.008201202843082
,4696.0,946.0,4466.0,946.0,2486.0,2268.0,1990.0,2025-08-19 22:01:06,70.0,,0.0575276502713714,-1.68074979704562,0.0933821350725056,2025/08/19 10:03:12 PM,3.9689440049521156,20.53388214111328,19.8907103825137
,4698.0,947.0,4467.0,948.0,2501.0,2296.0,1994.0,2025-08-19 22:01:07,70.0,,0.0575234759228712,-1.6809411398199,0.0933765068967532,2025/08/19 10:03:22 PM,3.9752167771121054,20.28397560119629,19.924127258035778
,4698.0,949.0,4467.0,948.0,2495.0,2301.0,1996.0,2025-08-19 22:01:08,71.0,,0.0574633175800357,-1.6801042860785,0.093396799657683,2025/08/19 10:03:32 PM,3.9093206135586893,19.95565414428711,21.37466307277628
,4698.0,948.0,4467.0,949.0,2496.0,2276.0,1999.0,2025-08-19 22:01:09,72.0,,0.0575415025605184,-1.68008739174249,0.0933684523295965,2025/08/19 10:03:42 PM,3.7722018278779905,20.47781562805176,21.625460662283537
,4699.0,949.0,4470.0,946.0,2493.0,2263.0,1998.0,2025-08-19 22:01:10,73.0,,0.057542666063867,-1.67974102899522,0.0934009505452135,,3.567427255110993,,
,4699.0,948.0,4469.0,949.0,2494.0,2271.0,1996.0,2025-08-19 22:01:11,73.0,,0.0576188740978191,-1.6797428630338,0.0933999086041933,,3.301086560699732,,
,4699.0,947.0,4470.0,951.0,2493.0,2284.0,1998.0,2025-08-19 22:01:12,73.0,,0.0575686111689317,-1.67972323720536,0.0933955871744066,,2.981496890126553,,
,4701.0,949.0,4473.0,948.0,2487.0,2277.0,1984.0,2025-08-19 22:01:13,73.0,,0.0575510273207746,-1.67953367109616,0.0934137819697799,,2.618732479810887,,
,4700.0,948.0,4472.0,948.0,2483.0,2300.0,1991.0,2025-08-19 22:01:14,73.0,,0.0575722277930641,-1.67952631655352,0.0933912768169087,,2.224022820246461,,
,4706.0,952.0,4474.0,950.0,2489.0,2285.0,1978.0,2025-08-19 22:01:15,73.0,,0.0576141132951036,-1.67930708385037,0.0934016091930615,,1.809077840513947,,
,4706.0,950.0,4477.0,951.0,2479.0,2269.0,1992.0,2025-08-19 22:01:16,72.0,,0.0575719417903078,-1.67971231750836,0.0934168663215986,,1.385405055087455,,
,4704.0,949.0,4478.0,950.0,2479.0,2286.0,1993.0,2025-08-19 22:01:17,72.0,,0.0575671224442882,-1.6791674873828,0.0934141542972334,,0.9636810741248077,,
,4705.0,949.0,4479.0,949.0,2489.0,2282.0,1980.0,2025-08-19 22:01:18,72.0,,0.0576064142943906,-1.67923631796413,0.0933989979127853,,0.5532295821736377,,
,4706.0,948.0,4478.0,950.0,2485.0,2286.0,1992.0,2025-08-19 22:01:19,72.0,,0.0575576297488028,-1.67915075728798,0.0933749474784221,,0.16164240416044504,,
,4706.0,952.0,4483.0,951.0,2481.0,2284.0,2000.0,2025-08-19 22:01:20,72.0,,0.0576147404156982,-1.6793941616855,0.0933972241671632,,-0.20543747259132217,,
,4710.0,949.0,4481.0,949.0,2486.0,2271.0,1998.0,2025-08-19 22:01:21,72.0,,0.0576334173695304,-1.67963599989618,0.0934301114217732,,-0.5443694532023441,,
,4708.0,950.0,4484.0,951.0,2490.0,2280.0,1985.0,2025-08-19 22:01:22,72.0,,0.0576598442809029,-1.67943237147451,0.0934033007983689,,-0.853419006455493,,
,4709.0,950.0,4483.0,950.0,2480.0,2276.0,1992.0,2025-08-19 22:01:23,72.0,,0.0576254200306773,-1.67889673112079,0.0934148804355735,,-1.132536273288904,,
,4714.0,953.0,4486.0,953.0,2473.0,2279.0,2000.0,2025-08-19 22:01:24,71.0,,0.0576122855946979,-1.67867055406962,0.0934084324604305,,-1.383041492989109,,
,4711.0,953.0,4487.0,954.0,2472.0,2280.0,1998.0,2025-08-19 22:01:25,70.0,,0.0576683654316788,-1.67796924424957,0.0934293619246203,,-1.6072522198825683,,
,4713.0,954.0,4485.0,952.0,2489.0,2284.0,1984.0,2025-08-19 22:01:26,70.0,,0.05764659141652,-1.67829130420514,0.0934555130751693,,-1.8080871340194953,,
,4709.0,951.0,4484.0,951.0,2480.0,2306.0,1998.0,2025-08-19 22:01:27,70.0,,0.0576741442188482,-1.67835019335072,0.0934394578625505,,-1.988678614996504,,
,4716.0,955.0,4487.0,954.0,2480.0,2292.0,1989.0,2025-08-19 22:01:28,70.0,,0.0576932985284231,-1.67849762247672,0.0934579530085512,,-2.1520218016849135,,
,4716.0,953.0,4492.0,957.0,2466.0,2273.0,1976.0,2025-08-19 22:01:29,70.0,,0.0576692877524816,-1.67848906829019,0.0934496783804681,,-2.3006820787299516,,
,4717.0,954.0,4490.0,954.0,2469.0,2264.0,1981.0,2025-08-19 22:01:30,70.0,,0.0576863152666312,-1.67807941307926,0.0934725176873338,,-2.436576182430074,,
,4719.0,954.0,4490.0,953.0,2477.0,2272.0,1971.0,2025-08-19 22:01:31,70.0,,0.0576989064916822,-1.67786114684721,0.0934771394016696,,-2.5608347287262956,,
,4722.0,956.0,4492.0,957.0,2490.0,2263.0,1974.0,2025-08-19 22:01:32,70.0,,0.0577457562809695,-1.67788483574232,0.093434452142532,,-2.673746344439484,,
,4724.0,957.0,4496.0,957.0,2480.0,2279.0,1989.0,2025-08-19 22:01:33,69.0,,0.0577229831950055,-1.67789216567203,0.0934923140260078,,-2.7747764509349278,,
,4723.0,955.0,4497.0,958.0,2476.0,2269.0,1989.0,2025-08-19 22:01:34,69.0,,0.0577323131974514,-1.67761820010902,0.0934640990075593,,-2.862648147824946,,
,4722.0,956.0,4499.0,957.0,2494.0,2282.0,1994.0,2025-08-19 22:01:35,69.0,,0.0577755817468328,-1.67756160484031,0.0934810847784496,,-2.93546944574474,,
,4723.0,954.0,4498.0,957.0,2493.0,2274.0,1985.0,2025-08-19 22:01:36,68.0,,0.0578125420562052,-1.67817048173548,0.0934738050558364,,-2.9908904077570346,,
,4726.0,958.0,4499.0,958.0,2506.0,2291.0,1982.0,2025-08-19 22:01:37,68.0,,0.0578098262365216,-1.67771278878018,0.0934640742528097,,-3.0262748810458198,,
,4728.0,956.0,4502.0,959.0,2498.0,2307.0,1989.0,2025-08-19 22:01:38,68.0,,0.0577987861780725,-1.67778675658053,0.0935109224112829,,-3.0388734807327884,,
,4728.0,957.0,4501.0,959.0,2494.0,2320.0,1996.0,2025-08-19 22:01:39,68.0,,0.0577829612547942,-1.67751195645875,0.0935054126888738,,-3.0259866624384526,,
,4727.0,961.0,4503.0,959.0,2495.0,2309.0,1993.0,2025-08-19 22:01:40,69.0,,0.0577373048291165,-1.67758529880717,0.0934926661027158,,-2.9851088680752174,,
,4729.0,957.0,4503.0,957.0,2502.0,2312.0,1990.0,2025-08-19 22:01:41,69.0,,0.0577753288203178,-1.67767490114158,0.0934751731048785,,-2.9140469247859833,,
,4728.0,957.0,4504.0,959.0,2500.0,2265.0,1987.0,2025-08-19 22:01:42,69.0,,0.0578000809977801,-1.67786611352789,0.0934683954454374,,-2.8110083223914604,,
,4730.0,958.0,4500.0,960.0,2503.0,2268.0,1991.0,2025-08-19 22:01:43,70.0,,0.0577863290890452,-1.67686135022832,0.0935092621749158,,-2.674657956899658,,
,4726.0,956.0,4500.0,958.0,2482.0,2263.0,1984.0,2025-08-19 22:01:44,70.0,,0.0578194229018086,-1.67739216361605,0.0934907923994267,,-2.504145655489773,,
,4726.0,956.0,4498.0,958.0,2490.0,2298.0,1995.0,2025-08-19 22:01:45,70.0,,0.0577826670107562,-1.67711216060126,0.0935003333729234,,-2.299111262054234,,
,4724.0,956.0,4496.0,957.0,2493.0,2309.0,1992.0,2025-08-19 22:01:46,70.0,,0.057853867474782,-1.67690081015268,0.0935066886722131,,-2.059678633724226,,
,4720.0,955.0,4490.0,956.0,2493.0,2306.0,1988.0,2025-08-19 22:01:47,70.0,,0.0578300964724415,-1.67656445458024,0.0935058412889105,,-1.7864533129316262,,
,4717.0,950.0,4483.0,955.0,2495.0,2280.0,2000.0,2025-08-19 22:01:48,69.0,,0.0578291420360806,-1.67699254743695,0.0935105725055221,,-1.4805393948676615,,
,4711.0,950.0,4480.0,950.0,2492.0,2287.0,2001.0,2025-08-19 22:01:49,69.0,,0.0578420453881861,-1.67669799941534,0.0935135984482093,,-1.143588116124576,,
,4708.0,949.0,4473.0,951.0,2495.0,2269.0,1989.0,2025-08-19 22:01:50,69.0,,0.0578487821143247,-1.67690222846941,0.0934938149640578,,-0.7778838555578581,,
,4704.0,949.0,4470.0,950.0,2493.0,2257.0,1990.0,2025-08-19 22:01:51,69.0,,0.0578385916357349,-1.67674125993567,0.0935201025540196,,-0.38646374841953784,,
,4703.0,947.0,4468.0,948.0,2486.0,2255.0,1992.0,2025-08-19 22:01:52,69.0,,0.0578663183678991,-1.67655860554891,0.0935135546441279,,0.02674286561270969,,
,4693.0,946.0,4464.0,946.0,2471.0,2254.0,1979.0,2025-08-19 22:01:53,69.0,,0.0578217505878374,-1.67735502289612,0.0935091655603823,,0.4567771690797464,,
,4693.0,944.0,4461.0,946.0,2480.0,2268.0,1976.0,2025-08-19 22:01:54,70.0,,0.0577508111577889,-1.67663107625764,0.093501663313175,,0.8975428191403969,,
,4690.0,944.0,4460.0,948.0,2485.0,2264.0,1982.0,2025-08-19 22:01:55,70.0,,0.0578781563281126,-1.67680951994716,0.0935048622050886,,1.3417555340565002,,
,4688.0,944.0,4458.0,944.0,2485.0,2270.0,1983.0,2025-08-19 22:01:56,71.0,,0.0579047384233224,-1.67674299835645,0.0935299195804342,,1.7809763698473164,,
,4685.0,941.0,4453.0,942.0,2485.0,2296.0,1984.0,2025-08-19 22:01:57,71.0,,0.0578367246924262,-1.67655518802525,0.0935261069869447,,2.2057488148891333,,
,4681.0,942.0,4452.0,939.0,2493.0,2301.0,1975.0,2025-08-19 22:01:58,71.0,,0.0578773706849958,-1.67645837585563,0.0935075121315754,,2.605850678029049,,
,4680.0,943.0,4451.0,942.0,2502.0,2283.0,1980.0,2025-08-19 22:01:59,71.0,,0.0579026449824817,-1.67638673179332,0.0935243300887019,,2.9706600583585394,,
,4677.0,942.0,4452.0,943.0,2498.0,2286.0,1982.0,2025-08-19 22:02:00,71.0,,0.0579073845373035,-1.67608458054332,0.0935531442829353,,3.289621477332033,,
,4676.0,942.0,4452.0,942.0,2516.0,2261.0,1968.0,2025-08-19 22:02:01,71.0,,0.0579008465944905,-1.6759946171124,0.0935527299027429,,3.552784811510313,,
,4676.0,941.0,4450.0,939.0,2517.0,2270.0,1980.0,2025-08-19 22:02:02,72.0,,0.0579793542817544,-1.67555933990514,0.093538162130144,,3.751377492397062,,
,4674.0,942.0,4452.0,941.0,2519.0,2274.0,1979.0,2025-08-19 22:02:03,72.0,,0.0579916388979754,-1.67577806361896,0.0935290288685674,,3.8783611922532155,,
,4673.0,941.0,4451.0,943.0,2522.0,2297.0,1987.0,2025-08-19 22:02:04,72.0,,0.0579829954203429,-1.6759417703655,0.0935327299260167,,3.928919553421739,,
,4672.0,942.0,4449.0,941.0,2521.0,2290.0,1986.0,2025-08-19 22:02:05,72.0,,0.0579520853412397,-1.67573846623361,0.0935635643884538,,3.9008248782666333,,
,4669.0,940.0,4448.0,943.0,2524.0,2279.0,1984.0,2025-08-19 22:02:06,72.0,,0.0578898546631774,-1.67551002202181,0.0935597055347406,,3.7946400074766604,,
,4668.0,938.0,4447.0,940.0,2501.0,2272.0,1979.0,2025-08-19 22:02:07,71.0,,0.0579707850854435,-1.67510693440314,0.0935696626108535,,3.613726992300333,,
,4670.0,939.0,4444.0,940.0,2517.0,2278.0,1976.0,2025-08-19 22:02:08,71.0,,0.0579671087763312,-1.67536835914551,0.0935775922437812,,3.3640553877569435,,
,4665.0,939.0,4446.0,939.0,2508.0,2266.0,1973.0,2025-08-19 22:02:09,71.0,,0.0580275574189237,-1.67495404501422,0.0935906957631762,,3.0538269232302944,,
,4664.0,938.0,4445.0,939.0,2496.0,2253.0,1990.0,2025-08-19 22:02:10,72.0,,0.0580103971702546,-1.67452024863464,0.093611931624129,,2.692955218107517,,
,4664.0,938.0,4444.0,937.0,2490.0,2238.0,1983.0,2025-08-19 22:02:11,72.0,,0.0580082344800355,-1.67445121136424,0.0935820726444815,,2.292454505599226,,
,4664.0,940.0,4444.0,940.0,2491.0,2239.0,1984.0,2025-08-19 22:02:12,73.0,,0.0580706952699074,-1.6748374088697,0.0935947376710126,,1.8637975152123307,,
,4663.0,937.0,4443.0,940.0,2481.0,2230.0,1975.0,2025-08-19 22:02:13,74.0,,0.0580593102917888,-1.67433270418222,0.0935899947639218,,1.4183000386202191,,
,4663.0,936.0,4441.0,940.0,2488.0,2228.0,1995.0,2025-08-19 22:02:14,75.0,,0.0580448955057552,-1.67456500824435,0.0936267905090091,,0.9665805378144162,,
,4660.0,935.0,4444.0,937.0,2486.0,2225.0,1983.0,2025-08-19 22:02:15,75.0,,0.0579984399356683,-1.67421216417385,0.0935936935023109,,0.5181303197937033,,
,4661.0,937.0,4441.0,940.0,2498.0,2255.0,1983.0,2025-08-19 22:02:16,75.0,,0.058063858872369,-1.67366731983039,0.0936165931946493,,0.08101571714165756,,
,4660.0,937.0,4442.0,937.0,2528.0,2254.0,1981.0,2025-08-19 22:02:17,75.0,,0.0581103637121779,-1.67377990279588,0.0936397973353763,,-0.338280010376124,,
,4660.0,934.0,4440.0,939.0,2530.0,2251.0,1981.0,2025-08-19 22:02:18,74.0,,0.0581288130214624,-1.67380817561524,0.0936365698130928,,-0.7348797233964369,,
,4656.0,935.0,4439.0,936.0,2521.0,2274.0,1984.0,2025-08-19 22:02:19,74.0,,0.0581452926090381,-1.67296016694036,0.093632714520416,,-1.1054154949873383,,
,4655.0,935.0,4441.0,936.0,2520.0,2284.0,1984.0,2025-08-19 22:02:20,73.0,,0.0581916026275744,-1.67278461315349,0.0936321731458431,,-1.4478349147439997,,
,4656.0,938.0,4441.0,938.0,2517.0,2283.0,1988.0,2025-08-19 22:02:21,73.0,,0.0581862425645509,-1.67253611258498,0.0936724648549199,,-1.7611392736967557,,
,4657.0,936.0,4441.0,937.0,2514.0,2278.0,1993.0,2025-08-19 22:02:22,72.0,,0.0582296653654638,-1.67216868671522,0.0936435482213985,,-2.04508508696679,,
,4652.0,934.0,4437.0,935.0,2526.0,2277.0,1990.0,2025-08-19 22:02:23,72.0,,0.0582515857258833,-1.67197647446883,0.0936670354478272,,-2.299880342099311,,
,4651.0,933.0,4437.0,934.0,2532.0,2277.0,1977.0,2025-08-19 22:02:24,72.0,,0.0582203124096815,-1.67290098273208,0.0936855371772401,,-2.525903852285844,,
,4650.0,936.0,4436.0,933.0,2523.0,2242.0,1977.0,2025-08-19 22:02:25,72.0,,0.0582492141331983,-1.67205855163245,0.0936827315836351,,-2.7234703808404657,,
,4649.0,936.0,4433.0,935.0,2513.0,2260.0,2001.0,2025-08-19 22:02:26,72.0,,0.0583199030102275,-1.67186814000233,0.0937145246517511,,-2.892656634840991,,
,4646.0,934.0,4432.0,934.0,2513.0,2253.0,2006.0,2025-08-19 22:02:27,72.0,,0.058307768486544,-1.6711658904566,0.0936929376544987,,-3.0331952070157313,,
,4644.0,930.0,4435.0,933.0,2498.0,2260.0,1989.0,2025-08-19 22:02:28,72.0,,0.058399869180161,-1.67121949352671,0.0937109976259067,,-3.144436437640701,,
,4645.0,933.0,4433.0,936.0,2491.0,2238.0,1987.0,2025-08-19 22:02:29,72.0,,0.0583595993627971,-1.67105319928962,0.0937183953409391,,-3.2253726218214624,,
,4644.0,933.0,4432.0,935.0,2474.0,2276.0,1977.0,2025-08-19 22:02:30,71.0,,0.0582973054757655,-1.67143559127562,0.0937057681412623,,-3.2747148736013876,,
,4642.0,931.0,4434.0,935.0,2477.0,2285.0,1977.0,2025-08-19 22:02:31,71.0,,0.0582982927379317,-1.67134918950913,0.0937124230499318,,-3.2910098785797044,,
,4641.0,931.0,4429.0,932.0,2509.0,2261.0,1985.0,2025-08-19 22:02:32,71.0,,0.058304052468326,-1.67147599935191,0.0936820705830038,,-3.272781520110193,,
,4643.0,929.0,4432.0,935.0,2492.0,2249.0,1980.0,2025-08-19 22:02:33,71.0,,0.0583012702693838,-1.67162397411362,0.0936994489323014,,-3.2186810478402683,,
,4640.0,931.0,4431.0,934.0,2488.0,2261.0,1996.0,2025-08-19 22:02:34,71.0,,0.0582619414864225,-1.67209923071348,0.0936881816381992,,-3.1276293726485447,,
,4641.0,930.0,4430.0,932.0,2489.0,2265.0,1987.0,2025-08-19 22:02:35,72.0,,0.0582349181513755,-1.67287828729008,0.0936724644896149,,-2.9989366277186424,,
,4640.0,930.0,4430.0,934.0,2495.0,2271.0,1964.0,2025-08-19 22:02:36,72.0,,0.0581964979051134,-1.67346512226564,0.0936622792295881,,-2.832387721187043,,
,4637.0,931.0,4432.0,933.0,2478.0,2264.0,1964.0,2025-08-19 22:02:37,73.0,,0.0581062842690157,-1.67291846236884,0.0936376860937692,,-2.6282883288475243,,
,4638.0,933.0,4431.0,935.0,2515.0,2247.0,1981.0,2025-08-19 22:02:38,73.0,,0.0580717021436005,-1.67310196694235,0.0936441621543734,,-2.3874730853661728,,
,4641.0,932.0,4433.0,934.0,2510.0,2261.0,1979.0,2025-08-19 22:02:39,73.0,,0.0581212225937338,-1.67341232669244,0.0936284798677086,,-2.111285208819866,,
,4634.0,932.0,4432.0,934.0,2519.0,2255.0,1978.0,2025-08-19 22:02:40,73.0,,0.0580001584411178,-1.67442236219645,0.0936034735019952,,-1.8015424461611462,,
,4637.0,930.0,4430.0,934.0,2527.0,2265.0,1983.0,2025-08-19 22:02:41,72.0,,0.0580354136683233,-1.67522276064424,0.0935827169828063,,-1.4605063125587696,,
,4638.0,932.0,4432.0,935.0,2514.0,2264.0,1980.0,2025-08-19 22:02:42,71.0,,0.0579610498804965,-1.67558426299869,0.0935873290415136,,-1.0908694819253648,,
,4638.0,932.0,4434.0,934.0,2518.0,2254.0,1973.0,2025-08-19 22:02:43,71.0,,0.0579116960835565,-1.67531579067522,0.0935903335760685,,-0.6957706691821459,,
,4640.0,934.0,4435.0,934.0,2522.0,2251.0,1976.0,2025-08-19 22:02:44,71.0,,0.0579163202502442,-1.67542052554698,0.0935780683392291,,-0.27883915408248383,,
,4637.0,932.0,4433.0,933.0,2524.0,2268.0,1971.0,2025-08-19 22:02:45,71.0,,0.0579643587023487,-1.67560218147602,0.0935516576249572,,0.15573608377703377,,
,4637.0,931.0,4433.0,933.0,2522.0,2243.0,1984.0,2025-08-19 22:02:46,72.0,,0.0579986537401021,-1.67518982375441,0.0935865666152708,,0.6031237857070529,,
,4637.0,930.0,4435.0,936.0,2522.0,2256.0,1988.0,2025-08-19 22:02:47,73.0,,0.0579959704429611,-1.67487563342993,0.093594763660336,,1.0577701810804652,,
,4639.0,933.0,4436.0,934.0,2514.0,2264.0,1986.0,2025-08-19 22:02:48,73.0,,0.0580397250277813,-1.67467288493548,0.0935948632491673,,1.5133397744809836,,
,4636.0,930.0,4436.0,935.0,2530.0,2258.0,1972.0,2025-08-19 22:02:49,73.0,,0.0580683304643855,-1.67415991969755,0.0936063983017161,,1.9626968183417948,,
,4636.0,931.0,4433.0,934.0,2512.0,2252.0,1962.0,2025-08-19 22:02:50,73.0,,0.0580955103530875,-1.67357345640689,0.0936387799746396,,2.397946092820563,,
,4639.0,929.0,4434.0,934.0,2515.0,2238.0,1985.0,2025-08-19 22:02:51,73.0,,0.0581068718978582,-1.67367346473453,0.0936630700588006,,2.810548371305454,,
,4637.0,933.0,4435.0,937.0,2517.0,2264.0,1980.0,2025-08-19 22:02:52,73.0,,0.0581028143126718,-1.67296274403503,0.0936445474094532,,3.191520422702892,,
,4638.0,930.0,4436.0,935.0,2524.0,2259.0,1983.0,2025-08-19 22:02:53,73.0,,0.0580911631727643,-1.67305765034958,0.093666152013527,,3.5317217236492633,,
,4637.0,932.0,4436.0,934.0,2511.0,2240.0,1984.0,2025-08-19 22:02:54,73.0,,0.0582351477312706,-1.67274467003597,0.0936662704492751,,3.822220623034233,,
,4640.0,932.0,4436.0,935.0,2505.0,2221.0,1986.0,2025-08-19 22:02:55,73.0,,0.0582076090232271,-1.67253623774239,0.0936686162746426,,4.0547221988905715,,
,4639.0,930.0,4439.0,938.0,2524.0,2240.0,1976.0,2025-08-19 22:02:56,73.0,,0.0582180911112327,-1.6726325785361,0.0936706191373927,,4.222029516266925,,
,4639.0,932.0,4437.0,938.0,2529.0,2234.0,1985.0,2025-08-19 22:02:57,73.0,,0.0582448559074355,-1.67259474979065,0.0936930708746909,,4.318500873412965,,
,4640.0,933.0,4441.0,937.0,2542.0,2243.0,1983.0,2025-08-19 22:02:58,73.0,,0.058244542505514,-1.67260510403032,0.0936908315256412,,4.340459566265737,,
,4639.0,930.0,4438.0,936.0,2543.0,2238.0,1988.0,2025-08-19 22:02:59,72.0,,0.0582368702130331,-1.67223203273108,0.0937029534358477,,4.286511231423105,,
2025-08-19 22:00:53,4640.0,929.0,4438.0,936.0,2526.0,2233.0,1979.0,2025-08-19 22:03:00,72.0,2025/08/19 10:00:53 PM,0.0582276028104216,-1.67211552259096,0.0936621487412826,,4.1577281210184145,,
,4637.0,932.0,4438.0,939.0,2525.0,2235.0,1985.0,2025-08-19 22:03:01,72.0,,0.058285592955013,-1.67200243910475,0.0936961885750408,,3.9576704431651875,,
,4638.0,933.0,4438.0,937.0,2525.0,2235.0,1978.0,2025-08-19 22:03:02,72.0,,0.0582502335017768,-1.67207417099758,0.0936768387585719,,3.6922319465586573,,
,4639.0,932.0,4441.0,936.0,2520.0,2239.0,1977.0,2025-08-19 22:03:03,72.0,,0.0582211605336582,-1.67189612972371,0.0936996502232126,,3.3693181797906644,,
,4640.0,931.0,4439.0,938.0,2521.0,2251.0,1988.0,2025-08-19 22:03:04,72.0,,0.0582739797280665,-1.67193269659955,0.0936944321217738,,2.9983872649884176,,
,4641.0,932.0,4442.0,938.0,2520.0,2253.0,1981.0,2025-08-19 22:03:05,73.0,,0.0582973833375615,-1.6717045957937,0.0936972700442875,,2.589899916519927,,
,4638.0,933.0,4443.0,939.0,2532.0,2254.0,1982.0,2025-08-19 22:03:06,73.0,,0.0582769502769086,-1.67182999138407,0.0936793667192608,,2.1547344326035125,,
,4640.0,932.0,4441.0,937.0,2527.0,2235.0,1975.0,2025-08-19 22:03:07,73.0,,0.0582519032895597,-1.67149298311898,0.093697671630949,,1.7036223767118959,,
,4641.0,933.0,4442.0,938.0,2517.0,2228.0,1980.0,2025-08-19 22:03:08,72.0,,0.0582428740506158,-1.67207568506039,0.0936791664638207,,1.2466525908474064,,
,4640.0,934.0,4447.0,940.0,2520.0,2241.0,1967.0,2025-08-19 22:03:09,72.0,,0.0582807702450496,-1.6724257618901,0.0936775116832456,,0.7928774434805238,,
,4640.0,935.0,4444.0,940.0,2522.0,2248.0,1978.0,2025-08-19 22:03:10,72.0,,0.0583400558765109,-1.67200509826105,0.0937000162641285,,0.350039055157032,,
,4641.0,935.0,4446.0,938.0,2541.0,2248.0,1986.0,2025-08-19 22:03:11,71.0,,0.0583083253843545,-1.67221645400397,0.0936939559371206,,-0.07558198015625736,,
,4642.0,934.0,4446.0,938.0,2537.0,2242.0,1985.0,2025-08-19 22:03:12,72.0,,0.0583795429407792,-1.67232327843014,0.0936935933544433,,-0.47920450260543984,,
,4643.0,934.0,4445.0,941.0,2516.0,2247.0,1983.0,2025-08-19 22:03:13,72.0,,0.0583638668853108,-1.6717044205193,0.0936947981521837,,-0.8574872138134891,,
,4644.0,936.0,4448.0,940.0,2518.0,2241.0,1985.0,2025-08-19 22:03:14,73.0,,0.058411725913802,-1.67163721301321,0.0936924662424238,,-1.2083897602856501,,
,4643.0,934.0,4448.0,940.0,2509.0,2248.0,1981.0,2025-08-19 22:03:15,73.0,,0.0583206944358267,-1.67166725967615,0.0937100654960441,,-1.5309721280431945,,
,4644.0,933.0,4450.0,941.0,2512.0,2265.0,1985.0,2025-08-19 22:03:16,74.0,,0.0583500469781884,-1.67160527340987,0.0937071482371287,,-1.8251491252744452,,
,4645.0,936.0,4451.0,941.0,2502.0,2239.0,1987.0,2025-08-19 22:03:17,74.0,,0.0583199038224045,-1.67080518558692,0.0937300323740558,,-2.091417012117126,,
,4645.0,936.0,4451.0,941.0,2519.0,2242.0,1988.0,2025-08-19 22:03:18,74.0,,0.0583097351732596,-1.67105216245214,0.0937544014713094,,-2.3305708134768746,,
,4646.0,935.0,4450.0,942.0,2525.0,2248.0,1985.0,2025-08-19 22:03:19,74.0,,0.0583879425553118,-1.67094144154961,0.0937293088944549,,-2.543432411397096,,
,4645.0,937.0,4450.0,939.0,2524.0,2248.0,1990.0,2025-08-19 22:03:20,74.0,,0.0583566589211411,-1.67106961544836,0.0937378601793921,,-2.7306098805164525,,
,4648.0,936.0,4452.0,941.0,2501.0,2264.0,1986.0,2025-08-19 22:03:21,74.0,,0.058333149422068,-1.67106202424976,0.0937463715840301,,-2.8923069664644343,,
,4647.0,937.0,4452.0,942.0,2524.0,2281.0,1990.0,2025-08-19 22:03:22,73.0,,0.0583349907519679,-1.67082953984444,0.0937482276514586,,-3.0281980608529873,,
,4651.0,938.0,4455.0,943.0,2538.0,2263.0,1987.0,2025-08-19 22:03:23,73.0,,0.0583436323745266,-1.67076096671706,0.093742844104471,,-3.1373788957109974,,
,4649.0,937.0,4456.0,941.0,2548.0,2245.0,1982.0,2025-08-19 22:03:24,73.0,,0.0583650488578872,-1.67059860396258,0.093741972887047,,-3.2183969811791266,,
,4651.0,937.0,4457.0,943.0,2528.0,2237.0,1976.0,2025-08-19 22:03:25,74.0,,0.0583407376689691,-1.671057409611,0.0937238500931805,,-3.2693589896368414,,
,4652.0,938.0,4458.0,942.0,2519.0,2223.0,1982.0,2025-08-19 22:03:26,74.0,,0.0582960169473721,-1.67105517190474,0.0937531635796246,,-3.2881052464979366,,
,4653.0,938.0,4459.0,944.0,2510.0,2236.0,1984.0,2025-08-19 22:03:27,74.0,,0.0583737817795425,-1.67123561975782,0.0937507152961039,,-3.272434681933636,,
,4650.0,938.0,4458.0,944.0,2502.0,2230.0,1985.0,2025-08-19 22:03:28,74.0,,0.0583858848288447,-1.67109698721284,0.0937578489943053,,-3.2203576000302085,,
,4652.0,937.0,4457.0,943.0,2513.0,2257.0,1979.0,2025-08-19 22:03:29,74.0,,0.058355574863268,-1.6707837371841,0.0937491745386237,,-3.1303491389663956,,
,4656.0,941.0,4462.0,945.0,2547.0,2255.0,1977.0,2025-08-19 22:03:30,73.0,,0.0583565893742908,-1.67122301904945,0.0937507701038872,,-3.001574264289966,,
,4657.0,942.0,4463.0,949.0,2526.0,2282.0,1982.0,2025-08-19 22:03:31,73.0,,0.0583738066544663,-1.67130784201068,0.0937260409557079,,-2.8340567307516507,,
,4654.0,936.0,4465.0,944.0,2530.0,2306.0,1986.0,2025-08-19 22:03:32,72.0,,0.0583660526684246,-1.67114656574001,0.0937820341441503,,-2.628770588617175,,
,4656.0,939.0,4463.0,945.0,2526.0,2301.0,1986.0,2025-08-19 22:03:33,72.0,,0.0583283440597867,-1.67154090203641,0.0937697814555276,,-2.387643260495218,,
,4656.0,941.0,4465.0,946.0,2523.0,2302.0,1981.0,2025-08-19 22:03:34,73.0,,0.0583492578400426,-1.6711829079851,0.0937253509038213,,-2.113472131518785,,
,4661.0,941.0,4469.0,946.0,2509.0,2288.0,1986.0,2025-08-19 22:03:35,73.0,,0.0583990111476952,-1.67138727824321,0.0937402397689646,,-1.8097691652520511,,
,4661.0,943.0,4468.0,948.0,2518.0,2275.0,1989.0,2025-08-19 22:03:36,73.0,,0.0583630294428007,-1.67161458444856,0.0937339185177337,,-1.480557697955622,,
,4659.0,942.0,4469.0,946.0,2518.0,2256.0,1984.0,2025-08-19 22:03:37,74.0,,0.0584024267178591,-1.67078358902354,0.0937382513796889,,-1.1301508054084926,,
,4655.0,938.0,4463.0,944.0,2511.0,2278.0,1975.0,2025-08-19 22:03:38,74.0,,0.0583393163770157,-1.67100363318087,0.0937518683279444,,-0.7629413084545145,,
,4653.0,939.0,4460.0,947.0,2500.0,2268.0,1983.0,2025-08-19 22:03:39,75.0,,0.0583524451725601,-1.67122074529741,0.0937282349080996,,-0.3832303053902638,,
,4651.0,940.0,4457.0,945.0,2502.0,2267.0,1993.0,2025-08-19 22:03:40,75.0,,0.058375646219825,-1.67116834162099,0.0937446346377308,,0.004884936422102319,,
,4647.0,939.0,4452.0,944.0,2501.0,2257.0,1989.0,2025-08-19 22:03:41,75.0,,0.058344580781903,-1.67168369537884,0.0937364076279422,,0.39755101549513877,,
,4640.0,934.0,4445.0,942.0,2498.0,2247.0,1988.0,2025-08-19 22:03:42,75.0,,0.0583416234250135,-1.67093323813461,0.0937494717361656,,0.7911231668458024,,
,4640.0,933.0,4442.0,940.0,2494.0,2238.0,1985.0,2025-08-19 22:03:43,75.0,,0.0583623807474575,-1.67130300702813,0.0937480888961291,,1.1820618154172644,,
,4632.0,932.0,4439.0,936.0,2505.0,2228.0,1990.0,2025-08-19 22:03:44,75.0,,0.0583296656781064,-1.67084178698978,0.0937543688914976,,1.5667780596951781,,
,4630.0,934.0,4435.0,938.0,2486.0,2228.0,1982.0,2025-08-19 22:03:45,75.0,,0.0582874718641309,-1.67132187064055,0.093725871438979,,1.9414541147279982,,
,4622.0,932.0,4430.0,935.0,2479.0,2233.0,1978.0,2025-08-19 22:03:46,75.0,,0.0582568757616299,-1.67153114825146,0.0937589392740577,,2.3018710566924776,,
,4619.0,929.0,4428.0,933.0,2485.0,2263.0,1981.0,2025-08-19 22:03:47,75.0,,0.0582453952365673,-1.67107576646396,0.0937373277694543,,2.6432785270510344,,
,4615.0,930.0,4424.0,934.0,2509.0,2272.0,1984.0,2025-08-19 22:03:48,76.0,,0.0583163257770855,-1.67160243112696,0.093743291422814,,2.960338411655339,,
,4613.0,927.0,4425.0,933.0,2505.0,2268.0,1987.0,2025-08-19 22:03:49,76.0,,0.0582844834133163,-1.67138194814236,0.0937351094488209,,3.2471669201843967,,
,4609.0,926.0,4421.0,930.0,2499.0,2253.0,1979.0,2025-08-19 22:03:50,76.0,,0.0582883258841434,-1.67179835153107,0.0937486873531728,,3.4974879134790746,,
,4604.0,924.0,4418.0,930.0,2528.0,2251.0,1980.0,2025-08-19 22:03:51,77.0,,0.0582591739663474,-1.67190555328075,0.0937404209431652,,3.7048962175035007,,
,4602.0,927.0,4418.0,931.0,2555.0,2260.0,1974.0,,,,0.0582737678422018,-1.67194085604094,0.093738455316095,,3.8632146082032017,,
,4599.0,925.0,4416.0,929.0,2523.0,2255.0,1976.0,,,,0.0582795858948632,-1.67163334953458,0.0937614867542399,,3.9669137877583993,,
,4601.0,925.0,4413.0,930.0,2528.0,2264.0,1977.0,,,,0.0582357992592117,-1.67148459891272,0.0937401714669735,,4.011552749320035,,
,4596.0,921.0,4412.0,928.0,2520.0,2256.0,1983.0,,,,0.058285973160164,-1.67151113545901,0.093745987229383,,3.994189331274929,,
,4596.0,922.0,4413.0,926.0,2533.0,2287.0,1981.0,,,,0.0582594598810247,-1.671434061444,0.0937430371575507,,3.9137093501726055,,
,4594.0,925.0,4413.0,930.0,2507.0,2263.0,1988.0,,,,0.0582205463450252,-1.67109833519299,0.0937476554778323,,3.7710288429656855,,
,4593.0,922.0,4414.0,929.0,2506.0,2250.0,1992.0,,,,0.0582327842520294,-1.67171963026181,0.0937619941772431,,3.5691378902588125,,
,4593.0,921.0,4414.0,927.0,2519.0,2260.0,1986.0,,,,0.0583221415016995,-1.67191402739171,0.093752497677977,,3.3129748290716092,,
,4588.0,921.0,4413.0,928.0,2505.0,2258.0,1978.0,,,,0.0582724135401482,-1.67167655459629,0.093739824512362,,3.0091432246217824,,
,4589.0,922.0,4409.0,926.0,2504.0,2247.0,1983.0,,,,0.0583695075026876,-1.67176958519076,0.0937401094064767,,2.6655062871070823,,
,4589.0,922.0,4409.0,927.0,2504.0,2257.0,1985.0,,,,0.0583548242979346,-1.6716882934722,0.0937275082441641,,2.290709785794729,,
,4589.0,922.0,4410.0,929.0,2502.0,2248.0,1980.0,,,,0.0583851388890092,-1.671779685642,0.0937725247644785,,1.8936914203042283,,
,4585.0,920.0,4409.0,928.0,2496.0,2242.0,1971.0,,,,0.0583127917127645,-1.67183737337884,0.0937426644898019,,1.4832309965350754,,
,4585.0,920.0,4409.0,927.0,2498.0,2241.0,1986.0,,,,0.0583194728692041,-1.67208366157423,0.0937164235430419,,1.0675833403076995,,
,4583.0,921.0,4410.0,924.0,2503.0,2244.0,1985.0,,,,0.0582251984916217,-1.67197880747663,0.0937408414334965,,0.6542183275547888,,
,4585.0,921.0,4411.0,928.0,2505.0,2248.0,1985.0,,,,0.0582628224700362,-1.67234598625395,0.0937353297877263,,0.24967387867555674,,
,4581.0,920.0,4409.0,926.0,2503.0,2284.0,1986.0,,,,0.058373537692767,-1.67218826407382,0.0937353223870885,,-0.14048833020518608,,
,4583.0,922.0,4408.0,924.0,2499.0,2274.0,1987.0,,,,0.0583610598475747,-1.67234175629531,0.0937363390850847,,-0.5116463242475879,,
,4583.0,923.0,4411.0,929.0,2493.0,2270.0,1993.0,,,,0.0583884217958189,-1.67244579769971,0.0937399208477345,,-0.8600288917806569,,
,4582.0,921.0,4409.0,927.0,2500.0,2277.0,1985.0,,,,0.0584023042212087,-1.67220960520376,0.0937566943367951,,-1.1826044568658312,,
,4581.0,920.0,4406.0,926.0,2509.0,2284.0,1986.0,,,,0.0583818339843011,-1.67262830064313,0.0937430828325205,,-1.4769756664134284,,
,4578.0,920.0,4406.0,925.0,2511.0,2280.0,1992.0,,,,0.0584001906561018,-1.67233034971878,0.0937358663176384,,-1.7413020381181175,,
,4580.0,922.0,4406.0,926.0,2514.0,2282.0,1988.0,,,,0.0583242772138009,-1.67270462538109,0.0937394430459959,,-1.9742650273857778,,
,4578.0,919.0,4405.0,924.0,2513.0,2281.0,1992.0,,,,0.0583408940068863,-1.67278620609958,0.0937073794506149,,-2.1750802839500736,,
,4575.0,918.0,4409.0,925.0,2514.0,2265.0,1990.0,,,,0.0582681056014272,-1.67316026239365,0.0936935930435153,,-2.3435515734194974,,
,4575.0,921.0,4406.0,925.0,2500.0,2257.0,1986.0,,,,0.0582442211865205,-1.67335947399873,0.0937069702161683,,-2.4801509103477986,,
,4575.0,921.0,4407.0,927.0,2504.0,2260.0,1987.0,,,,0.0582121210862175,-1.67385647497982,0.0936810618087666,,-2.586101312821756,,
,4576.0,919.0,4409.0,924.0,2497.0,2249.0,1985.0,,,,0.0581828372142109,-1.67429520728662,0.0936661953195305,,-2.6634340107974803,,
,4573.0,920.0,4406.0,924.0,2495.0,2246.0,1983.0,,,,0.0581600118964873,-1.67485701400055,0.0936726418089716,,-2.7149925024124233,,
,4569.0,917.0,4402.0,923.0,2478.0,2234.0,1988.0,,,,0.0580844012229874,-1.67550834518774,0.0936443329368198,,-2.744362084120728,,
,4568.0,916.0,4403.0,925.0,2488.0,2237.0,1989.0,,,,0.058008664821046,-1.67584056550488,0.0936243873259836,,-2.7557144550996813,,
,4569.0,920.0,4403.0,926.0,2492.0,2263.0,1981.0,,,,0.0579957529790832,-1.67625494795139,0.0935893632775725,,-2.75357064864877,,
,4568.0,916.0,4402.0,924.0,2493.0,2275.0,1981.0,,,,0.0579242282684004,-1.67708483570623,0.0935975660850501,,-2.7424991595941286,,
,4568.0,916.0,4403.0,924.0,2491.0,2285.0,1979.0,,,,0.0578984632034545,-1.67754968723709,0.0935674736928442,,-2.726776910246504,,
,4565.0,916.0,4400.0,923.0,2494.0,2263.0,1972.0,,,,0.0578562131856984,-1.67772619797959,0.0935401521555233,,-2.7100466416366724,,
,4568.0,917.0,4403.0,925.0,2474.0,2263.0,1984.0,,,,0.0578074206355869,-1.6781470893967,0.0935332899658923,,-2.6950050042956786,,
,4567.0,918.0,4404.0,925.0,2494.0,2265.0,1997.0,,,,0.0577967849141326,-1.67864318852479,0.0935304642559139,,-2.68315198592205,,
,4566.0,919.0,4402.0,924.0,2493.0,2276.0,2004.0,,,,0.0576953620505588,-1.67893621639223,0.0934960808755825,,-2.674625821135819,,
,4566.0,914.0,4402.0,923.0,2504.0,2264.0,2000.0,,,,0.0577195060485456,-1.67891656940218,0.0934861004745608,,-2.668139559005697,,
,4566.0,916.0,4403.0,922.0,2491.0,2263.0,1993.0,,,,0.0577598289645599,-1.67929991781847,0.0934812058947742,,-2.6610270544313246,,
,4565.0,917.0,4404.0,924.0,2490.0,2256.0,1979.0,,,,0.057789179452575,-1.67921940095648,0.0934959394054562,,-2.6493978808294387,,
,4566.0,918.0,4405.0,924.0,2489.0,2254.0,1985.0,,,,0.0577235914647142,-1.67892042573485,0.0934999803367156,,-2.6283926261953905,,
,4567.0,919.0,4408.0,924.0,2487.0,2255.0,1995.0,,,,0.0578080534961282,-1.67837963998226,0.0935035455118408,,-2.5925220098676847,,
,4564.0,917.0,4404.0,923.0,2497.0,2259.0,1994.0,,,,0.057788854117247,-1.67828861855108,0.0935320609184244,,-2.5360651415165547,,
,4568.0,918.0,4407.0,924.0,2491.0,2248.0,1988.0,,,,0.057840559037709,-1.67852130702979,0.0935345323516658,,-2.453494634372828,,
,4567.0,918.0,4408.0,926.0,2483.0,2242.0,1989.0,,,,0.0578304505022662,-1.67783191459837,0.0935551127490027,,-2.3398907839653997,,
,4570.0,919.0,4407.0,926.0,2491.0,2249.0,1989.0,,,,0.0578549858420865,-1.67836515354313,0.0935439592842888,,-2.1913058034251423,,
,4571.0,917.0,4406.0,922.0,2504.0,2258.0,1991.0,,,,0.0578706805345605,-1.67750811136253,0.0935731116749714,,-2.0050438222999367,,
,4568.0,921.0,4412.0,926.0,2503.0,2276.0,1988.0,,,,0.0578756588372556,-1.67782713693873,0.0935498122665009,,-1.7798331218978338,,
,4570.0,922.0,4411.0,926.0,2500.0,2269.0,1993.0,,,,0.057882040082846,-1.67802811061757,0.0935553313453279,,-1.5158821608106043,,
,4569.0,921.0,4414.0,929.0,2487.0,2271.0,1992.0,,,,0.0578337013237587,-1.67781686648315,0.0935387507249417,,-1.2148272803611617,,
,4572.0,919.0,4414.0,926.0,2487.0,2268.0,1987.0,,,,0.0578884661321839,-1.67801223815182,0.0935307619106505,,-0.8795942212751782,,
,4573.0,919.0,4413.0,926.0,2495.0,2250.0,1988.0,,,,0.0578548869727447,-1.67867201778935,0.0934861040092616,,-0.5142051126254142,,
,4573.0,919.0,4417.0,928.0,2496.0,2241.0,1999.0,,,,0.0577339814168793,-1.67902965463,0.093502686762136,,-0.12356607447169184,,
,4575.0,921.0,4419.0,928.0,2491.0,2242.0,2000.0,,,,0.0577498558789643,-1.678681833825,0.0935309097692098,,0.2867320799455363,,
,4576.0,924.0,4419.0,930.0,2483.0,2245.0,1988.0,,,,0.0576762036911798,-1.6792709641402,0.0935266119127312,,0.7105754821112399,,
,4575.0,923.0,4419.0,928.0,2473.0,2270.0,1988.0,,,,0.0577289893896754,-1.67927057769616,0.0934746979519522,,1.1414382886501115,,
,4576.0,921.0,4419.0,928.0,2488.0,2269.0,1986.0,,,,0.0576662033295958,-1.6796199006118,0.0934451427593185,,1.5724437573471535,,
,4578.0,922.0,4420.0,930.0,2491.0,2287.0,1992.0,,,,0.0576895183103398,-1.6798268208164,0.0934611415376745,,1.9963889783962505,,
,4578.0,923.0,4424.0,931.0,2489.0,2265.0,1996.0,,,,0.0577557288595875,-1.68036322303733,0.0934648850720133,,2.4057575294388562,,
,4579.0,923.0,4421.0,931.0,2469.0,2265.0,2000.0,,,,0.0577212027622067,-1.68022851317373,0.0934654124790947,,2.7927504205211604,,
,4580.0,922.0,4423.0,928.0,2474.0,2250.0,1990.0,,,,0.0577100723304746,-1.68077688504191,0.093430134513331,,3.149365796887887,,
,4581.0,923.0,4426.0,930.0,2481.0,2287.0,1988.0,,,,0.0577015342187296,-1.68062339792676,0.093447808913403,,3.4675515869524016,,
,4583.0,924.0,4426.0,931.0,2490.0,2276.0,1989.0,,,,0.057686754260308,-1.68090462788071,0.0934353697876497,,3.7394435876187324,,
,4582.0,926.0,4427.0,932.0,2493.0,2275.0,1979.0,,,,0.0577055439247461,-1.68066270702019,0.0934250475734224,,3.9576863533220563,,
,4585.0,926.0,4427.0,932.0,2495.0,2261.0,1985.0,,,,0.057732491445232,-1.68099478013438,0.0934201891477441,,4.115818101979076,,
,4586.0,927.0,4428.0,933.0,2495.0,2270.0,1986.0,,,,0.0576991281820191,-1.68111900100719,0.0934114141966819,,4.2086860667871475,,
,4585.0,925.0,4432.0,931.0,2486.0,2243.0,1992.0,,,,0.0577226445539827,-1.68121640679117,0.0934413968198732,,4.232847518774225,,
,4589.0,925.0,4431.0,937.0,2498.0,2240.0,1995.0,,,,0.0576307511428361,-1.6816466034131,0.093416402948877,,4.18690604193924,,
,4587.0,925.0,4433.0,932.0,2493.0,2260.0,1977.0,,,,0.0575706710881957,-1.68188870510021,0.0933739979886623,,4.071734202201783,,
,4589.0,924.0,4433.0,932.0,2490.0,2249.0,1984.0,,,,0.0575227116831312,-1.68320827062385,0.0933622789561515,,3.890543402888992,,
,4590.0,926.0,4434.0,934.0,2489.0,2265.0,1988.0,,,,0.0575218582726384,-1.68375287472792,0.0933395417957759,,3.6487788935390975,,
,4591.0,926.0,4437.0,935.0,2476.0,2260.0,1988.0,,,,0.0574697529799422,-1.68350874027832,0.0933266886133027,,3.3538400664194414,,
,4591.0,925.0,4436.0,934.0,2462.0,2252.0,1985.0,,,,0.0573823377561491,-1.68414431146015,0.0933140085513882,,3.0146492302114485,,
,4592.0,926.0,4441.0,935.0,2459.0,2250.0,2001.0,,,,0.0573417035386806,-1.68435567367314,0.0932622563825057,,2.641111589705895,,
,4596.0,929.0,4442.0,936.0,2480.0,2257.0,1999.0,,,,0.0573170835914982,-1.68525074735789,0.0932474195579548,,2.243521799322415,,
2025-08-19 22:00:54,4596.0,929.0,4441.0,937.0,2483.0,2266.0,1996.0,,,2025/08/19 10:00:54 PM,0.0572256451084313,-1.68587202243757,0.0932387873217698,,1.8319764811594852,,
,4597.0,928.0,4441.0,938.0,2477.0,2266.0,2017.0,,,,0.0571992670604065,-1.68626655236004,0.0932166748094758,,1.415847585232437,,
,4595.0,925.0,4440.0,934.0,2487.0,2313.0,1994.0,,,,0.0571711934642626,-1.68718449999618,0.093184832824836,,1.0033601420299412,,
,4599.0,930.0,4445.0,938.0,2488.0,2281.0,1987.0,,,,0.0571257450073335,-1.68776270026746,0.0931864603843435,,0.6013026090924476,,
,4602.0,929.0,4446.0,938.0,2496.0,2266.0,2002.0,,,,0.057140627705724,-1.68798214160441,0.0931591301149333,,0.21488160206899307,,
,4602.0,930.0,4447.0,939.0,2491.0,2256.0,2006.0,,,,0.0570791828254379,-1.68810010213374,0.0931493327787016,,-0.1522823258302058,,
,4603.0,930.0,4448.0,938.0,2478.0,2242.0,1995.0,,,,0.0570787758599364,-1.68770797040822,0.0931621729177187,,-0.49803363110963556,,
,4606.0,932.0,4451.0,939.0,2487.0,2272.0,1995.0,,,,0.0570862680650463,-1.68872599856385,0.0931478431571322,,-0.821460433246028,,
,4605.0,931.0,4451.0,942.0,2474.0,2263.0,1996.0,,,,0.0571369797485036,-1.6884259267717,0.0931533921609945,,-1.122603760531395,,
,4607.0,933.0,4453.0,940.0,2470.0,2267.0,1986.0,,,,0.0571471022572502,-1.68816281920442,0.0931554360414085,,-1.4021309413321614,,
,4608.0,930.0,4454.0,939.0,2487.0,2270.0,1979.0,,,,0.057092640205971,-1.68835282749696,0.0931263375580998,,-1.6610062000622803,,
,4608.0,931.0,4456.0,940.0,2482.0,2284.0,1992.0,,,,0.0571397035121834,-1.68848818268633,0.0931375566679288,,-1.9001881035238575,,
,4612.0,933.0,4457.0,942.0,2474.0,2273.0,1988.0,,,,0.0571372453825153,-1.68856868896409,0.0931650141393171,,-2.1203776579121305,,
,4612.0,933.0,4459.0,943.0,2466.0,2257.0,1986.0,,,,0.0570720625082041,-1.6878569135604,0.0931751478461764,,-2.321833267382817,,
,4612.0,932.0,4461.0,942.0,2491.0,2262.0,1986.0,,,,0.0570538043237528,-1.68740290279444,0.093186455819017,,-2.504260280570497,,
,4614.0,933.0,4461.0,943.0,2480.0,2267.0,1991.0,,,,0.0570818667941406,-1.687594136811,0.0931655989333371,,-2.6667745467196204,,
,4616.0,933.0,4463.0,944.0,2482.0,2273.0,1981.0,,,,0.0571304700624687,-1.68747491086629,0.0931782225445982,,-2.8079325073406785,,
,4620.0,938.0,4465.0,942.0,2483.0,2279.0,1996.0,,,,0.0570942822123309,-1.68719729946194,0.0931750650834542,,-2.9258157883392855,,
,4621.0,938.0,4468.0,945.0,2476.0,2284.0,2002.0,,,,0.0571355209949948,-1.68692525166157,0.0931763168079787,,-3.018156133881311,,
,4620.0,936.0,4467.0,945.0,2473.0,2301.0,1996.0,,,,0.0571162797011327,-1.68777317597969,0.0931699146271575,,-3.0824861605413134,,
,4623.0,937.0,4470.0,948.0,2489.0,2279.0,1994.0,,,,0.0571882134219204,-1.68715899762148,0.093162687237363,,-3.11630195864467,,
,4625.0,937.0,4470.0,947.0,2478.0,2277.0,1979.0,,,,0.0571317660190132,-1.68656748839562,0.0931840283775511,,-3.1172245247556147,,
,4623.0,935.0,4469.0,946.0,2473.0,2283.0,1978.0,,,,0.0571759532201739,-1.68663467645312,0.0931995346207507,,-3.0831482953783786,,
,4619.0,935.0,4467.0,944.0,2483.0,2271.0,1981.0,,,,0.0571816739678983,-1.68591998369319,0.0931888550889977,,-3.0123668345186454,,
,4619.0,933.0,4462.0,946.0,2490.0,2275.0,1969.0,,,,0.0571965477302219,-1.68583322684899,0.093170859752708,,-2.9036682452759104,,
,4616.0,933.0,4456.0,942.0,2487.0,2281.0,1989.0,,,,0.0572108669159035,-1.68615275510345,0.0931982139852112,,-2.7563963318449134,,
,4615.0,933.0,4457.0,941.0,2469.0,2287.0,1995.0,,,,0.0572205582588794,-1.68617693733999,0.0932213084996292,,-2.5704780104991416,,
,4608.0,931.0,4450.0,941.0,2473.0,2272.0,1993.0,,,,0.0572971833373572,-1.68540865613639,0.0932201959510421,,-2.346422713197548,,
,4606.0,927.0,4444.0,938.0,2479.0,2285.0,1995.0,,,,0.05728312080513,-1.68511199483513,0.0932259123691657,,-2.0853047357572754,,
,4600.0,931.0,4440.0,940.0,2482.0,2275.0,2000.0,,,,0.0573468164951496,-1.6849194704523,0.0932164176241964,,-1.7887432753417813,,
,4596.0,929.0,4439.0,936.0,2484.0,2274.0,1995.0,,,,0.057346485777313,-1.68500870499171,0.0932420180005626,,-1.45889574839434,,
,4592.0,927.0,4435.0,936.0,2478.0,2275.0,1987.0,,,,0.0574000795025799,-1.68467716677886,0.0932269316112053,,-1.0984768675620682,,
,4586.0,927.0,4430.0,934.0,2470.0,2275.0,1989.0,,,,0.0573558954009605,-1.68416097141945,0.0932638266152471,,-0.7108090106146953,,
,4583.0,924.0,4425.0,932.0,2471.0,2286.0,1989.0,,,,0.0573500668558146,-1.68435525078244,0.0932571013657486,,-0.29990011917655757,,
,4582.0,923.0,4425.0,933.0,2458.0,2293.0,1994.0,,,,0.05740294942948,-1.68361376128181,0.0932564955735786,,0.12946393391329955,,
,4575.0,921.0,4420.0,931.0,2463.0,2304.0,1991.0,,,,0.0574149761868743,-1.68352857082112,0.0932571584566693,,0.5716326842888235,,
,4572.0,922.0,4418.0,929.0,2491.0,2309.0,1987.0,,,,0.0574920754857675,-1.68361785080484,0.0932516590844397,,1.0200339802930358,,
,4571.0,920.0,4414.0,928.0,2509.0,2298.0,1995.0,,,,0.0574690074251064,-1.68320601874628,0.0932873050613975,,1.4671702815860588,,
,4569.0,919.0,4417.0,930.0,2476.0,2258.0,1986.0,,,,0.0574027944861793,-1.68391698466719,0.093301326544426,,1.9046887169447417,,
,4567.0,920.0,4415.0,929.0,2472.0,2299.0,1988.0,,,,0.0574476756382805,-1.68337220723513,0.0932899779385551,,2.3235388610726178,,
,4566.0,920.0,4415.0,929.0,2491.0,2304.0,1988.0,,,,0.0574453062701911,-1.68285247549852,0.0932937385576207,,2.714223476100909,,
,4566.0,920.0,4413.0,930.0,2484.0,2287.0,1981.0,,,,0.0575079300803174,-1.68290955134582,0.09331916953238,,3.0671372149375213,,
,4565.0,918.0,4415.0,927.0,2479.0,2276.0,1993.0,,,,0.057486612510023,-1.68277817341606,0.0933360187555959,,3.3729774620329898,,
,4567.0,919.0,4414.0,927.0,2491.0,2272.0,1986.0,,,,0.0575324192076034,-1.68256278949964,0.0933418846360016,,3.6232012444670207,,
,4563.0,919.0,4413.0,928.0,2500.0,2267.0,1980.0,,,,0.0575020036259305,-1.68266600966945,0.0933016857636043,,3.810493714083696,,
,4563.0,918.0,4414.0,925.0,2498.0,2279.0,1980.0,,,,0.0575169890183143,-1.68287756508625,0.0933013333673277,,3.929208213883663,,
,4560.0,918.0,4412.0,928.0,2477.0,2278.0,1992.0,,,,0.0574655616872953,-1.68297630057026,0.0933055632770611,,3.97573630374684,,
,4560.0,919.0,4412.0,928.0,2475.0,2270.0,1979.0,,,,0.0574802753608592,-1.68304579150432,0.0932967572643577,,3.948768979933178,,
,4558.0,914.0,4410.0,926.0,2470.0,2263.0,1983.0,,,,0.0574304798092305,-1.68319615887012,0.0932762648800662,,3.849418094396154,,
,4558.0,915.0,4410.0,923.0,2472.0,2249.0,1999.0,,,,0.0574343362821078,-1.68393604445374,0.0932655513894557,,3.6811796634179235,,
,4557.0,916.0,4411.0,925.0,2481.0,2281.0,1984.0,,,,0.057361098631639,-1.68401182682273,0.0932639916237778,,3.449737396137942,,
,4558.0,916.0,4410.0,925.0,2488.0,2277.0,1994.0,,,,0.0573777588139907,-1.6850063769192,0.093251210597502,,3.1626230337904495,,
,4555.0,915.0,4410.0,926.0,2470.0,2247.0,1997.0,,,,0.0572901291360421,-1.68548466782647,0.0932337957560454,,2.828766611110065,,
,4554.0,916.0,4411.0,925.0,2459.0,2250.0,1997.0,,,,0.0572862542342609,-1.6854998644798,0.0932040781486043,,2.4579812524634748,,
,4554.0,913.0,4408.0,924.0,2479.0,2286.0,1996.0,,,,0.0572104605930312,-1.68574533727652,0.0932052806642002,,2.0604315120625385,,
,4554.0,914.0,4410.0,924.0,2493.0,2271.0,1996.0,,,,0.0571123917798653,-1.68646117955408,0.0931846788050113,,1.6461312680654243,,
,4553.0,916.0,4412.0,925.0,2495.0,2281.0,1990.0,,,,0.0570417637120967,-1.6865580173636,0.0931705027626293,,1.2245082398321905,,
,4554.0,913.0,4409.0,925.0,2487.0,2283.0,1987.0,,,,0.0571061956460493,-1.68753252321972,0.0931586808276271,,0.8040599076374231,,
,4553.0,913.0,4409.0,923.0,2488.0,2286.0,1992.0,,,,0.0570283239798149,-1.688113398578,0.0931251452846255,,0.39211278473840616,,
,4553.0,915.0,4410.0,923.0,2490.0,2284.0,1992.0,,,,0.0570454505723397,-1.68810823304497,0.0931487202590278,,-0.005314204266455735,,
,4554.0,917.0,4408.0,924.0,2484.0,2277.0,1996.0,,,,0.0570251214300603,-1.68787549509112,0.0931590160778255,,-0.38355000470081335,,
,4552.0,915.0,4410.0,925.0,2488.0,2277.0,1993.0,,,,0.0570500934444525,-1.68795149177786,0.0931645248439657,,-0.7392289989722463,,
,4552.0,917.0,4411.0,926.0,2484.0,2281.0,1994.0,,,,0.0570662031749858,-1.68774414707895,0.0931671755516307,,-1.070183169044414,,
,4553.0,914.0,4413.0,924.0,2497.0,2296.0,1994.0,,,,0.0570843014000926,-1.68726386013397,0.0931696884022093,,-1.375287968020716,,
,4551.0,917.0,4410.0,925.0,2483.0,2287.0,1989.0,,,,0.0570925246398703,-1.68709171332587,0.0932062173316385,,-1.654280869163598,,
,4551.0,915.0,4408.0,926.0,2476.0,2276.0,1992.0,,,,0.057197372911581,-1.68640498184911,0.093221960525203,,-1.9075693337097945,,
,4552.0,912.0,4407.0,924.0,2489.0,2264.0,1993.0,,,,0.0571703366543646,-1.68600312742973,0.0932130136646809,,-2.1360408925344134,,
,4546.0,910.0,4406.0,921.0,2466.0,2257.0,1996.0,,,,0.057208026310627,-1.68585442369671,0.0932479067885972,,-2.3408830946221433,,
,4548.0,912.0,4409.0,922.0,2477.0,2260.0,2001.0,,,,0.0572936170340375,-1.68523384673929,0.0932459709590341,,-2.5234166651965824,,
,4547.0,914.0,4408.0,924.0,2468.0,2252.0,2001.0,,,,0.0572688470905047,-1.68527724452479,0.093271099223926,,-2.6849426219992703,,
,4547.0,912.0,4407.0,925.0,2458.0,2255.0,1997.0,,,,0.0573123656210879,-1.68478166352409,0.0932476808491863,,-2.8266037361675678,,
,4546.0,912.0,4410.0,923.0,2470.0,2269.0,2001.0,,,,0.057298298673463,-1.6841660509306,0.0932705041541389,,-2.949262025765849,,
,4547.0,912.0,4408.0,923.0,2462.0,2263.0,1980.0,,,,0.0573193501285522,-1.68420734642337,0.0932855599718704,,-3.053395944707269,,
,4546.0,911.0,4409.0,924.0,2457.0,2269.0,1992.0,,,,0.0573522728953634,-1.6841107719104,0.0932663578288451,,-3.139022750188209,,
,4545.0,912.0,4407.0,924.0,2454.0,2267.0,1995.0,,,,0.0573672035085433,-1.6841516744385,0.0932951929172635,,-3.2056526732957895,,
,4546.0,913.0,4409.0,924.0,2469.0,2273.0,1993.0,,,,0.0573549065698698,-1.68393753563601,0.0932663395338552,,-3.2522816244004034,,
,4544.0,913.0,4411.0,923.0,2471.0,2283.0,1982.0,,,,0.0573776378945554,-1.6842158233411,0.0932955892259929,,-3.2774279595265168,,
,4547.0,911.0,4409.0,926.0,2467.0,2273.0,1990.0,,,,0.0573044068442016,-1.68431787715275,0.0932680714047423,,-3.2792161615883297,,
,4548.0,912.0,4412.0,921.0,2460.0,2261.0,2000.0,,,,0.057364813930146,-1.6839500302273,0.0932591330176145,,-3.2555062400074024,,
,4547.0,912.0,4409.0,923.0,2469.0,2252.0,2003.0,,,,0.0573902290293714,-1.68418733165389,0.0932572266628489,,-3.204062638237586,,
,4548.0,911.0,4412.0,923.0,2475.0,2273.0,2011.0,,,,0.0573232361572432,-1.68448740236485,0.0932746474408957,,-3.1227511696418886,,
,4549.0,913.0,4413.0,924.0,2485.0,2285.0,2000.0,,,,0.0572823046376205,-1.68459489024053,0.0932575750302135,,-3.0097478513023965,,
,4549.0,914.0,4414.0,925.0,2497.0,2282.0,2000.0,,,,0.0572433325834278,-1.68496218097353,0.093284011331901,,-2.8637403235861543,,
,4553.0,914.0,4413.0,926.0,2512.0,2270.0,1996.0,,,,0.0572496994807817,-1.6851216751415,0.0932563266302312,,-2.684101462734785,,
,4552.0,915.0,4415.0,926.0,2495.0,2257.0,1994.0,,,,0.0572191439439667,-1.68543927234201,0.0932469457697447,,-2.4710161545955533,,
,4552.0,914.0,4417.0,926.0,2465.0,2273.0,1991.0,,,,0.0572310204695695,-1.68543173915589,0.0932407565530765,,-2.225546155903019,,
,4553.0,916.0,4420.0,928.0,2454.0,2256.0,1991.0,,,,0.0571889895317845,-1.68551671767833,0.0932333304967765,,-1.949624511267141,,
,4555.0,918.0,4422.0,929.0,2460.0,2268.0,1993.0,,,,0.0572237609850651,-1.68590335012102,0.0932492090328164,,-1.645979598137737,,
,4556.0,914.0,4420.0,926.0,2479.0,2281.0,2012.0,,,,0.0571205991633779,-1.68583348390017,0.093219635631294,,-1.3179982044313527,,
,4553.0,915.0,4421.0,927.0,2477.0,2254.0,1988.0,,,,0.0571600733734918,-1.68564310415249,0.0932278365751223,,-0.9695452848769179,,
,4559.0,915.0,4425.0,928.0,2480.0,2270.0,1986.0,,,,0.0571801624378154,-1.68550847070593,0.0932242447980377,,-0.6047636625543331,,
,4557.0,916.0,4424.0,929.0,2486.0,2273.0,1991.0,,,,0.0572204384815449,-1.68587977964261,0.0932269715950659,,-0.22787918472592142,,
,4560.0,915.0,4426.0,930.0,2472.0,2257.0,1979.0,,,,0.0572038342327915,-1.68517377898077,0.0932394056551223,,0.15696432092801862,,
,4560.0,915.0,4422.0,929.0,2490.0,2269.0,1988.0,,,,0.0571668514643322,-1.68508915034225,0.0932433874956028,,0.5458200729697272,,
,4561.0,916.0,4425.0,929.0,2487.0,2277.0,1992.0,,,,0.0571817073630959,-1.68491025588867,0.0932400998143511,,0.9349895676492288,,
,4562.0,916.0,4426.0,930.0,2493.0,2287.0,1995.0,,,,0.0572064292712084,-1.68511521273083,0.0932242932781621,,1.3210042809813987,,
,4565.0,917.0,4430.0,929.0,2497.0,2299.0,1997.0,,,,0.0571639768394543,-1.68498632676919,0.0931946816516147,,1.70054105716706,,
,4561.0,916.0,4427.0,929.0,2494.0,2294.0,1985.0,,,,0.0570973154648874,-1.68561208289414,0.0932078903772106,,2.070283516592291,,
,4565.0,918.0,4429.0,931.0,2491.0,2270.0,1988.0,,,,0.0571030675753348,-1.68588212208812,0.0932054489959859,,2.4267502779445227,,
,4566.0,915.0,4433.0,930.0,2487.0,2270.0,1986.0,,,,0.0571330347770494,-1.68566321139072,0.0932322565781833,,2.766117713772043,,
,4567.0,918.0,4433.0,931.0,2493.0,2285.0,1996.0,,,,0.0571734577969334,-1.68588883533709,0.0932420497690292,,3.084069478477307,,
,4571.0,918.0,4438.0,932.0,2483.0,2274.0,1992.0,,,,0.0571211687793141,-1.68578903001218,0.0932349812571484,,3.3757062591661082,,
,4572.0,919.0,4434.0,936.0,2480.0,2279.0,2003.0,,,,0.0571517674990814,-1.68594117756355,0.0931970855057251,,3.635546104171945,,
,4572.0,922.0,4438.0,933.0,2478.0,2284.0,1993.0,,,,0.0571546715093631,-1.68588658700126,0.0932183462779526,,3.857637516142476,,
,4572.0,922.0,4439.0,933.0,2480.0,2274.0,1983.0,,,,0.057139815925377,-1.68593678169114,0.0932234370471252,,4.035794387218476,,
,4573.0,920.0,4435.0,933.0,2484.0,2293.0,1995.0,,,,0.0571482315825873,-1.68568475905373,0.0931881460965755,,4.16394512839078,,
,4574.0,920.0,4439.0,934.0,2480.0,2267.0,1999.0,,,,0.0571397700470937,-1.68588274441589,0.0931977307436585,,4.236570196778919,,
,4578.0,923.0,4443.0,937.0,2493.0,2272.0,1996.0,,,,0.0571422835875173,-1.68595032340629,0.0932170100206915,,4.249185316201651,,
,4579.0,922.0,4444.0,935.0,2498.0,2287.0,1986.0,,,,0.0571354475152003,-1.68575117737746,0.0932360418516809,,4.1988149912039425,,
,4577.0,922.0,4444.0,938.0,2493.0,2285.0,1986.0,,,,0.0571667551965288,-1.68591789679945,0.0932125723202958,,4.084395400810608,,
,4578.0,920.0,4439.0,933.0,2495.0,2289.0,1990.0,,,,0.0571844254119555,-1.68557370163973,0.0932224948493194,,3.907049622684119,,
,4580.0,920.0,4446.0,935.0,2488.0,2269.0,2001.0,,,,0.0571843123780546,-1.68562058008918,0.0932164338286188,,3.6701918552335884,,
,4582.0,922.0,4447.0,937.0,2483.0,2277.0,1995.0,,,,0.0571749831248389,-1.68537946866068,0.0932272253238124,,3.3794389848624635,,
,4584.0,921.0,4449.0,938.0,2484.0,2282.0,1994.0,,,,0.0572090683292363,-1.68555596549588,0.0932343183572945,,3.0423333976491285,,
,4584.0,924.0,4448.0,937.0,2492.0,2285.0,1999.0,,,,0.0571999056978905,-1.68590021222902,0.0932225767002889,,2.6679052551794005,,
,4586.0,923.0,4448.0,936.0,2484.0,2275.0,1993.0,,,,0.0571892056779552,-1.6865573682579,0.0931944802710185,,2.2661211444046923,,
,4588.0,925.0,4451.0,938.0,2493.0,2295.0,1990.0,,,,0.0572256119062371,-1.6862870783488,0.0932358006275791,,1.8472766541191734,,
,4590.0,924.0,4453.0,939.0,2502.0,2290.0,1996.0,,,,0.0572000142944435,-1.68533156116198,0.093221298257886,,1.4213927432145288,,
,4591.0,923.0,4453.0,939.0,2502.0,2281.0,1992.0,,,,0.0572066515896725,-1.68556052822542,0.09325489138544,,0.9976708023873085,,
,4591.0,923.0,4454.0,938.0,2485.0,2268.0,1996.0,,,,0.0571925569982007,-1.68547396402868,0.0932118174551648,,0.5840506646726988,,
,4595.0,925.0,4459.0,939.0,2488.0,2286.0,1993.0,,,,0.0572176713785559,-1.68536766710729,0.0932375235012972,,0.18690148137550103,,
,4595.0,927.0,4457.0,942.0,2482.0,2299.0,1997.0,,,,0.0571873331313212,-1.68540092904607,0.0932110631650685,,-0.1891402816127452,,
,4594.0,926.0,4460.0,940.0,2477.0,2291.0,1997.0,,,,0.0571744540192329,-1.6853487611271,0.0932482460363066,,-0.5411862329598686,,
,4592.0,924.0,4459.0,939.0,2487.0,2270.0,1995.0,,,,0.0572239166990128,-1.68582216109888,0.0932343658797901,,-0.8679776879333296,,
,4598.0,927.0,4460.0,940.0,2474.0,2291.0,1998.0,,,,0.057260713696149,-1.68506826912239,0.0932333219750413,,-1.1696556025598661,,
,4599.0,926.0,4463.0,943.0,2487.0,2294.0,1997.0,,,,0.0572319050073792,-1.68444810409477,0.0932198023708535,,-1.447446768922335,,
,4605.0,928.0,4465.0,942.0,2481.0,2296.0,1994.0,,,,0.0572074436337835,-1.68475839466313,0.0932318006652373,,-1.7032971722213748,,
,4602.0,928.0,4467.0,943.0,2486.0,2284.0,1995.0,,,,0.0572243165445838,-1.6847853601031,0.0932693388292579,,-1.9394840714766912,,
2025-08-19 22:00:55,4606.0,926.0,4469.0,942.0,2485.0,2303.0,1987.0,,,2025/08/19 10:00:55 PM,0.0572504243861386,-1.68495966440415,0.0932337182114191,,-2.1582374044054276,,
,4609.0,930.0,4472.0,946.0,2466.0,2284.0,1992.0,,,,0.0571987311869384,-1.68480300243408,0.0932427140719272,,-2.3613988427225316,,
,4609.0,928.0,4471.0,945.0,2463.0,2273.0,1997.0,,,,0.0572440303464532,-1.68487887731083,0.0932581720074369,,-2.550143187547356,,
,4611.0,930.0,4476.0,947.0,2475.0,2251.0,1992.0,,,,0.0571961217401472,-1.68444715416154,0.0932509962391001,,-2.724781669254858,,
,4614.0,929.0,4472.0,945.0,2475.0,2235.0,1995.0,,,,0.0572142564462875,-1.68521794654634,0.0932521244030815,,-2.8846601417753206,,
,4615.0,931.0,4475.0,946.0,2471.0,2239.0,1993.0,,,,0.057228132540657,-1.68497342282634,0.0932316235036895,,-3.028157369185938,,
,4616.0,931.0,4478.0,949.0,2485.0,2239.0,1995.0,,,,0.0572199192397243,-1.68453146529043,0.0932436024667478,,-3.152780027073911,,
,4617.0,933.0,4480.0,949.0,2478.0,2250.0,1996.0,,,,0.0572799024047637,-1.68455024856984,0.0932358893917195,,-3.255342486399805,,
,4618.0,929.0,4479.0,947.0,2475.0,2265.0,1988.0,,,,0.057257676849954,-1.68450084096871,0.0932502642260404,,-3.332212086623274,,
,4619.0,931.0,4483.0,947.0,2477.0,2291.0,1991.0,,,,0.0572806908923209,-1.68433637484102,0.0932868468202132,,-3.379595479167715,,
,4620.0,932.0,4479.0,949.0,2487.0,2299.0,2004.0,,,,0.0573228361056277,-1.68429244851262,0.0932736416787865,,-3.3938390639998732,,
,4622.0,935.0,4483.0,950.0,2486.0,2282.0,2005.0,,,,0.0572992913038362,-1.68427483768196,0.0932694805340278,,-3.3717162411725856,,
,4623.0,932.0,4484.0,950.0,2476.0,2286.0,1999.0,,,,0.0572634158089896,-1.68390879733891,0.0932836174835531,,-3.3106758198320443,,
,4623.0,932.0,4482.0,949.0,2479.0,2276.0,2001.0,,,,0.0571819484670535,-1.68380305003961,0.0932849490202182,,-3.2090295277242773,,
,4624.0,933.0,4483.0,952.0,2472.0,2272.0,1980.0,,,,0.0572298451968702,-1.6837845323495,0.093282412346471,,-3.0660624700446113,,
,4621.0,933.0,4479.0,952.0,2466.0,2282.0,1979.0,,,,0.0572292091387424,-1.68367945150496,0.0933027682716756,,-2.882058757087048,,
,4615.0,934.0,4471.0,946.0,2481.0,2287.0,2004.0,,,,0.0572483524212294,-1.6829635072388,0.0933026739423115,,-2.658244925546137,,
,4610.0,931.0,4468.0,947.0,2476.0,2273.0,1989.0,,,,0.0572912752467685,-1.68345450258452,0.0932808998220461,,-2.396664983661483,,
,4610.0,931.0,4463.0,944.0,2480.0,2260.0,1994.0,,,,0.0572828576761439,-1.68390795985209,0.093288035032657,,-2.100011008680878,,
,4604.0,926.0,4457.0,943.0,2480.0,2260.0,1992.0,,,,0.0572213047180797,-1.68430510122876,0.0932890534233784,,-1.771440099201493,,
,4602.0,923.0,4453.0,943.0,2476.0,2260.0,1988.0,,,,0.057229741232005,-1.68491939883342,0.0932566144139451,,-1.4144104164286864,,
,4595.0,923.0,4445.0,940.0,2478.0,2231.0,1990.0,,,,0.0572090231408197,-1.68554585892744,0.0932343066733348,,-1.0325652630732443,,
,4591.0,923.0,4445.0,940.0,2474.0,2247.0,1988.0,,,,0.0570015365992098,-1.68627058894115,0.0932165057083381,,-0.6296850887390005,,
,4585.0,921.0,4439.0,936.0,2479.0,2260.0,1989.0,,,,0.056957467112806,-1.68668939755146,0.0931959305514879,,-0.20971453445257543,,
,4582.0,919.0,4437.0,936.0,2463.0,2269.0,1991.0,,,,0.0569311008770261,-1.68698481428257,0.0931714385771254,,0.22314255559693322,,
,4578.0,917.0,4433.0,932.0,2463.0,2275.0,1989.0,,,,0.0569614227843673,-1.68775873721294,0.0931447676279128,,0.6642802937980113,,
,4575.0,916.0,4427.0,933.0,2493.0,2258.0,1989.0,,,,0.0569803663968694,-1.68802851056588,0.0931151881208952,,1.1085300517138548,,
,4574.0,917.0,4429.0,934.0,2488.0,2267.0,1994.0,,,,0.0569262349423372,-1.68838099658417,0.09313132260525,,1.550017220605648,,
,4572.0,916.0,4428.0,932.0,2483.0,2283.0,1991.0,,,,0.0568751450434295,-1.68838394568115,0.09310891659861,,1.9820712161056708,,
,4570.0,918.0,4424.0,932.0,2473.0,2258.0,1984.0,,,,0.0568597942374823,-1.68919532382326,0.0931042076200898,,2.3972202978887895,,
,4569.0,916.0,4426.0,930.0,2493.0,2257.0,1986.0,,,,0.056859496336368,-1.68935465010705,0.0931121176466199,,2.787294347918132,,
,4565.0,913.0,4421.0,933.0,2499.0,2268.0,1986.0,,,,0.0568685251507312,-1.68954772386061,0.0930881185347417,,3.14364678299232,,
,4566.0,915.0,4423.0,930.0,2492.0,2277.0,1988.0,,,,0.0567594512758431,-1.6892360079099,0.093106474832724,,3.4574922350048767,,
,4568.0,917.0,4422.0,931.0,2492.0,2273.0,1981.0,,,,0.056722031600172,-1.68913279979518,0.0931276285220621,,3.720340946650207,,
,4565.0,912.0,4422.0,927.0,2492.0,2278.0,1986.0,,,,0.0568159550623975,-1.68907481372423,0.0931144931518811,,3.9244958916262265,,
,4561.0,911.0,4421.0,929.0,2502.0,2260.0,1991.0,,,,0.0568633500530814,-1.68850157974434,0.0930986647400853,,4.063566488026055,,
,4564.0,912.0,4419.0,931.0,2503.0,2270.0,1992.0,,,,0.0568519703701769,-1.68848998469451,0.0931302520122853,,4.1329452869489804,,
,4563.0,914.0,4423.0,929.0,2514.0,2270.0,1990.0,,,,0.0569212130334236,-1.6883508672505,0.0931194790586923,,4.130192696748859,,
,4562.0,911.0,4421.0,927.0,2493.0,2251.0,1989.0,,,,0.0568917209556091,-1.68744133291394,0.0931418477362756,,4.055280774217107,,
,4563.0,912.0,4420.0,928.0,2498.0,2256.0,1990.0,,,,0.0569143093634759,-1.68754859413001,0.0931844234103002,,3.9106608376114074,,
,4560.0,914.0,4419.0,929.0,2488.0,2256.0,1986.0,,,,0.0569852453894358,-1.68658985658448,0.0931835765027936,,3.701140260724994,,
,4561.0,909.0,4418.0,928.0,2490.0,2244.0,1984.0,,,,0.0570013422345974,-1.68677512593508,0.0931761199899279,,3.4335784669810123,,
,4561.0,912.0,4419.0,929.0,2506.0,2241.0,1990.0,,,,0.0570068085429862,-1.68664289143891,0.0931905048657704,,3.1164362740140636,,
,4559.0,913.0,4421.0,927.0,2511.0,2254.0,1989.0,,,,0.0570158277820967,-1.68641609388011,0.0932085323421459,,2.7592312824552745,,
,4560.0,910.0,4418.0,928.0,2494.0,2240.0,1992.0,,,,0.0571069047482536,-1.68631309944483,0.0931847833239493,,2.3719611616229317,,
,4560.0,913.0,4420.0,929.0,2492.0,2242.0,1984.0,,,,0.0571194062837744,-1.6860665377089,0.0932285522522095,,1.9645551967267216,,
,4558.0,911.0,4418.0,927.0,2497.0,2274.0,1984.0,,,,0.0571149822975245,-1.68553540386474,0.0932387458160453,,1.5464037978809222,,
,4557.0,909.0,4415.0,927.0,2505.0,2263.0,1978.0,,,,0.0571163512673101,-1.68550522292939,0.0932350766751474,,1.1259991364342201,,
,4557.0,908.0,4416.0,928.0,2507.0,2269.0,1984.0,,,,0.0571290221272791,-1.68517974719861,0.0932336482551402,,0.7107014488870795,,
,4557.0,911.0,4417.0,927.0,2507.0,2271.0,1989.0,,,,0.0571401283372576,-1.68481481149302,0.0932491415247999,,0.3066280955869712,,
,4558.0,910.0,4417.0,927.0,2504.0,2264.0,1990.0,,,,0.0571506719670021,-1.68522449019343,0.0932335226405407,,-0.08135144231253097,,
,4555.0,910.0,4416.0,928.0,2506.0,2283.0,1995.0,,,,0.0571240624681843,-1.68511376085201,0.0932450894591853,,-0.44954037222900467,,
,4558.0,911.0,4415.0,929.0,2503.0,2279.0,1991.0,,,,0.0572140093211738,-1.684591811493,0.0932595801079058,,-0.7952884506640711,,
,4557.0,909.0,4413.0,926.0,2525.0,2259.0,1988.0,,,,0.0571362655569587,-1.68494628413327,0.0932773549047392,,-1.1168426483489653,,
,4553.0,908.0,4414.0,926.0,2526.0,2261.0,1992.0,,,,0.0571810279452156,-1.68456562987531,0.0932646921148774,,-1.413196944896825,,
,4555.0,907.0,4412.0,926.0,2520.0,2265.0,1983.0,,,,0.0572388702009128,-1.68412660920761,0.093274168988304,,-1.6839555920165905,,
,4550.0,906.0,4412.0,924.0,2506.0,2249.0,1992.0,,,,0.057262465405251,-1.68341467294268,0.0932578874716241,,-1.929215259748554,,
,4552.0,909.0,4412.0,926.0,2492.0,2233.0,1980.0,,,,0.0572574515883171,-1.68399742206219,0.0932884467934349,,-2.1494634829157344,,
,4552.0,908.0,4414.0,928.0,2511.0,2232.0,1976.0,,,,0.0572331917720294,-1.68338147918684,0.0933011352621445,,-2.345485548056659,,
,4550.0,908.0,4413.0,926.0,2489.0,2225.0,1974.0,,,,0.0573309720037783,-1.68299679928073,0.0933385409843474,,-2.5182704265366076,,
,4546.0,907.0,4408.0,924.0,2504.0,2239.0,1979.0,,,,0.0573315507998774,-1.68247107265718,0.0933432120451824,,-2.668908386020595,,
,4552.0,907.0,4411.0,926.0,2489.0,2237.0,1985.0,,,,0.0573717241890625,-1.6819867196521,0.0933509678713046,,-2.7984773945063046,,
,4550.0,908.0,4410.0,926.0,2479.0,2242.0,1979.0,,,,0.0574027024951655,-1.68181721122229,0.0933527126537438,,-2.907920951439776,,
,4551.0,907.0,4410.0,927.0,2479.0,2246.0,1975.0,,,,0.0574222320750945,-1.68146587091628,0.0933567232319613,,-2.997925229102179,,
,4548.0,904.0,4408.0,924.0,2479.0,2259.0,1976.0,,,,0.0574563149236324,-1.68163677020905,0.0933655500820123,,-3.0688073493453083,,
,4549.0,907.0,4407.0,925.0,2486.0,2281.0,1990.0,,,,0.0574296309125837,-1.68160833702746,0.0933540381921095,,-3.1204285638450906,,
,4549.0,908.0,4413.0,924.0,2489.0,2269.0,1992.0,,,,0.0574729515296675,-1.6812027410226,0.0933992487569691,,-3.1521457338060768,,
,4548.0,907.0,4411.0,927.0,2487.0,2267.0,1993.0,,,,0.0575438503844391,-1.68057826195211,0.0934222033675261,,-3.1628118745832268,,
,4549.0,905.0,4409.0,924.0,2498.0,2278.0,1977.0,,,,0.0575575521411231,-1.68037422335841,0.0934150690233575,,-3.150832016750125,,
,4547.0,906.0,4409.0,924.0,2486.0,2262.0,1988.0,,,,0.0575838448499542,-1.68008090479452,0.0934166123615286,,-3.1142748155585163,,
,4551.0,909.0,4411.0,925.0,2494.0,2269.0,1987.0,,,,0.0575801822916302,-1.68002018122758,0.093410483715774,,-3.0510338857178643,,
,4552.0,909.0,4412.0,926.0,2503.0,2277.0,1981.0,,,,0.0575696470242447,-1.67995494181738,0.0934325241474829,,-2.9590264609555397,,
,4552.0,907.0,4411.0,927.0,2516.0,2276.0,1966.0,,,,0.0575573636957028,-1.68015094729136,0.0934348575829047,,-2.8364114181688445,,
,4552.0,908.0,4412.0,926.0,2506.0,2254.0,1973.0,,,,0.0575751064641105,-1.68022496431709,0.093428442679556,,-2.681804747396003,,
,4552.0,905.0,4412.0,925.0,2513.0,2257.0,1972.0,,,,0.0575333463368729,-1.67981482254299,0.093387324169205,,-2.4944690935499128,,
,4550.0,908.0,4410.0,925.0,2514.0,2240.0,1987.0,,,,0.0575437437690367,-1.67986581356175,0.0934246988322646,,-2.2744559955798134,,
,4553.0,907.0,4416.0,924.0,2511.0,2251.0,1979.0,,,,0.0576247046241849,-1.68025799527087,0.0934167467409811,,-2.022685378557436,,
,4555.0,907.0,4411.0,928.0,2509.0,2249.0,1970.0,,,,0.0575931332902838,-1.68023694788377,0.0934182415145819,,-1.740956009429203,,
,4555.0,907.0,4414.0,927.0,2517.0,2239.0,1987.0,,,,0.0576429694432958,-1.67999525617799,0.0934275591611352,,-1.4318910567199972,,
,4555.0,908.0,4418.0,928.0,2503.0,2270.0,1994.0,,,,0.0576099225604147,-1.68022142572164,0.0934080457267126,,-1.0988321962107683,,
,4556.0,908.0,4417.0,928.0,2507.0,2268.0,1980.0,,,,0.0576057013313071,-1.68005035485444,0.0934215608918979,,-0.7457019853169602,,
,4557.0,907.0,4416.0,928.0,2517.0,2259.0,1964.0,,,,0.0575949023475796,-1.67998566169062,0.0934098231692153,,-0.37685658599249433,,
,4559.0,909.0,4419.0,927.0,2539.0,2279.0,1974.0,,,,0.0575881573445608,-1.68011882747095,0.09340792129053,,0.0030505911518775306,,
,4558.0,909.0,4421.0,929.0,2492.0,2274.0,1971.0,,,,0.0575639773962599,-1.6803558503261,0.0934174868072888,,0.3891783981173375,,
,4562.0,909.0,4419.0,930.0,2493.0,2283.0,1974.0,,,,0.0575694724751888,-1.68038103767819,0.0934028370182222,,0.7765714337362881,,
,4560.0,910.0,4420.0,929.0,2518.0,2273.0,1983.0,,,,0.057536167048748,-1.68066646588281,0.0934121101970425,,1.1601960041497121,,
,4561.0,909.0,4419.0,926.0,2518.0,2273.0,1978.0,,,,0.0575803611598579,-1.68086403157083,0.0933911981319185,,1.5349445909418526,,
,4563.0,910.0,4422.0,929.0,2517.0,2258.0,1974.0,,,,0.0575679716055659,-1.6804169074591,0.0933904325978267,,1.8956212702208741,,
,4564.0,908.0,4422.0,930.0,2516.0,2279.0,1987.0,,,,0.0575793861375255,-1.68144827840189,0.0933955137049162,,2.236925094052254,,
,4566.0,910.0,4426.0,930.0,2510.0,2291.0,1983.0,,,,0.0575478771540758,-1.68126914287583,0.0934016020926929,,2.5534507327828213,,
,4565.0,911.0,4425.0,929.0,2530.0,2259.0,1982.0,,,,0.057578336769332,-1.68089583737844,0.0934000706206148,,2.839725425166896,,
,4564.0,911.0,4425.0,930.0,2518.0,2223.0,1979.0,,,,0.057565455735529,-1.68052156724904,0.0933909357252733,,3.090298154044766,,
,4566.0,910.0,4426.0,934.0,2502.0,2230.0,1983.0,,,,0.0575919145180554,-1.68032383212809,0.0933757038030624,,3.299890600812958,,
,4568.0,910.0,4427.0,931.0,2508.0,2241.0,1985.0,,,,0.0576066215131588,-1.68028789343746,0.0933886779989143,,3.4636100529195586,,
,4566.0,912.0,4428.0,931.0,2518.0,2233.0,1983.0,,,,0.0575905688755374,-1.68026432550045,0.0934243132647113,,3.577213285221756,,
,4569.0,912.0,4426.0,931.0,2525.0,2233.0,1978.0,,,,0.0575768570007237,-1.68080764479323,0.0934013677534242,,3.637399425052166,,
,4571.0,911.0,4426.0,930.0,2516.0,2244.0,1982.0,,,,0.0575939625414202,-1.68015519104879,0.0934044582619004,,3.6421008513440993,,
,4569.0,911.0,4428.0,931.0,2515.0,2249.0,1981.0,,,,0.0575783473379752,-1.68033928654013,0.0934336845841759,,3.590735851599243,,
,4573.0,912.0,4427.0,933.0,2509.0,2262.0,1982.0,,,,0.0576021859769226,-1.68029301035819,0.0934109605029862,,3.48438632128302,,
,4571.0,914.0,4429.0,931.0,2502.0,2255.0,1973.0,,,,0.0576013749030506,-1.68023151452419,0.0933969018554562,,3.3258690504548984,,
,4573.0,913.0,4433.0,933.0,2527.0,2267.0,1986.0,,,,0.0575524971636832,-1.6801074980029,0.093415788644887,,3.119680079728437,,
,4574.0,912.0,4432.0,932.0,2517.0,2244.0,1991.0,,,,0.0576118100020562,-1.68007046188941,0.0934208367320621,,2.8718069057096307,,
,4575.0,912.0,4432.0,933.0,2519.0,2238.0,1987.0,,,,0.0575694461664532,-1.68062556001484,0.0933965382097004,,2.589420295382604,,
,4577.0,912.0,4432.0,931.0,2500.0,2229.0,1988.0,,,,0.0575419273638982,-1.68004509472011,0.0934035455632065,,2.2804727645872678,,
,4582.0,914.0,4436.0,935.0,2502.0,2258.0,1976.0,,,,0.0575231735286985,-1.6804838322925,0.0933988465716861,,1.953241539281158,,
,4578.0,913.0,4433.0,934.0,2522.0,2251.0,1984.0,,,,0.0575717267040403,-1.680030537209,0.0934352793017435,,1.615858718155261,,
,4581.0,914.0,4435.0,935.0,2531.0,2256.0,1983.0,,,,0.0575974500034031,-1.68046988720201,0.0934223484676566,,1.2758707284289588,,
,4582.0,914.0,4434.0,934.0,2520.0,2262.0,1974.0,,,,0.0575566596697051,-1.68015181087788,0.0934075072474408,,0.9398642609092333,,
,4582.0,913.0,4434.0,934.0,2529.0,2268.0,1993.0,,,,0.0575319055085149,-1.68046636814244,0.0934147565362354,,0.6131878575964518,,
,4582.0,914.0,4439.0,937.0,2527.0,2252.0,1999.0,,,,0.0575363947075814,-1.68049145157934,0.0934120008953008,,0.29978797784534444,,
,4584.0,913.0,4437.0,936.0,2528.0,2248.0,2001.0,,,,0.0574758569933803,-1.68099779146274,0.0934000860939405,,0.002166530887108457,,
,4583.0,913.0,4437.0,935.0,2527.0,2262.0,1995.0,,,,0.0575314617879732,-1.6811115619827,0.0934191993159006,,-0.27854507737565715,,
,4583.0,912.0,4437.0,935.0,2517.0,2257.0,1975.0,,,,0.0574886494615824,-1.68076739616306,0.0933988284151457,,-0.5424106550303502,,
,4586.0,916.0,4442.0,935.0,2524.0,2239.0,1962.0,,,,0.0574852852843285,-1.68105684684187,0.0934110975303421,,-0.790435311481679,,
,4589.0,916.0,4442.0,939.0,2519.0,2240.0,1974.0,,,,0.057452616983427,-1.68102864263075,0.0934010240688405,,-1.0242594655803765,,
,4590.0,917.0,4443.0,937.0,2516.0,2234.0,1977.0,,,,0.0575402704526514,-1.68078868641631,0.0933614097068963,,-1.2458282724080492,,
,4590.0,917.0,4441.0,935.0,2531.0,2239.0,1983.0,,,,0.057498086075887,-1.6808708021274,0.093394828113944,,-1.4570628526432612,,
,4594.0,916.0,4445.0,939.0,2514.0,2241.0,1978.0,,,,0.0575113580469452,-1.68081182602192,0.0933847902552564,,-1.6595573279322653,,
,4596.0,919.0,4447.0,939.0,2508.0,2252.0,1978.0,,,,0.0575590967949087,-1.68113434236296,0.0933704777587262,,-1.854322450300799,,
,4597.0,918.0,4447.0,938.0,2516.0,2247.0,1976.0,,,,0.0575835934374206,-1.68109916745795,0.0933936081410902,,-2.0415927290278906,,
,4596.0,917.0,4449.0,940.0,2531.0,2253.0,1983.0,,,,0.057586438758728,-1.68091883676426,0.0933776568139195,,-2.2207094976218356,,
,4596.0,917.0,4449.0,942.0,2531.0,2262.0,1973.0,,,,0.0575525683324505,-1.68131016975233,0.0933949290791315,,-2.3900874083873354,,
,4600.0,921.0,4452.0,941.0,2535.0,2270.0,1985.0,,,,0.0574678140322533,-1.68134598175552,0.0933418828085993,,-2.547266416477848,,
,4599.0,919.0,4451.0,941.0,2526.0,2303.0,1987.0,,,,0.0575084580296938,-1.68178669289211,0.0933543005178997,,-2.689045342915073,,
,4600.0,917.0,4452.0,940.0,2515.0,2297.0,1993.0,,,,0.0574761327176523,-1.68207926152966,0.0933155320798065,,-2.8116865362078496,,
,4599.0,918.0,4453.0,939.0,2516.0,2253.0,1994.0,,,,0.0573954609942225,-1.68307092032731,0.0933055689126339,,-2.9111743371188252,,
,4603.0,920.0,4455.0,940.0,2525.0,2245.0,1987.0,,,,0.057360027261219,-1.6835700085846,0.093296634753136,,-2.9835040330299734,,
,4602.0,917.0,4450.0,942.0,2511.0,2251.0,1981.0,,,,0.0573064336608919,-1.6836982674482,0.0932623852176625,,-3.024974177263627,,
2025-08-19 22:00:56,4597.0,917.0,4449.0,942.0,2512.0,2249.0,1979.0,,,2025/08/19 10:00:56 PM,0.0572733480609059,-1.68474345148114,0.0932247886076587,,-3.032454517292142,,
,4595.0,916.0,4442.0,938.0,2526.0,2252.0,1977.0,,,,0.0572165666591832,-1.68467883520952,0.0932301945160531,,-3.003604374405346,,
,4591.0,915.0,4437.0,938.0,2502.0,2252.0,1987.0,,,,0.0571648933466109,-1.6853711388604,0.0932235750739314,,-2.937021553338421,,
,4588.0,913.0,4433.0,936.0,2501.0,2255.0,1984.0,,,,0.0571716182196168,-1.6867769794041,0.0931935966563645,,-2.8323090845417997,,
,4583.0,914.0,4429.0,936.0,2512.0,2251.0,1986.0,,,,0.057122742177522,-1.68670337704423,0.0931789514126442,,-2.6900558331221713,,
,4581.0,910.0,4425.0,934.0,2508.0,2252.0,1978.0,,,,0.0571108651082264,-1.68693965138658,0.0931944298739213,,-2.5117366827265153,,
,4573.0,909.0,4420.0,930.0,2508.0,2232.0,1971.0,,,,0.0570596952929566,-1.68731911288834,0.0931845171212166,,-2.299547642606832,,
,4571.0,908.0,4413.0,930.0,2489.0,2219.0,1982.0,,,,0.0571014105468097,-1.68746804457227,0.0931873674431584,,-2.056199455324204,,
,4566.0,907.0,4408.0,926.0,2488.0,2240.0,1988.0,,,,0.0570831405387988,-1.68678115788727,0.0931842262376092,,-1.7846987382368957,,
,4562.0,907.0,4403.0,925.0,2514.0,2266.0,1985.0,,,,0.0571017383284821,-1.68708743434562,0.093197449423243,,-1.4881474720152141,,
,4559.0,902.0,4401.0,925.0,2507.0,2269.0,1983.0,,,,0.0570691321675661,-1.68716799394145,0.0932026653216866,,-1.1695894406811729,,
,4555.0,902.0,4396.0,924.0,2512.0,2279.0,1981.0,,,,0.0570632634731984,-1.68668501946673,0.0932018389519262,,-0.831926194731234,,
,4553.0,904.0,4397.0,923.0,2526.0,2273.0,1988.0,,,,0.0571395096555428,-1.68654328055205,0.0932290301544685,,-0.4779158039232947,,
,4551.0,903.0,4395.0,924.0,2517.0,2280.0,1977.0,,,,0.057174033480849,-1.68638258993675,0.0932448621716555,,-0.11025599833770548,,
,4548.0,900.0,4391.0,923.0,2535.0,2264.0,1960.0,,,,0.057201499128126,-1.68606009180902,0.0932347487007024,,0.26825946332961426,,
,4546.0,901.0,4388.0,922.0,2514.0,2246.0,1970.0,,,,0.0572252580704949,-1.68607742485592,0.0932447180802218,,0.6545345080430932,,
,4544.0,902.0,4390.0,922.0,2520.0,2253.0,1990.0,,,,0.0572507612084043,-1.68597090315741,0.0932530670487686,,1.0449473548019264,,
,4545.0,901.0,4388.0,920.0,2535.0,2259.0,1989.0,,,,0.0572735920624467,-1.68596786777124,0.0932422097112186,,1.4351478614878186,,
,4544.0,899.0,4390.0,922.0,2548.0,2270.0,1981.0,,,,0.057238276936585,-1.68596866367852,0.093254867812218,,1.8199131756110034,,
,4544.0,900.0,4389.0,922.0,2517.0,2279.0,1985.0,,,,0.057247770049831,-1.6857822661106,0.0932467815979232,,2.193093925492708,,
,4546.0,900.0,4388.0,922.0,2514.0,2284.0,1977.0,,,,0.0572398590398972,-1.68597839930655,0.0932586437646429,,2.547673827962511,,
,4544.0,899.0,4385.0,920.0,2515.0,2274.0,1979.0,,,,0.0572555010256149,-1.68574824915202,0.0932536955301601,,2.8759534400508167,,
,4541.0,900.0,4384.0,920.0,2528.0,2280.0,2002.0,,,,0.0573307105211131,-1.68524441613031,0.0932327533545647,,3.1698550860542416,,
,4543.0,900.0,4385.0,921.0,2525.0,2253.0,1993.0,,,,0.057305721139909,-1.68520861569629,0.0932432230236856,,3.4213318996152213,,
,4543.0,899.0,4383.0,920.0,2503.0,2244.0,1982.0,,,,0.0572887067979561,-1.68567085306828,0.0932501662613501,,3.6228505347581144,,
,4542.0,902.0,4386.0,922.0,2500.0,2228.0,1983.0,,,,0.0573030252619603,-1.68610708083512,0.0932516829491433,,3.7679056421802843,,
,4541.0,900.0,4388.0,921.0,2491.0,2229.0,1979.0,,,,0.057237354977808,-1.68632232669055,0.0932353980005766,,3.851516110936523,,
,4542.0,899.0,4384.0,921.0,2501.0,2227.0,1982.0,,,,0.05729033465106,-1.68623481692827,0.0932403595656043,,3.8706498097693713,,
,4540.0,899.0,4386.0,919.0,2500.0,2245.0,1993.0,,,,0.0572942211902135,-1.68589726004041,0.093234641783639,,3.8245263026829672,,
,4542.0,898.0,4388.0,921.0,2498.0,2249.0,1987.0,,,,0.0572711079228959,-1.68638603775455,0.0932289550995137,,3.7147563574300273,,
,4542.0,899.0,4387.0,922.0,2503.0,2254.0,1990.0,,,,0.0572951205592671,-1.68566507389394,0.0932674524788031,,3.5452928258275107,,
,4538.0,899.0,4388.0,919.0,2509.0,2261.0,1995.0,,,,0.0573380578511571,-1.68604126970439,0.0932063019094789,,3.3221884732093603,,
,4541.0,900.0,4388.0,922.0,2503.0,2254.0,1991.0,,,,0.0572642650167199,-1.68603531777528,0.0932529873324238,,3.0531801642915557,,
,4541.0,899.0,4385.0,921.0,2530.0,2289.0,1998.0,,,,0.0573518024898187,-1.68571453035733,0.093272955831161,,2.747141772095799,,
,4540.0,897.0,4385.0,920.0,2536.0,2293.0,1999.0,,,,0.0573112633828222,-1.68622956595957,0.0932704008616915,,2.413465810801096,,
,4540.0,898.0,4388.0,922.0,2515.0,2276.0,1996.0,,,,0.0572734403353121,-1.68563791514913,0.0932563359370997,,2.061442262226872,,
,4537.0,898.0,4385.0,918.0,2512.0,2266.0,1992.0,,,,0.057328260849444,-1.6861142828582,0.0932699551508412,,1.6997006924364806,,
,4538.0,902.0,4387.0,922.0,2512.0,2280.0,1994.0,,,,0.0573210861070112,-1.68519622281306,0.0932796164962881,,1.3357695873743636,,
,4539.0,898.0,4383.0,920.0,2516.0,2274.0,1996.0,,,,0.0573185755760278,-1.68492253120936,0.0932824911744838,,0.9757879021158826,,
,4537.0,900.0,4385.0,921.0,2505.0,2265.0,1996.0,,,,0.0573721711579834,-1.68513544118175,0.0932859418834075,,0.624381925989023,,
,4535.0,896.0,4382.0,917.0,2509.0,2251.0,1994.0,,,,0.0573420110524841,-1.68460788163951,0.0932499722606475,,0.2846993990656716,,
,4533.0,896.0,4380.0,920.0,2506.0,2253.0,1983.0,,,,0.0573538542711008,-1.68465950025,0.0932811830135029,,-0.041424634888555925,,
,4536.0,897.0,4380.0,920.0,2492.0,2281.0,1993.0,,,,0.0573917827156867,-1.68443371566368,0.0933149434325137,,-0.353207538291507,,
,4534.0,895.0,4378.0,919.0,2486.0,2281.0,1995.0,,,,0.0573710777568432,-1.6846561673376,0.093304910259358,,-0.6506069997124523,,
,4533.0,895.0,4380.0,920.0,2482.0,2255.0,1990.0,,,,0.0573569627449506,-1.68482591956801,0.0932851707180182,,-0.9339990551049068,,
,4533.0,896.0,4378.0,918.0,2496.0,2259.0,1989.0,,,,0.0573278697270848,-1.68448432965753,0.0932812699399428,,-1.203882396001159,,
,4533.0,897.0,4379.0,921.0,2490.0,2279.0,1984.0,,,,0.0573349083076793,-1.68534057117808,0.0933015508801286,,-1.4606360646026775,,
,4532.0,897.0,4382.0,918.0,2488.0,2272.0,1992.0,,,,0.057376137120054,-1.6847172457864,0.093283052752154,,-1.7043467760615085,,
,4530.0,897.0,4377.0,916.0,2480.0,2260.0,1985.0,,,,0.0572726607826789,-1.68540013067039,0.0932956401503489,,-1.9347109084051406,,
,4530.0,893.0,4377.0,916.0,2470.0,2263.0,1981.0,,,,0.0572727869883619,-1.6852461868499,0.0932825573422637,,-2.151005949766685,,
,4531.0,896.0,4377.0,916.0,2488.0,2267.0,1991.0,,,,0.0573046610224806,-1.68497553420926,0.0932941106049989,,-2.352118205393159,,
,4533.0,899.0,4381.0,918.0,2504.0,2274.0,1984.0,,,,0.0572718048883391,-1.6848116988952,0.0932949221617556,,-2.536609083049251,,
,4534.0,897.0,4382.0,920.0,2500.0,2262.0,1989.0,,,,0.0573200860145123,-1.68525419188473,0.0932841333098563,,-2.702801852836593,,
,4534.0,897.0,4381.0,919.0,2495.0,2275.0,1992.0,,,,0.0574136255849538,-1.68493731031254,0.093281706221243,,-2.8488737528598125,,
,4533.0,897.0,4381.0,917.0,2501.0,2294.0,1996.0,,,,0.0574471707964533,-1.68509378033826,0.0932861232193096,,-2.9729430688195646,,
,4533.0,896.0,4382.0,919.0,2499.0,2269.0,1982.0,,,,0.0573928858305853,-1.68536437309716,0.0933079045124982,,-3.073145667793875,,
,4536.0,897.0,4384.0,918.0,2501.0,2272.0,1975.0,,,,0.0573435509263474,-1.68495643098659,0.0932689870561851,,-3.1476993509760742,,
,4535.0,895.0,4383.0,919.0,2506.0,2290.0,1987.0,,,,0.0573605670637605,-1.68481257969427,0.0932945025216995,,-3.1949569545025596,,
,4537.0,896.0,4386.0,917.0,2487.0,2261.0,1989.0,,,,0.0574575598699315,-1.68486345225014,0.0933046209193351,,-3.2134504210116095,,
,4536.0,897.0,4383.0,917.0,2496.0,2261.0,1988.0,,,,0.0574020247134785,-1.68455859104217,0.0932888882096971,,-3.201928244720715,,
,4537.0,898.0,4385.0,919.0,2486.0,2257.0,1990.0,,,,0.0574062309545529,-1.68539519485319,0.0932758221432236,,-3.1593879831409724,,
,4540.0,897.0,4385.0,920.0,2496.0,2262.0,1985.0,,,,0.0573844205138868,-1.68538195922033,0.0932992029642542,,-3.08510433051362,,
,4542.0,897.0,4385.0,920.0,2488.0,2257.0,1983.0,,,,0.0573288016613684,-1.68571341824819,0.0933119213303125,,-2.978652150427898,,
,4543.0,898.0,4391.0,922.0,2475.0,2240.0,1987.0,,,,0.057388758164611,-1.68518564606504,0.0932695460195268,,-2.8399234479505755,,
,4543.0,901.0,4391.0,920.0,2482.0,2253.0,1986.0,,,,0.0574662859740525,-1.68537171512008,0.0932849438838928,,-2.6691378137485016,,
,4546.0,901.0,4392.0,922.0,2487.0,2250.0,1986.0,,,,0.0573208727862871,-1.68537655038938,0.0932560850060955,,-2.466847196148761,,
,4544.0,900.0,4393.0,921.0,2487.0,2263.0,1985.0,,,,0.0573436575385507,-1.68511998191061,0.0932598500650162,,-2.2339372977040175,,
,4546.0,900.0,4392.0,923.0,2472.0,2273.0,1986.0,,,,0.0572710197371745,-1.68574952993301,0.0932479821253139,,-1.971628700135644,,
,4549.0,901.0,4394.0,925.0,2486.0,2258.0,1994.0,,,,0.0572525984525669,-1.68601824738689,0.0932296145944981,,-1.6814806925531636,,
,4550.0,901.0,4397.0,923.0,2478.0,2252.0,1994.0,,,,0.057311641577417,-1.68670053864299,0.0932290658753968,,-1.3654000558188586,,
,4550.0,901.0,4395.0,924.0,2493.0,2263.0,1993.0,,,,0.0572763840845239,-1.68612736858703,0.0932446139758041,,-1.0256562867479115,,
,4552.0,903.0,4399.0,923.0,2489.0,2284.0,1998.0,,,,0.0572245438523509,-1.68643638746777,0.0932477980380462,,-0.6649041101436178,,
,4552.0,901.0,4398.0,922.0,2477.0,2286.0,1995.0,,,,0.0572359696050383,-1.6862878862422,0.0932291661491811,,-0.2862133801714155,,
,4550.0,903.0,4399.0,922.0,2475.0,2284.0,1998.0,,,,0.0572525632015542,-1.68685300614715,0.0932034130557234,,0.1068947229388251,,
,4555.0,902.0,4402.0,925.0,2482.0,2263.0,2000.0,,,,0.057224529533287,-1.68699182778831,0.0932090522833895,,0.5104080937324534,,
,4553.0,901.0,4399.0,923.0,2489.0,2272.0,1990.0,,,,0.0572393465528597,-1.68715999344703,0.0932087322684519,,0.9197858623977343,,
,4556.0,903.0,4405.0,926.0,2483.0,2285.0,1984.0,,,,0.0572214573679892,-1.6873364855511,0.0932214353150974,,1.3299298314234276,,
,4559.0,904.0,4403.0,926.0,2497.0,2300.0,1993.0,,,,0.0572657093347604,-1.68730150746291,0.093209352092887,,1.7351746584293255,,
,4560.0,904.0,4408.0,928.0,2506.0,2295.0,1994.0,,,,0.0571874771226778,-1.6873690241233,0.0932013078201839,,2.1293074048513234,,
,4559.0,904.0,4407.0,926.0,2484.0,2275.0,1997.0,,,,0.0571647836639178,-1.68805625486961,0.0931963856379103,,2.505627119692716,,
,4558.0,906.0,4408.0,928.0,2489.0,2267.0,1991.0,,,,0.0571544456856398,-1.68810285144842,0.0932091051776964,,2.8570538324311032,,
,4564.0,906.0,4410.0,930.0,2494.0,2255.0,1983.0,,,,0.057150829865459,-1.68762119270667,0.09316934289599,,3.176293478107894,,
,4564.0,907.0,4411.0,930.0,2484.0,2257.0,1980.0,,,,0.0571635893533069,-1.68803188889433,0.0931942054239891,,3.4560607897034425,,
,4562.0,905.0,4408.0,926.0,2500.0,2265.0,1995.0,,,,0.0571612360584497,-1.68834404702097,0.0931970569654517,,3.6893562465200205,,
,4566.0,905.0,4410.0,929.0,2487.0,2291.0,1992.0,,,,0.0571467261590627,-1.68861796894373,0.0931458105071572,,3.869786195451454,,
,4569.0,906.0,4415.0,929.0,2481.0,2264.0,1980.0,,,,0.0571061721518238,-1.68934865993694,0.0931378699293018,,3.991907827639794,,
,4569.0,906.0,4416.0,930.0,2489.0,2261.0,1980.0,,,,0.0571100477240379,-1.68922082662174,0.0931626097856998,,4.051573538452423,,
,4569.0,906.0,4417.0,931.0,2487.0,2266.0,1986.0,,,,0.0571174882059912,-1.68928431920758,0.0931409455871463,,4.0462435151013585,,
,4568.0,907.0,4415.0,930.0,2486.0,2273.0,1993.0,,,,0.0570757043114381,-1.68978820647772,0.09313536489734,,3.975232824521409,,
,4571.0,909.0,4418.0,931.0,2474.0,2278.0,1984.0,,,,0.057070958310067,-1.68944912870022,0.0931012115969708,,3.8398613487801705,,
,4576.0,909.0,4421.0,931.0,2490.0,2290.0,1984.0,,,,0.0570900214020577,-1.68985961062816,0.0931336397572487,,3.6434823469636326,,
,4574.0,909.0,4421.0,930.0,2489.0,2284.0,1990.0,,,,0.0570634765719962,-1.69000356291327,0.0931433353051875,,3.391377658567233,,
,4573.0,907.0,4421.0,930.0,2481.0,2289.0,1993.0,,,,0.0570985069994989,-1.68953444491961,0.0931099343861742,,3.090522687879999,,
,4576.0,909.0,4424.0,933.0,2479.0,2290.0,1987.0,,,,0.0570168265315206,-1.69037405110236,0.0931008404690172,,2.7492393961867108,,
,4579.0,912.0,4427.0,934.0,2479.0,2279.0,1989.0,,,,0.0569380411871344,-1.69061601879254,0.09308575263889,,2.3767675727040722,,
,4581.0,911.0,4430.0,931.0,2481.0,2277.0,1990.0,,,,0.0568873651239972,-1.69129844239868,0.0930550870890513,,1.982791628812446,,
,4580.0,910.0,4429.0,933.0,2487.0,2261.0,1990.0,,,,0.0568703930359162,-1.69222499578665,0.0930310196441826,,1.5769615239541188,,
,4584.0,913.0,4432.0,937.0,2483.0,2242.0,1985.0,,,,0.0567977434592524,-1.69276704566957,0.0930221283206544,,1.1684429639146106,,
,4584.0,911.0,4434.0,936.0,2484.0,2254.0,1994.0,,,,0.0567722752502207,-1.69373420803271,0.0929846556415376,,0.7655253110133362,,
,4586.0,914.0,4435.0,936.0,2492.0,2266.0,1994.0,,,,0.0567350399910196,-1.694618928013,0.0929658347394144,,0.37530760795144985,,
,4588.0,913.0,4437.0,937.0,2486.0,2284.0,1995.0,,,,0.0566835684892555,-1.69493251898945,0.0929280629775809,,0.003475456509159306,,
,4588.0,912.0,4435.0,935.0,2488.0,2300.0,1993.0,,,,0.0565728718630648,-1.6959983112034,0.0929085267170771,,-0.3458247736549306,,
,4591.0,913.0,4438.0,936.0,2498.0,2318.0,2001.0,,,,0.0565219745687032,-1.69629529382913,0.0928884532344732,,-0.6700128455201126,,
,4593.0,914.0,4441.0,939.0,2471.0,2291.0,2002.0,,,,0.0564209525079107,-1.69699714425726,0.0928612840612958,,-0.9680055040202534,,
,4593.0,915.0,4440.0,939.0,2472.0,2285.0,1995.0,,,,0.0563907096025691,-1.697398359872,0.0928471636495232,,-1.240058746244322,,
,4589.0,911.0,4439.0,936.0,2465.0,2279.0,1984.0,,,,0.0563459384082696,-1.69757164963589,0.0928211687976363,,-1.487533856935632,,
,4591.0,911.0,4440.0,937.0,2479.0,2274.0,1983.0,,,,0.056357607574425,-1.69800764006218,0.0928298011555845,,-1.7126040941201202,,
,4592.0,911.0,4436.0,936.0,2477.0,2279.0,1983.0,,,,0.0563802181295824,-1.69809508836968,0.0928254293106911,,-1.9179225225946477,,
,4588.0,912.0,4432.0,937.0,2476.0,2260.0,1985.0,,,,0.0562790605880974,-1.69806870273415,0.0928023805689236,,-2.106273875809089,,
,4584.0,909.0,4425.0,934.0,2495.0,2277.0,1990.0,,,,0.056328079770882,-1.69845791871953,0.0928069111603554,,-2.28023442975372,,
,4578.0,909.0,4421.0,932.0,2492.0,2271.0,1991.0,,,,0.0563544443732242,-1.69802531045088,0.0928118647863224,,-2.441863709600326,,
,4577.0,908.0,4417.0,934.0,2474.0,2267.0,1998.0,,,,0.0563710654614562,-1.69796683514413,0.0927975786508224,,-2.5924503766745577,,
,4572.0,906.0,4411.0,929.0,2473.0,2265.0,1993.0,,,,0.0564233872730948,-1.69770520843172,0.092840142998395,,-2.732331785356644,,
,4567.0,906.0,4407.0,928.0,2484.0,2276.0,1987.0,,,,0.0563548351217305,-1.69698927626047,0.0928289650835147,,-2.8608024266364556,,
,4561.0,900.0,4400.0,925.0,2479.0,2277.0,1985.0,,,,0.0564116456284552,-1.69711436002855,0.0928678204178321,,-2.9761208091095717,,
,4557.0,901.0,4396.0,924.0,2473.0,2248.0,1992.0,,,,0.0564600228442901,-1.69668717604695,0.0928737869893397,,-3.0756173172636823,,
,4554.0,901.0,4396.0,924.0,2468.0,2282.0,1990.0,,,,0.0564661118906065,-1.69614497906092,0.0928725771016517,,-3.15589733724444,,
,4553.0,902.0,4393.0,922.0,2472.0,2279.0,1989.0,,,,0.0564298510970695,-1.69614725036585,0.0928881764490992,,-3.2131247769404228,,
,4547.0,896.0,4386.0,918.0,2470.0,2306.0,1979.0,,,,0.05648731603798,-1.69590876228932,0.0929122784545836,,-3.2433618649899985,,
,4547.0,896.0,4387.0,920.0,2477.0,2288.0,1994.0,,,,0.0565012315982731,-1.6955656211144,0.0929006991176151,,-3.2429332833282563,,
,4546.0,897.0,4385.0,920.0,2469.0,2289.0,1988.0,,,,0.0565225009389564,-1.69568831442234,0.0929080225057875,,-3.208778025352853,,
,4544.0,898.0,4383.0,920.0,2482.0,2291.0,1988.0,,,,0.0565592143471058,-1.69539264103283,0.0929136208636604,,-3.1387521190777834,,
,4540.0,897.0,4381.0,919.0,2478.0,2272.0,1989.0,,,,0.056553675472532,-1.69541753570562,0.0929041457646054,,-3.0318497797161035,,
,4538.0,897.0,4383.0,919.0,2465.0,2287.0,1987.0,,,,0.0565420727147265,-1.69528834607894,0.0929344851178893,,-2.888319116551297,,
,4539.0,896.0,4383.0,919.0,2476.0,2301.0,1977.0,,,,0.0565885184803279,-1.69446801373849,0.0928993066992338,,-2.7096602216461214,,
,4540.0,896.0,4382.0,921.0,2475.0,2286.0,1974.0,,,,0.0566003961262768,-1.69468224095836,0.0929440645424307,,-2.4985069834085922,,
,4540.0,896.0,4380.0,917.0,2475.0,2266.0,1993.0,,,,0.0566053890328772,-1.69440647519284,0.0929667321405046,,-2.2584075957449214,,
,4541.0,894.0,4381.0,916.0,2467.0,2291.0,1994.0,,,,0.0566433031400353,-1.69478839763906,0.0929604460660423,,-1.9935305602924493,,
2025-08-19 22:00:57,4534.0,895.0,4380.0,916.0,2475.0,2301.0,1995.0,,,2025/08/19 10:00:57 PM,0.0566248378497102,-1.69451015083997,0.0929525125561467,,-1.7083313126119104,,
,4535.0,894.0,4382.0,918.0,2478.0,2283.0,1999.0,,,,0.0566198057661515,-1.6948496790643,0.0929094231920329,,-1.4072184167553192,,
,4538.0,898.0,4383.0,919.0,2478.0,2277.0,1999.0,,,,0.0566385713811218,-1.69485287399472,0.0929454585058814,,-1.0942573713746704,,
,4533.0,893.0,4376.0,916.0,2476.0,2265.0,1992.0,,,,0.0566207444240057,-1.69389390265305,0.0929374781868791,,-0.7729449403448603,,
,4535.0,894.0,4379.0,916.0,2488.0,2267.0,1991.0,,,,0.0566342412953372,-1.6934875697877,0.0929498234499667,,-0.44607842394943537,,
,4536.0,895.0,4379.0,918.0,2486.0,2262.0,1994.0,,,,0.0566571948847127,-1.6940901237137,0.0929307642889364,,-0.11573337526140942,,
,4535.0,893.0,4379.0,917.0,2481.0,2264.0,1997.0,,,,0.0566490015137651,-1.69375747463087,0.0929751877484802,,0.2166491278070454,,
,4534.0,893.0,4382.0,915.0,2482.0,2271.0,1982.0,,,,0.0566884261464738,-1.69390094066003,0.0929572910427752,,0.5500773389075759,,
,4532.0,892.0,4380.0,916.0,2469.0,2260.0,1989.0,,,,0.0566764766469428,-1.6944161281653,0.0929575510101405,,0.8837492337159916,,
,4532.0,894.0,4381.0,920.0,2468.0,2262.0,1999.0,,,,0.0566869634156044,-1.69372753462572,0.0929807866473063,,1.2167507956611314,,
,4534.0,897.0,4380.0,920.0,2460.0,2267.0,1992.0,,,,0.056722834813724,-1.69365658460151,0.092991164528567,,1.5477494730797756,,
,4534.0,896.0,4381.0,920.0,2470.0,2273.0,1989.0,,,,0.0567627384869814,-1.69342213661594,0.0929895602719407,,1.8747205761511307,,
,4532.0,892.0,4380.0,915.0,2474.0,2262.0,2002.0,,,,0.0567471387172307,-1.69326680636888,0.0929725285148224,,2.1947408412100757,,
,4535.0,893.0,4380.0,918.0,2478.0,2273.0,1996.0,,,,0.056757717301448,-1.69270290667797,0.0929919837162499,,2.503876580352165,,
,4535.0,892.0,4377.0,917.0,2480.0,2267.0,1983.0,,,,0.0566452743633594,-1.69269397291723,0.0930201449836853,,2.7971846464976506,,
,4532.0,893.0,4378.0,915.0,2476.0,2271.0,1984.0,,,,0.0566325435081288,-1.69253826985269,0.0930202859343738,,3.068833800322827,,
,4530.0,890.0,4376.0,914.0,2473.0,2275.0,1997.0,,,,0.0566584894178638,-1.69244790729147,0.0930190392837633,,3.3123428479063293,,
,4531.0,891.0,4376.0,914.0,2488.0,2263.0,1987.0,,,,0.0567283978475808,-1.69232703013942,0.0930156112586051,,3.5209209246218878,,
,4532.0,891.0,4378.0,917.0,2496.0,2280.0,1992.0,,,,0.0567269859911332,-1.6922203891474,0.0930345298993747,,3.687885238056198,,
,4530.0,892.0,4377.0,917.0,2492.0,2274.0,1997.0,,,,0.0567800269225266,-1.69231726411332,0.0930247640868843,,3.807123077794541,,
,4526.0,892.0,4376.0,914.0,2492.0,2271.0,1996.0,,,,0.0567662424430831,-1.69210411658866,0.0930250713644437,,3.8735585474953877,,
,4527.0,891.0,4376.0,915.0,2475.0,2271.0,1991.0,,,,0.056791157200413,-1.69246521823715,0.0930207810902937,,3.8835808997538988,,
,4529.0,892.0,4376.0,917.0,2473.0,2279.0,2007.0,,,,0.0568143209920272,-1.69175259337598,0.0930418260961095,,3.8353912438363533,,
,4528.0,892.0,4376.0,914.0,2471.0,2248.0,1996.0,,,,0.0568264760717989,-1.6917951736326,0.0930444733700744,,3.7292285005421344,,
,4528.0,889.0,4375.0,915.0,2471.0,2235.0,1996.0,,,,0.0568257869041568,-1.69111597327681,0.0930542219033173,,3.567444502799388,,
,4525.0,889.0,4374.0,914.0,2455.0,2263.0,1998.0,,,,0.0568619332628721,-1.69108280419415,0.0930597538936331,,3.354412314892431,,
,4525.0,890.0,4375.0,912.0,2464.0,2251.0,1997.0,,,,0.0568754125344817,-1.69056086275617,0.0930544423865923,,3.096270241853851,,
,4526.0,892.0,4375.0,915.0,2462.0,2253.0,1985.0,,,,0.0568933677812557,-1.69039819164805,0.0930686991087755,,2.8005241795498943,,
,4527.0,890.0,4376.0,915.0,2460.0,2255.0,1987.0,,,,0.0568345237555162,-1.69032048903969,0.0930913472648599,,2.4755493250053826,,
,4525.0,891.0,4373.0,915.0,2452.0,2273.0,1987.0,,,,0.056898662556372,-1.69016581591557,0.0930468978638872,,2.130045065134674,,
,4527.0,892.0,4377.0,915.0,2473.0,2268.0,1996.0,,,,0.0568859847826348,-1.69018742406407,0.0930796761659643,,1.772501379035694,,
,4527.0,890.0,4375.0,918.0,2473.0,2282.0,1991.0,,,,0.0569224841468004,-1.6903062630829,0.0930995578996902,,1.410730621062024,,
,4529.0,893.0,4378.0,917.0,2468.0,2300.0,1996.0,,,,0.0569356753775732,-1.68998525265739,0.0930756553480186,,1.0515065262931584,,
,4528.0,890.0,4377.0,916.0,2467.0,2274.0,1987.0,,,,0.0569472554351619,-1.68985343325036,0.0930797396846125,,0.7003354911741648,,
,4529.0,889.0,4378.0,915.0,2475.0,2263.0,1985.0,,,,0.0569382393434221,-1.6902626168273,0.0930957333362794,,0.3613667722913258,,
,4529.0,890.0,4380.0,916.0,2474.0,2278.0,1982.0,,,,0.0570352051426735,-1.69018577161753,0.093101202676959,,0.0374310385208092,,
,4531.0,891.0,4382.0,915.0,2476.0,2276.0,1990.0,,,,0.0569519516972989,-1.68987563508169,0.0930889052456201,,-0.26981704897054515,,
,4530.0,892.0,4383.0,917.0,2481.0,2278.0,2002.0,,,,0.056973377184832,-1.69041761840958,0.0930897335142662,,-0.5596853232470681,,
,4531.0,892.0,4382.0,914.0,2468.0,2266.0,2005.0,,,,0.0569538016627951,-1.69004067042902,0.0931144569725483,,-0.8321958302609894,,
,4533.0,893.0,4384.0,919.0,2471.0,2257.0,1999.0,,,,0.0569922265266288,-1.69048081724645,0.0930967953947262,,-1.0878355407186995,,
,4534.0,891.0,4385.0,919.0,2488.0,2258.0,1996.0,,,,0.0569405251852606,-1.69018446526773,0.0930985448349844,,-1.3273329798613853,,
,4537.0,893.0,4386.0,918.0,2485.0,2267.0,1992.0,,,,0.0569013930250816,-1.69042441669098,0.0931144707214235,,-1.551477994441412,,
,4536.0,891.0,4383.0,917.0,2472.0,2266.0,2000.0,,,,0.0568331375965095,-1.69041292848044,0.0930895567436965,,-1.7609911176409894,,
,4536.0,891.0,4385.0,916.0,2464.0,2272.0,1995.0,,,,0.0568243849191749,-1.69003245091374,0.0930951070367227,,-1.9564391509084618,,
,4539.0,894.0,4389.0,918.0,2472.0,2287.0,1998.0,,,,0.0569028705835715,-1.69019674846282,0.0930767695224754,,-2.138186537681814,,
,4539.0,895.0,4391.0,920.0,2471.0,2261.0,2001.0,,,,0.056816675527803,-1.69002171470374,0.0930564638331124,,-2.306369036906852,,
,4539.0,893.0,4390.0,919.0,2465.0,2270.0,2003.0,,,,0.0569111825615461,-1.69011259668988,0.0930830855508761,,-2.4608770682416994,,
,4540.0,893.0,4392.0,919.0,2478.0,2278.0,1995.0,,,,0.0568685955147384,-1.68976357976663,0.0930794967347616,,-2.601339777074711,,
,4541.0,894.0,4393.0,921.0,2479.0,2292.0,1997.0,,,,0.0568464012115831,-1.68988126862899,0.0930657006017545,,-2.7271058445026735,,
,4544.0,893.0,4396.0,924.0,2482.0,2286.0,1998.0,,,,0.0568837079291253,-1.69056742440928,0.0930901418575297,,-2.8372220348333332,,
,4542.0,893.0,4393.0,921.0,2477.0,2285.0,1993.0,,,,0.0569121436376662,-1.69048381000028,0.0930613316450505,,-2.930414537045904,,
,4544.0,894.0,4395.0,919.0,2465.0,2279.0,1991.0,,,,0.0568910688039872,-1.69077620950487,0.0930719221595171,,-3.005080801807085,,
,4545.0,894.0,4397.0,921.0,2467.0,2280.0,1995.0,,,,0.0568318293622425,-1.69032082108158,0.0930786317397141,,-3.0593005569509946,,
,4545.0,895.0,4398.0,922.0,2471.0,2291.0,1993.0,,,,0.0568586289245459,-1.69056325056314,0.0930720109108023,,-3.0908739502511535,,
,4550.0,898.0,4400.0,921.0,2468.0,2294.0,1993.0,,,,0.0568314567682301,-1.69075053667625,0.0930942940804037,,-3.0973924511963538,,
,4547.0,896.0,4401.0,922.0,2481.0,2291.0,1997.0,,,,0.0568266525625513,-1.69086788608287,0.0930410087170754,,-3.0763445700830023,,
,4549.0,896.0,4401.0,920.0,2481.0,2268.0,2001.0,,,,0.0568221601451725,-1.69116350040267,0.0930760097090946,,-3.025254110635552,,
,4553.0,897.0,4405.0,923.0,2483.0,2285.0,2005.0,,,,0.0568576080911806,-1.69109294134899,0.093074077132375,,-2.941844124901824,,
,4555.0,902.0,4407.0,925.0,2497.0,2280.0,2003.0,,,,0.0568971403756447,-1.69120777218634,0.0930694092400718,,-2.8242155241077915,,
,4557.0,900.0,4408.0,925.0,2492.0,2257.0,1997.0,,,,0.0569358450017509,-1.69084374858169,0.0930776887929264,,-2.6710258681483054,,
,4553.0,896.0,4406.0,922.0,2500.0,2285.0,2000.0,,,,0.0568599590668737,-1.69125578670897,0.093044028204865,,-2.481651642745365,,
,4558.0,899.0,4407.0,924.0,2494.0,2264.0,1994.0,,,,0.0568471413729578,-1.69115733211594,0.0930557021091997,,-2.256316945426109,,
,4559.0,900.0,4408.0,927.0,2476.0,2271.0,1995.0,,,,0.0568219422589868,-1.69089052334361,0.0930714287083434,,-1.9961737343237356,,
,4561.0,901.0,4411.0,927.0,2470.0,2270.0,2000.0,,,,0.0568542796980863,-1.69109537693705,0.0930485499297833,,-1.7033240917759906,,
,4560.0,898.0,4410.0,925.0,2464.0,2273.0,1999.0,,,,0.0568777818761098,-1.69149491214261,0.0930751766495318,,-1.380782646640254,,
,4560.0,898.0,4411.0,924.0,2461.0,2266.0,1998.0,,,,0.05686557385454,-1.69117564738364,0.0930837150080922,,-1.03238553735145,,
,4565.0,901.0,4414.0,927.0,2473.0,2273.0,1994.0,,,,0.0569017199100297,-1.69083095569719,0.093093754477515,,-0.6626589622981456,,
,4563.0,901.0,4415.0,927.0,2480.0,2289.0,1995.0,,,,0.0568802335811513,-1.69135820167771,0.0930496029812704,,-0.27666408037005374,,
,4566.0,901.0,4414.0,928.0,2489.0,2275.0,2004.0,,,,0.0568234031613806,-1.69122702840836,0.093047268283391,,0.12016449550898753,,
,4566.0,899.0,4417.0,928.0,2486.0,2270.0,1993.0,,,,0.0567926204768079,-1.69146852433071,0.0930432254220729,,0.5221716011536849,,
,4568.0,903.0,4419.0,927.0,2478.0,2273.0,2002.0,,,,0.0567924480920713,-1.69223700421487,0.0930316072472948,,0.9236148667590106,,
,4570.0,904.0,4423.0,930.0,2473.0,2254.0,1999.0,,,,0.0567318741177628,-1.69248743349603,0.0930301004977277,,1.3187724988714051,,
,4570.0,902.0,4419.0,930.0,2469.0,2275.0,1995.0,,,,0.0566647319158193,-1.69262748490854,0.0930072882946589,,1.7020244637742854,,
,4570.0,902.0,4421.0,931.0,2457.0,2244.0,1997.0,,,,0.056694620341399,-1.69350064771982,0.0929388140646003,,2.0679103020882286,,
,4576.0,902.0,4425.0,930.0,2470.0,2267.0,1997.0,,,,0.0566079741971498,-1.69397603781716,0.0929644637470382,,2.411169859142495,,
,4576.0,904.0,4425.0,932.0,2472.0,2255.0,1986.0,,,,0.0566003053338028,-1.69387736950649,0.092958387599864,,2.7267748613999006,,
,4578.0,904.0,4426.0,929.0,2472.0,2250.0,1989.0,,,,0.0565267705652853,-1.69506236179515,0.0929278448556117,,3.0099596456898308,,
,4578.0,903.0,4427.0,930.0,2472.0,2247.0,1990.0,,,,0.0564905706354139,-1.69500882447819,0.0929186569192097,,3.256258889273345,,
,4581.0,907.0,4430.0,933.0,2477.0,2249.0,1991.0,,,,0.0564712665089678,-1.6954352158155,0.0929056912545703,,3.4615593385365138,,
,4582.0,906.0,4431.0,933.0,2480.0,2256.0,1990.0,,,,0.0563895041876192,-1.69652968701349,0.0929146569162872,,3.6221713095436794,,
,4582.0,904.0,4432.0,933.0,2477.0,2264.0,1992.0,,,,0.0564268485024763,-1.69681866784248,0.0928649693219253,,3.7349236472175047,,
,4584.0,905.0,4435.0,933.0,2509.0,2264.0,1991.0,,,,0.0563533507905746,-1.69693028096126,0.0928643884080228,,3.7972823935207733,,
,4586.0,906.0,4434.0,934.0,2491.0,2294.0,1992.0,,,,0.0563609077796589,-1.69684420005077,0.0928842819587406,,3.8074886806411437,,
,4590.0,908.0,4436.0,934.0,2475.0,2293.0,1994.0,,,,0.0563538338015006,-1.6970355984743,0.0928459465883913,,3.764705930122372,,
,4590.0,911.0,4437.0,934.0,2483.0,2296.0,1996.0,,,,0.0563949150007927,-1.69643670620099,0.0928762264884151,,3.6691611316219044,,
,4593.0,910.0,4440.0,935.0,2476.0,2272.0,2006.0,,,,0.0563779939306505,-1.69665062561031,0.0928903426325162,,3.5222607748603125,,
,4592.0,908.0,4440.0,936.0,2498.0,2252.0,1997.0,,,,0.0564368135844654,-1.69645005476976,0.0928889598172231,,3.3266601887250316,,
,4590.0,908.0,4436.0,937.0,2484.0,2277.0,1993.0,,,,0.0564232438336273,-1.69597529583556,0.0928715603081207,,3.0862669903733715,,
,4591.0,910.0,4435.0,935.0,2508.0,2302.0,1996.0,,,,0.0564301721603935,-1.69563216006209,0.0928804354039244,,2.8061657845939942,,
,4586.0,907.0,4430.0,933.0,2498.0,2296.0,2001.0,,,,0.0564405305715261,-1.69538568945843,0.0929158935808127,,2.492461330538959,,
,4580.0,903.0,4425.0,930.0,2486.0,2298.0,1997.0,,,,0.056465571861824,-1.69516029043921,0.092930455282741,,2.1520485815963744,,
,4577.0,903.0,4420.0,930.0,2495.0,2287.0,2003.0,,,,0.0565213212282592,-1.69500658083738,0.0929573302616766,,1.7923272160757324,,
,4574.0,902.0,4414.0,928.0,2477.0,2263.0,1992.0,,,,0.0565362865196892,-1.69465604106992,0.0929643477326024,,1.4208835033382277,,
,4570.0,900.0,4407.0,928.0,2470.0,2288.0,1994.0,,,,0.0566392199572355,-1.69454231355888,0.0929833152790833,,1.0451635121366876,,
,4563.0,897.0,4403.0,926.0,2473.0,2268.0,1999.0,,,,0.0565979097245693,-1.69412944753409,0.0929594031631429,,0.6721601274686696,,
,4560.0,895.0,4397.0,922.0,2459.0,2250.0,1995.0,,,,0.0565587033858436,-1.69396959580488,0.0929786051091921,,0.3081337162111255,,
,4553.0,894.0,4393.0,922.0,2473.0,2272.0,1990.0,,,,0.056593901267572,-1.69356003525173,0.0929883416854027,,-0.04161654655412016,,
,4553.0,892.0,4390.0,919.0,2482.0,2268.0,1984.0,,,,0.0565893224322577,-1.6942070410505,0.0929570887914076,,-0.3729167976419507,,
,4550.0,893.0,4383.0,918.0,2474.0,2254.0,1991.0,,,,0.0566043509999216,-1.6935650276155,0.0929926401806624,,-0.682808069935815,,
,4544.0,890.0,4382.0,918.0,2492.0,2275.0,1991.0,,,,0.0566294792960227,-1.69330875099437,0.0929693902432639,,-0.9695562362116555,,
,4543.0,891.0,4380.0,917.0,2483.0,2287.0,1984.0,,,,0.0566845443256386,-1.69383461634467,0.0929939122839192,,-1.2325827128392544,,
,4540.0,891.0,4379.0,915.0,2489.0,2270.0,1982.0,,,,0.0566559024471274,-1.69363317393485,0.0930026841835753,,-1.4723219133075593,,
,4538.0,888.0,4377.0,915.0,2497.0,2277.0,1977.0,,,,0.0566091343778508,-1.69349799669,0.0929843548398165,,-1.690016643103628,,
,4538.0,890.0,4373.0,916.0,2491.0,2308.0,1973.0,,,,0.0566403883167221,-1.69278679306581,0.0929898292201352,,-1.887467050703017,,
,4534.0,886.0,4372.0,912.0,2492.0,2298.0,1975.0,,,,0.0566333295200521,-1.69276846118934,0.0930112112738474,,-2.0667520534260344,,
,4535.0,889.0,4370.0,913.0,2487.0,2290.0,1985.0,,,,0.0566559001577867,-1.69270574573237,0.0930196483207599,,-2.22994410289505,,
,4532.0,886.0,4369.0,912.0,2482.0,2291.0,1986.0,,,,0.0565822610007398,-1.6925431601084,0.0930294200523416,,-2.378838678071015,,
,4533.0,885.0,4369.0,912.0,2491.0,2305.0,1992.0,,,,0.0566607728791876,-1.69282412246704,0.0930125036165998,,-2.514719089565422,,
,4532.0,886.0,4368.0,913.0,2492.0,2293.0,1989.0,,,,0.0566577306074962,-1.69240181643083,0.0930399200666608,,-2.6381751695203572,,
,4533.0,888.0,4369.0,914.0,2511.0,2314.0,1988.0,,,,0.056667891179084,-1.69252335911486,0.0930280424733183,,-2.7489912110696877,,
,4529.0,889.0,4369.0,913.0,2502.0,2281.0,1987.0,,,,0.0566881697395979,-1.69227598041058,0.0930427417087322,,-2.8461139943594977,,
,4529.0,884.0,4369.0,912.0,2490.0,2267.0,1990.0,,,,0.0566845309591847,-1.69216693596577,0.0930311440372723,,-2.927705785334701,,
,4529.0,885.0,4367.0,909.0,2481.0,2255.0,1999.0,,,,0.0567039606852531,-1.69161156822159,0.0930384388831574,,-2.9912798567367207,,
,4527.0,884.0,4365.0,912.0,2493.0,2258.0,1995.0,,,,0.05670296916515,-1.6922230514432,0.0930108917246344,,-3.033907715196815,,
,4526.0,886.0,4365.0,911.0,2493.0,2246.0,1986.0,,,,0.0566935806265679,-1.69196571287416,0.0930151746245409,,-3.0524787592115494,,
,4526.0,884.0,4365.0,910.0,2504.0,2241.0,1973.0,,,,0.0567261917972221,-1.69195240031842,0.0930612382486382,,-3.043986073858199,,
,4525.0,883.0,4365.0,909.0,2508.0,2238.0,1998.0,,,,0.0566564142037831,-1.6917075195927,0.0930586266858778,,-3.0058080714995374,,
,4526.0,884.0,4363.0,911.0,2485.0,2253.0,1993.0,,,,0.0568048294911679,-1.69214575038937,0.093039179156135,,-2.9359556018084936,,
,4527.0,885.0,4363.0,912.0,2484.0,2242.0,1977.0,,,,0.0567849493488471,-1.69170708634241,0.0930379909567563,,-2.8332579533451074,,
,4524.0,883.0,4365.0,911.0,2487.0,2244.0,1977.0,,,,0.0567660021075796,-1.69196161646086,0.0930323371200006,,-2.697468264299696,,
,4524.0,884.0,4363.0,912.0,2488.0,2257.0,1982.0,,,,0.056764967616148,-1.69188358688326,0.093054937374798,,-2.5292784636308063,,
,4525.0,883.0,4363.0,910.0,2496.0,2253.0,1984.0,,,,0.0567850762154926,-1.69216796626634,0.0930502089761206,,-2.3302450122732896,,
,4524.0,884.0,4360.0,911.0,2504.0,2282.0,1986.0,,,,0.0567872258343102,-1.69157622457969,0.0930244083183878,,-2.102638116647657,,
,4525.0,883.0,4362.0,909.0,2487.0,2280.0,1990.0,,,,0.0568100287677692,-1.69132437331708,0.0930386262399056,,-1.849237146485943,,
,4523.0,882.0,4364.0,909.0,2472.0,2276.0,1985.0,,,,0.056774483357035,-1.69192293919825,0.0930165999372332,,-1.573102135118815,,
,4524.0,882.0,4361.0,907.0,2483.0,2274.0,1989.0,,,,0.0567670316267559,-1.69186363556913,0.0930076431340551,,-1.2773543635762536,,
,4523.0,881.0,4361.0,909.0,2504.0,2268.0,1988.0,,,,0.0567489360097172,-1.69217107557214,0.0930029490070305,,-0.9649977240376962,,
,4521.0,882.0,4359.0,909.0,2507.0,2242.0,1990.0,,,,0.0567389873114707,-1.69235115551161,0.0930497526191595,,-0.6388070755444094,,
2025-08-19 22:00:58,4519.0,879.0,4356.0,908.0,2511.0,2244.0,1988.0,,,2025/08/19 10:00:58 PM,0.0567640277154377,-1.6930008550388,0.0930404483289368,,-0.30130083811742,,
,4518.0,879.0,4356.0,908.0,2508.0,2259.0,1983.0,,,,0.0567611099164503,-1.69186541684902,0.0930232641846483,,0.045196453197522135,,
,4520.0,881.0,4356.0,906.0,2499.0,2266.0,1986.0,,,,0.0568004181385613,-1.69192469819365,0.0930258778067517,,0.3984088677731511,,
,4518.0,880.0,4353.0,908.0,2476.0,2246.0,1990.0,,,,0.0567956547752245,-1.69165917908776,0.0930296422948893,,0.7559011964648108,,
,4515.0,881.0,4357.0,908.0,2479.0,2257.0,1990.0,,,,0.0567826303552804,-1.69242195468803,0.093024352343403,,1.114839467527644,,
,4514.0,879.0,4351.0,908.0,2481.0,2266.0,1985.0,,,,0.0568016254333532,-1.6925868269783,0.0930354334910768,,1.4717577303149685,,
,4511.0,876.0,4351.0,904.0,2493.0,2275.0,1988.0,,,,0.0567835100974843,-1.69223517925155,0.0930302440157236,,1.8223706031500047,,
,4517.0,881.0,4353.0,908.0,2479.0,2281.0,1978.0,,,,0.0567705210990716,-1.69217372966515,0.093008616856459,,2.1614674513693553,,
,4515.0,881.0,4353.0,907.0,2477.0,2278.0,1981.0,,,,0.0567743784490668,-1.69199235497876,0.0930341403370092,,2.4829160178561347,,
,4516.0,879.0,4354.0,906.0,2484.0,2265.0,1984.0,,,,0.0567685938678606,-1.69197952985112,0.0930151583329369,,2.7797919508589546,,
,4513.0,877.0,4351.0,904.0,2494.0,2294.0,1996.0,,,,0.0568237644210087,-1.69164741350708,0.0930304294266602,,3.0446370224163117,,
,4514.0,879.0,4351.0,905.0,2487.0,2271.0,1990.0,,,,0.0568471942955766,-1.69116260476142,0.0930595626219366,,3.2698340569770052,,
,4515.0,877.0,4351.0,905.0,2482.0,2294.0,1977.0,,,,0.056826677396837,-1.69045115279569,0.0930652132232673,,3.4480720636225657,,
,4514.0,879.0,4355.0,905.0,2486.0,2289.0,1971.0,,,,0.056828884632811,-1.69112801842067,0.0930513012452309,,3.572862304794451,,
,4512.0,877.0,4350.0,905.0,2515.0,2271.0,1982.0,,,,0.0569126617410049,-1.69097780284714,0.0930634417703657,,3.6390564731275985,,
,4515.0,880.0,4354.0,905.0,2484.0,2265.0,1985.0,,,,0.056952842271243,-1.69101361228938,0.0930511651140141,,3.643312966016009,,
,4515.0,878.0,4353.0,905.0,2485.0,2275.0,1983.0,,,,0.0569065689151391,-1.69037025309584,0.0930668833583727,,3.584457424680582,,
,4518.0,879.0,4354.0,908.0,2482.0,2286.0,1973.0,,,,0.0569165492120886,-1.6897260909021,0.0930725923893551,,3.46369011819855,,
,4515.0,877.0,4353.0,908.0,2480.0,2290.0,1983.0,,,,0.0569237013113708,-1.68931652322001,0.0930842580937433,,3.284606011238282,,
,4515.0,879.0,4352.0,905.0,2482.0,2266.0,1983.0,,,,0.0569052591577595,-1.68949019056802,0.0931226839562555,,3.0530132371516423,,
,4518.0,879.0,4355.0,905.0,2486.0,2277.0,1991.0,,,,0.0569990259287236,-1.68917346933049,0.0931177540673148,,2.7765603464683086,,
,4519.0,882.0,4356.0,907.0,2504.0,2259.0,1978.0,,,,0.0569927668102064,-1.68939701390054,0.0931205494750672,,2.464208142719385,,
,4518.0,879.0,4356.0,909.0,2515.0,2272.0,1974.0,,,,0.0569409994159841,-1.68965435280754,0.0931292426485269,,2.1256028276459222,,
,4519.0,877.0,4354.0,905.0,2501.0,2273.0,1994.0,,,,0.0570177350254575,-1.68931483163014,0.0931208028685974,,1.7704189881128296,,
,4519.0,880.0,4354.0,909.0,2487.0,2257.0,1981.0,,,,0.0570114841837522,-1.68965599618644,0.0931235241008678,,1.4077418753342985,,
,4522.0,881.0,4356.0,906.0,2499.0,2259.0,1978.0,,,,0.0569663294831641,-1.68942312251896,0.093129478883047,,1.045549638517647,,
,4521.0,880.0,4356.0,909.0,2496.0,2252.0,1983.0,,,,0.0569777629161362,-1.6888869419709,0.0931204315561087,,0.6903404250106053,,
,4524.0,880.0,4358.0,908.0,2487.0,2251.0,1981.0,,,,0.0570067850567624,-1.68919924301388,0.093121700250089,,0.3469295798444436,,
,4524.0,878.0,4359.0,907.0,2508.0,2250.0,1975.0,,,,0.057042100923207,-1.68901529216383,0.0931098763556809,,0.018421505004066408,,
,4523.0,882.0,4359.0,910.0,2509.0,2275.0,1975.0,,,,0.0570431462338093,-1.68890992687129,0.0931301910552026,,-0.29365824895625525,,
,4523.0,881.0,4362.0,910.0,2501.0,2265.0,1989.0,,,,0.0570412686933315,-1.68931616746534,0.0931126790487579,,-0.589100283527865,,
,4525.0,884.0,4363.0,908.0,2495.0,2249.0,1984.0,,,,0.0570392928795038,-1.68903253005905,0.093123784214867,,-0.868657801255011,,
,4525.0,881.0,4361.0,909.0,2511.0,2252.0,1980.0,,,,0.0570008306370909,-1.68864119077296,0.0931033484192277,,-1.1336466499493907,,
,4529.0,881.0,4362.0,910.0,2521.0,2272.0,1982.0,,,,0.0570290156075773,-1.6890031581805,0.0931175323222437,,-1.3855430373507223,,
,4528.0,881.0,4360.0,908.0,2513.0,2251.0,1977.0,,,,0.0570325393179384,-1.68891913233458,0.0931228880049716,,-1.625618372009279,,
,4531.0,882.0,4364.0,911.0,2510.0,2244.0,1979.0,,,,0.056980622113914,-1.6886194223088,0.0931299297127224,,-1.8546427676659718,,
,4529.0,881.0,4362.0,909.0,2508.0,2261.0,1986.0,,,,0.0570623148621668,-1.68877894568702,0.0931222759372885,,-2.0726785024218923,,
,4532.0,882.0,4363.0,911.0,2488.0,2257.0,1991.0,,,,0.0570450374805624,-1.68858099222979,0.0931107129858901,,-2.278973236840381,,
,4533.0,883.0,4366.0,910.0,2511.0,2247.0,1987.0,,,,0.0571052138609176,-1.68885941192188,0.0931146594345049,,-2.4719514368389714,,
,4535.0,883.0,4366.0,910.0,2522.0,2240.0,1991.0,,,,0.0570773386490807,-1.68854916721589,0.0931400679126672,,-2.6492928357495145,,
,4531.0,884.0,4365.0,912.0,2528.0,2251.0,1987.0,,,,0.0570778422020053,-1.68842985540937,0.0931182139063497,,-2.808080273049694,,
,4536.0,883.0,4367.0,910.0,2514.0,2279.0,1987.0,,,,0.057091870559122,-1.68817808658763,0.0931297231614066,,-2.9449962876559104,,
,4535.0,882.0,4365.0,912.0,2506.0,2260.0,1987.0,,,,0.0570710276281376,-1.68818472373039,0.0931358112457379,,-3.0565477332018514,,
,4536.0,883.0,4366.0,911.0,2507.0,2235.0,1983.0,,,,0.0571226393036366,-1.68804094236156,0.0931685339617912,,-3.1392992131226864,,
,4539.0,885.0,4367.0,912.0,2513.0,2243.0,1977.0,,,,0.0571568857677858,-1.68795716220629,0.0931772075627265,,-3.1900983066875614,,
,4538.0,885.0,4368.0,913.0,2518.0,2282.0,1985.0,,,,0.0571944412699529,-1.68749741482797,0.0931591422404208,,-3.2062778859433414,,
,4543.0,884.0,4372.0,912.0,2524.0,2280.0,1996.0,,,,0.0571169980727459,-1.6876726054034,0.093182309256144,,-3.185823240194502,,
,4540.0,887.0,4371.0,914.0,2508.0,2271.0,1983.0,,,,0.0572004825749003,-1.68741492381585,0.0931787364114027,,-3.1274943763916334,,
,4544.0,886.0,4369.0,915.0,2506.0,2274.0,1979.0,,,,0.057184962833864,-1.68707668719688,0.0932011580044189,,-3.030896959581614,,
,4542.0,883.0,4367.0,914.0,2504.0,2250.0,1999.0,,,,0.0571963884592602,-1.68744501077787,0.0931956993358592,,-2.8964990816515535,,
,4542.0,886.0,4369.0,914.0,2514.0,2257.0,1997.0,,,,0.0572636716858297,-1.68673644735367,0.0932048826691413,,-2.7255954244198985,,
,4544.0,885.0,4373.0,915.0,2505.0,2267.0,1985.0,,,,0.057270554475304,-1.68641867827682,0.0932068196613705,,-2.5202250582936014,,
,4547.0,887.0,4374.0,915.0,2514.0,2280.0,1985.0,,,,0.057246353841611,-1.6866566564619,0.0932266132060053,,-2.2830532759176894,,
,4547.0,888.0,4373.0,917.0,2508.0,2238.0,1971.0,,,,0.0572397335341889,-1.68697966208647,0.0931970219695096,,-2.0172305405486424,,
,4545.0,885.0,4374.0,915.0,2508.0,2232.0,1969.0,,,,0.0571857400550531,-1.6867662635587,0.0931949971610752,,-1.7262422588791082,,
,4549.0,887.0,4375.0,918.0,2502.0,2260.0,1982.0,,,,0.0571681163599276,-1.68765400000482,0.0931726014792932,,-1.413761840873637,,
,4550.0,888.0,4374.0,916.0,2495.0,2284.0,1977.0,,,,0.0571271598225826,-1.68827865048836,0.0931616838151744,,-1.0835172436303249,,
,4554.0,887.0,4380.0,916.0,2509.0,2281.0,1973.0,,,,0.0570383426711873,-1.68871144149977,0.0931321073855539,,-0.7391789675699827,,
,4551.0,887.0,4380.0,915.0,2515.0,2279.0,1958.0,,,,0.0569780559461236,-1.68982907513722,0.0931012876499696,,-0.3842758660481907,,
,4555.0,887.0,4379.0,914.0,2526.0,2291.0,1980.0,,,,0.0569010275102756,-1.6906482349985,0.0930999683556184,,-0.022143942855186505,,
,4555.0,890.0,4381.0,920.0,2526.0,2279.0,1985.0,,,,0.0568858773369433,-1.69106398649667,0.0930656704091794,,0.34408810197775824,,
,4557.0,889.0,4379.0,917.0,2517.0,2279.0,1986.0,,,,0.0568418622095288,-1.69114276159178,0.0930636094546203,,0.7114749430162899,,
,4556.0,889.0,4380.0,919.0,2532.0,2272.0,1980.0,,,,0.0568341097764385,-1.69184333052267,0.0930565092978611,,1.0771935559934291,,
,4558.0,888.0,4379.0,918.0,2513.0,2272.0,1984.0,,,,0.0568038427857214,-1.6921720484293,0.09301289500471,,1.4384496040523074,,
,4556.0,891.0,4379.0,920.0,2523.0,2266.0,1986.0,,,,0.056757503229563,-1.69272091135248,0.092998682709533,,1.7923594496954525,,
,4555.0,888.0,4374.0,918.0,2507.0,2260.0,1987.0,,,,0.0567323007504014,-1.69340039927437,0.0930137461359175,,2.1358194978371086,,
,4554.0,889.0,4371.0,918.0,2507.0,2273.0,1995.0,,,,0.0566804666913759,-1.69334486268299,0.0929836121110363,,2.465377869177552,,
,4547.0,884.0,4365.0,912.0,2521.0,2265.0,1986.0,,,,0.0566146532491082,-1.6935133264236,0.092993882426928,,2.7771260803418207,,
,4543.0,885.0,4361.0,912.0,2513.0,2240.0,1985.0,,,,0.0566638563154054,-1.69406573151604,0.0929926952223952,,3.0666299039191616,,
,4544.0,882.0,4360.0,911.0,2501.0,2260.0,1992.0,,,,0.0566743580395109,-1.69383113357555,0.092972446441646,,3.3289182702606097,,
,4537.0,881.0,4350.0,908.0,2496.0,2247.0,1993.0,,,,0.0566598448955657,-1.69409438830236,0.0929816291481055,,3.5585464863845453,,
,4534.0,877.0,4345.0,906.0,2500.0,2233.0,1987.0,,,,0.0566673185844322,-1.69338753143488,0.0929934882769766,,3.749745028583824,,
,4529.0,880.0,4339.0,907.0,2486.0,2232.0,1983.0,,,,0.0567030048582159,-1.69307306714664,0.0929875306021331,,3.896657799207402,,
,4525.0,879.0,4337.0,906.0,2490.0,2246.0,1992.0,,,,0.0567671112164795,-1.69215568692233,0.0930335139254603,,3.993664196405672,,
,4522.0,876.0,4332.0,905.0,2490.0,2258.0,1983.0,,,,0.0567804627304769,-1.69185476773462,0.0930521988702381,,4.035768024170542,,
,4517.0,873.0,4328.0,901.0,2493.0,2242.0,1975.0,,,,0.056784835589654,-1.69167528705143,0.0930992339654291,,4.01902420761132,,
,4514.0,870.0,4323.0,898.0,2504.0,2262.0,1988.0,,,,0.0567587465244963,-1.69081669209644,0.0930774422391246,,3.9409632964530963,,
,4512.0,872.0,4321.0,902.0,2519.0,2271.0,1989.0,,,,0.0568243972764897,-1.69070602945957,0.0930807042489653,,3.800966051907511,,
,4510.0,872.0,4320.0,899.0,2508.0,2267.0,1985.0,,,,0.0569680898824654,-1.69034741642929,0.0931201097805098,,3.6005381294544554,,
,4508.0,870.0,4318.0,898.0,2503.0,2261.0,1977.0,,,,0.0569365649203543,-1.68967586645557,0.0931269106860411,,3.343439687158549,,
,4506.0,870.0,4312.0,897.0,2501.0,2256.0,1975.0,,,,0.0569695970184398,-1.68891903752182,0.0931331928294148,,3.0356375165149827,,
,4506.0,870.0,4314.0,897.0,2501.0,2270.0,1975.0,,,,0.0570235453930657,-1.68898117644656,0.0931283319327105,,2.685067277387367,,
,4506.0,873.0,4313.0,895.0,2511.0,2245.0,1969.0,,,,0.056950501057777,-1.68882329266807,0.0931510392414377,,2.301217725258323,,
,4501.0,870.0,4313.0,897.0,2523.0,2248.0,1977.0,,,,0.0569906357269338,-1.68862525671815,0.0931314879672287,,1.8945727467961286,,
,4500.0,869.0,4308.0,892.0,2513.0,2261.0,1974.0,,,,0.0570897967448722,-1.68824688668583,0.0931264346364091,,1.4759655844997572,,
,4499.0,869.0,4308.0,894.0,2496.0,2268.0,1980.0,,,,0.0571087768263127,-1.68824626165533,0.0931587926642459,,1.0559094638020823,,
,4500.0,869.0,4310.0,896.0,2495.0,2269.0,1979.0,,,,0.0570581495213505,-1.68834069525827,0.0931619620803896,,0.6439691827705817,,
,4500.0,869.0,4307.0,897.0,2502.0,2266.0,1979.0,,,,0.0571201966869781,-1.68849498954725,0.0931663471709158,,0.24823056464828158,,
,4499.0,867.0,4302.0,891.0,2523.0,2229.0,1967.0,,,,0.0571334239287189,-1.68847079309464,0.0931458717855451,,-0.12508842170912632,,
,4496.0,867.0,4305.0,896.0,2510.0,2233.0,1986.0,,,,0.0571641465129059,-1.68799248858015,0.0931565528050911,,-0.47185703771538284,,
,4499.0,870.0,4307.0,896.0,2503.0,2239.0,1985.0,,,,0.0571582264184032,-1.68777298902851,0.0931699930140616,,-0.7900707047035946,,
,4496.0,870.0,4307.0,894.0,2500.0,2237.0,1981.0,,,,0.0572143027204993,-1.68714433560124,0.0932248546268431,,-1.0797149541177158,,
,4496.0,866.0,4305.0,894.0,2494.0,2229.0,1980.0,,,,0.0571559800802531,-1.68736936314575,0.0931822723929052,,-1.3424745526631643,,
,4497.0,867.0,4306.0,893.0,2506.0,2226.0,1975.0,,,,0.0572166118693856,-1.6872326898384,0.0932112840363567,,-1.5813197955855034,,
,4498.0,869.0,4306.0,896.0,2504.0,2220.0,1972.0,,,,0.0571921027035857,-1.68642491026664,0.0932066638110744,,-1.8000102045999926,,
,4500.0,871.0,4307.0,895.0,2522.0,2249.0,1972.0,,,,0.0571609466354231,-1.68664280155112,0.093238742358556,,-2.0025602771207107,,
,4498.0,868.0,4304.0,896.0,2535.0,2255.0,1972.0,,,,0.057225997824388,-1.68644042643724,0.0932341346545764,,-2.1927126427372894,,
,4495.0,867.0,4305.0,894.0,2521.0,2271.0,1977.0,,,,0.0573476052439777,-1.68623332813423,0.0932514397592369,,-2.3734613470346946,,
,4492.0,866.0,4302.0,894.0,2510.0,2277.0,1980.0,,,,0.0572886053077406,-1.68647179119876,0.0932545343558728,,-2.5466625279898505,,
,4495.0,866.0,4303.0,893.0,2517.0,2280.0,1993.0,,,,0.0572064637029934,-1.68597376086038,0.0932404267161439,,-2.7127621120070273,,
,4494.0,866.0,4302.0,894.0,2518.0,2286.0,1990.0,,,,0.057237973244558,-1.68524225470312,0.0932456229519326,,-2.8706609644054164,,
,4492.0,869.0,4301.0,894.0,2518.0,2259.0,1988.0,,,,0.0571668918035224,-1.6850703940381,0.0932748820429058,,-3.0177276931576804,,
,4489.0,863.0,4298.0,891.0,2529.0,2261.0,1992.0,,,,0.0573612486069805,-1.68491765740521,0.0932827139108803,,-3.149958396633377,,
,4492.0,867.0,4300.0,892.0,2530.0,2259.0,1995.0,,,,0.0573334165205804,-1.68449114388382,0.0933032133717381,,-3.262271394508845,,
,4491.0,866.0,4299.0,892.0,2539.0,2245.0,1984.0,,,,0.0574038568889618,-1.68443838807714,0.0933125565105897,,-3.348913788229375,,
,4489.0,866.0,4296.0,891.0,2518.0,2243.0,1989.0,,,,0.0574152795777713,-1.68387604860536,0.0933147234690362,,-3.4039461432463587,,
,4487.0,865.0,4295.0,891.0,2495.0,2256.0,1992.0,,,,0.0574099118381713,-1.6840526222708,0.0932996657619679,,-3.421762624370922,,
,4490.0,866.0,4298.0,892.0,2501.0,2261.0,1989.0,,,,0.0574167758012361,-1.68367004974391,0.0932937299403277,,-3.397598050031426,,
,4488.0,865.0,4297.0,891.0,2506.0,2255.0,1982.0,,,,0.0574399065606311,-1.68361148097044,0.0933166567144891,,-3.327972293093468,,
,4485.0,866.0,4293.0,889.0,2504.0,2259.0,1986.0,,,,0.0574347416528664,-1.68343515682455,0.0933389141580705,,-3.211027351132336,,
,4485.0,864.0,4292.0,891.0,2484.0,2257.0,1985.0,,,,0.0574947930158758,-1.68289554676327,0.0933450010203055,,-3.0467230803421415,,
,4485.0,864.0,4291.0,890.0,2489.0,2264.0,1987.0,,,,0.0574959154238802,-1.68307083297422,0.0933145200582071,,-2.8368727467246977,,
,4487.0,864.0,4294.0,892.0,2475.0,2239.0,1987.0,,,,0.0575370999744465,-1.68238291040438,0.0933440442673538,,-2.5850172611343973,,
,4484.0,864.0,4293.0,889.0,2492.0,2243.0,1984.0,,,,0.057549382640135,-1.68212823609853,0.0933697139678915,,-2.296154930937284,,
,4487.0,865.0,4292.0,893.0,2493.0,2246.0,1989.0,,,,0.0575919558317797,-1.68209495253708,0.0933607943644966,,-1.9763593290711756,,
,4483.0,863.0,4292.0,888.0,2499.0,2263.0,1990.0,,,,0.0576176136923396,-1.68200906517665,0.0933710157315567,,-1.6323293050322343,,
,4485.0,864.0,4291.0,891.0,2494.0,2273.0,1985.0,,,,0.057582515966312,-1.68174069663837,0.0933914661882258,,-1.2709209139745457,,
,4488.0,865.0,4294.0,889.0,2489.0,2268.0,1993.0,,,,0.0575408022653597,-1.68125956359742,0.0934017933323373,,-0.8987107968995985,,
,4488.0,865.0,4292.0,889.0,2491.0,2269.0,1992.0,,,,0.057537462848659,-1.68111092067749,0.0933956732571283,,-0.5216348178038156,,
