TimeLabel,MEAS1_PPG1,MEAS1_PPG2,MEAS1_PPG3,MEAS1_PPG4,ACCX,ACCY,ACCZ,HR_timestamp,HR_value,radar_timestamp,phase_rx0,phase_rx1,phase_rx2,timestep,n_process,original_rate,calculated_rate
2025-08-20 20:57:22,6007.0,1330.0,3659.0,1273.0,1414.0,3227.0,1772.0,2025-08-20 20:57:22,71.0,2025/08/20 08:57:22 PM,0.0888444821385992,-0.954652705767876,0.265760481052773,2025/08/20 08:57:22 PM,-2.126639963067677,14.900662422180176,11.654879773691654
,6009.0,1332.0,3660.0,1273.0,1417.0,3235.0,1780.0,2025-08-20 20:57:23,72.0,,0.088844577874443,-0.955512642144173,0.265220305502003,2025/08/20 08:57:32 PM,-2.172557935015855,11.857707977294922,13.502640181040986
,6007.0,1330.0,3655.0,1272.0,1416.0,3241.0,1787.0,2025-08-20 20:57:24,72.0,,0.0888418330743483,-0.955968301240832,0.265202210332332,2025/08/20 08:57:42 PM,-2.2131890355187496,11.961722373962402,12.903225806451612
,6009.0,1331.0,3659.0,1274.0,1418.0,3231.0,1788.0,2025-08-20 20:57:25,72.0,,0.0888398827650065,-0.956388611615071,0.264983961101971,2025/08/20 08:57:52 PM,-2.249290863518159,12.75691032409668,16.903644086742677
,6006.0,1329.0,3657.0,1272.0,1421.0,3229.0,1800.0,2025-08-20 20:57:26,72.0,,0.0888341444658376,-0.95693264349715,0.264517728131748,2025/08/20 08:58:02 PM,-2.2813742065726346,14.206788063049316,14.81258467559837
,6008.0,1331.0,3654.0,1273.0,1424.0,3225.0,1789.0,2025-08-20 20:57:27,72.0,,0.088830068980925,-0.957488496128464,0.264089813655378,2025/08/20 08:58:12 PM,-2.3096942112531256,14.935988426208496,12.976744186046506
,6004.0,1330.0,3655.0,1272.0,1422.0,3229.0,1791.0,2025-08-20 20:57:28,72.0,,0.0888256575259084,-0.958155481457458,0.263493412296224,2025/08/20 08:58:22 PM,-2.33426787446762,14.935988426208496,14.085582766188404
,6010.0,1332.0,3657.0,1272.0,1430.0,3234.0,1781.0,2025-08-20 20:57:29,72.0,,0.0888215000615108,-0.958312594354551,0.263270926922229,2025/08/20 08:58:32 PM,-2.3549182838309832,14.0625,10.0
,6007.0,1330.0,3655.0,1272.0,1432.0,3223.0,1770.0,2025-08-20 20:57:30,72.0,,0.0888138156689163,-0.95901433248715,0.262672817424331,2025/08/20 08:58:42 PM,-2.3713436523820235,12.520868301391602,10.482148306377782
,6006.0,1331.0,3656.0,1270.0,1435.0,3226.0,1780.0,2025-08-20 20:57:31,71.0,,0.0888164353132929,-0.959312673029957,0.26242466289251,2025/08/20 08:58:52 PM,-2.383206172892106,11.673151969909668,11.062022090059465
,6006.0,1331.0,3657.0,1274.0,1441.0,3243.0,1790.0,2025-08-20 20:57:32,71.0,,0.088811580388055,-0.959319547216624,0.262612302887152,2025/08/20 08:59:02 PM,-2.3902322829579075,10.623229026794434,11.882352941176478
,6006.0,1331.0,3658.0,1273.0,1440.0,3247.0,1803.0,2025-08-20 20:57:33,71.0,,0.0888109486545218,-0.959526656487692,0.262445441304594,2025/08/20 08:59:12 PM,-2.392312875368389,11.312216758728027,12.784471218206143
,6006.0,1331.0,3655.0,1273.0,1418.0,3255.0,1811.0,2025-08-20 20:57:34,71.0,,0.0888092764888928,-0.959884097657581,0.262308252558511,2025/08/20 08:59:22 PM,-2.3895903823963143,12.32032871246338,12.462333189840752
,6004.0,1330.0,3654.0,1271.0,1406.0,3236.0,1803.0,2025-08-20 20:57:35,72.0,,0.0888121243766122,-0.959839217123158,0.262112882035628,2025/08/20 08:59:32 PM,-2.3825202180715905,12.448132514953612,12.246173070915324
,6005.0,1329.0,3655.0,1273.0,1409.0,3234.0,1789.0,2025-08-20 20:57:36,71.0,,0.0888151430122388,-0.959525759085275,0.262827993630155,2025/08/20 08:59:42 PM,-2.3718967065228793,12.517385482788086,12.462333189840717
,6004.0,1329.0,3655.0,1269.0,1400.0,3237.0,1785.0,2025-08-20 20:57:37,71.0,,0.0888175547840146,-0.959127097579524,0.263088530960643,2025/08/20 08:59:52 PM,-2.3588376649554346,12.67605686187744,14.700277200277199
,6002.0,1329.0,3655.0,1271.0,1400.0,3249.0,1820.0,2025-08-20 20:57:38,70.0,,0.0888208573628567,-0.95883037575658,0.263221076360051,2025/08/20 09:00:02 PM,-2.3447264046604617,12.98701286315918,11.814584511023192
,6000.0,1327.0,3654.0,1272.0,1420.0,3243.0,1816.0,2025-08-20 20:57:39,70.0,,0.08882261942051,-0.958569290916274,0.263190129132236,2025/08/20 09:00:12 PM,-2.3311144007192017,14.058106422424316,10.084033613445397
,6003.0,1331.0,3656.0,1271.0,1423.0,3230.0,1796.0,2025-08-20 20:57:40,69.0,,0.0888258347043958,-0.95814568122206,0.263476087036008,,-2.3195918356378162,,
,6004.0,1330.0,3657.0,1273.0,1419.0,3232.0,1791.0,2025-08-20 20:57:41,69.0,,0.0888289523663655,-0.957726371630455,0.263604974087608,,-2.311636379240546,,
,6003.0,1332.0,3656.0,1270.0,1424.0,3226.0,1796.0,2025-08-20 20:57:42,69.0,,0.088832099700262,-0.957052846164036,0.264057847143179,,-2.3084527832863984,,
,5999.0,1328.0,3655.0,1269.0,1422.0,3234.0,1792.0,2025-08-20 20:57:43,70.0,,0.0888314754812755,-0.957579758737413,0.264149199002381,,-2.310817129735327,,
,6002.0,1331.0,3654.0,1270.0,1426.0,3237.0,1806.0,2025-08-20 20:57:44,70.0,,0.0888343771420356,-0.957354459641681,0.264252136875454,,-2.318939935095396,,
,6002.0,1328.0,3656.0,1274.0,1435.0,3232.0,1807.0,2025-08-20 20:57:45,71.0,,0.0888335283733176,-0.956931233562691,0.264377627681974,,-2.3323617844611273,,
,6001.0,1329.0,3655.0,1272.0,1420.0,3236.0,1791.0,2025-08-20 20:57:46,71.0,,0.0888373764961601,-0.957095815545948,0.264267121151978,,-2.349893614535306,,
,6003.0,1330.0,3654.0,1270.0,1420.0,3228.0,1790.0,2025-08-20 20:57:47,72.0,,0.0888349559634799,-0.956433723390842,0.264574185834311,,-2.369610945647445,,
,6005.0,1333.0,3655.0,1272.0,1425.0,3233.0,1795.0,2025-08-20 20:57:48,72.0,,0.0888297636981019,-0.956945656291333,0.264225545375518,,-2.3889070675291055,,
,6004.0,1330.0,3656.0,1274.0,1412.0,3237.0,1779.0,2025-08-20 20:57:49,72.0,,0.088836840427252,-0.956869345849119,0.26418008803665,,-2.4046044577671704,,
,6007.0,1332.0,3657.0,1271.0,1408.0,3227.0,1777.0,2025-08-20 20:57:50,72.0,,0.0888370051017744,-0.957343749720504,0.264510249557068,,-2.413117121359085,,
,6009.0,1332.0,3659.0,1272.0,1420.0,3224.0,1776.0,2025-08-20 20:57:51,72.0,,0.0888353981335176,-0.957356331128389,0.264330651648693,,-2.410650233798716,,
,6008.0,1333.0,3657.0,1275.0,1434.0,3248.0,1790.0,2025-08-20 20:57:52,72.0,,0.0888387426085655,-0.957061159990136,0.264738295549372,,-2.393418795410005,,
,6008.0,1334.0,3660.0,1276.0,1429.0,3232.0,1801.0,2025-08-20 20:57:53,73.0,,0.0888339319737974,-0.957419792105697,0.264305740485385,,-2.3578648688530297,,
,6010.0,1331.0,3659.0,1273.0,1429.0,3227.0,1796.0,2025-08-20 20:57:54,73.0,,0.0888334427716418,-0.956954011310502,0.26405004376322,,-2.300853537399109,,
,6009.0,1332.0,3656.0,1275.0,1415.0,3228.0,1793.0,2025-08-20 20:57:55,73.0,,0.0888346663552346,-0.956813540733638,0.264441777910211,,-2.2198306473345166,,
,6009.0,1334.0,3658.0,1274.0,1408.0,3218.0,1794.0,2025-08-20 20:57:56,73.0,,0.0888365080090579,-0.957159038560587,0.264284518309639,,-2.112930203019678,,
,6011.0,1334.0,3661.0,1274.0,1412.0,3218.0,1791.0,2025-08-20 20:57:57,73.0,,0.0888324485457085,-0.956958022945802,0.264352251112156,,-1.9790254331359638,,
,6010.0,1333.0,3659.0,1275.0,1426.0,3230.0,1802.0,2025-08-20 20:57:58,73.0,,0.0888346297639467,-0.957001874058892,0.264172270530721,,-1.8177243517323356,,
,6014.0,1332.0,3657.0,1272.0,1437.0,3249.0,1810.0,2025-08-20 20:57:59,72.0,,0.0888356972880437,-0.957182449087092,0.263905651879177,,-1.6293172430890377,,
,6012.0,1330.0,3657.0,1275.0,1428.0,3232.0,1822.0,2025-08-20 20:58:00,73.0,,0.0888399380960281,-0.957386304438032,0.26403404440635,,-1.4146890247466615,,
,6012.0,1333.0,3659.0,1274.0,1428.0,3236.0,1786.0,2025-08-20 20:58:01,73.0,,0.0888377696587759,-0.956730543709564,0.264105740139247,,-1.175213143795906,,
,6014.0,1333.0,3660.0,1277.0,1420.0,3252.0,1768.0,2025-08-20 20:58:02,74.0,,0.0888387487196847,-0.957400928447746,0.263813991143175,,-0.912645037110193,,
,6015.0,1334.0,3663.0,1276.0,1413.0,3272.0,1788.0,2025-08-20 20:58:03,74.0,,0.0888394619489015,-0.957271801374112,0.264417331709067,,-0.6290320386369073,,
,6018.0,1335.0,3664.0,1274.0,1416.0,3254.0,1815.0,2025-08-20 20:58:04,74.0,,0.088834866417407,-0.957724995728369,0.264012474959182,,-0.32665303722522177,,
,6017.0,1334.0,3664.0,1277.0,1422.0,3247.0,1803.0,2025-08-20 20:58:05,74.0,,0.0888369237377116,-0.957854314348683,0.263877601114082,,-0.007995483445520103,,
,6019.0,1338.0,3664.0,1279.0,1427.0,3261.0,1802.0,2025-08-20 20:58:06,73.0,,0.088833107196519,-0.957239681802955,0.264078357563629,,0.32422995130993176,,
,6020.0,1336.0,3664.0,1276.0,1411.0,3253.0,1780.0,2025-08-20 20:58:07,73.0,,0.0888326333511469,-0.957539304695113,0.263865091583668,,0.6670446890839294,,
,6020.0,1334.0,3662.0,1278.0,1419.0,3238.0,1782.0,2025-08-20 20:58:08,73.0,,0.0888343331780262,-0.958167013021089,0.26379777565756,,1.0171422248250415,,
,6021.0,1335.0,3662.0,1277.0,1415.0,3241.0,1780.0,2025-08-20 20:58:09,72.0,,0.0888281278485431,-0.957411258929802,0.263820949144724,,1.3708319979320946,,
,6025.0,1336.0,3667.0,1280.0,1414.0,3243.0,1787.0,2025-08-20 20:58:10,73.0,,0.0888361764156254,-0.957661470897497,0.263618942759429,,1.7240073076050901,,
,6025.0,1339.0,3666.0,1279.0,1408.0,3242.0,1778.0,2025-08-20 20:58:11,73.0,,0.0888341094378051,-0.957702470935376,0.263625707143931,,2.0721547061279346,,
,6022.0,1335.0,3665.0,1277.0,1412.0,3252.0,1799.0,2025-08-20 20:58:12,73.0,,0.0888369732714249,-0.957570064027159,0.264081400816303,,2.4104167077823395,,
,6025.0,1337.0,3666.0,1279.0,1434.0,3238.0,1807.0,2025-08-20 20:58:13,73.0,,0.0888340511232045,-0.957399979493557,0.264029266081873,,2.7337121932129436,,
,6024.0,1338.0,3668.0,1281.0,1440.0,3229.0,1789.0,2025-08-20 20:58:14,73.0,,0.0888352335482292,-0.958002875351556,0.264092927475142,,3.0369105612699223,,
,6028.0,1338.0,3667.0,1280.0,1434.0,3227.0,1786.0,2025-08-20 20:58:15,74.0,,0.0888329740601025,-0.958040778710668,0.263816310914577,,3.31504746694769,,
,6027.0,1340.0,3668.0,1279.0,1422.0,3220.0,1799.0,2025-08-20 20:58:16,73.0,,0.0888294076864967,-0.957970859289972,0.264122894288703,,3.5635629149228283,,
,6029.0,1340.0,3668.0,1279.0,1409.0,3228.0,1794.0,2025-08-20 20:58:17,72.0,,0.0888409881518416,-0.95800453988956,0.264130638859151,,3.778537555072933,,
,6030.0,1337.0,3667.0,1281.0,1430.0,3214.0,1789.0,2025-08-20 20:58:18,71.0,,0.0888387862836172,-0.957720774267345,0.26418855917678,,3.9569010439358707,,
,6033.0,1340.0,3669.0,1281.0,1428.0,3221.0,1790.0,2025-08-20 20:58:19,71.0,,0.0888388108523076,-0.957047207397379,0.264420370064541,,4.096587719128018,,
,6029.0,1337.0,3665.0,1280.0,1419.0,3227.0,1830.0,2025-08-20 20:58:20,72.0,,0.088839195793161,-0.957047168753282,0.264397153913084,,4.196619571275395,,
,6030.0,1338.0,3669.0,1282.0,1421.0,3240.0,1810.0,2025-08-20 20:58:21,72.0,,0.0888375943212087,-0.957129374223547,0.264475217809338,,4.257104170121098,,
,6034.0,1339.0,3670.0,1282.0,1406.0,3229.0,1799.0,2025-08-20 20:58:22,72.0,,0.0888431383992866,-0.957362514305419,0.264755634339349,,4.279145079486339,,
,6034.0,1340.0,3670.0,1283.0,1407.0,3233.0,1794.0,2025-08-20 20:58:23,72.0,,0.0888421052767078,-0.957097104060624,0.264723139407897,,4.264673406162746,,
,6034.0,1341.0,3671.0,1282.0,1417.0,3258.0,1780.0,2025-08-20 20:58:24,72.0,,0.088843440839302,-0.956941747557529,0.265048433602723,,4.2162200978165245,,
,6035.0,1340.0,3673.0,1284.0,1413.0,3265.0,1782.0,2025-08-20 20:58:25,72.0,,0.0888450311094504,-0.956961921209377,0.26473014260492,,4.136657488160593,,
,6036.0,1341.0,3673.0,1285.0,1420.0,3234.0,1792.0,2025-08-20 20:58:26,72.0,,0.08884610052513,-0.956628269550902,0.264839252224938,,4.028943261143376,,
,6036.0,1343.0,3674.0,1282.0,1414.0,3234.0,1796.0,2025-08-20 20:58:27,71.0,,0.0888441209611952,-0.956661125088211,0.26482648493926,,3.8958991502837823,,
,6039.0,1342.0,3674.0,1283.0,1406.0,3232.0,1785.0,2025-08-20 20:58:28,70.0,,0.0888462161664722,-0.956689560960579,0.265110919973336,,3.740050473535944,,
,6039.0,1344.0,3675.0,1284.0,1419.0,3240.0,1792.0,2025-08-20 20:58:29,70.0,,0.0888497796430169,-0.956705487211343,0.26504711444167,,3.5635424956093056,,
,6041.0,1342.0,3674.0,1284.0,1422.0,3233.0,1792.0,2025-08-20 20:58:30,69.0,,0.0888513405783448,-0.956844556463517,0.264615606222251,,3.368137683981262,,
,6041.0,1342.0,3676.0,1286.0,1406.0,3222.0,1805.0,2025-08-20 20:58:31,69.0,,0.0888489537943989,-0.957273792345778,0.265007541557041,,3.15528624449886,,
,6042.0,1340.0,3676.0,1284.0,1402.0,3218.0,1803.0,2025-08-20 20:58:32,69.0,,0.0888492729992756,-0.956802284704411,0.264907481090584,,2.9262525719509744,,
,6043.0,1342.0,3676.0,1283.0,1411.0,3228.0,1791.0,2025-08-20 20:58:33,70.0,,0.08884813734612,-0.95675144209059,0.265320035182051,,2.682273582576364,,
,6047.0,1345.0,3682.0,1285.0,1413.0,3211.0,1782.0,2025-08-20 20:58:34,70.0,,0.0888507315559718,-0.956536222554002,0.265015477530756,,2.4247219019388226,,
,6048.0,1344.0,3679.0,1290.0,1419.0,3220.0,1797.0,2025-08-20 20:58:35,70.0,,0.0888516423617299,-0.956470373601422,0.265286507210482,,2.1552476576245745,,
,6045.0,1344.0,3680.0,1287.0,1417.0,3246.0,1792.0,2025-08-20 20:58:36,70.0,,0.0888512892953127,-0.956566895943009,0.265249647966484,,1.8758768847318918,,
,6047.0,1346.0,3679.0,1287.0,1425.0,3257.0,1796.0,2025-08-20 20:58:37,69.0,,0.0888487812157201,-0.956098289499388,0.264950627678692,,1.5890516852966698,,
,6049.0,1345.0,3680.0,1286.0,1429.0,3258.0,1791.0,2025-08-20 20:58:38,69.0,,0.0888539839718032,-0.956330517872813,0.265118263921975,,1.297606337909208,,
,6049.0,1345.0,3684.0,1288.0,1419.0,3249.0,1824.0,2025-08-20 20:58:39,69.0,,0.088849723965477,-0.956087436272122,0.265370253379499,,1.0046832455062031,,
,6050.0,1346.0,3682.0,1287.0,1414.0,3232.0,1827.0,2025-08-20 20:58:40,70.0,,0.0888479203988703,-0.956113232015132,0.265206623748015,,0.7136014160713434,,
,6052.0,1344.0,3682.0,1287.0,1423.0,3233.0,1793.0,2025-08-20 20:58:41,70.0,,0.088847091404665,-0.956188476425936,0.265536522985757,,0.4276965231502648,,
,6050.0,1347.0,3681.0,1288.0,1426.0,3225.0,1792.0,2025-08-20 20:58:42,69.0,,0.0888584374683404,-0.955862532406282,0.265373818606582,,0.15015429621921503,,
,6048.0,1345.0,3681.0,1288.0,1413.0,3217.0,1808.0,2025-08-20 20:58:43,69.0,,0.0888528945376788,-0.955774295921704,0.265468903486016,,-0.1161422074464523,,
,6046.0,1347.0,3683.0,1289.0,1407.0,3213.0,1808.0,2025-08-20 20:58:44,70.0,,0.0888539673658595,-0.955863762806977,0.265882230750467,,-0.3687351436558308,,
,6040.0,1344.0,3675.0,1283.0,1418.0,3203.0,1779.0,2025-08-20 20:58:45,70.0,,0.0888588733339652,-0.955779839049277,0.265469904692264,,-0.605673774380646,,
,6039.0,1343.0,3677.0,1282.0,1413.0,3224.0,1765.0,2025-08-20 20:58:46,70.0,,0.0888550873852237,-0.955767441438395,0.265685299222673,,-0.825551379647485,,
,6038.0,1341.0,3678.0,1281.0,1412.0,3234.0,1780.0,2025-08-20 20:58:47,70.0,,0.0888551987659169,-0.955056911824677,0.266003931924738,,-1.027498450364602,,
,6031.0,1342.0,3672.0,1282.0,1408.0,3260.0,1781.0,2025-08-20 20:58:48,70.0,,0.088859069747646,-0.954849244912622,0.266045902225754,,-1.2111381069916352,,
,6027.0,1339.0,3670.0,1281.0,1419.0,3259.0,1775.0,2025-08-20 20:58:49,70.0,,0.088859380991072,-0.955135379778872,0.265893874584387,,-1.3765132517566117,,
,6020.0,1339.0,3670.0,1282.0,1430.0,3261.0,1791.0,2025-08-20 20:58:50,70.0,,0.0888545429228522,-0.955400499167152,0.266029329363454,,-1.5239972242331843,,
,6021.0,1339.0,3671.0,1281.0,1428.0,3254.0,1784.0,2025-08-20 20:58:51,70.0,,0.0888572679418762,-0.955670521520034,0.265660145139365,,-1.6542005792872025,,
,6018.0,1339.0,3670.0,1281.0,1426.0,3254.0,1788.0,2025-08-20 20:58:52,70.0,,0.0888556026591215,-0.955464217974443,0.265990702209221,,-1.767886046060928,,
,6013.0,1338.0,3668.0,1278.0,1427.0,3245.0,1798.0,2025-08-20 20:58:53,70.0,,0.0888579598868252,-0.955680816887001,0.266128477171114,,-1.8659018104739808,,
,6013.0,1339.0,3665.0,1279.0,1423.0,3257.0,1808.0,2025-08-20 20:58:54,70.0,,0.0888604531526942,-0.955263388679231,0.266359284481046,,-1.9491400415826001,,
,6010.0,1338.0,3667.0,1276.0,1427.0,3235.0,1804.0,2025-08-20 20:58:55,70.0,,0.0888622588855864,-0.954914276849682,0.266158001751761,,-2.0185231888827584,,
,6011.0,1338.0,3667.0,1278.0,1431.0,3226.0,1793.0,2025-08-20 20:58:56,70.0,,0.08887020544505,-0.95482375612781,0.26614337349766,,-2.0750154378884598,,
,6006.0,1336.0,3664.0,1275.0,1422.0,3232.0,1794.0,2025-08-20 20:58:57,70.0,,0.0888719753880921,-0.954711730659739,0.266607131788427,,-2.119651704035883,,
,6007.0,1337.0,3664.0,1279.0,1425.0,3227.0,1798.0,2025-08-20 20:58:58,69.0,,0.0888737321668588,-0.954350008723322,0.266420861828471,,-2.153572862067565,,
,6005.0,1338.0,3662.0,1279.0,1419.0,3233.0,1800.0,2025-08-20 20:58:59,69.0,,0.0888732015237325,-0.954358841435726,0.266644673066609,,-2.178054512715723,,
,6008.0,1336.0,3667.0,1277.0,1408.0,3225.0,1791.0,2025-08-20 20:59:00,69.0,,0.0888755408062135,-0.954307102989047,0.2666078529928,,-2.194517694256529,,
,6002.0,1336.0,3661.0,1276.0,1409.0,3233.0,1782.0,2025-08-20 20:59:01,69.0,,0.0888791509764552,-0.954133629706604,0.266809713896934,,-2.2045130258470125,,
,6003.0,1337.0,3665.0,1276.0,1402.0,3228.0,1779.0,2025-08-20 20:59:02,69.0,,0.0888794425595023,-0.953792010969003,0.266930203533822,,-2.2096739926480726,,
,6001.0,1334.0,3661.0,1276.0,1390.0,3248.0,1769.0,2025-08-20 20:59:03,69.0,,0.0888792862540456,-0.953832842880151,0.266957791769995,,-2.211639703119511,,
,6003.0,1335.0,3662.0,1276.0,1390.0,3247.0,1778.0,2025-08-20 20:59:04,69.0,,0.0888804540842516,-0.953463749506133,0.266952255240648,,-2.2119519178076774,,
,6002.0,1335.0,3663.0,1275.0,1400.0,3253.0,1791.0,2025-08-20 20:59:05,69.0,,0.0888797412222562,-0.954319229311382,0.267083682688217,,-2.2119350592327396,,
,6001.0,1335.0,3664.0,1276.0,1399.0,3230.0,1809.0,2025-08-20 20:59:06,70.0,,0.0888788805586836,-0.954038444260708,0.266925506212719,,-2.212570923150776,,
,6000.0,1336.0,3664.0,1275.0,1416.0,3231.0,1784.0,2025-08-20 20:59:07,70.0,,0.0888755522442456,-0.954428083912963,0.26662625776483,,-2.2143816413457316,,
,6001.0,1336.0,3662.0,1276.0,1421.0,3233.0,1784.0,2025-08-20 20:59:08,70.0,,0.0888622537558703,-0.955151386146284,0.26605311954276,,-2.217334914356615,,
,6002.0,1336.0,3664.0,1277.0,1422.0,3236.0,1801.0,2025-08-20 20:59:09,70.0,,0.0888610245793958,-0.955626987017601,0.265740885888419,,-2.22078455556206,,
,6001.0,1335.0,3661.0,1275.0,1408.0,3225.0,1818.0,2025-08-20 20:59:10,70.0,,0.088858388654786,-0.955726837395875,0.26524943457911,,-2.2234569254199994,,
,5999.0,1332.0,3660.0,1274.0,1405.0,3222.0,1809.0,2025-08-20 20:59:11,71.0,,0.0888570255237751,-0.956365192632519,0.265146245990897,,-2.223489869173955,,
,6001.0,1335.0,3663.0,1276.0,1416.0,3226.0,1810.0,2025-08-20 20:59:12,71.0,,0.0888535791153576,-0.956896298452643,0.264906791857173,,-2.2185253852561653,,
,5999.0,1336.0,3659.0,1277.0,1413.0,3247.0,1812.0,2025-08-20 20:59:13,71.0,,0.0888483434901072,-0.957429266902714,0.264408369380965,,-2.2058508134803305,,
,5996.0,1333.0,3658.0,1273.0,1420.0,3245.0,1813.0,2025-08-20 20:59:14,71.0,,0.0888416678460313,-0.957779066635507,0.264034686814561,,-2.182576699511675,,
,5997.0,1337.0,3664.0,1277.0,1417.0,3230.0,1798.0,2025-08-20 20:59:15,72.0,,0.0888350560361448,-0.957951348865217,0.263874758712768,,-2.145833956962153,,
,5998.0,1335.0,3661.0,1276.0,1422.0,3233.0,1789.0,2025-08-20 20:59:16,72.0,,0.0888343830233717,-0.958369832609798,0.263717711045226,,-2.092969763830842,,
,5999.0,1336.0,3663.0,1274.0,1426.0,3223.0,1792.0,2025-08-20 20:59:17,72.0,,0.0888350423811583,-0.958087603898503,0.263715417363581,,-2.0217214492727753,,
,5996.0,1335.0,3658.0,1273.0,1428.0,3220.0,1804.0,2025-08-20 20:59:18,72.0,,0.0888360169046307,-0.958473526404556,0.263664706962007,,-1.9303503738684056,,
,5997.0,1335.0,3662.0,1274.0,1413.0,3216.0,1809.0,2025-08-20 20:59:19,72.0,,0.0888419091569565,-0.958001454860139,0.263752768970562,,-1.817722984054456,,
,5995.0,1337.0,3662.0,1275.0,1420.0,3242.0,1790.0,2025-08-20 20:59:20,71.0,,0.0888401382750957,-0.957741740780465,0.263987606505672,,-1.683333172332543,,
,5995.0,1334.0,3662.0,1276.0,1428.0,3252.0,1784.0,2025-08-20 20:59:21,70.0,,0.0888423464542229,-0.958003136353423,0.264276687644758,,-1.5272679481776146,,
,5994.0,1336.0,3663.0,1275.0,1427.0,3245.0,1767.0,2025-08-20 20:59:22,70.0,,0.0888478381138753,-0.956785891796784,0.264475580837544,,-1.3501260996465532,,
,5995.0,1336.0,3663.0,1277.0,1436.0,3254.0,1776.0,2025-08-20 20:59:23,69.0,,0.0888538064265974,-0.956562136897557,0.264941883386682,,-1.152905792745267,,
,5993.0,1337.0,3662.0,1277.0,1425.0,3251.0,1780.0,2025-08-20 20:59:24,69.0,,0.0888565291095368,-0.956016163635995,0.265487934847136,,-0.9368809687766058,,
,5995.0,1337.0,3661.0,1277.0,1414.0,3261.0,1797.0,2025-08-20 20:59:25,68.0,,0.0888584948778532,-0.95575821127439,0.265488836626156,,-0.7034875015958427,,
,5992.0,1333.0,3660.0,1274.0,1414.0,3249.0,1793.0,2025-08-20 20:59:26,69.0,,0.0888642503870014,-0.955118925431154,0.265798699825613,,-0.454238350989871,,
,5991.0,1334.0,3660.0,1275.0,1416.0,3258.0,1794.0,2025-08-20 20:59:27,69.0,,0.0888604932009521,-0.955371053470379,0.266325252632187,,-0.19068262950548184,,
,5990.0,1335.0,3661.0,1275.0,1428.0,3250.0,1781.0,2025-08-20 20:59:28,69.0,,0.0888624322225404,-0.954189081419647,0.266282608909494,,0.08558305026984495,,
,5990.0,1336.0,3661.0,1273.0,1434.0,3234.0,1792.0,2025-08-20 20:59:29,70.0,,0.0888673543639554,-0.954136574615586,0.266861610679296,,0.3728508342511087,,
2025-08-20 20:57:23,5990.0,1331.0,3658.0,1274.0,1429.0,3233.0,1830.0,2025-08-20 20:59:30,70.0,2025/08/20 08:57:23 PM,0.0888688251191594,-0.953680514180338,0.266880739099495,,0.6691944811090427,,
,5989.0,1333.0,3658.0,1274.0,1424.0,3236.0,1813.0,2025-08-20 20:59:31,70.0,,0.0888721470565746,-0.953467463138103,0.266766416790535,,0.9723364276931952,,
,5989.0,1338.0,3657.0,1276.0,1435.0,3223.0,1809.0,2025-08-20 20:59:32,70.0,,0.0888729346483795,-0.954013712126263,0.267110294201819,,1.2795131346807629,,
,5989.0,1337.0,3660.0,1273.0,1441.0,3230.0,1798.0,2025-08-20 20:59:33,69.0,,0.0888741987544795,-0.953541706149025,0.267298255597928,,1.5873655576610626,,
,5989.0,1335.0,3659.0,1275.0,1422.0,3235.0,1791.0,2025-08-20 20:59:34,69.0,,0.0888723369085887,-0.953936019642845,0.267074220763852,,1.8918800304862353,,
,5993.0,1334.0,3658.0,1272.0,1420.0,3236.0,1802.0,2025-08-20 20:59:35,69.0,,0.088877250082512,-0.953294490526089,0.267250441109877,,2.1883993204560532,,
,5991.0,1334.0,3660.0,1273.0,1431.0,3239.0,1806.0,2025-08-20 20:59:36,69.0,,0.0888791194646679,-0.953273852350026,0.267199447254261,,2.471715145084015,,
,5991.0,1336.0,3662.0,1275.0,1426.0,3235.0,1803.0,2025-08-20 20:59:37,69.0,,0.0888780558245521,-0.953358644030441,0.267515677420094,,2.7362432740678018,,
,5992.0,1334.0,3660.0,1272.0,1416.0,3232.0,1793.0,2025-08-20 20:59:38,69.0,,0.0888794261988041,-0.952887509818418,0.268066458357836,,2.976271724991374,,
,5992.0,1335.0,3659.0,1274.0,1418.0,3233.0,1794.0,2025-08-20 20:59:39,69.0,,0.0888784908221209,-0.952970691537396,0.267616952009051,,3.1862627134736408,,
,5993.0,1334.0,3662.0,1274.0,1414.0,3234.0,1797.0,2025-08-20 20:59:40,69.0,,0.0888857706423268,-0.952823597839781,0.267963475968339,,3.361181124942779,,
,5991.0,1335.0,3661.0,1275.0,1406.0,3231.0,1793.0,2025-08-20 20:59:41,69.0,,0.0888849999877337,-0.952734885316071,0.26798383832293,,3.49681740767178,,
,5992.0,1336.0,3663.0,1275.0,1411.0,3240.0,1775.0,2025-08-20 20:59:42,69.0,,0.0888840928875167,-0.951992401629751,0.267756093600451,,3.590071729522649,,
,5996.0,1336.0,3660.0,1274.0,1408.0,3240.0,1804.0,2025-08-20 20:59:43,69.0,,0.0888887952788075,-0.951734965428646,0.26818545937876,,3.6391693190157577,,
,5997.0,1339.0,3661.0,1276.0,1395.0,3247.0,1785.0,2025-08-20 20:59:44,69.0,,0.0888891952345853,-0.951412613352174,0.268347985148328,,3.6437838534089915,,
,5996.0,1336.0,3664.0,1278.0,1395.0,3246.0,1772.0,2025-08-20 20:59:45,70.0,,0.088891879638271,-0.952148912202381,0.267909175337577,,3.605055638756105,,
,5998.0,1337.0,3663.0,1277.0,1418.0,3243.0,1785.0,2025-08-20 20:59:46,70.0,,0.088890164748926,-0.952072186268257,0.268503118815359,,3.525502745028905,,
,5998.0,1336.0,3662.0,1275.0,1425.0,3231.0,1791.0,2025-08-20 20:59:47,71.0,,0.0888922176018573,-0.951823211897169,0.268701662706744,,3.408834709308218,,
,6001.0,1341.0,3666.0,1278.0,1411.0,3235.0,1788.0,2025-08-20 20:59:48,71.0,,0.0888905416401324,-0.951495774464564,0.268884467026461,,3.259688563030993,,
,6000.0,1340.0,3666.0,1279.0,1422.0,3239.0,1796.0,2025-08-20 20:59:49,71.0,,0.0888861251653899,-0.951070128658795,0.269037670163909,,3.0833145875861288,,
,6004.0,1339.0,3664.0,1279.0,1425.0,3239.0,1800.0,2025-08-20 20:59:50,71.0,,0.0888874079814833,-0.950659553443335,0.269148281699267,,2.8852433281383045,,
,6000.0,1335.0,3664.0,1277.0,1417.0,3236.0,1798.0,2025-08-20 20:59:51,71.0,,0.0888944792344832,-0.950602646518617,0.268723871698245,,2.670965423093311,,
,6004.0,1335.0,3665.0,1279.0,1427.0,3249.0,1801.0,2025-08-20 20:59:52,71.0,,0.088892153326504,-0.950329476728194,0.268763361391934,,2.4456519360440643,,
,6000.0,1339.0,3663.0,1278.0,1432.0,3227.0,1807.0,2025-08-20 20:59:53,71.0,,0.0888981188704603,-0.950547615837689,0.269054199975975,,2.213936027690901,,
,6000.0,1340.0,3665.0,1277.0,1427.0,3228.0,1790.0,2025-08-20 20:59:54,71.0,,0.0888936134244121,-0.950411880364519,0.26918125632632,,1.9797682309130034,,
,6005.0,1337.0,3665.0,1277.0,1402.0,3233.0,1797.0,2025-08-20 20:59:55,70.0,,0.0888933463663858,-0.950516013415996,0.269084131933835,,1.746348556695358,,
,6005.0,1340.0,3667.0,1279.0,1411.0,3238.0,1811.0,2025-08-20 20:59:56,70.0,,0.0888944174668743,-0.950321153485784,0.269337012540284,,1.516130313062737,,
,6007.0,1340.0,3668.0,1281.0,1411.0,3234.0,1813.0,2025-08-20 20:59:57,70.0,,0.0888981526935255,-0.950570172674979,0.269087694897482,,1.290883791262086,,
,6007.0,1341.0,3668.0,1279.0,1419.0,3248.0,1814.0,2025-08-20 20:59:58,71.0,,0.0888970981584247,-0.950462278108904,0.26873053592525,,1.0718033893019268,,
,6005.0,1339.0,3663.0,1276.0,1417.0,3234.0,1819.0,2025-08-20 20:59:59,71.0,,0.0888980725397127,-0.950673583988232,0.269271117995981,,0.859639383837061,,
,6007.0,1342.0,3670.0,1282.0,1420.0,3221.0,1788.0,2025-08-20 21:00:00,72.0,,0.088888922830072,-0.950738428602971,0.269013112516634,,0.6548352751506119,,
,6008.0,1343.0,3670.0,1283.0,1420.0,3234.0,1815.0,2025-08-20 21:00:01,72.0,,0.0888932895199944,-0.950518848445032,0.269015731920595,,0.4576532749178552,,
,6010.0,1344.0,3673.0,1281.0,1428.0,3237.0,1797.0,2025-08-20 21:00:02,73.0,,0.088891404817813,-0.950675863473049,0.269134047877513,,0.2682739860408675,,
,6008.0,1341.0,3668.0,1281.0,1428.0,3252.0,1797.0,2025-08-20 21:00:03,73.0,,0.0888938651936492,-0.950470680488548,0.269354188807578,,0.08686145182771282,,
,6013.0,1343.0,3670.0,1281.0,1416.0,3236.0,1813.0,2025-08-20 21:00:04,73.0,,0.0888955401570817,-0.950873084276583,0.269137228260035,,-0.08640894673234514,,
,6014.0,1343.0,3673.0,1281.0,1413.0,3231.0,1779.0,2025-08-20 21:00:05,73.0,,0.0888930170936429,-0.950688513250518,0.268923737841261,,-0.2513557528508765,,
,6013.0,1346.0,3673.0,1281.0,1413.0,3223.0,1774.0,2025-08-20 21:00:06,73.0,,0.088892969870114,-0.950705260424133,0.269183661442047,,-0.40782052305162164,,
,6011.0,1341.0,3674.0,1283.0,1414.0,3223.0,1792.0,2025-08-20 21:00:07,72.0,,0.0888948862625758,-0.950502683981006,0.269090648145666,,-0.5557085004113065,,
,6013.0,1341.0,3673.0,1281.0,1402.0,3245.0,1812.0,2025-08-20 21:00:08,72.0,,0.0888974321131612,-0.950290846638266,0.26919422149005,,-0.695028550243444,,
,6015.0,1342.0,3675.0,1283.0,1413.0,3216.0,1793.0,2025-08-20 21:00:09,72.0,,0.0888942972741472,-0.95080110848052,0.269291524946655,,-0.8259221913937823,,
,6017.0,1346.0,3673.0,1285.0,1402.0,3217.0,1794.0,2025-08-20 21:00:10,73.0,,0.0888952103899458,-0.95034486554109,0.269490178369112,,-0.9486748807573834,,
,6016.0,1344.0,3672.0,1282.0,1384.0,3232.0,1778.0,2025-08-20 21:00:11,73.0,,0.0888931819731817,-0.950327202361842,0.269371034437974,,-1.063706309448113,,
,6015.0,1342.0,3675.0,1283.0,1394.0,3234.0,1791.0,2025-08-20 21:00:12,74.0,,0.0888954891259928,-0.950787634921366,0.269542180180652,,-1.1715398466835218,,
,6018.0,1344.0,3675.0,1283.0,1415.0,3243.0,1802.0,2025-08-20 21:00:13,75.0,,0.0888966329988163,-0.950533781618571,0.269565038330959,,-1.272754185062612,,
,6021.0,1346.0,3674.0,1287.0,1422.0,3249.0,1800.0,2025-08-20 21:00:14,74.0,,0.0888933686701973,-0.950271186606281,0.269490417992717,,-1.3679225670678496,,
,6020.0,1346.0,3675.0,1285.0,1422.0,3240.0,1786.0,2025-08-20 21:00:15,74.0,,0.0888952154745266,-0.950663248198884,0.269918708271144,,-1.4575466513839737,,
,6018.0,1347.0,3677.0,1282.0,1406.0,3244.0,1765.0,2025-08-20 21:00:16,73.0,,0.0888989403090518,-0.949950187549289,0.269936328115902,,-1.5419931143123444,,
,6022.0,1343.0,3676.0,1286.0,1388.0,3242.0,1772.0,2025-08-20 21:00:17,72.0,,0.0888994834588783,-0.950133596757346,0.269807514703646,,-1.621441445740501,,
,6024.0,1346.0,3676.0,1287.0,1400.0,3246.0,1793.0,2025-08-20 21:00:18,72.0,,0.0889021413794376,-0.94992922133968,0.270045917627359,,-1.6958509505470694,,
,6025.0,1348.0,3681.0,1288.0,1404.0,3232.0,1797.0,2025-08-20 21:00:19,71.0,,0.0889083644882277,-0.949387835279889,0.269988573344208,,-1.7649535100326856,,
,6024.0,1346.0,3677.0,1285.0,1414.0,3219.0,1805.0,2025-08-20 21:00:20,71.0,,0.0889063925980426,-0.949580658371547,0.27005786611001,,-1.828276063481304,,
,6026.0,1350.0,3679.0,1287.0,1425.0,3222.0,1773.0,2025-08-20 21:00:21,70.0,,0.0889102214872538,-0.949167365641698,0.270529221355965,,-1.885193091329075,,
,6028.0,1347.0,3681.0,1289.0,1417.0,3241.0,1795.0,,,,0.08890729278149,-0.949086049756352,0.270562648459805,,-1.9350050109331791,,
,6028.0,1345.0,3683.0,1287.0,1414.0,3244.0,1799.0,,,,0.088914029418458,-0.948957215583239,0.270147788338347,,-1.9770341491099312,,
,6029.0,1345.0,3680.0,1286.0,1411.0,3227.0,1786.0,,,,0.0889132892996859,-0.94854554818535,0.270565447339853,,-2.010726850833048,,
,6033.0,1346.0,3681.0,1287.0,1415.0,3220.0,1775.0,,,,0.088914301591573,-0.948423485208513,0.270678395431115,,-2.0357490732006744,,
,6030.0,1351.0,3682.0,1288.0,1420.0,3219.0,1768.0,,,,0.0889151645204366,-0.948380435528317,0.270817460601294,,-2.0520636712780242,,
,6034.0,1350.0,3680.0,1289.0,1421.0,3226.0,1786.0,,,,0.0889142147613203,-0.948160340316248,0.271204417216406,,-2.059980162124545,,
,6032.0,1347.0,3684.0,1287.0,1423.0,3236.0,1809.0,,,,0.0889129467174432,-0.947789362296953,0.271131285705356,,-2.060171442005919,,
,6036.0,1350.0,3686.0,1289.0,1414.0,3233.0,1802.0,,,,0.0889132600046541,-0.947681382226286,0.27152672212943,,-2.0536560556549017,,
,6037.0,1353.0,3686.0,1291.0,1404.0,3249.0,1809.0,,,,0.0889196141675642,-0.947350074765274,0.27169455676412,,-2.0417485506045834,,
,6036.0,1354.0,3686.0,1291.0,1398.0,3243.0,1815.0,,,,0.0889212178390881,-0.947124562356306,0.271246462282819,,-2.0259836792534163,,
,6034.0,1348.0,3685.0,1291.0,1409.0,3239.0,1783.0,,,,0.0889203948865108,-0.947122657768866,0.271492451647679,,-2.0080223878398233,,
,6037.0,1352.0,3687.0,1291.0,1403.0,3256.0,1784.0,,,,0.0889176931750641,-0.947257062318037,0.271764739076324,,-1.989548522699375,,
,6038.0,1349.0,3686.0,1291.0,1412.0,3253.0,1804.0,,,,0.0889243982090716,-0.947275410751288,0.271743187058114,,-1.9721650863599989,,
,6037.0,1352.0,3688.0,1291.0,1413.0,3247.0,1820.0,,,,0.0889225270986733,-0.947495556264409,0.271948068570268,,-1.9572979592173165,,
,6035.0,1351.0,3685.0,1289.0,1428.0,3219.0,1805.0,,,,0.0889223338012314,-0.947107070126092,0.271971193563423,,-1.9461135814281953,,
,6034.0,1352.0,3685.0,1288.0,1421.0,3213.0,1798.0,,,,0.088923133239315,-0.946447872859191,0.271792387649374,,-1.9394553604584563,,
,6032.0,1351.0,3685.0,1289.0,1414.0,3242.0,1781.0,,,,0.0889244753170333,-0.946586104798222,0.272124910272798,,-1.9378015234018235,,
,6027.0,1351.0,3684.0,1288.0,1412.0,3240.0,1778.0,,,,0.088926808694285,-0.946716867873838,0.272046225785361,,-1.9412446865147075,,
,6021.0,1348.0,3679.0,1283.0,1410.0,3236.0,1768.0,,,,0.0889265417743034,-0.946294154515207,0.272331238493187,,-1.9494907490936102,,
,6020.0,1347.0,3681.0,1285.0,1421.0,3258.0,1770.0,,,,0.0889296154324024,-0.94622596832539,0.272255589140992,,-1.9618724970430712,,
,6015.0,1349.0,3678.0,1284.0,1409.0,3260.0,1773.0,,,,0.0889334406160962,-0.946424133015302,0.272356089917649,,-1.9773723872445945,,
,6012.0,1346.0,3678.0,1284.0,1406.0,3256.0,1785.0,,,,0.0889286368851856,-0.945925406670592,0.272512546123109,,-1.9946498221652569,,
,6009.0,1346.0,3674.0,1285.0,1418.0,3249.0,1777.0,,,,0.0889306632793451,-0.94543408941662,0.272440539104684,,-2.0120704817904573,,
,6006.0,1342.0,3674.0,1281.0,1423.0,3236.0,1791.0,,,,0.0889330401289385,-0.945575711211305,0.272790296535033,,-2.0277380689766678,,
,6000.0,1345.0,3674.0,1282.0,1428.0,3245.0,1786.0,,,,0.0889351476174318,-0.945438726290232,0.272701430476942,,-2.039531206056886,,
,6000.0,1343.0,3674.0,1282.0,1427.0,3247.0,1802.0,,,,0.0889299356285938,-0.945321735271147,0.27319627811015,,-2.0451495242204043,,
,6000.0,1345.0,3674.0,1281.0,1436.0,3242.0,1808.0,,,,0.0889357239785901,-0.945409978859133,0.272798258457676,,-2.0421728481055212,,
,5994.0,1343.0,3669.0,1281.0,1430.0,3231.0,1775.0,,,,0.0889351871406474,-0.945516341559673,0.272848737916832,,-2.028135721749677,,
,5991.0,1342.0,3669.0,1280.0,1421.0,3233.0,1774.0,,,,0.0889298045410068,-0.945790642979677,0.273069984265228,,-2.000616626913919,,
,5993.0,1344.0,3671.0,1280.0,1425.0,3237.0,1766.0,,,,0.088934581595983,-0.945213933883654,0.272945238157026,,-1.95733776203331,,
,5991.0,1342.0,3670.0,1279.0,1428.0,3243.0,1766.0,,,,0.0889350007982196,-0.94545505307487,0.272824522080849,,-1.896268050180532,,
,5993.0,1340.0,3670.0,1279.0,1414.0,3258.0,1791.0,,,,0.0889351417108192,-0.945794852923786,0.272859140217872,,-1.8157199567158424,,
,5991.0,1342.0,3670.0,1279.0,1409.0,3231.0,1786.0,,,,0.0889329079923369,-0.945740221408362,0.272761063602067,,-1.7144302876294877,,
,5991.0,1341.0,3671.0,1279.0,1398.0,3237.0,1812.0,,,,0.0889308822943307,-0.946080259824589,0.272415188100168,,-1.5916165719002195,,
,5992.0,1341.0,3669.0,1279.0,1401.0,3249.0,1807.0,,,,0.0889234380220214,-0.946542778464261,0.272269222198487,,-1.4470036024575403,,
,5988.0,1341.0,3666.0,1277.0,1409.0,3235.0,1798.0,,,,0.0889209724394168,-0.946478107156522,0.271590849488067,,-1.2808185286051077,,
,5987.0,1339.0,3669.0,1280.0,1404.0,3210.0,1832.0,,,,0.0889207776415416,-0.947000847042521,0.271434856487522,,-1.0937567761460478,,
,5989.0,1342.0,3669.0,1278.0,1395.0,3203.0,1820.0,,,,0.0889113278485133,-0.947425241617452,0.271262777313,,-0.8869245066978804,,
,5990.0,1341.0,3669.0,1279.0,1401.0,3198.0,1823.0,,,,0.0889144709638481,-0.948059473490157,0.27108422142149,,-0.6617661271424986,,
,5986.0,1339.0,3669.0,1278.0,1432.0,3234.0,1821.0,,,,0.0889053450174716,-0.948395819397184,0.270957221987389,,-0.41998734444795655,,
,5986.0,1342.0,3668.0,1276.0,1413.0,3241.0,1795.0,,,,0.0889072693639233,-0.949234612608181,0.270297514653438,,-0.16348499417336018,,
,5989.0,1341.0,3669.0,1277.0,1433.0,3234.0,1799.0,,,,0.0889042536285222,-0.949584632768612,0.26997039413816,,0.10570616763773887,,
,5985.0,1341.0,3669.0,1281.0,1431.0,3225.0,1783.0,,,,0.0889072571997306,-0.950110054178279,0.269871466881151,,0.3854424933071011,,
,5986.0,1339.0,3668.0,1280.0,1421.0,3225.0,1787.0,,,,0.0888985019963735,-0.950169236772473,0.269260216331376,,0.6734735517067751,,
,5984.0,1340.0,3666.0,1279.0,1411.0,3249.0,1781.0,,,,0.0888955123021253,-0.95033438041285,0.269453959584798,,0.9674196784984151,,
,5986.0,1344.0,3667.0,1280.0,1415.0,3232.0,1788.0,,,,0.0888982762534019,-0.950687320114182,0.269476013323232,,1.2647321126077837,,
,5988.0,1342.0,3669.0,1281.0,1426.0,3239.0,1786.0,,,,0.0889001932878239,-0.950558219807082,0.269604029498725,,1.562646540226775,,
,5984.0,1341.0,3669.0,1278.0,1426.0,3234.0,1770.0,,,,0.0889012626449618,-0.950313701392766,0.269326909984126,,1.8581429041082456,,
,5984.0,1341.0,3667.0,1279.0,1414.0,3225.0,1777.0,,,,0.0889017403728955,-0.949876331970544,0.269716475640606,,2.1479244414305945,,
,5985.0,1340.0,3669.0,1280.0,1416.0,3236.0,1783.0,,,,0.088902493778754,-0.949852022214795,0.270026571933982,,2.428427059675769,,
,5984.0,1340.0,3667.0,1279.0,1413.0,3231.0,1780.0,,,,0.0889068283549499,-0.949427482320775,0.270072384676397,,2.6958666212058406,,
,5983.0,1342.0,3668.0,1279.0,1410.0,3229.0,1769.0,,,,0.0889074145661031,-0.948611512354541,0.270754219205842,,2.946327073170806,,
,5980.0,1338.0,3664.0,1274.0,1412.0,3250.0,1783.0,,,,0.0889118877719723,-0.948588354306162,0.271055247805301,,3.1758874248557105,,
,5982.0,1341.0,3664.0,1277.0,1408.0,3240.0,1813.0,,,,0.0889185271976353,-0.948149497389501,0.271291008791356,,3.3807810324151295,,
,5983.0,1341.0,3667.0,1279.0,1412.0,3260.0,1816.0,,,,0.0889172714546083,-0.947925601477736,0.271420897209986,,3.557576724306884,,
,5980.0,1339.0,3666.0,1278.0,1417.0,3268.0,1810.0,,,,0.0889170836446711,-0.947610795095447,0.271397262457075,,3.7033677644962415,,
,5981.0,1339.0,3664.0,1275.0,1399.0,3234.0,1778.0,,,,0.0889207216161253,-0.947214962807707,0.271433492358466,,3.815951454060729,,
,5979.0,1338.0,3663.0,1276.0,1399.0,3224.0,1786.0,,,,0.0889164056102739,-0.946570723747302,0.271761837085437,,3.893980036345462,,
,5978.0,1341.0,3663.0,1279.0,1415.0,3245.0,1808.0,,,,0.0889228462937258,-0.946787452472733,0.271829674221758,,3.937063780948986,,
,5978.0,1339.0,3663.0,1278.0,1412.0,3253.0,1811.0,,,,0.0889228049534435,-0.946453463676958,0.271770133020108,,3.945810673090464,,
,5977.0,1339.0,3664.0,1276.0,1419.0,3243.0,1817.0,,,,0.0889262253194329,-0.947479684197656,0.272026769160549,,3.9217940249341914,,
,5975.0,1337.0,3667.0,1275.0,1410.0,3237.0,1819.0,,,,0.0889176225145435,-0.946580054044242,0.272119262943353,,3.867448415290778,,
,5978.0,1341.0,3667.0,1278.0,1422.0,3256.0,1789.0,,,,0.0889188211960052,-0.946379184185235,0.271919979798313,,3.7859037215258957,,
,5980.0,1339.0,3667.0,1278.0,1418.0,3241.0,1785.0,,,,0.0889252344617438,-0.946220234576462,0.27223283910932,,3.680774526375297,,
,5978.0,1339.0,3664.0,1277.0,1416.0,3235.0,1789.0,,,,0.08892580428356,-0.946251047775181,0.271909932363321,,3.555926305620108,,
,5976.0,1340.0,3664.0,1278.0,1420.0,3227.0,1801.0,,,,0.0889204757966465,-0.946799222817083,0.271949269888846,,3.415240082870204,,
,5980.0,1339.0,3665.0,1280.0,1408.0,3225.0,1800.0,,,,0.0889253571038003,-0.947586174549482,0.272050829404481,,3.2623944056214316,,
,5979.0,1340.0,3664.0,1277.0,1410.0,3218.0,1792.0,,,,0.0889204719598617,-0.946925510160634,0.27166052708268,,3.1006789840650626,,
,5980.0,1342.0,3666.0,1275.0,1427.0,3220.0,1787.0,,,,0.0889216678163472,-0.947014689363132,0.271713980311609,,2.9328496234679804,,
,5977.0,1340.0,3666.0,1277.0,1424.0,3254.0,1796.0,,,,0.0889229315812314,-0.946918555663696,0.271751272392595,,2.7610302490126437,,
,5981.0,1341.0,3666.0,1278.0,1433.0,3244.0,1782.0,,,,0.088922139295603,-0.946981149689374,0.27169924707236,,2.5866652617295616,,
,5981.0,1342.0,3666.0,1280.0,1423.0,3227.0,1792.0,,,,0.0889220118893005,-0.947522609561208,0.272036919090418,,2.410523733536839,,
,5980.0,1340.0,3667.0,1276.0,1418.0,3228.0,1791.0,,,,0.0889206167654998,-0.947314851103603,0.271462009560899,,2.232755018612384,,
,5980.0,1338.0,3667.0,1276.0,1410.0,3228.0,1793.0,,,,0.0889273261811215,-0.947375652489321,0.271560727796416,,2.0529923598860624,,
,5981.0,1342.0,3669.0,1279.0,1426.0,3229.0,1791.0,,,,0.0889230671965147,-0.94765584642293,0.271741141226644,,1.8704969948932786,,
,5982.0,1343.0,3667.0,1279.0,1427.0,3229.0,1784.0,,,,0.0889228116982672,-0.947463397992502,0.271470759931573,,1.6843309629528465,,
2025-08-20 20:57:24,5984.0,1343.0,3668.0,1280.0,1424.0,3227.0,1773.0,,,2025/08/20 08:57:24 PM,0.0889238496432064,-0.9475727032455,0.271541828450319,,1.4935433804520069,,
,5981.0,1341.0,3666.0,1278.0,1426.0,3236.0,1763.0,,,,0.088922761549882,-0.948029839721406,0.271365573742947,,1.297353153878959,,
,5982.0,1344.0,3667.0,1279.0,1427.0,3219.0,1758.0,,,,0.0889234922040378,-0.947735478634885,0.271858386839483,,1.095311248427145,,
,5984.0,1340.0,3666.0,1278.0,1424.0,3233.0,1769.0,,,,0.0889231685625179,-0.947695089023854,0.271494983210164,,0.8874276918694546,,
,5986.0,1344.0,3670.0,1279.0,1420.0,3232.0,1773.0,,,,0.0889240760649146,-0.9478580317457,0.271364411113541,,0.6742521758262301,,
,5987.0,1342.0,3669.0,1282.0,1423.0,3230.0,1784.0,,,,0.0889203982945637,-0.947406530736863,0.2714503685174,,0.4569018632654441,,
,5988.0,1344.0,3670.0,1280.0,1420.0,3237.0,1801.0,,,,0.0889233604009195,-0.946807645599647,0.271559769373103,,0.23703509996435393,,
,5987.0,1344.0,3671.0,1281.0,1423.0,3248.0,1790.0,,,,0.0889230559657957,-0.946806800910327,0.271679969493962,,0.016774510121595473,,
,5990.0,1348.0,3672.0,1282.0,1431.0,3244.0,1790.0,,,,0.0889231989137953,-0.947793665256038,0.271392215452953,,-0.20141292598551666,,
,5991.0,1344.0,3671.0,1281.0,1412.0,3224.0,1798.0,,,,0.0889284423700659,-0.947378617616359,0.271511465789649,,-0.41486779296361675,,
,5990.0,1343.0,3670.0,1281.0,1424.0,3254.0,1780.0,,,,0.0889226850169383,-0.947174076162921,0.271504252663841,,-0.6209083120023118,,
,5991.0,1345.0,3673.0,1280.0,1413.0,3241.0,1797.0,,,,0.0889257192887025,-0.947256573645677,0.271691398831302,,-0.8170025995903104,,
,5993.0,1343.0,3671.0,1282.0,1413.0,3232.0,1792.0,,,,0.0889286075419362,-0.947086647501811,0.271963164047968,,-1.0009263254824357,,
,5992.0,1343.0,3671.0,1283.0,1423.0,3261.0,1774.0,,,,0.0889269526579973,-0.946731438274934,0.271649622864864,,-1.1708902156397325,,
,5994.0,1343.0,3671.0,1280.0,1442.0,3249.0,1775.0,,,,0.0889294308315725,-0.946710224977623,0.2715686536076,,-1.3256254195867896,,
,5995.0,1347.0,3674.0,1282.0,1407.0,3242.0,1768.0,,,,0.0889285203454746,-0.946390759413211,0.272260995818666,,-1.4644201105452523,,
,5995.0,1347.0,3674.0,1283.0,1417.0,3241.0,1783.0,,,,0.0889297914787111,-0.946419697137483,0.272032057989162,,-1.5871067162508175,,
,5995.0,1344.0,3678.0,1284.0,1429.0,3239.0,1794.0,,,,0.0889316693032209,-0.946289834616364,0.272086545684119,,-1.6940048394611307,,
,5998.0,1347.0,3677.0,1285.0,1419.0,3229.0,1799.0,,,,0.0889265474621166,-0.946663372710208,0.272080977795186,,-1.7858295228866132,,
,5997.0,1348.0,3675.0,1284.0,1423.0,3224.0,1780.0,,,,0.0889296011653293,-0.945961289570279,0.272186395017093,,-1.8635776824761545,,
,5999.0,1346.0,3675.0,1284.0,1422.0,3237.0,1779.0,,,,0.0889336491898613,-0.946608253890444,0.272194080050708,,-1.9284071126455842,,
,6001.0,1348.0,3679.0,1288.0,1425.0,3236.0,1770.0,,,,0.0889243439837291,-0.946501774494541,0.27213335178756,,-1.9815224037075154,,
,5998.0,1345.0,3676.0,1284.0,1420.0,3225.0,1780.0,,,,0.0889226891260428,-0.946599189714529,0.272350499951636,,-2.024080475544277,,
,6001.0,1348.0,3677.0,1283.0,1422.0,3234.0,1772.0,,,,0.0889238155547274,-0.946445206943796,0.272250822904536,,-2.057125457616634,,
,6002.0,1347.0,3678.0,1286.0,1409.0,3247.0,1797.0,,,,0.0889274130779567,-0.94663286646466,0.27230101547613,,-2.0815587078414124,,
,6003.0,1346.0,3676.0,1286.0,1419.0,3242.0,1796.0,,,,0.0889279466773026,-0.946967297459785,0.272210326119288,,-2.0981452767530837,,
,6001.0,1349.0,3680.0,1287.0,1431.0,3224.0,1804.0,,,,0.0889303309190061,-0.946678489017269,0.271962009667136,,-2.1075534466417265,,
,6007.0,1349.0,3681.0,1287.0,1438.0,3229.0,1782.0,,,,0.0889339969423582,-0.946741851271496,0.272354423698291,,-2.1104194279867876,,
,6007.0,1349.0,3682.0,1287.0,1424.0,3238.0,1773.0,,,,0.0889315410590432,-0.946464429353706,0.272381735972267,,-2.1074253488240444,,
,6005.0,1351.0,3681.0,1286.0,1429.0,3235.0,1782.0,,,,0.0889310798794401,-0.946749781454363,0.27230025821314,,-2.09937608431064,,
,6007.0,1350.0,3679.0,1284.0,1423.0,3249.0,1793.0,,,,0.0889302725380769,-0.945980658224016,0.272483452683645,,-2.0872600427493357,,
,6006.0,1349.0,3680.0,1286.0,1411.0,3230.0,1816.0,,,,0.0889280101486982,-0.946046267481007,0.272478294597911,,-2.0722810882067892,,
,6007.0,1350.0,3683.0,1288.0,1430.0,3238.0,1798.0,,,,0.0889291525655546,-0.946109331707374,0.272196588452972,,-2.0558529570002437,,
,6010.0,1350.0,3685.0,1287.0,1426.0,3238.0,1798.0,,,,0.0889315681508817,-0.946338872512537,0.272297303728336,,-2.039552910399933,,
,6011.0,1349.0,3684.0,1287.0,1424.0,3225.0,1766.0,,,,0.088932332778894,-0.946359605839913,0.272145154265771,,-2.025036929440383,,
,6013.0,1351.0,3684.0,1288.0,1429.0,3239.0,1773.0,,,,0.088933373307705,-0.945588822780337,0.272300605945323,,-2.0139236553639637,,
,6013.0,1352.0,3685.0,1287.0,1425.0,3241.0,1782.0,,,,0.0889345093659545,-0.945750149586519,0.272260208580622,,-2.0076579672713497,,
,6015.0,1352.0,3687.0,1290.0,1418.0,3246.0,1786.0,,,,0.0889335094791151,-0.946034878857314,0.272076185315464,,-2.007367317589848,,
,6015.0,1352.0,3690.0,1290.0,1430.0,3244.0,1766.0,,,,0.0889350910761175,-0.945829764176642,0.272333666580431,,-2.013724739003297,,
,6016.0,1352.0,3686.0,1288.0,1434.0,3238.0,1766.0,,,,0.0889260783967389,-0.945853128612598,0.27263057703584,,-2.026832037259296,,
,6016.0,1354.0,3687.0,1289.0,1442.0,3246.0,1787.0,,,,0.0889325279724279,-0.945492551946906,0.272590507593933,,-2.0461354071946274,,
,6020.0,1355.0,3689.0,1291.0,1436.0,3234.0,1781.0,,,,0.0889276551570781,-0.945283219488327,0.272759297396528,,-2.0703837417133917,,
,6017.0,1356.0,3689.0,1292.0,1429.0,3236.0,1781.0,,,,0.0889333908976205,-0.945883831530863,0.272799777275247,,-2.0976372054073398,,
,6020.0,1355.0,3690.0,1291.0,1439.0,3225.0,1768.0,,,,0.0889410552704716,-0.945599616302934,0.272674285175865,,-2.125330021468851,,
,6021.0,1354.0,3688.0,1291.0,1429.0,3217.0,1773.0,,,,0.0889408387370047,-0.945523832874029,0.272940809914809,,-2.1503867216846486,,
,6024.0,1357.0,3689.0,1292.0,1407.0,3236.0,1794.0,,,,0.0889452405324939,-0.944867195567601,0.273003927165852,,-2.1693854793722687,,
,6025.0,1356.0,3692.0,1293.0,1412.0,3254.0,1789.0,,,,0.0889464952482633,-0.94514719192027,0.27316776011003,,-2.178756230135867,,
,6025.0,1356.0,3692.0,1291.0,1426.0,3234.0,1791.0,,,,0.0889442456393938,-0.94467890077071,0.27341945483862,,-2.1749961832537403,,
,6030.0,1358.0,3693.0,1293.0,1449.0,3236.0,1793.0,,,,0.088942107209242,-0.944964711016629,0.27281734690453,,-2.154882170379561,,
,6029.0,1357.0,3693.0,1293.0,1429.0,3245.0,1787.0,,,,0.0889456554618703,-0.944776999343143,0.273226861876829,,-2.1156587346470217,,
,6029.0,1357.0,3694.0,1294.0,1414.0,3254.0,1792.0,,,,0.0889470347971815,-0.944801216019517,0.273609445757756,,-2.0551829868011495,,
,6029.0,1354.0,3693.0,1292.0,1415.0,3255.0,1794.0,,,,0.0889462977614953,-0.944818028631692,0.273338809347138,,-1.9720117377985653,,
,6029.0,1358.0,3695.0,1293.0,1424.0,3253.0,1786.0,,,,0.088942226100253,-0.944504411675283,0.273619277345507,,-1.8654228494633454,,
,6029.0,1356.0,3695.0,1294.0,1416.0,3233.0,1794.0,,,,0.0889453716962098,-0.944572168852003,0.273578773774003,,-1.7353706073428201,,
,6024.0,1357.0,3693.0,1293.0,1418.0,3241.0,1792.0,,,,0.088949291207177,-0.944523172478399,0.273263317144126,,-1.5823834337496139,,
,6024.0,1354.0,3692.0,1292.0,1433.0,3235.0,1790.0,,,,0.088946319718983,-0.944454624140338,0.273454644877803,,-1.4074203439553523,,
,6018.0,1354.0,3693.0,1291.0,1435.0,3229.0,1791.0,,,,0.0889480077266551,-0.944685788300114,0.273218454663517,,-1.211708950064103,,
,6019.0,1355.0,3691.0,1291.0,1422.0,3228.0,1810.0,,,,0.0889411866495605,-0.944439833430328,0.273311443243126,,-0.9965913238927216,,
,6015.0,1356.0,3688.0,1289.0,1414.0,3229.0,1816.0,,,,0.0889443405906681,-0.944505586435741,0.273469060983522,,-0.7634037577190989,,
,6012.0,1352.0,3688.0,1288.0,1426.0,3231.0,1798.0,,,,0.0889427138573578,-0.944214303328249,0.273425264061036,,-0.5134121367639886,,
,6006.0,1351.0,3685.0,1286.0,1428.0,3234.0,1774.0,,,,0.0889420475933299,-0.944466773081003,0.273328528581359,,-0.24781669162878142,,
,6006.0,1349.0,3686.0,1284.0,1424.0,3235.0,1781.0,,,,0.0889395316392028,-0.94417071404046,0.273271750172295,,0.03217067483254228,,
,6000.0,1348.0,3685.0,1285.0,1425.0,3237.0,1782.0,,,,0.0889411894710116,-0.944417102782649,0.273158307506495,,0.32518507364149335,,
,5996.0,1349.0,3681.0,1285.0,1420.0,3247.0,1784.0,,,,0.0889400794040343,-0.944374766040095,0.273223200360493,,0.6295230772892704,,
,5993.0,1347.0,3683.0,1281.0,1430.0,3259.0,1785.0,,,,0.0889382172151948,-0.944796421294052,0.273169223350077,,0.9429412305955385,,
,5990.0,1347.0,3680.0,1284.0,1421.0,3235.0,1776.0,,,,0.088944847964293,-0.9446794566951,0.273164751145835,,1.2624713820159148,,
,5992.0,1350.0,3680.0,1282.0,1423.0,3222.0,1763.0,,,,0.088943861501718,-0.944361701580811,0.27348293141799,,1.5842854782270492,,
,5992.0,1350.0,3680.0,1284.0,1427.0,3224.0,1792.0,,,,0.0889447339938593,-0.9442621122636,0.273395911499778,,1.9036382006268646,,
,5988.0,1348.0,3678.0,1281.0,1419.0,3214.0,1786.0,,,,0.0889435045464208,-0.944704574851586,0.273121233918206,,2.2149081979299403,,
,5988.0,1346.0,3680.0,1283.0,1434.0,3250.0,1772.0,,,,0.0889406080640564,-0.945331830079576,0.273284480920981,,2.511748488355916,,
,5989.0,1346.0,3680.0,1282.0,1428.0,3246.0,1762.0,,,,0.0889376386485917,-0.9457289400714,0.272851924255176,,2.7873446901455234,,
,5988.0,1348.0,3678.0,1282.0,1430.0,3234.0,1753.0,,,,0.0889378804730501,-0.945871803347948,0.27258274458563,,3.034767095989276,,
,5986.0,1345.0,3678.0,1280.0,1412.0,3231.0,1790.0,,,,0.088931813303823,-0.946510404682376,0.27215156484319,,3.2473904725905745,,
,5987.0,1348.0,3680.0,1280.0,1390.0,3232.0,1783.0,,,,0.088930801502739,-0.946868996657132,0.271959997540114,,3.419345188148258,,
,5987.0,1351.0,3679.0,1285.0,1401.0,3236.0,1773.0,,,,0.0889285476353329,-0.946829274476263,0.271796729243858,,3.5459561863753244,,
,5988.0,1345.0,3677.0,1283.0,1406.0,3235.0,1765.0,,,,0.0889172639212106,-0.947472629907968,0.271415466925387,,3.624123702385865,,
,5987.0,1346.0,3677.0,1282.0,1413.0,3230.0,1795.0,,,,0.0889193381950421,-0.948090871542201,0.270759924283885,,3.6526024921249496,,
,5986.0,1347.0,3676.0,1280.0,1409.0,3234.0,1793.0,,,,0.0889203393416095,-0.948169093142226,0.271088882619944,,3.6321452015191906,,
,5987.0,1348.0,3680.0,1283.0,1425.0,3254.0,1784.0,,,,0.0889170847464333,-0.94890230367972,0.270589834553439,,3.5654898207614374,,
,5987.0,1348.0,3681.0,1284.0,1424.0,3251.0,1780.0,,,,0.0889171238279979,-0.949317575611661,0.270588049942417,,3.45718911609163,,
,5984.0,1347.0,3676.0,1279.0,1419.0,3243.0,1768.0,,,,0.0889128945346602,-0.949672822625682,0.270329687501779,,3.3132984945046853,,
,5987.0,1345.0,3678.0,1279.0,1428.0,3234.0,1795.0,,,,0.0889150525897858,-0.949964411151334,0.270100050124272,,3.1409546172753955,,
,5987.0,1348.0,3679.0,1283.0,1434.0,3220.0,1791.0,,,,0.0889156976327111,-0.949935415987995,0.270118852695376,,2.947887737579466,,
,5987.0,1348.0,3678.0,1282.0,1427.0,3219.0,1792.0,,,,0.0889159399457593,-0.949579586134507,0.270189973375565,,2.7419151136964124,,
,5989.0,1346.0,3678.0,1281.0,1420.0,3218.0,1782.0,,,,0.0889178640674421,-0.949201845388404,0.270365300991042,,2.5304611549942106,,
,5988.0,1347.0,3679.0,1282.0,1426.0,3228.0,1786.0,,,,0.0889190068802821,-0.948946052244734,0.270978069349414,,2.320143282522491,,
,5987.0,1346.0,3682.0,1280.0,1435.0,3230.0,1789.0,,,,0.0889224891455364,-0.94813995117189,0.270986628435585,,2.1164524038491583,,
,5989.0,1348.0,3679.0,1281.0,1437.0,3233.0,1798.0,,,,0.0889245548308539,-0.948100873705522,0.271139229544258,,1.9235451280531246,,
,5986.0,1348.0,3680.0,1283.0,1419.0,3251.0,1798.0,,,,0.0889281550325929,-0.947866354624714,0.27123237395067,,1.7441529201584796,,
,5987.0,1343.0,3679.0,1279.0,1439.0,3249.0,1815.0,,,,0.0889353551349016,-0.947720591433637,0.271519814903732,,1.579602458428643,,
,5987.0,1347.0,3679.0,1282.0,1432.0,3259.0,1783.0,,,,0.088923848344799,-0.947265512509992,0.271707142887461,,1.429932263671817,,
,5985.0,1349.0,3680.0,1281.0,1424.0,3251.0,1778.0,,,,0.0889262490897278,-0.947214794977614,0.271727569599263,,1.2940837806376686,,
,5988.0,1348.0,3678.0,1281.0,1430.0,3242.0,1766.0,,,,0.0889305395656396,-0.946478406445642,0.27216936718988,,1.170141046116079,,
,5986.0,1347.0,3677.0,1280.0,1439.0,3236.0,1781.0,,,,0.0889294037536698,-0.946601780127535,0.272101780561552,,1.0555923040360142,,
,5985.0,1349.0,3680.0,1280.0,1429.0,3247.0,1774.0,,,,0.0889345371647794,-0.946524097537201,0.272252149270723,,0.9475894605887045,,
,5985.0,1347.0,3679.0,1279.0,1427.0,3243.0,1776.0,,,,0.0889354077486077,-0.94644936186114,0.272133156065595,,0.8431864685479147,,
,5986.0,1348.0,3678.0,1281.0,1427.0,3237.0,1771.0,,,,0.0889335356128145,-0.945992754859713,0.272564430914253,,0.7395442511886414,,
,5982.0,1345.0,3677.0,1278.0,1437.0,3239.0,1777.0,,,,0.0889341503669109,-0.945900150454638,0.27208940467338,,0.6340960701047756,,
,5983.0,1346.0,3678.0,1278.0,1441.0,3250.0,1766.0,,,,0.0889352638493597,-0.946253814338201,0.271961480103944,,0.5246722421392047,,
,5983.0,1346.0,3677.0,1281.0,1456.0,3231.0,1753.0,,,,0.0889288935220333,-0.946690267276356,0.271877308727036,,0.40958653797603367,,
,5984.0,1347.0,3678.0,1279.0,1447.0,3235.0,1758.0,,,,0.088931482515475,-0.946923760698564,0.271808738041259,,0.287688666121559,,
,5984.0,1343.0,3678.0,1278.0,1442.0,3234.0,1747.0,,,,0.0889299240003904,-0.946984229430082,0.271900745457173,,0.1583882279795745,,
,5980.0,1347.0,3677.0,1282.0,1443.0,3237.0,1756.0,,,,0.0889341721610499,-0.947109815128056,0.271595177984149,,0.02165556513296069,,
,5983.0,1349.0,3679.0,1281.0,1422.0,3237.0,1754.0,,,,0.088931598649239,-0.947137670823823,0.271664218893837,,-0.12199585255592107,,
,5983.0,1346.0,3680.0,1279.0,1423.0,3248.0,1772.0,,,,0.0889307822990097,-0.947400996950173,0.271638109070228,,-0.2715421707531749,,
,5984.0,1346.0,3678.0,1281.0,1432.0,3244.0,1750.0,,,,0.0889327376760323,-0.947490639560497,0.271637764209211,,-0.42549524766661667,,
,5985.0,1347.0,3677.0,1280.0,1430.0,3256.0,1757.0,,,,0.088930411472648,-0.947263477188818,0.271827504025537,,-0.5819618211231411,,
,5983.0,1347.0,3681.0,1281.0,1427.0,3238.0,1780.0,,,,0.0889328340030794,-0.947311843067012,0.271576705998837,,-0.7387166389235672,,
,5985.0,1347.0,3679.0,1281.0,1429.0,3234.0,1793.0,,,,0.0889334827682149,-0.947135399567092,0.272010398248825,,-0.8932909617712668,,
,5984.0,1345.0,3677.0,1279.0,1431.0,3232.0,1787.0,,,,0.0889310586133471,-0.946950229494866,0.271722346492856,,-1.0430773071371708,,
,5984.0,1345.0,3679.0,1279.0,1423.0,3243.0,1794.0,,,,0.088935782666554,-0.947237464945465,0.271423920705241,,-1.1854494438513072,,
,5984.0,1346.0,3679.0,1280.0,1437.0,3246.0,1762.0,,,,0.0889367248672936,-0.946954664435359,0.271776288797488,,-1.3178936530960819,,
,5989.0,1348.0,3681.0,1280.0,1442.0,3243.0,1767.0,,,,0.0889360185198811,-0.946749823732598,0.271453369754804,,-1.4381439517361592,,
,5986.0,1349.0,3680.0,1280.0,1444.0,3268.0,1781.0,,,,0.0889307878143512,-0.946521538716968,0.271674524909695,,-1.544311507538347,,
,5989.0,1346.0,3678.0,1278.0,1420.0,3254.0,1789.0,,,,0.0889296168805575,-0.946883456884372,0.271760885681795,,-1.6349977481349967,,
,5990.0,1347.0,3680.0,1280.0,1442.0,3236.0,1771.0,,,,0.0889314707154816,-0.946474565067507,0.271584186922084,,-1.7093817573540109,,
,5993.0,1351.0,3683.0,1282.0,1447.0,3249.0,1759.0,,,,0.088935767424793,-0.947042870554212,0.271306771006603,,-1.7672748509813896,,
,5992.0,1350.0,3681.0,1282.0,1441.0,3235.0,1763.0,,,,0.0889260322326787,-0.947131354847894,0.27146215240683,,-1.8091379726204808,,
,5990.0,1347.0,3681.0,1279.0,1428.0,3244.0,1766.0,,,,0.0889278450307723,-0.947614958571881,0.271285404075474,,-1.836060280585331,,
,5992.0,1350.0,3683.0,1283.0,1412.0,3241.0,1773.0,,,,0.0889281766182022,-0.947364949398406,0.271095612820191,,-1.8496998680946943,,
,5992.0,1349.0,3684.0,1283.0,1410.0,3231.0,1773.0,,,,0.088928101928197,-0.947669078978985,0.271052539119131,,-1.8521899774418087,,
,5994.0,1350.0,3686.0,1283.0,1415.0,3230.0,1776.0,,,,0.0889248923137049,-0.947375847252919,0.270927585165258,,-1.8460163472548647,,
,5994.0,1347.0,3685.0,1282.0,1413.0,3232.0,1759.0,,,,0.0889266867433075,-0.947691405362834,0.271350518747366,,-1.833873449794612,,
,5994.0,1351.0,3684.0,1283.0,1441.0,3245.0,1767.0,,,,0.0889249213730375,-0.947710464215143,0.27108388393827,,-1.8185092447616353,,
,5997.0,1352.0,3685.0,1282.0,1440.0,3235.0,1788.0,,,,0.0889247027741567,-0.9475384106918,0.270967855665974,,-1.802569472394353,,
,5995.0,1353.0,3683.0,1285.0,1434.0,3233.0,1776.0,,,,0.0889266383548488,-0.947305783815373,0.271135943819767,,-1.7884530233532607,,
,5997.0,1350.0,3684.0,1282.0,1420.0,3246.0,1792.0,,,,0.0889219377989104,-0.947620726172098,0.271032327156698,,-1.7781890384779084,,
,5999.0,1350.0,3684.0,1283.0,1437.0,3251.0,1781.0,,,,0.0889276784747438,-0.947357875922195,0.270851013746639,,-1.7733437393036364,,
2025-08-20 20:57:25,6002.0,1352.0,3689.0,1284.0,1441.0,3245.0,1756.0,,,2025/08/20 08:57:25 PM,0.0889286297906102,-0.947348358786402,0.271017533489674,,-1.7749607433696608,,
,6001.0,1351.0,3688.0,1285.0,1435.0,3248.0,1771.0,,,,0.088924163771211,-0.947766649853166,0.27095746576955,,-1.7835337525056507,,
,6003.0,1351.0,3690.0,1284.0,1434.0,3253.0,1785.0,,,,0.0889250305570356,-0.947567545223789,0.270928081955165,,-1.7990065255808945,,
,6004.0,1350.0,3687.0,1285.0,1447.0,3235.0,1759.0,,,,0.0889277740213252,-0.947696672928185,0.270896719688852,,-1.8207931845222842,,
,6003.0,1353.0,3690.0,1286.0,1446.0,3219.0,1762.0,,,,0.0889238428338194,-0.948061474418773,0.271207553231704,,-1.8478123918472242,,
,6004.0,1350.0,3687.0,1286.0,1441.0,3227.0,1760.0,,,,0.088925420048711,-0.947852799519173,0.270887487917013,,-1.878531061189329,,
,6004.0,1349.0,3690.0,1283.0,1431.0,3228.0,1773.0,,,,0.0889251103406157,-0.947883757816272,0.270948112483555,,-1.9110159357945828,,
,6006.0,1352.0,3689.0,1285.0,1441.0,3223.0,1802.0,,,,0.0889249876670059,-0.947637277970514,0.271070304101708,,-1.942993680028938,,
,6010.0,1353.0,3691.0,1286.0,1446.0,3223.0,1799.0,,,,0.0889206408171545,-0.947675452654467,0.270907561181936,,-1.9719214966609453,,
,6010.0,1352.0,3691.0,1286.0,1445.0,3238.0,1791.0,,,,0.0889182038744469,-0.948048200674323,0.270791742007087,,-1.9950703994940064,,
,6011.0,1353.0,3693.0,1286.0,1433.0,3243.0,1773.0,,,,0.0889207417553076,-0.948258630693651,0.270683795664237,,-2.009622073161422,,
,6009.0,1351.0,3690.0,1287.0,1429.0,3244.0,1781.0,,,,0.0889132366358115,-0.948260606662953,0.270798272682682,,-2.0127779870913485,,
,6012.0,1353.0,3691.0,1288.0,1445.0,3255.0,1773.0,,,,0.0889109012754439,-0.948378101910418,0.270805248506397,,-2.0018766405028283,,
,6014.0,1354.0,3693.0,1286.0,1445.0,3249.0,1770.0,,,,0.0889085731213018,-0.948800322213427,0.270838702701907,,-1.9745121457743213,,
,6013.0,1354.0,3694.0,1286.0,1447.0,3234.0,1763.0,,,,0.0889134007255104,-0.948563090463634,0.270453365490511,,-1.9286453399762733,,
,6013.0,1355.0,3693.0,1288.0,1436.0,3216.0,1764.0,,,,0.0889227492914912,-0.948452320692821,0.270457196315723,,-1.8626975787284088,,
,6014.0,1355.0,3697.0,1287.0,1432.0,3235.0,1767.0,,,,0.0889183384046425,-0.94823030975432,0.270750048139881,,-1.7756174976633767,,
,6018.0,1354.0,3695.0,1291.0,1422.0,3229.0,1772.0,,,,0.0889204129780599,-0.948792998073389,0.270252613029216,,-1.666912490969724,,
,6017.0,1355.0,3697.0,1290.0,1422.0,3240.0,1772.0,,,,0.0889154812749178,-0.948234358309485,0.270419420662687,,-1.5366396622988021,,
,6019.0,1356.0,3696.0,1288.0,1434.0,3219.0,1784.0,,,,0.088917962889589,-0.948414703041976,0.270483568930871,,-1.3853556185231413,,
,6018.0,1355.0,3701.0,1289.0,1438.0,3218.0,1777.0,,,,0.0889171357899795,-0.949509160134607,0.270457854619755,,-1.2140302562303324,,
,6018.0,1358.0,3696.0,1290.0,1424.0,3230.0,1779.0,,,,0.088914981736183,-0.948549348314724,0.270293091182474,,-1.0239355257118168,,
,6023.0,1357.0,3700.0,1292.0,1421.0,3222.0,1770.0,,,,0.0889176232702226,-0.948932414140716,0.27012995493809,,-0.8165246533813806,,
,6020.0,1356.0,3696.0,1288.0,1432.0,3226.0,1756.0,,,,0.0889095380922846,-0.948961658387336,0.270201804631942,,-0.5933194296631679,,
,6024.0,1358.0,3700.0,1291.0,1433.0,3230.0,1750.0,,,,0.0889119597605731,-0.94915281483695,0.270177093718871,,-0.3558226156676557,,
,6026.0,1357.0,3701.0,1293.0,1436.0,3226.0,1736.0,,,,0.0889078732433361,-0.948980808798935,0.270432314560872,,-0.10546956228411128,,
,6029.0,1361.0,3702.0,1290.0,1435.0,3231.0,1742.0,,,,0.0889071407038828,-0.949445737155538,0.270187479498303,,0.15637168858711176,,
,6026.0,1357.0,3700.0,1290.0,1441.0,3246.0,1759.0,,,,0.0889128862207299,-0.949608492220677,0.269937250597571,,0.42834857928136394,,
,6028.0,1358.0,3702.0,1291.0,1452.0,3251.0,1784.0,,,,0.0889105408769165,-0.949272903897683,0.269972610554165,,0.7090237509540049,,
,6030.0,1359.0,3703.0,1293.0,1433.0,3256.0,1792.0,,,,0.0889139202754129,-0.94884662484394,0.269951673212397,,0.9967358927329562,,
,6030.0,1359.0,3701.0,1293.0,1430.0,3259.0,1777.0,,,,0.0889086149273721,-0.94914990738537,0.269873627883858,,1.2894370554532302,,
,6031.0,1358.0,3704.0,1292.0,1440.0,3250.0,1793.0,,,,0.0889124337046524,-0.94852866479756,0.270315535667409,,1.5845266117980457,,
,6034.0,1360.0,3703.0,1293.0,1435.0,3235.0,1768.0,,,,0.0889110619885127,-0.948994028406555,0.27012939729232,,1.878705660722342,,
,6036.0,1360.0,3706.0,1294.0,1445.0,3244.0,1773.0,,,,0.0889117781755498,-0.948791184553342,0.270220273407497,,2.167877523123934,,
,6035.0,1361.0,3705.0,1293.0,1444.0,3241.0,1778.0,,,,0.0889096873047279,-0.94897731270326,0.27030837157691,,2.4471193348480185,,
,6031.0,1359.0,3703.0,1291.0,1440.0,3222.0,1795.0,,,,0.0889165219203396,-0.948877322801221,0.270518219811457,,2.7107457607335754,,
,6029.0,1358.0,3700.0,1292.0,1442.0,3212.0,1792.0,,,,0.0889078358452962,-0.948570555048537,0.270038623010403,,2.952477855208084,,
,6029.0,1358.0,3700.0,1289.0,1456.0,3222.0,1774.0,,,,0.0889108778964804,-0.949212255294565,0.270214872452646,,3.1657181472371807,,
,6023.0,1359.0,3699.0,1290.0,1452.0,3220.0,1770.0,,,,0.0889106862158571,-0.948769972720989,0.270168964623455,,3.3439183894214457,,
,6021.0,1359.0,3698.0,1288.0,1440.0,3219.0,1770.0,,,,0.0889093832360537,-0.949017973599719,0.270165383989672,,3.481011446711124,,
,6020.0,1354.0,3696.0,1286.0,1441.0,3243.0,1760.0,,,,0.0889104408336523,-0.94888533531304,0.26995958321948,,3.5718663110593862,,
,6019.0,1356.0,3697.0,1287.0,1442.0,3246.0,1731.0,,,,0.0889029658460756,-0.94899313286588,0.270162705434542,,3.6127176596890727,,
,6016.0,1355.0,3699.0,1288.0,1442.0,3254.0,1744.0,,,,0.0889060165922134,-0.948751075698747,0.270185066877999,,3.6015203609342867,,
,6015.0,1354.0,3698.0,1287.0,1446.0,3255.0,1735.0,,,,0.0889031784398728,-0.948876021775675,0.270464430291807,,3.538185517481714,,
,6009.0,1351.0,3695.0,1285.0,1428.0,3249.0,1743.0,,,,0.0889078775403682,-0.948764112439678,0.270442357622261,,3.4246674579720993,,
,6007.0,1356.0,3697.0,1286.0,1425.0,3245.0,1747.0,,,,0.088911993716479,-0.948477163844328,0.270382499357741,,3.2648885856249095,,
,6007.0,1351.0,3694.0,1283.0,1439.0,3245.0,1779.0,,,,0.0889111010529896,-0.948362730850416,0.270484276587465,,3.0645080774899194,,
,6007.0,1353.0,3693.0,1284.0,1442.0,3237.0,1771.0,,,,0.0889149429567631,-0.948137884045254,0.27058882981713,,2.8305577682218703,,
,6003.0,1350.0,3690.0,1285.0,1444.0,3239.0,1761.0,,,,0.0889151628278271,-0.948179656091932,0.270630103527798,,2.570981687183939,,
,6003.0,1352.0,3690.0,1283.0,1436.0,3232.0,1770.0,,,,0.0889198133675129,-0.948148110064401,0.270651800533523,,2.294123646072342,,
,6003.0,1351.0,3691.0,1285.0,1429.0,3234.0,1782.0,,,,0.0889197653985298,-0.94793941193988,0.270726430382354,,2.008210109670958,,
,6001.0,1350.0,3688.0,1283.0,1434.0,3235.0,1791.0,,,,0.0889185367502613,-0.94790475245747,0.27070098156237,,1.7208737395307871,,
,6001.0,1349.0,3689.0,1282.0,1418.0,3234.0,1806.0,,,,0.0889201413904284,-0.947886519801159,0.27092391853125,,1.4387568036041822,,
,6000.0,1349.0,3689.0,1283.0,1432.0,3232.0,1795.0,,,,0.0889226954935172,-0.947620395098865,0.271030331360506,,1.1672236439021373,,
,6001.0,1352.0,3691.0,1285.0,1429.0,3244.0,1777.0,,,,0.0889210585645319,-0.947782350330351,0.271073275010564,,0.9101987902042168,,
,6003.0,1350.0,3692.0,1282.0,1423.0,3249.0,1776.0,,,,0.0889237537960085,-0.947508595384606,0.270945201911092,,0.6701338431141298,,
,6004.0,1352.0,3692.0,1285.0,1423.0,3238.0,1798.0,,,,0.0889201462518888,-0.947636850387045,0.27108096737126,,0.44809364821565656,,
,6007.0,1353.0,3689.0,1285.0,1431.0,3236.0,1781.0,,,,0.0889242307957663,-0.947894429457626,0.270806554351683,,0.243941808427219,,
,6006.0,1353.0,3691.0,1286.0,1439.0,3241.0,1771.0,,,,0.0889125712569929,-0.948520391936074,0.27031707725149,,0.05659801196381519,,
,6006.0,1353.0,3693.0,1286.0,1446.0,3232.0,1770.0,,,,0.0889078838139723,-0.94888592058925,0.270417628890328,,-0.1156645523057699,,
,6005.0,1351.0,3692.0,1285.0,1437.0,3241.0,1765.0,,,,0.0889035371287259,-0.949271136081517,0.269963215934375,,-0.27491410953929596,,
,6008.0,1351.0,3693.0,1284.0,1440.0,3233.0,1755.0,,,,0.088900970482594,-0.94957256560773,0.269477876542518,,-0.4232774049907809,,
,6011.0,1353.0,3694.0,1287.0,1417.0,3239.0,1768.0,,,,0.088893620253094,-0.950119581946369,0.269107944116727,,-0.5627036922128216,,
,6010.0,1353.0,3694.0,1285.0,1429.0,3242.0,1763.0,,,,0.0888910817191301,-0.950468582172407,0.268809404666357,,-0.6947932350432954,,
,6012.0,1353.0,3694.0,1285.0,1438.0,3257.0,1755.0,,,,0.088884415502177,-0.95101625903877,0.26864958586824,,-0.8206996720947509,,
,6009.0,1352.0,3694.0,1284.0,1437.0,3244.0,1763.0,,,,0.0888875908589667,-0.951759107733308,0.268281553405328,,-0.9411067432467796,,
,6011.0,1355.0,3694.0,1286.0,1433.0,3238.0,1766.0,,,,0.0888838363372676,-0.951775262121316,0.267987965225441,,-1.056271253882646,,
,6012.0,1355.0,3691.0,1285.0,1435.0,3232.0,1751.0,,,,0.0888834033900892,-0.951920173424764,0.267779787766205,,-1.1661167996786175,,
,6008.0,1353.0,3693.0,1287.0,1435.0,3251.0,1746.0,,,,0.0888822239677189,-0.952229759877317,0.267926692254608,,-1.2703578511122504,,
,6010.0,1351.0,3692.0,1285.0,1439.0,3249.0,1760.0,,,,0.0888848549258655,-0.952184095794065,0.267514426062699,,-1.368632056391257,,
,6014.0,1355.0,3696.0,1287.0,1435.0,3232.0,1771.0,,,,0.0888846929075083,-0.952496767049994,0.267865745797733,,-1.4606199913829836,,
,6012.0,1354.0,3692.0,1287.0,1443.0,3253.0,1769.0,,,,0.0888825754253796,-0.951724965528589,0.268151676309205,,-1.5461353342457154,,
,6015.0,1356.0,3698.0,1288.0,1446.0,3256.0,1769.0,,,,0.0888910625163507,-0.951115415451535,0.268285204793748,,-1.6251736982563416,,
,6011.0,1353.0,3691.0,1283.0,1422.0,3243.0,1766.0,,,,0.0888911940823142,-0.950499069493054,0.268712151583265,,-1.6979144207198809,,
,6012.0,1352.0,3693.0,1286.0,1424.0,3241.0,1761.0,,,,0.0888885996654115,-0.950599166717953,0.269035769222422,,-1.7646759304685289,,
,6011.0,1355.0,3694.0,1287.0,1436.0,3236.0,1750.0,,,,0.0888945026859945,-0.95068897697346,0.269152905532102,,-1.8258313542691138,,
,6011.0,1352.0,3693.0,1286.0,1424.0,3239.0,1760.0,,,,0.0888950912450494,-0.949779454182786,0.269480627015095,,-1.8816961788966773,,
,6006.0,1350.0,3692.0,1283.0,1428.0,3238.0,1760.0,,,,0.0888967359224997,-0.949830437334961,0.269583730215427,,-1.9324035182758843,,
,6009.0,1353.0,3694.0,1286.0,1428.0,3234.0,1747.0,,,,0.0888977694844729,-0.949377498011039,0.27000219084359,,-1.9777844731074041,,
,6010.0,1350.0,3692.0,1284.0,1444.0,3240.0,1749.0,,,,0.0888951355281439,-0.949433395601041,0.269800595411708,,-2.017271026227196,,
,6009.0,1354.0,3691.0,1284.0,1435.0,3250.0,1754.0,,,,0.088902523800926,-0.948684858585554,0.269836187931525,,-2.0498368148814987,,
,6008.0,1352.0,3690.0,1282.0,1445.0,3247.0,1778.0,,,,0.088902898252696,-0.948787837316183,0.27021066644088,,-2.0739869636064907,,
,6009.0,1350.0,3691.0,1286.0,1434.0,3233.0,1777.0,,,,0.0888987233984055,-0.948741699210507,0.27006114660474,,-2.0878021412199166,,
,6011.0,1352.0,3694.0,1285.0,1426.0,3248.0,1763.0,,,,0.088901829724237,-0.948483224454364,0.270191482849825,,-2.0890347516451793,,
,6013.0,1353.0,3692.0,1286.0,1419.0,3255.0,1743.0,,,,0.0888962409425963,-0.948600930088553,0.270517367690316,,-2.0752478732679456,,
,6010.0,1352.0,3692.0,1284.0,1426.0,3257.0,1767.0,,,,0.0888972719187423,-0.948527901478172,0.270241831960598,,-2.0439816768755112,,
,6011.0,1353.0,3692.0,1285.0,1428.0,3236.0,1763.0,,,,0.0888988395629104,-0.948570854586111,0.270102369068645,,-1.9929286649148752,,
,6012.0,1354.0,3693.0,1287.0,1437.0,3219.0,1784.0,,,,0.0888973400203293,-0.948876648461794,0.270246737629909,,-1.9200985144816347,,
,6012.0,1353.0,3693.0,1287.0,1440.0,3216.0,1776.0,,,,0.0888933509474029,-0.948897920932498,0.269872479242762,,-1.8239553179502503,,
,6015.0,1350.0,3694.0,1285.0,1449.0,3237.0,1771.0,,,,0.0888933376899312,-0.949271767803795,0.270016708763442,,-1.7035141937830216,,
,6011.0,1352.0,3692.0,1283.0,1451.0,3231.0,1764.0,,,,0.0888950046643258,-0.949270741113279,0.269720029920852,,-1.5583901888794933,,
,6015.0,1351.0,3694.0,1287.0,1445.0,3232.0,1770.0,,,,0.088899670067744,-0.949301709956942,0.269636039199221,,-1.3887994925095348,,
,6020.0,1356.0,3694.0,1288.0,1445.0,3224.0,1763.0,,,,0.0888990169299708,-0.949089242970088,0.269785209394118,,-1.1955201803834914,,
,6015.0,1353.0,3696.0,1286.0,1436.0,3227.0,1749.0,,,,0.0888976578142548,-0.949499519730345,0.269689973340341,,-0.9798257058610761,,
,6017.0,1354.0,3694.0,1287.0,1449.0,3245.0,1734.0,,,,0.0888969390848746,-0.949450976510765,0.269698041012038,,-0.7434080360019022,,
,6019.0,1355.0,3697.0,1289.0,1440.0,3238.0,1740.0,,,,0.0888960115885305,-0.949827893324849,0.269308996800523,,-0.48830806122873577,,
,6020.0,1357.0,3697.0,1288.0,1438.0,3244.0,1755.0,,,,0.0888968853417274,-0.950074887574667,0.26937161971866,,-0.21686855740756958,,
,6020.0,1354.0,3697.0,1289.0,1434.0,3258.0,1765.0,,,,0.0888878534064214,-0.950054114327717,0.269286646106588,,0.06828020459618594,,
,6021.0,1354.0,3698.0,1288.0,1428.0,3242.0,1778.0,,,,0.0888898826193073,-0.95020930077183,0.269343959174112,,0.36419951369250764,,
,6025.0,1357.0,3699.0,1289.0,1431.0,3235.0,1782.0,,,,0.0888944924719826,-0.950431764075431,0.268706469178253,,0.6675917668223319,,
,6025.0,1359.0,3700.0,1290.0,1429.0,3234.0,1782.0,,,,0.0888896927023494,-0.950649095390654,0.268956237911555,,0.9747343429868353,,
,6026.0,1357.0,3700.0,1289.0,1433.0,3240.0,1775.0,,,,0.0888867877597148,-0.950625554508495,0.269097976741107,,1.281417404821897,,
,6025.0,1357.0,3699.0,1288.0,1435.0,3240.0,1781.0,,,,0.0888894984150442,-0.950604630045904,0.268873810572263,,1.5829076042368373,,
,6031.0,1358.0,3700.0,1291.0,1425.0,3229.0,1756.0,,,,0.0888873785633981,-0.950715823112895,0.268943870736474,,1.8739583858077804,,
,6027.0,1357.0,3702.0,1292.0,1435.0,3219.0,1766.0,,,,0.0888883658858371,-0.950276867038903,0.268937169699405,,2.148883091463222,,
,6031.0,1357.0,3702.0,1290.0,1437.0,3219.0,1767.0,,,,0.0888907333497793,-0.950433971798449,0.268881712675758,,2.4017001263612383,,
,6028.0,1358.0,3698.0,1289.0,1436.0,3237.0,1768.0,,,,0.0888902430751074,-0.950470746909294,0.268575581047658,,2.626350795802649,,
,6033.0,1359.0,3702.0,1291.0,1435.0,3240.0,1770.0,,,,0.0888888926050435,-0.95068285034325,0.268763353342558,,2.816980728882952,,
,6035.0,1358.0,3702.0,1293.0,1436.0,3233.0,1771.0,,,,0.0888858837704213,-0.950348545943541,0.268327632633242,,2.9682658477805877,,
,6032.0,1358.0,3704.0,1291.0,1435.0,3230.0,1760.0,,,,0.0888855687243066,-0.950446358127136,0.268983596536181,,3.075754798681414,,
,6035.0,1359.0,3704.0,1290.0,1453.0,3244.0,1788.0,,,,0.0888869192459329,-0.950603209582482,0.268828401716976,,3.1361931624413804,,
,6037.0,1359.0,3704.0,1292.0,1451.0,3245.0,1775.0,,,,0.0888873732060553,-0.950456676387529,0.26899199952524,,3.14779214654299,,
,6039.0,1360.0,3704.0,1292.0,1447.0,3239.0,1757.0,,,,0.0888863746686154,-0.95031591753523,0.269076915826776,,3.11040702503466,,
,6038.0,1360.0,3707.0,1294.0,1438.0,3238.0,1746.0,,,,0.088892626616294,-0.950237377459426,0.269276563943892,,3.0255988937093976,,
,6038.0,1360.0,3705.0,1291.0,1434.0,3242.0,1746.0,,,,0.0888879711856668,-0.950414689684074,0.268945697806669,,2.896566826217227,,
,6041.0,1361.0,3709.0,1295.0,1437.0,3241.0,1765.0,,,,0.0888886309445032,-0.950251314646866,0.268718340920121,,2.7279542813952786,,
,6044.0,1362.0,3709.0,1295.0,1437.0,3249.0,1771.0,,,,0.0888895107218474,-0.950206013124371,0.269174855477571,,2.525550313324518,,
,6044.0,1363.0,3707.0,1294.0,1431.0,3244.0,1761.0,,,,0.0888870237947358,-0.949958920747118,0.26904832902859,,2.295919099551438,,
,6043.0,1360.0,3706.0,1296.0,1421.0,3234.0,1769.0,,,,0.0888907597469772,-0.94935938498511,0.269252546362391,,2.0459979762692053,,
,6045.0,1361.0,3709.0,1295.0,1427.0,3229.0,1786.0,,,,0.088892737147573,-0.949852291775872,0.269346945373256,,1.782704064404387,,
,6042.0,1362.0,3707.0,1295.0,1435.0,3253.0,1780.0,,,,0.0888934997176111,-0.949621780331494,0.269036230438881,,1.512584007948223,,
,6046.0,1360.0,3709.0,1296.0,1440.0,3254.0,1786.0,,,,0.0888941984117728,-0.949618544271791,0.269486743382627,,1.2415324284618088,,
,6047.0,1363.0,3709.0,1295.0,1437.0,3235.0,1795.0,,,,0.088893958764392,-0.949969232502644,0.269353069799926,,0.9745943795824479,,
,6049.0,1362.0,3708.0,1295.0,1433.0,3237.0,1777.0,,,,0.0888902798270057,-0.950097472438252,0.269237069878058,,0.7158567777855499,,
,6051.0,1363.0,3709.0,1297.0,1437.0,3232.0,1776.0,,,,0.0888896931381312,-0.95054994381053,0.269380727963729,,0.4684244370569669,,
,6053.0,1363.0,3714.0,1295.0,1442.0,3223.0,1779.0,,,,0.0888883709504118,-0.950149030703263,0.268970710949044,,0.2344685947896522,,
,6054.0,1363.0,3709.0,1296.0,1448.0,3226.0,1767.0,,,,0.0888875914066831,-0.94998565040917,0.26915119105722,,0.015330135028485918,,
,6052.0,1364.0,3711.0,1298.0,1437.0,3250.0,1762.0,,,,0.0888883168403407,-0.949859026123923,0.269188644709242,,-0.18834356066805072,,
2025-08-20 20:57:26,6055.0,1364.0,3711.0,1299.0,1430.0,3258.0,1742.0,,,2025/08/20 08:57:26 PM,0.0888862909670624,-0.9501922156191,0.269220038291226,,-0.37644976168837846,,
,6058.0,1364.0,3713.0,1299.0,1434.0,3261.0,1754.0,,,,0.0888854656501348,-0.949946605591856,0.269219665252622,,-0.5492888185224857,,
,6056.0,1365.0,3715.0,1299.0,1422.0,3265.0,1757.0,,,,0.0888867027243719,-0.950210084728688,0.268961946342556,,-0.7074441409149756,,
,6058.0,1363.0,3714.0,1296.0,1414.0,3258.0,1772.0,,,,0.0888859134547863,-0.95046993332725,0.268722748673891,,-0.8516912277057276,,
,6058.0,1363.0,3713.0,1300.0,1421.0,3255.0,1767.0,,,,0.0888872216955316,-0.950067109953193,0.268936468560594,,-0.982936327136106,,
,6064.0,1365.0,3715.0,1299.0,1414.0,3247.0,1761.0,,,,0.0888847572787054,-0.950135716094226,0.269196385501816,,-1.10217988140643,,
,6063.0,1367.0,3719.0,1302.0,1429.0,3233.0,1754.0,,,,0.0888853294493525,-0.949592692625635,0.268868925731827,,-1.2104969000956873,,
,6062.0,1363.0,3713.0,1298.0,1429.0,3218.0,1769.0,,,,0.0888797380259762,-0.949666097502106,0.269159985996221,,-1.3090256683332249,,
,6062.0,1365.0,3716.0,1298.0,1428.0,3227.0,1790.0,,,,0.0888828996474131,-0.949759809404756,0.268811018300116,,-1.398956974214512,,
,6061.0,1366.0,3720.0,1299.0,1422.0,3220.0,1792.0,,,,0.088885582471238,-0.950325170266911,0.268925526413089,,-1.4815176164702382,,
,6059.0,1367.0,3715.0,1297.0,1418.0,3209.0,1794.0,,,,0.0888841351629844,-0.949704645087978,0.269052925437021,,-1.557943908150366,,
,6055.0,1365.0,3713.0,1298.0,1420.0,3227.0,1774.0,,,,0.0888806303444949,-0.949712998176592,0.268976036886074,,-1.629443022070625,,
,6051.0,1363.0,3712.0,1295.0,1421.0,3224.0,1779.0,,,,0.0888820978776846,-0.950286509852492,0.268837205147295,,-1.697142192508966,,
,6050.0,1362.0,3710.0,1295.0,1433.0,3226.0,1808.0,,,,0.0888887071076161,-0.949962734986098,0.269137535700946,,-1.7620278680032488,,
,6048.0,1362.0,3710.0,1295.0,1428.0,3220.0,1806.0,,,,0.0888825768642731,-0.950074285666817,0.268820304150998,,-1.8248788024941767,,
,6045.0,1361.0,3706.0,1293.0,1407.0,3250.0,1778.0,,,,0.0888853122236368,-0.9496225971477,0.268883440932271,,-1.8861986926864753,,
,6040.0,1358.0,3707.0,1293.0,1426.0,3246.0,1767.0,,,,0.0888809712218041,-0.950215467928582,0.268753616616386,,-1.9461551663818089,,
,6039.0,1357.0,3706.0,1291.0,1438.0,3236.0,1764.0,,,,0.0888755848149705,-0.949670199638598,0.269129070177417,,-2.0045324073805286,,
,6037.0,1359.0,3705.0,1290.0,1435.0,3243.0,1773.0,,,,0.0888784074936254,-0.949993136073237,0.269032344354122,,-2.060704103362274,,
,6033.0,1357.0,3702.0,1290.0,1435.0,3253.0,1765.0,,,,0.0888771859458545,-0.950128591640979,0.269202624507966,,-2.1136315547288818,,
,6035.0,1357.0,3701.0,1289.0,1432.0,3255.0,1770.0,,,,0.0888770072077462,-0.949529274054498,0.269028133579302,,-2.1618890182873005,,
,6034.0,1357.0,3703.0,1290.0,1436.0,3229.0,1771.0,,,,0.0888776472188973,-0.94936241464576,0.269022577961442,,-2.203715486353246,,
,6033.0,1359.0,3703.0,1291.0,1435.0,3225.0,1770.0,,,,0.0888812632107893,-0.949912718820952,0.269439058327007,,-2.237089881793034,,
,6032.0,1357.0,3702.0,1290.0,1422.0,3226.0,1758.0,,,,0.0888772483413792,-0.949862700042095,0.269361300639568,,-2.2598252722799366,,
,6031.0,1354.0,3700.0,1292.0,1427.0,3235.0,1761.0,,,,0.0888783539146243,-0.949556531287786,0.269338402217493,,-2.2696768085784322,,
,6031.0,1355.0,3702.0,1291.0,1419.0,3251.0,1770.0,,,,0.0888831942283492,-0.949504076018465,0.269103404120297,,-2.264457209704719,,
,6032.0,1355.0,3700.0,1289.0,1424.0,3267.0,1785.0,,,,0.0888846877379292,-0.949390820083463,0.268978235990949,,-2.2421525601135075,,
,6031.0,1357.0,3702.0,1288.0,1419.0,3272.0,1797.0,,,,0.0888857777773549,-0.949498261410378,0.269487948514459,,-2.201030086058807,,
,6030.0,1353.0,3698.0,1288.0,1405.0,3250.0,1794.0,,,,0.0888842874477287,-0.949475786490346,0.268982871522602,,-2.1397288058553112,,
,6032.0,1356.0,3700.0,1288.0,1393.0,3214.0,1775.0,,,,0.0888844902905322,-0.950097855686341,0.268965137391533,,-2.0573240215620334,,
,6030.0,1357.0,3698.0,1292.0,1404.0,3234.0,1781.0,,,,0.0888829981257632,-0.949817569360912,0.268503381753897,,-1.9533581367587083,,
,6031.0,1354.0,3696.0,1288.0,1411.0,3236.0,1778.0,,,,0.0888846708429684,-0.94977385834545,0.26893309323826,,-1.8278337077556734,,
,6024.0,1352.0,3696.0,1288.0,1412.0,3233.0,1796.0,,,,0.0888845537266914,-0.950057284500022,0.268992857663458,,-1.6811699124838562,,
,6035.0,1357.0,3696.0,1289.0,1425.0,3243.0,1806.0,,,,0.0888810734770784,-0.949974334975132,0.268533012567197,,-1.5141299120534049,,
,6033.0,1356.0,3701.0,1289.0,1429.0,3258.0,1803.0,,,,0.0888813748825464,-0.950249621839969,0.268776756142224,,-1.3277323553832485,,
,6034.0,1357.0,3701.0,1290.0,1434.0,3250.0,1789.0,,,,0.0888818378909616,-0.950191907548668,0.26881874903807,,-1.123163831472451,,
,6034.0,1355.0,3700.0,1289.0,1425.0,3239.0,1790.0,,,,0.0888765309777198,-0.950532225001526,0.268092193613782,,-0.9017092545080628,,
,6034.0,1355.0,3700.0,1291.0,1421.0,3232.0,1781.0,,,,0.0888694901402743,-0.950801341356781,0.268172241759255,,-0.6647139476771108,,
,6036.0,1356.0,3700.0,1292.0,1431.0,3241.0,1787.0,,,,0.0888669276079723,-0.951294610491982,0.26786159555177,,-0.41358564019584926,,
,6035.0,1356.0,3699.0,1290.0,1429.0,3239.0,1792.0,,,,0.0888655406673599,-0.952360203264512,0.267679463064118,,-0.14983816799094624,,
,6036.0,1356.0,3701.0,1291.0,1430.0,3226.0,1791.0,,,,0.0888643137125865,-0.952349712457664,0.267086348254948,,0.1248275735957963,,
,6037.0,1354.0,3700.0,1290.0,1436.0,3214.0,1810.0,,,,0.0888532520520397,-0.953193601857562,0.266780672507343,,0.40841549833250024,,
,6036.0,1355.0,3702.0,1290.0,1429.0,3224.0,1788.0,,,,0.0888508338781042,-0.953554909801249,0.266609589263135,,0.6985138915822575,,
,6037.0,1358.0,3701.0,1292.0,1425.0,3236.0,1775.0,,,,0.0888485448417149,-0.954014610827078,0.266099524866442,,0.9921811463025456,,
,6034.0,1354.0,3695.0,1286.0,1432.0,3268.0,1780.0,,,,0.0888466228798074,-0.953993038113111,0.265681315999353,,1.2858579863695054,,
,6033.0,1355.0,3701.0,1290.0,1428.0,3263.0,1806.0,,,,0.0888408620476503,-0.954807657855831,0.265581975558433,,1.5753259932858574,,
,6036.0,1354.0,3700.0,1289.0,1422.0,3252.0,1799.0,,,,0.0888378965346057,-0.95525113735093,0.265457067377994,,1.8557291172393928,,
,6034.0,1356.0,3698.0,1288.0,1425.0,3257.0,1786.0,,,,0.088834446675415,-0.955970297322503,0.265109442158352,,2.1216691456938896,,
,6034.0,1355.0,3698.0,1291.0,1427.0,3240.0,1776.0,,,,0.0888370950509367,-0.955679795161763,0.265059738327184,,2.3673782867755335,,
,6034.0,1354.0,3698.0,1288.0,1419.0,3259.0,1781.0,,,,0.0888376865512883,-0.955913053980343,0.26495739834056,,2.586962939666057,,
,6035.0,1356.0,3698.0,1289.0,1413.0,3263.0,1792.0,,,,0.0888369922591202,-0.955582722965699,0.264968192937479,,2.7747034830605517,,
,6032.0,1354.0,3699.0,1291.0,1417.0,3271.0,1791.0,,,,0.0888421491631245,-0.95493442003986,0.26517388878896,,2.925386748910482,,
,6032.0,1353.0,3698.0,1289.0,1426.0,3276.0,1783.0,,,,0.0888426712629918,-0.954792736713735,0.265550746323738,,3.0346419449591346,,
,6030.0,1354.0,3698.0,1288.0,1430.0,3244.0,1771.0,,,,0.0888499670908174,-0.954320444652265,0.265449530193221,,3.099248047869358,,
,6034.0,1352.0,3699.0,1289.0,1426.0,3239.0,1791.0,,,,0.0888519887172726,-0.95426938433079,0.265767754583696,,3.1173815130579787,,
,6034.0,1355.0,3697.0,1290.0,1432.0,3250.0,1797.0,,,,0.0888479496675199,-0.953974505833386,0.266093402719201,,3.08877751825261,,
,6034.0,1353.0,3698.0,1288.0,1428.0,3245.0,1798.0,,,,0.0888535800780619,-0.953741673956869,0.266528965637734,,3.0147857357685997,,
,6031.0,1352.0,3698.0,1287.0,1443.0,3247.0,1790.0,,,,0.0888517954143726,-0.953591272873975,0.266185614517469,,2.8983124854034323,,
,6033.0,1355.0,3698.0,1291.0,1430.0,3236.0,1788.0,,,,0.0888579764164678,-0.953290353868678,0.266503539183951,,2.7436539424355693,,
,6033.0,1354.0,3697.0,1290.0,1435.0,3249.0,1795.0,,,,0.0888602556353995,-0.953214169428748,0.266311979660743,,2.556237665994355,,
,6034.0,1353.0,3696.0,1287.0,1438.0,3247.0,1789.0,,,,0.0888572649768529,-0.953769975215327,0.266662282367734,,2.3422994573344154,,
,6035.0,1351.0,3695.0,1286.0,1436.0,3251.0,1774.0,,,,0.0888576625101664,-0.953353900990076,0.266424363662117,,2.108527586945395,,
,6037.0,1354.0,3696.0,1287.0,1417.0,3231.0,1793.0,,,,0.0888551306495777,-0.953344954194417,0.266668572065861,,1.861706323399633,,
,6035.0,1356.0,3697.0,1289.0,1425.0,3231.0,1776.0,,,,0.0888559616104052,-0.95347771187927,0.266433014631762,,1.608386332146247,,
,6037.0,1353.0,3698.0,1290.0,1422.0,3231.0,1776.0,,,,0.0888578928553053,-0.953195979077842,0.266874436490706,,1.3546024232958178,,
,6037.0,1352.0,3695.0,1290.0,1423.0,3229.0,1791.0,,,,0.0888599990637983,-0.953159897014121,0.266910696209841,,1.1056509528594864,,
,6039.0,1353.0,3697.0,1290.0,1428.0,3255.0,1796.0,,,,0.0888588286463611,-0.953241018471044,0.266657622154372,,0.8659314182438922,,
,6043.0,1354.0,3700.0,1291.0,1426.0,3252.0,1795.0,,,,0.0888585240591783,-0.953210472090198,0.266587917182463,,0.6388506823731921,,
,6041.0,1356.0,3701.0,1293.0,1434.0,3243.0,1793.0,,,,0.0888594607306606,-0.953662143899681,0.266329284097125,,0.42678463971225633,,
,6043.0,1355.0,3700.0,1287.0,1425.0,3234.0,1779.0,,,,0.0888512591880071,-0.953205664179904,0.266922884600688,,0.2310911195761905,,
,6047.0,1358.0,3703.0,1291.0,1424.0,3230.0,1786.0,,,,0.088854930195478,-0.953535683285052,0.266883160152358,,0.05216859466110333,,
,6044.0,1356.0,3701.0,1292.0,1430.0,3228.0,1774.0,,,,0.088856879637028,-0.953398472569326,0.266283042607815,,-0.1104436285134564,,
,6046.0,1360.0,3702.0,1291.0,1418.0,3232.0,1776.0,,,,0.0888541945490715,-0.953871102188557,0.266546506046511,,-0.25792786505649035,,
,6046.0,1356.0,3701.0,1293.0,1428.0,3251.0,1791.0,,,,0.0888541509377065,-0.953878194639903,0.266192186815712,,-0.3920183682353236,,
,6047.0,1355.0,3701.0,1293.0,1427.0,3244.0,1791.0,,,,0.0888522890444108,-0.954011347623755,0.266004203741144,,-0.5148066881271766,,
,6047.0,1356.0,3703.0,1292.0,1417.0,3237.0,1783.0,,,,0.0888449421688922,-0.954668410852487,0.265614199746947,,-0.6285314870338263,,
,6048.0,1357.0,3703.0,1293.0,1408.0,3248.0,1769.0,,,,0.0888381233165151,-0.954474817193342,0.265682685076973,,-0.7353642942307748,,
,6050.0,1358.0,3703.0,1293.0,1422.0,3246.0,1775.0,,,,0.0888399723839543,-0.954646452279467,0.265301275856182,,-0.837204343575509,,
,6050.0,1355.0,3700.0,1292.0,1411.0,3243.0,1797.0,,,,0.0888414268585218,-0.955381557863712,0.265248619844925,,-0.9354966885313313,,
,6051.0,1356.0,3702.0,1295.0,1420.0,3232.0,1812.0,,,,0.0888356265778013,-0.955813684898271,0.264969971414447,,-1.0310879817456895,,
,6054.0,1359.0,3706.0,1294.0,1430.0,3234.0,1788.0,,,,0.0888307088311356,-0.95564142697829,0.264766873389641,,-1.1241334026475318,,
,6052.0,1360.0,3703.0,1294.0,1434.0,3238.0,1784.0,,,,0.0888290358222499,-0.955717762080728,0.264820916940844,,-1.2140660549456623,,
,6052.0,1358.0,3703.0,1293.0,1438.0,3240.0,1791.0,,,,0.0888278242684915,-0.955704468048114,0.264454407817344,,-1.2996366244307713,,
,6054.0,1360.0,3706.0,1297.0,1435.0,3234.0,1801.0,,,,0.0888260907137245,-0.956191240174537,0.264493956246442,,-1.3790260979409783,,
,6056.0,1358.0,3707.0,1294.0,1412.0,3214.0,1801.0,,,,0.0888299177240406,-0.956445053459391,0.264416621109359,,-1.4500279120680186,,
,6056.0,1359.0,3705.0,1296.0,1407.0,3216.0,1792.0,,,,0.0888286623972738,-0.956108939430602,0.264391543492764,,-1.5102882991703555,,
,6058.0,1359.0,3706.0,1294.0,1425.0,3242.0,1786.0,,,,0.088827265415838,-0.956320458599987,0.264701051013633,,-1.5575855283806186,,
,6060.0,1361.0,3708.0,1295.0,1428.0,3241.0,1786.0,,,,0.0888263406682106,-0.955870619521032,0.264391125890978,,-1.5901214109667006,,
,6060.0,1359.0,3710.0,1297.0,1425.0,3250.0,1793.0,,,,0.0888277709392562,-0.956259311645841,0.264432959821772,,-1.606793374828762,,
,6063.0,1360.0,3709.0,1297.0,1420.0,3248.0,1791.0,,,,0.0888264400603196,-0.956467275580506,0.264482357532346,,-1.6074139150825353,,
,6059.0,1358.0,3707.0,1296.0,1425.0,3248.0,1785.0,,,,0.0888281266429696,-0.956631098209264,0.264014504566507,,-1.5928468887429283,,
,6062.0,1358.0,3706.0,1297.0,1430.0,3234.0,1773.0,,,,0.0888231094847095,-0.956185561916375,0.2641253615055,,-1.5650367878419758,,
,6064.0,1362.0,3708.0,1296.0,1423.0,3230.0,1787.0,,,,0.0888279866268416,-0.956752488660699,0.264378891581723,,-1.5269172361736085,,
,6065.0,1360.0,3710.0,1297.0,1424.0,3241.0,1789.0,,,,0.0888266334662673,-0.956770439072525,0.264056576407582,,-1.4821978131725362,,
,6066.0,1363.0,3711.0,1297.0,1408.0,3233.0,1804.0,,,,0.0888228367035345,-0.956504503423,0.264419234144078,,-1.4350429891205354,,
,6067.0,1362.0,3709.0,1297.0,1415.0,3223.0,1805.0,,,,0.0888340776855254,-0.956513289936339,0.26414736315611,,-1.3896718991843642,,
,6067.0,1360.0,3713.0,1299.0,1411.0,3231.0,1795.0,,,,0.0888303665647379,-0.957052918635794,0.264310323230534,,-1.3499204009026462,,
,6068.0,1363.0,3710.0,1297.0,1408.0,3231.0,1793.0,,,,0.0888306707578478,-0.956660461881785,0.26436653717317,,-1.3188144105060298,,
,6069.0,1360.0,3710.0,1297.0,1436.0,3232.0,1796.0,,,,0.0888313441168496,-0.956619956977768,0.264054522023809,,-1.298203830871762,,
,6071.0,1361.0,3712.0,1298.0,1422.0,3236.0,1781.0,,,,0.0888266014720315,-0.957228199907324,0.264477117251859,,-1.288499383269162,,
,6068.0,1362.0,3712.0,1299.0,1415.0,3224.0,1798.0,,,,0.0888349752912181,-0.956638966840749,0.264151583012113,,-1.2885420666263918,,
,6072.0,1365.0,3710.0,1299.0,1416.0,3223.0,1801.0,,,,0.0888332054922387,-0.956603195755055,0.264641319857547,,-1.2956192314815782,,
,6073.0,1362.0,3714.0,1298.0,1422.0,3237.0,1785.0,,,,0.0888335585964963,-0.956259312379717,0.264929997783259,,-1.305624640914384,,
,6073.0,1361.0,3714.0,1298.0,1419.0,3251.0,1810.0,,,,0.088838085518157,-0.955984607739696,0.26451310597001,,-1.3133443722317926,,
,6075.0,1362.0,3714.0,1300.0,1433.0,3245.0,1769.0,,,,0.0888374775613264,-0.956340217979727,0.264399413480713,,-1.3128378724718526,,
,6076.0,1364.0,3716.0,1301.0,1431.0,3255.0,1791.0,,,,0.0888407911007891,-0.956143274310436,0.264585910828694,,-1.297875559053899,,
,6078.0,1366.0,3714.0,1301.0,1422.0,3244.0,1811.0,,,,0.0888355790770616,-0.956177226932523,0.26487611300525,,-1.2623918657812767,,
,6078.0,1363.0,3715.0,1300.0,1429.0,3238.0,1804.0,,,,0.0888386992179433,-0.956005464374831,0.264778624430442,,-1.2009151767996673,,
,6080.0,1365.0,3713.0,1300.0,1423.0,3235.0,1806.0,,,,0.0888444099790062,-0.955842731893251,0.264830772524469,,-1.1089423968782532,,
,6081.0,1366.0,3716.0,1299.0,1412.0,3237.0,1804.0,,,,0.0888426616106316,-0.955752121402409,0.26486448239556,,-0.9832345535717693,,
,6083.0,1367.0,3717.0,1301.0,1417.0,3233.0,1805.0,,,,0.0888370290473666,-0.956102186491718,0.265195647040841,,-0.8220197016934316,,
,6083.0,1365.0,3716.0,1300.0,1429.0,3224.0,1806.0,,,,0.0888423729164822,-0.955989292170497,0.264891282464007,,-0.6250996085914229,,
,6082.0,1363.0,3714.0,1301.0,1428.0,3233.0,1825.0,,,,0.0888390107027932,-0.955739124149734,0.26459466628377,,-0.39386614848749013,,
,6079.0,1362.0,3716.0,1300.0,1440.0,3231.0,1811.0,,,,0.0888395967910751,-0.956105906712457,0.265019343698773,,-0.1312406138847224,,
,6077.0,1361.0,3714.0,1300.0,1440.0,3233.0,1801.0,,,,0.0888407236094131,-0.955866671147941,0.264878127248211,,0.15844693659579923,,
,6071.0,1360.0,3712.0,1298.0,1437.0,3243.0,1798.0,,,,0.0888405420888232,-0.956380598435267,0.264650350879286,,0.4696209543127603,,
,6069.0,1360.0,3708.0,1297.0,1422.0,3232.0,1807.0,,,,0.0888408442428131,-0.956102318659715,0.265032980878192,,0.795651842444081,,
,6069.0,1362.0,3709.0,1298.0,1421.0,3217.0,1821.0,,,,0.0888413526221333,-0.955472650520723,0.26465035402362,,1.1290660833881407,,
,6065.0,1358.0,3706.0,1295.0,1419.0,3217.0,1822.0,,,,0.0888425694053298,-0.955533419750272,0.264897678758234,,1.4617715388406016,,
,6058.0,1357.0,3704.0,1291.0,1422.0,3233.0,1767.0,,,,0.0888428383062031,-0.955582551858052,0.265007572134953,,1.785299972053801,,
,6059.0,1358.0,3703.0,1291.0,1421.0,3248.0,1774.0,,,,0.0888404705647818,-0.955774387184693,0.264776581511065,,2.091072154237976,,
,6052.0,1357.0,3702.0,1294.0,1440.0,3242.0,1779.0,,,,0.0888420175391557,-0.956007173990104,0.264644098281728,,2.370690264748563,,
,6051.0,1357.0,3702.0,1289.0,1432.0,3237.0,1778.0,,,,0.0888411489668001,-0.95612407490153,0.264885531288794,,2.616257188931584,,
,6048.0,1350.0,3699.0,1290.0,1410.0,3217.0,1788.0,,,,0.0888400916582854,-0.955705581805811,0.264877138791593,,2.8207139767704486,,
,6046.0,1354.0,3697.0,1287.0,1419.0,3217.0,1800.0,,,,0.0888419673733988,-0.955916840212245,0.264997216412516,,2.9781774673790973,,
,6044.0,1354.0,3696.0,1290.0,1418.0,3223.0,1777.0,,,,0.088843055137729,-0.956301313402982,0.26510249158757,,3.084252332713907,,
,6043.0,1353.0,3697.0,1288.0,1421.0,3215.0,1793.0,,,,0.0888418211027095,-0.956244160134135,0.265081059553903,,3.136287440950153,,
,6042.0,1352.0,3692.0,1286.0,1419.0,3207.0,1802.0,,,,0.0888385694235378,-0.955943406198293,0.265094578285725,,3.133546658487406,,
2025-08-20 20:57:27,6042.0,1350.0,3691.0,1288.0,1420.0,3225.0,1793.0,,,2025/08/20 08:57:27 PM,0.0888428328196367,-0.956008774092907,0.264649377834458,,3.077269432402205,,
,6041.0,1350.0,3693.0,1287.0,1410.0,3226.0,1786.0,,,,0.0888434502671666,-0.955975520623615,0.264868338813371,,2.9706062938766142,,
,6039.0,1352.0,3693.0,1286.0,1409.0,3229.0,1795.0,,,,0.088844222645591,-0.955897236408055,0.265051414801426,,2.8184273663067763,,
,6041.0,1354.0,3690.0,1288.0,1398.0,3238.0,1801.0,,,,0.0888457933375923,-0.955808075276276,0.265160878108487,,2.6270158395420222,,
,6041.0,1350.0,3691.0,1284.0,1405.0,3248.0,1793.0,,,,0.0888451758661098,-0.95578100893556,0.264892285166218,,2.4036709097456215,,
,6040.0,1351.0,3690.0,1287.0,1410.0,3244.0,1798.0,,,,0.0888474063648838,-0.955922005872768,0.265235355006092,,2.1562542693017166,,
,6040.0,1348.0,3692.0,1286.0,1393.0,3235.0,1800.0,,,,0.0888490170235257,-0.955919496951368,0.265395983533249,,1.8927200024225876,,
,6037.0,1353.0,3690.0,1287.0,1395.0,3230.0,1803.0,,,,0.0888476533085536,-0.955037418232733,0.265392975249243,,1.6206691085772442,,
,6036.0,1349.0,3689.0,1284.0,1399.0,3232.0,1805.0,,,,0.0888529011659528,-0.955207425615579,0.265395245933752,,1.3469663382764396,,
,6037.0,1349.0,3691.0,1286.0,1407.0,3230.0,1819.0,,,,0.0888517443663933,-0.955139541921924,0.265493647808056,,1.0774487559606902,,
,6038.0,1349.0,3691.0,1286.0,1433.0,3221.0,1815.0,,,,0.0888545506110938,-0.954764632970549,0.265445350061741,,0.8167438174360945,,
,6037.0,1352.0,3690.0,1285.0,1420.0,3228.0,1804.0,,,,0.0888497952441041,-0.955050255037045,0.265583810975648,,0.5682019624235339,,
,6034.0,1349.0,3687.0,1284.0,1419.0,3221.0,1810.0,,,,0.0888421889647212,-0.955347106823627,0.265150454318912,,0.3339368441186089,,
,6033.0,1349.0,3686.0,1287.0,1413.0,3225.0,1788.0,,,,0.0888378613603704,-0.955343344479257,0.264844691665324,,0.11495664930169341,,
,6037.0,1349.0,3688.0,1285.0,1430.0,3222.0,1791.0,,,,0.0888350322409892,-0.956512068160737,0.26459311378038,,-0.08863694527699228,,
,6035.0,1350.0,3689.0,1285.0,1424.0,3226.0,1779.0,,,,0.0888420416484363,-0.956633133998994,0.264464577870978,,-0.2774096208175872,,
,6036.0,1347.0,3686.0,1283.0,1424.0,3225.0,1780.0,,,,0.0888346668230558,-0.95700403909394,0.26401765923209,,-0.45234354526871906,,
,6035.0,1347.0,3686.0,1284.0,1419.0,3232.0,1778.0,,,,0.088833874340044,-0.957368373760355,0.263684007198549,,-0.6146014742783321,,
,6037.0,1347.0,3685.0,1286.0,1419.0,3229.0,1791.0,,,,0.088825633439743,-0.957635500124808,0.263739653537096,,-0.7653282915611127,,
,6035.0,1350.0,3687.0,1284.0,1418.0,3229.0,1784.0,,,,0.0888253183535629,-0.957641638544332,0.263345836013393,,-0.9055063553094531,,
,6034.0,1349.0,3685.0,1286.0,1421.0,3224.0,1805.0,,,,0.0888246168650723,-0.957930104315484,0.263188465193221,,-1.0358736116637537,,
,6035.0,1346.0,3685.0,1284.0,1441.0,3229.0,1780.0,,,,0.0888200794438289,-0.958663750648918,0.262952177043858,,-1.1569052879844561,,
,6035.0,1351.0,3684.0,1285.0,1431.0,3225.0,1798.0,,,,0.0888174204622273,-0.95866309001662,0.263123165764067,,-1.2688518517244385,,
,6032.0,1349.0,3683.0,1283.0,1437.0,3233.0,1792.0,,,,0.0888218259785972,-0.958502815571852,0.262949211061375,,-1.371818954041815,,
,6032.0,1346.0,3683.0,1281.0,1424.0,3237.0,1793.0,,,,0.0888170710330109,-0.958737194978762,0.263082611381119,,-1.4658705201915336,,
,6033.0,1347.0,3683.0,1283.0,1414.0,3240.0,1776.0,,,,0.0888177136539,-0.958158668443652,0.263224998778091,,-1.5511347286701835,,
,6031.0,1346.0,3681.0,1283.0,1412.0,3242.0,1782.0,,,,0.0888197574516864,-0.958386808843539,0.263282122139255,,-1.6278941856825186,,
,6033.0,1348.0,3682.0,1284.0,1419.0,3234.0,1787.0,,,,0.0888190803060585,-0.95853703497371,0.263933803054927,,-1.696645392411609,,
,6029.0,1348.0,3681.0,1281.0,1421.0,3246.0,1774.0,,,,0.0888209479597291,-0.958180712326258,0.263772140146207,,-1.758117765851228,,
,6030.0,1347.0,3677.0,1281.0,1405.0,3242.0,1798.0,,,,0.0888302226151966,-0.957095057504483,0.264021389640753,,-1.8132483083283137,,
,6030.0,1344.0,3679.0,1282.0,1418.0,3252.0,1816.0,,,,0.0888345805394543,-0.956944494845901,0.264294200866213,,-1.8631139310554217,,
,6030.0,1345.0,3679.0,1281.0,1411.0,3249.0,1811.0,,,,0.0888380231804227,-0.95646196183549,0.26428521976307,,-1.9088288404533196,,
,6028.0,1347.0,3677.0,1282.0,1403.0,3238.0,1800.0,,,,0.0888389288203276,-0.956652185169121,0.264698686031582,,-1.9514187572987247,,
,6029.0,1343.0,3676.0,1278.0,1415.0,3230.0,1782.0,,,,0.0888384223330833,-0.956290139901058,0.264906841046416,,-1.991686684279206,,
,6029.0,1346.0,3679.0,1280.0,1431.0,3223.0,1796.0,,,,0.0888424951060623,-0.956219240651549,0.265005419938234,,-2.0300862794997037,,
,6028.0,1344.0,3679.0,1282.0,1417.0,3236.0,1789.0,,,,0.0888484799259585,-0.955639909640245,0.265088272977496,,-2.0666185372060277,,
,6031.0,1345.0,3676.0,1283.0,1425.0,3238.0,1792.0,,,,0.0888513659101865,-0.955786350729396,0.264919704855476,,-2.1007653536663002,,
,6027.0,1343.0,3676.0,1283.0,1442.0,3244.0,1791.0,,,,0.0888495918886679,-0.955899255603308,0.265312872020062,,-2.1314696713926056,,
,6030.0,1345.0,3675.0,1281.0,1429.0,3236.0,1794.0,,,,0.088851618064005,-0.95605089160178,0.265373935389766,,-2.1571664890948754,,
,6031.0,1345.0,3678.0,1283.0,1414.0,3235.0,1775.0,,,,0.0888490374428048,-0.95614529768941,0.264655515614164,,-2.175862773701738,,
,6032.0,1343.0,3675.0,1281.0,1415.0,3235.0,1783.0,,,,0.0888514735397649,-0.955827379017725,0.264996870773914,,-2.185258304637879,,
,6030.0,1344.0,3674.0,1280.0,1421.0,3227.0,1787.0,,,,0.0888468423456265,-0.956282935840366,0.265042575958465,,-2.18289478446393,,
,6031.0,1341.0,3676.0,1280.0,1421.0,3226.0,1787.0,,,,0.0888509506425372,-0.956169153242381,0.264818023114175,,-2.166317695112669,,
,6034.0,1346.0,3677.0,1283.0,1409.0,3241.0,1789.0,,,,0.0888459765233371,-0.956076674391511,0.265208380273663,,-2.133234330812229,,
,6034.0,1347.0,3676.0,1281.0,1399.0,3229.0,1797.0,,,,0.0888481088368635,-0.95627916187453,0.264814312753275,,-2.081652010407586,,
,6032.0,1343.0,3675.0,1282.0,1423.0,3251.0,1782.0,,,,0.0888438215834025,-0.956028444128209,0.26463929093998,,-2.0099826602679878,,
,6032.0,1345.0,3674.0,1281.0,1419.0,3248.0,1789.0,,,,0.0888470036358869,-0.95638428918204,0.264926554311046,,-1.9171038737971944,,
,6034.0,1346.0,3675.0,1282.0,1412.0,3232.0,1765.0,,,,0.0888520521122852,-0.956479073843583,0.264750785001671,,-1.8023720832423795,,
,6037.0,1348.0,3679.0,1283.0,1414.0,3233.0,1757.0,,,,0.088836929664783,-0.956723436832128,0.264523426100759,,-1.6655900848966472,,
,6036.0,1345.0,3674.0,1282.0,1413.0,3229.0,1806.0,,,,0.0888389183268594,-0.956746207034092,0.264554761989324,,-1.5069379676708652,,
,6037.0,1345.0,3678.0,1282.0,1409.0,3242.0,1799.0,,,,0.0888370180826851,-0.956707049857756,0.264289519004231,,-1.326882494752671,,
,6037.0,1345.0,3678.0,1283.0,1407.0,3218.0,1782.0,,,,0.0888377046794964,-0.957228609902215,0.264446647850789,,-1.126084127530326,,
,6039.0,1346.0,3677.0,1284.0,1399.0,3218.0,1785.0,,,,0.0888342792813532,-0.957299364970133,0.264337450663357,,-0.9053221915075164,,
,6039.0,1345.0,3677.0,1282.0,1431.0,3246.0,1803.0,,,,0.0888412008369012,-0.956935079817318,0.264395973440288,,-0.665456534447513,,
,6039.0,1345.0,3678.0,1283.0,1415.0,3250.0,1795.0,,,,0.0888395256805612,-0.956751042462828,0.263909306752296,,-0.40743839681783045,,
,6041.0,1347.0,3679.0,1284.0,1417.0,3239.0,1800.0,,,,0.0888353737002263,-0.957020231346981,0.264116271410114,,-0.13237484672876282,,
,6042.0,1348.0,3680.0,1285.0,1425.0,3230.0,1798.0,,,,0.0888380401844898,-0.957289317341615,0.264027495345825,,0.15835851308373983,,
,6040.0,1348.0,3679.0,1286.0,1419.0,3227.0,1788.0,,,,0.0888369066459692,-0.957114123679145,0.263914754127177,,0.4629709680369828,,
,6044.0,1347.0,3676.0,1282.0,1418.0,3238.0,1794.0,,,,0.0888432930983345,-0.957467947434874,0.264260618810166,,0.7790976696946498,,
,6047.0,1350.0,3679.0,1288.0,1430.0,3227.0,1790.0,,,,0.0888403425200426,-0.957146071304348,0.263900160950418,,1.1036536737229177,,
,6045.0,1348.0,3680.0,1284.0,1432.0,3236.0,1797.0,,,,0.0888392474913058,-0.95715229156576,0.264329402857716,,1.4327274586515815,,
,6049.0,1348.0,3681.0,1283.0,1429.0,3241.0,1804.0,,,,0.0888463234056771,-0.957191808834564,0.264538509787109,,1.7615381876515828,,
,6046.0,1348.0,3680.0,1285.0,1412.0,3234.0,1797.0,,,,0.088844854835025,-0.957042648978885,0.264411416547875,,2.08447590404592,,
,6049.0,1348.0,3678.0,1285.0,1432.0,3252.0,1797.0,,,,0.0888472923352147,-0.956885345070835,0.264777669303408,,2.395236117719759,,
,6049.0,1348.0,3679.0,1285.0,1422.0,3249.0,1801.0,,,,0.0888441375691241,-0.956660028018499,0.264587100808206,,2.6870503445586933,,
,6049.0,1349.0,3681.0,1287.0,1425.0,3239.0,1789.0,,,,0.0888531157856666,-0.956564062143814,0.264322936811762,,2.953002955916496,,
,6049.0,1346.0,3679.0,1284.0,1420.0,3234.0,1778.0,,,,0.0888519385286153,-0.956142190922822,0.264767308546865,,3.1864133143691014,,
,6051.0,1350.0,3682.0,1286.0,1413.0,3236.0,1794.0,,,,0.0888521060582684,-0.956250215147837,0.264939823937186,,3.381251893714704,,
,6053.0,1349.0,3681.0,1287.0,1406.0,3241.0,1793.0,,,,0.0888535721952755,-0.956130650848854,0.264985028718546,,3.532551266370608,,
,6053.0,1350.0,3683.0,1286.0,1430.0,3242.0,1782.0,,,,0.0888511332455307,-0.956128701120841,0.26524280749491,,3.6367689229319815,,
,6055.0,1349.0,3682.0,1288.0,1418.0,3236.0,1776.0,,,,0.0888477593818684,-0.955837233608273,0.265421374370032,,3.692060208717842,,
,6057.0,1350.0,3684.0,1289.0,1420.0,3232.0,1781.0,,,,0.0888509473198813,-0.95521218873366,0.265691740410152,,3.6984270157308985,,
,6056.0,1351.0,3685.0,1287.0,1399.0,3232.0,1806.0,,,,0.0888531293094828,-0.954718053252533,0.265693828938568,,3.6577209032990132,,
,6057.0,1352.0,3682.0,1286.0,1409.0,3233.0,1802.0,,,,0.0888557744774276,-0.9548531081461,0.266038807595281,,3.573496255933339,,
,6058.0,1350.0,3683.0,1288.0,1419.0,3232.0,1800.0,,,,0.0888585866176792,-0.955009670609101,0.265993157037177,,3.450727133360095,,
,6056.0,1350.0,3680.0,1289.0,1413.0,3231.0,1802.0,,,,0.0888576243443116,-0.954883575564727,0.265786036181972,,3.2954177012472328,,
,6059.0,1352.0,3686.0,1289.0,1421.0,3229.0,1786.0,,,,0.0888563194844417,-0.95497110625397,0.266206563959188,,3.11414816394982,,
,6060.0,1352.0,3685.0,1289.0,1424.0,3239.0,1785.0,,,,0.0888614647726159,-0.954810818960866,0.266236485282616,,2.9136043534294593,,
,6061.0,1351.0,3682.0,1288.0,1431.0,3231.0,1796.0,,,,0.0888593787271118,-0.954672068692159,0.265942770256675,,2.7001388815134613,,
,6062.0,1352.0,3684.0,1288.0,1418.0,3247.0,1775.0,,,,0.0888595262951899,-0.954167510345214,0.266306285490593,,2.479405395154954,,
,6064.0,1353.0,3684.0,1288.0,1411.0,3243.0,1790.0,,,,0.0888660082622505,-0.954115203035406,0.265978020148976,,2.2560962844126804,,
,6064.0,1353.0,3685.0,1290.0,1409.0,3248.0,1792.0,,,,0.0888676677939885,-0.953940855100541,0.266299977680124,,2.033800029665108,,
,6066.0,1353.0,3685.0,1289.0,1419.0,3230.0,1776.0,,,,0.0888674570065441,-0.954047795594003,0.266100754019657,,1.8149792152448545,,
,6065.0,1351.0,3686.0,1290.0,1414.0,3226.0,1786.0,,,,0.0888705842940976,-0.953908282633525,0.266843831138794,,1.601055997075038,,
,6066.0,1353.0,3687.0,1291.0,1413.0,3228.0,1799.0,,,,0.0888732465475825,-0.953902430997838,0.266580174509119,,1.3925803330817457,,
,6069.0,1353.0,3688.0,1291.0,1421.0,3230.0,1788.0,,,,0.0888698050819148,-0.953975905899001,0.26719810971987,,1.1894491922638635,,
,6070.0,1353.0,3688.0,1289.0,1398.0,3246.0,1798.0,,,,0.088876422266889,-0.953695629637393,0.266951155807392,,0.9911432643837298,,
,6070.0,1353.0,3687.0,1288.0,1406.0,3228.0,1790.0,,,,0.0888746260364134,-0.953358301053221,0.266959647191868,,0.7969513491364738,,
,6072.0,1356.0,3691.0,1292.0,1412.0,3236.0,1799.0,,,,0.088877806222987,-0.95342422259634,0.266893342915645,,0.606160311401257,,
,6074.0,1355.0,3688.0,1293.0,1426.0,3237.0,1782.0,,,,0.088879996925686,-0.953338460795035,0.267394436757188,,0.41819801335772844,,
,6074.0,1355.0,3690.0,1291.0,1426.0,3234.0,1785.0,,,,0.0888798325903526,-0.953145097140421,0.267052317884638,,0.23272564377545465,,
,6073.0,1354.0,3688.0,1290.0,1421.0,3240.0,1793.0,,,,0.0888849368722964,-0.953059237861306,0.267226512294951,,0.04968282613188783,,
,6069.0,1353.0,3688.0,1289.0,1413.0,3229.0,1789.0,,,,0.0888859620441364,-0.952839315846917,0.267637426197978,,-0.1307066302755453,,
,6068.0,1354.0,3686.0,1291.0,1435.0,3234.0,1784.0,,,,0.0888847046865152,-0.953205286906052,0.26747776749398,,-0.30795817606072234,,
,6066.0,1352.0,3685.0,1290.0,1437.0,3227.0,1785.0,,,,0.088881846481657,-0.952794494253199,0.267807662291207,,-0.4813684375762229,,
,6063.0,1351.0,3683.0,1287.0,1426.0,3224.0,1776.0,,,,0.0888847919591662,-0.952059986582122,0.2679181077874,,-0.6500656977266669,,
,6060.0,1354.0,3682.0,1288.0,1438.0,3251.0,1800.0,,,,0.0888853006488945,-0.952149505706204,0.267698608839517,,-0.8130609743470005,,
,6058.0,1347.0,3679.0,1284.0,1435.0,3268.0,1799.0,,,,0.0888851004295147,-0.951648356835001,0.267903640382887,,-0.9692944280652879,,
,6052.0,1349.0,3676.0,1285.0,1430.0,3261.0,1785.0,,,,0.088882268822681,-0.951864919598615,0.267751099422591,,-1.1176748246671337,,
,6049.0,1346.0,3675.0,1282.0,1414.0,3247.0,1791.0,,,,0.0888827365506781,-0.952190423139473,0.267961353978843,,-1.2571125787989665,,
,6046.0,1349.0,3676.0,1281.0,1426.0,3268.0,1816.0,,,,0.0888817276705553,-0.952778230852685,0.268027829340599,,-1.3865491007706507,,
,6046.0,1346.0,3671.0,1282.0,1419.0,3251.0,1809.0,,,,0.0888859836529589,-0.952008780694144,0.267765111784279,,-1.5049864278583185,,
,6045.0,1347.0,3670.0,1281.0,1421.0,3242.0,1809.0,,,,0.0888838390765595,-0.952354659178165,0.267851623154613,,-1.6115211897275115,,
,6042.0,1343.0,3668.0,1277.0,1432.0,3240.0,1803.0,,,,0.088884774568434,-0.951863520648171,0.26819878404541,,-1.705385678002385,,
,6037.0,1341.0,3665.0,1277.0,1421.0,3219.0,1831.0,,,,0.0888884743587474,-0.95221924586558,0.268235562336076,,-1.785996278123312,,
,6037.0,1344.0,3668.0,1277.0,1431.0,3231.0,1800.0,,,,0.0888897239012436,-0.951252514179608,0.268378194020954,,-1.8530063936370427,,
,6036.0,1342.0,3669.0,1278.0,1428.0,3239.0,1778.0,,,,0.0888930235248787,-0.951218272397711,0.268119022602451,,-1.9063582660994933,,
,6032.0,1341.0,3664.0,1276.0,1425.0,3234.0,1795.0,,,,0.0888909282609816,-0.951717820725375,0.268448598550374,,-1.9463266289885968,,
,6033.0,1341.0,3666.0,1274.0,1426.0,3240.0,1779.0,,,,0.0888934074636365,-0.951344271126383,0.268790952453973,,-1.9735471617102172,,
,6032.0,1342.0,3663.0,1277.0,1431.0,3251.0,1798.0,,,,0.0888966104453353,-0.950993473563925,0.26862572844234,,-1.9890239356296209,,
,6032.0,1340.0,3663.0,1280.0,1435.0,3253.0,1791.0,,,,0.0888912968315005,-0.950868450230504,0.268684666948917,,-1.9941120705335924,,
,6030.0,1343.0,3660.0,1276.0,1425.0,3253.0,1798.0,,,,0.0888954672218827,-0.951001420580938,0.268908854527736,,-1.9904743536697351,,
,6032.0,1339.0,3661.0,1273.0,1409.0,3234.0,1794.0,,,,0.0888976865648796,-0.950327268768447,0.269251120924803,,-1.9800133583895776,,
,6030.0,1343.0,3663.0,1277.0,1407.0,3255.0,1778.0,,,,0.0888984289527086,-0.950328628812852,0.269152147969274,,-1.9647833379037825,,
,6030.0,1342.0,3658.0,1276.0,1406.0,3252.0,1787.0,,,,0.088897385413532,-0.951015033947301,0.269238692373073,,-1.9468885508389557,,
,6031.0,1343.0,3659.0,1275.0,1412.0,3251.0,1807.0,,,,0.0888958895617454,-0.950918152343114,0.268649235660818,,-1.928376419212284,,
,6030.0,1340.0,3657.0,1277.0,1412.0,3250.0,1812.0,,,,0.0888879316089269,-0.951743093663774,0.268387813025297,,-1.9111347696081071,,
,6032.0,1341.0,3657.0,1275.0,1419.0,3250.0,1809.0,,,,0.0888862844753531,-0.952019541441044,0.268130537256224,,-1.8968021384929925,,
,6029.0,1342.0,3659.0,1275.0,1420.0,3239.0,1785.0,,,,0.088882954238769,-0.952117722641807,0.267595824253497,,-1.8866986147577087,,
,6027.0,1342.0,3660.0,1274.0,1432.0,3240.0,1791.0,,,,0.0888828629310935,-0.953020245220342,0.267604844148489,,-1.8817820141482704,,
,6028.0,1338.0,3656.0,1274.0,1418.0,3240.0,1792.0,,,,0.0888743544194912,-0.953123942004675,0.267391459704571,,-1.8826305924339208,,
,6029.0,1342.0,3657.0,1273.0,1421.0,3242.0,1810.0,,,,0.0888697786694382,-0.953844634735666,0.266978352186694,,-1.8894494832628768,,
,6028.0,1343.0,3658.0,1276.0,1410.0,3244.0,1803.0,,,,0.0888659644704166,-0.954422062380462,0.26647832382855,,-1.9020943725984174,,
,6027.0,1340.0,3655.0,1274.0,1406.0,3253.0,1801.0,,,,0.0888627104984046,-0.955004201877782,0.265875422923937,,-1.9201036124356112,,
,6028.0,1336.0,3656.0,1274.0,1427.0,3241.0,1812.0,,,,0.0888622025773468,-0.955730168598587,0.265858761721269,,-1.94272984181415,,
,6028.0,1340.0,3655.0,1274.0,1437.0,3227.0,1807.0,,,,0.0888592414560755,-0.955715004993677,0.265596600189628,,-1.968964282899825,,
,6029.0,1339.0,3653.0,1273.0,1432.0,3226.0,1799.0,,,,0.0888550031378832,-0.956089027690786,0.265697650987272,,-1.9975504651234435,,
,6028.0,1340.0,3654.0,1272.0,1439.0,3225.0,1797.0,,,,0.0888568077122178,-0.955655123276259,0.265632834567283,,-2.0269881304149435,,
2025-08-20 20:57:28,6027.0,1337.0,3654.0,1273.0,1433.0,3232.0,1795.0,,,2025/08/20 08:57:28 PM,0.0888584604104715,-0.95569384431084,0.265665986250162,,-2.0555315954219697,,
,6028.0,1338.0,3654.0,1274.0,1438.0,3249.0,1783.0,,,,0.0888614920125034,-0.954951416142738,0.265849574682566,,-2.081189309061244,,
,6026.0,1339.0,3652.0,1274.0,1432.0,3260.0,1794.0,,,,0.0888652714565249,-0.954834135999678,0.266190775970467,,-2.1017323817207285,,
,6025.0,1339.0,3652.0,1270.0,1426.0,3256.0,1794.0,,,,0.0888673312623638,-0.954357403473308,0.266760825745775,,-2.1147193168629626,,
,6022.0,1338.0,3653.0,1270.0,1422.0,3239.0,1783.0,,,,0.0888704029271217,-0.953941449733158,0.266816670643922,,-2.117542170214669,,
,6025.0,1338.0,3653.0,1271.0,1424.0,3226.0,1790.0,,,,0.0888755158965661,-0.953696400284341,0.266964533427977,,-2.1074962952593475,,
,6028.0,1339.0,3651.0,1273.0,1421.0,3236.0,1789.0,,,,0.0888798343907551,-0.953236450220037,0.267460316542467,,-2.081872249292298,,
,6023.0,1339.0,3649.0,1271.0,1420.0,3232.0,1787.0,,,,0.0888761813531465,-0.952881319358607,0.267569324092119,,-2.0380648806438377,,
,6023.0,1336.0,3647.0,1271.0,1406.0,3256.0,1793.0,,,,0.0888812442903594,-0.952520583301634,0.267777664905031,,-1.973691566213148,,
,6023.0,1337.0,3647.0,1270.0,1418.0,3239.0,1787.0,,,,0.0888846003281899,-0.95245186043168,0.268110375059243,,-1.8867093752011297,,
,6025.0,1338.0,3650.0,1273.0,1426.0,3235.0,1802.0,,,,0.0888858421875476,-0.952418510584219,0.268033169547139,,-1.77551989241317,,
,6023.0,1337.0,3647.0,1270.0,1423.0,3232.0,1807.0,,,,0.0888815343869326,-0.952191919405807,0.267904060994171,,-1.639050911334542,,
,6025.0,1336.0,3648.0,1271.0,1413.0,3253.0,1800.0,,,,0.0888863297897981,-0.952599117281698,0.267921782527289,,-1.476806650795655,,
,6021.0,1338.0,3647.0,1272.0,1411.0,3236.0,1773.0,,,,0.0888853977505676,-0.952370718346191,0.267822746811345,,-1.288882717412726,,
,6022.0,1337.0,3647.0,1272.0,1422.0,3236.0,1788.0,,,,0.0888870591175996,-0.952403224926593,0.267800472656979,,-1.075948073054453,,
,6022.0,1337.0,3646.0,1272.0,1423.0,3240.0,1784.0,,,,0.0888814656331896,-0.952042615493276,0.267931770690433,,-0.8392022276576881,,
,6024.0,1339.0,3647.0,1270.0,1411.0,3245.0,1773.0,,,,0.0888836310011581,-0.952049778997085,0.268021604731552,,-0.5803199698141941,,
,6025.0,1337.0,3646.0,1270.0,1417.0,3234.0,1790.0,,,,0.0888819853751888,-0.951891533823382,0.267912001731283,,-0.3013969922216345,,
,6026.0,1337.0,3648.0,1272.0,1416.0,3242.0,1797.0,,,,0.0888811213378515,-0.952038871808651,0.267807032626902,,-0.004907611725610734,,
,6025.0,1338.0,3649.0,1272.0,1411.0,3251.0,1787.0,,,,0.0888848711033436,-0.952187354998947,0.267960695200358,,0.30631886955086124,,
,6026.0,1337.0,3647.0,1274.0,1412.0,3247.0,1800.0,,,,0.0888868317160169,-0.952668312068701,0.267751661279596,,0.6291025687311956,,
,6026.0,1337.0,3647.0,1268.0,1410.0,3229.0,1794.0,,,,0.0888875693263407,-0.952470324473419,0.267989424341603,,0.9599034864122122,,
,6028.0,1338.0,3647.0,1269.0,1407.0,3225.0,1793.0,,,,0.0888836564935651,-0.952203522078473,0.268027516358804,,1.2948079206705327,,
,6028.0,1337.0,3644.0,1272.0,1427.0,3239.0,1795.0,,,,0.0888863608657325,-0.951962436131041,0.26787095549754,,1.629523254692665,,
,6029.0,1339.0,3648.0,1272.0,1437.0,3247.0,1796.0,,,,0.0888881978757765,-0.952014847173898,0.268210745712126,,1.959393839769605,,
,6029.0,1337.0,3646.0,1269.0,1430.0,3254.0,1767.0,,,,0.0888882105244198,-0.952015408972328,0.267768902786813,,2.2794490650974857,,
,6029.0,1337.0,3648.0,1272.0,1417.0,3233.0,1766.0,,,,0.0888809426436191,-0.952173221010142,0.26788553300693,,2.5844916710247556,,
,6032.0,1338.0,3650.0,1273.0,1409.0,3239.0,1797.0,,,,0.0888837951658406,-0.952012040424228,0.267659883295776,,2.8692303494926685,,
,6031.0,1339.0,3647.0,1274.0,1419.0,3243.0,1785.0,,,,0.0888815238266754,-0.95197246325675,0.267876294236812,,3.128455771633695,,
,6031.0,1338.0,3645.0,1272.0,1436.0,3236.0,1796.0,,,,0.0888799380505499,-0.952129203000816,0.26772757278047,,3.3572532638594357,,
,6032.0,1338.0,3647.0,1271.0,1413.0,3229.0,1755.0,,,,0.0888867004997839,-0.951970574267173,0.267965412614415,,3.5512386573986543,,
,6034.0,1340.0,3649.0,1272.0,1436.0,3228.0,1781.0,,,,0.0888863389915946,-0.95207546717465,0.267663794630009,,3.7067974274798527,,
,6032.0,1339.0,3649.0,1272.0,1438.0,3239.0,1790.0,,,,0.0888807156617648,-0.952551456347234,0.267466624121912,,3.8213028103374582,,
,6033.0,1340.0,3647.0,1273.0,1425.0,3238.0,1807.0,,,,0.0888824399870995,-0.952427997339185,0.267855758047195,,3.8932877199983595,,
,6033.0,1337.0,3645.0,1270.0,1423.0,3231.0,1808.0,,,,0.0888839685037107,-0.953090392247648,0.267480917913649,,3.9225487103215197,,
,6036.0,1339.0,3645.0,1272.0,1416.0,3233.0,1805.0,,,,0.0888868151022181,-0.952997416814631,0.267824745973868,,3.9101674821028616,,
,6038.0,1342.0,3650.0,1275.0,1422.0,3232.0,1806.0,,,,0.0888837049904902,-0.952997449289787,0.268067489623184,,3.858445054659759,,
,6034.0,1339.0,3646.0,1274.0,1410.0,3230.0,1802.0,,,,0.0888849980145692,-0.952603095697513,0.267895476391319,,3.77075375504613,,
,6039.0,1337.0,3647.0,1273.0,1422.0,3233.0,1813.0,,,,0.0888901449921478,-0.952621413516074,0.268017080462821,,3.6513207907747907,,
,6039.0,1341.0,3650.0,1273.0,1426.0,3234.0,1788.0,,,,0.088885155603885,-0.952754198619638,0.268023869747145,,3.5049631518011783,,
,6043.0,1342.0,3650.0,1275.0,1424.0,3230.0,1794.0,,,,0.0888908145056232,-0.952907820685044,0.26803111001118,,3.3367966084792813,,
,6041.0,1345.0,3650.0,1275.0,1417.0,3241.0,1794.0,,,,0.0888929985104558,-0.952285384455142,0.26809602996049,,3.151942081482304,,
,6041.0,1340.0,3651.0,1275.0,1426.0,3242.0,1768.0,,,,0.0888856941944799,-0.952244171762492,0.268155186667525,,2.9552514470221296,,
,6043.0,1343.0,3651.0,1274.0,1419.0,3240.0,1771.0,,,,0.0888870495523877,-0.952130388626057,0.268351274420846,,2.751072511451034,,
,6044.0,1344.0,3651.0,1275.0,1431.0,3250.0,1770.0,,,,0.0888914936718097,-0.952291909669559,0.268486682917398,,2.5430695067817646,,
,6041.0,1341.0,3649.0,1274.0,1433.0,3247.0,1780.0,,,,0.0888936045359535,-0.952173655902374,0.268259709006089,,2.3341106694414075,,
,6042.0,1341.0,3648.0,1274.0,1431.0,3228.0,1777.0,,,,0.0888967995260404,-0.952166148175989,0.268368833836693,,2.1262281397451175,,
,6046.0,1343.0,3649.0,1276.0,1423.0,3237.0,1776.0,,,,0.0888958322877178,-0.952119656325787,0.268211937075639,,1.9206481950221908,,
,6045.0,1341.0,3651.0,1274.0,1430.0,3228.0,1783.0,,,,0.0888943895124353,-0.951834811164839,0.268162139922712,,1.71788293701723,,
,6049.0,1344.0,3653.0,1275.0,1426.0,3236.0,1801.0,,,,0.0888948282388415,-0.951950319517626,0.268368248180221,,1.5178691803131783,,
,6045.0,1342.0,3653.0,1274.0,1418.0,3256.0,1795.0,,,,0.0888888770753088,-0.95145897581356,0.268370861591014,,1.3201371130650073,,
,6051.0,1344.0,3654.0,1278.0,1425.0,3235.0,1778.0,,,,0.0888904056288055,-0.95139049230226,0.268772925214484,,1.123990453378509,,
,6049.0,1343.0,3652.0,1277.0,1423.0,3231.0,1771.0,,,,0.0888901032665394,-0.951320963166477,0.268581253280785,,0.9286810378872961,,
,6051.0,1344.0,3654.0,1277.0,1422.0,3230.0,1785.0,,,,0.0888911527385588,-0.950719191687021,0.268656131184046,,0.733563520458676,,
,6052.0,1342.0,3655.0,1274.0,1426.0,3254.0,1803.0,,,,0.0888904358277227,-0.951179492323201,0.268856643740032,,0.5382194398657514,,
,6053.0,1342.0,3652.0,1276.0,1426.0,3241.0,1785.0,,,,0.0888921052236857,-0.951224630241231,0.268527739126487,,0.3425436951716369,,
,6052.0,1342.0,3653.0,1275.0,1418.0,3219.0,1797.0,,,,0.0888920961471347,-0.95085756905489,0.268506721920198,,0.14679008582953273,,
,6054.0,1342.0,3655.0,1277.0,1404.0,3223.0,1788.0,,,,0.0888875104054161,-0.950968489083236,0.268845367615505,,-0.0484239832828691,,
,6051.0,1344.0,3654.0,1277.0,1418.0,3221.0,1779.0,,,,0.0888882566893584,-0.950735167319257,0.26871128056368,,-0.24215009325042747,,
,6055.0,1346.0,3654.0,1278.0,1419.0,3232.0,1806.0,,,,0.0888913158065315,-0.951290009177926,0.268417283120749,,-0.43317170529691296,,
,6055.0,1344.0,3655.0,1278.0,1416.0,3235.0,1782.0,,,,0.0888908872261063,-0.950998595984006,0.268670581517058,,-0.6200873449754605,,
,6059.0,1347.0,3654.0,1279.0,1419.0,3243.0,1768.0,,,,0.088890500146292,-0.950661046732487,0.268701352076159,,-0.8014023476643095,,
,6057.0,1346.0,3657.0,1276.0,1424.0,3234.0,1780.0,,,,0.0888957104750983,-0.951279753196309,0.268636188611419,,-0.9756177227144445,,
,6059.0,1344.0,3654.0,1277.0,1425.0,3240.0,1787.0,,,,0.0888962598060197,-0.950690554585077,0.268815907483607,,-1.1413069526286639,,
,6060.0,1347.0,3657.0,1279.0,1417.0,3242.0,1767.0,,,,0.0888942656853742,-0.950707470260233,0.268730279934153,,-1.2971750684792607,,
,6061.0,1346.0,3658.0,1279.0,1419.0,3244.0,1769.0,,,,0.0888974404167809,-0.950406858092085,0.269133589809935,,-1.4420982293548763,,
,6063.0,1348.0,3659.0,1279.0,1433.0,3228.0,1786.0,,,,0.0888951595772075,-0.95059749013494,0.269119619681681,,-1.5751455550010895,,
,6062.0,1346.0,3659.0,1279.0,1423.0,3223.0,1764.0,,,,0.0888987017944395,-0.950638656207369,0.269018772222047,,-1.6955876367480136,,
,6065.0,1347.0,3658.0,1281.0,1440.0,3225.0,1775.0,,,,0.0889023760634212,-0.950118084547732,0.269001103003649,,-1.8028976692787892,,
,6068.0,1350.0,3660.0,1282.0,1444.0,3229.0,1783.0,,,,0.0889047794596479,-0.950216247762397,0.269196096276448,,-1.896751341421487,,
,6067.0,1349.0,3661.0,1281.0,1436.0,3246.0,1808.0,,,,0.0889052707746677,-0.950318322668428,0.269177761784591,,-1.9770305736082006,,
,6067.0,1349.0,3660.0,1283.0,1425.0,3247.0,1793.0,,,,0.0889075246739054,-0.950256555500001,0.269487542846267,,-2.043834233882579,,
,6071.0,1350.0,3663.0,1281.0,1415.0,3247.0,1778.0,,,,0.0889069741859504,-0.95032594819017,0.269098398468516,,-2.0974965425328524,,
,6073.0,1351.0,3665.0,1283.0,1415.0,3226.0,1780.0,,,,0.0889084364015605,-0.950275974482323,0.269170080285348,,-2.1386113027222966,,
,6074.0,1351.0,3665.0,1282.0,1409.0,3244.0,1785.0,,,,0.0889097703850704,-0.95061717786968,0.26957199927348,,-2.168057515532728,,
,6070.0,1348.0,3663.0,1281.0,1425.0,3259.0,1771.0,,,,0.0889086586759223,-0.95020209304273,0.269331352619293,,-2.187019517390745,,
,6072.0,1350.0,3663.0,1281.0,1427.0,3235.0,1787.0,,,,0.08890620578917,-0.950005735703653,0.269330232409108,,-2.196992967439022,,
,6072.0,1350.0,3664.0,1282.0,1433.0,3232.0,1809.0,,,,0.0889048627815049,-0.94996285691063,0.269114581985579,,-2.1997675626279816,,
,6068.0,1349.0,3662.0,1281.0,1435.0,3222.0,1817.0,,,,0.0889064987923348,-0.949950858318706,0.269394287515526,,-2.197378893160474,,
,6068.0,1348.0,3662.0,1277.0,1433.0,3222.0,1801.0,,,,0.088904592782759,-0.949790815622716,0.26936686647777,,-2.192025355197733,,
,6065.0,1349.0,3662.0,1280.0,1429.0,3225.0,1791.0,,,,0.0889062652143863,-0.949901161882548,0.269390511922359,,-2.185950799580022,,
,6062.0,1349.0,3659.0,1279.0,1443.0,3232.0,1786.0,,,,0.0889042415540028,-0.949675708695385,0.269658408736073,,-2.181298616109609,,
,6061.0,1345.0,3658.0,1276.0,1439.0,3237.0,1789.0,,,,0.0889056841088328,-0.949245510462911,0.269489422003411,,-2.1799473767724042,,
,6054.0,1343.0,3653.0,1274.0,1438.0,3235.0,1791.0,,,,0.0889071321550338,-0.949292061255832,0.269879190419842,,-2.183341440895003,,
,6051.0,1343.0,3651.0,1271.0,1419.0,3252.0,1788.0,,,,0.0889097949551818,-0.949442048078375,0.269968463949047,,-2.1923317878436346,,
,6051.0,1342.0,3652.0,1274.0,1440.0,3242.0,1774.0,,,,0.0889060588103114,-0.949599415955332,0.269537397626727,,-2.2070427125194736,,
,6042.0,1342.0,3647.0,1271.0,1444.0,3235.0,1778.0,,,,0.0889084095832326,-0.950031986606987,0.270212347830498,,-2.22677896014614,,
,6043.0,1340.0,3646.0,1268.0,1444.0,3231.0,1799.0,,,,0.0889072061190475,-0.949430003173396,0.270271451338646,,-2.2499855347162847,,
,6042.0,1341.0,3648.0,1271.0,1449.0,3227.0,1795.0,,,,0.0889098644094079,-0.949509192117175,0.269973285087047,,-2.2742689296652205,,
,6042.0,1340.0,3647.0,1269.0,1438.0,3226.0,1777.0,,,,0.088911772085043,-0.949103547754927,0.269919461777662,,-2.296483971443303,,
,6043.0,1339.0,3645.0,1269.0,1438.0,3227.0,1787.0,,,,0.088907958736584,-0.949020091764034,0.26981861735067,,-2.312884875636225,,
,6036.0,1338.0,3642.0,1267.0,1439.0,3236.0,1784.0,,,,0.0889043178309368,-0.948940837747804,0.270066176568827,,-2.3193326491345725,,
,6037.0,1338.0,3643.0,1269.0,1423.0,3235.0,1782.0,,,,0.0889074201018023,-0.949129026079979,0.270130380645001,,-2.3115441261398475,,
,6039.0,1337.0,3644.0,1269.0,1435.0,3245.0,1786.0,,,,0.0889078831099644,-0.949500886046414,0.270097845625554,,-2.2853616888890285,,
,6035.0,1342.0,3644.0,1270.0,1436.0,3245.0,1773.0,,,,0.0889054523237533,-0.949646990659673,0.269549985790179,,-2.2370184566436078,,
,6035.0,1338.0,3641.0,1269.0,1436.0,3248.0,1784.0,,,,0.0889013795647699,-0.950231079526951,0.268984767475657,,-2.1633726950356325,,
,6037.0,1337.0,3643.0,1266.0,1430.0,3228.0,1784.0,,,,0.0888997415944282,-0.950883755369571,0.26876271957232,,-2.0620880506286605,,
,6038.0,1339.0,3643.0,1271.0,1402.0,3244.0,1798.0,,,,0.0888943414987218,-0.951185705217118,0.268728215465096,,-1.9317427727101149,,
,6037.0,1339.0,3643.0,1268.0,1403.0,3232.0,1791.0,,,,0.0888859083162164,-0.951590649024984,0.268428174819077,,-1.771860442905584,,
,6037.0,1339.0,3645.0,1267.0,1423.0,3217.0,1803.0,,,,0.0888868276875018,-0.952729621228641,0.268131366944903,,-1.5828654370616695,,
,6034.0,1337.0,3641.0,1266.0,1424.0,3240.0,1791.0,,,,0.0888831329410933,-0.953353656416232,0.267339430833579,,-1.3659765625651399,,
,6035.0,1339.0,3642.0,1268.0,1423.0,3227.0,1781.0,,,,0.0888798773630905,-0.95325802417094,0.26733712898245,,-1.12306019669336,,
,6036.0,1339.0,3641.0,1266.0,1424.0,3239.0,1797.0,,,,0.0888706418488836,-0.953081712225162,0.267197868974656,,-0.8564684557445068,,
,6034.0,1336.0,3639.0,1266.0,1426.0,3247.0,1808.0,,,,0.0888722338731857,-0.953984761465148,0.267048780833349,,-0.5688880016613146,,
,6036.0,1335.0,3640.0,1264.0,1429.0,3232.0,1792.0,,,,0.0888714340836824,-0.953855866715728,0.266898242096295,,-0.26322143705517986,,
