TimeLabel,MEAS1_PPG1,MEAS1_PPG2,MEAS1_PPG3,MEAS1_PPG4,ACCX,ACCY,ACCZ,HR_timestamp,HR_value,radar_timestamp,phase_rx0,phase_rx1,phase_rx2,timestep,n_process,original_rate,calculated_rate
2025-07-23 23:03:39,8385.0,1925.0,8541.0,3183.0,2324.0,3233.0,393.0,2025-07-23 23:03:56,99.0,2025/07/23 11:03:39 PM,-0.010636806814272,-2.02761900390565,0.08629628447555,2025/07/23 11:03:39 PM,8.045442206275188,13.65705680847168,13.58919514947884
,8384.0,1924.0,8543.0,3183.0,2307.0,3225.0,381.0,2025-07-23 23:03:57,99.0,,-0.0105926131569695,-2.02701246594898,0.0862999248927618,2025/07/23 11:03:49 PM,8.65427283497072,13.554216384887695,12.701612903225804
,8384.0,1924.0,8541.0,3181.0,2342.0,3201.0,394.0,2025-07-23 23:03:58,99.0,,-0.0102960403067461,-2.02679412044422,0.0863332740545206,2025/07/23 11:03:59 PM,9.238411001802117,13.544018745422363,11.954797779540051
,8386.0,1927.0,8541.0,3182.0,2320.0,3204.0,417.0,2025-07-23 23:03:59,99.0,,-0.0103167513691681,-2.02718449303939,0.0863494072456289,2025/07/23 11:04:09 PM,9.798711318263097,12.573344230651855,13.63636363636363
,8389.0,1928.0,8544.0,3184.0,2322.0,3199.0,410.0,2025-07-23 23:04:00,99.0,,-0.010330288696406,-2.02671884362057,0.0863591192454516,2025/07/23 11:04:19 PM,10.33484620343535,12.88475227355957,14.05864620443958
,8391.0,1930.0,8545.0,3184.0,2324.0,3189.0,392.0,2025-07-23 23:04:01,98.0,,-0.0102553886466426,-2.02652690186815,0.0863248753716814,2025/07/23 11:04:29 PM,10.844940716825503,13.196480751037598,11.741573033707862
,8389.0,1928.0,8545.0,3184.0,2305.0,3184.0,402.0,2025-07-23 23:04:02,97.0,,-0.0101557957547867,-2.02677151104917,0.0863449738218597,2025/07/23 11:04:39 PM,11.32527252785867,12.893982887268066,12.323572782810196
,8396.0,1929.0,8543.0,3184.0,2316.0,3197.0,404.0,2025-07-23 23:04:03,96.0,,-0.0102331431384366,-2.02736456761959,0.0863485130821413,2025/07/23 11:04:49 PM,11.77006975505175,12.596221923828123,12.111990261716368
,8396.0,1930.0,8547.0,3185.0,2327.0,3201.0,402.0,2025-07-23 23:04:04,95.0,,-0.0102155988217687,-2.02696124615926,0.0862865640621159,2025/07/23 11:04:59 PM,12.171439124215986,11.627906799316406,12.637179913535086
,8399.0,1932.0,8548.0,3188.0,2272.0,3197.0,415.0,2025-07-23 23:04:05,94.0,,-0.0100162741159921,-2.02738461832181,0.0862998465499785,2025/07/23 11:05:09 PM,12.51945335642752,12.437810897827148,12.371134020618571
,8401.0,1932.0,8547.0,3186.0,2267.0,3184.0,427.0,2025-07-23 23:04:06,94.0,,-0.0099388692535245,-2.02730102334313,0.0862683398691467,2025/07/23 11:05:19 PM,12.802419578908294,12.562813758850098,12.274143302180676
,8405.0,1932.0,8544.0,3183.0,2290.0,3178.0,436.0,2025-07-23 23:04:07,93.0,,-0.0097678138127417,-2.02725888316751,0.0862988798064406,2025/07/23 11:05:29 PM,13.007340018005463,12.305168151855469,13.940324908066861
,8407.0,1934.0,8546.0,3185.0,2302.0,3194.0,435.0,2025-07-23 23:04:08,93.0,,-0.0097368885235891,-2.02728229054831,0.0862550166658588,2025/07/23 11:05:39 PM,13.120562219219686,13.422819137573242,11.910377358490539
,8411.0,1934.0,8546.0,3184.0,2282.0,3199.0,426.0,2025-07-23 23:04:09,93.0,,-0.009527090296842,-2.02745359888844,0.0862273857143009,2025/07/23 11:05:49 PM,13.128598044657494,12.711864471435549,13.118279569892504
,8409.0,1934.0,8548.0,3186.0,2286.0,3202.0,411.0,2025-07-23 23:04:10,93.0,,-0.0094008624746687,-2.02743137018933,0.0862316086633004,2025/07/23 11:05:59 PM,13.019068580225799,13.167520523071287,14.371772805507707
,8412.0,1935.0,8545.0,3183.0,2304.0,3203.0,403.0,2025-07-23 23:04:11,93.0,,-0.0095285688996821,-2.02795439945349,0.0861755352722225,2025/07/23 11:06:09 PM,12.781707596186603,13.034032821655272,13.71212121212122
,8415.0,1937.0,8547.0,3186.0,2312.0,3204.0,400.0,2025-07-23 23:04:12,92.0,,-0.0095329410586077,-2.02776122773535,0.0861909126995261,2025/07/23 11:06:19 PM,12.409334070116993,13.709063529968262,13.40823970037455
,8415.0,1936.0,8546.0,3186.0,2329.0,3199.0,398.0,2025-07-23 23:04:13,92.0,,-0.0095018165819894,-2.02787044649773,0.0861802110332823,2025/07/23 11:06:29 PM,11.898691291727468,14.16048526763916,11.929824561403493
,8415.0,1936.0,8546.0,3188.0,2321.0,3195.0,402.0,2025-07-23 23:04:14,92.0,,-0.0096205679234247,-2.02807601803894,0.0861455685506233,,11.251052136741343,,
,8417.0,1935.0,8548.0,3186.0,2296.0,3190.0,403.0,2025-07-23 23:04:15,92.0,,-0.0096294419905947,-2.02825777939655,0.0861870755433684,,10.472509316846095,,
,8417.0,1937.0,8546.0,3186.0,2308.0,3201.0,414.0,2025-07-23 23:04:16,92.0,,-0.0096360700100906,-2.028528753719,0.0862177829275426,,9.573903135395613,,
,8419.0,1936.0,8548.0,3186.0,2299.0,3206.0,417.0,2025-07-23 23:04:17,92.0,,-0.0097127594550038,-2.0289780585639,0.0861875959687697,,8.570381248582658,,
,8418.0,1936.0,8547.0,3185.0,2311.0,3200.0,410.0,2025-07-23 23:04:18,91.0,,-0.0098233930410659,-2.02942503234033,0.0861837197530655,,7.480627407929647,,
,8417.0,1937.0,8547.0,3186.0,2314.0,3198.0,421.0,2025-07-23 23:04:19,91.0,,-0.0098802001904166,-2.02915186277601,0.0861845738142636,,6.325832208649733,,
,8417.0,1934.0,8545.0,3184.0,2305.0,3208.0,431.0,2025-07-23 23:04:20,90.0,,-0.0098281318251878,-2.02976856861334,0.086173332725238,,5.128504114391262,,
,8420.0,1937.0,8544.0,3186.0,2288.0,3195.0,405.0,2025-07-23 23:04:21,90.0,,-0.0100889003934694,-2.02962707133454,0.08618187088881,,3.9112318826411343,,
,8419.0,1937.0,8547.0,3185.0,2293.0,3190.0,392.0,2025-07-23 23:04:22,90.0,,-0.010025919490564,-2.02972458269497,0.0862020889186889,,2.6955098266101762,,
,8421.0,1938.0,8548.0,3184.0,2304.0,3195.0,388.0,2025-07-23 23:04:23,91.0,,-0.0100774387471808,-2.02971469202888,0.0861997532961185,,1.500725250717369,,
,8419.0,1936.0,8546.0,3185.0,2321.0,3203.0,376.0,2025-07-23 23:04:24,91.0,,-0.0100722978576883,-2.02985569050988,0.0861568754757979,,0.34338393917789356,,
,8420.0,1937.0,8549.0,3188.0,2321.0,3216.0,403.0,2025-07-23 23:04:25,91.0,,-0.0100417565320149,-2.02953035394363,0.0862147179932586,,-0.7633818485841362,,
,8422.0,1936.0,8549.0,3187.0,2325.0,3196.0,433.0,2025-07-23 23:04:26,91.0,,-0.0099188545820468,-2.02940786583882,0.08622090699613,,-1.8100122532308685,,
,8424.0,1937.0,8549.0,3187.0,2327.0,3187.0,424.0,2025-07-23 23:04:27,92.0,,-0.0100062303494912,-2.02925034672836,0.0861878418965194,,-2.790445542176516,,
,8423.0,1939.0,8546.0,3187.0,2293.0,3202.0,412.0,2025-07-23 23:04:28,92.0,,-0.009936268187779,-2.02908924794379,0.0862277657087073,,-3.701814359475444,,
,8425.0,1939.0,8550.0,3187.0,2301.0,3212.0,419.0,2025-07-23 23:04:29,93.0,,-0.0099207301258848,-2.02917394619049,0.0861601685517007,,-4.543971612374306,,
,8426.0,1938.0,8547.0,3188.0,2305.0,3190.0,394.0,2025-07-23 23:04:30,93.0,,-0.0097468880852604,-2.02894894870386,0.0861476015841498,,-5.318912472976932,,
,8427.0,1940.0,8551.0,3188.0,2317.0,3176.0,390.0,2025-07-23 23:04:31,93.0,,-0.0097623534927827,-2.02927679135994,0.0861390015611317,,-6.030158888591693,,
,8429.0,1939.0,8548.0,3188.0,2318.0,3182.0,410.0,2025-07-23 23:04:32,93.0,,-0.0096067147885495,-2.02946040228549,0.0861015941402412,,-6.682165880266429,,
,8432.0,1942.0,8547.0,3187.0,2294.0,3196.0,431.0,2025-07-23 23:04:33,93.0,,-0.0095302646689005,-2.0293291224433,0.0861402830374366,,-7.2797952657696285,,
,8434.0,1941.0,8548.0,3188.0,2316.0,3210.0,408.0,2025-07-23 23:04:34,92.0,,-0.0093020473832328,-2.02868521109943,0.0861356555720266,,-7.8278839760033225,,
,8435.0,1943.0,8548.0,3190.0,2322.0,3217.0,395.0,2025-07-23 23:04:35,93.0,,-0.0092970166650816,-2.02859426667246,0.0861042410705761,,-8.330914436002864,,
,8441.0,1942.0,8545.0,3188.0,2307.0,3204.0,410.0,2025-07-23 23:04:36,93.0,,-0.0092221539196586,-2.02855054416655,0.0861074203952943,,-8.79277825270477,,
,8437.0,1944.0,8547.0,3189.0,2290.0,3202.0,402.0,2025-07-23 23:04:37,93.0,,-0.0091811610779931,-2.02853992278264,0.0861098932420929,,-9.216615536985849,,
,8440.0,1947.0,8548.0,3190.0,2319.0,3202.0,421.0,2025-07-23 23:04:38,94.0,,-0.0092068620918789,-2.02856139549064,0.0861510730319592,,-9.60471162658488,,
,8445.0,1945.0,8548.0,3190.0,2329.0,3185.0,424.0,2025-07-23 23:04:39,93.0,,-0.0091390891417093,-2.02837330517243,0.0861560261501099,,-9.95843853191208,,
,8444.0,1943.0,8549.0,3190.0,2308.0,3194.0,394.0,2025-07-23 23:04:40,93.0,,-0.0091150110750771,-2.02878794282316,0.0861382014652173,,-10.278236107711193,,
,8447.0,1944.0,8549.0,3188.0,2324.0,3205.0,417.0,2025-07-23 23:04:41,92.0,,-0.009115313575106,-2.02834924073284,0.0861134797192693,,-10.563634244263975,,
,8450.0,1946.0,8551.0,3191.0,2298.0,3199.0,426.0,2025-07-23 23:04:42,92.0,,-0.0092678998871275,-2.02879412687992,0.0861244691658143,,-10.813320452738456,,
,8450.0,1948.0,8554.0,3192.0,2317.0,3204.0,414.0,2025-07-23 23:04:43,92.0,,-0.0090831739107953,-2.02875292505097,0.0861611824006235,,-11.02525682529751,,
,8455.0,1949.0,8552.0,3192.0,2340.0,3183.0,408.0,2025-07-23 23:04:44,92.0,,-0.009197632649328,-2.02861008652928,0.0861269909746213,,-11.196847065224452,,
,8456.0,1948.0,8553.0,3188.0,2343.0,3185.0,405.0,2025-07-23 23:04:45,92.0,,-0.0091985661086762,-2.0289275737983,0.0861363937708193,,-11.325148958903618,,
,8458.0,1952.0,8551.0,3193.0,2327.0,3202.0,394.0,2025-07-23 23:04:46,94.0,,-0.009180240850172,-2.02869822985208,0.0861402344607961,,-11.407121143670208,,
,8464.0,1952.0,8551.0,3190.0,2334.0,3201.0,403.0,2025-07-23 23:04:47,95.0,,-0.009275465643721,-2.02924118951256,0.0860850918004688,,-11.439886202809165,,
,8465.0,1950.0,8553.0,3191.0,2336.0,3213.0,404.0,2025-07-23 23:04:48,95.0,,-0.0091891666852348,-2.02942746984919,0.0861402048952866,,-11.420986291117512,,
,8465.0,1949.0,8550.0,3192.0,2340.0,3215.0,401.0,2025-07-23 23:04:49,94.0,,-0.009205025575024,-2.029334020336,0.0861334630022912,,-11.348604600148041,,
,8468.0,1952.0,8551.0,3191.0,2330.0,3185.0,407.0,2025-07-23 23:04:50,94.0,,-0.0091695803830422,-2.02892769446331,0.0861084601662323,,-11.221727950985406,,
,8471.0,1953.0,8553.0,3195.0,2329.0,3162.0,408.0,2025-07-23 23:04:51,94.0,,-0.0090919545218155,-2.02877094778714,0.0861201451382229,,-11.0402331986598,,
,8475.0,1955.0,8553.0,3193.0,2332.0,3185.0,400.0,2025-07-23 23:04:52,94.0,,-0.0091357001646165,-2.02921216740091,0.0860837563492929,,-10.80489135328871,,
,8473.0,1955.0,8551.0,3188.0,2337.0,3202.0,409.0,2025-07-23 23:04:53,94.0,,-0.0090732089450154,-2.02879638980376,0.0861166876753908,,-10.517295509125713,,
,8476.0,1953.0,8552.0,3192.0,2329.0,3204.0,380.0,2025-07-23 23:04:54,94.0,,-0.0090714513490386,-2.0291198154328,0.086114751412624,,-10.179729229591679,,
,8481.0,1958.0,8553.0,3192.0,2329.0,3200.0,389.0,2025-07-23 23:04:55,94.0,,-0.0090779354823062,-2.02892286306153,0.0861088424188994,,-9.794999380354534,,
,8484.0,1957.0,8551.0,3192.0,2323.0,3193.0,392.0,2025-07-23 23:04:56,94.0,,-0.0090305526254365,-2.0292272202777,0.0860809480705717,,-9.366260786274621,,
,8485.0,1956.0,8554.0,3192.0,2346.0,3199.0,373.0,2025-07-23 23:04:57,94.0,,-0.0089999724516596,-2.02866020660424,0.0860870711292598,,-8.896859228944622,,
,8485.0,1958.0,8553.0,3193.0,2321.0,3201.0,388.0,2025-07-23 23:04:58,94.0,,-0.0089777118953356,-2.02842813680817,0.0861140989182898,,-8.390214201372347,,
,8485.0,1959.0,8552.0,3191.0,2324.0,3202.0,404.0,2025-07-23 23:04:59,93.0,,-0.0089391939603273,-2.02831812369757,0.0861436458797752,,-7.849753818666352,,
,8488.0,1957.0,8551.0,3189.0,2324.0,3198.0,406.0,2025-07-23 23:05:00,93.0,,-0.0088112974981274,-2.02814060014111,0.086121856396772,,-7.27890233867082,,
,8488.0,1957.0,8552.0,3189.0,2329.0,3197.0,410.0,2025-07-23 23:05:01,92.0,,-0.0089226094341496,-2.0280418439125,0.0861127900792804,,-6.681108074538283,,
,8485.0,1954.0,8550.0,3189.0,2341.0,3188.0,413.0,2025-07-23 23:05:02,92.0,,-0.0088017535605883,-2.02832142774807,0.0861084943425863,,-6.059889490407411,,
,8487.0,1955.0,8552.0,3189.0,2300.0,3168.0,408.0,2025-07-23 23:05:03,91.0,,-0.008962924635309,-2.02876207971172,0.0860893145112571,,-5.4188733163291465,,
,8480.0,1952.0,8551.0,3188.0,2293.0,3163.0,414.0,2025-07-23 23:05:04,91.0,,-0.0089276539959885,-2.02903793650713,0.0859445737372524,,-4.761801986825955,,
,8474.0,1952.0,8550.0,3187.0,2303.0,3156.0,424.0,2025-07-23 23:05:05,91.0,,-0.0090249085362993,-2.0293343978172,0.0860225689244936,,-4.092497145282566,,
,8471.0,1947.0,8551.0,3186.0,2295.0,3160.0,424.0,2025-07-23 23:05:06,92.0,,-0.0089898745125915,-2.02931092972097,0.0860214391896505,,-3.414778048987225,,
,8462.0,1943.0,8549.0,3188.0,2314.0,3190.0,428.0,2025-07-23 23:05:07,91.0,,-0.0089829023968175,-2.02907052089704,0.085968570167778,,-2.7323450704845933,,
,8456.0,1944.0,8548.0,3188.0,2290.0,3178.0,412.0,2025-07-23 23:05:08,91.0,,-0.008946695263093,-2.02953169245924,0.0860067522900392,,-2.048646734468686,,
,8447.0,1940.0,8549.0,3188.0,2303.0,3175.0,413.0,2025-07-23 23:05:09,91.0,,-0.0089899529724242,-2.02889729549636,0.0859968760568944,,-1.366752502076719,,
,8444.0,1938.0,8548.0,3184.0,2342.0,3170.0,417.0,2025-07-23 23:05:10,91.0,,-0.0090282849271264,-2.02926115630916,0.0860206390676833,,-0.6892522414337933,,
,8437.0,1938.0,8549.0,3186.0,2342.0,3203.0,393.0,2025-07-23 23:05:11,91.0,,-0.009004480760516,-2.02910877861906,0.0860597649689845,,-0.01819727926301709,,
,8433.0,1939.0,8550.0,3187.0,2316.0,3205.0,401.0,2025-07-23 23:05:12,91.0,,-0.0091469950088077,-2.02903720934124,0.0860790362170056,,0.6449115348785514,,
,8427.0,1934.0,8547.0,3185.0,2323.0,3207.0,404.0,2025-07-23 23:05:13,91.0,,-0.0091553297114757,-2.02874320152099,0.0860621820407958,,1.2990938713631017,,
,8422.0,1931.0,8547.0,3185.0,2347.0,3219.0,396.0,2025-07-23 23:05:14,91.0,,-0.0090751068113877,-2.02864868431588,0.0861001314898994,,1.943832056327598,,
,8419.0,1930.0,8547.0,3187.0,2344.0,3216.0,394.0,2025-07-23 23:05:15,91.0,,-0.008957407129082,-2.02832138897119,0.0861239934064217,,2.579004049917411,,
,8416.0,1932.0,8550.0,3186.0,2319.0,3209.0,387.0,2025-07-23 23:05:16,91.0,,-0.009007863290029,-2.02886200101777,0.0861233385234547,,3.2048255608531404,,
,8416.0,1934.0,8552.0,3189.0,2317.0,3216.0,387.0,2025-07-23 23:05:17,92.0,,-0.0090839241864312,-2.02907342960177,0.0861315094929564,,3.821814741384212,,
,8414.0,1932.0,8551.0,3184.0,2324.0,3224.0,393.0,2025-07-23 23:05:18,92.0,,-0.008940926465582,-2.02891112205457,0.0861774672104807,,4.4307858074340585,,
,8413.0,1930.0,8550.0,3186.0,2331.0,3212.0,394.0,2025-07-23 23:05:19,92.0,,-0.0089469113272023,-2.02882138271739,0.0861676919534856,,5.032870290691632,,
,8413.0,1933.0,8551.0,3185.0,2332.0,3213.0,410.0,2025-07-23 23:05:20,92.0,,-0.008971453619118,-2.0287434975425,0.0861559986907832,,5.629556710548835,,
,8412.0,1932.0,8551.0,3188.0,2339.0,3214.0,410.0,2025-07-23 23:05:21,92.0,,-0.0090805684140566,-2.02846370220916,0.0861749629253917,,6.222731123612254,,
,8416.0,1933.0,8554.0,3186.0,2343.0,3210.0,401.0,2025-07-23 23:05:22,92.0,,-0.0090770293667316,-2.02856488129969,0.0861502452801107,,6.8146935757515354,,
,8414.0,1931.0,8551.0,3185.0,2341.0,3194.0,408.0,2025-07-23 23:05:23,91.0,,-0.0089757368491237,-2.02831203418075,0.086153324682445,,7.408121821788616,,
,8416.0,1934.0,8551.0,3186.0,2314.0,3186.0,407.0,2025-07-23 23:05:24,91.0,,-0.0089165477178505,-2.02910776382987,0.0861236707451621,,8.005956355696492,,
,8422.0,1937.0,8552.0,3188.0,2311.0,3202.0,408.0,2025-07-23 23:05:25,91.0,,-0.0089049776601411,-2.02980806812873,0.0860203524789998,,8.611190268302352,,
,8423.0,1937.0,8551.0,3188.0,2325.0,3197.0,405.0,2025-07-23 23:05:26,90.0,,-0.0088758523035503,-2.03007609439508,0.0859235672547573,,9.226561823615945,,
,8421.0,1937.0,8551.0,3190.0,2332.0,3207.0,408.0,2025-07-23 23:05:27,90.0,,-0.0089173514405761,-2.03041737078379,0.0858204096557617,,9.854163566160338,,
,8426.0,1938.0,8551.0,3192.0,2326.0,3193.0,399.0,2025-07-23 23:05:28,90.0,,-0.0087322823840785,-2.02997298400685,0.0857685789951859,,10.494995745911032,,
,8429.0,1939.0,8555.0,3189.0,2300.0,3209.0,399.0,2025-07-23 23:05:29,89.0,,-0.0088021925811837,-2.03011641444658,0.0858223936646024,,11.14850156341221,,
,8432.0,1939.0,8553.0,3191.0,2295.0,3209.0,413.0,2025-07-23 23:05:30,89.0,,-0.0088379931294128,-2.0302074170024,0.0857843254318509,,11.812126785767948,,
,8434.0,1941.0,8554.0,3191.0,2300.0,3197.0,413.0,2025-07-23 23:05:31,88.0,,-0.0087975084684954,-2.03092628208646,0.08577886006593,,12.480947709300931,,
,8436.0,1941.0,8553.0,3187.0,2315.0,3185.0,391.0,2025-07-23 23:05:32,87.0,,-0.0088611308643546,-2.03117530874637,0.0857450871395623,,13.147410416680913,,
,8440.0,1945.0,8555.0,3192.0,2321.0,3187.0,405.0,2025-07-23 23:05:33,86.0,,-0.0089237897037077,-2.03140311276181,0.0857861462946738,,13.801220974806707,,
,8442.0,1943.0,8553.0,3191.0,2326.0,3187.0,405.0,2025-07-23 23:05:34,86.0,,-0.0090850891184062,-2.03133069118133,0.085772115672881,,14.429419794147195,,
,8441.0,1943.0,8555.0,3191.0,2305.0,3179.0,410.0,2025-07-23 23:05:35,86.0,,-0.0090049611399119,-2.03151552209344,0.0857560142347475,,15.016662774645805,,
,8445.0,1942.0,8551.0,3188.0,2319.0,3197.0,403.0,2025-07-23 23:05:36,86.0,,-0.0091549637455866,-2.03212984549328,0.0857230511543228,,15.545716696011484,,
,8445.0,1943.0,8553.0,3189.0,2315.0,3195.0,415.0,2025-07-23 23:05:37,85.0,,-0.0091460987714852,-2.03199118592476,0.0857070175714827,,15.998157176514583,,
,8448.0,1942.0,8553.0,3190.0,2328.0,3196.0,416.0,2025-07-23 23:05:38,86.0,,-0.0092034176168831,-2.03256811504756,0.0857243417575548,,16.35523611432566,,
,8446.0,1941.0,8550.0,3189.0,2329.0,3196.0,414.0,2025-07-23 23:05:39,87.0,,-0.0092592822933974,-2.03326255205803,0.0857136590515865,,16.598864499907485,,
,8445.0,1943.0,8551.0,3189.0,2348.0,3225.0,407.0,2025-07-23 23:05:40,88.0,,-0.0092112344803536,-2.03300438437953,0.0857196579183569,,16.712638914511974,,
,8445.0,1942.0,8553.0,3190.0,2352.0,3213.0,420.0,2025-07-23 23:05:41,89.0,,-0.0094749646164259,-2.03361203611012,0.0856609841103647,,16.682828642402757,,
,8449.0,1944.0,8552.0,3191.0,2340.0,3204.0,394.0,2025-07-23 23:05:42,90.0,,-0.0094459109464649,-2.03388189000073,0.0856686040499375,,16.49923733445365,,
,8449.0,1942.0,8554.0,3191.0,2341.0,3209.0,387.0,2025-07-23 23:05:43,91.0,,-0.0094665311195856,-2.03347863448406,0.0856999942553138,,16.155860308645728,,
,8448.0,1941.0,8552.0,3187.0,2356.0,3195.0,396.0,2025-07-23 23:05:44,91.0,,-0.0095073605839974,-2.03392630338977,0.0857195984232922,,15.651276375448052,,
,8447.0,1941.0,8555.0,3189.0,2362.0,3186.0,397.0,2025-07-23 23:05:45,91.0,,-0.0095442709662333,-2.03366824547626,0.0856842665839178,,14.988739723498089,,
,8447.0,1942.0,8556.0,3189.0,2367.0,3191.0,380.0,2025-07-23 23:05:46,91.0,,-0.0093445785874924,-2.03317342894663,0.0856914802872083,,14.175968936413916,,
,8446.0,1944.0,8553.0,3189.0,2369.0,3193.0,391.0,2025-07-23 23:05:47,91.0,,-0.0092579435700565,-2.03246438116998,0.0857320946248788,,13.224662004854624,,
,8449.0,1942.0,8555.0,3189.0,2340.0,3200.0,385.0,2025-07-23 23:05:48,91.0,,-0.0092013312125885,-2.03218036667508,0.0856883898963171,,12.149794047121377,,
,8447.0,1941.0,8553.0,3189.0,2335.0,3194.0,406.0,2025-07-23 23:05:49,91.0,,-0.0090963744710135,-2.0324632131644,0.0857576676396221,,10.968774709811395,,
,8447.0,1942.0,8555.0,3191.0,2340.0,3178.0,401.0,2025-07-23 23:05:50,91.0,,-0.0090735681304812,-2.03225062099078,0.0857416724983714,,9.700552010223277,,
,8450.0,1943.0,8557.0,3190.0,2338.0,3184.0,413.0,2025-07-23 23:05:51,92.0,,-0.0089687466107785,-2.03187700540194,0.085803380039906,,8.364747477552694,,
,8452.0,1943.0,8555.0,3191.0,2351.0,3190.0,441.0,2025-07-23 23:05:52,92.0,,-0.0090668295975413,-2.0314231236054,0.0857334761513716,,6.980894916810341,,
,8453.0,1941.0,8555.0,3191.0,2349.0,3190.0,438.0,2025-07-23 23:05:53,93.0,,-0.0089706053176631,-2.03168175552377,0.0857977393134011,,5.5678347083679745,,
,8454.0,1946.0,8555.0,3193.0,2334.0,3198.0,429.0,2025-07-23 23:05:54,93.0,,-0.0088475505544886,-2.03096606773553,0.0857166133932425,,4.143290346183235,,
,8456.0,1944.0,8557.0,3192.0,2322.0,3169.0,425.0,2025-07-23 23:05:55,93.0,,-0.0087938954888359,-2.03098231916137,0.0857958770953022,,2.7236269303458718,,
,8457.0,1947.0,8557.0,3191.0,2316.0,3166.0,419.0,2025-07-23 23:05:56,93.0,,-0.0088515157994967,-2.03067520448189,0.0857540003631773,,1.3237663038485095,,
,8458.0,1944.0,8555.0,3189.0,2326.0,3164.0,423.0,2025-07-23 23:05:57,93.0,,-0.008819214116561,-2.03088758177848,0.0858602929353099,,-0.042785332840014324,,
,8461.0,1949.0,8555.0,3190.0,2322.0,3185.0,422.0,2025-07-23 23:05:58,93.0,,-0.0088150126576132,-2.03114969683175,0.0858169128921292,,-1.3638513029630854,,
,8462.0,1949.0,8556.0,3194.0,2334.0,3193.0,423.0,2025-07-23 23:05:59,92.0,,-0.0088817646034786,-2.03082480638764,0.0858252118225118,,-2.6284938434727207,,
,8466.0,1949.0,8556.0,3191.0,2351.0,3201.0,427.0,2025-07-23 23:06:00,92.0,,-0.0088739993849404,-2.03013299887528,0.0858833491406436,,-3.8269639514915044,,
,8465.0,1948.0,8555.0,3189.0,2346.0,3206.0,419.0,2025-07-23 23:06:01,91.0,,-0.0088781451418955,-2.03044648175062,0.0857715494105805,,-4.950720242870551,,
,8470.0,1950.0,8555.0,3192.0,2305.0,3196.0,424.0,2025-07-23 23:06:02,91.0,,-0.00884836992186,-2.03038697591975,0.0857434331272324,,-5.992525052918182,,
,8472.0,1950.0,8557.0,3193.0,2343.0,3200.0,400.0,2025-07-23 23:06:03,91.0,,-0.008757641282276,-2.0305781284889,0.0858607569285952,,-6.946606204952448,,
2025-07-23 23:03:40,8475.0,1952.0,8556.0,3192.0,2343.0,3203.0,389.0,2025-07-23 23:06:04,91.0,2025/07/23 11:03:40 PM,-0.0088393443414001,-2.03057064391754,0.085821051734814,,-7.808857306438378,,
,8472.0,1951.0,8556.0,3190.0,2328.0,3208.0,410.0,2025-07-23 23:06:05,92.0,,-0.0088195028183041,-2.03041539261614,0.0858136500202616,,-8.577039765969939,,
,8478.0,1953.0,8557.0,3193.0,2351.0,3198.0,421.0,2025-07-23 23:06:06,92.0,,-0.0088581230572626,-2.03046317224415,0.085795241977463,,-9.250945902567722,,
,8481.0,1955.0,8558.0,3194.0,2348.0,3187.0,400.0,2025-07-23 23:06:07,93.0,,-0.0088189954300917,-2.03083807800523,0.0858432614095921,,-9.8324841926152,,
,8482.0,1954.0,8558.0,3194.0,2341.0,3195.0,401.0,2025-07-23 23:06:08,94.0,,-0.0088233171501149,-2.03050373347667,0.085805363882406,,-10.325655098865884,,
,8483.0,1956.0,8557.0,3193.0,2333.0,3203.0,403.0,2025-07-23 23:06:09,93.0,,-0.0089464189924359,-2.03096754338756,0.0857581024995708,,-10.736399163352376,,
,8485.0,1954.0,8555.0,3192.0,2346.0,3197.0,385.0,2025-07-23 23:06:10,93.0,,-0.0088773146288114,-2.03107585253101,0.0857821669440161,,-11.072316683096835,,
,8488.0,1958.0,8559.0,3194.0,2329.0,3197.0,378.0,2025-07-23 23:06:11,92.0,,-0.0089517313130882,-2.03126325166097,0.0857798509052745,,-11.342276988052415,,
,8490.0,1958.0,8560.0,3192.0,2346.0,3206.0,394.0,2025-07-23 23:06:12,91.0,,-0.0088886104384462,-2.0309347346349,0.0857543047474078,,-11.555951153488722,,
,8492.0,1958.0,8559.0,3194.0,2343.0,3205.0,395.0,2025-07-23 23:06:13,90.0,,-0.0089613739066503,-2.03158712311896,0.0857373312256045,,-11.723311934075598,,
,8493.0,1958.0,8559.0,3189.0,2358.0,3203.0,388.0,2025-07-23 23:06:14,90.0,,-0.0088543621833055,-2.03209949939872,0.0856269784210403,,-11.854147440882448,,
,8493.0,1958.0,8561.0,3194.0,2349.0,3208.0,402.0,2025-07-23 23:06:15,90.0,,-0.0089284808465171,-2.03260123166929,0.0855493892387856,,-11.957630636741234,,
,8498.0,1960.0,8560.0,3197.0,2347.0,3213.0,401.0,2025-07-23 23:06:16,90.0,,-0.008977316027758,-2.03222047819158,0.0855128185070929,,-12.041976268556198,,
,8502.0,1961.0,8559.0,3192.0,2349.0,3223.0,405.0,2025-07-23 23:06:17,90.0,,-0.0089366100542935,-2.0320569433816,0.0855412931875213,,-12.114202444555175,,
,8502.0,1961.0,8560.0,3195.0,2342.0,3239.0,416.0,2025-07-23 23:06:18,91.0,,-0.0089390714214506,-2.0317789527574,0.0855240565054878,,-12.179998156333106,,
,8504.0,1960.0,8558.0,3193.0,2343.0,3212.0,407.0,2025-07-23 23:06:19,91.0,,-0.0088909668834401,-2.03214092186199,0.0855548543817537,,-12.243682943520474,,
,8505.0,1961.0,8559.0,3195.0,2333.0,3200.0,420.0,2025-07-23 23:06:20,91.0,,-0.0089750934535382,-2.03144526583954,0.0854909745954909,,-12.308232696543618,,
,8505.0,1961.0,8560.0,3195.0,2323.0,3195.0,430.0,2025-07-23 23:06:21,91.0,,-0.0089182888166047,-2.03202484438306,0.0854962380887783,,-12.375338513968103,,
,8504.0,1959.0,8557.0,3191.0,2333.0,3168.0,435.0,2025-07-23 23:06:22,91.0,,-0.0089049859705995,-2.03152518450954,0.085520067013488,,-12.445465644659132,,
,8500.0,1958.0,8559.0,3191.0,2335.0,3167.0,419.0,2025-07-23 23:06:23,91.0,,-0.0088568699343781,-2.03181689827089,0.0855594141388044,,-12.517887401968975,,
,8498.0,1955.0,8557.0,3191.0,2305.0,3183.0,413.0,2025-07-23 23:06:24,90.0,,-0.0088141487956079,-2.03174209154654,0.0855125788992551,,-12.590682491898049,,
,8493.0,1956.0,8558.0,3190.0,2287.0,3195.0,418.0,2025-07-23 23:06:25,90.0,,-0.0088660884416216,-2.03190460081311,0.0855048153504347,,-12.66069957089696,,
,8488.0,1952.0,8555.0,3192.0,2295.0,3189.0,435.0,2025-07-23 23:06:26,89.0,,-0.008942464258102,-2.03226847552172,0.085515009921226,,-12.723506341486138,,
,8481.0,1947.0,8556.0,3186.0,2319.0,3199.0,421.0,2025-07-23 23:06:27,89.0,,-0.0088181852121174,-2.03162182133941,0.0855428200337276,,-12.773349936316604,,
,8475.0,1948.0,8557.0,3191.0,2328.0,3202.0,411.0,2025-07-23 23:06:28,89.0,,-0.0088086888220194,-2.03145242999964,0.0855676574064782,,-12.80316001490441,,
,8468.0,1943.0,8557.0,3187.0,2334.0,3197.0,429.0,2025-07-23 23:06:29,89.0,,-0.0089105378744931,-2.03141581360303,0.0855081052487649,,-12.804625864809651,,
,8462.0,1944.0,8557.0,3187.0,2322.0,3202.0,419.0,2025-07-23 23:06:30,88.0,,-0.008787764922893,-2.03121701919936,0.0854941875385449,,-12.768373926842775,,
,8452.0,1940.0,8556.0,3187.0,2343.0,3189.0,430.0,2025-07-23 23:06:31,87.0,,-0.0087608251783632,-2.03158236388829,0.085598515178756,,-12.684262580388221,,
,8449.0,1939.0,8555.0,3188.0,2345.0,3201.0,427.0,2025-07-23 23:06:32,86.0,,-0.0087204174532963,-2.0317442119919,0.0855980139815493,,-12.54179699469723,,
,8445.0,1938.0,8558.0,3187.0,2365.0,3180.0,428.0,2025-07-23 23:06:33,85.0,,-0.0087654550793284,-2.0315988488335,0.08554146622787,,-12.330649528264184,,
,8442.0,1937.0,8557.0,3189.0,2362.0,3194.0,414.0,2025-07-23 23:06:34,84.0,,-0.0087154371916607,-2.03162496264514,0.085599472603119,,-12.041253200692376,,
,8435.0,1934.0,8556.0,3188.0,2347.0,3205.0,396.0,2025-07-23 23:06:35,83.0,,-0.0087221188513205,-2.0319420421418,0.085535669578114,,-11.665421079886473,,
,8435.0,1935.0,8556.0,3189.0,2331.0,3215.0,402.0,2025-07-23 23:06:36,82.0,,-0.0087679203356309,-2.03153662714884,0.0855822349925847,,-11.196936651526496,,
,8434.0,1935.0,8557.0,3188.0,2348.0,3206.0,392.0,2025-07-23 23:06:37,83.0,,-0.0087911837410666,-2.0312420882634,0.0856252190223293,,-10.632060848810227,,
,8433.0,1937.0,8557.0,3188.0,2349.0,3205.0,398.0,2025-07-23 23:06:38,83.0,,-0.0088004490877702,-2.0314288451132,0.0857130431593481,,-9.969909223083295,,
,8430.0,1934.0,8558.0,3188.0,2355.0,3200.0,391.0,2025-07-23 23:06:39,83.0,,-0.0086663229864,-2.0312436713746,0.085674150446599,,-9.2126651135089,,
,8431.0,1936.0,8558.0,3190.0,2348.0,3197.0,409.0,2025-07-23 23:06:40,84.0,,-0.00862137832764,-2.03147814891261,0.0857280405809876,,-8.365609235008675,,
,8433.0,1936.0,8557.0,3189.0,2359.0,3205.0,399.0,2025-07-23 23:06:41,84.0,,-0.0087011509867565,-2.03129659309155,0.0856680672113528,,-7.436961338131738,,
,8433.0,1938.0,8560.0,3190.0,2356.0,3199.0,409.0,2025-07-23 23:06:42,84.0,,-0.0086879900214953,-2.03156454597774,0.0857032706448577,,-6.437544564629245,,
,8434.0,1937.0,8557.0,3190.0,2340.0,3199.0,414.0,2025-07-23 23:06:43,84.0,,-0.0086925530480454,-2.0313449656613,0.0855833244554613,,-5.380296906353504,,
,8434.0,1937.0,8557.0,3190.0,2347.0,3194.0,415.0,2025-07-23 23:06:44,84.0,,-0.0087938074396966,-2.03229126548473,0.0856257659912001,,-4.279665548549049,,
,8433.0,1939.0,8559.0,3191.0,2339.0,3197.0,394.0,2025-07-23 23:06:45,84.0,,-0.0087237717382335,-2.03213229528219,0.0855251267609374,,-3.1509275210208294,,
,8439.0,1937.0,8560.0,3191.0,2339.0,3191.0,394.0,2025-07-23 23:06:46,84.0,,-0.0087824035500561,-2.03221068527426,0.085419774660661,,-2.009483333527191,,
,8440.0,1940.0,8558.0,3192.0,2338.0,3191.0,405.0,2025-07-23 23:06:47,84.0,,-0.0090133956288359,-2.03200126991741,0.0854470552086133,,-0.8701697477376787,,
,8442.0,1938.0,8557.0,3190.0,2357.0,3171.0,418.0,2025-07-23 23:06:48,84.0,,-0.0089951207274617,-2.03258929202278,0.0853201965139791,,0.253365161433217,,
,8445.0,1940.0,8559.0,3190.0,2357.0,3187.0,428.0,2025-07-23 23:06:49,84.0,,-0.009018258577771,-2.03253051345981,0.0853645675835299,,1.349186466351555,,
,8447.0,1942.0,8560.0,3192.0,2347.0,3196.0,428.0,2025-07-23 23:06:50,84.0,,-0.0089917229092057,-2.03263276257312,0.0854697305202355,,2.4074658706444154,,
,8449.0,1943.0,8561.0,3193.0,2345.0,3188.0,418.0,2025-07-23 23:06:51,85.0,,-0.0090474709735131,-2.03300650650845,0.0854953784212052,,3.4207248332925517,,
,8452.0,1943.0,8560.0,3191.0,2341.0,3178.0,400.0,2025-07-23 23:06:52,85.0,,-0.0091506394802737,-2.03296425590448,0.0854667316542106,,4.383921659573079,,
,8453.0,1941.0,8559.0,3191.0,2316.0,3184.0,392.0,2025-07-23 23:06:53,86.0,,-0.0091246303463265,-2.03279398543858,0.0855174320552342,,5.294390921188959,,
,8456.0,1942.0,8562.0,3194.0,2328.0,3203.0,390.0,2025-07-23 23:06:54,88.0,,-0.0092072075741136,-2.03350543583325,0.0854111659321197,,6.151655415255086,,
,8457.0,1947.0,8562.0,3194.0,2306.0,3202.0,411.0,2025-07-23 23:06:55,88.0,,-0.0092562701071139,-2.03387967253253,0.085417678210755,,6.957138791871711,,
,8460.0,1945.0,8558.0,3192.0,2344.0,3203.0,397.0,,,,-0.0093543063098162,-2.03408459982001,0.0854158891049361,,7.7138103671782625,,
,8460.0,1942.0,8559.0,3192.0,2356.0,3192.0,418.0,,,,-0.009426212229239,-2.03523388351,0.0854364910716183,,8.425792843353358,,
,8460.0,1944.0,8559.0,3190.0,2360.0,3187.0,400.0,,,,-0.0095783566242509,-2.03531191155762,0.085393891247117,,9.097959421368929,,
,8463.0,1945.0,8561.0,3193.0,2344.0,3195.0,376.0,,,,-0.0095924744907777,-2.03537577058493,0.0853860545364171,,9.735539723359459,,
,8462.0,1943.0,8562.0,3193.0,2342.0,3201.0,363.0,,,,-0.0095081029163123,-2.03574759910666,0.0853901760770657,,10.343744786385807,,
,8460.0,1942.0,8563.0,3191.0,2347.0,3208.0,368.0,,,,-0.0096622247707552,-2.03631991490627,0.0854145069144526,,10.927411964532588,,
,8462.0,1943.0,8560.0,3192.0,2337.0,3212.0,391.0,,,,-0.0096395871745468,-2.036164585074,0.0853269366254173,,11.490663792907004,,
,8459.0,1943.0,8561.0,3193.0,2356.0,3212.0,387.0,,,,-0.0097322133160495,-2.03651133421048,0.0854066562846348,,12.036573171755043,,
,8463.0,1941.0,8563.0,3191.0,2359.0,3212.0,405.0,,,,-0.0096072893273216,-2.03625658145921,0.0853764916407039,,12.5668310880707,,
,8462.0,1944.0,8561.0,3191.0,2349.0,3209.0,409.0,,,,-0.0095434675614182,-2.03559276397232,0.0853899885628078,,13.081421117219982,,
,8459.0,1941.0,8563.0,3192.0,2328.0,3203.0,402.0,,,,-0.0095123180154746,-2.03546179388343,0.0853482983305973,,13.578315143131329,,
,8463.0,1944.0,8561.0,3192.0,2338.0,3204.0,406.0,,,,-0.0096212833576094,-2.03515105105559,0.0854670229553586,,14.053215462847776,,
,8463.0,1943.0,8562.0,3194.0,2342.0,3203.0,399.0,,,,-0.0093630833587927,-2.03480255635271,0.0854187967229906,,14.499378439968078,,
,8462.0,1941.0,8561.0,3191.0,2349.0,3203.0,389.0,,,,-0.0094522826711456,-2.03438724847093,0.0854770220502271,,14.907562537776704,,
,8462.0,1944.0,8560.0,3191.0,2338.0,3200.0,390.0,,,,-0.0093614535649873,-2.03413075238398,0.0854545516779667,,15.266146216379843,,
,8463.0,1944.0,8562.0,3191.0,2324.0,3189.0,384.0,,,,-0.0094129066569559,-2.0346325367531,0.0854967480590679,,15.561455382584409,,
,8466.0,1945.0,8560.0,3193.0,2336.0,3188.0,375.0,,,,-0.0092950317463129,-2.03389332872808,0.0853615728953907,,15.778323475439173,,
,8465.0,1946.0,8563.0,3193.0,2325.0,3185.0,404.0,,,,-0.0092993436666029,-2.03385770358614,0.0854245707800376,,15.9008806610856,,
,8467.0,1946.0,8559.0,3194.0,2347.0,3179.0,416.0,,,,-0.0092217875898656,-2.03409345189012,0.0854639988636187,,15.913536190061825,,
,8472.0,1946.0,8561.0,3193.0,2340.0,3184.0,412.0,,,,-0.0092720279483698,-2.03404220026567,0.0854415632482395,,15.802085384071118,,
,8473.0,1948.0,8562.0,3194.0,2327.0,3188.0,399.0,,,,-0.0092756294973787,-2.03389565687282,0.085398129764931,,15.554845183868201,,
,8472.0,1949.0,8561.0,3194.0,2345.0,3186.0,384.0,,,,-0.0092478411449715,-2.03402166622354,0.0854100311053996,,15.163704284390587,,
,8476.0,1947.0,8561.0,3191.0,2317.0,3190.0,399.0,,,,-0.0092471681144809,-2.03395919110046,0.0855026027141078,,14.624970040416025,,
,8475.0,1949.0,8563.0,3194.0,2341.0,3179.0,400.0,,,,-0.0093506892962623,-2.03372320551516,0.0854042865648806,,13.939908249404786,,
,8476.0,1948.0,8564.0,3195.0,2338.0,3200.0,395.0,,,,-0.0093696294756593,-2.03396568983968,0.0854087828155053,,13.114904661157954,,
,8478.0,1950.0,8562.0,3194.0,2316.0,3200.0,414.0,,,,-0.009319562348576,-2.03435214692968,0.0854784091674389,,12.161225004243134,,
,8483.0,1950.0,8561.0,3193.0,2336.0,3205.0,412.0,,,,-0.0093298618790798,-2.03399346516095,0.0854917174815617,,11.094404597714075,,
,8483.0,1950.0,8563.0,3195.0,2369.0,3180.0,410.0,,,,-0.0093660662604526,-2.03427984052016,0.0854702570433386,,9.933347111754403,,
,8487.0,1950.0,8563.0,3195.0,2343.0,3186.0,412.0,,,,-0.0092802465638457,-2.03423767316865,0.0854533808227341,,8.69924370453894,,
,8487.0,1951.0,8563.0,3195.0,2339.0,3193.0,413.0,,,,-0.0093799111539264,-2.03447616383885,0.0854983395669189,,7.414433124882868,,
,8489.0,1951.0,8561.0,3191.0,2343.0,3180.0,401.0,,,,-0.0094721098048553,-2.03473366880006,0.0855188736090131,,6.10131202839687,,
,8494.0,1952.0,8564.0,3193.0,2370.0,3173.0,390.0,,,,-0.009605743986871,-2.03482623487604,0.0854914734984884,,4.781379064984676,,
,8493.0,1955.0,8564.0,3195.0,2350.0,3184.0,408.0,,,,-0.0095861928936084,-2.03510644409721,0.0854473037213869,,3.4744639391733623,,
,8492.0,1953.0,8565.0,3194.0,2341.0,3189.0,408.0,,,,-0.0095567008655663,-2.03540749390529,0.0853889744965516,,2.198160592821408,,
,8497.0,1955.0,8565.0,3194.0,2350.0,3188.0,404.0,,,,-0.0096826660853566,-2.03562679744234,0.0854726738072025,,0.9674573945811564,,
,8500.0,1955.0,8565.0,3196.0,2351.0,3187.0,401.0,,,,-0.0098322979053609,-2.03568689897824,0.085507549566646,,-0.2054598236027985,,
,8502.0,1958.0,8565.0,3197.0,2347.0,3187.0,415.0,,,,-0.0099101676195028,-2.03621049582942,0.0853726379131188,,-1.3112629161773217,,
,8504.0,1955.0,8567.0,3196.0,2341.0,3184.0,407.0,,,,-0.0099377080973534,-2.0361533111928,0.0854619286419941,,-2.3434239924817923,,
,8505.0,1957.0,8568.0,3197.0,2335.0,3208.0,409.0,,,,-0.0097672818934662,-2.03598632381991,0.085443269810269,,-3.2980676021977757,,
,8507.0,1958.0,8563.0,3196.0,2355.0,3212.0,417.0,,,,-0.0097750769108701,-2.03609611048101,0.0854454982338597,,-4.173746980754965,,
,8512.0,1959.0,8566.0,3196.0,2365.0,3207.0,419.0,,,,-0.0097487541137366,-2.03608334403976,0.0854777312493045,,-4.971154442430468,,
,8510.0,1960.0,8565.0,3195.0,2360.0,3215.0,411.0,,,,-0.0098151271914792,-2.03601489152304,0.0853768795799976,,-5.692776902294926,,
,8513.0,1958.0,8568.0,3194.0,2362.0,3210.0,413.0,,,,-0.0097200148602134,-2.03606212835013,0.0853752168603513,,-6.342512321643413,,
,8511.0,1960.0,8565.0,3196.0,2346.0,3200.0,424.0,,,,-0.0097776905919478,-2.03551175448388,0.0854847299373791,,-6.925268361401381,,
,8517.0,1961.0,8564.0,3195.0,2344.0,3197.0,417.0,,,,-0.00984241234605,-2.03549872032678,0.0854695404067813,,-7.446567970750206,,
,8513.0,1960.0,8566.0,3193.0,2329.0,3178.0,430.0,,,,-0.0098580551453915,-2.03525775887343,0.0853856052500805,,-7.912187196780888,,
,8516.0,1955.0,8565.0,3193.0,2321.0,3162.0,418.0,,,,-0.0098233778259063,-2.03531783459725,0.0854478559025046,,-8.327848641678267,,
,8511.0,1954.0,8564.0,3192.0,2339.0,3162.0,417.0,,,,-0.0099439180411951,-2.03596071706405,0.0854659742216766,,-8.698990056743208,,
,8510.0,1955.0,8564.0,3192.0,2320.0,3156.0,406.0,,,,-0.0099754435787858,-2.03532233684346,0.0854587604560096,,-9.030621062175623,,
,8504.0,1950.0,8563.0,3192.0,2312.0,3174.0,412.0,,,,-0.0099587184438201,-2.03568063265376,0.0854853488940352,,-9.327271186321058,,
,8497.0,1948.0,8563.0,3192.0,2309.0,3187.0,404.0,,,,-0.0099498885169349,-2.03554776609133,0.0854655382048064,,-9.593019571371679,,
,8489.0,1946.0,8563.0,3189.0,2319.0,3197.0,410.0,,,,-0.0099103325327165,-2.03541015274797,0.0855285053781633,,-9.831582892794575,,
,8484.0,1942.0,8560.0,3190.0,2313.0,3189.0,388.0,,,,-0.0100431186918938,-2.03520689795139,0.0854876156067764,,-10.04642704042525,,
,8477.0,1942.0,8561.0,3190.0,2325.0,3205.0,396.0,,,,-0.0100598245787189,-2.03531542680816,0.0855897981602554,,-10.240863809542077,,
,8469.0,1939.0,8560.0,3190.0,2331.0,3212.0,404.0,,,,-0.0100595355879085,-2.03530150067915,0.0856082849355602,,-10.418098178159978,,
,8462.0,1938.0,8559.0,3189.0,2336.0,3199.0,398.0,,,,-0.0100518533868095,-2.03535655731164,0.0856120079207929,,-10.581203447592474,,
,8456.0,1935.0,8561.0,3189.0,2365.0,3188.0,412.0,,,,-0.0101466648121579,-2.03562104096126,0.0856007422328029,,-10.733016919284697,,
,8452.0,1936.0,8563.0,3189.0,2357.0,3204.0,377.0,,,,-0.0100861360593446,-2.0357626103969,0.0855738916426259,,-10.875963867201817,,
,8447.0,1936.0,8561.0,3190.0,2369.0,3204.0,399.0,,,,-0.0101003650327313,-2.03570282902302,0.0855268755908391,,-11.011829679102439,,
,8444.0,1933.0,8562.0,3190.0,2361.0,3205.0,391.0,,,,-0.0102376076457886,-2.03594025425164,0.0855933266356575,,-11.141508122880339,,
,8440.0,1929.0,8560.0,3187.0,2355.0,3203.0,374.0,,,,-0.0101321102593124,-2.03518613025532,0.0856496809566095,,-11.264757639595372,,
,8438.0,1930.0,8563.0,3190.0,2339.0,3228.0,364.0,,,,-0.0102553764399087,-2.03539876219959,0.0856840193209974,,-11.379997541987946,,
,8439.0,1933.0,8564.0,3191.0,2368.0,3205.0,347.0,,,,-0.0103783908416287,-2.03558140568476,0.0857704253964375,,-11.484172156388873,,
,8436.0,1932.0,8561.0,3192.0,2367.0,3190.0,371.0,,,,-0.0103784176176073,-2.03554493364494,0.0856600846857488,,-11.57270358042915,,
,8435.0,1930.0,8562.0,3190.0,2367.0,3188.0,387.0,,,,-0.0104441830415165,-2.03544718008249,0.0857584331179916,,-11.639543812553972,,
,8435.0,1932.0,8563.0,3190.0,2360.0,3176.0,398.0,,,,-0.0104608593532148,-2.03527589025878,0.0857151941260793,,-11.67732661982252,,
,8436.0,1931.0,8563.0,3193.0,2357.0,3201.0,404.0,,,,-0.0105238744787113,-2.03590673073629,0.085761183818707,,-11.67761129634671,,
,8440.0,1933.0,8564.0,3192.0,2357.0,3196.0,404.0,,,,-0.0106247968787574,-2.03618621964249,0.0857129501751379,,-11.631206074670063,,
,8439.0,1932.0,8564.0,3191.0,2335.0,3199.0,409.0,,,,-0.0105934893384643,-2.03613320703344,0.0857453754476987,,-11.528557847554083,,
,8441.0,1934.0,8565.0,3191.0,2337.0,3193.0,420.0,,,,-0.0104804041070595,-2.0367084416721,0.08567994841597,,-11.360194840602745,,
,8444.0,1934.0,8565.0,3191.0,2347.0,3198.0,431.0,,,,-0.0106343169506298,-2.03649037320226,0.0857266926982705,,-11.11720776052359,,
,8447.0,1936.0,8565.0,3193.0,2358.0,3198.0,423.0,,,,-0.0107062644033601,-2.03733843427647,0.0856382430069031,,-10.79175177925125,,
,8447.0,1937.0,8567.0,3194.0,2354.0,3189.0,419.0,,,,-0.0106496628059883,-2.03693095843075,0.0855824629368127,,-10.377546896754993,,
,8452.0,1936.0,8565.0,3192.0,2339.0,3193.0,407.0,,,,-0.010720033191051,-2.03731367880355,0.0856083528176098,,-9.870348931924106,,
,8452.0,1938.0,8567.0,3194.0,2336.0,3172.0,415.0,,,,-0.0107317015110526,-2.03744785463519,0.0855366769612144,,-9.26835894468172,,
,8452.0,1936.0,8566.0,3195.0,2354.0,3190.0,416.0,,,,-0.0108304314935372,-2.03792441688619,0.0856009106344026,,-8.572536383447229,,
2025-07-23 23:03:41,8456.0,1940.0,8569.0,3194.0,2340.0,3193.0,422.0,,,2025/07/23 11:03:41 PM,-0.0109254239398207,-2.03783729927387,0.0855573294983269,,-7.786781586350869,,
,8456.0,1939.0,8564.0,3191.0,2335.0,3167.0,418.0,,,,-0.0109515574907875,-2.03806780447354,0.0856256714853019,,-6.917957566676441,,
,8461.0,1939.0,8565.0,3194.0,2339.0,3162.0,405.0,,,,-0.0112138432674775,-2.03840108859154,0.0855418155184935,,-5.975730680358337,,
,8463.0,1940.0,8568.0,3196.0,2333.0,3190.0,399.0,,,,-0.0111718008644328,-2.03872869574195,0.0855437406802393,,-4.972225427539739,,
,8463.0,1939.0,8569.0,3195.0,2327.0,3197.0,394.0,,,,-0.011358331426767,-2.03913583188315,0.0854824339781243,,-3.921508620226025,,
,8463.0,1937.0,8565.0,3192.0,2321.0,3192.0,394.0,,,,-0.0114820135580884,-2.04007542075214,0.0855493253018296,,-2.838938397819207,,
,8463.0,1939.0,8565.0,3194.0,2335.0,3204.0,383.0,,,,-0.0115110289418028,-2.04017248947888,0.0855972519020839,,-1.7404295293769039,,
,8463.0,1938.0,8567.0,3195.0,2343.0,3197.0,403.0,,,,-0.0116769047700995,-2.04045397245201,0.0855802214401237,,-0.6416952017511754,,
,8463.0,1939.0,8567.0,3194.0,2350.0,3194.0,409.0,,,,-0.0117647911852415,-2.04094900865349,0.0855584330540488,,0.4424735971653925,,
,8462.0,1937.0,8567.0,3193.0,2374.0,3198.0,391.0,,,,-0.0119854386603095,-2.04109902014689,0.0856035518224545,,1.4988361368309098,,
,8463.0,1936.0,8568.0,3193.0,2364.0,3182.0,376.0,,,,-0.0120104283973014,-2.0410970975685,0.0854882943035899,,2.516194318121893,,
,8464.0,1939.0,8568.0,3193.0,2356.0,3182.0,379.0,,,,-0.0122170130919545,-2.04154517286331,0.0855865224189077,,3.4857221897247084,,
,8465.0,1939.0,8566.0,3194.0,2366.0,3182.0,412.0,,,,-0.0120807651597964,-2.04151221159497,0.0856432367042851,,4.401123755369271,,
,8462.0,1937.0,8568.0,3193.0,2371.0,3197.0,413.0,,,,-0.0121555833116192,-2.041278053338,0.0855634491462788,,5.258628843127832,,
,8461.0,1936.0,8565.0,3192.0,2347.0,3200.0,387.0,,,,-0.0121475023348273,-2.04072418565264,0.0856389606612264,,6.056853075466584,,
,8463.0,1940.0,8568.0,3193.0,2332.0,3203.0,404.0,,,,-0.0121411071922897,-2.04114843854916,0.085602795068699,,6.796558809972779,,
,8466.0,1938.0,8568.0,3195.0,2339.0,3207.0,393.0,,,,-0.0120401712277581,-2.04056032646781,0.0855838292077152,,7.480356941227633,,
,8465.0,1937.0,8569.0,3195.0,2337.0,3202.0,394.0,,,,-0.0118375129918428,-2.04130670781961,0.0855943372075115,,8.112384415905776,,
,8466.0,1937.0,8565.0,3191.0,2343.0,3210.0,403.0,,,,-0.0119841976946432,-2.04071779011798,0.085622332984715,,8.697981251923164,,
,8465.0,1937.0,8565.0,3193.0,2337.0,3196.0,399.0,,,,-0.0119688193541544,-2.03981140103772,0.085723714719649,,9.24337681871271,,
,8467.0,1940.0,8568.0,3194.0,2332.0,3186.0,410.0,,,,-0.0118777944029668,-2.03989467372631,0.0856380498404289,,9.755381109513873,,
,8470.0,1939.0,8572.0,3195.0,2337.0,3179.0,407.0,,,,-0.0119173406573358,-2.03928155914609,0.0857011415679581,,10.241065591244011,,
,8470.0,1940.0,8568.0,3193.0,2321.0,3188.0,391.0,,,,-0.0119446637115276,-2.03900371925019,0.085690918556486,,10.707412756973216,,
,8472.0,1941.0,8568.0,3192.0,2337.0,3205.0,381.0,,,,-0.0118455160690015,-2.03864473547652,0.0857276470129412,,11.160915741227342,,
,8472.0,1940.0,8569.0,3195.0,2328.0,3198.0,389.0,,,,-0.0117824887953274,-2.03820407538607,0.085701200835296,,11.60711962584563,,
,8475.0,1941.0,8568.0,3197.0,2323.0,3189.0,394.0,,,,-0.0118067028527653,-2.03873384553821,0.0856682681091921,,12.050112814886644,,
,8478.0,1940.0,8567.0,3198.0,2323.0,3191.0,384.0,,,,-0.0117549252129357,-2.038346638655,0.0856577316726691,,12.491996983871957,,
,8478.0,1942.0,8567.0,3195.0,2315.0,3187.0,397.0,,,,-0.0117185195121638,-2.03791364059766,0.0856774300971438,,12.932383378135082,,
,8484.0,1943.0,8569.0,3198.0,2326.0,3196.0,384.0,,,,-0.0116788075325519,-2.03767762698261,0.0856567164312852,,13.367977028138405,,
,8484.0,1946.0,8569.0,3195.0,2344.0,3186.0,400.0,,,,-0.0117064250193502,-2.03834198963684,0.0856368939554093,,13.792315061879227,,
,8486.0,1945.0,8567.0,3196.0,2334.0,3182.0,409.0,,,,-0.011658567525279,-2.03825926311265,0.0857041269178735,,14.195719121780225,,
,8486.0,1945.0,8571.0,3196.0,2313.0,3195.0,416.0,,,,-0.0117068108235645,-2.03865359909135,0.0856806286876292,,14.565505552566833,,
,8488.0,1948.0,8569.0,3197.0,2323.0,3192.0,388.0,,,,-0.0116960556397547,-2.03838036024161,0.0856688988877035,,14.886472582178275,,
,8493.0,1949.0,8571.0,3195.0,2328.0,3190.0,402.0,,,,-0.0117348567940535,-2.0390857580523,0.0856637205834217,,15.141654055717577,,
,8494.0,1947.0,8568.0,3197.0,2335.0,3192.0,400.0,,,,-0.0117220590141285,-2.03857480400627,0.0856608258634909,,15.313297960964098,,
,8495.0,1947.0,8568.0,3196.0,2337.0,3194.0,396.0,,,,-0.0117828907283433,-2.03891993264012,0.0856615598026521,,15.383998978305206,,
,8496.0,1948.0,8569.0,3197.0,2330.0,3197.0,385.0,,,,-0.0118416701448314,-2.03878401727799,0.0857323956372578,,15.337891471166872,,
,8499.0,1949.0,8572.0,3198.0,2361.0,3199.0,372.0,,,,-0.0119020515716573,-2.03904272841183,0.0856858333187654,,15.161796126141438,,
,8501.0,1948.0,8570.0,3197.0,2355.0,3196.0,390.0,,,,-0.0119882115768297,-2.0390425909135,0.0857103796431171,,14.846212560193674,,
,8505.0,1948.0,8570.0,3198.0,2344.0,3196.0,399.0,,,,-0.0119760843769866,-2.03906201141859,0.0856775497927792,,14.38606293167062,,
,8502.0,1949.0,8569.0,3198.0,2345.0,3203.0,397.0,,,,-0.0119887997286612,-2.03863400121901,0.085656402679164,,13.781116917361933,,
,8506.0,1952.0,8570.0,3196.0,2340.0,3202.0,410.0,,,,-0.0120920684103549,-2.03907770890115,0.0857313706471519,,13.03606290242968,,
,8508.0,1954.0,8572.0,3199.0,2343.0,3203.0,412.0,,,,-0.0120738185881009,-2.03899298787512,0.085692798913825,,12.160228844290902,,
,8510.0,1953.0,8570.0,3200.0,2336.0,3213.0,391.0,,,,-0.0120800016400446,-2.0391194810966,0.0857285177649394,,11.166993439450554,,
,8513.0,1952.0,8573.0,3196.0,2335.0,3208.0,379.0,,,,-0.0121859401927295,-2.0387176648625,0.0856923369703625,,10.072958555227311,,
,8516.0,1954.0,8570.0,3199.0,2347.0,3203.0,395.0,,,,-0.0121713538486057,-2.03822649247625,0.0856659932636704,,8.896973085068925,,
,8519.0,1955.0,8571.0,3198.0,2350.0,3193.0,382.0,,,,-0.0120485029506428,-2.0388206266197,0.0857149389642472,,7.659104407016094,,
,8519.0,1955.0,8570.0,3196.0,2346.0,3194.0,400.0,,,,-0.0120734307991554,-2.03881640868812,0.0857544810349913,,6.379647232252244,,
,8520.0,1953.0,8570.0,3199.0,2343.0,3201.0,406.0,,,,-0.0120728862875177,-2.03904350468613,0.0857316278279667,,5.07824367951214,,
,8520.0,1954.0,8572.0,3197.0,2345.0,3206.0,408.0,,,,-0.0121302785972952,-2.03893520821676,0.0857340441989813,,3.773166626222251,,
,8518.0,1950.0,8568.0,3195.0,2327.0,3197.0,415.0,,,,-0.0121074060945132,-2.03860091772223,0.0856892018718479,,2.4807946576135245,,
,8517.0,1951.0,8568.0,3196.0,2330.0,3184.0,415.0,,,,-0.0121958018905377,-2.03890073077068,0.0857678014502081,,1.2152849622373425,,
,8512.0,1947.0,8566.0,3191.0,2325.0,3184.0,394.0,,,,-0.0121656473719523,-2.03849912520439,0.0857818409762244,,-0.01156696013046732,,
,8508.0,1947.0,8570.0,3192.0,2319.0,3189.0,401.0,,,,-0.012236671697564,-2.03796024213903,0.0857999905571232,,-1.1903041125438087,,
,8501.0,1946.0,8571.0,3191.0,2327.0,3201.0,402.0,,,,-0.0123561379740335,-2.03770046351758,0.0857742123481764,,-2.3136527062888605,,
,8495.0,1943.0,8571.0,3194.0,2319.0,3201.0,389.0,,,,-0.0122677040695678,-2.03750945308992,0.0858725660551004,,-3.3762715796072493,,
,8488.0,1937.0,8567.0,3189.0,2313.0,3210.0,417.0,,,,-0.0123540868925028,-2.03800041521842,0.0858572545538296,,-4.374446487590751,,
,8476.0,1937.0,8568.0,3193.0,2318.0,3191.0,419.0,,,,-0.0124379950260309,-2.03763609705711,0.085958021803435,,-5.305769805901871,,
,8473.0,1932.0,8567.0,3190.0,2335.0,3184.0,414.0,,,,-0.0125054310484239,-2.03794218384473,0.0859568921674027,,-6.168842651232062,,
,8467.0,1933.0,8568.0,3193.0,2342.0,3192.0,430.0,,,,-0.0125499746020782,-2.03757563455853,0.0859169814483357,,-6.963028950611052,,
,8464.0,1933.0,8569.0,3191.0,2342.0,3210.0,421.0,,,,-0.0125253627741673,-2.03796462399717,0.0859332371299053,,-7.68828070273479,,
,8454.0,1931.0,8567.0,3191.0,2351.0,3190.0,414.0,,,,-0.0125938101895266,-2.03819373246897,0.0859630554797412,,-8.345042262247867,,
,8455.0,1927.0,8566.0,3188.0,2342.0,3199.0,413.0,,,,-0.0126229397283816,-2.03828083211623,0.0858434102893153,,-8.934230531337978,,
,8451.0,1927.0,8566.0,3193.0,2335.0,3201.0,386.0,,,,-0.0127139787740589,-2.03796151698084,0.0859408372486498,,-9.457278416947716,,
,8449.0,1928.0,8569.0,3193.0,2349.0,3194.0,384.0,,,,-0.0129782705337877,-2.03830517079641,0.0859895368368559,,-9.916221061409775,,
,8446.0,1926.0,8565.0,3190.0,2356.0,3190.0,358.0,,,,-0.0130059033095909,-2.03795760300338,0.0860082348601302,,-10.313798322289731,,
,8446.0,1929.0,8570.0,3192.0,2359.0,3200.0,348.0,,,,-0.013168577165071,-2.03750820190119,0.0860085044450644,,-10.653543619992503,,
,8446.0,1927.0,8572.0,3191.0,2356.0,3201.0,366.0,,,,-0.0130810844545508,-2.03748198536941,0.0859926693988522,,-10.939830196862301,,
,8447.0,1928.0,8568.0,3194.0,2353.0,3202.0,378.0,,,,-0.0130977380275201,-2.03767153502943,0.085987025379456,,-11.177852130661318,,
,8446.0,1926.0,8566.0,3191.0,2340.0,3215.0,382.0,,,,-0.0132667513714243,-2.037758525261,0.0860130709975928,,-11.373528216371929,,
,8448.0,1926.0,8570.0,3192.0,2342.0,3196.0,386.0,,,,-0.0131707695875892,-2.03764806022531,0.0860271194057247,,-11.533329181508137,,
,8450.0,1928.0,8570.0,3195.0,2354.0,3190.0,384.0,,,,-0.0132532812900164,-2.03769585310368,0.085979164233221,,-11.664039346310377,,
,8454.0,1928.0,8569.0,3192.0,2352.0,3182.0,394.0,,,,-0.0133761040434343,-2.03822078982946,0.0860284161184258,,-11.772470742581858,,
,8454.0,1928.0,8566.0,3193.0,2338.0,3183.0,407.0,,,,-0.0134872884040651,-2.03855357146173,0.0860199841978177,,-11.86515053302323,,
,8457.0,1930.0,8571.0,3196.0,2341.0,3187.0,414.0,,,,-0.0136375317541292,-2.03928024405875,0.0860184351472668,,-11.948002159396168,,
,8457.0,1931.0,8571.0,3197.0,2346.0,3202.0,387.0,,,,-0.0138110433646765,-2.039119806179,0.0859762734014432,,-12.026038216073871,,
,8463.0,1933.0,8571.0,3196.0,2342.0,3198.0,392.0,,,,-0.013785340011762,-2.0395663258814,0.0859678121340102,,-12.103079649186267,,
,8464.0,1930.0,8571.0,3196.0,2327.0,3192.0,398.0,,,,-0.013830018275302,-2.03967799332743,0.0859902566847935,,-12.181512175538195,,
,8467.0,1932.0,8572.0,3194.0,2332.0,3190.0,403.0,,,,-0.0137430656228994,-2.0404607640181,0.0859509827962514,,-12.262087263049724,,
,8467.0,1934.0,8569.0,3196.0,2338.0,3196.0,405.0,,,,-0.0138228921300421,-2.04025516173022,0.0859264513016993,,-12.343772414122826,,
,8468.0,1934.0,8573.0,3196.0,2324.0,3202.0,402.0,,,,-0.0139046681348768,-2.04047525393793,0.0859280151690987,,-12.423655149086617,,
,8472.0,1935.0,8571.0,3193.0,2321.0,3207.0,418.0,,,,-0.0139349259345573,-2.04119590524274,0.0859196411278576,,-12.496907903583185,,
,8469.0,1935.0,8572.0,3193.0,2311.0,3199.0,421.0,,,,-0.0141442773866576,-2.04127208406678,0.0859237685367684,,-12.55682611266728,,
,8476.0,1934.0,8574.0,3196.0,2313.0,3186.0,434.0,,,,-0.0141101128045009,-2.04190052134699,0.0858796899795475,,-12.59495613956637,,
,8478.0,1936.0,8573.0,3195.0,2325.0,3184.0,440.0,,,,-0.0142634589662707,-2.04239616305632,0.0858833914058672,,-12.601330205867033,,
,8480.0,1936.0,8572.0,3193.0,2340.0,3182.0,432.0,,,,-0.0143817267601687,-2.04266223200801,0.0858979728548342,,-12.564820492119498,,
,8478.0,1934.0,8570.0,3195.0,2339.0,3181.0,419.0,,,,-0.0144870249535396,-2.0431621177585,0.0859320388118298,,-12.473614555843,,
,8479.0,1936.0,8573.0,3196.0,2335.0,3205.0,397.0,,,,-0.014587864117845,-2.04326750743595,0.0859176243759355,,-12.31580088209444,,
,8479.0,1936.0,8572.0,3195.0,2354.0,3201.0,402.0,,,,-0.0146402959651855,-2.04341142674476,0.0858908834127824,,-12.080038824056162,,
,8481.0,1938.0,8573.0,3197.0,2351.0,3202.0,399.0,,,,-0.0148170084489018,-2.0437642306453,0.0858644193849041,,-11.756273271044737,,
,8479.0,1935.0,8571.0,3193.0,2328.0,3207.0,408.0,,,,-0.0149739602580394,-2.04420663163779,0.0858325341307659,,-11.33644254793281,,
,8479.0,1936.0,8571.0,3195.0,2357.0,3199.0,422.0,,,,-0.0151236435525547,-2.04412652744471,0.0858440386971012,,-10.815119696923617,,
,8481.0,1934.0,8573.0,3196.0,2342.0,3200.0,396.0,,,,-0.0151873230432286,-2.04423460869968,0.085802854716223,,-10.19002446846246,,
,8483.0,1935.0,8574.0,3195.0,2342.0,3192.0,403.0,,,,-0.0152163943809079,-2.04418261064142,0.0857980646720501,,-9.462348731172433,,
,8483.0,1935.0,8574.0,3195.0,2345.0,3189.0,407.0,,,,-0.015382392250199,-2.04424883731162,0.0859018840864296,,-8.636853339274875,,
,8484.0,1937.0,8573.0,3196.0,2345.0,3199.0,408.0,,,,-0.0155141419209747,-2.04389204882697,0.0858899828805666,,-7.721718568345055,,
,8485.0,1938.0,8575.0,3197.0,2348.0,3199.0,414.0,,,,-0.0154805275834457,-2.04375805270104,0.0858986547733408,,-6.728158595754312,,
,8487.0,1938.0,8573.0,3196.0,2332.0,3205.0,413.0,,,,-0.0154090181482849,-2.04390104765119,0.0858986882326946,,-5.669837325854963,,
,8487.0,1937.0,8572.0,3195.0,2327.0,3181.0,397.0,,,,-0.0155182891913866,-2.04396245459272,0.0859187734835067,,-4.562143328261748,,
,8488.0,1935.0,8574.0,3194.0,2324.0,3200.0,378.0,,,,-0.0154550809727664,-2.04336688314976,0.0859100098947565,,-3.4213932156409546,,
,8490.0,1939.0,8575.0,3197.0,2338.0,3208.0,397.0,,,,-0.0153993159424405,-2.04329368225318,0.085908834702134,,-2.264034945635829,,
,8492.0,1940.0,8575.0,3197.0,2349.0,3196.0,399.0,,,,-0.0152584538842486,-2.04265058075672,0.0859177176959285,,-1.105916024454953,,
,8496.0,1939.0,8575.0,3196.0,2351.0,3192.0,394.0,,,,-0.0151406361340443,-2.04256415124245,0.0859186691912677,,0.03833228742413952,,
,8495.0,1939.0,8573.0,3197.0,2344.0,3188.0,399.0,,,,-0.0151669747943821,-2.04258956989517,0.0859145102066654,,1.1557630708796303,,
,8499.0,1942.0,8574.0,3198.0,2334.0,3189.0,393.0,,,,-0.0151847759207035,-2.04228766521856,0.0859169930310362,,2.235424443294349,,
,8500.0,1941.0,8573.0,3198.0,2335.0,3194.0,405.0,,,,-0.0150830218823678,-2.04216932110393,0.0859100343293319,,3.268523523410273,,
,8502.0,1942.0,8573.0,3196.0,2342.0,3184.0,399.0,,,,-0.0151497506869432,-2.04237168033304,0.0859104590786029,,4.248468755683826,,
,8503.0,1941.0,8572.0,3194.0,2338.0,3204.0,400.0,,,,-0.0150901197326957,-2.04196111719956,0.0859602890113458,,5.170821735417205,,
,8507.0,1943.0,8575.0,3197.0,2317.0,3196.0,411.0,,,,-0.0150686451660681,-2.04168227113289,0.085948378153579,,6.033187923410467,,
,8510.0,1944.0,8578.0,3199.0,2309.0,3202.0,414.0,,,,-0.0150220542448669,-2.04120801665799,0.0859753944118978,,6.835068740456536,,
,8511.0,1944.0,8576.0,3196.0,2321.0,3192.0,419.0,,,,-0.0149581595693548,-2.04122551214597,0.0859657855511942,,7.577688499074156,,
,8513.0,1943.0,8575.0,3197.0,2330.0,3196.0,403.0,,,,-0.0148890859354953,-2.04116298273815,0.0859795278991661,,8.2638008988898,,
,8515.0,1945.0,8573.0,3197.0,2325.0,3223.0,422.0,,,,-0.014979920270149,-2.04092567475648,0.0859658864967938,,8.897473323559117,,
,8516.0,1947.0,8576.0,3198.0,2326.0,3226.0,428.0,,,,-0.0150795315703622,-2.04105717048974,0.0859497042278831,,9.483844389560838,,
,8521.0,1947.0,8576.0,3201.0,2324.0,3217.0,421.0,,,,-0.0150827772951497,-2.04183561341701,0.0859652174694762,,10.028851513525584,,
,8524.0,1950.0,8576.0,3199.0,2324.0,3218.0,416.0,,,,-0.0150708961601238,-2.04179154276122,0.0859571155348995,,10.538929559460296,,
,8525.0,1949.0,8576.0,3198.0,2332.0,3197.0,431.0,,,,-0.0150157801750811,-2.04196135117942,0.0859503618251576,,11.020686614141619,,
,8529.0,1952.0,8579.0,3201.0,2345.0,3185.0,428.0,,,,-0.015244779800477,-2.04198468966209,0.0859291451544111,,11.4805662231203,,
,8533.0,1954.0,8579.0,3200.0,2315.0,3189.0,412.0,,,,-0.0152059916898915,-2.04221200401867,0.0859296030677732,,11.924505616374153,,
,8532.0,1953.0,8579.0,3202.0,2324.0,3200.0,409.0,,,,-0.0152133914590332,-2.04193390992041,0.0859207050143766,,12.357596924700811,,
,8533.0,1949.0,8576.0,3198.0,2330.0,3192.0,398.0,,,,-0.015203071899835,-2.04248776213448,0.0859007010265495,,12.78375520603461,,
,8539.0,1953.0,8577.0,3201.0,2317.0,3192.0,408.0,,,,-0.0153021843565106,-2.04246445069306,0.0859490161584127,,13.205395939403525,,
,8541.0,1954.0,8577.0,3198.0,2328.0,3197.0,414.0,,,,-0.015276241390782,-2.04252533296921,0.0859102221859141,,13.623127179597063,,
,8543.0,1955.0,8578.0,3199.0,2320.0,3213.0,417.0,,,,-0.0153255495328451,-2.04270097518698,0.0859350698766657,,14.035467673757083,,
,8545.0,1951.0,8577.0,3200.0,2311.0,3226.0,416.0,,,,-0.0153442537192132,-2.04261429102368,0.0859249389741549,,14.438610483111043,,
,8548.0,1955.0,8579.0,3200.0,2314.0,3214.0,424.0,,,,-0.0155208865526158,-2.04281632539609,0.0859255383021011,,14.826260161653819,,
,8550.0,1958.0,8580.0,3201.0,2317.0,3208.0,411.0,,,,-0.0154383983623883,-2.04250103687746,0.0859039780835391,,15.189578446458649,,
,8550.0,1959.0,8581.0,3201.0,2309.0,3190.0,390.0,,,,-0.0154518595420128,-2.0425301589211,0.0859359491984439,,15.517276831940443,,
2025-07-23 23:03:42,8553.0,1957.0,8578.0,3199.0,2332.0,3213.0,401.0,,,2025/07/23 11:03:42 PM,-0.0154943826631343,-2.04196544435469,0.0859681976595144,,15.795892344636291,,
,8556.0,1957.0,8577.0,3201.0,2332.0,3209.0,399.0,,,,-0.0153538880713344,-2.04245733036371,0.0859389087685958,,16.010273270306634,,
,8557.0,1959.0,8579.0,3199.0,2343.0,3231.0,400.0,,,,-0.0153892476233927,-2.04207750941545,0.0859417328078902,,16.14428306930336,,
,8558.0,1958.0,8577.0,3199.0,2334.0,3239.0,401.0,,,,-0.0153846604267764,-2.04177626872068,0.085943936714276,,16.18170374916702,,
,8557.0,1958.0,8577.0,3200.0,2319.0,3241.0,426.0,,,,-0.0153468718676478,-2.0419819418842,0.0859757374162067,,16.10728804433599,,
,8556.0,1955.0,8576.0,3195.0,2303.0,3201.0,404.0,,,,-0.0153155059197587,-2.04173904932898,0.0859554906912761,,15.907878695605005,,
,8553.0,1955.0,8578.0,3196.0,2303.0,3212.0,412.0,,,,-0.0153333626305809,-2.04172680653101,0.0859625421731945,,15.573488921963932,,
,8550.0,1951.0,8578.0,3194.0,2296.0,3196.0,422.0,,,,-0.015520910335582,-2.0416491676854,0.0859410383655192,,15.098225599251537,,
,8544.0,1951.0,8579.0,3195.0,2309.0,3189.0,429.0,,,,-0.0153871634187582,-2.04109472976034,0.0859789911135976,,14.48093946358138,,
,8537.0,1947.0,8574.0,3195.0,2308.0,3180.0,426.0,,,,-0.0153913409093509,-2.04162699657035,0.0859186189869426,,13.725507689067438,,
,8532.0,1945.0,8577.0,3195.0,2281.0,3188.0,409.0,,,,-0.0153340354886785,-2.04146630770631,0.0859457409351334,,12.840693856016376,,
,8524.0,1941.0,8576.0,3194.0,2295.0,3195.0,428.0,,,,-0.0153974644523511,-2.04152098155898,0.0859476726186963,,11.83958464381655,,
,8521.0,1941.0,8576.0,3194.0,2295.0,3214.0,415.0,,,,-0.015608355216446,-2.04183740984977,0.0859726997932699,,10.738662796774184,,
,8509.0,1940.0,8574.0,3192.0,2320.0,3216.0,399.0,,,,-0.0156898965908174,-2.04198905320354,0.0859623321569523,,9.556630132064297,,
,8505.0,1937.0,8574.0,3194.0,2329.0,3187.0,417.0,,,,-0.0157198712456089,-2.04179745801541,0.0859504399472274,,8.313130601396004,,
,8500.0,1937.0,8576.0,3193.0,2321.0,3184.0,395.0,,,,-0.0157669583991524,-2.04187657702299,0.0859791300010569,,7.027533334748574,,
,8498.0,1935.0,8578.0,3193.0,2315.0,3185.0,391.0,,,,-0.015671020319938,-2.04137524699879,0.0859904787747318,,5.717917493118318,,
,8491.0,1933.0,8576.0,3196.0,2319.0,3196.0,387.0,,,,-0.0157529952657037,-2.04153403374501,0.0859749406332645,,4.400359872618036,,
,8489.0,1934.0,8574.0,3192.0,2339.0,3189.0,379.0,,,,-0.0157637273703858,-2.0417879324179,0.0859790383868154,,3.0885720447614657,,
,8491.0,1933.0,8574.0,3195.0,2338.0,3207.0,406.0,,,,-0.0156896482526505,-2.04189845650573,0.0859783788394546,,1.793876993365248,,
,8488.0,1933.0,8579.0,3191.0,2346.0,3199.0,406.0,,,,-0.015694370216436,-2.04129011514005,0.0859860108502761,,0.5254654933270254,,
,8487.0,1931.0,8578.0,3194.0,2339.0,3202.0,397.0,,,,-0.0156166038459593,-2.04101579968583,0.0859742392549346,,-0.7091624266742584,,
,8487.0,1932.0,8574.0,3190.0,2316.0,3203.0,404.0,,,,-0.015665788444521,-2.04080639224457,0.0859951291376738,,-1.9036812552700424,,
,8490.0,1933.0,8578.0,3195.0,2322.0,3209.0,382.0,,,,-0.0156177697566896,-2.04024370160584,0.0860023104271741,,-3.0524550857967316,,
,8489.0,1933.0,8578.0,3197.0,2322.0,3232.0,398.0,,,,-0.0156064654637136,-2.0406757020174,0.0859939570610628,,-4.150168597037633,,
,8489.0,1934.0,8578.0,3195.0,2318.0,3232.0,410.0,,,,-0.0156070350163493,-2.04022861190162,0.0860020681469843,,-5.1916248785750065,,
,8492.0,1933.0,8578.0,3195.0,2316.0,3232.0,390.0,,,,-0.0155845538157367,-2.04076961533976,0.0859895193053774,,-6.171722445859308,,
,8493.0,1935.0,8579.0,3197.0,2317.0,3227.0,406.0,,,,-0.0156163677987834,-2.04051030687746,0.0860117434273082,,-7.085588373291213,,
,8496.0,1936.0,8580.0,3195.0,2302.0,3208.0,399.0,,,,-0.0157047065968724,-2.04114464022993,0.0859860016729918,,-7.928819409789776,,
,8498.0,1940.0,8582.0,3198.0,2322.0,3206.0,412.0,,,,-0.01567251168321,-2.04117835637392,0.0859980107110848,,-8.697771974596812,,
,8497.0,1936.0,8580.0,3198.0,2328.0,3191.0,417.0,,,,-0.0157192241659212,-2.04135740368644,0.0860014979939087,,-9.389844343331504,,
,8500.0,1937.0,8581.0,3198.0,2334.0,3194.0,409.0,,,,-0.0157028780745271,-2.04135765241089,0.0859611260582236,,-10.00370616324937,,
,8504.0,1940.0,8581.0,3198.0,2335.0,3199.0,425.0,,,,-0.0156701956287066,-2.04166963122844,0.0859750210982123,,-10.539446833801247,,
,8507.0,1940.0,8578.0,3196.0,2327.0,3210.0,432.0,,,,-0.0155017397734219,-2.04152678223714,0.0859830669416056,,-10.998631197051639,,
,8510.0,1942.0,8582.0,3198.0,2330.0,3216.0,413.0,,,,-0.0155214578176623,-2.04196368328986,0.0860068985959946,,-11.38426557005541,,
,8509.0,1939.0,8580.0,3199.0,2335.0,3212.0,414.0,,,,-0.0155561902362022,-2.04187005887734,0.0859939528154436,,-11.700687643688353,,
,8514.0,1943.0,8580.0,3198.0,2303.0,3199.0,419.0,,,,-0.0154823718016682,-2.04193915332302,0.0859980733602584,,-11.95339924652725,,
,8517.0,1943.0,8582.0,3198.0,2278.0,3198.0,428.0,,,,-0.0155303007337632,-2.0421093043228,0.0859832003431058,,-12.148861237648644,,
,8518.0,1941.0,8581.0,3200.0,2284.0,3206.0,427.0,,,,-0.0155020373436985,-2.0422839416072,0.0859687657219571,,-12.294265474613614,,
,8515.0,1943.0,8579.0,3197.0,2282.0,3200.0,430.0,,,,-0.0156004306803421,-2.04191515262993,0.085963970559996,,-12.397291685781777,,
,8518.0,1942.0,8582.0,3198.0,2295.0,3183.0,432.0,,,,-0.0156328469121775,-2.04287019725857,0.0859531897858132,,-12.465850211255598,,
,8519.0,1945.0,8582.0,3201.0,2280.0,3201.0,430.0,,,,-0.0156562008103656,-2.04298785397238,0.0859833829179088,,-12.507808274390303,,
,8520.0,1940.0,8580.0,3196.0,2291.0,3204.0,422.0,,,,-0.015685299017464,-2.04298368498533,0.085955780455587,,-12.530699292434658,,
,8517.0,1940.0,8580.0,3196.0,2315.0,3210.0,414.0,,,,-0.0156538913181993,-2.04356424481093,0.0859979891333773,,-12.541420503548222,,
,8522.0,1942.0,8582.0,3196.0,2305.0,3219.0,412.0,,,,-0.0158029604390666,-2.0436940545213,0.0859606911827102,,-12.545930939636538,,
,8523.0,1944.0,8584.0,3197.0,2319.0,3203.0,399.0,,,,-0.0159254209706242,-2.04404776143288,0.0859763313334858,,-12.54896692300368,,
,8522.0,1941.0,8581.0,3199.0,2321.0,3198.0,399.0,,,,-0.0159547366704861,-2.04417255296586,0.0859831440597981,,-12.553794658547206,,
,8521.0,1942.0,8580.0,3199.0,2308.0,3205.0,395.0,,,,-0.0160046095887239,-2.04392462660299,0.0859532671805934,,-12.562019211260989,,
,8522.0,1942.0,8582.0,3196.0,2343.0,3194.0,412.0,,,,-0.0157965069302617,-2.04377397682113,0.085939249152973,,-12.573466820040483,,
,8523.0,1943.0,8581.0,3199.0,2323.0,3187.0,416.0,,,,-0.0158662947207288,-2.04366444627145,0.0859403674889801,,-12.586153646469896,,
,8524.0,1943.0,8585.0,3200.0,2322.0,3188.0,425.0,,,,-0.0158962995914847,-2.04354920166491,0.0859220654081804,,-12.596348805229518,,
,8525.0,1941.0,8582.0,3197.0,2343.0,3193.0,419.0,,,,-0.0159614521882507,-2.04357422975061,0.0859614935674865,,-12.598732673588664,,
,8525.0,1944.0,8582.0,3197.0,2302.0,3206.0,406.0,,,,-0.0158372529059118,-2.04290449564996,0.0859779832443164,,-12.586643218959846,,
,8527.0,1941.0,8584.0,3197.0,2310.0,3214.0,419.0,,,,-0.0157349070382868,-2.04288877992666,0.085948635267309,,-12.552394727536068,,
,8529.0,1944.0,8583.0,3201.0,2299.0,3193.0,426.0,,,,-0.0156212679085456,-2.04232533399048,0.0859597318355134,,-12.487647069760493,,
,8530.0,1945.0,8584.0,3199.0,2294.0,3192.0,420.0,,,,-0.0154995192827446,-2.04245875290267,0.0860096459630804,,-12.383801196840992,,
,8529.0,1945.0,8582.0,3196.0,2309.0,3208.0,401.0,,,,-0.0152389210270603,-2.04187165790649,0.0859902100481218,,-12.232397852765072,,
,8532.0,1946.0,8585.0,3201.0,2328.0,3213.0,389.0,,,,-0.0152080476514623,-2.04159813984461,0.0859934442240042,,-12.025499947557112,,
,8536.0,1947.0,8584.0,3203.0,2325.0,3196.0,406.0,,,,-0.0150579761087347,-2.04123276882214,0.0860204079350044,,-11.756043051234473,,
,8537.0,1948.0,8584.0,3200.0,2328.0,3199.0,407.0,,,,-0.0150324891313733,-2.04145754335426,0.0860081681003901,,-11.41814230513804,,
,8536.0,1947.0,8582.0,3199.0,2322.0,3210.0,399.0,,,,-0.015022521331921,-2.04130681509053,0.0860070003640515,,-11.007347678436327,,
,8541.0,1949.0,8586.0,3200.0,2332.0,3209.0,400.0,,,,-0.015080102450285,-2.040957015452,0.0860070528936163,,-10.520842954568742,,
,8542.0,1949.0,8586.0,3198.0,2330.0,3198.0,408.0,,,,-0.0151014121528204,-2.04069806144452,0.0859890337074371,,-9.957586812183,,
,8546.0,1949.0,8587.0,3202.0,2317.0,3195.0,409.0,,,,-0.0151173565839016,-2.04064636123772,0.0860022949984815,,-9.318396287713266,,
,8545.0,1950.0,8585.0,3201.0,2297.0,3214.0,405.0,,,,-0.0151251352608412,-2.04053856606175,0.0860222450512922,,-8.60597336548547,,
,8549.0,1953.0,8589.0,3202.0,2304.0,3207.0,406.0,,,,-0.0151110409949261,-2.04051249474082,0.0860082350873471,,-7.824874622660668,,
,8552.0,1955.0,8586.0,3205.0,2296.0,3196.0,416.0,,,,-0.0150248002850277,-2.04045326349241,0.0860203796369948,,-6.981422570974501,,
,8555.0,1953.0,8587.0,3202.0,2305.0,3188.0,415.0,,,,-0.0149970580397964,-2.04060641036782,0.0860060321001524,,-6.083556679016864,,
,8556.0,1954.0,8588.0,3201.0,2306.0,3178.0,409.0,,,,-0.0149896267224612,-2.04017509091928,0.0860417944867,,-5.140622777550854,,
,8559.0,1955.0,8586.0,3199.0,2307.0,3193.0,412.0,,,,-0.0149238963591998,-2.04047495538552,0.0860545315708933,,-4.163101624749381,,
,8559.0,1955.0,8587.0,3201.0,2315.0,3212.0,424.0,,,,-0.0148686477088361,-2.04058508629781,0.0860318164484955,,-3.162280523485373,,
,8563.0,1957.0,8587.0,3204.0,2316.0,3223.0,417.0,,,,-0.014897143510422,-2.04063075647959,0.086046754953733,,-2.1498762770562725,,
,8569.0,1958.0,8587.0,3202.0,2310.0,3206.0,412.0,,,,-0.0146980888451523,-2.04022280625647,0.0860441537381515,,-1.1376240021371449,,
,8567.0,1958.0,8587.0,3201.0,2303.0,3227.0,416.0,,,,-0.0145938043839659,-2.04032225873619,0.0860439035809131,,-0.13685390361954833,,
,8569.0,1956.0,8586.0,3203.0,2300.0,3215.0,393.0,,,,-0.0145023325427319,-2.04017879613155,0.0860574448805459,,0.8419152781759828,,
,8572.0,1958.0,8588.0,3203.0,2291.0,3210.0,391.0,,,,-0.0145704410915055,-2.04016368163252,0.0860656065939269,,1.7893350605225746,,
,8574.0,1961.0,8586.0,3202.0,2303.0,3195.0,403.0,,,,-0.0146429758072966,-2.04050075264565,0.0860539307695332,,2.6975112536248584,,
,8577.0,1958.0,8585.0,3202.0,2305.0,3190.0,413.0,,,,-0.0145851240982956,-2.04042147753657,0.0860419024902196,,3.5601966166147214,,
,8578.0,1960.0,8589.0,3200.0,2320.0,3206.0,421.0,,,,-0.0146011763248773,-2.04065765233944,0.0860466914608049,,4.3728894001682805,,
,8580.0,1960.0,8591.0,3203.0,2339.0,3205.0,421.0,,,,-0.0146993759930733,-2.04014235217454,0.0860629009055427,,5.13284803825527,,
,8582.0,1964.0,8586.0,3203.0,2322.0,3204.0,408.0,,,,-0.0148032174388425,-2.04014290829736,0.086054680180275,,5.839040245934702,,
,8585.0,1964.0,8589.0,3205.0,2322.0,3201.0,416.0,,,,-0.0147775909088111,-2.04028869330725,0.0860354879999686,,6.4920460477894775,,
,8587.0,1963.0,8588.0,3201.0,2313.0,3204.0,415.0,,,,-0.014829635898074,-2.04037857279615,0.0860753045275548,,7.093930118523327,,
,8591.0,1963.0,8590.0,3205.0,2325.0,3202.0,426.0,,,,-0.0147472488516617,-2.04029726873057,0.0860556816226718,,7.648092231701548,,
,8590.0,1966.0,8589.0,3204.0,2317.0,3210.0,421.0,,,,-0.0147993926032539,-2.03994990298511,0.0860946674933385,,8.159098323851936,,
,8591.0,1965.0,8590.0,3203.0,2317.0,3218.0,415.0,,,,-0.0146348869329064,-2.0399262165525,0.0860991805076395,,8.632490374075141,,
,8595.0,1964.0,8590.0,3200.0,2286.0,3235.0,403.0,,,,-0.0144822148821756,-2.03950004402816,0.0861180389795269,,9.074571664229325,,
,8593.0,1964.0,8588.0,3202.0,2295.0,3225.0,392.0,,,,-0.014411714610203,-2.03897469600578,0.0860813032661593,,9.492164986217212,,
,8597.0,1968.0,8591.0,3204.0,2296.0,3235.0,404.0,,,,-0.0145136974302327,-2.0381331655192,0.0861095941766613,,9.89234460643382,,
,8594.0,1964.0,8591.0,3198.0,2283.0,3227.0,395.0,,,,-0.0144874611314548,-2.03824262801414,0.0861184623559248,,10.28214782064608,,
,8592.0,1962.0,8587.0,3196.0,2280.0,3197.0,427.0,,,,-0.0143371569063339,-2.0379099924368,0.0861373002341364,,10.668277949874982,,
,8588.0,1960.0,8588.0,3199.0,2301.0,3189.0,442.0,,,,-0.0144539135639318,-2.03780240035948,0.0861053185869148,,11.056815860757013,,
,8587.0,1958.0,8589.0,3198.0,2289.0,3183.0,426.0,,,,-0.0144677969188648,-2.03782839639595,0.0861533770712324,,11.452958801853901,,
,8580.0,1956.0,8585.0,3197.0,2289.0,3186.0,421.0,,,,-0.0143833409519511,-2.03759642179553,0.0861537231429184,,11.860801359835289,,
,8571.0,1955.0,8587.0,3197.0,2290.0,3198.0,438.0,,,,-0.0145411617283852,-2.03791306446527,0.0861691655513153,,12.28316402271397,,
,8562.0,1953.0,8586.0,3196.0,2295.0,3208.0,437.0,,,,-0.014749913251873,-2.03801742918829,0.0861498055438121,,12.721463404738454,,
,8559.0,1952.0,8585.0,3197.0,2299.0,3204.0,421.0,,,,-0.0146722242666117,-2.03741545197398,0.0861742937469735,,13.175608858709197,,
,8554.0,1947.0,8585.0,3195.0,2303.0,3188.0,413.0,,,,-0.0146997941846763,-2.0376595070245,0.0861818116000952,,13.643905972442207,,
,8547.0,1946.0,8584.0,3196.0,2300.0,3196.0,398.0,,,,-0.0148137781840936,-2.03771901733873,0.0861716412158118,,14.122949314262394,,
,8540.0,1942.0,8583.0,3194.0,2283.0,3197.0,408.0,,,,-0.0150372563202271,-2.03711766586218,0.0861642010507316,,14.607494463339231,,
,8537.0,1945.0,8588.0,3196.0,2301.0,3215.0,424.0,,,,-0.0150629706586195,-2.03737122908289,0.0861803214651984,,15.090312133916754,,
,8532.0,1944.0,8585.0,3198.0,2301.0,3203.0,408.0,,,,-0.015048770089085,-2.03706881871938,0.0861753682431685,,15.562044038634665,,
,8531.0,1943.0,8588.0,3196.0,2304.0,3200.0,414.0,,,,-0.0151313331769657,-2.03715291047428,0.0861887113290193,,16.01109892606909,,
,8526.0,1942.0,8588.0,3195.0,2293.0,3211.0,386.0,,,,-0.0150714405850012,-2.03672257872436,0.0862018704154346,,16.423643966148923,,
,8527.0,1942.0,8586.0,3198.0,2290.0,3209.0,406.0,,,,-0.0151226069324446,-2.03638599077856,0.0862204380213002,,16.78375544491478,,
,8525.0,1940.0,8587.0,3196.0,2292.0,3210.0,399.0,,,,-0.0151598294220599,-2.03661671815597,0.0862314115155178,,17.073787348062815,,
,8525.0,1943.0,8587.0,3196.0,2307.0,3212.0,393.0,,,,-0.0151684419324016,-2.03645586815735,0.0862284761506712,,17.27499341332706,,
,8524.0,1940.0,8587.0,3196.0,2297.0,3216.0,388.0,,,,-0.0150696641398189,-2.03594650093043,0.0862214369979995,,17.368399882549674,,
,8526.0,1942.0,8590.0,3198.0,2279.0,3225.0,380.0,,,,-0.015128107765819,-2.03592277149873,0.0862370285617979,,17.33588059255822,,
,8528.0,1944.0,8590.0,3198.0,2286.0,3226.0,391.0,,,,-0.0152598234056906,-2.03570819982338,0.0862627455171085,,17.16134384087622,,
,8529.0,1945.0,8590.0,3200.0,2295.0,3219.0,385.0,,,,-0.0154026093586649,-2.03564746641185,0.0862548820948221,,16.831910835072435,,
,8532.0,1942.0,8589.0,3197.0,2283.0,3213.0,391.0,,,,-0.0156142187744865,-2.03582102862677,0.0862283535501811,,16.338954325305604,,
,8533.0,1945.0,8588.0,3198.0,2296.0,3197.0,402.0,,,,-0.0156647991015286,-2.03632144703529,0.086266537315958,,15.678875564206121,,
,8534.0,1946.0,8589.0,3200.0,2320.0,3188.0,409.0,,,,-0.0157356364259919,-2.03630471612513,0.0862789556868251,,14.853526945763809,,
,8537.0,1947.0,8590.0,3200.0,2309.0,3186.0,413.0,,,,-0.0158443280412357,-2.03631532284354,0.0862516777651866,,13.870232130010292,,
,8541.0,1949.0,8589.0,3201.0,2299.0,3189.0,399.0,,,,-0.0159384647935004,-2.03598598065641,0.0862540656835911,,12.741407989606973,,
,8541.0,1948.0,8588.0,3200.0,2290.0,3212.0,428.0,,,,-0.0157367111483632,-2.03618183225368,0.0862561705448793,,11.483844324154617,,
,8543.0,1949.0,8588.0,3202.0,2304.0,3216.0,420.0,,,,-0.0157127576338026,-2.03595846447644,0.0862883015977405,,10.117738346237902,,
,8545.0,1951.0,8592.0,3199.0,2305.0,3202.0,431.0,,,,-0.0156969328657102,-2.03612331240719,0.0862837929287058,,8.665603123870175,,
,8548.0,1953.0,8591.0,3200.0,2301.0,3211.0,432.0,,,,-0.0154818546892458,-2.03600866680243,0.0863017458659906,,7.151168331695728,,
,8549.0,1952.0,8588.0,3199.0,2297.0,3220.0,421.0,,,,-0.0155168249202047,-2.03591451884036,0.0863036635699903,,5.598370124529176,,
,8551.0,1952.0,8588.0,3200.0,2291.0,3204.0,438.0,,,,-0.0156171562544068,-2.03599553186286,0.0862992250010234,,4.030492820516057,,
,8553.0,1954.0,8591.0,3201.0,2283.0,3199.0,438.0,,,,-0.0155856715725202,-2.0358015607051,0.0863051515633969,,2.469488707071831,,
,8554.0,1952.0,8592.0,3203.0,2288.0,3204.0,432.0,,,,-0.0157405409401089,-2.03612492369339,0.0863260357356385,,0.9354721748046255,,
,8555.0,1949.0,8589.0,3200.0,2285.0,3217.0,431.0,,,,-0.0157329004556108,-2.03639712963037,0.0863357061163033,,-0.5536348493683997,,
,8558.0,1953.0,8591.0,3200.0,2275.0,3210.0,423.0,,,,-0.015932608460499,-2.03603368082928,0.0863485874440915,,-1.98233678947441,,
,8556.0,1954.0,8591.0,3199.0,2279.0,3206.0,433.0,,,,-0.0159178909759583,-2.0360930229454,0.0863653500888726,,-3.3377062946639646,,
,8554.0,1951.0,8591.0,3201.0,2278.0,3210.0,430.0,,,,-0.0161825955175229,-2.03615752492974,0.0863596530571033,,-4.609455027523756,,
2025-07-23 23:03:43,8557.0,1952.0,8590.0,3201.0,2314.0,3217.0,429.0,,,2025/07/23 11:03:43 PM,-0.0162887521954967,-2.03588796286659,0.0863899403361253,,-5.789944705494514,,
,8554.0,1952.0,8591.0,3200.0,2337.0,3207.0,422.0,,,,-0.0165859718892775,-2.03573153226924,0.0863738527172318,,-6.874141176234242,,
,8555.0,1952.0,8590.0,3199.0,2333.0,3196.0,435.0,,,,-0.0168608376865633,-2.03560828548671,0.0864125497536584,,-7.8595084358417235,,
,8557.0,1952.0,8589.0,3202.0,2325.0,3199.0,429.0,,,,-0.0171275768438227,-2.03548846502941,0.086374377833285,,-8.745837477554714,,
,8558.0,1951.0,8590.0,3198.0,2321.0,3180.0,410.0,,,,-0.0172517509132862,-2.03549567254767,0.0863813584722983,,-9.535007684016714,,
,8556.0,1951.0,8592.0,3202.0,2322.0,3196.0,430.0,,,,-0.0173587057714951,-2.03559397551338,0.0864234627946331,,-10.230686094980246,,
,8559.0,1956.0,8592.0,3200.0,2316.0,3202.0,420.0,,,,-0.0174149675247768,-2.0344800294823,0.0864162890695712,,-10.837980137207078,,
,8558.0,1955.0,8591.0,3201.0,2297.0,3210.0,408.0,,,,-0.0173072660713085,-2.03411278449294,0.0864815414042029,,-11.363068518873005,,
,8558.0,1953.0,8591.0,3200.0,2311.0,3193.0,417.0,,,,-0.0173201902128226,-2.03357721704584,0.0864808326825818,,-11.812839605143136,,
,8560.0,1952.0,8591.0,3199.0,2301.0,3204.0,414.0,,,,-0.0172671657837187,-2.03322826350742,0.0865231865813945,,-12.19456548608683,,
,8561.0,1953.0,8592.0,3201.0,2294.0,3221.0,419.0,,,,-0.0173093314373929,-2.03284611868107,0.0864872424120421,,-12.515634056490153,,
,8562.0,1952.0,8592.0,3201.0,2309.0,3234.0,405.0,,,,-0.0171574712364253,-2.03234051678056,0.0865322467061093,,-12.783352599812883,,
,8564.0,1955.0,8592.0,3203.0,2303.0,3220.0,418.0,,,,-0.0171053495021935,-2.03197024267089,0.0865396343153976,,-13.004826255092366,,
,8565.0,1954.0,8591.0,3203.0,2282.0,3199.0,427.0,,,,-0.0171251482822315,-2.03115387197216,0.0865334322858877,,-13.186904407479338,,
,8569.0,1956.0,8595.0,3204.0,2297.0,3199.0,418.0,,,,-0.0169467585259916,-2.03096262433389,0.0865641743329016,,-13.336178065736192,,
,8571.0,1957.0,8591.0,3204.0,2299.0,3197.0,429.0,,,,-0.0167928584330218,-2.02965125566912,0.086579918119706,,-13.459002185445657,,
,8571.0,1956.0,8592.0,3202.0,2296.0,3196.0,423.0,,,,-0.0166201676094625,-2.0289987471932,0.0866240544529202,,-13.561509746505735,,
,8571.0,1957.0,8593.0,3204.0,2301.0,3188.0,425.0,,,,-0.0164749928366348,-2.0276130101749,0.0866547402185588,,-13.649581326639305,,
,8573.0,1956.0,8592.0,3203.0,2309.0,3178.0,435.0,,,,-0.0162340161589864,-2.02656788916534,0.0866946156540102,,-13.72873759338313,,
,8579.0,1958.0,8593.0,3203.0,2295.0,3175.0,421.0,,,,-0.0161285384064186,-2.0256599684946,0.0867355825954809,,-13.803934027276965,,
,8580.0,1963.0,8594.0,3203.0,2281.0,3176.0,418.0,,,,-0.0159262303647841,-2.02502749285721,0.0867419686050644,,-13.879255913163496,,
,8583.0,1964.0,8594.0,3204.0,2287.0,3183.0,411.0,,,,-0.0157860440275498,-2.02483364157222,0.0867715098447158,,-13.957533177812657,,
,8582.0,1962.0,8594.0,3203.0,2288.0,3190.0,400.0,,,,-0.0157523638146289,-2.02412996858998,0.0867928161406536,,-14.039914289774867,,
,8586.0,1961.0,8595.0,3205.0,2309.0,3193.0,421.0,,,,-0.0158187487539255,-2.02435360827985,0.0867787360367973,,-14.125452651915397,,
,8589.0,1964.0,8594.0,3204.0,2309.0,3190.0,422.0,,,,-0.0159799953584571,-2.024596166728,0.0867657081230593,,-14.21076599597858,,
,8590.0,1962.0,8596.0,3203.0,2293.0,3196.0,412.0,,,,-0.016036107844994,-2.02521150067218,0.0867933936532433,,-14.289828873938054,,
,8589.0,1963.0,8594.0,3201.0,2295.0,3198.0,428.0,,,,-0.0161099019225389,-2.02545325273554,0.0867760972392365,,-14.353950742497432,,
,8595.0,1965.0,8596.0,3204.0,2317.0,3220.0,422.0,,,,-0.016145673177711,-2.02581782953807,0.0867600298698078,,-14.391977873517154,,
,8595.0,1967.0,8594.0,3206.0,2325.0,3223.0,397.0,,,,-0.0161170516391846,-2.02569525710643,0.0867545359501536,,-14.390737036442893,,
,8597.0,1965.0,8596.0,3206.0,2330.0,3212.0,394.0,,,,-0.0159419523734284,-2.02567220091739,0.0867476541593164,,-14.335713702410704,,
,8599.0,1965.0,8598.0,3204.0,2318.0,3207.0,400.0,,,,-0.0159270221706898,-2.02570374432744,0.0867990083800968,,-14.211929635854467,,
,8605.0,1967.0,8593.0,3204.0,2316.0,3198.0,401.0,,,,-0.0160097209544248,-2.0254134520074,0.0867984613920383,,-14.004957887898346,,
,8603.0,1967.0,8595.0,3207.0,2305.0,3199.0,423.0,,,,-0.0160254196036014,-2.02422674516828,0.0867897912699003,,-13.701991975955806,,
,8606.0,1969.0,8596.0,3205.0,2299.0,3204.0,423.0,,,,-0.0159487401919117,-2.02417811091735,0.0868215255971513,,-13.2928741829018,,
,8607.0,1969.0,8596.0,3206.0,2299.0,3212.0,427.0,,,,-0.0157958042347308,-2.02360545545187,0.0868683287405854,,-12.770986905274913,,
,8612.0,1970.0,8598.0,3206.0,2304.0,3203.0,427.0,,,,-0.0156530782305341,-2.02370778298572,0.0868579789345418,,-12.133920165898608,,
,8614.0,1973.0,8596.0,3206.0,2319.0,3191.0,426.0,,,,-0.0154195554799471,-2.02308717909099,0.0868577272254919,,-11.383846416176805,,
,8613.0,1972.0,8597.0,3205.0,2327.0,3192.0,432.0,,,,-0.0154042238806723,-2.02315699576847,0.0868839881202093,,-10.527559539308442,,
,8613.0,1970.0,8596.0,3204.0,2317.0,3181.0,413.0,,,,-0.0151941536314237,-2.02266563879766,0.0869237827939943,,-9.576167357554526,,
,8615.0,1969.0,8595.0,3205.0,2316.0,3213.0,425.0,,,,-0.0151605390449648,-2.0217765381946,0.0869220852039342,,-8.544463194762132,,
,8616.0,1973.0,8597.0,3206.0,2311.0,3207.0,430.0,,,,-0.0149990767474844,-2.02228218811812,0.0869343639162357,,-7.4500369231752845,,
,8620.0,1975.0,8599.0,3207.0,2305.0,3226.0,431.0,,,,-0.0149455997078452,-2.02156536696648,0.0869793257565954,,-6.312212736419461,,
,8622.0,1974.0,8597.0,3206.0,2302.0,3215.0,437.0,,,,-0.0150704100097301,-2.02177620059077,0.0869446961151835,,-5.150914217193643,,
,8622.0,1971.0,8596.0,3202.0,2303.0,3205.0,426.0,,,,-0.0150930398832185,-2.02230787808177,0.0869459718646394,,-3.985555696643245,,
,8620.0,1973.0,8596.0,3206.0,2295.0,3249.0,427.0,,,,-0.0151305395210042,-2.02226467005134,0.0869410221072078,,-2.8340456454201313,,
,8620.0,1968.0,8599.0,3201.0,2316.0,3229.0,430.0,,,,-0.0154478531365542,-2.02230540516107,0.0869124256563531,,-1.711968499736828,,
,8617.0,1969.0,8594.0,3203.0,2318.0,3205.0,429.0,,,,-0.0156043781894277,-2.02262886533152,0.0869257439238361,,-0.6319904877239751,,
,8612.0,1965.0,8595.0,3201.0,2294.0,3214.0,435.0,,,,-0.0157415751666008,-2.02291091723383,0.0869089959554356,,0.39648560670149696,,
,8609.0,1965.0,8596.0,3202.0,2282.0,3195.0,425.0,,,,-0.0159191826966075,-2.02297769784736,0.0869014040238599,,1.3674124199915827,,
,8605.0,1963.0,8596.0,3200.0,2305.0,3187.0,424.0,,,,-0.0161071636099617,-2.02306719725751,0.0869035005464528,,2.277952840246106,,
,8596.0,1959.0,8595.0,3200.0,2303.0,3182.0,435.0,,,,-0.0160855347809504,-2.0232205851228,0.0868833250194741,,3.1281324444987564,,
,8591.0,1956.0,8597.0,3197.0,2311.0,3178.0,425.0,,,,-0.0160506514665748,-2.02370148977222,0.0868611323471941,,3.9203388445076497,,
,8583.0,1955.0,8595.0,3200.0,2314.0,3187.0,441.0,,,,-0.0161739367486831,-2.02378261311339,0.086858876037112,,4.658726102476564,,
,8577.0,1951.0,8595.0,3199.0,2315.0,3195.0,444.0,,,,-0.0162608787584234,-2.02451115888654,0.0868646676696885,,5.348585137072422,,
,8569.0,1952.0,8596.0,3199.0,2307.0,3188.0,436.0,,,,-0.016412923653636,-2.02470907814039,0.08685380858471,,5.995738223833268,,
,8563.0,1947.0,8598.0,3199.0,2310.0,3193.0,421.0,,,,-0.0166127447140241,-2.02487233427406,0.0868389044480387,,6.606008214162513,,
,8560.0,1945.0,8597.0,3197.0,2320.0,3177.0,419.0,,,,-0.0167278840683089,-2.02534460457811,0.0868310145779142,,7.184801651741213,,
,8556.0,1944.0,8597.0,3200.0,2340.0,3207.0,380.0,,,,-0.0165364276572488,-2.02570545058779,0.0867926307628896,,7.7368297387633955,,
,8555.0,1944.0,8600.0,3199.0,2347.0,3205.0,374.0,,,,-0.0167076544714023,-2.02635026903314,0.0867821622329833,,8.265972442411698,,
,8549.0,1942.0,8600.0,3199.0,2349.0,3203.0,374.0,,,,-0.0167913511968504,-2.02657712800254,0.0867625648930087,,8.775270805590294,,
,8548.0,1940.0,8601.0,3198.0,2363.0,3203.0,381.0,,,,-0.0169120261977839,-2.02666202020248,0.0867354566274581,,9.267014488067977,,
,8547.0,1941.0,8602.0,3201.0,2361.0,3209.0,387.0,,,,-0.0169983005034228,-2.02694618104678,0.0867496979586649,,9.742879857601087,,
,8545.0,1940.0,8601.0,3199.0,2357.0,3230.0,398.0,,,,-0.0171852672555717,-2.02693791934651,0.0867196216364695,,10.204071151816695,,
,8542.0,1940.0,8604.0,3204.0,2347.0,3221.0,387.0,,,,-0.0171565608585083,-2.02759459765791,0.0867047003434973,,10.651423453565986,,
,8543.0,1937.0,8600.0,3199.0,2325.0,3212.0,405.0,,,,-0.0173752469568168,-2.02763947698214,0.0867241228866779,,11.085439315350147,,
,8545.0,1940.0,8601.0,3201.0,2346.0,3207.0,413.0,,,,-0.0174717276532955,-2.02806939477888,0.0867079160996609,,11.506247315038024,,
,8545.0,1938.0,8603.0,3201.0,2336.0,3206.0,389.0,,,,-0.017447646421015,-2.0275400283649,0.0867207202344272,,11.913487138759622,,
,8545.0,1939.0,8601.0,3203.0,2321.0,3203.0,392.0,,,,-0.0173669952616926,-2.02803962098391,0.0867228659072797,,12.306139676231004,,
,8547.0,1937.0,8600.0,3203.0,2316.0,3194.0,392.0,,,,-0.0173252700538393,-2.02783935747783,0.0867227000975226,,12.682330885776866,,
,8550.0,1939.0,8602.0,3203.0,2301.0,3201.0,398.0,,,,-0.0172002758192699,-2.02826757817753,0.0867541164493377,,13.039143686164483,,
,8550.0,1940.0,8601.0,3203.0,2291.0,3209.0,385.0,,,,-0.0171032276514111,-2.02853062032753,0.086752299491637,,13.372471504853053,,
,8553.0,1939.0,8601.0,3202.0,2293.0,3207.0,396.0,,,,-0.0170038300683355,-2.02857885999552,0.0867612112966328,,13.676940178748435,,
,8552.0,1936.0,8598.0,3202.0,2293.0,3214.0,412.0,,,,-0.0171199811190171,-2.02908479017126,0.0867473568591076,,13.945913870023833,,
,8554.0,1939.0,8601.0,3202.0,2306.0,3229.0,429.0,,,,-0.0168867704656067,-2.02941119241695,0.0867395242404111,,14.171589220717891,,
,8558.0,1939.0,8603.0,3204.0,2286.0,3232.0,436.0,,,,-0.0170259949620993,-2.02984650078534,0.0867511165393509,,14.345173171240432,,
,8558.0,1939.0,8603.0,3204.0,2279.0,3219.0,447.0,,,,-0.0170677358981649,-2.02984021859808,0.0867281397312405,,14.457134971183589,,
,8559.0,1938.0,8604.0,3203.0,2279.0,3194.0,449.0,,,,-0.017125440085869,-2.03023770770933,0.0867461259279971,,14.49752168042476,,
,8561.0,1937.0,8602.0,3204.0,2255.0,3173.0,453.0,,,,-0.0172420523766701,-2.0304317690394,0.0867283050143056,,14.45632768598967,,
,8562.0,1939.0,8603.0,3204.0,2262.0,3187.0,455.0,,,,-0.0172106326491831,-2.0308644396703,0.0867317159513236,,14.323910539430894,,
,8560.0,1937.0,8605.0,3202.0,2249.0,3196.0,453.0,,,,-0.0173980212725371,-2.03097242833001,0.0867163227802096,,14.091445612101715,,
,8560.0,1934.0,8604.0,3208.0,2255.0,3199.0,430.0,,,,-0.0175180193306189,-2.03158375646523,0.0866932631246108,,13.751409064370579,,
,8561.0,1934.0,8603.0,3202.0,2269.0,3196.0,424.0,,,,-0.017781936901355,-2.0323001321933,0.0866694825102278,,13.298072030688528,,
,8558.0,1934.0,8604.0,3204.0,2282.0,3206.0,408.0,,,,-0.0179272757911698,-2.03350871713415,0.0866575132502643,,12.727979885189297,,
,8557.0,1934.0,8605.0,3206.0,2293.0,3227.0,396.0,,,,-0.0181274834805055,-2.03392156575632,0.0865979571589559,,12.040381623598122,,
,8555.0,1932.0,8605.0,3203.0,2292.0,3223.0,400.0,,,,-0.0182898753483201,-2.03442835035333,0.086570721149027,,11.237569233265953,,
,8551.0,1930.0,8603.0,3205.0,2297.0,3215.0,390.0,,,,-0.0184146606425986,-2.0347494821731,0.0865537914130808,,10.325088117080176,,
,8554.0,1930.0,8604.0,3204.0,2302.0,3215.0,419.0,,,,-0.0184377648423943,-2.03533508643553,0.0865464731618886,,9.311787530633714,,
,8552.0,1929.0,8604.0,3204.0,2315.0,3212.0,432.0,,,,-0.0185893322471383,-2.03575485681274,0.0865309153868857,,8.20969252589667,,
,8551.0,1928.0,8607.0,3207.0,2314.0,3203.0,438.0,,,,-0.0186624631929387,-2.03622658266782,0.0865425332863971,,7.033693256468896,,
,8547.0,1927.0,8604.0,3206.0,2305.0,3206.0,420.0,,,,-0.0186251909044587,-2.03632119555323,0.0865227608462782,,5.801061751517406,,
,8547.0,1925.0,8606.0,3206.0,2287.0,3224.0,420.0,,,,-0.0188097549312231,-2.03677435899019,0.0864704195382214,,4.530819473216056,,
,8551.0,1928.0,8606.0,3204.0,2321.0,3240.0,412.0,,,,-0.0189230497760968,-2.03719944035715,0.0864774272155264,,3.242990332842512,,
,8548.0,1927.0,8606.0,3207.0,2316.0,3241.0,411.0,,,,-0.019090107905678,-2.03738797626368,0.086466729978148,,1.9577824276374658,,
,8545.0,1925.0,8609.0,3207.0,2303.0,3241.0,411.0,,,,-0.0193841803171592,-2.03765051789517,0.0864449598227004,,0.6947472557637969,,
,8542.0,1923.0,8606.0,3206.0,2309.0,3212.0,420.0,,,,-0.0193951574691976,-2.03828079432035,0.0864734681699997,,-0.5280319444051598,,
,8545.0,1922.0,8608.0,3206.0,2324.0,3195.0,418.0,,,,-0.0197646536269437,-2.03705164642902,0.086473575906687,,-1.6946707371015512,,
,8545.0,1924.0,8606.0,3207.0,2312.0,3179.0,429.0,,,,-0.0198474224568131,-2.03682429408196,0.0865081840778932,,-2.7920844443059623,,
,8547.0,1923.0,8608.0,3206.0,2304.0,3180.0,435.0,,,,-0.0200326566619287,-2.0362480898057,0.0865159715604199,,-3.810420058559218,,
,8544.0,1921.0,8606.0,3205.0,2309.0,3181.0,443.0,,,,-0.0199448172437383,-2.03495496622386,0.0865497493045148,,-4.743294010148831,,
,8548.0,1921.0,8606.0,3206.0,2319.0,3196.0,432.0,,,,-0.0201589567026013,-2.03476614010214,0.0865381516409857,,-5.5878279246602816,,
,8545.0,1921.0,8609.0,3207.0,2316.0,3192.0,422.0,,,,-0.0201969397677657,-2.03426644415446,0.0865352058618097,,-6.344491272092303,,
,8550.0,1922.0,8609.0,3208.0,2307.0,3191.0,424.0,,,,-0.0203024374279171,-2.0339134131299,0.0865471629932096,,-7.016773458795965,,
,8550.0,1920.0,8607.0,3207.0,2296.0,3186.0,432.0,,,,-0.0205383579096393,-2.03387836339012,0.0865541839933727,,-7.61071736960447,,
,8552.0,1921.0,8608.0,3207.0,2287.0,3200.0,412.0,,,,-0.0205786333083119,-2.03325794032828,0.086534358705278,,-8.134351994956477,,
,8552.0,1920.0,8610.0,3209.0,2308.0,3222.0,395.0,,,,-0.0207446082177988,-2.03416487580562,0.0865183678467924,,-8.59706426194551,,
,8553.0,1922.0,8608.0,3208.0,2315.0,3210.0,380.0,,,,-0.0208556487501495,-2.03407460725222,0.0864894765119734,,-9.008949336816041,,
,8553.0,1920.0,8608.0,3206.0,2316.0,3213.0,395.0,,,,-0.0208764317871169,-2.03410259372245,0.0865126828459777,,-9.380173640758022,,
,8557.0,1922.0,8608.0,3209.0,2322.0,3203.0,406.0,,,,-0.0206940991706201,-2.03372011734571,0.0864983698925099,,-9.720375692962719,,
,8559.0,1923.0,8607.0,3209.0,2317.0,3197.0,407.0,,,,-0.0206160979348399,-2.03336748340534,0.0865524809204207,,-10.038118904013682,,
,8560.0,1921.0,8610.0,3206.0,2323.0,3196.0,416.0,,,,-0.0204730847585883,-2.03328768426034,0.0865852991601637,,-10.340401632573736,,
,8561.0,1921.0,8609.0,3208.0,2336.0,3209.0,427.0,,,,-0.020153464997401,-2.03212028602027,0.0866519917952768,,-10.632226971505288,,
,8559.0,1919.0,8606.0,3206.0,2332.0,3218.0,410.0,,,,-0.020019542670897,-2.03123732982268,0.0867102081374984,,-10.916238931114707,,
,8564.0,1921.0,8611.0,3206.0,2324.0,3221.0,420.0,,,,-0.0197758471692277,-2.03064408986753,0.0867869668323536,,-11.192440489806767,,
,8566.0,1923.0,8610.0,3208.0,2333.0,3218.0,394.0,,,,-0.0196489685562565,-2.02990958252578,0.0868018944298462,,-11.45801793499398,,
,8567.0,1921.0,8607.0,3209.0,2333.0,3209.0,384.0,,,,-0.0194188909068807,-2.02940859773183,0.0868510093759304,,-11.70730110094583,,
,8567.0,1921.0,8606.0,3207.0,2335.0,3196.0,404.0,,,,-0.0194954753800555,-2.02816849857656,0.0869002629207914,,-11.931888602730702,,
,8567.0,1921.0,8606.0,3209.0,2331.0,3185.0,400.0,,,,-0.0191817379176615,-2.02758162189621,0.0869504141781104,,-12.120960781835919,,
,8570.0,1923.0,8612.0,3211.0,2323.0,3175.0,419.0,,,,-0.0190070346236514,-2.02575644033378,0.0869986086522205,,-12.261791408053169,,
,8570.0,1923.0,8607.0,3209.0,2334.0,3177.0,430.0,,,,-0.0186528377317756,-2.02435722667609,0.0870527268417068,,-12.340452975987438,,
,8573.0,1923.0,8609.0,3209.0,2301.0,3206.0,418.0,,,,-0.0183013296706109,-2.02299523572148,0.0871136238870304,,-12.342690561370318,,
,8577.0,1925.0,8610.0,3210.0,2303.0,3213.0,414.0,,,,-0.0178899640902702,-2.02154376244318,0.0872187357917043,,-12.254916985963387,,
,8576.0,1922.0,8608.0,3210.0,2313.0,3238.0,403.0,,,,-0.0175260617713941,-2.02055233022667,0.0872455768486536,,-12.065259835185001,,
,8579.0,1926.0,8612.0,3212.0,2324.0,3238.0,412.0,,,,-0.0173326219199846,-2.01969967192813,0.0872712569185789,,-11.764572532311501,,
,8578.0,1924.0,8605.0,3209.0,2296.0,3245.0,411.0,,,,-0.017016432735479,-2.01932258638854,0.0873077625552508,,-11.347312158664348,,
,8583.0,1921.0,8606.0,3208.0,2326.0,3232.0,413.0,,,,-0.016942510780834,-2.01890976574655,0.0872807235148441,,-10.812190375747749,,
,8579.0,1924.0,8607.0,3207.0,2331.0,3210.0,407.0,,,,-0.0167010195469835,-2.01891123062251,0.0873001955198407,,-10.162522202490376,,
,8583.0,1925.0,8609.0,3209.0,2326.0,3198.0,400.0,,,,-0.0167402594731825,-2.01913308371146,0.0872968344078451,,-9.406228230597291,,
,8580.0,1925.0,8609.0,3209.0,2328.0,3188.0,401.0,,,,-0.0168513195984465,-2.02002059135661,0.0872551269467569,,-8.555483760874845,,
2025-07-23 23:03:44,8581.0,1921.0,8606.0,3207.0,2347.0,3190.0,412.0,,,2025/07/23 11:03:44 PM,-0.0169329166981339,-2.02103718311752,0.0871941385104863,,-7.626046735289575,,
,8578.0,1919.0,8606.0,3208.0,2339.0,3165.0,424.0,,,,-0.0171271332225606,-2.02270890506264,0.0871910277062097,,-6.636329314187001,,
,8573.0,1919.0,8608.0,3204.0,2325.0,3172.0,411.0,,,,-0.0173696431588394,-2.02310047575976,0.0871035977995217,,-5.606301545784122,,
,8566.0,1913.0,8605.0,3204.0,2317.0,3176.0,421.0,,,,-0.0176390427573666,-2.02400984871246,0.0870659159320418,,-4.556328033063792,,
,8560.0,1911.0,8604.0,3203.0,2324.0,3189.0,413.0,,,,-0.0178723002441188,-2.024294974707,0.0870123828282026,,-3.5060395461870306,,
,8555.0,1911.0,8605.0,3203.0,2303.0,3185.0,410.0,,,,-0.0182225868716949,-2.0256674834302,0.0869512238839682,,-2.4733316125049525,,
,8548.0,1907.0,8605.0,3205.0,2314.0,3180.0,406.0,,,,-0.0183749385011523,-2.02618853508295,0.0869051774311075,,-1.4735625095081766,,
,8541.0,1904.0,8605.0,3202.0,2325.0,3187.0,416.0,,,,-0.018455232437681,-2.0269709117004,0.0868753261771086,,-0.5189966089402402,,
,8533.0,1901.0,8603.0,3200.0,2315.0,3195.0,402.0,,,,-0.0184445999915791,-2.02735943223286,0.0868651694608302,,0.3814897257459938,,
,8527.0,1899.0,8604.0,3202.0,2307.0,3207.0,391.0,,,,-0.0185992066478352,-2.02783968964855,0.0868280085300495,,1.2224484416852388,,
,8519.0,1899.0,8603.0,3201.0,2340.0,3189.0,407.0,,,,-0.0186718733792392,-2.02849582522696,0.0868241756871539,,2.001674919506611,,
,8516.0,1898.0,8605.0,3203.0,2351.0,3188.0,412.0,,,,-0.0186328875469244,-2.02867592611299,0.0867950863379123,,2.7198397426522254,,
,8512.0,1894.0,8605.0,3202.0,2356.0,3204.0,396.0,,,,-0.0186163990228287,-2.02918688956398,0.0867508198847473,,3.3799864567523734,,
,8504.0,1891.0,8600.0,3200.0,2371.0,3225.0,391.0,,,,-0.0184994860103082,-2.02978123711631,0.0867723613149021,,3.9869474067721296,,
,8505.0,1897.0,8605.0,3204.0,2360.0,3215.0,386.0,,,,-0.0182880557184071,-2.0293733083241,0.0867878611826371,,4.546728189766887,,
,8505.0,1895.0,8602.0,3204.0,2340.0,3204.0,398.0,,,,-0.0181603196359329,-2.02924108688487,0.086794235209642,,5.065906023621813,,
,8503.0,1893.0,8603.0,3202.0,2323.0,3199.0,394.0,,,,-0.0179535589960635,-2.02952857464356,0.0868042116378316,,5.551079544193111,,
,8498.0,1894.0,8604.0,3201.0,2321.0,3216.0,383.0,,,,-0.0177396733372137,-2.02865753170353,0.0868287054032377,,6.0083987597390625,,
,8500.0,1890.0,8606.0,3203.0,2317.0,3211.0,387.0,,,,-0.01762494715036,-2.02810438167542,0.0868662905670312,,6.44319561941511,,
,8499.0,1892.0,8605.0,3203.0,2307.0,3193.0,376.0,,,,-0.0172547139378431,-2.02796250872352,0.0869137913013035,,6.859728659366178,,
,8500.0,1893.0,8606.0,3203.0,2302.0,3176.0,395.0,,,,-0.0170589089883734,-2.02754341371272,0.086937859159557,,7.261048899057523,,
,8499.0,1891.0,8607.0,3203.0,2320.0,3174.0,406.0,,,,-0.0170812086062386,-2.02735653379048,0.086960044418314,,7.648986904137264,,
,8500.0,1894.0,8605.0,3204.0,2354.0,3179.0,382.0,,,,-0.0168298117612782,-2.02702815448542,0.0869565350198383,,8.024251394573339,,
,8504.0,1894.0,8610.0,3206.0,2367.0,3191.0,368.0,,,,-0.0166910250960413,-2.02694133974466,0.0869435659340475,,8.386618475783097,,
,8504.0,1894.0,8609.0,3203.0,2364.0,3188.0,367.0,,,,-0.016616867917563,-2.02709764381279,0.0869957480677581,,8.735179837940887,,
,8503.0,1896.0,8607.0,3203.0,2385.0,3207.0,389.0,,,,-0.0163490025317365,-2.0273018828798,0.0869764178539993,,9.068610850928144,,
,8508.0,1898.0,8607.0,3204.0,2357.0,3220.0,417.0,,,,-0.0162304990722439,-2.02760037876776,0.0869771410006316,,9.385417218333995,,
,8507.0,1900.0,8609.0,3205.0,2333.0,3215.0,432.0,,,,-0.016274528986542,-2.02772587195886,0.0869783687059015,,9.684122250286363,,
,8510.0,1898.0,8611.0,3203.0,2331.0,3202.0,436.0,,,,-0.0161337861535515,-2.02747265675902,0.0869638105152934,,9.96336522573766,,
,8512.0,1897.0,8607.0,3203.0,2335.0,3199.0,452.0,,,,-0.0159592062559514,-2.0281745174435,0.0869189532251598,,10.22189337133768,,
,8513.0,1897.0,8606.0,3202.0,2297.0,3197.0,462.0,,,,-0.0160542024117948,-2.02840640082535,0.0869504226574562,,10.458444181666806,,
,8515.0,1900.0,8606.0,3206.0,2288.0,3177.0,451.0,,,,-0.016140354322787,-2.02843586679768,0.0869375254282922,,10.671529868983399,,
,8519.0,1900.0,8606.0,3204.0,2256.0,3192.0,440.0,,,,-0.0163484889245968,-2.0287888483427,0.0869203284286567,,10.859150339214839,,
,8516.0,1903.0,8607.0,3206.0,2255.0,3198.0,436.0,,,,-0.0163786458710908,-2.02895964131803,0.0869237385155988,,11.018473328301578,,
,8518.0,1899.0,8606.0,3204.0,2263.0,3202.0,440.0,,,,-0.0164914119020618,-2.02991217671637,0.0869149558941842,,11.145527849012343,,
,8520.0,1904.0,8605.0,3203.0,2284.0,3221.0,419.0,,,,-0.0165740484107039,-2.02940240438535,0.0868967356843438,,11.234958450503209,,
,8519.0,1898.0,8606.0,3205.0,2318.0,3230.0,420.0,,,,-0.0166262244546246,-2.03025922382876,0.0868824010219403,,11.27988386885459,,
,8519.0,1903.0,8610.0,3204.0,2340.0,3234.0,421.0,,,,-0.0167505196998064,-2.0307042069915,0.0868639870835607,,11.271897140977135,,
,8518.0,1898.0,8605.0,3204.0,2334.0,3242.0,420.0,,,,-0.0168106317208646,-2.0315829285823,0.0868194846283874,,11.20123694612751,,
,8517.0,1896.0,8606.0,3203.0,2348.0,3225.0,387.0,,,,-0.0169835542898792,-2.03163746832714,0.0868132806573148,,11.05715051230563,,
,8519.0,1902.0,8605.0,3204.0,2349.0,3227.0,372.0,,,,-0.0171834255273246,-2.03243457637151,0.0867998169778169,,10.828453472647245,,
,8517.0,1900.0,8609.0,3205.0,2331.0,3216.0,381.0,,,,-0.0172193894461798,-2.03239429998572,0.0867623746932962,,10.504269487569125,,
,8515.0,1896.0,8604.0,3205.0,2332.0,3204.0,352.0,,,,-0.017246081588832,-2.03366729107994,0.0867377213518572,,10.074904190824682,,
,8515.0,1899.0,8605.0,3205.0,2327.0,3229.0,364.0,,,,-0.0172587231161039,-2.03310061052806,0.0867234083278701,,9.532780021227142,,
,8515.0,1901.0,8608.0,3205.0,2312.0,3240.0,366.0,,,,-0.0171748908747947,-2.03283847603348,0.0867225455013523,,8.873338351410045,,
,8514.0,1900.0,8606.0,3202.0,2284.0,3233.0,365.0,,,,-0.0172069623644119,-2.03304929888954,0.0867456904252431,,8.09580897985575,,
,8518.0,1898.0,8605.0,3204.0,2265.0,3251.0,374.0,,,,-0.0171722832961654,-2.03237575938772,0.0867662386553631,,7.203756251609583,,
,8518.0,1897.0,8606.0,3205.0,2247.0,3234.0,382.0,,,,-0.0171188893492862,-2.03176276135589,0.0867512938745205,,6.205332906179234,,
,8519.0,1901.0,8606.0,3206.0,2237.0,3234.0,386.0,,,,-0.0170560876643491,-2.03180801748809,0.0867873361821161,,5.113202060586179,,
,8519.0,1901.0,8605.0,3206.0,2229.0,3220.0,438.0,,,,-0.0168766219432518,-2.03145411197646,0.086785835862225,,3.944120338466159,,
,8520.0,1901.0,8603.0,3206.0,2230.0,3220.0,450.0,,,,-0.0169077908209346,-2.03113380639084,0.0867800529735212,,2.718208608339654,,
,8520.0,1899.0,8599.0,3205.0,2210.0,3222.0,468.0,,,,-0.0169148133993619,-2.03134272751079,0.0867816635692619,,1.457968559270759,,
,8524.0,1905.0,8604.0,3205.0,2207.0,3214.0,471.0,,,,-0.0168265661456096,-2.0312866402246,0.0867924068923148,,0.18712939051424457,,
,8526.0,1904.0,8605.0,3208.0,2204.0,3190.0,479.0,,,,-0.0167488040347026,-2.03045728569451,0.0868111697323453,,-1.0705754062730193,,
,8530.0,1903.0,8604.0,3206.0,2209.0,3197.0,489.0,,,,-0.0167189111182065,-2.03045786278257,0.0867983812725163,,-2.2925987088990802,,
,8531.0,1905.0,8604.0,3206.0,2237.0,3194.0,473.0,,,,-0.0165485402777134,-2.03051206776152,0.0868181780429933,,-3.4586454771444815,,
,8533.0,1905.0,8604.0,3207.0,2247.0,3193.0,456.0,,,,-0.0166857727251995,-2.03013607614358,0.0868024594381722,,-4.551540097961726,,
,8534.0,1906.0,8608.0,3208.0,2272.0,3196.0,436.0,,,,-0.0166378523629356,-2.03014339114115,0.0868083472236908,,-5.557845463516713,,
,8539.0,1908.0,8608.0,3208.0,2280.0,3201.0,415.0,,,,-0.0165905517615703,-2.0303722996452,0.0868106400861161,,-6.468208370582461,,
,8540.0,1907.0,8609.0,3208.0,2258.0,3189.0,415.0,,,,-0.0165462560297506,-2.03057139700418,0.086774108379721,,-7.277428684829138,,
,8545.0,1912.0,8610.0,3206.0,2285.0,3206.0,410.0,,,,-0.0166249051824221,-2.03051310699011,0.0867954879518504,,-7.98426958874223,,
,8544.0,1910.0,8614.0,3207.0,2304.0,3205.0,371.0,,,,-0.0165647595337368,-2.03133185514097,0.0867830184905927,,-8.591043246684125,,
,8547.0,1910.0,8614.0,3209.0,2302.0,3205.0,394.0,,,,-0.0166004709351991,-2.03134467064641,0.0867628927526971,,-9.103020901009883,,
,8550.0,1912.0,8615.0,3209.0,2303.0,3200.0,400.0,,,,-0.0165592242609755,-2.03225778377315,0.0867408147514109,,-9.527728155617691,,
,8549.0,1910.0,8613.0,3207.0,2323.0,3215.0,418.0,,,,-0.0165975653700401,-2.03306157175188,0.0866942864091171,,-9.874193062939389,,
,8550.0,1914.0,8615.0,3208.0,2324.0,3206.0,427.0,,,,-0.0164492746205384,-2.03303597452855,0.0867038038235367,,-10.152214571132808,,
,8555.0,1915.0,8615.0,3209.0,2332.0,3221.0,429.0,,,,-0.0163687128601057,-2.03292390757009,0.0866749970676363,,-10.371711128940355,,
,8554.0,1913.0,8617.0,3209.0,2333.0,3212.0,414.0,,,,-0.0163182402163691,-2.03272666843269,0.0867011796891576,,-10.542194747581371,,
,8553.0,1915.0,8615.0,3205.0,2344.0,3213.0,420.0,,,,-0.0163495917254337,-2.03290084625858,0.0867054237638906,,-10.672396960170886,,
,8555.0,1912.0,8616.0,3208.0,2352.0,3215.0,382.0,,,,-0.0163390172082327,-2.0330813325507,0.0866957462538628,,-10.770052879863758,,
,8556.0,1915.0,8615.0,3210.0,2361.0,3198.0,354.0,,,,-0.0162058308392035,-2.03340264599733,0.0866655101358489,,-10.841830545087394,,
,8555.0,1916.0,8615.0,3207.0,2354.0,3201.0,346.0,,,,-0.0162378780237798,-2.03353043488283,0.0867036177552213,,-10.893376580116797,,
,8558.0,1915.0,8616.0,3206.0,2361.0,3200.0,356.0,,,,-0.0160172402457666,-2.03449407271166,0.0866645679531944,,-10.929436739685892,,
,8559.0,1917.0,8612.0,3206.0,2371.0,3184.0,374.0,,,,-0.0160879505289098,-2.03451432572172,0.0866451537391609,,-10.954002067897147,,
,8559.0,1918.0,8615.0,3208.0,2381.0,3181.0,386.0,,,,-0.0160013185867944,-2.03463172460501,0.086646132459586,,-10.970429840706519,,
,8562.0,1919.0,8617.0,3212.0,2386.0,3184.0,390.0,,,,-0.0158085570519319,-2.03506182305707,0.0866158429090368,,-10.981495029857852,,
,8561.0,1920.0,8615.0,3207.0,2363.0,3178.0,407.0,,,,-0.0157690575691822,-2.0347638069684,0.0866419547952591,,-10.98934307810141,,
,8562.0,1918.0,8614.0,3207.0,2360.0,3190.0,402.0,,,,-0.0157314316238667,-2.03481406761221,0.0866371121729319,,-10.99533598468331,,
,8565.0,1918.0,8615.0,3207.0,2352.0,3196.0,413.0,,,,-0.0156098399658859,-2.03442872985211,0.0866482699316265,,-10.999806783038421,,
,8566.0,1921.0,8615.0,3211.0,2362.0,3205.0,418.0,,,,-0.0154895845752654,-2.03449197668869,0.0866424191767087,,-11.001758089290911,,
,8569.0,1921.0,8613.0,3209.0,2357.0,3204.0,419.0,,,,-0.0153306838976935,-2.03506914486129,0.0866272208851388,,-10.998555422244804,,
,8564.0,1920.0,8615.0,3208.0,2315.0,3218.0,439.0,,,,-0.015330308637714,-2.03489477223818,0.0866850349953094,,-10.985673841785133,,
,8566.0,1923.0,8616.0,3209.0,2298.0,3201.0,441.0,,,,-0.0154699548800718,-2.03455286365593,0.0866267043708406,,-10.956556577833604,,
,8566.0,1922.0,8615.0,3206.0,2291.0,3188.0,425.0,,,,-0.0153618087217994,-2.03468596191704,0.0866526488807513,,-10.902636721554847,,
,8563.0,1919.0,8613.0,3208.0,2277.0,3195.0,416.0,,,,-0.0153467745354587,-2.03409082787689,0.086647405097113,,-10.81355796227714,,
,8557.0,1917.0,8611.0,3204.0,2284.0,3169.0,441.0,,,,-0.0152310816527393,-2.0339561920833,0.0866535263714657,,-10.677608422601743,,
,8553.0,1913.0,8614.0,3204.0,2279.0,3153.0,423.0,,,,-0.0152910995324402,-2.0341175823696,0.0866557913943056,,-10.482354644995283,,
,8547.0,1914.0,8611.0,3202.0,2274.0,3163.0,443.0,,,,-0.0151720081170776,-2.03417004880659,0.08667759228951,,-10.21543437380272,,
,8540.0,1913.0,8610.0,3203.0,2270.0,3165.0,426.0,,,,-0.0150945071134368,-2.03499339379538,0.086652353146455,,-9.86544219758818,,
,8528.0,1910.0,8612.0,3202.0,2288.0,3179.0,410.0,,,,-0.0150445386468248,-2.03470751232113,0.0866716551412171,,-9.422826356708049,,
,8521.0,1903.0,8610.0,3202.0,2286.0,3187.0,406.0,,,,-0.0149174720469844,-2.03440007945004,0.0866784170254382,,-8.8807106445408,,
,8516.0,1907.0,8612.0,3202.0,2307.0,3200.0,419.0,,,,-0.0148095336069574,-2.03430924331696,0.0866500685940968,,-8.235561851562974,,
,8508.0,1904.0,8613.0,3204.0,2299.0,3199.0,413.0,,,,-0.0147898837340463,-2.03425860373888,0.0866711262462938,,-7.487638292088658,,
,8500.0,1900.0,8611.0,3201.0,2313.0,3205.0,406.0,,,,-0.01467449588126,-2.03409411892871,0.0866715999516382,,-6.6411759846216984,,
,8496.0,1899.0,8611.0,3201.0,2339.0,3207.0,427.0,,,,-0.0144943173685827,-2.03394775910197,0.0866716591617009,,-5.704293783335026,,
,8488.0,1899.0,8610.0,3203.0,2335.0,3197.0,405.0,,,,-0.0144565879747935,-2.0337560381432,0.0866454012281415,,-4.688625207266504,,
,8481.0,1900.0,8610.0,3202.0,2348.0,3212.0,381.0,,,,-0.0144309910379414,-2.03406904527514,0.0866343726297567,,-3.608710659313368,,
,8481.0,1899.0,8611.0,3203.0,2356.0,3217.0,379.0,,,,-0.0142127667445775,-2.03430774299113,0.0866160792312164,,-2.4812061919529986,,
,8477.0,1896.0,8613.0,3202.0,2365.0,3227.0,363.0,,,,-0.0138828437108485,-2.03388975717022,0.086616359260843,,-1.3239805068373327,,
,8477.0,1897.0,8614.0,3201.0,2343.0,3208.0,379.0,,,,-0.0138420250570845,-2.03343064239377,0.0866233510521617,,-0.15517791139294235,,
,8472.0,1898.0,8613.0,3203.0,2343.0,3205.0,370.0,,,,-0.0136474363661261,-2.03265986903015,0.0866233539261693,,1.007678658337976,,
,8473.0,1900.0,8614.0,3206.0,2349.0,3198.0,364.0,,,,-0.0135186529684515,-2.03189558879784,0.0866414670192796,,2.1484813810913352,,
,8469.0,1896.0,8610.0,3204.0,2335.0,3179.0,380.0,,,,-0.0133820326511903,-2.03162299632816,0.0866670198303098,,3.2531799809257844,,
,8469.0,1897.0,8614.0,3204.0,2350.0,3190.0,383.0,,,,-0.0131121020793953,-2.03138215659273,0.0867003755941724,,4.310241600255517,,
,8471.0,1898.0,8615.0,3204.0,2342.0,3193.0,395.0,,,,-0.0129366244406781,-2.03085802067543,0.0867183985954672,,5.310914008404186,,
,8471.0,1900.0,8615.0,3205.0,2330.0,3191.0,396.0,,,,-0.012751302347026,-2.03083497402218,0.0866785784798204,,6.249294263174243,,
,8471.0,1902.0,8614.0,3204.0,2313.0,3198.0,395.0,,,,-0.0126185021113056,-2.03160426969305,0.0866547447476737,,7.122218984485469,,
,8472.0,1897.0,8614.0,3204.0,2305.0,3221.0,394.0,,,,-0.0124312166270623,-2.0323561030064,0.086644627572198,,7.929003303411486,,
,8475.0,1903.0,8614.0,3207.0,2308.0,3200.0,393.0,,,,-0.0121602908182673,-2.03241592470969,0.0865892787599718,,8.671062964017919,,
,8477.0,1903.0,8612.0,3205.0,2301.0,3198.0,393.0,,,,-0.0119149063717682,-2.0325831169559,0.0865619930517498,,9.351458097519643,,
,8477.0,1903.0,8614.0,3204.0,2313.0,3204.0,374.0,,,,-0.0117521992222665,-2.03271650429084,0.0865575983961939,,9.974398122919741,,
,8475.0,1904.0,8615.0,3204.0,2317.0,3208.0,390.0,,,,-0.011575208264986,-2.03281560687603,0.0865366124279558,,10.54474511013093,,
,8480.0,1903.0,8616.0,3206.0,2326.0,3194.0,412.0,,,,-0.0116126968077778,-2.03235656364863,0.0865487764228663,,11.067547370521362,,
,8482.0,1908.0,8619.0,3206.0,2349.0,3181.0,406.0,,,,-0.0115336943886961,-2.03302653960567,0.0865567322467701,,11.547625513944746,,
,8480.0,1906.0,8617.0,3204.0,2360.0,3174.0,412.0,,,,-0.011553567066043,-2.03255846347631,0.0865297132619354,,11.98922033299621,,
,8481.0,1905.0,8614.0,3205.0,2328.0,3192.0,422.0,,,,-0.0117209218317751,-2.03359343751488,0.0865176942065722,,12.395698481127615,,
,8486.0,1908.0,8618.0,3208.0,2326.0,3188.0,413.0,,,,-0.0119075414356058,-2.03402985089375,0.0865258609419627,,12.769302644642782,,
,8488.0,1908.0,8619.0,3209.0,2313.0,3186.0,420.0,,,,-0.0120995847242585,-2.03406291618555,0.0865037272606315,,13.110932011100928,,
,8489.0,1906.0,8619.0,3207.0,2307.0,3189.0,422.0,,,,-0.0120314306701648,-2.03409746487422,0.086532750449988,,13.419947635991798,,
,8484.0,1904.0,8618.0,3206.0,2327.0,3212.0,388.0,,,,-0.0121490372416597,-2.03454800036632,0.0865238613439283,,13.694013141946947,,
,8485.0,1906.0,8618.0,3208.0,2319.0,3215.0,384.0,,,,-0.012475501078066,-2.03510946267474,0.0864676674982764,,13.928998309609772,,
,8485.0,1905.0,8620.0,3206.0,2318.0,3206.0,373.0,,,,-0.0123983176717888,-2.03539979745399,0.0864842780083426,,14.118984970608649,,
,8484.0,1903.0,8619.0,3205.0,2319.0,3203.0,364.0,,,,-0.0125995345765194,-2.03578744019801,0.0864798564166282,,14.256416276095742,,
,8480.0,1902.0,8622.0,3206.0,2328.0,3194.0,385.0,,,,-0.0126503282107079,-2.03622087392549,0.0864575352957341,,14.332420157230416,,
,8480.0,1902.0,8619.0,3207.0,2334.0,3167.0,406.0,,,,-0.012741108094052,-2.03678641452058,0.0864312288499656,,14.337316930507871,,
,8478.0,1904.0,8619.0,3207.0,2340.0,3185.0,396.0,,,,-0.0126946262392088,-2.0369533325248,0.0864303366935353,,14.261292627466442,,
,8477.0,1901.0,8620.0,3206.0,2347.0,3178.0,408.0,,,,-0.0126822371366078,-2.03704254113016,0.086451826867506,,14.095187844649363,,
,8478.0,1902.0,8623.0,3206.0,2346.0,3173.0,413.0,,,,-0.0127002960324552,-2.03695299962101,0.0864464140544836,,13.831322435660493,,
2025-07-23 23:03:45,8475.0,1901.0,8623.0,3203.0,2336.0,3213.0,411.0,,,2025/07/23 11:03:45 PM,-0.0126354183512379,-2.03687535471749,0.0864242514540984,,13.464257086389786,,
,8476.0,1903.0,8622.0,3207.0,2343.0,3213.0,403.0,,,,-0.0126983998313271,-2.03673733193481,0.0864337261633149,,12.991391628344008,,
,8475.0,1903.0,8622.0,3209.0,2349.0,3208.0,375.0,,,,-0.0126667814829815,-2.03640835561911,0.0864735782886265,,12.413320183212983,,
,8475.0,1903.0,8620.0,3206.0,2364.0,3203.0,368.0,,,,-0.0126389107511222,-2.03575819260798,0.0864634482992161,,11.73390067506895,,
,8473.0,1905.0,8623.0,3207.0,2356.0,3195.0,362.0,,,,-0.0125664212964572,-2.03545833761967,0.086436754934363,,10.960040815783216,,
,8475.0,1903.0,8621.0,3205.0,2346.0,3172.0,381.0,,,,-0.0125110870309452,-2.0351338824847,0.0864641029677856,,10.101243220610584,,
,8473.0,1903.0,8625.0,3207.0,2335.0,3168.0,387.0,,,,-0.0123727774001297,-2.03467983297902,0.0864943835728979,,9.168980886140153,,
,8473.0,1906.0,8622.0,3206.0,2346.0,3175.0,401.0,,,,-0.0121413012030778,-2.0342840757093,0.0864702952088139,,8.175987783649425,,
,8473.0,1902.0,8621.0,3206.0,2345.0,3196.0,382.0,,,,-0.0121787566439755,-2.03343433530579,0.0865145099874124,,7.135548876109123,,
,8475.0,1903.0,8625.0,3207.0,2340.0,3194.0,374.0,,,,-0.0121958667396687,-2.0329591693528,0.0865017490557424,,6.060862738461715,,
,8479.0,1906.0,8626.0,3210.0,2320.0,3182.0,410.0,,,,-0.0121185446371239,-2.0325829775,0.0865277122782613,,4.964531655238291,,
,8481.0,1906.0,8625.0,3209.0,2325.0,3183.0,411.0,,,,-0.0120570772303986,-2.03216411460137,0.0865160158932532,,3.858211371873124,,
,8480.0,1906.0,8625.0,3205.0,2317.0,3181.0,406.0,,,,-0.0120128431532879,-2.0330566327973,0.0864969133367702,,2.752428059486257,,
,8480.0,1908.0,8623.0,3209.0,2341.0,3198.0,423.0,,,,-0.012037036735171,-2.03255356614492,0.0865252114646899,,1.6565465796763417,,
,8481.0,1907.0,8623.0,3208.0,2321.0,3214.0,408.0,,,,-0.0120030133844597,-2.03271899450566,0.0865391549617789,,0.578855419342029,,
,8483.0,1908.0,8626.0,3209.0,2312.0,3212.0,408.0,,,,-0.01195954122471,-2.03245340878568,0.0865172502983345,,-0.47327738281579157,,
,8485.0,1908.0,8629.0,3209.0,2313.0,3200.0,403.0,,,,-0.0118820545582874,-2.0322048384,0.0865391563775077,,-1.4932253912525255,,
,8487.0,1909.0,8629.0,3208.0,2322.0,3188.0,410.0,,,,-0.0118923222314055,-2.03219243315468,0.0865148341572305,,-2.474944835589013,,
,8487.0,1909.0,8630.0,3210.0,2349.0,3190.0,410.0,,,,-0.011837185693883,-2.03222866925303,0.086517390487706,,-3.4128677084963623,,
,8491.0,1911.0,8634.0,3211.0,2333.0,3186.0,409.0,,,,-0.0118422319024827,-2.03194093692679,0.086524930962554,,-4.3018654710049775,,
,8486.0,1908.0,8632.0,3209.0,2330.0,3197.0,409.0,,,,-0.0116420567053744,-2.03174134918036,0.0865511237340045,,-5.13728797695844,,
,8490.0,1911.0,8632.0,3209.0,2341.0,3205.0,409.0,,,,-0.0117098382811455,-2.03158706666969,0.0865619283129701,,-5.915069646018342,,
,8493.0,1911.0,8638.0,3210.0,2356.0,3189.0,399.0,,,,-0.0116653145613036,-2.03175377333268,0.0865610631166909,,-6.631884460307117,,
,8495.0,1912.0,8642.0,3210.0,2333.0,3191.0,412.0,,,,-0.0116063382793528,-2.0315801535379,0.0865445081760523,,-7.28532319526203,,
,8493.0,1910.0,8642.0,3209.0,2332.0,3190.0,396.0,,,,-0.0115468247166959,-2.03149723408725,0.0865596144435371,,-7.874061067183413,,
,8494.0,1912.0,8642.0,3208.0,2323.0,3206.0,385.0,,,,-0.0116091086080842,-2.03112022938782,0.0865393411828455,,-8.397983257593854,,
,8498.0,1911.0,8644.0,3210.0,2326.0,3198.0,394.0,,,,-0.0117317300648869,-2.03098880350706,0.0865616061952606,,-8.858240917944984,,
,8498.0,1912.0,8645.0,3212.0,2312.0,3192.0,417.0,,,,-0.0117100320747999,-2.0314052094844,0.086551290683244,,-9.257220712509918,,
,8497.0,1912.0,8647.0,3212.0,2308.0,3167.0,424.0,,,,-0.0117536227545847,-2.03171579652617,0.0865530044652765,,-9.598423964037163,,
,8498.0,1914.0,8647.0,3208.0,2310.0,3180.0,403.0,,,,-0.0118155515630568,-2.03122059174837,0.0865267195564517,,-9.886263641509432,,
,8500.0,1913.0,8647.0,3210.0,2328.0,3195.0,427.0,,,,-0.0117974722783264,-2.0314803583164,0.0865467537538524,,-10.12579662719565,,
,8501.0,1915.0,8648.0,3213.0,2335.0,3211.0,421.0,,,,-0.0118336313332711,-2.0317196611625,0.0865434297380809,,-10.322414558292698,,
,8504.0,1915.0,8650.0,3211.0,2328.0,3212.0,406.0,,,,-0.0119609557012641,-2.03148061655918,0.0865304243042296,,-10.481519629886623,,
,8503.0,1914.0,8649.0,3210.0,2332.0,3223.0,397.0,,,,-0.0119021172010795,-2.03202871168752,0.0865203701853078,,-10.608212435093147,,
,8504.0,1915.0,8648.0,3212.0,2353.0,3216.0,402.0,,,,-0.012065328770045,-2.03143735903171,0.0865128872414286,,-10.70701690185053,,
,8507.0,1917.0,8648.0,3213.0,2324.0,3237.0,401.0,,,,-0.0120699675260244,-2.03149132279628,0.0865180383088538,,-10.781662115094562,,
,8509.0,1917.0,8648.0,3210.0,2330.0,3222.0,424.0,,,,-0.011974798864248,-2.03180096842879,0.0865074277188476,,-10.834932347057958,,
,8506.0,1918.0,8649.0,3212.0,2340.0,3206.0,418.0,,,,-0.0120214923719539,-2.03186624025629,0.0864815302924238,,-10.86858631604343,,
,8504.0,1914.0,8649.0,3208.0,2335.0,3193.0,432.0,,,,-0.0121440932780141,-2.03239984727096,0.0864764600517072,,-10.883337251851389,,
,8501.0,1914.0,8648.0,3210.0,2342.0,3177.0,411.0,,,,-0.0123485391369366,-2.03222892206848,0.0864569301163041,,-10.878879763254785,,
,8502.0,1912.0,8650.0,3208.0,2331.0,3159.0,402.0,,,,-0.0124856178268308,-2.03242085422075,0.0864676779941091,,-10.853949257846857,,
,8493.0,1912.0,8647.0,3207.0,2339.0,3152.0,413.0,,,,-0.0124757474512879,-2.0325079655559,0.0864389748325146,,-10.806403631626207,,
,8490.0,1908.0,8647.0,3205.0,2318.0,3151.0,410.0,,,,-0.0125265768506997,-2.03253692379456,0.0864584836766386,,-10.73332226877237,,
,8481.0,1907.0,8646.0,3205.0,2296.0,3169.0,423.0,,,,-0.012644318505634,-2.03189304023015,0.0864165704950935,,-10.631121459157953,,
,8474.0,1905.0,8648.0,3205.0,2298.0,3165.0,438.0,,,,-0.0125486850696387,-2.03222091389108,0.0864099010760263,,-10.495687075061658,,
,8465.0,1902.0,8646.0,3204.0,2308.0,3185.0,414.0,,,,-0.012504972332318,-2.032134090658,0.0864237708768105,,-10.322525186323213,,
,8457.0,1902.0,8645.0,3208.0,2328.0,3173.0,388.0,,,,-0.0125076734488184,-2.0330555394441,0.0864138453325838,,-10.106930382905395,,
,8446.0,1897.0,8647.0,3203.0,2328.0,3194.0,397.0,,,,-0.0125677573278243,-2.03264283873311,0.0864066497885673,,-9.844170825711254,,
,8441.0,1895.0,8645.0,3206.0,2334.0,3192.0,404.0,,,,-0.0124356607398639,-2.03265567068892,0.0864133941200039,,-9.529688513460817,,
,8433.0,1893.0,8644.0,3205.0,2313.0,3191.0,409.0,,,,-0.0123832148578276,-2.03256195197597,0.0863937645447892,,-9.159312272034185,,
,8426.0,1892.0,8646.0,3202.0,2326.0,3193.0,414.0,,,,-0.0123622406372655,-2.03286569723585,0.0864108160620722,,-8.729479067504178,,
,8418.0,1892.0,8645.0,3200.0,2353.0,3199.0,406.0,,,,-0.0123081666552585,-2.03242583766131,0.0864573475776594,,-8.237456953636029,,
,8412.0,1887.0,8644.0,3203.0,2376.0,3195.0,403.0,,,,-0.0122253803694555,-2.03286942261185,0.0863928218192333,,-7.681561522082182,,
,8407.0,1890.0,8645.0,3201.0,2355.0,3186.0,395.0,,,,-0.0121958979490145,-2.03228380546066,0.08640052805711,,-7.061357680872885,,
,8405.0,1887.0,8646.0,3202.0,2352.0,3197.0,390.0,,,,-0.0120963610331036,-2.03222984403691,0.086409626929494,,-6.377838925371444,,
,8395.0,1887.0,8645.0,3202.0,2345.0,3193.0,396.0,,,,-0.0120873588649252,-2.03161077851076,0.0864088197998826,,-5.633575251458404,,
,8394.0,1889.0,8647.0,3204.0,2351.0,3189.0,395.0,,,,-0.0119225412964775,-2.03145210717775,0.086412473747718,,-4.8328178712335825,,
,8394.0,1888.0,8648.0,3203.0,2352.0,3195.0,392.0,,,,-0.0118305556431729,-2.03139028963512,0.0864177553769529,,-3.9815452633020882,,
,8393.0,1886.0,8649.0,3203.0,2343.0,3191.0,380.0,,,,-0.0118236323568752,-2.03144128046883,0.086404555828391,,-3.087433230999877,,
,8388.0,1888.0,8648.0,3204.0,2340.0,3196.0,382.0,,,,-0.0116522449094854,-2.031640592663,0.086421248364348,,-2.159733435859523,,
,8389.0,1890.0,8645.0,3203.0,2351.0,3196.0,394.0,,,,-0.0117524926411557,-2.03184693558494,0.0864125181212571,,-1.2090506430518997,,
,8393.0,1890.0,8651.0,3205.0,2340.0,3195.0,400.0,,,,-0.0118178907902893,-2.03142748512361,0.0864195169193553,,-0.24701740571056807,,
,8390.0,1890.0,8650.0,3205.0,2332.0,3212.0,409.0,,,,-0.011755429912978,-2.03235026300915,0.0864167588221269,,0.714125836330672,,
,8390.0,1890.0,8649.0,3206.0,2335.0,3200.0,412.0,,,,-0.0118044567431309,-2.03203915658535,0.0863800892985451,,1.662028606975366,,
,8391.0,1890.0,8650.0,3205.0,2313.0,3169.0,405.0,,,,-0.0118839732557282,-2.03314115274867,0.0863354228269245,,2.584781390500381,,
,8395.0,1891.0,8651.0,3207.0,2336.0,3153.0,426.0,,,,-0.0118081977248091,-2.03385931867221,0.0863029629662998,,3.4714865135907282,,
,8391.0,1893.0,8652.0,3208.0,2339.0,3164.0,422.0,,,,-0.011819615215236,-2.03406658656675,0.0862478778852928,,4.312807286024193,,
,8395.0,1893.0,8649.0,3203.0,2334.0,3170.0,426.0,,,,-0.0118011704229451,-2.03459226826628,0.0861998029148877,,5.101447808358896,,
,8391.0,1891.0,8648.0,3204.0,2336.0,3169.0,435.0,,,,-0.0116160369297589,-2.03475674363288,0.0862278987515108,,5.832515104644058,,
,8396.0,1893.0,8650.0,3205.0,2341.0,3183.0,424.0,,,,-0.0116912703235898,-2.03462981606907,0.0862234919880661,,6.503721109046757,,
,8399.0,1895.0,8652.0,3206.0,2335.0,3191.0,417.0,,,,-0.0117657438955359,-2.03474034019584,0.0861998256333081,,7.115393990526601,,
,8400.0,1895.0,8651.0,3205.0,2332.0,3187.0,429.0,,,,-0.0116835325857925,-2.03517192531036,0.0862000752053071,,7.670284549992019,,
,8397.0,1894.0,8653.0,3205.0,2330.0,3206.0,407.0,,,,-0.0117657106727361,-2.03551615352375,0.0862000668456736,,8.173171873549986,,
,8400.0,1895.0,8652.0,3209.0,2343.0,3203.0,415.0,,,,-0.011905011951336,-2.03520788275897,0.0861821058799467,,8.630291373203423,,
,8398.0,1896.0,8650.0,3208.0,2348.0,3203.0,408.0,,,,-0.0119451861284807,-2.03625428308187,0.086154543088405,,9.048626610714361,,
,8398.0,1894.0,8654.0,3207.0,2333.0,3206.0,408.0,,,,-0.0120236188980769,-2.03687884591294,0.0861133556097739,,9.435122525591733,,
,8399.0,1894.0,8652.0,3206.0,2323.0,3187.0,417.0,,,,-0.0119868146618403,-2.03722615683092,0.0860950940852352,,9.795889497443165,,
,8397.0,1893.0,8654.0,3206.0,2342.0,3178.0,420.0,,,,-0.0120897029693795,-2.03743637684139,0.0860475934160746,,10.135472092961477,,
,8398.0,1895.0,8653.0,3207.0,2344.0,3193.0,415.0,,,,-0.0120098534346818,-2.0374836787766,0.0860943546273174,,10.456251741141882,,
,8396.0,1893.0,8653.0,3206.0,2348.0,3189.0,409.0,,,,-0.0120043105285935,-2.03828827729492,0.0860679172888869,,10.758040036630018,,
,8394.0,1895.0,8656.0,3208.0,2328.0,3190.0,418.0,,,,-0.0119891300359695,-2.03806236019302,0.0860481754809067,,11.037901737272952,,
,8393.0,1891.0,8654.0,3205.0,2355.0,3187.0,425.0,,,,-0.012071305166358,-2.03865340070342,0.0860279302630091,,11.290226216449112,,
,8393.0,1893.0,8653.0,3208.0,2336.0,3184.0,414.0,,,,-0.0119874502722448,-2.0384978763138,0.0860053554967765,,11.5070442490157,,
,8392.0,1895.0,8656.0,3208.0,2323.0,3204.0,407.0,,,,-0.0118393820938012,-2.03876666831874,0.0859923652506789,,11.678564310680963,,
,8393.0,1895.0,8655.0,3208.0,2321.0,3200.0,395.0,,,,-0.0117854966093559,-2.03846093601744,0.0859904498216335,,11.793880809523738,,
,8391.0,1895.0,8654.0,3207.0,2343.0,3208.0,407.0,,,,-0.0117383295355371,-2.03774657451537,0.0859982667985743,,11.841788787580896,,
,8393.0,1894.0,8653.0,3206.0,2342.0,3206.0,414.0,,,,-0.0117485106604697,-2.037802335482,0.0859980519163622,,11.811628765034866,,
,8390.0,1894.0,8656.0,3210.0,2326.0,3193.0,393.0,,,,-0.0116523000079999,-2.03782710705007,0.0859979952684707,,11.694083582855452,,
,8392.0,1897.0,8656.0,3209.0,2338.0,3183.0,407.0,,,,-0.011583807654489,-2.03734560563489,0.085976729780905,,11.48185639230289,,
,8391.0,1895.0,8654.0,3207.0,2319.0,3195.0,410.0,,,,-0.0114425575906378,-2.03670192571015,0.0859373842805527,,11.17017346380814,,
,8392.0,1897.0,8654.0,3207.0,2334.0,3203.0,403.0,,,,-0.011424372730203,-2.03670097071756,0.0859962671983184,,10.757074632391424,,
,8394.0,1896.0,8654.0,3207.0,2354.0,3197.0,417.0,,,,-0.0112666086504191,-2.03661690118832,0.0859393386575356,,10.243476161304265,,
,8397.0,1898.0,8658.0,3208.0,2343.0,3206.0,414.0,,,,-0.0113032641729589,-2.03635519985324,0.0859199720406648,,9.633014717896978,,
,8395.0,1897.0,8657.0,3209.0,2328.0,3196.0,408.0,,,,-0.0111324746726759,-2.03565099669991,0.0859458118799556,,8.93170538577981,,
,8394.0,1898.0,8653.0,3207.0,2345.0,3177.0,401.0,,,,-0.0112319364984879,-2.03504099539422,0.0859684504083975,,8.147467509036705,,
,8396.0,1897.0,8655.0,3209.0,2340.0,3179.0,411.0,,,,-0.0112298455554762,-2.03513582670274,0.0859538662149308,,7.289585110695697,,
,8399.0,1902.0,8656.0,3208.0,2330.0,3198.0,411.0,,,,-0.0110589084983453,-2.03473061869296,0.0858998604039211,,6.368170710181466,,
,8401.0,1901.0,8659.0,3211.0,2329.0,3196.0,430.0,,,,-0.0110670209275711,-2.03465297373918,0.0858572286493901,,5.393692629460581,,
,8399.0,1898.0,8653.0,3208.0,2331.0,3206.0,429.0,,,,-0.0108678412137875,-2.03432218460202,0.0859603927073117,,4.376608952561845,,
,8403.0,1900.0,8656.0,3210.0,2352.0,3207.0,410.0,,,,-0.0108515699274718,-2.03381864495639,0.0858574589970934,,3.3271303194822246,,
,8404.0,1902.0,8659.0,3210.0,2338.0,3203.0,407.0,,,,-0.0108040704038696,-2.03410603587453,0.0858956757315236,,2.255113123781526,,
,8407.0,1901.0,8655.0,3208.0,2333.0,3204.0,409.0,,,,-0.010837101893784,-2.03414426724274,0.0858821505597547,,1.1700677373418173,,
,8407.0,1902.0,8657.0,3210.0,2337.0,3185.0,404.0,,,,-0.0109500494029047,-2.03473067531141,0.0859293686560501,,0.08125414606496276,,
,8410.0,1904.0,8661.0,3209.0,2331.0,3203.0,405.0,,,,-0.0110029241381871,-2.03443777883925,0.0858909624642853,,-1.002171130586495,,
,8409.0,1905.0,8660.0,3213.0,2339.0,3190.0,426.0,,,,-0.0109355411230488,-2.0347785608535,0.0858415230157611,,-2.0709990514368406,,
,8411.0,1902.0,8662.0,3214.0,2338.0,3189.0,424.0,,,,-0.0110058014720415,-2.03483608915994,0.0859687851260849,,-3.115848685168782,,
,8415.0,1905.0,8660.0,3210.0,2359.0,3212.0,430.0,,,,-0.0112852538738947,-2.03509370909172,0.0858855497979474,,-4.127128949319167,,
