TimeLabel,MEAS1_PPG1,MEAS1_PPG2,MEAS1_PPG3,MEAS1_PPG4,ACCX,ACCY,ACCZ,HR_timestamp,HR_value,radar_timestamp,phase_rx0,phase_rx1,phase_rx2,timestep,n_process,original_rate,calculated_rate
2025-07-29 20:40:31,6938.0,1706.0,10888.0,1865.0,1259.0,3804.0,269.0,2025-07-29 20:41:04,91.0,2025/07/29 08:40:31 PM,-1.75149822046265,-2.97665777182386,-1.15198949375602,2025/07/29 08:40:31 PM,8.592931140709815,7.5885329246521,11.88756587936756
,6935.0,1705.0,10888.0,1866.0,1273.0,3802.0,264.0,2025-07-29 20:41:05,91.0,,-1.75469231088602,-2.97675669155652,-1.15297392801132,2025/07/29 08:40:41 PM,8.564942535881098,11.88589572906494,14.561403508771921
,6938.0,1707.0,10888.0,1866.0,1261.0,3802.0,276.0,2025-07-29 20:41:06,91.0,,-1.75764378970891,-2.97684555016584,-1.15357788823973,2025/07/29 08:40:51 PM,8.475665852032405,9.081735610961914,12.940630797773657
,6940.0,1709.0,10891.0,1865.0,1253.0,3798.0,284.0,2025-07-29 20:41:07,92.0,,-1.76215695930757,-2.97689399677168,-1.15535738114683,2025/07/29 08:41:01 PM,8.318519171019942,13.090909004211426,12.122448979591837
,6940.0,1707.0,10887.0,1867.0,1247.0,3798.0,267.0,2025-07-29 20:41:08,93.0,,-1.76555670551795,-2.97719286306831,-1.15715672643314,2025/07/29 08:41:11 PM,8.088768927244711,10.50788116455078,12.556394417753374
,6939.0,1707.0,10890.0,1868.0,1244.0,3798.0,277.0,2025-07-29 20:41:09,94.0,,-1.76852563942715,-2.97724584603804,-1.15860992890115,2025/07/29 08:41:21 PM,7.784050477261209,12.386457443237305,12.004730928444701
,6939.0,1709.0,10890.0,1869.0,1252.0,3796.0,274.0,2025-07-29 20:41:10,94.0,,-1.77281303841327,-2.97735193574964,-1.15964206766517,2025/07/29 08:41:31 PM,7.40473089141376,13.206162452697754,10.909090909090908
,6941.0,1706.0,10892.0,1868.0,1272.0,3802.0,295.0,2025-07-29 20:41:11,94.0,,-1.77490254850851,-2.97753624484526,-1.16001711102871,2025/07/29 08:41:41 PM,6.954075208578741,9.463722229003906,12.31578947368421
,6940.0,1706.0,10891.0,1867.0,1255.0,3799.0,314.0,2025-07-29 20:41:12,95.0,,-1.77751400682128,-2.97756021844454,-1.16116889867644,2025/07/29 08:41:51 PM,6.4381947882262445,11.483253479003906,12.820352091962455
,6938.0,1704.0,10887.0,1866.0,1262.0,3794.0,273.0,2025-07-29 20:41:13,95.0,,-1.7791752030877,-2.97752405918498,-1.1626039314694,2025/07/29 08:42:01 PM,5.865777377990628,12.07729434967041,11.845944368799836
,6940.0,1708.0,10891.0,1869.0,1281.0,3795.0,282.0,2025-07-29 20:41:14,95.0,,-1.78273939226886,-2.97769764091487,-1.16340706896097,2025/07/29 08:42:11 PM,5.247620274577789,13.06240940093994,7.017543859649125
,6939.0,1708.0,10889.0,1868.0,1266.0,3796.0,288.0,2025-07-29 20:41:15,95.0,,-1.78451884104181,-2.97775597406246,-1.16404327190285,2025/07/29 08:42:21 PM,4.596006956791224,8.941877365112305,10.800385728061727
,6936.0,1707.0,10887.0,1866.0,1260.0,3783.0,282.0,2025-07-29 20:41:16,94.0,,-1.78569592229163,-2.9778046402814,-1.16422105336581,2025/07/29 08:42:31 PM,3.9239812088448165,9.027081489562988,10.727969348658988
,6936.0,1705.0,10889.0,1865.0,1264.0,3783.0,267.0,2025-07-29 20:41:17,94.0,,-1.78796931342186,-2.97782753071435,-1.1655195678881,2025/07/29 08:42:41 PM,3.2445801014084217,9.478672981262209,8.759124087591248
,6939.0,1705.0,10892.0,1866.0,1286.0,3788.0,273.0,2025-07-29 20:41:18,94.0,,-1.78989993044253,-2.97782499864651,-1.16563441499181,2025/07/29 08:42:51 PM,2.5700886484091274,10.273972511291504,10.496562261268153
,6942.0,1709.0,10894.0,1870.0,1273.0,3789.0,264.0,2025-07-29 20:41:19,95.0,,-1.79039632049134,-2.9779791841522,-1.16647783798157,2025/07/29 08:43:01 PM,1.9113755464137023,10.46755027770996,9.870967741935484
,6937.0,1706.0,10890.0,1867.0,1285.0,3796.0,273.0,2025-07-29 20:41:20,96.0,,-1.79015409294057,-2.97793985261696,-1.16679746563517,2025/07/29 08:43:11 PM,1.2773621972336675,10.34482765197754,12.0
,6935.0,1703.0,10890.0,1866.0,1276.0,3801.0,249.0,2025-07-29 20:41:21,97.0,,-1.79212407418032,-2.97803383315008,-1.16676022259995,2025/07/29 08:43:21 PM,0.6746666625915025,8.34492301940918,10.764279967819785
,6938.0,1706.0,10891.0,1865.0,1264.0,3803.0,256.0,2025-07-29 20:41:22,99.0,,-1.79025658636283,-2.97797782261114,-1.16716415628289,,0.1074498579679432,,
,6936.0,1706.0,10891.0,1868.0,1260.0,3777.0,258.0,2025-07-29 20:41:23,100.0,,-1.79021659591013,-2.97793991482771,-1.16663839754665,,-0.42252729564750496,,
,6937.0,1707.0,10890.0,1868.0,1270.0,3782.0,259.0,2025-07-29 20:41:24,100.0,,-1.78917541013049,-2.97803728845549,-1.16573960875243,,-0.9156487172095328,,
,6938.0,1706.0,10894.0,1870.0,1295.0,3786.0,257.0,2025-07-29 20:41:25,99.0,,-1.78801674519045,-2.97790308107905,-1.16544858491343,,-1.3740244545351865,,
,6936.0,1706.0,10892.0,1868.0,1273.0,3791.0,246.0,2025-07-29 20:41:26,98.0,,-1.78672029078875,-2.97777066963486,-1.16489630134254,,-1.8009602999806344,,
,6937.0,1708.0,10894.0,1867.0,1254.0,3789.0,236.0,2025-07-29 20:41:27,97.0,,-1.78441211237054,-2.97776835757983,-1.16411608084467,,-2.200378349268087,,
,6937.0,1708.0,10897.0,1870.0,1260.0,3785.0,260.0,2025-07-29 20:41:28,96.0,,-1.78233493935603,-2.97774949012382,-1.16297148510415,,-2.5762541036408644,,
,6940.0,1708.0,10895.0,1871.0,1270.0,3788.0,256.0,2025-07-29 20:41:29,95.0,,-1.78019967901949,-2.97758762729464,-1.16274896199384,,-2.9321308896642666,,
,6940.0,1706.0,10897.0,1869.0,1271.0,3775.0,252.0,2025-07-29 20:41:30,93.0,,-1.77888499845179,-2.9775908359523,-1.16138154873624,,-3.2707603370532503,,
,6940.0,1706.0,10893.0,1870.0,1275.0,3793.0,242.0,2025-07-29 20:41:31,92.0,,-1.77674906246643,-2.97754156286598,-1.16199929748678,,-3.593899776505826,,
,6942.0,1709.0,10899.0,1871.0,1290.0,3802.0,250.0,2025-07-29 20:41:32,93.0,,-1.7756846039237,-2.97738508785362,-1.1613239531256,,-3.9022757590800152,,
,6942.0,1712.0,10899.0,1871.0,1262.0,3804.0,246.0,2025-07-29 20:41:33,93.0,,-1.774420351728,-2.97738750576409,-1.15985956768204,,-4.19570004448049,,
,6942.0,1708.0,10895.0,1872.0,1247.0,3796.0,230.0,2025-07-29 20:41:34,93.0,,-1.77393924036475,-2.97723867630191,-1.15927844464105,,-4.473303592640967,,
,6941.0,1709.0,10898.0,1870.0,1255.0,3810.0,251.0,2025-07-29 20:41:35,93.0,,-1.77184418718914,-2.97733465071179,-1.15940822178081,,-4.73383917758993,,
,6943.0,1710.0,10902.0,1875.0,1254.0,3818.0,245.0,2025-07-29 20:41:36,92.0,,-1.77125533699417,-2.97733310225312,-1.15934215837697,,-4.975997596636749,,
,6946.0,1712.0,10900.0,1872.0,1271.0,3811.0,239.0,2025-07-29 20:41:37,92.0,,-1.77126892294051,-2.97732067904113,-1.15792949677889,,-5.198687098162929,,
,6945.0,1713.0,10903.0,1874.0,1267.0,3802.0,234.0,2025-07-29 20:41:38,92.0,,-1.77030717629636,-2.97727553782854,-1.15880170756188,,-5.401238451259998,,
,6947.0,1710.0,10900.0,1874.0,1268.0,3807.0,246.0,2025-07-29 20:41:39,92.0,,-1.77013142107776,-2.97727509687061,-1.15797188307511,,-5.583514944178416,,
,6947.0,1711.0,10903.0,1877.0,1287.0,3799.0,254.0,2025-07-29 20:41:40,92.0,,-1.76899028426813,-2.97722255316623,-1.15775333953878,,-5.745923637955212,,
,6949.0,1713.0,10903.0,1877.0,1278.0,3783.0,255.0,2025-07-29 20:41:41,92.0,,-1.76928282226436,-2.97726268113071,-1.15841030863012,,-5.889338928080206,,
,6951.0,1713.0,10902.0,1875.0,1273.0,3760.0,256.0,2025-07-29 20:41:42,92.0,,-1.76891706860752,-2.97713051226765,-1.1575353983408,,-6.014960640729003,,
,6949.0,1711.0,10900.0,1876.0,1279.0,3778.0,264.0,2025-07-29 20:41:43,92.0,,-1.76819858264791,-2.97721167909299,-1.15751570111336,,-6.124135885459644,,
,6951.0,1714.0,10904.0,1877.0,1281.0,3775.0,258.0,2025-07-29 20:41:44,93.0,,-1.76776421096584,-2.97714855247564,-1.15720862041682,,-6.2181762704019015,,
,6952.0,1715.0,10905.0,1880.0,1275.0,3786.0,231.0,2025-07-29 20:41:45,93.0,,-1.76809778261382,-2.97716391390132,-1.15750925692952,,-6.298199502825966,,
,6953.0,1716.0,10904.0,1879.0,1269.0,3786.0,235.0,2025-07-29 20:41:46,93.0,,-1.76787186871826,-2.97711750374692,-1.15738679744419,,-6.365016786257465,,
,6952.0,1712.0,10904.0,1878.0,1292.0,3791.0,240.0,2025-07-29 20:41:47,93.0,,-1.76784735851756,-2.97704509885865,-1.15815646326717,,-6.41907566188014,,
,6956.0,1717.0,10906.0,1881.0,1275.0,3795.0,259.0,2025-07-29 20:41:48,94.0,,-1.76791737390972,-2.97716106475909,-1.15736626064712,,-6.460454551211405,,
,6957.0,1718.0,10906.0,1882.0,1251.0,3807.0,276.0,2025-07-29 20:41:49,94.0,,-1.76894436819764,-2.97708327608408,-1.15827537182155,,-6.4888941674209875,,
,6959.0,1718.0,10908.0,1883.0,1264.0,3819.0,263.0,2025-07-29 20:41:50,93.0,,-1.77052143367412,-2.97714952950657,-1.15870629329222,,-6.503845760843282,,
,6957.0,1719.0,10908.0,1882.0,1254.0,3809.0,239.0,2025-07-29 20:41:51,93.0,,-1.77089408738682,-2.97716514992959,-1.15889470135803,,-6.504518039881784,,
,6958.0,1720.0,10908.0,1883.0,1269.0,3803.0,245.0,2025-07-29 20:41:52,92.0,,-1.77128043818105,-2.97735039046295,-1.15872500824224,,-6.489911869182318,,
,6961.0,1721.0,10906.0,1884.0,1278.0,3805.0,228.0,2025-07-29 20:41:53,91.0,,-1.77236810275131,-2.97728477191902,-1.1599855809897,,-6.458841264659226,,
,6960.0,1718.0,10907.0,1886.0,1248.0,3806.0,235.0,2025-07-29 20:41:54,89.0,,-1.77433240927608,-2.97732817856009,-1.16010344585877,,-6.409947723104508,,
,6959.0,1721.0,10907.0,1884.0,1251.0,3807.0,270.0,2025-07-29 20:41:55,88.0,,-1.77699717687743,-2.97746472243931,-1.16008832517098,,-6.341720494081323,,
,6957.0,1718.0,10900.0,1885.0,1272.0,3811.0,272.0,2025-07-29 20:41:56,88.0,,-1.77993996925629,-2.97752163731878,-1.16199791483074,,-6.252537030984742,,
,6958.0,1719.0,10901.0,1884.0,1273.0,3794.0,237.0,2025-07-29 20:41:57,87.0,,-1.78438241927956,-2.97789812943682,-1.16339920513038,,-6.14073543614455,,
,6960.0,1718.0,10900.0,1882.0,1274.0,3784.0,263.0,2025-07-29 20:41:58,88.0,,-1.78711379074627,-2.9778854173881,-1.1641280711122,,-6.004724755028339,,
,6959.0,1716.0,10896.0,1882.0,1266.0,3776.0,260.0,2025-07-29 20:41:59,88.0,,-1.79278298362463,-2.97809934486981,-1.16681861719388,,-5.843130293189546,,
,6958.0,1712.0,10891.0,1878.0,1259.0,3785.0,272.0,2025-07-29 20:42:00,89.0,,-1.79647568922643,-2.97826687575109,-1.16801763348107,,-5.654960859768765,,
,6953.0,1713.0,10888.0,1875.0,1255.0,3776.0,283.0,2025-07-29 20:42:01,90.0,,-1.80002953616724,-2.97845461231032,-1.169289568055,,-5.4397750117942305,,
,6950.0,1709.0,10886.0,1871.0,1252.0,3779.0,306.0,2025-07-29 20:42:02,89.0,,-1.80393266215809,-2.97853585002336,-1.17025623505546,,-5.197817248477289,,
,6950.0,1708.0,10887.0,1869.0,1251.0,3776.0,301.0,2025-07-29 20:42:03,88.0,,-1.80640311154703,-2.97859611519379,-1.17187628318365,,-4.930095997272047,,
,6947.0,1705.0,10880.0,1865.0,1220.0,3797.0,264.0,2025-07-29 20:42:04,87.0,,-1.81044978465605,-2.97880699129035,-1.1728450232342,,-4.638384112292466,,
,6945.0,1703.0,10877.0,1861.0,1213.0,3804.0,295.0,2025-07-29 20:42:05,86.0,,-1.8138846142862,-2.97888357989762,-1.17405546153236,,-4.325136926563738,,
,6942.0,1702.0,10879.0,1860.0,1243.0,3809.0,283.0,2025-07-29 20:42:06,86.0,,-1.81730066834037,-2.97897400163427,-1.17586964071438,,-3.9933381650607744,,
,6941.0,1701.0,10879.0,1860.0,1250.0,3793.0,276.0,2025-07-29 20:42:07,86.0,,-1.81915066952267,-2.97900515271725,-1.17655833460273,,-3.646296404090481,,
,6940.0,1699.0,10881.0,1858.0,1252.0,3790.0,270.0,2025-07-29 20:42:08,86.0,,-1.821022044048,-2.97909643774127,-1.17653623443826,,-3.2874223094964146,,
,6936.0,1696.0,10876.0,1856.0,1254.0,3804.0,256.0,2025-07-29 20:42:09,86.0,,-1.82186352741311,-2.97904895267482,-1.17745748512964,,-2.9200191094721215,,
,6939.0,1696.0,10880.0,1853.0,1274.0,3807.0,253.0,2025-07-29 20:42:10,87.0,,-1.82349946613471,-2.97925899499374,-1.17820922630815,,-2.547115811923461,,
,6936.0,1694.0,10880.0,1853.0,1277.0,3796.0,253.0,2025-07-29 20:42:11,87.0,,-1.82246627107037,-2.97910426528971,-1.17858418070942,,-2.171364971067241,,
,6934.0,1695.0,10883.0,1854.0,1271.0,3791.0,240.0,2025-07-29 20:42:12,87.0,,-1.82123559518461,-2.97910959330969,-1.17695902265112,,-1.795015051792702,,
,6932.0,1693.0,10885.0,1849.0,1279.0,3812.0,248.0,2025-07-29 20:42:13,87.0,,-1.82015417272705,-2.97915223601542,-1.17663411010259,,-1.4199530844096466,,
,6931.0,1694.0,10886.0,1853.0,1293.0,3809.0,248.0,2025-07-29 20:42:14,88.0,,-1.81811382456848,-2.97900556245364,-1.17590925481305,,-1.0477991410577017,,
,6931.0,1693.0,10886.0,1853.0,1291.0,3795.0,254.0,2025-07-29 20:42:15,88.0,,-1.81634815039028,-2.97897839325637,-1.17584232421208,,-0.6800240918351764,,
,6930.0,1694.0,10888.0,1852.0,1278.0,3786.0,264.0,2025-07-29 20:42:16,89.0,,-1.8147825586002,-2.97884357530887,-1.1750484799246,,-0.31805931114061115,,
,6929.0,1690.0,10888.0,1850.0,1252.0,3779.0,257.0,2025-07-29 20:42:17,90.0,,-1.81334799560286,-2.97889442406873,-1.17507823102202,,0.036628063319119046,,
,6928.0,1692.0,10890.0,1852.0,1261.0,3801.0,241.0,2025-07-29 20:42:18,90.0,,-1.81198755795974,-2.97887173252428,-1.17390592133312,,0.38251056552020923,,
,6931.0,1694.0,10893.0,1853.0,1249.0,3784.0,258.0,2025-07-29 20:42:19,91.0,,-1.8106138205749,-2.97882260130585,-1.17276375117548,,0.7180309630656951,,
,6931.0,1693.0,10891.0,1853.0,1258.0,3772.0,261.0,2025-07-29 20:42:20,90.0,,-1.80944854614792,-2.9787119945329,-1.17292479404304,,1.0416816040667296,,
,6928.0,1694.0,10892.0,1855.0,1271.0,3785.0,261.0,2025-07-29 20:42:21,90.0,,-1.81010971516642,-2.97871482077387,-1.17389387092587,,1.352117913302297,,
,6929.0,1693.0,10895.0,1854.0,1273.0,3782.0,263.0,2025-07-29 20:42:22,89.0,,-1.80924051765568,-2.97872290224649,-1.17340913660502,,1.6482864187013206,,
,6931.0,1693.0,10893.0,1855.0,1265.0,3786.0,244.0,2025-07-29 20:42:23,88.0,,-1.81019372256011,-2.97869971786064,-1.17264225421401,,1.9295466408695385,,
,6929.0,1693.0,10896.0,1853.0,1266.0,3811.0,224.0,2025-07-29 20:42:24,88.0,,-1.8108179636592,-2.97886719437679,-1.1723969456624,,2.195769255172133,,
,6930.0,1693.0,10895.0,1857.0,1245.0,3816.0,231.0,2025-07-29 20:42:25,88.0,,-1.81138591714109,-2.97879221041862,-1.17333630621052,,2.447399479166244,,
,6929.0,1695.0,10894.0,1856.0,1261.0,3812.0,244.0,2025-07-29 20:42:26,88.0,,-1.81264760222387,-2.97897454787294,-1.17350161613477,,2.6854828496965055,,
,6930.0,1697.0,10896.0,1858.0,1258.0,3809.0,211.0,2025-07-29 20:42:27,88.0,,-1.81471010413342,-2.97880939075661,-1.17523773976213,,2.911657603469138,,
,6933.0,1698.0,10899.0,1857.0,1253.0,3814.0,261.0,2025-07-29 20:42:28,88.0,,-1.81718134816402,-2.97890395974905,-1.17568474391982,,3.128120982917504,,
,6932.0,1697.0,10901.0,1857.0,1249.0,3794.0,265.0,2025-07-29 20:42:29,89.0,,-1.81875993060753,-2.97905788549202,-1.17658039393368,,3.3375750185985997,,
,6932.0,1696.0,10898.0,1861.0,1282.0,3789.0,246.0,2025-07-29 20:42:30,90.0,,-1.81919787831869,-2.97910649036591,-1.17657705278017,,3.543152436175379,,
,6933.0,1695.0,10899.0,1862.0,1258.0,3794.0,264.0,2025-07-29 20:42:31,91.0,,-1.8198970151633,-2.97920689942863,-1.17682182450524,,3.748318512825037,,
,6936.0,1699.0,10899.0,1860.0,1279.0,3782.0,265.0,2025-07-29 20:42:32,91.0,,-1.81996541697213,-2.97906468339422,-1.17667188656575,,3.956742505164119,,
,6934.0,1695.0,10901.0,1863.0,1277.0,3755.0,289.0,2025-07-29 20:42:33,91.0,,-1.81882129177601,-2.97907386273384,-1.17617099625506,,4.17213351485801,,
,6934.0,1698.0,10898.0,1860.0,1250.0,3747.0,298.0,2025-07-29 20:42:34,90.0,,-1.81753391204356,-2.97910611339331,-1.17619308225028,,4.398039959309269,,
,6934.0,1696.0,10899.0,1861.0,1224.0,3757.0,282.0,2025-07-29 20:42:35,90.0,,-1.81536219812757,-2.97891832559305,-1.17426815594913,,4.637618373411638,,
,6934.0,1695.0,10901.0,1861.0,1245.0,3767.0,288.0,2025-07-29 20:42:36,89.0,,-1.8133055864362,-2.97871823225362,-1.17421940867317,,4.893385059409877,,
,6935.0,1697.0,10899.0,1861.0,1270.0,3768.0,266.0,2025-07-29 20:42:37,88.0,,-1.81118125405932,-2.97877900292941,-1.17351861751616,,5.166971710222514,,
,6938.0,1696.0,10897.0,1860.0,1269.0,3774.0,268.0,2025-07-29 20:42:38,87.0,,-1.80933019516375,-2.97886626234166,-1.17198854431404,,5.458911729789921,,
,6936.0,1697.0,10899.0,1859.0,1272.0,3794.0,277.0,2025-07-29 20:42:39,87.0,,-1.80869590821885,-2.97880403434544,-1.17210359024812,,5.768485521179973,,
,6936.0,1698.0,10897.0,1861.0,1279.0,3799.0,277.0,2025-07-29 20:42:40,87.0,,-1.80737290213171,-2.97887981489215,-1.17244086173318,,6.093648834462615,,
,6936.0,1695.0,10898.0,1861.0,1273.0,3812.0,288.0,2025-07-29 20:42:41,87.0,,-1.8071255823185,-2.97876798732113,-1.17165041526667,,6.431058186211375,,
,6935.0,1696.0,10899.0,1860.0,1270.0,3802.0,282.0,2025-07-29 20:42:42,87.0,,-1.80628492095435,-2.97867266985271,-1.17232793772705,,6.776193557221954,,
,6935.0,1695.0,10900.0,1859.0,1242.0,3799.0,266.0,2025-07-29 20:42:43,87.0,,-1.80506307453332,-2.97864111819746,-1.17162074429679,,7.123564747224136,,
,6937.0,1694.0,10902.0,1860.0,1248.0,3792.0,262.0,2025-07-29 20:42:44,88.0,,-1.80361741126976,-2.97853485172618,-1.17046215664649,,7.466976971343269,,
,6939.0,1696.0,10903.0,1862.0,1244.0,3750.0,275.0,2025-07-29 20:42:45,89.0,,-1.8022793058419,-2.97849221362965,-1.17076165393381,,7.799824679922939,,
,6939.0,1696.0,10902.0,1862.0,1235.0,3760.0,265.0,2025-07-29 20:42:46,90.0,,-1.80014706808219,-2.97855103464505,-1.16999100727703,,8.115380192395508,,
,6937.0,1697.0,10902.0,1861.0,1223.0,3767.0,247.0,2025-07-29 20:42:47,91.0,,-1.79945021576782,-2.97836279124926,-1.17047932996642,,8.407045672207955,,
,6938.0,1694.0,10903.0,1861.0,1236.0,3794.0,275.0,2025-07-29 20:42:48,92.0,,-1.7978798253232,-2.97823332583135,-1.16881223318888,,8.668543504946072,,
,6939.0,1696.0,10901.0,1862.0,1255.0,3786.0,267.0,2025-07-29 20:42:49,92.0,,-1.79638318997983,-2.97827562950935,-1.16906036958141,,8.894031011901701,,
,6940.0,1696.0,10904.0,1861.0,1273.0,3793.0,265.0,2025-07-29 20:42:50,92.0,,-1.79544481032698,-2.97836215644056,-1.1685949515037,,9.078139469055277,,
,6936.0,1696.0,10904.0,1864.0,1259.0,3794.0,249.0,2025-07-29 20:42:51,92.0,,-1.79588831190561,-2.97816733093345,-1.16762955438513,,9.215952475823714,,
,6938.0,1696.0,10903.0,1860.0,1240.0,3792.0,251.0,2025-07-29 20:42:52,92.0,,-1.79605539540144,-2.9783285793977,-1.16838424173372,,9.302951690700537,,
,6941.0,1698.0,10905.0,1863.0,1247.0,3785.0,264.0,2025-07-29 20:42:53,92.0,,-1.79606249032791,-2.97846174129561,-1.16879298526247,,9.334965318764933,,
,6940.0,1699.0,10907.0,1863.0,1261.0,3794.0,276.0,2025-07-29 20:42:54,91.0,,-1.79652499682257,-2.97841718330342,-1.16849760004589,,9.308154301363231,,
,6942.0,1700.0,10908.0,1866.0,1258.0,3779.0,267.0,2025-07-29 20:42:55,90.0,,-1.79772846715582,-2.97839728896068,-1.16903447886149,,9.219063203247053,,
,6940.0,1701.0,10907.0,1865.0,1266.0,3785.0,229.0,2025-07-29 20:42:56,91.0,,-1.79776047651631,-2.97843850751078,-1.16933437855509,,9.064749303082873,,
,6943.0,1699.0,10906.0,1867.0,1255.0,3796.0,229.0,2025-07-29 20:42:57,91.0,,-1.79828860328047,-2.97837989335293,-1.1699192918399,,8.842986547610847,,
,6944.0,1701.0,10906.0,1867.0,1241.0,3786.0,269.0,2025-07-29 20:42:58,92.0,,-1.79709651739557,-2.97829391836848,-1.16924880651436,,8.552523069194477,,
,6945.0,1704.0,10909.0,1870.0,1248.0,3780.0,254.0,2025-07-29 20:42:59,93.0,,-1.79609279557359,-2.97819699483477,-1.16890971059859,,8.193355077928368,,
,6945.0,1700.0,10908.0,1868.0,1242.0,3777.0,238.0,2025-07-29 20:43:00,94.0,,-1.79399427634759,-2.97821134758915,-1.1684940679333,,7.766970076101746,,
,6947.0,1700.0,10910.0,1867.0,1240.0,3773.0,269.0,2025-07-29 20:43:01,95.0,,-1.79232565977791,-2.97802836707011,-1.1675712761627,,7.2765115980566675,,
,6946.0,1702.0,10912.0,1872.0,1261.0,3778.0,248.0,2025-07-29 20:43:02,94.0,,-1.78992952977532,-2.97800356547657,-1.16713296785409,,6.726826876101837,,
,6951.0,1706.0,10910.0,1873.0,1264.0,3783.0,266.0,2025-07-29 20:43:03,94.0,,-1.78746841569527,-2.97805226978315,-1.16621333161139,,6.124376381108425,,
,6950.0,1703.0,10908.0,1868.0,1276.0,3783.0,262.0,2025-07-29 20:43:04,93.0,,-1.78445288865876,-2.97780347430964,-1.16525940081256,,5.477006544035928,,
,6950.0,1703.0,10910.0,1870.0,1278.0,3786.0,275.0,2025-07-29 20:43:05,91.0,,-1.78173072186685,-2.9776533646049,-1.16434049250603,,4.793609147998438,,
,6949.0,1705.0,10914.0,1874.0,1289.0,3809.0,256.0,2025-07-29 20:43:06,90.0,,-1.77913187603918,-2.9777346499181,-1.16231758427279,,4.083707605832575,,
,6955.0,1704.0,10912.0,1872.0,1274.0,3818.0,259.0,2025-07-29 20:43:07,89.0,,-1.77884241198307,-2.97763730231809,-1.1615546661563,,3.357018035893718,,
,6952.0,1706.0,10914.0,1874.0,1277.0,3816.0,253.0,2025-07-29 20:43:08,89.0,,-1.77666589002909,-2.97751611920266,-1.16207539016758,,2.6230313517980375,,
,6953.0,1706.0,10912.0,1876.0,1278.0,3783.0,251.0,2025-07-29 20:43:09,89.0,,-1.77642652325366,-2.97753218007269,-1.16146591007171,,1.8906538266503543,,
,6958.0,1711.0,10914.0,1877.0,1279.0,3790.0,235.0,2025-07-29 20:43:10,89.0,,-1.77562978946193,-2.97745209341234,-1.16215692483627,,1.1679309047158266,,
,6958.0,1708.0,10916.0,1877.0,1260.0,3785.0,248.0,2025-07-29 20:43:11,90.0,,-1.77444766184724,-2.97759244731025,-1.16168122198258,,0.4618649457218199,,
2025-07-29 20:40:32,6955.0,1707.0,10917.0,1877.0,1255.0,3790.0,254.0,2025-07-29 20:43:12,91.0,2025/07/29 08:40:32 PM,-1.77416850358378,-2.97765277729454,-1.16126465638253,,-0.22167594991339054,,
,6961.0,1710.0,10918.0,1878.0,1279.0,3786.0,251.0,2025-07-29 20:43:13,91.0,,-1.77295420395676,-2.9775106278796,-1.16064092738095,,-0.8779719977626514,,
,6959.0,1709.0,10917.0,1879.0,1266.0,3773.0,227.0,2025-07-29 20:43:14,91.0,,-1.77104282961374,-2.97741916570251,-1.15997154077731,,-1.503409503231094,,
,6965.0,1711.0,10920.0,1880.0,1271.0,3762.0,235.0,2025-07-29 20:43:15,91.0,,-1.7694689859997,-2.97740689547818,-1.15886161979976,,-2.0954045112011994,,
,6964.0,1711.0,10919.0,1883.0,1262.0,3777.0,245.0,2025-07-29 20:43:16,90.0,,-1.76758817832435,-2.97740420750786,-1.15773960151136,,-2.652310014705209,,
,6963.0,1714.0,10918.0,1879.0,1250.0,3772.0,246.0,2025-07-29 20:43:17,90.0,,-1.7674452373861,-2.97740520222274,-1.15810707054278,,-3.1733155718586743,,
,6962.0,1710.0,10917.0,1881.0,1274.0,3794.0,246.0,2025-07-29 20:43:18,89.0,,-1.76823790614709,-2.97738452587265,-1.15749172133308,,-3.6583384334737277,,
,6964.0,1714.0,10920.0,1882.0,1279.0,3802.0,247.0,2025-07-29 20:43:19,88.0,,-1.76940641576854,-2.97746779535359,-1.15932433570781,,-4.107899075004569,,
,6966.0,1714.0,10917.0,1883.0,1256.0,3824.0,256.0,2025-07-29 20:43:20,89.0,,-1.77137209980837,-2.97757769055641,-1.15925271233679,,-4.522974370090475,,
,6967.0,1712.0,10916.0,1883.0,1252.0,3830.0,262.0,2025-07-29 20:43:21,89.0,,-1.77442638977512,-2.97771194137788,-1.16005391976838,,-4.90482811454233,,
,6965.0,1711.0,10909.0,1879.0,1258.0,3812.0,260.0,2025-07-29 20:43:22,89.0,,-1.77701266941043,-2.97794673560163,-1.16133070372856,,-5.254827783404184,,
,6964.0,1710.0,10910.0,1878.0,1245.0,3804.0,252.0,2025-07-29 20:43:23,89.0,,-1.77730186263791,-2.97777788446295,-1.16228735271608,,-5.574264300984131,,
,6964.0,1710.0,10906.0,1879.0,1254.0,3791.0,236.0,2025-07-29 20:43:24,90.0,,-1.77891494034455,-2.97798473868876,-1.16206612221377,,-5.864195817624718,,
,6964.0,1706.0,10905.0,1875.0,1258.0,3793.0,249.0,2025-07-29 20:43:25,91.0,,-1.7815474252354,-2.97807257870531,-1.16336762098735,,-6.125336441266294,,
,6963.0,1705.0,10901.0,1874.0,1235.0,3797.0,252.0,2025-07-29 20:43:26,92.0,,-1.78143258538013,-2.97796901586792,-1.16442124547841,,-6.358006888260141,,
,6957.0,1702.0,10897.0,1869.0,1232.0,3787.0,286.0,2025-07-29 20:43:27,93.0,,-1.78287684886364,-2.97810935550614,-1.16438986444455,,-6.562156680565318,,
,6959.0,1701.0,10897.0,1870.0,1245.0,3786.0,253.0,2025-07-29 20:43:28,93.0,,-1.7826052357715,-2.97799572980483,-1.16437401339823,,-6.737457662749003,,
,6954.0,1700.0,10896.0,1866.0,1258.0,3773.0,259.0,2025-07-29 20:43:29,92.0,,-1.78129415081878,-2.97797896707084,-1.16367354031324,,-6.883457400934062,,
,6951.0,1696.0,10895.0,1862.0,1273.0,3768.0,288.0,2025-07-29 20:43:30,91.0,,-1.78027540007095,-2.97791904892039,-1.16348480156112,,-6.9997699530391895,,
,6948.0,1691.0,10892.0,1858.0,1253.0,3762.0,255.0,2025-07-29 20:43:31,90.0,,-1.7776623171954,-2.97789396479542,-1.16331486318373,,-7.086272569235243,,
,6946.0,1692.0,10896.0,1857.0,1266.0,3775.0,274.0,2025-07-29 20:43:32,90.0,,-1.77519655350031,-2.97771770385935,-1.16173464646175,,-7.143272614337758,,
,6944.0,1691.0,10894.0,1857.0,1259.0,3781.0,274.0,2025-07-29 20:43:33,90.0,,-1.77308971858054,-2.97755900900849,-1.16125019337023,,-7.171611602577848,,
,6945.0,1691.0,10899.0,1856.0,1262.0,3781.0,287.0,2025-07-29 20:43:34,91.0,,-1.76946956975054,-2.9776204170741,-1.16004409495135,,-7.172683119472737,,
,6938.0,1689.0,10893.0,1854.0,1247.0,3788.0,289.0,2025-07-29 20:43:35,92.0,,-1.76570275463565,-2.97742719600359,-1.15859448764301,,-7.148356525898742,,
,6939.0,1689.0,10898.0,1853.0,1236.0,3801.0,284.0,2025-07-29 20:43:36,93.0,,-1.76348010850955,-2.97732029440228,-1.15771513954453,,-7.100815149124667,,
,6937.0,1689.0,10898.0,1851.0,1249.0,3790.0,277.0,2025-07-29 20:43:37,93.0,,-1.76119439252569,-2.97741949069664,-1.15734840752009,,-7.032332785001773,,
,6937.0,1688.0,10898.0,1851.0,1254.0,3781.0,260.0,2025-07-29 20:43:38,93.0,,-1.75937598093404,-2.97708269173727,-1.15655049311262,,-6.945023367102896,,
,6935.0,1687.0,10899.0,1849.0,1239.0,3786.0,258.0,2025-07-29 20:43:39,92.0,,-1.75796922453428,-2.9771430165584,-1.15632898845817,,-6.84060398975343,,
,6935.0,1688.0,10902.0,1852.0,1251.0,3808.0,253.0,2025-07-29 20:43:40,92.0,,-1.75779770389341,-2.97702181143451,-1.15607096744028,,-6.720210090422863,,
,6935.0,1687.0,10905.0,1852.0,1247.0,3789.0,233.0,2025-07-29 20:43:41,92.0,,-1.75721817628345,-2.9771674700022,-1.15591748890327,,-6.584293410410267,,
,6936.0,1690.0,10904.0,1853.0,1253.0,3776.0,232.0,2025-07-29 20:43:42,92.0,,-1.75691986357598,-2.97714505023106,-1.15517996599942,,-6.432619480560577,,
,6934.0,1689.0,10906.0,1851.0,1282.0,3780.0,232.0,2025-07-29 20:43:43,92.0,,-1.75648987366456,-2.97705564396737,-1.15526891103606,,-6.264364028086183,,
,6931.0,1686.0,10906.0,1854.0,1287.0,3790.0,243.0,2025-07-29 20:43:44,92.0,,-1.75696398235146,-2.97694010822931,-1.15516221228738,,-6.078289986350045,,
,6932.0,1690.0,10908.0,1855.0,1287.0,3786.0,261.0,2025-07-29 20:43:45,93.0,,-1.75637177002736,-2.97705755207988,-1.15517931074589,,-5.8729726042870265,,
,6932.0,1690.0,10908.0,1855.0,1275.0,3772.0,262.0,2025-07-29 20:43:46,93.0,,-1.75735259520831,-2.97700215599861,-1.15562177062095,,-5.6470332978476705,,
,6932.0,1687.0,10907.0,1856.0,1272.0,3778.0,272.0,2025-07-29 20:43:47,93.0,,-1.75778747784878,-2.97706073876356,-1.1555931859099,,-5.39934523457459,,
,6930.0,1689.0,10908.0,1853.0,1259.0,3802.0,259.0,2025-07-29 20:43:48,92.0,,-1.75974943031558,-2.97712910741476,-1.156595166672,,-5.129183879677255,,
,6931.0,1692.0,10911.0,1855.0,1249.0,3807.0,261.0,2025-07-29 20:43:49,91.0,,-1.76160097487279,-2.9771887680899,-1.15760304628911,,-4.836310174046175,,
,6934.0,1691.0,10914.0,1857.0,1252.0,3794.0,275.0,2025-07-29 20:43:50,90.0,,-1.76368603150621,-2.97724259056418,-1.15721668435849,,-4.520988678533361,,
,6935.0,1692.0,10912.0,1857.0,1258.0,3786.0,267.0,2025-07-29 20:43:51,90.0,,-1.76512560681473,-2.97739854301203,-1.15844502238004,,-4.18395499603524,,
,6932.0,1691.0,10913.0,1856.0,1257.0,3800.0,286.0,2025-07-29 20:43:52,89.0,,-1.76696145606817,-2.97737023641136,-1.15862404658008,,-3.826354332801602,,
,6934.0,1692.0,10914.0,1858.0,1239.0,3805.0,266.0,2025-07-29 20:43:53,89.0,,-1.76734797399412,-2.97750375633334,-1.15895565734927,,-3.4496752499856407,,
,6936.0,1695.0,10916.0,1858.0,1237.0,3805.0,291.0,2025-07-29 20:43:54,89.0,,-1.76772579639773,-2.97749655339791,-1.1592984958862,,-3.0556992386585815,,
,6938.0,1694.0,10916.0,1861.0,1246.0,3796.0,281.0,2025-07-29 20:43:55,89.0,,-1.76728117424112,-2.97752901686743,-1.15861940143115,,-2.6464783213368293,,
,6935.0,1695.0,10912.0,1860.0,1244.0,3799.0,273.0,2025-07-29 20:43:56,90.0,,-1.76702284137192,-2.97728281962714,-1.15798248087632,,-2.224341234429468,,
,6935.0,1693.0,10912.0,1862.0,1234.0,3792.0,286.0,2025-07-29 20:43:57,91.0,,-1.76610185847275,-2.97743468046145,-1.15825597439413,,-1.7919171365264484,,
,6934.0,1693.0,10915.0,1863.0,1245.0,3802.0,266.0,2025-07-29 20:43:58,91.0,,-1.76674841386575,-2.97726239669662,-1.1577908415851,,-1.352158193716752,,
,6936.0,1692.0,10915.0,1860.0,1244.0,3797.0,267.0,2025-07-29 20:43:59,91.0,,-1.76559169768012,-2.97736857601942,-1.1585916298599,,-0.90834146165716,,
,6934.0,1695.0,10914.0,1860.0,1248.0,3797.0,278.0,2025-07-29 20:44:00,90.0,,-1.76524147065162,-2.97730608515947,-1.1578876252884,,-0.4640358643976922,,
,6936.0,1692.0,10915.0,1862.0,1255.0,3802.0,299.0,2025-07-29 20:44:01,89.0,,-1.7656909447536,-2.97736989987158,-1.15852412492295,,-0.02302894323729734,,
,6935.0,1696.0,10914.0,1862.0,1248.0,3796.0,298.0,2025-07-29 20:44:02,89.0,,-1.76484325931723,-2.9773362331497,-1.15824685605586,,0.4107828223035401,,
,6935.0,1694.0,10915.0,1862.0,1251.0,3776.0,268.0,2025-07-29 20:44:03,89.0,,-1.76656224953561,-2.97729231102098,-1.15871918367242,,0.8335291152597201,,
,6937.0,1693.0,10915.0,1860.0,1255.0,3764.0,278.0,,,,-1.76641842893728,-2.97735772788295,-1.15892026236125,,1.241511031374671,,
,6936.0,1694.0,10914.0,1861.0,1263.0,3782.0,280.0,,,,-1.7659637482757,-2.97740342675826,-1.15852401380073,,1.6313402140991409,,
,6936.0,1694.0,10915.0,1863.0,1258.0,3793.0,280.0,,,,-1.76496104363334,-2.97738652670076,-1.15770534666294,,2.0000578699803997,,
,6939.0,1697.0,10916.0,1862.0,1250.0,3809.0,277.0,,,,-1.76493037578061,-2.97730061156969,-1.15762027963528,,2.3452247960231,,
,6935.0,1694.0,10916.0,1863.0,1243.0,3802.0,266.0,,,,-1.76449376545718,-2.97727543513765,-1.15754365722143,,2.6649805278433893,,
,6936.0,1694.0,10914.0,1863.0,1268.0,3795.0,264.0,,,,-1.76266531512787,-2.97716945242077,-1.15731871552939,,2.9580764607845094,,
,6936.0,1694.0,10916.0,1862.0,1227.0,3804.0,256.0,,,,-1.76229828129202,-2.97721297256362,-1.15751036724148,,3.2238916044876103,,
,6936.0,1693.0,10916.0,1862.0,1238.0,3812.0,257.0,,,,-1.761261433241,-2.9769495911826,-1.1573524349576,,3.4624387764788067,,
,6937.0,1697.0,10917.0,1865.0,1249.0,3811.0,239.0,,,,-1.76011546957049,-2.97701275665057,-1.1560496315553,,3.6743641313844426,,
,6937.0,1696.0,10918.0,1864.0,1286.0,3800.0,236.0,,,,-1.75903518789731,-2.9770796642271,-1.15548068117979,,3.8609364050984007,,
,6937.0,1697.0,10918.0,1863.0,1265.0,3790.0,275.0,,,,-1.75728442542381,-2.97712694623432,-1.15555693472058,,4.024016630338877,,
,6938.0,1698.0,10918.0,1863.0,1277.0,3797.0,290.0,,,,-1.75626795872295,-2.97693449515227,-1.15424941459337,,4.1659957958238625,,
,6939.0,1697.0,10918.0,1865.0,1276.0,3787.0,277.0,,,,-1.75443660285432,-2.97697272394273,-1.15478145166241,,4.289687595002982,,
,6939.0,1698.0,10921.0,1866.0,1269.0,3789.0,268.0,,,,-1.75364098595384,-2.97686342277093,-1.15394793893673,,4.398166449913393,,
,6940.0,1698.0,10921.0,1864.0,1251.0,3777.0,263.0,,,,-1.75313755065198,-2.97703229557233,-1.1533502371685,,4.49454765440427,,
,6938.0,1698.0,10923.0,1867.0,1270.0,3782.0,246.0,,,,-1.75224993766723,-2.97691303780985,-1.15409782742005,,4.581716420485177,,
,6940.0,1700.0,10925.0,1868.0,1261.0,3775.0,221.0,,,,-1.75207412359405,-2.9768475799106,-1.15356535677989,,4.662024404816123,,
,6942.0,1700.0,10923.0,1868.0,1271.0,3771.0,230.0,,,,-1.75247195493284,-2.97698016369649,-1.15367330917581,,4.736983187838686,,
,6939.0,1700.0,10921.0,1867.0,1285.0,3772.0,262.0,,,,-1.75299352134314,-2.97696460024772,-1.15362935966855,,4.806990740841816,,
,6939.0,1701.0,10922.0,1869.0,1254.0,3788.0,276.0,,,,-1.75394568311707,-2.97672228548042,-1.15402986991422,,4.8711268141399895,,
,6942.0,1700.0,10925.0,1871.0,1241.0,3800.0,273.0,,,,-1.75426672220614,-2.97682484885268,-1.15446125713621,,4.927046709479218,,
,6943.0,1702.0,10926.0,1871.0,1247.0,3806.0,269.0,,,,-1.75516507467656,-2.97671999384629,-1.15493354266516,,4.97099246962121,,
,6941.0,1703.0,10928.0,1872.0,1241.0,3811.0,229.0,,,,-1.75579456556717,-2.976756008014,-1.1543522135125,,4.997928645257655,,
,6941.0,1701.0,10925.0,1871.0,1270.0,3811.0,265.0,,,,-1.75597614325548,-2.976847420832,-1.15470333354502,,5.00179791208353,,
,6945.0,1702.0,10928.0,1873.0,1260.0,3802.0,265.0,,,,-1.75696035845351,-2.97686540400103,-1.15504441321879,,4.975880705410675,,
,6944.0,1705.0,10929.0,1874.0,1264.0,3797.0,277.0,,,,-1.75707608882322,-2.97679511505227,-1.15475250520825,,4.913233687708982,,
,6947.0,1706.0,10929.0,1877.0,1264.0,3791.0,293.0,,,,-1.75760374977411,-2.97687817668302,-1.15537200597064,,4.807175330991219,,
,6946.0,1705.0,10927.0,1874.0,1261.0,3788.0,266.0,,,,-1.75803384520113,-2.97691659634001,-1.15590830450994,,4.651783714285648,,
,6949.0,1705.0,10931.0,1878.0,1269.0,3782.0,277.0,,,,-1.75985934769427,-2.97699499198747,-1.15634276946515,,4.4423715686325185,,
,6951.0,1705.0,10931.0,1877.0,1270.0,3804.0,273.0,,,,-1.7597170051894,-2.97708060035298,-1.15638344014801,,4.175905867220837,,
,6951.0,1708.0,10930.0,1877.0,1281.0,3806.0,264.0,,,,-1.76127855415069,-2.97721448845697,-1.1570247093387,,3.8513428292054477,,
,6950.0,1708.0,10929.0,1878.0,1264.0,3811.0,291.0,,,,-1.76303390033092,-2.97719022847524,-1.15745177033332,,3.469853255819417,,
,6951.0,1710.0,10932.0,1879.0,1245.0,3813.0,283.0,,,,-1.76366568971681,-2.97722376166232,-1.15799623601942,,3.0349176533540376,,
,6954.0,1709.0,10935.0,1883.0,1258.0,3786.0,285.0,,,,-1.76380655086168,-2.97728582079369,-1.15774346869926,,2.552276542923713,,
,6954.0,1712.0,10935.0,1883.0,1263.0,3784.0,265.0,,,,-1.76678895210956,-2.97730211675921,-1.15870840502398,,2.0297296261070388,,
,6957.0,1712.0,10934.0,1881.0,1233.0,3770.0,257.0,,,,-1.76925197927737,-2.97742766932808,-1.15907351403237,,1.4767879329948854,,
,6956.0,1711.0,10935.0,1881.0,1271.0,3792.0,264.0,,,,-1.77398835598913,-2.97758312060904,-1.16097599370937,,0.9041945608845038,,
,6959.0,1712.0,10936.0,1883.0,1264.0,3780.0,268.0,,,,-1.7785461969784,-2.97769563749688,-1.16417004427126,,0.32334083218157994,,
,6959.0,1716.0,10938.0,1885.0,1275.0,3793.0,243.0,,,,-1.78385283490819,-2.97793575630757,-1.16499829484548,,-0.25438512738597086,,
,6960.0,1716.0,10939.0,1886.0,1278.0,3802.0,238.0,,,,-1.78845827265497,-2.97813509143903,-1.16748265570927,,-0.8182717102126131,,
,6960.0,1713.0,10934.0,1884.0,1260.0,3811.0,244.0,,,,-1.79414925814838,-2.9784161334646,-1.16922995721036,,-1.3589267014037874,,
,6961.0,1716.0,10935.0,1886.0,1246.0,3808.0,245.0,,,,-1.79883788932013,-2.97840884520117,-1.17031811744747,,-1.868833580141717,,
,6958.0,1716.0,10932.0,1886.0,1289.0,3803.0,249.0,,,,-1.80302842255851,-2.97865695017632,-1.1723398154749,,-2.3427657434350393,,
,6959.0,1716.0,10932.0,1884.0,1275.0,3811.0,260.0,,,,-1.80675902837706,-2.97873729465403,-1.1743519188491,,-2.778010361691049,,
,6959.0,1714.0,10929.0,1883.0,1259.0,3800.0,288.0,,,,-1.81013989602653,-2.97876031603237,-1.17490301648143,,-3.1743692298906705,,
,6958.0,1711.0,10923.0,1882.0,1245.0,3786.0,264.0,,,,-1.81213903347844,-2.97887718864104,-1.17618551655875,,-3.533927700275272,,
,6959.0,1713.0,10924.0,1882.0,1246.0,3773.0,293.0,,,,-1.81267394650865,-2.9788531056266,-1.17622741405093,,-3.860611049468871,,
,6957.0,1709.0,10919.0,1879.0,1251.0,3765.0,293.0,,,,-1.81322491636685,-2.97899825275687,-1.17674611533677,,-4.15957501286796,,
,6954.0,1707.0,10918.0,1876.0,1220.0,3779.0,291.0,,,,-1.8126559259346,-2.9789760764814,-1.17722633730119,,-4.436498605932348,,
,6952.0,1701.0,10913.0,1871.0,1218.0,3766.0,283.0,,,,-1.81089742957894,-2.97894897415717,-1.17593624108,,-4.696859343038194,,
,6950.0,1703.0,10914.0,1869.0,1222.0,3767.0,260.0,,,,-1.80829586233076,-2.97871405647963,-1.17512677580533,,-4.945272079456575,,
,6949.0,1699.0,10911.0,1868.0,1277.0,3761.0,274.0,,,,-1.80581205049444,-2.97882097913375,-1.17405906523487,,-5.184963217284581,,
,6947.0,1696.0,10908.0,1864.0,1279.0,3771.0,267.0,,,,-1.80110532218163,-2.97855732260773,-1.17344305759844,,-5.417433731862671,,
,6943.0,1695.0,10907.0,1862.0,1270.0,3780.0,263.0,,,,-1.79801080467978,-2.9784984969162,-1.17148142799447,,-5.642340185166164,,
,6941.0,1695.0,10909.0,1863.0,1266.0,3794.0,242.0,,,,-1.79449043159633,-2.97829994363553,-1.17012691946237,,-5.857595715688327,,
,6942.0,1694.0,10911.0,1860.0,1270.0,3810.0,237.0,,,,-1.79210033191347,-2.97813485685071,-1.17000941387815,,-6.059666156729908,,
,6938.0,1695.0,10913.0,1860.0,1258.0,3803.0,236.0,,,,-1.79094538028344,-2.97824830240692,-1.16952271058247,,-6.2440135408250255,,
,6935.0,1694.0,10910.0,1857.0,1250.0,3796.0,250.0,,,,-1.7911249263507,-2.97803064721978,-1.1699358167065,,-6.40562414711901,,
,6937.0,1691.0,10911.0,1856.0,1267.0,3790.0,264.0,,,,-1.79138993887361,-2.97811407961245,-1.17008188861811,,-6.539553734596725,,
,6938.0,1693.0,10914.0,1855.0,1264.0,3786.0,276.0,,,,-1.79122201098722,-2.9782486324811,-1.17021551666595,,-6.641428703582514,,
,6934.0,1693.0,10916.0,1854.0,1260.0,3788.0,278.0,,,,-1.79284572128647,-2.9780817930429,-1.16944409333763,,-6.7078556480740925,,
,6933.0,1691.0,10917.0,1853.0,1277.0,3790.0,239.0,,,,-1.79290439515531,-2.97827015985243,-1.1701919620448,,-6.736708824141803,,
,6933.0,1692.0,10917.0,1853.0,1287.0,3802.0,245.0,,,,-1.7932821901237,-2.97822537425417,-1.17037464214247,,-6.727281941995769,,
,6933.0,1693.0,10922.0,1855.0,1263.0,3794.0,246.0,,,,-1.79376432528789,-2.97817456929074,-1.17030892210065,,-6.6803053843913345,,
,6934.0,1692.0,10919.0,1855.0,1255.0,3793.0,268.0,,,,-1.79454370742986,-2.97829765110947,-1.17040487668571,,-6.597841622224578,,
,6932.0,1689.0,10921.0,1855.0,1260.0,3791.0,264.0,,,,-1.79317738374767,-2.97812512839946,-1.17005173209349,,-6.483079996293461,,
,6932.0,1691.0,10920.0,1855.0,1270.0,3791.0,267.0,,,,-1.793878988525,-2.97825844636758,-1.17053902793116,,-6.340057090599736,,
,6933.0,1694.0,10925.0,1856.0,1270.0,3790.0,254.0,,,,-1.79452613685019,-2.97838682914495,-1.17043839543332,,-6.173330466047833,,
,6933.0,1694.0,10924.0,1858.0,1258.0,3789.0,273.0,,,,-1.79523463858586,-2.97839926102833,-1.17084393804666,,-5.9876313454318515,,
,6933.0,1697.0,10926.0,1859.0,1266.0,3786.0,275.0,,,,-1.7948874379128,-2.97829985222085,-1.17084303323054,,-5.787516318987667,,
,6932.0,1694.0,10924.0,1856.0,1263.0,3774.0,243.0,,,,-1.79456216571381,-2.97834765045407,-1.17069568826612,,-5.577031093591485,,
,6930.0,1694.0,10925.0,1858.0,1272.0,3773.0,267.0,,,,-1.79514311354054,-2.9784679807592,-1.17062783262303,,-5.359394031615674,,
,6934.0,1697.0,10930.0,1862.0,1275.0,3798.0,272.0,,,,-1.79371220810956,-2.97844070371115,-1.16968051009877,,-5.136706874301657,,
,6935.0,1698.0,10931.0,1862.0,1272.0,3803.0,267.0,,,,-1.79175054625468,-2.97836376882876,-1.16939175812186,,-4.909705291477546,,
,6932.0,1696.0,10929.0,1862.0,1258.0,3798.0,256.0,,,,-1.79021658930829,-2.97835924506402,-1.16904899847239,,-4.6775701901305275,,
,6934.0,1697.0,10930.0,1861.0,1264.0,3796.0,266.0,,,,-1.78960593193589,-2.97829480152456,-1.16819940098448,,-4.437827996157684,,
2025-07-29 20:40:33,6936.0,1696.0,10931.0,1864.0,1283.0,3792.0,267.0,,,2025/07/29 08:40:33 PM,-1.78702951200086,-2.97834405020587,-1.16802288969458,,-4.18637107850844,,
,6935.0,1699.0,10931.0,1864.0,1265.0,3802.0,298.0,,,,-1.78631407882908,-2.97837551214864,-1.16649642044329,,-3.9176262819524834,,
,6935.0,1700.0,10931.0,1865.0,1276.0,3805.0,291.0,,,,-1.78580299751001,-2.97813156220009,-1.166739515499,,-3.6248894868154733,,
,6934.0,1697.0,10932.0,1863.0,1271.0,3789.0,271.0,,,,-1.78523408259387,-2.97795256692952,-1.16710238580526,,-3.3008274869446232,,
,6935.0,1701.0,10930.0,1864.0,1251.0,3774.0,273.0,,,,-1.78553625610979,-2.97806694458498,-1.16601741469523,,-2.9381265906275273,,
,6939.0,1698.0,10931.0,1865.0,1261.0,3786.0,270.0,,,,-1.7853071190601,-2.97812328958061,-1.16667446900935,,-2.5302425575776364,,
,6939.0,1700.0,10929.0,1867.0,1267.0,3787.0,260.0,,,,-1.78527704962797,-2.97812567170942,-1.16657040147261,,-2.0721821923410935,,
,6936.0,1698.0,10928.0,1864.0,1257.0,3768.0,250.0,,,,-1.78556770488053,-2.97820653985598,-1.16634730668222,,-1.5612278708878864,,
,6935.0,1701.0,10931.0,1866.0,1265.0,3771.0,272.0,,,,-1.78512554311441,-2.97808281759173,-1.16665681095102,,-0.9975084537762172,,
,6937.0,1701.0,10930.0,1868.0,1263.0,3788.0,287.0,,,,-1.78524314479975,-2.97809711022447,-1.16661754215372,,-0.3843288594937945,,
,6939.0,1700.0,10930.0,1866.0,1258.0,3792.0,279.0,,,,-1.78435744016672,-2.97812743931249,-1.16684172025566,,0.2718023581130747,,
,6938.0,1701.0,10930.0,1866.0,1277.0,3802.0,245.0,,,,-1.78335360035619,-2.97801552185643,-1.16621250364236,,0.9614673383546786,,
,6938.0,1700.0,10933.0,1866.0,1270.0,3791.0,260.0,,,,-1.78300323057956,-2.97808049539844,-1.16629113737619,,1.672930191693626,,
,6939.0,1702.0,10930.0,1865.0,1278.0,3794.0,265.0,,,,-1.78178088220087,-2.97793248514698,-1.16633785060782,,2.392961399878132,,
,6941.0,1701.0,10931.0,1866.0,1276.0,3795.0,256.0,,,,-1.78114222658953,-2.9778681011327,-1.16624782415885,,3.10780514263764,,
,6939.0,1700.0,10931.0,1864.0,1276.0,3801.0,258.0,,,,-1.78053352668803,-2.97783359909922,-1.16564667559594,,3.804187279971345,,
,6939.0,1700.0,10930.0,1865.0,1265.0,3801.0,235.0,,,,-1.77940790321208,-2.97801924988168,-1.16443801415988,,4.470262550794718,,
,6940.0,1701.0,10933.0,1867.0,1259.0,3813.0,230.0,,,,-1.77985000544457,-2.97797371598133,-1.16481574751994,,5.096410819543514,,
,6941.0,1703.0,10932.0,1869.0,1271.0,3803.0,242.0,,,,-1.77823480670986,-2.97786644975386,-1.16486967824952,,5.675811598594476,,
,6943.0,1703.0,10935.0,1868.0,1268.0,3807.0,240.0,,,,-1.7788969441746,-2.97784865351421,-1.1651328924869,,6.204751604140225,,
,6941.0,1701.0,10934.0,1866.0,1264.0,3806.0,236.0,,,,-1.77886745498505,-2.97782267522054,-1.1655591997269,,6.682649558139735,,
,6941.0,1702.0,10935.0,1869.0,1253.0,3797.0,254.0,,,,-1.77972694240749,-2.97788597663112,-1.16554748676038,,7.111812649740654,,
,6943.0,1702.0,10934.0,1870.0,1239.0,3805.0,250.0,,,,-1.77961695286251,-2.97796052901288,-1.1658971358185,,7.496965688920101,,
,6944.0,1707.0,10936.0,1871.0,1241.0,3806.0,256.0,,,,-1.77924672842408,-2.97790044847486,-1.16646689888219,,7.844612746479198,,
,6942.0,1702.0,10933.0,1868.0,1249.0,3779.0,282.0,,,,-1.78005734001392,-2.97786680742507,-1.16675683631334,,8.162299753933615,,
,6943.0,1704.0,10933.0,1869.0,1296.0,3782.0,271.0,,,,-1.77942559286115,-2.97779510978007,-1.1657724900292,,8.457845837846158,,
,6948.0,1706.0,10937.0,1871.0,1284.0,3783.0,267.0,,,,-1.77880353866617,-2.97783233123516,-1.16560530331412,,8.738603582990635,,
,6948.0,1708.0,10936.0,1872.0,1288.0,3787.0,264.0,,,,-1.77688972105753,-2.97780696501292,-1.1648939986131,,9.01079652759078,,
,6945.0,1705.0,10937.0,1872.0,1282.0,3790.0,274.0,,,,-1.77535267186505,-2.97781519762271,-1.16437712885768,,9.278968077232987,,
,6947.0,1705.0,10938.0,1870.0,1283.0,3804.0,279.0,,,,-1.77479064773899,-2.97780892279011,-1.16389467314213,,9.545561766658654,,
,6946.0,1706.0,10938.0,1873.0,1269.0,3786.0,270.0,,,,-1.77326167813037,-2.97769748983593,-1.16330877133745,,9.810640662983056,,
,6951.0,1709.0,10938.0,1875.0,1237.0,3779.0,248.0,,,,-1.77138953273968,-2.977677225519,-1.16241630538691,,10.071745540785226,,
,6951.0,1708.0,10940.0,1876.0,1239.0,3783.0,256.0,,,,-1.77064255518924,-2.97754548458997,-1.16267094128175,,10.323888096706982,,
,6950.0,1708.0,10938.0,1874.0,1243.0,3794.0,259.0,,,,-1.76891330047882,-2.97761027278106,-1.16166252932876,,10.559676568636663,,
,6954.0,1709.0,10943.0,1877.0,1238.0,3795.0,270.0,,,,-1.76910072782849,-2.97748604839923,-1.16128183435212,,10.76957509647237,,
,6954.0,1714.0,10942.0,1877.0,1246.0,3780.0,257.0,,,,-1.76986589384982,-2.97746654951298,-1.16199765928369,,10.942301926671323,,
,6954.0,1715.0,10942.0,1880.0,1236.0,3776.0,260.0,,,,-1.77027935298277,-2.97758123560958,-1.16254807129013,,11.065370986057065,,
,6955.0,1711.0,10940.0,1877.0,1262.0,3808.0,281.0,,,,-1.77098076862393,-2.97760247354481,-1.16288277027855,,11.125773171370364,,
,6957.0,1712.0,10943.0,1876.0,1268.0,3799.0,270.0,,,,-1.77329555342892,-2.97758531854338,-1.16350083624265,,11.110777712004499,,
,6958.0,1713.0,10943.0,1883.0,1267.0,3801.0,277.0,,,,-1.77472266691595,-2.97773936174362,-1.16449739617968,,11.008813216288601,,
,6962.0,1716.0,10945.0,1882.0,1264.0,3800.0,283.0,,,,-1.77612010071371,-2.97780642658854,-1.16523778169284,,10.810367033336593,,
,6961.0,1715.0,10944.0,1882.0,1267.0,3795.0,274.0,,,,-1.77885303511438,-2.9779912288841,-1.16605025995347,,10.508824757482428,,
,6961.0,1716.0,10946.0,1884.0,1255.0,3786.0,286.0,,,,-1.78126279396453,-2.97807835138163,-1.16722405654285,,10.101163089007057,,
,6962.0,1719.0,10948.0,1884.0,1259.0,3792.0,260.0,,,,-1.7857050299675,-2.97836940753674,-1.16896889925816,,9.588412411049635,,
,6965.0,1721.0,10948.0,1885.0,1286.0,3783.0,264.0,,,,-1.78992323305514,-2.9785430024528,-1.17040470760917,,8.975822442184095,,
,6968.0,1719.0,10949.0,1883.0,1295.0,3777.0,253.0,,,,-1.79344016030542,-2.97871947901839,-1.17244032530196,,8.272694442001631,,
,6967.0,1717.0,10947.0,1885.0,1282.0,3796.0,261.0,,,,-1.79844571170667,-2.97882156055129,-1.1733451761161,,7.491882718087615,,
,6968.0,1720.0,10949.0,1884.0,1286.0,3778.0,249.0,,,,-1.80201928734155,-2.97893904909215,-1.17498323760136,,6.649010193323726,,
,6968.0,1721.0,10950.0,1888.0,1272.0,3783.0,246.0,,,,-1.80647394798,-2.97894045914645,-1.17606896124074,,5.761480028166647,,
,6969.0,1721.0,10950.0,1889.0,1262.0,3796.0,258.0,,,,-1.80813152636637,-2.97915568285058,-1.17734314897763,,4.847390643036538,,
,6969.0,1722.0,10948.0,1887.0,1268.0,3794.0,247.0,,,,-1.81012907749123,-2.97928178962921,-1.17770418635609,,3.9244699150755644,,
,6969.0,1721.0,10947.0,1889.0,1265.0,3804.0,272.0,,,,-1.81262983308604,-2.9793805047789,-1.17913840770163,,3.0091345470869406,,
,6972.0,1721.0,10944.0,1888.0,1276.0,3809.0,267.0,,,,-1.81503572592188,-2.97929578752508,-1.1795126875038,,2.1157558189500842,,
,6971.0,1721.0,10942.0,1887.0,1278.0,3814.0,268.0,,,,-1.81502015279279,-2.97932993844328,-1.17998976017989,,1.2561795378722875,,
,6968.0,1720.0,10939.0,1887.0,1260.0,3806.0,271.0,,,,-1.81519836711689,-2.97940144231878,-1.18121151176506,,0.4395129335162528,,
,6968.0,1717.0,10937.0,1886.0,1243.0,3800.0,283.0,,,,-1.81500789094737,-2.97939153373576,-1.18041892967286,,-0.32784018853033864,,
,6968.0,1716.0,10934.0,1885.0,1256.0,3771.0,307.0,,,,-1.81558587737854,-2.97927720086881,-1.18026698218624,,-1.0419393238215713,,
,6969.0,1717.0,10932.0,1882.0,1261.0,3783.0,276.0,,,,-1.81443731285007,-2.97940374742844,-1.18055255765214,,-1.7009216777511533,,
,6965.0,1716.0,10928.0,1877.0,1242.0,3799.0,283.0,,,,-1.81342484790345,-2.97949125374794,-1.17978201363353,,-2.304538042242384,,
,6962.0,1708.0,10926.0,1874.0,1242.0,3793.0,277.0,,,,-1.81240353574117,-2.97931653819315,-1.18022566100225,,-2.8536762701459413,,
,6961.0,1709.0,10927.0,1873.0,1223.0,3794.0,279.0,,,,-1.81137458134301,-2.97919327653331,-1.17948261945784,,-3.3499304997245885,,
,6961.0,1706.0,10926.0,1869.0,1242.0,3769.0,265.0,,,,-1.81031872732336,-2.97925478426599,-1.17911849282797,,-3.7952602766800347,,
,6960.0,1707.0,10922.0,1869.0,1273.0,3766.0,276.0,,,,-1.80970966419692,-2.97911288467459,-1.17830186205338,,-4.191764878108569,,
,6956.0,1701.0,10922.0,1863.0,1278.0,3789.0,279.0,,,,-1.80928173619963,-2.97919015231712,-1.17863950398739,,-4.541576333070095,,
,6954.0,1701.0,10925.0,1861.0,1268.0,3778.0,255.0,,,,-1.80921132757078,-2.97909526157259,-1.17821107128767,,-4.8468531386228655,,
,6952.0,1706.0,10926.0,1862.0,1261.0,3785.0,256.0,,,,-1.80975601380329,-2.97906463453435,-1.17872161276165,,-5.109839953237369,,
,6953.0,1702.0,10926.0,1862.0,1254.0,3785.0,260.0,,,,-1.81050692111234,-2.97932934571414,-1.1795697146848,,-5.332950573564273,,
,6949.0,1699.0,10924.0,1858.0,1246.0,3810.0,255.0,,,,-1.81011734721186,-2.97910082177438,-1.1797291633218,,-5.51883360811733,,
,6949.0,1699.0,10927.0,1859.0,1277.0,3787.0,242.0,,,,-1.81180266589124,-2.97914083893385,-1.1802085659053,,-5.670390580363125,,
,6948.0,1700.0,10928.0,1856.0,1297.0,3797.0,230.0,,,,-1.81144169514654,-2.97935281705406,-1.17964100365545,,-5.790731050503689,,
,6947.0,1702.0,10927.0,1858.0,1296.0,3808.0,242.0,,,,-1.81225728939196,-2.97918113988336,-1.18047324661807,,-5.883065049834457,,
,6947.0,1698.0,10929.0,1859.0,1282.0,3793.0,229.0,,,,-1.81328450015569,-2.97927362131722,-1.18144055193016,,-5.950546753830544,,
,6946.0,1701.0,10930.0,1857.0,1276.0,3805.0,237.0,,,,-1.81394669381904,-2.97922160501838,-1.18108156854432,,-5.996092885043442,,
,6944.0,1701.0,10932.0,1858.0,1279.0,3807.0,228.0,,,,-1.81539896491536,-2.97933903689455,-1.18192946400262,,-6.022203964046922,,
,6949.0,1700.0,10936.0,1860.0,1266.0,3803.0,231.0,,,,-1.8162490512582,-2.97932037077299,-1.18200923078597,,-6.030816470647857,,
,6949.0,1703.0,10936.0,1859.0,1270.0,3809.0,240.0,,,,-1.81763555909294,-2.97935966426298,-1.18286625810961,,-6.023210053984649,,
,6944.0,1700.0,10933.0,1859.0,1260.0,3810.0,244.0,,,,-1.81859133805295,-2.97935757362679,-1.18335032021715,,-5.9999867845933155,,
,6950.0,1703.0,10935.0,1861.0,1248.0,3799.0,244.0,,,,-1.81825663384442,-2.97927055574297,-1.18265925784258,,-5.961129375258094,,
,6948.0,1704.0,10937.0,1863.0,1260.0,3787.0,250.0,,,,-1.81782145771093,-2.97926803627237,-1.18228913139941,,-5.906132916915729,,
,6947.0,1703.0,10939.0,1860.0,1264.0,3782.0,240.0,,,,-1.81571971157928,-2.97924235217975,-1.18211939289303,,-5.834191830864297,,
,6948.0,1701.0,10936.0,1861.0,1251.0,3781.0,251.0,,,,-1.81462600987509,-2.97922453899108,-1.18177586981927,,-5.744413588114977,,
,6944.0,1702.0,10937.0,1863.0,1278.0,3801.0,247.0,,,,-1.81297593473127,-2.97906875929839,-1.18125403994084,,-5.636026336458528,,
,6950.0,1705.0,10941.0,1866.0,1274.0,3814.0,265.0,,,,-1.81209878074743,-2.97907570967435,-1.18100446148586,,-5.508549987139492,,
,6947.0,1706.0,10944.0,1866.0,1273.0,3800.0,260.0,,,,-1.81068064074094,-2.97899856054254,-1.17891955426663,,-5.361908152461455,,
,6947.0,1705.0,10940.0,1863.0,1268.0,3798.0,280.0,,,,-1.81013994247941,-2.97911709859878,-1.1786421453039,,-5.196468930276847,,
,6949.0,1706.0,10942.0,1867.0,1260.0,3805.0,284.0,,,,-1.80910366274708,-2.97892345551092,-1.17921718040044,,-5.01301352617346,,
,6948.0,1707.0,10943.0,1867.0,1248.0,3809.0,296.0,,,,-1.80994358852143,-2.97907523923163,-1.17962542387027,,-4.812641544508135,,
,6950.0,1707.0,10943.0,1867.0,1259.0,3801.0,283.0,,,,-1.81176022937605,-2.9790918869201,-1.17961059184315,,-4.596629437405392,,
,6952.0,1709.0,10946.0,1868.0,1251.0,3796.0,286.0,,,,-1.81399750216371,-2.97924922123905,-1.18118010917956,,-4.3662634040036,,
,6951.0,1703.0,10942.0,1866.0,1244.0,3777.0,266.0,,,,-1.81438536605132,-2.97911772612291,-1.18087332301614,,-4.12266981157911,,
,6952.0,1707.0,10941.0,1867.0,1258.0,3778.0,255.0,,,,-1.81627455410756,-2.97929754274315,-1.18196255467079,,-3.866665172140754,,
,6956.0,1707.0,10944.0,1870.0,1270.0,3784.0,279.0,,,,-1.81619703045079,-2.97934955231694,-1.18190791740864,,-3.5986440484060376,,
,6952.0,1709.0,10944.0,1869.0,1263.0,3782.0,286.0,,,,-1.81787557963828,-2.97929476192449,-1.18224126811572,,-3.3185171883449307,,
,6955.0,1710.0,10942.0,1867.0,1264.0,3784.0,290.0,,,,-1.81723794049354,-2.97930436353083,-1.18232579444613,,-3.025704601691264,,
,6955.0,1710.0,10943.0,1868.0,1262.0,3787.0,276.0,,,,-1.81669905254656,-2.97933478322565,-1.1818223814404,,-2.7191813667016373,,
,6955.0,1705.0,10944.0,1867.0,1269.0,3793.0,272.0,,,,-1.81733085290828,-2.97919598507509,-1.18102254556733,,-2.3975703444302305,,
,6954.0,1707.0,10945.0,1870.0,1260.0,3802.0,263.0,,,,-1.81558797970145,-2.97920021927205,-1.18137787823954,,-2.05927680042283,,
,6952.0,1707.0,10944.0,1867.0,1237.0,3784.0,283.0,,,,-1.81587833283537,-2.97913111073904,-1.18166690706735,,-1.7026636146465817,,
,6951.0,1708.0,10942.0,1867.0,1258.0,3797.0,269.0,,,,-1.81614100436329,-2.97922187081916,-1.18162242397448,,-1.3262691339210755,,
,6957.0,1709.0,10947.0,1869.0,1255.0,3799.0,270.0,,,,-1.81595734078266,-2.97925057749601,-1.18181086664426,,-0.9290701036026752,,
,6956.0,1708.0,10943.0,1869.0,1278.0,3789.0,251.0,,,,-1.81661603579757,-2.97915282054414,-1.18255601672857,,-0.510788357834486,,
,6956.0,1708.0,10944.0,1867.0,1263.0,3787.0,244.0,,,,-1.81752077941307,-2.97925105100476,-1.18249821951226,,-0.07223224768620772,,
,6956.0,1709.0,10942.0,1866.0,1281.0,3796.0,253.0,,,,-1.81771528350652,-2.97949048470493,-1.18324186268297,,0.3843467996805698,,
,6958.0,1707.0,10945.0,1868.0,1259.0,3802.0,249.0,,,,-1.8187030571152,-2.97939883801793,-1.1828410063815,,0.8549140243479624,,
,6959.0,1711.0,10947.0,1872.0,1265.0,3794.0,247.0,,,,-1.81879428174762,-2.97930401509057,-1.18365556227028,,1.3333698025174934,,
,6958.0,1710.0,10947.0,1867.0,1259.0,3798.0,253.0,,,,-1.81732770741081,-2.97942367967357,-1.18373483246019,,1.811377070320047,,
,6956.0,1710.0,10945.0,1868.0,1257.0,3780.0,261.0,,,,-1.81728217295481,-2.97919952527735,-1.18347256800753,,2.2783500195877706,,
,6958.0,1711.0,10947.0,1868.0,1273.0,3794.0,257.0,,,,-1.81601373324889,-2.97929451366189,-1.18314829858032,,2.7216501385965834,,
,6960.0,1711.0,10950.0,1870.0,1278.0,3797.0,267.0,,,,-1.81587438628178,-2.97925985609524,-1.1829577528971,,3.1270191227326993,,
,6959.0,1712.0,10949.0,1872.0,1277.0,3784.0,280.0,,,,-1.81496011043524,-2.97918375779168,-1.18261647930483,,3.4792514925305174,,
,6961.0,1712.0,10952.0,1869.0,1263.0,3802.0,303.0,,,,-1.81444855636763,-2.97903062328182,-1.18195280116724,,3.7630763493475836,,
,6961.0,1710.0,10950.0,1871.0,1270.0,3804.0,311.0,,,,-1.81364364715755,-2.97913964880389,-1.18242273961385,,3.9641835459451396,,
,6962.0,1712.0,10952.0,1875.0,1250.0,3786.0,283.0,,,,-1.81338621657485,-2.97919277529024,-1.18193556497545,,4.070301009045498,,
,6961.0,1714.0,10950.0,1873.0,1258.0,3794.0,262.0,,,,-1.8145281897916,-2.97915959006478,-1.18201716666022,,4.072212049339126,,
,6964.0,1713.0,10952.0,1875.0,1253.0,3799.0,254.0,,,,-1.81395053024573,-2.97909982349554,-1.18225717629712,,3.9645976269702334,,
,6962.0,1715.0,10952.0,1876.0,1242.0,3798.0,268.0,,,,-1.81462324802703,-2.97906261343349,-1.18200330049919,,3.7466006290090292,,
,6963.0,1714.0,10953.0,1875.0,1232.0,3801.0,282.0,,,,-1.81490507052754,-2.97920734010131,-1.18260124747539,,3.4220372309289124,,
,6966.0,1718.0,10953.0,1878.0,1240.0,3797.0,298.0,,,,-1.81536493347617,-2.97920182657337,-1.18261040165342,,2.9992215535854525,,
,6968.0,1715.0,10956.0,1877.0,1242.0,3797.0,283.0,,,,-1.81520459202934,-2.97904068186558,-1.1830862773839,,2.4904182736573115,,
,6967.0,1716.0,10954.0,1876.0,1241.0,3779.0,267.0,,,,-1.81624815600948,-2.97918021494965,-1.18270083354717,,1.9109854863342235,,
,6968.0,1716.0,10955.0,1876.0,1236.0,3783.0,259.0,,,,-1.81586166809166,-2.97916442843806,-1.18361618559401,,1.2783080981632253,,
,6971.0,1716.0,10957.0,1880.0,1243.0,3809.0,260.0,,,,-1.81536446236297,-2.9791424183336,-1.18237228656621,,0.6106430416868391,,
,6973.0,1717.0,10959.0,1878.0,1242.0,3805.0,261.0,,,,-1.81593524614111,-2.97897472727207,-1.18290910964821,,-0.07400158391710866,,
,6973.0,1720.0,10959.0,1881.0,1257.0,3802.0,260.0,,,,-1.81570585812203,-2.97913582128864,-1.18206813723027,,-0.7588487011210725,,
,6974.0,1721.0,10956.0,1881.0,1270.0,3785.0,274.0,,,,-1.81611868442401,-2.97914773268412,-1.18278490759754,,-1.4291205713374433,,
,6973.0,1723.0,10958.0,1882.0,1269.0,3786.0,262.0,,,,-1.81702602325278,-2.97913958080237,-1.18281740398335,,-2.0725527030739825,,
,6979.0,1722.0,10958.0,1883.0,1246.0,3787.0,261.0,,,,-1.81952339794318,-2.97926275180209,-1.1840612686909,,-2.67964670366211,,
,6977.0,1722.0,10961.0,1886.0,1237.0,3790.0,261.0,,,,-1.82236703984468,-2.97948114616566,-1.18477674946506,,-3.243684442977135,,
2025-07-29 20:40:34,6979.0,1723.0,10957.0,1883.0,1240.0,3799.0,268.0,,,2025/07/29 08:40:34 PM,-1.82650051626665,-2.97960013743303,-1.18677356941835,,-3.760547330927281,,
,6982.0,1724.0,10964.0,1886.0,1249.0,3798.0,268.0,,,,-1.82847440275846,-2.97968153415877,-1.18767013985053,,-4.228396753381749,,
,6982.0,1727.0,10961.0,1889.0,1273.0,3785.0,269.0,,,,-1.8303519508329,-2.97987860043865,-1.18802319195767,,-4.647274290199372,,
,6982.0,1726.0,10961.0,1886.0,1270.0,3785.0,263.0,,,,-1.8336623569422,-2.979964347159,-1.1893038902268,,-5.018673995826029,,
,6987.0,1725.0,10964.0,1886.0,1267.0,3793.0,234.0,,,,-1.83359040517214,-2.97998934171669,-1.18939394047425,,-5.345125833462067,,
,6985.0,1727.0,10962.0,1887.0,1269.0,3782.0,261.0,,,,-1.83426095235414,-2.97997795375902,-1.18929656145413,,-5.629812884783201,,
,6986.0,1728.0,10963.0,1889.0,1257.0,3800.0,252.0,,,,-1.83501733160812,-2.98004124939438,-1.19031474009633,,-5.876229831278189,,
,6985.0,1728.0,10961.0,1888.0,1261.0,3798.0,252.0,,,,-1.83566805823626,-2.97996279856953,-1.18971921346988,,-6.087880492956991,,
,6985.0,1727.0,10959.0,1889.0,1256.0,3794.0,263.0,,,,-1.8353192094195,-2.9799505869412,-1.18979196187269,,-6.268009496414536,,
,6985.0,1725.0,10955.0,1884.0,1283.0,3783.0,275.0,,,,-1.83575889975179,-2.98005963395498,-1.18979046918017,,-6.419366041621211,,
,6984.0,1724.0,10956.0,1886.0,1274.0,3787.0,304.0,,,,-1.83559510129096,-2.97987532870005,-1.1892656629754,,-6.54400330901922,,
,6985.0,1723.0,10955.0,1886.0,1270.0,3789.0,293.0,,,,-1.83723359865666,-2.980110517355,-1.18932742817174,,-6.643122537178358,,
,6983.0,1723.0,10949.0,1883.0,1266.0,3786.0,297.0,,,,-1.83728041056631,-2.98016166447783,-1.19026454970525,,-6.716974342380732,,
,6982.0,1720.0,10949.0,1878.0,1245.0,3785.0,275.0,,,,-1.83895729443944,-2.9801669773465,-1.19127245942495,,-6.764830438904786,,
,6985.0,1718.0,10946.0,1878.0,1233.0,3779.0,281.0,,,,-1.84002821844309,-2.9800398918383,-1.19108013926506,,-6.785036247063932,,
,6980.0,1716.0,10943.0,1877.0,1220.0,3783.0,276.0,,,,-1.84077734643918,-2.98017861991548,-1.19216792947552,,-6.775149112348121,,
,6976.0,1716.0,10940.0,1874.0,1210.0,3777.0,259.0,,,,-1.84179811471216,-2.98031567943991,-1.19227371866887,,-6.732158376362639,,
,6976.0,1712.0,10939.0,1868.0,1237.0,3788.0,272.0,,,,-1.84237805647717,-2.98027858863575,-1.19205553843847,,-6.652773011172319,,
,6973.0,1710.0,10940.0,1870.0,1257.0,3779.0,280.0,,,,-1.84224378256353,-2.98011422084115,-1.19296419277753,,-6.533751508039176,,
,6972.0,1711.0,10939.0,1867.0,1239.0,3780.0,258.0,,,,-1.84314184410749,-2.98019631778564,-1.19261616864864,,-6.372240001564761,,
,6973.0,1708.0,10940.0,1864.0,1259.0,3792.0,248.0,,,,-1.84275089720062,-2.9802574245151,-1.19317600099221,,-6.166081447572679,,
,6970.0,1705.0,10941.0,1864.0,1291.0,3796.0,238.0,,,,-1.8430356556451,-2.98010444922809,-1.19292168266854,,-5.914062844419866,,
,6968.0,1706.0,10938.0,1861.0,1244.0,3810.0,250.0,,,,-1.84395713061583,-2.98006307878059,-1.19310923860573,,-5.616077923115487,,
,6970.0,1705.0,10941.0,1862.0,1254.0,3827.0,241.0,,,,-1.84449907837502,-2.98000626058314,-1.19393287020198,,-5.273196065501862,,
,6970.0,1706.0,10939.0,1858.0,1263.0,3813.0,265.0,,,,-1.84495152801213,-2.97992546257457,-1.19344332861771,,-4.88764087139602,,
,6969.0,1705.0,10941.0,1859.0,1274.0,3800.0,257.0,,,,-1.84532741934666,-2.98015807975326,-1.1934653917617,,-4.462691659961516,,
,6969.0,1705.0,10942.0,1860.0,1268.0,3800.0,267.0,,,,-1.84635392004132,-2.98006600376063,-1.19422923666238,,-4.002527629071711,,
,6969.0,1706.0,10943.0,1862.0,1281.0,3805.0,241.0,,,,-1.84583856277885,-2.98032542547416,-1.19512646212536,,-3.51203740022188,,
,6969.0,1706.0,10947.0,1860.0,1267.0,3795.0,259.0,,,,-1.84683396760699,-2.98011681077198,-1.19429133800449,,-2.996616190609967,,
,6968.0,1708.0,10946.0,1861.0,1258.0,3781.0,263.0,,,,-1.84751301638511,-2.98018635281744,-1.19419369072926,,-2.4619687554064265,,
,6969.0,1704.0,10948.0,1859.0,1261.0,3776.0,235.0,,,,-1.84934035666623,-2.98012500591726,-1.19559266896179,,-1.913928885797787,,
,6968.0,1707.0,10947.0,1858.0,1274.0,3803.0,233.0,,,,-1.84963737892149,-2.98024731267967,-1.19573106323211,,-1.3582972535939188,,
,6971.0,1708.0,10949.0,1863.0,1268.0,3793.0,228.0,,,,-1.85114813056125,-2.98029928838563,-1.19552236880939,,-0.8006918872941647,,
,6973.0,1708.0,10951.0,1862.0,1263.0,3788.0,233.0,,,,-1.85259947416069,-2.98043483812832,-1.19627898189054,,-0.24640293158233295,,
,6973.0,1710.0,10953.0,1863.0,1274.0,3786.0,255.0,,,,-1.8528134840362,-2.98047391095623,-1.1962593353778,,0.2997530439556477,,
,6974.0,1707.0,10952.0,1863.0,1257.0,3783.0,259.0,,,,-1.85301269779472,-2.9802327056385,-1.19608894581306,,0.8335758170316336,,
,6974.0,1709.0,10953.0,1866.0,1236.0,3803.0,247.0,,,,-1.85138125176149,-2.98031849812883,-1.19487136330418,,1.3516090254200832,,
,6974.0,1708.0,10955.0,1865.0,1259.0,3798.0,259.0,,,,-1.85006914795098,-2.98022297063688,-1.19589728230478,,1.8512335681386674,,
,6974.0,1708.0,10954.0,1866.0,1256.0,3798.0,246.0,,,,-1.84894636002659,-2.98035087115729,-1.19404394550327,,2.3307059695879633,,
,6975.0,1711.0,10956.0,1866.0,1237.0,3799.0,268.0,,,,-1.84789777196978,-2.98018931961627,-1.19530320376387,,2.7891239779302444,,
,6977.0,1709.0,10953.0,1867.0,1258.0,3802.0,278.0,,,,-1.84598138531078,-2.98017318804647,-1.19322297928612,,3.226310155857421,,
,6978.0,1711.0,10959.0,1867.0,1252.0,3790.0,249.0,,,,-1.84515717075444,-2.98002662508203,-1.19246957902878,,3.642617130617774,,
,6979.0,1713.0,10958.0,1869.0,1236.0,3777.0,266.0,,,,-1.84243598392645,-2.98005537941505,-1.19205250976733,,4.038673548060381,,
,6981.0,1713.0,10958.0,1868.0,1241.0,3792.0,271.0,,,,-1.84145491932566,-2.97995344055116,-1.19144763060127,,4.4151045766304735,,
,6980.0,1709.0,10955.0,1869.0,1231.0,3774.0,269.0,,,,-1.84047958000782,-2.97997891864861,-1.19166764461752,,4.772271183990709,,
,6982.0,1713.0,10958.0,1870.0,1256.0,3798.0,258.0,,,,-1.84014551634227,-2.97987042381648,-1.19083026557884,,5.110074704659875,,
,6983.0,1713.0,10955.0,1869.0,1257.0,3806.0,256.0,,,,-1.84019068062991,-2.97984814587533,-1.19055300173481,,5.427865720223957,,
,6986.0,1713.0,10956.0,1872.0,1241.0,3797.0,259.0,,,,-1.83964202663448,-2.97983198676402,-1.19071587832836,,5.724480405044207,,
,6982.0,1711.0,10955.0,1871.0,1261.0,3805.0,274.0,,,,-1.83979159121483,-2.97992571986118,-1.19040709589174,,5.998407049574365,,
,6985.0,1716.0,10955.0,1870.0,1258.0,3796.0,282.0,,,,-1.83996088703649,-2.97977376798636,-1.19068384302399,,6.248064661746061,,
,6987.0,1714.0,10954.0,1870.0,1278.0,3807.0,270.0,,,,-1.83861574872947,-2.97989588150861,-1.19132259203194,,6.472157635593699,,
,6987.0,1714.0,10954.0,1869.0,1292.0,3816.0,280.0,,,,-1.83742834674337,-2.97986767325081,-1.19125425320939,,6.670057679579239,,
,6987.0,1713.0,10954.0,1872.0,1266.0,3811.0,282.0,,,,-1.83552937711923,-2.97969179808563,-1.18960812252984,,6.842157919325499,,
,6989.0,1712.0,10952.0,1869.0,1260.0,3815.0,256.0,,,,-1.83358397648362,-2.97957101212534,-1.1890865638538,,6.990144994510007,,
,6988.0,1714.0,10956.0,1871.0,1263.0,3777.0,234.0,,,,-1.8307214019296,-2.97959002812708,-1.18851251250909,,7.1171430641323505,,
,6991.0,1715.0,10957.0,1872.0,1266.0,3787.0,229.0,,,,-1.82918183057794,-2.97950910693382,-1.18714629669905,,7.227698346979982,,
,6991.0,1715.0,10957.0,1868.0,1253.0,3798.0,245.0,,,,-1.82524077104579,-2.97937566164282,-1.18599171969683,,7.327592631610118,,
,6991.0,1715.0,10953.0,1870.0,1259.0,3802.0,227.0,,,,-1.82348426530841,-2.97929054057063,-1.18598341145471,,7.423496043977482,,
,6992.0,1715.0,10955.0,1871.0,1257.0,3793.0,226.0,,,,-1.82317047890601,-2.97921380003783,-1.18536736821497,,7.5224891473950874,,
,6994.0,1715.0,10957.0,1871.0,1279.0,3789.0,237.0,,,,-1.82197941246134,-2.9791347606032,-1.18502977235958,,7.631498834758816,,
,6993.0,1716.0,10957.0,1873.0,1291.0,3790.0,241.0,,,,-1.82104649996482,-2.97923755710518,-1.18437913474578,,7.75670039851441,,
,6993.0,1715.0,10957.0,1868.0,1280.0,3788.0,254.0,,,,-1.82144207937752,-2.97916845754776,-1.18463220502074,,7.902940287833589,,
,6996.0,1716.0,10958.0,1872.0,1269.0,3776.0,247.0,,,,-1.82128344497508,-2.97916796035708,-1.18424123395217,,8.073231040954965,,
,6995.0,1716.0,10959.0,1870.0,1273.0,3788.0,227.0,,,,-1.82240171609185,-2.97921057309973,-1.18504198449255,,8.26836178538571,,
,6996.0,1717.0,10957.0,1873.0,1274.0,3788.0,228.0,,,,-1.82228566720441,-2.97921585435629,-1.18520215237378,,8.486654979038262,,
,6997.0,1716.0,10957.0,1871.0,1272.0,3796.0,237.0,,,,-1.82301743924076,-2.97923929816428,-1.18508003308612,,8.72388433401151,,
,7000.0,1716.0,10959.0,1872.0,1245.0,3809.0,227.0,,,,-1.82182365046329,-2.97923474748478,-1.185058903733,,8.973352572395399,,
,7002.0,1718.0,10961.0,1876.0,1255.0,3804.0,245.0,,,,-1.82120169632014,-2.97932408669855,-1.18527669333568,,9.226113572454976,,
,7002.0,1719.0,10964.0,1876.0,1262.0,3787.0,257.0,,,,-1.82155185146716,-2.97929997338471,-1.18475803668624,,9.471314415713595,,
,7003.0,1719.0,10964.0,1875.0,1266.0,3787.0,254.0,,,,-1.82088125655597,-2.97912456772132,-1.18509844541743,,9.696630826685299,,
,7004.0,1719.0,10961.0,1878.0,1251.0,3796.0,242.0,,,,-1.82009909627011,-2.97908369958127,-1.18436596502691,,9.888773809263089,,
,7004.0,1719.0,10963.0,1874.0,1255.0,3793.0,248.0,,,,-1.81964798882918,-2.97909035894793,-1.18462551073847,,10.034051919809295,,
,7005.0,1720.0,10965.0,1877.0,1267.0,3800.0,255.0,,,,-1.81966184702691,-2.97909831828619,-1.18405234685954,,10.118977489308916,,
,7006.0,1723.0,10963.0,1877.0,1274.0,3797.0,269.0,,,,-1.81787278573049,-2.97909352081256,-1.18353086419883,,10.130903372682301,,
,7008.0,1719.0,10963.0,1878.0,1277.0,3798.0,251.0,,,,-1.81669515985766,-2.97900167173856,-1.18255285526418,,10.05867005494828,,
,7011.0,1723.0,10966.0,1880.0,1261.0,3801.0,262.0,,,,-1.81693610652193,-2.97904258809031,-1.18327824645732,,9.893233678388224,,
,7011.0,1723.0,10967.0,1880.0,1237.0,3791.0,261.0,,,,-1.81542983227929,-2.97911625799469,-1.18260769390199,,9.628236253434329,,
,7013.0,1725.0,10966.0,1880.0,1244.0,3795.0,252.0,,,,-1.81529386078788,-2.97912682036542,-1.18228726290858,,9.260472077761383,,
,7012.0,1723.0,10965.0,1880.0,1276.0,3796.0,248.0,,,,-1.81571363044154,-2.97900438287632,-1.1821436991702,,8.790201563324365,,
,7013.0,1726.0,10965.0,1884.0,1278.0,3785.0,253.0,,,,-1.81576415124341,-2.97896418009343,-1.18252003182674,,8.221267806026978,,
,7016.0,1728.0,10967.0,1885.0,1282.0,3791.0,261.0,,,,-1.81556645400731,-2.97897991817568,-1.18247525224588,,7.560984001049726,,
,7015.0,1726.0,10967.0,1886.0,1272.0,3790.0,263.0,,,,-1.81612012362404,-2.97902427432782,-1.18223778154864,,6.819781046466221,,
,7017.0,1727.0,10966.0,1882.0,1274.0,3780.0,245.0,,,,-1.81825789995442,-2.97902048632725,-1.18311484208072,,6.010632146563757,,
,7017.0,1730.0,10971.0,1885.0,1259.0,3806.0,253.0,,,,-1.81967900185605,-2.9793423882483,-1.18433830844951,,5.148300648450662,,
,7020.0,1730.0,10970.0,1886.0,1281.0,3813.0,261.0,,,,-1.82294096214975,-2.97943712572103,-1.18545410713175,,4.2484826685429775,,
,7025.0,1731.0,10972.0,1888.0,1260.0,3821.0,260.0,,,,-1.82689212337148,-2.97934452107258,-1.18705772234039,,3.3269308097054875,,
,7022.0,1731.0,10971.0,1888.0,1264.0,3826.0,261.0,,,,-1.8296153802435,-2.97966660098186,-1.18731449348046,,2.3986452577725825,,
,7023.0,1730.0,10969.0,1887.0,1241.0,3822.0,252.0,,,,-1.83291775869872,-2.9796804868249,-1.18897573122155,,1.4772042409020132,,
,7022.0,1732.0,10966.0,1885.0,1268.0,3838.0,259.0,,,,-1.83645408442853,-2.97980936656541,-1.19006082997537,,0.574282044811947,,
,7024.0,1732.0,10964.0,1889.0,1262.0,3804.0,246.0,,,,-1.83693142046352,-2.97986186064126,-1.18993848098053,,-0.30062413767188756,,
,7024.0,1730.0,10962.0,1884.0,1244.0,3788.0,264.0,,,,-1.83774841437936,-2.9798871145015,-1.19053058627489,,-1.1402622790221095,,
,7022.0,1730.0,10961.0,1884.0,1234.0,3789.0,261.0,,,,-1.8382060994137,-2.97999002194281,-1.18988881967853,,-1.9395128486724098,,
,7023.0,1726.0,10960.0,1883.0,1267.0,3782.0,279.0,,,,-1.83886805069289,-2.97991761790637,-1.19057246502887,,-2.695135027650538,,
,7023.0,1723.0,10958.0,1882.0,1247.0,3770.0,272.0,,,,-1.83831922282117,-2.97990674769873,-1.19077013509923,,-3.405421178844752,,
,7021.0,1723.0,10955.0,1879.0,1250.0,3775.0,272.0,,,,-1.8375796104015,-2.97980613036721,-1.19004979331544,,-4.069812930583673,,
,7020.0,1719.0,10951.0,1878.0,1239.0,3801.0,268.0,,,,-1.83643363532747,-2.97988345731887,-1.18981865557729,,-4.6885302264699416,,
,7018.0,1717.0,10949.0,1872.0,1230.0,3786.0,276.0,,,,-1.83583932435424,-2.97987481046644,-1.18933327433268,,-5.262256652026701,,
,7019.0,1718.0,10948.0,1870.0,1251.0,3784.0,262.0,,,,-1.83447063265245,-2.97976750109366,-1.18936233702209,,-5.791910708416824,,
,7015.0,1717.0,10947.0,1869.0,1249.0,3789.0,247.0,,,,-1.83450702924783,-2.97966631767467,-1.18927327472517,,-6.27851500000265,,
,7014.0,1713.0,10947.0,1867.0,1242.0,3797.0,235.0,,,,-1.83314651894779,-2.97973960346537,-1.18992937285838,,-6.723156708335759,,
,7009.0,1711.0,10943.0,1863.0,1270.0,3824.0,227.0,,,,-1.83245426481414,-2.97969552922672,-1.18833559066684,,-7.127017529387042,,
,7008.0,1710.0,10944.0,1864.0,1259.0,3805.0,242.0,,,,-1.83037446488252,-2.97973103082964,-1.18804442712764,,-7.491442944073778,,
,7012.0,1714.0,10947.0,1862.0,1284.0,3811.0,251.0,,,,-1.82895269750071,-2.97983855129484,-1.18755545189947,,-7.818020056414119,,
,7009.0,1712.0,10945.0,1861.0,1290.0,3816.0,247.0,,,,-1.82757261514727,-2.97951717128893,-1.18744812053323,,-8.108638307149743,,
,7009.0,1710.0,10947.0,1859.0,1270.0,3803.0,211.0,,,,-1.82626033384512,-2.97947895138791,-1.18700413220981,,-8.365515245641408,,
,7007.0,1709.0,10948.0,1858.0,1258.0,3786.0,253.0,,,,-1.82520754845881,-2.97950464656903,-1.18702289532513,,-8.59117805307544,,
,7007.0,1711.0,10949.0,1859.0,1265.0,3798.0,219.0,,,,-1.82377821877065,-2.97947174737445,-1.18635537652967,,-8.78839953578059,,
,7009.0,1709.0,10952.0,1861.0,1264.0,3785.0,235.0,,,,-1.82282895533574,-2.97941143369069,-1.18668405445391,,-8.960094283593085,,
,7009.0,1710.0,10951.0,1860.0,1279.0,3790.0,234.0,,,,-1.82259717861031,-2.97925009049352,-1.18628869342992,,-9.109186256039004,,
,7007.0,1709.0,10950.0,1857.0,1284.0,3786.0,217.0,,,,-1.82136537495052,-2.97925756360418,-1.18608422872128,,-9.238462927200377,,
,7008.0,1713.0,10954.0,1860.0,1263.0,3810.0,248.0,,,,-1.81927465464779,-2.9793338754984,-1.18523520809774,,-9.350432866117833,,
,7007.0,1712.0,10956.0,1859.0,1277.0,3800.0,258.0,,,,-1.81849097202779,-2.97921193876058,-1.18540547056494,,-9.44720258024,,
,7006.0,1710.0,10956.0,1861.0,1284.0,3799.0,252.0,,,,-1.81713630652401,-2.97929243105798,-1.18469407155295,,-9.530384002065599,,
,7007.0,1711.0,10958.0,1861.0,1278.0,3799.0,262.0,,,,-1.81716158063461,-2.97915068606767,-1.18468350313857,,-9.601036445703407,,
,7010.0,1712.0,10959.0,1863.0,1271.0,3794.0,249.0,,,,-1.81598501259332,-2.97906737427571,-1.1837149599836,,-9.659638162167246,,
,7012.0,1714.0,10961.0,1864.0,1263.0,3787.0,229.0,,,,-1.8158310117673,-2.97919201275355,-1.18374574281149,,-9.706076122633155,,
,7008.0,1712.0,10962.0,1864.0,1270.0,3793.0,232.0,,,,-1.81562160463136,-2.97920770829247,-1.18413006292612,,-9.739641338671472,,
,7009.0,1712.0,10961.0,1861.0,1274.0,3811.0,268.0,,,,-1.8159772857095,-2.97925000383813,-1.1838391331961,,-9.759021550464608,,
,7011.0,1711.0,10961.0,1865.0,1253.0,3808.0,257.0,,,,-1.81645775510406,-2.97912238339721,-1.18364822313125,,-9.762291443109522,,
,7011.0,1712.0,10962.0,1866.0,1242.0,3800.0,254.0,,,,-1.81594338860742,-2.97901782717497,-1.18390257339557,,-9.746909368494364,,
,7010.0,1714.0,10964.0,1867.0,1238.0,3784.0,244.0,,,,-1.81572542557838,-2.97908761277366,-1.1835486406695,,-9.709735987242524,,
,7010.0,1716.0,10962.0,1864.0,1243.0,3807.0,247.0,,,,-1.81472845825134,-2.97910425482007,-1.18358575684601,,-9.64709265083371,,
,7009.0,1713.0,10961.0,1866.0,1232.0,3801.0,255.0,,,,-1.81342523609672,-2.97909686402965,-1.18385579609683,,-9.554875202456733,,
,7010.0,1715.0,10964.0,1867.0,1241.0,3767.0,259.0,,,,-1.81177155258381,-2.97903357856498,-1.18240490373463,,-9.428732633154011,,
,7015.0,1715.0,10962.0,1867.0,1241.0,3782.0,268.0,,,,-1.8096411072457,-2.97896651400959,-1.18135572082209,,-9.264310971521722,,
,7017.0,1716.0,10966.0,1870.0,1256.0,3790.0,270.0,,,,-1.80796363503917,-2.97890623002512,-1.18108958666333,,-9.057552561863728,,
,7016.0,1715.0,10962.0,1867.0,1250.0,3782.0,266.0,,,,-1.80707855610422,-2.97896865069027,-1.18026223333407,,-8.805030784090999,,
,7015.0,1717.0,10963.0,1869.0,1235.0,3785.0,260.0,,,,-1.80456588308182,-2.97883383293726,-1.17948611029408,,-8.504290956100753,,
2025-07-29 20:40:35,7015.0,1716.0,10963.0,1868.0,1264.0,3792.0,248.0,,,2025/07/29 08:40:35 PM,-1.80478985833759,-2.97890943232305,-1.1796453388695,,-8.154160350599458,,
,7015.0,1713.0,10963.0,1870.0,1255.0,3787.0,265.0,,,,-1.80512037612969,-2.97875850458407,-1.18014118835327,,-7.754985706914903,,
,7011.0,1715.0,10960.0,1868.0,1265.0,3797.0,262.0,,,,-1.80523448639641,-2.97873815948025,-1.1805602993777,,-7.308758152438349,,
,7015.0,1717.0,10964.0,1869.0,1252.0,3804.0,249.0,,,,-1.80655466424893,-2.97894075586546,-1.1805421741435,,-6.819095344375969,,
,7018.0,1717.0,10962.0,1870.0,1240.0,3814.0,253.0,,,,-1.80760802159999,-2.97888956933681,-1.18080952245135,,-6.291068431824771,,
,7017.0,1716.0,10963.0,1870.0,1244.0,3814.0,238.0,,,,-1.8087068251004,-2.97898108565275,-1.18187329918564,,-5.73088341685893,,
,7018.0,1716.0,10964.0,1870.0,1245.0,3800.0,234.0,,,,-1.80988191894657,-2.97904871071616,-1.18264787390726,,-5.145447627590134,,
,7016.0,1716.0,10959.0,1868.0,1246.0,3815.0,241.0,,,,-1.8109378258726,-2.97901947980162,-1.18251960769934,,-4.541868304895981,,
,7018.0,1719.0,10963.0,1870.0,1258.0,3794.0,264.0,,,,-1.81104421652868,-2.97893858817598,-1.1827331615407,,-3.9269396663784804,,
,7019.0,1718.0,10963.0,1870.0,1237.0,3799.0,256.0,,,,-1.81186265489631,-2.97907895057808,-1.18399007345128,,-3.3066766834765304,,
,7020.0,1718.0,10964.0,1870.0,1251.0,3798.0,243.0,,,,-1.80980318273433,-2.97893072496646,-1.18216316753335,,-2.6859485624139725,,
,7017.0,1716.0,10966.0,1868.0,1251.0,3799.0,263.0,,,,-1.80897345306786,-2.97884437703882,-1.18134318553754,,-2.0682534975573357,,
,7020.0,1717.0,10965.0,1869.0,1243.0,3773.0,267.0,,,,-1.80712708841442,-2.97870122207163,-1.18058349150929,,-1.455659892270752,,
,7022.0,1716.0,10964.0,1871.0,1249.0,3787.0,253.0,,,,-1.80596707763846,-2.97875754292013,-1.18073046587199,,-0.8489192716284113,,
,7019.0,1718.0,10965.0,1871.0,1251.0,3794.0,273.0,,,,-1.80412133911344,-2.97874313432502,-1.18035847534884,,-0.2477342631521018,,
,7018.0,1719.0,10964.0,1871.0,1230.0,3793.0,262.0,,,,-1.80335752805568,-2.9786230447876,-1.18004749891529,,0.3488560104382862,,
,7021.0,1718.0,10967.0,1870.0,1250.0,3802.0,241.0,,,,-1.80147895686625,-2.97861905592579,-1.1791028961227,,0.9420271327936511,,
,7022.0,1718.0,10967.0,1872.0,1252.0,3786.0,253.0,,,,-1.80167603013299,-2.97864485676555,-1.17939473269982,,1.532719043752346,,
,7025.0,1720.0,10966.0,1872.0,1262.0,3788.0,252.0,,,,-1.80086157281773,-2.97865949389999,-1.17887655309515,,2.1212437068773458,,
,7023.0,1719.0,10967.0,1873.0,1284.0,3813.0,247.0,,,,-1.8012670785205,-2.97868462073536,-1.17908617526616,,2.706999411410751,,
,7022.0,1721.0,10967.0,1872.0,1276.0,3809.0,238.0,,,,-1.80205946129866,-2.97869004867502,-1.1793945157657,,3.288323892970721,,
,7026.0,1721.0,10970.0,1874.0,1249.0,3814.0,252.0,,,,-1.80289563847475,-2.97875411384507,-1.1798864153919,,3.862499543789973,,
,7029.0,1723.0,10969.0,1875.0,1265.0,3814.0,239.0,,,,-1.80228841772193,-2.97872673201434,-1.18031424509274,,4.425904848403327,,
,7027.0,1722.0,10969.0,1875.0,1259.0,3807.0,246.0,,,,-1.80237893005113,-2.97867570392215,-1.1807983378776,,4.9742888229848985,,
,7029.0,1722.0,10969.0,1872.0,1273.0,3793.0,257.0,,,,-1.80154380274562,-2.97886787261667,-1.18042763710014,,5.503131524363535,,
,7030.0,1722.0,10972.0,1876.0,1259.0,3782.0,259.0,,,,-1.80084222927938,-2.97869585716384,-1.18015874484157,,6.008044964172348,,
,7031.0,1724.0,10973.0,1877.0,1245.0,3775.0,265.0,,,,-1.79965326225847,-2.97843192427206,-1.1791225624697,,6.485165698722012,,
,7032.0,1726.0,10971.0,1879.0,1236.0,3774.0,272.0,,,,-1.79911629835545,-2.97850029190262,-1.17942761237879,,6.931493289983506,,
,7034.0,1723.0,10971.0,1878.0,1256.0,3778.0,244.0,,,,-1.79706433523297,-2.97856662998574,-1.17737216905415,,7.345137594421232,,
,7034.0,1725.0,10971.0,1875.0,1262.0,3788.0,241.0,,,,-1.79622965680557,-2.97857441131836,-1.17753773802901,,7.7254509771023825,,
,7036.0,1728.0,10974.0,1881.0,1263.0,3797.0,225.0,,,,-1.79548841113617,-2.97848023415716,-1.17741704663868,,8.073035875635128,,
,7036.0,1728.0,10973.0,1880.0,1278.0,3790.0,232.0,,,,-1.79447965859131,-2.97832540337851,-1.17696661630103,,8.389630009829602,,
,7036.0,1729.0,10974.0,1883.0,1271.0,3794.0,247.0,,,,-1.79340761759129,-2.97835673366725,-1.17657198550246,,8.677879218732498,,
,7038.0,1727.0,10975.0,1882.0,1273.0,3793.0,250.0,,,,-1.79239474923295,-2.97835138770542,-1.17716679125116,,8.941012514106012,,
,7039.0,1729.0,10974.0,1883.0,1238.0,3788.0,252.0,,,,-1.79165730999272,-2.97828206025598,-1.17624288961758,,9.18243780548512,,
,7043.0,1732.0,10976.0,1883.0,1257.0,3793.0,244.0,,,,-1.79216070018271,-2.97816851038619,-1.17603773774077,,9.405281307141301,,
,7043.0,1730.0,10977.0,1884.0,1261.0,3791.0,253.0,,,,-1.79231095796558,-2.97819742881393,-1.17644675350348,,9.611898932879267,,
,7041.0,1730.0,10975.0,1885.0,1267.0,3812.0,243.0,,,,-1.79124791537559,-2.97826935684778,-1.17565833028619,,9.803393492977264,,
,7043.0,1733.0,10980.0,1884.0,1261.0,3802.0,252.0,,,,-1.7910796509129,-2.97839271758351,-1.17563072873022,,9.979176626670963,,
,7044.0,1735.0,10977.0,1887.0,1265.0,3807.0,232.0,,,,-1.79162062743574,-2.97827267875334,-1.17615894666298,,10.136618357356287,,
,7042.0,1735.0,10977.0,1884.0,1258.0,3807.0,238.0,,,,-1.79276911699359,-2.97838693470473,-1.17655932607537,,10.27082893739641,,
,7044.0,1731.0,10972.0,1883.0,1262.0,3805.0,219.0,,,,-1.79635783374028,-2.978496266545,-1.17802519192323,,10.37461612066197,,
,7043.0,1732.0,10971.0,1884.0,1254.0,3812.0,237.0,,,,-1.80073100491888,-2.97860122636264,-1.17890056892654,,10.43865483013315,,
,7043.0,1731.0,10970.0,1883.0,1247.0,3779.0,236.0,,,,-1.80344444880544,-2.97878683233574,-1.18056221808708,,10.451893669290248,,
,7044.0,1731.0,10965.0,1881.0,1247.0,3782.0,239.0,,,,-1.80725237913473,-2.97899972271658,-1.18156948171566,,10.402202289533923,,
,7044.0,1728.0,10963.0,1879.0,1248.0,3782.0,254.0,,,,-1.81080607617608,-2.97926379909337,-1.18324737107063,,10.277235500933289,,
,7041.0,1723.0,10958.0,1876.0,1217.0,3777.0,297.0,,,,-1.81321270575935,-2.97926267366176,-1.18425897990305,,10.065457756210316,,
,7042.0,1724.0,10956.0,1875.0,1219.0,3785.0,263.0,,,,-1.81656303681071,-2.97922709995551,-1.18509566023091,,9.757241492757554,,
,7039.0,1721.0,10955.0,1874.0,1212.0,3779.0,263.0,,,,-1.8188689111126,-2.97926007017551,-1.18621786492193,,9.345931106115238,,
,7036.0,1721.0,10953.0,1870.0,1214.0,3777.0,262.0,,,,-1.82053584940788,-2.97947057371441,-1.18639009708162,,8.828755288596684,,
,7030.0,1717.0,10951.0,1865.0,1227.0,3787.0,245.0,,,,-1.82122986350049,-2.97946435821432,-1.18736454823909,,8.207476081316592,,
,7029.0,1717.0,10948.0,1864.0,1243.0,3797.0,253.0,,,,-1.82151023206676,-2.9794565325515,-1.18740388477933,,7.488683819214628,,
,7029.0,1714.0,10951.0,1861.0,1269.0,3804.0,272.0,,,,-1.82094018195395,-2.97946257912371,-1.18700552741523,,6.683682355723623,,
,7030.0,1714.0,10952.0,1860.0,1284.0,3808.0,261.0,,,,-1.81923593376789,-2.97937215958559,-1.18630843298987,,5.80795533131457,,
,7024.0,1712.0,10950.0,1857.0,1264.0,3822.0,226.0,,,,-1.81650029074547,-2.97927911178262,-1.18571167459278,,4.88025576438952,,
,7025.0,1711.0,10951.0,1856.0,1251.0,3792.0,222.0,,,,-1.81441037654438,-2.9790867225625,-1.18438347873576,,3.9214097873282516,,
,7023.0,1710.0,10949.0,1856.0,1279.0,3817.0,211.0,,,,-1.81260227142714,-2.97898072683562,-1.18446696088385,,2.952962183915425,,
,7022.0,1711.0,10950.0,1854.0,1293.0,3803.0,219.0,,,,-1.81018401289173,-2.97899277075412,-1.18321015210157,,1.9958091635742097,,
,7019.0,1709.0,10951.0,1851.0,1307.0,3792.0,204.0,,,,-1.80784065405726,-2.97882959396696,-1.18256607603619,,1.0689590865357033,,
,7018.0,1710.0,10954.0,1853.0,1294.0,3805.0,207.0,,,,-1.80484439715254,-2.97872888409195,-1.18251952514765,,0.18853654191536687,,
,7018.0,1711.0,10957.0,1853.0,1268.0,3779.0,216.0,,,,-1.80238794920034,-2.97864976152492,-1.18131167850807,,-0.6328942525325374,,
,7020.0,1708.0,10957.0,1854.0,1277.0,3766.0,226.0,,,,-1.8001510370087,-2.9786812870541,-1.18043837433928,,-1.3866557786831546,,
,7014.0,1709.0,10958.0,1854.0,1282.0,3776.0,226.0,,,,-1.79768757087851,-2.97854913102086,-1.1799281426651,,-2.0679450997229067,,
,7016.0,1707.0,10956.0,1854.0,1269.0,3782.0,224.0,,,,-1.79634579948015,-2.97852018171823,-1.18008261472497,,-2.6755301970241425,,
,7019.0,1707.0,10958.0,1855.0,1242.0,3784.0,220.0,,,,-1.79681144541071,-2.9783761243327,-1.17907665240495,,-3.2112260358770275,,
,7018.0,1711.0,10961.0,1855.0,1254.0,3773.0,222.0,,,,-1.79493528898022,-2.97847679481974,-1.17988957480104,,-3.6792341446058345,,
,7019.0,1711.0,10960.0,1858.0,1262.0,3768.0,236.0,,,,-1.79428077361667,-2.97829588985842,-1.17882022975681,,-4.08543045645196,,
,7018.0,1710.0,10962.0,1856.0,1251.0,3794.0,205.0,,,,-1.79296704836024,-2.97835298836526,-1.17901877195414,,-4.436677084095704,,
,7017.0,1710.0,10965.0,1855.0,1253.0,3787.0,255.0,,,,-1.79149627364952,-2.97835540568859,-1.17858449588907,,-4.740216791507092,,
,7016.0,1713.0,10963.0,1858.0,1266.0,3792.0,240.0,,,,-1.78945095698062,-2.97830931663254,-1.17730479511596,,-5.003186890354322,,
,7015.0,1711.0,10967.0,1859.0,1247.0,3796.0,243.0,,,,-1.78889681151242,-2.97818830220142,-1.17697028332732,,-5.232265615350416,,
,7017.0,1713.0,10966.0,1859.0,1242.0,3790.0,249.0,,,,-1.78881534151343,-2.97814441671845,-1.17669567406518,,-5.433443152308333,,
,7017.0,1712.0,10965.0,1856.0,1256.0,3793.0,269.0,,,,-1.78783944313222,-2.97815044356237,-1.1771603742489,,-5.611895536367028,,
,7018.0,1714.0,10967.0,1856.0,1262.0,3793.0,231.0,,,,-1.78863680288594,-2.97835284606072,-1.17765045069245,,-5.771934333538149,,
,7018.0,1712.0,10969.0,1859.0,1243.0,3794.0,246.0,,,,-1.78918684525546,-2.97823798153377,-1.17786488544304,,-5.917006813087721,,
,7019.0,1713.0,10968.0,1860.0,1243.0,3794.0,244.0,,,,-1.79070476900286,-2.97824645168654,-1.17760184876831,,-6.04972681297068,,
,7020.0,1714.0,10969.0,1861.0,1268.0,3793.0,223.0,,,,-1.79116647716177,-2.97819974982173,-1.17819053306661,,-6.171922730218302,,
,7021.0,1712.0,10970.0,1861.0,1273.0,3788.0,244.0,,,,-1.79172598741454,-2.97835062506379,-1.17754513248776,,-6.284694546264098,,
,7019.0,1716.0,10968.0,1862.0,1264.0,3792.0,258.0,,,,-1.79195030861138,-2.97819914822964,-1.17752708560827,,-6.388476088516818,,
,7021.0,1716.0,10968.0,1861.0,1260.0,3790.0,269.0,,,,-1.79198924267644,-2.97840143856522,-1.17838780329779,,-6.483101763852764,,
,7020.0,1714.0,10970.0,1860.0,1245.0,3805.0,267.0,,,,-1.79065294451459,-2.97832647540556,-1.17827501661894,,-6.567878822908698,,
,7019.0,1713.0,10966.0,1860.0,1224.0,3787.0,272.0,,,,-1.7904119493551,-2.97831331301804,-1.17721610711824,,-6.641666869129618,,
,7019.0,1713.0,10969.0,1859.0,1247.0,3774.0,310.0,,,,-1.78910853312174,-2.97831875789289,-1.17725605331403,,-6.702965643781123,,
,7017.0,1716.0,10969.0,1861.0,1219.0,3779.0,302.0,,,,-1.78851015153784,-2.978218572943,-1.17691888170718,,-6.750009814001765,,
,7020.0,1713.0,10967.0,1861.0,1221.0,3806.0,253.0,,,,-1.78840369918461,-2.97812074811099,-1.17651172496099,,-6.7808658581265675,,
,7019.0,1712.0,10968.0,1861.0,1242.0,3815.0,267.0,,,,-1.78785604634244,-2.97798667803389,-1.17682799982311,,-6.7935227063488925,,
,7022.0,1715.0,10968.0,1861.0,1263.0,3808.0,255.0,,,,-1.78940640563504,-2.97807327321364,-1.17692815328838,,-6.785966862953401,,
,7021.0,1714.0,10969.0,1863.0,1268.0,3797.0,257.0,,,,-1.78854031330563,-2.9782429631919,-1.17702268869051,,-6.756235763354066,,
,7018.0,1712.0,10968.0,1861.0,1270.0,3792.0,248.0,,,,-1.78762778553968,-2.97815316557869,-1.17698524740733,,-6.702449349015652,,
,7018.0,1713.0,10969.0,1858.0,1274.0,3800.0,253.0,,,,-1.78788180235439,-2.97823819810685,-1.17728535781068,,-6.622826709295031,,
,7020.0,1711.0,10967.0,1861.0,1237.0,3790.0,224.0,,,,-1.78841340582112,-2.97813243738632,-1.17640418046644,,-6.515699529297647,,
,7023.0,1711.0,10970.0,1861.0,1258.0,3788.0,231.0,,,,-1.78707450838671,-2.97809946035636,-1.17643372814906,,-6.37953567500379,,
,7019.0,1712.0,10971.0,1863.0,1260.0,3786.0,227.0,,,,-1.78757348660151,-2.97798705727556,-1.17587809347233,,-6.212984503425076,,
,7021.0,1713.0,10968.0,1859.0,1259.0,3783.0,228.0,,,,-1.78608635274201,-2.97792222397149,-1.17608756121093,,-6.014951048385029,,
,7017.0,1711.0,10969.0,1859.0,1258.0,3790.0,228.0,,,,-1.78569039635715,-2.97785758630157,-1.17560263408346,,-5.7847000677207765,,
,7020.0,1715.0,10971.0,1863.0,1236.0,3769.0,243.0,,,,-1.78450178499049,-2.97780196236316,-1.17605231462191,,-5.521984097337084,,
,7020.0,1717.0,10972.0,1863.0,1243.0,3779.0,229.0,,,,-1.78330004659537,-2.97792379592878,-1.17523665116265,,-5.227182875242009,,
,7020.0,1714.0,10974.0,1861.0,1263.0,3796.0,225.0,,,,-1.78343029349334,-2.97785355207373,-1.17462791832626,,-4.901435103206096,,
,7019.0,1715.0,10971.0,1861.0,1284.0,3797.0,239.0,,,,-1.7821187819136,-2.97774188348633,-1.17485997036265,,-4.546738188447509,,
,7021.0,1719.0,10975.0,1863.0,1258.0,3784.0,244.0,,,,-1.78206541953238,-2.97781306082851,-1.17462126605884,,-4.165989257475038,,
,7019.0,1715.0,10973.0,1863.0,1263.0,3776.0,254.0,,,,-1.78177954083602,-2.97772429403378,-1.1751912949968,,-3.762943956675027,,
,7022.0,1715.0,10976.0,1865.0,1262.0,3789.0,256.0,,,,-1.78225797797793,-2.97776550088846,-1.17541558656853,,-3.3420796242761877,,
,7020.0,1715.0,10974.0,1864.0,1261.0,3813.0,228.0,,,,-1.78203147479601,-2.97783036121576,-1.17525954127191,,-2.90836473490188,,
,7021.0,1717.0,10975.0,1865.0,1252.0,3804.0,229.0,,,,-1.78456648025895,-2.97776224234163,-1.17556919868404,,-2.4669532052641325,,
,7022.0,1719.0,10978.0,1867.0,1248.0,3797.0,233.0,,,,-1.78517754422372,-2.97773975666255,-1.17513385078539,,-2.0228361277900944,,
,7020.0,1718.0,10978.0,1867.0,1230.0,3791.0,246.0,,,,-1.7856036032901,-2.97776695126989,-1.17662158818828,,-1.5804920537569491,,
,7023.0,1720.0,10976.0,1867.0,1230.0,3811.0,251.0,,,,-1.78568320412533,-2.97777209465046,-1.1769287179734,,-1.143579005369083,,
,7023.0,1721.0,10976.0,1866.0,1252.0,3783.0,256.0,,,,-1.78564850432528,-2.97774317824346,-1.17627093756798,,-0.7147071614743247,,
,7023.0,1721.0,10979.0,1868.0,1249.0,3792.0,251.0,,,,-1.78540467362755,-2.97770471286014,-1.1769517592687,,-0.29532170004533553,,
,7024.0,1720.0,10978.0,1871.0,1256.0,3785.0,263.0,,,,-1.78440133558804,-2.97775046915718,-1.17617549366375,,0.11428796961184823,,
,7027.0,1722.0,10981.0,1870.0,1268.0,3782.0,288.0,,,,-1.78298548558017,-2.97772191859196,-1.17606853239961,,0.5148520085749,,
,7022.0,1720.0,10978.0,1867.0,1279.0,3788.0,260.0,,,,-1.78315081553862,-2.97766642796182,-1.17608101109949,,0.9078729680140251,,
,7026.0,1723.0,10980.0,1871.0,1283.0,3787.0,229.0,,,,-1.78190367013942,-2.97755700475218,-1.17497480662677,,1.2952987302875822,,
,7026.0,1721.0,10981.0,1871.0,1259.0,3792.0,244.0,,,,-1.78129584189647,-2.97769645385505,-1.17509194130938,,1.6791571997586185,,
,7026.0,1722.0,10983.0,1871.0,1255.0,3800.0,236.0,,,,-1.7814147296408,-2.97750343077392,-1.17506792543723,,2.0611979323772984,,
,7027.0,1722.0,10980.0,1869.0,1231.0,3785.0,237.0,,,,-1.78070753226528,-2.97746586487775,-1.17540398170655,,2.4425825204751175,,
,7028.0,1721.0,10981.0,1872.0,1265.0,3774.0,261.0,,,,-1.77992374834895,-2.97761450985479,-1.17509376530074,,2.8236573235399987,,
,7029.0,1724.0,10985.0,1875.0,1283.0,3788.0,247.0,,,,-1.78005383673799,-2.97756674001471,-1.17486323460063,,3.203831381487001,,
,7030.0,1725.0,10984.0,1875.0,1275.0,3788.0,248.0,,,,-1.78042564972317,-2.97748620803999,-1.17564881460291,,3.581570476883816,,
,7028.0,1725.0,10982.0,1874.0,1260.0,3793.0,242.0,,,,-1.78194526395373,-2.97747459421683,-1.17559557429477,,3.954506065912761,,
,7031.0,1724.0,10983.0,1873.0,1277.0,3812.0,251.0,,,,-1.78240539528768,-2.97758592552533,-1.1767643425072,,4.319645896932074,,
,7029.0,1726.0,10982.0,1874.0,1263.0,3821.0,258.0,,,,-1.78254202467734,-2.97765834899954,-1.17670318688818,,4.673662501211678,,
,7028.0,1725.0,10980.0,1876.0,1258.0,3833.0,247.0,,,,-1.78163338911597,-2.9777256045045,-1.17661183733326,,5.013227420565723,,
,7027.0,1726.0,10976.0,1873.0,1278.0,3819.0,260.0,,,,-1.78208352260715,-2.97762480379454,-1.17652348115449,,5.335354178360002,,
,7026.0,1722.0,10973.0,1871.0,1252.0,3781.0,253.0,,,,-1.78200191072057,-2.97760756779646,-1.17662290265069,,5.637712595940534,,
,7024.0,1723.0,10970.0,1869.0,1260.0,3773.0,267.0,,,,-1.78352190302118,-2.97759985478342,-1.17645700832629,,5.918881229167175,,
,7024.0,1720.0,10966.0,1869.0,1251.0,3779.0,270.0,,,,-1.78491021897387,-2.97783478750999,-1.17766381875712,,6.178512231560113,,
,7022.0,1720.0,10967.0,1867.0,1241.0,3774.0,267.0,,,,-1.78861316443041,-2.97799768857306,-1.17793798238506,,6.417391931474142,,
2025-07-29 20:40:36,7015.0,1717.0,10962.0,1861.0,1234.0,3773.0,246.0,,,2025/07/29 08:40:36 PM,-1.79228782746318,-2.97813651594032,-1.17967651657298,,6.637389531435544,,
,7015.0,1714.0,10959.0,1862.0,1223.0,3788.0,257.0,,,,-1.79642434578862,-2.97833915280582,-1.18108457888828,,6.841295379476547,,
,7014.0,1711.0,10956.0,1860.0,1223.0,3803.0,249.0,,,,-1.79954892070871,-2.97861930020982,-1.18294893700287,,7.032559292852439,,
,7011.0,1711.0,10954.0,1855.0,1239.0,3805.0,253.0,,,,-1.80186196238266,-2.97864143095501,-1.18423128738989,,7.214947783979734,,
,7006.0,1707.0,10955.0,1851.0,1232.0,3801.0,248.0,,,,-1.8038811812209,-2.97864710635031,-1.18440364045291,,7.392145493782696,,
,7005.0,1708.0,10951.0,1849.0,1225.0,3795.0,250.0,,,,-1.80574267655878,-2.97879662801656,-1.18612423689194,,7.567329928754709,,
,7001.0,1704.0,10952.0,1847.0,1268.0,3807.0,259.0,,,,-1.80838327923385,-2.97873646657727,-1.18577198946192,,7.742750120344224,,
,7002.0,1703.0,10954.0,1846.0,1261.0,3813.0,248.0,,,,-1.80952702666761,-2.9789491139372,-1.18814657022867,,7.919340058465508,,
,6998.0,1704.0,10953.0,1844.0,1282.0,3796.0,238.0,,,,-1.8102060894624,-2.97871992624495,-1.18802118429281,,8.096397316116933,,
,6996.0,1701.0,10953.0,1841.0,1290.0,3794.0,240.0,,,,-1.81054097658077,-2.9788784550203,-1.18797847463424,,8.271355944799206,,
,6995.0,1703.0,10953.0,1840.0,1280.0,3797.0,248.0,,,,-1.81210073921719,-2.97884705565629,-1.18879331313803,,8.439679242505562,,
,6993.0,1699.0,10956.0,1841.0,1275.0,3800.0,231.0,,,,-1.81272090807446,-2.97885174505564,-1.19014863285464,,8.594890409239122,,
,6993.0,1701.0,10958.0,1841.0,1276.0,3798.0,229.0,,,,-1.81343614372921,-2.97891465148551,-1.19016297470264,,8.728746122356197,,
,6991.0,1699.0,10957.0,1839.0,1268.0,3791.0,228.0,,,,-1.81425460962091,-2.97884975785426,-1.19049080931149,,8.83154122419421,,
,6990.0,1697.0,10960.0,1841.0,1264.0,3790.0,226.0,,,,-1.81418416361478,-2.97888157020525,-1.19081584658203,,8.892516920849214,,
,6988.0,1700.0,10963.0,1842.0,1261.0,3809.0,210.0,,,,-1.81351597871486,-2.9789045255509,-1.19096586423167,,8.900335960381264,,
,6989.0,1700.0,10963.0,1841.0,1263.0,3803.0,230.0,,,,-1.81456250950979,-2.97895812095567,-1.19049054283463,,8.843589372951945,,
,6988.0,1697.0,10962.0,1841.0,1239.0,3770.0,228.0,,,,-1.8151455451317,-2.9787710175194,-1.19168828235111,,8.711309222841265,,
,6989.0,1699.0,10965.0,1840.0,1240.0,3783.0,241.0,,,,-1.81399011171428,-2.97864797099941,-1.19155127258065,,8.493475266930812,,
,6987.0,1702.0,10967.0,1840.0,1243.0,3787.0,239.0,,,,-1.81380378240457,-2.97887053184928,-1.19125691045259,,8.181513558335391,,
,6985.0,1700.0,10966.0,1843.0,1253.0,3770.0,243.0,,,,-1.81334133517022,-2.97867871850795,-1.19069254414069,,7.76878631092891,,
,6985.0,1700.0,10973.0,1843.0,1255.0,3781.0,241.0,,,,-1.81273553137794,-2.97885243110844,-1.19212019603944,,7.251063418759602,,
,6986.0,1699.0,10967.0,1841.0,1264.0,3803.0,248.0,,,,-1.81233704658398,-2.9787809059997,-1.1917375579181,,6.626950916618608,,
,6984.0,1700.0,10969.0,1845.0,1257.0,3796.0,236.0,,,,-1.81117290670357,-2.97872042417625,-1.19050948529792,,5.898237747002925,,
,6986.0,1703.0,10971.0,1843.0,1267.0,3781.0,252.0,,,,-1.81086771558871,-2.97853488149737,-1.19105025714896,,5.07011606132218,,
,6985.0,1700.0,10971.0,1843.0,1267.0,3778.0,256.0,,,,-1.80986850518685,-2.97846758974022,-1.19066304698807,,4.151234366034615,,
,6983.0,1701.0,10969.0,1844.0,1252.0,3792.0,241.0,,,,-1.80956438322966,-2.97834198982268,-1.19071145697197,,3.153555327021181,,
,6984.0,1701.0,10972.0,1846.0,1247.0,3794.0,264.0,,,,-1.80995574177536,-2.97845570111981,-1.1908457794112,,2.092007673482635,,
,6986.0,1702.0,10973.0,1847.0,1248.0,3805.0,267.0,,,,-1.81003557035087,-2.9785586613199,-1.19099880467078,,0.9839418105664712,,
,6985.0,1702.0,10973.0,1848.0,1244.0,3794.0,254.0,,,,-1.81006112549294,-2.97866474106106,-1.19154964688573,,-0.15158077366130013,,
,6987.0,1701.0,10972.0,1847.0,1241.0,3783.0,268.0,,,,-1.81025906388433,-2.9785544617321,-1.19140657248427,,-1.2946164469574537,,
,6983.0,1701.0,10973.0,1844.0,1246.0,3777.0,269.0,,,,-1.81003224566942,-2.97846806472122,-1.19092870433466,,-2.425227080053721,,
,6985.0,1702.0,10973.0,1848.0,1264.0,3783.0,273.0,,,,-1.80920086648915,-2.97866300851345,-1.19085562452604,,-3.524362857702394,,
,6987.0,1703.0,10972.0,1850.0,1249.0,3776.0,246.0,,,,-1.80711229026137,-2.97864940790562,-1.18988747137993,,-4.574680271005935,,
,6984.0,1702.0,10972.0,1849.0,1243.0,3785.0,266.0,,,,-1.80671200178827,-2.97847482082737,-1.18883957326538,,-5.561244354243018,,
,6984.0,1700.0,10973.0,1846.0,1251.0,3794.0,262.0,,,,-1.80367222331148,-2.97832333286836,-1.1881569343985,,-6.472076313977998,,
,6984.0,1699.0,10970.0,1847.0,1259.0,3793.0,271.0,,,,-1.80096104258029,-2.97824550336695,-1.18748931894846,,-7.29852055192675,,
,6984.0,1701.0,10971.0,1847.0,1242.0,3806.0,253.0,,,,-1.79783051177177,-2.97824155866347,-1.18615075668533,,-8.03541704400177,,
,6983.0,1700.0,10970.0,1846.0,1236.0,3812.0,262.0,,,,-1.79526911940581,-2.97800838370613,-1.185028632177,,-8.681075643679963,,
,6981.0,1700.0,10971.0,1847.0,1236.0,3806.0,247.0,,,,-1.79300485208164,-2.97793359214285,-1.18440474742274,,-9.237059009303,,
,6981.0,1698.0,10971.0,1847.0,1255.0,3799.0,250.0,,,,-1.78963253902704,-2.97780926174936,-1.18366355311729,,-9.70779169134939,,
,6984.0,1703.0,10972.0,1848.0,1244.0,3792.0,240.0,,,,-1.78847086577982,-2.97771519107622,-1.18273645629918,,-10.100024358740187,,
,6982.0,1700.0,10973.0,1848.0,1234.0,3782.0,228.0,,,,-1.78731156415902,-2.97760896251995,-1.18233231942815,,-10.422192428302477,,
,6982.0,1700.0,10971.0,1848.0,1231.0,3802.0,247.0,,,,-1.78489463539405,-2.97774693481391,-1.18268828473078,,-10.683715334494252,,
,6982.0,1699.0,10973.0,1847.0,1236.0,3814.0,246.0,,,,-1.78404453713123,-2.97753107469967,-1.18215845959783,,-10.894285232691368,,
,6983.0,1701.0,10973.0,1848.0,1274.0,3808.0,265.0,,,,-1.78181059339741,-2.97751427107476,-1.18121712388505,,-11.063192275812709,,
,6984.0,1700.0,10975.0,1844.0,1261.0,3797.0,255.0,,,,-1.780288224784,-2.97744564625774,-1.18023493138334,,-11.198728648474578,,
,6982.0,1702.0,10975.0,1848.0,1272.0,3803.0,243.0,,,,-1.77838338631982,-2.97744603173198,-1.1805315490826,,-11.307706293472949,,
,6981.0,1700.0,10973.0,1846.0,1276.0,3790.0,239.0,,,,-1.77589771685741,-2.97747581271777,-1.17859137096584,,-11.395114502925198,,
,6983.0,1701.0,10974.0,1848.0,1244.0,3786.0,232.0,,,,-1.77381222952111,-2.97750115804723,-1.17870719489246,,-11.463933632173047,,
,6983.0,1702.0,10977.0,1850.0,1256.0,3804.0,229.0,,,,-1.77164690421083,-2.97722620442423,-1.17709312782592,,-11.515110090957677,,
,6981.0,1702.0,10977.0,1848.0,1247.0,3805.0,233.0,,,,-1.76990741155639,-2.97721675042505,-1.17752938503072,,-11.547685484152245,,
,6983.0,1702.0,10978.0,1847.0,1261.0,3807.0,249.0,,,,-1.76864190616274,-2.97718138578551,-1.17599791498246,,-11.559060120700705,,
,6983.0,1702.0,10976.0,1847.0,1271.0,3796.0,241.0,,,,-1.76703959076171,-2.97701532532873,-1.17614339431178,,-11.545360072050919,,
,6987.0,1703.0,10978.0,1851.0,1263.0,3792.0,254.0,,,,-1.76691394080119,-2.97701594595546,-1.17534535134846,,-11.501869985193224,,
,6983.0,1704.0,10980.0,1851.0,1258.0,3798.0,257.0,,,,-1.7666318138049,-2.97706022731859,-1.17594363090732,,-11.423492285641204,,
,6984.0,1702.0,10978.0,1848.0,1262.0,3789.0,264.0,,,,-1.76644110953981,-2.97701929304959,-1.17542335879047,,-11.305196624680116,,
,6985.0,1705.0,10979.0,1854.0,1256.0,3791.0,243.0,,,,-1.7663195260017,-2.97704948237391,-1.17588041999085,,-11.142429619644934,,
,6986.0,1703.0,10982.0,1851.0,1260.0,3801.0,252.0,,,,-1.76496701868715,-2.97691634207644,-1.17512583566609,,-10.931462446763735,,
,6985.0,1705.0,10983.0,1854.0,1280.0,3797.0,283.0,,,,-1.7647991393014,-2.97692943277687,-1.17570126019304,,-10.669661640778562,,
,6986.0,1705.0,10982.0,1852.0,1258.0,3796.0,282.0,,,,-1.76316068046667,-2.97694478710967,-1.17512277977914,,-10.355675799134152,,
,6985.0,1705.0,10980.0,1853.0,1256.0,3786.0,271.0,,,,-1.76242594875051,-2.97690066030437,-1.17450989481333,,-9.989537135353729,,
,6989.0,1707.0,10983.0,1855.0,1276.0,3787.0,265.0,,,,-1.76085733926737,-2.9767255678797,-1.17403227404984,,-9.572681500704537,,
,6990.0,1709.0,10985.0,1855.0,1253.0,3807.0,256.0,,,,-1.75921954276745,-2.97672476805906,-1.17375019451851,,-9.107893258672455,,
,6987.0,1706.0,10984.0,1854.0,1252.0,3796.0,260.0,,,,-1.75740622244905,-2.97668337333179,-1.17263468676635,,-8.59918206612115,,
,6986.0,1707.0,10985.0,1854.0,1258.0,3795.0,250.0,,,,-1.75480495036275,-2.9766416391301,-1.17185790498181,,-8.051597667022977,,
,6986.0,1710.0,10986.0,1857.0,1254.0,3816.0,229.0,,,,-1.75380583622167,-2.97652463649434,-1.17101295822218,,-7.470987950955938,,
,6991.0,1710.0,10986.0,1858.0,1266.0,3805.0,226.0,,,,-1.75144587876144,-2.97645377611455,-1.17020969551541,,-6.863707149739809,,
,6991.0,1710.0,10988.0,1856.0,1274.0,3806.0,245.0,,,,-1.74956169043069,-2.97642313199997,-1.17024852487897,,-6.236286403592708,,
,6988.0,1710.0,10986.0,1859.0,1236.0,3779.0,280.0,,,,-1.74962709168732,-2.9762586457587,-1.16993387698109,,-5.595086842967217,,
,6992.0,1711.0,10988.0,1859.0,1257.0,3759.0,268.0,,,,-1.74752710027339,-2.97628508543481,-1.16993278625023,,-4.945962849922802,,
,6993.0,1713.0,10990.0,1860.0,1273.0,3775.0,264.0,,,,-1.74704086329317,-2.97633885229193,-1.16930599284811,,-4.293967525905109,,
,6995.0,1713.0,10989.0,1862.0,1288.0,3793.0,264.0,,,,-1.74769096838729,-2.97638504769991,-1.16958003740583,,-3.643132277906291,,
,6994.0,1712.0,10987.0,1860.0,1304.0,3811.0,243.0,,,,-1.74748517996459,-2.97636092627555,-1.16962395217818,,-2.996347679489353,,
,6992.0,1713.0,10987.0,1862.0,1303.0,3820.0,276.0,,,,-1.74831348778909,-2.97635208325437,-1.17035245152216,,-2.3553636238232354,,
,6994.0,1714.0,10989.0,1862.0,1261.0,3813.0,265.0,,,,-1.75073672332541,-2.97635392480067,-1.17099064015969,,-1.7209137504949963,,
,6993.0,1715.0,10983.0,1860.0,1258.0,3805.0,275.0,,,,-1.75243657917855,-2.97665396293248,-1.17163355743288,,-1.0929531655142848,,
,6991.0,1712.0,10983.0,1861.0,1272.0,3814.0,259.0,,,,-1.75742488927486,-2.97665506010158,-1.17288394846881,,-0.4709813188158633,,
,6990.0,1712.0,10980.0,1860.0,1285.0,3822.0,259.0,,,,-1.76030297082272,-2.97691018131436,-1.17454008464528,,0.14559362563306147,,
,6991.0,1710.0,10978.0,1858.0,1248.0,3793.0,259.0,,,,-1.764947999828,-2.97701060397036,-1.17597485544749,,0.7571025527127818,,
,6988.0,1709.0,10971.0,1857.0,1242.0,3784.0,264.0,,,,-1.76744913199269,-2.97709054570515,-1.1768865988991,,1.3633294389340294,,
,6986.0,1705.0,10969.0,1854.0,1226.0,3774.0,253.0,,,,-1.77077643626592,-2.97730159833738,-1.17789437353713,,1.9633354400008747,,
,6982.0,1702.0,10965.0,1850.0,1229.0,3777.0,226.0,,,,-1.77348388892156,-2.97735527507259,-1.17826596756282,,2.5554178045613214,,
,6982.0,1702.0,10964.0,1848.0,1220.0,3788.0,239.0,,,,-1.77503605666497,-2.97743017082596,-1.17965402522369,,3.1372056770360395,,
,6979.0,1699.0,10961.0,1846.0,1243.0,3799.0,254.0,,,,-1.77772022032004,-2.97760278435505,-1.17972232985643,,3.7058733306891027,,
,6978.0,1697.0,10959.0,1843.0,1258.0,3792.0,243.0,,,,-1.77924887713565,-2.97742086217735,-1.18041988637205,,4.258434487872864,,
,6975.0,1695.0,10958.0,1841.0,1269.0,3788.0,215.0,,,,-1.78174943700613,-2.97741501987488,-1.1814641211902,,4.79207102013069,,
,6971.0,1692.0,10955.0,1837.0,1250.0,3781.0,229.0,,,,-1.78343288658877,-2.97775034021899,-1.18173707736303,,5.304446358474034,,
,6968.0,1692.0,10959.0,1837.0,1262.0,3778.0,231.0,,,,-1.7838133085911,-2.9775625115693,-1.18246620467002,,5.793958690686245,,
,6967.0,1693.0,10955.0,1833.0,1254.0,3791.0,258.0,,,,-1.78343298443314,-2.97770344041115,-1.18332133993087,,6.259901255644515,,
,6968.0,1691.0,10959.0,1832.0,1256.0,3802.0,258.0,,,,-1.78348359957434,-2.9776519014119,-1.18293190265074,,6.702515511208327,,
,6961.0,1690.0,10960.0,1830.0,1278.0,3804.0,247.0,,,,-1.7829729773421,-2.97751255630333,-1.18267538487414,,7.122944391932185,,
,6960.0,1689.0,10961.0,1833.0,1277.0,3819.0,253.0,,,,-1.78247614249073,-2.97759062970082,-1.18308972986082,,7.523111696800105,,
,6959.0,1689.0,10961.0,1828.0,1267.0,3787.0,238.0,,,,-1.78103165855773,-2.97757057053082,-1.18203634098714,,7.9055637789632085,,
,6961.0,1687.0,10965.0,1831.0,1268.0,3790.0,235.0,,,,-1.77861844623225,-2.97738059397897,-1.1810964835753,,8.273308020673044,,
,6955.0,1689.0,10962.0,1830.0,1284.0,3798.0,241.0,,,,-1.77735291911574,-2.9775758211532,-1.18097343523692,,8.629670926410471,,
,6955.0,1685.0,10963.0,1830.0,1278.0,3799.0,233.0,,,,-1.77466848442366,-2.97740417636628,-1.180094615671,,8.97818245242629,,
,6954.0,1686.0,10967.0,1830.0,1287.0,3791.0,224.0,,,,-1.77293103970512,-2.97730977676527,-1.17906073942607,,9.32247785199513,,
,6955.0,1690.0,10969.0,1831.0,1286.0,3790.0,221.0,,,,-1.77139120402634,-2.97722272591732,-1.17767454939568,,9.666197064431875,,
,6952.0,1686.0,10970.0,1829.0,1274.0,3790.0,247.0,,,,-1.77077469475335,-2.97706611790798,-1.17854495743058,,10.012855748904542,,
,6952.0,1689.0,10968.0,1830.0,1278.0,3784.0,242.0,,,,-1.77039509949592,-2.97721028061703,-1.17821392753773,,10.36566198940133,,
,6953.0,1689.0,10971.0,1832.0,1256.0,3772.0,259.0,,,,-1.77166723907859,-2.97712136606825,-1.17810689542863,,10.72725887008867,,
,6955.0,1688.0,10973.0,1832.0,1290.0,3808.0,246.0,,,,-1.77139606079668,-2.9770585782164,-1.17871663506976,,11.09938555798869,,
,6952.0,1690.0,10974.0,1831.0,1278.0,3810.0,252.0,,,,-1.77349900044721,-2.97722938113913,-1.17968335149852,,11.482467293104516,,
,6953.0,1686.0,10974.0,1830.0,1271.0,3790.0,242.0,,,,-1.77518015348791,-2.97737104486675,-1.18019788016426,,11.87516516331579,,
,6949.0,1688.0,10976.0,1833.0,1247.0,3772.0,252.0,,,,-1.77636660142808,-2.9773308233655,-1.1808104128954,,12.27393524078194,,
,6951.0,1688.0,10978.0,1836.0,1226.0,3793.0,265.0,,,,-1.77773904255116,-2.97744828675588,-1.18244857002059,,12.672658639227906,,
,6952.0,1687.0,10977.0,1834.0,1232.0,3797.0,271.0,,,,-1.77970240964593,-2.97748758758574,-1.18176146510525,,13.06240650674424,,
,6954.0,1690.0,10979.0,1834.0,1230.0,3803.0,265.0,,,,-1.78018564771158,-2.97743134047027,-1.18222552911054,,13.431397273500647,,
,6952.0,1688.0,10980.0,1835.0,1263.0,3807.0,267.0,,,,-1.78235956962534,-2.97746567970127,-1.18309918305273,,13.765189525146186,,
,6955.0,1690.0,10979.0,1835.0,1260.0,3795.0,279.0,,,,-1.78137152299885,-2.97756772522907,-1.18219328640364,,14.047134086252926,,
,6952.0,1689.0,10980.0,1835.0,1240.0,3798.0,268.0,,,,-1.7797409554597,-2.97744665673231,-1.18160284238122,,14.259084304983745,,
,6956.0,1688.0,10978.0,1837.0,1242.0,3809.0,297.0,,,,-1.77769599502202,-2.97738304187932,-1.18145427922171,,14.38233604870687,,
,6956.0,1686.0,10977.0,1837.0,1252.0,3780.0,286.0,,,,-1.776465265187,-2.97729945588462,-1.18060590338783,,14.398741623078521,,
,6953.0,1688.0,10978.0,1836.0,1253.0,3784.0,279.0,,,,-1.77447129244805,-2.9771770295647,-1.17867610977877,,14.29191808826532,,
,6954.0,1691.0,10979.0,1838.0,1225.0,3792.0,252.0,,,,-1.77330349898472,-2.97716916393254,-1.17951116842642,,14.048453246239449,,
,6953.0,1688.0,10980.0,1837.0,1232.0,3786.0,258.0,,,,-1.77126992110991,-2.9771427008346,-1.17865911950586,,13.659004233738683,,
,6952.0,1687.0,10979.0,1836.0,1223.0,3794.0,263.0,,,,-1.77047779239129,-2.97714839368923,-1.17820914290114,,13.119185526870764,,
,6952.0,1687.0,10977.0,1836.0,1269.0,3796.0,242.0,,,,-1.7691206300366,-2.97703075806861,-1.17817914111629,,12.430155604672043,,
,6954.0,1689.0,10978.0,1838.0,1236.0,3785.0,261.0,,,,-1.76831121512401,-2.97700436046936,-1.1778211729643,,11.598834463256546,,
,6952.0,1692.0,10983.0,1838.0,1229.0,3797.0,264.0,,,,-1.76789450407071,-2.97696100581357,-1.17739058764175,,10.637717069591165,,
,6950.0,1691.0,10983.0,1839.0,1272.0,3814.0,268.0,,,,-1.76767022987284,-2.97704143291456,-1.17765218692575,,9.5642881311757,,
,6951.0,1687.0,10981.0,1836.0,1276.0,3805.0,269.0,,,,-1.76851080778402,-2.97707045014768,-1.17801886796319,,8.400085453428616,,
,6956.0,1689.0,10981.0,1838.0,1266.0,3800.0,286.0,,,,-1.76878547709827,-2.97725101430999,-1.17789282515206,,7.1694950481493,,
,6950.0,1687.0,10980.0,1838.0,1246.0,3812.0,288.0,,,,-1.76813729945538,-2.97709297584148,-1.17818291514496,,5.898384865825762,,
,6955.0,1690.0,10982.0,1838.0,1244.0,3807.0,281.0,,,,-1.76817634957449,-2.97706139361483,-1.17798459170601,,4.612693150436185,,
,6951.0,1686.0,10981.0,1834.0,1254.0,3802.0,286.0,,,,-1.76667391642645,-2.97703132649983,-1.17673935832067,,3.337083274759156,,
,6953.0,1689.0,10980.0,1839.0,1246.0,3799.0,285.0,,,,-1.76570426240636,-2.97696757395227,-1.17676924533251,,2.093762928532849,,
2025-07-29 20:40:37,6952.0,1691.0,10983.0,1835.0,1231.0,3790.0,263.0,,,2025/07/29 08:40:37 PM,-1.76402758483226,-2.97708066575912,-1.17637522903315,,0.9015454666406293,,
,6953.0,1690.0,10982.0,1838.0,1240.0,3806.0,267.0,,,,-1.76139045642605,-2.9767961363607,-1.17589414788312,,-0.22479213913314366,,
,6952.0,1687.0,10980.0,1836.0,1252.0,3811.0,258.0,,,,-1.76068759477083,-2.97689386464111,-1.17514372709134,,-1.274825775335289,,
,6953.0,1689.0,10980.0,1839.0,1256.0,3795.0,251.0,,,,-1.76037730842734,-2.97682245867064,-1.17519504831293,,-2.2424734654240437,,
,6955.0,1693.0,10985.0,1840.0,1267.0,3800.0,244.0,,,,-1.75919677631178,-2.97680029969939,-1.17425004196391,,-3.125684051748158,,
,6953.0,1692.0,10985.0,1841.0,1246.0,3798.0,244.0,,,,-1.75746069957222,-2.97659039006984,-1.17324147898567,,-3.925878042855264,,
,6956.0,1689.0,10986.0,1841.0,1273.0,3791.0,263.0,,,,-1.75601326537598,-2.97654721429094,-1.17264401564635,,-4.647213408969097,,
,6952.0,1690.0,10984.0,1840.0,1259.0,3786.0,238.0,,,,-1.7549823958134,-2.9767309678272,-1.17288235058402,,-5.295759930470736,,
,6956.0,1692.0,10986.0,1841.0,1257.0,3784.0,250.0,,,,-1.75302480197427,-2.97658486779493,-1.1725761120439,,-5.878666608182516,,
,6957.0,1695.0,10990.0,1844.0,1237.0,3782.0,256.0,,,,-1.75141564509669,-2.97652242395911,-1.17210206074738,,-6.403398755056798,,
,6957.0,1694.0,10986.0,1844.0,1245.0,3795.0,275.0,,,,-1.74887277685479,-2.97638689155675,-1.17104186445942,,-6.87710650237206,,
,6956.0,1694.0,10985.0,1841.0,1252.0,3802.0,264.0,,,,-1.7481435085034,-2.97588812253327,-1.17112917691514,,-7.306166447856483,,
,6959.0,1694.0,10992.0,1845.0,1264.0,3789.0,259.0,,,,-1.74583921632288,-2.97621528809982,-1.17041019312228,,-7.695915023859475,,
,6958.0,1695.0,10990.0,1846.0,1249.0,3797.0,258.0,,,,-1.74495760122925,-2.97626939041533,-1.16954818208466,,-8.050568040908484,,
,6959.0,1696.0,10991.0,1844.0,1235.0,3804.0,258.0,,,,-1.74348070254936,-2.97610515124126,-1.16833613681518,,-8.373298193153929,,
,6958.0,1694.0,10992.0,1845.0,1255.0,3819.0,248.0,,,,-1.74237354699386,-2.97602694875033,-1.16854020168015,,-8.666423950607188,,
,6960.0,1694.0,10992.0,1847.0,1254.0,3802.0,250.0,,,,-1.7412832609647,-2.97591349028018,-1.16808317836308,,-8.931652411392689,,
,6965.0,1696.0,10991.0,1848.0,1280.0,3789.0,245.0,,,,-1.73977457748125,-2.97586039901666,-1.16682785286517,,-9.17031790294341,,
,6964.0,1699.0,10992.0,1848.0,1283.0,3803.0,252.0,,,,-1.74045316616207,-2.97600992407164,-1.16743934824867,,-9.38356772462612,,
,6960.0,1697.0,10991.0,1850.0,1281.0,3807.0,245.0,,,,-1.73897597889124,-2.97589902204141,-1.16760549338308,,-9.572463823341492,,
,6963.0,1697.0,10993.0,1850.0,1277.0,3811.0,250.0,,,,-1.73903726137476,-2.97600419437357,-1.16707778411707,,-9.7379899892377,,
,6963.0,1700.0,10996.0,1851.0,1234.0,3803.0,261.0,,,,-1.73786133885927,-2.97590127837101,-1.16693681567058,,-9.880974057827773,,
,6967.0,1700.0,10995.0,1851.0,1264.0,3785.0,234.0,,,,-1.7389211395305,-2.97585622415972,-1.16733000051311,,-10.001950585958786,,
,6969.0,1701.0,10997.0,1853.0,1259.0,3775.0,252.0,,,,-1.73834006014803,-2.97602984021549,-1.1678233724756,,-10.100999818158789,,
,6966.0,1702.0,10996.0,1853.0,1288.0,3777.0,268.0,,,,-1.7382882193476,-2.97596098948039,-1.1666782085653,,-10.177602671446229,,
,6969.0,1703.0,10999.0,1852.0,1258.0,3774.0,289.0,,,,-1.73887237369714,-2.97593389542839,-1.16719139243151,,-10.230548765386464,,
,6970.0,1701.0,10998.0,1853.0,1252.0,3775.0,258.0,,,,-1.73807509879484,-2.97584255657856,-1.16728239331883,,-10.25792556000774,,
,6968.0,1705.0,11001.0,1854.0,1249.0,3787.0,243.0,,,,-1.73751913247223,-2.9758683457235,-1.16716472240847,,-10.257202409415205,,
,6971.0,1703.0,10998.0,1854.0,1256.0,3787.0,241.0,,,,-1.7391698399124,-2.9759265503279,-1.16741898457776,,-10.225405792049163,,
,6972.0,1706.0,11001.0,1856.0,1265.0,3780.0,231.0,,,,-1.74075187706297,-2.97594826653784,-1.1677699576578,,-10.15936456751936,,
,6971.0,1704.0,11001.0,1858.0,1262.0,3794.0,245.0,,,,-1.74473678461086,-2.97617188120235,-1.16960879187588,,-10.055991194731014,,
,6971.0,1706.0,10999.0,1858.0,1261.0,3802.0,257.0,,,,-1.74902337787197,-2.97633878747574,-1.17013508140634,,-9.912559904993904,,
,6970.0,1705.0,10994.0,1856.0,1290.0,3830.0,268.0,,,,-1.75349476651791,-2.9767104201699,-1.17207096593519,,-9.726946576623849,,
,6970.0,1704.0,10995.0,1855.0,1278.0,3840.0,285.0,,,,-1.75870449983219,-2.97688209441916,-1.1733413866422,,-9.497805318859992,,
,6968.0,1702.0,10992.0,1855.0,1276.0,3828.0,274.0,,,,-1.76201949804903,-2.9771467491568,-1.17509657709156,,-9.224670064594424,,
,6968.0,1705.0,10989.0,1854.0,1273.0,3825.0,278.0,,,,-1.76474058251565,-2.97715478421991,-1.17634317209351,,-8.907982681391893,,
,6967.0,1702.0,10982.0,1851.0,1265.0,3813.0,300.0,,,,-1.76787510850189,-2.97721580724898,-1.17666575938784,,-8.549059971387267,,
,6965.0,1697.0,10977.0,1849.0,1259.0,3785.0,282.0,,,,-1.76986809265407,-2.97724651157023,-1.17733356093426,,-8.150018761431223,,
,6963.0,1696.0,10981.0,1850.0,1230.0,3777.0,269.0,,,,-1.77188838977823,-2.9773088822515,-1.179147097452,,-7.713680001106444,,
,6960.0,1697.0,10976.0,1845.0,1225.0,3760.0,257.0,,,,-1.77311808531391,-2.97733688998473,-1.17938806006679,,-7.24346928975526,,
,6958.0,1694.0,10975.0,1844.0,1219.0,3754.0,258.0,,,,-1.77249593097461,-2.97743804036874,-1.1798335390028,,-6.743323583549636,,
,6956.0,1690.0,10970.0,1841.0,1230.0,3771.0,286.0,,,,-1.77229376178416,-2.97722502797614,-1.17905601210187,,-6.217603925135748,,
,6953.0,1689.0,10971.0,1836.0,1233.0,3759.0,280.0,,,,-1.77020488123634,-2.97736250888057,-1.17855260695509,,-5.671004544587657,,
,6952.0,1688.0,10972.0,1836.0,1223.0,3777.0,262.0,,,,-1.76787455602497,-2.97722856547939,-1.17811097408686,,-5.108442817514034,,
,6950.0,1684.0,10969.0,1832.0,1243.0,3776.0,260.0,,,,-1.76555406801576,-2.97714330712165,-1.17684856709639,,-4.534915148854638,,
,6947.0,1682.0,10970.0,1830.0,1273.0,3784.0,288.0,,,,-1.76368841058363,-2.9771354874984,-1.17607136084593,,-3.955311533225846,,
,6945.0,1683.0,10968.0,1828.0,1261.0,3794.0,258.0,,,,-1.75982114460271,-2.97685621357069,-1.17472747087988,,-3.374194007771243,,
,6943.0,1683.0,10972.0,1829.0,1258.0,3802.0,247.0,,,,-1.75807551017751,-2.97691234913946,-1.17422577484311,,-2.795557503969864,,
,6944.0,1682.0,10974.0,1827.0,1283.0,3801.0,252.0,,,,-1.75624243783053,-2.97677369977704,-1.1745266410652,,-2.2226022627933766,,
,6942.0,1682.0,10973.0,1827.0,1281.0,3798.0,243.0,,,,-1.75558848022254,-2.97667750347239,-1.17272372175424,,-1.6575529836382854,,
,6938.0,1680.0,10975.0,1825.0,1266.0,3793.0,248.0,,,,-1.75479285265725,-2.97672994807509,-1.17312324519062,,-1.101560200738536,,
,6937.0,1682.0,10976.0,1827.0,1256.0,3781.0,251.0,,,,-1.75674484270259,-2.97678664840518,-1.17387967604457,,-0.554713343929714,,
,6937.0,1681.0,10976.0,1825.0,1247.0,3785.0,239.0,,,,-1.75877772729534,-2.97678548260183,-1.17501296537307,,-0.01618223059623454,,
,6938.0,1679.0,10979.0,1825.0,1253.0,3803.0,233.0,,,,-1.7629275481085,-2.97684058325572,-1.17579273911348,,0.5155150596348795,,
,6937.0,1682.0,10980.0,1825.0,1274.0,3810.0,229.0,,,,-1.76575599252984,-2.97701358543036,-1.17633342131759,,1.0421427458179662,,
,6933.0,1679.0,10978.0,1826.0,1259.0,3791.0,236.0,,,,-1.7692791187152,-2.97715419933424,-1.17764599801881,,1.565323844933581,,
,6935.0,1680.0,10984.0,1829.0,1261.0,3788.0,253.0,,,,-1.77111286655364,-2.97712241775967,-1.17884062294977,,2.0861269518261594,,
,6936.0,1682.0,10985.0,1827.0,1278.0,3794.0,247.0,,,,-1.77439120544203,-2.97740883161754,-1.17999034123645,,2.604732840726868,,
,6937.0,1681.0,10986.0,1829.0,1283.0,3790.0,248.0,,,,-1.7759779951232,-2.97731840439657,-1.18050169322752,,3.120240949744525,,
,6937.0,1681.0,10988.0,1828.0,1273.0,3791.0,247.0,,,,-1.77916782410889,-2.97749292640374,-1.18127248231313,,3.6306533142819992,,
,6936.0,1683.0,10988.0,1831.0,1294.0,3794.0,239.0,,,,-1.78027478189413,-2.97746774916235,-1.18211964220053,,4.133043545206241,,
,6938.0,1683.0,10989.0,1829.0,1260.0,3798.0,269.0,,,,-1.78220255775017,-2.97753208857822,-1.18336585773929,,4.623887507789208,,
,6938.0,1682.0,10991.0,1832.0,1272.0,3813.0,278.0,,,,-1.78411895959423,-2.97759542213953,-1.18355829301837,,5.099505578380469,,
,6937.0,1681.0,10988.0,1829.0,1261.0,3805.0,260.0,,,,-1.78599711591304,-2.97777484837128,-1.18398251460955,,5.556547162104822,,
,6940.0,1683.0,10991.0,1832.0,1265.0,3808.0,246.0,,,,-1.78775642459338,-2.9778183805518,-1.18442471460347,,5.992438882229997,,
,6936.0,1683.0,10987.0,1833.0,1263.0,3808.0,262.0,,,,-1.78800069827784,-2.97766970042628,-1.18525648062413,,6.405719926211389,,
,6935.0,1682.0,10992.0,1834.0,1257.0,3807.0,259.0,,,,-1.78841037649879,-2.97765780806725,-1.18518535415961,,6.796201620121762,,
,6934.0,1686.0,10989.0,1834.0,1228.0,3788.0,247.0,,,,-1.78876525323207,-2.97776606746062,-1.18568325781722,,7.164911978744491,,
,6935.0,1683.0,10993.0,1835.0,1246.0,3802.0,255.0,,,,-1.78794928509126,-2.9777472954823,-1.18497486453564,,7.5138167363493436,,
,6936.0,1684.0,10993.0,1836.0,1249.0,3791.0,278.0,,,,-1.78830107019162,-2.97789767828146,-1.18464477643139,,7.84534179394977,,
,6937.0,1685.0,10993.0,1837.0,1245.0,3783.0,282.0,,,,-1.78721172273163,-2.97783921845472,-1.18483832588413,,8.161752641134168,,
,6937.0,1684.0,10991.0,1835.0,1253.0,3788.0,276.0,,,,-1.78626250965112,-2.97776453710341,-1.1844952589873,,8.464468753062846,,
,6934.0,1683.0,10990.0,1835.0,1244.0,3786.0,275.0,,,,-1.78470897455301,-2.977616452135,-1.18367316759148,,8.75340192737532,,
,6936.0,1683.0,10992.0,1836.0,1252.0,3788.0,275.0,,,,-1.78415378992766,-2.97768093204874,-1.18325916465639,,9.026406649414499,,
,6938.0,1688.0,10992.0,1838.0,1250.0,3779.0,261.0,,,,-1.78294505445701,-2.97762083543938,-1.18276293432193,,9.27891929505309,,
,6938.0,1685.0,10994.0,1837.0,1260.0,3778.0,264.0,,,,-1.78264852970358,-2.97768689832452,-1.18231663083661,,9.503843204917612,,
,6933.0,1685.0,10991.0,1833.0,1261.0,3781.0,289.0,,,,-1.7825620574614,-2.97769132024482,-1.18253803923874,,9.69171069597843,,
,6937.0,1683.0,10994.0,1835.0,1260.0,3784.0,268.0,,,,-1.78320264739111,-2.97755457892534,-1.18242591025113,,9.831123787637466,,
,6935.0,1686.0,10992.0,1837.0,1253.0,3806.0,256.0,,,,-1.78195018378343,-2.97756877126583,-1.1817689069652,,9.909445647181508,,
,6936.0,1682.0,10995.0,1837.0,1265.0,3819.0,260.0,,,,-1.78203130933247,-2.97761195406408,-1.18257557066312,,9.913686944556868,,
,6937.0,1682.0,10988.0,1834.0,1248.0,3809.0,257.0,,,,-1.78237949670109,-2.97751479141954,-1.18230089229383,,9.831508234898852,,
,6936.0,1686.0,10994.0,1836.0,1247.0,3795.0,255.0,,,,-1.78378677703647,-2.97754144870494,-1.18285857521172,,9.652244736692111,,
,6935.0,1684.0,10992.0,1836.0,1250.0,3785.0,281.0,,,,-1.78420202817529,-2.97762326093516,-1.18295981107457,,9.367856411482062,,
,6938.0,1682.0,10996.0,1835.0,1257.0,3787.0,276.0,,,,-1.78394807511513,-2.97753617130103,-1.18300902684479,,8.973714403775501,,
,6937.0,1684.0,10994.0,1836.0,1249.0,3798.0,272.0,,,,-1.78433264093219,-2.97772122899659,-1.18284663860241,,8.469152242227798,,
,6939.0,1684.0,10996.0,1838.0,1253.0,3784.0,263.0,,,,-1.78441187650718,-2.97765556696548,-1.18313596063666,,7.85773349463137,,
,6937.0,1687.0,10996.0,1838.0,1270.0,3791.0,273.0,,,,-1.78445134134594,-2.97757645022019,-1.18277804266321,,7.14721426967614,,
,6937.0,1686.0,10995.0,1839.0,1276.0,3789.0,260.0,,,,-1.7837235977725,-2.97750515702958,-1.18217449054038,,6.349206890926645,,
,6936.0,1688.0,10998.0,1838.0,1266.0,3785.0,265.0,,,,-1.78322382944601,-2.97759278857462,-1.18310953174028,,5.4785775191583,,
,6937.0,1686.0,10997.0,1838.0,1269.0,3786.0,258.0,,,,-1.78236002635558,-2.97751533695779,-1.18179677913774,,4.552632432132832,,
,6940.0,1687.0,11000.0,1838.0,1252.0,3805.0,278.0,,,,-1.78328956992181,-2.97766252785632,-1.18265511901936,,3.5901628281770166,,
,6939.0,1689.0,11000.0,1842.0,1233.0,3797.0,267.0,,,,-1.7833518412936,-2.97759386136948,-1.18290944762011,,2.6104255830171814,,
,6939.0,1688.0,11001.0,1839.0,1234.0,3793.0,268.0,,,,-1.78336578030763,-2.97755585890923,-1.1830482587008,,1.6321377567661375,,
,6939.0,1688.0,11001.0,1837.0,1248.0,3781.0,253.0,,,,-1.78449227579845,-2.9776187963336,-1.18306594474376,,0.6725569783224091,,
,6940.0,1687.0,11004.0,1841.0,1258.0,3800.0,249.0,,,,-1.78468911274837,-2.97763059224478,-1.1832887159888,,-0.25329025402072375,,
,6941.0,1689.0,11004.0,1844.0,1238.0,3806.0,256.0,,,,-1.78466375390695,-2.9775977265429,-1.18302460704354,,-1.1331832754559774,,
,6940.0,1692.0,11003.0,1843.0,1244.0,3810.0,256.0,,,,-1.78529425568868,-2.97758081432836,-1.1829205170832,,-1.9580510885115932,,
,6943.0,1691.0,11003.0,1843.0,1264.0,3774.0,257.0,,,,-1.78491399273205,-2.9774690162949,-1.18318208440921,,-2.7220694429689813,,
,6941.0,1690.0,11000.0,1844.0,1243.0,3785.0,263.0,,,,-1.78468254506253,-2.97752676409904,-1.18268948806259,,-3.422516450159392,,
,6944.0,1690.0,11004.0,1847.0,1261.0,3786.0,263.0,,,,-1.7839352531426,-2.97750172526052,-1.1822049653086,,-4.0594148526414395,,
,6944.0,1693.0,11006.0,1845.0,1266.0,3803.0,284.0,,,,-1.78317363775066,-2.97749302882284,-1.18261303222685,,-4.635009841787646,,
,6943.0,1693.0,11006.0,1846.0,1270.0,3804.0,283.0,,,,-1.78278904293168,-2.97748259723243,-1.18071842565264,,-5.153145914633493,,
,6943.0,1692.0,11005.0,1845.0,1257.0,3783.0,290.0,,,,-1.78266846324583,-2.97742626271518,-1.18198663741348,,-5.618612313295304,,
,6944.0,1694.0,11009.0,1847.0,1274.0,3788.0,279.0,,,,-1.78159926488188,-2.97752697874208,-1.18196511530864,,-6.036524067042218,,
,6947.0,1694.0,11010.0,1850.0,1268.0,3805.0,275.0,,,,-1.78107290974275,-2.97741916113955,-1.18187280185038,,-6.411795975509225,,
,6946.0,1696.0,11010.0,1847.0,1261.0,3815.0,259.0,,,,-1.78137546836399,-2.97760714001352,-1.18105442971319,,-6.74875183356314,,
,6947.0,1696.0,11009.0,1848.0,1252.0,3803.0,288.0,,,,-1.78200967655686,-2.97737547259849,-1.18088753434305,,-7.050892597183151,,
,6947.0,1695.0,11010.0,1849.0,1253.0,3783.0,278.0,,,,-1.78390315556214,-2.97744857704546,-1.18091272266473,,-7.320826788263823,,
,6947.0,1699.0,11010.0,1851.0,1244.0,3797.0,274.0,,,,-1.78441439385263,-2.97753548615366,-1.1818648901429,,-7.560345954301784,,
,6948.0,1700.0,11011.0,1851.0,1261.0,3790.0,277.0,,,,-1.78728086809319,-2.97771035522896,-1.1828788151963,,-7.770609317214927,,
,6947.0,1697.0,11014.0,1855.0,1280.0,3799.0,258.0,,,,-1.78941481039533,-2.97774982839027,-1.18443258212651,,-7.952387411836409,,
,6952.0,1697.0,11011.0,1855.0,1268.0,3791.0,272.0,,,,-1.79330310128827,-2.97800468157438,-1.18513725961068,,-8.10630780566448,,
,6949.0,1699.0,11016.0,1853.0,1256.0,3782.0,269.0,,,,-1.79727985128723,-2.97824922204874,-1.18612517487091,,-8.23304968799925,,
,6953.0,1700.0,11015.0,1857.0,1222.0,3776.0,265.0,,,,-1.80031118866802,-2.97841828207295,-1.18661056090154,,-8.333448553407202,,
,6953.0,1702.0,11013.0,1855.0,1234.0,3784.0,267.0,,,,-1.80290586274048,-2.97841294237517,-1.18818727637263,,-8.408494398688196,,
,6949.0,1700.0,11013.0,1855.0,1244.0,3817.0,257.0,,,,-1.80630070876478,-2.97870655695172,-1.18986895157368,,-8.459231626620904,,
,6952.0,1704.0,11015.0,1856.0,1260.0,3821.0,272.0,,,,-1.80939992901293,-2.9786768433379,-1.19050341557405,,-8.486590850701916,,
,6950.0,1703.0,11012.0,1859.0,1256.0,3835.0,258.0,,,,-1.81187678223144,-2.97858612268148,-1.19099733046543,,-8.491197814708629,,
,6952.0,1702.0,11009.0,1856.0,1271.0,3819.0,265.0,,,,-1.81348059371435,-2.97867277314679,-1.19216090839505,,-8.473210018817028,,
,6948.0,1702.0,11005.0,1854.0,1234.0,3809.0,282.0,,,,-1.81615327201711,-2.97873536522734,-1.19282690689897,,-8.432226559329997,,
,6945.0,1698.0,11003.0,1855.0,1258.0,3810.0,285.0,,,,-1.8174059454273,-2.97889005420525,-1.19330948383661,,-8.367302503986837,,
,6950.0,1698.0,10999.0,1852.0,1249.0,3794.0,268.0,,,,-1.81695541472378,-2.97905691170805,-1.1932033379671,,-8.277079050343884,,
