TimeLabel,MEAS1_PPG1,MEAS1_PPG2,MEAS1_PPG3,MEAS1_PPG4,ACCX,ACCY,ACCZ,HR_timestamp,HR_value,radar_timestamp,phase_rx0,phase_rx1,phase_rx2,timestep,n_process,original_rate,calculated_rate
2025-07-03 23:24:11,5022.0,3814.0,1149.0,4382.0,,,,2025-07-03 23:24:11,90.0,2025/07/03 11:24:11 PM,0.0887536699550762,-0.851275227313494,0.236887258222564,2025/07/03 11:24:11 PM,-0.3659697605842427,15.706807136535645,17.63125763125763
,5022.0,3813.0,1148.0,4381.0,,,,2025-07-03 23:24:12,90.0,,0.0887643542693446,-0.850381810632873,0.237474762119184,2025/07/03 11:24:21 PM,-0.5170905466039448,21.367521286010746,20.134680134680142
,5023.0,3812.0,1147.0,4379.0,,,,2025-07-03 23:24:13,90.0,,0.0887617316143758,-0.84965070132845,0.237748413686049,2025/07/03 11:24:31 PM,-0.6554909673215411,19.027484893798828,19.404188119951957
,5020.0,3811.0,1148.0,4378.0,,,,2025-07-03 23:24:14,90.0,,0.0887701301935588,-0.848973394237396,0.238369804560587,2025/07/03 11:24:41 PM,-0.7796215712682678,18.828453063964844,16.321942897285368
,5017.0,3809.0,1145.0,4378.0,,,,2025-07-03 23:24:15,90.0,,0.0887730064043096,-0.848809798068977,0.23863872669964,2025/07/03 11:24:51 PM,-0.8882837676461389,18.61908531188965,18.118131868131865
,5015.0,3809.0,1146.0,4374.0,,,,2025-07-03 23:24:16,91.0,,0.0887781666809571,-0.847637427678743,0.238976742695247,2025/07/03 11:25:01 PM,-0.9807412956074126,17.647058486938477,17.490821125532623
,5014.0,3808.0,1146.0,4371.0,,,,2025-07-03 23:24:17,91.0,,0.0887893567013182,-0.847014024174455,0.239494516152411,2025/07/03 11:25:11 PM,-1.0568215737385163,17.505470275878906,17.995285545912328
,5013.0,3805.0,1145.0,4370.0,,,,2025-07-03 23:24:18,91.0,,0.088803027420151,-0.845979693242861,0.239969684420783,2025/07/03 11:25:21 PM,-1.1169934443492346,17.870439529418945,17.498514557338087
,5009.0,3806.0,1143.0,4372.0,,,,2025-07-03 23:24:19,92.0,,0.0888020627511555,-0.845506645205368,0.240545011921941,2025/07/03 11:25:31 PM,-1.1624046200398699,17.738359451293945,18.024891774891774
,5007.0,3804.0,1143.0,4370.0,,,,2025-07-03 23:24:20,92.0,,0.0888148308764196,-0.844925543583942,0.241015999579983,2025/07/03 11:25:41 PM,-1.1948616471423004,17.91044807434082,18.642792769307533
,5008.0,3803.0,1146.0,4368.0,,,,2025-07-03 23:24:21,93.0,,0.0888183684310231,-0.844737707828245,0.241171907190331,2025/07/03 11:25:51 PM,-1.2167390904631847,17.857141494750977,18.551957129543375
,5007.0,3802.0,1143.0,4366.0,,,,2025-07-03 23:24:22,93.0,,0.0888219771881913,-0.844522789152516,0.241279103519018,2025/07/03 11:26:01 PM,-1.2308133499183795,18.004501342773438,20.289408866995057
,5004.0,3801.0,1146.0,4368.0,,,,2025-07-03 23:24:23,93.0,,0.0888190256291832,-0.844161486643962,0.241477017633203,2025/07/03 11:26:11 PM,-1.2400285660870438,19.04090118408203,19.696327683615802
,5002.0,3798.0,1145.0,4366.0,,,,2025-07-03 23:24:24,92.0,,0.0888214910223726,-0.843974397517575,0.241449448043964,2025/07/03 11:26:21 PM,-1.2472144196192323,19.43844413757324,18.292165350988892
,5003.0,3800.0,1146.0,4368.0,,,,2025-07-03 23:24:25,92.0,,0.0888280068842108,-0.844040692667081,0.24143040618982,2025/07/03 11:26:31 PM,-1.2547849811939689,19.28571510314941,17.676767676767643
,5004.0,3798.0,1144.0,4368.0,,,,2025-07-03 23:24:26,92.0,,0.0888333094490246,-0.843648714885588,0.241958817921263,2025/07/03 11:26:41 PM,-1.2644520404824204,18.60785675048828,19.134031841594002
,5002.0,3799.0,1143.0,4369.0,,,,2025-07-03 23:24:27,92.0,,0.0888297475901515,-0.843409977079384,0.242086946325959,2025/07/03 11:26:51 PM,-1.276985326681615,18.264841079711918,19.1304347826087
,5001.0,3799.0,1143.0,4365.0,,,,2025-07-03 23:24:28,93.0,,0.0888299309821527,-0.843570776135176,0.24209607736812,2025/07/03 11:27:01 PM,-1.2920469031181443,18.912528991699215,15.814114791052559
,5002.0,3798.0,1143.0,4366.0,,,,2025-07-03 23:24:29,93.0,,0.0888326428187545,-0.843316777641803,0.242126570748773,,-1.3081193059709908,,
,5001.0,3799.0,1144.0,4367.0,,,,2025-07-03 23:24:30,93.0,,0.0888295103113129,-0.843103971269652,0.242308306321789,,-1.32253788235632,,
,5003.0,3800.0,1144.0,4368.0,,,,2025-07-03 23:24:31,93.0,,0.088830533458236,-0.842982613093868,0.242111835167804,,-1.3316279761757464,,
,4999.0,3799.0,1144.0,4369.0,,,,2025-07-03 23:24:32,92.0,,0.0888367098358622,-0.842656342473572,0.242415181427424,,-1.3309376662643886,,
,5000.0,3797.0,1143.0,4370.0,,,,2025-07-03 23:24:33,92.0,,0.0888384727352683,-0.841970860481593,0.242613006736024,,-1.3155475098749203,,
,5000.0,3797.0,1144.0,4369.0,,,,2025-07-03 23:24:34,92.0,,0.0888452462300535,-0.841576656051058,0.243087835203376,,-1.2804314073497352,,
,5003.0,3800.0,1144.0,4371.0,,,,2025-07-03 23:24:35,91.0,,0.0888476298810012,-0.840961749888304,0.243343372995984,,-1.2208384559349859,,
,4999.0,3797.0,1145.0,4370.0,,,,2025-07-03 23:24:36,91.0,,0.0888532545325612,-0.840867871841433,0.243667677564051,,-1.132664975463359,,
,5003.0,3800.0,1145.0,4372.0,,,,2025-07-03 23:24:37,91.0,,0.0888522496416558,-0.84065508496241,0.243852852668836,,-1.0127883417821253,,
,5001.0,3800.0,1146.0,4373.0,,,,2025-07-03 23:24:38,92.0,,0.0888540172690681,-0.840454885404151,0.243808773534844,,-0.8593389703289676,,
,5002.0,3801.0,1146.0,4372.0,,,,2025-07-03 23:24:39,92.0,,0.0888553427665621,-0.84027215269891,0.243968428335556,,-0.6718929324641115,,
,5004.0,3800.0,1144.0,4376.0,,,,2025-07-03 23:24:40,93.0,,0.0888525407584454,-0.84064109927746,0.243920084817744,,-0.45157462194267434,,
,5003.0,3799.0,1145.0,4374.0,,,,2025-07-03 23:24:41,93.0,,0.0888473307552946,-0.840833507963448,0.243838157636692,,-0.20106599667171648,,
,5006.0,3799.0,1144.0,4374.0,,,,2025-07-03 23:24:42,94.0,,0.0888422556130689,-0.841237632458913,0.243752948825211,,0.07547448548030289,,
,5004.0,3799.0,1144.0,4375.0,,,,2025-07-03 23:24:43,94.0,,0.0888480768709045,-0.841349088975151,0.242907528164115,,0.37257475694043257,,
,5002.0,3801.0,1145.0,4377.0,,,,2025-07-03 23:24:44,93.0,,0.0888416648800543,-0.841032424199296,0.243166215985935,,0.683681876094982,,
,5003.0,3799.0,1145.0,4374.0,,,,2025-07-03 23:24:45,92.0,,0.0888421146537433,-0.841074357453182,0.243509152274723,,1.0014511487451767,,
,5003.0,3799.0,1146.0,4376.0,,,,2025-07-03 23:24:46,91.0,,0.0888478259729889,-0.841105568322914,0.243475988216201,,1.3180779897289987,,
,5002.0,3799.0,1144.0,4377.0,,,,2025-07-03 23:24:47,89.0,,0.0888537882682679,-0.840434247150448,0.243974369064136,,1.6256586130663984,,
,5002.0,3801.0,1146.0,4377.0,,,,2025-07-03 23:24:48,88.0,,0.0888535704410188,-0.8405713277995,0.244194935478031,,1.916564256383871,,
,5003.0,3800.0,1142.0,4376.0,,,,2025-07-03 23:24:49,87.0,,0.0888649719920638,-0.839366522671437,0.244492789913946,,2.183811130144085,,
,5003.0,3798.0,1146.0,4378.0,,,,2025-07-03 23:24:50,88.0,,0.0888722625192591,-0.839240100990695,0.244713590084378,,2.4214053794875383,,
,5003.0,3797.0,1146.0,4375.0,,,,2025-07-03 23:24:51,88.0,,0.0888734099810327,-0.839206076091757,0.244834053963597,,2.6246399900228994,,
,5006.0,3798.0,1145.0,4378.0,,,,2025-07-03 23:24:52,89.0,,0.0888786050533311,-0.838566022541218,0.244880051219798,,2.790319731515784,,
,5000.0,3800.0,1147.0,4376.0,,,,2025-07-03 23:24:53,90.0,,0.0888731001929728,-0.83863182063461,0.245235570079424,,2.916892003929324,,
,5005.0,3799.0,1146.0,4377.0,,,,2025-07-03 23:24:54,91.0,,0.0888707932595641,-0.838309793295182,0.245214400444614,,3.004466804947245,,
,5001.0,3801.0,1145.0,4377.0,,,,2025-07-03 23:24:55,91.0,,0.0888818570628081,-0.837774666799329,0.245787050271943,,3.0547183246208713,,
,5004.0,3798.0,1146.0,4378.0,,,,2025-07-03 23:24:56,91.0,,0.0888884428397902,-0.837939391569735,0.245675854525369,,3.0706732072416916,,
,5001.0,3796.0,1144.0,4375.0,,,,2025-07-03 23:24:57,90.0,,0.0888862393457383,-0.837588637013545,0.245766865778599,,3.0564044579620315,,
,5003.0,3798.0,1148.0,4378.0,,,,2025-07-03 23:24:58,90.0,,0.0888928535996192,-0.836625017548447,0.246114856501963,,3.0166624633220405,,
,5002.0,3797.0,1146.0,4380.0,,,,2025-07-03 23:24:59,90.0,,0.0888964573806467,-0.836441321491026,0.246397822416691,,2.956482514618316,,
,5003.0,3798.0,1146.0,4378.0,,,,2025-07-03 23:25:00,91.0,,0.0888971160222736,-0.836299038986965,0.246513657812089,,2.880809481824558,,
,5001.0,3799.0,1145.0,4381.0,,,,2025-07-03 23:25:01,92.0,,0.0888992332779815,-0.836067631131393,0.246849879753975,,2.7941748092625955,,
,5003.0,3799.0,1147.0,4380.0,,,,2025-07-03 23:25:02,92.0,,0.0889039690350147,-0.835743286174403,0.247027081033854,,2.700450484960483,,
,5004.0,3801.0,1146.0,4381.0,,,,2025-07-03 23:25:03,92.0,,0.0889119410102737,-0.834921584286182,0.247417367144139,,2.6026915240555946,,
,5003.0,3798.0,1146.0,4380.0,,,,2025-07-03 23:25:04,92.0,,0.0889238674975299,-0.834715118707659,0.247462505451254,,2.50306531679463,,
,5004.0,3802.0,1148.0,4383.0,,,,2025-07-03 23:25:05,92.0,,0.0889210735246451,-0.834103929740234,0.247534015589528,,2.40285529021368,,
,5006.0,3800.0,1148.0,4383.0,,,,2025-07-03 23:25:06,92.0,,0.0889231232265785,-0.833973779387533,0.248054348938189,,2.30251964132953,,
,5006.0,3799.0,1147.0,4385.0,,,,2025-07-03 23:25:07,92.0,,0.088929014224991,-0.833607702469319,0.248232846125034,,2.201784371895509,,
,5007.0,3803.0,1146.0,4386.0,,,,2025-07-03 23:25:08,92.0,,0.0889314889646632,-0.833559670171951,0.248526591394854,,2.099753175130996,,
,5006.0,3798.0,1145.0,4385.0,,,,2025-07-03 23:25:09,92.0,,0.0889331730989451,-0.833416578306406,0.24852446925323,,1.9950234519474552,,
,5006.0,3801.0,1147.0,4387.0,,,,2025-07-03 23:25:10,93.0,,0.0889297568317622,-0.833123643758302,0.248497429842371,,1.8858056068176179,,
,5007.0,3801.0,1148.0,4387.0,,,,2025-07-03 23:25:11,93.0,,0.0889314539497022,-0.833064936091834,0.248697106309982,,1.7700491094583424,,
,5008.0,3805.0,1149.0,4388.0,,,,2025-07-03 23:25:12,93.0,,0.0889319849290891,-0.83277311299319,0.248563625449823,,1.6455813295510562,,
,5010.0,3803.0,1149.0,4391.0,,,,2025-07-03 23:25:13,94.0,,0.0889239398621039,-0.832878488892001,0.248709887826637,,1.5102630500156597,,
,5009.0,3804.0,1147.0,4393.0,,,,2025-07-03 23:25:14,94.0,,0.0889214295335644,-0.833394047426808,0.248374891198341,,1.3621588891981107,,
,5009.0,3803.0,1147.0,4390.0,,,,2025-07-03 23:25:15,95.0,,0.0889224075162042,-0.833290378605962,0.248084256878188,,1.1997137947795542,,
,5009.0,3805.0,1148.0,4393.0,,,,2025-07-03 23:25:16,95.0,,0.0889179491281637,-0.833187795620443,0.248245246873782,,1.0219205113523635,,
,5009.0,3803.0,1148.0,4394.0,,,,2025-07-03 23:25:17,95.0,,0.0889351812611817,-0.833040257913776,0.248330272938852,,0.8284591062867339,,
,5011.0,3804.0,1149.0,4395.0,,,,2025-07-03 23:25:18,94.0,,0.0889333282424119,-0.833155296288507,0.248291608223845,,0.6197893540117084,,
,5012.0,3805.0,1149.0,4397.0,,,,2025-07-03 23:25:19,94.0,,0.0889297631177627,-0.833208703621809,0.248309021744757,,0.3971805980664213,,
,5013.0,3803.0,1150.0,4395.0,,,,2025-07-03 23:25:20,94.0,,0.0889303082939056,-0.833074654207356,0.24856454012475,,0.1626714484158981,,
,5011.0,3805.0,1148.0,4397.0,,,,2025-07-03 23:25:21,95.0,,0.0889356909877214,-0.832921998246361,0.24848571994471,,-0.08103787157967547,,
,5013.0,3805.0,1151.0,4398.0,,,,2025-07-03 23:25:22,96.0,,0.0889358484005131,-0.832806967397856,0.24860141257713,,-0.330746790214612,,
,5014.0,3808.0,1150.0,4399.0,,,,2025-07-03 23:25:23,97.0,,0.0889377688484834,-0.832448186561743,0.248729756453424,,-0.5829470874926176,,
,5014.0,3807.0,1150.0,4400.0,,,,2025-07-03 23:25:24,98.0,,0.088935619824794,-0.832383001004261,0.248968475701836,,-0.8340215634861646,,
,5017.0,3809.0,1149.0,4398.0,,,,2025-07-03 23:25:25,99.0,,0.0889378367237657,-0.832397077898179,0.248941916164346,,-1.0804260272240271,,
,5015.0,3810.0,1150.0,4402.0,,,,2025-07-03 23:25:26,99.0,,0.0889457243787256,-0.83250958798892,0.248982553348335,,-1.3188393662199909,,
,5015.0,3805.0,1152.0,4403.0,,,,2025-07-03 23:25:27,99.0,,0.088939768596034,-0.832269273652854,0.249108473828855,,-1.5462752328613278,,
,5016.0,3810.0,1151.0,4403.0,,,,2025-07-03 23:25:28,98.0,,0.0889429624504811,-0.832275066753755,0.249130652288799,,-1.7601559908551696,,
,5016.0,3808.0,1151.0,4404.0,,,,2025-07-03 23:25:29,97.0,,0.0889459003458515,-0.831719494033965,0.249354345705902,,-1.9583537268284366,,
,5017.0,3811.0,1150.0,4401.0,,,,2025-07-03 23:25:30,96.0,,0.0889480981937158,-0.831763768171496,0.249470737639362,,-2.1392050184214515,,
,5016.0,3808.0,1152.0,4402.0,,,,2025-07-03 23:25:31,95.0,,0.0889493362891223,-0.831459752337418,0.249602792963613,,-2.301507156404463,,
,5015.0,3806.0,1151.0,4398.0,,,,2025-07-03 23:25:32,94.0,,0.0889476013119531,-0.83132194967371,0.249802550909495,,-2.444504258440929,,
,5016.0,3804.0,1149.0,4397.0,,,,2025-07-03 23:25:33,94.0,,0.0889509555059597,-0.830919490650401,0.249964569882097,,-2.567871551997372,,
,5013.0,3804.0,1150.0,4394.0,,,,2025-07-03 23:25:34,94.0,,0.0889592350372432,-0.830808075637646,0.250157525017387,,-2.67170396360663,,
,5009.0,3802.0,1149.0,4391.0,,,,2025-07-03 23:25:35,94.0,,0.0889628382316589,-0.830497406115377,0.250277934222878,,-2.7565106855833434,,
,5009.0,3800.0,1150.0,4391.0,,,,2025-07-03 23:25:36,94.0,,0.0889608958757577,-0.830144036274977,0.250298673787399,,-2.823211600755894,,
,5007.0,3797.0,1148.0,4387.0,,,,2025-07-03 23:25:37,94.0,,0.0889711633415908,-0.829786731562076,0.250600892324097,,-2.873126337396988,,
,5006.0,3798.0,1147.0,4388.0,,,,2025-07-03 23:25:38,93.0,,0.0889711609427528,-0.829542023479477,0.250307019524084,,-2.907944239844682,,
,5004.0,3795.0,1147.0,4386.0,,,,2025-07-03 23:25:39,93.0,,0.0889685897680971,-0.829369361236275,0.250936474404023,,-2.929664493419569,,
,5000.0,3795.0,1149.0,4383.0,,,,2025-07-03 23:25:40,93.0,,0.088966781985073,-0.829325039906751,0.250764137813464,,-2.9404994974639607,,
,4999.0,3793.0,1146.0,4383.0,,,,2025-07-03 23:25:41,93.0,,0.0889671881264309,-0.829359927190856,0.250909483095973,,-2.942740111170016,,
,4997.0,3794.0,1147.0,4380.0,,,,2025-07-03 23:25:42,93.0,,0.0889712767261107,-0.829359455414909,0.250624830706459,,-2.938587507287486,,
,4998.0,3791.0,1147.0,4381.0,,,,2025-07-03 23:25:43,93.0,,0.088967966845265,-0.829169548716035,0.250842856784367,,-2.9299623583888246,,
,4995.0,3791.0,1147.0,4380.0,,,,2025-07-03 23:25:44,93.0,,0.0889727781230556,-0.829118963269848,0.250681625549605,,-2.9183073901078824,,
,4991.0,3789.0,1148.0,4382.0,,,,2025-07-03 23:25:45,93.0,,0.0889758074407519,-0.829130615846028,0.250746755055487,,-2.904403275484164,,
,4992.0,3791.0,1146.0,4378.0,,,,2025-07-03 23:25:46,93.0,,0.0889734457633057,-0.829302939622606,0.250691655404662,,-2.8882196141774483,,
,4991.0,3787.0,1144.0,4378.0,,,,2025-07-03 23:25:47,93.0,,0.0889760251931908,-0.829446713027547,0.25096392866169,,-2.8688216571295224,,
,4992.0,3786.0,1145.0,4378.0,,,,2025-07-03 23:25:48,93.0,,0.0889692385829781,-0.829664612243333,0.250898434937998,,-2.844349178471753,,
,4992.0,3787.0,1146.0,4379.0,,,,2025-07-03 23:25:49,93.0,,0.0889597037123475,-0.829696114083739,0.250641168897733,,-2.8120767152034265,,
,4990.0,3787.0,1146.0,4379.0,,,,2025-07-03 23:25:50,94.0,,0.0889655021925873,-0.830194060642591,0.250089229889109,,-2.7685553012307675,,
,4989.0,3787.0,1147.0,4378.0,,,,2025-07-03 23:25:51,94.0,,0.0889468600673905,-0.83067247857358,0.250049533128259,,-2.7098265394636094,,
,4989.0,3785.0,1145.0,4378.0,,,,2025-07-03 23:25:52,94.0,,0.0889557801426188,-0.831234203621132,0.249882677390464,,-2.631692297078653,,
,4989.0,3785.0,1147.0,4377.0,,,,2025-07-03 23:25:53,94.0,,0.0889471646775967,-0.831347204953731,0.249482190312279,,-2.530018738987239,,
,4989.0,3786.0,1144.0,4379.0,,,,2025-07-03 23:25:54,95.0,,0.088954088411786,-0.831932508968102,0.249332241763534,,-2.401051969274725,,
,4988.0,3786.0,1143.0,4379.0,,,,2025-07-03 23:25:55,95.0,,0.088946981647438,-0.832054856772932,0.24908110140201,,-2.2417234926474556,,
,4988.0,3784.0,1145.0,4378.0,0.0,1075.0,,2025-07-03 23:25:56,95.0,,0.0889432922875837,-0.832548589702308,0.248934705156446,,-2.0499260230389984,,
,4990.0,3786.0,1144.0,4380.0,,,,2025-07-03 23:25:57,95.0,,0.0889450899376509,-0.832712333765016,0.248781086573156,,-1.8247430106144074,,
,4990.0,3784.0,1146.0,4377.0,,,,2025-07-03 23:25:58,96.0,,0.0889399057894104,-0.832471564327818,0.248758053455114,,-1.5666182043290653,,
,4989.0,3786.0,1146.0,4379.0,,,,2025-07-03 23:25:59,96.0,,0.0889392693096821,-0.832768644967306,0.248680833404491,,-1.277454667669576,,
,4988.0,3783.0,1144.0,4379.0,,,,2025-07-03 23:26:00,96.0,,0.0889414094022412,-0.832868506701849,0.248589503174617,,-0.9606361729216669,,
,4991.0,3787.0,1146.0,4381.0,,,,2025-07-03 23:26:01,96.0,,0.088933906977311,-0.833130985456277,0.24857894198034,,-0.6209677611832473,,
,4990.0,3785.0,1144.0,4381.0,,,,2025-07-03 23:26:02,96.0,,0.088930293802166,-0.833435174752774,0.248422763215033,,-0.2645359839245177,,
,4989.0,3784.0,1144.0,4383.0,,,,2025-07-03 23:26:03,95.0,,0.0889197278651424,-0.834127452579081,0.24791445895449,,0.10150743172301203,,
,4989.0,3783.0,1148.0,4380.0,,,,2025-07-03 23:26:04,94.0,,0.0889147376919984,-0.834860933217936,0.247366459620699,,0.469231681848016,,
,4987.0,3784.0,1147.0,4382.0,,,,2025-07-03 23:26:05,94.0,,0.0889067510467529,-0.835410559038814,0.246955087244731,,0.8302721588568522,,
,4992.0,3784.0,1146.0,4384.0,,,,2025-07-03 23:26:06,93.0,,0.0889071618247703,-0.835603030707373,0.246724846146273,,1.1762193071150595,,
,4989.0,3785.0,1145.0,4384.0,,,,2025-07-03 23:26:07,92.0,,0.0889033465677018,-0.835726933666425,0.246945407168555,,1.4990296892952502,,
,4988.0,3784.0,1145.0,4381.0,,,,2025-07-03 23:26:08,92.0,,0.0888958994792159,-0.835334647323439,0.246881435797543,,1.791432552563572,,
,4990.0,3783.0,1145.0,4382.0,,,,2025-07-03 23:26:09,92.0,,0.0888971420131098,-0.836126048414603,0.24670825227027,,2.047301663422452,,
,4990.0,3782.0,1145.0,4382.0,,,,2025-07-03 23:26:10,93.0,,0.0888996123826299,-0.83591867356171,0.24652628300557,,2.2619615889181786,,
,4991.0,3783.0,1144.0,4381.0,,,,2025-07-03 23:26:11,93.0,,0.0888982166563272,-0.836293202730671,0.246444291832462,,2.432400654187871,,
,4989.0,3780.0,1146.0,4383.0,,,,2025-07-03 23:26:12,93.0,,0.0888957978175781,-0.83622518273098,0.246337655643269,,2.5573697124811368,,
,4987.0,3782.0,1142.0,4382.0,,,,2025-07-03 23:26:13,93.0,,0.0888877546237848,-0.836854889447213,0.24645820106576,,2.637356189741235,,
,4991.0,3781.0,1145.0,4382.0,,,,2025-07-03 23:26:14,93.0,,0.0888901816132608,-0.836941653479317,0.246481018068408,,2.6744355567534748,,
,4989.0,3780.0,1147.0,4384.0,,,,2025-07-03 23:26:15,93.0,,0.0888961743480524,-0.837273422369324,0.246265734974264,,2.6720159223556954,,
,4989.0,3782.0,1145.0,4381.0,,,,2025-07-03 23:26:16,93.0,,0.0888892565264586,-0.837402012187719,0.246151081538643,,2.6345038825210034,,
,4990.0,3779.0,1146.0,4380.0,,,,2025-07-03 23:26:17,93.0,,0.0888925262961551,-0.837269104732346,0.245897130167028,,2.5669287331083672,,
,4988.0,3779.0,1146.0,4382.0,,,,2025-07-03 23:26:18,92.0,,0.0888881382323278,-0.83737968397266,0.245821849238992,,2.474565451605914,,
2025-07-03 23:24:12,4991.0,3783.0,1144.0,4383.0,,,,2025-07-03 23:26:19,92.0,2025/07/03 11:24:12 PM,0.0888930312467679,-0.837441877571466,0.245826220890359,,2.362593578242514,,
,4987.0,3780.0,1145.0,4385.0,,,,2025-07-03 23:26:20,92.0,,0.0888909239024932,-0.83751741026181,0.245830463888288,,2.235820331041418,,
,4991.0,3783.0,1145.0,4384.0,,,,2025-07-03 23:26:21,92.0,,0.0888907615097534,-0.837114038011901,0.245928039251055,,2.0984843533551625,,
,4990.0,3782.0,1148.0,4384.0,,,,2025-07-03 23:26:22,91.0,,0.0888902101452226,-0.837104747154708,0.245976013372841,,1.9541439512981535,,
,4993.0,3783.0,1147.0,4385.0,,,,2025-07-03 23:26:23,91.0,,0.088890354211499,-0.837278417842201,0.24602386342889,,1.8056425626734043,,
,4990.0,3782.0,1146.0,4384.0,,,,2025-07-03 23:26:24,91.0,,0.088892216906607,-0.836886112154772,0.246325338674526,,1.6551359810607642,,
,4993.0,3780.0,1147.0,4385.0,,,,2025-07-03 23:26:25,92.0,,0.0888893222553139,-0.83720857643336,0.246096303418437,,1.504161466645329,,
,4992.0,3780.0,1145.0,4385.0,,,,2025-07-03 23:26:26,92.0,,0.0888931513439477,-0.837385500299095,0.246083426982627,,1.3537285657480675,,
,4991.0,3782.0,1145.0,4386.0,,,,2025-07-03 23:26:27,92.0,,0.0888897205407876,-0.837306818851551,0.245824977566883,,1.2044147691429634,,
,4991.0,3781.0,1147.0,4387.0,,,,2025-07-03 23:26:28,92.0,,0.0888872604329671,-0.837518005083515,0.246003923672308,,1.0564549698458658,,
,4995.0,3783.0,1147.0,4390.0,,,,2025-07-03 23:26:29,93.0,,0.0888865675528479,-0.837638958795821,0.2456014498342,,0.9098203719641944,,
,4994.0,3782.0,1148.0,4390.0,,,,2025-07-03 23:26:30,92.0,,0.0888830766031779,-0.838003875253726,0.245849817073073,,0.7642880324407972,,
,4995.0,3785.0,1147.0,4390.0,,,,2025-07-03 23:26:31,92.0,,0.0888800912356798,-0.838488913701686,0.245410938724554,,0.619504953706039,,
,4996.0,3784.0,1149.0,4390.0,,,,2025-07-03 23:26:32,92.0,,0.0888742591444851,-0.83861851781159,0.24526114363221,,0.47505026065762307,,
,4995.0,3782.0,1148.0,4391.0,,,,2025-07-03 23:26:33,91.0,,0.0888683843883707,-0.838981299139104,0.244964810121358,,0.33049656657682513,,
,4995.0,3784.0,1147.0,4393.0,,,,2025-07-03 23:26:34,91.0,,0.0888616036306352,-0.839735556047292,0.24474586688326,,0.18546874339076874,,
,4996.0,3784.0,1148.0,4397.0,,,,2025-07-03 23:26:35,91.0,,0.088862244864235,-0.839799724161448,0.244193518912936,,0.03969612502554404,,
,4996.0,3785.0,1149.0,4394.0,,,,2025-07-03 23:26:36,91.0,,0.0888576536309826,-0.840336297632553,0.244068687675802,,-0.10694678759946633,,
,4999.0,3786.0,1148.0,4393.0,,,,2025-07-03 23:26:37,92.0,,0.088854862556407,-0.840759760266112,0.244225363580532,,-0.2544156461639688,,
,4997.0,3785.0,1148.0,4395.0,,,,2025-07-03 23:26:38,93.0,,0.0888511991462078,-0.840800648320416,0.243903443513395,,-0.4024904056130151,,
,5000.0,3787.0,1149.0,4396.0,,,,2025-07-03 23:26:39,93.0,,0.0888536811661396,-0.841128784260393,0.243604585027704,,-0.5507882853946339,,
,4999.0,3787.0,1150.0,4397.0,,,,2025-07-03 23:26:40,93.0,,0.0888490577270594,-0.842164341430306,0.243365354139761,,-0.698791941533682,,
,4999.0,3786.0,1150.0,4400.0,,,,2025-07-03 23:26:41,93.0,,0.0888400477124892,-0.841878958599542,0.242897455076893,,-0.8458854596420415,,
,5001.0,3787.0,1150.0,4398.0,,,,2025-07-03 23:26:42,93.0,,0.0888302422059568,-0.842518090893506,0.242689470728681,,-0.9913876369768421,,
,5005.0,3787.0,1148.0,4400.0,,,,2025-07-03 23:26:43,93.0,,0.0888314399918921,-0.843049499114914,0.242471703711158,,-1.1345706909425972,,
,5004.0,3787.0,1150.0,4401.0,,,,2025-07-03 23:26:44,93.0,,0.0888212976000226,-0.844407091009605,0.242085805276766,,-1.2746540104404347,,
,5005.0,3789.0,1149.0,4401.0,,,,2025-07-03 23:26:45,93.0,,0.0888262283227613,-0.844546554180498,0.241440800721203,,-1.4107670012267213,,
,5004.0,3787.0,1150.0,4404.0,,,,2025-07-03 23:26:46,93.0,,0.0888199055934,-0.844798320413778,0.241331910231566,,-1.5418815706595734,,
,5004.0,3787.0,1150.0,4403.0,,,,2025-07-03 23:26:47,93.0,,0.0888143397234888,-0.845207073283577,0.241122989408502,,-1.6667219194633809,,
,5007.0,3790.0,1152.0,4405.0,,,,2025-07-03 23:26:48,94.0,,0.0888122084277344,-0.845868178382834,0.240853433985381,,-1.7836656754016231,,
,5003.0,3791.0,1150.0,4404.0,,,,2025-07-03 23:26:49,94.0,,0.0888086136817424,-0.846282933750091,0.240526630569249,,-1.8906548746762755,,
,5007.0,3790.0,1150.0,4406.0,,,,2025-07-03 23:26:50,95.0,,0.0888017811691898,-0.846673752250976,0.240186209785332,,-1.9851369850852092,,
,5007.0,3789.0,1149.0,4405.0,,,,2025-07-03 23:26:51,96.0,,0.0888021837458617,-0.846649214964264,0.240053734131598,,-2.06405456851266,,
,5008.0,3790.0,1149.0,4406.0,,,,2025-07-03 23:26:52,95.0,,0.0887936138333488,-0.8470528351144,0.239906572290825,,-2.1238973450294143,,
,5005.0,3788.0,1151.0,4402.0,,,,2025-07-03 23:26:53,95.0,,0.0887926417959679,-0.847522381558281,0.239676921631451,,-2.1608229361844264,,
,5004.0,3787.0,1151.0,4401.0,,,,2025-07-03 23:26:54,95.0,,0.0887901167331551,-0.847876712223834,0.239411076774932,,-2.1708434400370824,,
,5004.0,3784.0,1150.0,4399.0,,,,2025-07-03 23:26:55,94.0,,0.088785538325665,-0.847869886249321,0.239441958466613,,-2.1500655941072515,,
,5004.0,3784.0,1148.0,4395.0,,,,2025-07-03 23:26:56,94.0,,0.0887841466872996,-0.848078616224053,0.239159040896667,,-2.0949642738157657,,
,4999.0,3784.0,1148.0,4395.0,,,,2025-07-03 23:26:57,94.0,,0.0887848031035418,-0.847897992549176,0.239281443616046,,-2.002664034301807,,
,5001.0,3781.0,1148.0,4394.0,,,,2025-07-03 23:26:58,94.0,,0.0887897525447116,-0.847802688397423,0.239264190564339,,-1.8712022241378483,,
,4998.0,3778.0,1147.0,4391.0,,,,2025-07-03 23:26:59,95.0,,0.0887820580431361,-0.848101878334577,0.239044921180132,,-1.6997497383997058,,
,4996.0,3779.0,1145.0,4387.0,,,,2025-07-03 23:27:00,95.0,,0.088788760495665,-0.848337416351275,0.238952926536349,,-1.4887707955126455,,
,4992.0,3775.0,1145.0,4387.0,,,,2025-07-03 23:27:01,95.0,,0.0887850615327071,-0.848504585369336,0.238790046023007,,-1.2401100080195118,,
,4991.0,3773.0,1146.0,4385.0,,,,2025-07-03 23:27:02,94.0,,0.0887811720305787,-0.848739134944156,0.238601066033415,,-0.9570023652990266,,
,4991.0,3771.0,1146.0,4382.0,,,,2025-07-03 23:27:03,93.0,,0.0887783028102526,-0.849199408027026,0.238549928115786,,-0.644008650354063,,
,4988.0,3771.0,1144.0,4380.0,,,,2025-07-03 23:27:04,92.0,,0.0887776358185285,-0.849458287070169,0.238483804412163,,-0.30688455110554297,,
,4988.0,3769.0,1144.0,4380.0,,,,2025-07-03 23:27:05,92.0,,0.08877905645576,-0.849424124024233,0.238317909887878,,0.04760427919980232,,
,4985.0,3768.0,1145.0,4379.0,,,,2025-07-03 23:27:06,92.0,,0.0887738960943128,-0.849641108374296,0.238180900648715,,0.4119072020916735,,
,4983.0,3767.0,1145.0,4379.0,,,,2025-07-03 23:27:07,92.0,,0.0887703579018733,-0.849772275531532,0.238320946616078,,0.7779403923804219,,
,4983.0,3768.0,1143.0,4376.0,,,,2025-07-03 23:27:08,92.0,,0.0887706131489943,-0.850095392492814,0.238010612207293,,1.1373552271819407,,
,4983.0,3768.0,1145.0,4379.0,,,,2025-07-03 23:27:09,92.0,,0.0887648038449042,-0.850118476146371,0.237688044289468,,1.4818168533246585,,
,4981.0,3765.0,1143.0,4376.0,,,,2025-07-03 23:27:10,91.0,,0.0887687715558174,-0.850512640934763,0.237755633505154,,1.803289141596622,,
,4982.0,3764.0,1145.0,4374.0,,,,,,,0.0887677316302377,-0.850479140946421,0.237859713196017,,2.09432215823167,,
,4980.0,3763.0,1145.0,4378.0,,,,,,,0.0887607267605449,-0.851331864983575,0.23723609467674,,2.348335297248918,,
,4980.0,3763.0,1145.0,4375.0,,,,,,,0.0887604656380162,-0.85098044876769,0.237263456736696,,2.559884240581748,,
,4981.0,3763.0,1142.0,4377.0,,,,,,,0.0887598054639895,-0.851470009669101,0.236971227496117,,2.7248944847868914,,
,4980.0,3765.0,1143.0,4380.0,,,,,,,0.0887597108252446,-0.851266331839447,0.237220083967034,,2.8408401602107674,,
,4981.0,3765.0,1142.0,4377.0,,,,,,,0.0887594767027966,-0.851370426616602,0.236964084554317,,2.9068461655101046,,
,4980.0,3763.0,1146.0,4374.0,,,,,,,0.0887557632154753,-0.851860037245526,0.236658677705169,,2.9236955895886294,,
,4979.0,3764.0,1142.0,4376.0,,,,,,,0.0887591523172179,-0.851619968442079,0.237061184445567,,2.8937332000292,,
,4979.0,3762.0,1142.0,4377.0,,,,,,,0.0887514120948905,-0.851491521452242,0.236789107843287,,2.8206682827202743,,
,4981.0,3761.0,1141.0,4377.0,,,,,,,0.0887549952435467,-0.85163340266115,0.23686799803727,,2.7092938916891787,,
,4980.0,3762.0,1142.0,4378.0,,,,,,,0.0887425220750794,-0.851966158592832,0.236448716242619,,2.5651513004239055,,
,4980.0,3761.0,1145.0,4380.0,,,,,,,0.0887379312848922,-0.85275327444519,0.236193041505875,,2.394174949689319,,
,4982.0,3762.0,1143.0,4379.0,,,,,,,0.0887334036513119,-0.853517781012506,0.235556187862989,,2.202352875487214,,
,4982.0,3763.0,1143.0,4378.0,,,,,,,0.0887263150397542,-0.854045511703124,0.235240282611147,,1.9954312664816463,,
,4981.0,3764.0,1146.0,4381.0,,,,,,,0.0887164024548846,-0.854844851313545,0.234661413948933,,1.7786818740942443,,
,4982.0,3764.0,1143.0,4379.0,,,,,,,0.0887183673682,-0.855398267080814,0.234274366341358,,1.5567400953015822,,
,4981.0,3762.0,1143.0,4380.0,,,,,,,0.0887102653621667,-0.855788364254442,0.233852800761792,,1.3335116184795057,,
,4983.0,3762.0,1142.0,4376.0,,,,,,,0.0887048381849502,-0.856227293472015,0.233529311750021,,1.112137863781188,,
,4982.0,3763.0,1144.0,4380.0,,,,,,,0.0887009574501495,-0.856818133566077,0.233604080124241,,0.8950059313678339,,
,4984.0,3763.0,1142.0,4378.0,,,,,,,0.0886985204659572,-0.856559079514319,0.233319773932853,,0.6837878180955029,,
,4982.0,3761.0,1144.0,4379.0,,,,,,,0.088701408003426,-0.857096541663799,0.233359279167042,,0.4794961105370283,,
,4981.0,3761.0,1143.0,4378.0,,,,,,,0.0887021680660229,-0.856838379269671,0.233355419143965,,0.2825483966980718,,
,4982.0,3764.0,1145.0,4379.0,,,,,,,0.0887055848455087,-0.856907620074992,0.233322196583206,,0.09283880435341213,,
,4983.0,3761.0,1144.0,4379.0,,,,,,,0.0887008485656524,-0.856968144849805,0.233290648414805,,-0.09017955883645902,,
,4983.0,3762.0,1145.0,4377.0,,,,,,,0.0887002116114454,-0.857223658624703,0.232866704638105,,-0.2673946844755441,,
,4981.0,3762.0,1144.0,4378.0,,,,,,,0.0886941568289619,-0.857624083237659,0.233105154192919,,-0.4399122054880274,,
,4982.0,3758.0,1144.0,4376.0,,,,,,,0.0886967153776293,-0.857784467854588,0.233100011898181,,-0.6089057327847286,,
,4980.0,3762.0,1146.0,4378.0,,,,,,,0.0886939718045191,-0.858348529228913,0.232471254528023,,-0.7754434546952971,,
,4982.0,3760.0,1145.0,4376.0,,,,,,,0.0886899878014971,-0.858378541855268,0.232205085870917,,-0.9402992132928785,,
,4981.0,3759.0,1142.0,4378.0,,,,,,,0.088689049914338,-0.858977794076364,0.232034553330939,,-1.1037616403739705,,
,4980.0,3760.0,1144.0,4377.0,,,,,,,0.0886810797737052,-0.859057222570846,0.232072019898847,,-1.2654590057516284,,
,4981.0,3760.0,1143.0,4379.0,,,,,,,0.0886810623263627,-0.859135085069364,0.231660502244628,,-1.424219374053211,,
,4981.0,3762.0,1143.0,4379.0,,,,,,,0.0886823428493189,-0.859120202555932,0.231773077167393,,-1.577984923295426,,
,4983.0,3761.0,1143.0,4378.0,,,,,,,0.0886881397886851,-0.858459166742926,0.232313195497588,,-1.723795684163044,,
,4982.0,3760.0,1143.0,4381.0,,,,,,,0.0886880369523105,-0.857769721348227,0.232565493893765,,-1.857851784725641,,
,4983.0,3761.0,1145.0,4382.0,,,,,,,0.0886914191355681,-0.858064161580178,0.232806470364207,,-1.975655313457882,,
,4984.0,3759.0,1145.0,4381.0,,,,,,,0.0886910674989211,-0.857862479417446,0.232887746134253,,-2.072224463624888,,
,4985.0,3761.0,1146.0,4381.0,,,,,,,0.0886907884032641,-0.857711994963929,0.232954578417345,,-2.142365230697012,,
,4986.0,3763.0,1145.0,4383.0,,,,,,,0.0886874092015626,-0.857665723339655,0.232867532921734,,-2.1809807364938556,,
,4985.0,3762.0,1144.0,4384.0,,,,,,,0.0886943656761938,-0.857884895113259,0.232753951457575,,-2.1833956379284643,,
,4985.0,3764.0,1146.0,4383.0,,,,,,,0.0886923039120988,-0.858330935945645,0.232554005407504,,-2.1456728881980176,,
,4987.0,3761.0,1146.0,4386.0,,,,,,,0.088686161849662,-0.858866863401097,0.232401335021604,,-2.064901965315827,,
,4989.0,3763.0,1148.0,4384.0,,,,,,,0.0886809242765134,-0.858876380465897,0.232194312861094,,-1.9394410056154652,,
,4987.0,3764.0,1144.0,4386.0,,,,,,,0.0886823126307823,-0.859364801476804,0.231854306751029,,-1.7690993570963522,,
,4988.0,3764.0,1145.0,4387.0,,,,,,,0.0886747543013753,-0.85954410227474,0.231511754360049,,-1.5552512265843688,,
,4990.0,3765.0,1145.0,4387.0,,,,,,,0.0886711939522831,-0.859889117220433,0.231232434625984,,-1.300874966309245,,
,4989.0,3766.0,1145.0,4388.0,,,,,,,0.0886713978616485,-0.860230485557139,0.230809859791422,,-1.0105160878006918,,
,4991.0,3763.0,1145.0,4389.0,,,,,,,0.0886662422457383,-0.86076257983079,0.230416289378961,,-0.6901753522948147,,
,4990.0,3767.0,1145.0,4392.0,,,,,,,0.0886668879578735,-0.860813823358427,0.230552332019056,,-0.34712619244017,,
,4990.0,3765.0,1148.0,4391.0,,,,,,,0.0886632224671257,-0.860878698090319,0.230591882943183,,0.010331841967572388,,
,4991.0,3766.0,1147.0,4390.0,,,,,,,0.0886660147733815,-0.861404027047383,0.230433158700986,,0.37317487343684014,,
,4991.0,3766.0,1146.0,4389.0,,,,,,,0.0886657182166797,-0.861573643401654,0.230259658428786,,0.7320010191436941,,
,4991.0,3767.0,1148.0,4392.0,,,,,,,0.0886687844158219,-0.86122086061182,0.230296350682535,,1.0774082897592416,,
,4994.0,3767.0,1146.0,4392.0,0.0,2096.0,,,,,0.0886639999390106,-0.861313900867112,0.230253122854511,,1.4003883101921122,,
,4993.0,3767.0,1146.0,4391.0,,,,,,,0.0886669314472057,-0.861244710873178,0.230522206233355,,1.6927168417155685,,
,4997.0,3766.0,1149.0,4395.0,,,,,,,0.0886707309142787,-0.86102694309772,0.230340877118601,,1.947318807858078,,
,4998.0,3770.0,1146.0,4395.0,,,,,,,0.0886680800015427,-0.861031409631672,0.230471131632603,,2.158583004436751,,
,4995.0,3769.0,1147.0,4398.0,,,,,,,0.0886655922563223,-0.861690561211674,0.23041406021141,,2.3226009451743557,,
,5000.0,3770.0,1149.0,4398.0,,,,,,,0.0886632658104228,-0.86120348296813,0.230320802010805,,2.4373065463804187,,
,4998.0,3770.0,1147.0,4396.0,,,,,,,0.0886662154535271,-0.861568702937148,0.229856949110962,,2.502499565137578,,
,5000.0,3770.0,1149.0,4398.0,,,,,,,0.0886665961740881,-0.86118493641363,0.230432388199235,,2.5197461343227,,
,4998.0,3770.0,1149.0,4399.0,,,,,,,0.0886676745770338,-0.861561538359802,0.230259671264134,,2.4921633973244077,,
,5000.0,3772.0,1149.0,4399.0,,,,,,,0.0886601657725669,-0.861604622398051,0.229909162030001,,2.4241096676894127,,
,4999.0,3771.0,1149.0,4398.0,,,,,,,0.0886686760308594,-0.861673860159196,0.230127370990193,,2.3208133667836144,,
,5001.0,3770.0,1147.0,4396.0,,,,,,,0.0886611071394899,-0.861662902999373,0.23022883079368,,2.1879803604065495,,
,4998.0,3770.0,1148.0,4395.0,,,,,,,0.0886585475604399,-0.861535290405621,0.229866223479705,,2.0314190687860174,,
,4997.0,3772.0,1147.0,4395.0,,,,,,,0.0886554987250924,-0.861839898094073,0.229647696052765,,1.856716592342215,,
,4997.0,3768.0,1147.0,4393.0,,,,,,,0.0886601710219042,-0.861872228769445,0.229682019255836,,1.668988945093927,,
,4995.0,3763.0,1146.0,4389.0,,,,,,,0.0886617810904565,-0.861725849830032,0.229696832712637,,1.4727164716268946,,
,4993.0,3763.0,1146.0,4387.0,,,,,,,0.0886582856198619,-0.861771278839858,0.229741144592178,,1.2716636502809273,,
,4990.0,3765.0,1144.0,4384.0,,,,,,,0.0886596497628092,-0.861817357328342,0.229476305446501,,1.068872491189047,,
,4988.0,3761.0,1144.0,4384.0,,,,,,,0.08865871173207,-0.862500748929771,0.229571636413515,,0.8667119536576036,,
,4989.0,3758.0,1143.0,4379.0,,,,,,,0.0886561576423977,-0.86237285019778,0.229390609350312,,0.6669629751999212,,
,4987.0,3757.0,1143.0,4378.0,,,,,,,0.088653509751301,-0.86260092399931,0.229419452932065,,0.4709198393186262,,
,4981.0,3755.0,1143.0,4376.0,,,,,,,0.0886560803559375,-0.862633767913465,0.229518195998854,,0.2794928655657365,,
,4982.0,3753.0,1145.0,4376.0,,,,,,,0.0886509491203098,-0.86274353651855,0.229494751763746,,0.09330306075702101,,
2025-07-03 23:24:13,4982.0,3750.0,1142.0,4373.0,,,,,,2025/07/03 11:24:13 PM,0.0886511608427511,-0.862780392970592,0.229091699996725,,-0.08723563563749152,,
,4978.0,3752.0,1143.0,4373.0,,,,,,,0.0886523523888815,-0.862893150952812,0.228948296676423,,-0.26184787169408924,,
,4978.0,3752.0,1143.0,4370.0,,,,,,,0.0886508831970789,-0.862765130838544,0.22928076133795,,-0.43034247975997353,,
,4979.0,3752.0,1143.0,4371.0,,,,,,,0.0886478573993657,-0.862723887924115,0.229063251664587,,-0.5925724928581598,,
,4978.0,3752.0,1143.0,4372.0,,,,,,,0.0886501284063509,-0.862883271627794,0.229020434463891,,-0.7484102218573906,,
,4975.0,3749.0,1143.0,4371.0,,,,,,,0.0886444821823462,-0.862972100777265,0.229016464412062,,-0.8977381613395642,,
,4973.0,3748.0,1140.0,4371.0,,,,,,,0.088638439247042,-0.863144491715208,0.228825122290261,,-1.0404561686027454,,
,4976.0,3749.0,1143.0,4370.0,,,,,,,0.0886444247095996,-0.863064389951541,0.229034041360644,,-1.176504320565389,,
,4974.0,3748.0,1139.0,4371.0,,,,,,,0.0886425895880027,-0.862833848525239,0.228977532978459,,-1.3058989266521188,,
,4972.0,3749.0,1143.0,4371.0,,,,,,,0.0886517527756447,-0.863042991281501,0.228932782257181,,-1.428776357836674,,
,4973.0,3748.0,1142.0,4372.0,,,,,,,0.0886504754839306,-0.862901558724247,0.229111120348353,,-1.5454358672092379,,
,4974.0,3750.0,1141.0,4371.0,,,,,,,0.0886557613779534,-0.862807147170368,0.228927927448195,,-1.656369098220665,,
,4973.0,3751.0,1143.0,4369.0,,,,,,,0.0886527710109409,-0.8627373135845,0.229307856377825,,-1.7622618112559334,,
,4972.0,3750.0,1141.0,4369.0,,,,,,,0.0886513730380332,-0.862568694510006,0.22924907735269,,-1.8639541397451527,,
,4974.0,3749.0,1142.0,4370.0,,,,,,,0.0886544267202357,-0.863138889957306,0.228900051418854,,-1.9623504786526944,,
,4973.0,3750.0,1143.0,4373.0,,,,,,,0.0886414710512289,-0.864060249313437,0.228579364485793,,-2.0582785682442166,,
,4974.0,3750.0,1140.0,4374.0,,,,,,,0.0886334412161335,-0.864559180760672,0.227883829674144,,-2.152307712064969,,
,4976.0,3750.0,1141.0,4371.0,,,,,,,0.0886196320927614,-0.865252021252775,0.227409046451208,,-2.2445460269093185,,
,4975.0,3748.0,1142.0,4374.0,,,,,,,0.0886139707689256,-0.866124376550703,0.22672149607371,,-2.334444093704352,,
,4975.0,3749.0,1141.0,4373.0,,,,,,,0.0886070169251198,-0.866891622712104,0.22602554279847,,-2.4206358648252553,,
,4973.0,3749.0,1141.0,4372.0,,,,,,,0.0886022575730727,-0.867324589325987,0.225585559669401,,-2.500846315666559,,
,4975.0,3749.0,1139.0,4373.0,,,,,,,0.0886040197015665,-0.867875773548067,0.225331088873841,,-2.5718890574379927,,
,4976.0,3749.0,1142.0,4371.0,,,,,,,0.0885926783329373,-0.867665028549304,0.225438686769226,,-2.629766886216549,,
,4975.0,3750.0,1140.0,4371.0,,,,,,,0.088598990957272,-0.867391520902347,0.225320748978395,,-2.6698756707142546,,
,4975.0,3748.0,1140.0,4372.0,,,,,,,0.0886051242594748,-0.867198859786716,0.225882101069288,,-2.6872988475757937,,
,4976.0,3749.0,1144.0,4374.0,,,,,,,0.08860738268168,-0.867118315902689,0.225937360489569,,-2.6771676940740714,,
,4975.0,3749.0,1142.0,4369.0,,,,,,,0.0886087690800361,-0.866891053528932,0.226174220248076,,-2.635053065853802,,
,4974.0,3748.0,1143.0,4372.0,,,,,,,0.0886107149175384,-0.866607034014019,0.226629686613286,,-2.557349061611287,,
,4975.0,3749.0,1140.0,4371.0,,,,,,,0.0886156904841372,-0.866112664583451,0.226530677353028,,-2.441609303358639,,
,4974.0,3748.0,1139.0,4370.0,,,,,,,0.0886145814064809,-0.865618458118132,0.226445688698215,,-2.2868022464036444,,
,4972.0,3747.0,1142.0,4371.0,,,,,,,0.088618706045423,-0.86579689349609,0.226645241315805,,-2.0934618999212926,,
,4974.0,3748.0,1141.0,4372.0,,,,,,,0.0886233178211402,-0.865403011682183,0.226619447128818,,-1.863722552554598,,
,4974.0,3747.0,1139.0,4371.0,,,,,,,0.0886163705950166,-0.865570966490483,0.227057198877564,,-1.6012385892752232,,
,4974.0,3749.0,1141.0,4370.0,,,,,,,0.0886126216220898,-0.865677230220972,0.227028573399913,,-1.3110017335775597,,
,4975.0,3748.0,1141.0,4372.0,,,,,,,0.088609894127352,-0.865433510881515,0.226912892213835,,-0.999076970692776,,
,4974.0,3749.0,1142.0,4371.0,,,,,,,0.0886155384032373,-0.865458455518319,0.227397721548015,,-0.6722841927452807,,
,4977.0,3747.0,1138.0,4371.0,,,,,,,0.0886317625532612,-0.864738593159472,0.227525624218838,,-0.33785467034023486,,
,4975.0,3747.0,1143.0,4368.0,,,,,,,0.0886297336792565,-0.864807582162048,0.227778741702046,,-0.0030896152365996556,,
,4974.0,3749.0,1142.0,4372.0,,,,,,,0.0886313961805456,-0.864360413594413,0.227977232059329,,0.32495708647996674,,
,4975.0,3748.0,1140.0,4373.0,,,,,,,0.0886276685372576,-0.864238297656075,0.22794260121821,,0.6397569032219099,,
,4975.0,3750.0,1141.0,4372.0,,,,,,,0.0886340836276456,-0.864101379485902,0.228036656201392,,0.9355370939460007,,
,4974.0,3747.0,1142.0,4374.0,,,,,,,0.0886376225542981,-0.863833131008792,0.228194451002726,,1.2074598981531426,,
,4976.0,3748.0,1144.0,4371.0,,,,,,,0.0886392817730562,-0.864029435247799,0.228053308308049,,1.4517491091712234,,
,4974.0,3748.0,1141.0,4372.0,,,,,,,0.0886339129025577,-0.864386989301176,0.228421383276557,,1.6657632992576914,,
,4976.0,3750.0,1141.0,4373.0,,,,,,,0.0886360803041699,-0.864226652488691,0.228050537157751,,1.848015043092597,,
,4977.0,3749.0,1142.0,4374.0,,,,,,,0.0886268535352443,-0.864444347372441,0.228030924101142,,1.9981357550956322,,
,4976.0,3752.0,1143.0,4376.0,,,,,,,0.0886296662313006,-0.864503767679009,0.227671014288256,,2.1167866486443234,,
,4977.0,3753.0,1143.0,4378.0,,,,,,,0.0886276342842204,-0.864445800497171,0.227543550593605,,2.2055181879935217,,
,4980.0,3751.0,1143.0,4376.0,,,,,,,0.0886267653436145,-0.86500684457844,0.227521862638606,,2.266583494663918,,
,4977.0,3752.0,1143.0,4377.0,,,,,,,0.0886281943332238,-0.86516437259985,0.227005310314461,,2.302715465802302,,
,4978.0,3752.0,1143.0,4380.0,,,,,,,0.0886179653091391,-0.865589282701627,0.226838134065605,,2.3168824213182413,,
,4982.0,3753.0,1143.0,4379.0,,,,,,,0.0886169819175563,-0.866118788755134,0.226691279406401,,2.3120420140871194,,
,4981.0,3752.0,1143.0,4378.0,,,,,,,0.0886164644103192,-0.865756251600918,0.226744783389824,,2.2909165356789982,,
,4981.0,3754.0,1142.0,4380.0,,,,,,,0.0886146685115739,-0.866292722583165,0.226398394102873,,2.2558130235875646,,
,4982.0,3753.0,1143.0,4382.0,,,,,,,0.0886089479677062,-0.866487447404654,0.226355270378961,,2.20850763272654,,
,4981.0,3754.0,1142.0,4381.0,,,,,,,0.0886142473744805,-0.866350173871582,0.226105723341907,,2.1502058374599047,,
,4984.0,3755.0,1143.0,4381.0,,,,,,,0.0886125886778473,-0.866253969396835,0.226364226401702,,2.081579851891018,,
,4984.0,3756.0,1145.0,4383.0,,,,,,,0.0886149755589545,-0.866266631687627,0.226296356269148,,2.0028743590273295,,
,4985.0,3754.0,1144.0,4381.0,,,,,,,0.0886138472195141,-0.866553166469546,0.226363034610171,,1.9140629234046151,,
,4983.0,3758.0,1143.0,4383.0,,,,,,,0.0886183581889797,-0.866663346992591,0.226388914179965,,1.8150313472072992,,
,4986.0,3758.0,1142.0,4382.0,,,,,,,0.0886163324472343,-0.866077109780787,0.226635539028991,,1.7057613335199635,,
,4986.0,3754.0,1146.0,4386.0,,,,,,,0.0886112019127728,-0.86610921366608,0.226441566915137,,1.586488526419896,,
,4985.0,3757.0,1143.0,4388.0,,,,,,,0.0886105464828103,-0.866022233170601,0.226716977873113,,1.457813392056962,,
,4988.0,3756.0,1143.0,4383.0,,,,,,,0.088613696019318,-0.865871676720747,0.226579826944055,,1.3207511222285186,,
,4988.0,3757.0,1144.0,4388.0,,,,,,,0.0886062483530668,-0.866138946847482,0.226574621305799,,1.1767167548397839,,
,4990.0,3757.0,1144.0,4387.0,,,,,,,0.0886079618572134,-0.866437079414738,0.226640977261394,,1.0274521646156558,,
,4991.0,3758.0,1145.0,4388.0,,,,,,,0.0886107272632805,-0.86644435137593,0.226393179425611,,0.8749101429553527,,
,4990.0,3759.0,1144.0,4389.0,,,,,,,0.0886122539815995,-0.866654547804651,0.226302164336237,,0.7211156002807705,,
,4990.0,3758.0,1145.0,4387.0,,,,,,,0.0886086899217516,-0.866797686566584,0.226168746969173,,0.5680244709482627,,
,4989.0,3758.0,1145.0,4387.0,,,,,,,0.0886085759412578,-0.867097272732755,0.22644559324046,,0.41739795883020714,,
,4988.0,3757.0,1144.0,4384.0,,,,,,,0.0886099772286551,-0.866372600886206,0.226447437177705,,0.27070470194449187,,
,4990.0,3757.0,1143.0,4385.0,,,,,,,0.0886126840101174,-0.866535149592832,0.226689444802852,,0.12905762499945098,,
,4987.0,3756.0,1143.0,4381.0,,,,,,,0.0886138987527652,-0.866242397756594,0.22668990780634,,-0.006813166779077726,,
,4985.0,3754.0,1143.0,4377.0,,,,,,,0.0886128974505555,-0.865756915091527,0.226508197970053,,-0.13655429278612802,,
,4984.0,3753.0,1142.0,4376.0,,,,,,,0.088616927986458,-0.866140379805734,0.226853273556794,,-0.26015521300362676,,
,4982.0,3750.0,1142.0,4376.0,,,,,,,0.0886108190241795,-0.865937602571364,0.226718621433845,,-0.3778929266754933,,
,4982.0,3749.0,1140.0,4371.0,,,,,,,0.0886178203372934,-0.865966046796601,0.226981715830792,,-0.49026120103829857,,
,4980.0,3747.0,1139.0,4369.0,,,,,,,0.0886116774190242,-0.866222730565514,0.22680677257846,,-0.5978888234133823,,
,4979.0,3746.0,1141.0,4368.0,,,,,,,0.0886137719478783,-0.866282571120425,0.22652068633513,,-0.7014495174822166,,
,4976.0,3748.0,1140.0,4366.0,,,,,,,0.0886129711038945,-0.866441597033367,0.226505462887988,,-0.8015648328092232,,
,4973.0,3742.0,1143.0,4365.0,,,,,,,0.0886101704903059,-0.866763375282053,0.226523730975219,,-0.8987012749964041,,
,4974.0,3741.0,1135.0,4362.0,,,,,,,0.0886141419678839,-0.866840326555303,0.226324946767687,,-0.9930643037646877,,
,4974.0,3742.0,1138.0,4363.0,,,,,,,0.0886091444814643,-0.867231862161906,0.2259414356918,,-1.0844940714191145,,
,4971.0,3740.0,1137.0,4360.0,,,,,,,0.0886040870774952,-0.867263663979508,0.225733982934965,,-1.1723702378355465,,
,4971.0,3740.0,1137.0,4361.0,,,,,,,0.0885995327090742,-0.867449848291255,0.225893498091182,,-1.2555353621204364,,
,4969.0,3742.0,1138.0,4360.0,,,,,,,0.0885992173628648,-0.867385729684725,0.225964475063371,,-1.3322477862141786,,
,4967.0,3739.0,1139.0,4361.0,,,,,,,0.0886024086250072,-0.867186074452813,0.225770937020135,,-1.4001751188004463,,
,4967.0,3739.0,1136.0,4357.0,,,,,,,0.0886003393549554,-0.867594257932803,0.225561976261834,,-1.4564380016366296,,
,4969.0,3740.0,1137.0,4358.0,,,,,,,0.0885999249976612,-0.86772103379525,0.22563932590917,,-1.497710580477431,,
,4968.0,3740.0,1134.0,4359.0,,,,,,,0.0885986573803519,-0.867843623027101,0.225557638157772,,-1.520379009996682,,
,4966.0,3738.0,1138.0,4359.0,,,,,,,0.0885978108155668,-0.867641800129386,0.225563936502432,,-1.5207527577951723,,
,4967.0,3739.0,1136.0,4361.0,,,,,,,0.0886066750296736,-0.867193305435342,0.226154754937669,,-1.4953163927438133,,
,4967.0,3742.0,1138.0,4362.0,,,,,,,0.0886133574146308,-0.866394460239555,0.226503998220395,,-1.4410033951688497,,
,4967.0,3740.0,1138.0,4359.0,,,,,,,0.0886184772796128,-0.866124533747152,0.226475764479933,,-1.3554696159136213,,
,4968.0,3741.0,1138.0,4360.0,,,,,,,0.088617047518919,-0.866456804963256,0.226318236714577,,-1.2373428700712559,,
,4967.0,3740.0,1136.0,4361.0,,,,,,,0.0886143388866149,-0.866122422638783,0.226487434923373,,-1.0864265415057668,,
,4969.0,3742.0,1138.0,4365.0,,,,,,,0.0886070683438384,-0.866641375046153,0.225931653999346,,-0.9038385113786173,,
,4971.0,3743.0,1136.0,4362.0,,,,,,,0.0886016020859706,-0.867351757401162,0.225694704548728,,-0.6920718955382994,,
,4969.0,3741.0,1137.0,4363.0,,,,,,,0.0885914526989503,-0.868196907551304,0.224969668496694,,-0.45497078807427854,,
,4971.0,3741.0,1136.0,4365.0,,,,,,,0.0885885282171868,-0.868993830482005,0.22452270716481,,-0.1976219978806672,,
,4972.0,3743.0,1137.0,4364.0,,,,,,,0.0885805371185223,-0.870166762069431,0.224251947808582,,0.07382839067338627,,
,4972.0,3741.0,1139.0,4365.0,,,,,,,0.0885702241447377,-0.870859233084302,0.222909933405657,,0.35241835527584425,,
,4973.0,3743.0,1139.0,4364.0,,,,,,,0.0885689778506276,-0.871305701431066,0.223023909329622,,0.6306542232809176,,
,4971.0,3740.0,1137.0,4363.0,,,,,,,0.0885615869827904,-0.871858549206292,0.223074537879498,,0.9008167313304388,,
,4972.0,3741.0,1136.0,4363.0,,,,,,,0.0885568228610033,-0.871934605145055,0.222879271471068,,1.1552723454823144,,
,4972.0,3739.0,1138.0,4362.0,,,,,,,0.0885636037304695,-0.871971210024721,0.222890832023349,,1.386777182550344,,
,4971.0,3742.0,1137.0,4361.0,0.0,3124.0,,,,,0.0885649390247642,-0.870949441415997,0.223116508201151,,1.5887638733534304,,
,4970.0,3740.0,1136.0,4360.0,,,,,,,0.0885689047330256,-0.870385174442657,0.223432064520258,,1.755602679013762,,
,4969.0,3740.0,1138.0,4362.0,,,,,,,0.0885753563810757,-0.869521104082063,0.224072050510398,,1.8828273151048358,,
,4972.0,3743.0,1137.0,4359.0,,,,,,,0.0885769284750473,-0.869219327242021,0.224502749616685,,1.9673143357412124,,
,4972.0,3740.0,1135.0,4362.0,,,,,,,0.0885879967554203,-0.868636790429299,0.224972545900176,,2.007403803788002,,
,4973.0,3739.0,1137.0,4360.0,,,,,,,0.0885889248355712,-0.867964578936041,0.225358514335074,,2.002949446055768,,
,4970.0,3738.0,1137.0,4359.0,,,,,,,0.0885888795498243,-0.868052250202662,0.225504406441275,,1.9552895387466758,,
,4970.0,3737.0,1136.0,4358.0,,,,,,,0.0885892277294195,-0.867572036942614,0.225815860761281,,1.8671358053291276,,
,4971.0,3738.0,1135.0,4360.0,,,,,,,0.0885934645515697,-0.867185882610928,0.225811986085836,,1.7423859452480932,,
,4970.0,3742.0,1137.0,4362.0,,,,,,,0.0885946342486192,-0.867179621640531,0.225808997740885,,1.585874288301947,,
,4968.0,3739.0,1135.0,4361.0,,,,,,,0.0885942002096032,-0.866873573117502,0.22639856432539,,1.4030823988535346,,
,4969.0,3742.0,1135.0,4360.0,,,,,,,0.0886008055369708,-0.866807564402409,0.226115417484647,,1.199835583056587,,
,4971.0,3743.0,1134.0,4361.0,,,,,,,0.0886023790531845,-0.86673831356342,0.225943858118192,,0.9820112997260648,,
,4972.0,3740.0,1138.0,4360.0,,,,,,,0.0886057365900863,-0.86687381215532,0.226410346324358,,0.7552815089650751,,
,4973.0,3739.0,1138.0,4361.0,,,,,,,0.0886013113099405,-0.866567352994753,0.226562835763697,,0.5249041670372043,,
,4972.0,3741.0,1137.0,4360.0,,,,,,,0.0885990087606856,-0.866585398607242,0.226325325801997,,0.29557128494291185,,
,4972.0,3745.0,1136.0,4362.0,,,,,,,0.0885991522655253,-0.866308721188022,0.226649318682576,,0.07131393445787185,,
,4973.0,3742.0,1137.0,4363.0,,,,,,,0.0886063123500302,-0.866399993280376,0.2265517586455,,-0.14454084926088953,,
,4972.0,3743.0,1139.0,4361.0,,,,,,,0.0886085928698362,-0.866611006880322,0.226481508935618,,-0.3493700840923638,,
,4975.0,3744.0,1138.0,4363.0,,,,,,,0.0886087333711649,-0.866202006084063,0.226829894586865,,-0.5412227795384752,,
,4975.0,3744.0,1140.0,4364.0,,,,,,,0.0886104418954212,-0.866008384624485,0.227006105265826,,-0.7187673214087308,,
,4975.0,3745.0,1139.0,4366.0,,,,,,,0.0886134589835495,-0.866416888287617,0.226824647722381,,-0.8812285467872382,,
2025-07-03 23:24:14,4975.0,3745.0,1138.0,4367.0,,,,,,2025/07/03 11:24:14 PM,0.0886041932566969,-0.866224757541277,0.226780597056912,,-1.028321745663881,,
,4976.0,3745.0,1140.0,4366.0,,,,,,,0.0886078789680985,-0.86660860204942,0.226468861210433,,-1.1601865018955069,,
,4978.0,3746.0,1139.0,4368.0,,,,,,,0.0886037105080618,-0.866615286853346,0.226500282398894,,-1.277318534159453,,
,4977.0,3744.0,1137.0,4367.0,,,,,,,0.0885968120445085,-0.867137961701452,0.226036447216981,,-1.3804939204489106,,
,4979.0,3745.0,1140.0,4367.0,,,,,,,0.0885964305206065,-0.867612427938094,0.225684929442872,,-1.4706787480531378,,
,4979.0,3749.0,1139.0,4370.0,,,,,,,0.0885920555712418,-0.8675111617176,0.225788716095579,,-1.5489189965616077,,
,4980.0,3746.0,1138.0,4369.0,,,,,,,0.0885913176283589,-0.86769887709195,0.225480956346105,,-1.6162098270281553,,
,4980.0,3748.0,1137.0,4369.0,,,,,,,0.0885901751827168,-0.86797854281429,0.225259623563961,,-1.6733492065184699,,
,4980.0,3750.0,1137.0,4370.0,,,,,,,0.0885914203725287,-0.86763601718967,0.225470518812654,,-1.7207867087296582,,
,4982.0,3751.0,1138.0,4370.0,,,,,,,0.0885914008540133,-0.867386491623213,0.225243686164356,,-1.7584833446334915,,
,4984.0,3748.0,1139.0,4372.0,,,,,,,0.0885985395200073,-0.86729098805711,0.22550504881763,,-1.7858014436523866,,
,4985.0,3751.0,1139.0,4374.0,,,,,,,0.0885992490392509,-0.866914742554616,0.2259140726069,,-1.8014441395013479,,
,4985.0,3752.0,1139.0,4373.0,,,,,,,0.0885995404245127,-0.866854934256891,0.225979019431952,,-1.8034614458441904,,
,4986.0,3751.0,1140.0,4373.0,,,,,,,0.0886010921504044,-0.866760638618506,0.226219550148961,,-1.7893341399308527,,
,4986.0,3751.0,1140.0,4375.0,,,,,,,0.0886067786721897,-0.866606795393784,0.226226468352604,,-1.756138027562508,,
,4985.0,3752.0,1137.0,4374.0,,,,,,,0.0886118529062099,-0.866336764180591,0.226560145441038,,-1.7007805581557383,,
,4985.0,3753.0,1140.0,4378.0,,,,,,,0.0886067279947409,-0.866021867726547,0.22691600324852,,-1.6202908974371615,,
,4988.0,3756.0,1139.0,4376.0,,,,,,,0.0886105604135506,-0.865672515963827,0.227333180169651,,-1.512135728884538,,
,4987.0,3753.0,1141.0,4380.0,,,,,,,0.0886165800130482,-0.86555181982031,0.22746324090127,,-1.3745283010810392,,
,4987.0,3755.0,1140.0,4377.0,,,,,,,0.0886212690560859,-0.86498791487849,0.2276807995213,,-1.206698473732307,,
,4986.0,3754.0,1138.0,4376.0,,,,,,,0.0886229984664966,-0.86496117951288,0.227955573730418,,-1.0090962778514267,,
,4986.0,3755.0,1139.0,4374.0,,,,,,,0.0886318813743761,-0.864583391808878,0.228092726496151,,-0.7835095663263345,,
,4988.0,3752.0,1136.0,4371.0,,,,,,,0.0886302698623506,-0.864247776015385,0.22839993641981,,-0.5330862968019208,,
,4986.0,3753.0,1136.0,4369.0,,,,,,,0.0886300124054074,-0.86354876626157,0.228914303657784,,-0.2622623713147187,,
,4984.0,3749.0,1139.0,4371.0,,,,,,,0.0886384801075645,-0.862785534980081,0.22896681431173,,0.023394881186714987,,
,4982.0,3749.0,1134.0,4367.0,,,,,,,0.088640189921835,-0.862338396318427,0.229393352779918,,0.3174110489780844,,
,4982.0,3746.0,1136.0,4363.0,,,,,,,0.0886461900776367,-0.86171946415453,0.229808112284501,,0.612677444742379,,
,4978.0,3745.0,1137.0,4359.0,,,,,,,0.0886528821550641,-0.861195800089236,0.23039025114525,,0.9017537708122183,,
,4979.0,3745.0,1134.0,4358.0,,,,,,,0.0886609291247013,-0.860446639807744,0.230578306406923,,1.1771853277036481,,
,4977.0,3743.0,1134.0,4354.0,,,,,,,0.088661591008922,-0.860092496085457,0.230863425540517,,1.4318233105162155,,
,4973.0,3741.0,1134.0,4355.0,,,,,,,0.0886651446321529,-0.8597402336276,0.231218823441272,,1.6591390093088612,,
,4974.0,3741.0,1135.0,4353.0,,,,,,,0.0886676219111871,-0.859377957662206,0.23151040162778,,1.8535221851892756,,
,4972.0,3739.0,1134.0,4350.0,,,,,,,0.0886703334912369,-0.859275595640136,0.231717221758737,,2.010550869086842,,
,4968.0,3739.0,1134.0,4351.0,,,,,,,0.0886748753519031,-0.859171764881978,0.23189197446423,,2.1272158263034826,,
,4969.0,3738.0,1132.0,4348.0,,,,,,,0.0886748986416337,-0.859101711543031,0.23193368911522,,2.202079785680737,,
,4965.0,3737.0,1132.0,4347.0,,,,,,,0.0886827894156608,-0.858954801012454,0.232086260428624,,2.2353509392993365,,
,4968.0,3736.0,1133.0,4346.0,,,,,,,0.0886788315481366,-0.85865204547516,0.232354447891483,,2.228853518575428,,
,4967.0,3733.0,1130.0,4344.0,,,,,,,0.0886825000681151,-0.858497646525323,0.2325342086386,,2.185886077054244,,
,4963.0,3736.0,1134.0,4344.0,,,,,,,0.0886828012842088,-0.858362922836087,0.232532329829956,,2.110969906866571,,
,4963.0,3736.0,1132.0,4342.0,,,,,,,0.088689321743067,-0.857871059395611,0.23274538447301,,2.0095039323805537,,
,4961.0,3735.0,1132.0,4344.0,,,,,,,0.0886929446369157,-0.857524764321003,0.233169770743264,,1.8873557475515674,,
,4964.0,3734.0,1130.0,4343.0,,,,,,,0.0886931976370796,-0.85776735086213,0.23320080432871,,1.750428298836637,,
,4963.0,3730.0,1132.0,4344.0,,,,,,,0.0886955528455691,-0.857480534677014,0.233382334372129,,1.6042456892036903,,
,4963.0,3735.0,1131.0,4341.0,,,,,,,0.0886948416429724,-0.857440502515321,0.233222971851064,,1.453598653463013,,
,4964.0,3736.0,1130.0,4346.0,,,,,,,0.0886993888114946,-0.856848868856021,0.233541889274975,,1.3022813269602442,,
,4963.0,3736.0,1133.0,4345.0,,,,,,,0.0886989128736062,-0.856981113013404,0.23373087708206,,1.1529384339099389,,
,4963.0,3735.0,1131.0,4346.0,,,,,,,0.0887074155921324,-0.856254858977345,0.233810982448046,,1.0070286245541735,,
,4963.0,3737.0,1131.0,4345.0,,,,,,,0.0887050168287123,-0.856246878178894,0.234145455009199,,0.864897224286926,,
,4963.0,3737.0,1132.0,4345.0,,,,,,,0.0887129851442148,-0.855704644706834,0.234582765109314,,0.7259411099668721,,
,4963.0,3736.0,1132.0,4345.0,,,,,,,0.0887130214455575,-0.855510940166782,0.234529157638691,,0.5888405494261908,,
,4962.0,3739.0,1132.0,4346.0,,,,,,,0.0887071735973579,-0.855689818770046,0.234620226928269,,0.4518284461633764,,
,4964.0,3737.0,1130.0,4345.0,,,,,,,0.0887037196303176,-0.855563355438158,0.234557860863499,,0.3129671236860196,,
,4966.0,3737.0,1133.0,4345.0,,,,,,,0.0887087050297782,-0.856087746157259,0.234390714091846,,0.17040648827006344,,
,4966.0,3736.0,1131.0,4345.0,,,,,,,0.088704678721804,-0.856478822315918,0.233856118055898,,0.022604097455139253,,
,4964.0,3739.0,1131.0,4345.0,,,,,,,0.0886955362980126,-0.856592072351221,0.233652358398164,,-0.1315045426024035,,
,4965.0,3735.0,1130.0,4344.0,,,,,,,0.0886968129198555,-0.857035064178646,0.233546630804586,,-0.2923902746678566,,
,4964.0,3738.0,1131.0,4346.0,,,,,,,0.0886929422704115,-0.857261283669511,0.233207960417927,,-0.4598693263619664,,
,4968.0,3735.0,1131.0,4347.0,,,,,,,0.0886976299765398,-0.857064802679449,0.233331811720534,,-0.6330946404136433,,
,4965.0,3737.0,1130.0,4346.0,,,,,,,0.0886943650685626,-0.856930631874594,0.233417508153487,,-0.8105956040496775,,
,4967.0,3734.0,1131.0,4343.0,,,,,,,0.0887013752888328,-0.856203092519737,0.234002922693541,,-0.9903609467405334,,
,4966.0,3736.0,1131.0,4344.0,,,,,,,0.0887070484054109,-0.855757143485862,0.234643467175589,,-1.1699577128798648,,
,4964.0,3737.0,1129.0,4343.0,,,,,,,0.0887178644385011,-0.855126502186903,0.235007858199329,,-1.3466765951520423,,
,4961.0,3735.0,1131.0,4342.0,,,,,,,0.0887235562802211,-0.854504543968357,0.235228938555091,,-1.5176907699225053,,
,4966.0,3735.0,1129.0,4341.0,,,,,,,0.0887251909825329,-0.854119893997483,0.235504985667308,,-1.6802125434585176,,
,4967.0,3734.0,1129.0,4342.0,,,,,,,0.088723740244892,-0.853834337395613,0.236241081640898,,-1.831630823587227,,
,4967.0,3737.0,1130.0,4343.0,,,,,,,0.0887317227356046,-0.853379772003643,0.236589418991713,,-1.9696136545832033,,
,4963.0,3735.0,1129.0,4339.0,,,,,,,0.088741779578998,-0.852300172477299,0.236764539050425,,-2.092164044083339,,
,4965.0,3735.0,1131.0,4341.0,,,,,,,0.0887472255752045,-0.852060028666471,0.236953542231987,,-2.197623635879732,,
,4963.0,3737.0,1131.0,4340.0,,,,,,,0.0887499201734864,-0.851552966792298,0.237235765154681,,-2.2846265581159244,,
,4966.0,3735.0,1130.0,4340.0,,,,,,,0.0887509595726945,-0.851328655516757,0.237132997914348,,-2.35201381611819,,
,4966.0,3736.0,1130.0,4340.0,,,,,,,0.0887586224485087,-0.851422457672192,0.237540363084941,,-2.398725611675565,,
,4965.0,3736.0,1130.0,4343.0,,,,,,,0.0887569121131622,-0.851458110787022,0.237542217901599,,-2.4236938069705585,,
,4965.0,3737.0,1129.0,4343.0,,,,,,,0.0887562648842462,-0.850530632978451,0.237892228826291,,-2.4257585165214843,,
,4967.0,3737.0,1130.0,4341.0,,,,,,,0.0887578037389641,-0.850854425544579,0.237771517142132,,-2.403630925016215,,
,4967.0,3738.0,1132.0,4343.0,,,,,,,0.0887665503425714,-0.850177050272125,0.2382070182374,,-2.355918801740017,,
,4965.0,3736.0,1130.0,4343.0,,,,,,,0.0887702707295386,-0.849860835499014,0.238450124917168,,-2.2812223580303104,,
,4967.0,3739.0,1131.0,4343.0,,,,,,,0.0887703905146323,-0.849133183549675,0.238634248751504,,-2.178297178145473,,
,4968.0,3737.0,1131.0,4344.0,,,,,,,0.0887770996497831,-0.848664045331392,0.239144297985808,,-2.0462694034835227,,
,4969.0,3739.0,1127.0,4344.0,,,,,,,0.0887801732565822,-0.847965520654185,0.239444499027497,,-1.8848778537942044,,
,4967.0,3741.0,1130.0,4345.0,,,,,,,0.0887887283007577,-0.847626681893478,0.239619299874661,,-1.6947101956641257,,
,4970.0,3739.0,1130.0,4345.0,,,,,,,0.0887912714961555,-0.847665554065314,0.23988635225693,,-1.477397391072321,,
,4970.0,3738.0,1131.0,4346.0,,,,,,,0.0887916450446138,-0.847358235710242,0.240282482498474,,-1.235733531115741,,
,4969.0,3741.0,1130.0,4344.0,,,,,,,0.0887997166655332,-0.847362841929048,0.239940166281764,,-0.9736965561980009,,
,4974.0,3740.0,1131.0,4347.0,,,,,,,0.0887979718240139,-0.847564313968941,0.240045910518452,,-0.6963578057043712,,
,4974.0,3744.0,1131.0,4350.0,,,,,,,0.0887982285657482,-0.847525708686362,0.239869066160842,,-0.4096826750602808,,
,4972.0,3741.0,1132.0,4351.0,,,,,,,0.0887919420692041,-0.848008201055215,0.240086401525807,,-0.12023868398980163,,
,4971.0,3741.0,1132.0,4348.0,,,,,,,0.0887878586416108,-0.848353364453039,0.239799217445445,,0.16516096015901005,,
,4974.0,3744.0,1130.0,4350.0,,,,,,,0.0887881049259756,-0.848057288755835,0.239691183324713,,0.43984231950259267,,
,4975.0,3744.0,1130.0,4350.0,,,,,,,0.0887906590883244,-0.848193330106347,0.239789354911268,,0.6976454961746342,,
,4978.0,3744.0,1132.0,4353.0,,,,,,,0.0887862426802395,-0.848096808965393,0.239646400520989,,0.9332536018556508,,
,4977.0,3744.0,1132.0,4353.0,,,,,,,0.0887854116952838,-0.847756804380549,0.239551562522253,,1.142448600332687,,
,4977.0,3742.0,1129.0,4352.0,,,,,,,0.0887844589390439,-0.847485006445007,0.240077582754428,,1.3222780483294017,,
,4977.0,3744.0,1132.0,4353.0,,,,,,,0.0887926302834835,-0.84737804602763,0.240005530883011,,1.471128202890496,,
,4979.0,3745.0,1129.0,4354.0,,,,,,,0.0887972577213672,-0.8471361928604,0.240266076611303,,1.5887080517266519,,
,4976.0,3747.0,1131.0,4353.0,,,,,,,0.0887996680126755,-0.846798198119474,0.240437205576609,,1.675954663243803,,
,4980.0,3748.0,1129.0,4354.0,,,,,,,0.0888051804966047,-0.846618518735165,0.240730858420266,,1.7348734441551794,,
,4980.0,3747.0,1131.0,4353.0,,,,,,,0.088807232330119,-0.846244119806125,0.241108183906566,,1.7683286225702413,,
,4980.0,3748.0,1133.0,4357.0,,,,,,,0.08880926740652,-0.846134337165392,0.241105883353635,,1.7798004610917821,,
,4980.0,3747.0,1134.0,4358.0,,,,,,,0.0888142223051949,-0.845726665398498,0.241429659754943,,1.77312667131716,,
,4980.0,3749.0,1132.0,4358.0,,,,,,,0.0888137516646443,-0.84558456535588,0.241260424940072,,1.7522460173309862,,
,4983.0,3748.0,1133.0,4357.0,,,,,,,0.088817148070027,-0.845094344241183,0.241704716481268,,1.720961576245905,,
,4981.0,3751.0,1131.0,4359.0,,,,,,,0.0888181966882779,-0.845423712244614,0.241829075950681,,1.6827390456612241,,
,4983.0,3749.0,1134.0,4355.0,,,,,,,0.0888246635382819,-0.845108228425923,0.241910133239137,,1.6405518600040443,,
,4981.0,3747.0,1132.0,4356.0,,,,,,,0.0888204118874792,-0.844667320261897,0.242368127508036,,1.5967802452577653,,
,4981.0,3747.0,1132.0,4354.0,,,,,,,0.0888230957944522,-0.844409608533742,0.242178651394811,,1.5531662778808886,,
,4981.0,3746.0,1131.0,4351.0,,,,,,,0.088831819668859,-0.843857617199704,0.242429273084812,,1.510821855207316,,
,4975.0,3744.0,1130.0,4348.0,0.0,4145.0,,,,,0.0888311593836457,-0.843705266271157,0.242596191151625,,1.4702816488502017,,
,4977.0,3742.0,1130.0,4345.0,,,,,,,0.0888394126938341,-0.843381115271774,0.242597692647398,,1.4315892766637464,,
,4972.0,3742.0,1129.0,4341.0,,,,,,,0.0888335683446757,-0.843195472574217,0.243025154366952,,1.3944026292421736,,
,4971.0,3740.0,1127.0,4339.0,,,,,,,0.0888397296281721,-0.843302967436322,0.242784240561548,,1.3581035897730125,,
,4969.0,3737.0,1128.0,4334.0,,,,,,,0.0888355885285828,-0.843101393129982,0.242963996384158,,1.321898144280075,,
,4966.0,3734.0,1127.0,4334.0,,,,,,,0.0888447781060124,-0.842988839445948,0.243109883199319,,1.2848951294379378,,
,4963.0,3734.0,1127.0,4333.0,,,,,,,0.088837683621171,-0.843086663422946,0.24320564313078,,1.2461558146772447,,
,4963.0,3734.0,1124.0,4326.0,,,,,,,0.0888394189777207,-0.84287148425434,0.243103375801342,,1.2047122292212225,,
,4963.0,3731.0,1125.0,4325.0,,,,,,,0.0888346309004862,-0.843137040458048,0.242918343670005,,1.1595592436695288,,
,4959.0,3731.0,1123.0,4322.0,,,,,,,0.0888396502601267,-0.843235858516896,0.243070924830295,,1.1096327994215323,,
,4959.0,3727.0,1122.0,4321.0,,,,,,,0.0888428287997267,-0.843255728563453,0.243048427413029,,1.0537923405728506,,
,4957.0,3727.0,1122.0,4322.0,,,,,,,0.0888398637553073,-0.843623899019742,0.243078187274448,,0.9908269221324768,,
,4955.0,3728.0,1122.0,4320.0,,,,,,,0.0888423217820827,-0.843168328011915,0.24291860790113,,0.9194998789497212,,
,4952.0,3727.0,1125.0,4320.0,,,,,,,0.0888400374826606,-0.843492635237121,0.242709338937412,,0.8386367643772342,,
,4954.0,3725.0,1121.0,4319.0,,,,,,,0.0888401971878867,-0.843748365101988,0.242670946166683,,0.7472484991173518,,
,4952.0,3726.0,1121.0,4318.0,,,,,,,0.0888338936174207,-0.844155474507412,0.242618662524892,,0.6446706477122024,,
,4952.0,3727.0,1122.0,4318.0,,,,,,,0.0888353283372235,-0.844206698171746,0.242465840506362,,0.5306939981159459,,
,4951.0,3725.0,1121.0,4318.0,,,,,,,0.088833976354307,-0.844401473451259,0.242252599693677,,0.40566229847748114,,
,4949.0,3727.0,1121.0,4316.0,,,,,,,0.0888282460044061,-0.844935248159938,0.242024593999068,,0.27051884796558245,,
,4951.0,3725.0,1124.0,4315.0,,,,,,,0.0888239458450811,-0.845167343607933,0.241948496202865,,0.12679222153142505,,
,4949.0,3726.0,1122.0,4318.0,,,,,,,0.0888233639411693,-0.845122934523297,0.241592250775222,,-0.023479526241387223,,
,4950.0,3723.0,1121.0,4315.0,,,,,,,0.0888231517688886,-0.845292994228409,0.24147579125273,,-0.17787868110016103,,
2025-07-03 23:24:15,4951.0,3723.0,1121.0,4315.0,,,,,,2025/07/03 11:24:15 PM,0.0888237793629159,-0.84531910176692,0.24152319781024,,-0.3337775598289465,,
,4951.0,3728.0,1121.0,4316.0,,,,,,,0.0888231731282308,-0.84529726334157,0.24140859248465,,-0.48852906712288297,,
,4951.0,3725.0,1121.0,4316.0,,,,,,,0.0888166957212083,-0.845299409561193,0.241453569883863,,-0.6396565870722974,,
,4951.0,3725.0,1120.0,4316.0,,,,,,,0.0888220560133889,-0.845410456734807,0.241621910564197,,-0.7850220652622703,,
,4953.0,3727.0,1123.0,4318.0,,,,,,,0.0888170483394057,-0.846059879659464,0.240889805518809,,-0.9229544218228383,,
,4952.0,3725.0,1121.0,4317.0,,,,,,,0.0888076008450913,-0.846227308005427,0.241045751714549,,-1.0523256785621424,,
,4950.0,3724.0,1122.0,4318.0,,,,,,,0.0887950031748873,-0.847046737364814,0.240558391994288,,-1.172568106654354,,
,4951.0,3725.0,1121.0,4318.0,,,,,,,0.0887901494632783,-0.847525269223744,0.240464777220822,,-1.2836314832080902,,
,4950.0,3727.0,1121.0,4317.0,,,,,,,0.0887868309100083,-0.847882626187336,0.239976053809079,,-1.385884946590739,,
,4951.0,3724.0,1121.0,4316.0,,,,,,,0.0887864064496001,-0.847778768877882,0.240117254229399,,-1.4799728763781121,,
,4949.0,3726.0,1121.0,4316.0,,,,,,,0.0887898356615834,-0.847654148208188,0.239777865594864,,-1.5666384806560385,,
,4951.0,3725.0,1120.0,4316.0,,,,,,,0.0887943657227841,-0.847817764046224,0.239772484773076,,-1.646532087746688,,
,4947.0,3725.0,1120.0,4314.0,,,,,,,0.0887918301501278,-0.847628077909613,0.239909254131073,,-1.7200232643610722,,
,4951.0,3725.0,1122.0,4315.0,,,,,,,0.0887969777930132,-0.847763145892842,0.239968184009098,,-1.7870364692544705,,
,4948.0,3723.0,1119.0,4315.0,,,,,,,0.0887970021996303,-0.847893748970075,0.239896167727952,,-1.846928524096759,,
,4946.0,3725.0,1120.0,4310.0,,,,,,,0.0887955273164195,-0.848139278819773,0.239941980971288,,-1.8984223964263347,,
,4946.0,3722.0,1118.0,4311.0,,,,,,,0.0887969995980361,-0.847968000434376,0.239817111813154,,-1.9396058358187336,,
,4949.0,3724.0,1120.0,4312.0,,,,,,,0.0888030868140969,-0.847980432520775,0.239949388252669,,-1.9679962508031779,,
,4948.0,3722.0,1119.0,4311.0,,,,,,,0.0887988529949234,-0.848536104164776,0.240043680585867,,-1.9806663396454152,,
,4944.0,3724.0,1119.0,4309.0,,,,,,,0.0887960967351152,-0.848136861452063,0.239934727986005,,-1.9744196436931187,,
,4947.0,3724.0,1119.0,4308.0,,,,,,,0.0888009740641478,-0.848283187393725,0.239796567147609,,-1.9460017872717181,,
,4945.0,3724.0,1117.0,4310.0,,,,,,,0.0887923115124896,-0.848470054214414,0.239956170741135,,-1.8923313694265842,,
,4946.0,3722.0,1120.0,4313.0,,,,,,,0.0887854999241327,-0.847945869125109,0.239995124034903,,-1.810733813109474,,
,4946.0,3724.0,1120.0,4309.0,,,,,,,0.0887910723443819,-0.847762351170812,0.239931659733729,,-1.6991617727721708,,
,4946.0,3722.0,1119.0,4312.0,,,,,,,0.0887912548934957,-0.847546801828347,0.240006491287919,,-1.5563869798786063,,
,4947.0,3726.0,1118.0,4312.0,,,,,,,0.0887965555190448,-0.847048666129671,0.240277590276094,,-1.3821506930837495,,
,4947.0,3724.0,1121.0,4312.0,,,,,,,0.0888081980809007,-0.847463838689957,0.240528929972287,,-1.177263189587069,,
,4946.0,3724.0,1121.0,4312.0,,,,,,,0.0888105508800308,-0.847086479085351,0.240750140267127,,-0.9436468604180988,,
,4946.0,3725.0,1119.0,4309.0,,,,,,,0.0888133112648084,-0.847039388860141,0.24082770530471,,-0.684321993349234,,
,4949.0,3725.0,1120.0,4313.0,,,,,,,0.0888085067168518,-0.846775589745076,0.240663125629959,,-0.40333832472633013,,
,4949.0,3725.0,1117.0,4313.0,,,,,,,0.0888083298472941,-0.846550048009746,0.240913690549875,,-0.10565795298139602,,
,4948.0,3725.0,1119.0,4311.0,,,,,,,0.0888191021899938,-0.846579388182194,0.240925889384283,,0.203004027603913,,
,4948.0,3724.0,1118.0,4312.0,,,,,,,0.0888109944220454,-0.846244379066816,0.240688070218411,,0.5163750096173414,,
,4950.0,3727.0,1120.0,4312.0,,,,,,,0.0888076312024726,-0.846577862599318,0.240673330965938,,0.8278501842201723,,
,4948.0,3727.0,1120.0,4316.0,,,,,,,0.0888034045704716,-0.846998730180629,0.240681336098803,,1.1307401764476168,,
,4952.0,3729.0,1120.0,4313.0,,,,,,,0.0888059741822853,-0.847255870589947,0.240578481547479,,1.4185313745436259,,
,4950.0,3730.0,1118.0,4315.0,,,,,,,0.0888043978153812,-0.847784668507329,0.24028920484188,,1.685146992813186,,
,4950.0,3730.0,1123.0,4317.0,,,,,,,0.088801243491118,-0.847924424822133,0.24026570293778,,1.9251949376315407,,
,4951.0,3730.0,1119.0,4318.0,,,,,,,0.088800161609346,-0.848141457914178,0.239822745400494,,2.1341872455861517,,
,4953.0,3728.0,1120.0,4320.0,,,,,,,0.0887973215156527,-0.848147673193331,0.239867801877052,,2.308715535733881,,
,4952.0,3729.0,1119.0,4321.0,,,,,,,0.0887990152533823,-0.848514170049868,0.239883600628636,,2.4465680018278926,,
,4954.0,3727.0,1120.0,4319.0,,,,,,,0.0887852910717647,-0.84837061437753,0.239781593283684,,2.5467764018476595,,
,4955.0,3729.0,1121.0,4321.0,,,,,,,0.0887965202972169,-0.848088181795479,0.239674160578854,,2.6095865169284003,,
,4959.0,3731.0,1121.0,4322.0,,,,,,,0.0888007855404986,-0.848585695237275,0.239864030508329,,2.636352551213246,,
,4955.0,3734.0,1121.0,4322.0,,,,,,,0.0887950570738552,-0.848028981094631,0.239580516713935,,2.6293643544043532,,
,4959.0,3732.0,1123.0,4323.0,,,,,,,0.0888016803515044,-0.84817689207576,0.239744876746993,,2.591624917416268,,
,4960.0,3733.0,1120.0,4322.0,,,,,,,0.088805410523092,-0.847882782172573,0.239850158321229,,2.526602375062996,,
,4959.0,3734.0,1120.0,4323.0,,,,,,,0.0888048670923322,-0.847639569387897,0.240025929549528,,2.4379837167737004,,
,4960.0,3735.0,1120.0,4322.0,,,,,,,0.0888086071243317,-0.847503776846381,0.239993229083128,,2.329455504995965,,
,4959.0,3731.0,1121.0,4325.0,,,,,,,0.0888073393745686,-0.847673721845694,0.240118089544441,,2.204530668829076,,
,4960.0,3734.0,1121.0,4324.0,,,,,,,0.0887986945098583,-0.84767752822941,0.240472416054405,,2.0664316080046077,,
,4960.0,3736.0,1119.0,4326.0,,,,,,,0.0888003665328086,-0.847699248849195,0.240269284019311,,1.9180304626565865,,
,4962.0,3738.0,1123.0,4325.0,,,,,,,0.0888025626830158,-0.847624219149033,0.240377792717328,,1.761839245999166,,
,4966.0,3737.0,1123.0,4327.0,,,,,,,0.0888030613650534,-0.847318178517329,0.240480302883923,,1.600036841142131,,
,4962.0,3737.0,1122.0,4329.0,,,,,,,0.0888074432309343,-0.847351310425741,0.240312018502568,,1.4345172174593126,,
,4965.0,3737.0,1119.0,4328.0,,,,,,,0.0888041673376891,-0.847113015920105,0.240419969880508,,1.2669435223830297,,
,4962.0,3738.0,1120.0,4326.0,,,,,,,0.0887995495582429,-0.847150942343891,0.240156144093068,,1.0987953673857151,,
,4962.0,3737.0,1122.0,4327.0,,,,,,,0.0888009822555892,-0.847396930295933,0.240305356431257,,0.9314009508583715,,
,4964.0,3739.0,1122.0,4329.0,,,,,,,0.0888014314902636,-0.847015344431465,0.240344517408295,,0.7659509488497813,,
,4962.0,3735.0,1121.0,4324.0,,,,,,,0.088804261991799,-0.847289688563382,0.240158614951083,,0.6034964181046161,,
,4963.0,3736.0,1121.0,4321.0,,,,,,,0.0888000617084637,-0.847600108410516,0.240578674515321,,0.444936968769363,,
,4960.0,3733.0,1118.0,4318.0,,,,,,,0.0887993729445795,-0.84749712274985,0.240249513412172,,0.29100697846987544,,
,4957.0,3731.0,1120.0,4316.0,,,,,,,0.0888021885719349,-0.847576209047885,0.240005779121189,,0.1422664404821147,,
,4954.0,3728.0,1118.0,4314.0,,,,,,,0.0888008861535764,-0.847688549883432,0.239737940280517,,-0.0008998118358312155,,
,4952.0,3728.0,1115.0,4308.0,,,,,,,0.0887956174939143,-0.84787065605003,0.240305984076135,,-0.1382738126249398,,
,4950.0,3725.0,1115.0,4308.0,,,,,,,0.0887995872870529,-0.848806601203755,0.239889894203316,,-0.2697886280953374,,
,4949.0,3727.0,1116.0,4305.0,,,,,,,0.0887983193974556,-0.848828756593978,0.239532173905825,,-0.39550756199880915,,
,4944.0,3722.0,1114.0,4303.0,,,,,,,0.0887840846516999,-0.848441805788386,0.239697956558825,,-0.5156010825051637,,
,4941.0,3719.0,1114.0,4298.0,,,,,,,0.0887872681262688,-0.848650597483722,0.23944117660584,,-0.6303237303591742,,
,4941.0,3719.0,1116.0,4296.0,,,,,,,0.0887901041727926,-0.849037704218651,0.239297844991061,,-0.7399927486825055,,
,4937.0,3718.0,1112.0,4291.0,,,,,,,0.0887838143334047,-0.849088888311402,0.2393032483453,,-0.8449696910630128,,
,4935.0,3716.0,1113.0,4292.0,,,,,,,0.0887828079629,-0.84927496862547,0.239125286780931,,-0.9456456240931078,,
,4933.0,3715.0,1112.0,4286.0,,,,,,,0.0887757536650334,-0.849582139212398,0.238824703222168,,-1.0424294866147414,,
,4932.0,3712.0,1111.0,4288.0,,,,,,,0.088777020653246,-0.850440962759628,0.238779520763698,,-1.1357377584894146,,
,4931.0,3713.0,1112.0,4288.0,,,,,,,0.0887769688636427,-0.850533448195525,0.238428129892892,,-1.2259823861754253,,
,4929.0,3712.0,1111.0,4285.0,,,,,,,0.0887758003977474,-0.850784345184372,0.238040898074042,,-1.313553715908885,,
,4928.0,3712.0,1113.0,4285.0,,,,,,,0.0887708492035132,-0.85164516785347,0.237904978408941,,-1.3987964212399495,,
,4928.0,3711.0,1109.0,4285.0,,,,,,,0.0887719269901205,-0.851232537819961,0.23783686424614,,-1.4819787203128265,,
,4927.0,3712.0,1110.0,4284.0,,,,,,,0.0887694993679303,-0.851280641396189,0.237717399723976,,-1.563257725067653,,
,4926.0,3711.0,1110.0,4283.0,,,,,,,0.0887629879048711,-0.851691470264021,0.237405709262058,,-1.6426458607898258,,
,4927.0,3711.0,1109.0,4282.0,,,,,,,0.0887642105308586,-0.85180765570392,0.237422331828684,,-1.7199845985259117,,
,4926.0,3713.0,1110.0,4283.0,,,,,,,0.0887620945637557,-0.851718034686862,0.237397786567586,,-1.7949319911492088,,
,4925.0,3709.0,1111.0,4280.0,,,,,,,0.088762831941683,-0.852138617173487,0.237471721019616,,-1.866969301232396,,
,4924.0,3712.0,1109.0,4283.0,,,,,,,0.0887570499380385,-0.852084711347636,0.236980555456474,,-1.935429015321142,,
,4926.0,3713.0,1109.0,4280.0,,,,,,,0.0887471381117405,-0.852541185976279,0.236943725531652,,-1.9995419013838807,,
,4925.0,3709.0,1111.0,4282.0,,,,,,,0.0887427825938523,-0.853150368453561,0.236592625386839,,-2.0584954282891936,,
,4925.0,3709.0,1109.0,4281.0,,,,,,,0.0887330576200582,-0.854288166005642,0.235830829394392,,-2.1114914457256875,,
,4928.0,3710.0,1111.0,4282.0,,,,,,,0.0887319160283414,-0.854503675740881,0.235462010530229,,-2.157789161424476,,
,4924.0,3710.0,1107.0,4281.0,,,,,,,0.0887280885972631,-0.855250059310245,0.235275047082548,,-2.196721031968166,,
,4923.0,3710.0,1112.0,4282.0,,,,,,,0.0887193002594284,-0.855386780942058,0.234989425854281,,-2.2276740392490315,,
,4925.0,3711.0,1110.0,4280.0,,,,,,,0.0887171317139373,-0.855799258731455,0.234293290579281,,-2.2500359828665055,,
,4926.0,3710.0,1109.0,4280.0,,,,,,,0.0887134223898897,-0.855597576159177,0.234767123402984,,-2.2631143602352264,,
,4925.0,3709.0,1109.0,4279.0,,,,,,,0.0887152102554295,-0.855680477440049,0.234694782938555,,-2.2660422985824047,,
,4925.0,3710.0,1109.0,4280.0,,,,,,,0.088715504171519,-0.855538105604602,0.234790422673566,,-2.2576902245350414,,
,4925.0,3708.0,1110.0,4279.0,,,,,,,0.0887141517103515,-0.855529164350465,0.234856686378448,,-2.236602732060557,,
,4924.0,3713.0,1112.0,4275.0,,,,,,,0.0887179719252843,-0.855528333095093,0.23519131004396,,-2.2009776584954523,,
,4923.0,3710.0,1110.0,4280.0,,,,,,,0.0887183192770385,-0.855560458828119,0.235059512001927,,-2.1486994744964663,,
,4924.0,3708.0,1109.0,4277.0,,,,,,,0.0887204387711464,-0.855655040792289,0.234991925618836,,-2.077432579676589,,
,4927.0,3711.0,1110.0,4280.0,,,,,,,0.0887174854433554,-0.855373145706065,0.235089844034904,,-1.984772746279771,,
,4924.0,3706.0,1108.0,4276.0,,,,,,,0.0887205596210927,-0.855405854954571,0.235093897350333,,-1.8684475012605357,,
,4923.0,3708.0,1108.0,4277.0,,,,,,,0.0887233400367586,-0.855718946825477,0.234806572218717,,-1.7265493502057694,,
,4924.0,3710.0,1107.0,4276.0,,,,,,,0.0887200130816176,-0.855645655772386,0.234648684549493,,-1.5577800327888767,,
,4922.0,3709.0,1108.0,4277.0,,,,,,,0.0887162599904295,-0.855830017238423,0.234443578549163,,-1.3616801236613183,,
,4920.0,3710.0,1107.0,4277.0,,,,,,,0.088722722610571,-0.85618296654722,0.234297778755621,,-1.1388170848626031,,
,4923.0,3709.0,1107.0,4273.0,,,,,,,0.0887166525041598,-0.856430725907657,0.234203550395322,,-0.8909071623044142,,
,4921.0,3704.0,1107.0,4275.0,,,,,,,0.0887114847403764,-0.856353036733009,0.234249574457406,,-0.6208525915111879,,
,4921.0,3707.0,1108.0,4276.0,,,,,,,0.0887125862879798,-0.856140911489775,0.234110868008287,,-0.332684749519934,,
,4920.0,3707.0,1108.0,4275.0,0.0,5174.0,,,,,0.0887153877081282,-0.856529691257009,0.234237306730285,,-0.03141464972061287,,
,4923.0,3709.0,1108.0,4277.0,,,,,,,0.0887150826296294,-0.856698274664305,0.234121474787767,,0.2771972136291769,,
,4921.0,3713.0,1107.0,4278.0,,,,,,,0.0887167617950205,-0.856434806742859,0.234212410446696,,0.5869306852056116,,
,4924.0,3709.0,1108.0,4279.0,,,,,,,0.0887169208107325,-0.856600845459603,0.23396070938587,,0.8914281708747949,,
,4923.0,3708.0,1110.0,4277.0,,,,,,,0.0887119540452466,-0.856672844269863,0.233835349168971,,1.1845191139465774,,
,4924.0,3709.0,1108.0,4276.0,,,,,,,0.0887055655342381,-0.856910270439032,0.233834830303914,,1.4605174071045548,,
,4921.0,3709.0,1108.0,4275.0,,,,,,,0.0887021561315156,-0.857543430393097,0.23358785179034,,1.7144669430497683,,
,4925.0,3712.0,1108.0,4279.0,,,,,,,0.0886982535111108,-0.857762885453723,0.233310608940952,,1.9423182785491055,,
,4922.0,3711.0,1108.0,4276.0,,,,,,,0.0886980621754811,-0.858687778272057,0.233084779243921,,2.1410293562249705,,
,4922.0,3709.0,1109.0,4277.0,,,,,,,0.0886949393765534,-0.858761175694298,0.233039854249954,,2.308593573157469,,
,4926.0,3713.0,1110.0,4278.0,,,,,,,0.0886889070816612,-0.859133311637762,0.232207190521541,,2.4440069139974483,,
,4925.0,3713.0,1111.0,4278.0,,,,,,,0.0886908512690421,-0.859790742984598,0.231868376695379,,2.547190534791127,,
,4924.0,3714.0,1111.0,4282.0,,,,,,,0.0886862180214134,-0.859876186161497,0.231939766139155,,2.6188856256711848,,
,4926.0,3712.0,1108.0,4279.0,,,,,,,0.0886792771630596,-0.86011779367775,0.231657107795614,,2.6605345792799824,,
,4927.0,3716.0,1109.0,4282.0,,,,,,,0.0886772375802151,-0.860651152314373,0.231457528140979,,2.6741580437805665,,
,4926.0,3714.0,1111.0,4284.0,,,,,,,0.0886810410493842,-0.860893155935025,0.231309235658007,,2.6622326953504394,,
,4929.0,3716.0,1109.0,4282.0,,,,,,,0.0886761711228347,-0.86104302135199,0.231036214936648,,2.6275704289893924,,
,4928.0,3714.0,1107.0,4284.0,,,,,,,0.0886779770706832,-0.861102957052053,0.231340274957745,,2.5731968444859588,,
,4929.0,3716.0,1111.0,4283.0,,,,,,,0.0886719115205927,-0.861046351138245,0.231022348443682,,2.5022260441316853,,
,4930.0,3718.0,1110.0,4282.0,,,,,,,0.0886765924029572,-0.861034616673875,0.231395228589703,,2.4177302713764073,,
,4932.0,3718.0,1108.0,4286.0,,,,,,,0.0886754429938658,-0.860844332746408,0.231236902449827,,2.322606682886154,,
2025-07-03 23:24:16,4931.0,3719.0,1109.0,4287.0,,,,,,2025/07/03 11:24:16 PM,0.0886747975240196,-0.86092150904308,0.231128186205809,,2.219448691177689,,
,4931.0,3717.0,1111.0,4287.0,,,,,,,0.0886792530339024,-0.860862447106383,0.23125445652175,,2.110434170532553,,
,4932.0,3716.0,1109.0,4288.0,,,,,,,0.0886779790079358,-0.861016264008835,0.231227086462611,,1.9972452763192798,,
,4934.0,3716.0,1112.0,4291.0,,,,,,,0.0886685117650681,-0.860904809558196,0.231344495054466,,1.8810331269725968,,
,4935.0,3721.0,1109.0,4289.0,,,,,,,0.0886712310191696,-0.860764647812966,0.231313067604514,,1.762435121725978,,
,4936.0,3720.0,1111.0,4290.0,,,,,,,0.0886700707165247,-0.861060908538813,0.23126990339853,,1.6416447385827313,,
,4938.0,3722.0,1111.0,4290.0,,,,,,,0.0886754103305629,-0.861217104719899,0.23120797289158,,1.518525359400976,,
,4939.0,3720.0,1111.0,4290.0,,,,,,,0.0886741618410879,-0.861070294394975,0.231058503391473,,1.3927527297408346,,
,4939.0,3722.0,1111.0,4291.0,,,,,,,0.0886711574466949,-0.861178999685988,0.230608734646863,,1.2639662291852127,,
,4940.0,3721.0,1112.0,4294.0,,,,,,,0.088664830594644,-0.861471337863718,0.230766854615734,,1.1319079163172099,,
,4940.0,3721.0,1113.0,4295.0,,,,,,,0.0886647803909804,-0.861730903726046,0.230778097536585,,0.9965306112066062,,
,4941.0,3724.0,1111.0,4292.0,,,,,,,0.088667173333398,-0.862311055553824,0.230470131030852,,0.8580618311684904,,
,4941.0,3723.0,1111.0,4295.0,,,,,,,0.0886686087946703,-0.862414746666787,0.230271817734667,,0.7170183433296192,,
,4942.0,3726.0,1111.0,4297.0,,,,,,,0.0886664190836157,-0.862788281570585,0.230298989513657,,0.5741749698378078,,
,4941.0,3723.0,1111.0,4295.0,,,,,,,0.0886580887333981,-0.862905685163407,0.229859124493235,,0.43049907874570514,,
,4942.0,3725.0,1112.0,4297.0,,,,,,,0.0886587953822111,-0.86310543491688,0.229552330430503,,0.2870668943809149,,
,4941.0,3726.0,1113.0,4296.0,,,,,,,0.0886544506087446,-0.863447783521197,0.229676031941821,,0.14497826636807967,,
,4942.0,3723.0,1112.0,4296.0,,,,,,,0.0886493354538702,-0.86380338408058,0.229450575824756,,0.005283282191810605,,
,4941.0,3723.0,1110.0,4294.0,,,,,,,0.0886454023458639,-0.863963559546523,0.229200528795917,,-0.13107131752175524,,
,4941.0,3724.0,1111.0,4291.0,,,,,,,0.0886460878660049,-0.864490484902469,0.228744033360958,,-0.2632737980817635,,
,4940.0,3719.0,1111.0,4291.0,,,,,,,0.0886390087690585,-0.864798114922981,0.228627265223921,,-0.3906600302116928,,
,4935.0,3717.0,1110.0,4286.0,,,,,,,0.0886399639950623,-0.865152339121021,0.228221766685976,,-0.5127133469981048,,
,4934.0,3718.0,1108.0,4285.0,,,,,,,0.088634628974684,-0.865702988698338,0.227883726306978,,-0.6290595481558935,,
,4932.0,3714.0,1109.0,4277.0,,,,,,,0.0886281888294258,-0.866076404855348,0.227630771488888,,-0.7394644964560121,,
,4929.0,3712.0,1106.0,4272.0,,,,,,,0.0886297308538163,-0.865885300378407,0.227686901000703,,-0.843839348981156,,
,4927.0,3711.0,1106.0,4272.0,,,,,,,0.0886292201176642,-0.86602397610654,0.227111689556042,,-0.9422544424589266,,
,4923.0,3711.0,1106.0,4268.0,,,,,,,0.0886231246695038,-0.866370174717939,0.227091267422774,,-1.034957928408059,,
,4923.0,3709.0,1106.0,4266.0,,,,,,,0.0886176373155061,-0.8669753593328,0.227060875916092,,-1.1223906185946744,,
,4921.0,3706.0,1107.0,4263.0,,,,,,,0.0886173380767514,-0.867084221701435,0.226573264995942,,-1.2051856058885884,,
,4918.0,3705.0,1104.0,4260.0,,,,,,,0.0886163112575901,-0.867343940379197,0.226656471601921,,-1.284141186380222,,
,4917.0,3703.0,1106.0,4262.0,,,,,,,0.0886178381411513,-0.867175179446405,0.226703912048202,,-1.3601586731287432,,
,4913.0,3704.0,1104.0,4259.0,,,,,,,0.0886159092021836,-0.86719239481735,0.226660890437611,,-1.4341422438361457,,
,4915.0,3699.0,1104.0,4257.0,,,,,,,0.0886167041579294,-0.867115256433231,0.226773357571855,,-1.5068649021367562,,
,4912.0,3702.0,1102.0,4258.0,,,,,,,0.0886173954022929,-0.86695542378761,0.226653146971332,,-1.5788117106514947,,
,4911.0,3698.0,1102.0,4257.0,,,,,,,0.0886177131432134,-0.867272497755505,0.22643157036088,,-1.650017478952298,,
,4910.0,3703.0,1104.0,4254.0,,,,,,,0.0886120247250667,-0.867234617889138,0.226477576077864,,-1.7199200301148014,,
,4910.0,3698.0,1103.0,4252.0,,,,,,,0.0886097748662528,-0.86754224999986,0.226251311232988,,-1.7872512436815098,,
,4910.0,3699.0,1103.0,4254.0,,,,,,,0.0886049810594608,-0.868174833375859,0.225726299577383,,-1.8499858197896069,,
,4908.0,3699.0,1103.0,4255.0,,,,,,,0.0885954538295095,-0.868957183783583,0.225021138172422,,-1.9053620930682718,,
,4911.0,3699.0,1103.0,4256.0,,,,,,,0.0885920820529045,-0.869621843366593,0.224693286666555,,-1.9499808417721467,,
,4909.0,3696.0,1102.0,4257.0,,,,,,,0.0885850307524277,-0.870685763237455,0.223756331359712,,-1.9799782990926835,,
,4910.0,3700.0,1101.0,4256.0,,,,,,,0.0885727871476995,-0.871787635305268,0.223494025582049,,-1.9912604762598503,,
,4910.0,3699.0,1102.0,4254.0,,,,,,,0.0885737751773192,-0.872323446209313,0.222662582067417,,-1.9797792404008143,,
,4908.0,3700.0,1102.0,4256.0,,,,,,,0.0885772989502829,-0.871822992103385,0.222513985956015,,-1.9418271362918564,,
,4907.0,3698.0,1098.0,4256.0,,,,,,,0.0885693658198909,-0.871862806079566,0.22295705463561,,-1.8743274116654831,,
,4910.0,3697.0,1101.0,4255.0,,,,,,,0.088574675571514,-0.871963261202383,0.223195074551384,,-1.7750973684457136,,
,4908.0,3700.0,1102.0,4256.0,,,,,,,0.0885728460180666,-0.871542483842691,0.223800360503108,,-1.643066363781824,,
,4909.0,3701.0,1104.0,4256.0,,,,,,,0.0885783603764229,-0.87093826200354,0.224012830639857,,-1.4784339562296263,,
,4910.0,3699.0,1101.0,4255.0,,,,,,,0.0885848744905163,-0.870551636253332,0.224304451154076,,-1.2827582505410076,,
,4909.0,3699.0,1103.0,4256.0,,,,,,,0.0885864685606939,-0.870073164441825,0.224582680587992,,-1.0589689873476118,,
,4909.0,3698.0,1103.0,4256.0,,,,,,,0.088588960657822,-0.870228537195911,0.224687668564935,,-0.8113041389164651,,
,4910.0,3699.0,1104.0,4255.0,,,,,,,0.0885925361180342,-0.869390046651305,0.224754864944324,,-0.5451725676516784,,
,4911.0,3699.0,1100.0,4254.0,,,,,,,0.0885934039163069,-0.86995619202069,0.225194968761754,,-0.26694851743499437,,
,4912.0,3700.0,1103.0,4257.0,,,,,,,0.0885941460257117,-0.869771597045369,0.225071283173678,,0.016293578561881843,,
,4911.0,3699.0,1101.0,4255.0,,,,,,,0.0885962820856841,-0.870028517192319,0.224937169513912,,0.29709276943185087,,
,4910.0,3697.0,1102.0,4253.0,,,,,,,0.0885873220840383,-0.870074097431512,0.22498439729709,,0.5679492774643415,,
,4909.0,3698.0,1101.0,4253.0,,,,,,,0.0885893321212925,-0.869947560783431,0.224656411530372,,0.8216880039139945,,
,4908.0,3699.0,1104.0,4253.0,,,,,,,0.0885842153354751,-0.870261055088107,0.224706347006136,,1.051816084648651,,
,4908.0,3698.0,1103.0,4252.0,,,,,,,0.0885874863009406,-0.870794540546974,0.224561117100737,,1.2528502017697252,,
,4908.0,3698.0,1101.0,4251.0,,,,,,,0.0885889096315577,-0.871087574991694,0.224296205774294,,1.4205885555783822,,
,4906.0,3696.0,1100.0,4252.0,,,,,,,0.0885868049959161,-0.870886503188125,0.224302612900537,,1.552303908903792,,
,4907.0,3700.0,1101.0,4254.0,,,,,,,0.0885809979397141,-0.870690273291064,0.223902637057415,,1.64683847886023,,
,4910.0,3699.0,1102.0,4251.0,,,,,,,0.0885892736974786,-0.870241796417368,0.224200156270416,,1.7045890012693232,,
,4909.0,3698.0,1103.0,4252.0,,,,,,,0.0885861265808254,-0.870649607525121,0.224250144059186,,1.727380809361102,,
,4910.0,3700.0,1102.0,4252.0,,,,,,,0.0885831282840597,-0.870167383237544,0.224632480426807,,1.7182422102001078,,
,4909.0,3698.0,1101.0,4252.0,,,,,,,0.0885930894986517,-0.870123776370444,0.2246958202499,,1.6811028324119623,,
,4911.0,3698.0,1104.0,4252.0,,,,,,,0.0885878967591632,-0.870126048230253,0.224540233649302,,1.6204492648196556,,
,4909.0,3697.0,1103.0,4252.0,,,,,,,0.0885862667175853,-0.869957284746755,0.224619610390507,,1.540975688848809,,
,4910.0,3699.0,1103.0,4253.0,,,,,,,0.088583712299052,-0.870300633072876,0.224866187791987,,1.4472652294453605,,
,4909.0,3698.0,1105.0,4253.0,,,,,,,0.0885870397415795,-0.870194969942066,0.224840930838307,,1.3435302696847078,,
,4911.0,3701.0,1101.0,4257.0,,,,,,,0.0885848513508411,-0.870219877068348,0.224877746034638,,1.233429131983928,,
,4911.0,3702.0,1102.0,4255.0,,,,,,,0.0885849566595696,-0.870264332089367,0.224435533032602,,1.1199646130938883,,
,4911.0,3699.0,1104.0,4256.0,,,,,,,0.0885884676897403,-0.870606194810203,0.224380308857293,,1.0054587335359735,,
,4911.0,3699.0,1101.0,4258.0,,,,,,,0.0885832588603236,-0.870401044649172,0.224443690079737,,0.891589208456974,,
,4913.0,3703.0,1105.0,4257.0,,,,,,,0.0885848785077689,-0.87016395193975,0.224228493163219,,0.7794677503274492,,
,4910.0,3702.0,1103.0,4256.0,,,,,,,0.0885772561091826,-0.87050452870811,0.224564534274978,,0.6697390728224225,,
,4913.0,3703.0,1104.0,4258.0,,,,,,,0.0885730605579517,-0.870593073155358,0.224427467329187,,0.5626823494201597,,
,4913.0,3705.0,1104.0,4257.0,,,,,,,0.0885787745479849,-0.870203194304092,0.224498198013724,,0.4583030143502393,,
,4914.0,3705.0,1105.0,4260.0,,,,,,,0.0885768606002229,-0.869855276997962,0.224766738118021,,0.35641043535244404,,
,4915.0,3705.0,1104.0,4260.0,,,,,,,0.0885806350462446,-0.869902462935584,0.224922116226495,,0.2566837734578475,,
,4917.0,3705.0,1105.0,4262.0,,,,,,,0.0885845955577534,-0.869055151673369,0.225311308239516,,0.15873213367407946,,
,4916.0,3705.0,1105.0,4260.0,,,,,,,0.0885824846168378,-0.86829222139338,0.225522263259965,,0.06215509891999577,,
,4919.0,3706.0,1104.0,4265.0,,,,,,,0.0885859606734617,-0.868071310322724,0.225751278106864,,-0.03339320048204485,,
,4918.0,3707.0,1106.0,4261.0,,,,,,,0.088593662424899,-0.867170702499304,0.226230029913845,,-0.12813748170102363,,
,4920.0,3708.0,1106.0,4263.0,,,,,,,0.0886038133087596,-0.866838509242865,0.226286479733772,,-0.22211706293725397,,
,4922.0,3711.0,1107.0,4265.0,,,,,,,0.0886054541821053,-0.866598295871308,0.226899938345207,,-0.31513169058816487,,
,4923.0,3712.0,1105.0,4266.0,,,,,,,0.0886118364448095,-0.866506444160908,0.226907054422935,,-0.40670651544664943,,
,4924.0,3712.0,1107.0,4268.0,,,,,,,0.0886193327958458,-0.866194617055409,0.227269140292928,,-0.49608494195399105,,
,4923.0,3711.0,1106.0,4266.0,,,,,,,0.0886185997571018,-0.865831315657227,0.227642333864238,,-0.5822558551571791,,
,4925.0,3710.0,1107.0,4268.0,,,,,,,0.0886218478789701,-0.866254152630216,0.227649945308292,,-0.6640177234218109,,
,4928.0,3714.0,1106.0,4269.0,,,,,,,0.0886268178348716,-0.865508654544059,0.227546883579396,,-0.7400767334496268,,
,4926.0,3713.0,1107.0,4272.0,,,,,,,0.0886227977826305,-0.865277279969764,0.227924707323961,,-0.8091703317823277,,
,4928.0,3713.0,1108.0,4272.0,,,,,,,0.0886257690611302,-0.865273996344359,0.227797961177986,,-0.8702025970749123,,
,4926.0,3714.0,1107.0,4274.0,,,,,,,0.0886239917492723,-0.865366451122846,0.227827177068611,,-0.9223750167871463,,
,4929.0,3714.0,1108.0,4273.0,,,,,,,0.0886260690725006,-0.865009882978329,0.227764692616604,,-0.9652961520273482,,
,4929.0,3719.0,1107.0,4273.0,,,,,,,0.0886290591830473,-0.865370991801612,0.228319228214714,,-0.9990561407561431,,
,4932.0,3716.0,1110.0,4273.0,,,,,,,0.088626962201251,-0.865341787654786,0.227989308157068,,-1.0242562689147565,,
,4932.0,3717.0,1107.0,4276.0,,,,,,,0.088626752853867,-0.865325002149689,0.227785296940986,,-1.0419891221190216,,
,4932.0,3718.0,1110.0,4278.0,,,,,,,0.0886274560648611,-0.865349729143528,0.227851831599375,,-1.0537704078879648,,
,4934.0,3718.0,1110.0,4276.0,,,,,,,0.0886267751902434,-0.865782546810925,0.227800439144306,,-1.061428730177347,,
,4935.0,3720.0,1109.0,4278.0,,,,,,,0.0886284587340332,-0.865903460018992,0.227557917149656,,-1.0669637420660383,,
,4933.0,3718.0,1110.0,4280.0,,,,,,,0.088626913840995,-0.86581336256745,0.227692289112518,,-1.072385663347435,,
,4935.0,3721.0,1109.0,4277.0,,,,,,,0.088624105723739,-0.866188256896788,0.22735369842017,,-1.0795498180395038,,
,4934.0,3720.0,1107.0,4279.0,,,,,,,0.0886207335044852,-0.866401740958698,0.22697038550542,,-1.089998600481731,,
,4937.0,3722.0,1111.0,4281.0,,,,,,,0.088617623447449,-0.866910856634938,0.226856375405359,,-1.1048205082609122,,
,4937.0,3719.0,1109.0,4276.0,,,,,,,0.0886162592250905,-0.867444737677702,0.226607505903434,,-1.1245325043883334,,
,4936.0,3719.0,1109.0,4276.0,,,,,,,0.0886120214681805,-0.867372316962474,0.226150137072969,,-1.1489892188375257,,
,4934.0,3721.0,1108.0,4276.0,0.0,6195.0,,,,,0.0886060438033038,-0.868042915055055,0.225946795800424,,-1.1773212766610937,,
,4932.0,3717.0,1106.0,4272.0,,,,,,,0.0886032188858601,-0.867850413547025,0.225842667603851,,-1.2079053979265648,,
,4930.0,3715.0,1107.0,4270.0,,,,,,,0.0886022955451198,-0.868330368088815,0.225806902730866,,-1.2383701429217646,,
,4928.0,3714.0,1107.0,4266.0,,,,,,,0.0886035658292309,-0.868760604582304,0.225531477770681,,-1.2656423290979375,,
,4927.0,3713.0,1105.0,4263.0,,,,,,,0.088593698851904,-0.868744322783401,0.225312109400879,,-1.2860394426812047,,
,4923.0,3709.0,1104.0,4259.0,,,,,,,0.0885928606165223,-0.868852746437897,0.225142760076198,,-1.2954122658589822,,
,4925.0,3707.0,1105.0,4259.0,,,,,,,0.0885907224354258,-0.869158008490797,0.224871475335585,,-1.28933912022958,,
,4923.0,3707.0,1104.0,4256.0,,,,,,,0.0885921521433094,-0.869238565835455,0.224894213528688,,-1.2633685691946066,,
,4916.0,3704.0,1103.0,4254.0,,,,,,,0.0885940537694961,-0.869184900828916,0.225219095562799,,-1.213301481699935,,
,4915.0,3704.0,1103.0,4251.0,,,,,,,0.0885939860852986,-0.868755822172511,0.225134376241769,,-1.1354966893543645,,
,4912.0,3702.0,1103.0,4248.0,,,,,,,0.0885932272073142,-0.868808960080183,0.225200828661499,,-1.027177882957441,,
,4914.0,3702.0,1102.0,4250.0,,,,,,,0.0885945240078478,-0.868782046301525,0.225321011872344,,-0.8867139491621552,,
,4911.0,3701.0,1104.0,4247.0,,,,,,,0.0885858844885183,-0.869342003100828,0.224951144369429,,-0.7138421912201371,,
,4909.0,3700.0,1102.0,4247.0,,,,,,,0.0885834220537444,-0.870356530158123,0.224684477797899,,-0.5098056335938908,,
,4909.0,3698.0,1102.0,4245.0,,,,,,,0.0885772580875611,-0.871422343715988,0.223977428278826,,-0.2773829125409248,,
,4908.0,3699.0,1102.0,4244.0,,,,,,,0.0885690628192327,-0.871723916025861,0.223220597920168,,-0.020801292920147586,,
,4909.0,3698.0,1103.0,4247.0,,,,,,,0.0885538370595333,-0.872590980841552,0.222448245292651,,0.2544623692398762,,
,4906.0,3699.0,1101.0,4243.0,,,,,,,0.0885501963780729,-0.873640731306774,0.222186473154296,,0.5419743028227546,,
,4906.0,3700.0,1105.0,4244.0,,,,,,,0.0885445256489291,-0.874307504620228,0.221498065809341,,0.8347010384603937,,
,4906.0,3700.0,1105.0,4244.0,,,,,,,0.0885460358731669,-0.874899250064695,0.221532114959826,,1.1253956325923236,,
,4908.0,3701.0,1103.0,4245.0,,,,,,,0.0885446209679679,-0.874642972314651,0.221576183035739,,1.406975894305904,,
2025-07-03 23:24:17,4909.0,3700.0,1102.0,4244.0,,,,,,2025/07/03 11:24:17 PM,0.0885462566874373,-0.874318352944046,0.221863838609454,,1.6728611680930265,,
,4908.0,3698.0,1102.0,4246.0,,,,,,,0.0885515566013365,-0.874325514479258,0.22199611457393,,1.9172419915574488,,
,4909.0,3702.0,1103.0,4244.0,,,,,,,0.0885530075632151,-0.872895094469135,0.2222310182055,,2.1352674322716756,,
,4907.0,3701.0,1100.0,4247.0,,,,,,,0.0885569628595692,-0.873188319036855,0.222801589780652,,2.3231464613247494,,
,4909.0,3699.0,1102.0,4248.0,,,,,,,0.0885582006070632,-0.872343127526899,0.223047002101363,,2.478170723237169,,
,4908.0,3700.0,1104.0,4249.0,,,,,,,0.0885663953963897,-0.871666214256727,0.223555557424815,,2.5986748111249685,,
,4908.0,3702.0,1102.0,4246.0,,,,,,,0.0885692861068594,-0.871342236632388,0.223730796638816,,2.683955012501781,,
,4910.0,3702.0,1102.0,4248.0,,,,,,,0.0885744112628599,-0.871368500713115,0.2240226022913,,2.7341675586182568,,
,4910.0,3701.0,1102.0,4248.0,,,,,,,0.0885724276712505,-0.870612469183956,0.224259198373362,,2.7502232048981634,,
,4909.0,3701.0,1103.0,4250.0,,,,,,,0.0885775729193845,-0.870683941405456,0.22397346075923,,2.7336882672364022,,
,4913.0,3703.0,1102.0,4249.0,,,,,,,0.0885801712352758,-0.870496008511131,0.224322418240187,,2.686695154838054,,
,4910.0,3705.0,1103.0,4249.0,,,,,,,0.0885804935318653,-0.870635551791393,0.224304299586511,,2.6118596272052,,
,4910.0,3706.0,1104.0,4248.0,,,,,,,0.0885808410484896,-0.870597569999698,0.224037269716287,,2.5121984435367177,,
,4912.0,3703.0,1103.0,4248.0,,,,,,,0.0885750418816273,-0.870858202961855,0.224065203022477,,2.3910401364231415,,
,4913.0,3705.0,1104.0,4249.0,,,,,,,0.0885766839451836,-0.871182669048899,0.223891300593789,,2.251923095608501,,
,4912.0,3704.0,1104.0,4249.0,,,,,,,0.0885793258824116,-0.871024209076765,0.224311793621822,,2.098478337773868,,
,4910.0,3704.0,1102.0,4248.0,,,,,,,0.0885716773925729,-0.870797567232541,0.224175066050917,,1.9342986257495052,,
,4910.0,3704.0,1103.0,4248.0,,,,,,,0.0885673421446312,-0.871331568118058,0.223865484598727,,1.762800530584783,,
,4910.0,3702.0,1106.0,4249.0,,,,,,,0.0885743937990915,-0.871225679285305,0.223755704774561,,1.587090867898364,,
,4912.0,3703.0,1103.0,4247.0,,,,,,,0.0885749875641365,-0.871306368471963,0.223666229683827,,1.409852239421325,,
,4911.0,3703.0,1104.0,4247.0,,,,,,,0.0885625162611009,-0.871232893187517,0.223948232619563,,1.2332625497755274,,
,4910.0,3703.0,1104.0,4249.0,,,,,,,0.0885658414581995,-0.871476611363049,0.223315524511593,,1.0589597307038758,,
,4912.0,3704.0,1104.0,4248.0,,,,,,,0.0885727773801948,-0.871724091253212,0.223505944925732,,0.8880563920062188,,
,4910.0,3702.0,1103.0,4245.0,,,,,,,0.0885617662006674,-0.871542322113024,0.22301579368065,,0.7212015090425938,,
,4909.0,3702.0,1103.0,4248.0,,,,,,,0.088563196659653,-0.872759140089735,0.223091439310226,,0.5586792519278301,,
,4910.0,3702.0,1104.0,4245.0,,,,,,,0.0885593394144825,-0.87321628079518,0.222728876017655,,0.40052986581455113,,
,4911.0,3702.0,1102.0,4247.0,,,,,,,0.0885536970698172,-0.873899009201649,0.221998190485411,,0.2466748723518723,,
,4910.0,3703.0,1105.0,4248.0,,,,,,,0.0885472953654761,-0.874247730179277,0.221838793122135,,0.0970290992765913,,
,4911.0,3703.0,1102.0,4247.0,,,,,,,0.0885447045817029,-0.874917897011756,0.221199868759436,,-0.04841499447444912,,
,4912.0,3704.0,1102.0,4250.0,,,,,,,0.0885396745589418,-0.875824547076076,0.221146832725982,,-0.1895400786744238,,
,4909.0,3703.0,1102.0,4248.0,,,,,,,0.0885375057182145,-0.876325482620919,0.22087062014172,,-0.32609660327261797,,
,4910.0,3707.0,1103.0,4250.0,,,,,,,0.0885370889233533,-0.876576298259054,0.220484632262628,,-0.4577312429873596,,
,4913.0,3704.0,1103.0,4248.0,,,,,,,0.0885343371469355,-0.876147124790168,0.220730506731179,,-0.5840413095139563,,
,4913.0,3706.0,1103.0,4250.0,,,,,,,0.0885311450286594,-0.876398434019282,0.220509222108864,,-0.7046422083309842,,
,4914.0,3707.0,1104.0,4254.0,,,,,,,0.0885310448908229,-0.876182220379627,0.22065358471352,,-0.8192350410801226,,
,4915.0,3705.0,1104.0,4253.0,,,,,,,0.0885325406529717,-0.876307817029397,0.220462405132815,,-0.9276638361668081,,
,4916.0,3709.0,1105.0,4252.0,,,,,,,0.0885394714766538,-0.875958619173,0.220617199484734,,-1.0299553287031935,,
,4918.0,3710.0,1105.0,4256.0,,,,,,,0.0885385802302273,-0.87588729977244,0.22094964290462,,-1.1263377051911723,,
,4917.0,3707.0,1104.0,4257.0,,,,,,,0.0885405621561411,-0.875871856204798,0.220721777049922,,-1.2172377301159831,,
,4918.0,3711.0,1107.0,4256.0,,,,,,,0.0885398380834599,-0.87613577391177,0.221069438541989,,-1.3032578376493915,,
,4917.0,3711.0,1106.0,4257.0,,,,,,,0.0885384388253278,-0.875344785572667,0.221081660217371,,-1.3851358864973826,,
,4919.0,3712.0,1104.0,4257.0,,,,,,,0.088537572764583,-0.876001838976435,0.22058613473269,,-1.4636903492326845,,
,4921.0,3712.0,1107.0,4258.0,,,,,,,0.0885368669120817,-0.875594437906753,0.220767153725034,,-1.5397529814583981,,
,4921.0,3712.0,1108.0,4258.0,,,,,,,0.0885456120687673,-0.875936578406129,0.220722922049152,,-1.6140899165532119,,
,4919.0,3713.0,1108.0,4261.0,,,,,,,0.0885402625792602,-0.875575923564661,0.220722199564796,,-1.6873113269093594,,
,4923.0,3713.0,1108.0,4262.0,,,,,,,0.088537023327003,-0.87574140904811,0.220449708283324,,-1.7597701704494941,,
,4924.0,3714.0,1106.0,4263.0,,,,,,,0.0885401954762772,-0.875880141611712,0.22060385101812,,-1.8314527756275918,,
,4926.0,3715.0,1108.0,4262.0,,,,,,,0.0885341388780462,-0.875907111498582,0.220479709617355,,-1.9018679552236808,,
,4924.0,3717.0,1108.0,4265.0,,,,,,,0.0885322726410813,-0.875632268820844,0.220447697135383,,-1.9699458793539684,,
,4925.0,3718.0,1108.0,4266.0,,,,,,,0.0885216349361657,-0.876046203421975,0.220402223595725,,-2.0339616037296615,,
,4927.0,3718.0,1107.0,4265.0,,,,,,,0.0885304803152733,-0.876259008680907,0.220432628866254,,-2.0914997765968764,,
,4927.0,3718.0,1108.0,4266.0,,,,,,,0.088533548562169,-0.875949806057402,0.219982020068591,,-2.1394760470556577,,
,4930.0,3720.0,1110.0,4269.0,,,,,,,0.0885335184313056,-0.875989767966997,0.220215018882951,,-2.1742269241416396,,
,4928.0,3721.0,1109.0,4268.0,,,,,,,0.0885326254146417,-0.876525558320215,0.219775075034139,,-2.1916734541636997,,
,4930.0,3721.0,1107.0,4270.0,,,,,,,0.0885263582311176,-0.877012456609181,0.219912209461825,,-2.187555587036611,,
,4931.0,3721.0,1108.0,4268.0,,,,,,,0.0885278238710765,-0.876950300550507,0.219624179174475,,-2.1577243642745367,,
,4932.0,3717.0,1108.0,4270.0,,,,,,,0.0885219025830383,-0.87754534510221,0.219496889475218,,-2.098469328735129,,
,4933.0,3721.0,1110.0,4271.0,,,,,,,0.0885218743863535,-0.878191601275,0.219238124918122,,-2.006850460777175,,
,4934.0,3722.0,1108.0,4274.0,,,,,,,0.0885217737166657,-0.878637718776812,0.218614323383282,,-1.8809994292426038,,
,4933.0,3722.0,1108.0,4272.0,,,,,,,0.0885188640422584,-0.87890540337677,0.218593432218327,,-1.720355716694914,,
,4934.0,3723.0,1109.0,4274.0,,,,,,,0.0885130874505686,-0.879737310528707,0.218124522744231,,-1.5258097466807896,,
,4933.0,3723.0,1109.0,4273.0,,,,,,,0.0885099400731785,-0.880089457341544,0.21787395436786,,-1.2997363223929443,,
,4932.0,3722.0,1107.0,4271.0,,,,,,,0.0884998526241162,-0.880645539910458,0.217054980620202,,-1.0459151797889283,,
,4931.0,3722.0,1107.0,4268.0,,,,,,,0.0884960184005461,-0.881170309664234,0.216681752247564,,-0.7693488477669498,,
,4931.0,3721.0,1107.0,4265.0,,,,,,,0.0884957459991249,-0.881937024551164,0.216321746679203,,-0.47599928852760076,,
,4929.0,3715.0,1109.0,4262.0,,,,,,,0.0884841089783744,-0.882416828024948,0.215788117334394,,-0.17247245121575977,,
,4926.0,3717.0,1108.0,4262.0,,,,,,,0.0884846628755897,-0.882817712585738,0.215895734248701,,0.13431700790753495,,
,4923.0,3714.0,1105.0,4257.0,,,,,,,0.088483780972667,-0.883052065397648,0.215267031719813,,0.4374701980748406,,
,4922.0,3713.0,1104.0,4255.0,,,,,,,0.0884845920720859,-0.883682041909935,0.215222500989982,,0.7303928555544564,,
,4921.0,3711.0,1102.0,4251.0,,,,,,,0.0884733284665018,-0.883816898544616,0.215253559840012,,1.0070326925172404,,
,4922.0,3711.0,1104.0,4249.0,,,,,,,0.08847602245083,-0.883908121248906,0.21517082649317,,1.2620594160093948,,
,4917.0,3707.0,1102.0,4247.0,,,,,,,0.0884722789898994,-0.884397705511092,0.214781309159084,,1.4909904508536513,,
,4913.0,3704.0,1102.0,4244.0,,,,,,,0.0884701957913881,-0.884647464183842,0.214584391461129,,1.6902709350428953,,
,4913.0,3704.0,1103.0,4243.0,,,,,,,0.088476618608127,-0.884040550888203,0.214212206377763,,1.857318020519043,,
,4914.0,3706.0,1104.0,4241.0,,,,,,,0.088476849326503,-0.884116688277449,0.214941553413565,,1.9905376217572173,,
,4911.0,3703.0,1102.0,4242.0,,,,,,,0.0884763075893332,-0.884153908332657,0.214922001734466,,2.0893179358826495,,
,4910.0,3702.0,1101.0,4244.0,,,,,,,0.0884793931440404,-0.884149444635748,0.214770332733183,,2.15399969163923,,
,4910.0,3703.0,1101.0,4241.0,,,,,,,0.0884733910798027,-0.884366675760413,0.214861182140891,,2.185819346265728,,
,4910.0,3705.0,1105.0,4241.0,,,,,,,0.0884668383030008,-0.884765685366821,0.214122458587942,,2.186819464821791,,
,4909.0,3703.0,1101.0,4238.0,,,,,,,0.0884655916130582,-0.885519369794018,0.214165191215012,,2.1597212797622922,,
,4907.0,3702.0,1102.0,4239.0,,,,,,,0.0884640745815783,-0.885668833354137,0.213778015108298,,2.1077584144406636,,
,4910.0,3704.0,1104.0,4241.0,,,,,,,0.088459121535046,-0.886643291458901,0.21381051082781,,2.0344775296547524,,
,4910.0,3701.0,1104.0,4240.0,,,,,,,0.088462925319062,-0.886311671393583,0.213972145405675,,1.9435196725399664,,
,4912.0,3701.0,1105.0,4240.0,,,,,,,0.0884532327682065,-0.887113699409214,0.213748188170175,,1.8384028792319598,,
,4910.0,3706.0,1102.0,4241.0,,,,,,,0.0884484574803965,-0.888382987191826,0.213373799274291,,1.7223295269825643,,
,4912.0,3705.0,1101.0,4241.0,,,,,,,0.0884474402473593,-0.887816007491219,0.213234613518194,,1.5980397188104751,,
,4911.0,3705.0,1100.0,4242.0,,,,,,,0.0884452091423999,-0.887317307924541,0.213454033719584,,1.467725286433435,,
,4910.0,3704.0,1101.0,4242.0,,,,,,,0.0884449413578879,-0.887132673835995,0.213563743322814,,1.3330099122158743,,
,4913.0,3708.0,1103.0,4245.0,,,,,,,0.0884501687293718,-0.886691701059208,0.213724268121363,,1.1949916134639789,,
,4911.0,3705.0,1101.0,4243.0,,,,,,,0.0884585540103589,-0.886247547613509,0.213913718034687,,1.0543359146202753,,
,4913.0,3705.0,1102.0,4244.0,,,,,,,0.0884592696553555,-0.885239465044155,0.214466615367659,,0.9114023358551154,,
,4915.0,3708.0,1104.0,4246.0,,,,,,,0.0884627101600532,-0.884991033977208,0.21500870870332,,0.766383950068755,,
,4916.0,3707.0,1102.0,4246.0,,,,,,,0.0884680905076279,-0.884174932029924,0.214808246208612,,0.6194400690016627,,
,4918.0,3707.0,1104.0,4245.0,,,,,,,0.0884722399338227,-0.884120799392777,0.215171263841113,,0.4708055581469691,,
,4917.0,3709.0,1104.0,4248.0,,,,,,,0.088467251681861,-0.883919879106217,0.215279608458333,,0.3208661993826854,,
,4917.0,3709.0,1104.0,4248.0,,,,,,,0.0884662488100136,-0.884104741272373,0.215135142553363,,0.17019657946874117,,
,4918.0,3707.0,1104.0,4246.0,,,,,,,0.0884699660510833,-0.884218853624526,0.215229081341618,,0.01956336218875074,,
,4917.0,3708.0,1104.0,4247.0,,,,,,,0.0884655115468158,-0.884396165701473,0.215008202774992,,-0.13009905747602143,,
,4915.0,3709.0,1104.0,4247.0,,,,,,,0.0884683665586617,-0.884634647091182,0.214894833067309,,-0.2777321036244101,,
,4916.0,3709.0,1104.0,4247.0,,,,,,,0.0884624735230705,-0.885285700044914,0.214777889948189,,-0.4222080261026181,,
,4918.0,3707.0,1104.0,4245.0,,,,,,,0.0884613060087365,-0.885282640575463,0.214820430733764,,-0.562390299856718,,
,4919.0,3708.0,1101.0,4245.0,,,,,,,0.0884581458158287,-0.885497685841432,0.214863572778127,,-0.6971952259337709,,
,4917.0,3708.0,1101.0,4246.0,,,,,,,0.0884621560389741,-0.884781691561927,0.214828545107268,,-0.8256520873469807,,
,4916.0,3707.0,1103.0,4245.0,,,,,,,0.0884636207850621,-0.884575227236562,0.214674402882707,,-0.9469600462928667,,
,4916.0,3710.0,1103.0,4243.0,,,,,,,0.088463508528301,-0.884650356974606,0.215108219750628,,-1.0605398028287236,,
,4915.0,3708.0,1103.0,4244.0,,,,,,,0.0884643082850156,-0.884366615625139,0.215223385444917,,-1.1660767805187682,,
,4916.0,3708.0,1103.0,4244.0,,,,,,,0.0884646381623159,-0.88436730411722,0.215105238042609,,-1.2635504927114343,,
,4919.0,3708.0,1103.0,4245.0,0.0,7216.0,,,,,0.0884656792133952,-0.884474397569515,0.215190772625563,,-1.353242454564393,,
,4916.0,3708.0,1100.0,4245.0,,,,,,,0.0884627202531787,-0.884391669580869,0.215481863113664,,-1.4357137148288535,,
,4918.0,3710.0,1104.0,4246.0,,,,,,,0.088473150463926,-0.884425262788352,0.215564887349547,,-1.5117440917309568,,
,4918.0,3709.0,1102.0,4245.0,,,,,,,0.0884722888829754,-0.884549165974304,0.215662322499366,,-1.5822291780158524,,
,4916.0,3710.0,1102.0,4245.0,,,,,,,0.0884692781566777,-0.884184150040916,0.215272111995309,,-1.6480376582907121,,
,4921.0,3710.0,1102.0,4246.0,,,,,,,0.0884682431365282,-0.884135983512095,0.214797486073312,,-1.7098390936895156,,
,4916.0,3710.0,1102.0,4246.0,,,,,,,0.0884648318446112,-0.884168396059553,0.214830452901949,,-1.7679194757511139,,
,4917.0,3711.0,1104.0,4246.0,,,,,,,0.0884685224283772,-0.88428080183288,0.214937211461095,,-1.822007140975841,,
,4918.0,3711.0,1105.0,4248.0,,,,,,,0.0884636618829073,-0.884474587621189,0.214995452206776,,-1.8711340038403286,,
,4921.0,3713.0,1103.0,4249.0,,,,,,,0.088473261246146,-0.884256786853303,0.214994391310699,,-1.9135558269812813,,
,4921.0,3711.0,1105.0,4250.0,,,,,,,0.0884710933327311,-0.883808493912633,0.215135224905428,,-1.9467502263957368,,
,4922.0,3713.0,1104.0,4251.0,,,,,,,0.0884761031502529,-0.88343051749754,0.215717214669424,,-1.9675027128178957,,
,4925.0,3712.0,1103.0,4249.0,,,,,,,0.0884767258918517,-0.883044422126436,0.215869601031107,,-1.9720802629685723,,
,4924.0,3711.0,1105.0,4251.0,,,,,,,0.0884852273244523,-0.882299146716109,0.21648105543391,,-1.9564802095915168,,
,4926.0,3711.0,1105.0,4253.0,,,,,,,0.0884879237943881,-0.882264555184466,0.216998165082177,,-1.9167316586949004,,
,4925.0,3714.0,1104.0,4255.0,,,,,,,0.088495381813111,-0.880939682832897,0.21768796554103,,-1.8492193270644328,,
,4927.0,3715.0,1105.0,4257.0,,,,,,,0.0885023294548403,-0.880071855317167,0.217781948944539,,-1.7509970943370816,,
,4926.0,3715.0,1107.0,4254.0,,,,,,,0.0885072928529764,-0.87952702720271,0.218485969969737,,-1.620060795944217,,
,4928.0,3716.0,1106.0,4259.0,,,,,,,0.0885105225123509,-0.878783538835118,0.218827414217602,,-1.4555557944406268,,
,4929.0,3716.0,1104.0,4258.0,,,,,,,0.0885183009442339,-0.877910278306513,0.219376323945991,,-1.2579032456902715,,
,4930.0,3719.0,1104.0,4255.0,,,,,,,0.088524934177257,-0.877483740848844,0.219904534370274,,-1.0288385166032634,,
2025-07-03 23:24:18,4930.0,3720.0,1105.0,4258.0,,,,,,2025/07/03 11:24:18 PM,0.0885300239494724,-0.877356612235087,0.22016443172673,,-0.7713648207790615,,
,4934.0,3720.0,1105.0,4260.0,,,,,,,0.088531766712387,-0.876541636523023,0.220854699577098,,-0.48963358652961764,,
,4935.0,3719.0,1106.0,4261.0,,,,,,,0.0885366928813471,-0.876169007861749,0.221084018423401,,-0.18876909606959644,,
,4939.0,3722.0,1108.0,4261.0,,,,,,,0.088536907083313,-0.875300376221291,0.221109968965321,,0.12534240765712795,,
,4935.0,3721.0,1103.0,4263.0,,,,,,,0.0885347357716048,-0.87485829442014,0.221284078577964,,0.44628000790218,,
,4936.0,3721.0,1106.0,4264.0,,,,,,,0.0885447219455614,-0.874318781600201,0.221672326619296,,0.7673169852748851,,
,4941.0,3722.0,1109.0,4266.0,,,,,,,0.0885463822545307,-0.874060999108934,0.222308925423393,,1.0816426673126,,
,4939.0,3722.0,1107.0,4264.0,,,,,,,0.088549321905113,-0.873299693727288,0.222351715029471,,1.3825745977681811,,
,4938.0,3722.0,1106.0,4266.0,,,,,,,0.0885511483690203,-0.872635418328132,0.222865631835282,,1.6637620492346483,,
,4940.0,3725.0,1109.0,4268.0,,,,,,,0.0885551303715024,-0.872020631901,0.22339403599165,,1.919382399060142,,
,4938.0,3725.0,1106.0,4267.0,,,,,,,0.0885594157850365,-0.87168158269077,0.223893416097377,,2.1443295747557705,,
,4941.0,3725.0,1109.0,4268.0,,,,,,,0.0885691838551556,-0.870672406460639,0.22417914315531,,2.3343897373118905,,
,4942.0,3726.0,1109.0,4270.0,,,,,,,0.0885700962387162,-0.870032561718505,0.224854474540882,,2.4863947791761514,,
,4944.0,3726.0,1111.0,4266.0,,,,,,,0.0885791005169449,-0.869696684740559,0.224933651023368,,2.5983401900050067,,
,4940.0,3726.0,1109.0,4267.0,,,,,,,0.0885811744028307,-0.869137298664583,0.225327784003822,,2.6694516202986422,,
,4942.0,3726.0,1106.0,4264.0,,,,,,,0.0885809498037435,-0.868685444481174,0.226212838622888,,2.700185325582498,,
,4941.0,3724.0,1109.0,4265.0,,,,,,,0.0885866167642172,-0.868082627797357,0.226152972266098,,2.6921524782548243,,
,4942.0,3723.0,1107.0,4264.0,,,,,,,0.0886029888607796,-0.867421265181741,0.226716050820542,,2.6479660820547974,,
,4938.0,3721.0,1103.0,4259.0,,,,,,,0.0885994284633067,-0.867625992506114,0.227023470734931,,2.5710207435844015,,
,4937.0,3718.0,1106.0,4253.0,,,,,,,0.0886021311742325,-0.867071668665151,0.226846018071334,,2.4652274389997384,,
,4935.0,3720.0,1104.0,4254.0,,,,,,,0.0885977157555548,-0.866282818312421,0.226980626552075,,2.334734371692535,,
,4931.0,3717.0,1104.0,4250.0,,,,,,,0.0886010723029454,-0.86679319804202,0.226853324212257,,2.1836680464987266,,
,4931.0,3713.0,1103.0,4247.0,,,,,,,0.0886064820651584,-0.866343644388943,0.22728795548604,,2.0159246258289967,,
,4928.0,3712.0,1104.0,4246.0,,,,,,,0.0886093452780037,-0.866059059846653,0.227563475143404,,1.835031738951597,,
,4923.0,3711.0,1103.0,4242.0,,,,,,,0.0886076741823153,-0.866271024127335,0.227375852309061,,1.6440879237897545,,
,4922.0,3707.0,1101.0,4239.0,,,,,,,0.0886183112636311,-0.865739553898266,0.22765994595492,,1.4457736614769048,,
,4924.0,3709.0,1100.0,4238.0,,,,,,,0.0886180978008559,-0.865657099206617,0.228008518401788,,1.2424168771425796,,
,4922.0,3707.0,1100.0,4237.0,,,,,,,0.0886159777567271,-0.86519052321281,0.228046181598315,,1.0360885665520738,,
,4921.0,3705.0,1099.0,4236.0,,,,,,,0.0886155146611272,-0.864788569374152,0.228127046600449,,0.8287018514607698,,
,4920.0,3705.0,1099.0,4233.0,,,,,,,0.0886220784222067,-0.865219601571065,0.228153614434827,,0.6220903389636807,,
,4919.0,3704.0,1099.0,4235.0,,,,,,,0.0886219623868028,-0.864994911680057,0.228503329441319,,0.4180483905422246,,
,4918.0,3703.0,1098.0,4232.0,,,,,,,0.0886270377426005,-0.864897726677127,0.228578636830557,,0.21832540119019334,,
,4918.0,3704.0,1099.0,4235.0,,,,,,,0.0886334612611292,-0.864485098953988,0.229051832969319,,0.02457658891852634,,
,4918.0,3703.0,1098.0,4234.0,,,,,,,0.0886393451482283,-0.863919219848787,0.229541113011965,,-0.1617180445429064,,
,4919.0,3703.0,1099.0,4233.0,,,,,,,0.0886388330686554,-0.863155803777875,0.230070821330052,,-0.33934889199387536,,
,4915.0,3700.0,1098.0,4230.0,,,,,,,0.0886461791595259,-0.862876469847121,0.230204571974795,,-0.5074663296235788,,
,4919.0,3702.0,1100.0,4232.0,,,,,,,0.0886493026863993,-0.862401495847685,0.230143920792067,,-0.6656465127052964,,
,4921.0,3702.0,1098.0,4236.0,,,,,,,0.0886468286188719,-0.86213721375421,0.230325753523888,,-0.813919173709902,,
,4919.0,3706.0,1099.0,4234.0,,,,,,,0.0886509159400423,-0.862177606807664,0.230679906237474,,-0.9527487628612957,,
,4918.0,3705.0,1098.0,4236.0,,,,,,,0.0886487278891132,-0.8622102786882,0.230729075063344,,-1.0829668323848651,,
,4920.0,3704.0,1100.0,4237.0,,,,,,,0.0886483832854195,-0.861931305988443,0.230585790603135,,-1.2056606539529322,,
,4923.0,3704.0,1099.0,4237.0,,,,,,,0.0886461249909671,-0.862094704317284,0.230517162934098,,-1.3220297319950003,,
,4923.0,3707.0,1098.0,4237.0,,,,,,,0.0886489694846393,-0.862165914435717,0.230253225560911,,-1.4332266846095028,,
,4921.0,3705.0,1100.0,4239.0,,,,,,,0.0886419348402443,-0.861985612058412,0.230265227957336,,-1.5402005533693879,,
,4923.0,3706.0,1098.0,4237.0,,,,,,,0.0886415830087731,-0.862381932740994,0.230502768767868,,-1.6435585220512514,,
,4923.0,3705.0,1100.0,4238.0,,,,,,,0.0886533803962865,-0.862321082239975,0.231143637338206,,-1.743457100611477,,
,4924.0,3708.0,1099.0,4239.0,,,,,,,0.0886608709614324,-0.861512832815642,0.231232413879746,,-1.8395279067263774,,
,4924.0,3706.0,1101.0,4241.0,,,,,,,0.0886610290602398,-0.860589104591606,0.231536667906656,,-1.9308383158099083,,
,4924.0,3705.0,1099.0,4240.0,,,,,,,0.0886701602743543,-0.860224958828934,0.232152682995049,,-2.015884729905242,,
,4926.0,3709.0,1100.0,4239.0,,,,,,,0.0886769775975838,-0.859383015461837,0.232508251207648,,-2.0926160061630084,,
,4925.0,3707.0,1098.0,4239.0,,,,,,,0.0886840705421632,-0.85901589819743,0.233009831313,,-2.1584857527790677,,
,4926.0,3708.0,1099.0,4239.0,,,,,,,0.0886835983635816,-0.858593416291688,0.233248644576193,,-2.210533697177966,,
,4924.0,3704.0,1098.0,4238.0,,,,,,,0.0886911463226185,-0.857874928050023,0.233462645543797,,-2.2454973727619447,,
,4924.0,3707.0,1100.0,4238.0,,,,,,,0.0886955651299954,-0.857718033313101,0.233636640981849,,-2.259955376088081,,
,4926.0,3707.0,1099.0,4238.0,,,,,,,0.0887015862189024,-0.857492390304276,0.234162218951231,,-2.250502006787455,,
,4927.0,3707.0,1100.0,4237.0,,,,,,,0.0886972661279982,-0.856804715768261,0.234189409165182,,-2.213950082571199,,
,4924.0,3709.0,1099.0,4238.0,,,,,,,0.0887058459020674,-0.856365289762542,0.234565008514778,,-2.147554286385336,,
,4925.0,3708.0,1099.0,4236.0,,,,,,,0.0887062007645089,-0.856652732744211,0.234670341041471,,-2.0492419661995402,,
,4925.0,3708.0,1098.0,4237.0,,,,,,,0.0887014854323745,-0.856139255771673,0.234761906207949,,-1.9178326453476464,,
,4927.0,3706.0,1098.0,4238.0,,,,,,,0.088706347668172,-0.855753691469704,0.23529276749501,,-1.753223020362684,,
,4925.0,3706.0,1099.0,4236.0,,,,,,,0.0887142421196524,-0.855291059019362,0.235446755779046,,-1.5565128945455926,,
,4925.0,3709.0,1097.0,4238.0,,,,,,,0.0887182054103418,-0.855169477442753,0.235556576286815,,-1.3300509898711297,,
,4928.0,3705.0,1100.0,4238.0,,,,,,,0.088718940006878,-0.854608255283196,0.235783336444006,,-1.0773880744808177,,
,4927.0,3709.0,1099.0,4238.0,,,,,,,0.0887269230053067,-0.854086070193429,0.236117108354987,,-0.8031366580828407,,
,4928.0,3707.0,1097.0,4238.0,,,,,,,0.0887329121665757,-0.853537183569243,0.236817208034402,,-0.5127489574505899,,
,4927.0,3707.0,1098.0,4237.0,,,,,,,0.0887278039406511,-0.853170940609539,0.236734533370586,,-0.21223540203826993,,
,4926.0,3708.0,1101.0,4238.0,,,,,,,0.0887368062226088,-0.852709400665056,0.237196289021946,,0.09214708735041097,,
,4927.0,3708.0,1099.0,4240.0,,,,,,,0.0887389251957941,-0.852340095778896,0.237260465757505,,0.3942052936978231,,
,4931.0,3708.0,1099.0,4242.0,,,,,,,0.0887516144790569,-0.852255833295974,0.237629745247489,,0.6880886053288442,,
,4929.0,3708.0,1100.0,4242.0,,,,,,,0.0887491789709871,-0.852089104133612,0.237325008611891,,0.9685128400867266,,
,4930.0,3713.0,1100.0,4240.0,,,,,,,0.088744697845128,-0.852184465996461,0.237320184757131,,1.2309143159085585,,
,4930.0,3711.0,1099.0,4241.0,,,,,,,0.0887419422359884,-0.852459041639892,0.237365461100432,,1.471530468327645,,
,4931.0,3713.0,1099.0,4244.0,,,,,,,0.0887386015083609,-0.852518977455898,0.237144010925598,,1.687414309455313,,
,4932.0,3712.0,1098.0,4245.0,,,,,,,0.0887462640338774,-0.85286285640806,0.236997269610726,,1.876398692214163,,
,4937.0,3712.0,1100.0,4245.0,,,,,,,0.0887420153960062,-0.853027726042125,0.236642111912966,,2.037030681938124,,
,4935.0,3714.0,1098.0,4246.0,,,,,,,0.0887382567627876,-0.85312203500624,0.236938339202697,,2.168495686062129,,
,4939.0,3715.0,1099.0,4245.0,,,,,,,0.0887358160360598,-0.85309031140191,0.236816995587452,,2.2705462748014,,
,4936.0,3716.0,1099.0,4247.0,,,,,,,0.0887368706646175,-0.853164343668678,0.236899115882955,,2.343443669308864,,
,4937.0,3717.0,1101.0,4249.0,,,,,,,0.0887372626483554,-0.852597719951427,0.237371361676565,,2.387912571588978,,
,4939.0,3712.0,1102.0,4251.0,,,,,,,0.0887426763534293,-0.852952171235524,0.237192472492516,,2.405103909700079,,
,4943.0,3715.0,1100.0,4249.0,,,,,,,0.0887448177601123,-0.85221954247932,0.23720201606781,,2.3965563118925375,,
,4940.0,3716.0,1102.0,4251.0,,,,,,,0.0887441355877546,-0.851897065749524,0.237382856454315,,2.3641464059052915,,
,4943.0,3719.0,1102.0,4252.0,,,,,,,0.0887469870968458,-0.851721312939656,0.237582754789102,,2.3100205506047566,,
,4943.0,3719.0,1101.0,4253.0,,,,,,,0.088743737114872,-0.851613728003521,0.23786789497352,,2.236505940378807,,
,4944.0,3719.0,1099.0,4255.0,,,,,,,0.0887518359265767,-0.851654920042906,0.237718587085396,,2.1460060493552895,,
,4945.0,3721.0,1102.0,4252.0,,,,,,,0.0887537277837581,-0.851899120316027,0.23796852818137,,2.0408921405715814,,
,4947.0,3722.0,1102.0,4254.0,,,,,,,0.0887547508873207,-0.851375854966435,0.238064729674955,,1.9234066252073603,,
,4948.0,3722.0,1101.0,4257.0,,,,,,,0.0887566928586717,-0.851121564641111,0.238412424995819,,1.7955936282904805,,
,4951.0,3724.0,1102.0,4256.0,,,,,,,0.0887622062708492,-0.850929365209027,0.23830037818361,,1.6592671735241324,,
,4948.0,3724.0,1103.0,4258.0,,,,,,,0.0887632488721471,-0.850847263619998,0.238525560143699,,1.5160196859578952,,
,4949.0,3722.0,1101.0,4258.0,,,,,,,0.0887667533606346,-0.84989345521738,0.23833022651178,,1.3672654038976946,,
,4950.0,3725.0,1101.0,4258.0,,,,,,,0.0887636337706254,-0.849983783893187,0.238779033449153,,1.2143066779555458,,
,4950.0,3726.0,1101.0,4261.0,,,,,,,0.0887691412351996,-0.850262770989666,0.238852338772939,,1.0584071070159071,,
,4952.0,3726.0,1104.0,4262.0,,,,,,,0.0887680928041803,-0.849810797996641,0.239091066049865,,0.9008545198658521,,
,4954.0,3728.0,1102.0,4262.0,,,,,,,0.0887722606474292,-0.849817416913331,0.239316328462644,,0.742999027161376,,
,4957.0,3727.0,1106.0,4263.0,,,,,,,0.0887731275157859,-0.849228616048037,0.239098439429077,,0.5862563981992068,,
,4957.0,3726.0,1104.0,4262.0,,,,,,,0.0887766393480846,-0.848821111665846,0.239752171549554,,0.4320740982957585,,
,4957.0,3728.0,1103.0,4265.0,,,,,,,0.0887715621650611,-0.849149662384291,0.239415455629292,,0.28186519624970907,,
,4957.0,3727.0,1101.0,4262.0,,,,,,,0.0887764675782285,-0.848925250181731,0.239563531117871,,0.13692221462246829,,
,4953.0,3726.0,1104.0,4261.0,,,,,,,0.0887746181450708,-0.849071496423213,0.239377007209476,,-0.001673060593445525,,
,4955.0,3722.0,1100.0,4258.0,,,,,,,0.0887780460248102,-0.849082039346124,0.239630175184818,,-0.13312782729957776,,
,4954.0,3722.0,1102.0,4256.0,,,,,,,0.08877375883981,-0.848998004297301,0.239149501069025,,-0.25699216228248234,,
,4952.0,3722.0,1098.0,4253.0,,,,,,,0.0887736047656001,-0.849510436503256,0.239269788120924,,-0.3731816933072238,,
,4949.0,3719.0,1100.0,4251.0,,,,,,,0.088770977223462,-0.849861996716403,0.239125813686837,,-0.4819679318800007,,
,4945.0,3715.0,1099.0,4247.0,,,,,,,0.0887685925513255,-0.850021960823974,0.238825593907141,,-0.5839399383336529,,
,4941.0,3716.0,1097.0,4243.0,,,,,,,0.0887632711739729,-0.849971884207406,0.238693492663817,,-0.6799442974182047,,
,4941.0,3712.0,1098.0,4240.0,,,,,,,0.088764968028575,-0.85040881303604,0.238607627546059,,-0.7710120575207136,,
,4940.0,3711.0,1095.0,4238.0,,,,,,,0.0887525201450684,-0.850628004738156,0.238347140516365,,-0.8582813113937693,,
,4936.0,3704.0,1095.0,4233.0,0.0,8244.0,,,,,0.0887531108113198,-0.851182409534318,0.238145224677476,,-0.9429225563033267,,
,4933.0,3707.0,1095.0,4230.0,,,,,,,0.0887501423593601,-0.850932353282203,0.237721918690884,,-1.026071122539705,,
,4932.0,3707.0,1093.0,4226.0,,,,,,,0.088745758849215,-0.851733464229757,0.237658611144314,,-1.1087673773313957,,
,4931.0,3705.0,1094.0,4228.0,,,,,,,0.0887431418807679,-0.852157460136769,0.23737589514155,,-1.1919021361603153,,
,4931.0,3703.0,1091.0,4223.0,,,,,,,0.0887396911920314,-0.852483503144432,0.237244230237972,,-1.2761629934630763,,
,4929.0,3703.0,1091.0,4223.0,,,,,,,0.0887348046439954,-0.852893017149182,0.236857347016116,,-1.3619778406026712,,
