TimeLabel,MEAS1_PPG1,MEAS1_PPG2,MEAS1_PPG3,MEAS1_PPG4,ACCX,ACCY,ACCZ,HR_timestamp,HR_value,radar_timestamp,phase_rx0,phase_rx1,phase_rx2,timestep,n_process,original_rate,calculated_rate
2025-07-02 19:22:51,6107.0,726.0,5560.0,1277.0,80.0,1939.0,3422.0,2025-07-02 19:22:51,80.0,2025/07/02 07:22:51 PM,2.92800518747037,-3.00980703195829,-1.72053834963117,2025/07/02 07:22:51 PM,-1.695345002489493,18.32061004638672,21.163541036499293
,6101.0,725.0,5555.0,1275.0,91.0,1928.0,3437.0,2025-07-02 19:22:52,80.0,,2.92902911719489,-3.00966560313317,-1.72028115580836,2025/07/02 07:23:01 PM,-1.6044647899547326,20.62643241882324,22.67047836859157
,6100.0,723.0,5552.0,1275.0,107.0,1920.0,3459.0,2025-07-02 19:22:53,80.0,,2.92938761559072,-3.00981564403267,-1.72078393431557,2025/07/02 07:23:11 PM,-1.4833744721972815,21.33712577819824,21.832358674463936
,6094.0,722.0,5547.0,1274.0,105.0,1913.0,3458.0,2025-07-02 19:22:54,80.0,,2.92971911937743,-3.0097874749748,-1.71963004612036,2025/07/02 07:23:21 PM,-1.332327456172384,21.81818199157715,22.998759252128536
,6090.0,722.0,5542.0,1272.0,95.0,1912.0,3445.0,2025-07-02 19:22:55,80.0,,2.9293861661012,-3.00991374700141,-1.72029065624766,2025/07/02 07:23:31 PM,-1.152453889370779,22.711631774902344,22.544530940757358
,6084.0,721.0,5537.0,1270.0,102.0,1921.0,3466.0,2025-07-02 19:22:56,79.0,,2.93049741455493,-3.00980267221845,-1.7202910246529,2025/07/02 07:23:41 PM,-0.9456255504829967,22.5733642578125,23.6470588235294
,6081.0,720.0,5536.0,1269.0,100.0,1924.0,3458.0,2025-07-02 19:22:57,78.0,,2.93132224956922,-3.00996584922795,-1.72100596213072,2025/07/02 07:23:51 PM,-0.7143198441755348,22.77904319763184,23.20713926596281
,6076.0,719.0,5533.0,1267.0,90.0,1916.0,3477.0,2025-07-02 19:22:58,78.0,,2.93035511838179,-3.00969197569824,-1.71940233816902,2025/07/02 07:24:01 PM,-0.4615068794429855,23.14165496826172,23.529411764705877
,6073.0,720.0,5529.0,1268.0,89.0,1913.0,3462.0,2025-07-02 19:22:59,78.0,,2.93105090027408,-3.00991599650165,-1.72019256685023,2025/07/02 07:24:11 PM,-0.1905754871332669,23.504274368286133,23.43599257884971
,6072.0,717.0,5528.0,1268.0,87.0,1922.0,3411.0,2025-07-02 19:23:00,79.0,,2.93143710606399,-3.00979909112215,-1.71917285453014,2025/07/02 07:24:21 PM,0.09469787526543592,23.38766860961914,23.429608127721337
,6067.0,715.0,5522.0,1265.0,92.0,1931.0,3436.0,2025-07-02 19:23:01,79.0,,2.93135860182367,-3.00988039380459,-1.71951293570973,2025/07/02 07:24:31 PM,0.39014583220150645,23.48754501342773,24.90409207161127
,6068.0,717.0,5523.0,1265.0,94.0,1921.0,3449.0,2025-07-02 19:23:02,79.0,,2.93195387007461,-3.00996297953505,-1.72029886081437,2025/07/02 07:24:41 PM,0.6911901062495803,23.91304397583008,23.01490293086927
,6067.0,717.0,5521.0,1265.0,94.0,1923.0,3438.0,2025-07-02 19:23:03,80.0,,2.93286063628499,-3.01003213414912,-1.72010416046115,2025/07/02 07:24:51 PM,0.9928263002168154,23.80952262878418,24.034562433811484
,6063.0,715.0,5519.0,1263.0,88.0,1915.0,3444.0,2025-07-02 19:23:04,80.0,,2.93277850567292,-3.00984057667556,-1.7188156578349,2025/07/02 07:25:01 PM,1.289633563613615,23.84393119812012,24.0345624338115
,6058.0,715.0,5517.0,1260.0,81.0,1916.0,3467.0,2025-07-02 19:23:05,80.0,,2.9338196893732,-3.00965837524942,-1.71981772476441,2025/07/02 07:25:11 PM,1.5758246401706955,23.75809860229492,23.921440261865833
,6059.0,716.0,5513.0,1261.0,95.0,1920.0,3461.0,2025-07-02 19:23:06,81.0,,2.93324733018168,-3.00983806395482,-1.71951955056324,2025/07/02 07:25:21 PM,1.8453456112501416,23.930383682250977,24.74489795918363
,6057.0,715.0,5514.0,1261.0,80.0,1922.0,3445.0,2025-07-02 19:23:07,81.0,,2.9329134626819,-3.00980270932901,-1.71997454345392,2025/07/02 07:25:31 PM,2.092027790254998,24.17582321166992,23.329588245554667
,6053.0,712.0,5510.0,1263.0,87.0,1925.0,3465.0,2025-07-02 19:23:08,82.0,,2.93433301658844,-3.00985672632359,-1.71961172236159,2025/07/02 07:25:41 PM,2.309787048402681,24.140453338623047,24.74489795918363
,6056.0,716.0,5509.0,1261.0,77.0,1936.0,3491.0,2025-07-02 19:23:09,82.0,,2.9340160303871,-3.0097117837885,-1.72032236772793,,2.4928588031958627,,
,6052.0,714.0,5512.0,1259.0,72.0,1927.0,3492.0,2025-07-02 19:23:10,82.0,,2.93475415414861,-3.00975426475781,-1.71929211342638,,2.636050768462569,,
,6053.0,715.0,5511.0,1260.0,87.0,1924.0,3483.0,2025-07-02 19:23:11,82.0,,2.93587576624247,-3.00997697524163,-1.71951533280547,,2.7349914828587,,
,6053.0,716.0,5512.0,1261.0,87.0,1921.0,3483.0,2025-07-02 19:23:12,82.0,,2.93549619540183,-3.00989847135947,-1.71966190843473,,2.7863518910895277,,
,6052.0,715.0,5510.0,1260.0,80.0,1925.0,3461.0,2025-07-02 19:23:13,82.0,,2.93615850220972,-3.01013730671838,-1.71879775539702,,2.7880207404024295,,
,6053.0,716.0,5512.0,1261.0,90.0,1929.0,3463.0,2025-07-02 19:23:14,82.0,,2.93742001277459,-3.00977659341345,-1.71946126903707,,2.73922189117405,,
,6052.0,714.0,5511.0,1262.0,93.0,1922.0,3474.0,2025-07-02 19:23:15,82.0,,2.93614727477792,-3.009980757583,-1.71903864582012,,2.6405706442561443,,
,6054.0,717.0,5513.0,1262.0,91.0,1926.0,3482.0,2025-07-02 19:23:16,82.0,,2.93764070763123,-3.00999302564298,-1.71948422884142,,2.49407357680761,,
,6054.0,716.0,5515.0,1261.0,96.0,1927.0,3461.0,2025-07-02 19:23:17,83.0,,2.93627304899001,-3.00991050755163,-1.7197710944441,,2.3030796438163623,,
,6054.0,717.0,5512.0,1262.0,79.0,1928.0,3450.0,2025-07-02 19:23:18,83.0,,2.93430862726218,-3.01002707664317,-1.71968714771206,,2.072189336151041,,
,6053.0,714.0,5512.0,1260.0,94.0,1934.0,3429.0,2025-07-02 19:23:19,83.0,,2.92997075164563,-3.00959331428014,-1.72001049780336,,1.8071255967019821,,
,6051.0,714.0,5512.0,1260.0,82.0,1930.0,3446.0,2025-07-02 19:23:20,83.0,,2.9257516307661,-3.00977854315767,-1.72020882578942,,1.514567512660839,,
,6051.0,714.0,5512.0,1263.0,85.0,1923.0,3454.0,2025-07-02 19:23:21,83.0,,2.9220106907347,-3.00967486095591,-1.72073646723519,,1.2019468548931347,,
,6050.0,711.0,5510.0,1259.0,75.0,1921.0,3473.0,2025-07-02 19:23:22,82.0,,2.91671296652564,-3.0097602491411,-1.72152981300519,,0.877208251425089,,
,6053.0,712.0,5514.0,1261.0,90.0,1916.0,3452.0,2025-07-02 19:23:23,82.0,,2.91564802005562,-3.0097380198505,-1.72233678968232,,0.5485354769011798,,
,6051.0,715.0,5512.0,1262.0,100.0,1929.0,3454.0,2025-07-02 19:23:24,82.0,,2.91407215723686,-3.00968329806155,-1.72229323945142,,0.22404849906450403,,
,6051.0,713.0,5512.0,1261.0,89.0,1926.0,3462.0,2025-07-02 19:23:25,82.0,,2.91259485557296,-3.00974808864206,-1.72224725928252,,-0.08852146123945155,,
,6048.0,712.0,5512.0,1259.0,76.0,1918.0,3444.0,2025-07-02 19:23:26,83.0,,2.91059881443829,-3.00962616566725,-1.72294775630122,,-0.3821680631543801,,
,6050.0,713.0,5511.0,1258.0,82.0,1924.0,3463.0,2025-07-02 19:23:27,83.0,,2.9107665362068,-3.00973249086388,-1.72245989119009,,-0.6509413609186169,,
,6051.0,716.0,5513.0,1263.0,96.0,1935.0,3455.0,2025-07-02 19:23:28,83.0,,2.91005003058664,-3.00959534256569,-1.72257686968665,,-0.8902524563003406,,
,6049.0,713.0,5513.0,1262.0,87.0,1929.0,3457.0,2025-07-02 19:23:29,84.0,,2.90844625711721,-3.00968336088573,-1.72207051882689,,-1.0971225996190415,,
,6049.0,713.0,5513.0,1261.0,85.0,1923.0,3484.0,2025-07-02 19:23:30,83.0,,2.90964638631164,-3.00952010226712,-1.72246319728426,,-1.2703444097460526,,
,6047.0,713.0,5509.0,1261.0,97.0,1932.0,3465.0,2025-07-02 19:23:31,83.0,,2.9095067380737,-3.00957628695663,-1.72254314779758,,-1.4105251308915525,,
,6046.0,714.0,5512.0,1260.0,108.0,1932.0,3464.0,2025-07-02 19:23:32,82.0,,2.90860356839204,-3.00972226895241,-1.72259754783337,,-1.519991376862566,,
,6045.0,714.0,5511.0,1260.0,91.0,1927.0,3469.0,2025-07-02 19:23:33,82.0,,2.9104604874202,-3.00959270828401,-1.72306324712762,,-1.6025501945078522,,
,6045.0,715.0,5513.0,1261.0,74.0,1925.0,3487.0,2025-07-02 19:23:34,82.0,,2.90917210331875,-3.0094854279744,-1.72214071032697,,-1.6631190469142862,,
,6044.0,712.0,5510.0,1258.0,71.0,1931.0,3452.0,2025-07-02 19:23:35,82.0,,2.91032415547223,-3.00965858901084,-1.72265313014296,,-1.7072538515462665,,
,6045.0,712.0,5514.0,1259.0,73.0,1925.0,3451.0,2025-07-02 19:23:36,83.0,,2.91019832823961,-3.00957329889667,-1.72231037184237,,-1.7406169970404963,,
,6044.0,712.0,5513.0,1263.0,84.0,1928.0,3465.0,2025-07-02 19:23:37,84.0,,2.91138949841246,-3.00970338655333,-1.72223909476233,,-1.7684350779679154,,
,6048.0,715.0,5507.0,1261.0,77.0,1930.0,3470.0,2025-07-02 19:23:38,84.0,,2.91043157148247,-3.00966423528782,-1.7227602975655,,-1.7949985790259337,,
,6044.0,711.0,5512.0,1258.0,81.0,1927.0,3436.0,2025-07-02 19:23:39,84.0,,2.91069501735786,-3.00955716202832,-1.7223943133006,,-1.8232530187768263,,
,6046.0,711.0,5512.0,1261.0,90.0,1928.0,3444.0,2025-07-02 19:23:40,83.0,,2.91196584214726,-3.00937619632164,-1.72252481760628,,-1.854523450994136,,
,6043.0,712.0,5513.0,1260.0,99.0,1933.0,3423.0,2025-07-02 19:23:41,82.0,,2.91258585189187,-3.00965777820279,-1.72232514151899,,-1.8884021185609732,,
,6046.0,713.0,5513.0,1261.0,102.0,1936.0,3418.0,2025-07-02 19:23:42,82.0,,2.91130177272172,-3.00948796162933,-1.72232074755256,,-1.9228129697755671,,
,6045.0,714.0,5511.0,1260.0,94.0,1939.0,3435.0,2025-07-02 19:23:43,81.0,,2.91256581104911,-3.00956485490649,-1.72271155853304,,-1.954247594555455,,
,6049.0,712.0,5512.0,1262.0,89.0,1921.0,3455.0,2025-07-02 19:23:44,81.0,,2.9126237447702,-3.00959492873371,-1.72281868656774,,-1.9781466978256341,,
,6049.0,717.0,5515.0,1260.0,96.0,1936.0,3456.0,2025-07-02 19:23:45,81.0,,2.9121507078949,-3.00953753602166,-1.72321584678063,,-1.9893824651726375,,
,6048.0,711.0,5512.0,1262.0,95.0,1929.0,3448.0,2025-07-02 19:23:46,82.0,,2.91225812490702,-3.00962295074876,-1.72237693454852,,-1.9827839118225745,,
,6052.0,711.0,5515.0,1262.0,90.0,1921.0,3459.0,2025-07-02 19:23:47,82.0,,2.91420982800039,-3.00955117226091,-1.72164925792105,,-1.9536428316206822,,
,6049.0,713.0,5514.0,1261.0,90.0,1928.0,3485.0,2025-07-02 19:23:48,82.0,,2.91355794058783,-3.00970115075593,-1.72225670424913,,-1.8981432833020562,,
,6052.0,713.0,5516.0,1264.0,81.0,1929.0,3485.0,2025-07-02 19:23:49,82.0,,2.9144275692411,-3.00958066015625,-1.72220550038524,,-1.813670864650658,,
,6053.0,713.0,5516.0,1264.0,73.0,1937.0,3448.0,2025-07-02 19:23:50,82.0,,2.91411921907366,-3.00967920461141,-1.72235561653661,,-1.6989760021277993,,
,6053.0,715.0,5517.0,1261.0,76.0,1930.0,3439.0,2025-07-02 19:23:51,82.0,,2.91505020472138,-3.00961110610746,-1.7226947773967,,-1.5541850120951264,,
,6053.0,712.0,5519.0,1265.0,90.0,1917.0,3463.0,2025-07-02 19:23:52,82.0,,2.91540588008839,-3.00968850997142,-1.72198899033623,,-1.3806716115411395,,
,6056.0,712.0,5518.0,1262.0,86.0,1925.0,3433.0,2025-07-02 19:23:53,82.0,,2.91597390062696,-3.00957413202564,-1.72191882356488,,-1.1808183419215774,,
,6056.0,715.0,5525.0,1264.0,87.0,1926.0,3442.0,2025-07-02 19:23:54,82.0,,2.91528430631909,-3.0096001474737,-1.72263287799117,,-0.9577105583554594,,
,6057.0,715.0,5522.0,1264.0,90.0,1922.0,3446.0,2025-07-02 19:23:55,82.0,,2.91410765011882,-3.00971615477825,-1.72222693034692,,-0.7148136097328375,,
,6057.0,713.0,5523.0,1264.0,89.0,1927.0,3435.0,2025-07-02 19:23:56,81.0,,2.91421371729426,-3.00963355665844,-1.72232247943042,,-0.45568495800961717,,
,6058.0,715.0,5523.0,1264.0,90.0,1921.0,3443.0,2025-07-02 19:23:57,81.0,,2.91431449473,-3.00977004061295,-1.72243073225918,,-0.18376603420972362,,
,6061.0,718.0,5528.0,1267.0,83.0,1927.0,3450.0,2025-07-02 19:23:58,81.0,,2.91394443859484,-3.00969384937047,-1.72232845440846,,0.09771646494861821,,
,6062.0,714.0,5527.0,1266.0,79.0,1920.0,3457.0,2025-07-02 19:23:59,81.0,,2.91326849841656,-3.00957147293826,-1.72313409697622,,0.3857314610405774,,
,6059.0,713.0,5525.0,1264.0,81.0,1922.0,3450.0,2025-07-02 19:24:00,81.0,,2.91309929263137,-3.00961277820468,-1.72297034164783,,0.6773215692200534,,
,6064.0,715.0,5528.0,1268.0,66.0,1921.0,3486.0,2025-07-02 19:24:01,81.0,,2.91307628687432,-3.00972279984389,-1.72247226383167,,0.9694133263143199,,
,6065.0,716.0,5529.0,1267.0,82.0,1901.0,3454.0,2025-07-02 19:24:02,81.0,,2.91363074319488,-3.00958140934397,-1.72276386518312,,1.2586063104338225,,
,6066.0,715.0,5532.0,1269.0,81.0,1901.0,3429.0,2025-07-02 19:24:03,81.0,,2.91280986623173,-3.00949950165631,-1.7223959332959,,1.5409896277548263,,
,6070.0,716.0,5533.0,1271.0,84.0,1918.0,3436.0,2025-07-02 19:24:04,81.0,,2.9129604292958,-3.00972168788495,-1.72201398395302,,1.812027347753755,,
,6068.0,714.0,5532.0,1268.0,91.0,1928.0,3450.0,2025-07-02 19:24:05,81.0,,2.91378064615773,-3.00964133581574,-1.72288162255154,,2.066542076550961,,
,6070.0,715.0,5533.0,1271.0,85.0,1920.0,3431.0,2025-07-02 19:24:06,82.0,,2.91442110495045,-3.00942824033474,-1.72211048272275,,2.298810929940531,,
,6072.0,716.0,5537.0,1270.0,92.0,1932.0,3464.0,2025-07-02 19:24:07,82.0,,2.91472480832971,-3.00958587165541,-1.72278682398186,,2.502772699020104,,
,6072.0,716.0,5539.0,1272.0,90.0,1926.0,3479.0,2025-07-02 19:24:08,82.0,,2.91651018416263,-3.00965362352593,-1.72162385525426,,2.672330271238181,,
,6076.0,713.0,5539.0,1273.0,74.0,1926.0,3454.0,2025-07-02 19:24:09,82.0,,2.9145120055246,-3.00980845516836,-1.72150573915584,,2.801719440052718,,
,6074.0,719.0,5541.0,1273.0,57.0,1922.0,3490.0,2025-07-02 19:24:10,82.0,,2.91552951209824,-3.0096586848481,-1.72199255087985,,2.885905284052367,,
,6076.0,717.0,5541.0,1274.0,77.0,1925.0,3469.0,2025-07-02 19:24:11,82.0,,2.91604184236707,-3.00972351013357,-1.72248560785492,,2.920961777349285,,
,6078.0,719.0,5542.0,1274.0,72.0,1930.0,3467.0,2025-07-02 19:24:12,82.0,,2.91634632851486,-3.00942584282169,-1.72180290773466,,2.9043908325144483,,
,6082.0,717.0,5544.0,1275.0,81.0,1930.0,3424.0,2025-07-02 19:24:13,82.0,,2.91844427273807,-3.00965229478352,-1.72123828244175,,2.835344693896978,,
,6081.0,716.0,5545.0,1275.0,70.0,1920.0,3432.0,2025-07-02 19:24:14,82.0,,2.91853546414748,-3.00975511391673,-1.72190287891743,,2.7147299199401407,,
,6085.0,718.0,5550.0,1276.0,96.0,1925.0,3485.0,2025-07-02 19:24:15,82.0,,2.91886351493122,-3.00971598879444,-1.72187535621233,,2.5451890245987485,,
,6086.0,719.0,5551.0,1278.0,96.0,1924.0,3492.0,2025-07-02 19:24:16,82.0,,2.9200634835838,-3.00972917199744,-1.72187291548861,,2.330972357563397,,
,6084.0,717.0,5548.0,1275.0,89.0,1912.0,3493.0,2025-07-02 19:24:17,82.0,,2.92133329449285,-3.00956389088866,-1.72145458951256,,2.077723827769916,,
,6088.0,717.0,5553.0,1274.0,69.0,1917.0,3496.0,2025-07-02 19:24:18,82.0,,2.9206903382754,-3.00984713556216,-1.72166493609917,,1.7922081874797688,,
,6087.0,718.0,5555.0,1275.0,73.0,1919.0,3470.0,2025-07-02 19:24:19,82.0,,2.92249432887422,-3.00978814432969,-1.72139397334858,,1.482006060800493,,
,6088.0,722.0,5553.0,1278.0,80.0,1925.0,3470.0,2025-07-02 19:24:20,82.0,,2.92174782444213,-3.00978239715542,-1.72111004539332,,1.1551980676187183,,
,6089.0,720.0,5556.0,1279.0,69.0,1925.0,3478.0,2025-07-02 19:24:21,82.0,,2.9225390322885,-3.00993494560668,-1.72132745666593,,0.8200532448350746,,
,6090.0,721.0,5557.0,1279.0,85.0,1927.0,3461.0,2025-07-02 19:24:22,82.0,,2.92370899718916,-3.00984860593057,-1.72110262202443,,0.4847307861550845,,
,6091.0,720.0,5554.0,1278.0,83.0,1919.0,3438.0,2025-07-02 19:24:23,82.0,,2.923411545399,-3.00994341872428,-1.72179056337001,,0.15699891360432924,,
,6088.0,721.0,5554.0,1278.0,86.0,1921.0,3419.0,2025-07-02 19:24:24,82.0,,2.9234204591393,-3.00964276894008,-1.72047699597622,,-0.15602859059964083,,
,6085.0,722.0,5553.0,1277.0,84.0,1922.0,3419.0,2025-07-02 19:24:25,81.0,,2.92407637118664,-3.00983089467787,-1.72147978895969,,-0.44813834220438375,,
,6082.0,716.0,5546.0,1275.0,84.0,1925.0,3443.0,2025-07-02 19:24:26,81.0,,2.92394707057309,-3.00963767075822,-1.72100222501376,,-0.7142437307806149,,
,6081.0,716.0,5544.0,1275.0,95.0,1919.0,3469.0,2025-07-02 19:24:27,81.0,,2.92410857343807,-3.00980861298592,-1.71978451059172,,-0.9505846024214982,,
,6077.0,717.0,5543.0,1275.0,92.0,1931.0,3446.0,2025-07-02 19:24:28,81.0,,2.924594320508,-3.00976292356838,-1.72147686110396,,-1.1548861288673795,,
,6072.0,716.0,5541.0,1273.0,93.0,1930.0,3452.0,2025-07-02 19:24:29,81.0,,2.92605719436021,-3.00989854748294,-1.72068711657233,,-1.3264559156100695,,
,6067.0,716.0,5533.0,1271.0,85.0,1930.0,3491.0,2025-07-02 19:24:30,81.0,,2.92555698282194,-3.00975897364542,-1.72055980087024,,-1.4661950409254902,,
,6059.0,714.0,5529.0,1269.0,86.0,1928.0,3450.0,2025-07-02 19:24:31,81.0,,2.92636151488548,-3.00972023979732,-1.72127141709598,,-1.576501790715114,,
,6059.0,716.0,5527.0,1268.0,76.0,1937.0,3480.0,2025-07-02 19:24:32,81.0,,2.92729810037248,-3.00960573126358,-1.72085427367406,,-1.661057056542489,,
,6053.0,711.0,5522.0,1268.0,75.0,1930.0,3468.0,2025-07-02 19:24:33,81.0,,2.92623955943776,-3.009742798696,-1.72084932485606,,-1.7244954669306514,,
,6047.0,709.0,5516.0,1264.0,81.0,1926.0,3490.0,2025-07-02 19:24:34,80.0,,2.92763694779196,-3.00983414015773,-1.72002160860263,,-1.771982549015581,,
,6042.0,709.0,5513.0,1262.0,90.0,1933.0,3468.0,2025-07-02 19:24:35,80.0,,2.92812425184067,-3.00980939613169,-1.72074494028984,,-1.8087322198581117,,
,6041.0,712.0,5513.0,1263.0,77.0,1928.0,3427.0,2025-07-02 19:24:36,79.0,,2.92843389136332,-3.00968165180457,-1.720582472477,,-1.8395086882065066,,
,6035.0,710.0,5510.0,1262.0,88.0,1920.0,3453.0,2025-07-02 19:24:37,79.0,,2.92843033951837,-3.0098121162426,-1.72024524412919,,-1.8681615668501432,,
,6033.0,710.0,5506.0,1260.0,99.0,1913.0,3459.0,2025-07-02 19:24:38,79.0,,2.92789197971389,-3.00976739126291,-1.72117782449127,,-1.8972424373778567,,
,6027.0,708.0,5503.0,1257.0,103.0,1922.0,3453.0,2025-07-02 19:24:39,79.0,,2.92980038185596,-3.00979657717085,-1.72074690792382,,-1.927745317568182,,
,6027.0,709.0,5500.0,1259.0,105.0,1933.0,3460.0,2025-07-02 19:24:40,80.0,,2.92828759293852,-3.00967644221214,-1.72016039942625,,-1.9590026074917226,,
,6023.0,708.0,5498.0,1259.0,100.0,1932.0,3481.0,2025-07-02 19:24:41,80.0,,2.92942631265123,-3.00995657664778,-1.72082546270448,,-1.9887524694083836,,
,6020.0,708.0,5498.0,1256.0,89.0,1920.0,3483.0,2025-07-02 19:24:42,81.0,,2.92952186077773,-3.00967715868431,-1.72013828721001,,-2.013374132616483,,
,6017.0,707.0,5493.0,1254.0,86.0,1921.0,3472.0,2025-07-02 19:24:43,81.0,,2.92991954054883,-3.00997150943888,-1.72059918923318,,-2.0282663327463473,,
,6016.0,707.0,5493.0,1254.0,81.0,1923.0,3455.0,2025-07-02 19:24:44,81.0,,2.93031960803547,-3.0100217478075,-1.7202630031694,,-2.0283244360557937,,
,6014.0,705.0,5490.0,1255.0,94.0,1928.0,3457.0,2025-07-02 19:24:45,81.0,,2.93015997558083,-3.00989855326212,-1.72035010882351,,-2.0084580265759717,,
,6012.0,704.0,5490.0,1252.0,85.0,1929.0,3457.0,2025-07-02 19:24:46,81.0,,2.92980242577922,-3.00995782570958,-1.72074431385605,,-1.964086251188997,,
,6010.0,705.0,5489.0,1253.0,93.0,1917.0,3467.0,2025-07-02 19:24:47,81.0,,2.93213376234742,-3.00981637903186,-1.72044375158405,,-1.8915538634081628,,
,6008.0,706.0,5488.0,1253.0,79.0,1921.0,3451.0,2025-07-02 19:24:48,81.0,,2.93179040380988,-3.00971588821186,-1.72004120897377,,-1.7884247649057499,,
,6004.0,704.0,5487.0,1253.0,96.0,1922.0,3448.0,2025-07-02 19:24:49,81.0,,2.93248210522135,-3.00987497620152,-1.71996284044557,,-1.6536286641466602,,
,6007.0,705.0,5490.0,1253.0,94.0,1916.0,3443.0,2025-07-02 19:24:50,81.0,,2.93299978963242,-3.01007730971058,-1.71996414170653,,-1.487457237192362,,
,6005.0,705.0,5486.0,1251.0,93.0,1919.0,3463.0,2025-07-02 19:24:51,81.0,,2.93273742424233,-3.00984155922377,-1.72022548186742,,-1.2914265584861533,,
,6005.0,705.0,5486.0,1251.0,79.0,1926.0,3454.0,2025-07-02 19:24:52,81.0,,2.93418832064906,-3.00986378815506,-1.72078390937684,,-1.068040426220812,,
,6004.0,706.0,5488.0,1253.0,85.0,1928.0,3456.0,2025-07-02 19:24:53,81.0,,2.93477862285451,-3.00978842001718,-1.71959215583675,,-0.8205021774164136,,
,6003.0,704.0,5488.0,1253.0,97.0,1928.0,3447.0,2025-07-02 19:24:54,81.0,,2.93421907003556,-3.00976502958646,-1.72000178153997,,-0.5524283485499515,,
,6004.0,705.0,5488.0,1252.0,97.0,1919.0,3449.0,2025-07-02 19:24:55,81.0,,2.93327533184799,-3.00994092742292,-1.71985272652343,,-0.2676144126618039,,
,6003.0,704.0,5483.0,1251.0,92.0,1926.0,3488.0,2025-07-02 19:24:56,81.0,,2.93404148892908,-3.00997751976068,-1.72035057808809,,0.030109566744499695,,
,6002.0,704.0,5486.0,1251.0,92.0,1921.0,3461.0,2025-07-02 19:24:57,81.0,,2.93301151547618,-3.00977407698778,-1.72030516758665,,0.33691562663278735,,
,6001.0,705.0,5486.0,1251.0,97.0,1920.0,3455.0,2025-07-02 19:24:58,81.0,,2.92970992538058,-3.00977337887243,-1.72072990527192,,0.6489131696464056,,
2025-07-02 19:22:52,6001.0,704.0,5486.0,1253.0,97.0,1913.0,3467.0,2025-07-02 19:24:59,81.0,2025/07/02 07:22:52 PM,2.92469399518219,-3.00951780233604,-1.7210513850388,,0.962011316801061,,
,5998.0,702.0,5484.0,1252.0,93.0,1912.0,3472.0,2025-07-02 19:25:00,81.0,,2.92115216814873,-3.00986541165091,-1.72142536557522,,1.2717520889529834,,
,6000.0,703.0,5486.0,1250.0,80.0,1917.0,3484.0,2025-07-02 19:25:01,80.0,,2.91585111973391,-3.0096999206715,-1.72257521602225,,1.5731634002007566,,
,5999.0,704.0,5486.0,1251.0,82.0,1930.0,3480.0,2025-07-02 19:25:02,80.0,,2.91471451214873,-3.00968120058138,-1.72261816161626,,1.860676510751415,,
,5999.0,705.0,5486.0,1252.0,88.0,1930.0,3480.0,2025-07-02 19:25:03,80.0,,2.91135249745925,-3.0096051747585,-1.72289293549197,,2.1281413110923344,,
,5995.0,704.0,5484.0,1251.0,90.0,1933.0,3467.0,2025-07-02 19:25:04,79.0,,2.91005313013444,-3.00955846796564,-1.72330942871019,,2.368957554316662,,
,5993.0,703.0,5484.0,1251.0,93.0,1931.0,3459.0,2025-07-02 19:25:05,79.0,,2.90814341085763,-3.00964827016508,-1.72372996793872,,2.5763231175794497,,
,5996.0,704.0,5485.0,1250.0,95.0,1925.0,3462.0,2025-07-02 19:25:06,79.0,,2.9065535513696,-3.00971695691394,-1.72317297910668,,2.743583148270425,,
,5995.0,704.0,5485.0,1250.0,88.0,1923.0,3456.0,2025-07-02 19:25:07,80.0,,2.90552163525382,-3.00946148490574,-1.72357591094194,,2.864648144745184,,
,5995.0,704.0,5481.0,1251.0,85.0,1927.0,3462.0,2025-07-02 19:25:08,79.0,,2.90556402015276,-3.00969416760914,-1.72392956134119,,2.9344365592390798,,
,5992.0,703.0,5482.0,1247.0,95.0,1930.0,3466.0,2025-07-02 19:25:09,79.0,,2.90564477378714,-3.00938684717434,-1.72347644047546,,2.94929051115939,,
,5993.0,703.0,5484.0,1251.0,86.0,1931.0,3474.0,2025-07-02 19:25:10,79.0,,2.90514409580952,-3.00980987965855,-1.72333680467751,,2.907313620284328,,
,5991.0,704.0,5484.0,1249.0,99.0,1926.0,3470.0,2025-07-02 19:25:11,78.0,,2.905514423553,-3.00944653032649,-1.72326792083661,,2.808588902766126,,
,5991.0,705.0,5484.0,1250.0,99.0,1907.0,3470.0,2025-07-02 19:25:12,79.0,,2.90602917604045,-3.00967033938663,-1.72342513887604,,2.6552512769492673,,
,5989.0,703.0,5482.0,1248.0,103.0,1922.0,3453.0,2025-07-02 19:25:13,79.0,,2.9060814005315,-3.00973149083224,-1.72342267705413,,2.4514100548334685,,
,5990.0,702.0,5482.0,1248.0,96.0,1921.0,3462.0,2025-07-02 19:25:14,80.0,,2.90705629311736,-3.00955832865851,-1.72298769788096,,2.202936616124304,,
,5987.0,704.0,5483.0,1247.0,90.0,1931.0,3450.0,2025-07-02 19:25:15,80.0,,2.90725550123267,-3.00970470385357,-1.72326753519875,,1.9171465823396054,,
,5990.0,703.0,5483.0,1248.0,95.0,1930.0,3457.0,2025-07-02 19:25:16,81.0,,2.90724865884525,-3.00952294262478,-1.72275567526871,,1.6024122682103465,,
,5990.0,703.0,5482.0,1248.0,91.0,1921.0,3470.0,2025-07-02 19:25:17,81.0,,2.90835321659077,-3.00984906309174,-1.7231092611111,,1.2677410305752406,,
,5986.0,704.0,5483.0,1251.0,77.0,1926.0,3491.0,2025-07-02 19:25:18,81.0,,2.90943598173797,-3.00997952846099,-1.72309903006373,,0.9223508259215825,,
,5991.0,703.0,5483.0,1252.0,82.0,1932.0,3468.0,2025-07-02 19:25:19,81.0,,2.90961033870947,-3.00987628691628,-1.72300746318502,,0.5752680015734476,,
,5989.0,702.0,5483.0,1249.0,88.0,1934.0,3474.0,2025-07-02 19:25:20,80.0,,2.90976109785179,-3.00967833472664,-1.72293331833407,,0.23496540981130853,,
,5990.0,702.0,5482.0,1249.0,99.0,1932.0,3461.0,2025-07-02 19:25:21,80.0,,2.90965804887888,-3.00973276483425,-1.7228947876436,,-0.09094783082820489,,
,5990.0,702.0,5484.0,1249.0,93.0,1933.0,3455.0,2025-07-02 19:25:22,80.0,,2.9102372180178,-3.00983903059567,-1.72330783521307,,-0.3959794898655095,,
,5991.0,704.0,5485.0,1251.0,87.0,1928.0,3445.0,2025-07-02 19:25:23,80.0,,2.91232391008879,-3.00970438456266,-1.72266866444808,,-0.6749491198706906,,
,5992.0,704.0,5485.0,1250.0,85.0,1920.0,3446.0,2025-07-02 19:25:24,81.0,,2.91134703621772,-3.00967436988976,-1.72256285914028,,-0.9241253647697635,,
,5993.0,703.0,5486.0,1251.0,76.0,1924.0,3464.0,2025-07-02 19:25:25,81.0,,2.91086361398123,-3.00979539143528,-1.72295180298789,,-1.1413052319057313,,
,5993.0,704.0,5487.0,1253.0,75.0,1929.0,3470.0,2025-07-02 19:25:26,81.0,,2.91218256782242,-3.00947581906788,-1.72281741332767,,-1.3258311397969738,,
,5993.0,704.0,5488.0,1251.0,78.0,1928.0,3462.0,2025-07-02 19:25:27,81.0,,2.91244885352861,-3.00990149764944,-1.72343359999983,,-1.4785370679055265,,
,5997.0,707.0,5493.0,1254.0,81.0,1918.0,3463.0,2025-07-02 19:25:28,82.0,,2.91387611660137,-3.00965308258389,-1.72282673365453,,-1.60161300086381,,
,5996.0,705.0,5490.0,1252.0,78.0,1917.0,3452.0,2025-07-02 19:25:29,82.0,,2.91352259007359,-3.00993565576807,-1.72247940084331,,-1.698379869723912,,
,5998.0,703.0,5491.0,1252.0,84.0,1933.0,3450.0,2025-07-02 19:25:30,82.0,,2.91479624731062,-3.00976569343249,-1.72230759268045,,-1.772975959565761,,
,5997.0,704.0,5493.0,1254.0,87.0,1924.0,3457.0,2025-07-02 19:25:31,81.0,,2.91468154431628,-3.00967482320478,-1.72309811871461,,-1.829968207279403,,
,5999.0,706.0,5493.0,1254.0,82.0,1924.0,3483.0,2025-07-02 19:25:32,81.0,,2.91470411334929,-3.00972662737662,-1.72212511727694,,-1.8739145601945202,,
,6002.0,704.0,5495.0,1254.0,93.0,1920.0,3484.0,2025-07-02 19:25:33,81.0,,2.9144717853549,-3.0096312466813,-1.72305314779017,,-1.9089136793359813,,
,5999.0,703.0,5494.0,1253.0,88.0,1919.0,3461.0,2025-07-02 19:25:34,81.0,,2.91491951020246,-3.00976967485086,-1.72220457219954,,-1.9381841090538885,,
,6002.0,706.0,5494.0,1253.0,83.0,1927.0,3451.0,2025-07-02 19:25:35,82.0,,2.9142051740163,-3.00950401203969,-1.72276512641523,,-1.963716041220802,,
,6003.0,705.0,5499.0,1255.0,102.0,1928.0,3463.0,2025-07-02 19:25:36,82.0,,2.91426643398023,-3.00988002803625,-1.72319369003379,,-1.9860349844465324,,
,6003.0,704.0,5498.0,1257.0,99.0,1921.0,3449.0,2025-07-02 19:25:37,82.0,,2.91271790771769,-3.00955477926211,-1.72327198020502,,-2.004108208134783,,
,6002.0,705.0,5500.0,1255.0,93.0,1934.0,3434.0,2025-07-02 19:25:38,82.0,,2.91151286050606,-3.00957865409038,-1.72350630062921,,-2.0154120457748306,,
,6003.0,702.0,5502.0,1255.0,91.0,1929.0,3481.0,2025-07-02 19:25:39,82.0,,2.91242409141755,-3.00989012460545,-1.72360825940985,,-2.01616150869701,,
,6006.0,706.0,5502.0,1255.0,95.0,1924.0,3455.0,2025-07-02 19:25:40,82.0,,2.91254025618366,-3.00964737057983,-1.72269328268357,,-2.00168428862841,,
,6010.0,706.0,5506.0,1256.0,87.0,1927.0,3453.0,2025-07-02 19:25:41,82.0,,2.9125420594083,-3.00962604369116,-1.72314569806981,,-1.9669013212786366,,
,6008.0,706.0,5506.0,1258.0,95.0,1924.0,3467.0,2025-07-02 19:25:42,82.0,,2.91149679321738,-3.00960307445659,-1.72312477732688,,-1.9068591859672783,,
,6008.0,707.0,5506.0,1256.0,90.0,1926.0,3451.0,2025-07-02 19:25:43,81.0,,2.91109739661354,-3.00951494244949,-1.72306713026762,,-1.8172500210904279,,
,6009.0,707.0,5509.0,1259.0,83.0,1925.0,3445.0,2025-07-02 19:25:44,81.0,,2.91171459402073,-3.00953192716544,-1.72224315441093,,-1.6948557081178564,,
,6015.0,708.0,5512.0,1259.0,80.0,1928.0,3458.0,2025-07-02 19:25:45,81.0,,2.91357821741694,-3.00987850808265,-1.72267900421272,,-1.5378654157749445,,
,6013.0,709.0,5512.0,1259.0,71.0,1936.0,3447.0,2025-07-02 19:25:46,82.0,,2.91217130320684,-3.00952867823883,-1.72149076533086,,-1.3460365414406434,,
,6014.0,707.0,5515.0,1258.0,57.0,1921.0,3453.0,2025-07-02 19:25:47,82.0,,2.91418003019745,-3.00981966070315,-1.72245377505669,,-1.1206939372516407,,
,6014.0,706.0,5513.0,1256.0,73.0,1926.0,3468.0,2025-07-02 19:25:48,82.0,,2.91361221982318,-3.00990881980066,-1.72236426789951,,-0.8645861690445998,,
,6019.0,708.0,5518.0,1261.0,83.0,1916.0,3444.0,2025-07-02 19:25:49,82.0,,2.91387278238361,-3.00971331768688,-1.72225033223694,,-0.5816366100692922,,
,6020.0,708.0,5518.0,1261.0,82.0,1917.0,3449.0,2025-07-02 19:25:50,82.0,,2.91392671118078,-3.00997466905592,-1.72228207467238,,-0.27663903164907333,,
,6019.0,708.0,5519.0,1260.0,100.0,1914.0,3457.0,,,,2.91442889152565,-3.0097713382354,-1.72238809100042,,0.04504911045066722,,
,6020.0,708.0,5520.0,1262.0,95.0,1915.0,3441.0,,,,2.91492227905781,-3.00971080014576,-1.7218798749406,,0.3777674363563691,,
,6023.0,710.0,5524.0,1262.0,90.0,1929.0,3423.0,,,,2.9153137468175,-3.00983186794966,-1.7218741029324,,0.7157319713049695,,
,6025.0,711.0,5527.0,1262.0,81.0,1932.0,3427.0,,,,2.91690162355584,-3.00964971818604,-1.72190742209974,,1.053116683482441,,
,6023.0,709.0,5527.0,1262.0,90.0,1923.0,3460.0,,,,2.91841298367208,-3.00965839595419,-1.72171008726641,,1.3840436470871065,,
,6027.0,709.0,5529.0,1265.0,86.0,1918.0,3441.0,,,,2.91819072095213,-3.00958652082407,-1.72198382136208,,1.702510594813581,,
,6028.0,713.0,5531.0,1265.0,73.0,1921.0,3460.0,,,,2.91913085768189,-3.00963401525445,-1.72143951032692,,2.0023014971379482,,
,6031.0,711.0,5531.0,1269.0,69.0,1919.0,3456.0,,,,2.91860329198116,-3.00973213391612,-1.72070239726377,,2.2769327436388256,,
,6030.0,711.0,5532.0,1266.0,73.0,1911.0,3448.0,,,,2.92035477081423,-3.00983115914728,-1.72071486634246,,2.51968259003582,,
,6032.0,713.0,5533.0,1265.0,79.0,1918.0,3459.0,,,,2.92230052708465,-3.00983247488736,-1.72114855339301,,2.723736246064976,,
,6030.0,712.0,5535.0,1267.0,88.0,1918.0,3450.0,,,,2.92170475549755,-3.00983219060314,-1.72124247541379,,2.8824571802027283,,
,6029.0,711.0,5537.0,1265.0,90.0,1926.0,3452.0,,,,2.9211376491059,-3.00978898396324,-1.7208330943137,,2.989771334294813,,
,6024.0,710.0,5531.0,1264.0,68.0,1931.0,3449.0,,,,2.92319818883097,-3.00996332126385,-1.72122881259503,,3.0406287348672936,,
,6023.0,709.0,5529.0,1263.0,89.0,1924.0,3462.0,,,,2.92320821674141,-3.00991187333367,-1.7211537921618,,3.0314893607140987,,
,6021.0,710.0,5526.0,1264.0,96.0,1935.0,3457.0,,,,2.92381690387544,-3.00967903200971,-1.72096989115152,,2.9607693689316443,,
,6018.0,710.0,5526.0,1264.0,98.0,1935.0,3444.0,,,,2.92397286314537,-3.00977860233749,-1.72066180226148,,2.829181659800641,,
,6015.0,707.0,5521.0,1262.0,97.0,1936.0,3434.0,,,,2.92345710573617,-3.0099004478613,-1.72134414655985,,2.63991238650826,,
,6006.0,705.0,5516.0,1258.0,97.0,1926.0,3437.0,,,,2.92344348978069,-3.00984249098405,-1.7207717255791,,2.3985925702102318,,
,6005.0,707.0,5512.0,1258.0,79.0,1927.0,3435.0,,,,2.92516050431433,-3.00991486422471,-1.7199784419054,,2.1130501539727655,,
,6000.0,707.0,5508.0,1256.0,75.0,1928.0,3439.0,,,,2.92489088684826,-3.00999845758842,-1.72048065040331,,1.7928590558281856,,
,5993.0,705.0,5505.0,1255.0,80.0,1932.0,3431.0,,,,2.92537437834722,-3.00989559216643,-1.72052447429334,,1.4487320726811155,,
,5988.0,704.0,5502.0,1254.0,101.0,1925.0,3427.0,,,,2.92526828221645,-3.00975995000281,-1.72072517632987,,1.0918268509278513,,
,5985.0,704.0,5499.0,1251.0,98.0,1935.0,3442.0,,,,2.92640686714546,-3.00996795585141,-1.72043546179364,,0.7330434214738633,,
,5978.0,701.0,5495.0,1252.0,88.0,1933.0,3440.0,,,,2.926840257162,-3.00976587572752,-1.72026754238303,,0.3823870517876018,,
,5975.0,701.0,5490.0,1249.0,85.0,1921.0,3443.0,,,,2.92710011005305,-3.00960473668579,-1.71959294944987,,0.048454599886826315,,
,5974.0,703.0,5487.0,1247.0,78.0,1918.0,3447.0,,,,2.92765298887648,-3.01006527953268,-1.72064109800997,,-0.26191876917574963,,
,5970.0,699.0,5485.0,1247.0,93.0,1922.0,3450.0,,,,2.92855650451093,-3.00990120360593,-1.72036441797056,,-0.5438381735067065,,
,5967.0,703.0,5483.0,1249.0,87.0,1924.0,3446.0,,,,2.92905529956186,-3.00974701464267,-1.72017513069153,,-0.7943592013973464,,
,5964.0,701.0,5483.0,1247.0,91.0,1930.0,3448.0,,,,2.92922039231533,-3.00998294734238,-1.72057445208281,,-1.0123527829100212,,
,5960.0,702.0,5481.0,1245.0,101.0,1922.0,3447.0,,,,2.92882565611439,-3.00980200362915,-1.72025132645453,,-1.1982596671991068,,
,5959.0,701.0,5479.0,1242.0,87.0,1918.0,3451.0,,,,2.92838644676822,-3.00988035862197,-1.72021094281699,,-1.3537756721937582,,
,5956.0,701.0,5475.0,1243.0,86.0,1912.0,3473.0,,,,2.92930648144398,-3.0099510775608,-1.72011517428193,,-1.481509235288969,,
,5954.0,699.0,5475.0,1240.0,82.0,1920.0,3466.0,,,,2.92973952537641,-3.00977258465368,-1.72011900154963,,-1.5846473056608148,,
,5952.0,698.0,5473.0,1243.0,87.0,1918.0,3460.0,,,,2.92970636754605,-3.01008033307824,-1.72058240320481,,-1.6666550436896952,,
,5950.0,697.0,5473.0,1243.0,82.0,1925.0,3446.0,,,,2.93064677867995,-3.00986050207869,-1.7207059741727,,-1.731021213914398,,
,5948.0,700.0,5473.0,1242.0,76.0,1920.0,3462.0,,,,2.93157531799831,-3.01000697132511,-1.71983172251956,,-1.7810480966599276,,
,5949.0,699.0,5473.0,1241.0,71.0,1922.0,3445.0,,,,2.93195238774918,-3.00994259220065,-1.71961574403551,,-1.8196761035560989,,
,5947.0,698.0,5474.0,1241.0,70.0,1927.0,3443.0,,,,2.93185650598831,-3.00979074231412,-1.71971424352571,,-1.8493313577555597,,
,5945.0,698.0,5471.0,1240.0,91.0,1924.0,3448.0,,,,2.93169506732408,-3.00990188852379,-1.72011921078416,,-1.8717887036546716,,
,5943.0,699.0,5469.0,1236.0,81.0,1922.0,3442.0,,,,2.93130854397731,-3.00975948452963,-1.72003779167096,,-1.8880501862865424,,
,5947.0,701.0,5472.0,1240.0,86.0,1922.0,3456.0,,,,2.93078137974824,-3.00991984935104,-1.71994298661873,,-1.898246883327436,,
,5945.0,698.0,5471.0,1240.0,82.0,1921.0,3440.0,,,,2.92962276639474,-3.00984747549252,-1.71983958157288,,-1.9015778697921635,,
,5943.0,700.0,5473.0,1238.0,86.0,1916.0,3456.0,,,,2.92669195198196,-3.0098713300052,-1.72016567592544,,-1.8963028735932181,,
,5945.0,700.0,5472.0,1237.0,81.0,1924.0,3462.0,,,,2.92299428262137,-3.00999488122832,-1.72076135604833,,-1.879804368248687,,
,5940.0,700.0,5476.0,1241.0,86.0,1930.0,3445.0,,,,2.91950920901741,-3.00992238595679,-1.72196001659441,,-1.8487304284487143,,
,5944.0,700.0,5472.0,1239.0,88.0,1931.0,3465.0,,,,2.9170951406553,-3.00971353296009,-1.72188551507921,,-1.7992219633943407,,
,5944.0,701.0,5474.0,1241.0,91.0,1926.0,3453.0,,,,2.91480770348841,-3.00975640392255,-1.7220767116108,,-1.72721752840959,,
,5943.0,697.0,5473.0,1239.0,79.0,1929.0,3466.0,,,,2.91207902754366,-3.00962645251824,-1.72174123468186,,-1.6288167743085422,,
,5940.0,699.0,5475.0,1240.0,93.0,1929.0,3456.0,,,,2.91168220804708,-3.00983061641735,-1.72186698562641,,-1.500671481439958,,
,5939.0,698.0,5473.0,1239.0,100.0,1933.0,3462.0,,,,2.90919183928664,-3.00948126711711,-1.7221574185941,,-1.3403638591973313,,
,5941.0,699.0,5475.0,1239.0,100.0,1923.0,3466.0,,,,2.90865435240905,-3.0095329083048,-1.72299493388467,,-1.1467287412103422,,
,5937.0,699.0,5471.0,1236.0,95.0,1919.0,3442.0,,,,2.90777169594641,-3.00972925312432,-1.72282932071608,,-0.9200817716929975,,
,5937.0,698.0,5474.0,1237.0,84.0,1925.0,3429.0,,,,2.90726192090996,-3.0095645219535,-1.72319119417183,,-0.6623291219506626,,
,5935.0,699.0,5475.0,1239.0,96.0,1921.0,3437.0,,,,2.90755817572355,-3.00944161819664,-1.72272896307539,,-0.3769520916623593,,
,5937.0,700.0,5476.0,1239.0,94.0,1926.0,3457.0,,,,2.90744438791348,-3.00962100523949,-1.72321675434304,,-0.06887723111764257,,
,5933.0,699.0,5472.0,1238.0,89.0,1932.0,3436.0,,,,2.9074729476151,-3.00942496152801,-1.72310803192128,,0.25574448176741765,,
,5933.0,699.0,5474.0,1239.0,85.0,1934.0,3441.0,,,,2.90794868671237,-3.00933460581585,-1.72250092088069,,0.5898189401461399,,
,5932.0,699.0,5472.0,1236.0,83.0,1931.0,3441.0,,,,2.90669019864755,-3.00949463092023,-1.72252995956152,,0.9256188732401254,,
,5930.0,698.0,5471.0,1236.0,84.0,1932.0,3457.0,,,,2.90892286493334,-3.0096783071269,-1.72302372210048,,1.2550936232992091,,
,5931.0,699.0,5472.0,1236.0,106.0,1927.0,3469.0,,,,2.90849955632075,-3.00952252795757,-1.72271477792165,,1.5701557378975368,,
,5931.0,697.0,5472.0,1235.0,82.0,1922.0,3439.0,,,,2.90827547334739,-3.00977443225185,-1.72303189331658,,1.86292914362781,,
,5933.0,698.0,5474.0,1238.0,91.0,1919.0,3451.0,,,,2.90947052765606,-3.00970327132175,-1.723020444858,,2.125952841461779,,
,5931.0,701.0,5474.0,1236.0,101.0,1913.0,3446.0,,,,2.90965510340821,-3.0095355744312,-1.72226932770666,,2.352344211183755,,
,5930.0,700.0,5474.0,1236.0,95.0,1926.0,3444.0,,,,2.90991046761785,-3.00968686913598,-1.7226477258591,,2.5359358421837426,,
,5927.0,696.0,5473.0,1233.0,83.0,1930.0,3436.0,,,,2.90970100994462,-3.00965476382385,-1.72243009491963,,2.6714066176953706,,
,5927.0,698.0,5475.0,1238.0,99.0,1920.0,3440.0,,,,2.91049545161953,-3.00954668255873,-1.72312789589411,,2.7544282382106102,,
,5930.0,699.0,5477.0,1237.0,99.0,1920.0,3455.0,,,,2.91139296303681,-3.00973985922481,-1.72208096549663,,2.7818406195930883,,
,5930.0,702.0,5478.0,1236.0,97.0,1913.0,3434.0,,,,2.91156395012103,-3.00961898030738,-1.72265465289164,,2.7518550776465225,,
,5928.0,699.0,5476.0,1237.0,97.0,1926.0,3441.0,,,,2.91196206967359,-3.00946151826047,-1.72288876457906,,2.664267383300502,,
,5931.0,697.0,5475.0,1235.0,83.0,1931.0,3434.0,,,,2.91169656077751,-3.00945676202207,-1.72261251349105,,2.520648906399644,,
,5934.0,701.0,5479.0,1240.0,84.0,1924.0,3425.0,,,,2.91355682000181,-3.00971532253441,-1.72237643958751,,2.3244769089547996,,
,5932.0,699.0,5481.0,1238.0,85.0,1920.0,3437.0,,,,2.91298561185662,-3.00968430839632,-1.72217280451958,,2.0811659215217144,,
,5934.0,698.0,5481.0,1239.0,76.0,1920.0,3444.0,,,,2.91282068850396,-3.00962572888555,-1.72295839108009,,1.797970313674706,,
,5931.0,697.0,5480.0,1237.0,78.0,1930.0,3463.0,,,,2.91389494304495,-3.00968800713282,-1.72171040440077,,1.483741746646346,,
,5935.0,700.0,5482.0,1239.0,85.0,1935.0,3456.0,,,,2.91398097221447,-3.00970688935003,-1.72198794681328,,1.1485419347303703,,
,5936.0,699.0,5484.0,1239.0,86.0,1931.0,3464.0,,,,2.91408478480125,-3.00972765508807,-1.72180093866339,,0.8031290597267656,,
2025-07-02 19:22:53,5935.0,701.0,5485.0,1239.0,80.0,1941.0,3459.0,,,2025/07/02 07:22:53 PM,2.91531643077536,-3.00953280018716,-1.72221143343586,,0.4583536347728421,,
,5937.0,700.0,5486.0,1237.0,98.0,1930.0,3461.0,,,,2.91588374169411,-3.00943325397066,-1.72235116620224,,0.12451480186726813,,
,5936.0,702.0,5487.0,1237.0,95.0,1931.0,3461.0,,,,2.91526710361257,-3.00965600739463,-1.72187613143563,,-0.18926155060829436,,
,5939.0,701.0,5491.0,1240.0,84.0,1921.0,3464.0,,,,2.91481003003852,-3.00952056755206,-1.72224342824763,,-0.47555886505025274,,
,5942.0,701.0,5490.0,1243.0,89.0,1923.0,3475.0,,,,2.91499529819767,-3.0097841041242,-1.72255372923669,,-0.7290634762197449,,
,5943.0,702.0,5491.0,1241.0,89.0,1928.0,3475.0,,,,2.91384705434351,-3.00968099594196,-1.72255898294639,,-0.9467755230398215,,
,5940.0,701.0,5495.0,1240.0,84.0,1919.0,3443.0,,,,2.91430824757815,-3.00972237312622,-1.72232237140638,,-1.1280195254873109,,
,5945.0,703.0,5494.0,1241.0,83.0,1927.0,3477.0,,,,2.91334304623619,-3.00954629672366,-1.72227783626695,,-1.2742606344373337,,
,5942.0,704.0,5496.0,1242.0,90.0,1928.0,3479.0,,,,2.91337859867471,-3.00976373527196,-1.72184209719502,,-1.3887536198968273,,
,5942.0,700.0,5497.0,1242.0,90.0,1915.0,3475.0,,,,2.91309027095177,-3.00958242573121,-1.72231256445714,,-1.4760677648158582,,
,5945.0,705.0,5499.0,1245.0,91.0,1913.0,3470.0,,,,2.91284607967117,-3.00948988836746,-1.72181441859095,,-1.5415409543792324,,
,5948.0,705.0,5501.0,1244.0,109.0,1929.0,3466.0,,,,2.91405026156956,-3.00945307435926,-1.72110985022534,,-1.5907201263423858,,
,5946.0,703.0,5504.0,1244.0,110.0,1928.0,3454.0,,,,2.91420644496305,-3.00943281008688,-1.721812088594,,-1.628843000228212,,
,5950.0,703.0,5507.0,1241.0,110.0,1921.0,3434.0,,,,2.91450984707444,-3.00969041263972,-1.72192921023961,,-1.660407982115307,,
,5951.0,704.0,5505.0,1244.0,102.0,1923.0,3441.0,,,,2.91397615765534,-3.00968036129632,-1.72187132896794,,-1.688865939715738,,
,5951.0,703.0,5507.0,1246.0,94.0,1929.0,3465.0,,,,2.91522405658608,-3.00981059647032,-1.72212928266775,,-1.7164502667870252,,
,5955.0,706.0,5509.0,1245.0,87.0,1929.0,3468.0,,,,2.91539649122266,-3.00964355197204,-1.72196319579186,,-1.7441423853208387,,
,5956.0,705.0,5511.0,1246.0,83.0,1917.0,3454.0,,,,2.9166013190487,-3.00960198054502,-1.72146243629988,,-1.7717518701054462,,
,5956.0,704.0,5511.0,1246.0,93.0,1928.0,3439.0,,,,2.91688912505692,-3.00999616240342,-1.72178650551517,,-1.7980776461574397,,
,5958.0,704.0,5510.0,1247.0,109.0,1920.0,3432.0,,,,2.91759670804146,-3.00976598989215,-1.7211618837501,,-1.8211120912872065,,
,5959.0,705.0,5515.0,1249.0,97.0,1921.0,3434.0,,,,2.91806746277212,-3.0096784648054,-1.72188244662635,,-1.8382536357371142,,
,5961.0,707.0,5516.0,1247.0,98.0,1932.0,3448.0,,,,2.9184657182059,-3.0097313315779,-1.72165053265878,,-1.8465031988773137,,
,5959.0,702.0,5515.0,1247.0,87.0,1928.0,3467.0,,,,2.918456608124,-3.00986851760288,-1.72063651149009,,-1.8426319549567776,,
,5963.0,707.0,5518.0,1246.0,82.0,1924.0,3451.0,,,,2.91887374464202,-3.00994380512491,-1.72032593880987,,-1.8233192840931753,,
,5965.0,706.0,5520.0,1250.0,93.0,1922.0,3461.0,,,,2.92023538363787,-3.00970669046216,-1.7210195244451,,-1.7852683267872218,,
,5967.0,705.0,5522.0,1250.0,94.0,1922.0,3445.0,,,,2.92049009815244,-3.01000040100493,-1.72117505283682,,-1.725311467884319,,
,5966.0,706.0,5522.0,1249.0,66.0,1932.0,3457.0,,,,2.92169500463879,-3.00974190212859,-1.72135151454668,,-1.6405192873506738,,
,5970.0,705.0,5524.0,1250.0,80.0,1932.0,3451.0,,,,2.92228040762782,-3.00993474971809,-1.72075072801267,,-1.528324487823239,,
,5967.0,709.0,5525.0,1252.0,80.0,1929.0,3448.0,,,,2.92237875570854,-3.0098212003551,-1.72062811091259,,-1.3866677533401728,,
,5970.0,708.0,5524.0,1251.0,71.0,1919.0,3463.0,,,,2.92220861821453,-3.00984029172106,-1.72095098263145,,-1.2141661469950678,,
,5966.0,710.0,5524.0,1249.0,88.0,1920.0,3445.0,,,,2.9235027508959,-3.00962363823993,-1.72066625153648,,-1.010297207664981,,
,5963.0,706.0,5523.0,1248.0,72.0,1930.0,3449.0,,,,2.92333775883383,-3.00986583242399,-1.72112956274862,,-0.7755842570227994,,
,5963.0,709.0,5524.0,1252.0,80.0,1927.0,3430.0,,,,2.92318450538463,-3.01005811449465,-1.72078702485774,,-0.5117621105260758,,
,5960.0,706.0,5520.0,1251.0,80.0,1921.0,3440.0,,,,2.92411269816551,-3.00994448770155,-1.72103581455291,,-0.22189941463724744,,
,5957.0,705.0,5519.0,1247.0,92.0,1922.0,3449.0,,,,2.92415612998426,-3.0098622682656,-1.72087399735759,,0.08954445697288366,,
,5950.0,705.0,5515.0,1245.0,97.0,1916.0,3454.0,,,,2.9249935422073,-3.00967711248471,-1.72049832170019,,0.4167440963285025,,
,5948.0,706.0,5510.0,1246.0,87.0,1920.0,3424.0,,,,2.92539252399295,-3.00967211671199,-1.72013567203084,,0.7526223588390962,,
,5943.0,703.0,5505.0,1246.0,84.0,1928.0,3430.0,,,,2.92517992369752,-3.00974188054606,-1.7206727438733,,1.0890540380544815,,
,5940.0,705.0,5502.0,1243.0,89.0,1924.0,3468.0,,,,2.92513920423881,-3.009675869122,-1.72038399350154,,1.4171514520728343,,
,5931.0,699.0,5497.0,1241.0,97.0,1920.0,3469.0,,,,2.92546758955278,-3.00974924201459,-1.72013768757352,,1.7276183359558324,,
,5929.0,701.0,5497.0,1240.0,88.0,1939.0,3466.0,,,,2.92688584714831,-3.00980219101001,-1.72110724241955,,2.0111530711857437,,
,5926.0,701.0,5492.0,1238.0,87.0,1935.0,3461.0,,,,2.92534281102516,-3.0099471763916,-1.72089590249196,,2.258877566813421,,
,5923.0,701.0,5488.0,1236.0,91.0,1925.0,3451.0,,,,2.92717670829353,-3.00983766736068,-1.72020357120593,,2.4627644325154914,,
,5917.0,697.0,5487.0,1235.0,90.0,1928.0,3468.0,,,,2.92659513865079,-3.0096912217391,-1.72066915850379,,2.6160334349318166,,
,5914.0,700.0,5483.0,1236.0,81.0,1922.0,3448.0,,,,2.92726399394919,-3.00987613806116,-1.72071832898768,,2.7134898507343093,,
,5912.0,698.0,5479.0,1234.0,88.0,1923.0,3464.0,,,,2.92574984879341,-3.00979593953287,-1.72002475196754,,2.751782907732656,,
,5907.0,698.0,5476.0,1233.0,95.0,1924.0,3464.0,,,,2.92608294268982,-3.00979940303706,-1.72036596488212,,2.729571186097156,,
,5907.0,695.0,5474.0,1231.0,108.0,1918.0,3440.0,,,,2.92766361584088,-3.0096969916726,-1.72031176818306,,2.6475910437310204,,
,5907.0,698.0,5473.0,1233.0,104.0,1920.0,3433.0,,,,2.92763000161368,-3.00979186609198,-1.7205883858817,,2.508630825181209,,
,5904.0,700.0,5471.0,1231.0,108.0,1928.0,3415.0,,,,2.92727534872211,-3.00979621573728,-1.71987341995182,,2.317416489426092,,
,5904.0,700.0,5473.0,1232.0,92.0,1918.0,3429.0,,,,2.92765945082092,-3.00967811753573,-1.72003448243029,,2.0804146250258895,,
,5902.0,698.0,5471.0,1230.0,95.0,1922.0,3443.0,,,,2.92833512287996,-3.00980092623433,-1.72049930214956,,1.8055592318099924,,
,5898.0,696.0,5467.0,1230.0,87.0,1926.0,3438.0,,,,2.92819357355477,-3.00981901271152,-1.72019568338367,,1.5019109032762936,,
,5900.0,696.0,5468.0,1230.0,88.0,1931.0,3434.0,,,,2.92814675360012,-3.00990718754438,-1.71995652538288,,1.1792609606570705,,
,5899.0,697.0,5469.0,1230.0,87.0,1924.0,3465.0,,,,2.92874730422239,-3.00970442570866,-1.72006683785714,,0.8476972067384793,,
,5900.0,697.0,5467.0,1231.0,92.0,1924.0,3474.0,,,,2.92900486602317,-3.00990850233738,-1.72038084589001,,0.5171509106428183,,
,5898.0,695.0,5467.0,1230.0,91.0,1920.0,3460.0,,,,2.92991129618859,-3.0098005427596,-1.71984724603343,,0.19694596877894519,,
,5897.0,696.0,5465.0,1229.0,93.0,1924.0,3417.0,,,,2.92954240644328,-3.00991005611886,-1.71960363212891,,-0.10462849006432409,,
,5899.0,698.0,5470.0,1230.0,82.0,1924.0,3430.0,,,,2.93112215718319,-3.00998024288907,-1.71991728640521,,-0.3807002999598116,,
,5899.0,698.0,5466.0,1230.0,85.0,1925.0,3427.0,,,,2.92943921245944,-3.00995842226375,-1.7202566822159,,-0.6261279902236953,,
,5897.0,696.0,5467.0,1229.0,92.0,1930.0,3452.0,,,,2.93084805393394,-3.00972787893358,-1.71990442643092,,-0.8377207621686583,,
,5895.0,697.0,5468.0,1229.0,91.0,1936.0,3456.0,,,,2.93008669522972,-3.01005740035409,-1.72032585527449,,-1.014339086724771,,
,5896.0,700.0,5467.0,1229.0,73.0,1936.0,3437.0,,,,2.92829183871386,-3.01006191668773,-1.72008411674905,,-1.1568545908900856,,
,5899.0,699.0,5469.0,1228.0,82.0,1930.0,3439.0,,,,2.92537049760533,-3.00991717144327,-1.71973247145353,,-1.2679584299216102,,
,5896.0,698.0,5469.0,1227.0,97.0,1921.0,3440.0,,,,2.9201954265423,-3.00990475912028,-1.72120298301437,,-1.3518230339932893,,
,5895.0,696.0,5469.0,1228.0,101.0,1923.0,3463.0,,,,2.91707582471399,-3.00974611079311,-1.72146229683662,,-1.413639705443067,,
,5899.0,698.0,5471.0,1230.0,90.0,1918.0,3445.0,,,,2.91466689922078,-3.00958739705617,-1.72225794547427,,-1.4590703601269142,,
,5899.0,696.0,5471.0,1229.0,96.0,1924.0,3465.0,,,,2.91360551038365,-3.00971205845306,-1.72236842763724,,-1.4936631435709709,,
,5898.0,697.0,5469.0,1229.0,86.0,1923.0,3468.0,,,,2.91172566706635,-3.00956351853444,-1.72225396336038,,-1.5222874526737042,,
,5897.0,697.0,5468.0,1228.0,81.0,1920.0,3460.0,,,,2.90965221668109,-3.00943473678068,-1.72265895279531,,-1.5486437322507345,,
,5895.0,697.0,5466.0,1229.0,93.0,1929.0,3467.0,,,,2.90891818863677,-3.00958920051972,-1.7226817864243,,-1.574897444480468,,
,5896.0,698.0,5473.0,1229.0,91.0,1933.0,3437.0,,,,2.90599702265824,-3.00970728364686,-1.72306375246318,,-1.6014752115886568,,
,5896.0,697.0,5467.0,1228.0,89.0,1935.0,3441.0,,,,2.90701947089278,-3.00974100563029,-1.722198500005,,-1.6270448878485462,,
,5893.0,697.0,5464.0,1227.0,85.0,1926.0,3457.0,,,,2.90606398642782,-3.00943012130724,-1.72306193870013,,-1.6486812209106345,,
,5892.0,697.0,5468.0,1225.0,96.0,1919.0,3465.0,,,,2.90531132057071,-3.00944835809284,-1.72237787469312,,-1.662196678932915,,
,5893.0,697.0,5467.0,1228.0,100.0,1929.0,3436.0,,,,2.90619816618176,-3.00942769682953,-1.72245933756016,,-1.6625960800171191,,
,5893.0,696.0,5467.0,1227.0,95.0,1933.0,3435.0,,,,2.90692864877375,-3.0096493610844,-1.72300332952321,,-1.6445980072484416,,
,5893.0,696.0,5468.0,1228.0,98.0,1929.0,3452.0,,,,2.90612414121881,-3.00959329356207,-1.72351243134863,,-1.603159406741395,,
,5892.0,696.0,5465.0,1227.0,83.0,1918.0,3445.0,,,,2.90677963562834,-3.00959409574513,-1.72324380446059,,-1.5339437740155233,,
,5892.0,696.0,5464.0,1228.0,81.0,1920.0,3439.0,,,,2.90825850037554,-3.00960928041689,-1.72286354522851,,-1.4336864356207577,,
,5892.0,696.0,5464.0,1225.0,77.0,1928.0,3463.0,,,,2.90723309390119,-3.00982610141902,-1.72320416926499,,-1.3004291790434077,,
,5893.0,698.0,5464.0,1227.0,76.0,1930.0,3453.0,,,,2.90760610099571,-3.00952367765664,-1.72291048093544,,-1.133617179541836,,
,5890.0,694.0,5465.0,1226.0,86.0,1934.0,3452.0,,,,2.90782056197029,-3.00976672833007,-1.72311138911031,,-0.934070740462526,,
,5895.0,696.0,5464.0,1228.0,88.0,1923.0,3457.0,,,,2.90595277255526,-3.00964585455571,-1.7229581958671,,-0.7038603441594959,,
,5898.0,698.0,5465.0,1226.0,97.0,1909.0,3433.0,,,,2.907350113575,-3.00967428796901,-1.72329283512923,,-0.44612396882183,,
,5897.0,697.0,5464.0,1227.0,90.0,1916.0,3447.0,,,,2.90754951793857,-3.00956501048581,-1.72362775332775,,-0.16486921814159045,,
,5896.0,695.0,5463.0,1227.0,94.0,1928.0,3463.0,,,,2.90603133869452,-3.00971037903958,-1.72248954766361,,0.1352011812460392,,
,5896.0,697.0,5467.0,1227.0,92.0,1918.0,3450.0,,,,2.90811742705665,-3.00967487885353,-1.72306742908029,,0.4488134680588319,,
,5898.0,698.0,5467.0,1228.0,95.0,1924.0,3462.0,,,,2.90769360249234,-3.00955678096569,-1.72351286030061,,0.7701870850338163,,
,5899.0,697.0,5464.0,1228.0,95.0,1922.0,3475.0,,,,2.90816200427974,-3.00971769759129,-1.7231222240611,,1.093049965630693,,
,5898.0,696.0,5464.0,1228.0,89.0,1918.0,3456.0,,,,2.90823471251928,-3.00952724729564,-1.72269226142294,,1.4106337159791786,,
,5900.0,696.0,5468.0,1227.0,81.0,1923.0,3461.0,,,,2.90742605881768,-3.00953654736607,-1.72276641605382,,1.7156879831773726,,
,5899.0,699.0,5468.0,1230.0,87.0,1925.0,3433.0,,,,2.90848946772455,-3.0097371251639,-1.7227935605629,,2.0005534828639937,,
,5904.0,699.0,5471.0,1230.0,92.0,1926.0,3440.0,,,,2.90914056548003,-3.00939715868493,-1.72233872950404,,2.2573237808530675,,
,5903.0,699.0,5471.0,1230.0,94.0,1922.0,3467.0,,,,2.90941618756756,-3.00953377051422,-1.72321333213311,,2.478110054852183,,
,5903.0,697.0,5470.0,1229.0,95.0,1916.0,3451.0,,,,2.9104970290855,-3.00949440569731,-1.72334845310422,,2.6554042154211595,,
,5905.0,697.0,5474.0,1231.0,98.0,1918.0,3445.0,,,,2.90966714998653,-3.00934186068444,-1.72310297808587,,2.782516840372967,,
,5905.0,698.0,5472.0,1231.0,95.0,1923.0,3421.0,,,,2.90906555307285,-3.00957144787522,-1.72271379219619,,2.8540497093777555,,
,5909.0,700.0,5474.0,1231.0,92.0,1927.0,3416.0,,,,2.90923935014884,-3.00943649286257,-1.72310144417219,,2.8663504850243173,,
,5908.0,699.0,5474.0,1231.0,85.0,1919.0,3455.0,,,,2.90943882963955,-3.00946984713155,-1.722704968082,,2.8178914261676025,,
,5911.0,699.0,5476.0,1231.0,89.0,1928.0,3466.0,,,,2.91106531829403,-3.00990945645623,-1.72280330865482,,2.709516856408044,,
,5913.0,701.0,5479.0,1234.0,93.0,1926.0,3464.0,,,,2.90978660850995,-3.00985303811226,-1.72287411744052,,2.5445165543886192,,
,5915.0,700.0,5480.0,1232.0,88.0,1926.0,3459.0,,,,2.91189376833863,-3.00973250016841,-1.72307620514179,,2.328503676314974,,
,5916.0,698.0,5480.0,1232.0,96.0,1926.0,3445.0,,,,2.91001221459104,-3.0098119062245,-1.72286884149496,,2.069103053342992,,
,5915.0,699.0,5481.0,1232.0,100.0,1925.0,3458.0,,,,2.90951934695985,-3.00958955770065,-1.72282965629415,,1.7754829327565262,,
,5918.0,701.0,5484.0,1234.0,99.0,1928.0,3439.0,,,,2.91081716380427,-3.00958598723122,-1.72279303321944,,1.4577838368271463,,
,5920.0,699.0,5486.0,1233.0,92.0,1924.0,3443.0,,,,2.91056692526831,-3.00954797277331,-1.72283345995818,,1.126507680989349,,
,5920.0,698.0,5484.0,1235.0,103.0,1919.0,3467.0,,,,2.91061267517823,-3.00971455723423,-1.72269049376788,,0.7919280818532283,,
,5923.0,702.0,5485.0,1234.0,101.0,1924.0,3472.0,,,,2.91022492931293,-3.00965337202037,-1.7228071630889,,0.4635717023902965,,
,5924.0,703.0,5490.0,1236.0,83.0,1922.0,3483.0,,,,2.9105110777911,-3.0095740778666,-1.72309058539058,,0.14980457648028475,,
,5928.0,703.0,5490.0,1237.0,84.0,1918.0,3454.0,,,,2.91030272349553,-3.0095998991704,-1.72301799163957,,-0.14245976275197553,,
,5929.0,702.0,5490.0,1237.0,88.0,1920.0,3451.0,,,,2.91000960172812,-3.00969809627094,-1.72262345391972,,-0.4079292445568435,,
,5927.0,701.0,5489.0,1235.0,87.0,1926.0,3439.0,,,,2.91119622664158,-3.00951167523152,-1.72292651690329,,-0.6429907915021392,,
,5932.0,702.0,5494.0,1239.0,69.0,1933.0,3456.0,,,,2.91162122453647,-3.00953659835628,-1.72276008504469,,-0.8456762632742475,,
,5931.0,702.0,5496.0,1239.0,67.0,1935.0,3446.0,,,,2.91107570034774,-3.00956203565573,-1.72282872325204,,-1.015560165243729,,
,5934.0,704.0,5495.0,1238.0,75.0,1934.0,3460.0,,,,2.91234338214224,-3.0098874770797,-1.72266621185815,,-1.1536108908759537,,
,5938.0,702.0,5495.0,1237.0,93.0,1925.0,3466.0,,,,2.91237041562549,-3.00952523815369,-1.72230110547909,,-1.2620110456810674,,
,5936.0,705.0,5498.0,1241.0,96.0,1928.0,3471.0,,,,2.91312415273087,-3.0096062987707,-1.7226241558821,,-1.3439532552821551,,
,5939.0,706.0,5500.0,1241.0,87.0,1925.0,3471.0,,,,2.91289547497073,-3.00941593949421,-1.72251794594089,,-1.4034090085191533,,
,5938.0,706.0,5502.0,1240.0,94.0,1923.0,3471.0,,,,2.914048277438,-3.00978774609813,-1.72214721128413,,-1.4448633293878161,,
,5943.0,703.0,5503.0,1242.0,99.0,1905.0,3451.0,,,,2.91445938377935,-3.00968296289439,-1.72163330550443,,-1.4730098176175452,,
,5942.0,703.0,5500.0,1240.0,91.0,1912.0,3457.0,,,,2.91614732875024,-3.00949839883926,-1.72153844738802,,-1.492408423630228,,
,5943.0,705.0,5502.0,1239.0,95.0,1918.0,3444.0,,,,2.91558309418893,-3.00975712328414,-1.72158100225107,,-1.5071194448786298,,
,5940.0,706.0,5501.0,1241.0,94.0,1924.0,3446.0,,,,2.91541004172381,-3.00967109982843,-1.72165735337988,,-1.5203382518299438,,
,5938.0,703.0,5498.0,1242.0,97.0,1928.0,3441.0,,,,2.91601801141411,-3.0094602826943,-1.7221293619741,,-1.534063589270286,,
,5935.0,704.0,5497.0,1238.0,99.0,1927.0,3446.0,,,,2.9176086008623,-3.0097718488785,-1.72156341942535,,-1.5488365285774204,,
,5933.0,704.0,5493.0,1238.0,83.0,1933.0,3449.0,,,,2.91838807274039,-3.00971137844655,-1.72199363224191,,-1.5635866277129007,,
,5928.0,703.0,5491.0,1238.0,75.0,1925.0,3456.0,,,,2.918186951316,-3.00983775949406,-1.72181833289396,,-1.5756163078227838,,
2025-07-02 19:22:54,5924.0,702.0,5488.0,1236.0,86.0,1926.0,3448.0,,,2025/07/02 07:22:54 PM,2.91980587160913,-3.00991130231322,-1.7214283363712,,-1.5807438469407367,,
,5919.0,700.0,5480.0,1232.0,81.0,1927.0,3436.0,,,,2.91969004411465,-3.0099730977853,-1.72158125272023,,-1.5736100694243107,,
,5912.0,699.0,5477.0,1232.0,91.0,1924.0,3444.0,,,,2.91884708195862,-3.00964491584939,-1.72142680307611,,-1.5481347692900551,,
,5910.0,699.0,5473.0,1233.0,92.0,1925.0,3454.0,,,,2.91967407128496,-3.00976562634404,-1.72137783557958,,-1.4980881752520772,,
,5905.0,699.0,5468.0,1228.0,96.0,1922.0,3449.0,,,,2.9205185202834,-3.00979475621942,-1.72097754461447,,-1.4177237279512425,,
,5898.0,697.0,5466.0,1228.0,85.0,1924.0,3460.0,,,,2.92011481299399,-3.0099505252726,-1.72159123142246,,-1.302405544518731,,
,5895.0,698.0,5459.0,1228.0,79.0,1934.0,3442.0,,,,2.92063579432943,-3.00970509199859,-1.72135502699476,,-1.149161281276248,,
,5891.0,696.0,5455.0,1224.0,108.0,1933.0,3433.0,,,,2.92108449514925,-3.00978245093705,-1.7210883810516,,-0.9571002867107251,,
,5887.0,698.0,5453.0,1223.0,106.0,1931.0,3440.0,,,,2.9203140672763,-3.00967698143319,-1.72117646994838,,-0.7276558704191527,,
,5884.0,697.0,5447.0,1223.0,99.0,1927.0,3426.0,,,,2.9207455509134,-3.00977166104061,-1.72078923031589,,-0.4646342621814667,,
,5880.0,693.0,5445.0,1217.0,87.0,1917.0,3447.0,,,,2.92292956917171,-3.00975660662443,-1.721785454608,,-0.1740760019698865,,
,5879.0,694.0,5444.0,1218.0,81.0,1932.0,3456.0,,,,2.92196253189845,-3.00970360285671,-1.72229336374474,,0.13604572460573375,,
,5874.0,696.0,5440.0,1219.0,75.0,1921.0,3455.0,,,,2.92184672538032,-3.00977977108285,-1.72196621363552,,0.45625259851009675,,
,5871.0,694.0,5435.0,1218.0,75.0,1912.0,3459.0,,,,2.92246784852555,-3.00980489614995,-1.72201203127494,,0.776070831018513,,
,5871.0,692.0,5434.0,1215.0,80.0,1915.0,3441.0,,,,2.92287531718997,-3.00963619775653,-1.72126955854291,,1.0845783123265613,,
,5870.0,692.0,5431.0,1213.0,77.0,1910.0,3458.0,,,,2.92162982973169,-3.00955470109694,-1.7215134394027,,1.3709482460573703,,
,5866.0,695.0,5431.0,1215.0,82.0,1911.0,3442.0,,,,2.92187135624047,-3.00965037906148,-1.72166072644558,,1.6249558230526724,,
,5867.0,695.0,5429.0,1215.0,89.0,1917.0,3435.0,,,,2.92182471059446,-3.00963076118335,-1.72093020178103,,1.8374250670668928,,
,5865.0,694.0,5429.0,1215.0,90.0,1917.0,3434.0,,,,2.92386115097799,-3.00979575037162,-1.72241147865739,,2.0006049176361658,,
,5864.0,694.0,5426.0,1214.0,84.0,1921.0,3448.0,,,,2.92278833140128,-3.00986114134198,-1.72084772821949,,2.1084740100796866,,
,5863.0,695.0,5427.0,1213.0,76.0,1916.0,3456.0,,,,2.9229410106121,-3.00965850333945,-1.72146599905547,,2.156979173047524,,
,5859.0,694.0,5428.0,1214.0,82.0,1923.0,3458.0,,,,2.92254387930765,-3.00969981534006,-1.72209904352211,,2.1442115953499075,,
,5861.0,695.0,5426.0,1215.0,72.0,1925.0,3491.0,,,,2.92333438536499,-3.00974754376109,-1.72113344434432,,2.0705181351150337,,
,5858.0,693.0,5423.0,1210.0,72.0,1925.0,3485.0,,,,2.92347800087005,-3.00975180463037,-1.72122195173101,,1.938537191117632,,
,5860.0,694.0,5425.0,1213.0,96.0,1925.0,3465.0,,,,2.92397307612211,-3.00983934939377,-1.7208714353068,,1.7531432582418285,,
,5858.0,695.0,5427.0,1213.0,87.0,1925.0,3465.0,,,,2.92438147012207,-3.00960030697699,-1.72086434806989,,1.5212844385747986,,
,5860.0,693.0,5425.0,1214.0,84.0,1926.0,3472.0,,,,2.92584671088987,-3.0098573201579,-1.72148191992978,,1.2517030667678004,,
,5859.0,693.0,5423.0,1212.0,70.0,1926.0,3469.0,,,,2.92565550358598,-3.00986881871905,-1.72008217303458,,0.954539699661446,,
,5861.0,692.0,5425.0,1211.0,83.0,1926.0,3455.0,,,,2.92530232329284,-3.00995067858723,-1.7214481767811,,0.6408327419722601,,
,5859.0,695.0,5426.0,1212.0,106.0,1929.0,3456.0,,,,2.92581257482605,-3.00973379147069,-1.7210330305455,,0.32193784552736915,,
,5860.0,696.0,5425.0,1214.0,108.0,1929.0,3450.0,,,,2.92461148393942,-3.00970828697181,-1.72105188068654,,0.008901581638438669,,
,5861.0,695.0,5423.0,1212.0,99.0,1926.0,3460.0,,,,2.92510672410296,-3.00984984702104,-1.72123484760586,,-0.2881678184679389,,
,5858.0,693.0,5423.0,1211.0,102.0,1919.0,3491.0,,,,2.92398989098568,-3.00971945922994,-1.72083509740028,,-0.5606839631118821,,
,5856.0,694.0,5422.0,1210.0,90.0,1930.0,3476.0,,,,2.92193304495587,-3.00979926226557,-1.72063043229625,,-0.8020687898330238,,
,5859.0,695.0,5424.0,1212.0,95.0,1923.0,3456.0,,,,2.91724734506964,-3.00975618015019,-1.72204339986204,,-1.008093469783532,,
,5860.0,694.0,5423.0,1211.0,84.0,1917.0,3471.0,,,,2.91362996513882,-3.00988705020881,-1.72275726829066,,-1.1770349923934633,,
,5857.0,692.0,5420.0,1209.0,80.0,1925.0,3445.0,,,,2.91118861705495,-3.00957654102575,-1.72247425265368,,-1.3096269056189849,,
,5857.0,695.0,5420.0,1211.0,102.0,1923.0,3437.0,,,,2.90869298992004,-3.00946672674263,-1.72315427815113,,-1.408804800207718,,
,5857.0,696.0,5421.0,1211.0,92.0,1930.0,3436.0,,,,2.90774220651992,-3.00957927351491,-1.72299898641184,,-1.4792699855208364,,
,5857.0,696.0,5422.0,1210.0,96.0,1927.0,3441.0,,,,2.90494083605421,-3.00973162719515,-1.72353926489532,,-1.5269144530099976,,
,5854.0,693.0,5418.0,1208.0,87.0,1932.0,3482.0,,,,2.9042846404992,-3.00950604288157,-1.7235859740637,,-1.5581641350367392,,
,5855.0,694.0,5421.0,1212.0,87.0,1930.0,3477.0,,,,2.90330576745989,-3.00956993443384,-1.723901685184,,-1.5793046604565326,,
,5854.0,694.0,5419.0,1210.0,99.0,1914.0,3472.0,,,,2.90210992579144,-3.00954004895152,-1.72372496693759,,-1.5958543464151076,,
,5856.0,694.0,5421.0,1210.0,91.0,1916.0,3465.0,,,,2.90150237164006,-3.00946767750576,-1.72392836639646,,-1.6120435962666773,,
,5856.0,694.0,5417.0,1210.0,84.0,1914.0,3468.0,,,,2.9019595230582,-3.00958858599393,-1.72513467729763,,-1.6304488512983548,,
,5854.0,693.0,5417.0,1210.0,93.0,1919.0,3473.0,,,,2.90267350015277,-3.00959309297723,-1.7238336428514,,-1.6518133958694892,,
,5856.0,695.0,5418.0,1209.0,91.0,1926.0,3476.0,,,,2.90274973558058,-3.00944406120614,-1.72394675885693,,-1.675067443564659,,
,5856.0,694.0,5417.0,1210.0,88.0,1927.0,3458.0,,,,2.90310413695144,-3.00944084538819,-1.72328808106581,,-1.6975375046245307,,
,5853.0,695.0,5417.0,1210.0,98.0,1932.0,3457.0,,,,2.9029706745873,-3.00973327555466,-1.72414019695549,,-1.715312670036542,,
,5855.0,694.0,5419.0,1209.0,89.0,1930.0,3438.0,,,,2.90435788871632,-3.0095337095919,-1.72395398348387,,-1.7237168999119394,,
,5858.0,696.0,5417.0,1210.0,84.0,1926.0,3465.0,,,,2.90468395273118,-3.00956843002304,-1.72394905363126,,-1.717825570074724,,
,5857.0,693.0,5420.0,1209.0,83.0,1925.0,3473.0,,,,2.90366414295086,-3.00956679233213,-1.72368110360733,,-1.6929636790093088,,
,5859.0,695.0,5420.0,1211.0,87.0,1927.0,3482.0,,,,2.90450226910005,-3.00967548518325,-1.72376687137133,,-1.6451316337969022,,
,5859.0,693.0,5420.0,1211.0,84.0,1928.0,3440.0,,,,2.9042132525204,-3.00979404834914,-1.72369929963604,,-1.5713194206622725,,
,5861.0,696.0,5419.0,1212.0,82.0,1929.0,3432.0,,,,2.90393045272053,-3.00949859305468,-1.72372067961288,,-1.4696876873826497,,
,5862.0,695.0,5423.0,1212.0,76.0,1924.0,3482.0,,,,2.90432927449216,-3.00959473663522,-1.72306150276755,,-1.3396122532541737,,
,5863.0,696.0,5421.0,1212.0,69.0,1932.0,3486.0,,,,2.90377832790866,-3.00958649938726,-1.72398968948693,,-1.1816053745939348,,
,5864.0,693.0,5420.0,1210.0,81.0,1928.0,3455.0,,,,2.90463100340901,-3.00961920417849,-1.72414013259215,,-0.9971417284189418,,
,5865.0,695.0,5421.0,1213.0,101.0,1931.0,3456.0,,,,2.90451923057626,-3.00972954013794,-1.72375363871964,,-0.7884283477002904,,
,5868.0,696.0,5424.0,1212.0,100.0,1928.0,3462.0,,,,2.90409506687539,-3.0094979397508,-1.72467838820268,,-0.5581640318795604,,
,5868.0,698.0,5427.0,1213.0,96.0,1930.0,3477.0,,,,2.90418017753179,-3.00951135013187,-1.72502281158912,,-0.30933322536217517,,
,5868.0,696.0,5425.0,1214.0,79.0,1913.0,3446.0,,,,2.90403881192096,-3.00953569909648,-1.72425741761806,,-0.045070716330738926,,
,5869.0,693.0,5423.0,1212.0,93.0,1921.0,3444.0,,,,2.90606234185159,-3.00974485560138,-1.72414841975033,,0.23138284488884825,,
,5872.0,699.0,5431.0,1216.0,97.0,1916.0,3450.0,,,,2.9054559460127,-3.009585154889,-1.72372842688374,,0.5166357867088351,,
,5872.0,698.0,5429.0,1216.0,95.0,1923.0,3459.0,,,,2.90629856330124,-3.00950886584988,-1.72365358100092,,0.8070327024772732,,
,5876.0,695.0,5430.0,1215.0,91.0,1919.0,3455.0,,,,2.90531780963246,-3.0097468963468,-1.72374542602421,,1.0985113927633368,,
,5876.0,697.0,5433.0,1213.0,101.0,1926.0,3446.0,,,,2.90604073880835,-3.00963419370255,-1.72407278723888,,1.3864726640247738,,
,5879.0,697.0,5434.0,1217.0,84.0,1921.0,3452.0,,,,2.90731871977645,-3.00962034847262,-1.72376237865872,,1.66570319279488,,
,5879.0,699.0,5433.0,1218.0,94.0,1918.0,3467.0,,,,2.90780187618166,-3.0095819578875,-1.72378455276697,,1.9303823025201223,,
,5879.0,699.0,5434.0,1216.0,85.0,1919.0,3475.0,,,,2.90755553794433,-3.00962936790851,-1.72361601844481,,2.1741906548720515,,
,5881.0,699.0,5434.0,1216.0,92.0,1917.0,3464.0,,,,2.9076331892635,-3.00965645830409,-1.72326021454511,,2.3905244156844514,,
,5884.0,699.0,5439.0,1216.0,89.0,1916.0,3465.0,,,,2.90677814020394,-3.00946245449481,-1.72366489088504,,2.572803527958544,,
,5885.0,698.0,5438.0,1219.0,98.0,1916.0,3466.0,,,,2.90600029774438,-3.00956731121842,-1.72359649593498,,2.7148484915403137,,
,5886.0,700.0,5439.0,1221.0,92.0,1914.0,3463.0,,,,2.90727794436454,-3.00951869048034,-1.72426739812059,,2.8112881497100615,,
,5889.0,699.0,5444.0,1221.0,90.0,1919.0,3468.0,,,,2.90530643013289,-3.00946847583552,-1.7243770244354,,2.8579533232466785,,
,5890.0,698.0,5446.0,1220.0,71.0,1932.0,3449.0,,,,2.90466337646304,-3.00973348807292,-1.7238441489749,,2.8522095994904944,,
,5893.0,702.0,5445.0,1220.0,75.0,1920.0,3472.0,,,,2.90482421489928,-3.00959240566515,-1.7237568513444,,2.793188614445648,,
,5897.0,701.0,5447.0,1222.0,82.0,1926.0,3462.0,,,,2.906143803536,-3.00960221236244,-1.72327897273527,,2.68189086174855,,
,5895.0,702.0,5447.0,1221.0,85.0,1921.0,3456.0,,,,2.90467281693214,-3.00971839327048,-1.72449928582982,,2.521152196131057,,
,5897.0,699.0,5446.0,1219.0,88.0,1926.0,3456.0,,,,2.90468786190701,-3.00964403333672,-1.72399944081636,,2.3154861119777777,,
,5898.0,701.0,5450.0,1221.0,86.0,1913.0,3457.0,,,,2.90488213492162,-3.00969635660592,-1.72420589277695,,2.070829103584002,,
,5902.0,701.0,5453.0,1223.0,85.0,1911.0,3462.0,,,,2.90457180743633,-3.00956574275854,-1.72391109920419,,1.7942234181407686,,
,5903.0,704.0,5452.0,1222.0,85.0,1916.0,3458.0,,,,2.90582791674287,-3.00966370358094,-1.7236652462601,,1.49347035594749,,
,5904.0,700.0,5454.0,1222.0,107.0,1921.0,3428.0,,,,2.90608220215494,-3.00952840854985,-1.7234885513577,,1.1767808054761193,,
,5906.0,701.0,5456.0,1224.0,103.0,1927.0,3437.0,,,,2.9063709184494,-3.00977230534944,-1.72395644894256,,0.8524413910253106,,
,5908.0,703.0,5460.0,1225.0,77.0,1922.0,3466.0,,,,2.90587125538773,-3.00967304146976,-1.72323308509322,,0.5285069385123251,,
,5911.0,704.0,5460.0,1228.0,76.0,1918.0,3450.0,,,,2.90717751895989,-3.00971251725692,-1.72333259046913,,0.21252407793897382,,
,5912.0,703.0,5460.0,1225.0,80.0,1922.0,3434.0,,,,2.90817976412197,-3.00980917785656,-1.72358402149564,,-0.0887130518560159,,
,5916.0,702.0,5463.0,1227.0,87.0,1917.0,3461.0,,,,2.90817178436959,-3.00983689816172,-1.72353016364106,,-0.3693758971643104,,
,5920.0,704.0,5465.0,1226.0,90.0,1918.0,3466.0,,,,2.90858638355445,-3.00983180761685,-1.72367157750001,,-0.6247840592270295,,
,5918.0,705.0,5466.0,1228.0,83.0,1916.0,3460.0,,,,2.90990750390699,-3.00969545869843,-1.72271068755455,,-0.8515553845209728,,
,5917.0,703.0,5465.0,1229.0,105.0,1915.0,3453.0,,,,2.91017863026031,-3.00972332722027,-1.72382781594065,,-1.0477165516961544,,
,5920.0,704.0,5466.0,1227.0,110.0,1927.0,3451.0,,,,2.91049483193279,-3.00978203587989,-1.72350676351581,,-1.2127607339329076,,
,5916.0,706.0,5465.0,1230.0,100.0,1925.0,3453.0,,,,2.90993724896157,-3.00981660007391,-1.72332548918085,,-1.3476338590232122,,
,5917.0,704.0,5462.0,1229.0,100.0,1919.0,3447.0,,,,2.91154743608529,-3.00978658526059,-1.72303273989383,,-1.4546306645511529,,
,5915.0,706.0,5463.0,1228.0,89.0,1918.0,3437.0,,,,2.91200197652444,-3.00969516193171,-1.72259361668991,,-1.5371882495521438,,
,5910.0,703.0,5457.0,1224.0,96.0,1924.0,3461.0,,,,2.91180391282229,-3.0097151299134,-1.72317817150562,,-1.5995774108335663,,
,5907.0,702.0,5457.0,1227.0,87.0,1917.0,3445.0,,,,2.9134109831011,-3.00971607815022,-1.72262142410469,,-1.646507546152417,,
,5903.0,704.0,5451.0,1223.0,82.0,1928.0,3440.0,,,,2.91177981581159,-3.00997175351002,-1.72212013179492,,-1.6826755250784375,,
,5902.0,701.0,5446.0,1224.0,94.0,1930.0,3453.0,,,,2.91261749855821,-3.00954433432483,-1.72277619281951,,-1.712299822473912,,
,5894.0,702.0,5440.0,1219.0,114.0,1922.0,3449.0,,,,2.91236698891813,-3.00968781926432,-1.72312586568602,,-1.738686902886694,,
,5888.0,701.0,5434.0,1218.0,96.0,1923.0,3448.0,,,,2.91370782213508,-3.00977742390559,-1.72279024074362,,-1.763876909086279,,
,5883.0,700.0,5431.0,1215.0,82.0,1933.0,3454.0,,,,2.91421507551199,-3.00956982267087,-1.72293420279601,,-1.7884102969171116,,
,5879.0,699.0,5426.0,1214.0,87.0,1932.0,3440.0,,,,2.91381850214956,-3.00965950132777,-1.72273409439419,,-1.8112465841196754,,
,5876.0,697.0,5421.0,1212.0,102.0,1937.0,3462.0,,,,2.91441122291598,-3.00948942389978,-1.72298744139412,,-1.8298513784292876,,
,5872.0,698.0,5418.0,1209.0,85.0,1936.0,3472.0,,,,2.91555099663301,-3.00965810678735,-1.72314794887039,,-1.840449113092137,,
,5866.0,697.0,5413.0,1211.0,75.0,1934.0,3461.0,,,,2.91389112552033,-3.00964969624369,-1.72268076040969,,-1.8384179570004606,,
,5865.0,697.0,5412.0,1210.0,83.0,1931.0,3470.0,,,,2.91476817338243,-3.0095329035852,-1.72287270970491,,-1.8187829449520192,,
,5858.0,693.0,5405.0,1205.0,82.0,1934.0,3464.0,,,,2.91444374575994,-3.00954366384487,-1.72247554713764,,-1.776747521207952,,
,5859.0,695.0,5401.0,1203.0,90.0,1939.0,3478.0,,,,2.91518028800767,-3.00970678167725,-1.72252365950962,,-1.7081966314155277,,
,5855.0,695.0,5401.0,1206.0,85.0,1932.0,3442.0,,,,2.91498365317085,-3.00945447490741,-1.72279093794604,,-1.6101087462579027,,
,5852.0,699.0,5400.0,1205.0,88.0,1925.0,3441.0,,,,2.91564943803206,-3.00982157126645,-1.72273681104517,,-1.4808291690726767,,
,5854.0,695.0,5395.0,1203.0,83.0,1918.0,3444.0,,,,2.91572834459479,-3.00962916332529,-1.72255767014559,,-1.3201793178591512,,
,5849.0,694.0,5394.0,1201.0,88.0,1905.0,3461.0,,,,2.91565607860225,-3.00964028661399,-1.72266118058064,,-1.1294018948897186,,
,5850.0,696.0,5392.0,1203.0,82.0,1919.0,3474.0,,,,2.91602452417683,-3.00956171241538,-1.72216821970901,,-0.9109657887572886,,
,5845.0,697.0,5388.0,1201.0,101.0,1925.0,3467.0,,,,2.91683126827241,-3.00955422718691,-1.72264985079913,,-0.6682738264765051,,
,5846.0,694.0,5389.0,1201.0,100.0,1925.0,3458.0,,,,2.91642660897364,-3.00979120056104,-1.72238699651465,,-0.4053285610009799,,
,5846.0,695.0,5387.0,1200.0,111.0,1923.0,3483.0,,,,2.9174162562229,-3.00969967433724,-1.7215571075282,,-0.12641449505229788,,
,5844.0,697.0,5385.0,1197.0,98.0,1917.0,3487.0,,,,2.9162556389496,-3.00956599045084,-1.72234545568204,,0.16415110292145552,,
,5841.0,695.0,5385.0,1197.0,96.0,1913.0,3466.0,,,,2.91782154895592,-3.00973868074207,-1.72239570332242,,0.4621617938749506,,
,5843.0,694.0,5384.0,1199.0,94.0,1912.0,3482.0,,,,2.918802916406,-3.0097368679305,-1.7219231393668,,0.7635451248612931,,
,5844.0,694.0,5383.0,1201.0,79.0,1915.0,3487.0,,,,2.91938517562128,-3.00983733998333,-1.72236146246753,,1.0642760200271904,,
,5843.0,694.0,5380.0,1198.0,83.0,1913.0,3492.0,,,,2.91873301031162,-3.00958907447862,-1.72226998633093,,1.3602147923680419,,
,5840.0,694.0,5383.0,1197.0,88.0,1910.0,3463.0,,,,2.91946337808879,-3.00973544346424,-1.72269029299174,,1.6469205267159728,,
,5841.0,696.0,5383.0,1200.0,100.0,1920.0,3435.0,,,,2.9194016510301,-3.00973626466336,-1.72233642192727,,1.9194958379975935,,
,5844.0,696.0,5386.0,1201.0,89.0,1923.0,3444.0,,,,2.92074969557961,-3.009831711148,-1.72274590748194,,2.1725127715846986,,
,5840.0,694.0,5384.0,1198.0,85.0,1930.0,3443.0,,,,2.91979951293145,-3.00964703274285,-1.7224701321726,,2.4000545644857705,,
,5842.0,694.0,5385.0,1199.0,94.0,1928.0,3443.0,,,,2.91749859108506,-3.00975927167733,-1.72300686691462,,2.595888043341732,,
2025-07-02 19:22:55,5841.0,696.0,5384.0,1198.0,92.0,1926.0,3445.0,,,2025/07/02 07:22:55 PM,2.9145301807038,-3.00971734287295,-1.72264028909753,,2.7537601149213993,,
,5842.0,696.0,5384.0,1198.0,95.0,1924.0,3452.0,,,,2.91209236541193,-3.00965377886582,-1.72248219274104,,2.867791767709192,,
,5841.0,696.0,5386.0,1196.0,102.0,1927.0,3451.0,,,,2.90829181242532,-3.00954778183608,-1.72339220929188,,2.9329263992509795,,
,5842.0,694.0,5383.0,1197.0,93.0,1923.0,3448.0,,,,2.90398170720401,-3.00945262187442,-1.72370700472927,,2.9453781273205557,,
,5846.0,696.0,5383.0,1197.0,66.0,1924.0,3476.0,,,,2.9026015579579,-3.00963235220507,-1.72438121354441,,2.9030219624378324,,
,5843.0,697.0,5382.0,1199.0,70.0,1917.0,3476.0,,,,2.90089677726817,-3.00934123736913,-1.72460862522933,,2.805672838946544,,
,5843.0,696.0,5383.0,1197.0,84.0,1906.0,3473.0,,,,2.90035043914992,-3.00953736793413,-1.72477744367594,,2.6552148691378887,,
,5842.0,694.0,5383.0,1195.0,75.0,1910.0,3473.0,,,,2.8989568461164,-3.0093621116994,-1.72454013723312,,2.455563907352995,,
,5841.0,694.0,5381.0,1194.0,81.0,1915.0,3477.0,,,,2.89807911742527,-3.00968281077829,-1.72462193370545,,2.212471017437648,,
,5843.0,696.0,5383.0,1199.0,80.0,1922.0,3460.0,,,,2.89843023357707,-3.00953647228361,-1.72471214396703,,1.9331957242903466,,
,5840.0,694.0,5381.0,1197.0,82.0,1923.0,3464.0,,,,2.89714576883437,-3.009352345045,-1.72449478772929,,1.6260911876384863,,
,5840.0,694.0,5380.0,1194.0,78.0,1922.0,3455.0,,,,2.897404264659,-3.00939366754675,-1.7247714704877,,1.3001471432339977,,
,5838.0,694.0,5378.0,1197.0,87.0,1919.0,3461.0,,,,2.89663551140177,-3.00924893953765,-1.72462653034513,,0.9645323403331225,,
,5841.0,696.0,5381.0,1197.0,94.0,1911.0,3452.0,,,,2.89782716574197,-3.00937901964672,-1.72484900579657,,0.6281694480475438,,
,5841.0,696.0,5380.0,1196.0,105.0,1915.0,3440.0,,,,2.89794767700039,-3.0094294322931,-1.72485318817671,,0.29936487591419075,,
,5842.0,696.0,5379.0,1197.0,90.0,1911.0,3443.0,,,,2.89830990706679,-3.00932847468505,-1.72428621422027,,-0.014494407497474828,,
,5842.0,695.0,5378.0,1196.0,80.0,1911.0,3444.0,,,,2.8995727673648,-3.0096282222128,-1.72497534880248,,-0.3071739196208024,,
,5845.0,696.0,5381.0,1196.0,87.0,1923.0,3435.0,,,,2.89851318011663,-3.00940680269116,-1.72426007033231,,-0.5737580438502755,,
,5841.0,698.0,5380.0,1197.0,90.0,1926.0,3437.0,,,,2.89960653139867,-3.00960318051085,-1.72481035266477,,-0.8107567205464891,,
,5845.0,694.0,5379.0,1197.0,81.0,1934.0,3412.0,,,,2.89971287376176,-3.00927371402347,-1.72435997221953,,-1.01615923146696,,
,5844.0,694.0,5377.0,1197.0,74.0,1931.0,3444.0,,,,2.8999991207192,-3.00944029511809,-1.72379502919313,,-1.1894379604790832,,
,5845.0,697.0,5380.0,1198.0,84.0,1923.0,3475.0,,,,2.89996573971339,-3.0094975381689,-1.7237740878697,,-1.331498729093073,,
,5847.0,698.0,5381.0,1199.0,87.0,1931.0,3482.0,,,,2.90022631963281,-3.0096130566273,-1.72482527243073,,-1.4445685716212626,,
,5847.0,697.0,5384.0,1199.0,87.0,1929.0,3474.0,,,,2.89935846479292,-3.00936565382895,-1.72436826231916,,-1.5320101417661551,,
,5848.0,696.0,5380.0,1196.0,85.0,1927.0,3462.0,,,,2.9006242911616,-3.00953039657231,-1.72433350967207,,-1.598056403734641,,
,5850.0,695.0,5381.0,1196.0,83.0,1926.0,3458.0,,,,2.90112311442005,-3.00936895417692,-1.72447342792635,,-1.6474691726073911,,
,5853.0,698.0,5384.0,1198.0,93.0,1932.0,3467.0,,,,2.90138072657985,-3.00926938476111,-1.72412696854607,,-1.6851375620510847,,
,5853.0,698.0,5385.0,1197.0,82.0,1933.0,3458.0,,,,2.90295457553532,-3.00940659724428,-1.72456882855653,,-1.7156442043854523,,
,5853.0,697.0,5384.0,1197.0,86.0,1925.0,3455.0,,,,2.90267454522494,-3.00947285730987,-1.72446012951142,,-1.742835914215794,,
,5854.0,697.0,5387.0,1199.0,97.0,1926.0,3460.0,,,,2.90314789813653,-3.00946037477771,-1.7237823459331,,-1.7694400960833063,,
,5858.0,699.0,5388.0,1198.0,103.0,1923.0,3446.0,,,,2.90326667413407,-3.00941245939879,-1.72470486417857,,-1.7967681448946418,,
,5858.0,699.0,5389.0,1201.0,92.0,1922.0,3447.0,,,,2.90386946663031,-3.00956749081966,-1.72424315971747,,-1.8245421405259832,,
,5860.0,699.0,5393.0,1199.0,77.0,1929.0,3441.0,,,,2.90427938824717,-3.00930501584914,-1.72368907953355,,-1.8508712866160928,,
,5861.0,699.0,5390.0,1199.0,86.0,1923.0,3446.0,,,,2.9051580737753,-3.00951207012404,-1.72435376690842,,-1.872390099576277,,
,5862.0,699.0,5392.0,1200.0,91.0,1920.0,3442.0,,,,2.90396908981675,-3.00936399912677,-1.72392066835636,,-1.8845522206913126,,
,5866.0,701.0,5396.0,1199.0,93.0,1922.0,3469.0,,,,2.90486915302993,-3.00958234687805,-1.72420953835509,,-1.8820538110740586,,
,5869.0,701.0,5399.0,1201.0,97.0,1922.0,3455.0,,,,2.90386117081652,-3.00960861823821,-1.72403155408433,,-1.8593420026286578,,
,5869.0,699.0,5395.0,1200.0,96.0,1926.0,3438.0,,,,2.90438732098021,-3.00963879493665,-1.72390522647949,,-1.8111509325466775,,
,5869.0,700.0,5402.0,1202.0,96.0,1933.0,3439.0,,,,2.90307797445607,-3.0095999197937,-1.72384944075908,,-1.73300407113225,,
,5874.0,700.0,5404.0,1205.0,66.0,1924.0,3439.0,,,,2.90199135085995,-3.00949562618581,-1.72335548666965,,-1.6216281284021794,,
,5875.0,701.0,5405.0,1204.0,76.0,1918.0,3454.0,,,,2.90320634631419,-3.00947280827945,-1.72465920759027,,-1.4752390997983829,,
,5875.0,698.0,5407.0,1203.0,84.0,1926.0,3457.0,,,,2.90278693284046,-3.00948991578162,-1.72355042160808,,-1.2936813897632025,,
,5879.0,702.0,5408.0,1205.0,81.0,1917.0,3438.0,,,,2.90248593287179,-3.00962933885184,-1.72446554623744,,-1.0784225086706805,,
,5878.0,702.0,5411.0,1205.0,102.0,1922.0,3445.0,,,,2.90395160093426,-3.00966452325557,-1.72419920651996,,-0.8324251642116199,,
,5884.0,703.0,5413.0,1207.0,104.0,1923.0,3465.0,,,,2.90404390467047,-3.00945666384108,-1.72416513814341,,-0.559932949147229,,
,5883.0,703.0,5414.0,1206.0,111.0,1925.0,3456.0,,,,2.9045259044208,-3.00966461113339,-1.72364666565562,,-0.26621335433442506,,
,5886.0,705.0,5415.0,1208.0,105.0,1932.0,3437.0,,,,2.90531240593788,-3.00961782872157,-1.72407668355588,,0.042698488783139144,,
,5890.0,706.0,5418.0,1210.0,112.0,1934.0,3453.0,,,,2.90500507372862,-3.00967214411193,-1.72337546638611,,0.36022020179025216,,
,5891.0,705.0,5420.0,1208.0,106.0,1927.0,3456.0,,,,2.9067618695092,-3.00935302880269,-1.72283534752633,,0.6793867913720306,,
,5892.0,705.0,5421.0,1209.0,93.0,1931.0,3463.0,,,,2.90545722114355,-3.00966320873777,-1.72350960529056,,0.9929592958354484,,
,5892.0,704.0,5420.0,1208.0,91.0,1931.0,3444.0,,,,2.90696094568023,-3.00984309699927,-1.72307081185223,,1.293497023677465,,
,5897.0,705.0,5426.0,1211.0,96.0,1928.0,3466.0,,,,2.90703072721364,-3.00954511327805,-1.72321970469429,,1.573427576556975,,
,5899.0,707.0,5426.0,1210.0,100.0,1911.0,3445.0,,,,2.90575826789957,-3.00964120617785,-1.72310604065339,,1.8251538374950094,,
,5900.0,708.0,5426.0,1213.0,90.0,1908.0,3443.0,,,,2.90842167844678,-3.00941314763192,-1.72300230824686,,2.041230928279372,,
,5901.0,707.0,5428.0,1211.0,83.0,1913.0,3452.0,,,,2.90906349629075,-3.00964885620632,-1.72284905058072,,2.2146307580070177,,
,5901.0,706.0,5431.0,1212.0,78.0,1916.0,3454.0,,,,2.90970412710627,-3.00968662060282,-1.72272977312087,,2.339091342415002,,
,5907.0,707.0,5435.0,1214.0,89.0,1930.0,3436.0,,,,2.90978948360706,-3.00979984932166,-1.72270107795778,,2.4095269778652004,,
,5910.0,706.0,5437.0,1214.0,89.0,1931.0,3436.0,,,,2.90948402634885,-3.009654180168,-1.72286581285659,,2.422457190116459,,
,5909.0,708.0,5437.0,1215.0,92.0,1930.0,3460.0,,,,2.9108266045062,-3.00961870589636,-1.72261915877954,,2.3763998322859483,,
,5914.0,709.0,5439.0,1214.0,95.0,1929.0,3456.0,,,,2.91226378430075,-3.00959016211306,-1.72217169392102,,2.2721688161047116,,
,5916.0,709.0,5441.0,1217.0,94.0,1927.0,3462.0,,,,2.91218884890084,-3.0097166269329,-1.72250458922214,,2.113021148716379,,
,5917.0,711.0,5444.0,1219.0,102.0,1924.0,3445.0,,,,2.91216880074871,-3.00972381904523,-1.72302679487251,,1.9046117536643303,,
,5919.0,706.0,5444.0,1217.0,95.0,1934.0,3451.0,,,,2.91137264649279,-3.00959591234299,-1.72225341994178,,1.6547371848978394,,
,5919.0,709.0,5446.0,1216.0,88.0,1932.0,3452.0,,,,2.91277301829027,-3.00985654558442,-1.72271791676634,,1.3728781590181254,,
,5920.0,710.0,5447.0,1218.0,76.0,1925.0,3445.0,,,,2.91441622096972,-3.00977844355253,-1.72299855713302,,1.069581077097112,,
,5920.0,710.0,5446.0,1219.0,88.0,1924.0,3455.0,,,,2.91371927680787,-3.00976830255528,-1.72188694020653,,0.7557440561857459,,
,5919.0,709.0,5446.0,1218.0,88.0,1930.0,3453.0,,,,2.91451323470171,-3.00984572451688,-1.72176227543273,,0.44188742585142077,,
,5914.0,708.0,5444.0,1215.0,113.0,1930.0,3460.0,,,,2.91477414410733,-3.00966202546809,-1.72128023090336,,0.13748904569334344,,
,5916.0,709.0,5442.0,1217.0,108.0,1923.0,3464.0,,,,2.91554996548591,-3.0095826006418,-1.72225045430362,,-0.14954773166727856,,
,5913.0,711.0,5440.0,1217.0,92.0,1910.0,3459.0,,,,2.91455947790661,-3.00977526043196,-1.72178673958697,,-0.4132468596254362,,
,5905.0,712.0,5438.0,1214.0,91.0,1916.0,3460.0,,,,2.91453140812593,-3.00950119322621,-1.72248588632349,,-0.6497114798944971,,
,5904.0,706.0,5432.0,1209.0,94.0,1912.0,3487.0,,,,2.91659504299481,-3.00963450526601,-1.72231709325247,,-0.857077706025297,,
,5899.0,706.0,5427.0,1209.0,97.0,1909.0,3468.0,,,,2.91613883023698,-3.00962647990149,-1.7224157724823,,-1.0352944842316385,,
,5896.0,706.0,5424.0,1209.0,81.0,1922.0,3437.0,,,,2.91649699840878,-3.00972507207758,-1.72234585217036,,-1.1857702719841392,,
,5891.0,705.0,5417.0,1209.0,87.0,1923.0,3436.0,,,,2.91762507830827,-3.00968754288909,-1.72160772524285,,-1.310937989825166,,
,5886.0,706.0,5415.0,1205.0,83.0,1935.0,3457.0,,,,2.91719204148114,-3.00949515247121,-1.72177973867807,,-1.4137937841239232,,
,5881.0,705.0,5412.0,1204.0,91.0,1923.0,3469.0,,,,2.91819986078581,-3.00977332045138,-1.72220292670127,,-1.4974620243347312,,
,5882.0,704.0,5408.0,1202.0,95.0,1924.0,3464.0,,,,2.91780562041746,-3.0097035796635,-1.72212835261758,,-1.5648286882329117,,
,5880.0,704.0,5404.0,1201.0,100.0,1933.0,3442.0,,,,2.91901045716094,-3.00960981089413,-1.72164141906334,,-1.6182692493878432,,
,5875.0,703.0,5400.0,1199.0,98.0,1933.0,3450.0,,,,2.91855952736442,-3.00976414607196,-1.72207263853142,,-1.6594786220450668,,
,5870.0,702.0,5396.0,1197.0,99.0,1926.0,3452.0,,,,2.91873135907781,-3.00972464619055,-1.72185975585212,,-1.6893942038750873,,
,5869.0,703.0,5393.0,1196.0,76.0,1924.0,3437.0,,,,2.91961617451327,-3.00968804525135,-1.72217444454666,,-1.7081926148421538,,
,5868.0,701.0,5392.0,1194.0,69.0,1934.0,3481.0,,,,2.91942062335765,-3.0097291776049,-1.72175528329643,,-1.71533785360048,,
,5866.0,700.0,5391.0,1195.0,81.0,1936.0,3491.0,,,,2.91974090090537,-3.00985638815191,-1.7213471116381,,-1.7096618014320681,,
,5865.0,702.0,5388.0,1194.0,94.0,1924.0,3473.0,,,,2.92046285418743,-3.00965863634399,-1.72262713125653,,-1.6894642627558996,,
,5866.0,702.0,5387.0,1195.0,88.0,1920.0,3461.0,,,,2.91987990084005,-3.00976354972754,-1.7217041866526,,-1.6526263026405927,,
,5864.0,705.0,5388.0,1193.0,110.0,1922.0,3452.0,,,,2.92092397553654,-3.00967931697073,-1.72201968744611,,-1.5967359530880874,,
,5861.0,702.0,5386.0,1193.0,104.0,1922.0,3465.0,,,,2.92158572617167,-3.00985904103578,-1.72169490843777,,-1.5192287969088292,,
,5862.0,702.0,5385.0,1192.0,82.0,1921.0,3482.0,,,,2.92133950411677,-3.00986847225534,-1.72172580209639,,-1.4175473873257305,,
,5861.0,703.0,5384.0,1192.0,90.0,1921.0,3479.0,,,,2.92181955482733,-3.00997713927672,-1.72150257019561,,-1.2893231054635064,,
,5862.0,703.0,5383.0,1192.0,81.0,1917.0,3451.0,,,,2.9211785083376,-3.0097228187965,-1.72152408374998,,-1.132582210434097,,
,5861.0,703.0,5384.0,1191.0,86.0,1920.0,3453.0,,,,2.92058968110468,-3.00965194680707,-1.72210193418082,,-0.9459746203535211,,
,5860.0,703.0,5383.0,1193.0,99.0,1919.0,3466.0,,,,2.91893157778945,-3.00973314578948,-1.7217199355212,,-0.7290191200422338,,
,5860.0,703.0,5382.0,1191.0,97.0,1921.0,3468.0,,,,2.9146564106652,-3.00965774515121,-1.72195963019215,,-0.4823519340012197,,
,5862.0,703.0,5383.0,1188.0,95.0,1931.0,3459.0,,,,2.91276046927948,-3.00985115731249,-1.7224998834843,,-0.2079575016465343,,
,5861.0,702.0,5385.0,1191.0,92.0,1933.0,3461.0,,,,2.91028880388321,-3.00958723363255,-1.72283864775711,,0.09064701029774846,,
,5863.0,704.0,5385.0,1191.0,96.0,1933.0,3469.0,,,,2.90812493584606,-3.00970045419787,-1.72336676203069,,0.40830530916405394,,
,5860.0,702.0,5383.0,1190.0,95.0,1930.0,3456.0,,,,2.90732108160744,-3.00970016046484,-1.72412090683539,,0.7382228538114426,,
,5862.0,705.0,5386.0,1191.0,95.0,1932.0,3439.0,,,,2.90452701405018,-3.00981198318122,-1.72402642470444,,1.0720956372420645,,
,5864.0,705.0,5386.0,1191.0,98.0,1933.0,3459.0,,,,2.90290438225306,-3.00969087254026,-1.72385010525989,,1.4003752283010151,,
,5863.0,703.0,5388.0,1191.0,93.0,1931.0,3437.0,,,,2.9024434522569,-3.00960540750821,-1.72363160997193,,1.7126647703160929,,
,5863.0,706.0,5387.0,1190.0,102.0,1925.0,3431.0,,,,2.90216820039863,-3.00972585151604,-1.72370351039539,,1.9982271653823498,,
,5865.0,704.0,5388.0,1189.0,109.0,1927.0,3456.0,,,,2.9006979285536,-3.00945259739839,-1.72368498691439,,2.2465741976344056,,
,5866.0,705.0,5391.0,1191.0,101.0,1917.0,3466.0,,,,2.90165923436216,-3.00949999638044,-1.72347867063624,,2.4480944741774016,,
,5865.0,703.0,5389.0,1192.0,97.0,1912.0,3450.0,,,,2.90147573543015,-3.00961339891243,-1.72403215966624,,2.594669664594274,,
,5867.0,703.0,5388.0,1190.0,107.0,1934.0,3436.0,,,,2.90283003155097,-3.00959969237284,-1.72400694729039,,2.6802239428158257,,
,5866.0,704.0,5390.0,1190.0,89.0,1917.0,3471.0,,,,2.90288961677911,-3.00946429748343,-1.72373446364306,,2.7011525124817477,,
,5864.0,705.0,5390.0,1191.0,90.0,1926.0,3464.0,,,,2.90327509387058,-3.00959489605361,-1.72345724835201,,2.656583251764571,,
,5867.0,707.0,5390.0,1191.0,100.0,1914.0,3450.0,,,,2.90332965697325,-3.00968279832251,-1.72454593177323,,2.5484413830667996,,
,5867.0,704.0,5391.0,1188.0,96.0,1924.0,3444.0,,,,2.90327253797876,-3.00948974410194,-1.7237684263773,,2.381309068013648,,
,5866.0,704.0,5389.0,1189.0,100.0,1934.0,3449.0,,,,2.90413700954016,-3.00949465970739,-1.72305865007902,,2.162096004877358,,
,5867.0,705.0,5389.0,1188.0,110.0,1935.0,3447.0,,,,2.90362153305785,-3.00964860851736,-1.72411928247169,,1.899558413208072,,
,5869.0,705.0,5390.0,1190.0,112.0,1937.0,3458.0,,,,2.90433612366576,-3.00980456105333,-1.72371467332635,,1.6037181981970565,,
,5869.0,704.0,5389.0,1191.0,101.0,1935.0,3470.0,,,,2.90499607480509,-3.00958022187559,-1.72403751816641,,1.285239987291711,,
,5869.0,704.0,5392.0,1190.0,98.0,1929.0,3470.0,,,,2.90383474306601,-3.00968651333983,-1.72337837575065,,0.954821747179273,,
,5867.0,702.0,5390.0,1190.0,102.0,1914.0,3466.0,,,,2.90319328782127,-3.00963646734149,-1.72481700182412,,0.6226465551861352,,
,5870.0,706.0,5392.0,1192.0,107.0,1921.0,3455.0,,,,2.90384226547368,-3.00962485224453,-1.72411522940353,,0.2979307611888662,,
,5870.0,707.0,5391.0,1188.0,107.0,1922.0,3457.0,,,,2.90525007834011,-3.00973327828138,-1.72416221801996,,-0.011410866487594994,,
,5868.0,704.0,5390.0,1190.0,106.0,1922.0,3483.0,,,,2.90543604710097,-3.00957178601438,-1.72356496605061,,-0.29897748062983004,,
,5870.0,706.0,5392.0,1188.0,88.0,1932.0,3477.0,,,,2.90612505914812,-3.00964468234026,-1.72366699047181,,-0.5599800998143245,,
,5872.0,707.0,5394.0,1191.0,86.0,1935.0,3473.0,,,,2.90604041960385,-3.00964584601238,-1.7233252417311,,-0.7912437619180008,,
,5875.0,706.0,5394.0,1191.0,91.0,1927.0,3478.0,,,,2.90525570233726,-3.00972295085068,-1.7236778195033,,-0.9911381493184496,,
,5876.0,706.0,5396.0,1192.0,91.0,1925.0,3485.0,,,,2.90627423701496,-3.00952774906208,-1.72358696667323,,-1.1594606165793515,,
,5877.0,705.0,5395.0,1190.0,94.0,1927.0,3492.0,,,,2.90693288836918,-3.0096002975863,-1.72388868693273,,-1.2972893984918705,,
,5879.0,708.0,5397.0,1192.0,101.0,1917.0,3502.0,,,,2.90796370086449,-3.00935545898637,-1.72358617501838,,-1.4068149292870336,,
,5879.0,706.0,5399.0,1193.0,89.0,1918.0,3470.0,,,,2.90870195151975,-3.00953682506184,-1.7227718880057,,-1.4911474283389017,,
,5883.0,707.0,5401.0,1193.0,83.0,1922.0,3469.0,,,,2.90843819230202,-3.00971022992677,-1.72342540831903,,-1.5540931882603388,,
,5883.0,707.0,5399.0,1189.0,78.0,1923.0,3467.0,,,,2.90716672342487,-3.00956756433354,-1.72356469359766,,-1.5998926271141585,,
2025-07-02 19:22:56,5884.0,705.0,5400.0,1194.0,79.0,1928.0,3475.0,,,2025/07/02 07:22:56 PM,2.90801632367816,-3.00952184407276,-1.72342448939223,,-1.6329196392330105,,
,5887.0,708.0,5404.0,1193.0,80.0,1933.0,3470.0,,,,2.90726542739,-3.00960480430004,-1.72321769210765,,-1.6573514435170218,,
,5890.0,710.0,5405.0,1194.0,89.0,1929.0,3464.0,,,,2.90719308803238,-3.00962736793973,-1.72314013955903,,-1.6768278828088719,,
,5891.0,708.0,5406.0,1193.0,87.0,1916.0,3464.0,,,,2.90794435027027,-3.00960825977614,-1.72319657417455,,-1.6941267501576884,,
,5891.0,707.0,5405.0,1196.0,101.0,1918.0,3448.0,,,,2.90721150880713,-3.00946933191963,-1.7234745426495,,-1.7108861020065544,,
,5894.0,712.0,5411.0,1195.0,99.0,1928.0,3462.0,,,,2.90695411899859,-3.00967650697383,-1.72320138192397,,-1.727405241442566,,
,5897.0,711.0,5411.0,1197.0,87.0,1928.0,3470.0,,,,2.9061322870565,-3.00968884718161,-1.72372966526666,,-1.7425529177750314,,
,5899.0,710.0,5413.0,1198.0,80.0,1919.0,3453.0,,,,2.90546672812647,-3.00955895715852,-1.72376455316153,,-1.753804110034148,,
,5899.0,709.0,5413.0,1195.0,76.0,1925.0,3463.0,,,,2.90490616823694,-3.00948518695363,-1.72371865043313,,-1.7574154446283428,,
,5901.0,709.0,5415.0,1197.0,92.0,1916.0,3461.0,,,,2.90579171600375,-3.00953788496374,-1.72311426668796,,-1.7487341610007394,,
,5905.0,710.0,5419.0,1199.0,76.0,1920.0,3487.0,,,,2.90630752778776,-3.00934499781661,-1.72386209765149,,-1.7226178054983405,,
,5903.0,712.0,5419.0,1197.0,78.0,1924.0,3491.0,,,,2.90715522208059,-3.00945908682244,-1.72381028843902,,-1.6739240587274864,,
,5910.0,710.0,5420.0,1198.0,93.0,1922.0,3472.0,,,,2.90724248994817,-3.00933089277099,-1.7234720924171,,-1.598016216305835,,
,5910.0,711.0,5421.0,1198.0,85.0,1932.0,3475.0,,,,2.90781972026192,-3.0095302738846,-1.72327283192489,,-1.491224212493418,,
,5913.0,714.0,5425.0,1200.0,76.0,1930.0,3456.0,,,,2.90733469824602,-3.00950066491849,-1.7234648245017,,-1.351206487940601,,
,5915.0,711.0,5427.0,1202.0,79.0,1929.0,3435.0,,,,2.90721700378114,-3.00950041238949,-1.72306627876973,,-1.1771739073498821,,
,5917.0,713.0,5430.0,1200.0,102.0,1932.0,3435.0,,,,2.90747810962733,-3.00946301310877,-1.72354853620155,,-0.9699595153110165,,
,5917.0,714.0,5428.0,1201.0,99.0,1922.0,3451.0,,,,2.90892975276711,-3.00938880354576,-1.72296330372907,,-0.7319419053832592,,
,5919.0,714.0,5430.0,1204.0,84.0,1921.0,3472.0,,,,2.90925455369317,-3.00961148429294,-1.72271128644374,,-0.46685067488745086,,
,5924.0,712.0,5433.0,1202.0,87.0,1913.0,3462.0,,,,2.90912405329264,-3.00962909408449,-1.7230069096113,,-0.17949674615758435,,
,5925.0,712.0,5434.0,1202.0,96.0,1918.0,3481.0,,,,2.90980213907324,-3.00955035042603,-1.72317371636799,,0.12452334627839051,,
,5928.0,713.0,5437.0,1203.0,97.0,1919.0,3470.0,,,,2.91126146898834,-3.00963014021506,-1.72296509945513,,0.4391022928068678,,
,5928.0,716.0,5437.0,1205.0,80.0,1925.0,3463.0,,,,2.91173506977445,-3.00976268365412,-1.72270420101352,,0.7578392958682878,,
,5932.0,716.0,5441.0,1205.0,84.0,1930.0,3459.0,,,,2.91173318575085,-3.0096781516786,-1.72267136681682,,1.0741798859635296,,
,5935.0,715.0,5441.0,1205.0,85.0,1926.0,3453.0,,,,2.9122880015394,-3.009643978214,-1.72292426749234,,1.3814790722043555,,
,5935.0,716.0,5444.0,1207.0,91.0,1928.0,3454.0,,,,2.91152418240866,-3.00973313752704,-1.72237961913592,,1.6730097835873583,,
,5942.0,717.0,5448.0,1208.0,81.0,1928.0,3483.0,,,,2.91277197933135,-3.00959281412767,-1.72229839395413,,1.9419555768104346,,
,5942.0,715.0,5448.0,1208.0,81.0,1926.0,3471.0,,,,2.91253520339652,-3.00982010416547,-1.72241951317338,,2.1814347371161658,,
,5944.0,720.0,5449.0,1210.0,80.0,1922.0,3457.0,,,,2.91451886901926,-3.009853113318,-1.72243148641717,,2.3845992011863038,,
,5942.0,715.0,5447.0,1206.0,90.0,1922.0,3427.0,,,,2.9140055226204,-3.00968598798255,-1.72218247649854,,2.544836681139518,,
,5947.0,718.0,5450.0,1209.0,82.0,1930.0,3432.0,,,,2.91421398826732,-3.00958472142123,-1.72230454747083,,2.6560817802182686,,
,5944.0,718.0,5449.0,1210.0,85.0,1925.0,3449.0,,,,2.91544362423208,-3.00974874280648,-1.72242475094476,,2.7132170015573696,,
,5948.0,718.0,5453.0,1208.0,94.0,1919.0,3462.0,,,,2.91542336954735,-3.00974720033214,-1.72253313420255,,2.7125221108464452,,
,5947.0,715.0,5449.0,1208.0,101.0,1924.0,3461.0,,,,2.91608187498982,-3.0097244450801,-1.72235940904874,,2.652113865325848,,
,5944.0,717.0,5447.0,1208.0,102.0,1922.0,3465.0,,,,2.91581947448066,-3.01001815043874,-1.72293022598211,,2.5323101523705205,,
,5944.0,716.0,5444.0,1206.0,94.0,1929.0,3440.0,,,,2.91495799256551,-3.00998562843523,-1.72252000959516,,2.355854666162437,,
,5939.0,717.0,5441.0,1207.0,95.0,1927.0,3446.0,,,,2.91624223375993,-3.00981311690928,-1.72210366594274,,2.1279509169281763,,
,5939.0,715.0,5436.0,1205.0,90.0,1916.0,3463.0,,,,2.91564492915101,-3.0097530038931,-1.72328030101266,,1.8560768448935046,,
,5934.0,713.0,5433.0,1202.0,97.0,1922.0,3468.0,,,,2.91763307282505,-3.00993932024288,-1.72223347407019,,1.5495811781460918,,
,5933.0,715.0,5429.0,1201.0,101.0,1911.0,3461.0,,,,2.91639267161871,-3.00980013585066,-1.72259640812688,,1.219095410285071,,
,5929.0,713.0,5427.0,1199.0,89.0,1906.0,3474.0,,,,2.91746478790234,-3.00965601519706,-1.72187330329251,,0.8758244070805011,,
,5926.0,717.0,5422.0,1199.0,93.0,1919.0,3463.0,,,,2.91655410701302,-3.00970315618126,-1.72197977436934,,0.5307973634805881,,
,5924.0,711.0,5415.0,1196.0,92.0,1925.0,3439.0,,,,2.91833028396693,-3.00982829897659,-1.72211039437389,,0.19416471075057892,,
,5922.0,710.0,5414.0,1195.0,101.0,1929.0,3431.0,,,,2.91730871960088,-3.0096167907236,-1.722098236174,,-0.12538436667708347,,
,5920.0,713.0,5411.0,1193.0,106.0,1936.0,3450.0,,,,2.91695346962643,-3.00977375019302,-1.72276412480726,,-0.42103083898080523,,
,5919.0,711.0,5406.0,1194.0,101.0,1937.0,3446.0,,,,2.91748815344479,-3.00946042419771,-1.72195432754376,,-0.688034869888323,,
,5914.0,710.0,5402.0,1192.0,96.0,1939.0,3454.0,,,,2.91840902711116,-3.00964294870857,-1.72260129790668,,-0.9237451762226218,,
,5915.0,711.0,5401.0,1190.0,90.0,1923.0,3467.0,,,,2.91814908958402,-3.00962422176987,-1.72197763335897,,-1.1274316301843772,,
,5914.0,711.0,5399.0,1189.0,79.0,1920.0,3478.0,,,,2.91864371852917,-3.00978787114213,-1.7220609494227,,-1.2999809470978945,,
,5913.0,712.0,5400.0,1190.0,83.0,1923.0,3468.0,,,,2.91912560121622,-3.00984274585902,-1.72135078187651,,-1.4435053835367957,,
,5915.0,711.0,5396.0,1188.0,88.0,1930.0,3450.0,,,,2.91915425870176,-3.00985897030799,-1.72186664247582,,-1.5609172337810047,,
,5912.0,710.0,5393.0,1187.0,80.0,1922.0,3464.0,,,,2.91964093365944,-3.01000252966273,-1.72207555761344,,-1.655517641190261,,
,5915.0,711.0,5395.0,1187.0,89.0,1913.0,3423.0,,,,2.92082519774162,-3.00993907328417,-1.72216814934698,,-1.7306375363099886,,
,5914.0,712.0,5391.0,1189.0,75.0,1919.0,3472.0,,,,2.91982558943573,-3.00962865034645,-1.72182221851195,,-1.7893531697683671,,
,5911.0,710.0,5392.0,1186.0,70.0,1927.0,3474.0,,,,2.92072918606644,-3.00955012956931,-1.72167058293239,,-1.834281972784855,,
,5914.0,708.0,5394.0,1187.0,88.0,1925.0,3460.0,,,,2.9212735280235,-3.00968765625706,-1.72114642314542,,-1.867450546680227,,
,5915.0,709.0,5392.0,1188.0,94.0,1921.0,3435.0,,,,2.92236116893082,-3.00976452177943,-1.72117059706336,,-1.8902189460586494,,
,5916.0,712.0,5392.0,1190.0,89.0,1919.0,3462.0,,,,2.92295349692884,-3.00974202593466,-1.72159942588708,,-1.9032450400567327,,
,5917.0,710.0,5395.0,1189.0,76.0,1919.0,3463.0,,,,2.92263951029061,-3.00971961800627,-1.72146493526819,,-1.9064776960651977,,
,5914.0,711.0,5392.0,1185.0,80.0,1919.0,3448.0,,,,2.9216036488647,-3.00971715259124,-1.72188607613839,,-1.8991745193691631,,
,5918.0,710.0,5392.0,1185.0,84.0,1932.0,3444.0,,,,2.92273502588941,-3.00981337421052,-1.72139713160448,,-1.879946038985075,,
,5922.0,713.0,5396.0,1187.0,82.0,1937.0,3433.0,,,,2.92179759535382,-3.0098580571827,-1.72154679641707,,-1.8468319593112419,,
,5920.0,714.0,5393.0,1187.0,85.0,1931.0,3442.0,,,,2.91960048320734,-3.0097514045102,-1.72188311973094,,-1.7974158824120567,,
,5919.0,712.0,5393.0,1187.0,94.0,1918.0,3464.0,,,,2.9159500067526,-3.00964704056686,-1.72267202609638,,-1.7289828489608112,,
,5920.0,712.0,5392.0,1187.0,91.0,1932.0,3467.0,,,,2.91181875779737,-3.00973412626019,-1.72298805851451,,-1.6387195547795714,,
,5924.0,713.0,5397.0,1188.0,96.0,1925.0,3452.0,,,,2.91020020529999,-3.00967499061502,-1.72318779308214,,-1.5239507490763011,,
,5926.0,713.0,5394.0,1189.0,101.0,1930.0,3450.0,,,,2.90744994962663,-3.00981189993631,-1.72315523589914,,-1.3823979031291918,,
,5925.0,712.0,5395.0,1188.0,91.0,1930.0,3440.0,,,,2.90524989797964,-3.00963360793293,-1.72319090567026,,-1.2124390256811988,,
,5925.0,713.0,5392.0,1187.0,82.0,1921.0,3459.0,,,,2.90337398113112,-3.00958736753375,-1.72396257166655,,-1.013343446625499,,
,5927.0,712.0,5397.0,1188.0,97.0,1901.0,3472.0,,,,2.90201212092102,-3.00941190795355,-1.7236944276278,,-0.7854547665058015,,
,5932.0,712.0,5398.0,1188.0,87.0,1922.0,3444.0,,,,2.90232064377904,-3.00960091593588,-1.72367798610337,,-0.5303003874223808,,
,5927.0,713.0,5398.0,1188.0,87.0,1929.0,3453.0,,,,2.90094784556171,-3.00977507819417,-1.7236798190985,,-0.2506163453555203,,
,5928.0,712.0,5394.0,1186.0,103.0,1924.0,3458.0,,,,2.90185012101137,-3.00943788612597,-1.72358078794983,,0.04971139835729606,,
,5929.0,711.0,5397.0,1188.0,85.0,1930.0,3453.0,,,,2.90131714175566,-3.0093653130705,-1.7233946677713,,0.36577701321587314,,
,5932.0,712.0,5396.0,1187.0,89.0,1917.0,3468.0,,,,2.90076389743381,-3.00946061285417,-1.72410454160299,,0.6918366782337322,,
,5933.0,713.0,5395.0,1188.0,82.0,1918.0,3455.0,,,,2.90055979331239,-3.00967653682859,-1.72356546451978,,1.021519657085435,,
,5933.0,713.0,5394.0,1188.0,88.0,1928.0,3455.0,,,,2.9008652322374,-3.00948952680159,-1.72347712334495,,1.3480464797968779,,
,5932.0,712.0,5394.0,1187.0,83.0,1927.0,3435.0,,,,2.90078982756097,-3.00949947457931,-1.72401914305753,,1.6644354503337175,,
,5935.0,712.0,5391.0,1189.0,87.0,1920.0,3457.0,,,,2.90228903604195,-3.0097260091803,-1.7237766519641,,1.9636841436032981,,
,5937.0,714.0,5394.0,1189.0,87.0,1924.0,3447.0,,,,2.90268899513904,-3.00944468929043,-1.72369244101808,,2.2389198571939546,,
,5939.0,714.0,5396.0,1187.0,83.0,1937.0,3447.0,,,,2.90211915910023,-3.00969799743813,-1.72396789417338,,2.4835219285626833,,
,5934.0,712.0,5391.0,1183.0,90.0,1927.0,3442.0,,,,2.90192732424751,-3.00948323732864,-1.72425852971952,,2.6912284904613313,,
,5940.0,714.0,5391.0,1189.0,92.0,1926.0,3466.0,,,,2.9029181734068,-3.00957243832054,-1.72457469052913,,2.8562483110013037,,
,5941.0,712.0,5393.0,1186.0,83.0,1925.0,3464.0,,,,2.90210298685083,-3.00963320518645,-1.72407022870987,,2.9734014879905697,,
,5943.0,712.0,5393.0,1188.0,91.0,1926.0,3463.0,,,,2.9018846148879,-3.00978902792172,-1.72404072406386,,3.0383080549318864,,
,5940.0,712.0,5392.0,1187.0,83.0,1922.0,3474.0,,,,2.9011095010482,-3.00958412281477,-1.72374090594042,,3.0476305522707343,,
,5942.0,715.0,5392.0,1186.0,75.0,1929.0,3454.0,,,,2.90178418492371,-3.00939668268976,-1.72411881471299,,2.9993582152456826,,
,5944.0,714.0,5392.0,1191.0,90.0,1928.0,3450.0,,,,2.90166936567217,-3.0096839123351,-1.72409060194856,,2.8931018245102957,,
,5947.0,712.0,5392.0,1189.0,100.0,1924.0,3466.0,,,,2.90260095486401,-3.00948179938156,-1.72461628787194,,2.730354655398656,,
,5949.0,711.0,5393.0,1187.0,100.0,1930.0,3469.0,,,,2.90218726487009,-3.00966001892931,-1.72468175778734,,2.5146696928861383,,
,5951.0,713.0,5393.0,1190.0,83.0,1924.0,3466.0,,,,2.90266923523723,-3.00956249111135,-1.72356833158982,,2.2517073363118993,,
,5953.0,713.0,5394.0,1189.0,89.0,1928.0,3455.0,,,,2.90272873159642,-3.0096256651699,-1.724310515636,,1.9491202691014906,,
,5952.0,713.0,5397.0,1190.0,91.0,1922.0,3469.0,,,,2.90245215541488,-3.00951340642645,-1.72423528692873,,1.61626089659487,,
,5954.0,717.0,5396.0,1190.0,89.0,1919.0,3467.0,,,,2.90313671478815,-3.00954486980758,-1.72363378453059,,1.263719143271537,,
,5957.0,714.0,5398.0,1191.0,92.0,1926.0,3449.0,,,,2.90419231623676,-3.00938731914536,-1.72381455425414,,0.9027217357223657,,
,5959.0,715.0,5400.0,1191.0,91.0,1928.0,3451.0,,,,2.90439129547818,-3.00922781261357,-1.72409542027742,,0.5444454498412218,,
,5964.0,717.0,5404.0,1191.0,90.0,1932.0,3461.0,,,,2.90580253740363,-3.00946863009974,-1.72387321509553,,0.19931266869550923,,
,5963.0,715.0,5402.0,1192.0,94.0,1933.0,3453.0,,,,2.90492771985533,-3.00925057913367,-1.72393123740195,,-0.12365575202523164,,
,5965.0,715.0,5401.0,1191.0,104.0,1921.0,3442.0,,,,2.90469181416457,-3.0095366650097,-1.7233832750009,,-0.4173603325041416,,
,5965.0,714.0,5404.0,1193.0,91.0,1924.0,3441.0,,,,2.90580828481112,-3.00959833766152,-1.72360753506568,,-0.6769617775898583,,
,5969.0,717.0,5406.0,1194.0,81.0,1932.0,3457.0,,,,2.905141009273,-3.00976889677098,-1.72363811380996,,-0.9000089252957443,,
,5972.0,715.0,5408.0,1193.0,81.0,1931.0,3463.0,,,,2.90550736889333,-3.00948053826736,-1.72366527854497,,-1.0863526871571134,,
,5972.0,715.0,5408.0,1193.0,85.0,1933.0,3449.0,,,,2.90418367016549,-3.00975525881989,-1.72373548991156,,-1.2378677015164152,,
,5975.0,715.0,5409.0,1196.0,75.0,1931.0,3440.0,,,,2.90483521727524,-3.00938404037088,-1.72393087813126,,-1.3580233708691134,,
,5977.0,717.0,5410.0,1195.0,87.0,1929.0,3454.0,,,,2.90388020234367,-3.00960191867578,-1.72333645321284,,-1.4513592951093854,,
,5981.0,720.0,5413.0,1196.0,98.0,1926.0,3451.0,,,,2.90355987648236,-3.0096602632226,-1.72428093467714,,-1.5229261578369164,,
,5982.0,719.0,5412.0,1194.0,101.0,1921.0,3440.0,,,,2.90313505029198,-3.00960314571506,-1.72410803121931,,-1.577751840875695,,
,5986.0,718.0,5416.0,1198.0,94.0,1919.0,3464.0,,,,2.90333688264527,-3.00943072283041,-1.72406392136166,,-1.6203843612883584,,
,5989.0,719.0,5417.0,1198.0,88.0,1926.0,3458.0,,,,2.90371288386296,-3.00979025240324,-1.7236631970383,,-1.6545490121877917,,
,5990.0,720.0,5420.0,1199.0,72.0,1923.0,3460.0,,,,2.9028611290894,-3.00972111275449,-1.72383438827085,,-1.682938414044714,,
,5991.0,717.0,5419.0,1200.0,72.0,1924.0,3472.0,,,,2.90465931814417,-3.00960814374768,-1.72375677475533,,-1.7071337683642946,,
,5994.0,719.0,5421.0,1198.0,78.0,1922.0,3462.0,,,,2.90446042629762,-3.00944110853295,-1.72344069765892,,-1.7276373683873107,,
,5996.0,719.0,5424.0,1201.0,84.0,1919.0,3470.0,,,,2.90659125452699,-3.0094893858518,-1.72388358352677,,-1.7439844584618003,,
,6001.0,718.0,5424.0,1200.0,94.0,1927.0,3464.0,,,,2.9068712112502,-3.00979726028189,-1.72378601216206,,-1.7548992556950012,,
,6002.0,721.0,5428.0,1201.0,85.0,1929.0,3464.0,,,,2.90601995753917,-3.00969138680691,-1.72316171347683,,-1.7584647688575674,,
,6003.0,721.0,5426.0,1201.0,97.0,1931.0,3448.0,,,,2.90614252667908,-3.00951616370893,-1.72362039996382,,-1.7522858876779634,,
,6003.0,722.0,5429.0,1202.0,88.0,1930.0,3461.0,,,,2.90833054360004,-3.00970665060221,-1.72348661970268,,-1.7336363706423095,,
,6006.0,722.0,5432.0,1204.0,81.0,1931.0,3463.0,,,,2.90752102493861,-3.00954526285805,-1.72351690718379,,-1.6995901249535363,,
,6010.0,722.0,5433.0,1204.0,90.0,1928.0,3459.0,,,,2.90871851889542,-3.0098208282834,-1.7225903788972,,-1.6471441935522801,,
,6009.0,722.0,5433.0,1204.0,92.0,1919.0,3474.0,,,,2.91039454276586,-3.00958968179636,-1.72318015035892,,-1.573344678084333,,
,6010.0,718.0,5432.0,1203.0,76.0,1929.0,3449.0,,,,2.90901336211364,-3.00980801060161,-1.72262682250031,,-1.4754274195240122,,
,6014.0,724.0,5437.0,1206.0,97.0,1927.0,3448.0,,,,2.9103174457577,-3.00978422313193,-1.72368934764153,,-1.3509828461982158,,
,6015.0,721.0,5434.0,1205.0,88.0,1922.0,3447.0,,,,2.91117416425918,-3.0095666719644,-1.72353467003793,,-1.1981492591745917,,
,6015.0,723.0,5433.0,1205.0,83.0,1920.0,3466.0,,,,2.91132981118242,-3.00958047422291,-1.72250701400108,,-1.0158312654041264,,
,6012.0,721.0,5430.0,1202.0,96.0,1922.0,3476.0,,,,2.91139649416055,-3.00967118047528,-1.72301261309868,,-0.803930779091261,,
,6014.0,720.0,5429.0,1203.0,84.0,1922.0,3475.0,,,,2.91263126878487,-3.0096529397161,-1.7232201200035,,-0.5635686322574116,,
,6010.0,722.0,5426.0,1202.0,89.0,1914.0,3467.0,,,,2.91228834888907,-3.00977412818906,-1.72245581537736,,-0.2972680172076874,,
,6010.0,721.0,5422.0,1201.0,90.0,1916.0,3480.0,,,,2.91239161346194,-3.00974817769686,-1.72346983838776,,-0.009069290160706065,,
2025-07-02 19:22:57,6006.0,717.0,5417.0,1196.0,89.0,1919.0,3451.0,,,2025/07/02 07:22:57 PM,2.91303494874927,-3.00982318771265,-1.72232951000295,,0.2954500460590694,,
,6004.0,720.0,5410.0,1194.0,81.0,1927.0,3465.0,,,,2.9131504863719,-3.0095411366691,-1.72191249001807,,0.6092674168839847,,
,6002.0,718.0,5407.0,1196.0,83.0,1932.0,3457.0,,,,2.91279722478267,-3.0096452493937,-1.72302354559149,,0.9241252797181861,,
,5999.0,718.0,5401.0,1194.0,90.0,1934.0,3444.0,,,,2.91296158911115,-3.00965629293925,-1.72275405133897,,1.2308535453930578,,
,5997.0,716.0,5396.0,1189.0,80.0,1930.0,3451.0,,,,2.91384919072264,-3.00980624564195,-1.72291930921408,,1.519787521082734,,
,5994.0,716.0,5392.0,1190.0,73.0,1925.0,3462.0,,,,2.91399153207491,-3.00984618476825,-1.72252411795769,,1.7812546180906113,,
,5993.0,717.0,5390.0,1187.0,81.0,1928.0,3452.0,,,,2.91375634483682,-3.00950401403132,-1.72253238395881,,2.006094798968428,,
,5993.0,715.0,5385.0,1187.0,75.0,1936.0,3454.0,,,,2.91382393211543,-3.00970626141336,-1.72298694649348,,2.1861740607275713,,
,5988.0,714.0,5379.0,1184.0,78.0,1937.0,3487.0,,,,2.91545457412562,-3.00973485640514,-1.72269566266065,,2.314848450599667,,
,5989.0,713.0,5374.0,1183.0,82.0,1931.0,3457.0,,,,2.91451237365419,-3.00970675681012,-1.72244183985622,,2.3873395482473887,,
,5989.0,716.0,5375.0,1182.0,85.0,1918.0,3460.0,,,,2.91509873797086,-3.00973412040081,-1.72223582858867,,2.400991634052287,,
,5988.0,716.0,5370.0,1180.0,93.0,1905.0,3452.0,,,,2.91640782546712,-3.00978143785764,-1.72205160695976,,2.355394763196037,,
,5989.0,713.0,5367.0,1182.0,84.0,1915.0,3469.0,,,,2.9160525165711,-3.00973150968561,-1.72264387407427,,2.252373520707812,,
,5987.0,713.0,5365.0,1179.0,85.0,1922.0,3448.0,,,,2.91650922650908,-3.00973135818764,-1.72263758168967,,2.095854349255628,,
,5989.0,712.0,5364.0,1180.0,98.0,1924.0,3451.0,,,,2.91741720388099,-3.00965148600667,-1.72237507471468,,1.891632350141786,,
,5988.0,715.0,5363.0,1180.0,95.0,1921.0,3407.0,,,,2.91685845412575,-3.00987399124844,-1.72286831845229,,1.6470613010774855,,
,5988.0,714.0,5364.0,1179.0,72.0,1924.0,3429.0,,,,2.91681902515961,-3.00992378364733,-1.72185807619685,,1.370690141312959,,
,5985.0,713.0,5360.0,1177.0,83.0,1935.0,3450.0,,,,2.91807795836836,-3.00982537040034,-1.7220891621606,,1.071867311472024,,
,5990.0,714.0,5359.0,1177.0,89.0,1929.0,3431.0,,,,2.91746445478591,-3.00974172532181,-1.72250507648465,,0.7603320693332346,,
,5988.0,711.0,5356.0,1179.0,67.0,1929.0,3466.0,,,,2.91864427841136,-3.00965689256659,-1.72222219563443,,0.4458092449513666,,
,5990.0,715.0,5355.0,1178.0,91.0,1932.0,3482.0,,,,2.91706467648853,-3.00975574016899,-1.72239980855378,,0.1376206425461439,,
,5989.0,714.0,5354.0,1176.0,106.0,1919.0,3480.0,,,,2.91818819216022,-3.00984069480402,-1.72203812099828,,-0.15567728116502458,,
,5988.0,711.0,5355.0,1176.0,105.0,1925.0,3478.0,,,,2.91690941203284,-3.00962230555456,-1.72160175774237,,-0.4266227370249684,,
,5990.0,714.0,5356.0,1178.0,99.0,1915.0,3440.0,,,,2.91892849585917,-3.00974922665765,-1.72214798075045,,-0.6691390251617122,,
,5991.0,713.0,5356.0,1177.0,91.0,1919.0,3429.0,,,,2.91874393808897,-3.00987149302887,-1.72150218608602,,-0.8787778888442007,,
,5995.0,714.0,5354.0,1178.0,80.0,1907.0,3435.0,,,,2.9191202594645,-3.00989792135294,-1.72238502501274,,-1.0529025648296713,,
,5994.0,716.0,5356.0,1177.0,93.0,1924.0,3434.0,,,,2.91852955795927,-3.00984280555048,-1.7221556411852,,-1.1907916037200308,,
,5994.0,713.0,5359.0,1177.0,69.0,1925.0,3470.0,,,,2.92003347228415,-3.00984019222673,-1.72200225648804,,-1.2936416737738465,,
,5996.0,714.0,5355.0,1177.0,73.0,1929.0,3503.0,,,,2.92065756217257,-3.00975640889559,-1.72175787843427,,-1.3644505067433805,,
,5996.0,714.0,5356.0,1177.0,88.0,1931.0,3484.0,,,,2.920932493926,-3.00989336589873,-1.72237706872654,,-1.4077705756984165,,
,5994.0,711.0,5354.0,1178.0,94.0,1920.0,3476.0,,,,2.9206748623256,-3.00986835327505,-1.72131713456611,,-1.429338080038464,,
,5999.0,716.0,5356.0,1176.0,83.0,1923.0,3484.0,,,,2.92063432938411,-3.0098399000868,-1.72137789636705,,-1.4355971119543263,,
,5999.0,715.0,5355.0,1177.0,94.0,1914.0,3472.0,,,,2.92036723652568,-3.00999357090956,-1.72157230506085,,-1.433152564211602,,
,6001.0,715.0,5357.0,1179.0,100.0,1918.0,3473.0,,,,2.91853810662137,-3.0099667034502,-1.72201724185417,,-1.4281955676311668,,
,6001.0,714.0,5355.0,1176.0,101.0,1916.0,3465.0,,,,2.91666272813725,-3.00994392387594,-1.72242666138781,,-1.425951110792495,,
,5997.0,713.0,5356.0,1177.0,88.0,1925.0,3472.0,,,,2.91266640687204,-3.00988209413218,-1.723135899631,,-1.4301985993606723,,
,6004.0,716.0,5357.0,1178.0,96.0,1925.0,3462.0,,,,2.9082000584696,-3.00962875528085,-1.72275885346232,,-1.4429123346447275,,
,6003.0,714.0,5357.0,1175.0,90.0,1920.0,3478.0,,,,2.90606675892072,-3.00971061620297,-1.72270463282175,,-1.4640602710553128,,
,6003.0,713.0,5352.0,1177.0,77.0,1920.0,3479.0,,,,2.90329734490559,-3.00957048275257,-1.72335494629036,,-1.4915861005314388,,
,6003.0,714.0,5354.0,1175.0,98.0,1922.0,3453.0,,,,2.90243835095793,-3.00978882435241,-1.72418496699669,,-1.5215821466240993,,
,6005.0,716.0,5355.0,1177.0,106.0,1926.0,3435.0,,,,2.90026712770431,-3.0096538640291,-1.72423170324421,,-1.5486399213212396,,
,6006.0,716.0,5352.0,1176.0,99.0,1922.0,3429.0,,,,2.89878715106268,-3.00954750666597,-1.72414643771553,,-1.5663439375625352,,
,6004.0,715.0,5353.0,1177.0,89.0,1920.0,3424.0,,,,2.89835114337411,-3.00943748626164,-1.72446285420068,,-1.567856238461982,,
,6008.0,714.0,5351.0,1176.0,85.0,1931.0,3431.0,,,,2.89867576352824,-3.00932685517216,-1.72485800375308,,-1.546528275096958,,
,6008.0,716.0,5350.0,1176.0,88.0,1935.0,3458.0,,,,2.89757949339029,-3.00946851541926,-1.72412275180199,,-1.4964759394462972,,
,6012.0,716.0,5353.0,1178.0,94.0,1926.0,3460.0,,,,2.89776633233022,-3.00944858677114,-1.72410849227244,,-1.4130624944112613,,
,6009.0,712.0,5352.0,1175.0,90.0,1929.0,3475.0,,,,2.89755767414808,-3.00934721908345,-1.7247501735939,,-1.2932500284228186,,
,6012.0,715.0,5354.0,1176.0,75.0,1921.0,3475.0,,,,2.89794781038381,-3.00945530589826,-1.72414645963344,,-1.1357992641376637,,
,6011.0,715.0,5354.0,1177.0,83.0,1926.0,3459.0,,,,2.89868978620501,-3.00977782851526,-1.72465092698869,,-0.941317037629621,,
,6016.0,715.0,5356.0,1178.0,73.0,1925.0,3458.0,,,,2.89939261364098,-3.00957457504949,-1.72388960131748,,-0.7121683599700709,,
,6014.0,716.0,5351.0,1177.0,75.0,1929.0,3467.0,,,,2.89976726153884,-3.00959580610305,-1.72357363209787,,-0.45228393297164093,,
,6014.0,716.0,5354.0,1180.0,87.0,1919.0,3446.0,,,,2.89996832922276,-3.00974803553317,-1.72405656086315,,-0.16690275992385334,,
,6019.0,718.0,5358.0,1177.0,77.0,1927.0,3460.0,,,,2.90035904850134,-3.00951350790325,-1.72352384549532,,0.13770814128127368,,
,6021.0,718.0,5356.0,1180.0,78.0,1931.0,3440.0,,,,2.89893698917204,-3.00968241931646,-1.7241635885145,,0.45451957180580915,,
,6021.0,718.0,5358.0,1179.0,76.0,1935.0,3432.0,,,,2.90049043650588,-3.00969449099831,-1.72410698690812,,0.775965634897973,,
,6023.0,718.0,5359.0,1178.0,71.0,1912.0,3480.0,,,,2.90001297704955,-3.00968117706436,-1.72434177455079,,1.0941197214335452,,
,6025.0,716.0,5358.0,1178.0,75.0,1917.0,3480.0,,,,2.9008294718684,-3.00944466054539,-1.72416266583252,,1.400830696213776,,
,6028.0,716.0,5360.0,1178.0,69.0,1912.0,3471.0,,,,2.90065854219325,-3.00956635388375,-1.72396299252637,,1.6878452041744965,,
,6031.0,720.0,5360.0,1182.0,70.0,1927.0,3472.0,,,,2.9005134174064,-3.00957215366178,-1.72422598053498,,1.9469506927562295,,
,6033.0,716.0,5363.0,1181.0,56.0,1927.0,3454.0,,,,2.90101456256766,-3.00976360214295,-1.7243216154623,,2.1701718525125546,,
,6031.0,718.0,5362.0,1181.0,71.0,1918.0,3452.0,,,,2.90041927407851,-3.0097562615853,-1.72359370756862,,2.3500410877692905,,
,6034.0,716.0,5364.0,1183.0,81.0,1921.0,3481.0,,,,2.90073132570183,-3.00974511045674,-1.72454962207169,,2.479944810393139,,
,6038.0,718.0,5366.0,1184.0,91.0,1925.0,3477.0,,,,2.90194272339927,-3.00948413160217,-1.72446404820488,,2.554526537075545,,
,6038.0,718.0,5370.0,1183.0,83.0,1922.0,3471.0,,,,2.90169040289274,-3.0094057715224,-1.72434184609722,,2.5701091852205775,,
,6040.0,720.0,5369.0,1182.0,93.0,1926.0,3479.0,,,,2.90320435016907,-3.00946253017171,-1.72385662800779,,2.525085646315427,,
,6043.0,719.0,5370.0,1183.0,93.0,1923.0,3475.0,,,,2.90224509113664,-3.00958417793901,-1.72417054113438,,2.4202207191377374,,
,6042.0,720.0,5370.0,1186.0,91.0,1922.0,3456.0,,,,2.90296852790851,-3.00955682580923,-1.72401077333436,,2.258810093685219,,
,6046.0,720.0,5371.0,1184.0,93.0,1923.0,3448.0,,,,2.90394043875687,-3.00958543725354,-1.72383027267435,,2.046653674217732,,
,6049.0,721.0,5374.0,1186.0,99.0,1929.0,3466.0,,,,2.90396406385535,-3.00973773255363,-1.72417718694177,,1.7918202905380045,,
,6049.0,720.0,5374.0,1184.0,97.0,1921.0,3476.0,,,,2.9031854195831,-3.00974185477083,-1.72380219669434,,1.5042065908566589,,
,6052.0,722.0,5377.0,1185.0,106.0,1924.0,3479.0,,,,2.90346570773819,-3.00948950285764,-1.72365535166959,,1.1949211836680826,,
,6053.0,720.0,5378.0,1189.0,105.0,1923.0,3478.0,,,,2.901452880599,-3.00945223788004,-1.72444216693723,,0.8755513324521731,,
,6055.0,724.0,5381.0,1190.0,109.0,1924.0,3461.0,,,,2.90149488187987,-3.00964599568933,-1.72409433858125,,0.5573884557970276,,
,6058.0,719.0,5380.0,1188.0,89.0,1911.0,3460.0,,,,2.90113021249021,-3.00968501371565,-1.72439059986745,,0.2506957477979793,,
,6059.0,721.0,5384.0,1189.0,83.0,1917.0,3459.0,,,,2.90246956637709,-3.00954188943278,-1.72423887191274,,-0.03590546102321909,,
,6062.0,719.0,5382.0,1193.0,90.0,1912.0,3477.0,,,,2.90086059439496,-3.00934785199996,-1.72391470203093,,-0.29587243401345026,,
,6064.0,720.0,5386.0,1189.0,103.0,1922.0,3468.0,,,,2.9017919265478,-3.00963571849778,-1.72386824926268,,-0.5249680797742031,,
,6065.0,723.0,5386.0,1192.0,90.0,1930.0,3444.0,,,,2.90097989342282,-3.00942172949263,-1.72403955156803,,-0.7212725526738062,,
,6068.0,723.0,5391.0,1190.0,91.0,1924.0,3466.0,,,,2.90142360217518,-3.00945390686399,-1.72382659434879,,-0.8849980355462179,,
,6070.0,722.0,5390.0,1193.0,97.0,1922.0,3447.0,,,,2.90063017842717,-3.00955397074545,-1.72397139524902,,-1.0181445874449087,,
,6077.0,723.0,5392.0,1193.0,103.0,1924.0,3467.0,,,,2.90066628767993,-3.00961543218582,-1.72427459092137,,-1.1240478165940824,,
,6072.0,724.0,5395.0,1193.0,92.0,1921.0,3484.0,,,,2.90220781136324,-3.00955916314375,-1.72387158037435,,-1.2068752873746929,,
,6075.0,721.0,5394.0,1193.0,93.0,1919.0,3476.0,,,,2.90167005573284,-3.00971231338032,-1.72383034043096,,-1.2711280921966546,,
,6078.0,726.0,5396.0,1197.0,88.0,1925.0,3455.0,,,,2.90326442835659,-3.00958142295997,-1.72428017798349,,-1.32119723455048,,
,6081.0,726.0,5400.0,1196.0,77.0,1922.0,3464.0,,,,2.90246617602121,-3.0097988370546,-1.72388494368323,,-1.3610119503102664,,
,6083.0,724.0,5398.0,1196.0,77.0,1909.0,3463.0,,,,2.90345161805115,-3.00946663064097,-1.72313160929001,,-1.393800031291135,,
,6083.0,723.0,5397.0,1195.0,78.0,1909.0,3469.0,,,,2.90410194713696,-3.00955423272302,-1.72333909053017,,-1.4219609338130474,,
,6082.0,724.0,5398.0,1195.0,81.0,1915.0,3491.0,,,,2.90400557620033,-3.00957398243324,-1.72388824704645,,-1.447034611397125,,
,6083.0,726.0,5399.0,1197.0,86.0,1924.0,3477.0,,,,2.90467555916433,-3.00957598913482,-1.72345261424851,,-1.4697368328562492,,
,6085.0,726.0,5393.0,1196.0,93.0,1928.0,3466.0,,,,2.90622593389808,-3.009587457694,-1.72384949112113,,-1.490028211497199,,
,6083.0,722.0,5392.0,1193.0,92.0,1930.0,3461.0,,,,2.90809483695803,-3.00971269828285,-1.72339443357872,,-1.5071893081554013,,
,6081.0,724.0,5390.0,1193.0,90.0,1924.0,3425.0,,,,2.90633523261404,-3.0095171345737,-1.72337091801111,,-1.5198851135168467,,
,6082.0,722.0,5385.0,1191.0,91.0,1926.0,3423.0,,,,2.90856968023535,-3.00957615974418,-1.72307552125665,,-1.5262149740551358,,
,6078.0,724.0,5380.0,1189.0,81.0,1929.0,3440.0,,,,2.90824510884791,-3.00970666299165,-1.72327092153039,,-1.5237552959840002,,
,6075.0,721.0,5372.0,1188.0,80.0,1920.0,3472.0,,,,2.90799493889656,-3.00946485176602,-1.72307886691996,,-1.5096101541842277,,
,6073.0,720.0,5367.0,1185.0,69.0,1922.0,3463.0,,,,2.90901277505274,-3.00953528401223,-1.72325359857075,,-1.480488337567123,,
,6071.0,720.0,5363.0,1184.0,80.0,1927.0,3485.0,,,,2.91064585100394,-3.00969675180159,-1.72306684079738,,-1.4328242109978269,,
,6072.0,720.0,5359.0,1183.0,87.0,1925.0,3476.0,,,,2.9100586580995,-3.00961299599666,-1.72302241301873,,-1.3629544466147245,,
,6068.0,718.0,5354.0,1180.0,90.0,1932.0,3471.0,,,,2.91007549267193,-3.00962781184077,-1.72295644540777,,-1.267353946168936,,
,6067.0,719.0,5350.0,1176.0,88.0,1929.0,3445.0,,,,2.91060301190082,-3.00974621079414,-1.72305168014976,,-1.1429232380005516,,
,6067.0,717.0,5348.0,1179.0,98.0,1925.0,3444.0,,,,2.91220606162012,-3.00969710788534,-1.72244924037491,,-0.987307833615754,,
,6067.0,719.0,5346.0,1176.0,105.0,1919.0,3449.0,,,,2.91211673164131,-3.0097267145526,-1.72224564010705,,-0.7992196566519569,,
,6066.0,718.0,5340.0,1177.0,103.0,1917.0,3433.0,,,,2.91224658821596,-3.00983137830119,-1.72315962878317,,-0.578724408498648,,
,6064.0,717.0,5336.0,1172.0,97.0,1925.0,3442.0,,,,2.91138067970404,-3.00963753556067,-1.72207513226266,,-0.3274588884791335,,
,6062.0,716.0,5333.0,1173.0,92.0,1923.0,3451.0,,,,2.91255579037463,-3.00976741618903,-1.72276123116725,,-0.04874923236876888,,
,6066.0,720.0,5330.0,1175.0,88.0,1920.0,3443.0,,,,2.91208411831875,-3.00975846044244,-1.72297413348465,,0.25238731920299806,,
,6061.0,718.0,5328.0,1172.0,86.0,1922.0,3443.0,,,,2.91276463384564,-3.00974080270322,-1.72228438803294,,0.5693615171494976,,
,6064.0,715.0,5324.0,1169.0,78.0,1925.0,3470.0,,,,2.91288322877357,-3.00980276215884,-1.72207360661956,,0.8942448106558838,,
,6061.0,716.0,5323.0,1169.0,97.0,1929.0,3453.0,,,,2.91183054037424,-3.00967221154383,-1.72249244092098,,1.2180992072344046,,
,6065.0,718.0,5323.0,1172.0,75.0,1927.0,3420.0,,,,2.91220278135996,-3.00958510999547,-1.72192581313515,,1.5313810058456843,,
,6064.0,716.0,5322.0,1173.0,83.0,1923.0,3426.0,,,,2.91369324841402,-3.00966841151143,-1.72282488812514,,1.8243903121297373,,
,6065.0,716.0,5319.0,1169.0,98.0,1921.0,3434.0,,,,2.91367799546149,-3.00950280134842,-1.72223274203975,,2.087735314575323,,
,6063.0,715.0,5319.0,1171.0,95.0,1913.0,3457.0,,,,2.91401561280524,-3.00959018656815,-1.72182683403712,,2.312779502204011,,
,6064.0,714.0,5317.0,1167.0,76.0,1918.0,3484.0,,,,2.91338322162514,-3.0094726764758,-1.72285951073782,,2.4920419651954333,,
,6068.0,717.0,5318.0,1168.0,75.0,1922.0,3481.0,,,,2.91404687670051,-3.00952164915058,-1.72216947290387,,2.6195263694792583,,
,6068.0,715.0,5319.0,1168.0,91.0,1912.0,3465.0,,,,2.91451994806177,-3.00996110687726,-1.72252892578483,,2.69096318636138,,
,6065.0,716.0,5315.0,1169.0,89.0,1927.0,3478.0,,,,2.91536281099534,-3.00962463336649,-1.72275445859595,,2.7039607130550163,,
,6068.0,716.0,5315.0,1170.0,80.0,1926.0,3471.0,,,,2.914812578328,-3.00961227537536,-1.72203459627563,,2.6580701124011563,,
,6070.0,716.0,5316.0,1172.0,96.0,1922.0,3474.0,,,,2.91559098589569,-3.00967786407238,-1.72246675811518,,2.5547748880500345,,
,6071.0,716.0,5318.0,1169.0,95.0,1920.0,3464.0,,,,2.91611155572053,-3.00987734435624,-1.72177569635637,,2.397414890190475,,
,6072.0,714.0,5316.0,1168.0,81.0,1930.0,3466.0,,,,2.91670000858892,-3.0098145659723,-1.72195338486798,,2.1910510858741663,,
,6072.0,717.0,5318.0,1169.0,80.0,1916.0,3455.0,,,,2.91831466666789,-3.00992161968609,-1.72246907570612,,1.9422733400149566,,
,6074.0,718.0,5318.0,1169.0,86.0,1913.0,3444.0,,,,2.91867615066513,-3.0097796567421,-1.72162052497936,,1.658951879871974,,
,6075.0,717.0,5317.0,1170.0,82.0,1911.0,3451.0,,,,2.91930456589568,-3.00964136210949,-1.72195435639303,,1.3499344755976628,,
,6072.0,716.0,5315.0,1170.0,96.0,1922.0,3427.0,,,,2.91855880095797,-3.00967025572177,-1.72172753681076,,1.0246946556887198,,
,6074.0,716.0,5316.0,1170.0,88.0,1926.0,3460.0,,,,2.91892036498945,-3.009752285316,-1.7222197852848,,0.6929401581536622,,
,6078.0,714.0,5318.0,1169.0,80.0,1920.0,3449.0,,,,2.91863527362875,-3.00980188539885,-1.72173978070313,,0.3641945346355862,,
,6078.0,718.0,5316.0,1169.0,61.0,1926.0,3459.0,,,,2.91648423775051,-3.00964043004342,-1.72263822814029,,0.047368451126327045,,
2025-07-02 19:22:58,6078.0,715.0,5316.0,1169.0,80.0,1924.0,3460.0,,,2025/07/02 07:22:58 PM,2.91406563981573,-3.00978321125868,-1.72275434141794,,-0.24965863048982917,,
,6077.0,716.0,5315.0,1168.0,79.0,1929.0,3465.0,,,,2.90979854103896,-3.00976151282233,-1.72326950835701,,-0.5204206929090779,,
,6082.0,717.0,5318.0,1171.0,91.0,1920.0,3466.0,,,,2.9070947283854,-3.00978842212274,-1.72320804496017,,-0.7601805560717989,,
,6080.0,717.0,5315.0,1170.0,90.0,1926.0,3480.0,,,,2.9048905067354,-3.00947615344901,-1.72341039167896,,-0.9661448682488587,,
,6085.0,715.0,5314.0,1169.0,90.0,1927.0,3483.0,,,,2.90206004805711,-3.00955996183699,-1.72440488163882,,-1.1375476293089295,,
,6081.0,713.0,5315.0,1168.0,96.0,1932.0,3449.0,,,,2.89918054938423,-3.00951532061382,-1.72478992959764,,-1.275580664787786,,
,6084.0,716.0,5313.0,1168.0,87.0,1933.0,3466.0,,,,2.8988326116182,-3.00934470841802,-1.72453589158408,,-1.3831650462678002,,
,6087.0,716.0,5318.0,1168.0,81.0,1931.0,3462.0,,,,2.89691094976189,-3.00916564668383,-1.72485193793456,,-1.4645759887274503,,
,6086.0,717.0,5314.0,1169.0,77.0,1929.0,3480.0,,,,2.89581863732205,-3.00947967937952,-1.72517360239022,,-1.5249515769281823,,
,6088.0,716.0,5314.0,1167.0,94.0,1933.0,3478.0,,,,2.89625183025368,-3.0094510004302,-1.72537682521362,,-1.5697299855821438,,
,6088.0,715.0,5313.0,1170.0,94.0,1934.0,3477.0,,,,2.89675425565382,-3.00952741093718,-1.72422297706006,,-1.6040690832770832,,
,6089.0,715.0,5316.0,1170.0,82.0,1935.0,3469.0,,,,2.89697619452406,-3.00937055306439,-1.72445742126556,,-1.632305756121645,,
,6092.0,717.0,5314.0,1168.0,85.0,1936.0,3464.0,,,,2.89655226400637,-3.00912834061598,-1.72481349018551,,-1.6575097880964693,,
,6091.0,717.0,5317.0,1169.0,97.0,1927.0,3459.0,,,,2.89666450075716,-3.00944807105541,-1.72364594010145,,-1.681178839508011,,
,6092.0,714.0,5314.0,1167.0,79.0,1924.0,3461.0,,,,2.89728104777096,-3.00945298812114,-1.7244117067626,,-1.7031073243367263,,
,6094.0,718.0,5317.0,1169.0,77.0,1924.0,3460.0,,,,2.89771176125448,-3.00944642040068,-1.72480418974333,,-1.721443450953689,,
,6094.0,718.0,5316.0,1171.0,81.0,1926.0,3454.0,,,,2.89806539353929,-3.00952132996207,-1.72407848708848,,-1.7329267196687612,,
