TimeLabel,MEAS1_PPG1,MEAS1_PPG2,MEAS1_PPG3,MEAS1_PPG4,ACCX,ACCY,ACCZ,HR_timestamp,HR_value,radar_timestamp,phase_rx0,phase_rx1,phase_rx2,timestep,n_process,original_rate,calculated_rate
2025-08-06 21:52:08,7322.0,1179.0,5588.0,1347.0,-136.0,1399.0,3693.0,2025-08-06 21:52:40,92.0,2025/08/06 09:52:08 PM,-0.277385462965237,-2.76200877852991,-0.4464438669386,2025/08/06 09:52:08 PM,-2.45013334403358,24.016010284423828,22.57511896363465
,7325.0,1177.0,5587.0,1347.0,-135.0,1409.0,3697.0,2025-08-06 21:52:40,92.0,,-0.277418936238019,-2.76210491515626,-0.446772011208913,2025/08/06 09:52:18 PM,-2.559123857313814,22.52252197265625,21.446816274402476
,7326.0,1179.0,5591.0,1347.0,-124.0,1392.0,3717.0,2025-08-06 21:52:41,93.0,,-0.277527495289092,-2.76192165151466,-0.446289159733021,2025/08/06 09:52:28 PM,-2.656203171324582,22.68041229248047,23.759110923062636
,7329.0,1178.0,5592.0,1350.0,-127.0,1394.0,3709.0,2025-08-06 21:52:42,94.0,,-0.27751306937593,-2.76159227192967,-0.446396683134629,2025/08/06 09:52:38 PM,-2.746721463488154,22.64927864074707,25.337675495730217
,7333.0,1177.0,5591.0,1348.0,-119.0,1386.0,3678.0,2025-08-06 21:52:43,94.0,,-0.277506327800354,-2.7618927135188,-0.446825665029823,2025/08/06 09:52:48 PM,-2.8340506070109064,23.521026611328125,25.530637787029697
,7333.0,1177.0,5591.0,1346.0,-139.0,1396.0,3685.0,2025-08-06 21:52:44,94.0,,-0.277540543478127,-2.76205707195141,-0.446911950760674,2025/08/06 09:52:58 PM,-2.9192308035047696,24.830699920654297,25.701160541586088
,7333.0,1179.0,5593.0,1348.0,-140.0,1410.0,3701.0,2025-08-06 21:52:45,95.0,,-0.277709206383295,-2.76181105909272,-0.446854550643464,2025/08/06 09:53:08 PM,-3.0008410997183006,25.62277603149414,24.936391813213312
,7335.0,1179.0,5593.0,1346.0,-109.0,1433.0,3703.0,2025-08-06 21:52:46,94.0,,-0.277475547014001,-2.76202001764669,-0.446491127573667,2025/08/06 09:53:18 PM,-3.0751022995073307,25.334272384643555,24.41580506148663
,7340.0,1181.0,5596.0,1348.0,-89.0,1414.0,3697.0,2025-08-06 21:52:47,94.0,,-0.277537973698181,-2.76194407540443,-0.446961643247655,2025/08/06 09:53:28 PM,-3.13619748218704,24.965326309204105,25.620932296073157
,7338.0,1179.0,5596.0,1348.0,-146.0,1375.0,3694.0,2025-08-06 21:52:48,93.0,,-0.277252445803146,-2.76185429830516,-0.446367207143449,2025/08/06 09:53:38 PM,-3.176773978343752,24.948024749755856,23.70373344038537
,7340.0,1177.0,5597.0,1347.0,-164.0,1394.0,3683.0,2025-08-06 21:52:49,93.0,,-0.277217252023228,-2.76166855880481,-0.446474548044441,2025/08/06 09:53:48 PM,-3.18857472273035,24.626865386962887,23.865505563618786
,7344.0,1182.0,5598.0,1349.0,-118.0,1418.0,3678.0,2025-08-06 21:52:50,92.0,,-0.27712117024542,-2.76164444184536,-0.446851755166593,2025/08/06 09:53:58 PM,-3.1631381717749565,23.91304397583008,22.226033924147135
,7343.0,1180.0,5599.0,1349.0,-124.0,1412.0,3680.0,2025-08-06 21:52:51,91.0,,-0.277589007508701,-2.76149596710344,-0.445969775122445,2025/08/06 09:54:08 PM,-3.092504132890347,23.125436782836918,24.921468587434962
,7346.0,1179.0,5600.0,1349.0,-129.0,1432.0,3704.0,2025-08-06 21:52:52,90.0,,-0.277228778868558,-2.76185462814761,-0.445700353862324,2025/08/06 09:54:18 PM,-2.969866606348329,23.63896751403809,24.459396966333717
,7352.0,1183.0,5602.0,1349.0,-126.0,1402.0,3692.0,2025-08-06 21:52:53,89.0,,-0.277158189691367,-2.76168862815333,-0.446908187745463,2025/08/06 09:54:28 PM,-2.7901230583441485,23.895727157592773,23.774032689999085
,7351.0,1182.0,5606.0,1351.0,-133.0,1369.0,3708.0,2025-08-06 21:52:54,88.0,,-0.277241455860826,-2.7616436598493,-0.44579314192935,2025/08/06 09:54:38 PM,-2.550281963273079,24.439918518066406,22.754394452507636
,7354.0,1183.0,5606.0,1349.0,-127.0,1383.0,3706.0,2025-08-06 21:52:55,87.0,,-0.27736819329061,-2.7618730791861,-0.445915911127482,2025/08/06 09:54:48 PM,-2.249706477102931,24.016010284423828,23.65428912012767
,7355.0,1183.0,5608.0,1350.0,-140.0,1391.0,3699.0,2025-08-06 21:52:56,87.0,,-0.277316921925661,-2.76192727509374,-0.445623493803856,2025/08/06 09:54:58 PM,-1.8901904975539534,23.58827781677246,23.83021402778235
,7356.0,1184.0,5609.0,1350.0,-131.0,1419.0,3712.0,2025-08-06 21:52:57,87.0,,-0.277298230875002,-2.76206608092106,-0.446805409471383,,-1.4758818567387757,,
,7360.0,1186.0,5610.0,1355.0,-121.0,1392.0,3674.0,2025-08-06 21:52:58,88.0,,-0.277115602507116,-2.76196021691559,-0.44664826550621,,-1.0130828042182867,,
,7361.0,1186.0,5611.0,1354.0,-127.0,1381.0,3673.0,2025-08-06 21:52:59,88.0,,-0.2773214667179,-2.76189040601982,-0.447033261788951,,-0.5099669146305453,,
,7364.0,1186.0,5615.0,1353.0,-132.0,1387.0,3677.0,2025-08-06 21:53:00,88.0,,-0.277377862260138,-2.76181643898824,-0.446735058197415,,0.023748020415144,,
,7366.0,1185.0,5616.0,1355.0,-133.0,1391.0,3678.0,2025-08-06 21:53:01,88.0,,-0.277386509141174,-2.76176376023218,-0.446999591934376,,0.5771390627223985,,
,7367.0,1189.0,5618.0,1354.0,-138.0,1404.0,3694.0,2025-08-06 21:53:02,87.0,,-0.27722400194613,-2.76188173682036,-0.446509611369191,,1.138409109683847,,
,7372.0,1188.0,5618.0,1357.0,-138.0,1409.0,3702.0,2025-08-06 21:53:03,87.0,,-0.277370965251991,-2.76205259521013,-0.446816916717754,,1.695201926292856,,
,7373.0,1188.0,5620.0,1358.0,-133.0,1369.0,3711.0,2025-08-06 21:53:04,87.0,,-0.277228560234945,-2.76174516286074,-0.446531370403758,,2.234902896869758,,
,7375.0,1192.0,5621.0,1355.0,-133.0,1358.0,3708.0,2025-08-06 21:53:05,87.0,,-0.277321756981099,-2.76198631981048,-0.446783916423682,,2.744933263987913,,
,7380.0,1189.0,5625.0,1358.0,-129.0,1378.0,3680.0,2025-08-06 21:53:06,86.0,,-0.277332792528296,-2.76196911489736,-0.446397225451625,,3.21304843398638,,
,7383.0,1190.0,5626.0,1358.0,-139.0,1405.0,3692.0,2025-08-06 21:53:07,86.0,,-0.277606175249069,-2.76219364433258,-0.446300585723086,,3.627650413731287,,
,7383.0,1193.0,5628.0,1360.0,-127.0,1425.0,3686.0,2025-08-06 21:53:08,86.0,,-0.277643522196847,-2.76229573436373,-0.446415557475779,,3.978120355317552,,
,7387.0,1191.0,5631.0,1359.0,-130.0,1424.0,3689.0,2025-08-06 21:53:09,86.0,,-0.277319236823861,-2.76213525016635,-0.446791414102161,,4.2551697408118505,,
,7389.0,1193.0,5634.0,1360.0,-134.0,1409.0,3694.0,2025-08-06 21:53:10,86.0,,-0.27736617668565,-2.7618841686294,-0.446339952047506,,4.451199086322569,,
,7393.0,1193.0,5634.0,1363.0,-150.0,1380.0,3693.0,2025-08-06 21:53:11,86.0,,-0.277683314146463,-2.76194272852017,-0.446911813893821,,4.560643184242718,,
,7396.0,1197.0,5636.0,1361.0,-161.0,1389.0,3693.0,2025-08-06 21:53:12,86.0,,-0.277516475715866,-2.76223759387634,-0.446394676138647,,4.5802742681284645,,
,7394.0,1194.0,5637.0,1362.0,-140.0,1370.0,3705.0,2025-08-06 21:53:13,86.0,,-0.27761974286565,-2.76204864171956,-0.447018972556047,,4.509431351197407,,
,7399.0,1194.0,5637.0,1362.0,-134.0,1391.0,3705.0,2025-08-06 21:53:14,86.0,,-0.277533889169305,-2.76210545995185,-0.446765636696681,,4.350146657893522,,
,7401.0,1198.0,5640.0,1362.0,-126.0,1395.0,3697.0,2025-08-06 21:53:15,86.0,,-0.278029341091836,-2.76207155664991,-0.446818534258019,,4.1071480885749665,,
,7404.0,1197.0,5643.0,1364.0,-119.0,1414.0,3703.0,2025-08-06 21:53:16,85.0,,-0.277630397621015,-2.76219044561016,-0.447581930810526,,3.7877278779422783,,
,7406.0,1197.0,5644.0,1363.0,-130.0,1370.0,3686.0,2025-08-06 21:53:17,85.0,,-0.27775404825926,-2.76199881916651,-0.447377324739693,,3.4014793791505524,,
,7408.0,1196.0,5645.0,1366.0,-137.0,1360.0,3712.0,2025-08-06 21:53:18,85.0,,-0.277771112926454,-2.76223089424109,-0.446656843269064,,2.9599144408562315,,
,7414.0,1198.0,5648.0,1366.0,-133.0,1382.0,3734.0,2025-08-06 21:53:19,85.0,,-0.277575998779724,-2.76212974293978,-0.447153338038475,,2.47598249373097,,
,7416.0,1201.0,5651.0,1367.0,-139.0,1392.0,3734.0,2025-08-06 21:53:20,85.0,,-0.277364566675565,-2.76196962621742,-0.446932396644133,,1.9635190325712784,,
,7417.0,1199.0,5650.0,1367.0,-120.0,1390.0,3702.0,2025-08-06 21:53:21,85.0,,-0.277524985246679,-2.76202546054455,-0.447142015837751,,1.4366553618672746,,
,7418.0,1201.0,5653.0,1366.0,-131.0,1370.0,3683.0,2025-08-06 21:53:22,85.0,,-0.277469216397492,-2.76187007565896,-0.44682001299407,,0.9092229089269243,,
,7420.0,1199.0,5653.0,1367.0,-144.0,1374.0,3668.0,2025-08-06 21:53:23,84.0,,-0.277538220061073,-2.76209707825679,-0.446849084068477,,0.39418405971027437,,
,7420.0,1203.0,5657.0,1370.0,-134.0,1404.0,3666.0,2025-08-06 21:53:24,84.0,,-0.277524197961658,-2.76200440004753,-0.447320603902545,,-0.09688220520020575,,
,7419.0,1201.0,5655.0,1368.0,-132.0,1421.0,3671.0,2025-08-06 21:53:25,84.0,,-0.277574142508257,-2.76226535502772,-0.447900914140842,,-0.55421674324357,,
,7417.0,1200.0,5652.0,1365.0,-127.0,1410.0,3708.0,2025-08-06 21:53:26,85.0,,-0.277963396773074,-2.76283246781462,-0.447258754083667,,-0.970221112827153,,
,7417.0,1199.0,5651.0,1366.0,-135.0,1413.0,3708.0,2025-08-06 21:53:27,85.0,,-0.278024367538787,-2.76261029296511,-0.448268760258114,,-1.3396898737591016,,
,7412.0,1198.0,5645.0,1366.0,-135.0,1392.0,3692.0,2025-08-06 21:53:28,85.0,,-0.278439773230751,-2.76325563340081,-0.449004629867073,,-1.6599243884740402,,
,7411.0,1196.0,5641.0,1363.0,-137.0,1376.0,3692.0,2025-08-06 21:53:29,85.0,,-0.278860542244565,-2.76348957640638,-0.448866950659183,,-1.9307201140222157,,
,7406.0,1191.0,5635.0,1362.0,-130.0,1370.0,3695.0,2025-08-06 21:53:30,85.0,,-0.2791670768225,-2.76403577018626,-0.450145931844041,,-2.154221903639181,,
,7406.0,1193.0,5632.0,1359.0,-123.0,1391.0,3686.0,2025-08-06 21:53:31,85.0,,-0.279412702631888,-2.76437035066229,-0.451556859875926,,-2.3346467865770015,,
,7404.0,1189.0,5625.0,1358.0,-130.0,1385.0,3687.0,2025-08-06 21:53:32,85.0,,-0.280067583228207,-2.76484050130548,-0.452314381921057,,-2.477881531893167,,
,7400.0,1190.0,5622.0,1354.0,-136.0,1390.0,3690.0,2025-08-06 21:53:33,86.0,,-0.280549809613479,-2.76512443657527,-0.452725958877395,,-2.5909719320652758,,
,7401.0,1187.0,5611.0,1352.0,-138.0,1386.0,3680.0,2025-08-06 21:53:34,86.0,,-0.280850859319158,-2.76548028383147,-0.453352163968691,,-2.681530520892674,,
,7399.0,1185.0,5609.0,1348.0,-130.0,1399.0,3688.0,2025-08-06 21:53:35,86.0,,-0.281224364844961,-2.76583632218427,-0.454227192330509,,-2.757098143953849,,
,7397.0,1183.0,5608.0,1347.0,-123.0,1417.0,3691.0,2025-08-06 21:53:36,86.0,,-0.281348211853909,-2.76587672253911,-0.454455081774491,,-2.824501767416304,,
,7397.0,1184.0,5604.0,1350.0,-126.0,1412.0,3691.0,2025-08-06 21:53:37,86.0,,-0.28134134021182,-2.76603457099951,-0.45509150520059,,-2.8892555938626967,,
,7397.0,1183.0,5603.0,1349.0,-131.0,1394.0,3698.0,2025-08-06 21:53:38,86.0,,-0.281525126716972,-2.76608172334852,-0.454270338692123,,-2.955054144428118,,
,7394.0,1182.0,5598.0,1347.0,-133.0,1371.0,3692.0,2025-08-06 21:53:39,86.0,,-0.281173514898338,-2.76568134147361,-0.454119698043614,,-3.0234034477126754,,
,7394.0,1183.0,5600.0,1347.0,-144.0,1356.0,3700.0,2025-08-06 21:53:40,85.0,,-0.280816798254726,-2.76525327866328,-0.453786435005391,,-3.0934289164479596,,
,7395.0,1183.0,5597.0,1345.0,-141.0,1383.0,3705.0,2025-08-06 21:53:41,85.0,,-0.280903758407632,-2.7655488571026,-0.453148001905741,,-3.161885366690835,,
,7396.0,1182.0,5595.0,1345.0,-141.0,1404.0,3697.0,2025-08-06 21:53:42,85.0,,-0.281178659737873,-2.76528546539386,-0.453429100201565,,-3.223376287782726,,
,7394.0,1181.0,5592.0,1342.0,-131.0,1411.0,3712.0,2025-08-06 21:53:43,84.0,,-0.281141658835467,-2.76528876780204,-0.453191149707332,,-3.27076778349173,,
,7397.0,1182.0,5594.0,1343.0,-135.0,1401.0,3689.0,2025-08-06 21:53:44,84.0,,-0.281020966091691,-2.76533744488633,-0.452909717980098,,-3.2957611690466755,,
,7395.0,1181.0,5591.0,1343.0,-131.0,1411.0,3687.0,2025-08-06 21:53:45,85.0,,-0.281051415883592,-2.76519891705575,-0.45370385371286,,-3.2895712112275888,,
,7396.0,1184.0,5594.0,1343.0,-133.0,1401.0,3678.0,2025-08-06 21:53:46,85.0,,-0.280823725536647,-2.76526436743316,-0.453052071113444,,-3.243647272705601,,
,7398.0,1180.0,5590.0,1342.0,-126.0,1407.0,3681.0,2025-08-06 21:53:47,85.0,,-0.280768143164256,-2.76497252563867,-0.453182951843203,,-3.1503726061811292,,
,7395.0,1181.0,5588.0,1341.0,-122.0,1428.0,3690.0,2025-08-06 21:53:48,85.0,,-0.280739462550169,-2.76495606609754,-0.452662575774619,,-3.0036815620515047,,
,7399.0,1180.0,5593.0,1343.0,-124.0,1404.0,3693.0,2025-08-06 21:53:49,85.0,,-0.280691880010375,-2.765115326803,-0.452304955022613,,-2.799544284927806,,
,7401.0,1182.0,5592.0,1346.0,-129.0,1403.0,3701.0,2025-08-06 21:53:50,85.0,,-0.280839263306736,-2.76504031613251,-0.452456912706336,,-2.5362829593530405,,
,7402.0,1182.0,5588.0,1342.0,-142.0,1393.0,3710.0,2025-08-06 21:53:51,85.0,,-0.280869722125445,-2.76497390276728,-0.452344243624957,,-2.2147022431013825,,
,7404.0,1182.0,5592.0,1344.0,-137.0,1392.0,3702.0,2025-08-06 21:53:52,85.0,,-0.280740551070616,-2.76510123386458,-0.452795998080769,,-1.8380376804248324,,
,7406.0,1185.0,5589.0,1345.0,-147.0,1395.0,3717.0,2025-08-06 21:53:53,85.0,,-0.280920076207872,-2.76518980697259,-0.452174547991952,,-1.4117467432476707,,
,7404.0,1183.0,5592.0,1344.0,-145.0,1406.0,3716.0,2025-08-06 21:53:54,85.0,,-0.280729991903775,-2.76497373570754,-0.452230684049239,,-0.9431839194582758,,
,7407.0,1180.0,5592.0,1344.0,-133.0,1400.0,3693.0,2025-08-06 21:53:55,86.0,,-0.28072858273585,-2.76523127778273,-0.451752708088614,,-0.4412103537271318,,
,7405.0,1182.0,5593.0,1342.0,-121.0,1399.0,3672.0,2025-08-06 21:53:56,86.0,,-0.280854722669506,-2.76490287247818,-0.452528854756626,,0.08421212609908509,,
,7408.0,1183.0,5592.0,1343.0,-136.0,1392.0,3695.0,2025-08-06 21:53:57,86.0,,-0.280696586027089,-2.76487671751136,-0.451746151811676,,0.6224026566285044,,
,7413.0,1187.0,5594.0,1344.0,-140.0,1404.0,3686.0,2025-08-06 21:53:58,86.0,,-0.280635727121315,-2.76479995722277,-0.451776221021036,,1.162294515132608,,
,7413.0,1184.0,5593.0,1343.0,-138.0,1404.0,3692.0,2025-08-06 21:53:59,85.0,,-0.280238321836351,-2.76471659471996,-0.451939532872041,,1.6927125757813237,,
,7413.0,1185.0,5595.0,1343.0,-125.0,1392.0,3700.0,2025-08-06 21:54:00,85.0,,-0.28035740028501,-2.76487513999136,-0.451026065254914,,2.202601747596298,,
,7417.0,1186.0,5594.0,1345.0,-138.0,1383.0,3693.0,2025-08-06 21:54:01,85.0,,-0.280405527747054,-2.76490974583273,-0.452198756281647,,2.681222233245727,,
,7415.0,1186.0,5595.0,1343.0,-134.0,1389.0,3685.0,2025-08-06 21:54:02,85.0,,-0.280188314318402,-2.76462857009854,-0.45170633423781,,3.1183316738592897,,
,7418.0,1186.0,5595.0,1343.0,-128.0,1397.0,3687.0,2025-08-06 21:54:03,86.0,,-0.280089883662443,-2.76466031056761,-0.451233456731422,,3.504373947268299,,
,7416.0,1183.0,5596.0,1342.0,-118.0,1421.0,3692.0,2025-08-06 21:54:04,86.0,,-0.280089380176003,-2.76481283831038,-0.451928911488606,,3.8306898110224643,,
,7422.0,1186.0,5597.0,1344.0,-127.0,1411.0,3694.0,2025-08-06 21:54:05,86.0,,-0.280152760105407,-2.76437993636257,-0.450602777388516,,4.089756160030367,,
,7417.0,1187.0,5599.0,1345.0,-108.0,1375.0,3678.0,2025-08-06 21:54:06,87.0,,-0.279877528246313,-2.76453698046992,-0.451563767579545,,4.275449585965395,,
,7423.0,1187.0,5595.0,1344.0,-114.0,1377.0,3677.0,2025-08-06 21:54:07,87.0,,-0.280006298594624,-2.76439294489126,-0.451658503825834,,4.383318222366241,,
,7424.0,1184.0,5597.0,1345.0,-131.0,1374.0,3682.0,2025-08-06 21:54:08,87.0,,-0.279737237067056,-2.7644726761128,-0.451760892606412,,4.410836026516894,,
,7425.0,1186.0,5596.0,1343.0,-137.0,1401.0,3690.0,2025-08-06 21:54:09,87.0,,-0.279779365775364,-2.76419626253987,-0.450788888771427,,4.357608075112457,,
,7425.0,1188.0,5597.0,1346.0,-139.0,1409.0,3712.0,2025-08-06 21:54:10,87.0,,-0.279592947436868,-2.76450866490764,-0.451781200769758,,4.225495835857877,,
,7425.0,1186.0,5597.0,1345.0,-133.0,1413.0,3701.0,2025-08-06 21:54:11,87.0,,-0.279692389942807,-2.76424889579306,-0.450780150370791,,4.018637976873526,,
,7429.0,1185.0,5596.0,1344.0,-120.0,1398.0,3702.0,2025-08-06 21:54:12,86.0,,-0.279543611949072,-2.76399556366316,-0.451601853103028,,3.7433533658970344,,
,7427.0,1186.0,5596.0,1345.0,-128.0,1394.0,3693.0,2025-08-06 21:54:13,86.0,,-0.279409233117897,-2.76400072597981,-0.450327202013566,,3.4079254047081498,,
,7429.0,1187.0,5599.0,1344.0,-130.0,1393.0,3685.0,2025-08-06 21:54:14,86.0,,-0.279342312312956,-2.76390403388679,-0.450242721214026,,3.022278021403506,,
,7433.0,1187.0,5599.0,1345.0,-117.0,1402.0,3662.0,2025-08-06 21:54:15,86.0,,-0.279103728375436,-2.76356924556493,-0.450337715944183,,2.5975623955745917,,
,7432.0,1186.0,5599.0,1345.0,-123.0,1400.0,3660.0,2025-08-06 21:54:16,86.0,,-0.279177680564372,-2.76374548969265,-0.450705280565182,,2.1456799291010644,,
,7435.0,1189.0,5599.0,1342.0,-131.0,1407.0,3669.0,2025-08-06 21:54:17,85.0,,-0.279130170128866,-2.76375627091709,-0.450033839987582,,1.6787712378095005,,
,7435.0,1191.0,5601.0,1346.0,-125.0,1421.0,3689.0,2025-08-06 21:54:18,85.0,,-0.278964938136675,-2.76347121308299,-0.449851718590673,,1.208702643129678,,
,7438.0,1192.0,5602.0,1347.0,-136.0,1385.0,3691.0,2025-08-06 21:54:19,85.0,,-0.278830722423287,-2.76323499851963,-0.449604529817789,,0.7465802823694289,,
,7441.0,1192.0,5601.0,1346.0,-136.0,1394.0,3706.0,2025-08-06 21:54:20,86.0,,-0.278625982098991,-2.76326943958578,-0.449385467241749,,0.3023176177762036,,
,7441.0,1190.0,5604.0,1348.0,-140.0,1387.0,3705.0,2025-08-06 21:54:21,86.0,,-0.278323645394507,-2.76318981063119,-0.448410617050164,,-0.11572418665557932,,
,7441.0,1189.0,5604.0,1346.0,-135.0,1395.0,3688.0,2025-08-06 21:54:22,86.0,,-0.27810952679473,-2.76287946244555,-0.448828489110591,,-0.5010101839018384,,
,7443.0,1191.0,5604.0,1346.0,-138.0,1397.0,3676.0,2025-08-06 21:54:23,86.0,,-0.277988531922945,-2.76258486436552,-0.447033212935398,,-0.8490122733965058,,
,7448.0,1192.0,5609.0,1349.0,-138.0,1401.0,3668.0,2025-08-06 21:54:24,86.0,,-0.277785181009977,-2.76245634497534,-0.44826077300221,,-1.15729171644776,,
,7448.0,1192.0,5607.0,1349.0,-136.0,1399.0,3675.0,2025-08-06 21:54:25,86.0,,-0.27765628265979,-2.76199173550156,-0.447144190353235,,-1.4254790806561406,,
,7448.0,1191.0,5607.0,1347.0,-124.0,1410.0,3700.0,2025-08-06 21:54:26,86.0,,-0.277487587346763,-2.76223116204302,-0.44760129926166,,-1.655146766539735,,
,7452.0,1196.0,5609.0,1347.0,-120.0,1410.0,3711.0,2025-08-06 21:54:27,87.0,,-0.277363844189352,-2.76208598857537,-0.446646892149522,,-1.849570640117415,,
,7456.0,1193.0,5614.0,1350.0,-139.0,1405.0,3698.0,2025-08-06 21:54:28,86.0,,-0.277185218606232,-2.7616746793768,-0.447125622550964,,-2.0133822364730944,,
,7457.0,1192.0,5612.0,1350.0,-140.0,1399.0,3701.0,2025-08-06 21:54:29,86.0,,-0.277140310940818,-2.76189504259503,-0.446692682105121,,-2.1521214573639167,,
,7457.0,1192.0,5616.0,1350.0,-134.0,1393.0,3702.0,2025-08-06 21:54:30,86.0,,-0.27674392618882,-2.76171147243802,-0.447132942865738,,-2.2717100999686206,,
,7459.0,1197.0,5618.0,1352.0,-115.0,1385.0,3688.0,2025-08-06 21:54:31,87.0,,-0.276956706946419,-2.76168615459165,-0.446178964165213,,-2.3778770465542443,,
,7462.0,1196.0,5618.0,1353.0,-134.0,1392.0,3690.0,2025-08-06 21:54:32,87.0,,-0.276563982393614,-2.76149297116944,-0.446348566818207,,-2.475575064328118,,
,7463.0,1197.0,5619.0,1353.0,-135.0,1399.0,3691.0,2025-08-06 21:54:33,88.0,,-0.276493804589729,-2.76132882001654,-0.445939125979337,,-2.5684358413757673,,
,7464.0,1195.0,5618.0,1353.0,-145.0,1383.0,3703.0,2025-08-06 21:54:34,88.0,,-0.276168852394839,-2.7609556567775,-0.445320036030482,,-2.6583130898710405,,
,7466.0,1195.0,5622.0,1354.0,-136.0,1392.0,3690.0,2025-08-06 21:54:35,88.0,,-0.276097701694519,-2.76046272009341,-0.445272574281168,,-2.744962184072585,,
,7470.0,1200.0,5622.0,1355.0,-129.0,1409.0,3687.0,2025-08-06 21:54:36,88.0,,-0.27596828398457,-2.76073559234665,-0.444809246149658,,-2.8258979267732114,,
,7473.0,1200.0,5627.0,1355.0,-129.0,1398.0,3686.0,2025-08-06 21:54:37,87.0,,-0.275764600033095,-2.76041385682558,-0.44484086951649,,-2.896459167493418,,
,7474.0,1199.0,5627.0,1356.0,-133.0,1396.0,3667.0,2025-08-06 21:54:38,87.0,,-0.275881737403884,-2.7604229038669,-0.443969068878498,,-2.950090333434837,,
,7474.0,1199.0,5627.0,1357.0,-125.0,1393.0,3663.0,2025-08-06 21:54:39,87.0,,-0.275642224761372,-2.76011265569775,-0.443659749530821,,-2.9788267580693795,,
,7479.0,1199.0,5631.0,1358.0,-126.0,1383.0,3686.0,2025-08-06 21:54:40,87.0,,-0.275506281938693,-2.7601460721446,-0.443671596502785,,-2.973945868595972,,
,7482.0,1203.0,5631.0,1359.0,-131.0,1397.0,3692.0,2025-08-06 21:54:41,87.0,,-0.275527111167735,-2.7601363784617,-0.442292283060022,,-2.9267241782215496,,
,7482.0,1201.0,5634.0,1356.0,-146.0,1393.0,3677.0,2025-08-06 21:54:42,87.0,,-0.275213929550167,-2.76026486164358,-0.443913959135949,,-2.829225120803383,,
,7488.0,1204.0,5636.0,1359.0,-138.0,1398.0,3707.0,2025-08-06 21:54:43,86.0,,-0.275024257628206,-2.76000461716665,-0.442239176992222,,-2.6750379079693585,,
,7488.0,1202.0,5636.0,1360.0,-141.0,1424.0,3691.0,2025-08-06 21:54:44,86.0,,-0.275079336134572,-2.75985519367573,-0.443067237273852,,-2.4598933035404684,,
,7491.0,1206.0,5638.0,1361.0,-136.0,1408.0,3682.0,2025-08-06 21:54:45,85.0,,-0.275046393870585,-2.75992991229054,-0.444014610274827,,-2.1820974500029475,,
,7492.0,1204.0,5641.0,1363.0,-135.0,1409.0,3686.0,2025-08-06 21:54:46,84.0,,-0.274731324015583,-2.75975776533928,-0.442045946037893,,-1.842747887757635,,
2025-08-06 21:52:09,7495.0,1204.0,5642.0,1362.0,-137.0,1412.0,3682.0,2025-08-06 21:54:47,84.0,2025/08/06 09:52:09 PM,-0.27451842626711,-2.7593224351529,-0.442303243950275,,-1.4457240440909565,,
,7497.0,1205.0,5643.0,1364.0,-142.0,1399.0,3690.0,2025-08-06 21:54:48,84.0,,-0.274362925558308,-2.75963384365353,-0.44169537813509,,-0.9974735567302158,,
,7498.0,1206.0,5645.0,1364.0,-128.0,1387.0,3691.0,2025-08-06 21:54:49,84.0,,-0.274299176676616,-2.75927595381411,-0.441005200539027,,-0.5066404107568687,,
,7503.0,1208.0,5644.0,1365.0,-133.0,1385.0,3696.0,2025-08-06 21:54:50,85.0,,-0.274247037794486,-2.75880037494906,-0.441090860506089,,0.016403976367445606,,
,7503.0,1209.0,5650.0,1365.0,-131.0,1376.0,3689.0,2025-08-06 21:54:51,85.0,,-0.274315971162318,-2.75911240717302,-0.441163870928261,,0.5600625956498795,,
,7503.0,1207.0,5649.0,1364.0,-131.0,1412.0,3700.0,2025-08-06 21:54:52,85.0,,-0.274395042883541,-2.75916706359263,-0.441697518321948,,1.1119924335535312,,
,7506.0,1209.0,5653.0,1366.0,-134.0,1409.0,3702.0,2025-08-06 21:54:53,85.0,,-0.274374510214584,-2.7593885081118,-0.442119576599098,,1.6595247970621971,,
,7509.0,1210.0,5652.0,1368.0,-136.0,1394.0,3689.0,2025-08-06 21:54:54,84.0,,-0.274361140999317,-2.75915724133363,-0.441902304473389,,2.190012250840975,,
,7508.0,1209.0,5656.0,1368.0,-140.0,1405.0,3688.0,2025-08-06 21:54:55,83.0,,-0.274599874312228,-2.75911377039311,-0.441799641050883,,2.6911100496787674,,
,7510.0,1210.0,5656.0,1368.0,-147.0,1396.0,3697.0,2025-08-06 21:54:56,83.0,,-0.274538509622483,-2.75916919850413,-0.442574797041842,,3.151015796322044,,
,7510.0,1210.0,5658.0,1370.0,-135.0,1394.0,3698.0,2025-08-06 21:54:57,83.0,,-0.274325816079526,-2.75942834984532,-0.442842778845368,,3.5586975614122247,,
,7511.0,1211.0,5655.0,1367.0,-131.0,1394.0,3694.0,2025-08-06 21:54:58,83.0,,-0.274863146541117,-2.75957348677132,-0.442951489260327,,3.904137729981823,,
,7508.0,1207.0,5651.0,1367.0,-125.0,1411.0,3681.0,2025-08-06 21:54:59,83.0,,-0.275108669185076,-2.75999948828812,-0.443968799934837,,4.178609535108019,,
,7504.0,1208.0,5647.0,1367.0,-141.0,1397.0,3695.0,2025-08-06 21:55:00,84.0,,-0.275568371786832,-2.7603700740684,-0.44462469686904,,4.374988499536199,,
,7504.0,1206.0,5645.0,1365.0,-139.0,1390.0,3692.0,2025-08-06 21:55:01,84.0,,-0.275783181833133,-2.76093679400262,-0.445112736794236,,4.488084569184858,,
,7500.0,1203.0,5641.0,1363.0,-142.0,1384.0,3706.0,2025-08-06 21:55:02,84.0,,-0.276362240486332,-2.76133607164944,-0.445287955419048,,4.5149652259432775,,
,7499.0,1204.0,5634.0,1362.0,-146.0,1391.0,3702.0,2025-08-06 21:55:03,84.0,,-0.276617711860915,-2.76174597764519,-0.446333808155818,,4.455228099017462,,
,7497.0,1204.0,5626.0,1361.0,-142.0,1395.0,3698.0,2025-08-06 21:55:04,83.0,,-0.276699643420052,-2.76177217901119,-0.446390323963525,,4.31117626085124,,
,7493.0,1200.0,5624.0,1358.0,-124.0,1386.0,3677.0,2025-08-06 21:55:05,83.0,,-0.276833646643187,-2.76173345052106,-0.446532176176631,,4.087852508161393,,
,7492.0,1200.0,5619.0,1355.0,-125.0,1401.0,3669.0,2025-08-06 21:55:06,82.0,,-0.276878248804321,-2.7614412455147,-0.446131875205382,,3.792901240183487,,
,7489.0,1200.0,5614.0,1358.0,-125.0,1412.0,3664.0,2025-08-06 21:55:07,82.0,,-0.276825648838853,-2.7616219243656,-0.446866125137426,,3.4362470658370676,,
,7489.0,1200.0,5608.0,1352.0,-138.0,1401.0,3677.0,2025-08-06 21:55:08,82.0,,-0.276775545319147,-2.76154562519745,-0.44602063021145,,3.029604795277481,,
,7489.0,1200.0,5605.0,1350.0,-132.0,1399.0,3681.0,2025-08-06 21:55:09,82.0,,-0.276696629097766,-2.7617154672391,-0.446207983190569,,2.5858606304632383,,
,7487.0,1195.0,5604.0,1354.0,-128.0,1412.0,3672.0,2025-08-06 21:55:10,82.0,,-0.276656004593136,-2.76138537072197,-0.444863708550076,,2.118383057954742,,
,7485.0,1199.0,5603.0,1351.0,-121.0,1409.0,3681.0,2025-08-06 21:55:11,83.0,,-0.276528076620747,-2.76129594528079,-0.446328742280357,,1.6403298225246186,,
,7486.0,1197.0,5598.0,1350.0,-130.0,1413.0,3714.0,2025-08-06 21:55:12,83.0,,-0.276428939257491,-2.7613402881707,-0.445363130431199,,1.164013652347886,,
,7488.0,1194.0,5597.0,1352.0,-124.0,1414.0,3711.0,2025-08-06 21:55:13,84.0,,-0.276612846629295,-2.76113707210138,-0.444928207560013,,0.7003766428752612,,
,7487.0,1194.0,5596.0,1350.0,-126.0,1367.0,3687.0,2025-08-06 21:55:14,84.0,,-0.276522108039282,-2.76109039948304,-0.444912526214194,,0.25860538302016645,,
,7489.0,1197.0,5593.0,1350.0,-132.0,1350.0,3682.0,2025-08-06 21:55:15,85.0,,-0.27631020140114,-2.76080831011134,-0.444826214144903,,-0.1541002303939817,,
,7485.0,1197.0,5594.0,1348.0,-128.0,1372.0,3685.0,2025-08-06 21:55:16,85.0,,-0.27618762026691,-2.76075780587831,-0.444953975521155,,-0.5326091739450355,,
,7485.0,1194.0,5591.0,1346.0,-130.0,1409.0,3699.0,2025-08-06 21:55:17,85.0,,-0.276018135418732,-2.76068550660254,-0.443331997829568,,-0.8738113234242536,,
,7489.0,1195.0,5593.0,1350.0,-140.0,1428.0,3689.0,2025-08-06 21:55:18,86.0,,-0.275995309426729,-2.76044573594826,-0.443726159629095,,-1.1764676322832173,,
,7491.0,1198.0,5593.0,1349.0,-136.0,1408.0,3679.0,2025-08-06 21:55:19,86.0,,-0.275872074664617,-2.76024855274093,-0.443158349939039,,-1.4409909449116405,,
,7490.0,1197.0,5593.0,1351.0,-134.0,1381.0,3672.0,2025-08-06 21:55:20,86.0,,-0.275807442327245,-2.76010177540148,-0.442186746173633,,-1.6691887699679155,,
,7487.0,1197.0,5591.0,1348.0,-133.0,1374.0,3702.0,2025-08-06 21:55:21,86.0,,-0.275765769764176,-2.75988795626057,-0.442676876975611,,-1.8639932339100622,,
,7492.0,1198.0,5592.0,1350.0,-132.0,1378.0,3679.0,2025-08-06 21:55:22,86.0,,-0.275587666261434,-2.76003095542187,-0.443770855584673,,-2.029193468749146,,
,7491.0,1198.0,5594.0,1351.0,-123.0,1401.0,3686.0,2025-08-06 21:55:23,86.0,,-0.275853295586543,-2.76030033242315,-0.443819082663501,,-2.1691741950622943,,
,7493.0,1199.0,5593.0,1351.0,-130.0,1388.0,3686.0,2025-08-06 21:55:24,85.0,,-0.275818402711751,-2.76028355486445,-0.443510594212645,,-2.2886547194322575,,
,7496.0,1198.0,5592.0,1352.0,-137.0,1396.0,3682.0,2025-08-06 21:55:25,85.0,,-0.275778482922634,-2.76034989955129,-0.443730870581323,,-2.3924182053013068,,
,7496.0,1201.0,5592.0,1350.0,-140.0,1394.0,3666.0,2025-08-06 21:55:26,85.0,,-0.275630570303879,-2.76017798913106,-0.442561127057446,,-2.4850231136094036,,
,7497.0,1198.0,5593.0,1351.0,-135.0,1384.0,3688.0,2025-08-06 21:55:27,85.0,,-0.275540413290296,-2.76002364331145,-0.442566045152662,,-2.570495920849922,,
,7499.0,1197.0,5593.0,1353.0,-140.0,1396.0,3692.0,2025-08-06 21:55:28,85.0,,-0.275290230518555,-2.76002481425234,-0.442028763821214,,-2.652014154818995,,
,7500.0,1200.0,5595.0,1352.0,-138.0,1392.0,3680.0,2025-08-06 21:55:29,85.0,,-0.27527621598471,-2.75969190944362,-0.442522485017333,,-2.731599121372567,,
,7501.0,1200.0,5594.0,1350.0,-133.0,1401.0,3680.0,2025-08-06 21:55:30,85.0,,-0.27503778398709,-2.7601893223305,-0.441802792258039,,-2.8098465885836936,,
,7501.0,1199.0,5594.0,1353.0,-134.0,1391.0,3672.0,2025-08-06 21:55:31,84.0,,-0.275213642525004,-2.75996490174399,-0.442600075503372,,-2.8857295062234507,,
,7501.0,1201.0,5596.0,1352.0,-155.0,1398.0,3691.0,2025-08-06 21:55:32,84.0,,-0.275136387690971,-2.75982998810483,-0.441390113483017,,-2.9565080637153947,,
,7504.0,1199.0,5598.0,1353.0,-149.0,1396.0,3702.0,2025-08-06 21:55:33,84.0,,-0.2750899788566,-2.75952726061752,-0.442400266236516,,-3.0177779472870077,,
,7503.0,1200.0,5594.0,1348.0,-132.0,1398.0,3691.0,2025-08-06 21:55:34,84.0,,-0.275131866736484,-2.75980417343984,-0.442058010421686,,-3.063677132157682,,
,7506.0,1202.0,5596.0,1354.0,-130.0,1373.0,3679.0,2025-08-06 21:55:35,84.0,,-0.274943650263597,-2.75969276163106,-0.442568279409802,,-3.0872552617723246,,
,7507.0,1203.0,5598.0,1354.0,-132.0,1378.0,3683.0,2025-08-06 21:55:36,84.0,,-0.275097183173728,-2.75973855589346,-0.441946671834778,,-3.0809888851105223,,
,7506.0,1205.0,5597.0,1355.0,-130.0,1397.0,3678.0,2025-08-06 21:55:37,84.0,,-0.275020826157436,-2.75970399565771,-0.442529947186894,,-3.0374032341990453,,
,7506.0,1202.0,5596.0,1351.0,-129.0,1382.0,3681.0,2025-08-06 21:55:38,84.0,,-0.274898857641434,-2.75956545330845,-0.441136928789257,,-2.9497411436807903,,
,7508.0,1201.0,5597.0,1354.0,-133.0,1394.0,3683.0,,,,-0.274862723251946,-2.75955335277669,-0.442664174670385,,-2.812607044116043,,
,7513.0,1203.0,5599.0,1354.0,-126.0,1390.0,3685.0,,,,-0.274946746830322,-2.7593832790011,-0.441997140583957,,-2.622512117758839,,
,7511.0,1203.0,5598.0,1356.0,-129.0,1385.0,3682.0,,,,-0.275041436165534,-2.75955873239449,-0.441800199120527,,-2.378256330864515,,
,7510.0,1201.0,5598.0,1354.0,-126.0,1378.0,3686.0,,,,-0.275189446840302,-2.75967712592379,-0.44227671171146,,-2.0811025773214316,,
,7511.0,1201.0,5598.0,1354.0,-135.0,1392.0,3703.0,,,,-0.274955501182803,-2.75972808651321,-0.441916325279428,,-1.734724957665236,,
,7508.0,1203.0,5598.0,1353.0,-133.0,1403.0,3697.0,,,,-0.274880480044919,-2.75965810216734,-0.443014564062822,,-1.3449437959036012,,
,7512.0,1206.0,5598.0,1355.0,-123.0,1398.0,3703.0,,,,-0.274745984440278,-2.75961695545706,-0.441467790755289,,-0.9192896680690197,,
,7516.0,1206.0,5601.0,1355.0,-125.0,1399.0,3694.0,,,,-0.274734531506055,-2.75946591072176,-0.441814870311917,,-0.4664620059630472,,
,7514.0,1205.0,5600.0,1356.0,-133.0,1397.0,3667.0,,,,-0.274488167580322,-2.75944670639623,-0.442122247645059,,0.004239989989176677,,
,7518.0,1205.0,5597.0,1355.0,-131.0,1386.0,3682.0,,,,-0.274375881157846,-2.75921967545467,-0.441505984369811,,0.48343775856667165,,
,7518.0,1205.0,5600.0,1354.0,-130.0,1413.0,3685.0,,,,-0.274308563656999,-2.75895789242375,-0.440989959701219,,0.9620831012735706,,
,7520.0,1206.0,5601.0,1356.0,-130.0,1413.0,3700.0,,,,-0.274231131985074,-2.75894006455791,-0.440556352101802,,1.4317194799887099,,
,7519.0,1206.0,5599.0,1355.0,-118.0,1418.0,3720.0,,,,-0.27415572261152,-2.75863209474196,-0.441198458810809,,1.8845863634751865,,
,7522.0,1206.0,5602.0,1355.0,-121.0,1397.0,3728.0,,,,-0.274124829069414,-2.75918790797614,-0.440894930935281,,2.313586360392319,,
,7521.0,1207.0,5603.0,1357.0,-132.0,1361.0,3693.0,,,,-0.274481895333656,-2.75887091203499,-0.442162112986452,,2.7121567764521033,,
,7523.0,1208.0,5603.0,1359.0,-130.0,1361.0,3704.0,,,,-0.273981105789464,-2.75868372845489,-0.441228494095928,,3.0740995745727906,,
,7524.0,1208.0,5604.0,1357.0,-128.0,1378.0,3686.0,,,,-0.273872154415903,-2.75866558836126,-0.44052593726317,,3.393426107698428,,
,7524.0,1209.0,5604.0,1357.0,-137.0,1398.0,3696.0,,,,-0.273760922845744,-2.75855359959633,-0.440316499079097,,3.6642667998242984,,
,7527.0,1209.0,5608.0,1358.0,-138.0,1421.0,3686.0,,,,-0.273439999608609,-2.7583193178633,-0.439306728350475,,3.880882916946421,,
,7527.0,1210.0,5606.0,1360.0,-137.0,1405.0,3686.0,,,,-0.273464858928159,-2.75829899099268,-0.439941939461366,,4.037799414118565,,
,7531.0,1211.0,5607.0,1360.0,-121.0,1380.0,3690.0,,,,-0.273543857554739,-2.75854103081255,-0.439634927993579,,4.130056652257842,,
,7533.0,1209.0,5607.0,1361.0,-127.0,1371.0,3687.0,,,,-0.273450761860249,-2.75828081326291,-0.439474828636432,,4.153557332338207,,
,7534.0,1212.0,5611.0,1363.0,-128.0,1393.0,3712.0,,,,-0.273406748063522,-2.75844342047552,-0.439297495955508,,4.105466607782434,,
,7535.0,1211.0,5612.0,1361.0,-128.0,1403.0,3729.0,,,,-0.273488342200708,-2.75813306388405,-0.439523043510151,,3.9846112646963614,,
,7539.0,1212.0,5613.0,1361.0,-118.0,1420.0,3734.0,,,,-0.273527417510002,-2.75818721720748,-0.439516807453383,,3.7918205164135186,,
,7538.0,1211.0,5616.0,1361.0,-126.0,1403.0,3680.0,,,,-0.273373066172199,-2.75823006380582,-0.439438072169676,,3.530157078824086,,
,7540.0,1213.0,5616.0,1363.0,-130.0,1404.0,3681.0,,,,-0.27339396456489,-2.75815101455522,-0.439778373493764,,3.205001270449949,,
,7545.0,1212.0,5618.0,1365.0,-133.0,1404.0,3682.0,,,,-0.273391347776039,-2.75809082186199,-0.438814835526737,,2.8239694618050373,,
,7544.0,1215.0,5618.0,1366.0,-129.0,1403.0,3689.0,,,,-0.273360609576137,-2.75806220020059,-0.439525258728716,,2.396667312582864,,
,7548.0,1215.0,5619.0,1366.0,-123.0,1396.0,3706.0,,,,-0.273260073041168,-2.75802549350087,-0.440063536013343,,1.9342951145738583,,
,7548.0,1218.0,5624.0,1366.0,-121.0,1397.0,3704.0,,,,-0.27326921425484,-2.75815678746546,-0.43945643159589,,1.4491361268972083,,
,7549.0,1218.0,5624.0,1367.0,-118.0,1392.0,3686.0,,,,-0.273144429385777,-2.75803963790987,-0.438854414470253,,0.9539686725659077,,
,7549.0,1216.0,5623.0,1367.0,-124.0,1399.0,3681.0,,,,-0.273297119097839,-2.75802303113286,-0.438267987700187,,0.4614482717323826,,
,7551.0,1217.0,5624.0,1368.0,-123.0,1391.0,3681.0,,,,-0.27314811307383,-2.75809180987768,-0.438224364027239,,-0.01649363885729991,,
,7552.0,1219.0,5627.0,1369.0,-125.0,1382.0,3699.0,,,,-0.272925544271433,-2.75798316159558,-0.438889824846136,,-0.4691929345877833,,
,7557.0,1221.0,5628.0,1370.0,-138.0,1389.0,3701.0,,,,-0.272753889868122,-2.75770809757459,-0.438326195041321,,-0.8877057916707511,,
,7559.0,1221.0,5632.0,1372.0,-133.0,1392.0,3703.0,,,,-0.272867819846667,-2.7577085601759,-0.437912833815898,,-1.265150514276453,,
,7560.0,1219.0,5632.0,1372.0,-130.0,1371.0,3694.0,,,,-0.272779892092639,-2.75768522551838,-0.438664895381611,,-1.5969280268499517,,
,7561.0,1221.0,5631.0,1371.0,-134.0,1379.0,3674.0,,,,-0.272896256428508,-2.75793419320425,-0.438530467452038,,-1.8808189830227364,,
,7564.0,1224.0,5636.0,1374.0,-126.0,1405.0,3683.0,,,,-0.27287676493553,-2.7576076369479,-0.43835608165359,,-2.1169598152843117,,
,7568.0,1225.0,5637.0,1376.0,-123.0,1422.0,3691.0,,,,-0.272671017008769,-2.75737256895731,-0.4375829378643,,-2.307701086394608,,
,7566.0,1223.0,5640.0,1373.0,-129.0,1409.0,3702.0,,,,-0.27271996285484,-2.75765544731256,-0.437806298279509,,-2.457351330703923,,
,7568.0,1224.0,5641.0,1372.0,-124.0,1393.0,3700.0,,,,-0.272805238557257,-2.75786685813816,-0.437549579720422,,-2.5718110426502956,,
,7571.0,1224.0,5641.0,1375.0,-130.0,1358.0,3684.0,,,,-0.272938222305299,-2.75782296367645,-0.438431643570228,,-2.6581063327091394,,
,7574.0,1226.0,5644.0,1375.0,-137.0,1371.0,3680.0,,,,-0.272619655762925,-2.75746008744085,-0.438919165497911,,-2.7238396693598235,,
,7577.0,1228.0,5645.0,1377.0,-138.0,1376.0,3677.0,,,,-0.272793082455503,-2.75750390347129,-0.438047252522748,,-2.7765842936128364,,
,7573.0,1225.0,5646.0,1378.0,-123.0,1409.0,3678.0,,,,-0.27276372598876,-2.75751383989087,-0.438323857451378,,-2.8232574992866613,,
,7574.0,1224.0,5643.0,1376.0,-116.0,1415.0,3668.0,,,,-0.273415733931552,-2.75779316527193,-0.438168182525635,,-2.8695147324966217,,
,7578.0,1228.0,5650.0,1378.0,-120.0,1402.0,3685.0,,,,-0.273616308603358,-2.75802103262769,-0.438773737636912,,-2.9192104714155542,,
,7577.0,1225.0,5650.0,1379.0,-124.0,1385.0,3690.0,,,,-0.273665865416679,-2.7582736142396,-0.440079428147414,,-2.973972329398003,,
,7573.0,1228.0,5648.0,1377.0,-121.0,1401.0,3687.0,,,,-0.274143260099825,-2.75859810757786,-0.440807490836456,,-3.0329311526894105,,
,7571.0,1223.0,5643.0,1375.0,-179.0,1416.0,3697.0,,,,-0.274544842852663,-2.75906640235578,-0.441703927485119,,-3.092641662615368,,
,7569.0,1223.0,5639.0,1377.0,-155.0,1445.0,3673.0,,,,-0.274935528841853,-2.75941129163317,-0.441619967369036,,-3.1472152535089895,,
,7566.0,1224.0,5639.0,1376.0,-93.0,1425.0,3666.0,,,,-0.274712690473196,-2.75964286241131,-0.442069112641446,,-3.188669052280168,,
,7561.0,1222.0,5631.0,1372.0,-94.0,1355.0,3689.0,,,,-0.275134839558959,-2.75992361948499,-0.443503777232605,,-3.207474226855923,,
,7558.0,1220.0,5626.0,1370.0,-154.0,1367.0,3696.0,,,,-0.275347413945027,-2.76052508967329,-0.44278393672376,,-3.1932642355721406,,
,7555.0,1221.0,5622.0,1371.0,-115.0,1368.0,3683.0,,,,-0.275266354272053,-2.76009360682171,-0.443205060328887,,-3.1356441602386327,,
,7553.0,1220.0,5618.0,1367.0,-113.0,1386.0,3673.0,,,,-0.275580919552981,-2.76016297842542,-0.44376351203951,,-3.025029549929217,,
,7550.0,1218.0,5613.0,1368.0,-126.0,1436.0,3688.0,,,,-0.275589249402391,-2.7601506866249,-0.443258672079488,,-2.8534397498011588,,
,7547.0,1216.0,5607.0,1366.0,-130.0,1419.0,3686.0,,,,-0.275361535397702,-2.76004022591924,-0.444075810678519,,-2.615176657498287,,
,7549.0,1219.0,5606.0,1365.0,-122.0,1378.0,3664.0,,,,-0.275398208613802,-2.76035276231812,-0.44297778239025,,-2.3073340662306863,,
,7550.0,1220.0,5602.0,1365.0,-127.0,1380.0,3683.0,,,,-0.275506993748608,-2.76038045144433,-0.442974509119251,,-1.9301035984709567,,
,7545.0,1215.0,5601.0,1363.0,-120.0,1380.0,3697.0,,,,-0.275277999443949,-2.76000049677879,-0.443124741752221,,-1.4868682623907294,,
,7545.0,1216.0,5597.0,1363.0,-121.0,1411.0,3702.0,,,,-0.275335552878436,-2.76028676435338,-0.442912246516715,,-0.9840998670526063,,
,7544.0,1216.0,5597.0,1363.0,-126.0,1405.0,3696.0,,,,-0.275361284950676,-2.76006708320958,-0.442874959593609,,-0.43109682096893065,,
,7543.0,1217.0,5594.0,1362.0,-129.0,1394.0,3685.0,,,,-0.275222790000033,-2.76008126768648,-0.44259358764832,,0.16039017188515065,,
,7545.0,1218.0,5595.0,1362.0,-132.0,1368.0,3682.0,,,,-0.275075945911555,-2.75976507298718,-0.442144068755015,,0.7765972484750086,,
,7543.0,1216.0,5595.0,1359.0,-124.0,1376.0,3678.0,,,,-0.27501248990193,-2.75968858519561,-0.441914489228305,,1.402214488941219,,
,7544.0,1219.0,5594.0,1360.0,-126.0,1393.0,3689.0,,,,-0.2748235829398,-2.75959276387963,-0.442348608902192,,2.020861108514565,,
,7545.0,1217.0,5593.0,1361.0,-122.0,1417.0,3692.0,,,,-0.274930218498961,-2.75975775804005,-0.441130305244778,,2.6155672585303686,,
,7544.0,1220.0,5591.0,1363.0,-125.0,1405.0,3698.0,,,,-0.275119895089309,-2.75980631180494,-0.441547270394371,,3.1692751422765006,,
,7543.0,1220.0,5589.0,1361.0,-134.0,1383.0,3706.0,,,,-0.275034672836469,-2.75957726802882,-0.442063144875177,,3.665377773907445,,
,7544.0,1220.0,5592.0,1361.0,-134.0,1386.0,3669.0,,,,-0.275171310042649,-2.75960210006417,-0.441212515922741,,4.088309228575174,,
,7546.0,1222.0,5595.0,1364.0,-132.0,1401.0,3691.0,,,,-0.275226277979566,-2.75991527451656,-0.441046462321052,,4.42418711531409,,
,7545.0,1222.0,5595.0,1363.0,-117.0,1408.0,3726.0,,,,-0.275321072352252,-2.75968244140222,-0.441639062560302,,4.661489471619181,,
,7545.0,1222.0,5594.0,1364.0,-124.0,1395.0,3732.0,,,,-0.275210949214259,-2.75994077858892,-0.441980968505079,,4.79172795498117,,
2025-08-06 21:52:10,7544.0,1220.0,5594.0,1361.0,-129.0,1358.0,3696.0,,,2025/08/06 09:52:10 PM,-0.275375748182566,-2.76005396337322,-0.441779931554069,,4.810060673819406,,
,7545.0,1221.0,5594.0,1364.0,-120.0,1365.0,3707.0,,,,-0.275242909052322,-2.76010406113765,-0.442468138151114,,4.715774931932445,,
,7548.0,1222.0,5595.0,1364.0,-127.0,1370.0,3699.0,,,,-0.275276555012956,-2.76004563351099,-0.442759583010958,,4.512566239855837,,
,7551.0,1221.0,5598.0,1364.0,-122.0,1375.0,3683.0,,,,-0.275040249831668,-2.75987341134096,-0.442422823400769,,4.208548261291792,,
,7550.0,1224.0,5597.0,1364.0,-122.0,1407.0,3695.0,,,,-0.274875811811116,-2.75952170528521,-0.441725254201889,,3.815950438825701,,
,7553.0,1223.0,5601.0,1366.0,-117.0,1401.0,3708.0,,,,-0.274915339575747,-2.75943637415692,-0.442245500428086,,3.3504946944307368,,
,7554.0,1223.0,5600.0,1368.0,-124.0,1383.0,3694.0,,,,-0.274745570606911,-2.75909672885681,-0.441499091167919,,2.830484938610986,,
,7553.0,1223.0,5600.0,1366.0,-124.0,1391.0,3674.0,,,,-0.274685009252338,-2.7591260045045,-0.441377065337706,,2.2756847143849184,,
,7553.0,1224.0,5601.0,1366.0,-134.0,1384.0,3672.0,,,,-0.274570884750168,-2.75915578541685,-0.441477539819434,,1.7060894566885165,,
,7552.0,1224.0,5601.0,1365.0,-127.0,1386.0,3686.0,,,,-0.274785285976148,-2.75938257600112,-0.441371540951811,,1.140713404922201,,
,7556.0,1227.0,5603.0,1368.0,-126.0,1410.0,3706.0,,,,-0.274735110475481,-2.75907008722134,-0.440154778758001,,0.5965054316487801,,
,7556.0,1228.0,5605.0,1367.0,-139.0,1403.0,3723.0,,,,-0.274786211927844,-2.75899672817823,-0.441701598754145,,0.08748655637530196,,
,7557.0,1228.0,5605.0,1368.0,-136.0,1377.0,3699.0,,,,-0.274651744174475,-2.75917872053361,-0.441431471731936,,-0.37582896066636334,,
,7556.0,1226.0,5603.0,1368.0,-126.0,1395.0,3681.0,,,,-0.274692958366998,-2.75904804417391,-0.441673895396741,,-0.7867010735589492,,
,7558.0,1228.0,5609.0,1370.0,-130.0,1410.0,3681.0,,,,-0.274596586325634,-2.7589902627539,-0.441071498409372,,-1.1421245673838654,,
,7557.0,1228.0,5609.0,1370.0,-127.0,1430.0,3687.0,,,,-0.274539482156911,-2.75912454658707,-0.441712222473234,,-1.442515355229415,,
,7560.0,1225.0,5605.0,1366.0,-118.0,1420.0,3698.0,,,,-0.27478760935151,-2.75911329595125,-0.441109369084337,,-1.691176386758755,,
,7558.0,1227.0,5608.0,1370.0,-121.0,1403.0,3698.0,,,,-0.27463459001197,-2.7591956544508,-0.44129058473646,,-1.8936106720847368,,
,7559.0,1229.0,5608.0,1369.0,-131.0,1410.0,3685.0,,,,-0.274619122528532,-2.75919572640411,-0.44122060717456,,-2.056753780936403,,
,7560.0,1230.0,5608.0,1367.0,-136.0,1385.0,3679.0,,,,-0.274527859155024,-2.75925045414491,-0.440980235790669,,-2.1881942871580207,,
,7559.0,1230.0,5609.0,1369.0,-135.0,1407.0,3690.0,,,,-0.274388924835915,-2.75899539845184,-0.440720200675174,,-2.2954393274674296,,
,7562.0,1229.0,5609.0,1369.0,-138.0,1404.0,3724.0,,,,-0.274420727226747,-2.75892730662989,-0.441548999847621,,-2.3852667474104314,,
,7563.0,1230.0,5608.0,1368.0,-95.0,1417.0,3691.0,,,,-0.274234268617307,-2.75874770136589,-0.440567912339781,,-2.4631894235744705,,
,7562.0,1233.0,5613.0,1371.0,-108.0,1344.0,3694.0,,,,-0.274103938715346,-2.75859749722725,-0.440542705160884,,-2.5330450341661592,,
,7564.0,1233.0,5613.0,1371.0,-144.0,1347.0,3684.0,,,,-0.27387746495485,-2.75871731262397,-0.440810897143392,,-2.596717353914852,,
,7564.0,1230.0,5616.0,1369.0,-174.0,1373.0,3689.0,,,,-0.274099808181061,-2.7583060201226,-0.439336518954754,,-2.6539921445629364,,
,7564.0,1231.0,5617.0,1371.0,-136.0,1397.0,3672.0,,,,-0.27379320438089,-2.75847729741294,-0.439893631930891,,-2.7025497396902294,,
,7569.0,1235.0,5616.0,1369.0,-138.0,1435.0,3687.0,,,,-0.2737412913508,-2.75840231128756,-0.43976509389461,,-2.7380955101624056,,
,7567.0,1237.0,5618.0,1372.0,-140.0,1426.0,3688.0,,,,-0.273757514234748,-2.75841221675801,-0.440491013305887,,-2.7546272810576413,,
,7570.0,1237.0,5621.0,1375.0,-146.0,1398.0,3678.0,,,,-0.273621619498457,-2.75865782239466,-0.440854546345591,,-2.74483467299499,,
,7567.0,1235.0,5620.0,1369.0,-136.0,1404.0,3689.0,,,,-0.273713113714269,-2.75819495076445,-0.43955634964333,,-2.700618753395575,,
,7573.0,1237.0,5624.0,1372.0,-135.0,1407.0,3697.0,,,,-0.273615692615601,-2.75826944361197,-0.439539448207444,,-2.613711239193295,,
,7573.0,1237.0,5626.0,1373.0,-139.0,1398.0,3696.0,,,,-0.273604680751656,-2.75818737766832,-0.439395734438258,,-2.476361427170425,,
,7574.0,1239.0,5627.0,1375.0,-141.0,1400.0,3707.0,,,,-0.273398369418375,-2.75808077694347,-0.438803246668705,,-2.2820474452092196,,
,7575.0,1240.0,5626.0,1375.0,-133.0,1395.0,3707.0,,,,-0.273556397449618,-2.75832068124183,-0.439322333799162,,-2.0261584977441633,,
,7575.0,1243.0,5627.0,1377.0,-139.0,1383.0,3684.0,,,,-0.273460239099825,-2.7582147020734,-0.438400748077529,,-1.7065894989258361,,
,7579.0,1238.0,5635.0,1376.0,-131.0,1384.0,3678.0,,,,-0.273483522897722,-2.75821128817273,-0.439089576881774,,-1.3241920172394002,,
,7581.0,1242.0,5635.0,1375.0,-130.0,1384.0,3687.0,,,,-0.273528353934074,-2.75822912292446,-0.439251523284618,,-0.8830373814377684,,
,7583.0,1239.0,5632.0,1376.0,-127.0,1375.0,3674.0,,,,-0.273700774249139,-2.7583785360288,-0.439312545056243,,-0.39046730577619,,
,7583.0,1242.0,5637.0,1378.0,-136.0,1399.0,3693.0,,,,-0.273687367881055,-2.75823235389791,-0.439302300748178,,0.143070468922452,,
,7586.0,1243.0,5639.0,1380.0,-142.0,1382.0,3696.0,,,,-0.273629010940054,-2.75838980002542,-0.439876994173523,,0.7043847019617535,,
,7588.0,1246.0,5637.0,1381.0,-132.0,1378.0,3697.0,,,,-0.273531282085511,-2.75857317470031,-0.439403437205474,,1.2780711807548188,,
,7585.0,1246.0,5640.0,1378.0,-133.0,1392.0,3711.0,,,,-0.273649265216999,-2.7585502160402,-0.43961865728373,,1.8471738323488693,,
,7589.0,1245.0,5643.0,1379.0,-136.0,1400.0,3702.0,,,,-0.273587686461361,-2.75836298096508,-0.440272093872968,,2.3939362451310466,,
,7592.0,1246.0,5646.0,1382.0,-131.0,1370.0,3698.0,,,,-0.273677973125126,-2.75833710252215,-0.440263035136416,,2.900603393975011,,
,7593.0,1248.0,5650.0,1383.0,-132.0,1383.0,3707.0,,,,-0.27379678030343,-2.75848057039533,-0.440132035242135,,3.350234771020514,,
,7594.0,1248.0,5652.0,1381.0,-140.0,1373.0,3684.0,,,,-0.273985064228298,-2.75830205685111,-0.439604553693786,,3.7274922040633407,,
,7598.0,1247.0,5653.0,1380.0,-130.0,1392.0,3696.0,,,,-0.274069043226363,-2.75843189617348,-0.438964157456278,,4.019368025246,,
,7599.0,1251.0,5653.0,1383.0,-139.0,1398.0,3690.0,,,,-0.273780394891908,-2.75851327495636,-0.439039341552264,,4.215821708091825,,
,7600.0,1250.0,5655.0,1386.0,-137.0,1402.0,3698.0,,,,-0.27380508716564,-2.75833681163925,-0.439598730567436,,4.310295155355952,,
,7601.0,1250.0,5657.0,1385.0,-142.0,1390.0,3720.0,,,,-0.273700762546341,-2.75834655601338,-0.439326002096723,,4.30007794074182,,
,7604.0,1250.0,5658.0,1384.0,-139.0,1369.0,3699.0,,,,-0.273871686824303,-2.75839848272567,-0.439171114240569,,4.186494379205694,,
,7605.0,1253.0,5659.0,1384.0,-125.0,1373.0,3673.0,,,,-0.273818986450315,-2.7579827181515,-0.438842561078558,,3.974886494223933,,
,7610.0,1253.0,5663.0,1389.0,-130.0,1375.0,3680.0,,,,-0.273706748767744,-2.7579841383248,-0.438957447106104,,3.6743739413177354,,
,7609.0,1254.0,5666.0,1388.0,-130.0,1388.0,3678.0,,,,-0.273833436330342,-2.75806648992931,-0.439436498994883,,3.2973858624567076,,
,7610.0,1255.0,5665.0,1388.0,-123.0,1411.0,3676.0,,,,-0.273971570506438,-2.75822425132485,-0.439195947195724,,2.8589798684459415,,
,7611.0,1254.0,5670.0,1389.0,-132.0,1409.0,3703.0,,,,-0.273835024227627,-2.75796187344566,-0.438863098015178,,2.375986326934967,,
,7614.0,1257.0,5673.0,1392.0,-135.0,1381.0,3673.0,,,,-0.273749221353118,-2.75814666953298,-0.439285146313304,,1.866036805548701,,
,7614.0,1260.0,5673.0,1393.0,-132.0,1379.0,3670.0,,,,-0.273768440912492,-2.7581298914821,-0.438976273686652,,1.3465495025892025,,
,7615.0,1255.0,5675.0,1392.0,-132.0,1392.0,3700.0,,,,-0.273417051740296,-2.75788086800734,-0.439396514982334,,0.833749714908806,,
,7614.0,1256.0,5673.0,1389.0,-135.0,1389.0,3708.0,,,,-0.273385403756661,-2.75805306942482,-0.439277222124387,,0.34180025094344757,,
,7612.0,1259.0,5674.0,1393.0,-133.0,1398.0,3705.0,,,,-0.273316442787796,-2.75802239560145,-0.439386361598578,,-0.11789286480806435,,
,7609.0,1256.0,5675.0,1391.0,-136.0,1411.0,3705.0,,,,-0.273486153391887,-2.75799204605276,-0.4387599483263,,-0.5371478718415175,,
,7607.0,1256.0,5674.0,1391.0,-144.0,1417.0,3689.0,,,,-0.273575860582962,-2.75826661651455,-0.440321995894654,,-0.9112131551579898,,
,7602.0,1254.0,5668.0,1389.0,-127.0,1401.0,3686.0,,,,-0.273986955236522,-2.75870874183147,-0.440795932683256,,-1.2386961022552985,,
,7597.0,1255.0,5666.0,1386.0,-130.0,1395.0,3702.0,,,,-0.27440677904785,-2.75908602456224,-0.440971177194355,,-1.5212213610557876,,
,7595.0,1255.0,5662.0,1387.0,-134.0,1370.0,3697.0,,,,-0.274832077048127,-2.75948752336028,-0.44172851695401,,-1.7628480718084187,,
,7589.0,1254.0,5655.0,1383.0,-129.0,1370.0,3699.0,,,,-0.275423479508582,-2.76004468613893,-0.442990851506672,,-1.969297512797848,,
,7584.0,1251.0,5648.0,1379.0,-138.0,1355.0,3700.0,,,,-0.276160144100776,-2.76061537120168,-0.444289758041493,,-2.1470602603281255,,
,7578.0,1252.0,5643.0,1381.0,-135.0,1385.0,3705.0,,,,-0.276218646474492,-2.76076431515804,-0.444449655485034,,-2.302463370865819,,
,7575.0,1250.0,5639.0,1381.0,-129.0,1403.0,3680.0,,,,-0.276373661863399,-2.7612473055589,-0.446075518134059,,-2.4407824355995125,,
,7573.0,1248.0,5635.0,1377.0,-136.0,1418.0,3695.0,,,,-0.276572739503458,-2.76163630244855,-0.445655136609759,,-2.5654806571312485,,
,7566.0,1247.0,5632.0,1375.0,-138.0,1430.0,3688.0,,,,-0.277045327859343,-2.76183818622654,-0.447432481442809,,-2.677647714379474,,
,7561.0,1249.0,5626.0,1375.0,-137.0,1395.0,3705.0,,,,-0.27723589794401,-2.7618475555055,-0.445896026003513,,-2.775695588356713,,
,7560.0,1249.0,5625.0,1374.0,-133.0,1408.0,3693.0,,,,-0.277280217120983,-2.76211159692263,-0.446628521950413,,-2.8553473100015974,,
,7557.0,1248.0,5624.0,1374.0,-132.0,1395.0,3705.0,,,,-0.277303928272025,-2.76224001198428,-0.446850106009221,,-2.909928595404739,,
,7555.0,1248.0,5621.0,1373.0,-127.0,1382.0,3712.0,,,,-0.277524116595075,-2.76211574540931,-0.44702727751425,,-2.930942962608542,,
,7550.0,1248.0,5616.0,1369.0,-139.0,1376.0,3733.0,,,,-0.277762860636394,-2.76225146777362,-0.446836726722755,,-2.908880772092648,,
,7554.0,1250.0,5620.0,1372.0,-129.0,1377.0,3716.0,,,,-0.277360942193698,-2.76215750739283,-0.446248079915666,,-2.8341858326238025,,
,7551.0,1248.0,5616.0,1374.0,-135.0,1374.0,3702.0,,,,-0.277224951470561,-2.76212134138305,-0.446568887033235,,-2.6982845694340343,,
,7550.0,1249.0,5618.0,1371.0,-150.0,1383.0,3697.0,,,,-0.277311073657906,-2.76191541801243,-0.44619228762935,,-2.494575772950709,,
,7546.0,1247.0,5616.0,1371.0,-154.0,1385.0,3702.0,,,,-0.277338735283352,-2.76175675008877,-0.446887005372729,,-2.219284526888993,,
,7544.0,1249.0,5616.0,1373.0,-132.0,1392.0,3702.0,,,,-0.277389978614032,-2.76204813636617,-0.446472134299784,,-1.872100741580256,,
,7544.0,1250.0,5617.0,1373.0,-134.0,1409.0,3713.0,,,,-0.277446872951134,-2.76182926206023,-0.44630254735047,,-1.456548242657763,,
,7546.0,1251.0,5617.0,1372.0,-130.0,1409.0,3703.0,,,,-0.277422809644187,-2.76185975816689,-0.446394456201012,,-0.9800609509813518,,
,7544.0,1246.0,5614.0,1367.0,-138.0,1400.0,3684.0,,,,-0.277298826115741,-2.76192343708456,-0.445992498571269,,-0.4537735188886882,,
,7544.0,1251.0,5615.0,1373.0,-143.0,1374.0,3688.0,,,,-0.277436317323633,-2.76185091894663,-0.446359065084553,,0.10794024759200645,,
,7544.0,1250.0,5613.0,1371.0,-149.0,1359.0,3692.0,,,,-0.277380932664763,-2.76185573390209,-0.446397554286971,,0.6881304849434485,,
,7544.0,1250.0,5617.0,1371.0,-142.0,1358.0,3692.0,,,,-0.277324538403868,-2.76192673315813,-0.44651252735273,,1.268077639524941,,
,7544.0,1252.0,5615.0,1371.0,-132.0,1363.0,3694.0,,,,-0.277402015134579,-2.76192951133591,-0.446389600460739,,1.82818489849829,,
,7544.0,1251.0,5617.0,1372.0,-149.0,1385.0,3688.0,,,,-0.277561069479155,-2.76214957500428,-0.446045236760067,,2.348906297117341,,
,7543.0,1251.0,5617.0,1376.0,-141.0,1379.0,3685.0,,,,-0.277555600395242,-2.76221805043404,-0.446272239049325,,2.811669117273088,,
,7544.0,1252.0,5618.0,1373.0,-138.0,1370.0,3695.0,,,,-0.277638354838072,-2.76215579274197,-0.447410365314096,,3.1997566385575196,,
,7545.0,1252.0,5618.0,1371.0,-132.0,1396.0,3719.0,,,,-0.277493868332978,-2.76216211552102,-0.447206306568587,,3.4991204122604316,,
,7543.0,1251.0,5616.0,1371.0,-124.0,1389.0,3700.0,,,,-0.27746350309034,-2.76199948644297,-0.446407216206307,,3.6990895430680357,,
,7546.0,1253.0,5621.0,1375.0,-135.0,1389.0,3685.0,,,,-0.277400255464273,-2.76198850189292,-0.446565546318146,,3.792940182788996,,
,7546.0,1256.0,5620.0,1377.0,-135.0,1386.0,3683.0,,,,-0.277453307781476,-2.76201764853281,-0.446584432216251,,3.778285159777515,,
,7546.0,1254.0,5623.0,1376.0,-141.0,1379.0,3696.0,,,,-0.277345618459383,-2.76193738168668,-0.445850476154615,,3.6572446812896793,,
,7544.0,1253.0,5621.0,1372.0,-132.0,1391.0,3700.0,,,,-0.277542223221153,-2.76210707785164,-0.446606060572079,,3.4363664581529325,,
,7545.0,1256.0,5624.0,1376.0,-126.0,1390.0,3705.0,,,,-0.277603704856152,-2.76206386102572,-0.446799631090605,,3.1262781773586816,,
,7545.0,1254.0,5623.0,1376.0,-137.0,1394.0,3708.0,,,,-0.2775558439149,-2.7620744244098,-0.447216937273194,,2.7410763478107683,,
,7545.0,1258.0,5625.0,1377.0,-138.0,1378.0,3706.0,,,,-0.277646700963759,-2.76232163599177,-0.44669878447784,,2.297480961754765,,
,7545.0,1255.0,5620.0,1374.0,-138.0,1362.0,3712.0,,,,-0.27762994775315,-2.76219611825054,-0.447226059290655,,1.8138115096251708,,
,7544.0,1256.0,5622.0,1375.0,-126.0,1378.0,3702.0,,,,-0.277986454509251,-2.76236258334764,-0.446372795887289,,1.308862310904319,,
,7544.0,1257.0,5625.0,1378.0,-125.0,1363.0,3684.0,,,,-0.277954382778351,-2.76265685976168,-0.446996137111164,,0.800769863251882,,
,7544.0,1258.0,5625.0,1376.0,-131.0,1369.0,3678.0,,,,-0.278126956828446,-2.76269683149912,-0.448056185827597,,0.3059690542657991,,
,7541.0,1258.0,5621.0,1375.0,-129.0,1373.0,3671.0,,,,-0.27850571985696,-2.76294670685203,-0.44836555240135,,-0.1616727763752635,,
,7540.0,1256.0,5623.0,1374.0,-132.0,1386.0,3704.0,,,,-0.278586119467845,-2.76290328046638,-0.448412960720905,,-0.5914742217581043,,
,7543.0,1259.0,5625.0,1376.0,-133.0,1410.0,3717.0,,,,-0.278572422589373,-2.76307883459801,-0.448280554744562,,-0.9762687403250414,,
,7543.0,1258.0,5627.0,1377.0,-130.0,1410.0,3702.0,,,,-0.278864359633601,-2.76296173166869,-0.448083665144287,,-1.3124338288526016,,
,7540.0,1257.0,5625.0,1375.0,-131.0,1390.0,3692.0,,,,-0.278905302152661,-2.76318697859233,-0.447580241998283,,-1.5996404649444158,,
,7538.0,1258.0,5624.0,1377.0,-142.0,1367.0,3708.0,,,,-0.27886941145454,-2.76340106386101,-0.448271774761404,,-1.8403680517201564,,
,7540.0,1258.0,5626.0,1379.0,-145.0,1393.0,3696.0,,,,-0.278846259548379,-2.76327410108678,-0.447748043878792,,-2.0392480324401085,,
,7545.0,1260.0,5629.0,1377.0,-121.0,1413.0,3689.0,,,,-0.278827692711799,-2.76325926330379,-0.448708731632093,,-2.2023093195193457,,
,7540.0,1260.0,5628.0,1377.0,-121.0,1426.0,3697.0,,,,-0.278521343539292,-2.76312886351945,-0.449152853557323,,-2.3362008491244963,,
,7542.0,1258.0,5631.0,1376.0,-127.0,1426.0,3689.0,,,,-0.278480141205087,-2.76322892703685,-0.448214609552586,,-2.447461484488824,,
,7540.0,1260.0,5632.0,1379.0,-100.0,1366.0,3681.0,,,,-0.278362071247456,-2.7632777555348,-0.448490373710733,,-2.541895968401888,,
,7542.0,1263.0,5634.0,1377.0,-183.0,1363.0,3683.0,,,,-0.278352886930002,-2.76317637831764,-0.448467957815503,,-2.6240988141660995,,
,7545.0,1261.0,5638.0,1380.0,-183.0,1395.0,3679.0,,,,-0.278358358517632,-2.76322706312127,-0.448001393648545,,-2.6971476841571618,,
,7544.0,1263.0,5638.0,1378.0,-127.0,1419.0,3690.0,,,,-0.278492483128113,-2.76309897835576,-0.447119723175899,,-2.762466713506164,,
,7545.0,1263.0,5639.0,1377.0,-135.0,1424.0,3717.0,,,,-0.278615098202311,-2.76310835101757,-0.449257909363991,,-2.8198420695684034,,
,7546.0,1262.0,5641.0,1378.0,-137.0,1426.0,3702.0,,,,-0.278295126193414,-2.76328729324007,-0.448357618527377,,-2.867560121693151,,
,7549.0,1266.0,5639.0,1380.0,-121.0,1396.0,3685.0,,,,-0.278538284599685,-2.76320378074658,-0.448284437810485,,-2.9026341907527784,,
,7547.0,1265.0,5640.0,1380.0,-128.0,1399.0,3667.0,,,,-0.278322797988343,-2.7630033619716,-0.448719114972766,,-2.921087646369724,,
,7547.0,1263.0,5641.0,1376.0,-142.0,1420.0,3698.0,,,,-0.278615313052828,-2.76307076206609,-0.448033949403716,,-2.9182664951003696,,
,7551.0,1268.0,5644.0,1382.0,-123.0,1424.0,3691.0,,,,-0.278531530286866,-2.76287146462512,-0.448378841652225,,-2.8891611991190325,,
,7553.0,1266.0,5646.0,1382.0,-127.0,1412.0,3678.0,,,,-0.278457526916689,-2.76279440994802,-0.447254058995175,,-2.8287237579752995,,
,7554.0,1268.0,5648.0,1385.0,-139.0,1394.0,3699.0,,,,-0.278149466847242,-2.76259650355059,-0.448355746593204,,-2.732171120422615,,
2025-08-06 21:52:11,7553.0,1266.0,5648.0,1382.0,-129.0,1394.0,3664.0,,,2025/08/06 09:52:11 PM,-0.278199344979477,-2.76270709086061,-0.448053996044642,,-2.595269184289927,,
,7556.0,1270.0,5650.0,1383.0,-132.0,1396.0,3706.0,,,,-0.277697284811125,-2.76270068576976,-0.448330955872064,,-2.4145929015436187,,
,7557.0,1270.0,5653.0,1382.0,-141.0,1400.0,3720.0,,,,-0.278003458230336,-2.76260261752777,-0.448673943408802,,-2.187757815149557,,
,7557.0,1269.0,5656.0,1386.0,-140.0,1409.0,3719.0,,,,-0.278096760068556,-2.76284579955414,-0.447759070482488,,-1.9136175186638862,,
,7556.0,1268.0,5653.0,1385.0,-140.0,1405.0,3692.0,,,,-0.278275411545765,-2.7626749414083,-0.447619321576438,,-1.5924208439033039,,
,7559.0,1271.0,5656.0,1385.0,-142.0,1395.0,3692.0,,,,-0.278267835994979,-2.76274452888047,-0.447867000619553,,-1.22592276459373,,
,7560.0,1273.0,5660.0,1386.0,-138.0,1389.0,3677.0,,,,-0.278532359231048,-2.76257926206445,-0.448341830983351,,-0.817444669200391,,
,7563.0,1272.0,5662.0,1385.0,-133.0,1395.0,3668.0,,,,-0.278468254061068,-2.76302892722929,-0.447839475614807,,-0.3718828337219903,,
,7563.0,1271.0,5662.0,1386.0,-133.0,1412.0,3711.0,,,,-0.278268166056068,-2.76276535100842,-0.44833918538923,,0.10433248766230827,,
,7563.0,1273.0,5664.0,1386.0,-134.0,1419.0,3724.0,,,,-0.278375149517815,-2.76291130048655,-0.447615653158618,,0.6033227149099958,,
,7568.0,1274.0,5669.0,1392.0,-140.0,1407.0,3711.0,,,,-0.278283842750875,-2.76306757246639,-0.447755454952574,,1.115886918900256,,
,7571.0,1275.0,5670.0,1392.0,-145.0,1401.0,3693.0,,,,-0.278474435234317,-2.76282698643754,-0.448144941871743,,1.631665968921293,,
,7569.0,1273.0,5669.0,1391.0,-141.0,1402.0,3680.0,,,,-0.278500008385466,-2.76319792880809,-0.448278219540815,,2.13934570692797,,
,7567.0,1274.0,5672.0,1390.0,-129.0,1416.0,3706.0,,,,-0.27855409769586,-2.76292194472969,-0.447738169166942,,2.62690252995887,,
,7572.0,1274.0,5673.0,1394.0,-132.0,1431.0,3700.0,,,,-0.27840708112698,-2.76302289625469,-0.448060269159513,,3.081896013906439,,
,7575.0,1277.0,5674.0,1393.0,-140.0,1379.0,3675.0,,,,-0.277912368550368,-2.7626005102163,-0.447738268270389,,3.4918127678362567,,
,7575.0,1277.0,5676.0,1392.0,-137.0,1356.0,3675.0,,,,-0.27790223095338,-2.76259898298316,-0.446699711473506,,3.8444634706752745,,
,7573.0,1279.0,5677.0,1396.0,-132.0,1350.0,3691.0,,,,-0.277986754380178,-2.76252218830178,-0.447896761521095,,4.128431144884871,,
,7579.0,1278.0,5680.0,1393.0,-122.0,1375.0,3702.0,,,,-0.277814510788778,-2.7624738203439,-0.447859395019909,,4.333563169278693,,
,7578.0,1279.0,5683.0,1397.0,-123.0,1383.0,3713.0,,,,-0.277900077695533,-2.7624923217161,-0.447264129527035,,4.4514919167190365,,
,7582.0,1280.0,5684.0,1397.0,-128.0,1400.0,3722.0,,,,-0.277855379389815,-2.76259841798893,-0.447916133868004,,4.47615882453291,,
,7578.0,1279.0,5683.0,1394.0,-132.0,1379.0,3695.0,,,,-0.277815022835043,-2.76257921958892,-0.447871441279569,,4.404304905594388,,
,7580.0,1279.0,5684.0,1394.0,-140.0,1406.0,3702.0,,,,-0.277878767823392,-2.76275112560274,-0.448349592756496,,4.235879858597202,,
,7580.0,1282.0,5686.0,1396.0,-133.0,1415.0,3688.0,,,,-0.27784618647019,-2.76253383018998,-0.447437960660036,,3.9743160129243473,,
,7579.0,1280.0,5684.0,1398.0,-134.0,1422.0,3702.0,,,,-0.277885243450476,-2.76243618778084,-0.447971422481203,,3.626615803804959,,
,7571.0,1276.0,5682.0,1395.0,-134.0,1410.0,3706.0,,,,-0.278035914025135,-2.76264703917541,-0.447859503313588,,3.203213646286092,,
,7565.0,1278.0,5676.0,1393.0,-130.0,1412.0,3687.0,,,,-0.277945812244169,-2.76288301238028,-0.448436753062187,,2.7175937252462226,,
,7560.0,1275.0,5674.0,1393.0,-147.0,1383.0,3674.0,,,,-0.278196252115036,-2.76323947328377,-0.448553970096585,,2.1856710803417947,,
,7554.0,1277.0,5667.0,1391.0,-143.0,1375.0,3687.0,,,,-0.278572505859874,-2.76378969097413,-0.450038077881495,,1.6249701296949057,,
,7547.0,1275.0,5666.0,1390.0,-135.0,1372.0,3686.0,,,,-0.279334363177859,-2.76420832767331,-0.450490791293133,,1.053658233551036,,
,7538.0,1274.0,5655.0,1386.0,-127.0,1388.0,3719.0,,,,-0.279731962010029,-2.76455759717725,-0.451707907914959,,0.48950897854937025,,
,7531.0,1271.0,5650.0,1384.0,-134.0,1404.0,3726.0,,,,-0.280280187951309,-2.76492609973602,-0.452657070339476,,-0.05112089771187523,,
,7525.0,1272.0,5648.0,1384.0,-137.0,1390.0,3691.0,,,,-0.280098688454599,-2.76479715642764,-0.452257363874697,,-0.5542158348909658,,
,7517.0,1271.0,5639.0,1383.0,-137.0,1376.0,3688.0,,,,-0.280039603041674,-2.76488379663269,-0.452364716846952,,-1.0088485415616548,,
,7511.0,1266.0,5635.0,1378.0,-140.0,1409.0,3677.0,,,,-0.280323595184888,-2.76514348594924,-0.452929892265308,,-1.4076854910057246,,
,7506.0,1269.0,5630.0,1381.0,-130.0,1423.0,3694.0,,,,-0.280404984186997,-2.76518390919264,-0.45283508539295,,-1.7472073259439305,,
,7499.0,1268.0,5626.0,1378.0,-132.0,1418.0,3680.0,,,,-0.280355641720023,-2.76509822440358,-0.453338274634002,,-2.0276262827462155,,
,7497.0,1268.0,5623.0,1378.0,-134.0,1403.0,3675.0,,,,-0.280134998592118,-2.76484424222392,-0.452601043142071,,-2.2525099907301374,,
,7492.0,1267.0,5621.0,1375.0,-139.0,1381.0,3688.0,,,,-0.280056484802068,-2.76460639438588,-0.452227617222686,,-2.428146742470888,,
,7487.0,1268.0,5619.0,1375.0,-149.0,1369.0,3691.0,,,,-0.279989434939777,-2.76475896424948,-0.452125051329383,,-2.5627092994209137,,
,7482.0,1266.0,5621.0,1375.0,-145.0,1405.0,3699.0,,,,-0.279833420368601,-2.76485913424357,-0.45194185880703,,-2.665291112852753,,
,7483.0,1267.0,5616.0,1376.0,-132.0,1415.0,3709.0,,,,-0.280118922492512,-2.76470566480851,-0.452123656279051,,-2.7448995449898557,,
,7479.0,1266.0,5612.0,1372.0,-127.0,1400.0,3683.0,,,,-0.279983165570474,-2.76460552532868,-0.45270661486621,,-2.8094944926430974,,
,7476.0,1266.0,5612.0,1371.0,-131.0,1388.0,3674.0,,,,-0.279849591399644,-2.76474567858993,-0.451475847921876,,-2.865157217978134,,
,7472.0,1268.0,5612.0,1374.0,-139.0,1365.0,3651.0,,,,-0.280076699317187,-2.76429575851984,-0.450796861939377,,-2.9154630077375665,,
,7474.0,1266.0,5612.0,1376.0,-138.0,1406.0,3683.0,,,,-0.27999191037759,-2.76430566954487,-0.450719616253032,,-2.9611127996663495,,
,7470.0,1267.0,5608.0,1374.0,-130.0,1431.0,3696.0,,,,-0.279763013080632,-2.76434910025576,-0.450081901076718,,-2.9998541623591044,,
,7468.0,1266.0,5610.0,1371.0,-128.0,1428.0,3695.0,,,,-0.279931498467561,-2.76411250849396,-0.450524163243292,,-3.0266932940296654,,
,7468.0,1267.0,5609.0,1372.0,-143.0,1404.0,3712.0,,,,-0.279855410234414,-2.76409428923607,-0.449878054234434,,-3.034370867012665,,
,7466.0,1266.0,5609.0,1371.0,-158.0,1356.0,3709.0,,,,-0.279626605876665,-2.76395814352612,-0.450706909505126,,-3.0140501296370714,,
,7465.0,1266.0,5607.0,1374.0,-157.0,1367.0,3710.0,,,,-0.279570838396588,-2.76387640195911,-0.45038848789797,,-2.956148991788012,,
,7464.0,1268.0,5608.0,1374.0,-150.0,1343.0,3688.0,,,,-0.279669874595451,-2.76379201126036,-0.450200495459856,,-2.851239638995467,,
,7463.0,1266.0,5609.0,1374.0,-126.0,1386.0,3712.0,,,,-0.279364862094239,-2.76378368828462,-0.450498581157749,,-2.6909384527112667,,
,7463.0,1269.0,5608.0,1374.0,-129.0,1393.0,3717.0,,,,-0.27936559064527,-2.76370854188264,-0.449889106072319,,-2.46871440722722,,
,7463.0,1267.0,5608.0,1374.0,-126.0,1388.0,3714.0,,,,-0.279394751273028,-2.76376985091505,-0.449341890454381,,-2.1805551450240506,,
,7463.0,1268.0,5609.0,1372.0,-123.0,1372.0,3688.0,,,,-0.27904812811888,-2.76342583481821,-0.449283080201062,,-1.8254463588228345,,
,7461.0,1266.0,5608.0,1372.0,-139.0,1374.0,3678.0,,,,-0.279077629672284,-2.76328414941399,-0.44929071724467,,-1.4056408683701758,,
,7459.0,1271.0,5608.0,1374.0,-135.0,1392.0,3696.0,,,,-0.278885599951598,-2.76307327862341,-0.449114161816283,,-0.9267161787570906,,
,7461.0,1269.0,5610.0,1374.0,-136.0,1403.0,3704.0,,,,-0.278511579135853,-2.76303835643728,-0.449673072558393,,-0.39743914476736425,,
,7463.0,1269.0,5610.0,1376.0,-134.0,1390.0,3688.0,,,,-0.278482348801795,-2.76307492388199,-0.447596386264952,,0.17053075716920782,,
,7461.0,1268.0,5609.0,1373.0,-150.0,1380.0,3699.0,,,,-0.278391072305423,-2.76311279770899,-0.44883248718868,,0.7630646996535387,,
,7460.0,1269.0,5610.0,1375.0,-141.0,1363.0,3670.0,,,,-0.278315768109619,-2.76285200238371,-0.448766024203459,,1.3640847949513748,,
,7458.0,1272.0,5611.0,1375.0,-131.0,1400.0,3671.0,,,,-0.278200759464042,-2.76291863623048,-0.449065476465721,,1.956161675351481,,
,7460.0,1270.0,5611.0,1374.0,-133.0,1419.0,3684.0,,,,-0.278167907356951,-2.76269705565163,-0.44893262484481,,2.5211783506612617,,
,7457.0,1268.0,5609.0,1372.0,-133.0,1427.0,3716.0,,,,-0.278022626325438,-2.76274284172435,-0.448548367774025,,3.0410528568500967,,
,7456.0,1268.0,5610.0,1375.0,-132.0,1406.0,3694.0,,,,-0.278066556817456,-2.7626407470716,-0.44813850362035,,3.4985092874955197,,
,7456.0,1270.0,5611.0,1375.0,-142.0,1379.0,3691.0,,,,-0.277945642002845,-2.76244605751889,-0.448049886088701,,3.8778784077404382,,
,7455.0,1271.0,5610.0,1376.0,-149.0,1360.0,3683.0,,,,-0.277905351495465,-2.76231987610001,-0.447757906629921,,4.165897060110977,,
,7456.0,1270.0,5611.0,1374.0,-137.0,1390.0,3679.0,,,,-0.277767657813172,-2.7620205846338,-0.448334688274116,,4.352462140766549,,
,7453.0,1270.0,5606.0,1372.0,-120.0,1420.0,3684.0,,,,-0.277727272250747,-2.76200920315419,-0.448036575712273,,4.431282649541139,,
,7453.0,1270.0,5613.0,1376.0,-111.0,1376.0,3691.0,,,,-0.27739259028927,-2.76194318472472,-0.448433592603972,,4.4003653534540845,,
,7453.0,1272.0,5611.0,1377.0,-154.0,1360.0,3691.0,,,,-0.277319943962104,-2.76196191311127,-0.446728653687732,,4.262269333288296,,
,7452.0,1270.0,5610.0,1374.0,-179.0,1391.0,3694.0,,,,-0.276982025667624,-2.76163743042771,-0.446778070217838,,4.024075025264604,,
,7450.0,1270.0,5611.0,1374.0,-133.0,1408.0,3682.0,,,,-0.276800335090604,-2.76163336151584,-0.446392946930064,,3.6970358608706153,,
,7450.0,1272.0,5613.0,1373.0,-132.0,1423.0,3713.0,,,,-0.276958971800833,-2.76185307820418,-0.447214013086485,,3.295914224481373,,
,7448.0,1272.0,5612.0,1373.0,-140.0,1421.0,3700.0,,,,-0.276751089895804,-2.76149652478846,-0.446697826272021,,2.838043531689116,,
,7450.0,1273.0,5611.0,1376.0,-128.0,1397.0,3686.0,,,,-0.276725407258072,-2.7614632040906,-0.446319954251751,,2.342196653716258,,
,7450.0,1272.0,5613.0,1374.0,-143.0,1372.0,3674.0,,,,-0.27638051621733,-2.76099026885086,-0.446102568029522,,1.8273685251564364,,
,7448.0,1271.0,5612.0,1374.0,-133.0,1365.0,3665.0,,,,-0.276059193629939,-2.76092836873493,-0.44531120803397,,1.3115912377793284,,
,7450.0,1273.0,5615.0,1375.0,-125.0,1405.0,3690.0,,,,-0.276364223889237,-2.7610025126578,-0.445179824731886,,0.8108921744333321,,
,7453.0,1274.0,5616.0,1375.0,-131.0,1429.0,3696.0,,,,-0.276023885556406,-2.76101451307974,-0.444819963302278,,0.3384833555772054,,
,7448.0,1273.0,5616.0,1375.0,-140.0,1430.0,3713.0,,,,-0.275867519950453,-2.76071764227172,-0.44435234449557,,-0.0957611033287608,,
,7450.0,1275.0,5618.0,1377.0,-146.0,1389.0,3707.0,,,,-0.275627670508628,-2.760405401233,-0.444039272810111,,-0.48551697517899406,,
,7453.0,1275.0,5616.0,1376.0,-133.0,1393.0,3679.0,,,,-0.275452294015431,-2.76017445851074,-0.443964325356683,,-0.8279218069159634,,
,7452.0,1275.0,5618.0,1376.0,-133.0,1379.0,3685.0,,,,-0.275044562297794,-2.76012596409283,-0.443270135546678,,-1.1232249843326823,,
,7450.0,1276.0,5619.0,1376.0,-138.0,1380.0,3706.0,,,,-0.274988718943934,-2.75989558499095,-0.443416958227954,,-1.3742345052902663,,
,7451.0,1275.0,5620.0,1377.0,-136.0,1413.0,3709.0,,,,-0.274998341446431,-2.75998140599022,-0.443360018723669,,-1.585630231732394,,
,7454.0,1277.0,5620.0,1379.0,-145.0,1388.0,3693.0,,,,-0.274863435241353,-2.75963580778763,-0.442625372731762,,-1.7632152194084523,,
,7457.0,1276.0,5620.0,1381.0,-145.0,1354.0,3678.0,,,,-0.274706178857537,-2.759390999976,-0.443332017045571,,-1.9131700546162658,,
,7455.0,1276.0,5624.0,1381.0,-147.0,1365.0,3697.0,,,,-0.274608300445002,-2.7594726523519,-0.442707083341942,,-2.0413625325847815,,
,7454.0,1275.0,5623.0,1378.0,-148.0,1378.0,3703.0,,,,-0.27442527888525,-2.75945903288646,-0.441952799261014,,-2.1527504392566947,,
,7456.0,1276.0,5627.0,1381.0,-132.0,1397.0,3720.0,,,,-0.27449321500424,-2.75941941649422,-0.442805287013564,,-2.250902533185608,,
,7459.0,1277.0,5627.0,1383.0,-152.0,1377.0,3690.0,,,,-0.274468424566306,-2.75925832950383,-0.442462980435673,,-2.337654066289623,,
,7460.0,1277.0,5628.0,1382.0,-151.0,1379.0,3680.0,,,,-0.274318921954215,-2.75918711983418,-0.442412429112735,,-2.4129078565252104,,
,7458.0,1278.0,5628.0,1381.0,-135.0,1384.0,3684.0,,,,-0.274272718919138,-2.75911930265897,-0.441462316494403,,-2.4745881942872385,,
,7463.0,1279.0,5632.0,1384.0,-141.0,1393.0,3676.0,,,,-0.27417129392373,-2.75885694229771,-0.440982471876259,,-2.518750996824872,,
,7465.0,1280.0,5632.0,1385.0,-137.0,1399.0,3695.0,,,,-0.273897021025171,-2.75908810690132,-0.44104620622275,,-2.5398485731604654,,
,7465.0,1279.0,5634.0,1383.0,-136.0,1402.0,3698.0,,,,-0.273866811080732,-2.75862807683681,-0.44104031474318,,-2.531140598554869,,
,7465.0,1279.0,5634.0,1383.0,-138.0,1405.0,3680.0,,,,-0.273707913973777,-2.7586578057247,-0.44074122589958,,-2.4852342561626606,,
,7467.0,1279.0,5636.0,1387.0,-141.0,1367.0,3670.0,,,,-0.273707685180408,-2.75835027156008,-0.440583499369855,,-2.3947262560366482,,
,7470.0,1280.0,5636.0,1385.0,-140.0,1384.0,3675.0,,,,-0.273517967016658,-2.75842665008551,-0.439661777466449,,-2.2529083745025846,,
,7470.0,1280.0,5639.0,1387.0,-149.0,1408.0,3685.0,,,,-0.27360860292203,-2.75852086577181,-0.440594412927245,,-2.0544875186859,,
,7471.0,1279.0,5639.0,1386.0,-135.0,1400.0,3690.0,,,,-0.273619560291895,-2.75809500971972,-0.440062200649777,,-1.7962628491205286,,
,7471.0,1282.0,5639.0,1385.0,-129.0,1395.0,3691.0,,,,-0.27342086725291,-2.75812819324641,-0.439728143634013,,-1.4776985905134217,,
,7476.0,1283.0,5646.0,1390.0,-130.0,1350.0,3690.0,,,,-0.27341640169897,-2.75821927892633,-0.440041809173726,,-1.1013345829211683,,
,7476.0,1283.0,5644.0,1390.0,-142.0,1360.0,3683.0,,,,-0.273412338824137,-2.75815624773853,-0.439214919421876,,-0.6729890176891986,,
,7481.0,1280.0,5646.0,1392.0,-135.0,1394.0,3695.0,,,,-0.273149783969125,-2.75790765335179,-0.440333685190165,,-0.20172790678699015,,
,7479.0,1281.0,5645.0,1389.0,-125.0,1397.0,3698.0,,,,-0.272986819636538,-2.75746984178763,-0.439463811381026,,0.30040066294192647,,
,7477.0,1284.0,5649.0,1391.0,-125.0,1390.0,3677.0,,,,-0.272939427296392,-2.75764415567509,-0.439378192230757,,0.818847775298625,,
,7484.0,1285.0,5655.0,1394.0,-133.0,1375.0,3682.0,,,,-0.272617432066295,-2.75731217518732,-0.43878219005379,,1.3372243794585312,,
,7484.0,1284.0,5653.0,1392.0,-137.0,1388.0,3696.0,,,,-0.272658443471227,-2.75724171109395,-0.438928698800209,,1.8380951110274026,,
,7484.0,1283.0,5651.0,1393.0,-132.0,1373.0,3709.0,,,,-0.272655165273384,-2.75734962264879,-0.438229110634618,,2.3038536375917413,,
,7487.0,1284.0,5655.0,1392.0,-131.0,1396.0,3704.0,,,,-0.272708061425298,-2.75760217638281,-0.439158773671846,,2.717626181670305,,
,7485.0,1286.0,5656.0,1395.0,-118.0,1417.0,3713.0,,,,-0.27296856971652,-2.75762734191469,-0.439731340623838,,3.064150513330401,,
,7486.0,1286.0,5656.0,1397.0,-125.0,1415.0,3701.0,,,,-0.273184876044801,-2.75803793917401,-0.440057599083544,,3.330580043961363,,
,7486.0,1284.0,5657.0,1393.0,-128.0,1376.0,3697.0,,,,-0.273677559338245,-2.75830282453413,-0.440160325764834,,3.50716656314971,,
,7483.0,1282.0,5657.0,1394.0,-138.0,1401.0,3683.0,,,,-0.273859742438487,-2.75856933426695,-0.441572611185167,,3.5877809535960123,,
,7486.0,1287.0,5659.0,1397.0,-127.0,1409.0,3695.0,,,,-0.274162346759276,-2.75903316135018,-0.44286406137593,,3.5702390849597916,,
,7477.0,1283.0,5655.0,1397.0,-130.0,1397.0,3688.0,,,,-0.274242558255954,-2.75929874172993,-0.443002034793914,,3.45640966023362,,
,7468.0,1281.0,5649.0,1392.0,-142.0,1392.0,3696.0,,,,-0.274640129415281,-2.7595553133936,-0.442806689435109,,3.2520916228764785,,
,7461.0,1278.0,5646.0,1388.0,-145.0,1385.0,3696.0,,,,-0.274874041376412,-2.75984520344214,-0.443600421984313,,2.9666611954699045,,
,7453.0,1283.0,5640.0,1388.0,-152.0,1382.0,3696.0,,,,-0.275073231803094,-2.75987082370884,-0.443870268246473,,2.6125037101434154,,
,7445.0,1279.0,5635.0,1390.0,-134.0,1382.0,3689.0,,,,-0.275322729281088,-2.76005423456228,-0.443629867592629,,2.2042631895971883,,
,7439.0,1276.0,5627.0,1387.0,-136.0,1383.0,3700.0,,,,-0.275391981796369,-2.76016548064432,-0.44466195997686,,1.7579609402157543,,
,7429.0,1272.0,5619.0,1386.0,-134.0,1393.0,3689.0,,,,-0.275505657578853,-2.76014873713386,-0.445493467721415,,1.290049157469092,,
,7423.0,1274.0,5614.0,1385.0,-138.0,1380.0,3690.0,,,,-0.275383775574793,-2.7599859024342,-0.444936395338804,,0.8164728420168044,,
,7416.0,1275.0,5611.0,1384.0,-131.0,1398.0,3675.0,,,,-0.275307712455996,-2.76005148391922,-0.443654054869409,,0.35181145124723173,,
,7409.0,1273.0,5605.0,1380.0,-131.0,1392.0,3677.0,,,,-0.275466184504921,-2.76002585044056,-0.443460594489697,,-0.09143844922938348,,
2025-08-06 21:52:12,7404.0,1271.0,5600.0,1381.0,-134.0,1402.0,3685.0,,,2025/08/06 09:52:12 PM,-0.275326637096105,-2.75998543044896,-0.443396732950811,,-0.503394029958633,,
,7397.0,1270.0,5597.0,1380.0,-135.0,1403.0,3684.0,,,,-0.275413205172638,-2.76000423118197,-0.44422727611569,,-0.8771030386715395,,
,7395.0,1272.0,5594.0,1381.0,-135.0,1405.0,3685.0,,,,-0.27557483084537,-2.76002871550151,-0.44347476058633,,-1.208636330500553,,
,7389.0,1271.0,5592.0,1379.0,-137.0,1379.0,3702.0,,,,-0.275676761595094,-2.76010038664118,-0.442977058390904,,-1.4969602791788659,,
,7385.0,1269.0,5587.0,1378.0,-145.0,1371.0,3684.0,,,,-0.275500518364883,-2.75974349864041,-0.442247913369154,,-1.743604987214488,,
,7382.0,1269.0,5588.0,1376.0,-128.0,1367.0,3671.0,,,,-0.275468546074065,-2.75977573780991,-0.443543863319402,,-1.9521545610889812,,
,7380.0,1270.0,5586.0,1379.0,-123.0,1407.0,3674.0,,,,-0.275607971420727,-2.75956771915904,-0.442496817747969,,-2.1275961109566177,,
,7377.0,1269.0,5584.0,1376.0,-125.0,1409.0,3678.0,,,,-0.275534634507417,-2.75962822062897,-0.44237203447851,,-2.2755745958770617,,
,7377.0,1267.0,5583.0,1376.0,-131.0,1396.0,3693.0,,,,-0.275301516065253,-2.75941023963368,-0.442298225339829,,-2.4016097351819163,,
,7372.0,1267.0,5582.0,1375.0,-127.0,1391.0,3688.0,,,,-0.275268267340232,-2.75921198761669,-0.443028333117153,,-2.510337218102457,,
,7370.0,1269.0,5583.0,1375.0,-126.0,1419.0,3718.0,,,,-0.275107347649454,-2.75951425336778,-0.441983817325872,,-2.604838311265482,,
,7370.0,1267.0,5580.0,1374.0,-128.0,1376.0,3708.0,,,,-0.274936461733494,-2.75945515529326,-0.443346873106532,,-2.686119303799612,,
,7371.0,1268.0,5580.0,1376.0,-130.0,1383.0,3697.0,,,,-0.274770128100837,-2.75954059659094,-0.441842617592469,,-2.7527948611278634,,
,7368.0,1268.0,5577.0,1376.0,-124.0,1402.0,3679.0,,,,-0.275012942704904,-2.7597086083743,-0.442855027929582,,-2.8010170750682377,,
,7367.0,1267.0,5579.0,1375.0,-169.0,1365.0,3695.0,,,,-0.275053012278954,-2.75995033850969,-0.441901068458212,,-2.8246747083728234,,
,7364.0,1270.0,5577.0,1377.0,-177.0,1416.0,3693.0,,,,-0.274928603378575,-2.75968077595197,-0.442292261355559,,-2.8158650971937793,,
,7365.0,1264.0,5577.0,1375.0,-125.0,1428.0,3687.0,,,,-0.27516289278508,-2.75970860873692,-0.443293546501112,,-2.7656151991165614,,
,7366.0,1267.0,5577.0,1375.0,-81.0,1396.0,3685.0,,,,-0.274900548079147,-2.75978066631474,-0.442533528571908,,-2.6647999928897317,,
,7365.0,1265.0,5577.0,1375.0,-152.0,1408.0,3677.0,,,,-0.274827269826751,-2.7594861025575,-0.441772483953706,,-2.5051788741853427,,
,7369.0,1265.0,5577.0,1379.0,-115.0,1382.0,3707.0,,,,-0.274688138219492,-2.75963360200073,-0.441629625080711,,-2.280448679713384,,
,7371.0,1267.0,5577.0,1378.0,-113.0,1374.0,3706.0,,,,-0.27455690791889,-2.75941147465576,-0.441005537391424,,-1.9872013089744895,,
,7367.0,1268.0,5577.0,1377.0,-146.0,1414.0,3698.0,,,,-0.274484825513199,-2.75901299983047,-0.440375985665451,,-1.6256789398555438,,
,7366.0,1266.0,5576.0,1380.0,-139.0,1381.0,3691.0,,,,-0.274407266759178,-2.75920785600011,-0.440794329724357,,-1.2002410194421618,,
,7369.0,1266.0,5574.0,1376.0,-128.0,1380.0,3710.0,,,,-0.274640389683756,-2.75908841519064,-0.441094369434997,,-0.7194906718568657,,
,7369.0,1267.0,5577.0,1379.0,-122.0,1410.0,3687.0,,,,-0.27451070669744,-2.75911102646283,-0.442595156217292,,-0.1960472256014036,,
,7369.0,1268.0,5580.0,1379.0,-119.0,1410.0,3688.0,,,,-0.274436311867368,-2.75897988246898,-0.442233796556112,,0.3540109103252592,,
,7365.0,1264.0,5574.0,1378.0,-134.0,1395.0,3726.0,,,,-0.274345404924084,-2.75904037166081,-0.441402777644956,,0.9119783920071568,,
,7369.0,1269.0,5576.0,1380.0,-131.0,1392.0,3727.0,,,,-0.27428008824663,-2.75919850829402,-0.441948961684732,,1.4575551346745945,,
,7367.0,1266.0,5578.0,1378.0,-136.0,1392.0,3701.0,,,,-0.274352102040713,-2.75913116653699,-0.441350650079958,,1.9699935623980065,,
,7369.0,1266.0,5578.0,1378.0,-139.0,1374.0,3692.0,,,,-0.274433589348468,-2.7591823677397,-0.441933444864069,,2.4292747885001837,,
,7368.0,1267.0,5575.0,1380.0,-132.0,1361.0,3663.0,,,,-0.274400313488742,-2.75933677174828,-0.44171162226182,,2.8172333954436497,,
,7365.0,1267.0,5577.0,1379.0,-129.0,1400.0,3693.0,,,,-0.274394256746699,-2.75923524923846,-0.441436023653564,,3.118561300272103,,
,7366.0,1266.0,5577.0,1378.0,-116.0,1411.0,3706.0,,,,-0.274332795511319,-2.7592723613564,-0.440915788968858,,3.321635015728393,,
,7365.0,1265.0,5578.0,1381.0,-122.0,1418.0,3707.0,,,,-0.274201570494718,-2.75940825287072,-0.4415240105534,,3.419125038142377,,
,7364.0,1263.0,5574.0,1378.0,-128.0,1416.0,3695.0,,,,-0.274239460888131,-2.75896162469294,-0.441221816958452,,3.4083588899975203,,
,7361.0,1265.0,5575.0,1378.0,-127.0,1364.0,3689.0,,,,-0.27410916778779,-2.75906273876504,-0.439758102374711,,3.2914199343912123,,
,7362.0,1266.0,5574.0,1380.0,-130.0,1364.0,3699.0,,,,-0.274035573801188,-2.7590022055995,-0.44049108574325,,3.074974284883148,,
,7362.0,1269.0,5576.0,1380.0,-122.0,1406.0,3695.0,,,,-0.273902503937631,-2.7585328615317,-0.441665934259952,,2.769830943798972,,
,7363.0,1268.0,5577.0,1381.0,-131.0,1407.0,3686.0,,,,-0.273770896543336,-2.75850905749871,-0.440681791201698,,2.3902573896850483,,
,7364.0,1266.0,5576.0,1379.0,-141.0,1417.0,3691.0,,,,-0.273687139248165,-2.75861849707407,-0.440939184972568,,1.9530929051388866,,
,7365.0,1266.0,5576.0,1379.0,-135.0,1413.0,3674.0,,,,-0.273597338300773,-2.75869239791809,-0.440734978658087,,1.4767210907318187,,
,7363.0,1268.0,5578.0,1380.0,-141.0,1387.0,3683.0,,,,-0.273439797434969,-2.75844896724054,-0.439863747945917,,0.9799767169159569,,
,7363.0,1267.0,5577.0,1381.0,-144.0,1395.0,3680.0,,,,-0.273283291181451,-2.75833739916484,-0.439603630162488,,0.48106727718974857,,
,7363.0,1265.0,5577.0,1381.0,-137.0,1394.0,3686.0,,,,-0.273261254339912,-2.75820958717161,-0.439858288857073,,-0.0034141832204372747,,
,7362.0,1268.0,5577.0,1381.0,-130.0,1391.0,3697.0,,,,-0.273580172442061,-2.75845404590149,-0.440596415077103,,-0.4593193533340354,,
,7366.0,1268.0,5579.0,1382.0,-133.0,1389.0,3704.0,,,,-0.273486824906493,-2.75816486979772,-0.439250797570219,,-0.8755674965449747,,
,7365.0,1270.0,5583.0,1383.0,-129.0,1383.0,3702.0,,,,-0.273059066387448,-2.75808334125385,-0.439303174836589,,-1.2445265333381788,,
,7366.0,1269.0,5583.0,1384.0,-130.0,1388.0,3698.0,,,,-0.273008447346603,-2.75799845236839,-0.439279761464317,,-1.5621341180744759,,
,7367.0,1268.0,5581.0,1384.0,-121.0,1398.0,3725.0,,,,-0.272908768708374,-2.75781956596397,-0.439933970834355,,-1.8277566861518748,,
,7368.0,1270.0,5583.0,1384.0,-125.0,1393.0,3694.0,,,,-0.272981876104712,-2.757776604652,-0.439160718338267,,-2.0438016922494437,,
,7371.0,1267.0,5583.0,1382.0,-120.0,1385.0,3692.0,,,,-0.272952669520319,-2.75786635148867,-0.438831758405572,,-2.215116272366707,,
,7373.0,1270.0,5582.0,1386.0,-125.0,1382.0,3687.0,,,,-0.272954511399243,-2.75811532993952,-0.439029234229658,,-2.348222553260427,,
,7372.0,1269.0,5587.0,1383.0,-129.0,1379.0,3700.0,,,,-0.27285388109187,-2.75782651529337,-0.439992965523778,,-2.4504534503792432,,
,7376.0,1271.0,5588.0,1388.0,-125.0,1397.0,3701.0,,,,-0.273126290263662,-2.75789560842916,-0.439143237926862,,-2.5290613014175833,,
,7377.0,1272.0,5589.0,1387.0,-114.0,1421.0,3710.0,,,,-0.273201716676314,-2.75774114841482,-0.439342047893565,,-2.590374350429162,,
,7379.0,1272.0,5590.0,1388.0,-112.0,1426.0,3709.0,,,,-0.273056865913068,-2.75795625121019,-0.438528747824805,,-2.6390729015916703,,
,7376.0,1270.0,5589.0,1385.0,-112.0,1403.0,3699.0,,,,-0.272831776127123,-2.75757968046245,-0.438482571460675,,-2.6776481618902777,,
,7381.0,1273.0,5594.0,1388.0,-130.0,1375.0,3691.0,,,,-0.272681755788566,-2.75740056051684,-0.439295665616809,,-2.70609274474629,,
,7383.0,1274.0,5594.0,1388.0,-126.0,1404.0,3685.0,,,,-0.272595295626051,-2.75740909985008,-0.437701703280465,,-2.721852949423911,,
,7383.0,1271.0,5597.0,1390.0,-128.0,1409.0,3677.0,,,,-0.272521614168746,-2.75738922698651,-0.438412260553996,,-2.7200498846838514,,
,7384.0,1272.0,5593.0,1389.0,-122.0,1420.0,3731.0,,,,-0.272354604833977,-2.75764393024296,-0.438656164624938,,-2.6939504324856207,,
,7387.0,1271.0,5597.0,1391.0,-117.0,1389.0,3708.0,,,,-0.272561936080831,-2.75763213811718,-0.438312977452744,,-2.6356423041074457,,
,7390.0,1275.0,5599.0,1391.0,-133.0,1387.0,3683.0,,,,-0.27261137922556,-2.7575625919137,-0.439019129911868,,-2.5368439764084365,,
,7390.0,1274.0,5601.0,1393.0,-137.0,1378.0,3676.0,,,,-0.272367695762669,-2.75737788960577,-0.437099144311407,,-2.3897649066438893,,
,7392.0,1274.0,5601.0,1392.0,-120.0,1371.0,3690.0,,,,-0.272389671116936,-2.75744166739722,-0.438287082850026,,-2.1879278227515084,,
,7394.0,1274.0,5603.0,1391.0,-134.0,1394.0,3713.0,,,,-0.272395302235393,-2.75745903468492,-0.436607153296847,,-1.926873973259445,,
,7397.0,1275.0,5605.0,1397.0,-133.0,1399.0,3724.0,,,,-0.272291780537493,-2.75719999592232,-0.437656616462706,,-1.6046919052974322,,
,7397.0,1276.0,5606.0,1397.0,-141.0,1388.0,3704.0,,,,-0.27217821841001,-2.7570293833511,-0.437813499063277,,-1.2223366041929187,,
,7397.0,1275.0,5607.0,1396.0,-133.0,1373.0,3704.0,,,,-0.27233079332731,-2.75721307248662,-0.4372479225508,,-0.7837338349199925,,
,7398.0,1276.0,5606.0,1396.0,-132.0,1410.0,3668.0,,,,-0.272164238890595,-2.7570328916175,-0.437124029472644,,-0.2956893695435453,,
,7402.0,1279.0,5615.0,1396.0,-136.0,1421.0,3690.0,,,,-0.272149919397248,-2.7570223040305,-0.437360346357134,,0.23235964886118618,,
,7406.0,1281.0,5614.0,1397.0,-123.0,1412.0,3721.0,,,,-0.272285457242203,-2.757167282077,-0.437687743421181,,0.7887060340120106,,
,7406.0,1278.0,5616.0,1398.0,-111.0,1420.0,3711.0,,,,-0.272443779293452,-2.75737568976208,-0.437071209680511,,1.3598033023664509,,
,7407.0,1276.0,5614.0,1397.0,-112.0,1401.0,3686.0,,,,-0.272158896346224,-2.75701918888796,-0.437373186205414,,1.9307325680970382,,
,7406.0,1279.0,5617.0,1400.0,-125.0,1374.0,3674.0,,,,-0.272043257851491,-2.75702185566279,-0.4378113674542,,2.4856873637617936,,
,7411.0,1279.0,5619.0,1401.0,-118.0,1399.0,3695.0,,,,-0.272354047792934,-2.75725975321151,-0.43751212816165,,3.0084741178251737,,
,7412.0,1280.0,5619.0,1401.0,-116.0,1414.0,3695.0,,,,-0.27244336841467,-2.7572209932069,-0.43772029743726,,3.4830380837969366,,
,7409.0,1277.0,5619.0,1401.0,-123.0,1440.0,3721.0,,,,-0.272402519139717,-2.75775046340199,-0.438487491625979,,3.8940284694828313,,
,7411.0,1280.0,5618.0,1400.0,-129.0,1398.0,3697.0,,,,-0.272945570705038,-2.75815715475225,-0.439566659277876,,4.227410506336729,,
,7408.0,1279.0,5618.0,1399.0,-132.0,1380.0,3674.0,,,,-0.273378149967401,-2.75818415677783,-0.440400658641666,,4.471117617376326,,
,7405.0,1277.0,5620.0,1401.0,-130.0,1378.0,3672.0,,,,-0.273890374950653,-2.75860199133648,-0.440993152885451,,4.615717459680312,,
,7399.0,1277.0,5616.0,1397.0,-139.0,1367.0,3675.0,,,,-0.274060158808692,-2.75903496147096,-0.441267766181247,,4.655045893616406,,
,7390.0,1275.0,5611.0,1397.0,-130.0,1412.0,3711.0,,,,-0.274402941241475,-2.75958773177553,-0.442129539757887,,4.5867469365264,,
,7381.0,1273.0,5607.0,1399.0,-123.0,1424.0,3714.0,,,,-0.274800110310696,-2.75987326114879,-0.442861963045512,,4.412648073423374,,
,7376.0,1272.0,5602.0,1396.0,-129.0,1402.0,3689.0,,,,-0.27492602101276,-2.75996187490311,-0.443009140160406,,4.138902058349127,,
,7368.0,1272.0,5596.0,1392.0,-142.0,1401.0,3678.0,,,,-0.275318766464683,-2.76023913672223,-0.443199168549244,,3.7758406792940487,,
,7362.0,1269.0,5593.0,1393.0,-134.0,1399.0,3686.0,,,,-0.275206426007421,-2.76002122806736,-0.443793642674576,,3.3375129560753107,,
,7354.0,1268.0,5585.0,1393.0,-124.0,1402.0,3706.0,,,,-0.275295028006385,-2.7600146897874,-0.443665258383626,,2.840917083347266,,
,7346.0,1269.0,5582.0,1389.0,-128.0,1417.0,3704.0,,,,-0.275384023774773,-2.76010060493004,-0.443200946735671,,2.3049763696633985,,
,7339.0,1265.0,5573.0,1388.0,-123.0,1416.0,3688.0,,,,-0.275271137882709,-2.75995975834468,-0.442577311068782,,1.7493467042392532,,
,7336.0,1264.0,5570.0,1387.0,-132.0,1398.0,3659.0,,,,-0.275008000384407,-2.75978611321721,-0.442657233450354,,1.1931688482169085,,
,7326.0,1262.0,5567.0,1386.0,-121.0,1363.0,3670.0,,,,-0.274919669026806,-2.75974860061788,-0.442261200721837,,0.6538876250920124,,
,7327.0,1264.0,5566.0,1386.0,-120.0,1378.0,3695.0,,,,-0.2746819314219,-2.7594632434708,-0.442525298562269,,0.14625070014564368,,
,7322.0,1263.0,5564.0,1388.0,-117.0,1394.0,3714.0,,,,-0.274791858330886,-2.75960596907841,-0.442440772262306,,-0.3184247466625601,,
,7318.0,1262.0,5561.0,1385.0,-113.0,1412.0,3718.0,,,,-0.274897801800106,-2.75981975977049,-0.442493715970088,,-0.732662811172085,,
,7316.0,1261.0,5560.0,1381.0,-124.0,1399.0,3695.0,,,,-0.274820358219374,-2.75928308227872,-0.441418570150507,,-1.092899337185168,,
,7314.0,1261.0,5558.0,1382.0,-138.0,1375.0,3666.0,,,,-0.274758540468109,-2.75904527487416,-0.442081398990459,,-1.3992293202232389,,
,7313.0,1262.0,5558.0,1383.0,-143.0,1386.0,3675.0,,,,-0.274759616887306,-2.75923705677007,-0.441154181108173,,-1.654878084929637,,
,7312.0,1262.0,5558.0,1385.0,-129.0,1388.0,3712.0,,,,-0.274663420457873,-2.75933854165079,-0.440674471558043,,-1.865464918669311,,
,7309.0,1261.0,5556.0,1382.0,-120.0,1417.0,3703.0,,,,-0.274170554463456,-2.75920013575993,-0.441188937876706,,-2.0381407217660445,,
,7306.0,1262.0,5558.0,1385.0,-118.0,1406.0,3675.0,,,,-0.274206791623073,-2.75906632659055,-0.441113716768939,,-2.1806848032833073,,
,7307.0,1262.0,5553.0,1381.0,-126.0,1365.0,3654.0,,,,-0.27413627836507,-2.75905440211781,-0.440420220698827,,-2.300640527265993,,
,7306.0,1261.0,5555.0,1383.0,-129.0,1359.0,3658.0,,,,-0.274201212337007,-2.75900070189205,-0.440939675480411,,-2.404556238253521,,
,7304.0,1257.0,5555.0,1383.0,-123.0,1370.0,3686.0,,,,-0.27401182145097,-2.75907761149023,-0.440954643605854,,-2.497379237134453,,
,7303.0,1260.0,5553.0,1384.0,-121.0,1390.0,3699.0,,,,-0.274138559936247,-2.75921291634849,-0.441064148835871,,-2.5820303930022335,,
,7305.0,1261.0,5556.0,1384.0,-131.0,1356.0,3688.0,,,,-0.274214738278499,-2.75944520842578,-0.440761397032899,,-2.659169317881586,,
,7304.0,1263.0,5552.0,1386.0,-131.0,1357.0,3675.0,,,,-0.274191320941719,-2.7593447664068,-0.441347377099631,,-2.7271473013801675,,
,7306.0,1259.0,5554.0,1382.0,-140.0,1339.0,3668.0,,,,-0.274017723600889,-2.7589549501198,-0.44117419219703,,-2.782137262190775,,
,7305.0,1260.0,5555.0,1384.0,-132.0,1375.0,3678.0,,,,-0.273905837900531,-2.75892539323202,-0.441035211225394,,-2.818424987858082,,
,7308.0,1261.0,5556.0,1386.0,-130.0,1397.0,3707.0,,,,-0.273815731407926,-2.75870537858738,-0.440835968046767,,-2.8288419652756738,,
,7311.0,1261.0,5557.0,1386.0,-127.0,1399.0,3720.0,,,,-0.273747475411954,-2.75862394309791,-0.440436539295951,,-2.8053160109726134,,
,7307.0,1261.0,5559.0,1384.0,-122.0,1397.0,3706.0,,,,-0.273561621609004,-2.75846549311951,-0.439713772463101,,-2.7395112543469065,,
,7308.0,1262.0,5558.0,1385.0,-131.0,1370.0,3671.0,,,,-0.2735115085532,-2.75852933560099,-0.439220082870882,,-2.6235237205215673,,
,7308.0,1262.0,5562.0,1387.0,-141.0,1372.0,3660.0,,,,-0.273283722210292,-2.75849300624298,-0.439674383630163,,-2.450593022402236,,
,7311.0,1262.0,5561.0,1388.0,-124.0,1398.0,3688.0,,,,-0.273657087679734,-2.75843354129733,-0.439967462145578,,-2.2157852049114735,,
,7307.0,1260.0,5561.0,1387.0,-116.0,1405.0,3708.0,,,,-0.273615599525111,-2.75843869223839,-0.440510430664056,,-1.9165978759196518,,
,7311.0,1262.0,5561.0,1385.0,-120.0,1406.0,3723.0,,,,-0.273665136247242,-2.75855807666909,-0.44063518371761,,-1.5534382346582418,,
,7309.0,1260.0,5562.0,1386.0,-136.0,1387.0,3699.0,,,,-0.273673031453287,-2.75886851052721,-0.441012695679206,,-1.1299295194206629,,
,7309.0,1262.0,5561.0,1386.0,-141.0,1384.0,3664.0,,,,-0.273805706905624,-2.75888083524861,-0.440769181099405,,-0.6530130923213131,,
,7308.0,1261.0,5563.0,1386.0,-137.0,1382.0,3652.0,,,,-0.273844742607577,-2.75873740934587,-0.440085038457913,,-0.13283112578510753,,
,7307.0,1262.0,5562.0,1386.0,-127.0,1392.0,3669.0,,,,-0.273740849612955,-2.7586299090952,-0.440926243659032,,0.4176047005178378,,
,7306.0,1261.0,5562.0,1386.0,-129.0,1429.0,3684.0,,,,-0.273741480310239,-2.75866719308599,-0.440872676065049,,0.9829344921469618,,
,7307.0,1263.0,5564.0,1386.0,-136.0,1400.0,3678.0,,,,-0.273658326996813,-2.75847752065899,-0.440167630638612,,1.5461240174428084,,
,7308.0,1261.0,5566.0,1389.0,-136.0,1377.0,3671.0,,,,-0.273476526201677,-2.75844845609269,-0.440190933070137,,2.0892463723861394,,
,7305.0,1261.0,5563.0,1387.0,-146.0,1392.0,3667.0,,,,-0.273471423880895,-2.75843337088873,-0.440107949216073,,2.5943241215132886,,
,7304.0,1262.0,5562.0,1388.0,-134.0,1398.0,3673.0,,,,-0.273400348982286,-2.7585712018608,-0.440859727710567,,3.044185236510903,,
,7305.0,1263.0,5564.0,1389.0,-120.0,1419.0,3703.0,,,,-0.2738459242647,-2.75880488318259,-0.440787520248901,,3.423288496696809,,
,7305.0,1261.0,5564.0,1388.0,-123.0,1405.0,3700.0,,,,-0.273669325549527,-2.75864965698142,-0.440414705946406,,3.718477165719828,,
2025-08-06 21:52:13,7302.0,1263.0,5566.0,1389.0,-122.0,1391.0,3698.0,,,2025/08/06 09:52:13 PM,-0.273445848506218,-2.75864358726192,-0.439861975536314,,3.919623383043512,,
,7304.0,1259.0,5567.0,1387.0,-136.0,1382.0,3681.0,,,,-0.273521322577167,-2.75830460855664,-0.440394767450897,,4.020129997060067,,
,7305.0,1262.0,5566.0,1387.0,-125.0,1408.0,3694.0,,,,-0.27348283838263,-2.75843909229617,-0.440635212768256,,4.017261857055399,,
,7307.0,1265.0,5567.0,1388.0,-126.0,1427.0,3724.0,,,,-0.273426052045697,-2.75833785636516,-0.440158612891247,,3.912284900028848,,
,7302.0,1265.0,5568.0,1389.0,-125.0,1429.0,3733.0,,,,-0.273423502271434,-2.75844865644933,-0.43918361112245,,3.710398668858081,,
,7307.0,1263.0,5567.0,1389.0,-131.0,1404.0,3703.0,,,,-0.273297223894118,-2.75849433683223,-0.440020261127196,,3.420456902548895,,
,7308.0,1265.0,5572.0,1389.0,-135.0,1372.0,3678.0,,,,-0.273354914973284,-2.75823485850551,-0.439495166479029,,3.0544830111644647,,
,7310.0,1263.0,5569.0,1391.0,-137.0,1372.0,3671.0,,,,-0.273195578326506,-2.75829816063298,-0.439754073012793,,2.627003172784888,,
,7312.0,1266.0,5573.0,1390.0,-128.0,1379.0,3689.0,,,,-0.273263922139565,-2.75839763802774,-0.440251735656182,,2.15423754913346,,
,7312.0,1263.0,5575.0,1389.0,-124.0,1412.0,3700.0,,,,-0.273348231193404,-2.75845519707594,-0.439669017713297,,1.6532056135233275,,
,7313.0,1266.0,5577.0,1389.0,-120.0,1416.0,3730.0,,,,-0.273543683807961,-2.75834224218931,-0.439502683251361,,1.1408106601581574,,
,7313.0,1267.0,5578.0,1393.0,-129.0,1404.0,3693.0,,,,-0.273561355276039,-2.75844973828087,-0.440374973453745,,0.6329691023144207,,
,7317.0,1267.0,5577.0,1391.0,-132.0,1390.0,3678.0,,,,-0.273617698830329,-2.75849686833784,-0.440253008863004,,0.1438428366348576,,
,7319.0,1270.0,5580.0,1396.0,-128.0,1383.0,3669.0,,,,-0.273819886619673,-2.7583952376095,-0.440004209219231,,-0.3147794686669444,,
,7318.0,1267.0,5580.0,1391.0,-129.0,1376.0,3712.0,,,,-0.273988801913161,-2.75863748436558,-0.44079997713755,,-0.7339203732153535,,
,7322.0,1267.0,5583.0,1391.0,-125.0,1385.0,3708.0,,,,-0.274015418337854,-2.75848554042157,-0.440406964455618,,-1.107652254699089,,
,7323.0,1269.0,5588.0,1396.0,-128.0,1407.0,3697.0,,,,-0.273790285071706,-2.7583534187963,-0.440414127872,,-1.4331288783128318,,
,7322.0,1270.0,5585.0,1393.0,-130.0,1414.0,3697.0,,,,-0.274110419680849,-2.75853835922328,-0.440129017762092,,-1.7104119446888726,,
,7326.0,1266.0,5587.0,1393.0,-126.0,1413.0,3695.0,,,,-0.274048797958717,-2.75842968018666,-0.440174286829179,,-1.9421042371377013,,
,7330.0,1270.0,5589.0,1398.0,-139.0,1424.0,3690.0,,,,-0.274043742858763,-2.75848056316886,-0.440748561937311,,-2.1328119545598683,,
,7330.0,1273.0,5593.0,1398.0,-126.0,1428.0,3726.0,,,,-0.273742059638382,-2.7584318188048,-0.439936612920328,,-2.288471168448765,,
,7332.0,1270.0,5595.0,1399.0,-124.0,1429.0,3733.0,,,,-0.273593518649911,-2.75847478983841,-0.439864504238153,,-2.4155856447076243,,
,7333.0,1270.0,5594.0,1397.0,-128.0,1389.0,3717.0,,,,-0.273649392947725,-2.75827834241452,-0.439628580605535,,-2.520433505340711,,
,7336.0,1273.0,5599.0,1398.0,-132.0,1392.0,3688.0,,,,-0.273540275200643,-2.75841237772691,-0.440482385324269,,-2.6083067169642833,,
,7336.0,1271.0,5603.0,1399.0,-135.0,1373.0,3697.0,,,,-0.273504982192603,-2.75845279567975,-0.43974638571119,,-2.682849136796011,,
,7339.0,1272.0,5602.0,1400.0,-127.0,1390.0,3706.0,,,,-0.273553420271684,-2.75832652517706,-0.439601746741225,,-2.7455551960063582,,
,7340.0,1272.0,5605.0,1402.0,-134.0,1413.0,3693.0,,,,-0.273576313742436,-2.75842890776249,-0.439797464438525,,-2.7954819385324696,,
,7339.0,1270.0,5604.0,1401.0,-141.0,1416.0,3696.0,,,,-0.273669983578967,-2.75857934994024,-0.440044649211137,,-2.8292121004441904,,
,7347.0,1274.0,5606.0,1401.0,-137.0,1397.0,3690.0,,,,-0.273703760770098,-2.7586935333714,-0.440288545148324,,-2.8410856409105114,,
,7347.0,1273.0,5610.0,1401.0,-136.0,1399.0,3678.0,,,,-0.27370264248214,-2.75847065349568,-0.439857049613165,,-2.8236924696522543,,
,7349.0,1272.0,5610.0,1402.0,-129.0,1404.0,3676.0,,,,-0.273774624538751,-2.75859832662684,-0.43980239399597,,-2.768591562088014,,
,7349.0,1274.0,5613.0,1403.0,-128.0,1387.0,3687.0,,,,-0.273788836668353,-2.75852732816561,-0.441404183959245,,-2.6671939449697786,,
,7352.0,1274.0,5615.0,1402.0,-120.0,1396.0,3719.0,,,,-0.273752911241942,-2.75842425827678,-0.440493797368399,,-2.51172358859689,,
,7355.0,1276.0,5622.0,1406.0,-126.0,1361.0,3718.0,,,,-0.273718026078965,-2.75851146761611,-0.439861894062009,,-2.296156439378353,,
,7357.0,1276.0,5620.0,1407.0,-133.0,1347.0,3706.0,,,,-0.273940983379306,-2.75846332548919,-0.43997800856787,,-2.017037861184486,,
,7359.0,1276.0,5622.0,1407.0,-131.0,1354.0,3689.0,,,,-0.274018976634788,-2.75884059943493,-0.440379907933103,,-1.6740935742860505,,
,7360.0,1276.0,5623.0,1406.0,-133.0,1382.0,3709.0,,,,-0.273990967796441,-2.7590077957941,-0.440789387374304,,-1.2705761295019475,,
,7364.0,1276.0,5623.0,1407.0,-130.0,1410.0,3692.0,,,,-0.274197037105043,-2.75879863428077,-0.441172255363748,,-0.8133228113716645,,
,7359.0,1277.0,5627.0,1410.0,-148.0,1414.0,3679.0,,,,-0.274248652489117,-2.7589824027165,-0.441260993351971,,-0.3125352045410179,,
,7357.0,1277.0,5627.0,1408.0,-149.0,1395.0,3680.0,,,,-0.274990156746975,-2.75918511056097,-0.441389435341813,,0.2186806865843918,,
,7354.0,1272.0,5622.0,1406.0,-134.0,1381.0,3669.0,,,,-0.275000918276836,-2.75915652326542,-0.442094309571862,,0.7649562044611973,,
,7345.0,1275.0,5621.0,1407.0,-130.0,1401.0,3699.0,,,,-0.27522323194486,-2.7598969225365,-0.442821124117727,,1.3094187998641535,,
,7341.0,1274.0,5616.0,1408.0,-136.0,1402.0,3705.0,,,,-0.275724259359217,-2.76001854080045,-0.443216592271287,,1.834505528774335,,
,7332.0,1271.0,5613.0,1404.0,-134.0,1403.0,3704.0,,,,-0.27575857992499,-2.76040074232831,-0.444722454555046,,2.322778723489554,,
,7327.0,1270.0,5607.0,1402.0,-129.0,1388.0,3689.0,,,,-0.276203598585,-2.76102515745745,-0.446194582063925,,2.7577047514983204,,
,7315.0,1268.0,5601.0,1401.0,-132.0,1386.0,3686.0,,,,-0.276540553303537,-2.76179179626143,-0.446081688380524,,3.1243706845762858,,
,7308.0,1267.0,5597.0,1398.0,-119.0,1365.0,3696.0,,,,-0.276847418016669,-2.76203325158655,-0.447105956061855,,3.410124568073604,,
,7301.0,1264.0,5590.0,1398.0,-113.0,1380.0,3695.0,,,,-0.277201254507208,-2.76241694212726,-0.447689437149129,,3.6051297743938493,,
,7290.0,1261.0,5586.0,1396.0,-126.0,1394.0,3681.0,,,,-0.277663326933438,-2.76273429304765,-0.447566706239968,,3.70282156933744,,
,7284.0,1260.0,5578.0,1393.0,-123.0,1407.0,3674.0,,,,-0.278170768428241,-2.76294823720128,-0.447924960982702,,3.700246510657722,,
,7279.0,1258.0,5575.0,1393.0,-129.0,1407.0,3675.0,,,,-0.278236713624926,-2.76294594844834,-0.449185215718956,,3.5982570838068373,,
,7273.0,1259.0,5571.0,1391.0,-130.0,1397.0,3662.0,,,,-0.278224456407362,-2.76286735317892,-0.448445071983668,,3.401530028671493,,
,7270.0,1256.0,5568.0,1391.0,-132.0,1383.0,3676.0,,,,-0.278393798711284,-2.76312748859563,-0.448470100020691,,3.118380752781988,,
,7265.0,1254.0,5568.0,1391.0,-147.0,1372.0,3694.0,,,,-0.278285373693785,-2.76303693951417,-0.449005643242384,,2.760359292679151,,
,7262.0,1254.0,5565.0,1389.0,-135.0,1406.0,3708.0,,,,-0.278299265548582,-2.76297239043947,-0.448639493909621,,2.3416339598083056,,
,7259.0,1254.0,5562.0,1389.0,-134.0,1388.0,3703.0,,,,-0.278194854934971,-2.76321769682233,-0.448845385460641,,1.878193142799298,,
,7255.0,1252.0,5560.0,1386.0,-135.0,1369.0,3681.0,,,,-0.278358441558583,-2.76298003267704,-0.448245986214433,,1.3869185681964633,,
,7251.0,1253.0,5559.0,1388.0,-134.0,1358.0,3678.0,,,,-0.278664483923127,-2.76308521935574,-0.448730232801812,,0.8846001647634361,,
,7250.0,1252.0,5556.0,1387.0,-136.0,1371.0,3706.0,,,,-0.278626060119158,-2.76302768721188,-0.448108736841632,,0.3869712602559243,,
,7251.0,1253.0,5557.0,1387.0,-139.0,1413.0,3702.0,,,,-0.278460054004659,-2.76295579279001,-0.448972636966323,,-0.09215686937434768,,
,7247.0,1253.0,5556.0,1389.0,-144.0,1399.0,3701.0,,,,-0.278488695173342,-2.76299947645495,-0.448680664963268,,-0.5415892145427805,,
,7246.0,1253.0,5556.0,1387.0,-150.0,1388.0,3683.0,,,,-0.278638012354477,-2.76299428527555,-0.449015719160545,,-0.953212099593756,,
,7243.0,1250.0,5551.0,1388.0,-136.0,1390.0,3698.0,,,,-0.278905491624474,-2.76289318950597,-0.448433463439175,,-1.322191418849817,,
,7242.0,1250.0,5554.0,1389.0,-128.0,1384.0,3678.0,,,,-0.278470146045232,-2.76312132280093,-0.448752122767187,,-1.6468911496228882,,
,7243.0,1252.0,5556.0,1386.0,-122.0,1384.0,3688.0,,,,-0.278494802881713,-2.76319377320851,-0.44821715204461,,-1.9285255191677257,,
,7243.0,1251.0,5555.0,1386.0,-120.0,1375.0,3695.0,,,,-0.278705050602601,-2.76321081380499,-0.448360328004419,,-2.1705824821324398,,
,7241.0,1248.0,5552.0,1387.0,-138.0,1360.0,3712.0,,,,-0.278803005389493,-2.76354130663708,-0.448846429371374,,-2.37807593428775,,
,7241.0,1249.0,5550.0,1385.0,-143.0,1377.0,3697.0,,,,-0.278931274772208,-2.76339511060057,-0.448593925791108,,-2.5566981999794987,,
,7245.0,1250.0,5555.0,1385.0,-132.0,1392.0,3726.0,,,,-0.279007468282417,-2.76342276021349,-0.44964084045961,,-2.711952463362112,,
,7242.0,1250.0,5556.0,1387.0,-125.0,1405.0,3718.0,,,,-0.278973459646465,-2.76351924786085,-0.448452345355352,,-2.8483467372754423,,
,7239.0,1252.0,5556.0,1385.0,-126.0,1398.0,3706.0,,,,-0.27846923830828,-2.76296983164758,-0.448685004515186,,-2.9687262802788883,,
,7240.0,1249.0,5552.0,1388.0,-144.0,1378.0,3689.0,,,,-0.278166117945414,-2.7625680528707,-0.448167913517886,,-3.07380969769349,,
,7245.0,1250.0,5556.0,1389.0,-144.0,1387.0,3668.0,,,,-0.278450555997143,-2.76302958168646,-0.448414141455676,,-3.1619752618604045,,
,7246.0,1251.0,5556.0,1388.0,-145.0,1384.0,3681.0,,,,-0.278555123402632,-2.76289384257488,-0.447880756432599,,-3.2293190049908245,,
,7246.0,1250.0,5557.0,1387.0,-137.0,1398.0,3697.0,,,,-0.278558545547052,-2.76310998522996,-0.448575878469803,,-3.269976947597662,,
,7246.0,1251.0,5559.0,1385.0,-117.0,1402.0,3687.0,,,,-0.278579091088863,-2.76321870831734,-0.44877497753902,,-3.2766741659526946,,
,7246.0,1249.0,5559.0,1388.0,-140.0,1410.0,3738.0,,,,-0.278684827656882,-2.76346409292465,-0.448739920005446,,-3.241438116566862,,
,7246.0,1250.0,5559.0,1387.0,-135.0,1402.0,3690.0,,,,-0.278546399510918,-2.76345063104827,-0.448728581905886,,-3.156396996437482,,
,7245.0,1249.0,5559.0,1388.0,-126.0,1397.0,3668.0,,,,-0.278836574231265,-2.76344987415795,-0.44959045526146,,-3.014577961778767,,
,7244.0,1249.0,5559.0,1386.0,-136.0,1393.0,3703.0,,,,-0.279010258635932,-2.76362541968513,-0.449371261822784,,-2.8106244481353375,,
,7243.0,1248.0,5557.0,1387.0,-137.0,1384.0,3698.0,,,,-0.27919270975926,-2.76364133918714,-0.44994208677502,,-2.541365304771331,,
,7244.0,1252.0,5560.0,1391.0,-132.0,1402.0,3694.0,,,,-0.279188539008774,-2.76383105860463,-0.449984980898884,,-2.2061895616074496,,
,7244.0,1250.0,5558.0,1389.0,-142.0,1398.0,3694.0,,,,-0.279283301359045,-2.76360274422627,-0.449421249660769,,-1.807207360018663,,
,7244.0,1250.0,5559.0,1389.0,-138.0,1374.0,3706.0,,,,-0.279445668226021,-2.76362875804175,-0.450212665842091,,-1.3492062822058244,,
,7241.0,1250.0,5560.0,1387.0,-133.0,1405.0,3695.0,,,,-0.279626509756614,-2.76357838478661,-0.449584710389828,,-0.8394378936385651,,
,7241.0,1248.0,5562.0,1387.0,-129.0,1407.0,3721.0,,,,-0.279232110125877,-2.76372629811629,-0.449541364073064,,-0.28728657392140744,,
,7242.0,1248.0,5560.0,1391.0,-135.0,1393.0,3717.0,,,,-0.279184279068305,-2.76355883562268,-0.450104188938153,,0.29612182182702496,,
,7241.0,1250.0,5561.0,1388.0,-125.0,1374.0,3684.0,,,,-0.278924466684221,-2.76383734381811,-0.450110330469801,,0.8983208432302224,,
,7241.0,1247.0,5557.0,1387.0,-130.0,1381.0,3683.0,,,,-0.279204830805458,-2.76387695331311,-0.450438452951586,,1.5058800549412636,,
,7242.0,1251.0,5562.0,1389.0,-128.0,1376.0,3720.0,,,,-0.279065177104213,-2.76391297648241,-0.450583033736263,,2.104745376654693,,
,7242.0,1250.0,5564.0,1390.0,-83.0,1387.0,3708.0,,,,-0.279270090576554,-2.76390946670143,-0.450217192177852,,2.680551937937492,,
,7243.0,1249.0,5567.0,1391.0,-118.0,1377.0,3699.0,,,,-0.279105480734994,-2.76368258199969,-0.449841588133667,,3.218932725670957,,
,7243.0,1250.0,5564.0,1390.0,-209.0,1407.0,3685.0,,,,-0.279024333450711,-2.76363307169343,-0.450258672845152,,3.705851661598093,,
,7241.0,1251.0,5568.0,1389.0,-138.0,1405.0,3700.0,,,,-0.279002841517975,-2.76352572246278,-0.449962443882081,,4.12798590472411,,
,7245.0,1252.0,5567.0,1392.0,-125.0,1408.0,3683.0,,,,-0.27895678792663,-2.76337261032833,-0.450100412821992,,4.473170783931954,,
,7245.0,1250.0,5570.0,1390.0,-138.0,1419.0,3668.0,,,,-0.278785563113521,-2.76332663771171,-0.449707932771948,,4.730904074063382,,
,7245.0,1250.0,5566.0,1392.0,-135.0,1423.0,3675.0,,,,-0.278605493577434,-2.76364247437974,-0.449453240580962,,4.89288689175847,,
,7246.0,1249.0,5569.0,1391.0,-128.0,1420.0,3680.0,,,,-0.278688906202994,-2.76350055068176,-0.449719228522812,,4.953559383825258,,
,7248.0,1251.0,5573.0,1393.0,-134.0,1400.0,3692.0,,,,-0.278725540132995,-2.76340239187682,-0.449363070155737,,4.91057414380063,,
,7248.0,1251.0,5573.0,1392.0,-130.0,1404.0,3693.0,,,,-0.278579014866235,-2.76302503936851,-0.449121601400601,,4.765142441433128,,
,7250.0,1249.0,5572.0,1392.0,-118.0,1402.0,3706.0,,,,-0.278852112101642,-2.76287196042275,-0.449375318540993,,4.522190791301922,,
,7249.0,1251.0,5575.0,1392.0,-127.0,1408.0,3716.0,,,,-0.278883215915921,-2.76299468555637,-0.449626603394846,,4.190279715517003,,
,7252.0,1254.0,5575.0,1394.0,-129.0,1402.0,3707.0,,,,-0.278518255018873,-2.76289454838212,-0.448873335309726,,3.781262111601182,,
,7252.0,1252.0,5577.0,1393.0,-145.0,1395.0,3709.0,,,,-0.278327862779867,-2.76297845082171,-0.448179071852067,,3.309691665556477,,
,7257.0,1252.0,5578.0,1396.0,-146.0,1387.0,3696.0,,,,-0.278431626907235,-2.7627198496265,-0.449223885988184,,2.792025660474593,,
,7258.0,1253.0,5580.0,1392.0,-137.0,1379.0,3690.0,,,,-0.278430139929116,-2.76288750897808,-0.449213367219187,,2.245693864470238,,
,7261.0,1254.0,5581.0,1394.0,-136.0,1394.0,3682.0,,,,-0.27843783886236,-2.76295816503238,-0.44911718746747,,1.688120385061212,,
,7262.0,1255.0,5583.0,1398.0,-126.0,1426.0,3699.0,,,,-0.278354691485466,-2.76287475587508,-0.449038903883243,,1.1357865360532617,,
,7260.0,1253.0,5585.0,1394.0,-121.0,1418.0,3695.0,,,,-0.278188143403698,-2.76295587771822,-0.448421360202098,,0.6034114694049737,,
,7263.0,1254.0,5587.0,1397.0,-127.0,1394.0,3704.0,,,,-0.278035786108682,-2.76279044963803,-0.449220480947534,,0.10330740385918855,,
,7264.0,1253.0,5590.0,1399.0,-130.0,1399.0,3700.0,,,,-0.278141387439966,-2.76299261156492,-0.447605157910199,,-0.3550576509768944,,
,7268.0,1258.0,5592.0,1400.0,-130.0,1399.0,3709.0,,,,-0.27827005848185,-2.76311651378305,-0.449397595142832,,-0.7652804897090268,,
,7271.0,1255.0,5592.0,1400.0,-134.0,1388.0,3706.0,,,,-0.278260202348756,-2.76292781979833,-0.448723910501324,,-1.1240377609258718,,
,7275.0,1254.0,5595.0,1400.0,-139.0,1393.0,3686.0,,,,-0.278241807336252,-2.76283632653886,-0.448418454797859,,-1.430921485444247,,
,7271.0,1256.0,5596.0,1399.0,-150.0,1392.0,3668.0,,,,-0.278145714000408,-2.76274101075679,-0.447961548425306,,-1.6881292940733714,,
,7276.0,1256.0,5600.0,1400.0,-144.0,1354.0,3678.0,,,,-0.278062376988183,-2.76252587801265,-0.447972009669355,,-1.9000449558510342,,
,7279.0,1259.0,5603.0,1401.0,-134.0,1373.0,3699.0,,,,-0.278401399718822,-2.76260877628164,-0.448644753931444,,-2.0727404466747985,,
,7281.0,1258.0,5602.0,1402.0,-136.0,1397.0,3725.0,,,,-0.278275391860254,-2.76287543512104,-0.448838177701059,,-2.213423944600378,,
,7280.0,1257.0,5601.0,1399.0,-128.0,1386.0,3707.0,,,,-0.278351328535175,-2.76287757547388,-0.448676389486259,,-2.329852533037856,,
,7283.0,1257.0,5605.0,1404.0,-137.0,1415.0,3691.0,,,,-0.27825251061173,-2.76300573735207,-0.448709576366199,,-2.429726606066558,,
,7286.0,1260.0,5610.0,1404.0,-141.0,1391.0,3675.0,,,,-0.278344336712359,-2.76281799749439,-0.448411716935893,,-2.5200852708028063,,
,7289.0,1259.0,5610.0,1403.0,-139.0,1396.0,3673.0,,,,-0.277938530315573,-2.76284009155676,-0.448512633036121,,-2.606727004297415,,
,7292.0,1258.0,5610.0,1404.0,-142.0,1389.0,3670.0,,,,-0.278118155318336,-2.76242042624488,-0.448624729956547,,-2.6936856061438683,,
,7289.0,1261.0,5613.0,1405.0,-144.0,1404.0,3699.0,,,,-0.277879076013191,-2.76259020485168,-0.448146692456585,,-2.7827965499022875,,
,7294.0,1262.0,5615.0,1407.0,-128.0,1410.0,3705.0,,,,-0.277988610160789,-2.76216409784108,-0.44869133213309,,-2.873391851068767,,
,7294.0,1260.0,5615.0,1406.0,-127.0,1391.0,3695.0,,,,-0.277879470984479,-2.76219126739744,-0.448030217081749,,-2.962161167813508,,
,7297.0,1262.0,5621.0,1408.0,-125.0,1365.0,3690.0,,,,-0.277813956851041,-2.76218840876399,-0.44781828282963,,-3.043211660593748,,
,7297.0,1260.0,5621.0,1407.0,-144.0,1354.0,3715.0,,,,-0.277811769192083,-2.76224672743841,-0.448879624754482,,-3.1083480912907557,,
2025-08-06 21:52:14,7301.0,1262.0,5622.0,1409.0,-133.0,1364.0,3712.0,,,2025/08/06 09:52:14 PM,-0.277650102630775,-2.76245438711967,-0.448044781527888,,-3.1475773877537847,,
,7304.0,1264.0,5625.0,1409.0,-126.0,1400.0,3719.0,,,,-0.277983659595944,-2.7626057939926,-0.447599613198195,,-3.1498193019287313,,
,7300.0,1263.0,5626.0,1409.0,-131.0,1406.0,3708.0,,,,-0.278259822818803,-2.76278813504047,-0.448964944909059,,-3.1037794867139032,,
,7294.0,1260.0,5620.0,1407.0,-136.0,1415.0,3682.0,,,,-0.278499080533637,-2.76300892276699,-0.449625190586888,,-2.998917748532562,,
,7292.0,1263.0,5625.0,1410.0,-135.0,1393.0,3674.0,,,,-0.279067994589581,-2.76370920520547,-0.450503160735774,,-2.826427487176303,,
,7288.0,1261.0,5621.0,1406.0,-137.0,1414.0,3697.0,,,,-0.279564939536311,-2.76407086411646,-0.451058791785388,,-2.5801362356900626,,
,7282.0,1261.0,5617.0,1406.0,-134.0,1414.0,3713.0,,,,-0.280131909946401,-2.76440101678989,-0.452363711410773,,-2.257243101845626,,
,7273.0,1256.0,5610.0,1400.0,-132.0,1425.0,3711.0,,,,-0.280423384971423,-2.7648494407228,-0.452716403919911,,-1.858825792705933,,
,7265.0,1254.0,5605.0,1403.0,-140.0,1367.0,3712.0,,,,-0.280751939275308,-2.76493972735942,-0.453617855508515,,-1.3900750954344725,,
,7255.0,1251.0,5600.0,1402.0,-139.0,1371.0,3681.0,,,,-0.280805955762837,-2.76512321978822,-0.453143083773029,,-0.8602441140944579,,
,7246.0,1250.0,5596.0,1399.0,-143.0,1378.0,3683.0,,,,-0.281093960699401,-2.76555687714209,-0.453869983336088,,-0.28232807368824486,,
,7239.0,1248.0,5588.0,1397.0,-134.0,1413.0,3684.0,,,,-0.280765968409513,-2.76536824827629,-0.45423812337246,,0.3274869348946504,,
,7229.0,1244.0,5580.0,1393.0,-140.0,1406.0,3698.0,,,,-0.280770465198328,-2.76535969022112,-0.453765409969439,,0.9505544815290808,,
,7221.0,1244.0,5574.0,1393.0,-136.0,1391.0,3697.0,,,,-0.280550593343204,-2.76518804676512,-0.453649655986956,,1.5666219879490098,,
,7218.0,1243.0,5571.0,1393.0,-140.0,1377.0,3687.0,,,,-0.28055650404265,-2.76511919668102,-0.453448793910164,,2.154756888603109,,
,7212.0,1239.0,5568.0,1392.0,-152.0,1359.0,3670.0,,,,-0.280198994691199,-2.76496195032672,-0.452306556220518,,2.6943014902813696,,
,7204.0,1237.0,5562.0,1387.0,-138.0,1372.0,3701.0,,,,-0.280372399491739,-2.76481025808239,-0.452775648210998,,3.165822243132228,,
,7200.0,1234.0,5560.0,1388.0,-128.0,1410.0,3717.0,,,,-0.280598295219589,-2.76466421343981,-0.453153390419549,,3.5520247369488134,,
,7196.0,1237.0,5554.0,1390.0,-120.0,1396.0,3726.0,,,,-0.28018622679746,-2.76476062251335,-0.452314398515244,,3.838605447464453,,
,7194.0,1235.0,5554.0,1389.0,-124.0,1394.0,3717.0,,,,-0.280140720634653,-2.7647785132523,-0.452129992190187,,4.015005314721886,,
,7186.0,1231.0,5549.0,1383.0,-143.0,1406.0,3699.0,,,,-0.280205672833024,-2.7649245287082,-0.452709412336675,,4.07502154922942,,
,7183.0,1234.0,5552.0,1384.0,-128.0,1401.0,3682.0,,,,-0.280253145039444,-2.76452168410587,-0.451681019784729,,4.017226873633476,,
,7184.0,1234.0,5548.0,1384.0,-136.0,1400.0,3686.0,,,,-0.280119285916642,-2.76470712220699,-0.450945096811309,,3.8451438818138133,,
,7185.0,1232.0,5548.0,1383.0,-145.0,1391.0,3684.0,,,,-0.280116271683889,-2.76440395593029,-0.450852309666521,,3.5671296268416044,,
,7177.0,1231.0,5546.0,1381.0,-124.0,1387.0,3706.0,,,,-0.279766150462759,-2.76422645154438,-0.451872787456541,,3.1959438502255373,,
,7177.0,1231.0,5546.0,1383.0,-135.0,1388.0,3676.0,,,,-0.279477474331827,-2.76415023212919,-0.451025842752418,,2.748003148016617,,
,7177.0,1231.0,5545.0,1385.0,-150.0,1391.0,3685.0,,,,-0.27951802989451,-2.76417942539527,-0.451492741817962,,2.2423593949735334,,
,7174.0,1230.0,5548.0,1382.0,-143.0,1392.0,3687.0,,,,-0.279468111955998,-2.76404561870345,-0.450638183362262,,1.699477490338624,,
,7173.0,1231.0,5544.0,1382.0,-124.0,1408.0,3706.0,,,,-0.279579694206818,-2.76417902972587,-0.451010632959138,,1.1399174987148597,,
,7172.0,1227.0,5544.0,1383.0,-130.0,1406.0,3720.0,,,,-0.279603337153537,-2.76418424195661,-0.451052591670497,,0.583043581855355,,
,7171.0,1231.0,5546.0,1381.0,-141.0,1374.0,3699.0,,,,-0.279285621568231,-2.764018269418,-0.450666496695766,,0.04588358266117087,,
,7170.0,1227.0,5544.0,1381.0,-155.0,1351.0,3684.0,,,,-0.279321217049172,-2.76379072365831,-0.450944424728999,,-0.45775164373792754,,
,7172.0,1229.0,5543.0,1381.0,-140.0,1351.0,3680.0,,,,-0.279311678305268,-2.76389643099451,-0.450447459928559,,-0.9178088506377043,,
,7170.0,1225.0,5543.0,1379.0,-128.0,1389.0,3680.0,,,,-0.279067447644568,-2.76362629351051,-0.450203992869717,,-1.328151021240656,,
,7170.0,1228.0,5545.0,1382.0,-127.0,1416.0,3706.0,,,,-0.278995517832717,-2.76361657505843,-0.450212264107246,,-1.6863342106274097,,
,7172.0,1230.0,5546.0,1382.0,-139.0,1409.0,3708.0,,,,-0.27885915188434,-2.76348200663121,-0.449933451908838,,-1.9930432757313252,,
,7171.0,1228.0,5546.0,1382.0,-142.0,1387.0,3709.0,,,,-0.278732822513021,-2.76319174895515,-0.448832186443045,,-2.2512615754180896,,
,7172.0,1229.0,5543.0,1382.0,-131.0,1367.0,3686.0,,,,-0.278496681629209,-2.76317371970626,-0.448866092013863,,-2.465275239694147,,
,7170.0,1230.0,5546.0,1381.0,-143.0,1369.0,3667.0,,,,-0.278392325954562,-2.76309386336079,-0.448420147592221,,-2.639627481301714,,
,7169.0,1229.0,5547.0,1384.0,-142.0,1379.0,3689.0,,,,-0.278344400157994,-2.7631124171058,-0.449066844661182,,-2.7781416694559162,,
,7172.0,1228.0,5546.0,1385.0,-141.0,1380.0,3701.0,,,,-0.278229758027556,-2.76290333143236,-0.448144086751057,,-2.8831231579547167,,
,7167.0,1227.0,5545.0,1382.0,-131.0,1392.0,3714.0,,,,-0.278204610764007,-2.76286658482715,-0.447960025461425,,-2.954829527907546,,
,7169.0,1227.0,5544.0,1382.0,-123.0,1379.0,3701.0,,,,-0.278052657327625,-2.76300307802856,-0.448294764051403,,-2.9912682980307124,,
,7174.0,1231.0,5546.0,1384.0,-138.0,1378.0,3695.0,,,,-0.277984934570153,-2.76268962351067,-0.448176440456034,,-2.988343034982614,,
,7169.0,1228.0,5547.0,1383.0,-145.0,1406.0,3678.0,,,,-0.277786946392513,-2.76259688884242,-0.448188151110126,,-2.9403277486827237,,
,7172.0,1228.0,5547.0,1383.0,-141.0,1411.0,3680.0,,,,-0.277597158577205,-2.76234711229899,-0.448794803642928,,-2.8406113469780685,,
,7167.0,1224.0,5544.0,1381.0,-134.0,1416.0,3688.0,,,,-0.277438296971388,-2.76228380745648,-0.448939952231317,,-2.68262414830283,,
,7168.0,1226.0,5544.0,1381.0,-149.0,1387.0,3674.0,,,,-0.27735266706657,-2.76230491677998,-0.447633630105751,,-2.46084030716779,,
,7166.0,1225.0,5544.0,1382.0,-140.0,1380.0,3665.0,,,,-0.277450041225853,-2.7619252700266,-0.447540045106581,,-2.1717445879676185,,
,7171.0,1226.0,5544.0,1383.0,-140.0,1375.0,3672.0,,,,-0.277068533587134,-2.76201420015288,-0.448131018969881,,-1.8146590977806827,,
,7166.0,1225.0,5545.0,1381.0,-144.0,1411.0,3694.0,,,,-0.277089658363805,-2.76190944019825,-0.446622459625994,,-1.392344458567077,,
,7166.0,1225.0,5545.0,1379.0,-133.0,1429.0,3711.0,,,,-0.276741733812986,-2.76165168665626,-0.446834111857511,,-0.9113181316528657,,
,7167.0,1228.0,5547.0,1383.0,-129.0,1414.0,3713.0,,,,-0.276739087177028,-2.76157432377602,-0.446669383385543,,-0.3818657916639103,,
,7164.0,1227.0,5545.0,1383.0,-136.0,1402.0,3712.0,,,,-0.276442463635329,-2.76149024198547,-0.446516623352988,,0.18224599534945687,,
,7166.0,1226.0,5547.0,1381.0,-147.0,1387.0,3691.0,,,,-0.276404565052227,-2.76134151849511,-0.445795829148242,,0.7643212546161527,,
,7166.0,1226.0,5546.0,1385.0,-133.0,1402.0,3698.0,,,,-0.276092318426172,-2.76101180482874,-0.445236318553737,,1.345498562386558,,
,7165.0,1226.0,5546.0,1384.0,-130.0,1429.0,3706.0,,,,-0.276231074165053,-2.76087804581676,-0.446057319091597,,1.9056681361003651,,
,7169.0,1225.0,5548.0,1383.0,-125.0,1431.0,3690.0,,,,-0.275622124604668,-2.7607991991134,-0.445353849909217,,2.424482598897368,,
,7168.0,1227.0,5548.0,1383.0,-130.0,1418.0,3682.0,,,,-0.275600311323282,-2.76063857720635,-0.44488356230846,,2.882405922202723,,
,7166.0,1224.0,5546.0,1383.0,-128.0,1400.0,3691.0,,,,-0.275206415065555,-2.76056895002384,-0.444212069503989,,3.261749097159302,,
,7168.0,1228.0,5547.0,1382.0,-132.0,1409.0,3693.0,,,,-0.275087132505483,-2.76015080305542,-0.444815543286026,,3.547642308607908,,
,7171.0,1228.0,5552.0,1387.0,-126.0,1411.0,3686.0,,,,-0.275020935275754,-2.76013427932864,-0.443415672684559,,3.728891371008564,,
,7173.0,1228.0,5552.0,1387.0,-122.0,1400.0,3688.0,,,,-0.275052129167764,-2.76012852650998,-0.443923825989409,,3.7986631324696267,,
,7171.0,1226.0,5551.0,1383.0,-133.0,1375.0,3682.0,,,,-0.274546822391064,-2.75992569374541,-0.442905632621092,,3.7549439856626567,,
,7175.0,1226.0,5552.0,1383.0,-135.0,1347.0,3672.0,,,,-0.274410592691268,-2.75969243502416,-0.4430543882531,,3.600720904707857,,
,7177.0,1226.0,5555.0,1387.0,-139.0,1374.0,3674.0,,,,-0.274375534193326,-2.7596919818702,-0.442831897747424,,3.343847904946972,,
,7179.0,1227.0,5555.0,1387.0,-140.0,1397.0,3702.0,,,,-0.274484725991585,-2.75963554331042,-0.442665341535623,,2.9965833229631516,,
,7179.0,1226.0,5556.0,1386.0,-127.0,1429.0,3719.0,,,,-0.274236722276117,-2.75936911822843,-0.442668426440652,,2.5748134913958185,,
,7180.0,1228.0,5556.0,1387.0,-132.0,1417.0,3717.0,,,,-0.274322819147978,-2.75936634897224,-0.442085046813911,,2.097012322485841,,
,7185.0,1229.0,5562.0,1388.0,-130.0,1383.0,3697.0,,,,-0.274032947091529,-2.75905631526626,-0.441871279512337,,1.5830182224390248,,
,7184.0,1227.0,5563.0,1388.0,-143.0,1376.0,3698.0,,,,-0.273900305089464,-2.75909459446977,-0.441352967964976,,1.0527337808105266,,
,7186.0,1229.0,5563.0,1390.0,-136.0,1370.0,3684.0,,,,-0.273792188482963,-2.75897068910591,-0.441633457789076,,0.524865691182493,,
,7186.0,1227.0,5564.0,1389.0,-122.0,1405.0,3699.0,,,,-0.27391953255008,-2.75895248955293,-0.441908019019156,,0.01582055853454045,,
,7189.0,1227.0,5567.0,1391.0,-134.0,1414.0,3705.0,,,,-0.273647557174235,-2.75870890386612,-0.441099451728952,,-0.46114325859237837,,
,7195.0,1230.0,5567.0,1393.0,-145.0,1393.0,3694.0,,,,-0.273644209740849,-2.75868139094537,-0.441067932191516,,-0.8964350674418324,,
,7194.0,1231.0,5568.0,1393.0,-140.0,1394.0,3678.0,,,,-0.273620478616632,-2.758735015915,-0.440649209316833,,-1.2842855970089477,,
,7196.0,1228.0,5570.0,1391.0,-139.0,1383.0,3682.0,,,,-0.27337972531351,-2.75846638243201,-0.440121275570395,,-1.6225372344576143,,
,7197.0,1230.0,5569.0,1391.0,-130.0,1377.0,3725.0,,,,-0.273345134763401,-2.75803871313536,-0.441122013521059,,-1.9121100781615652,,
,7201.0,1232.0,5576.0,1395.0,-122.0,1414.0,3725.0,,,,-0.273266797277033,-2.75806920720883,-0.440369946368558,,-2.1562144316478005,,
,7201.0,1232.0,5574.0,1395.0,-123.0,1402.0,3705.0,,,,-0.273063294684664,-2.75811455155455,-0.440455820987946,,-2.3594031819025982,,
,7202.0,1234.0,5575.0,1393.0,-128.0,1362.0,3693.0,,,,-0.27314308043386,-2.75802901098084,-0.43935457765447,,-2.526570403114576,,
,7205.0,1231.0,5577.0,1394.0,-152.0,1367.0,3682.0,,,,-0.273010780962477,-2.75791730581795,-0.43973053597686,,-2.6620048346610026,,
,7209.0,1234.0,5581.0,1397.0,-130.0,1361.0,3677.0,,,,-0.272888648466079,-2.75799123146778,-0.439213009070147,,-2.7685986364488056,,
,7212.0,1232.0,5582.0,1395.0,-131.0,1376.0,3681.0,,,,-0.272895699247345,-2.75791240861429,-0.439580768953493,,-2.8472937325923082,,
,7214.0,1232.0,5583.0,1399.0,-129.0,1394.0,3712.0,,,,-0.272695831217281,-2.75761597623466,-0.440234820639565,,-2.8968214386720774,,
,7213.0,1233.0,5585.0,1399.0,-139.0,1371.0,3702.0,,,,-0.272524145047569,-2.7575096253341,-0.438476784330852,,-2.913758015118822,,
,7216.0,1236.0,5583.0,1397.0,-148.0,1370.0,3702.0,,,,-0.272463192913577,-2.75764952282155,-0.438880882994726,,-2.8928825925319477,,
,7221.0,1237.0,5589.0,1400.0,-142.0,1366.0,3679.0,,,,-0.272386279941332,-2.75741846427431,-0.439430471110798,,-2.8277892917254404,,
,7221.0,1236.0,5590.0,1399.0,-137.0,1388.0,3675.0,,,,-0.272426676757853,-2.75748387475915,-0.438413554156432,,-2.711677587785296,,
,7224.0,1233.0,5588.0,1401.0,-132.0,1429.0,3693.0,,,,-0.272580539888488,-2.7575677869294,-0.439289211995583,,-2.5382280549757406,,
,7226.0,1236.0,5593.0,1401.0,-130.0,1431.0,3710.0,,,,-0.273069044839144,-2.75777645774495,-0.440050317376035,,-2.3024661188153672,,
,7226.0,1239.0,5594.0,1400.0,-131.0,1408.0,3698.0,,,,-0.273354042549649,-2.75822612740362,-0.440481236284137,,-2.001523815677195,,
,7229.0,1236.0,5597.0,1404.0,-143.0,1405.0,3684.0,,,,-0.273941049744947,-2.75854775650903,-0.441054370088534,,-1.6352272206626197,,
,7233.0,1236.0,5595.0,1401.0,-139.0,1390.0,3698.0,,,,-0.273997074917896,-2.75878984695342,-0.441225365523909,,-1.20646260376792,,
,7234.0,1238.0,5600.0,1403.0,-135.0,1396.0,3703.0,,,,-0.274095060865528,-2.75923043365831,-0.442006138342095,,-0.7213035612830744,,
,7238.0,1242.0,5603.0,1406.0,-127.0,1415.0,3722.0,,,,-0.274534028518023,-2.75957668123671,-0.442310899881171,,-0.188909217215311,,
,7239.0,1239.0,5600.0,1406.0,-129.0,1409.0,3704.0,,,,-0.274707824404797,-2.76013378375182,-0.443512056935027,,0.3787748593810049,,
,7240.0,1236.0,5604.0,1405.0,-146.0,1400.0,3683.0,,,,-0.274933441667209,-2.75992918747191,-0.442889378297727,,0.9674693116902506,,
,7236.0,1237.0,5603.0,1405.0,-133.0,1401.0,3671.0,,,,-0.275250204430879,-2.76022784121963,-0.443974314668197,,1.5611215757986936,,
,7233.0,1237.0,5600.0,1406.0,-140.0,1393.0,3686.0,,,,-0.275270651034274,-2.76039900551678,-0.444412496669508,,2.142535153767029,,
,7231.0,1237.0,5602.0,1405.0,-142.0,1395.0,3695.0,,,,-0.275753005287729,-2.76048783532698,-0.445238860081051,,2.694039509195822,,
,7221.0,1235.0,5599.0,1405.0,-133.0,1387.0,3695.0,,,,-0.275730233735613,-2.76047042932802,-0.444989822135478,,3.1981836599763587,,
,7216.0,1230.0,5595.0,1401.0,-139.0,1395.0,3684.0,,,,-0.275753826530581,-2.76033172987706,-0.444639431573345,,3.638443153733848,,
,7210.0,1231.0,5589.0,1401.0,-128.0,1387.0,3695.0,,,,-0.275656178900005,-2.76036470081396,-0.443274844363871,,3.999929765232628,,
,7200.0,1229.0,5584.0,1397.0,-127.0,1385.0,3674.0,,,,-0.275481212057967,-2.76028243141416,-0.442889166149877,,4.270086537238037,,
,7196.0,1229.0,5577.0,1397.0,-126.0,1388.0,3669.0,,,,-0.275181970781492,-2.76022124979586,-0.443287254604565,,4.43934031201608,,
