TimeLabel,MEAS1_PPG1,MEAS1_PPG2,MEAS1_PPG3,MEAS1_PPG4,ACCX,ACCY,ACCZ,HR_timestamp,HR_value,radar_timestamp,phase_rx0,phase_rx1,phase_rx2,timestep,n_process,original_rate,calculated_rate
2025-07-15 22:25:36,9203.0,1050.0,5143.0,1744.0,2174.0,3091.0,-1455.0,2025-07-15 22:25:36,106.0,2025/07/15 10:25:36 PM,-1.14460983366675,-2.97223709989048,-1.3327823567218,2025/07/15 10:25:36 PM,13.444493810853475,12.422360420227053,13.21234119782214
,9199.0,1049.0,5142.0,1742.0,2170.0,3088.0,-1472.0,2025-07-15 22:25:37,106.0,,-1.14436422477802,-2.97223669779463,-1.33322107784294,2025/07/15 10:25:46 PM,13.928010587998848,13.100436210632324,10.799031476997577
,9201.0,1048.0,5141.0,1745.0,2169.0,3090.0,-1460.0,2025-07-15 22:25:38,106.0,,-1.14489164355677,-2.97216490613406,-1.33371182366975,2025/07/15 10:25:56 PM,14.343669462190185,12.32032871246338,12.97335203366059
,9197.0,1050.0,5141.0,1743.0,2167.0,3098.0,-1462.0,2025-07-15 22:25:39,107.0,,-1.14467770399468,-2.97220497754874,-1.3320234628079,2025/07/15 10:26:06 PM,14.686143674542784,12.03852367401123,11.720983419096626
,9194.0,1049.0,5143.0,1744.0,2186.0,3077.0,-1474.0,2025-07-15 22:25:40,107.0,,-1.144924064567,-2.97220565254675,-1.33349349030986,2025/07/15 10:26:16 PM,14.949605637558061,12.19512176513672,11.654879773691658
,9195.0,1049.0,5141.0,1742.0,2171.0,3069.0,-1464.0,2025-07-15 22:25:41,107.0,,-1.14536520851328,-2.97215925965486,-1.3336446157291,2025/07/15 10:26:26 PM,15.128050030976494,12.47401237487793,12.308015989901115
,9196.0,1051.0,5145.0,1741.0,2164.0,3079.0,-1458.0,2025-07-15 22:25:42,108.0,,-1.14576319635816,-2.97223288314908,-1.33390633993729,2025/07/15 10:26:36 PM,15.215712660145474,11.88589572906494,11.114922813036024
,9196.0,1052.0,5145.0,1742.0,2165.0,3092.0,-1471.0,2025-07-15 22:25:43,108.0,,-1.14585166832274,-2.97224458285962,-1.33369988205419,2025/07/15 10:26:46 PM,15.2075566441347,11.50306797027588,11.600971417896499
,9196.0,1049.0,5143.0,1743.0,2168.0,3091.0,-1463.0,2025-07-15 22:25:44,108.0,,-1.14600335250114,-2.97240185053749,-1.33351680361714,2025/07/15 10:26:56 PM,15.099781821857459,11.529592514038086,11.126373626373631
,9194.0,1049.0,5142.0,1744.0,2171.0,3094.0,-1457.0,2025-07-15 22:25:45,109.0,,-1.1458998486303,-2.97232460327011,-1.33283381999145,2025/07/15 10:27:06 PM,14.890303157008722,11.636927604675291,10.762548262548272
,9195.0,1051.0,5143.0,1745.0,2166.0,3102.0,-1434.0,2025-07-15 22:25:46,108.0,,-1.14643751536129,-2.9722438562713,-1.33296022793391,2025/07/15 10:27:16 PM,14.57914108706712,11.424220085144045,11.1111111111111
,9197.0,1051.0,5144.0,1744.0,2171.0,3105.0,-1453.0,2025-07-15 22:25:47,107.0,,-1.14580755781394,-2.97220237614196,-1.33344714719491,2025/07/15 10:27:26 PM,14.168671649524807,10.997067451477053,10.717703349282306
,9195.0,1051.0,5144.0,1741.0,2166.0,3096.0,-1442.0,2025-07-15 22:25:48,106.0,,-1.14597645368784,-2.97234922320883,-1.33280945302644,2025/07/15 10:27:36 PM,13.663696720749938,10.830325126647947,11.374663072776269
,9194.0,1051.0,5143.0,1744.0,2171.0,3099.0,-1451.0,2025-07-15 22:25:49,106.0,,-1.1457902086687,-2.97226437305662,-1.33312305056035,2025/07/15 10:27:46 PM,13.071314013981489,11.061946868896484,9.880726484142041
,9199.0,1050.0,5143.0,1744.0,2169.0,3091.0,-1434.0,2025-07-15 22:25:50,105.0,,-1.14649015893127,-2.97230907797263,-1.3333436077296,2025/07/15 10:27:56 PM,12.400590819159042,11.037527084350586,10.16949152542372
,9198.0,1052.0,5143.0,1747.0,2165.0,3082.0,-1428.0,2025-07-15 22:25:51,105.0,,-1.14716266980001,-2.97221509226874,-1.33319017350446,2025/07/15 10:28:06 PM,11.662071870739652,10.34482765197754,10.372578241430706
,9199.0,1053.0,5143.0,1744.0,2158.0,3073.0,-1430.0,2025-07-15 22:25:52,104.0,,-1.14820573206264,-2.97230367240298,-1.33366356567171,2025/07/15 10:28:16 PM,10.867175787327113,10.118043899536133,11.024020227560046
,9198.0,1051.0,5142.0,1745.0,2158.0,3086.0,-1447.0,2025-07-15 22:25:53,103.0,,-1.1492023315964,-2.97231168497072,-1.33356648992285,2025/07/15 10:28:26 PM,10.027550712660487,10.541110038757324,11.76923076923078
,9201.0,1052.0,5146.0,1746.0,2156.0,3101.0,-1421.0,2025-07-15 22:25:54,102.0,,-1.14871741329583,-2.97228389755125,-1.33439408387494,,9.154463448543165,,
,9199.0,1054.0,5147.0,1745.0,2155.0,3088.0,-1433.0,2025-07-15 22:25:55,101.0,,-1.14892057765027,-2.97238529438761,-1.33397567416461,,8.258286480795705,,
,9200.0,1052.0,5146.0,1746.0,2160.0,3088.0,-1446.0,2025-07-15 22:25:56,99.0,,-1.14969614509533,-2.97243106237557,-1.33430624950763,,7.348127313396679,,
,9200.0,1051.0,5145.0,1744.0,2174.0,3082.0,-1446.0,2025-07-15 22:25:57,98.0,,-1.14932495096575,-2.97240951878481,-1.33432183882595,,6.431620254086424,,
,9203.0,1052.0,5144.0,1744.0,2169.0,3089.0,-1483.0,2025-07-15 22:25:58,96.0,,-1.14962726434336,-2.97245685387174,-1.33379548796506,,5.5148774574596935,,
,9200.0,1051.0,5145.0,1745.0,2170.0,3074.0,-1484.0,2025-07-15 22:25:59,94.0,,-1.1498294912125,-2.97233342290568,-1.33359465589749,,4.602576985939449,,
,9197.0,1052.0,5145.0,1746.0,2175.0,3078.0,-1481.0,2025-07-15 22:26:00,93.0,,-1.1484114940194,-2.97232012790351,-1.33333475580508,,3.6981527209626224,,
,9200.0,1051.0,5144.0,1744.0,2170.0,3082.0,-1468.0,2025-07-15 22:26:01,92.0,,-1.14844507108199,-2.97240837280173,-1.33285762186062,,2.804044895434323,,
,9200.0,1055.0,5150.0,1748.0,2171.0,3079.0,-1475.0,2025-07-15 22:26:02,92.0,,-1.14788968104317,-2.97229244118973,-1.33253229780836,,1.921970579325419,,
,9201.0,1054.0,5149.0,1748.0,2170.0,3064.0,-1460.0,2025-07-15 22:26:03,92.0,,-1.14743922897585,-2.97229145059686,-1.33179158746614,,1.0531795635497954,,
,9203.0,1053.0,5145.0,1746.0,2172.0,3064.0,-1457.0,2025-07-15 22:26:04,92.0,,-1.14705742672232,-2.97223693657998,-1.33175972723413,,0.19867120005109348,,
,9201.0,1049.0,5144.0,1746.0,2177.0,3078.0,-1446.0,2025-07-15 22:26:05,92.0,,-1.14593552408399,-2.97224000775783,-1.33154896553684,,-0.640640124536924,,
,9204.0,1053.0,5147.0,1748.0,2178.0,3077.0,-1435.0,2025-07-15 22:26:06,92.0,,-1.14562855928174,-2.97225389484292,-1.33039408730492,,-1.4638117663935093,,
,9201.0,1055.0,5148.0,1747.0,2178.0,3082.0,-1466.0,2025-07-15 22:26:07,92.0,,-1.14535473146115,-2.97226992607691,-1.33068773844147,,-2.2698048978003507,,
,9202.0,1052.0,5146.0,1748.0,2173.0,3077.0,-1469.0,2025-07-15 22:26:08,92.0,,-1.1452100699522,-2.97243288685378,-1.33093046008412,,-3.057452193422844,,
,9203.0,1052.0,5148.0,1746.0,2171.0,3065.0,-1467.0,2025-07-15 22:26:09,92.0,,-1.14480796917064,-2.97228382525425,-1.33018035983212,,-3.82545281605741,,
,9205.0,1057.0,5149.0,1748.0,2175.0,3082.0,-1455.0,2025-07-15 22:26:10,93.0,,-1.14433617241797,-2.97232231388649,-1.33032372028152,,-4.572389300822464,,
,9206.0,1053.0,5146.0,1749.0,2171.0,3080.0,-1454.0,2025-07-15 22:26:11,93.0,,-1.14455149825938,-2.97217668511353,-1.32929698585334,,-5.2967633520666375,,
,9206.0,1054.0,5149.0,1749.0,2168.0,3084.0,-1453.0,2025-07-15 22:26:12,93.0,,-1.14311996747219,-2.97225124573605,-1.32860283308751,,-5.997048906290205,,
,9209.0,1053.0,5149.0,1749.0,2155.0,3073.0,-1460.0,2025-07-15 22:26:13,93.0,,-1.14236271955349,-2.97211374702833,-1.32842826516849,,-6.671761396531818,,
,9210.0,1054.0,5150.0,1750.0,2165.0,3068.0,-1438.0,2025-07-15 22:26:14,93.0,,-1.14117040021856,-2.97201310436762,-1.32744219868657,,-7.319542213742855,,
,9210.0,1055.0,5149.0,1752.0,2162.0,3074.0,-1461.0,2025-07-15 22:26:15,93.0,,-1.14025505841056,-2.97198442339228,-1.32748471090303,,-7.939256518260455,,
,9213.0,1054.0,5151.0,1751.0,2164.0,3086.0,-1444.0,2025-07-15 22:26:16,93.0,,-1.13952007993516,-2.97209498355412,-1.32667629755279,,-8.530099928951202,,
,9215.0,1054.0,5148.0,1751.0,2170.0,3081.0,-1475.0,2025-07-15 22:26:17,93.0,,-1.13856769614213,-2.97203769044323,-1.32581460477736,,-9.091704549099097,,
,9215.0,1055.0,5149.0,1750.0,2171.0,3081.0,-1467.0,2025-07-15 22:26:18,92.0,,-1.13736423044778,-2.97194381086182,-1.32535721049437,,-9.62422788664553,,
,9217.0,1054.0,5148.0,1754.0,2164.0,3079.0,-1438.0,2025-07-15 22:26:19,92.0,,-1.13644368498304,-2.97195652582222,-1.32445419097628,,-10.128401888909474,,
,9221.0,1057.0,5152.0,1751.0,2165.0,3080.0,-1437.0,2025-07-15 22:26:20,91.0,,-1.13537618843918,-2.9718558970126,-1.32438601414836,,-10.605516896848789,,
,9223.0,1055.0,5153.0,1754.0,2170.0,3083.0,-1460.0,2025-07-15 22:26:21,91.0,,-1.13464898771263,-2.97186841800561,-1.32312640089135,,-11.057319367360739,,
,9226.0,1057.0,5154.0,1752.0,2178.0,3081.0,-1457.0,2025-07-15 22:26:22,91.0,,-1.13424542357973,-2.97178230989779,-1.32358203080487,,-11.485812956535701,,
,9229.0,1060.0,5157.0,1753.0,2174.0,3097.0,-1459.0,2025-07-15 22:26:23,91.0,,-1.13362539673446,-2.97185689835658,-1.32255438986195,,-11.892967748306905,,
,9230.0,1061.0,5154.0,1754.0,2180.0,3088.0,-1448.0,2025-07-15 22:26:24,92.0,,-1.132029171485,-2.97170074032826,-1.32208170487855,,-12.28035847799143,,
,9230.0,1059.0,5153.0,1755.0,2192.0,3081.0,-1436.0,2025-07-15 22:26:25,92.0,,-1.13194016816141,-2.97179749119544,-1.32126998258505,,-12.648766300655602,,
,9234.0,1056.0,5154.0,1756.0,2175.0,3072.0,-1467.0,2025-07-15 22:26:26,92.0,,-1.13157725354003,-2.97168039014336,-1.320791341199,,-12.997787957453339,,
,9236.0,1059.0,5156.0,1758.0,2176.0,3080.0,-1476.0,2025-07-15 22:26:27,92.0,,-1.13043322101227,-2.97159932117689,-1.32024464038639,,-13.325500137199597,,
,9238.0,1058.0,5157.0,1758.0,2175.0,3074.0,-1477.0,2025-07-15 22:26:28,91.0,,-1.13006707168027,-2.971683100549,-1.32014050655874,,-13.628225105044512,,
,9243.0,1060.0,5155.0,1759.0,2175.0,3064.0,-1468.0,2025-07-15 22:26:29,90.0,,-1.12946714388169,-2.97175714024168,-1.32002758902456,,-13.900436346138052,,
,9240.0,1059.0,5156.0,1758.0,2183.0,3062.0,-1466.0,2025-07-15 22:26:30,90.0,,-1.12885598448555,-2.97163992786695,-1.31961218532218,,-14.134830420566674,,
,9246.0,1063.0,5156.0,1759.0,2172.0,3069.0,-1477.0,2025-07-15 22:26:31,91.0,,-1.12776937549892,-2.97158385275665,-1.3189012948165,,-14.322574281138458,,
,9248.0,1060.0,5155.0,1758.0,2173.0,3077.0,-1486.0,2025-07-15 22:26:32,91.0,,-1.12731928828073,-2.97152860018268,-1.31844020102513,,-14.453717631296245,,
,9249.0,1059.0,5155.0,1759.0,2180.0,3082.0,-1492.0,2025-07-15 22:26:33,91.0,,-1.12685534126298,-2.97157562091807,-1.31816278635083,,-14.517740255876898,,
,9252.0,1062.0,5158.0,1759.0,2176.0,3095.0,-1464.0,2025-07-15 22:26:34,90.0,,-1.126571816575,-2.97157810151126,-1.31837384154564,,-14.50418812243614,,
,9255.0,1062.0,5160.0,1764.0,2170.0,3092.0,-1450.0,2025-07-15 22:26:35,90.0,,-1.12621810953579,-2.97153460737058,-1.31732292577031,,-14.403342343411863,,
,9260.0,1061.0,5161.0,1762.0,2187.0,3092.0,-1463.0,2025-07-15 22:26:36,89.0,,-1.12545031058335,-2.97153962217034,-1.31770999345966,,-14.206862850691753,,
,9260.0,1062.0,5161.0,1764.0,2182.0,3094.0,-1473.0,2025-07-15 22:26:37,89.0,,-1.12553057166111,-2.97139883358068,-1.31740341034766,,-13.908353020185183,,
,9261.0,1062.0,5158.0,1762.0,2173.0,3089.0,-1464.0,2025-07-15 22:26:38,88.0,,-1.12542615886184,-2.97153322040041,-1.31729837405994,,-13.503800932158873,,
,9268.0,1060.0,5157.0,1765.0,2169.0,3087.0,-1480.0,2025-07-15 22:26:39,88.0,,-1.12511469076917,-2.97161550466007,-1.31612011526979,,-12.991866031415956,,
,9269.0,1061.0,5158.0,1766.0,2170.0,3080.0,-1472.0,2025-07-15 22:26:40,88.0,,-1.12541038488918,-2.97148683773999,-1.31705553273245,,-12.373995243659909,,
,9270.0,1060.0,5158.0,1766.0,2168.0,3086.0,-1478.0,2025-07-15 22:26:41,88.0,,-1.12542053287111,-2.97152095593786,-1.31704977899949,,-11.654368442715276,,
,9269.0,1064.0,5158.0,1763.0,2164.0,3092.0,-1468.0,2025-07-15 22:26:42,89.0,,-1.12505542735541,-2.97155526470299,-1.31711464718963,,-10.839687827552147,,
,9270.0,1061.0,5156.0,1765.0,2159.0,3084.0,-1466.0,2025-07-15 22:26:43,88.0,,-1.12589349535453,-2.97155360248982,-1.31684892456837,,-9.93883773888734,,
,9272.0,1061.0,5158.0,1760.0,2167.0,3093.0,-1447.0,2025-07-15 22:26:44,88.0,,-1.12663565364311,-2.97147166396435,-1.31734996093966,,-8.96244934749518,,
,9270.0,1062.0,5158.0,1763.0,2165.0,3086.0,-1449.0,2025-07-15 22:26:45,88.0,,-1.12622168478275,-2.97159280581564,-1.31671693438338,,-7.9224073536771344,,
,9270.0,1063.0,5155.0,1760.0,2153.0,3068.0,-1444.0,2025-07-15 22:26:46,87.0,,-1.12631723241384,-2.9716607760874,-1.31744571761989,,-6.831333232591745,,
,9265.0,1061.0,5152.0,1760.0,2151.0,3066.0,-1451.0,2025-07-15 22:26:47,86.0,,-1.12640862250455,-2.97155120538587,-1.31747092227308,,-5.702073409158918,,
,9263.0,1062.0,5153.0,1757.0,2153.0,3083.0,-1481.0,2025-07-15 22:26:48,85.0,,-1.12613314712777,-2.97148868088918,-1.3162468033962,,-4.547214341973814,,
,9257.0,1061.0,5150.0,1759.0,2157.0,3084.0,-1490.0,2025-07-15 22:26:49,85.0,,-1.12540967389025,-2.97147730323051,-1.31688942552901,,-3.378642687559051,,
,9254.0,1058.0,5147.0,1753.0,2170.0,3084.0,-1490.0,2025-07-15 22:26:50,85.0,,-1.12518255426941,-2.9714973258611,-1.31624484893801,,-2.2071680238028013,,
,9251.0,1060.0,5148.0,1751.0,2175.0,3083.0,-1473.0,2025-07-15 22:26:51,86.0,,-1.12434742615297,-2.97149120249728,-1.31549442489431,,-1.0422263104587481,,
,9250.0,1063.0,5149.0,1753.0,2174.0,3070.0,-1460.0,2025-07-15 22:26:52,86.0,,-1.12409873697103,-2.97159446663767,-1.31510666523786,,0.10831800349435874,,
,9242.0,1061.0,5147.0,1748.0,2180.0,3073.0,-1463.0,2025-07-15 22:26:53,87.0,,-1.12395092034383,-2.97147433317883,-1.31545093702764,,1.238256258956518,,
,9239.0,1061.0,5145.0,1747.0,2177.0,3077.0,-1466.0,2025-07-15 22:26:54,88.0,,-1.1229082233624,-2.97159751153095,-1.31533077687478,,2.3429976498739324,,
,9236.0,1061.0,5143.0,1744.0,2173.0,3072.0,-1489.0,2025-07-15 22:26:55,89.0,,-1.12444602718782,-2.97157704356184,-1.31536611832547,,3.419410082066354,,
,9230.0,1059.0,5144.0,1746.0,2172.0,3067.0,-1492.0,2025-07-15 22:26:56,90.0,,-1.12366376799548,-2.97169924978104,-1.31518760338763,,4.465552702038105,,
,9229.0,1061.0,5142.0,1742.0,2172.0,3069.0,-1486.0,2025-07-15 22:26:57,90.0,,-1.12354698949183,-2.97164683568346,-1.31557285230547,,5.480325563791162,,
,9227.0,1057.0,5141.0,1741.0,2177.0,3063.0,-1486.0,2025-07-15 22:26:58,90.0,,-1.12509547152056,-2.97170620119932,-1.31594385129684,,6.463073564591147,,
,9225.0,1061.0,5141.0,1742.0,2170.0,3067.0,-1480.0,2025-07-15 22:26:59,90.0,,-1.12510519269576,-2.97164610048997,-1.3160324866843,,7.413190706269129,,
,9224.0,1060.0,5141.0,1742.0,2166.0,3076.0,-1453.0,2025-07-15 22:27:00,90.0,,-1.12559599747503,-2.97164822907024,-1.31619765222759,,8.329774665632133,,
,9224.0,1060.0,5139.0,1742.0,2164.0,3068.0,-1459.0,2025-07-15 22:27:01,90.0,,-1.12619377108452,-2.97167301637061,-1.31677942514068,,9.211378014712333,,
,9221.0,1059.0,5141.0,1742.0,2160.0,3078.0,-1446.0,2025-07-15 22:27:02,91.0,,-1.12669737851016,-2.97176377206213,-1.31645708409333,,10.05588963942596,,
,9221.0,1062.0,5138.0,1741.0,2167.0,3065.0,-1456.0,2025-07-15 22:27:03,92.0,,-1.12667096024841,-2.97183497881126,-1.3162445935629,,10.860559181819832,,
,9219.0,1063.0,5140.0,1742.0,2164.0,3066.0,-1458.0,2025-07-15 22:27:04,93.0,,-1.12720069247826,-2.97187612875281,-1.31629191922112,,11.622153057626395,,
,9218.0,1061.0,5142.0,1744.0,2166.0,3073.0,-1461.0,2025-07-15 22:27:05,95.0,,-1.12778501692432,-2.97172044130288,-1.31698298498291,,12.33720841834715,,
,9221.0,1061.0,5139.0,1741.0,2169.0,3086.0,-1472.0,2025-07-15 22:27:06,96.0,,-1.12744379295696,-2.97185010923501,-1.31672029873956,,13.002335745873925,,
,9222.0,1063.0,5141.0,1743.0,2156.0,3080.0,-1476.0,2025-07-15 22:27:07,96.0,,-1.12711121010822,-2.97198516926774,-1.31684175156819,,13.614513748956792,,
,9223.0,1062.0,5141.0,1741.0,2169.0,3074.0,-1466.0,2025-07-15 22:27:08,97.0,,-1.12753864354408,-2.97191644320222,-1.31751717777193,,14.171322394048264,,
,9224.0,1063.0,5143.0,1743.0,2177.0,3066.0,-1467.0,2025-07-15 22:27:09,97.0,,-1.12711688368171,-2.97192161563286,-1.31726210861119,,14.67107105466625,,
,9225.0,1064.0,5142.0,1745.0,2183.0,3085.0,-1478.0,2025-07-15 22:27:10,96.0,,-1.12739698900509,-2.97198457378242,-1.31617324985585,,15.11279806071826,,
,9227.0,1062.0,5144.0,1745.0,2171.0,3095.0,-1460.0,2025-07-15 22:27:11,96.0,,-1.12813761045622,-2.97194040430269,-1.31633338759015,,15.496143038886046,,
,9227.0,1062.0,5146.0,1745.0,2171.0,3081.0,-1461.0,2025-07-15 22:27:12,96.0,,-1.12903733430902,-2.97180523961599,-1.3177248573767,,15.821119825861505,,
,9227.0,1062.0,5141.0,1744.0,2171.0,3077.0,-1449.0,2025-07-15 22:27:13,95.0,,-1.12855800540799,-2.97201356052033,-1.31601644805175,,16.08783913151895,,
,9227.0,1063.0,5144.0,1744.0,2162.0,3076.0,-1437.0,2025-07-15 22:27:14,96.0,,-1.1284525458908,-2.97211465616215,-1.31703424641158,,16.296240434105815,,
,9229.0,1061.0,5143.0,1743.0,2177.0,3083.0,-1455.0,2025-07-15 22:27:15,96.0,,-1.1285227921542,-2.97212591282409,-1.31697106723086,,16.44588868040953,,
,9232.0,1063.0,5146.0,1746.0,2181.0,3088.0,-1478.0,2025-07-15 22:27:16,96.0,,-1.12900634344424,-2.97198614819265,-1.31703754312315,,16.53587488041082,,
,9235.0,1067.0,5149.0,1746.0,2162.0,3079.0,-1502.0,2025-07-15 22:27:17,97.0,,-1.1295112902469,-2.97221804123453,-1.31758733038175,,16.564836088713395,,
,9234.0,1064.0,5144.0,1747.0,2172.0,3079.0,-1518.0,2025-07-15 22:27:18,97.0,,-1.12982382130447,-2.9721808885481,-1.31703629371904,,16.53108594431719,,
,9233.0,1061.0,5143.0,1744.0,2177.0,3063.0,-1504.0,2025-07-15 22:27:19,97.0,,-1.13026901989972,-2.97217387398361,-1.31711219494593,,16.432826928013714,,
,9232.0,1065.0,5146.0,1746.0,2178.0,3059.0,-1469.0,2025-07-15 22:27:20,97.0,,-1.12949986758905,-2.97218450605381,-1.31729118830341,,16.26840292626672,,
,9237.0,1066.0,5148.0,1749.0,2176.0,3060.0,-1491.0,2025-07-15 22:27:21,97.0,,-1.12876668079028,-2.97210145899637,-1.31698740873383,,16.036547063385886,,
,9236.0,1066.0,5146.0,1748.0,2169.0,3068.0,-1504.0,2025-07-15 22:27:22,97.0,,-1.12853999698109,-2.97226434768995,-1.31671573535783,,15.736585067644384,,
,9234.0,1062.0,5143.0,1746.0,2172.0,3072.0,-1485.0,2025-07-15 22:27:23,97.0,,-1.12786848244223,-2.97217425202,-1.31704074891013,,15.36856722019655,,
,9239.0,1065.0,5145.0,1747.0,2168.0,3078.0,-1480.0,2025-07-15 22:27:24,96.0,,-1.1270198208179,-2.97208910911666,-1.31616305010802,,14.933319562999696,,
,9237.0,1063.0,5145.0,1747.0,2184.0,3081.0,-1483.0,2025-07-15 22:27:25,96.0,,-1.12575462515381,-2.97196657145508,-1.31527305810635,,14.43242384936933,,
,9235.0,1066.0,5148.0,1748.0,2176.0,3074.0,-1487.0,2025-07-15 22:27:26,96.0,,-1.12458846057828,-2.97190760710041,-1.31473010287897,,13.868151106224543,,
,9233.0,1062.0,5147.0,1749.0,2171.0,3066.0,-1484.0,2025-07-15 22:27:27,96.0,,-1.12320276061281,-2.9718764269492,-1.31470018545994,,13.243381023581419,,
,9238.0,1067.0,5145.0,1747.0,2176.0,3078.0,-1490.0,2025-07-15 22:27:28,96.0,,-1.12253108514486,-2.97195811085931,-1.31332647028789,,12.561536255145217,,
,9242.0,1064.0,5148.0,1749.0,2184.0,3075.0,-1453.0,2025-07-15 22:27:29,96.0,,-1.12180778449635,-2.97195285524165,-1.31336286722225,,11.82654872090849,,
,9242.0,1064.0,5146.0,1748.0,2176.0,3070.0,-1470.0,2025-07-15 22:27:30,97.0,,-1.12085243603636,-2.97196473217162,-1.31312990464432,,11.042859140077663,,
,9239.0,1063.0,5147.0,1749.0,2173.0,3069.0,-1479.0,2025-07-15 22:27:31,98.0,,-1.11927217837814,-2.97181692064199,-1.31166766824218,,10.215436731544758,,
,9240.0,1065.0,5149.0,1749.0,2175.0,3070.0,-1483.0,2025-07-15 22:27:32,99.0,,-1.11885037289992,-2.9719209749869,-1.31194107025643,,9.349796800779375,,
,9245.0,1064.0,5145.0,1748.0,2169.0,3085.0,-1470.0,2025-07-15 22:27:33,99.0,,-1.11806919603504,-2.9718157885191,-1.31095499945137,,8.45199103202685,,
,9248.0,1066.0,5149.0,1751.0,2174.0,3080.0,-1471.0,2025-07-15 22:27:34,98.0,,-1.1182889939199,-2.97176812498089,-1.31185014570015,,7.528548467927188,,
,9248.0,1067.0,5151.0,1751.0,2180.0,3084.0,-1498.0,2025-07-15 22:27:35,98.0,,-1.11769877842921,-2.97175067550954,-1.31156254267428,,6.586353300980347,,
,9247.0,1065.0,5151.0,1748.0,2167.0,3076.0,-1498.0,2025-07-15 22:27:36,97.0,,-1.11772409701461,-2.97174471540966,-1.31149735116396,,5.6324572953925465,,
,9250.0,1066.0,5148.0,1750.0,2164.0,3071.0,-1504.0,2025-07-15 22:27:37,96.0,,-1.1169951357491,-2.9718144553881,-1.31091851858546,,4.673838337968262,,
,9251.0,1065.0,5151.0,1749.0,2169.0,3069.0,-1496.0,2025-07-15 22:27:38,95.0,,-1.1165647510258,-2.97193854298977,-1.31084168709405,,3.717130167286279,,
,9251.0,1063.0,5149.0,1750.0,2173.0,3081.0,-1473.0,2025-07-15 22:27:39,94.0,,-1.11627510350051,-2.97180346532457,-1.31057573857333,,2.7683585038323075,,
,9254.0,1066.0,5151.0,1752.0,2167.0,3085.0,-1479.0,2025-07-15 22:27:40,94.0,,-1.11559172176951,-2.97186544517588,-1.31035308803062,,1.832721842613396,,
,9258.0,1068.0,5152.0,1754.0,2161.0,3077.0,-1482.0,2025-07-15 22:27:41,93.0,,-1.11449559764143,-2.97180915187766,-1.30996341667258,,0.9144490820089862,,
,9258.0,1067.0,5154.0,1752.0,2166.0,3079.0,-1471.0,2025-07-15 22:27:42,94.0,,-1.11423742910143,-2.97184751085414,-1.30889587600617,,0.016752625012610243,,
,9259.0,1069.0,5154.0,1751.0,2160.0,3078.0,-1483.0,2025-07-15 22:27:43,94.0,,-1.11285135333212,-2.97168215768649,-1.30907877282517,,-0.8581208878798029,,
2025-07-15 22:25:37,9261.0,1067.0,5154.0,1753.0,2153.0,3083.0,-1484.0,2025-07-15 22:27:44,95.0,2025/07/15 10:25:37 PM,-1.11221586955138,-2.97174432090014,-1.30881213075945,,-1.708755000152018,,
,9265.0,1069.0,5157.0,1755.0,2168.0,3072.0,-1466.0,2025-07-15 22:27:45,95.0,,-1.11168028515956,-2.97169067519194,-1.30866829637256,,-2.5343667831210426,,
,9268.0,1068.0,5158.0,1753.0,2178.0,3063.0,-1476.0,2025-07-15 22:27:46,95.0,,-1.11131683617635,-2.97157582801113,-1.30785325139599,,-3.3345793078784975,,
,9270.0,1066.0,5155.0,1758.0,2176.0,3059.0,-1471.0,2025-07-15 22:27:47,96.0,,-1.11051623740556,-2.97174721248913,-1.30771876809175,,-4.1091954756045475,,
,9271.0,1067.0,5155.0,1756.0,2179.0,3074.0,-1481.0,2025-07-15 22:27:48,95.0,,-1.11012808002916,-2.97156643019478,-1.30726984167872,,-4.858003219326166,,
,9276.0,1070.0,5159.0,1757.0,2177.0,3062.0,-1493.0,2025-07-15 22:27:49,95.0,,-1.10899484656457,-2.97165341474961,-1.30725552669342,,-5.580635768836557,,
,9274.0,1071.0,5159.0,1757.0,2180.0,3060.0,-1503.0,2025-07-15 22:27:50,95.0,,-1.10878970314475,-2.97154001448442,-1.30623624112723,,-6.276500579619286,,
,9279.0,1071.0,5160.0,1760.0,2179.0,3066.0,-1480.0,2025-07-15 22:27:51,95.0,,-1.10750876033321,-2.97145654413512,-1.30537309940149,,-6.944777743053763,,
,9277.0,1069.0,5161.0,1759.0,2178.0,3070.0,-1475.0,2025-07-15 22:27:52,95.0,,-1.10690198335875,-2.97148524771654,-1.30578679107494,,-7.584475674615316,,
,9282.0,1071.0,5162.0,1758.0,2175.0,3070.0,-1467.0,2025-07-15 22:27:53,96.0,,-1.10640322888663,-2.97137847906403,-1.30475767500459,,-8.194522320986396,,
,9286.0,1070.0,5160.0,1759.0,2184.0,3075.0,-1478.0,2025-07-15 22:27:54,96.0,,-1.10527970900945,-2.9714208200368,-1.30502843231019,,-8.773867347209999,,
,9288.0,1069.0,5161.0,1761.0,2185.0,3086.0,-1463.0,2025-07-15 22:27:55,96.0,,-1.10417558701129,-2.97128261498501,-1.30423349424233,,-9.3215753966963,,
,9289.0,1069.0,5163.0,1759.0,2179.0,3099.0,-1465.0,2025-07-15 22:27:56,95.0,,-1.10285997021426,-2.97139980438767,-1.30381500671028,,-9.836899854394149,,
,9291.0,1070.0,5163.0,1763.0,2178.0,3080.0,-1464.0,2025-07-15 22:27:57,94.0,,-1.10274063803785,-2.97130214274885,-1.3035124154386,,-10.31933636247677,,
,9297.0,1075.0,5163.0,1764.0,2178.0,3066.0,-1481.0,2025-07-15 22:27:58,94.0,,-1.1019021233007,-2.97117281002822,-1.30276509093741,,-10.76866233310377,,
,9297.0,1074.0,5164.0,1763.0,2177.0,3069.0,-1481.0,2025-07-15 22:27:59,93.0,,-1.1012195037834,-2.9712970777129,-1.30241797201055,,-11.184971518156331,,
,9296.0,1069.0,5163.0,1763.0,2180.0,3074.0,-1448.0,2025-07-15 22:28:00,93.0,,-1.100802615226,-2.97127900384482,-1.30251494383593,,-11.568711546830457,,
,9299.0,1072.0,5164.0,1765.0,2169.0,3067.0,-1479.0,2025-07-15 22:28:01,92.0,,-1.09922564382699,-2.97112021779692,-1.30204068766099,,-11.920728257350373,,
,9301.0,1072.0,5164.0,1762.0,2173.0,3078.0,-1491.0,2025-07-15 22:28:02,92.0,,-1.09947354644067,-2.97119674580902,-1.30215201666448,,-12.242314893592178,,
,9301.0,1071.0,5164.0,1761.0,2161.0,3081.0,-1487.0,2025-07-15 22:28:03,93.0,,-1.09917077132988,-2.97111328002717,-1.301339814974,,-12.535257929079608,,
,9303.0,1071.0,5161.0,1762.0,2142.0,3068.0,-1479.0,2025-07-15 22:28:04,94.0,,-1.09935355117181,-2.97115093934766,-1.30125012056772,,-12.801865273501086,,
,9299.0,1070.0,5158.0,1760.0,2157.0,3062.0,-1497.0,2025-07-15 22:28:05,95.0,,-1.09950737270426,-2.97116076716832,-1.30223279676313,,-13.044957862234108,,
,9296.0,1072.0,5159.0,1759.0,2162.0,3060.0,-1499.0,2025-07-15 22:28:06,95.0,,-1.09982022550494,-2.97120579038654,-1.30202470043417,,-13.267803712744175,,
,9294.0,1072.0,5156.0,1758.0,2173.0,3065.0,-1499.0,2025-07-15 22:28:07,96.0,,-1.09972901327893,-2.97130231829066,-1.30254590948928,,-13.473976458851268,,
,9290.0,1070.0,5156.0,1752.0,2185.0,3068.0,-1488.0,2025-07-15 22:28:08,97.0,,-1.09994374556294,-2.97133654334385,-1.30149407002817,,-13.667129246608837,,
,9289.0,1069.0,5155.0,1753.0,2179.0,3067.0,-1491.0,2025-07-15 22:28:09,97.0,,-1.09908732828341,-2.97131063724591,-1.30111119333271,,-13.85068857312411,,
,9284.0,1072.0,5154.0,1751.0,2171.0,3076.0,-1494.0,2025-07-15 22:28:10,97.0,,-1.09834825683747,-2.9712516004908,-1.30097833317655,,-14.027488040741854,,
,9277.0,1070.0,5151.0,1749.0,2173.0,3071.0,-1479.0,2025-07-15 22:28:11,97.0,,-1.09862921169845,-2.9711434745949,-1.30072398619856,,-14.199375600955742,,
,9269.0,1068.0,5151.0,1746.0,2182.0,3073.0,-1486.0,2025-07-15 22:28:12,97.0,,-1.09758574346977,-2.97115575699809,-1.30010672391523,,-14.366837276273563,,
,9268.0,1067.0,5148.0,1744.0,2196.0,3065.0,-1494.0,2025-07-15 22:28:13,97.0,,-1.09693936142719,-2.97108149803519,-1.2999052595766,,-14.528684433755474,,
,9261.0,1069.0,5150.0,1744.0,2185.0,3066.0,-1497.0,2025-07-15 22:28:14,98.0,,-1.09625367732049,-2.9710305025338,-1.30032941273207,,-14.68185004713296,,
,9259.0,1068.0,5148.0,1740.0,2181.0,3063.0,-1504.0,2025-07-15 22:28:15,99.0,,-1.09742712707883,-2.9710062414413,-1.30079156299584,,-14.821332023177138,,
,9254.0,1067.0,5146.0,1738.0,2194.0,3065.0,-1480.0,2025-07-15 22:28:16,99.0,,-1.097502826925,-2.97118261023149,-1.30003589739866,,-14.94030890611499,,
,9254.0,1068.0,5146.0,1739.0,2189.0,3059.0,-1497.0,2025-07-15 22:28:17,100.0,,-1.09651389900897,-2.97116488449545,-1.29970577470193,,-15.030435845385359,,
,9248.0,1068.0,5147.0,1739.0,2195.0,3060.0,-1503.0,2025-07-15 22:28:18,99.0,,-1.09834979154206,-2.97109465030824,-1.30025428627431,,-15.082308024769503,,
,9245.0,1067.0,5146.0,1738.0,2178.0,3059.0,-1489.0,2025-07-15 22:28:19,98.0,,-1.09917983066821,-2.97108707746123,-1.30071527585561,,-15.086057276287628,,
,9245.0,1067.0,5145.0,1737.0,2211.0,3077.0,-1482.0,2025-07-15 22:28:20,98.0,,-1.09904900961886,-2.97107661343041,-1.30097190500235,,-15.032028916346857,,
,9241.0,1064.0,5146.0,1737.0,2202.0,3072.0,-1452.0,2025-07-15 22:28:21,97.0,,-1.09858813574568,-2.97107150734062,-1.30024316556376,,-14.91147373548682,,
,9241.0,1069.0,5146.0,1735.0,2193.0,3076.0,-1460.0,2025-07-15 22:28:22,96.0,,-1.09845394855493,-2.97108729565491,-1.30011249865605,,-14.717186987577996,,
,9239.0,1067.0,5146.0,1734.0,2191.0,3070.0,-1461.0,2025-07-15 22:28:23,95.0,,-1.09809399880718,-2.97107440197849,-1.30010986281475,,-14.444032291678912,,
,9238.0,1067.0,5146.0,1735.0,2189.0,3063.0,-1460.0,2025-07-15 22:28:24,95.0,,-1.09735612819879,-2.97112427881411,-1.3000193920213,,-14.089301898216517,,
,9237.0,1069.0,5145.0,1737.0,2179.0,3062.0,-1492.0,2025-07-15 22:28:25,95.0,,-1.09634506054173,-2.9710588544041,-1.30039216203875,,-13.652883440901865,,
,9239.0,1067.0,5147.0,1738.0,2175.0,3079.0,-1471.0,2025-07-15 22:28:26,95.0,,-1.094858831889,-2.97101538652014,-1.29856524142385,,-13.137224626239721,,
,9236.0,1068.0,5146.0,1737.0,2183.0,3085.0,-1458.0,2025-07-15 22:28:27,95.0,,-1.09424280976769,-2.97101957557603,-1.29820285907283,,-12.547108617955708,,
,9239.0,1068.0,5145.0,1736.0,2169.0,3065.0,-1470.0,2025-07-15 22:28:28,94.0,,-1.0931794921993,-2.97105931935553,-1.29745786224703,,-11.88927142958179,,
,9236.0,1069.0,5143.0,1737.0,2180.0,3068.0,-1478.0,2025-07-15 22:28:29,94.0,,-1.09204456910433,-2.97087815277049,-1.29753598065242,,-11.171906204334386,,
,9240.0,1067.0,5146.0,1737.0,2176.0,3057.0,-1460.0,2025-07-15 22:28:30,93.0,,-1.09125201310797,-2.97093128412576,-1.2975466155523,,-10.404106371225291,,
,9241.0,1068.0,5145.0,1738.0,2160.0,3077.0,-1478.0,2025-07-15 22:28:31,92.0,,-1.09129938291393,-2.97077068270265,-1.29703305038266,,-9.595299705812312,,
,9243.0,1070.0,5148.0,1740.0,2166.0,3073.0,-1493.0,2025-07-15 22:28:32,92.0,,-1.0915181856077,-2.97089684279767,-1.29755328355927,,-8.754718896253816,,
,9242.0,1066.0,5146.0,1735.0,2170.0,3077.0,-1500.0,2025-07-15 22:28:33,92.0,,-1.0921949777051,-2.97095168193934,-1.29765160978556,,-7.8909435423064735,,
,9244.0,1066.0,5144.0,1737.0,2163.0,3071.0,-1492.0,2025-07-15 22:28:34,92.0,,-1.09217798166173,-2.97094058736239,-1.29718302240725,,-7.011536848083264,,
,9245.0,1068.0,5149.0,1739.0,2181.0,3069.0,-1492.0,2025-07-15 22:28:35,91.0,,-1.09312103322261,-2.97094214008858,-1.29815612733973,,-6.122790211810313,,
,9243.0,1071.0,5150.0,1740.0,2178.0,3065.0,-1480.0,,,,-1.09391779504203,-2.97092364911645,-1.29838651040004,,-5.229581225345791,,
,9244.0,1068.0,5146.0,1735.0,2184.0,3066.0,-1459.0,,,,-1.09407058966745,-2.97098608225406,-1.29829115817333,,-4.335344665464086,,
,9244.0,1071.0,5146.0,1738.0,2173.0,3073.0,-1463.0,,,,-1.09445871513424,-2.97104184002347,-1.29806486240755,,-3.4421511584218796,,
,9246.0,1068.0,5146.0,1742.0,2185.0,3067.0,-1495.0,,,,-1.09509765535892,-2.97095418789847,-1.29810643614886,,-2.5508839737184794,,
,9246.0,1069.0,5148.0,1739.0,2181.0,3070.0,-1495.0,,,,-1.09483114178323,-2.97090751425011,-1.29827790083996,,-1.661500559236974,,
,9247.0,1066.0,5144.0,1740.0,2178.0,3069.0,-1498.0,,,,-1.09488296445444,-2.97091190512891,-1.29784544015963,,-0.7733615097932922,,
,9246.0,1069.0,5146.0,1738.0,2183.0,3065.0,-1498.0,,,,-1.09504639347575,-2.9709822839668,-1.2979727845416,,0.11439477124909872,,
,9245.0,1068.0,5148.0,1739.0,2176.0,3073.0,-1494.0,,,,-1.0942146742013,-2.9708957522781,-1.29762819212144,,1.002458561639667,,
,9245.0,1068.0,5146.0,1739.0,2168.0,3077.0,-1478.0,,,,-1.0940394807376,-2.97096463291479,-1.29739088282426,,1.890968754427072,,
,9243.0,1067.0,5145.0,1738.0,2173.0,3076.0,-1459.0,,,,-1.0943955173434,-2.97082302650162,-1.296882451758,,2.779183098096486,,
,9245.0,1069.0,5148.0,1739.0,2166.0,3082.0,-1492.0,,,,-1.09427200965765,-2.97078777950978,-1.29728413531293,,3.6652369342553577,,
,9246.0,1068.0,5148.0,1738.0,2174.0,3077.0,-1498.0,,,,-1.09293458645999,-2.97084425100933,-1.29604780142725,,4.546024133168213,,
,9247.0,1069.0,5149.0,1738.0,2184.0,3070.0,-1486.0,,,,-1.09272071228156,-2.97074055071773,-1.29646377874735,,5.4172226023868,,
,9247.0,1067.0,5148.0,1736.0,2171.0,3072.0,-1471.0,,,,-1.09275470644439,-2.97077789448986,-1.29644737697216,,6.273470045443084,,
,9246.0,1071.0,5148.0,1738.0,2164.0,3076.0,-1484.0,,,,-1.09225921748506,-2.97093985940309,-1.29642114521849,,7.10867657992741,,
,9248.0,1070.0,5150.0,1738.0,2173.0,3074.0,-1474.0,,,,-1.09145386355221,-2.97068169056369,-1.29578366765469,,7.916442419905811,,
,9246.0,1068.0,5149.0,1740.0,2176.0,3067.0,-1467.0,,,,-1.09084145298369,-2.97059168465319,-1.29546471396185,,8.690533623510312,,
,9248.0,1069.0,5148.0,1737.0,2168.0,3081.0,-1472.0,,,,-1.09032740320232,-2.97060039383223,-1.29542424778897,,9.425359349524921,,
,9247.0,1067.0,5148.0,1739.0,2165.0,3080.0,-1490.0,,,,-1.0899333188532,-2.97060829205112,-1.29560640731747,,10.116392650591543,,
,9251.0,1070.0,5152.0,1739.0,2178.0,3069.0,-1463.0,,,,-1.08839333313503,-2.97047126039824,-1.29388427390675,,10.760485278064476,,
,9252.0,1068.0,5150.0,1740.0,2178.0,3062.0,-1459.0,,,,-1.08721299384904,-2.97068297555887,-1.29418059841129,,11.356044880357777,,
,9253.0,1070.0,5154.0,1740.0,2170.0,3059.0,-1472.0,,,,-1.08594730647616,-2.97055399360151,-1.29344413300685,,11.903066834431971,,
,9252.0,1068.0,5151.0,1740.0,2172.0,3062.0,-1451.0,,,,-1.08386886083223,-2.97052990398828,-1.29260018524125,,12.403036474110905,,
,9256.0,1068.0,5151.0,1742.0,2175.0,3069.0,-1471.0,,,,-1.08296430868929,-2.97023200245332,-1.29174493131772,,12.858733804947759,,
,9257.0,1070.0,5154.0,1744.0,2205.0,3069.0,-1462.0,,,,-1.08172906205862,-2.97023304039751,-1.29082694079996,,13.273977752840098,,
,9257.0,1070.0,5154.0,1741.0,2199.0,3068.0,-1473.0,,,,-1.08033779815035,-2.97020389515874,-1.29042383584002,,13.653341130518413,,
,9258.0,1068.0,5155.0,1741.0,2193.0,3063.0,-1479.0,,,,-1.07971019146717,-2.97037831871059,-1.29043633036801,,14.001855178285913,,
,9261.0,1071.0,5157.0,1745.0,2193.0,3055.0,-1484.0,,,,-1.07832758148578,-2.97017085948941,-1.28965347098086,,14.32470914251795,,
,9264.0,1071.0,5157.0,1746.0,2195.0,3063.0,-1477.0,,,,-1.07798524977593,-2.97001571458926,-1.28967025039696,,14.626940257604346,,
,9267.0,1069.0,5157.0,1744.0,2193.0,3067.0,-1477.0,,,,-1.07724968491225,-2.97009387536554,-1.28932389635426,,14.913105501521011,,
,9266.0,1068.0,5158.0,1742.0,2199.0,3055.0,-1461.0,,,,-1.0765685966961,-2.97012672041847,-1.28928377426357,,15.186929882365776,,
,9267.0,1069.0,5157.0,1746.0,2220.0,3065.0,-1457.0,,,,-1.07628750515881,-2.97015086724436,-1.28901875089961,,15.450936368789112,,
,9270.0,1071.0,5162.0,1746.0,2205.0,3076.0,-1482.0,,,,-1.07708931048185,-2.97008200404739,-1.28868047280058,,15.706077662347854,,
,9273.0,1072.0,5160.0,1746.0,2200.0,3064.0,-1489.0,,,,-1.07636689292134,-2.97007973424714,-1.28837697292166,,15.951405884905414,,
,9273.0,1067.0,5158.0,1744.0,2203.0,3060.0,-1463.0,,,,-1.07737127753126,-2.97005880034511,-1.28892893648819,,16.18382779912238,,
,9272.0,1070.0,5161.0,1747.0,2196.0,3058.0,-1457.0,,,,-1.07751991988902,-2.9701078432569,-1.28937067579339,,16.397995490758863,,
,9277.0,1074.0,5163.0,1752.0,2202.0,3075.0,-1467.0,,,,-1.07789159918503,-2.9700670184812,-1.28998774003799,,16.586373092176434,,
,9280.0,1069.0,5163.0,1750.0,2200.0,3075.0,-1451.0,,,,-1.07829081040668,-2.9701174682033,-1.28928611123473,,16.739500767218303,,
,9280.0,1071.0,5162.0,1751.0,2199.0,3074.0,-1441.0,,,,-1.07777265041317,-2.97006665132077,-1.28954339856848,,16.846452641686433,,
,9284.0,1070.0,5161.0,1749.0,2200.0,3073.0,-1461.0,,,,-1.07758440146689,-2.97015471711672,-1.28931652433189,,16.895460844674442,,
,9286.0,1072.0,5165.0,1753.0,2204.0,3071.0,-1458.0,,,,-1.07788653921505,-2.97001178520335,-1.28955118259395,,16.874656886207188,,
,9289.0,1072.0,5166.0,1752.0,2195.0,3075.0,-1458.0,,,,-1.0770825838656,-2.96994249082809,-1.2890781750726,,16.772866356152953,,
,9288.0,1072.0,5164.0,1754.0,2185.0,3078.0,-1465.0,,,,-1.07775564952501,-2.9700439060885,-1.28990349189786,,16.580385022867006,,
,9293.0,1073.0,5164.0,1752.0,2190.0,3068.0,-1469.0,,,,-1.07770551118342,-2.9701619745784,-1.29051737683803,,16.28966521954263,,
,9294.0,1074.0,5166.0,1752.0,2178.0,3068.0,-1464.0,,,,-1.07904318819156,-2.97008114652037,-1.2903106309324,,15.895851636797884,,
,9291.0,1073.0,5168.0,1754.0,2174.0,3072.0,-1457.0,,,,-1.08103544054094,-2.97016005736546,-1.29153121157842,,15.397124661358621,,
,9294.0,1071.0,5165.0,1752.0,2182.0,3064.0,-1437.0,,,,-1.08172478480727,-2.9702369951498,-1.29106653975695,,14.79483449921416,,
,9294.0,1071.0,5164.0,1752.0,2164.0,3074.0,-1437.0,,,,-1.0820833467394,-2.97023859034798,-1.29275479094054,,14.093435437918155,,
,9292.0,1075.0,5165.0,1752.0,2164.0,3072.0,-1439.0,,,,-1.08453939148107,-2.97027437617397,-1.29297462073332,,13.300250527113246,,
,9291.0,1072.0,5163.0,1752.0,2166.0,3072.0,-1448.0,,,,-1.08574094169969,-2.97037300513074,-1.29383557391371,,12.42510805115606,,
,9288.0,1071.0,5159.0,1748.0,2184.0,3080.0,-1457.0,,,,-1.08568459813394,-2.97047849015724,-1.29398042603437,,11.479891759683115,,
,9284.0,1069.0,5158.0,1747.0,2188.0,3065.0,-1488.0,,,,-1.0874435144376,-2.97045142153117,-1.29442552016956,,10.478039986953897,,
,9279.0,1071.0,5159.0,1744.0,2164.0,3052.0,-1454.0,,,,-1.08882564887136,-2.97049150472876,-1.29496358801073,,9.434018867566452,,
,9273.0,1073.0,5156.0,1743.0,2167.0,3060.0,-1477.0,,,,-1.08919963903616,-2.97049709032882,-1.29583791464863,,8.362785309730796,,
,9266.0,1070.0,5156.0,1739.0,2166.0,3073.0,-1500.0,,,,-1.08912773159143,-2.97058098975297,-1.29564981532455,,7.279248374370036,,
,9262.0,1068.0,5152.0,1735.0,2169.0,3066.0,-1504.0,,,,-1.08990449594464,-2.97047258149717,-1.29641255725467,,6.197734511732477,,
,9254.0,1074.0,5154.0,1736.0,2185.0,3077.0,-1496.0,,,,-1.09065344507951,-2.97059187654218,-1.29720769657559,,5.131463493938397,,
,9248.0,1068.0,5152.0,1732.0,2187.0,3078.0,-1468.0,,,,-1.09077440926898,-2.97052252318374,-1.29675265466155,,4.092048124426796,,
,9244.0,1069.0,5151.0,1732.0,2184.0,3076.0,-1474.0,,,,-1.09169010749149,-2.97064338285328,-1.29740511496971,,3.089041203629252,,
,9235.0,1067.0,5148.0,1728.0,2194.0,3063.0,-1481.0,,,,-1.09352189212313,-2.97057800707219,-1.29758462073893,,2.129565180714412,,
,9230.0,1068.0,5148.0,1726.0,2191.0,3068.0,-1486.0,,,,-1.09487067129466,-2.97068795630409,-1.29823405798349,,1.2180684657218068,,
,9228.0,1067.0,5149.0,1727.0,2181.0,3073.0,-1481.0,,,,-1.09623198332333,-2.97065621320878,-1.29970638537826,,0.35625171208138107,,
,9223.0,1066.0,5148.0,1727.0,2178.0,3065.0,-1496.0,,,,-1.09760359219279,-2.97081888922432,-1.30009223475732,,-0.4568058311403446,,
,9214.0,1064.0,5146.0,1720.0,2190.0,3074.0,-1492.0,,,,-1.09919982662556,-2.97082679984046,-1.30057812538324,,-1.2243140796282428,,
,9214.0,1063.0,5144.0,1722.0,2180.0,3065.0,-1465.0,,,,-1.09998484531685,-2.9709591858618,-1.30130829021205,,-1.951257953941075,,
,9212.0,1066.0,5149.0,1725.0,2168.0,3067.0,-1478.0,,,,-1.10152060136855,-2.97110692092835,-1.3021708597889,,-2.643753445192917,,
,9208.0,1066.0,5147.0,1723.0,2165.0,3067.0,-1474.0,,,,-1.10247530185568,-2.97096925275762,-1.30279099761416,,-3.3083462065336064,,
,9208.0,1067.0,5148.0,1723.0,2180.0,3068.0,-1477.0,,,,-1.10259839616998,-2.97102459002971,-1.3032272884575,,-3.951332886026142,,
,9205.0,1064.0,5146.0,1722.0,2170.0,3067.0,-1473.0,,,,-1.10283091272009,-2.97104739532686,-1.30346270402269,,-4.57818005605612,,
,9208.0,1067.0,5151.0,1722.0,2174.0,3071.0,-1486.0,,,,-1.10313358039296,-2.97113526507683,-1.30325465486776,,-5.193098975845975,,
,9204.0,1066.0,5149.0,1725.0,2174.0,3078.0,-1481.0,,,,-1.10351742874165,-2.97103070536364,-1.30310428808068,,-5.798810274965728,,
,9200.0,1066.0,5147.0,1721.0,2167.0,3064.0,-1470.0,,,,-1.10290704018215,-2.97111749587867,-1.30365848851065,,-6.3965049782652486,,
,9202.0,1066.0,5147.0,1723.0,2175.0,3073.0,-1468.0,,,,-1.102743171165,-2.9710154499232,-1.30398118702537,,-6.985980949625216,,
,9203.0,1066.0,5149.0,1724.0,2178.0,3066.0,-1458.0,,,,-1.10228382718878,-2.97095963598051,-1.30293749754047,,-7.5659108499334184,,
,9203.0,1068.0,5149.0,1725.0,2177.0,3070.0,-1440.0,,,,-1.10180344924488,-2.97099158100232,-1.30315035670823,,-8.134183433327648,,
,9202.0,1065.0,5148.0,1724.0,2166.0,3064.0,-1454.0,,,,-1.10158133953993,-2.97096613243398,-1.30290192918567,,-8.688257858995868,,
2025-07-15 22:25:38,9205.0,1066.0,5149.0,1726.0,2191.0,3073.0,-1490.0,,,2025/07/15 10:25:38 PM,-1.10110257294195,-2.97098949256188,-1.30305121219163,,-9.22548085480687,,
,9207.0,1069.0,5152.0,1725.0,2200.0,3077.0,-1472.0,,,,-1.10198720111193,-2.97104880139938,-1.30364916835834,,-9.743335042820588,,
,9204.0,1070.0,5152.0,1726.0,2189.0,3082.0,-1480.0,,,,-1.10224742782976,-2.97101128959553,-1.30378741942803,,-10.23960734936914,,
,9204.0,1069.0,5150.0,1725.0,2175.0,3083.0,-1494.0,,,,-1.10318537462954,-2.97102964739379,-1.30442242647568,,-10.712483870595754,,
,9201.0,1065.0,5151.0,1724.0,2192.0,3085.0,-1497.0,,,,-1.10398837355291,-2.97099646481368,-1.30450866159566,,-11.160588866079621,,
,9201.0,1067.0,5153.0,1725.0,2183.0,3070.0,-1472.0,,,,-1.10484144151743,-2.97108555259701,-1.30488602815756,,-11.582989780457215,,
,9204.0,1071.0,5152.0,1722.0,2181.0,3068.0,-1449.0,,,,-1.10556284284206,-2.97122000315495,-1.30532127209512,,-11.97918790290992,,
,9202.0,1066.0,5151.0,1723.0,2181.0,3049.0,-1457.0,,,,-1.10642400722727,-2.97116993178493,-1.30621039916346,,-12.349107117488547,,
,9202.0,1069.0,5153.0,1723.0,2176.0,3052.0,-1485.0,,,,-1.1076512510864,-2.97116559694413,-1.30627925359077,,-12.693083387502151,,
,9202.0,1069.0,5150.0,1725.0,2191.0,3077.0,-1480.0,,,,-1.1073349614362,-2.97140769197079,-1.30670238667782,,-13.011847386653926,,
,9203.0,1067.0,5154.0,1723.0,2199.0,3079.0,-1473.0,,,,-1.10829154726395,-2.97142708502057,-1.30703294387336,,-13.306484132864663,,
,9204.0,1069.0,5154.0,1726.0,2203.0,3080.0,-1462.0,,,,-1.10860789596356,-2.97129580415427,-1.30789063245549,,-13.578348733911826,,
,9201.0,1066.0,5154.0,1725.0,2192.0,3066.0,-1471.0,,,,-1.1093633868702,-2.97153031328957,-1.30809867591626,,-13.828918578176086,,
,9198.0,1069.0,5152.0,1725.0,2204.0,3059.0,-1470.0,,,,-1.10981596286765,-2.97139079663295,-1.30825326985524,,-14.05957089985273,,
,9202.0,1068.0,5152.0,1724.0,2210.0,3064.0,-1513.0,,,,-1.11066734681364,-2.97155363326182,-1.30896142251246,,-14.271289884112655,,
,9199.0,1068.0,5156.0,1723.0,2207.0,3063.0,-1504.0,,,,-1.11135079561278,-2.97157180702416,-1.3082033798717,,-14.464325910254049,,
,9200.0,1066.0,5155.0,1726.0,2201.0,3063.0,-1467.0,,,,-1.11214357789448,-2.97139192014425,-1.30933514006409,,-14.637846277961632,,
,9201.0,1068.0,5152.0,1724.0,2188.0,3069.0,-1475.0,,,,-1.11256785283266,-2.97153014695878,-1.30941141668763,,-14.789627657365749,,
,9204.0,1070.0,5155.0,1725.0,2191.0,3075.0,-1485.0,,,,-1.11406438180651,-2.97155211628327,-1.31063902177646,,-14.91584332544034,,
,9205.0,1068.0,5158.0,1725.0,2193.0,3074.0,-1487.0,,,,-1.11471802781104,-2.97174349000213,-1.31049493328635,,-15.010992590450918,,
,9202.0,1070.0,5155.0,1726.0,2187.0,3071.0,-1462.0,,,,-1.11591836837764,-2.9716900757477,-1.31127009354712,,-15.068006445082926,,
,9201.0,1069.0,5157.0,1724.0,2173.0,3073.0,-1455.0,,,,-1.11710359408963,-2.9717534762384,-1.31193156448423,,-15.078543997488174,,
,9203.0,1072.0,5161.0,1729.0,2175.0,3076.0,-1464.0,,,,-1.1179445791777,-2.97178215700118,-1.31292263173765,,-15.033470788511831,,
,9204.0,1070.0,5160.0,1728.0,2177.0,3070.0,-1461.0,,,,-1.11982297311562,-2.97186350127252,-1.31343117217622,,-14.923485361631935,,
,9205.0,1068.0,5158.0,1727.0,2186.0,3083.0,-1452.0,,,,-1.1203983318789,-2.97198836442251,-1.31385419361471,,-14.739837440690643,,
,9205.0,1068.0,5160.0,1728.0,2173.0,3075.0,-1474.0,,,,-1.12078477593665,-2.97200444750837,-1.31460995724505,,-14.475063261105683,,
,9207.0,1071.0,5161.0,1729.0,2170.0,3069.0,-1480.0,,,,-1.12206191645276,-2.97199696387934,-1.31556002599423,,-14.123654840788053,,
,9209.0,1070.0,5163.0,1729.0,2170.0,3076.0,-1493.0,,,,-1.12210242263578,-2.97204361648485,-1.31533911113394,,-13.682583614375304,,
,9212.0,1071.0,5162.0,1730.0,2184.0,3084.0,-1477.0,,,,-1.12334572869731,-2.97213048774955,-1.31585461618626,,-13.151615900218689,,
,9211.0,1071.0,5162.0,1729.0,2187.0,3074.0,-1484.0,,,,-1.12365736597501,-2.9719885054921,-1.31643530472635,,-12.533385375829445,,
,9213.0,1073.0,5164.0,1731.0,2175.0,3075.0,-1479.0,,,,-1.12412800996679,-2.97198079723878,-1.31656287348736,,-11.833220253388037,,
,9216.0,1075.0,5167.0,1730.0,2162.0,3070.0,-1458.0,,,,-1.12443608942396,-2.9720640919447,-1.31732451240749,,-11.058753712612212,,
,9220.0,1071.0,5167.0,1732.0,2154.0,3071.0,-1459.0,,,,-1.12467798454611,-2.9719391638727,-1.31737136077504,,-10.219370621050752,,
,9221.0,1071.0,5167.0,1732.0,2175.0,3074.0,-1463.0,,,,-1.12590501666209,-2.97205495862897,-1.31744691954978,,-9.325559290745,,
,9220.0,1073.0,5169.0,1735.0,2181.0,3070.0,-1480.0,,,,-1.12642363818814,-2.97205390757571,-1.31874950285405,,-8.388243288059495,,
,9224.0,1071.0,5169.0,1734.0,2182.0,3079.0,-1472.0,,,,-1.12757061924752,-2.97215484563449,-1.31896792656288,,-7.4181651975970375,,
,9227.0,1073.0,5172.0,1735.0,2176.0,3069.0,-1478.0,,,,-1.12869325630523,-2.97225487677279,-1.319285149409,,-6.425382272558267,,
,9227.0,1073.0,5169.0,1736.0,2186.0,3068.0,-1484.0,,,,-1.12949057287387,-2.9721802855615,-1.31939145489941,,-5.418914357023733,,
,9231.0,1074.0,5168.0,1736.0,2195.0,3070.0,-1493.0,,,,-1.13052791801629,-2.97221108489793,-1.3200943862878,,-4.406559791620605,,
,9235.0,1076.0,5174.0,1738.0,2185.0,3067.0,-1486.0,,,,-1.13090162493727,-2.97221533682336,-1.32148975459643,,-3.3948690687397676,,
,9235.0,1075.0,5175.0,1739.0,2179.0,3075.0,-1488.0,,,,-1.13187975703578,-2.97231542531405,-1.32203070210301,,-2.389243746545338,,
,9237.0,1074.0,5173.0,1736.0,2179.0,3066.0,-1482.0,,,,-1.13275033534979,-2.97238894653371,-1.32223849125901,,-1.3941143107457628,,
,9240.0,1076.0,5177.0,1742.0,2166.0,3068.0,-1493.0,,,,-1.13365184520694,-2.97225381199289,-1.32326925867445,,-0.41314776123807523,,
,9242.0,1076.0,5180.0,1740.0,2186.0,3062.0,-1464.0,,,,-1.1350279084314,-2.97236038727111,-1.32383869271565,,0.5505572492317186,,
,9245.0,1078.0,5178.0,1742.0,2192.0,3062.0,-1475.0,,,,-1.13695270422154,-2.97251017141394,-1.32399408043666,,1.494316327873462,,
,9246.0,1076.0,5176.0,1742.0,2179.0,3055.0,-1480.0,,,,-1.13798256831864,-2.97261865549809,-1.32498927573468,,2.4157588696322216,,
,9252.0,1076.0,5182.0,1744.0,2177.0,3064.0,-1457.0,,,,-1.13921715725349,-2.97262200375665,-1.32542851679719,,3.312778693092144,,
,9254.0,1078.0,5184.0,1745.0,2177.0,3070.0,-1488.0,,,,-1.14069141750426,-2.97267357643194,-1.32726451780737,,4.183521679639026,,
,9256.0,1079.0,5184.0,1745.0,2181.0,3065.0,-1487.0,,,,-1.14172272461151,-2.97261112170946,-1.32754471809783,,5.026389723438961,,
,9255.0,1077.0,5185.0,1746.0,2192.0,3068.0,-1481.0,,,,-1.14206417727653,-2.97288323380349,-1.32763851515489,,5.840039369832529,,
,9259.0,1079.0,5186.0,1745.0,2205.0,3076.0,-1468.0,,,,-1.14361294726368,-2.97269926517148,-1.32830654916538,,6.623358170055006,,
,9263.0,1082.0,5185.0,1749.0,2172.0,3073.0,-1480.0,,,,-1.14458899519635,-2.97280208726638,-1.32951521894074,,7.3754111263760835,,
,9263.0,1080.0,5187.0,1751.0,2165.0,3070.0,-1481.0,,,,-1.14537928967288,-2.97289451651249,-1.32975875870229,,8.095361430534474,,
,9265.0,1078.0,5188.0,1749.0,2178.0,3071.0,-1486.0,,,,-1.14639318193626,-2.97276358784021,-1.33018539932659,,8.782380300158115,,
,9265.0,1077.0,5185.0,1746.0,2184.0,3070.0,-1491.0,,,,-1.14749099549941,-2.97294723696771,-1.33009268799665,,9.435566143171911,,
,9268.0,1078.0,5187.0,1747.0,2183.0,3077.0,-1491.0,,,,-1.14728960537202,-2.97295253663104,-1.33053738998445,,10.053891498432,,
,9263.0,1079.0,5186.0,1749.0,2172.0,3075.0,-1480.0,,,,-1.14759395617924,-2.97300008085376,-1.33166993170224,,10.636188139286181,,
,9262.0,1080.0,5185.0,1745.0,2169.0,3079.0,-1488.0,,,,-1.14869512384461,-2.97304596425413,-1.33165043775231,,11.181169244634575,,
,9257.0,1077.0,5181.0,1741.0,2164.0,3082.0,-1490.0,,,,-1.14939273526017,-2.97316506599115,-1.33265593842844,,11.687475745487221,,
,9256.0,1080.0,5180.0,1742.0,2162.0,3073.0,-1467.0,,,,-1.14974731075966,-2.97316506434442,-1.33237696958734,,12.153724591404503,,
,9251.0,1078.0,5181.0,1739.0,2167.0,3074.0,-1482.0,,,,-1.15065450349874,-2.9731891911863,-1.33276530464318,,12.578532462585347,,
,9248.0,1076.0,5180.0,1737.0,2168.0,3070.0,-1476.0,,,,-1.15154624614172,-2.97330946790086,-1.33294242653476,,12.960491905524732,,
,9241.0,1075.0,5179.0,1732.0,2164.0,3071.0,-1480.0,,,,-1.15195172511473,-2.97331085160929,-1.33396555924484,,13.298089145974334,,
,9233.0,1076.0,5175.0,1731.0,2174.0,3069.0,-1493.0,,,,-1.15232854360618,-2.97331965201857,-1.33349380764261,,13.589572311593873,,
,9227.0,1080.0,5176.0,1730.0,2180.0,3069.0,-1498.0,,,,-1.15305330506364,-2.97335423613244,-1.33380302623398,,13.83280056588432,,
,9224.0,1076.0,5176.0,1728.0,2182.0,3077.0,-1497.0,,,,-1.15443046796259,-2.97324779359146,-1.33523257347889,,14.025121473623079,,
,9218.0,1075.0,5173.0,1723.0,2186.0,3073.0,-1487.0,,,,-1.15525922703167,-2.97326718627681,-1.33604431471068,,14.16332874365739,,
,9213.0,1075.0,5173.0,1726.0,2187.0,3077.0,-1506.0,,,,-1.15555587100689,-2.97337422504537,-1.33674631587948,,14.243741807766218,,
,9207.0,1077.0,5174.0,1724.0,2185.0,3070.0,-1502.0,,,,-1.15663291476377,-2.97337948138509,-1.33660912799474,,14.26242460638308,,
,9205.0,1076.0,5173.0,1723.0,2179.0,3077.0,-1498.0,,,,-1.15834132321792,-2.97352172116189,-1.33698864662861,,14.215530211421989,,
,9199.0,1077.0,5172.0,1720.0,2176.0,3067.0,-1488.0,,,,-1.15930633820518,-2.97349548645942,-1.33861822337888,,14.099728560285127,,
,9197.0,1077.0,5172.0,1720.0,2169.0,3062.0,-1495.0,,,,-1.16038683294187,-2.97362346109327,-1.33918833287443,,13.9126531780407,,
,9195.0,1076.0,5173.0,1720.0,2173.0,3065.0,-1509.0,,,,-1.16194151111583,-2.97386927922027,-1.33957685223186,,13.653293667073406,,
,9193.0,1079.0,5173.0,1723.0,2170.0,3069.0,-1487.0,,,,-1.16270700052218,-2.97363645664296,-1.3400325990894,,13.322265958675306,,
,9190.0,1074.0,5172.0,1719.0,2188.0,3060.0,-1469.0,,,,-1.16437411819716,-2.97362306842317,-1.34136508075602,,12.921911117712368,,
,9191.0,1075.0,5172.0,1719.0,2182.0,3056.0,-1468.0,,,,-1.16555669300276,-2.97367035939618,-1.34134240347392,,12.45620232818701,,
,9190.0,1079.0,5173.0,1724.0,2174.0,3066.0,-1458.0,,,,-1.16691138989564,-2.97387850565438,-1.34329862298995,,11.930472998327554,,
,9188.0,1079.0,5175.0,1722.0,2178.0,3067.0,-1470.0,,,,-1.16822364618637,-2.97387688892899,-1.34350405803846,,11.351010122143864,,
,9186.0,1078.0,5172.0,1720.0,2163.0,3072.0,-1485.0,,,,-1.16963402003451,-2.97392633938496,-1.34443748206842,,10.72457940777901,,
,9187.0,1077.0,5177.0,1722.0,2177.0,3072.0,-1495.0,,,,-1.170645004245,-2.97414634607304,-1.34565654689407,,10.057956978210594,,
,9187.0,1079.0,5176.0,1722.0,2159.0,3071.0,-1495.0,,,,-1.17248117982118,-2.97418540251089,-1.34658982478867,,9.357535237542805,,
,9189.0,1078.0,5178.0,1721.0,2177.0,3077.0,-1477.0,,,,-1.1728559338407,-2.9741439850078,-1.34717943284806,,8.629051218560928,,
,9188.0,1078.0,5179.0,1721.0,2179.0,3072.0,-1486.0,,,,-1.17474417632322,-2.97408677181557,-1.34727227989658,,7.87746071822098,,
,9190.0,1078.0,5180.0,1720.0,2173.0,3071.0,-1484.0,,,,-1.1760583832666,-2.9741833809756,-1.3478963974596,,7.106956671882091,,
,9190.0,1080.0,5183.0,1723.0,2170.0,3079.0,-1468.0,,,,-1.1772067878202,-2.97442157001306,-1.34926236610612,,6.321109208722789,,
,9191.0,1081.0,5184.0,1724.0,2165.0,3073.0,-1487.0,,,,-1.1792727225227,-2.97429315628166,-1.35004364283865,,5.523089545133772,,
,9195.0,1081.0,5184.0,1726.0,2162.0,3064.0,-1491.0,,,,-1.18010562281153,-2.97427272072667,-1.3511413027615,,4.715931302301576,,
,9192.0,1077.0,5183.0,1725.0,2153.0,3069.0,-1477.0,,,,-1.18037766974955,-2.97421068804837,-1.3504981769086,,3.90278154594935,,
,9196.0,1082.0,5186.0,1728.0,2164.0,3073.0,-1462.0,,,,-1.18170304811838,-2.97437886356576,-1.35068718868838,,3.0870999471430873,,
,9197.0,1082.0,5193.0,1727.0,2165.0,3082.0,-1470.0,,,,-1.18194285395394,-2.97441591701354,-1.35108007212651,,2.2727771720175416,,
,9196.0,1081.0,5190.0,1723.0,2164.0,3071.0,-1467.0,,,,-1.18302671923353,-2.97449254055751,-1.35239025857939,,1.4641605911737336,,
,9198.0,1083.0,5195.0,1724.0,2160.0,3064.0,-1473.0,,,,-1.18238365832522,-2.97456959193502,-1.35236314735173,,0.6659926263179974,,
,9198.0,1082.0,5195.0,1725.0,2152.0,3078.0,-1467.0,,,,-1.18370655826025,-2.97461635000439,-1.35264267569541,,-0.11671995928105874,,
,9199.0,1084.0,5195.0,1728.0,2176.0,3080.0,-1482.0,,,,-1.18369253953999,-2.97455897874994,-1.35202064278457,,-0.8788815136669894,,
,9197.0,1083.0,5196.0,1726.0,2178.0,3074.0,-1491.0,,,,-1.18402405951972,-2.97446218042624,-1.35223222509984,,-1.6155040393055515,,
,9196.0,1083.0,5196.0,1724.0,2196.0,3089.0,-1475.0,,,,-1.18400885893005,-2.97447510901804,-1.35353742712405,,-2.321905831215782,,
,9195.0,1082.0,5202.0,1725.0,2181.0,3071.0,-1462.0,,,,-1.18447385526748,-2.9746840804742,-1.35343040212197,,-2.9938987705078786,,
,9195.0,1083.0,5202.0,1727.0,2195.0,3066.0,-1486.0,,,,-1.18472383989927,-2.97455305242046,-1.35315783362794,,-3.6279552301009863,,
,9199.0,1084.0,5205.0,1728.0,2190.0,3075.0,-1484.0,,,,-1.18415912129778,-2.97455289943061,-1.35386264010844,,-4.221348132559347,,
,9197.0,1081.0,5204.0,1726.0,2175.0,3074.0,-1473.0,,,,-1.1834047523825,-2.97455084737604,-1.35235198808149,,-4.772258837398854,,
,9195.0,1082.0,5201.0,1726.0,2179.0,3067.0,-1479.0,,,,-1.1823716446715,-2.97438394202345,-1.3515923757314,,-5.279847967338457,,
,9196.0,1083.0,5204.0,1726.0,2176.0,3065.0,-1473.0,,,,-1.18058708227125,-2.97432132127004,-1.35075207088715,,-5.74428453451451,,
,9197.0,1084.0,5208.0,1727.0,2170.0,3070.0,-1467.0,,,,-1.17887342335166,-2.97414346190417,-1.34999194524224,,-6.166728950829378,,
,9194.0,1084.0,5208.0,1725.0,2180.0,3074.0,-1474.0,,,,-1.17567363108512,-2.97427182429322,-1.34803736653632,,-6.549265907933029,,
,9196.0,1085.0,5208.0,1729.0,2180.0,3076.0,-1484.0,,,,-1.17379064695071,-2.97415728273007,-1.34714383091784,,-6.894784492786713,,
,9197.0,1083.0,5208.0,1728.0,2179.0,3077.0,-1455.0,,,,-1.17227643498304,-2.9740553534826,-1.34680394168251,,-7.20680642170219,,
,9200.0,1085.0,5211.0,1727.0,2175.0,3073.0,-1451.0,,,,-1.17079936195398,-2.97394510144835,-1.34593974548365,,-7.489269221645167,,
,9196.0,1084.0,5211.0,1728.0,2173.0,3073.0,-1437.0,,,,-1.170086305676,-2.97382832882503,-1.3451588450462,,-7.746278066839924,,
,9199.0,1082.0,5209.0,1730.0,2178.0,3077.0,-1469.0,,,,-1.16938143951419,-2.97386633903471,-1.34489488632369,,-7.981845234499733,,
,9200.0,1084.0,5212.0,1728.0,2167.0,3079.0,-1481.0,,,,-1.16854129572352,-2.9738602744757,-1.34440723852595,,-8.19963791932284,,
,9203.0,1086.0,5212.0,1731.0,2169.0,3084.0,-1465.0,,,,-1.16853351341923,-2.97374716024705,-1.34409748241624,,-8.402753288061938,,
,9204.0,1087.0,5213.0,1733.0,2171.0,3081.0,-1480.0,,,,-1.16897863124754,-2.97377319628761,-1.34410844977022,,-8.59353532276186,,
,9203.0,1083.0,5214.0,1732.0,2171.0,3076.0,-1464.0,,,,-1.1686551622684,-2.9739494976105,-1.34438572845652,,-8.773442700820642,,
,9207.0,1084.0,5216.0,1733.0,2178.0,3091.0,-1472.0,,,,-1.16753440442436,-2.97396110114747,-1.34415361210623,,-8.942971826165591,,
,9209.0,1086.0,5215.0,1733.0,2188.0,3073.0,-1464.0,,,,-1.16923815236543,-2.97388234384029,-1.34469074338393,,-9.101634625549357,,
,9208.0,1088.0,5218.0,1735.0,2187.0,3071.0,-1472.0,,,,-1.16954038414652,-2.9738499583452,-1.34420505807541,,-9.247986744632492,,
,9209.0,1084.0,5216.0,1732.0,2167.0,3078.0,-1472.0,,,,-1.16944390321308,-2.97392579324468,-1.3445055639408,,-9.37969810664134,,
,9214.0,1088.0,5219.0,1734.0,2171.0,3076.0,-1488.0,,,,-1.17012280198617,-2.97382116592085,-1.34408263991931,,-9.493654765907436,,
,9213.0,1086.0,5222.0,1736.0,2180.0,3075.0,-1457.0,,,,-1.16972184226736,-2.9738060598631,-1.34431886218197,,-9.586079721530284,,
,9217.0,1087.0,5222.0,1736.0,2170.0,3072.0,-1464.0,,,,-1.16957681676418,-2.97382382590988,-1.34447370889446,,-9.652662084199468,,
,9215.0,1086.0,5221.0,1737.0,2163.0,3074.0,-1472.0,,,,-1.16906495593082,-2.9739356707826,-1.3452217340526,,-9.688688761063933,,
,9218.0,1087.0,5223.0,1736.0,2159.0,3080.0,-1477.0,,,,-1.16904828011624,-2.97382667218359,-1.34466031580061,,-9.689178867747787,,
,9223.0,1087.0,5222.0,1740.0,2164.0,3069.0,-1483.0,,,,-1.16852282682957,-2.97381239796844,-1.34455950863264,,-9.649025693336467,,
,9225.0,1089.0,5227.0,1739.0,2169.0,3065.0,-1472.0,,,,-1.16780981441855,-2.97391404326522,-1.34470616293898,,-9.563152269939586,,
,9229.0,1088.0,5226.0,1740.0,2172.0,3079.0,-1473.0,,,,-1.16874858131926,-2.97383933567594,-1.34427033846151,,-9.426684175248539,,
,9229.0,1087.0,5226.0,1741.0,2166.0,3078.0,-1449.0,,,,-1.16861527780686,-2.97382710863524,-1.34380728214105,,-9.2351383607033,,
,9232.0,1089.0,5229.0,1740.0,2180.0,3082.0,-1462.0,,,,-1.16819213679709,-2.97380123468594,-1.34427533068342,,-8.984621466531875,,
,9235.0,1089.0,5231.0,1743.0,2180.0,3065.0,-1465.0,,,,-1.16795173519449,-2.97374600331497,-1.34408340263295,,-8.672027039683195,,
2025-07-15 22:25:39,9233.0,1087.0,5229.0,1742.0,2177.0,3069.0,-1465.0,,,2025/07/15 10:25:39 PM,-1.1680922917464,-2.9737641285776,-1.34430976129964,,-8.295219290873325,,
,9235.0,1086.0,5232.0,1743.0,2176.0,3077.0,-1468.0,,,,-1.16763241119465,-2.9737699375334,-1.34416828991283,,-7.8531912705098375,,
,9242.0,1089.0,5235.0,1746.0,2176.0,3072.0,-1475.0,,,,-1.16767593304617,-2.9737540511316,-1.34463289212578,,-7.346186377039082,,
,9244.0,1091.0,5234.0,1747.0,2158.0,3066.0,-1483.0,,,,-1.16782357806295,-2.97382101260294,-1.34389085604534,,-6.775772867430348,,
,9244.0,1091.0,5234.0,1746.0,2170.0,3063.0,-1469.0,,,,-1.1683588327334,-2.97355602838975,-1.34411423721633,,-6.144861908739895,,
,9251.0,1092.0,5238.0,1749.0,2186.0,3065.0,-1450.0,,,,-1.16765987358669,-2.97379754335096,-1.34355655204116,,-5.457662353595262,,
,9250.0,1092.0,5239.0,1750.0,2176.0,3067.0,-1459.0,,,,-1.16776769377618,-2.97378702320923,-1.34427589776523,,-4.71957092351307,,
,9253.0,1091.0,5240.0,1748.0,2180.0,3076.0,-1460.0,,,,-1.16742696393827,-2.97373719954796,-1.34397283653834,,-3.9370039781741464,,
,9256.0,1092.0,5242.0,1751.0,2185.0,3072.0,-1459.0,,,,-1.16790562075877,-2.97370050452345,-1.34432507191917,,-3.117184370801816,,
,9256.0,1090.0,5242.0,1749.0,2169.0,3072.0,-1459.0,,,,-1.1676771260743,-2.97372075716346,-1.34367563813318,,-2.2679020897502173,,
,9258.0,1092.0,5244.0,1753.0,2173.0,3071.0,-1479.0,,,,-1.167390210841,-2.97372244965161,-1.34364765444444,,-1.397269490973704,,
,9262.0,1092.0,5243.0,1751.0,2181.0,3069.0,-1465.0,,,,-1.1668837141642,-2.97347291521211,-1.34367318245481,,-0.5134908592579999,,
,9261.0,1090.0,5244.0,1751.0,2183.0,3068.0,-1481.0,,,,-1.16549531813849,-2.97350729382496,-1.34300583140399,,0.3753377123816021,,
,9263.0,1091.0,5244.0,1753.0,2161.0,3074.0,-1478.0,,,,-1.16543513086248,-2.97365137974561,-1.34359565702739,,1.261387840361176,,
,9261.0,1092.0,5246.0,1752.0,2155.0,3077.0,-1481.0,,,,-1.16438012465819,-2.9735527090663,-1.34272109854475,,2.1372144119702066,,
,9264.0,1093.0,5246.0,1754.0,2170.0,3084.0,-1471.0,,,,-1.16453353582743,-2.97369174064801,-1.3430687737044,,2.995831251434956,,
,9264.0,1092.0,5245.0,1752.0,2163.0,3082.0,-1464.0,,,,-1.16256395092091,-2.97357461469551,-1.34230041850684,,3.830757760360357,,
,9257.0,1091.0,5243.0,1748.0,2150.0,3095.0,-1471.0,,,,-1.16262011939831,-2.97343586688139,-1.34190613060427,,4.636051808548645,,
,9252.0,1092.0,5242.0,1745.0,2157.0,3093.0,-1476.0,,,,-1.16071885357595,-2.97352048969155,-1.34222329047062,,5.40634397585062,,
,9248.0,1093.0,5244.0,1745.0,2168.0,3080.0,-1464.0,,,,-1.16007828051839,-2.9734144028833,-1.34080898181037,,6.1368823451012195,,
,9245.0,1090.0,5241.0,1743.0,2163.0,3081.0,-1450.0,,,,-1.15975378455132,-2.97347055200923,-1.34009313167878,,6.823586798307239,,
,9240.0,1090.0,5238.0,1739.0,2147.0,3075.0,-1428.0,,,,-1.15804190926816,-2.97330012288278,-1.34016263547389,,7.4631008993079355,,
,9229.0,1087.0,5233.0,1735.0,2169.0,3062.0,-1449.0,,,,-1.15694493747767,-2.97339951049603,-1.3396885572898,,8.05282204560024,,
,9223.0,1089.0,5236.0,1736.0,2168.0,3069.0,-1459.0,,,,-1.15763369618613,-2.97344276892818,-1.34018259352314,,8.590889121718694,,
,9217.0,1087.0,5234.0,1731.0,2173.0,3068.0,-1459.0,,,,-1.15687405316874,-2.97340825354636,-1.34003807964633,,9.076111702800905,,
,9212.0,1089.0,5238.0,1732.0,2174.0,3076.0,-1440.0,,,,-1.15708064221529,-2.97337952696235,-1.33974973542407,,9.507834552317636,,
,9206.0,1086.0,5233.0,1727.0,2169.0,3073.0,-1444.0,,,,-1.15737516650171,-2.97335807024467,-1.33972015346097,,9.885743303754223,,
,9200.0,1087.0,5233.0,1728.0,2176.0,3076.0,-1469.0,,,,-1.15776583797911,-2.97336097171949,-1.34090282378944,,10.209629114498606,,
,9196.0,1089.0,5234.0,1726.0,2180.0,3068.0,-1486.0,,,,-1.15762921731748,-2.97335862631602,-1.33994497532908,,10.47913961664441,,
,9193.0,1089.0,5232.0,1727.0,2171.0,3064.0,-1480.0,,,,-1.15741112875732,-2.97320506361062,-1.33956961421469,,10.693549456158824,,
,9185.0,1087.0,5234.0,1724.0,2187.0,3052.0,-1484.0,,,,-1.15717086968564,-2.97322953153535,-1.34012498972747,,10.851585240700807,,
,9183.0,1087.0,5232.0,1725.0,2182.0,3063.0,-1472.0,,,,-1.1571044880389,-2.97333507460552,-1.3397390370507,,10.95133574471837,,
,9181.0,1089.0,5233.0,1725.0,2184.0,3064.0,-1486.0,,,,-1.15631836911251,-2.97335361363548,-1.34001938159499,,10.990268246498644,,
,9175.0,1090.0,5233.0,1725.0,2187.0,3063.0,-1474.0,,,,-1.1562916747936,-2.97326625096719,-1.33951587564414,,10.965357378229115,,
,9174.0,1087.0,5232.0,1723.0,2192.0,3063.0,-1438.0,,,,-1.15611369403093,-2.97319524024413,-1.33936146598186,,10.873317272021973,,
,9173.0,1086.0,5237.0,1725.0,2192.0,3065.0,-1452.0,,,,-1.15554913801802,-2.97329401617802,-1.33963331515843,,10.710914427517725,,
,9171.0,1088.0,5236.0,1727.0,2170.0,3071.0,-1464.0,,,,-1.15498376873233,-2.97322979047499,-1.33937395429832,,10.475329130741288,,
,9173.0,1087.0,5236.0,1725.0,2169.0,3065.0,-1470.0,,,,-1.15573026230448,-2.97322447376034,-1.33909489890274,,10.164527432471015,,
,9170.0,1089.0,5238.0,1720.0,2178.0,3079.0,-1464.0,,,,-1.15489599102093,-2.97333774505281,-1.33939505657905,,9.77760362747581,,
,9171.0,1089.0,5240.0,1725.0,2169.0,3078.0,-1456.0,,,,-1.15477235088516,-2.97317144311449,-1.33923266063036,,9.315055460392676,,
,9169.0,1087.0,5238.0,1724.0,2170.0,3084.0,-1466.0,,,,-1.15340764133608,-2.97318855313406,-1.33896791042449,,8.778961566208219,,
,9170.0,1091.0,5238.0,1726.0,2171.0,3079.0,-1465.0,,,,-1.15467037748666,-2.97319061174974,-1.33912633243156,,8.173042841989469,,
,9167.0,1088.0,5238.0,1722.0,2177.0,3085.0,-1459.0,,,,-1.15488664695431,-2.97310858820205,-1.3391519934104,,7.502605268385845,,
,9167.0,1087.0,5239.0,1725.0,2181.0,3072.0,-1443.0,,,,-1.15437789076689,-2.97320154763949,-1.33875238050194,,6.774378404385775,,
,9167.0,1087.0,5242.0,1730.0,2174.0,3076.0,-1456.0,,,,-1.15540062105885,-2.97314438103567,-1.33946825895224,,5.9962772315009945,,
,9168.0,1089.0,5239.0,1725.0,2168.0,3071.0,-1458.0,,,,-1.15413356637376,-2.97331913061076,-1.33928962287742,,5.177121145971259,,
,9169.0,1089.0,5242.0,1726.0,2169.0,3083.0,-1472.0,,,,-1.15492155515934,-2.9732064518148,-1.33917477699511,,4.326341266878451,,
,9169.0,1087.0,5242.0,1727.0,2163.0,3077.0,-1475.0,,,,-1.15569207765536,-2.9733307918105,-1.33898628244641,,3.453698345852159,,
,9170.0,1087.0,5244.0,1729.0,2177.0,3081.0,-1462.0,,,,-1.15582142434084,-2.97326854290072,-1.33869201052687,,2.5690230177091387,,
,9170.0,1089.0,5243.0,1729.0,2173.0,3080.0,-1469.0,,,,-1.15516460516597,-2.97318923849017,-1.33935911800674,,1.6819815216418563,,
,9170.0,1088.0,5246.0,1726.0,2174.0,3082.0,-1465.0,,,,-1.15616867507291,-2.97321860750966,-1.33926322386896,,0.801864671086387,,
,9169.0,1091.0,5245.0,1727.0,2179.0,3093.0,-1446.0,,,,-1.15630090296031,-2.97310825732854,-1.3396436380758,,-0.06260443517722962,,
,9168.0,1091.0,5249.0,1729.0,2180.0,3073.0,-1447.0,,,,-1.15652498097616,-2.97303764712877,-1.33951943132419,,-0.9034483415605526,,
,9169.0,1089.0,5248.0,1730.0,2183.0,3071.0,-1454.0,,,,-1.15640994230337,-2.97313663357158,-1.33999432244961,,-1.7136013349138708,,
,9168.0,1089.0,5247.0,1728.0,2169.0,3055.0,-1465.0,,,,-1.15658401594382,-2.97313380008419,-1.34035026276328,,-2.4870632029884616,,
,9168.0,1087.0,5247.0,1727.0,2185.0,3081.0,-1492.0,,,,-1.155260554436,-2.97316314002599,-1.33919446242584,,-3.2190361071184483,,
,9168.0,1088.0,5251.0,1728.0,2176.0,3077.0,-1488.0,,,,-1.15587786504064,-2.97319319948433,-1.33968549887783,,-3.906035156521518,,
,9169.0,1089.0,5251.0,1730.0,2180.0,3077.0,-1474.0,,,,-1.15466964482291,-2.97309132835037,-1.34007575461623,,-4.54595852477326,,
,9167.0,1089.0,5251.0,1731.0,2180.0,3083.0,-1467.0,,,,-1.15462420117028,-2.97306924201788,-1.33973834665454,,-5.13810056173244,,
,9166.0,1088.0,5249.0,1728.0,2173.0,3076.0,-1472.0,,,,-1.15387054942511,-2.9730965978815,-1.33926862256175,,-5.683093804645557,,
,9169.0,1088.0,5251.0,1729.0,2185.0,3073.0,-1445.0,,,,-1.15346553033077,-2.97294486400415,-1.33883206855132,,-6.182773695932454,,
,9166.0,1089.0,5253.0,1731.0,2202.0,3082.0,-1442.0,,,,-1.15349270210801,-2.97297051058746,-1.33876287636836,,-6.639971060406029,,
,9169.0,1089.0,5252.0,1730.0,2186.0,3080.0,-1440.0,,,,-1.15315321767844,-2.97288138242179,-1.33884262883088,,-7.058248596406232,,
,9165.0,1087.0,5252.0,1729.0,2166.0,3076.0,-1459.0,,,,-1.15324320933058,-2.97298000727456,-1.33835022039992,,-7.441606115166883,,
,9167.0,1089.0,5252.0,1730.0,2173.0,3084.0,-1478.0,,,,-1.15332151307226,-2.97311500092929,-1.33851123846976,,-7.794183648351878,,
,9171.0,1092.0,5254.0,1732.0,2173.0,3089.0,-1462.0,,,,-1.15277003894396,-2.9730659165372,-1.33857190773754,,-8.119991354810246,,
,9171.0,1091.0,5255.0,1732.0,2158.0,3080.0,-1454.0,,,,-1.15215674007703,-2.97299073969246,-1.33791377163196,,-8.422690559657022,,
,9170.0,1092.0,5257.0,1732.0,2168.0,3079.0,-1462.0,,,,-1.1522955053575,-2.97295900251542,-1.33803373375224,,-8.70544207799525,,
,9171.0,1090.0,5256.0,1733.0,2163.0,3085.0,-1472.0,,,,-1.15241789950103,-2.972994192534,-1.33855473271079,,-8.970827474804011,,
,9175.0,1092.0,5261.0,1734.0,2169.0,3080.0,-1477.0,,,,-1.15245149681857,-2.97302566304801,-1.33817269059301,,-9.220837412412624,,
,9173.0,1090.0,5263.0,1736.0,2174.0,3079.0,-1462.0,,,,-1.15261495300424,-2.97306939763988,-1.3382817597351,,-9.45691008641503,,
,9175.0,1089.0,5260.0,1731.0,2177.0,3080.0,-1453.0,,,,-1.15183783929897,-2.97289881529382,-1.33747113109642,,-9.679993708536328,,
,9176.0,1090.0,5260.0,1735.0,2169.0,3084.0,-1447.0,,,,-1.15181593291523,-2.97301015802015,-1.33788843777389,,-9.890602410368523,,
,9179.0,1092.0,5267.0,1738.0,2167.0,3075.0,-1437.0,,,,-1.15193141295625,-2.97303263242583,-1.33794076507618,,-10.088836992943783,,
,9180.0,1090.0,5265.0,1739.0,2167.0,3076.0,-1440.0,,,,-1.15098642986529,-2.97293078168288,-1.33838579691465,,-10.274351120201292,,
,9181.0,1093.0,5269.0,1739.0,2162.0,3092.0,-1474.0,,,,-1.15177465216989,-2.97294438850833,-1.33764219873339,,-10.446257826470038,,
,9183.0,1092.0,5265.0,1739.0,2165.0,3073.0,-1508.0,,,,-1.15213592729884,-2.97292703905474,-1.33783702909302,,-10.602986967176184,,
,9187.0,1092.0,5267.0,1739.0,2174.0,3077.0,-1484.0,,,,-1.15223295761439,-2.97284455556456,-1.33770043327797,,-10.742118033435787,,
,9185.0,1094.0,5270.0,1743.0,2158.0,3079.0,-1476.0,,,,-1.15194710658293,-2.97297406552885,-1.3382226375766,,-10.860222295285494,,
,9188.0,1092.0,5272.0,1742.0,2161.0,3066.0,-1490.0,,,,-1.15130444770261,-2.97293522459243,-1.33802263821411,,-10.952752440984236,,
,9189.0,1091.0,5274.0,1740.0,2165.0,3073.0,-1480.0,,,,-1.15075989670534,-2.9728736158502,-1.33734543619696,,-11.014016504753178,,
,9192.0,1095.0,5274.0,1742.0,2160.0,3068.0,-1463.0,,,,-1.15025806360436,-2.9728204429094,-1.33750255597937,,-11.03726623673051,,
,9194.0,1095.0,5278.0,1743.0,2169.0,3071.0,-1472.0,,,,-1.14987104698516,-2.97290864572196,-1.33680101424704,,-11.014918690739963,,
,9199.0,1094.0,5278.0,1746.0,2181.0,3077.0,-1477.0,,,,-1.14897285455333,-2.97290440631099,-1.3371395303019,,-10.938914187676085,,
,9198.0,1094.0,5276.0,1744.0,2179.0,3080.0,-1469.0,,,,-1.14833722164678,-2.97288895483321,-1.33642104566774,,-10.801194712811531,,
,9201.0,1094.0,5279.0,1746.0,2177.0,3078.0,-1465.0,,,,-1.14789886895256,-2.97291173329702,-1.33662815355585,,-10.594266166380576,,
,9203.0,1094.0,5282.0,1747.0,2182.0,3073.0,-1453.0,,,,-1.14672128047528,-2.97291077569821,-1.33663808394569,,-10.31178966312492,,
,9206.0,1094.0,5282.0,1746.0,2184.0,3073.0,-1447.0,,,,-1.14611892379986,-2.97276672239074,-1.33622276917279,,-9.949136518901895,,
,9207.0,1092.0,5283.0,1746.0,2180.0,3095.0,-1461.0,,,,-1.14648100015076,-2.97281128033446,-1.33618750273717,,-9.503842523792173,,
,9207.0,1098.0,5282.0,1748.0,2189.0,3073.0,-1464.0,,,,-1.14629268689425,-2.97294314332248,-1.3358869905277,,-8.975909429581145,,
,9212.0,1095.0,5286.0,1749.0,2179.0,3082.0,-1470.0,,,,-1.1454224546557,-2.97266290147234,-1.33531448965587,,-8.3679212806886,,
,9215.0,1097.0,5286.0,1753.0,2187.0,3089.0,-1461.0,,,,-1.14435247425077,-2.97260578818994,-1.33580090959823,,-7.684965258196841,,
,9216.0,1094.0,5286.0,1752.0,2179.0,3065.0,-1461.0,,,,-1.14396913518849,-2.97276081414409,-1.33563451373326,,-6.934367605542795,,
,9215.0,1096.0,5289.0,1752.0,2168.0,3069.0,-1459.0,,,,-1.14435071967252,-2.97254151889579,-1.33524832460503,,-6.1252733445594245,,
,9223.0,1094.0,5289.0,1751.0,2172.0,3081.0,-1459.0,,,,-1.14328910930771,-2.97263037253233,-1.33536134316126,,-5.268112906313428,,
,9221.0,1098.0,5293.0,1755.0,2181.0,3082.0,-1454.0,,,,-1.14370739098271,-2.97274473388614,-1.33542846106941,,-4.37400832887756,,
,9225.0,1097.0,5293.0,1754.0,2193.0,3070.0,-1431.0,,,,-1.14313669473154,-2.97264772786768,-1.3354188549396,,-3.454175074138317,,
,9227.0,1098.0,5294.0,1755.0,2176.0,3069.0,-1459.0,,,,-1.14250829281903,-2.97280542867839,-1.33492403246076,,-2.51937196635864,,
,9231.0,1098.0,5293.0,1755.0,2166.0,3075.0,-1443.0,,,,-1.14144842230691,-2.97283012605541,-1.33442073491337,,-1.5794413015676616,,
,9235.0,1099.0,5298.0,1757.0,2173.0,3073.0,-1439.0,,,,-1.14066389124751,-2.97275480934428,-1.33456146607936,,-0.6429652255303437,,
,9232.0,1098.0,5295.0,1759.0,2178.0,3071.0,-1447.0,,,,-1.14114029212501,-2.97263012176358,-1.33474226099552,,0.282953764365474,,
,9233.0,1097.0,5295.0,1756.0,2176.0,3068.0,-1477.0,,,,-1.14112952666688,-2.97256164790083,-1.33492763619415,,1.192796261498623,,
,9235.0,1099.0,5293.0,1756.0,2169.0,3072.0,-1466.0,,,,-1.13986687238914,-2.97270863378016,-1.33370431428695,,2.082630844057692,,
,9234.0,1099.0,5294.0,1758.0,2162.0,3080.0,-1446.0,,,,-1.14031374925158,-2.97266118632072,-1.33444156729867,,2.950039454952202,,
,9233.0,1097.0,5294.0,1757.0,2159.0,3077.0,-1449.0,,,,-1.14098869117589,-2.97265755818327,-1.33488612162108,,3.7939779365606334,,
,9227.0,1096.0,5290.0,1754.0,2147.0,3085.0,-1465.0,,,,-1.14041935477399,-2.97262955110358,-1.33473000305529,,4.614580119510717,,
,9227.0,1099.0,5290.0,1752.0,2150.0,3073.0,-1480.0,,,,-1.14138028446969,-2.97267074651475,-1.33473348673537,,5.412909409888132,,
,9226.0,1096.0,5291.0,1751.0,2156.0,3074.0,-1475.0,,,,-1.14214745061356,-2.97260528600323,-1.33494229208731,,6.190661208429035,,
,9219.0,1095.0,5286.0,1749.0,2165.0,3080.0,-1468.0,,,,-1.14209875181353,-2.97277749349496,-1.33481433018664,,6.9498227814026015,,
,9216.0,1097.0,5285.0,1747.0,2159.0,3078.0,-1462.0,,,,-1.14284837126746,-2.97276387153931,-1.3356269899242,,7.6923030120692575,,
,9210.0,1096.0,5285.0,1744.0,2160.0,3073.0,-1439.0,,,,-1.14353241331246,-2.97269644825843,-1.33633085578623,,8.419551078461915,,
,9205.0,1097.0,5282.0,1743.0,2165.0,3067.0,-1440.0,,,,-1.14489213690746,-2.97284355831221,-1.3368204704982,,9.132189404195923,,
,9198.0,1096.0,5284.0,1740.0,2178.0,3065.0,-1446.0,,,,-1.14592347463852,-2.9728692448463,-1.33724848971212,,9.829691605696986,,
,9193.0,1094.0,5281.0,1738.0,2171.0,3075.0,-1473.0,,,,-1.14710833589896,-2.97306444223436,-1.33800861428738,,10.510139526403567,,
,9186.0,1093.0,5281.0,1739.0,2184.0,3060.0,-1488.0,,,,-1.14807425535322,-2.97296875956227,-1.33837405130634,,11.170092621822189,,
,9182.0,1096.0,5283.0,1735.0,2172.0,3056.0,-1484.0,,,,-1.14928826534783,-2.97303679859622,-1.33947119566024,,11.804595619378036,,
,9174.0,1094.0,5280.0,1735.0,2172.0,3063.0,-1489.0,,,,-1.15018217550269,-2.97294477998014,-1.3392304497238,,12.407336095173028,,
,9175.0,1092.0,5280.0,1734.0,2169.0,3063.0,-1503.0,,,,-1.15102633915398,-2.97319912177729,-1.34008279404551,,12.970944812179528,,
,9167.0,1094.0,5281.0,1733.0,2171.0,3060.0,-1500.0,,,,-1.15162768532687,-2.97314767095888,-1.34013458874079,,13.487412415065577,,
,9165.0,1094.0,5282.0,1734.0,2177.0,3056.0,-1491.0,,,,-1.15262615535353,-2.97308412864266,-1.34060434564874,,13.948580040690405,,
,9163.0,1095.0,5281.0,1730.0,2180.0,3055.0,-1468.0,,,,-1.15362654390929,-2.97314984688539,-1.3411432274798,,14.34665086559042,,
,9159.0,1091.0,5280.0,1730.0,2179.0,3078.0,-1484.0,,,,-1.15346382796026,-2.97327844547608,-1.34127364983753,,14.674665800029501,,
,9156.0,1093.0,5280.0,1730.0,2181.0,3078.0,-1475.0,,,,-1.15312454825411,-2.97302230557338,-1.34083495698819,,14.926890227203831,,
,9158.0,1098.0,5284.0,1733.0,2191.0,3072.0,-1464.0,,,,-1.15308157515675,-2.97313283584721,-1.34089459833746,,15.099070207081127,,
,9156.0,1094.0,5283.0,1729.0,2196.0,3062.0,-1473.0,,,,-1.15365110206839,-2.97307076158308,-1.34099831495783,,15.188535231058607,,
,9156.0,1093.0,5282.0,1733.0,2174.0,3067.0,-1466.0,,,,-1.15308705476403,-2.97308436711621,-1.34095150204019,,15.194148175261164,,
,9152.0,1094.0,5284.0,1731.0,2177.0,3068.0,-1471.0,,,,-1.15322079868924,-2.97311616038277,-1.34033371782834,,15.116127509204338,,
,9154.0,1095.0,5284.0,1733.0,2176.0,3077.0,-1459.0,,,,-1.15286245822451,-2.97309684278565,-1.34098565314595,,14.955786524188374,,
2025-07-15 22:25:40,9150.0,1095.0,5287.0,1732.0,2174.0,3071.0,-1437.0,,,2025/07/15 10:25:40 PM,-1.15211486911114,-2.97320286995603,-1.34095323897518,,14.715244027910904,,
,9153.0,1097.0,5287.0,1730.0,2169.0,3071.0,-1473.0,,,,-1.15162597031817,-2.97312164550983,-1.34068970561104,,14.397158396588724,,
,9151.0,1093.0,5282.0,1732.0,2164.0,3085.0,-1479.0,,,,-1.15144966143801,-2.97315817796677,-1.34081908362609,,14.004524235702517,,
,9151.0,1094.0,5286.0,1732.0,2166.0,3086.0,-1428.0,,,,-1.15117073927368,-2.97321780315378,-1.33997015161938,,13.540552764432752,,
,9155.0,1097.0,5288.0,1734.0,2170.0,3073.0,-1451.0,,,,-1.15150892797542,-2.97307321988798,-1.3403769525428,,13.008637787537863,,
,9153.0,1096.0,5288.0,1736.0,2176.0,3073.0,-1456.0,,,,-1.15220733432724,-2.97303216620605,-1.34034482497523,,12.412392108641681,,
,9153.0,1093.0,5287.0,1735.0,2167.0,3081.0,-1452.0,,,,-1.15213690772431,-2.97318300281812,-1.34022606882451,,11.755727066208138,,
,9153.0,1097.0,5289.0,1736.0,2177.0,3077.0,-1487.0,,,,-1.15256925714874,-2.97301768184405,-1.34031271062833,,11.042942185702291,,
,9153.0,1098.0,5288.0,1737.0,2170.0,3063.0,-1454.0,,,,-1.15193710437125,-2.97327571091528,-1.34003138090549,,10.278793129419155,,
,9157.0,1098.0,5290.0,1737.0,2172.0,3062.0,-1439.0,,,,-1.1522304330679,-2.97305763993486,-1.34075568946822,,9.468513586619034,,
,9157.0,1095.0,5293.0,1734.0,2165.0,3060.0,-1441.0,,,,-1.15263047770145,-2.9732059571859,-1.34051105506796,,8.617779124562716,,
,9157.0,1098.0,5291.0,1736.0,2164.0,3072.0,-1446.0,,,,-1.15289878003485,-2.97321687017564,-1.3413746487631,,7.7326157944984795,,
,9157.0,1098.0,5293.0,1739.0,2168.0,3091.0,-1454.0,,,,-1.15335069173585,-2.97311804793957,-1.34098464317992,,6.819269603420485,,
,9159.0,1099.0,5295.0,1739.0,2167.0,3092.0,-1452.0,,,,-1.15288335550293,-2.9732223117362,-1.34117164218645,,5.884060989754473,,
,9154.0,1096.0,5295.0,1735.0,2160.0,3073.0,-1460.0,,,,-1.15263233373744,-2.97313319826572,-1.34144024939907,,4.933249521554705,,
,9160.0,1096.0,5292.0,1737.0,2172.0,3069.0,-1470.0,,,,-1.15332683413085,-2.97321787099137,-1.34105507187735,,3.9729293617489234,,
,9156.0,1098.0,5297.0,1737.0,2168.0,3085.0,-1475.0,,,,-1.15354272960304,-2.97314510162486,-1.34167850620276,,3.008968137593321,,
,9158.0,1097.0,5294.0,1737.0,2180.0,3085.0,-1483.0,,,,-1.15370921219739,-2.97311019906835,-1.34123640533829,,2.0469927254161995,,
,9157.0,1097.0,5293.0,1735.0,2178.0,3085.0,-1479.0,,,,-1.15349053419912,-2.97313980179147,-1.34117481062984,,1.0924162414788248,,
,9160.0,1098.0,5294.0,1739.0,2172.0,3072.0,-1462.0,,,,-1.15281968928021,-2.97324118289587,-1.34081187271314,,0.1504920975740489,,
,9161.0,1098.0,5297.0,1740.0,2178.0,3066.0,-1472.0,,,,-1.15334042493516,-2.97304591774728,-1.34166888213278,,-0.7736256020304811,,
,9161.0,1098.0,5295.0,1737.0,2178.0,3075.0,-1448.0,,,,-1.15168601566614,-2.97313070370646,-1.34070740908374,,-1.6748395219668115,,
,9161.0,1097.0,5295.0,1739.0,2181.0,3082.0,-1452.0,,,,-1.15256263321435,-2.9730730598317,-1.34081040207317,,-2.548107569354486,,
,9161.0,1098.0,5296.0,1739.0,2180.0,3076.0,-1453.0,,,,-1.15187919233912,-2.9730549293054,-1.34157916397839,,-3.3884988094977353,,
,9162.0,1102.0,5298.0,1741.0,2164.0,3070.0,-1467.0,,,,-1.15131612836051,-2.97318030367702,-1.34093532557486,,-4.191311166924327,,
,9163.0,1097.0,5298.0,1740.0,2159.0,3072.0,-1470.0,,,,-1.15245007262204,-2.97324012033194,-1.34046181820755,,-4.952240713894609,,
,9163.0,1098.0,5299.0,1741.0,2171.0,3070.0,-1462.0,,,,-1.15156526074489,-2.97320321574709,-1.34033245884081,,-5.667580194329168,,
,9167.0,1099.0,5301.0,1739.0,2179.0,3064.0,-1471.0,,,,-1.15078948951105,-2.97314500142687,-1.34033368664264,,-6.334418745094258,,
,9170.0,1100.0,5299.0,1743.0,2167.0,3073.0,-1459.0,,,,-1.15077634373175,-2.97319018493682,-1.33930807719617,,-6.950816403100648,,
,9169.0,1101.0,5302.0,1744.0,2163.0,3073.0,-1468.0,,,,-1.15100441174095,-2.97306563777657,-1.33926560728286,,-7.515933617029695,,
,9172.0,1102.0,5302.0,1743.0,2157.0,3074.0,-1479.0,,,,-1.14996186660595,-2.97312095791818,-1.33911011272666,,-8.030104300309464,,
,9171.0,1098.0,5302.0,1742.0,2171.0,3062.0,-1464.0,,,,-1.14943571018521,-2.97301756283349,-1.33907514683648,,-8.494848472580939,,
,9175.0,1102.0,5303.0,1745.0,2163.0,3063.0,-1480.0,,,,-1.14942712671852,-2.97292906384158,-1.33915945088337,,-8.91282595532433,,
,9175.0,1102.0,5306.0,1747.0,2160.0,3072.0,-1500.0,,,,-1.14871851756545,-2.97298651929467,-1.33828898330409,,-9.287735527337741,,
,9179.0,1103.0,5305.0,1747.0,2170.0,3076.0,-1502.0,,,,-1.14912937863751,-2.97288244115642,-1.33815310166715,,-9.624164685581642,,
,9179.0,1101.0,5304.0,1747.0,2175.0,3087.0,-1461.0,,,,-1.14855499631115,-2.97296224430486,-1.33836279912491,,-9.927394391320503,,
,9181.0,1103.0,5304.0,1746.0,2168.0,3084.0,-1477.0,,,,-1.14833740658357,-2.97298303739115,-1.33846731268146,,-10.203161641596479,,
,9183.0,1103.0,5307.0,1748.0,2177.0,3078.0,-1438.0,,,,-1.14744831425474,-2.97285071961836,-1.33745052428253,,-10.45738102971524,,
,9187.0,1102.0,5307.0,1749.0,2174.0,3082.0,-1432.0,,,,-1.14659273729989,-2.97299366034272,-1.33694345615965,,-10.695825592038222,,
,9189.0,1102.0,5306.0,1752.0,2168.0,3068.0,-1443.0,,,,-1.14684600249251,-2.97270600747204,-1.33699201523455,,-10.923768865004273,,
,9191.0,1104.0,5310.0,1749.0,2164.0,3067.0,-1448.0,,,,-1.14591315043619,-2.97280759714481,-1.33666332799166,,-11.145596043547295,,
,9194.0,1104.0,5311.0,1751.0,2180.0,3076.0,-1453.0,,,,-1.14502335794481,-2.97291338057174,-1.33563208508297,,-11.364402759994265,,
,9196.0,1106.0,5310.0,1753.0,2181.0,3082.0,-1458.0,,,,-1.14445473569287,-2.97288637933719,-1.33559872773317,,-11.581612890023997,,
,9201.0,1104.0,5313.0,1751.0,2168.0,3084.0,-1461.0,,,,-1.14342876320947,-2.9726723791162,-1.33538186617992,,-11.79665767149843,,
,9203.0,1104.0,5314.0,1753.0,2176.0,3074.0,-1471.0,,,,-1.14281831955763,-2.97260873739361,-1.33480553705475,,-12.006763364256727,,
,9206.0,1105.0,5315.0,1755.0,2179.0,3065.0,-1484.0,,,,-1.14315642149723,-2.97260058788593,-1.33446495929975,,-12.20689167358389,,
,9210.0,1104.0,5316.0,1757.0,2185.0,3060.0,-1493.0,,,,-1.14113179957485,-2.97259644763127,-1.33353558007538,,-12.389866242211554,,
,9211.0,1107.0,5318.0,1754.0,2175.0,3075.0,-1449.0,,,,-1.14138278713367,-2.97257497172693,-1.3328444035778,,-12.546701128107014,,
,9211.0,1103.0,5317.0,1757.0,2174.0,3076.0,-1482.0,,,,-1.14073315123892,-2.97267345921236,-1.33240708887814,,-12.667125535877492,,
,9215.0,1107.0,5318.0,1757.0,2180.0,3074.0,-1471.0,,,,-1.13960367922669,-2.97250985047368,-1.33255712310309,,-12.740275612949262,,
,9220.0,1107.0,5319.0,1760.0,2177.0,3076.0,-1475.0,,,,-1.13893661451058,-2.97257987260869,-1.3317859908482,,-12.75550123641957,,
,9218.0,1106.0,5319.0,1759.0,2173.0,3065.0,-1454.0,,,,-1.13881256760332,-2.97257119397591,-1.33108538007901,,-12.70321585523241,,
,9224.0,1107.0,5319.0,1759.0,2181.0,3062.0,-1458.0,,,,-1.13866596716279,-2.97250733255182,-1.33129867518923,,-12.575703666603573,,
,9230.0,1109.0,5324.0,1760.0,2166.0,3062.0,-1462.0,,,,-1.13863917966649,-2.9724241096779,-1.33054870076063,,-12.36779450105775,,
,9228.0,1110.0,5320.0,1761.0,2163.0,3064.0,-1478.0,,,,-1.13759803765953,-2.97242550583545,-1.33044159111813,,-12.077326201252717,,
,9233.0,1111.0,5324.0,1765.0,2176.0,3076.0,-1475.0,,,,-1.13680526014837,-2.97236944304951,-1.32955239620825,,-11.705337725184062,,
,9233.0,1106.0,5324.0,1763.0,2180.0,3074.0,-1461.0,,,,-1.13553710712745,-2.9722902387656,-1.32931784367953,,-11.255969979783384,,
,9240.0,1108.0,5326.0,1764.0,2164.0,3079.0,-1452.0,,,,-1.13487168422378,-2.97233454549795,-1.32932938339133,,-10.736088359946026,,
,9241.0,1112.0,5324.0,1764.0,2169.0,3079.0,-1460.0,,,,-1.13351278664847,-2.97233942944607,-1.32852283332544,,-10.154673839948856,,
,9244.0,1111.0,5328.0,1765.0,2179.0,3073.0,-1454.0,,,,-1.13294339335891,-2.97235229207279,-1.32820211458048,,-9.522053662743879,,
,9246.0,1111.0,5327.0,1765.0,2189.0,3085.0,-1470.0,,,,-1.13219466539093,-2.9722188311257,-1.32748121536819,,-8.8490567952784,,
,9251.0,1110.0,5329.0,1767.0,2181.0,3077.0,-1502.0,,,,-1.13129236928034,-2.97207944361293,-1.32674590516731,,-8.14618370093093,,
,9252.0,1112.0,5329.0,1767.0,2179.0,3067.0,-1507.0,,,,-1.13064469966679,-2.97218927583301,-1.3262265189608,,-7.422875229595677,,
,9255.0,1113.0,5328.0,1766.0,2175.0,3066.0,-1486.0,,,,-1.12973880976861,-2.97208616401992,-1.3261570601968,,-6.686951984851683,,
,9255.0,1111.0,5327.0,1767.0,2170.0,3071.0,-1461.0,,,,-1.12935610385161,-2.97220280469286,-1.32583259435024,,-5.944274091541709,,
,9257.0,1113.0,5327.0,1770.0,2166.0,3070.0,-1476.0,,,,-1.12964840696295,-2.97205535944035,-1.32511387151523,,-5.198643529792426,,
,9257.0,1110.0,5327.0,1767.0,2164.0,3062.0,-1454.0,,,,-1.12853878832992,-2.97204480147277,-1.32487405371085,,-4.451940398948529,,
,9255.0,1112.0,5327.0,1767.0,2159.0,3066.0,-1457.0,,,,-1.12861768847943,-2.97210527192287,-1.32427753374372,,-3.704455539009967,,
,9252.0,1111.0,5324.0,1764.0,2156.0,3075.0,-1451.0,,,,-1.12779143998102,-2.97217602964233,-1.32446209433531,,-2.955360251693848,,
,9251.0,1109.0,5321.0,1763.0,2159.0,3073.0,-1455.0,,,,-1.12797868322244,-2.97208648643244,-1.32449237178908,,-2.2032430889222,,
,9250.0,1112.0,5323.0,1762.0,2178.0,3071.0,-1480.0,,,,-1.12747459449392,-2.97199083080619,-1.32374447838183,,-1.4466441755951671,,
,9246.0,1114.0,5323.0,1763.0,2177.0,3064.0,-1475.0,,,,-1.1269554628567,-2.97207260872647,-1.32342530752243,,-0.6845269029863916,,
,9245.0,1111.0,5321.0,1759.0,2176.0,3062.0,-1454.0,,,,-1.12731691378861,-2.97207892749185,-1.32275042911674,,0.08335820849545567,,
,9241.0,1111.0,5319.0,1757.0,2161.0,3074.0,-1470.0,,,,-1.12734273339513,-2.97215803730179,-1.32334674550782,,0.8562449287042586,,
,9236.0,1111.0,5320.0,1756.0,2166.0,3063.0,-1479.0,,,,-1.12727951397785,-2.97209466365734,-1.32349961436835,,1.632267058175828,,
,9234.0,1113.0,5318.0,1756.0,2172.0,3059.0,-1473.0,,,,-1.12779286691844,-2.97207132929931,-1.32390449822197,,2.4085101152503765,,
,9231.0,1109.0,5315.0,1751.0,2200.0,3066.0,-1459.0,,,,-1.12730083469757,-2.97200071469919,-1.32326126827008,,3.181175591376619,,
,9226.0,1112.0,5315.0,1749.0,2188.0,3075.0,-1464.0,,,,-1.12743459835025,-2.97198042992015,-1.32374865253812,,3.9458232178680754,,
,9226.0,1111.0,5317.0,1750.0,2211.0,3075.0,-1482.0,,,,-1.12717626932419,-2.97203022161463,-1.32354912867996,,4.697650862100613,,
,9219.0,1111.0,5312.0,1748.0,2207.0,3075.0,-1489.0,,,,-1.12750745401406,-2.97214884212519,-1.32334910638369,,5.4317723630318655,,
,9216.0,1109.0,5315.0,1747.0,2201.0,3065.0,-1472.0,,,,-1.12822322397915,-2.97213108477971,-1.32364318520259,,6.1434606342390286,,
,9215.0,1109.0,5315.0,1746.0,2196.0,3061.0,-1437.0,,,,-1.12803566240782,-2.97202570564132,-1.32283592855967,,6.828334502995366,,
,9213.0,1111.0,5314.0,1748.0,2192.0,3062.0,-1432.0,,,,-1.12872019958071,-2.97199566143965,-1.32292685400395,,7.482479577930054,,
,9214.0,1111.0,5316.0,1748.0,2190.0,3061.0,-1456.0,,,,-1.1283365222309,-2.97210601102968,-1.32329805696901,,8.102503250207853,,
,9213.0,1111.0,5315.0,1749.0,2199.0,3075.0,-1474.0,,,,-1.12924867842421,-2.97231844703078,-1.32329989749816,,8.685530988406988,,
,9209.0,1108.0,5312.0,1745.0,2186.0,3063.0,-1507.0,,,,-1.12894162356141,-2.97223729200107,-1.32267992852297,,9.229155895189628,,
,9210.0,1109.0,5312.0,1749.0,2176.0,3071.0,-1498.0,,,,-1.12874670160155,-2.97206213858773,-1.32289449078898,,9.73135654096224,,
,9212.0,1112.0,5317.0,1748.0,2178.0,3072.0,-1458.0,,,,-1.12711570932338,-2.97213997018543,-1.32221013466283,,10.190399510440084,,
,9214.0,1111.0,5314.0,1749.0,2175.0,3072.0,-1450.0,,,,-1.12748297689541,-2.97213656616089,-1.32218592128618,,10.604743035367358,,
,9214.0,1110.0,5314.0,1747.0,2171.0,3073.0,-1477.0,,,,-1.12585776886216,-2.97201816564069,-1.32172520759169,,10.972956850987375,,
,9211.0,1113.0,5317.0,1750.0,2167.0,3057.0,-1486.0,,,,-1.12511149882265,-2.97213053046304,-1.31991848631418,,11.293671357189101,,
,9209.0,1112.0,5316.0,1749.0,2154.0,3069.0,-1454.0,,,,-1.12374646755862,-2.97199697271338,-1.32007485227186,,11.565566596708017,,
,9213.0,1111.0,5313.0,1748.0,2164.0,3071.0,-1449.0,,,,-1.12248360195352,-2.97197311483543,-1.31928450950704,,11.787408663118306,,
,9212.0,1110.0,5314.0,1752.0,2172.0,3067.0,-1471.0,,,,-1.12190834882922,-2.97192028211075,-1.31854346342847,,11.958137623157274,,
,9217.0,1112.0,5318.0,1751.0,2177.0,3073.0,-1470.0,,,,-1.12114023148068,-2.97184593107297,-1.31825382740885,,12.077005787909288,,
,9221.0,1113.0,5316.0,1750.0,2181.0,3072.0,-1456.0,,,,-1.12097160301942,-2.97184540824671,-1.31744823447038,,12.143756944316952,,
,9219.0,1112.0,5315.0,1750.0,2180.0,3071.0,-1437.0,,,,-1.11989023152224,-2.97190624768539,-1.31725929244244,,12.15882617317071,,
,9220.0,1111.0,5314.0,1751.0,2177.0,3076.0,-1449.0,,,,-1.11892860224243,-2.97170551633796,-1.31620778229079,,12.12352870005273,,
,9222.0,1112.0,5318.0,1751.0,2170.0,3063.0,-1462.0,,,,-1.11956561045451,-2.97174029521497,-1.31647258423106,,12.04019864378823,,
,9224.0,1114.0,5319.0,1752.0,2165.0,3071.0,-1441.0,,,,-1.11823205015533,-2.97161072403346,-1.31636444110381,,11.912237539226457,,
,9224.0,1113.0,5315.0,1751.0,2171.0,3068.0,-1452.0,,,,-1.11801369627533,-2.9716102518856,-1.31550663229834,,11.744039306435434,,
,9225.0,1112.0,5317.0,1752.0,2176.0,3063.0,-1462.0,,,,-1.11816851393222,-2.97165978365346,-1.31556260279995,,11.540772402301435,,
,9226.0,1111.0,5316.0,1753.0,2167.0,3064.0,-1464.0,,,,-1.11646078754087,-2.97166890799282,-1.31518615231557,,11.30801930672771,,
,9227.0,1113.0,5318.0,1755.0,2167.0,3060.0,-1478.0,,,,-1.11621358947816,-2.97170389375031,-1.31444894158509,,11.051295373191515,,
,9224.0,1114.0,5317.0,1753.0,2173.0,3055.0,-1480.0,,,,-1.11419130856541,-2.97165072187825,-1.31377210928465,,10.775490342565906,,
,9225.0,1113.0,5317.0,1753.0,2187.0,3065.0,-1479.0,,,,-1.11352221485801,-2.97152985470282,-1.31358736077872,,10.484293852481096,,
,9229.0,1113.0,5321.0,1753.0,2172.0,3063.0,-1468.0,,,,-1.11282452022156,-2.97155430827447,-1.3129936290858,,10.17967873119533,,
,9232.0,1114.0,5320.0,1755.0,2176.0,3062.0,-1461.0,,,,-1.1107565687609,-2.97137198492238,-1.31140374532518,,9.861520085586235,,
,9232.0,1115.0,5319.0,1755.0,2178.0,3061.0,-1462.0,,,,-1.10972252601502,-2.97139359730506,-1.31067641611949,,9.52742125291141,,
,9231.0,1112.0,5320.0,1754.0,2165.0,3052.0,-1461.0,,,,-1.10798290960575,-2.97134806053832,-1.30976488691829,,9.172797889674412,,
,9234.0,1114.0,5319.0,1752.0,2179.0,3061.0,-1483.0,,,,-1.10729824455797,-2.97128206865629,-1.31009985546068,,8.79124033339581,,
,9236.0,1116.0,5319.0,1756.0,2172.0,3068.0,-1490.0,,,,-1.10623864502534,-2.97126080980907,-1.30892002412015,,8.375136927510507,,
,9232.0,1113.0,5318.0,1757.0,2166.0,3066.0,-1494.0,,,,-1.10545667492284,-2.97123338189349,-1.30881775420628,,7.916503835578047,,
,9237.0,1113.0,5321.0,1756.0,2185.0,3060.0,-1493.0,,,,-1.10429131126376,-2.97113335386631,-1.30815147090186,,7.407935782406383,,
,9240.0,1113.0,5322.0,1754.0,2184.0,3054.0,-1477.0,,,,-1.10351616399695,-2.97115013788012,-1.30752632859082,,6.843571196556586,,
,9239.0,1114.0,5322.0,1759.0,2184.0,3059.0,-1467.0,,,,-1.10250732969736,-2.97101400824046,-1.30680350509949,,6.219956909197749,,
,9239.0,1112.0,5322.0,1757.0,2170.0,3069.0,-1458.0,,,,-1.10163108217659,-2.97092047340558,-1.30651108359782,,5.5367031525142805,,
,9242.0,1113.0,5323.0,1757.0,2171.0,3078.0,-1457.0,,,,-1.10066084876469,-2.97098138794932,-1.30584460243436,,4.796839184853346,,
,9242.0,1113.0,5323.0,1755.0,2189.0,3074.0,-1474.0,,,,-1.09951513411982,-2.97083846723383,-1.30559803628014,,4.006812424191619,,
,9244.0,1115.0,5327.0,1756.0,2183.0,3083.0,-1458.0,,,,-1.09819254415348,-2.97097445499633,-1.30481306521004,,3.176117133520253,,
,9247.0,1113.0,5330.0,1759.0,2180.0,3067.0,-1477.0,,,,-1.09721562426291,-2.97079699793208,-1.30370887206522,,2.3165880091416504,,
,9250.0,1115.0,5328.0,1759.0,2170.0,3062.0,-1480.0,,,,-1.0959844977952,-2.97077405637906,-1.3031659575482,,1.4414422099729411,,
,9252.0,1111.0,5327.0,1759.0,2177.0,3065.0,-1477.0,,,,-1.09457140860362,-2.9706920636412,-1.30201985802062,,0.564190972027614,,
,9255.0,1113.0,5329.0,1762.0,2189.0,3068.0,-1473.0,,,,-1.0926413125262,-2.97065463697167,-1.3015281741409,,-0.30243994200687485,,
,9256.0,1114.0,5329.0,1761.0,2170.0,3062.0,-1464.0,,,,-1.0915703873789,-2.97058100444785,-1.30048295576265,,-1.1474475033400793,,
,9254.0,1114.0,5329.0,1760.0,2171.0,3057.0,-1462.0,,,,-1.08916400896226,-2.97039417502742,-1.29949610522278,,-1.9622400500456552,,
,9258.0,1113.0,5329.0,1759.0,2195.0,3059.0,-1469.0,,,,-1.08771551565142,-2.9703228786304,-1.29882695137759,,-2.7410113739183743,,
,9259.0,1115.0,5333.0,1763.0,2201.0,3059.0,-1487.0,,,,-1.08609341801074,-2.97032176690857,-1.2984116564014,,-3.4807791901700105,,
2025-07-15 22:25:41,9262.0,1113.0,5332.0,1761.0,2192.0,3065.0,-1497.0,,,2025/07/15 10:25:41 PM,-1.08466057803289,-2.97015731094416,-1.29710870703045,,-4.181110001027734,,
,9261.0,1115.0,5334.0,1765.0,2196.0,3071.0,-1497.0,,,,-1.08306067055874,-2.97018931935765,-1.29583491893213,,-4.843590111984051,,
,9262.0,1112.0,5332.0,1761.0,2190.0,3080.0,-1493.0,,,,-1.08135617762278,-2.97013112146087,-1.29480352196951,,-5.471131984903857,,
,9268.0,1115.0,5334.0,1763.0,2188.0,3065.0,-1479.0,,,,-1.07899682800784,-2.97008946834169,-1.29367167275197,,-6.067222638876273,,
,9270.0,1114.0,5336.0,1767.0,2185.0,3067.0,-1478.0,,,,-1.07726582335386,-2.96997868020544,-1.29312108787197,,-6.635222993682253,,
,9270.0,1116.0,5335.0,1766.0,2179.0,3075.0,-1475.0,,,,-1.07569687698672,-2.96989941572408,-1.29218241310604,,-7.1778123780768635,,
,9275.0,1114.0,5336.0,1767.0,2183.0,3074.0,-1489.0,,,,-1.07398131066995,-2.96985754939011,-1.29127852004948,,-7.696642728881165,,
,9275.0,1115.0,5337.0,1768.0,2170.0,3073.0,-1455.0,,,,-1.07186602050499,-2.96977963226429,-1.29070416490845,,-8.192227577598622,,
,9277.0,1116.0,5337.0,1769.0,2194.0,3058.0,-1469.0,,,,-1.07103544526006,-2.96977076023033,-1.28928071461481,,-8.66404946361759,,
,9281.0,1115.0,5339.0,1770.0,2190.0,3063.0,-1491.0,,,,-1.07013475150151,-2.96959162815856,-1.28915969766061,,-9.110834344783278,,
,9282.0,1115.0,5338.0,1768.0,2162.0,3060.0,-1496.0,,,,-1.06899368780066,-2.96960756276172,-1.2888588984552,,-9.530919776677962,,
,9285.0,1116.0,5338.0,1769.0,2185.0,3078.0,-1444.0,,,,-1.06760095534558,-2.96939782876225,-1.2881401252866,,-9.922638087443623,,
,9288.0,1117.0,5339.0,1769.0,2196.0,3069.0,-1476.0,,,,-1.06626557202176,-2.96943618729411,-1.28733850564044,,-10.284644648427953,,
,9292.0,1117.0,5341.0,1771.0,2192.0,3078.0,-1476.0,,,,-1.06522374092239,-2.96949692848966,-1.28753002687261,,-10.616139570707713,,
,9294.0,1115.0,5343.0,1770.0,2185.0,3085.0,-1460.0,,,,-1.06524079642258,-2.96945975270519,-1.28677066713203,,-10.916953353336684,,
,9297.0,1118.0,5342.0,1772.0,2180.0,3088.0,-1465.0,,,,-1.06420140017398,-2.96937906365035,-1.28634781890873,,-11.187489319749238,,
,9300.0,1116.0,5342.0,1775.0,2177.0,3074.0,-1454.0,,,,-1.06450419252011,-2.96947172063853,-1.28603432881141,,-11.428535879030576,,
,9302.0,1119.0,5346.0,1776.0,2191.0,3078.0,-1452.0,,,,-1.06393533898159,-2.96939598049662,-1.28557481783353,,-11.640978432964188,,
,9302.0,1119.0,5343.0,1777.0,2198.0,3078.0,-1458.0,,,,-1.0651495590118,-2.96944975344704,-1.28662556642318,,-11.82545319565734,,
,9305.0,1116.0,5341.0,1774.0,2182.0,3066.0,-1451.0,,,,-1.06493363642939,-2.9694044265341,-1.28609999669746,,-11.981992518582784,,
,9308.0,1117.0,5343.0,1774.0,2178.0,3063.0,-1448.0,,,,-1.06515367235298,-2.96943194988004,-1.28640207378519,,-12.109712787007572,,
,9308.0,1119.0,5340.0,1773.0,2174.0,3050.0,-1451.0,,,,-1.06554628591831,-2.96939990026257,-1.28600089927761,,-12.206591028990802,,
,9311.0,1116.0,5343.0,1776.0,2173.0,3050.0,-1460.0,,,,-1.06556077788394,-2.96924879698658,-1.28562356468467,,-12.269365162687436,,
,9310.0,1114.0,5343.0,1775.0,2160.0,3056.0,-1445.0,,,,-1.0663876228638,-2.96935278658615,-1.28605311047005,,-12.293576659704621,,
,9310.0,1118.0,5340.0,1774.0,2170.0,3068.0,-1462.0,,,,-1.06602704983838,-2.96932532992499,-1.28591329171997,,-12.273756148545495,,
,9313.0,1118.0,5340.0,1773.0,2159.0,3063.0,-1464.0,,,,-1.06449324177168,-2.96935420888283,-1.28547377398031,,-12.203735705187427,,
,9309.0,1117.0,5340.0,1772.0,2158.0,3061.0,-1470.0,,,,-1.06475711399092,-2.96952309739816,-1.2854008585497,,-12.077059078482561,,
,9307.0,1115.0,5337.0,1769.0,2169.0,3073.0,-1477.0,,,,-1.06358883745895,-2.96940388031492,-1.28486983120643,,-11.887453684302516,,
,9307.0,1115.0,5336.0,1770.0,2182.0,3069.0,-1499.0,,,,-1.063884553932,-2.96937879280819,-1.28429262004426,,-11.629325010308694,,
,9304.0,1119.0,5337.0,1770.0,2180.0,3084.0,-1506.0,,,,-1.06269102472959,-2.96927592295385,-1.28435084367867,,-11.298234045530714,,
,9303.0,1117.0,5337.0,1769.0,2174.0,3073.0,-1480.0,,,,-1.0622588173087,-2.96926855710333,-1.28359818259602,,-10.89132116636303,,
,9297.0,1113.0,5332.0,1767.0,2194.0,3060.0,-1472.0,,,,-1.06105489018347,-2.96909326367452,-1.2833021038656,,-10.40764560227938,,
,9292.0,1115.0,5334.0,1765.0,2195.0,3065.0,-1477.0,,,,-1.06046018538403,-2.96905815580421,-1.28276311582004,,-9.848417765125417,,
,9291.0,1117.0,5334.0,1764.0,2192.0,3066.0,-1478.0,,,,-1.06057428661739,-2.96914949483504,-1.28159758345231,,-9.217111255671702,,
,9287.0,1113.0,5331.0,1762.0,2199.0,3064.0,-1464.0,,,,-1.06053009784698,-2.96908906187424,-1.28266423821394,,-8.519450654888812,,
,9285.0,1111.0,5332.0,1760.0,2201.0,3061.0,-1489.0,,,,-1.06012979956887,-2.96901396866751,-1.28262540982181,,-7.763278571129429,,
,9282.0,1114.0,5332.0,1758.0,2208.0,3064.0,-1484.0,,,,-1.0588255836167,-2.96905977857754,-1.28111166773693,,-6.95830973620015,,
,9278.0,1115.0,5333.0,1761.0,2198.0,3067.0,-1470.0,,,,-1.05818217783177,-2.96906133111604,-1.27989314515694,,-6.11578139074428,,
,9275.0,1115.0,5329.0,1760.0,2201.0,3062.0,-1462.0,,,,-1.05644399694563,-2.96900973617706,-1.28056753857993,,-5.248009509353641,,
,9273.0,1112.0,5330.0,1759.0,2184.0,3079.0,-1474.0,,,,-1.05505327622583,-2.96891466278825,-1.27924667515212,,-4.367862426520538,,
,9273.0,1111.0,5329.0,1755.0,2233.0,3061.0,-1475.0,,,,-1.05328809810611,-2.96886170132593,-1.27862789280669,,-3.488169583069412,,
,9272.0,1112.0,5332.0,1759.0,2200.0,3052.0,-1495.0,,,,-1.05212511117459,-2.96873995414487,-1.27761853171081,,-2.6210935161756317,,
,9272.0,1114.0,5330.0,1758.0,2189.0,3052.0,-1492.0,,,,-1.05025410174663,-2.96857040532753,-1.27630128060233,,-1.7775049804402876,,
,9269.0,1112.0,5331.0,1757.0,2190.0,3068.0,-1507.0,,,,-1.04832257608417,-2.96854239371384,-1.27587824816259,,-0.9664100033763388,,
,9268.0,1110.0,5328.0,1755.0,2198.0,3062.0,-1490.0,,,,-1.04652125658418,-2.96840164483905,-1.275059090104,,-0.19448058613077276,,
,9270.0,1113.0,5331.0,1758.0,2179.0,3065.0,-1467.0,,,,-1.04442856847936,-2.96841490317291,-1.27435524846777,,0.5342634246015999,,
,9269.0,1111.0,5331.0,1759.0,2187.0,3062.0,-1477.0,,,,-1.04312249178597,-2.96837910023097,-1.27395642019039,,1.2185845425755313,,
,9270.0,1111.0,5330.0,1759.0,2196.0,3075.0,-1485.0,,,,-1.04249520105403,-2.96823274860934,-1.27297517990426,,1.8599493577415183,,
,9266.0,1109.0,5329.0,1758.0,2194.0,3064.0,-1463.0,,,,-1.04212302129308,-2.96822638157468,-1.27254316424019,,2.462241414490776,,
,9272.0,1112.0,5332.0,1757.0,2205.0,3069.0,-1466.0,,,,-1.04143701768273,-2.96818201806246,-1.27193906576856,,3.031287499746469,,
,9272.0,1113.0,5332.0,1761.0,2188.0,3059.0,-1468.0,,,,-1.04094708088921,-2.96816890744681,-1.27189183252998,,3.574242172011011,,
,9273.0,1111.0,5332.0,1759.0,2182.0,3055.0,-1452.0,,,,-1.03975840378518,-2.96821207081831,-1.27144594980789,,4.0988946190107685,,
,9270.0,1111.0,5331.0,1758.0,2180.0,3062.0,-1443.0,,,,-1.04073268530352,-2.96809283906359,-1.27251986002309,,4.6129739535324825,,
,9274.0,1112.0,5334.0,1761.0,2172.0,3060.0,-1435.0,,,,-1.04039307687783,-2.96806686089439,-1.27141029459539,,5.123530259705611,,
,9272.0,1113.0,5333.0,1762.0,2178.0,3074.0,-1438.0,,,,-1.03912755854311,-2.96798239302686,-1.27073339750143,,5.636457203947508,,
,9275.0,1112.0,5333.0,1760.0,2179.0,3077.0,-1453.0,,,,-1.03817412555561,-2.96800691006354,-1.27023379228437,,6.156198910543948,,
,9276.0,1109.0,5333.0,1761.0,2180.0,3063.0,-1447.0,,,,-1.0379779444713,-2.96786229959691,-1.2700267014352,,6.6856532215472,,
,9277.0,1109.0,5330.0,1763.0,2185.0,3075.0,-1461.0,,,,-1.03672708621565,-2.96794377803869,-1.27006416810028,,7.226251384125271,,
,9278.0,1113.0,5332.0,1763.0,2186.0,3066.0,-1439.0,,,,-1.03593210870544,-2.96812431392747,-1.2691288524862,,7.778166791941098,,
,9281.0,1111.0,5335.0,1764.0,2174.0,3061.0,-1438.0,,,,-1.03549012187363,-2.96793724073142,-1.26843695224701,,8.340587648366053,,
,9277.0,1111.0,5334.0,1764.0,2187.0,3053.0,-1464.0,,,,-1.03453911683676,-2.96794325155911,-1.26776267616482,,8.911983178384917,,
,9278.0,1110.0,5332.0,1762.0,2182.0,3066.0,-1459.0,,,,-1.03414979534883,-2.96786436017277,-1.26797451980327,,9.490300610584788,,
,9279.0,1110.0,5333.0,1762.0,2188.0,3082.0,-1480.0,,,,-1.03370761210966,-2.96777047641498,-1.26770373925721,,10.073048620984263,,
,9279.0,1109.0,5333.0,1765.0,2194.0,3076.0,-1478.0,,,,-1.032334997985,-2.96774786167001,-1.26761610802596,,10.657248673758838,,
,9278.0,1110.0,5331.0,1761.0,2188.0,3074.0,-1485.0,,,,-1.03197784524182,-2.96772476128508,-1.26670850891107,,11.239264251405134,,
,9279.0,1110.0,5334.0,1763.0,2192.0,3071.0,-1483.0,,,,-1.03146098004873,-2.96765710221276,-1.26692892109729,,11.814544760660619,,
,9282.0,1110.0,5332.0,1763.0,2188.0,3060.0,-1480.0,,,,-1.03058030813644,-2.96756749493337,-1.26555882926547,,12.37734158123627,,
,9283.0,1111.0,5330.0,1764.0,2188.0,3062.0,-1473.0,,,,-1.02974249032149,-2.96757237498077,-1.26606286520526,,12.920464438626421,,
,9281.0,1110.0,5333.0,1765.0,2175.0,3056.0,-1488.0,,,,-1.02977975551701,-2.96763004259121,-1.26520946194921,,13.435144575536107,,
,9282.0,1110.0,5331.0,1764.0,2177.0,3070.0,-1476.0,,,,-1.02898302505829,-2.96757792559445,-1.26506921843653,,13.911057108595013,,
,9283.0,1109.0,5331.0,1765.0,2178.0,3063.0,-1460.0,,,,-1.02794693381803,-2.96770872919567,-1.26466039200191,,14.336531115401367,,
,9284.0,1110.0,5331.0,1765.0,2176.0,3067.0,-1465.0,,,,-1.02849544529402,-2.96759458377823,-1.26439551219125,,14.698946824366303,,
,9286.0,1108.0,5336.0,1764.0,2180.0,3068.0,-1457.0,,,,-1.02790831558127,-2.96751447462648,-1.2650754088017,,14.985290321648515,,
,9285.0,1108.0,5333.0,1766.0,2184.0,3069.0,-1481.0,,,,-1.02629068157958,-2.9675690913939,-1.26353477288515,,15.182813327290722,,
,9287.0,1109.0,5335.0,1766.0,2176.0,3062.0,-1481.0,,,,-1.02635222683999,-2.96748160250019,-1.26401381995216,,15.279733324166674,,
,9288.0,1108.0,5335.0,1767.0,2191.0,3068.0,-1475.0,,,,-1.0253660358074,-2.96757200566111,-1.26331285380902,,15.265908963213748,,
,9291.0,1109.0,5334.0,1769.0,2185.0,3066.0,-1484.0,,,,-1.02489303808001,-2.96741248467534,-1.26306807776255,,15.133435168588514,,
,9288.0,1107.0,5333.0,1765.0,2186.0,3060.0,-1479.0,,,,-1.02445228872981,-2.967544472196,-1.26252084024303,,14.877117760121102,,
,9291.0,1111.0,5334.0,1768.0,2189.0,3067.0,-1470.0,,,,-1.02429400783476,-2.96749922922075,-1.26326668022828,,14.49480440892593,,
,9292.0,1108.0,5336.0,1768.0,2177.0,3060.0,-1448.0,,,,-1.02443659720291,-2.96727902530343,-1.26252461356056,,13.987563595623154,,
,9294.0,1114.0,5337.0,1769.0,2179.0,3058.0,-1461.0,,,,-1.02420304369134,-2.96723667412992,-1.2622312761641,,13.359713309821391,,
,9295.0,1108.0,5334.0,1768.0,2197.0,3070.0,-1460.0,,,,-1.02326068753208,-2.96743196818633,-1.26154359231126,,12.618705972938908,,
,9297.0,1108.0,5338.0,1768.0,2192.0,3066.0,-1462.0,,,,-1.02251023041547,-2.96736097070414,-1.26173086378576,,11.774877733750973,,
,9299.0,1109.0,5336.0,1772.0,2188.0,3061.0,-1459.0,,,,-1.02134403200224,-2.96737112566249,-1.26109775243978,,10.841072572825487,,
,9299.0,1108.0,5337.0,1769.0,2188.0,3057.0,-1458.0,,,,-1.02082234921698,-2.96721286130221,-1.26149882590325,,9.83215669560009,,
,9302.0,1109.0,5337.0,1770.0,2175.0,3047.0,-1460.0,,,,-1.01997978476352,-2.96718829030668,-1.2611309046201,,8.764445553679794,,
,9301.0,1110.0,5341.0,1770.0,2177.0,3067.0,-1485.0,,,,-1.01927262991039,-2.96722860830241,-1.26009675808834,,7.655072002822907,,
,9305.0,1111.0,5339.0,1772.0,2171.0,3080.0,-1481.0,,,,-1.01928876336414,-2.96717309993523,-1.26032029039964,,6.52132775240445,,
,9307.0,1111.0,5341.0,1775.0,2182.0,3071.0,-1453.0,,,,-1.01906096601149,-2.96722820372505,-1.26015911292339,,5.380010868870168,,
,9310.0,1109.0,5341.0,1774.0,2182.0,3071.0,-1455.0,,,,-1.01891513444971,-2.96704439991197,-1.25933548382706,,4.246810102377048,,
,9311.0,1111.0,5340.0,1773.0,2191.0,3057.0,-1458.0,,,,-1.01868408233381,-2.96714926901441,-1.25925973329042,,3.135753518557544,,
,9310.0,1110.0,5340.0,1776.0,2203.0,3054.0,-1450.0,,,,-1.01832047218454,-2.96718513072534,-1.25933290465601,,2.0587462453543743,,
,9312.0,1111.0,5343.0,1776.0,2193.0,3059.0,-1452.0,,,,-1.01791585105884,-2.96710514672775,-1.25992868340477,,1.0252212596023973,,
,9314.0,1112.0,5339.0,1778.0,2185.0,3057.0,-1444.0,,,,-1.01863965104838,-2.96712408370289,-1.25887930437263,,0.041926834633113155,,
,9316.0,1108.0,5340.0,1775.0,2191.0,3058.0,-1449.0,,,,-1.01777715422929,-2.96711790346755,-1.25939929747463,,-0.8871290227305261,,
,9321.0,1111.0,5343.0,1775.0,2219.0,3056.0,-1443.0,,,,-1.0171410032508,-2.96703619872643,-1.25932218074086,,-1.7605665461059568,,
,9324.0,1109.0,5345.0,1776.0,2216.0,3064.0,-1440.0,,,,-1.01680950713182,-2.96720760741676,-1.25871915906465,,-2.5793603392054525,,
,9323.0,1110.0,5343.0,1777.0,2223.0,3070.0,-1464.0,,,,-1.01688428162694,-2.9671138299515,-1.25902842716342,,-3.346428591510912,,
,9323.0,1109.0,5344.0,1778.0,2208.0,3076.0,-1481.0,,,,-1.01647459128812,-2.96719805597729,-1.25870570181904,,-4.066127036499324,,
,9328.0,1113.0,5345.0,1778.0,2197.0,3080.0,-1467.0,,,,-1.01684372405192,-2.96714126165739,-1.25841190112409,,-4.743699645777202,,
,9330.0,1111.0,5345.0,1780.0,2183.0,3068.0,-1471.0,,,,-1.01760488751306,-2.96715149892178,-1.25871280786071,,-5.384740484143875,,
,9332.0,1110.0,5343.0,1780.0,2183.0,3064.0,-1468.0,,,,-1.01642440898044,-2.9671697296437,-1.25883905899189,,-5.994716122269813,,
,9332.0,1110.0,5341.0,1777.0,2192.0,3053.0,-1455.0,,,,-1.01688990584921,-2.96722579017774,-1.25936003710911,,-6.578587191258761,,
,9332.0,1109.0,5344.0,1780.0,2174.0,3049.0,-1449.0,,,,-1.01736488114681,-2.96725090844673,-1.2600663355166,,-7.140553242151548,,
,9336.0,1110.0,5341.0,1778.0,2180.0,3056.0,-1478.0,,,,-1.01787666664296,-2.96707674375078,-1.25916995311049,,-7.6839289336295495,,
,9334.0,1111.0,5340.0,1781.0,2179.0,3056.0,-1469.0,,,,-1.01719657782405,-2.96716855645978,-1.25972056144669,,-8.211142981017343,,
,9335.0,1108.0,5338.0,1779.0,2174.0,3060.0,-1472.0,,,,-1.01726126758463,-2.96714824538819,-1.25853788201685,,-8.723835455743064,,
,9335.0,1111.0,5341.0,1780.0,2179.0,3060.0,-1472.0,,,,-1.01742453169587,-2.96728374347005,-1.25872834212721,,-9.223015989091767,,
,9331.0,1110.0,5340.0,1777.0,2181.0,3050.0,-1489.0,,,,-1.01650352058234,-2.96715810085395,-1.25901852293546,,-9.709238288099503,,
,9329.0,1110.0,5339.0,1774.0,2192.0,3054.0,-1491.0,,,,-1.01625496416105,-2.96714002404839,-1.25831514252501,,-10.182747807901059,,
,9324.0,1107.0,5334.0,1771.0,2202.0,3057.0,-1492.0,,,,-1.01579041280488,-2.96714667416231,-1.25854470826485,,-10.64356961272349,,
,9325.0,1108.0,5336.0,1772.0,2196.0,3059.0,-1471.0,,,,-1.01581922122411,-2.96703080544996,-1.25782163148343,,-11.091519382037522,,
,9320.0,1108.0,5334.0,1771.0,2207.0,3060.0,-1486.0,,,,-1.01433982777183,-2.96707574925392,-1.25779349298993,,-11.526137715781474,,
,9315.0,1107.0,5332.0,1768.0,2200.0,3059.0,-1483.0,,,,-1.01488234434935,-2.96697948272409,-1.25754288774239,,-11.946562754538009,,
,9309.0,1107.0,5332.0,1767.0,2210.0,3062.0,-1459.0,,,,-1.01514711799632,-2.96702649168419,-1.25794414008957,,-12.3513667623547,,
,9306.0,1106.0,5330.0,1765.0,2215.0,3056.0,-1475.0,,,,-1.01548021046857,-2.96698896095995,-1.2580108172874,,-12.73838811168557,,
,9302.0,1104.0,5331.0,1764.0,2200.0,3056.0,-1481.0,,,,-1.01639588524343,-2.96706987879776,-1.25885252316097,,-13.104591168917983,,
,9297.0,1103.0,5326.0,1761.0,2198.0,3056.0,-1486.0,,,,-1.01678020543782,-2.96707441902286,-1.25866372633029,,-13.445983419301006,,
,9292.0,1104.0,5327.0,1757.0,2203.0,3054.0,-1462.0,,,,-1.01722529801187,-2.96711968197198,-1.25861908047855,,-13.757612459478766,,
,9289.0,1103.0,5325.0,1759.0,2193.0,3055.0,-1494.0,,,,-1.01753081304508,-2.96711933856758,-1.25973877209531,,-14.033655851172375,,
,9286.0,1107.0,5323.0,1758.0,2209.0,3060.0,-1500.0,,,,-1.01681572290843,-2.96712884730953,-1.25880859996233,,-14.267604993485925,,
,9281.0,1103.0,5325.0,1754.0,2197.0,3065.0,-1488.0,,,,-1.01640520732789,-2.96718790200104,-1.25868768634979,,-14.452531467804299,,
,9282.0,1103.0,5323.0,1759.0,2206.0,3057.0,-1468.0,,,,-1.01587191740001,-2.96701393422287,-1.25942502735166,,-14.581413012000752,,
,9280.0,1101.0,5323.0,1757.0,2200.0,3051.0,-1470.0,,,,-1.01575560633572,-2.96711923224321,-1.25869748709233,,-14.6474889206781,,
,9277.0,1103.0,5323.0,1757.0,2203.0,3066.0,-1447.0,,,,-1.01457906219276,-2.96709811412094,-1.2582775647011,,-14.644612535157705,,
,9277.0,1104.0,5324.0,1756.0,2198.0,3063.0,-1437.0,,,,-1.0148776271437,-2.96716692353301,-1.25800640406,,-14.567570904508266,,
,9274.0,1103.0,5323.0,1757.0,2193.0,3066.0,-1439.0,,,,-1.01440388524809,-2.96711208006303,-1.25775250251796,,-14.412347022221976,,
,9274.0,1099.0,5320.0,1754.0,2182.0,3063.0,-1457.0,,,,-1.01410803989821,-2.96701244224045,-1.25859061381382,,-14.176307153191772,,
2025-07-15 22:25:42,9274.0,1102.0,5324.0,1755.0,2182.0,3067.0,-1436.0,,,2025/07/15 10:25:42 PM,-1.01399717942186,-2.96694513273235,-1.25828370721119,,-13.858304398527046,,
,9273.0,1103.0,5324.0,1757.0,2210.0,3066.0,-1437.0,,,,-1.01473399385265,-2.96702641194874,-1.25800892946498,,-13.458699541713951,,
,9276.0,1103.0,5322.0,1757.0,2202.0,3066.0,-1440.0,,,,-1.01495456640906,-2.96718627035532,-1.25801030522858,,-12.979310224262695,,
,9271.0,1102.0,5322.0,1756.0,2188.0,3069.0,-1469.0,,,,-1.01554820228356,-2.9671149672663,-1.25928761499701,,-12.423307471650364,,
,9272.0,1101.0,5323.0,1756.0,2196.0,3072.0,-1469.0,,,,-1.01638420566677,-2.96723313348907,-1.25893032670993,,-11.79508217394099,,
,9277.0,1102.0,5326.0,1758.0,2185.0,3079.0,-1454.0,,,,-1.01693219508868,-2.96725062476721,-1.25980569398511,,-11.100101855639384,,
,9275.0,1101.0,5326.0,1759.0,2184.0,3071.0,-1450.0,,,,-1.01719468683451,-2.96734940703901,-1.2595574584287,,-10.344770258288456,,
,9272.0,1103.0,5324.0,1754.0,2170.0,3065.0,-1470.0,,,,-1.01843939994294,-2.9673609472182,-1.26062763639572,,-9.536291334488814,,
,9275.0,1102.0,5326.0,1756.0,2182.0,3067.0,-1466.0,,,,-1.01872646556873,-2.9673408876541,-1.26036511901695,,-8.682529236463322,,
,9275.0,1103.0,5324.0,1760.0,2185.0,3054.0,-1439.0,,,,-1.01976104371218,-2.96724072807072,-1.26044482352239,,-7.791850752602377,,
,9276.0,1102.0,5325.0,1760.0,2197.0,3055.0,-1459.0,,,,-1.01903639407986,-2.96722657963486,-1.26042317012025,,-6.872938246069975,,
,9276.0,1100.0,5325.0,1757.0,2198.0,3056.0,-1463.0,,,,-1.01928826440957,-2.96720065659131,-1.26149337634729,,-5.934568350068272,,
,9275.0,1101.0,5324.0,1759.0,2196.0,3055.0,-1476.0,,,,-1.01900529470262,-2.96729433255778,-1.26046195947784,,-4.985361501591908,,
,9276.0,1103.0,5326.0,1759.0,2182.0,3069.0,-1489.0,,,,-1.01860858246989,-2.96726622350726,-1.26048701924062,,-4.033516833243772,,
,9276.0,1099.0,5325.0,1759.0,2188.0,3074.0,-1467.0,,,,-1.01763325815119,-2.96720104808245,-1.25922605388742,,-3.086553885817286,,
,9275.0,1100.0,5324.0,1758.0,2193.0,3065.0,-1457.0,,,,-1.0167948024267,-2.9671622482554,-1.25934840847819,,-2.1510858997434,,
,9273.0,1102.0,5325.0,1757.0,2197.0,3057.0,-1453.0,,,,-1.01668100184999,-2.96709636595802,-1.25860269348532,,-1.2326486751402936,,
,9277.0,1101.0,5330.0,1760.0,2200.0,3057.0,-1481.0,,,,-1.01510607400772,-2.96697696617678,-1.25742204354798,,-0.3356042967870085,,
,9276.0,1102.0,5325.0,1759.0,2195.0,3062.0,-1475.0,,,,-1.01415900653199,-2.9670021696809,-1.25769639825851,,0.536869074044369,,
,9276.0,1101.0,5328.0,1760.0,2195.0,3055.0,-1466.0,,,,-1.01348345883715,-2.96704714615629,-1.25670346039212,,1.3827007450495108,,
,9273.0,1097.0,5326.0,1757.0,2180.0,3053.0,-1471.0,,,,-1.01308800409945,-2.96693110923886,-1.25702065884003,,2.2007753358573843,,
,9275.0,1101.0,5325.0,1759.0,2205.0,3051.0,-1480.0,,,,-1.01243578326134,-2.96697183792842,-1.25622053103973,,2.990725915873134,,
,9273.0,1100.0,5326.0,1759.0,2198.0,3060.0,-1456.0,,,,-1.0123378024313,-2.96716275504142,-1.25608555121307,,3.7526992792652276,,
,9276.0,1099.0,5324.0,1757.0,2203.0,3065.0,-1447.0,,,,-1.01151018787839,-2.96698451856894,-1.25616230081265,,4.487120543768116,,
,9273.0,1098.0,5325.0,1758.0,2211.0,3066.0,-1458.0,,,,-1.010847485396,-2.96698611328743,-1.25525959015068,,5.1944800348724,,
,9274.0,1100.0,5327.0,1759.0,2204.0,3069.0,-1461.0,,,,-1.01104622163114,-2.96687039867187,-1.25593662512765,,5.875158840912903,,
,9275.0,1099.0,5327.0,1760.0,2200.0,3057.0,-1484.0,,,,-1.01035045716191,-2.96692879656407,-1.2554841184409,,6.529302289186916,,
,9279.0,1103.0,5327.0,1761.0,2192.0,3063.0,-1485.0,,,,-1.00989470857887,-2.96686148786593,-1.25457486506191,,7.156743672939873,,
,9278.0,1099.0,5325.0,1759.0,2186.0,3061.0,-1485.0,,,,-1.00915736807186,-2.96690749003469,-1.25500103871919,,7.756974350191507,,
,9278.0,1098.0,5327.0,1759.0,2178.0,3064.0,-1476.0,,,,-1.00890240366813,-2.96686196757569,-1.25503126490334,,8.32915175654498,,
,9277.0,1100.0,5328.0,1762.0,2185.0,3066.0,-1484.0,,,,-1.00890877594518,-2.96696516722472,-1.25533345334306,,8.872135088594508,,
,9279.0,1099.0,5330.0,1761.0,2184.0,3068.0,-1486.0,,,,-1.00843686944764,-2.96691824425559,-1.25416451673961,,9.384540129243579,,
,9279.0,1099.0,5330.0,1758.0,2193.0,3069.0,-1479.0,,,,-1.00794504134096,-2.96681236958846,-1.25446698291131,,9.864809431032477,,
,9281.0,1098.0,5329.0,1760.0,2198.0,3066.0,-1461.0,,,,-1.00821650101425,-2.96679034589134,-1.25492438240714,,10.311299757638878,,
,9282.0,1102.0,5328.0,1762.0,2197.0,3063.0,-1449.0,,,,-1.00726904417258,-2.96687333964499,-1.2546658936291,,10.722392031028805,,
,9283.0,1102.0,5330.0,1764.0,2200.0,3063.0,-1454.0,,,,-1.00681611819944,-2.9667325705579,-1.25377938011339,,11.096627340328071,,
,9284.0,1099.0,5329.0,1761.0,2211.0,3064.0,-1492.0,,,,-1.00727291884013,-2.96686904229542,-1.25385171772078,,11.43286572326746,,
,9288.0,1097.0,5327.0,1762.0,2192.0,3063.0,-1485.0,,,,-1.00749835172952,-2.96675617255047,-1.25370225728763,,11.730455057717421,,
,9288.0,1099.0,5332.0,1764.0,2192.0,3064.0,-1494.0,,,,-1.00823174914446,-2.96685393415656,-1.25439626223795,,11.989388872845758,,
,9290.0,1100.0,5331.0,1762.0,2203.0,3065.0,-1481.0,,,,-1.00812470155573,-2.96679062447207,-1.25392999518264,,12.210426511898396,,
,9290.0,1101.0,5332.0,1764.0,2209.0,3055.0,-1466.0,,,,-1.00813577477885,-2.96683819970238,-1.25385263017126,,12.39514807433132,,
,9292.0,1100.0,5333.0,1765.0,2202.0,3061.0,-1466.0,,,,-1.00736274229622,-2.96673296404937,-1.25370001008364,,12.545920779804877,,
,9290.0,1101.0,5329.0,1767.0,2203.0,3055.0,-1471.0,,,,-1.00686056613085,-2.96670832503612,-1.25409318667998,,12.66576326829738,,
,9293.0,1099.0,5333.0,1766.0,2203.0,3055.0,-1478.0,,,,-1.00696359136035,-2.9667601055633,-1.25421251067023,,12.758109325243206,,
,9293.0,1100.0,5334.0,1767.0,2207.0,3060.0,-1477.0,,,,-1.00696414870619,-2.96674761565196,-1.25441133349825,,12.826490609284464,,
,9296.0,1097.0,5332.0,1766.0,2183.0,3063.0,-1472.0,,,,-1.00714417175767,-2.96681249930833,-1.25420929520736,,12.874175539643746,,
,9301.0,1099.0,5333.0,1770.0,2199.0,3056.0,-1476.0,,,,-1.00726740483875,-2.96672989057429,-1.25411192989326,,12.903813644556205,,
,9299.0,1100.0,5334.0,1767.0,2194.0,3057.0,-1457.0,,,,-1.00651819653652,-2.96673838143832,-1.25388895222524,,12.917136821911527,,
,9304.0,1100.0,5335.0,1770.0,2191.0,3062.0,-1458.0,,,,-1.00751536464841,-2.96676851727173,-1.25491335857806,,12.914759549105035,,
,9303.0,1102.0,5333.0,1768.0,2211.0,3058.0,-1435.0,,,,-1.00829470522353,-2.96669558087967,-1.25407922635402,,12.89610174624072,,
,9306.0,1100.0,5336.0,1770.0,2215.0,3072.0,-1439.0,,,,-1.00799356315329,-2.96696036245093,-1.25402013280727,,12.859435965348492,,
,9307.0,1103.0,5337.0,1769.0,2206.0,3087.0,-1445.0,,,,-1.00880713792207,-2.96687243027804,-1.25459344750902,,12.802039955635502,,
,9308.0,1101.0,5335.0,1770.0,2205.0,3081.0,-1448.0,,,,-1.01001753696859,-2.96695362576245,-1.25563308924904,,12.720420207347136,,
,9311.0,1099.0,5338.0,1770.0,2216.0,3069.0,-1447.0,,,,-1.01038601564842,-2.96692819699375,-1.25547775085547,,12.6105643793296,,
,9312.0,1100.0,5338.0,1769.0,2213.0,3088.0,-1464.0,,,,-1.01176386340157,-2.96695319500148,-1.25703854584363,,12.468181943204547,,
,9316.0,1102.0,5338.0,1772.0,2185.0,3078.0,-1474.0,,,,-1.01242650468272,-2.96704158053695,-1.25664077262641,,12.288902582535979,,
,9318.0,1098.0,5337.0,1772.0,2179.0,3077.0,-1460.0,,,,-1.01344916457948,-2.96713222026884,-1.25841384208758,,12.068418480772918,,
,9317.0,1101.0,5339.0,1772.0,2181.0,3068.0,-1455.0,,,,-1.01429019915246,-2.9671005919073,-1.25789980758082,,11.802575422600805,,
,9317.0,1099.0,5337.0,1773.0,2192.0,3058.0,-1453.0,,,,-1.01509157548313,-2.96716602311974,-1.25873936521233,,11.487433368151581,,
,9320.0,1102.0,5337.0,1772.0,2178.0,3055.0,-1442.0,,,,-1.01568183652038,-2.96717492972546,-1.25870673034013,,11.119325115268394,,
,9318.0,1100.0,5336.0,1771.0,2186.0,3051.0,-1430.0,,,,-1.01600169039111,-2.96713708996688,-1.25957302962624,,10.69493991188478,,
,9316.0,1101.0,5332.0,1768.0,2176.0,3052.0,-1436.0,,,,-1.01669414207624,-2.96719914239377,-1.25968041814401,,10.211449399093043,,
,9313.0,1101.0,5334.0,1769.0,2182.0,3055.0,-1482.0,,,,-1.01746014545274,-2.96738938735666,-1.25918995960581,,9.66668030722657,,
,9314.0,1101.0,5334.0,1768.0,2181.0,3061.0,-1496.0,,,,-1.0179159198437,-2.96733680937984,-1.26057320114868,,9.059325502758414,,
,9306.0,1101.0,5333.0,1765.0,2188.0,3070.0,-1498.0,,,,-1.01895080126497,-2.96719686217345,-1.25988503200639,,8.389174030769984,,
,9305.0,1099.0,5328.0,1763.0,2194.0,3065.0,-1475.0,,,,-1.01798666073175,-2.9673074051778,-1.26083884071142,,7.6573325038744064,,
,9295.0,1097.0,5326.0,1760.0,2186.0,3060.0,-1508.0,,,,-1.01829051589626,-2.96710907338242,-1.26022741357418,,6.866405503284588,,
,9294.0,1093.0,5326.0,1757.0,2195.0,3067.0,-1499.0,,,,-1.01852822517767,-2.96723406390686,-1.26072858704904,,6.020602726934337,,
,9287.0,1098.0,5327.0,1755.0,2206.0,3058.0,-1470.0,,,,-1.01938452289185,-2.96727763928924,-1.26102571615697,,5.125746261966697,,
,9280.0,1096.0,5323.0,1753.0,2201.0,3059.0,-1463.0,,,,-1.0202747730336,-2.96735587444587,-1.26124127635505,,4.189162667631844,,
,9272.0,1093.0,5320.0,1748.0,2225.0,3076.0,-1463.0,,,,-1.02083068642785,-2.96739287152184,-1.26187931902652,,3.2194604116440897,,
,9270.0,1097.0,5321.0,1750.0,2218.0,3067.0,-1480.0,,,,-1.02292913036289,-2.96748175808095,-1.26197777391089,,2.2262106109044444,,
,9264.0,1095.0,5319.0,1748.0,2207.0,3055.0,-1484.0,,,,-1.02279600341252,-2.96746789364168,-1.26341514494111,,1.2195633105610837,,
,9262.0,1095.0,5323.0,1745.0,2202.0,3052.0,-1472.0,,,,-1.02408783749901,-2.96762181142434,-1.2639916935685,,0.20983843233710703,,
,9254.0,1093.0,5319.0,1745.0,2203.0,3048.0,-1471.0,,,,-1.02488138451357,-2.96756192361643,-1.26465782788932,,-0.7928710560423371,,
,9249.0,1091.0,5319.0,1744.0,2200.0,3059.0,-1466.0,,,,-1.0252157546409,-2.96768733148755,-1.26534638964961,,-1.779053610687178,,
,9247.0,1094.0,5318.0,1743.0,2206.0,3047.0,-1456.0,,,,-1.02637910386055,-2.96781982676606,-1.26521839050503,,-2.7400703330323233,,
,9242.0,1096.0,5317.0,1744.0,2191.0,3042.0,-1453.0,,,,-1.02736830426697,-2.96784106704222,-1.26553598173318,,-3.668370568855594,,
,9241.0,1093.0,5317.0,1741.0,2197.0,3060.0,-1443.0,,,,-1.02799762352173,-2.96781884568538,-1.26598094482117,,-4.557626858461819,,
,9240.0,1096.0,5320.0,1744.0,2210.0,3077.0,-1445.0,,,,-1.02856090451873,-2.96788897646278,-1.26636230061352,,-5.402791036178989,,
,9236.0,1093.0,5319.0,1740.0,2197.0,3068.0,-1440.0,,,,-1.02802317345516,-2.96783293232076,-1.26729027653822,,-6.200079892743435,,
,9236.0,1093.0,5319.0,1744.0,2190.0,3069.0,-1438.0,,,,-1.02880261371933,-2.96791222536989,-1.26688324133012,,-6.946904543148908,,
,9235.0,1092.0,5318.0,1743.0,2193.0,3065.0,-1426.0,,,,-1.02940998671483,-2.96794401915286,-1.26670032069181,,-7.641761132405991,,
,9233.0,1090.0,5317.0,1742.0,2196.0,3064.0,-1412.0,,,,-1.03055674326645,-2.96785516352551,-1.26758101542294,,-8.284100665930838,,
,9233.0,1094.0,5316.0,1743.0,2189.0,3065.0,-1450.0,,,,-1.03159962099278,-2.96803132828956,-1.26816923700448,,-8.874192684653556,,
,9234.0,1093.0,5316.0,1742.0,2185.0,3064.0,-1463.0,,,,-1.03298523681877,-2.96810171279215,-1.26805225893927,,-9.412992842820215,,
,9232.0,1092.0,5318.0,1743.0,2190.0,3075.0,-1460.0,,,,-1.03428554181016,-2.9681116239466,-1.26919802495841,,-9.902020401351033,,
,9234.0,1092.0,5318.0,1742.0,2181.0,3065.0,-1445.0,,,,-1.0349859878281,-2.96811932623548,-1.26970841718288,,-10.343249385998773,,
,9233.0,1094.0,5318.0,1742.0,2191.0,3066.0,-1444.0,,,,-1.03610433989379,-2.96823967658779,-1.27067679425823,,-10.739016093872575,,
,9233.0,1091.0,5321.0,1742.0,2188.0,3064.0,-1445.0,,,,-1.03710912842171,-2.96818514344503,-1.27126824359912,,-11.091944425914159,,
,9234.0,1092.0,5317.0,1744.0,2192.0,3063.0,-1446.0,,,,-1.03820369460847,-2.96828330692576,-1.27068501150252,,-11.404888511099841,,
,9233.0,1093.0,5317.0,1741.0,2189.0,3064.0,-1462.0,,,,-1.03924048749234,-2.96827836954872,-1.27224870904775,,-11.680889623001983,,
,9235.0,1094.0,5320.0,1744.0,2194.0,3065.0,-1466.0,,,,-1.03951426641842,-2.96846127316341,-1.27270469655735,,-11.923142166299906,,
,9236.0,1093.0,5317.0,1746.0,2186.0,3078.0,-1465.0,,,,-1.04081766310733,-2.96833583746771,-1.27267666006455,,-12.134961900550001,,
,9234.0,1092.0,5321.0,1743.0,2185.0,3077.0,-1470.0,,,,-1.0413869986612,-2.96835556717435,-1.27342170178205,,-12.319748464016998,,
,9234.0,1091.0,5321.0,1744.0,2183.0,3070.0,-1464.0,,,,-1.04158897635836,-2.96845261766307,-1.27422787309854,,-12.480933280082006,,
,9235.0,1093.0,5322.0,1742.0,2194.0,3069.0,-1437.0,,,,-1.04189257225314,-2.96834954072636,-1.27415099726441,,-12.621902812499506,,
,9233.0,1092.0,5322.0,1744.0,2190.0,3066.0,-1464.0,,,,-1.04281023241028,-2.96850129468859,-1.27411129429374,,-12.745886259729552,,
,9233.0,1093.0,5322.0,1741.0,2191.0,3064.0,-1457.0,,,,-1.04373217641514,-2.96836554889858,-1.27485895085757,,-12.85579751412047,,
,9233.0,1093.0,5321.0,1743.0,2194.0,3063.0,-1445.0,,,,-1.04411699114461,-2.96861907740659,-1.27481303543257,,-12.9540256092888,,
,9232.0,1092.0,5318.0,1743.0,2189.0,3073.0,-1459.0,,,,-1.04474028418205,-2.9684173432638,-1.27518829669798,,-13.042177362061334,,
,9233.0,1092.0,5323.0,1745.0,2205.0,3069.0,-1444.0,,,,-1.04502716232552,-2.96862779533043,-1.27562129229412,,-13.120789671781294,,
,9230.0,1092.0,5322.0,1744.0,2203.0,3067.0,-1448.0,,,,-1.04646792275202,-2.96866637793717,-1.27611725423315,,-13.189043541710882,,
,9227.0,1092.0,5322.0,1742.0,2199.0,3073.0,-1452.0,,,,-1.04641882967467,-2.96856847597212,-1.27623166218536,,-13.2445228104662,,
,9230.0,1093.0,5321.0,1742.0,2194.0,3075.0,-1466.0,,,,-1.04703778718108,-2.96854992134023,-1.27671387302991,,-13.283064397300219,,
,9229.0,1091.0,5322.0,1745.0,2215.0,3064.0,-1462.0,,,,-1.04739030128663,-2.96862922544777,-1.27684288408682,,-13.298742352787931,,
,9231.0,1092.0,5323.0,1742.0,2198.0,3061.0,-1474.0,,,,-1.04843871586697,-2.96863852873113,-1.27778076785118,,-13.28401584740333,,
,9229.0,1092.0,5321.0,1743.0,2200.0,3066.0,-1477.0,,,,-1.04909074194105,-2.96869288242475,-1.27747474469369,,-13.230053227381058,,
,9231.0,1090.0,5323.0,1742.0,2186.0,3066.0,-1471.0,,,,-1.04942360247875,-2.96872544476732,-1.27796968960998,,-13.12722277689144,,
,9231.0,1092.0,5321.0,1744.0,2196.0,3057.0,-1463.0,,,,-1.0498903605469,-2.9687418693353,-1.27823471047706,,-12.96571838921211,,
,9232.0,1090.0,5324.0,1746.0,2184.0,3062.0,-1452.0,,,,-1.05043683244653,-2.96871834921176,-1.27802863370979,,-12.736267504093668,,
,9232.0,1092.0,5326.0,1744.0,2197.0,3062.0,-1428.0,,,,-1.05025723753563,-2.96872618768198,-1.27866467589342,,-12.43085209541117,,
,9230.0,1090.0,5322.0,1741.0,2193.0,3072.0,-1452.0,,,,-1.05093614130548,-2.96878811026304,-1.278467135822,,-12.043364368350819,,
