TimeLabel,MEAS1_PPG1,MEAS1_PPG2,MEAS1_PPG3,MEAS1_PPG4,ACCX,ACCY,ACCZ,HR_timestamp,HR_value,radar_timestamp,phase_rx0,phase_rx1,phase_rx2,timestep,n_process,original_rate,calculated_rate
2025-07-03 19:54:31,9385.0,2630.0,10332.0,2373.0,2022.0,3421.0,331.0,2025-07-03 19:54:31,88.0,2025/07/03 07:54:31 PM,0.018381591410074,-1.97281266933018,0.0859551523932122,2025/07/03 07:54:31 PM,0.1171431459426535,12.203389167785645,11.940594059405939
,9383.0,2630.0,10332.0,2375.0,2026.0,3413.0,322.0,2025-07-03 19:54:32,88.0,,0.0184219163550043,-1.97300044221589,0.0859634234737067,2025/07/03 07:54:41 PM,-0.6468566594293774,11.494253158569336,11.704545454545453
,9383.0,2630.0,10335.0,2376.0,2034.0,3414.0,314.0,2025-07-03 19:54:33,87.0,,0.0184366656630782,-1.97242123518914,0.0859363209137293,2025/07/03 07:54:51 PM,-1.3642482964030203,12.016021728515623,9.91735537190083
,9384.0,2630.0,10329.0,2373.0,2032.0,3413.0,301.0,2025-07-03 19:54:34,86.0,,0.0184610109612753,-1.97237584370251,0.0859235209230302,2025/07/03 07:55:01 PM,-2.0346468064524403,11.389521598815918,11.754587155963304
,9388.0,2631.0,10331.0,2375.0,2035.0,3409.0,283.0,2025-07-03 19:54:35,85.0,,0.0184571714458822,-1.97223083449303,0.0859388951851535,2025/07/03 07:55:11 PM,-2.6594890794146524,11.295180320739746,10.300618921308573
,9389.0,2633.0,10333.0,2376.0,2051.0,3435.0,301.0,2025-07-03 19:54:36,84.0,,0.0184171021752138,-1.97221018411992,0.0859408507855362,2025/07/03 07:55:21 PM,-3.2415501609502257,10.683760643005373,11.099744245524302
,9392.0,2634.0,10333.0,2377.0,2044.0,3435.0,300.0,2025-07-03 19:54:37,84.0,,0.0184133776931323,-1.97224901987862,0.0859538887879408,2025/07/03 07:55:31 PM,-3.784424709591803,11.244378089904783,10.77989042861746
,9388.0,2631.0,10333.0,2376.0,2035.0,3422.0,307.0,2025-07-03 19:54:38,85.0,,0.0184670348635826,-1.97244625607389,0.0859164383101289,2025/07/03 07:55:41 PM,-4.2920233212636045,11.295180320739746,10.814321669237644
,9393.0,2633.0,10332.0,2376.0,2005.0,3413.0,298.0,2025-07-03 19:54:39,85.0,,0.0184273068017468,-1.97246498840642,0.0859453990751419,2025/07/03 07:55:51 PM,-4.768126588928343,11.029411315917969,11.214953271028019
,9395.0,2635.0,10331.0,2376.0,2013.0,3409.0,332.0,2025-07-03 19:54:40,86.0,,0.0184055530443825,-1.97285819516153,0.0859767801725879,2025/07/03 07:56:01 PM,-5.216029953832398,10.885340690612791,10.49015116811728
,9395.0,2635.0,10334.0,2379.0,2035.0,3392.0,339.0,2025-07-03 19:54:41,86.0,,0.0183633521766331,-1.97310411013567,0.0859376740120678,2025/07/03 07:56:11 PM,-5.638301349561762,10.791366577148438,11.402958314657113
,9398.0,2634.0,10332.0,2378.0,2036.0,3393.0,328.0,2025-07-03 19:54:42,87.0,,0.0182464468904505,-1.9731072929314,0.0859334751550803,2025/07/03 07:56:21 PM,-6.036662122369502,10.980966567993164,12.276855621672395
,9400.0,2634.0,10332.0,2379.0,2021.0,3396.0,339.0,2025-07-03 19:54:43,87.0,,0.0182814482273984,-1.97339634516839,0.0859126315777352,2025/07/03 07:56:31 PM,-6.411989999533888,11.441647529602053,10.603371783496017
,9402.0,2637.0,10333.0,2381.0,2018.0,3370.0,318.0,2025-07-03 19:54:44,87.0,,0.0182088353621508,-1.97358888380788,0.0859367234750865,2025/07/03 07:56:41 PM,-6.7644312149217045,12.008005142211914,11.3247863247863
,9402.0,2637.0,10332.0,2379.0,2029.0,3403.0,333.0,2025-07-03 19:54:45,87.0,,0.0182043820508392,-1.97423895282775,0.0859069655296695,2025/07/03 07:56:51 PM,-7.093597810782105,11.070111274719238,11.764705882352954
,9406.0,2640.0,10331.0,2378.0,2025.0,3402.0,329.0,2025-07-03 19:54:46,87.0,,0.0181514348367836,-1.97461390500504,0.0858755345870732,2025/07/03 07:57:01 PM,-7.3988168714414915,10.932944297790527,11.164964514453871
,9407.0,2638.0,10333.0,2380.0,2029.0,3403.0,318.0,2025-07-03 19:54:47,88.0,,0.0181030750646564,-1.97501904382898,0.0858855672405988,2025/07/03 07:57:11 PM,-7.679393153846535,11.244378089904783,11.625523986958541
,9411.0,2639.0,10334.0,2381.0,2008.0,3401.0,287.0,2025-07-03 19:54:48,88.0,,0.0181436374326542,-1.97490675415237,0.0858522599078251,2025/07/03 07:57:21 PM,-7.934847224659869,11.441647529602053,14.95629604183369
,9414.0,2640.0,10335.0,2384.0,2014.0,3411.0,296.0,2025-07-03 19:54:49,88.0,,0.0181570285894214,-1.9749549373335,0.0858525252896791,,-8.165097926665245,,
,9416.0,2642.0,10334.0,2383.0,2021.0,3421.0,298.0,2025-07-03 19:54:50,87.0,,0.0181436368437366,-1.97539063477202,0.0858716479204488,,-8.370568741747372,,
,9417.0,2642.0,10334.0,2385.0,2022.0,3405.0,320.0,2025-07-03 19:54:51,87.0,,0.0181418071983257,-1.9756470610831,0.0858957549537318,,-8.552209525449987,,
,9420.0,2641.0,10334.0,2383.0,2031.0,3414.0,357.0,2025-07-03 19:54:52,87.0,,0.0180167708360498,-1.9757352318674,0.0858685865806438,,-8.711435990157256,,
,9421.0,2646.0,10336.0,2385.0,2019.0,3404.0,331.0,2025-07-03 19:54:53,86.0,,0.0180177202275643,-1.9757091448402,0.0858312715220065,,-8.849998218733356,,
,9425.0,2646.0,10334.0,2386.0,2017.0,3408.0,313.0,2025-07-03 19:54:54,86.0,,0.0179550090194539,-1.97645086810941,0.0858385837186271,,-8.969796145469601,,
,9425.0,2644.0,10333.0,2388.0,2018.0,3398.0,304.0,2025-07-03 19:54:55,85.0,,0.0178685692687412,-1.97715118363193,0.0858218221845328,,-9.072664300666261,,
,9426.0,2645.0,10334.0,2387.0,2015.0,3391.0,315.0,2025-07-03 19:54:56,85.0,,0.0178110619657345,-1.97734342048399,0.0857835654989288,,-9.160150135939396,,
,9433.0,2647.0,10333.0,2390.0,2016.0,3411.0,305.0,2025-07-03 19:54:57,85.0,,0.0178722939493899,-1.97819864308099,0.0857528592430678,,-9.233309868964616,,
,9432.0,2648.0,10333.0,2389.0,2028.0,3406.0,293.0,2025-07-03 19:54:58,85.0,,0.0176861165331286,-1.97870140524196,0.0857356405922814,,-9.2925429367334,,
,9436.0,2648.0,10336.0,2388.0,2037.0,3404.0,310.0,2025-07-03 19:54:59,85.0,,0.0176816427063538,-1.97889006295266,0.0856925218940539,,-9.337480868965415,,
,9438.0,2650.0,10338.0,2392.0,2036.0,3393.0,326.0,2025-07-03 19:55:00,85.0,,0.0176893127404623,-1.97923185625056,0.0857100431198616,,-9.366939199599175,,
,9443.0,2651.0,10335.0,2390.0,2043.0,3426.0,323.0,2025-07-03 19:55:01,85.0,,0.0175827380855848,-1.97977242838292,0.0856590834369016,,-9.378933224965989,,
,9443.0,2652.0,10335.0,2394.0,2045.0,3439.0,321.0,2025-07-03 19:55:02,85.0,,0.0174924013033745,-1.97952009559468,0.0856536286723645,,-9.370751811960295,,
,9442.0,2652.0,10337.0,2393.0,2031.0,3426.0,338.0,2025-07-03 19:55:03,86.0,,0.0175912248040975,-1.97916171486383,0.0856794519453261,,-9.339079413703876,,
,9448.0,2653.0,10335.0,2394.0,2027.0,3428.0,337.0,2025-07-03 19:55:04,87.0,,0.0175421556798857,-1.97901759831768,0.0856821165938283,,-9.280154997468944,,
,9447.0,2650.0,10336.0,2393.0,2041.0,3433.0,317.0,2025-07-03 19:55:05,87.0,,0.0174611183567863,-1.97946391646537,0.0857374971966866,,-9.189956647776164,,
,9450.0,2654.0,10338.0,2395.0,2035.0,3442.0,335.0,2025-07-03 19:55:06,86.0,,0.0175197306482906,-1.97870576781588,0.0856706883007152,,-9.064401000544711,,
,9448.0,2654.0,10337.0,2394.0,2027.0,3445.0,319.0,2025-07-03 19:55:07,86.0,,0.0174521709080109,-1.97847960575994,0.0857124544664137,,-8.899546864274859,,
,9443.0,2654.0,10334.0,2394.0,2010.0,3442.0,311.0,2025-07-03 19:55:08,86.0,,0.017698615962919,-1.97853748082889,0.0856798765845437,,-8.69179250552578,,
,9438.0,2647.0,10331.0,2390.0,2000.0,3419.0,320.0,2025-07-03 19:55:09,86.0,,0.0177137696535507,-1.97843375250588,0.0857182105379921,,-8.438056570045031,,
,9428.0,2648.0,10330.0,2390.0,2009.0,3411.0,327.0,2025-07-03 19:55:10,87.0,,0.0177190777004848,-1.97848264086598,0.085723596443665,,-8.135934024160115,,
,9422.0,2645.0,10333.0,2388.0,2026.0,3412.0,355.0,2025-07-03 19:55:11,87.0,,0.0176240588485883,-1.97877546232789,0.0857484429092148,,-7.783821112853164,,
,9411.0,2640.0,10330.0,2385.0,2025.0,3403.0,358.0,2025-07-03 19:55:12,87.0,,0.017603101800757,-1.97869791514334,0.0856455456751684,,-7.381006662896733,,
,9400.0,2636.0,10331.0,2381.0,2013.0,3401.0,326.0,2025-07-03 19:55:13,87.0,,0.0177538862674111,-1.97870926641266,0.0856689292860455,,-6.92772990091444,,
,9387.0,2631.0,10328.0,2378.0,1994.0,3387.0,323.0,2025-07-03 19:55:14,87.0,,0.017641857331456,-1.97893026631033,0.085681000197493,,-6.425206333646767,,
,9375.0,2629.0,10326.0,2377.0,1994.0,3405.0,321.0,2025-07-03 19:55:15,87.0,,0.0176743880362966,-1.979234436101,0.0856368864981004,,-5.875623454780138,,
,9363.0,2625.0,10326.0,2374.0,1987.0,3390.0,316.0,2025-07-03 19:55:16,87.0,,0.0178453336870445,-1.9788158577067,0.0856731141497086,,-5.282108415213006,,
,9351.0,2620.0,10324.0,2373.0,1988.0,3396.0,321.0,2025-07-03 19:55:17,87.0,,0.017842377066364,-1.97922023549136,0.085664417844228,,-4.648671165034564,,
,9339.0,2617.0,10325.0,2366.0,1986.0,3402.0,333.0,2025-07-03 19:55:18,87.0,,0.0177521386816466,-1.97886505305612,0.0856327201088442,,-3.9801283138515666,,
,9330.0,2613.0,10326.0,2367.0,2020.0,3399.0,338.0,2025-07-03 19:55:19,87.0,,0.0178585486326229,-1.97939450543161,0.0856236994805699,,-3.282013612000439,,
,9319.0,2610.0,10324.0,2365.0,2018.0,3394.0,338.0,2025-07-03 19:55:20,88.0,,0.0178941389643432,-1.97925518374515,0.0856350042415788,,-2.5604797677659876,,
,9311.0,2606.0,10324.0,2363.0,2013.0,3392.0,324.0,2025-07-03 19:55:21,88.0,,0.0178809462863951,-1.97898185397565,0.0856214386791345,,-1.8221938707931515,,
,9305.0,2606.0,10324.0,2360.0,2030.0,3395.0,324.0,2025-07-03 19:55:22,88.0,,0.0179796374316591,-1.97866155241724,0.085637731618043,,-1.074226215586582,,
,9298.0,2605.0,10326.0,2361.0,2038.0,3409.0,329.0,2025-07-03 19:55:23,87.0,,0.0179946754033583,-1.97875208961462,0.085637793073428,,-0.32393064294365526,,
,9294.0,2604.0,10323.0,2359.0,2047.0,3414.0,313.0,2025-07-03 19:55:24,86.0,,0.0179737688081627,-1.97893366011538,0.0856518672729482,,0.4211862333467239,,
,9288.0,2603.0,10329.0,2360.0,2047.0,3417.0,303.0,2025-07-03 19:55:25,86.0,,0.0179726958327711,-1.97848192447921,0.0856246157396769,,1.153609654693363,,
,9289.0,2603.0,10323.0,2361.0,2044.0,3420.0,319.0,2025-07-03 19:55:26,86.0,,0.0180167589131057,-1.97846530373195,0.0856478254943643,,1.8659777984865868,,
,9283.0,2603.0,10327.0,2358.0,2041.0,3421.0,315.0,2025-07-03 19:55:27,86.0,,0.0179743824941957,-1.97861050909633,0.085638323960557,,2.551261718119297,,
,9283.0,2603.0,10330.0,2360.0,2052.0,3436.0,293.0,2025-07-03 19:55:28,86.0,,0.0179379077964807,-1.97871415652725,0.0856098216936447,,3.2029658087337887,,
,9282.0,2604.0,10329.0,2358.0,2015.0,3403.0,311.0,2025-07-03 19:55:29,87.0,,0.0179073468411159,-1.97900496050126,0.0856422975279582,,3.815347903908072,,
,9278.0,2605.0,10330.0,2360.0,2009.0,3401.0,311.0,2025-07-03 19:55:30,88.0,,0.0178392170988314,-1.97929551701421,0.0855781431872133,,4.383652769714885,,
,9278.0,2605.0,10326.0,2357.0,2013.0,3400.0,308.0,2025-07-03 19:55:31,89.0,,0.0177234463110054,-1.97977587717103,0.085616394633364,,4.904345388155359,,
,9279.0,2604.0,10326.0,2358.0,2012.0,3408.0,301.0,2025-07-03 19:55:32,89.0,,0.0175766686491127,-1.98027446785185,0.0855973368790655,,5.375323454967424,,
,9279.0,2607.0,10330.0,2359.0,2004.0,3408.0,283.0,2025-07-03 19:55:33,89.0,,0.0174636673008257,-1.98052962872887,0.0855841467491012,,5.796084560568212,,
,9275.0,2608.0,10331.0,2359.0,2002.0,3400.0,298.0,2025-07-03 19:55:34,88.0,,0.0175323829402218,-1.98091046215184,0.0855058204881895,,6.167823788051261,,
,9280.0,2605.0,10328.0,2358.0,2001.0,3391.0,304.0,2025-07-03 19:55:35,89.0,,0.0173721526484983,-1.98098255848045,0.0855163011226336,,6.493441507729207,,
,9279.0,2607.0,10329.0,2361.0,2008.0,3374.0,315.0,2025-07-03 19:55:36,89.0,,0.017281210601083,-1.98168893563248,0.0854660897397004,,6.7774477810617935,,
,9280.0,2610.0,10330.0,2361.0,2012.0,3388.0,303.0,2025-07-03 19:55:37,89.0,,0.0172506364640364,-1.98179666171545,0.0854604440686545,,7.025758053513776,,
,9284.0,2611.0,10330.0,2362.0,2017.0,3390.0,304.0,2025-07-03 19:55:38,90.0,,0.0172510946463044,-1.9826062038026,0.0854352137924446,,7.245384258855045,,
,9283.0,2612.0,10330.0,2361.0,2008.0,3392.0,329.0,2025-07-03 19:55:39,90.0,,0.0170856572293269,-1.98282462634996,0.085474182316332,,7.44403563581262,,
,9285.0,2611.0,10328.0,2364.0,2019.0,3396.0,312.0,2025-07-03 19:55:40,90.0,,0.017153178991435,-1.98270415079246,0.0854313676468087,,7.629653362016605,,
,9287.0,2615.0,10332.0,2364.0,2026.0,3410.0,292.0,2025-07-03 19:55:41,90.0,,0.0170593787569302,-1.98260763440077,0.0854415757704928,,7.809910568986143,,
,9290.0,2616.0,10333.0,2363.0,2001.0,3415.0,328.0,2025-07-03 19:55:42,90.0,,0.0170994062199842,-1.98252435265161,0.0854239322158934,,7.991712382125827,,
,9290.0,2617.0,10330.0,2364.0,1998.0,3419.0,339.0,2025-07-03 19:55:43,89.0,,0.0170785425768805,-1.9827400527101,0.0854269946107735,,8.180728704029635,,
,9290.0,2616.0,10331.0,2365.0,2008.0,3431.0,342.0,2025-07-03 19:55:44,89.0,,0.017147957544082,-1.98265652724088,0.0854249231774482,,8.380987104863337,,
,9291.0,2617.0,10330.0,2366.0,2005.0,3387.0,305.0,2025-07-03 19:55:45,88.0,,0.0170516590032681,-1.983491931228,0.0854276799887067,,8.594547139720401,,
,9290.0,2618.0,10331.0,2365.0,2006.0,3397.0,317.0,2025-07-03 19:55:46,88.0,,0.017030431319905,-1.98338279556827,0.0853903866208253,,8.821272408487815,,
,9291.0,2620.0,10329.0,2365.0,2006.0,3396.0,320.0,2025-07-03 19:55:47,89.0,,0.016942032620419,-1.98342339730629,0.0853789720885512,,9.058712405930878,,
,9290.0,2618.0,10329.0,2364.0,2014.0,3399.0,320.0,2025-07-03 19:55:48,90.0,,0.0170685773746414,-1.98410832763121,0.0853513411305885,,9.30210156306483,,
,9292.0,2617.0,10329.0,2366.0,2029.0,3421.0,312.0,2025-07-03 19:55:49,90.0,,0.0169002969410181,-1.984011363439,0.0853458874890604,,9.544477702299526,,
,9292.0,2618.0,10329.0,2366.0,2013.0,3391.0,323.0,2025-07-03 19:55:50,89.0,,0.0169152067938621,-1.98397517996497,0.085373128838421,,9.776917387553258,,
,9293.0,2618.0,10330.0,2369.0,2049.0,3422.0,343.0,2025-07-03 19:55:51,89.0,,0.0168975349706374,-1.9844797516354,0.0853374548115249,,9.988882185659088,,
,9291.0,2617.0,10329.0,2365.0,2060.0,3426.0,324.0,2025-07-03 19:55:52,88.0,,0.016820226569188,-1.98441627816437,0.0853335010642497,,10.16866748209748,,
,9293.0,2615.0,10328.0,2366.0,2031.0,3437.0,310.0,2025-07-03 19:55:53,88.0,,0.0168527565927513,-1.98431524622823,0.0853306781783471,,10.303943150298624,,
,9294.0,2619.0,10331.0,2368.0,2026.0,3407.0,296.0,2025-07-03 19:55:54,88.0,,0.0168167681396087,-1.98442916182761,0.0853090559242449,,10.382371609816083,,
,9292.0,2618.0,10330.0,2366.0,2007.0,3398.0,331.0,2025-07-03 19:55:55,88.0,,0.0167833256088784,-1.98482750302325,0.0852812061545548,,10.39228230418198,,
,9290.0,2619.0,10332.0,2368.0,2010.0,3397.0,330.0,2025-07-03 19:55:56,88.0,,0.0167281118607479,-1.98477979586569,0.0852683802569862,,10.323372083242633,,
,9291.0,2617.0,10329.0,2368.0,2031.0,3411.0,351.0,2025-07-03 19:55:57,88.0,,0.0167422358476379,-1.98544039932647,0.0852863223007376,,10.167389908069403,,
,9292.0,2618.0,10330.0,2369.0,2034.0,3404.0,337.0,2025-07-03 19:55:58,89.0,,0.0167014959480048,-1.98579779861118,0.085259384607161,,9.91875466938545,,
,9296.0,2620.0,10331.0,2368.0,2063.0,3376.0,326.0,2025-07-03 19:55:59,89.0,,0.0167180522463967,-1.98582589052136,0.0852265815795406,,9.575049745116681,,
,9299.0,2622.0,10330.0,2370.0,2056.0,3413.0,329.0,2025-07-03 19:56:00,89.0,,0.0167037035881006,-1.98551090876584,0.0852203578840258,,9.1373393645562,,
,9297.0,2620.0,10330.0,2370.0,2027.0,3394.0,353.0,2025-07-03 19:56:01,88.0,,0.016577020229798,-1.98546428075193,0.0852468138623827,,8.610261225780302,,
,9298.0,2621.0,10329.0,2367.0,2029.0,3408.0,338.0,2025-07-03 19:56:02,87.0,,0.0167280646795717,-1.98563423659496,0.0852617176142304,,8.001867712517146,,
,9302.0,2623.0,10332.0,2372.0,2035.0,3404.0,321.0,2025-07-03 19:56:03,86.0,,0.0166272787092584,-1.98594041019901,0.0852162580608541,,7.3232134897538845,,
,9306.0,2624.0,10336.0,2373.0,2030.0,3390.0,288.0,2025-07-03 19:56:04,86.0,,0.0165614765437216,-1.98591763494169,0.0851977546921573,,6.587716713658297,,
,9305.0,2624.0,10334.0,2370.0,2028.0,3411.0,297.0,2025-07-03 19:56:05,86.0,,0.0165715975695961,-1.98683632959216,0.0851815345304535,,5.810349059017527,,
,9305.0,2623.0,10332.0,2371.0,2016.0,3437.0,304.0,2025-07-03 19:56:06,85.0,,0.0164314925735621,-1.98740658199103,0.0851808158964714,,5.006730830304472,,
,9309.0,2624.0,10333.0,2374.0,2016.0,3406.0,332.0,2025-07-03 19:56:07,86.0,,0.0163513888397148,-1.98738101131231,0.0851525543644144,,4.1922181107799315,,
,9311.0,2628.0,10333.0,2376.0,2027.0,3396.0,333.0,2025-07-03 19:56:08,86.0,,0.0162556627463371,-1.9880074270932,0.0851340924023479,,3.381067954569741,,
,9314.0,2627.0,10334.0,2375.0,2009.0,3408.0,322.0,2025-07-03 19:56:09,86.0,,0.0161844976727309,-1.98830374442132,0.0850921296960263,,2.5857553964751006,,
,9313.0,2629.0,10333.0,2375.0,2012.0,3413.0,340.0,2025-07-03 19:56:10,87.0,,0.0161261405467895,-1.98837254127686,0.0850995620017929,,1.816494389158217,,
,9318.0,2629.0,10331.0,2375.0,2021.0,3367.0,370.0,2025-07-03 19:56:11,85.0,,0.0160127247295506,-1.98921974586581,0.0851204819654222,,1.0809872299794019,,
,9320.0,2628.0,10334.0,2377.0,2012.0,3392.0,359.0,2025-07-03 19:56:12,84.0,,0.0160087614088393,-1.98876027383764,0.0851060392240364,,0.3843984521441147,,
,9324.0,2633.0,10336.0,2381.0,2035.0,3425.0,340.0,2025-07-03 19:56:13,83.0,,0.0159911478603068,-1.98951377559562,0.0850784642404476,,-0.27047561501328526,,
,9326.0,2631.0,10335.0,2381.0,2025.0,3418.0,345.0,2025-07-03 19:56:14,82.0,,0.0158662662258698,-1.98949974891822,0.0850678549422357,,-0.8828878590265241,,
,9330.0,2631.0,10334.0,2380.0,2018.0,3387.0,355.0,2025-07-03 19:56:15,82.0,,0.0158398948231151,-1.98974664649135,0.0850735090572338,,-1.4537268953986624,,
,9333.0,2632.0,10337.0,2381.0,2031.0,3403.0,330.0,2025-07-03 19:56:16,82.0,,0.0156838314798476,-1.99061830124138,0.0850623846559716,,-1.9850644472549988,,
,9335.0,2636.0,10336.0,2383.0,2025.0,3409.0,337.0,2025-07-03 19:56:17,82.0,,0.0155097373912764,-1.99120703130768,0.085003257861885,,-2.479713010565152,,
,9338.0,2636.0,10334.0,2382.0,2019.0,3407.0,350.0,2025-07-03 19:56:18,82.0,,0.015453440612517,-1.99138657101012,0.0850251166233362,,-2.940833064308686,,
,9339.0,2635.0,10336.0,2379.0,2018.0,3416.0,354.0,2025-07-03 19:56:19,83.0,,0.015364097853401,-1.99171369163937,0.0850315015594834,,-3.37161647080972,,
,9347.0,2637.0,10336.0,2384.0,2016.0,3404.0,340.0,2025-07-03 19:56:20,83.0,,0.0152721737806735,-1.99203631789138,0.0850021957111229,,-3.7750588168936985,,
,9345.0,2639.0,10336.0,2386.0,2023.0,3429.0,331.0,2025-07-03 19:56:21,84.0,,0.015214474046553,-1.9927118648242,0.0850082610177699,,-4.153819509480973,,
,9350.0,2642.0,10339.0,2385.0,2017.0,3426.0,353.0,2025-07-03 19:56:22,85.0,,0.0152210790704069,-1.99296964278541,0.0849495028209871,,-4.510156474205187,,
,9352.0,2642.0,10338.0,2386.0,2005.0,3433.0,348.0,2025-07-03 19:56:23,86.0,,0.0153067105117056,-1.99337233124111,0.0849473790858171,,-4.84591484764075,,
,9354.0,2640.0,10336.0,2387.0,2010.0,3434.0,342.0,2025-07-03 19:56:24,86.0,,0.015268948556641,-1.99318872062812,0.0849141292575105,,-5.162547663912552,,
,9359.0,2641.0,10334.0,2388.0,2007.0,3421.0,321.0,2025-07-03 19:56:25,86.0,,0.0152483793085214,-1.99397090593814,0.0849006098905049,,-5.461150432507578,,
,9361.0,2643.0,10338.0,2389.0,2021.0,3397.0,343.0,2025-07-03 19:56:26,86.0,,0.0152905274938056,-1.99406152812961,0.0848769365838666,,-5.742497949479798,,
,9364.0,2643.0,10339.0,2388.0,2031.0,3386.0,348.0,2025-07-03 19:56:27,85.0,,0.0150935219335183,-1.99440010237451,0.0848248064477741,,-6.007077844011267,,
,9367.0,2643.0,10338.0,2391.0,2043.0,3396.0,331.0,2025-07-03 19:56:28,84.0,,0.0152156503567983,-1.99455548106223,0.0848451135319651,,-6.255119787666576,,
,9369.0,2646.0,10338.0,2391.0,2038.0,3402.0,330.0,2025-07-03 19:56:29,84.0,,0.0150949218747057,-1.99459409368278,0.0848505154713123,,-6.486621971763252,,
,9373.0,2648.0,10337.0,2395.0,2024.0,3403.0,323.0,2025-07-03 19:56:30,83.0,,0.0149539900038935,-1.99411779578062,0.0848666282745283,,-6.701377982150138,,
,9377.0,2649.0,10336.0,2395.0,2025.0,3408.0,335.0,2025-07-03 19:56:31,84.0,,0.015116409513594,-1.99420466131883,0.0848370331335931,,-6.899008046616339,,
,9379.0,2647.0,10337.0,2395.0,2018.0,3429.0,329.0,2025-07-03 19:56:32,84.0,,0.0151546691284117,-1.99385947554949,0.0848750438101049,,-7.078998876006413,,
,9383.0,2650.0,10339.0,2394.0,2040.0,3444.0,325.0,2025-07-03 19:56:33,84.0,,0.0152221898176538,-1.99417222359707,0.0848581311680355,,-7.240755652954789,,
,9387.0,2648.0,10337.0,2396.0,2020.0,3431.0,320.0,2025-07-03 19:56:34,83.0,,0.0152607559479476,-1.99407582968348,0.0848682642675386,,-7.383667651555959,,
,9388.0,2651.0,10338.0,2399.0,2029.0,3409.0,324.0,2025-07-03 19:56:35,83.0,,0.0152630715620326,-1.99397511203403,0.0848383234145628,,-7.507185273827706,,
,9390.0,2650.0,10336.0,2398.0,2018.0,3395.0,340.0,2025-07-03 19:56:36,83.0,,0.0152256896366958,-1.99397490115157,0.0848747642633519,,-7.610901541965932,,
,9389.0,2650.0,10337.0,2397.0,1998.0,3400.0,334.0,2025-07-03 19:56:37,84.0,,0.0152597447747989,-1.99371265766634,0.084793681315815,,-7.694626827690004,,
,9391.0,2653.0,10338.0,2397.0,2009.0,3396.0,315.0,2025-07-03 19:56:38,84.0,,0.0153163158397675,-1.99389354550243,0.0848103067855087,,-7.758443673770843,,
2025-07-03 19:54:32,9388.0,2652.0,10335.0,2396.0,2008.0,3428.0,307.0,2025-07-03 19:56:39,85.0,2025/07/03 07:54:32 PM,0.0152796031928346,-1.99394022374929,0.0848214135853146,,-7.8027299539058275,,
,9381.0,2650.0,10331.0,2394.0,2007.0,3433.0,310.0,2025-07-03 19:56:40,86.0,,0.0153922144074428,-1.99387093998031,0.0848016489776137,,-7.828142841146196,,
,9371.0,2646.0,10333.0,2394.0,2012.0,3419.0,322.0,2025-07-03 19:56:41,87.0,,0.0153291742033589,-1.99415904976154,0.0847657770438627,,-7.83556167415952,,
,9363.0,2643.0,10331.0,2391.0,2029.0,3427.0,315.0,2025-07-03 19:56:42,88.0,,0.0154992020879988,-1.99383155431203,0.0847471841565533,,-7.82599344848269,,
,9351.0,2638.0,10331.0,2388.0,2011.0,3395.0,344.0,2025-07-03 19:56:43,87.0,,0.0152237543097344,-1.99430853336359,0.0847740363289166,,-7.8004495369486095,,
,9339.0,2634.0,10327.0,2387.0,2012.0,3401.0,348.0,2025-07-03 19:56:44,86.0,,0.0151677998368502,-1.99441850143201,0.0847122569213519,,-7.759806065455279,,
,9325.0,2629.0,10328.0,2382.0,2003.0,3379.0,354.0,2025-07-03 19:56:45,85.0,,0.0152064698656093,-1.99412523204837,0.0846958651428951,,-7.704663053974532,,
,9314.0,2624.0,10328.0,2381.0,2032.0,3422.0,377.0,2025-07-03 19:56:46,84.0,,0.0152018572211622,-1.99464817143736,0.0846675188077724,,-7.635218908662002,,
,9306.0,2621.0,10329.0,2378.0,2036.0,3425.0,362.0,2025-07-03 19:56:47,85.0,,0.0154138448454585,-1.99446253634229,0.0846012675997184,,-7.551176823666508,,
,9291.0,2617.0,10328.0,2377.0,2023.0,3381.0,343.0,2025-07-03 19:56:48,85.0,,0.0155180374601671,-1.9943030774731,0.0845711317495686,,-7.4516974182707605,,
,9281.0,2613.0,10325.0,2371.0,2021.0,3371.0,333.0,2025-07-03 19:56:49,85.0,,0.0153148553202091,-1.99426456131553,0.08470583711776,,-7.335406711737221,,
,9272.0,2607.0,10325.0,2369.0,2032.0,3385.0,326.0,2025-07-03 19:56:50,85.0,,0.0153141089943997,-1.9943368769009,0.0845648367094224,,-7.200460404084167,,
,9264.0,2607.0,10327.0,2369.0,2017.0,3399.0,337.0,2025-07-03 19:56:51,85.0,,0.015286919291194,-1.99472440031415,0.0846287199102123,,-7.0446561215221735,,
,9259.0,2606.0,10329.0,2369.0,2004.0,3391.0,343.0,2025-07-03 19:56:52,84.0,,0.0156381910455541,-1.99490243346971,0.0845383889460639,,-6.865577767046231,,
,9252.0,2602.0,10330.0,2368.0,2007.0,3393.0,336.0,2025-07-03 19:56:53,84.0,,0.0156853830902443,-1.9945880283944,0.0845412495811146,,-6.6607529190095915,,
,9245.0,2602.0,10326.0,2365.0,2019.0,3394.0,322.0,2025-07-03 19:56:54,84.0,,0.0154622559324995,-1.99465486010947,0.0845261972794444,,-6.427805894158211,,
,9239.0,2600.0,10328.0,2365.0,2027.0,3425.0,314.0,2025-07-03 19:56:55,84.0,,0.0154051649811507,-1.99475350713034,0.0843784808174596,,-6.164594177854351,,
,9238.0,2601.0,10329.0,2365.0,2035.0,3423.0,349.0,2025-07-03 19:56:56,84.0,,0.0155119117139322,-1.99506793945331,0.0843532193912022,,-5.8693222216068515,,
,9238.0,2603.0,10328.0,2367.0,2027.0,3432.0,351.0,2025-07-03 19:56:57,84.0,,0.0155778543924386,-1.99516751839847,0.0843614837904738,,-5.540632314850037,,
,9233.0,2601.0,10330.0,2365.0,2017.0,3432.0,359.0,2025-07-03 19:56:58,85.0,,0.0155140484805075,-1.99583100486024,0.0843802559952671,,-5.177676222797934,,
,9233.0,2600.0,10327.0,2367.0,2026.0,3424.0,349.0,2025-07-03 19:56:59,85.0,,0.0154809700483303,-1.99591542536376,0.0843541816714211,,-4.780172967839383,,
,9233.0,2600.0,10330.0,2367.0,2034.0,3414.0,314.0,2025-07-03 19:57:00,85.0,,0.0153564884494263,-1.99603995976747,0.0842781968084174,,-4.348457479573137,,
,9235.0,2604.0,10334.0,2370.0,2038.0,3423.0,311.0,2025-07-03 19:57:01,84.0,,0.0151635021153973,-1.99614078037897,0.0841989298610238,,-3.8835222715401327,,
,9233.0,2604.0,10328.0,2367.0,2035.0,3432.0,325.0,2025-07-03 19:57:02,83.0,,0.0150342174444273,-1.99710494526679,0.0842092310382875,,-3.3870504576546483,,
,9232.0,2603.0,10329.0,2368.0,2041.0,3443.0,334.0,2025-07-03 19:57:03,83.0,,0.0148431161328721,-1.99776026138577,0.08410327052502,,-2.861434087463717,,
,9234.0,2604.0,10333.0,2369.0,2054.0,3401.0,348.0,2025-07-03 19:57:04,82.0,,0.0147645577170378,-1.99790735009409,0.084093435594468,,-2.3097681883553682,,
,9237.0,2607.0,10334.0,2368.0,2039.0,3398.0,334.0,2025-07-03 19:57:05,83.0,,0.0147808850669903,-1.99808738111756,0.0840427842701494,,-1.7358097579793705,,
,9236.0,2606.0,10334.0,2372.0,2037.0,3400.0,335.0,2025-07-03 19:57:06,83.0,,0.0146812243770747,-1.99765344686399,0.0840636465416083,,-1.1438935777553538,,
,9237.0,2608.0,10332.0,2369.0,2022.0,3394.0,330.0,2025-07-03 19:57:07,84.0,,0.0146886245792008,-1.99750575192002,0.084005823927624,,-0.5388029289681171,,
,9239.0,2607.0,10332.0,2371.0,2028.0,3388.0,341.0,2025-07-03 19:57:08,84.0,,0.0146341661401418,-1.99775329019857,0.0839889176951101,,0.0743987477961691,,
,9240.0,2609.0,10334.0,2372.0,2034.0,3389.0,323.0,2025-07-03 19:57:09,85.0,,0.0147725545118204,-1.99773994376683,0.0841157117767626,,0.690561855777129,,
,9243.0,2611.0,10335.0,2372.0,2040.0,3388.0,325.0,2025-07-03 19:57:10,85.0,,0.0149630041760994,-1.9976818846303,0.0839013145658057,,1.3046518142961396,,
,9245.0,2610.0,10336.0,2375.0,2024.0,3395.0,316.0,2025-07-03 19:57:11,84.0,,0.0148872025509881,-1.99758761310498,0.0840293654208041,,1.9119367302059616,,
,9243.0,2610.0,10333.0,2371.0,2026.0,3397.0,325.0,2025-07-03 19:57:12,83.0,,0.0150361155927511,-1.99697551363406,0.0840429518673337,,2.508141841121982,,
,9248.0,2614.0,10337.0,2374.0,2020.0,3408.0,343.0,2025-07-03 19:57:13,81.0,,0.0149583349327966,-1.99753407666556,0.0840443806819341,,3.089555165262398,,
,9249.0,2617.0,10333.0,2374.0,2016.0,3381.0,375.0,2025-07-03 19:57:14,81.0,,0.0149492304293081,-1.99792786825355,0.0839405904534175,,3.6530759995718527,,
,9247.0,2615.0,10337.0,2375.0,2026.0,3392.0,366.0,2025-07-03 19:57:15,80.0,,0.0149444454036415,-1.99770903845673,0.0838953855079344,,4.196207321404124,,
,9251.0,2616.0,10337.0,2376.0,2033.0,3427.0,325.0,2025-07-03 19:57:16,80.0,,0.0150471511781498,-1.99756929731144,0.0839099213117379,,4.717003056271667,,
,9252.0,2617.0,10339.0,2374.0,2009.0,3407.0,333.0,2025-07-03 19:57:17,81.0,,0.0148911530243997,-1.99762202779813,0.0839050424354362,,5.213989041006188,,
,9255.0,2619.0,10338.0,2376.0,2027.0,3410.0,367.0,2025-07-03 19:57:18,81.0,,0.0149885857543483,-1.99789205984719,0.083824746417215,,5.6860795791420635,,
,9251.0,2616.0,10337.0,2376.0,2025.0,3410.0,373.0,2025-07-03 19:57:19,82.0,,0.0149103934663412,-1.99814668717212,0.0837660227461553,,6.132508170602636,,
,9251.0,2617.0,10336.0,2373.0,2014.0,3395.0,336.0,2025-07-03 19:57:20,83.0,,0.0150025559154682,-1.99760729795297,0.0838077314535084,,6.5527822964692,,
,9250.0,2614.0,10334.0,2374.0,2013.0,3393.0,347.0,2025-07-03 19:57:21,83.0,,0.0149919300669046,-1.99759093967292,0.0838965656277973,,6.946661445923187,,
,9252.0,2617.0,10336.0,2378.0,2029.0,3405.0,333.0,2025-07-03 19:57:22,84.0,,0.0149434484660543,-1.99748422606882,0.0838822010108195,,7.314148698925433,,
,9252.0,2618.0,10338.0,2378.0,2019.0,3397.0,324.0,2025-07-03 19:57:23,84.0,,0.0152310855709424,-1.99755617249025,0.083812195205544,,7.655481391675906,,
,9255.0,2616.0,10339.0,2376.0,2030.0,3402.0,344.0,2025-07-03 19:57:24,83.0,,0.0150992045889108,-1.99732508875961,0.0838029886548687,,7.9711060060865195,,
,9249.0,2618.0,10337.0,2375.0,2028.0,3412.0,334.0,2025-07-03 19:57:25,84.0,,0.0150981518333158,-1.99739644826886,0.0837335193454768,,8.261625522649117,,
,9251.0,2618.0,10336.0,2376.0,2012.0,3416.0,333.0,2025-07-03 19:57:26,84.0,,0.0150922169371631,-1.99760588748033,0.0837282428773356,,8.527712650433408,,
,9252.0,2618.0,10340.0,2379.0,2001.0,3400.0,321.0,2025-07-03 19:57:27,85.0,,0.0150084572617826,-1.99759160102185,0.0836989157192601,,8.769988226533474,,
,9253.0,2619.0,10336.0,2378.0,1999.0,3399.0,319.0,2025-07-03 19:57:28,86.0,,0.0150266585916717,-1.9974472499502,0.0837861295365212,,8.988869786713554,,
,9255.0,2619.0,10336.0,2377.0,2034.0,3395.0,345.0,2025-07-03 19:57:29,86.0,,0.0149676206074785,-1.99760865060618,0.0836559560985071,,9.18440056020415,,
,9256.0,2619.0,10337.0,2379.0,2026.0,3409.0,351.0,2025-07-03 19:57:30,86.0,,0.015103045563023,-1.99810013850388,0.0836679377674936,,9.356073802920909,,
,9259.0,2621.0,10341.0,2379.0,2019.0,3418.0,364.0,,,,0.0150914378201902,-1.99785828749251,0.0836467811204331,,9.502671110129391,,
,9258.0,2620.0,10339.0,2379.0,2016.0,3428.0,340.0,,,,0.0150878025669414,-1.99810469637807,0.083607658779772,,9.622135627371545,,
,9258.0,2622.0,10340.0,2378.0,2021.0,3428.0,320.0,,,,0.0149585734073373,-1.99835521878072,0.0836035166288337,,9.711501264997661,,
,9260.0,2620.0,10337.0,2378.0,2016.0,3409.0,328.0,,,,0.0150150555851763,-1.99837743841156,0.0837385442178731,,9.766896208943026,,
,9264.0,2624.0,10341.0,2380.0,1999.0,3426.0,305.0,,,,0.0150347296809038,-1.99876294655457,0.0835539433455527,,9.783632378444171,,
,9264.0,2625.0,10340.0,2382.0,2001.0,3405.0,315.0,,,,0.015013282284751,-1.99889431829106,0.0834830242367068,,9.756382341971898,,
,9264.0,2623.0,10339.0,2380.0,2000.0,3383.0,328.0,,,,0.0149273987359933,-1.99936453374764,0.083432980581597,,9.679433768626994,,
,9266.0,2623.0,10339.0,2381.0,2017.0,3397.0,322.0,,,,0.0149023146478047,-1.9995740666259,0.0834779583376157,,9.547001950892291,,
,9269.0,2626.0,10340.0,2381.0,2014.0,3397.0,318.0,,,,0.0148934001677023,-1.99968346231233,0.0834624629276157,,9.353575520405887,,
,9272.0,2629.0,10343.0,2386.0,2009.0,3386.0,326.0,,,,0.0148183970425932,-1.9999905501824,0.0833605570026154,,9.09426943407145,,
,9275.0,2630.0,10342.0,2385.0,2001.0,3394.0,316.0,,,,0.0147094280074096,-2.00011081496843,0.0832751938087215,,8.765161579986584,,
,9276.0,2629.0,10341.0,2387.0,2006.0,3398.0,320.0,,,,0.0147788985376295,-2.00048999292609,0.0833364318384278,,8.363593687869523,,
,9279.0,2629.0,10340.0,2382.0,2014.0,3404.0,336.0,,,,0.0148018480275145,-2.00078393242709,0.0833403165085954,,7.88842238005207,,
,9283.0,2632.0,10339.0,2386.0,2018.0,3398.0,328.0,,,,0.0146934154249995,-2.00067420429068,0.08338142662548,,7.340210831293196,,
,9286.0,2634.0,10341.0,2386.0,2016.0,3389.0,341.0,,,,0.0146851290870966,-2.0006819268282,0.083415832658035,,6.721354708232118,,
,9290.0,2633.0,10341.0,2386.0,2025.0,3409.0,342.0,,,,0.0146081953088789,-2.00091992065514,0.0833767173861119,,6.036137885478299,,
,9293.0,2633.0,10341.0,2388.0,2026.0,3415.0,353.0,,,,0.0144490280044105,-2.00156389566413,0.0832557777273293,,5.290714602022236,,
,9296.0,2637.0,10345.0,2392.0,2011.0,3393.0,337.0,,,,0.014287216075954,-2.00157050485835,0.0833245683382157,,4.493015922874084,,
,9300.0,2637.0,10342.0,2390.0,2016.0,3398.0,320.0,,,,0.0142014997973332,-2.00238780506196,0.0832651918435062,,3.6525800207559644,,
,9302.0,2638.0,10342.0,2393.0,2015.0,3407.0,323.0,,,,0.014186348713327,-2.00240606341478,0.0832133214312915,,2.7803081167389783,,
,9300.0,2636.0,10340.0,2387.0,2027.0,3405.0,323.0,,,,0.0140391044719599,-2.00252280471048,0.0831236758668504,,1.8881509567621182,,
,9307.0,2636.0,10343.0,2391.0,2000.0,3409.0,347.0,,,,0.013982251063234,-2.00268205946081,0.0831446488965158,,0.9887342404307968,,
,9314.0,2643.0,10343.0,2391.0,2018.0,3402.0,327.0,,,,0.0141880929967201,-2.00293903504639,0.0831001718458399,,0.09493515331553841,,
,9314.0,2642.0,10341.0,2395.0,2011.0,3409.0,336.0,,,,0.0141483553744434,-2.00306744609844,0.0830198742949829,,-0.7805739261024709,,
,9317.0,2640.0,10342.0,2391.0,2013.0,3401.0,297.0,,,,0.0142049418468796,-2.00332358006797,0.0830408069823093,,-1.625793970402232,,
,9319.0,2641.0,10342.0,2392.0,2023.0,3414.0,330.0,,,,0.0141114408543777,-2.00347866964128,0.0830424344633107,,-2.4298543193254303,,
,9323.0,2646.0,10342.0,2396.0,2019.0,3412.0,331.0,,,,0.0141303452792748,-2.00352971898047,0.0830580749859521,,-3.1834237071884175,,
,9329.0,2647.0,10345.0,2396.0,2012.0,3403.0,327.0,,,,0.0141213943493433,-2.00392435405565,0.0830506977693943,,-3.879045248104891,,
,9333.0,2647.0,10344.0,2399.0,2014.0,3387.0,324.0,,,,0.0139625971954082,-2.0041207022465,0.0829988605631171,,-4.511367086558971,,
,9333.0,2648.0,10340.0,2396.0,2016.0,3397.0,331.0,,,,0.0140600850125312,-2.00349342614165,0.0829480163999227,,-5.077249728628355,,
,9334.0,2647.0,10342.0,2397.0,2019.0,3398.0,310.0,,,,0.0140691648091907,-2.00409667445416,0.0829588026351773,,-5.575743933110566,,
,9341.0,2649.0,10344.0,2400.0,2013.0,3392.0,312.0,,,,0.0140402706178651,-2.00405313273257,0.0829758859435891,,-6.007946594481098,,
,9342.0,2649.0,10344.0,2398.0,2009.0,3391.0,318.0,,,,0.0140533319701962,-2.00440314302587,0.082923803600916,,-6.376753802815049,,
,9345.0,2650.0,10344.0,2399.0,1999.0,3407.0,340.0,,,,0.0141867728732188,-2.00329480440308,0.0830269247706317,,-6.686538600428834,,
,9348.0,2650.0,10344.0,2399.0,2009.0,3391.0,353.0,,,,0.0140860938283015,-2.00316579175383,0.0830206059963646,,-6.942785156997607,,
,9353.0,2654.0,10345.0,2402.0,2034.0,3394.0,361.0,,,,0.0142551579642384,-2.00302244212248,0.082969784923635,,-7.151711282444463,,
,9355.0,2653.0,10347.0,2403.0,2044.0,3399.0,356.0,,,,0.0143161283981237,-2.00283031420662,0.0830014267441605,,-7.319908110412974,,
,9359.0,2653.0,10345.0,2404.0,2034.0,3409.0,349.0,,,,0.014380386396297,-2.00273437155036,0.0831144157608033,,-7.454020221890108,,
,9360.0,2652.0,10344.0,2401.0,2034.0,3420.0,324.0,,,,0.014353654926041,-2.00229635123027,0.0830318161942783,,-7.560481948535947,,
,9364.0,2654.0,10345.0,2404.0,2032.0,3402.0,303.0,,,,0.0142952680324788,-2.00242574595321,0.0830013953118486,,-7.645316515775871,,
,9363.0,2654.0,10345.0,2405.0,2039.0,3422.0,328.0,,,,0.0142830891664913,-2.00273779693756,0.0830679766198898,,-7.713995053785302,,
,9362.0,2654.0,10343.0,2403.0,2042.0,3440.0,311.0,,,,0.014299955935304,-2.00283263804043,0.0830337867560215,,-7.771344211581325,,
,9355.0,2648.0,10340.0,2398.0,2033.0,3449.0,318.0,,,,0.0142816134535878,-2.00239584576193,0.0830353387113472,,-7.8214862287479745,,
,9352.0,2650.0,10343.0,2398.0,2039.0,3427.0,335.0,,,,0.0141635980684877,-2.00245119256294,0.0830464785201194,,-7.867794850902068,,
,9342.0,2648.0,10340.0,2398.0,2023.0,3415.0,317.0,,,,0.014324864937993,-2.00283937078748,0.0829843669361489,,-7.91285379392592,,
,9334.0,2644.0,10338.0,2396.0,2016.0,3421.0,358.0,,,,0.0142600712339077,-2.0025734236203,0.0830171650527037,,-7.958409967162474,,
,9318.0,2635.0,10336.0,2392.0,2024.0,3416.0,348.0,,,,0.0142279666508819,-2.00222147251187,0.0829939697427621,,-8.005319840163322,,
,9306.0,2633.0,10337.0,2390.0,2002.0,3404.0,338.0,,,,0.0143681738481919,-2.00261462463607,0.0831084774365504,,-8.053493233820625,,
,9299.0,2630.0,10333.0,2385.0,2015.0,3404.0,350.0,,,,0.0143623354187652,-2.00210727971025,0.0829840460668299,,-8.101843872355932,,
,9285.0,2625.0,10335.0,2383.0,2008.0,3389.0,342.0,,,,0.0143092542372213,-2.00263300610658,0.0830575325393649,,-8.14825978776419,,
,9273.0,2620.0,10335.0,2380.0,2004.0,3386.0,336.0,,,,0.0143034580080803,-2.00218456836842,0.0829990643842036,,-8.189608714047898,,
,9261.0,2615.0,10333.0,2377.0,2043.0,3386.0,337.0,,,,0.0143937342853715,-2.0025976812851,0.0829971220742832,,-8.221793582731415,,
,9253.0,2610.0,10331.0,2377.0,2024.0,3387.0,319.0,,,,0.0142491931937725,-2.00259612818676,0.082949108579288,,-8.239870710809026,,
,9244.0,2611.0,10332.0,2377.0,2011.0,3395.0,311.0,,,,0.0143240537540307,-2.00255096727052,0.0830170528821412,,-8.23823779465347,,
,9237.0,2607.0,10334.0,2374.0,2003.0,3403.0,314.0,,,,0.0143762335340225,-2.00274978632694,0.082992733174602,,-8.21089030038268,,
,9230.0,2604.0,10333.0,2369.0,2003.0,3426.0,328.0,,,,0.0142930823677673,-2.00334286768641,0.0829731730525249,,-8.151734221828763,,
,9224.0,2604.0,10335.0,2371.0,2010.0,3408.0,319.0,,,,0.0142181198630923,-2.00292662000362,0.0829944236211776,,-8.054932727349144,,
,9222.0,2605.0,10336.0,2371.0,2006.0,3420.0,325.0,,,,0.0142417962419582,-2.0027454198713,0.0830025726969193,,-7.915256759417109,,
,9216.0,2602.0,10336.0,2369.0,2015.0,3428.0,336.0,,,,0.0141943378490921,-2.00254146004153,0.0829462193115708,,-7.728407074035783,,
,9212.0,2601.0,10339.0,2371.0,2034.0,3432.0,326.0,,,,0.0141333308209521,-2.00244415251241,0.0829428387284652,,-7.491277611887695,,
,9212.0,2600.0,10334.0,2369.0,2029.0,3407.0,317.0,,,,0.014045812852818,-2.00280364541557,0.0830045771830249,,-7.202136337850314,,
,9208.0,2603.0,10336.0,2370.0,2038.0,3416.0,319.0,,,,0.0140031174994325,-2.00316564144445,0.0829571026566655,,-6.860708430064311,,
,9207.0,2604.0,10338.0,2371.0,2032.0,3426.0,331.0,,,,0.013970157734431,-2.00350015753226,0.0829251235045799,,-6.468156845612527,,
,9209.0,2601.0,10337.0,2371.0,2039.0,3423.0,328.0,,,,0.013911982061723,-2.00342024773702,0.0828704157093037,,-6.026965851904464,,
,9209.0,2600.0,10337.0,2370.0,2039.0,3426.0,308.0,,,,0.0140092790225862,-2.00360739448889,0.082974985607335,,-5.540743071440581,,
,9209.0,2603.0,10337.0,2370.0,2035.0,3424.0,316.0,,,,0.013809488893781,-2.00330395473982,0.0829239440466296,,-5.013963853211467,,
,9211.0,2606.0,10339.0,2370.0,2060.0,3436.0,317.0,,,,0.0140180185022257,-2.00332280417006,0.0828344509952096,,-4.451687188556016,,
,9210.0,2605.0,10343.0,2371.0,2049.0,3430.0,335.0,,,,0.0140438285619982,-2.00310275643073,0.0828406337211045,,-3.859273821779816,,
,9211.0,2607.0,10342.0,2369.0,2012.0,3381.0,341.0,,,,0.01403446179469,-2.00273349117282,0.0828665400322783,,-3.242134041489186,,
,9211.0,2606.0,10340.0,2372.0,2008.0,3379.0,346.0,,,,0.0140739805592172,-2.00289582516502,0.0828908265844031,,-2.605525337541912,,
,9213.0,2607.0,10339.0,2372.0,2013.0,3393.0,330.0,,,,0.0140647183017544,-2.00350623095874,0.0829590849852377,,-1.954410470265556,,
,9217.0,2610.0,10341.0,2372.0,2016.0,3410.0,326.0,,,,0.0140645332105463,-2.00372569553478,0.0827527272451902,,-1.2933769518531957,,
,9219.0,2612.0,10343.0,2376.0,2011.0,3401.0,329.0,,,,0.0140342239913031,-2.00336252207375,0.0828724363146856,,-0.6266111518694635,,
,9221.0,2610.0,10339.0,2373.0,2012.0,3407.0,338.0,,,,0.0141145732765799,-2.00363045012398,0.082838738149783,,0.042085510086740045,,
,9222.0,2615.0,10345.0,2375.0,2013.0,3404.0,337.0,,,,0.0139684717266016,-2.00368044751956,0.0827484578262429,,0.7092547843796869,,
,9225.0,2615.0,10345.0,2376.0,2000.0,3406.0,334.0,,,,0.0139391198811789,-2.0034101586512,0.0828155364314328,,1.371732596149834,,
2025-07-03 19:54:33,9227.0,2615.0,10345.0,2376.0,2007.0,3415.0,340.0,,,2025/07/03 07:54:33 PM,0.0139921832864945,-2.0037808451754,0.0827714355112783,,2.026610175155263,,
,9227.0,2613.0,10342.0,2374.0,2007.0,3419.0,325.0,,,,0.0141123125799929,-2.00357199169797,0.0828718048176645,,2.6712182968367344,,
,9227.0,2617.0,10341.0,2375.0,2009.0,3395.0,336.0,,,,0.0139216510687174,-2.00346368987643,0.0828976669090645,,3.3031405806974035,,
,9228.0,2615.0,10342.0,2378.0,2018.0,3407.0,360.0,,,,0.0139692504851825,-2.00314155597491,0.0827437590983312,,3.9202536771674223,,
,9228.0,2617.0,10343.0,2377.0,2012.0,3405.0,360.0,,,,0.01391002591381,-2.00341349685213,0.082840821503834,,4.5207849854681825,,
,9229.0,2616.0,10341.0,2375.0,1999.0,3408.0,336.0,,,,0.0141265441877851,-2.00339783442412,0.0827497393901118,,5.103373964667165,,
,9228.0,2617.0,10343.0,2377.0,2004.0,3385.0,323.0,,,,0.0141296619235067,-2.00336476622877,0.0828016487513698,,5.66712189334634,,
,9226.0,2617.0,10341.0,2375.0,2014.0,3404.0,342.0,,,,0.014129336548572,-2.00325519882457,0.082779885874271,,6.211616641200247,,
,9231.0,2618.0,10344.0,2379.0,2012.0,3391.0,354.0,,,,0.0142112825763178,-2.00300029245107,0.082778882457536,,6.736922223844546,,
,9231.0,2621.0,10347.0,2377.0,2020.0,3382.0,344.0,,,,0.0141504232527372,-2.0028394743625,0.0828038846219201,,7.243526153882016,,
,9230.0,2618.0,10342.0,2375.0,2035.0,3430.0,315.0,,,,0.0142940436438472,-2.00300669696107,0.0828908777637098,,7.732240242195606,,
,9229.0,2615.0,10343.0,2379.0,2027.0,3421.0,353.0,,,,0.0141579002186155,-2.00273986931044,0.0827330646631984,,8.204052787314097,,
,9231.0,2617.0,10343.0,2376.0,2031.0,3429.0,354.0,,,,0.0141767235263884,-2.00307371008819,0.0827774669413164,,8.659932532993766,,
,9232.0,2619.0,10344.0,2377.0,2028.0,3431.0,348.0,,,,0.0142181561992016,-2.0030635778679,0.082735569755653,,9.100587818645641,,
,9230.0,2617.0,10344.0,2377.0,2022.0,3439.0,321.0,,,,0.0141616191928657,-2.00345731773126,0.0827682422019018,,9.52618850718855,,
,9231.0,2619.0,10344.0,2376.0,2008.0,3432.0,308.0,,,,0.0141406867812668,-2.00299240820385,0.0827761432104457,,9.936064109272037,,
,9231.0,2617.0,10345.0,2378.0,2015.0,3424.0,309.0,,,,0.0141639193013207,-2.0031944664551,0.082790699582467,,10.328399170913343,,
,9231.0,2619.0,10343.0,2378.0,2029.0,3425.0,313.0,,,,0.0141585929991107,-2.00307948175535,0.0827554624739772,,10.699955788437949,,
,9234.0,2620.0,10345.0,2379.0,2024.0,3423.0,314.0,,,,0.0142148933825961,-2.00307839727026,0.0827112415882572,,11.045861616083002,,
,9236.0,2620.0,10345.0,2378.0,2000.0,3409.0,337.0,,,,0.0142512812272248,-2.00297560353335,0.0827881218126878,,11.359507741537993,,
,9240.0,2622.0,10346.0,2380.0,2019.0,3403.0,351.0,,,,0.0141514570703987,-2.00337176682458,0.0826915353378459,,11.6326012518046,,
,9239.0,2625.0,10348.0,2381.0,2024.0,3395.0,308.0,,,,0.0141406153067252,-2.00378492769102,0.0826138466964194,,11.855408871264116,,
,9239.0,2625.0,10344.0,2379.0,2029.0,3418.0,309.0,,,,0.0140296821298247,-2.00440179123719,0.0826166340988358,,12.017209040329803,,
,9242.0,2623.0,10343.0,2379.0,2024.0,3406.0,313.0,,,,0.0140159977945542,-2.00516351446386,0.0825785354194171,,12.106941883145769,,
,9246.0,2625.0,10349.0,2383.0,2022.0,3393.0,329.0,,,,0.0139663314473157,-2.00524332572058,0.0826415547069762,,12.114014413478687,,
,9248.0,2626.0,10347.0,2382.0,2012.0,3402.0,312.0,,,,0.0139517563586484,-2.00505185710066,0.0825864473700014,,12.029188005603242,,
,9251.0,2625.0,10349.0,2387.0,2012.0,3403.0,317.0,,,,0.0139686343531192,-2.00583481752478,0.0825843383065657,,11.845452369030165,,
,9252.0,2626.0,10347.0,2380.0,2002.0,3399.0,360.0,,,,0.0139017292286211,-2.00580042226562,0.0824705604013399,,11.558780123502606,,
,9255.0,2628.0,10347.0,2383.0,2029.0,3401.0,337.0,,,,0.013876333760947,-2.00566570319981,0.0824909582654931,,11.168662394126795,,
,9260.0,2630.0,10345.0,2386.0,2016.0,3402.0,342.0,,,,0.01379443975761,-2.00627332082244,0.0824936614967277,,10.6783495817218,,
,9265.0,2630.0,10351.0,2386.0,2006.0,3422.0,359.0,,,,0.0137118614680474,-2.00629443902293,0.082518341999301,,10.094759285350348,,
,9268.0,2632.0,10351.0,2387.0,2016.0,3413.0,343.0,,,,0.0137279648249992,-2.00653116610738,0.0825124543700207,,9.428058194028061,,
,9267.0,2631.0,10346.0,2385.0,2034.0,3409.0,348.0,,,,0.013600553904399,-2.00678799855127,0.0826119035571177,,8.690968234434663,,
,9270.0,2633.0,10348.0,2386.0,2026.0,3421.0,360.0,,,,0.013561386366491,-2.00716059343136,0.0825473105002929,,7.897882033194436,,
,9272.0,2636.0,10351.0,2389.0,2019.0,3397.0,346.0,,,,0.0134397238220246,-2.00706752953425,0.0825959558347646,,7.063893611211131,,
,9278.0,2637.0,10351.0,2390.0,2021.0,3380.0,350.0,,,,0.0132546275120917,-2.00751491906043,0.0825051858972681,,6.203854488527026,,
,9280.0,2634.0,10349.0,2389.0,2006.0,3372.0,323.0,,,,0.0131570927626213,-2.00840370143576,0.0825513817793129,,5.331553413553293,,
,9285.0,2639.0,10349.0,2391.0,2019.0,3400.0,328.0,,,,0.0131426133761618,-2.00793837635074,0.0823998945466152,,4.459093165980168,,
,9287.0,2637.0,10354.0,2390.0,2020.0,3406.0,331.0,,,,0.0131121112148112,-2.00828033730386,0.082426738127776,,3.596505672121271,,
,9289.0,2638.0,10351.0,2393.0,2009.0,3393.0,341.0,,,,0.013215435450061,-2.00790201519078,0.0823823083780692,,2.7516127366249066,,
,9294.0,2641.0,10353.0,2393.0,1980.0,3381.0,346.0,,,,0.0132919582327575,-2.00807985000746,0.0824094839270241,,1.930109034156686,,
,9296.0,2641.0,10349.0,2389.0,1981.0,3389.0,357.0,,,,0.0132269318971685,-2.00808540773204,0.0824778246677097,,1.1358203523441905,,
,9301.0,2643.0,10354.0,2394.0,2006.0,3420.0,335.0,,,,0.0130675921576982,-2.00845272311961,0.0824129448622451,,0.3710756062625734,,
,9305.0,2644.0,10352.0,2395.0,1997.0,3419.0,336.0,,,,0.0130928682586068,-2.00879847788885,0.0823480053520634,,-0.3628735713167672,,
,9310.0,2642.0,10353.0,2394.0,2006.0,3414.0,340.0,,,,0.0131501824943231,-2.00858270734205,0.0824268332204442,,-1.0654474701504928,,
,9309.0,2645.0,10349.0,2393.0,2016.0,3412.0,314.0,,,,0.0130337662720677,-2.00869736283485,0.0824423294075219,,-1.736396816808444,,
,9315.0,2645.0,10354.0,2398.0,2020.0,3378.0,304.0,,,,0.0131346501901393,-2.00837342439347,0.0824780308917438,,-2.3755567583483415,,
,9315.0,2648.0,10354.0,2398.0,2041.0,3417.0,310.0,,,,0.0132414559187673,-2.00819820416873,0.0824215090714837,,-2.9827068482900896,,
,9322.0,2650.0,10352.0,2399.0,2049.0,3410.0,330.0,,,,0.0133389309942514,-2.00767075260442,0.0823847341848362,,-3.5575275946524556,,
,9325.0,2649.0,10354.0,2398.0,2040.0,3390.0,323.0,,,,0.0132619613824468,-2.00722351352547,0.0824395853675404,,-4.099629595276254,,
,9329.0,2650.0,10354.0,2402.0,2023.0,3390.0,342.0,,,,0.0133955041899194,-2.00697063686751,0.0825378490435828,,-4.60862474611139,,
,9333.0,2651.0,10354.0,2399.0,2041.0,3400.0,382.0,,,,0.013440986387741,-2.00703768049566,0.0824939541929186,,-5.084210028672415,,
,9336.0,2653.0,10357.0,2402.0,2042.0,3425.0,336.0,,,,0.0135719080464197,-2.00678913672423,0.0825015871164212,,-5.526240468525585,,
,9338.0,2653.0,10355.0,2401.0,2041.0,3424.0,331.0,,,,0.0135679667709827,-2.00635385153864,0.0825803860270228,,-5.934776316034211,,
,9340.0,2650.0,10352.0,2397.0,2035.0,3433.0,332.0,,,,0.0136363176539839,-2.00648266075577,0.0824728953525505,,-6.310098390660642,,
,9343.0,2655.0,10356.0,2402.0,2016.0,3438.0,307.0,,,,0.0136862636882292,-2.0062543581398,0.0825465479954846,,-6.652693555804699,,
,9341.0,2653.0,10353.0,2401.0,2020.0,3442.0,294.0,,,,0.0137349107152101,-2.00624432689124,0.0826018247359413,,-6.963218596143269,,
,9338.0,2651.0,10353.0,2399.0,2043.0,3438.0,311.0,,,,0.013785961126498,-2.00608454217982,0.0826549180136171,,-7.242454901784824,,
,9330.0,2649.0,10349.0,2398.0,2030.0,3430.0,338.0,,,,0.0136892726619984,-2.00524894432944,0.0825719507807126,,-7.491268088347265,,
,9321.0,2646.0,10349.0,2392.0,2015.0,3436.0,326.0,,,,0.0137568708767623,-2.00542697874889,0.0825878319667702,,-7.7105856910586255,,
,9314.0,2644.0,10347.0,2392.0,1996.0,3411.0,327.0,,,,0.013814106446666,-2.00515353029059,0.0826994562130124,,-7.901402022068081,,
,9302.0,2638.0,10351.0,2389.0,1999.0,3400.0,352.0,,,,0.0137767403397879,-2.00461140223942,0.0826149506030235,,-8.064812294549817,,
,9294.0,2636.0,10347.0,2387.0,2014.0,3391.0,358.0,,,,0.0138215077259796,-2.00511992946624,0.0826357985329432,,-8.202069385060609,,
,9281.0,2629.0,10344.0,2382.0,2005.0,3362.0,349.0,,,,0.0137992870689831,-2.00483286336105,0.0826853876995589,,-8.314648506943184,,
,9271.0,2625.0,10345.0,2379.0,2014.0,3397.0,363.0,,,,0.013859819150233,-2.00509408671433,0.0826136817232993,,-8.404300350027269,,
,9264.0,2622.0,10346.0,2379.0,2020.0,3376.0,353.0,,,,0.0136799480843671,-2.00512183735524,0.0826305685816351,,-8.473073580775239,,
,9250.0,2619.0,10346.0,2377.0,2012.0,3392.0,347.0,,,,0.013775260883429,-2.00492091109475,0.0826003904196829,,-8.523292681101308,,
,9240.0,2614.0,10346.0,2371.0,2012.0,3399.0,317.0,,,,0.0137623914517692,-2.00528899315939,0.0825305276962225,,-8.557485046017359,,
,9234.0,2610.0,10345.0,2369.0,2021.0,3402.0,296.0,,,,0.0139078778820685,-2.00515760627874,0.0825556516506279,,-8.578259840687076,,
,9230.0,2608.0,10344.0,2369.0,2007.0,3411.0,328.0,,,,0.0138081843634745,-2.00547201547008,0.0825796467745257,,-8.588148718994269,,
,9219.0,2606.0,10345.0,2367.0,2011.0,3414.0,334.0,,,,0.0137996644331788,-2.00561270423887,0.0825300853684,,-8.589424242258623,,
,9216.0,2605.0,10342.0,2364.0,2028.0,3412.0,343.0,,,,0.0136606155495678,-2.00582679308802,0.0825787583372647,,-8.58391528593626,,
,9212.0,2604.0,10345.0,2365.0,2015.0,3413.0,352.0,,,,0.0136656508138279,-2.00548862075141,0.0826953734989028,,-8.57283975184998,,
,9207.0,2603.0,10344.0,2365.0,2036.0,3407.0,348.0,,,,0.0135879826947434,-2.0054495954218,0.0825808825587358,,-8.556673604644518,,
,9213.0,2603.0,10346.0,2364.0,2050.0,3443.0,332.0,,,,0.0135785694873864,-2.00530643225169,0.0826895521867634,,-8.535071806015374,,
,9210.0,2605.0,10348.0,2363.0,2054.0,3444.0,323.0,,,,0.0135422445122545,-2.00574860434201,0.0826539148997958,,-8.506851293491014,,
,9209.0,2604.0,10344.0,2360.0,2030.0,3438.0,321.0,,,,0.0135338557483233,-2.00564523135889,0.0827022767246915,,-8.470039026690522,,
,9206.0,2606.0,10351.0,2363.0,2038.0,3440.0,347.0,,,,0.0135104229786183,-2.00533784785034,0.0826969772096749,,-8.42198006700435,,
,9208.0,2605.0,10351.0,2364.0,2045.0,3420.0,328.0,,,,0.0134898922461616,-2.00567329149844,0.0826952777136962,,-8.359493135432405,,
,9211.0,2607.0,10349.0,2363.0,2046.0,3409.0,336.0,,,,0.0135850866129611,-2.00562905173977,0.0826939221296426,,-8.27905593073682,,
,9212.0,2605.0,10348.0,2362.0,2046.0,3398.0,324.0,,,,0.013574737303681,-2.00529598098711,0.0827042934190571,,-8.177000928666311,,
,9215.0,2611.0,10351.0,2363.0,2045.0,3406.0,344.0,,,,0.0136198586846288,-2.00476356045727,0.0827101359486617,,-8.049704324774039,,
,9214.0,2611.0,10351.0,2365.0,2029.0,3410.0,353.0,,,,0.0134320401716251,-2.00487839344484,0.0827030805187,,-7.893755004278813,,
,9220.0,2612.0,10353.0,2365.0,2022.0,3397.0,347.0,,,,0.0135012463990882,-2.00447097345088,0.0827567683296092,,-7.706095506973195,,
,9221.0,2614.0,10349.0,2363.0,2048.0,3400.0,346.0,,,,0.01358067573628,-2.00444149799605,0.0826678150327874,,-7.484131948529753,,
,9224.0,2612.0,10350.0,2363.0,2048.0,3393.0,324.0,,,,0.0137231777509424,-2.00478838199256,0.08269454361373,,-7.2258142382227435,,
,9226.0,2612.0,10352.0,2366.0,2031.0,3390.0,306.0,,,,0.0137067136704713,-2.00413005310296,0.0827177953714519,,-6.929691361218178,,
,9228.0,2614.0,10353.0,2365.0,2020.0,3387.0,329.0,,,,0.013751843035634,-2.0040280160312,0.082886378016399,,-6.594948731329917,,
,9235.0,2618.0,10355.0,2368.0,2019.0,3389.0,328.0,,,,0.013790130971187,-2.00420738690547,0.0827848584157257,,-6.22143544529899,,
,9234.0,2617.0,10353.0,2366.0,2011.0,3416.0,338.0,,,,0.0138036311005762,-2.003792177802,0.0828232845197217,,-5.809688327241444,,
,9238.0,2616.0,10354.0,2369.0,1997.0,3423.0,353.0,,,,0.0137855792545877,-2.00361918011205,0.0828173263058539,,-5.360956491413768,,
,9242.0,2618.0,10356.0,2369.0,2011.0,3403.0,335.0,,,,0.0137138393857679,-2.00358512117109,0.0828316516585445,,-4.87722468275836,,
,9242.0,2622.0,10355.0,2368.0,2022.0,3397.0,339.0,,,,0.0137958171176687,-2.00335645098326,0.0828831327024906,,-4.361226873876511,,
,9245.0,2620.0,10353.0,2368.0,2031.0,3406.0,332.0,,,,0.0138173847215429,-2.00368810684244,0.082845053997404,,-3.8164359469906106,,
,9246.0,2621.0,10355.0,2369.0,2032.0,3448.0,322.0,,,,0.013911638424487,-2.00271452232949,0.082892714703893,,-3.2470138097860084,,
,9248.0,2623.0,10355.0,2370.0,2023.0,3410.0,321.0,,,,0.0139281606465806,-2.00243700698569,0.082947309877277,,-2.65771065700269,,
,9253.0,2625.0,10356.0,2369.0,2035.0,3395.0,312.0,,,,0.0138666955908881,-2.00196388945804,0.0830520904326279,,-2.0537111989823775,,
,9255.0,2622.0,10353.0,2367.0,2046.0,3387.0,307.0,,,,0.0140169683277901,-2.00182672146879,0.0830884940773968,,-1.4404363218614291,,
,9253.0,2618.0,10354.0,2367.0,2047.0,3395.0,296.0,,,,0.0141871553222563,-2.00119475635714,0.0832027575138924,,-0.8233175412572051,,
,9255.0,2622.0,10354.0,2367.0,2053.0,3409.0,290.0,,,,0.0142303193658156,-2.00060145265397,0.0832503272490154,,-0.2075669622755343,,
,9260.0,2625.0,10356.0,2370.0,2041.0,3411.0,335.0,,,,0.0141630145343119,-1.99959953564344,0.0833522630580445,,0.40203295682190116,,
,9258.0,2623.0,10355.0,2367.0,2048.0,3405.0,354.0,,,,0.0142939687854348,-1.99949042519171,0.0834058375634005,,1.0012971886102042,,
,9259.0,2621.0,10355.0,2365.0,2036.0,3394.0,334.0,,,,0.014329532728638,-1.99940277888615,0.0834283875129166,,1.5867451849756278,,
,9262.0,2621.0,10354.0,2366.0,2038.0,3412.0,334.0,,,,0.0144896702635308,-1.99879522539651,0.0834638343897771,,2.1556357306845846,,
,9263.0,2623.0,10355.0,2368.0,2025.0,3430.0,331.0,,,,0.0144117965767849,-1.99852734105737,0.0835203746896388,,2.7059272336689277,,
,9266.0,2625.0,10356.0,2369.0,2014.0,3419.0,333.0,,,,0.0144764963862543,-1.9983596145879,0.0835694264636827,,3.23617190296944,,
,9267.0,2624.0,10357.0,2369.0,2031.0,3435.0,334.0,,,,0.0144571812648145,-1.99804266439875,0.0835854515842553,,3.7453633854310397,,
,9268.0,2624.0,10357.0,2368.0,2039.0,3436.0,349.0,,,,0.0145469305580579,-1.99763858619794,0.0835854004058861,,4.232766269506153,,
,9273.0,2622.0,10358.0,2369.0,2046.0,3420.0,331.0,,,,0.0145654696892237,-1.99717850336883,0.083791709371616,,4.697759491068612,,
,9275.0,2626.0,10359.0,2366.0,2056.0,3419.0,321.0,,,,0.0146771384560104,-1.99665339140307,0.083816685894129,,5.13972262117652,,
,9276.0,2626.0,10357.0,2369.0,2060.0,3418.0,329.0,,,,0.0146830574011247,-1.99661892803779,0.0838820892041594,,5.557985335334939,,
,9279.0,2624.0,10355.0,2366.0,2041.0,3422.0,307.0,,,,0.0147003831130142,-1.9973970936093,0.0839463455296831,,5.951848733543653,,
,9283.0,2624.0,10359.0,2370.0,2033.0,3431.0,301.0,,,,0.0147327880421084,-1.99693004205483,0.0838766743250552,,6.32067509096927,,
,9288.0,2629.0,10361.0,2370.0,2024.0,3393.0,298.0,,,,0.014555817754804,-1.99725809543661,0.0838628950667566,,6.6640315130593875,,
,9290.0,2629.0,10359.0,2372.0,2037.0,3389.0,292.0,,,,0.014521865396953,-1.99734661371401,0.0838410582881671,,6.981863690894262,,
,9293.0,2629.0,10357.0,2368.0,2055.0,3386.0,293.0,,,,0.014382816718778,-1.99743438387209,0.0838765411231836,,7.274669517281746,,
,9296.0,2631.0,10359.0,2371.0,2041.0,3403.0,322.0,,,,0.0145256512333107,-1.99772741888918,0.0838641296695325,,7.543640033479245,,
,9300.0,2631.0,10359.0,2371.0,2026.0,3408.0,339.0,,,,0.0144931565335244,-1.99688735196143,0.0839289234323384,,7.7907380474153864,,
,9305.0,2634.0,10361.0,2373.0,2046.0,3397.0,355.0,,,,0.0144745277700238,-1.99710626161708,0.0841421587236748,,8.01869287150332,,
,9309.0,2634.0,10359.0,2373.0,2059.0,3397.0,343.0,,,,0.0143591818771818,-1.99697778090082,0.0841852157518637,,8.230901723277176,,
,9311.0,2634.0,10359.0,2373.0,2033.0,3407.0,335.0,,,,0.0143362389395266,-1.99626061781598,0.0842743624890226,,8.431241824543523,,
,9313.0,2634.0,10360.0,2374.0,2016.0,3424.0,328.0,,,,0.0143510507267043,-1.99655762224238,0.0843050763092908,,8.623808875890516,,
,9318.0,2636.0,10361.0,2373.0,2021.0,3427.0,336.0,,,,0.014423828481313,-1.99658187818844,0.0842601720828273,,8.812604941367578,,
,9325.0,2638.0,10361.0,2375.0,2033.0,3441.0,331.0,,,,0.0141341103526032,-1.99687313652051,0.0842888915500087,,9.00120146067719,,
,9327.0,2636.0,10361.0,2375.0,2032.0,3443.0,339.0,,,,0.0142269674781468,-1.99648502022161,0.0844533564475465,,9.192402470297248,,
,9327.0,2641.0,10362.0,2375.0,2032.0,3458.0,331.0,,,,0.014166557958498,-1.99712572756603,0.0843978561256018,,9.387930801680806,,
,9336.0,2640.0,10361.0,2376.0,2039.0,3427.0,348.0,,,,0.0142142722724678,-1.99697306280597,0.0844056806630124,,9.588156954650536,,
,9342.0,2643.0,10362.0,2380.0,2044.0,3411.0,356.0,,,,0.014126749975784,-1.99676463375074,0.0844029249899874,,9.791886918886082,,
2025-07-03 19:54:34,9344.0,2642.0,10361.0,2376.0,2038.0,3407.0,359.0,,,2025/07/03 07:54:34 PM,0.0139946091878205,-1.99627223974395,0.0844903010770859,,9.996221868312624,,
,9348.0,2644.0,10365.0,2377.0,2037.0,3382.0,331.0,,,,0.0142286573742968,-1.99587271251612,0.084549408799911,,10.196499844173513,,
,9350.0,2644.0,10363.0,2379.0,2023.0,3382.0,339.0,,,,0.0143606853073762,-1.99528850465144,0.0845157153399007,,10.386327446012354,,
,9358.0,2646.0,10363.0,2381.0,2025.0,3383.0,327.0,,,,0.0144848597152066,-1.99495136984249,0.084559142655968,,10.557708025919768,,
,9358.0,2645.0,10363.0,2378.0,2021.0,3393.0,304.0,,,,0.0147126017983065,-1.99481802471082,0.0845192453637896,,10.701271580425162,,
,9362.0,2644.0,10364.0,2381.0,2043.0,3394.0,324.0,,,,0.0146949120294174,-1.9944295438773,0.084646860165742,,10.806609617890865,,
,9366.0,2648.0,10362.0,2383.0,2034.0,3382.0,330.0,,,,0.0146396486020946,-1.99422329046737,0.0846935628215118,,10.86271422840015,,
,9370.0,2646.0,10365.0,2382.0,2035.0,3413.0,335.0,,,,0.0148085200945508,-1.99400282665312,0.0846859733036633,,10.858513052356642,,
,9372.0,2652.0,10366.0,2382.0,2034.0,3406.0,317.0,,,,0.0147880738863578,-1.99354995497103,0.0847036728594511,,10.783481006036293,,
,9378.0,2650.0,10364.0,2383.0,2029.0,3427.0,334.0,,,,0.0147647881963609,-1.99326879016231,0.0847263039269784,,10.628297324138469,,
,9381.0,2651.0,10365.0,2382.0,2022.0,3443.0,369.0,,,,0.0149776835420428,-1.99294951120173,0.0847595009551977,,10.385505071660235,,
,9385.0,2652.0,10364.0,2385.0,2044.0,3437.0,333.0,,,,0.0151044213616182,-1.99203403004739,0.0848337370167998,,10.050121674699602,,
,9390.0,2654.0,10365.0,2386.0,2059.0,3441.0,336.0,,,,0.0152551770773531,-1.99131578331081,0.0848906628734548,,9.620144720867206,,
,9394.0,2654.0,10365.0,2386.0,2062.0,3433.0,338.0,,,,0.0153441840084473,-1.9904126400417,0.0849110497810162,,9.096898574401372,,
,9394.0,2652.0,10362.0,2384.0,2050.0,3425.0,359.0,,,,0.0154602690629165,-1.98927772503614,0.0849398913959727,,8.48517513753362,,
,9397.0,2655.0,10363.0,2385.0,2035.0,3427.0,349.0,,,,0.015525562866234,-1.98885869651865,0.0849765378959113,,7.793136678756578,,
,9393.0,2654.0,10362.0,2385.0,2038.0,3424.0,337.0,,,,0.01572060783834,-1.98790903240691,0.0850216231075334,,7.031969784929655,,
,9392.0,2654.0,10363.0,2385.0,2031.0,3411.0,319.0,,,,0.015881286305324,-1.98702638906734,0.0850622808316971,,6.215306077877318,,
,9385.0,2650.0,10360.0,2380.0,2025.0,3398.0,336.0,,,,0.0160352064611183,-1.98634600644611,0.0850928887721916,,5.358454534227455,,
,9378.0,2647.0,10360.0,2380.0,2026.0,3388.0,303.0,,,,0.0161182116809726,-1.985753169224,0.0851293257506206,,4.477516820691886,,
,9367.0,2645.0,10357.0,2378.0,2017.0,3371.0,298.0,,,,0.0160412575895528,-1.98481251129301,0.085145351578473,,3.588474331981707,,
,9364.0,2642.0,10358.0,2373.0,2023.0,3373.0,296.0,,,,0.0162881665394711,-1.98452388673867,0.085196450361967,,2.706338406499838,,
,9354.0,2635.0,10357.0,2373.0,2011.0,3390.0,315.0,,,,0.0162698514600702,-1.98484785453501,0.0851953619785016,,1.8444427343072265,,
,9342.0,2630.0,10358.0,2368.0,1996.0,3405.0,305.0,,,,0.0163419755724527,-1.98401470986624,0.0851983048815968,,1.01393331504734,,
,9333.0,2629.0,10356.0,2366.0,2015.0,3399.0,292.0,,,,0.0164091199277638,-1.98385121903734,0.0852245531875646,,0.22348283136147512,,
,9326.0,2622.0,10357.0,2365.0,2032.0,3407.0,316.0,,,,0.0163813937786825,-1.98314161366822,0.0852948884849394,,-0.5207714891743894,,
,9319.0,2618.0,10356.0,2362.0,2039.0,3406.0,305.0,,,,0.0165989741410091,-1.98267163076616,0.0852475266960585,,-1.215091237879762,,
,9309.0,2619.0,10355.0,2358.0,2047.0,3401.0,318.0,,,,0.0166863477905324,-1.98254154516693,0.0852979524033758,,-1.8578442654056604,,
,9302.0,2617.0,10353.0,2356.0,2042.0,3390.0,294.0,,,,0.016689396817595,-1.9828404315296,0.0852402023264361,,-2.449110520957411,,
,9300.0,2611.0,10356.0,2357.0,2044.0,3389.0,338.0,,,,0.0167060636809425,-1.9828799533943,0.0852768674845961,,-2.9902447312226577,,
,9295.0,2612.0,10357.0,2358.0,2051.0,3383.0,350.0,,,,0.0166978525465705,-1.98255599700854,0.0853377943257141,,-3.4834510232172025,,
,9288.0,2611.0,10355.0,2353.0,2030.0,3410.0,308.0,,,,0.0166974663471388,-1.98231189960338,0.0853530331558233,,-3.931414501462859,,
,9286.0,2607.0,10356.0,2353.0,2034.0,3399.0,301.0,,,,0.016803728997871,-1.98201155947756,0.0853643703038489,,-4.337019490028608,,
,9284.0,2609.0,10356.0,2353.0,2046.0,3415.0,289.0,,,,0.0167900785114563,-1.98170216926541,0.0853751587549432,,-4.703166082411154,,
,9284.0,2610.0,10358.0,2352.0,2034.0,3415.0,265.0,,,,0.0167595049830283,-1.98133710428164,0.0853850245041276,,-5.032679022939995,,
,9287.0,2611.0,10358.0,2356.0,2041.0,3426.0,283.0,,,,0.0168877002811572,-1.98090207261847,0.0853877716275741,,-5.328289117017007,,
,9283.0,2606.0,10358.0,2352.0,2043.0,3422.0,296.0,,,,0.0169695562028748,-1.98041735703919,0.0854787750151367,,-5.592659632740496,,
,9284.0,2609.0,10360.0,2354.0,2039.0,3401.0,324.0,,,,0.0169294257317771,-1.9800975180218,0.0854644884543186,,-5.828428889750286,,
,9287.0,2610.0,10360.0,2355.0,2057.0,3413.0,321.0,,,,0.01692371335151,-1.98004049911711,0.0854690782670211,,-6.038244130010115,,
,9289.0,2614.0,10364.0,2352.0,2044.0,3406.0,321.0,,,,0.016975986808101,-1.97947823374628,0.0854934809953434,,-6.224768937041826,,
,9288.0,2612.0,10359.0,2354.0,2041.0,3384.0,322.0,,,,0.0170904945644839,-1.97890516933216,0.0855001709101842,,-6.390655313067489,,
,9291.0,2613.0,10360.0,2352.0,2045.0,3399.0,363.0,,,,0.0170687694713096,-1.9791363402262,0.0855456795257136,,-6.538480845502439,,
,9296.0,2614.0,10362.0,2355.0,2026.0,3383.0,330.0,,,,0.0171069933162191,-1.97899221387937,0.085574571517807,,-6.670660106349079,,
,9296.0,2617.0,10361.0,2353.0,2027.0,3402.0,332.0,,,,0.0171021659453065,-1.97834286915031,0.0855588623408232,,-6.789346334386998,,
,9302.0,2618.0,10363.0,2354.0,2039.0,3411.0,331.0,,,,0.0172244077816161,-1.97783454477672,0.0855808519030486,,-6.896343317802026,,
,9303.0,2615.0,10362.0,2356.0,2041.0,3415.0,352.0,,,,0.017257936070417,-1.97765977132946,0.0855635794720601,,-6.993047247373352,,
,9309.0,2621.0,10364.0,2357.0,2041.0,3401.0,337.0,,,,0.0172687082496342,-1.97721080134563,0.0856105456174068,,-7.080433793144184,,
,9310.0,2623.0,10363.0,2356.0,2038.0,3417.0,337.0,,,,0.0174312528853455,-1.97685150556561,0.0856559928545033,,-7.1590973114548095,,
,9313.0,2624.0,10364.0,2357.0,2030.0,3430.0,355.0,,,,0.0174122103124038,-1.97618598308846,0.0856442096754282,,-7.229338495676871,,
,9313.0,2623.0,10365.0,2357.0,2036.0,3412.0,315.0,,,,0.0175330126647555,-1.97581004434288,0.0856919849436218,,-7.29128650420136,,
,9321.0,2624.0,10365.0,2359.0,2021.0,3419.0,315.0,,,,0.0174485786367067,-1.97543418012235,0.0856843793093669,,-7.34503451602499,,
,9321.0,2626.0,10365.0,2360.0,2027.0,3411.0,333.0,,,,0.0175448360762199,-1.97527837538139,0.0857106739613351,,-7.390765678784692,,
,9323.0,2624.0,10366.0,2359.0,2045.0,3402.0,325.0,,,,0.01757982194843,-1.97479054529108,0.0857646995731219,,-7.42884948259726,,
,9325.0,2626.0,10364.0,2357.0,2035.0,3396.0,331.0,,,,0.0175811417331909,-1.97439026504253,0.0857753947340388,,-7.459895053057856,,
,9329.0,2625.0,10364.0,2358.0,2037.0,3388.0,344.0,,,,0.0175998336513849,-1.97398975254974,0.0857895146837051,,-7.484755616054255,,
,9332.0,2629.0,10366.0,2360.0,2051.0,3409.0,335.0,,,,0.0176969789655689,-1.97409139242047,0.0857806012576582,,-7.504485839955968,,
,9330.0,2628.0,10364.0,2359.0,2061.0,3385.0,335.0,,,,0.0176360832413351,-1.97385860938116,0.0858032589016062,,-7.5202599743429355,,
,9333.0,2628.0,10364.0,2357.0,2060.0,3362.0,306.0,,,,0.0177250843799686,-1.97324333265557,0.0858382844590226,,-7.533263214303856,,
,9334.0,2625.0,10362.0,2359.0,2055.0,3368.0,322.0,,,,0.0177144451284265,-1.97276629366785,0.0858438500518648,,-7.544571325360671,,
,9335.0,2627.0,10363.0,2357.0,2050.0,3395.0,330.0,,,,0.0177922817769366,-1.97275628692959,0.0858747831400422,,-7.55503418046186,,
,9335.0,2626.0,10362.0,2357.0,2046.0,3400.0,320.0,,,,0.0177476863122013,-1.97271029964174,0.0859012100241734,,-7.565177373712411,,
,9338.0,2628.0,10363.0,2359.0,2049.0,3398.0,311.0,,,,0.0177775125691569,-1.97223636093141,0.0858964922852456,,-7.575132340631913,,
,9339.0,2627.0,10365.0,2358.0,2048.0,3386.0,313.0,,,,0.0177970461067563,-1.97158052867793,0.0859094260896842,,-7.584599578163313,,
,9339.0,2626.0,10364.0,2356.0,2038.0,3410.0,313.0,,,,0.0177984317761652,-1.97158003624025,0.0859238074510353,,-7.592842594674961,,
,9340.0,2626.0,10364.0,2360.0,2043.0,3399.0,336.0,,,,0.0178252666203641,-1.97129976908961,0.0859323815521139,,-7.598704099634359,,
,9347.0,2628.0,10364.0,2361.0,2055.0,3402.0,338.0,,,,0.0178303468072398,-1.97074824399206,0.0859384489713912,,-7.600632876670383,,
,9343.0,2627.0,10364.0,2361.0,2042.0,3413.0,333.0,,,,0.0178295584714234,-1.97055136906208,0.08600154740205,,-7.596710927213843,,
,9346.0,2627.0,10364.0,2357.0,2043.0,3422.0,311.0,,,,0.017888595571406,-1.97022083339618,0.0859824929781286,,-7.584675186759597,,
,9350.0,2630.0,10363.0,2359.0,2051.0,3427.0,333.0,,,,0.017939215798111,-1.97029518804388,0.0860169067421987,,-7.561934429421399,,
,9352.0,2629.0,10367.0,2359.0,2042.0,3419.0,300.0,,,,0.017953725689522,-1.96976413643556,0.086004349397714,,-7.525587700653048,,
,9355.0,2632.0,10366.0,2359.0,2050.0,3412.0,294.0,,,,0.0179650768865195,-1.96953520088125,0.0859994665526469,,-7.472454172918444,,
,9357.0,2630.0,10366.0,2359.0,2056.0,3406.0,306.0,,,,0.0179887058209116,-1.96956333361283,0.0860468467049696,,-7.3991249554518275,,
,9361.0,2632.0,10365.0,2360.0,2043.0,3399.0,316.0,,,,0.0179203251827492,-1.96971784765271,0.086067009106021,,-7.302045150269368,,
,9367.0,2633.0,10367.0,2362.0,2033.0,3394.0,293.0,,,,0.0178952165112933,-1.96978819734584,0.08606649115771,,-7.1776300577676295,,
,9370.0,2633.0,10366.0,2362.0,2042.0,3403.0,298.0,,,,0.0179694109615765,-1.97026905707803,0.0860512439391014,,-7.022413954263779,,
,9372.0,2632.0,10365.0,2363.0,2050.0,3416.0,332.0,,,,0.0178490141993513,-1.96979808722428,0.086106624603581,,-6.833224151728913,,
,9376.0,2635.0,10366.0,2361.0,2061.0,3441.0,362.0,,,,0.0178068374997063,-1.97001200727454,0.0860393326148524,,-6.607367561858802,,
,9379.0,2636.0,10368.0,2362.0,2048.0,3442.0,316.0,,,,0.0178374207034088,-1.97052542386023,0.0861078203461638,,-6.342812189551923,,
,9383.0,2637.0,10367.0,2366.0,2028.0,3429.0,301.0,,,,0.0177845667513494,-1.97070817154295,0.08607704180942,,-6.0383429569345415,,
,9388.0,2639.0,10367.0,2364.0,2035.0,3416.0,294.0,,,,0.0177838836549116,-1.97057740675526,0.0860878461853285,,-5.693671626153691,,
,9389.0,2637.0,10366.0,2365.0,2029.0,3424.0,318.0,,,,0.0177127060738781,-1.97094748398729,0.0860926977505981,,-5.309485431816103,,
,9395.0,2640.0,10370.0,2365.0,2030.0,3408.0,314.0,,,,0.0177478992385504,-1.9715286669352,0.0861081636394006,,-4.887427736305865,,
,9401.0,2642.0,10368.0,2368.0,2034.0,3417.0,315.0,,,,0.0176557809689861,-1.97171439357121,0.0860727205560663,,-4.430014285909367,,
,9405.0,2641.0,10371.0,2367.0,2048.0,3411.0,320.0,,,,0.0175127933431865,-1.97194710869122,0.0861324538598937,,-3.940497763023865,,
,9408.0,2642.0,10368.0,2367.0,2053.0,3396.0,301.0,,,,0.0174253049707363,-1.97220188429342,0.0861079462979422,,-3.4226994600215828,,
,9413.0,2643.0,10367.0,2367.0,2054.0,3389.0,312.0,,,,0.0174126369809069,-1.97220295856179,0.0860662053567533,,-2.8808294516940256,,
,9414.0,2645.0,10371.0,2369.0,2067.0,3397.0,296.0,,,,0.0173911636635803,-1.97287575410884,0.0860390773045871,,-2.3193159300588575,,
,9416.0,2647.0,10370.0,2370.0,2058.0,3399.0,289.0,,,,0.0174847636909972,-1.97255899900784,0.086058076533042,,-1.7426610868932617,,
,9423.0,2646.0,10369.0,2369.0,2073.0,3407.0,302.0,,,,0.0174005968376156,-1.97293251313415,0.0860668128781281,,-1.15533574882882,,
,9426.0,2646.0,10368.0,2372.0,2082.0,3394.0,289.0,,,,0.0174247508170748,-1.97294843444107,0.0860439977498708,,-0.561718311851253,,
,9431.0,2649.0,10368.0,2371.0,2058.0,3400.0,311.0,,,,0.0172972720944919,-1.97340962526249,0.0860308323396526,,0.033924297003830935,,
,9436.0,2648.0,10368.0,2373.0,2064.0,3391.0,329.0,,,,0.0173172435490788,-1.97363304733182,0.0860158858823305,,0.6274241862303668,,
,9440.0,2650.0,10370.0,2373.0,2067.0,3412.0,329.0,,,,0.0173195803720725,-1.9738326149596,0.0859967177024075,,1.2146863287861525,,
,9442.0,2651.0,10368.0,2373.0,2061.0,3433.0,329.0,,,,0.0173000842917104,-1.97341384056735,0.0860354135973997,,1.7916702340037793,,
,9443.0,2648.0,10369.0,2374.0,2067.0,3431.0,323.0,,,,0.0172812106292854,-1.97344044932191,0.0860407055930878,,2.3543998193869644,,
,9448.0,2653.0,10371.0,2376.0,2047.0,3425.0,332.0,,,,0.0173817497950162,-1.97316162156606,0.0860531474637911,,2.8990154889615365,,
,9451.0,2652.0,10373.0,2376.0,2048.0,3423.0,336.0,,,,0.0173491612242653,-1.97307533564757,0.0860316040147176,,3.4218726477621955,,
,9453.0,2655.0,10369.0,2376.0,2049.0,3428.0,347.0,,,,0.0174256846488963,-1.97258513833498,0.0860739188996311,,3.919680082278591,,
,9454.0,2653.0,10368.0,2374.0,2052.0,3408.0,326.0,,,,0.0175345072776629,-1.97222229754906,0.0861219018009002,,4.389661878728203,,
,9454.0,2654.0,10367.0,2375.0,2027.0,3412.0,322.0,,,,0.0176009051961771,-1.97189720372648,0.0860955495962079,,4.829719348089399,,
,9452.0,2653.0,10368.0,2374.0,2041.0,3404.0,347.0,,,,0.0175522142116336,-1.97153795990342,0.0861433317112748,,5.23856604956163,,
,9445.0,2652.0,10366.0,2373.0,2035.0,3392.0,337.0,,,,0.0176124895028374,-1.97102266814894,0.0861669968228541,,5.6158105531571465,,
,9439.0,2647.0,10365.0,2368.0,2031.0,3360.0,317.0,,,,0.0176875486986235,-1.97094687958292,0.086144951492568,,5.961968568916567,,
,9432.0,2645.0,10364.0,2368.0,2041.0,3377.0,298.0,,,,0.0176823147279804,-1.97044631346247,0.0861418147005398,,6.278397806750471,,
,9423.0,2641.0,10362.0,2364.0,2030.0,3351.0,301.0,,,,0.0177345260916249,-1.97032827992126,0.0861877136877695,,6.567163138446263,,
,9414.0,2637.0,10362.0,2363.0,2033.0,3361.0,295.0,,,,0.0177134289488168,-1.96981330073236,0.0861805683884931,,6.830852671505235,,
,9401.0,2631.0,10362.0,2360.0,2033.0,3385.0,289.0,,,,0.017725279309304,-1.96991666740458,0.0861688524778102,,7.072373426436373,,
,9394.0,2629.0,10359.0,2357.0,2037.0,3379.0,316.0,,,,0.0177751003094828,-1.96983859630133,0.0861859262316151,,7.294756300673446,,
,9385.0,2626.0,10360.0,2355.0,2029.0,3384.0,302.0,,,,0.0177828631541345,-1.96950755285321,0.0861849293148776,,7.500994344314171,,
,9375.0,2621.0,10358.0,2352.0,2043.0,3396.0,334.0,,,,0.017820016285073,-1.9695244560135,0.0861935285268004,,7.693928305098752,,
,9368.0,2618.0,10360.0,2352.0,2053.0,3390.0,343.0,,,,0.0177634226503033,-1.97015054701684,0.0861621648709763,,7.876181580156864,,
,9356.0,2613.0,10358.0,2349.0,2042.0,3397.0,316.0,,,,0.0177334704933582,-1.96994896060694,0.0861981540417949,,8.050135595204514,,
,9350.0,2613.0,10359.0,2348.0,2053.0,3406.0,288.0,,,,0.0176989345067987,-1.96995039024438,0.0861706170557684,,8.217928398395799,,
,9351.0,2612.0,10357.0,2347.0,2051.0,3395.0,278.0,,,,0.0176701292461709,-1.97050181160025,0.0861995329945083,,8.381455471825607,,
,9342.0,2610.0,10359.0,2346.0,2056.0,3389.0,289.0,,,,0.0176458593587562,-1.9708659213424,0.0861467116126139,,8.542352971558877,,
,9340.0,2608.0,10357.0,2343.0,2070.0,3392.0,285.0,,,,0.0176761485842989,-1.9712898381499,0.086118621073342,,8.701949377729138,,
,9337.0,2608.0,10359.0,2339.0,2054.0,3427.0,311.0,,,,0.0175521923956483,-1.97149707303683,0.0861549506221069,,8.861180641024104,,
,9333.0,2608.0,10364.0,2342.0,2068.0,3384.0,302.0,,,,0.0175223998708184,-1.97234320463887,0.086137143681246,,9.020474208812265,,
,9335.0,2608.0,10361.0,2345.0,2069.0,3385.0,299.0,,,,0.0175002420311511,-1.97206630484015,0.0861191225254578,,9.179615884896155,,
,9335.0,2608.0,10360.0,2343.0,2042.0,3426.0,315.0,,,,0.017380436854914,-1.97166288049703,0.0860713048305018,,9.3376177551094,,
,9333.0,2606.0,10359.0,2340.0,2082.0,3415.0,302.0,,,,0.0173104425388474,-1.97233079693574,0.0861413788403551,,9.492604837603166,,
,9336.0,2612.0,10360.0,2342.0,2085.0,3385.0,312.0,,,,0.017252734003058,-1.97246356828739,0.0861227246166227,,9.641734596551135,,
,9336.0,2610.0,10364.0,2343.0,2046.0,3376.0,338.0,,,,0.0173798125895178,-1.97320344871256,0.0860805554334098,,9.781159730288229,,
,9339.0,2613.0,10364.0,2343.0,2038.0,3369.0,334.0,,,,0.0172902834165473,-1.97279287370195,0.0861119171314866,,9.90604211764321,,
,9339.0,2611.0,10362.0,2343.0,2067.0,3362.0,307.0,,,,0.0171234292812724,-1.97308702022304,0.0860863866161539,,10.010624022495925,,
,9342.0,2612.0,10363.0,2343.0,2048.0,3375.0,321.0,,,,0.0171588540958027,-1.97350287046559,0.0860830532998799,,10.088360493972797,,
,9347.0,2616.0,10363.0,2347.0,2044.0,3373.0,315.0,,,,0.0171458693399469,-1.97364388921968,0.0860779425345257,,10.132113847706462,,
,9350.0,2612.0,10365.0,2345.0,2049.0,3379.0,303.0,,,,0.0170641563924507,-1.97317612684157,0.0860617819534016,,10.134407460710866,,
2025-07-03 19:54:35,9351.0,2617.0,10366.0,2345.0,2045.0,3377.0,312.0,,,2025/07/03 07:54:35 PM,0.0171195825713189,-1.9733140086811,0.0860862180226829,,10.087732368084065,,
,9353.0,2617.0,10365.0,2344.0,2038.0,3387.0,311.0,,,,0.0171381157970105,-1.97367811527118,0.0860210989287137,,9.984896546036806,,
,9360.0,2618.0,10368.0,2347.0,2053.0,3400.0,322.0,,,,0.0171765886710041,-1.97376629337361,0.0860725281145565,,9.8194031030816,,
,9361.0,2621.0,10367.0,2348.0,2063.0,3412.0,339.0,,,,0.0169590539547656,-1.97399626513549,0.0860696258973649,,9.585839369097666,,
,9364.0,2622.0,10365.0,2348.0,2052.0,3409.0,347.0,,,,0.0169900489840563,-1.97430315889349,0.0860409611844492,,9.280253806223389,,
,9365.0,2622.0,10366.0,2348.0,2044.0,3401.0,343.0,,,,0.0170489260421552,-1.97428306198093,0.0860375370208146,,8.900492620241124,,
,9368.0,2622.0,10366.0,2347.0,2053.0,3402.0,335.0,,,,0.0168600295240806,-1.97387773768983,0.0860252220794412,,8.446465111647722,,
,9369.0,2624.0,10367.0,2349.0,2038.0,3401.0,315.0,,,,0.016999734079043,-1.97413885325562,0.0860280221964116,,7.920308461851035,,
,9373.0,2625.0,10367.0,2349.0,2044.0,3401.0,310.0,,,,0.0170313759938664,-1.97378975006254,0.0860596541999445,,7.326429442275465,,
,9374.0,2626.0,10365.0,2349.0,2067.0,3400.0,289.0,,,,0.0170581354240888,-1.97364317436952,0.0860437152184702,,6.671411037523706,,
,9374.0,2627.0,10363.0,2346.0,2066.0,3383.0,311.0,,,,0.0170718477868443,-1.97371044331575,0.0860832525355631,,5.963783988193396,,
,9381.0,2627.0,10369.0,2346.0,2056.0,3371.0,319.0,,,,0.0172177290908776,-1.97323307716409,0.0860695859047269,,5.213675160706989,,
,9380.0,2628.0,10366.0,2348.0,2061.0,3388.0,314.0,,,,0.0172705448925996,-1.97276395537512,0.0860394869847647,,4.432355496037571,,
,9382.0,2626.0,10367.0,2351.0,2063.0,3377.0,305.0,,,,0.0172577106046007,-1.97265857113565,0.0860828998868002,,3.631719283678996,,
,9380.0,2626.0,10367.0,2346.0,2065.0,3375.0,303.0,,,,0.0172541189747376,-1.97293431503314,0.0860228563570128,,2.8237329450084436,,
,9383.0,2625.0,10368.0,2350.0,2062.0,3366.0,291.0,,,,0.0171263319103434,-1.97274158827511,0.0860740757877736,,2.019894983499794,,
,9382.0,2625.0,10365.0,2347.0,2063.0,3409.0,316.0,,,,0.0170248878695928,-1.97322180727819,0.0860420626144263,,1.2307489122963924,,
,9381.0,2627.0,10368.0,2351.0,2060.0,3418.0,309.0,,,,0.0170622578733361,-1.97315340006606,0.0860367969014374,,0.4654870725266146,,
,9383.0,2625.0,10368.0,2347.0,2040.0,3378.0,308.0,,,,0.0170318604355685,-1.97314738390779,0.0860875650741325,,-0.26832544166702643,,
,9383.0,2626.0,10367.0,2348.0,2064.0,3381.0,283.0,,,,0.0170545039677013,-1.97316661027683,0.0860083074996678,,-0.9648906855864258,,
,9387.0,2627.0,10367.0,2349.0,2074.0,3393.0,313.0,,,,0.0170000365347593,-1.97248895855479,0.0860026439492938,,-1.6201810625756543,,
,9389.0,2628.0,10366.0,2349.0,2046.0,3407.0,309.0,,,,0.0171065096582864,-1.97261182597409,0.0860380688223145,,-2.2318201590868614,,
,9386.0,2630.0,10367.0,2349.0,2043.0,3411.0,321.0,,,,0.0169196662129329,-1.97285287206011,0.0860412382266474,,-2.798867195262689,,
,9390.0,2627.0,10366.0,2346.0,2041.0,3393.0,317.0,,,,0.0170208393490475,-1.97260996222196,0.0860428068247538,,-3.3215382462511465,,
,9395.0,2625.0,10368.0,2346.0,2042.0,3419.0,307.0,,,,0.0170301399146171,-1.97246020015046,0.0860739335220861,,-3.8009000321778963,,
,9395.0,2629.0,10370.0,2350.0,2043.0,3408.0,323.0,,,,0.0168025565896373,-1.97241302390201,0.0860822640150827,,-4.238570660217893,,
,9399.0,2629.0,10368.0,2349.0,2068.0,3406.0,319.0,,,,0.0167391294847243,-1.97255362642962,0.0861263010453603,,-4.636456891323245,,
,9399.0,2629.0,10366.0,2348.0,2078.0,3380.0,314.0,,,,0.016938199587153,-1.97263812525234,0.0861142360184408,,-4.99655005707788,,
,9402.0,2629.0,10368.0,2351.0,2057.0,3374.0,335.0,,,,0.0167488224833763,-1.97343883811781,0.086086193246469,,-5.320793450175223,,
,9407.0,2633.0,10366.0,2351.0,2061.0,3395.0,326.0,,,,0.0167296851146008,-1.97338696844769,0.0861117386765295,,-5.6110236015672115,,
,9411.0,2632.0,10367.0,2351.0,2071.0,3387.0,317.0,,,,0.0166982532580759,-1.97379365464649,0.0860473996563624,,-5.868977236955652,,
,9409.0,2633.0,10368.0,2351.0,2053.0,3377.0,339.0,,,,0.0166601447154903,-1.97416230433873,0.0860634056666265,,-6.096346304010068,,
,9414.0,2634.0,10367.0,2352.0,2046.0,3394.0,306.0,,,,0.0164908254041519,-1.97450080227662,0.0860424151657181,,-6.294857282422593,,
,9421.0,2636.0,10370.0,2354.0,2032.0,3429.0,328.0,,,,0.0164296649027516,-1.97487976154098,0.0861177117283087,,-6.466349794322251,,
,9425.0,2637.0,10371.0,2355.0,2057.0,3416.0,326.0,,,,0.0163190346961805,-1.97508198238445,0.0860857064727518,,-6.612833606841748,,
,9428.0,2638.0,10373.0,2355.0,2045.0,3407.0,329.0,,,,0.0162642710353513,-1.97519273797367,0.0861006041678596,,-6.736510891782786,,
,9429.0,2638.0,10368.0,2354.0,2039.0,3399.0,330.0,,,,0.0161986523375889,-1.97502553145837,0.0861152165054574,,-6.8397595951669,,
,9432.0,2638.0,10371.0,2354.0,2055.0,3408.0,329.0,,,,0.0162243701458086,-1.97554992789209,0.0861393448839009,,-6.92508179720425,,
,9439.0,2643.0,10372.0,2357.0,2050.0,3407.0,320.0,,,,0.0160860505100334,-1.97530223363546,0.0860819486379229,,-6.99502669526829,,
,9440.0,2640.0,10370.0,2359.0,2050.0,3400.0,318.0,,,,0.0160720450032686,-1.97555060278514,0.0860899764341837,,-7.05210085062284,,
,9445.0,2640.0,10370.0,2356.0,2059.0,3378.0,293.0,,,,0.0160094874995179,-1.97564260272728,0.0861145815525587,,-7.098678803558999,,
,9445.0,2641.0,10371.0,2360.0,2059.0,3365.0,291.0,,,,0.0160191264957039,-1.97566696066763,0.0860738420995593,,-7.136925652840362,,
,9450.0,2644.0,10372.0,2359.0,2062.0,3383.0,283.0,,,,0.0159241649004844,-1.97592982449854,0.08607805682006,,-7.168740264584105,,
,9452.0,2644.0,10373.0,2359.0,2052.0,3388.0,306.0,,,,0.0159027011159352,-1.9761204487173,0.0860980788648418,,-7.195723699047686,,
,9458.0,2643.0,10374.0,2363.0,2056.0,3390.0,291.0,,,,0.0158875121338679,-1.97651085522768,0.0860379781240361,,-7.219172350842132,,
,9460.0,2643.0,10370.0,2360.0,2073.0,3389.0,293.0,,,,0.0158570077702212,-1.97684927805184,0.086048341991906,,-7.240089674231756,,
,9464.0,2647.0,10373.0,2365.0,2063.0,3382.0,314.0,,,,0.0158057366067009,-1.97705131195596,0.0860733270175101,,-7.259205524871215,,
,9468.0,2646.0,10376.0,2363.0,2039.0,3402.0,311.0,,,,0.0157504026507164,-1.9769556798688,0.0860719589017551,,-7.276989974277341,,
,9472.0,2649.0,10373.0,2363.0,2053.0,3424.0,317.0,,,,0.0157278584518585,-1.97702946122294,0.0860067403157104,,-7.293650219419827,,
,9473.0,2646.0,10369.0,2364.0,2051.0,3406.0,328.0,,,,0.0158389351432324,-1.97638710379866,0.0860120944954621,,-7.309104546055332,,
,9477.0,2650.0,10374.0,2365.0,2074.0,3416.0,334.0,,,,0.0153363339302301,-1.97841218340759,0.0859472908211456,,-7.322934417477691,,
,9482.0,2651.0,10373.0,2367.0,2061.0,3441.0,341.0,,,,0.0152974505166185,-1.97855952494688,0.0859643508023414,,-7.334322597799257,,
,9485.0,2651.0,10372.0,2365.0,2074.0,3417.0,333.0,,,,0.0157176015354291,-1.97722654878677,0.0860291389293155,,-7.341990364207288,,
,9486.0,2652.0,10372.0,2368.0,2060.0,3414.0,327.0,,,,0.0157141112353655,-1.97612770675051,0.0860714015491715,,-7.344149653399536,,
,9487.0,2651.0,10372.0,2364.0,2054.0,3403.0,334.0,,,,0.0156405624390922,-1.97637303143967,0.0860452206358838,,-7.3384862431446,,
,9487.0,2652.0,10372.0,2364.0,2031.0,3404.0,327.0,,,,0.0158167879439368,-1.97651043054001,0.0860572669026516,,-7.322187864659565,,
,9485.0,2653.0,10370.0,2364.0,2046.0,3386.0,313.0,,,,0.0157163694719353,-1.97577221034894,0.086056700138195,,-7.292026676501483,,
,9479.0,2649.0,10369.0,2364.0,2054.0,3413.0,296.0,,,,0.0157970166401781,-1.97616879534137,0.0860881915918634,,-7.244499027191834,,
,9471.0,2647.0,10366.0,2363.0,2063.0,3396.0,300.0,,,,0.0156135607255642,-1.97621029505441,0.0860844034008176,,-7.17601713573458,,
,9464.0,2643.0,10367.0,2358.0,2041.0,3380.0,302.0,,,,0.0155848530144776,-1.97594121031085,0.0860768258256307,,-7.0831378230170365,,
,9452.0,2642.0,10367.0,2357.0,2023.0,3367.0,299.0,,,,0.0158939901755278,-1.97572594854618,0.0860790730576551,,-6.962804258850745,,
,9445.0,2636.0,10367.0,2357.0,2030.0,3366.0,314.0,,,,0.0158735812088188,-1.97541265526224,0.086053230729032,,-6.812570420761309,,
,9428.0,2633.0,10366.0,2354.0,2028.0,3368.0,314.0,,,,0.0158378106461106,-1.97540051765882,0.0861241540871265,,-6.630777202162749,,
,9420.0,2627.0,10361.0,2346.0,2024.0,3368.0,318.0,,,,0.0157966732519911,-1.97549441990338,0.0861147696746506,,-6.416654932005378,,
,9409.0,2623.0,10361.0,2344.0,2033.0,3381.0,301.0,,,,0.0159458939392354,-1.97485672568545,0.0861153901326785,,-6.1703382866819725,,
,9399.0,2618.0,10365.0,2343.0,2049.0,3390.0,320.0,,,,0.0160939064050569,-1.97478665584471,0.0861389024252444,,-5.892793443942795,,
,9387.0,2616.0,10363.0,2340.0,2045.0,3382.0,309.0,,,,0.0160133045894475,-1.97492900046217,0.0861313915182496,,-5.585670844006694,,
,9378.0,2609.0,10362.0,2334.0,2073.0,3409.0,308.0,,,,0.0161068330748957,-1.97451378141408,0.0861363600080136,,-5.2511076762464155,,
,9370.0,2605.0,10362.0,2332.0,2073.0,3395.0,308.0,,,,0.0161950323809366,-1.97418594059776,0.0861748107993616,,-4.891510628289753,,
,9363.0,2604.0,10361.0,2333.0,2063.0,3397.0,307.0,,,,0.0161984042398343,-1.97402763591508,0.0861497017379126,,-4.509350780801503,,
,9357.0,2605.0,10361.0,2332.0,2079.0,3408.0,305.0,,,,0.0162763573760377,-1.9740433354914,0.0861676055564948,,-4.106998871524005,,
,9353.0,2603.0,10364.0,2330.0,2093.0,3411.0,325.0,,,,0.016287171824773,-1.97425073444993,0.0861895180235441,,-3.6866212433827794,,
,9347.0,2600.0,10359.0,2328.0,2090.0,3409.0,317.0,,,,0.0162554100040943,-1.97403012842873,0.0861660466290572,,-3.2501458609795097,,
,9345.0,2599.0,10363.0,2327.0,2089.0,3429.0,302.0,,,,0.0163119058454077,-1.9744142545257,0.0861658528489365,,-2.799295379838969,,
,9342.0,2600.0,10364.0,2326.0,2072.0,3407.0,296.0,,,,0.0163527786066533,-1.97422091943944,0.0861934484550228,,-2.3356723793592553,,
,9340.0,2599.0,10362.0,2325.0,2061.0,3396.0,312.0,,,,0.0162291173225831,-1.97448398716488,0.0862053971281763,,-1.8608730013467456,,
,9341.0,2602.0,10364.0,2325.0,2062.0,3423.0,320.0,,,,0.0161779544569676,-1.97478182520747,0.0861649480669233,,-1.3766016170433104,,
,9343.0,2602.0,10362.0,2327.0,2053.0,3408.0,299.0,,,,0.0161796282763853,-1.97474112701654,0.0861870774585186,,-0.8847615390824749,,
,9341.0,2604.0,10365.0,2326.0,2048.0,3388.0,308.0,,,,0.0161018205740273,-1.97473230656924,0.0861489762780281,,-0.3875039433297976,,
,9342.0,2603.0,10367.0,2327.0,2046.0,3385.0,313.0,,,,0.0159528684742387,-1.97509203401653,0.0861779620902531,,0.11277337822562737,,
,9343.0,2605.0,10368.0,2326.0,2055.0,3396.0,312.0,,,,0.0160089940322189,-1.97537721974816,0.0861332499096617,,0.6134763336846236,,
,9341.0,2602.0,10365.0,2325.0,2037.0,3387.0,332.0,,,,0.0158841121563751,-1.97537594401012,0.0861579412685956,,1.1119047461703846,,
,9344.0,2604.0,10367.0,2327.0,2048.0,3381.0,327.0,,,,0.0159243931457217,-1.9753595886105,0.0861572061444675,,1.6053673894569314,,
,9346.0,2608.0,10366.0,2326.0,2055.0,3380.0,324.0,,,,0.0158125804574971,-1.97535854601422,0.0861379538333047,,2.091303537699929,,
,9347.0,2607.0,10369.0,2326.0,2051.0,3396.0,322.0,,,,0.0157784424434607,-1.97552742211963,0.0861448041963809,,2.567392618771186,,
,9350.0,2605.0,10366.0,2326.0,2048.0,3399.0,321.0,,,,0.0158132364013507,-1.97588295169617,0.0861183311968792,,3.0316368264930866,,
,9353.0,2609.0,10368.0,2330.0,2053.0,3408.0,325.0,,,,0.0158870284155782,-1.97462357632227,0.0861536521531893,,3.482407959960574,,
,9357.0,2611.0,10369.0,2329.0,2063.0,3389.0,326.0,,,,0.0160622350909414,-1.9749831061491,0.086134026086706,,3.91845824576004,,
,9358.0,2610.0,10370.0,2330.0,2046.0,3393.0,333.0,,,,0.0159258621886881,-1.97532235347904,0.0861476760488352,,4.338903243441138,,
,9360.0,2612.0,10370.0,2331.0,2037.0,3365.0,324.0,,,,0.0160135508137436,-1.97437506132466,0.086163957641352,,4.743190264059543,,
,9361.0,2613.0,10372.0,2327.0,2039.0,3374.0,344.0,,,,0.0161275181339518,-1.97436366101388,0.0861615631726598,,5.13106602080555,,
,9365.0,2613.0,10370.0,2328.0,2053.0,3390.0,325.0,,,,0.0161572003190872,-1.9745003173822,0.0861986983983662,,5.50255257834134,,
,9366.0,2615.0,10370.0,2330.0,2056.0,3403.0,320.0,,,,0.0161926545198509,-1.97414144043051,0.0862063979616773,,5.857933042429074,,
,9367.0,2616.0,10371.0,2329.0,2043.0,3413.0,330.0,,,,0.0161153102549406,-1.9738820125975,0.0861997679363026,,6.197740361187814,,
,9369.0,2615.0,10369.0,2329.0,2057.0,3407.0,309.0,,,,0.0161856046487392,-1.97407259723374,0.0862046735611857,,6.522736227711784,,
,9368.0,2615.0,10371.0,2330.0,2034.0,3379.0,321.0,,,,0.0162250249712,-1.97367203542694,0.0862087046688239,,6.833863958000069,,
,9371.0,2617.0,10373.0,2332.0,2058.0,3389.0,322.0,,,,0.0161723773384045,-1.97320092085594,0.0861899989641954,,7.132160379568015,,
,9373.0,2615.0,10370.0,2329.0,2078.0,3400.0,311.0,,,,0.016080823251171,-1.97323034540788,0.0862465461202999,,7.41861736396548,,
,9367.0,2615.0,10371.0,2330.0,2056.0,3382.0,317.0,,,,0.0163706715089822,-1.97331696755362,0.0862345220889849,,7.693992733850293,,
,9369.0,2614.0,10369.0,2330.0,2057.0,3398.0,307.0,,,,0.0162248683902425,-1.97295215820234,0.0861991404556156,,7.958581035735818,,
,9370.0,2615.0,10371.0,2328.0,2056.0,3390.0,315.0,,,,0.0163191547228933,-1.97310076127649,0.0862245125281594,,8.211964814643276,,
,9372.0,2615.0,10372.0,2328.0,2061.0,3402.0,325.0,,,,0.016258724443913,-1.97311775143956,0.0861849242635121,,8.4527742562597,,
,9370.0,2614.0,10369.0,2329.0,2064.0,3400.0,317.0,,,,0.0164309641896276,-1.97309943944587,0.0862396451732315,,8.678485686213548,,
,9369.0,2615.0,10369.0,2330.0,2070.0,3397.0,315.0,,,,0.0163457272645306,-1.97306977235117,0.0862297038515349,,8.885287316199209,,
,9369.0,2615.0,10371.0,2330.0,2046.0,3371.0,321.0,,,,0.0165047299489549,-1.97266090663356,0.0862208984375649,,9.068035553696266,,
,9370.0,2616.0,10370.0,2330.0,2055.0,3385.0,316.0,,,,0.0165203861851055,-1.97239519750655,0.0862303238127741,,9.220319386026619,,
,9373.0,2616.0,10371.0,2330.0,2053.0,3385.0,317.0,,,,0.016622421114367,-1.97252155282175,0.0862488190583416,,9.33464444070093,,
,9374.0,2615.0,10370.0,2327.0,2057.0,3396.0,321.0,,,,0.0165525236805492,-1.97226308736713,0.086223513406478,,9.402740884008644,,
,9372.0,2616.0,10372.0,2330.0,2063.0,3393.0,307.0,,,,0.0166092529268216,-1.97215620259138,0.0862066602361202,,9.415988754661237,,
,9377.0,2618.0,10374.0,2333.0,2064.0,3391.0,306.0,,,,0.016596707655857,-1.97221584030589,0.0862337363069163,,9.365940946984619,,
,9377.0,2618.0,10376.0,2332.0,2070.0,3387.0,308.0,,,,0.0166827228701583,-1.97215639283545,0.086262091176015,,9.244910110073834,,
,9380.0,2619.0,10370.0,2330.0,2062.0,3388.0,313.0,,,,0.0162424561605536,-1.97206480358135,0.0862841055669528,,9.046573912322378,,
,9382.0,2618.0,10373.0,2333.0,2054.0,3415.0,360.0,,,,0.0163332991912149,-1.97230587950311,0.0862390043863416,,8.766545501345414,,
,9387.0,2620.0,10372.0,2332.0,2056.0,3391.0,316.0,,,,0.016289514607461,-1.97285547703622,0.0862678355009675,,8.402854004532038,,
,9388.0,2622.0,10375.0,2333.0,2070.0,3401.0,312.0,,,,0.0162862193079241,-1.9733167098571,0.0862297070603063,,7.956284499965123,,
,9388.0,2623.0,10375.0,2334.0,2068.0,3414.0,323.0,,,,0.0162815905248407,-1.97332149205154,0.0862322812916576,,7.4305381083520246,,
,9391.0,2621.0,10376.0,2333.0,2035.0,3411.0,312.0,,,,0.0162068905829639,-1.97397222895467,0.0862270884500625,,6.832189591832,,
,9392.0,2622.0,10375.0,2333.0,2033.0,3404.0,324.0,,,,0.0160718300733277,-1.97478444008985,0.0862240158922236,,6.170439949629461,,
,9398.0,2625.0,10374.0,2336.0,2049.0,3397.0,312.0,,,,0.0159013539174687,-1.97479350608338,0.0862235379496159,,5.456682188080688,,
,9401.0,2627.0,10375.0,2338.0,2042.0,3394.0,303.0,,,,0.015954631796676,-1.97507333604306,0.0862404295953594,,4.703916773135675,,
,9402.0,2627.0,10374.0,2337.0,2031.0,3397.0,312.0,,,,0.0158709808412246,-1.97529231510297,0.0862382678524397,,3.9260668428635044,,
,9403.0,2627.0,10374.0,2334.0,2051.0,3387.0,315.0,,,,0.015753166900685,-1.97524652927615,0.0862132314347764,,3.1372507361458624,,
,9407.0,2625.0,10375.0,2335.0,2041.0,3397.0,314.0,,,,0.0155269806583425,-1.97586792348681,0.0862202487606004,,2.351070511340675,,
,9410.0,2629.0,10377.0,2338.0,2052.0,3393.0,323.0,,,,0.0154816195914901,-1.97606621551574,0.0862164215286437,,1.5799703595912602,,
,9411.0,2629.0,10375.0,2337.0,2054.0,3391.0,321.0,,,,0.0152105557530897,-1.97728605386432,0.0861844540051488,,0.8347092448651785,,
,9412.0,2628.0,10374.0,2337.0,2059.0,3428.0,303.0,,,,0.0152171693196547,-1.97698935694291,0.0861559238030866,,0.12397944779901317,,
,9417.0,2631.0,10376.0,2340.0,2082.0,3413.0,321.0,,,,0.0150710148232649,-1.97758976944826,0.0861477876896318,,-0.5458109415738046,,
,9421.0,2633.0,10376.0,2340.0,2083.0,3409.0,335.0,,,,0.0152716785863865,-1.97809106864198,0.0861587607188723,,-1.170586441850943,,
2025-07-03 19:54:36,9422.0,2631.0,10375.0,2341.0,2072.0,3393.0,325.0,,,2025/07/03 07:54:36 PM,0.0152167067428221,-1.97792728613713,0.086083793168452,,-1.7484900784954667,,
,9425.0,2635.0,10378.0,2343.0,2049.0,3402.0,321.0,,,,0.0152399332840459,-1.97809128214792,0.0860881357742502,,-2.2796245035693845,,
,9426.0,2632.0,10375.0,2343.0,2059.0,3393.0,310.0,,,,0.0152326176348039,-1.97805306022835,0.0861087679789001,,-2.7656771808412692,,
,9428.0,2638.0,10375.0,2342.0,2079.0,3379.0,303.0,,,,0.0153167078834734,-1.97799349164297,0.0861131495064051,,-3.2094685705998036,,
,9434.0,2637.0,10379.0,2346.0,2043.0,3394.0,330.0,,,,0.0153082595532903,-1.97751137128873,0.086130223303325,,-3.6144692124699116,,
,9435.0,2637.0,10379.0,2345.0,2025.0,3392.0,315.0,,,,0.0152758141049765,-1.9767863336005,0.0861258157548659,,-3.984333514204935,,
,9437.0,2638.0,10376.0,2345.0,2044.0,3395.0,310.0,,,,0.0153347438704778,-1.97688576673635,0.0862105523476843,,-4.322494250106668,,
,9439.0,2638.0,10379.0,2349.0,2025.0,3380.0,329.0,,,,0.0154781023819307,-1.97635168021754,0.0861872332490617,,-4.631852967162534,,
,9445.0,2640.0,10376.0,2345.0,2061.0,3394.0,339.0,,,,0.015480829983733,-1.97617525962886,0.086142236036412,,-4.914589231980208,,
,9447.0,2641.0,10376.0,2346.0,2068.0,3395.0,337.0,,,,0.0153246766109012,-1.97600852143464,0.0861767818652537,,-5.172097699303854,,
,9450.0,2641.0,10377.0,2347.0,2067.0,3421.0,328.0,,,,0.0154485787218717,-1.97599818165553,0.086202628486583,,-5.4050479557139495,,
,9451.0,2641.0,10378.0,2350.0,2047.0,3420.0,338.0,,,,0.0155579353012516,-1.97590779042733,0.0862469063300673,,-5.613549231309278,,
,9454.0,2644.0,10378.0,2350.0,2036.0,3429.0,343.0,,,,0.0156061683879125,-1.97515080730457,0.0862085412120889,,-5.797391228918249,,
,9454.0,2645.0,10377.0,2349.0,2043.0,3407.0,330.0,,,,0.0156487849212803,-1.97542781428356,0.086205140658519,,-5.956324244771842,,
,9449.0,2643.0,10377.0,2348.0,2050.0,3390.0,326.0,,,,0.0156875460517405,-1.97478930368729,0.0862461887395052,,-6.090337522462815,,
,9443.0,2640.0,10376.0,2344.0,2042.0,3410.0,317.0,,,,0.0158190204519707,-1.97440174800883,0.0862287320951057,,-6.19989570099622,,
,9433.0,2638.0,10375.0,2345.0,2047.0,3366.0,338.0,,,,0.0159151010221718,-1.97429971996162,0.086219504681579,,-6.2860998888875255,,
,9426.0,2637.0,10373.0,2344.0,2048.0,3354.0,334.0,,,,0.0160745108416445,-1.97393315144166,0.0862120526989594,,-6.350751315138275,,
,9416.0,2632.0,10373.0,2340.0,2041.0,3355.0,322.0,,,,0.0160475364210553,-1.97349197908833,0.0862527326500018,,-6.396309318213648,,
,9399.0,2624.0,10367.0,2336.0,2049.0,3348.0,316.0,,,,0.0160998942280473,-1.97335943628795,0.0862475694420109,,-6.425749103276247,,
,9387.0,2621.0,10368.0,2332.0,2029.0,3392.0,325.0,,,,0.0160999805228327,-1.9734979404108,0.0862544258381415,,-6.442336453337026,,
,9371.0,2618.0,10368.0,2331.0,2022.0,3386.0,320.0,,,,0.0162164012141646,-1.97367744038829,0.0862377961073193,,-6.449345521387089,,
,9359.0,2613.0,10367.0,2325.0,2052.0,3370.0,335.0,,,,0.0162215689182178,-1.97318718733097,0.0862445431886932,,-6.4497515598079795,,
,9345.0,2607.0,10365.0,2323.0,2062.0,3375.0,334.0,,,,0.0163547784316583,-1.97327818835479,0.086293354476054,,-6.4459327539777505,,
,9328.0,2600.0,10364.0,2318.0,2073.0,3406.0,338.0,,,,0.01639105184249,-1.97273020733745,0.086299819799123,,-6.4394141124765785,,
,9319.0,2599.0,10365.0,2315.0,2067.0,3389.0,334.0,,,,0.0162453588320273,-1.97259432775278,0.0862672292832184,,-6.430681605699976,,
,9307.0,2599.0,10366.0,2314.0,2062.0,3409.0,298.0,,,,0.0165151165910023,-1.97230714510983,0.086217243900804,,-6.419086541772772,,
,9296.0,2591.0,10365.0,2313.0,2063.0,3415.0,291.0,,,,0.0164938024787041,-1.97267467222309,0.0862593151051397,,-6.40284904075944,,
,9286.0,2589.0,10363.0,2307.0,2062.0,3414.0,288.0,,,,0.0163963606816091,-1.972529821077,0.0863021156558638,,-6.3791568700909265,,
,9279.0,2590.0,10365.0,2307.0,2040.0,3399.0,292.0,,,,0.0164295929123338,-1.97282622212779,0.0862947545365673,,-6.344344368473066,,
,9274.0,2584.0,10366.0,2304.0,2047.0,3401.0,285.0,,,,0.0164957851714573,-1.97288191421901,0.0863017205768177,,-6.29412842788124,,
,9269.0,2585.0,10367.0,2305.0,2055.0,3406.0,284.0,,,,0.0164293397270667,-1.97253571048295,0.0862778604204132,,-6.223875930709198,,
,9265.0,2588.0,10366.0,2305.0,2095.0,3415.0,266.0,,,,0.0162627543456902,-1.97336140534697,0.0862675492111541,,-6.128879014942049,,
,9262.0,2584.0,10365.0,2302.0,2073.0,3422.0,277.0,,,,0.0161381312478928,-1.97374649251877,0.0862147359510198,,-6.004619075239585,,
,9258.0,2584.0,10367.0,2302.0,2068.0,3416.0,293.0,,,,0.0160138168672412,-1.97437456140688,0.0862186531808854,,-5.847005509854631,,
,9257.0,2587.0,10371.0,2305.0,2053.0,3406.0,296.0,,,,0.0158437154745643,-1.9748642534182,0.08617443264066,,-5.652579761787337,,
,9257.0,2586.0,10366.0,2303.0,2058.0,3408.0,296.0,,,,0.0157783762846577,-1.97543687876689,0.0861768421219962,,-5.418678974353403,,
,9253.0,2585.0,10368.0,2299.0,2045.0,3426.0,314.0,,,,0.0157613301759195,-1.97558118522756,0.0861548952416336,,-5.143556914556758,,
,9254.0,2585.0,10369.0,2300.0,2044.0,3395.0,327.0,,,,0.0157785154147813,-1.97581173396678,0.0861401693316433,,-4.826462987055363,,
,9251.0,2588.0,10370.0,2305.0,2044.0,3404.0,302.0,,,,0.0157532669290715,-1.97590856851549,0.0861605617651896,,-4.467682846497034,,
,9253.0,2588.0,10371.0,2303.0,2060.0,3400.0,305.0,,,,0.0156894168541937,-1.97595975852594,0.0860843862640452,,-4.068545345490884,,
,9250.0,2587.0,10371.0,2301.0,2073.0,3384.0,329.0,,,,0.0156679993108769,-1.97644560982499,0.086082368579851,,-3.6313994581848568,,
,9251.0,2590.0,10371.0,2303.0,2060.0,3397.0,343.0,,,,0.0156639928785242,-1.97695230055777,0.0860655948826236,,-3.1595617651629144,,
,9251.0,2590.0,10370.0,2302.0,2046.0,3383.0,326.0,,,,0.0155029614604887,-1.97697107845364,0.0860715079723606,,-2.657232037033214,,
,9255.0,2593.0,10374.0,2304.0,2036.0,3375.0,351.0,,,,0.0155592666292548,-1.97660360412879,0.0860640981080824,,-2.129373759181398,,
,9255.0,2592.0,10371.0,2304.0,2028.0,3391.0,347.0,,,,0.0157131612423549,-1.97662140283742,0.0860762349761459,,-1.5815590230415213,,
,9255.0,2590.0,10371.0,2302.0,2027.0,3389.0,342.0,,,,0.015683275049349,-1.97651955571641,0.0860458275935927,,-1.019781997266885,,
,9259.0,2595.0,10372.0,2304.0,2050.0,3394.0,365.0,,,,0.0156054581159787,-1.97697414181569,0.086006052216221,,-0.4502501766834167,,
,9260.0,2594.0,10373.0,2306.0,2040.0,3422.0,341.0,,,,0.015675475986335,-1.97666427708131,0.0860147649896139,,0.12083378678077153,,
,9262.0,2596.0,10372.0,2306.0,2040.0,3407.0,341.0,,,,0.0156580445581391,-1.97660075597656,0.0860160075942264,,0.6874852595222274,,
,9263.0,2597.0,10375.0,2305.0,2048.0,3418.0,354.0,,,,0.015702812220993,-1.97667727982092,0.0860543061446486,,1.2441317332215258,,
,9257.0,2597.0,10374.0,2305.0,2049.0,3417.0,360.0,,,,0.0158159981453109,-1.9768712541554,0.0859841075477846,,1.7857758164531123,,
,9258.0,2599.0,10373.0,2307.0,2035.0,3420.0,367.0,,,,0.0157689372439439,-1.97713252078675,0.0859495781527927,,2.3081186082307155,,
,9259.0,2600.0,10374.0,2307.0,2056.0,3409.0,348.0,,,,0.0157007364393186,-1.97658278730089,0.085983583748591,,2.807639881260777,,
,9258.0,2598.0,10375.0,2308.0,2041.0,3417.0,349.0,,,,0.0158086318223539,-1.97675437560806,0.0860073855247054,,3.2816374215789605,,
,9259.0,2595.0,10373.0,2306.0,2046.0,3392.0,347.0,,,,0.0157511040390408,-1.97705492229075,0.0859610181427066,,3.7282336723364184,,
,9257.0,2598.0,10373.0,2308.0,2023.0,3388.0,330.0,,,,0.0158486771234192,-1.97698618623203,0.0859341707156779,,4.146361579514185,,
,9260.0,2599.0,10375.0,2306.0,2035.0,3382.0,321.0,,,,0.0158158913448031,-1.97732317807656,0.0859422557507563,,4.535741280153301,,
,9255.0,2600.0,10373.0,2305.0,2040.0,3379.0,311.0,,,,0.015914714229541,-1.97715677312295,0.0859389000525238,,4.896854498815393,,
,9255.0,2597.0,10372.0,2305.0,2028.0,3387.0,341.0,,,,0.0157839990665742,-1.97739658754078,0.0859583716905863,,5.230915833215903,,
,9254.0,2598.0,10373.0,2306.0,2027.0,3392.0,324.0,,,,0.0156728364162946,-1.97729368292911,0.0859277291001029,,5.5398322559002375,,
,9259.0,2599.0,10375.0,2306.0,2049.0,3395.0,334.0,,,,0.0157899919559219,-1.97730727280745,0.085909744904223,,5.826136459787276,,
,9257.0,2601.0,10374.0,2305.0,2039.0,3392.0,334.0,,,,0.0157605352233404,-1.97733596108433,0.0859259778278726,,6.0928774489026996,,
,9258.0,2598.0,10374.0,2305.0,2040.0,3394.0,347.0,,,,0.0158401415954302,-1.9774787274302,0.0858698508804136,,6.343453724952837,,
,9256.0,2598.0,10375.0,2309.0,2040.0,3423.0,346.0,,,,0.0157892365372998,-1.97704357201357,0.0859167187915914,,6.581380934430749,,
,9258.0,2602.0,10378.0,2306.0,2048.0,3418.0,346.0,,,,0.0157613877973755,-1.97720642439112,0.0858656330411229,,6.809996613470485,,
,9261.0,2601.0,10377.0,2305.0,2053.0,3421.0,331.0,,,,0.0156437573396324,-1.9774930297784,0.0858723631199618,,7.032118167540514,,
,9261.0,2602.0,10376.0,2306.0,2026.0,3399.0,331.0,,,,0.0156966334414055,-1.9775928332724,0.0858444189340634,,7.249683779269885,,
,9262.0,2603.0,10378.0,2309.0,2031.0,3392.0,358.0,,,,0.0155498625792328,-1.97852380493279,0.0858428083346195,,7.463416366187237,,
,9261.0,2602.0,10375.0,2308.0,2030.0,3393.0,348.0,,,,0.0153844422746039,-1.9789042473419,0.0857962307998116,,7.672555044681125,,
,9267.0,2606.0,10379.0,2309.0,2060.0,3421.0,301.0,,,,0.0152009403672636,-1.97983616468335,0.0857997098430087,,7.874694992730543,,
,9266.0,2603.0,10375.0,2309.0,2054.0,3413.0,298.0,,,,0.0151644570910523,-1.98082678340547,0.0857457832895262,,8.06576551762941,,
,9270.0,2605.0,10378.0,2310.0,2063.0,3434.0,298.0,,,,0.0149764223584022,-1.9809843949245,0.0857617964821514,,8.240160090758195,,
,9272.0,2608.0,10377.0,2309.0,2060.0,3388.0,322.0,,,,0.0148338321430773,-1.98125280056606,0.08569225560044,,8.391014422017877,,
,9273.0,2608.0,10383.0,2313.0,2044.0,3400.0,330.0,,,,0.0148750867684191,-1.98181107836357,0.0857305093525694,,8.510611834104466,,
,9278.0,2607.0,10380.0,2312.0,2046.0,3391.0,318.0,,,,0.0149334503250388,-1.98262269002547,0.0856977194729977,,8.590880829551645,,
,9280.0,2611.0,10379.0,2313.0,2057.0,3395.0,322.0,,,,0.0147304528681369,-1.98322857321575,0.0857043071926765,,8.623939277791441,,
,9280.0,2610.0,10378.0,2313.0,2067.0,3355.0,313.0,,,,0.0144207300802921,-1.98386972671091,0.0856136304279324,,8.602634733943757,,
,9286.0,2612.0,10380.0,2313.0,2063.0,3352.0,323.0,,,,0.0144198705889619,-1.98404775617712,0.0855889718331038,,8.521032114262061,,
,9290.0,2615.0,10381.0,2315.0,2056.0,3385.0,335.0,,,,0.01438844029746,-1.98492455299615,0.085623177966928,,8.374807986733932,,
,9293.0,2616.0,10381.0,2314.0,2045.0,3383.0,338.0,,,,0.0143534882025929,-1.98560921109264,0.0855950929500216,,8.161523393730114,,
,9291.0,2615.0,10377.0,2313.0,2049.0,3378.0,327.0,,,,0.014256432758014,-1.9864273290857,0.0855474024990647,,7.88076187134703,,
,9296.0,2615.0,10382.0,2316.0,2038.0,3393.0,304.0,,,,0.0139882428912932,-1.98697520641314,0.0855104871305072,,7.534133444352112,,
,9298.0,2616.0,10385.0,2317.0,2029.0,3391.0,336.0,,,,0.0138443367161239,-1.98778024323656,0.0854973064531848,,7.125156748609762,,
,9304.0,2618.0,10383.0,2319.0,2035.0,3396.0,341.0,,,,0.0136700391264375,-1.98853427698519,0.0854617860494135,,6.659039255396277,,
,9306.0,2620.0,10382.0,2319.0,2032.0,3393.0,338.0,,,,0.013775773290261,-1.98963591232202,0.0854052350578441,,6.142380195690442,,
,9308.0,2620.0,10382.0,2316.0,2044.0,3399.0,312.0,,,,0.0134803349335156,-1.99033880975259,0.0854370171344954,,5.5828228645497555,,
,9310.0,2621.0,10384.0,2318.0,2056.0,3413.0,305.0,,,,0.0134725432362972,-1.99085682754023,0.0853738591559432,,4.988682915715868,,
,9312.0,2622.0,10382.0,2321.0,2061.0,3434.0,335.0,,,,0.0133649907913272,-1.99103527422346,0.0853356022125961,,4.368577290888517,,
,9314.0,2628.0,10384.0,2322.0,2056.0,3434.0,334.0,,,,0.0131736897550922,-1.99113581055979,0.0853199700052384,,3.7310749787122477,,
,9319.0,2625.0,10383.0,2320.0,2070.0,3414.0,337.0,,,,0.0131993182909591,-1.99187120979218,0.0852988566602909,,3.084386408854587,,
,9321.0,2624.0,10383.0,2323.0,2057.0,3395.0,329.0,,,,0.0130972474021161,-1.99204083461879,0.0853177625386059,,2.4361034833410455,,
,9324.0,2628.0,10384.0,2324.0,2039.0,3385.0,331.0,,,,0.0129884710779831,-1.99243456443543,0.0852661888987478,,1.7929975993806309,,
,9327.0,2627.0,10386.0,2326.0,2041.0,3384.0,315.0,,,,0.013041974051718,-1.99233567315308,0.0852540148003225,,1.1608792498384286,,
,9332.0,2632.0,10385.0,2325.0,2053.0,3381.0,321.0,,,,0.0130718713842185,-1.99249345483184,0.0852550708419193,,0.5445205023087187,,
,9333.0,2627.0,10385.0,2323.0,2076.0,3374.0,326.0,,,,0.0129656812609467,-1.99268161957435,0.0852742714933293,,-0.052359329851486294,,
,9336.0,2631.0,10384.0,2327.0,2053.0,3386.0,312.0,,,,0.0130811122164343,-1.99209886324255,0.0853036639690387,,-0.6270455073771398,,
,9340.0,2633.0,10386.0,2330.0,2056.0,3376.0,328.0,,,,0.0130297377999562,-1.99221325548698,0.0852519120737514,,-1.1777205388978869,,
,9344.0,2632.0,10387.0,2329.0,2050.0,3382.0,347.0,,,,0.0131531091221042,-1.99178018877654,0.0852498280278809,,-1.7033060320257174,,
,9345.0,2634.0,10387.0,2330.0,2045.0,3392.0,354.0,,,,0.0132393255984263,-1.99166327521318,0.0852638547375532,,-2.20326814841764,,
,9350.0,2632.0,10387.0,2331.0,2043.0,3435.0,351.0,,,,0.0131207504766229,-1.99168605672747,0.0853105455116524,,-2.6774063335320726,,
,9350.0,2637.0,10388.0,2330.0,2035.0,3416.0,351.0,,,,0.0131858659093806,-1.99180024633805,0.0852507151046946,,-3.125647864209277,,
,9352.0,2636.0,10386.0,2331.0,2042.0,3410.0,344.0,,,,0.0132245374762857,-1.99216299013251,0.0852310714712155,,-3.547870787462599,,
,9355.0,2636.0,10385.0,2333.0,2030.0,3409.0,327.0,,,,0.0132073418955528,-1.99236182118994,0.0852350333215497,,-3.943775194376448,,
,9351.0,2635.0,10381.0,2330.0,2024.0,3406.0,317.0,,,,0.0132980793469426,-1.99200056846508,0.0852309541671005,,-4.312817738122512,,
,9349.0,2635.0,10383.0,2330.0,2029.0,3413.0,320.0,,,,0.0131804428028702,-1.99184473052509,0.0852446738018001,,-4.654217146281191,,
,9341.0,2631.0,10384.0,2328.0,2017.0,3395.0,331.0,,,,0.0132043572821596,-1.99225858156244,0.0852580730503983,,-4.967029848691962,,
,9330.0,2629.0,10380.0,2327.0,2030.0,3395.0,329.0,,,,0.0131287462896433,-1.9915930185893,0.0852764173111722,,-5.250285740453117,,
,9320.0,2624.0,10378.0,2321.0,2033.0,3377.0,348.0,,,,0.0133015957900654,-1.99208520642193,0.0852452815398442,,-5.503165481380251,,
,9307.0,2621.0,10379.0,2319.0,2018.0,3372.0,341.0,,,,0.0130743629025589,-1.9919105764767,0.0852202350084779,,-5.725193537756276,,
,9293.0,2619.0,10376.0,2315.0,2034.0,3341.0,332.0,,,,0.0130625738012769,-1.99163836132241,0.0852081764033888,,-5.916416760579209,,
,9281.0,2611.0,10378.0,2313.0,2035.0,3353.0,358.0,,,,0.0130018027011802,-1.99235530517155,0.0852408783545438,,-6.077538388837286,,
,9267.0,2605.0,10375.0,2310.0,2014.0,3371.0,341.0,,,,0.0128824309336702,-1.99233285786232,0.0851953586221985,,-6.209983056211335,,
,9252.0,2601.0,10372.0,2308.0,2043.0,3373.0,342.0,,,,0.0129467380728775,-1.99273518744287,0.0852094200920211,,-6.315879027846385,,
,9239.0,2596.0,10373.0,2306.0,2048.0,3357.0,374.0,,,,0.0128699164227365,-1.99266377920836,0.0851997058599165,,-6.39795714168053,,
,9225.0,2594.0,10373.0,2300.0,2059.0,3359.0,336.0,,,,0.0128582883225364,-1.99361896177621,0.0851564672079253,,-6.459378845887559,,
,9214.0,2591.0,10374.0,2296.0,2050.0,3378.0,334.0,,,,0.0129766906029167,-1.99359604483314,0.0851604461338114,,-6.50351599969293,,
,9202.0,2587.0,10374.0,2291.0,2046.0,3396.0,328.0,,,,0.0128406775840779,-1.99332696575118,0.0851461044960853,,-6.533711479669943,,
,9194.0,2585.0,10375.0,2289.0,2050.0,3391.0,335.0,,,,0.0127005156228723,-1.99432590400987,0.0851670941522335,,-6.553051730300425,,
,9187.0,2582.0,10374.0,2290.0,2052.0,3360.0,329.0,,,,0.0127807981044988,-1.99442122876664,0.0851466414657931,,-6.5641804206705165,,
,9182.0,2581.0,10375.0,2289.0,2045.0,3371.0,339.0,,,,0.0126394914748807,-1.99432585683902,0.0851389673239321,,-6.569176849979414,,
,9177.0,2577.0,10373.0,2285.0,2033.0,3407.0,347.0,,,,0.0126631865956634,-1.99442084775979,0.085110590968981,,-6.569514308399634,,
,9172.0,2578.0,10373.0,2284.0,2030.0,3405.0,342.0,,,,0.0124534467970985,-1.99490191490251,0.085138068132783,,-6.566102839581656,,
,9171.0,2580.0,10379.0,2285.0,2042.0,3404.0,348.0,,,,0.0123803160186425,-1.99504403366553,0.0851115497316547,,-6.559408492753363,,
,9165.0,2579.0,10379.0,2285.0,2051.0,3427.0,345.0,,,,0.0123349717032215,-1.995240318743,0.0850889070668915,,-6.54962853828968,,
,9165.0,2579.0,10381.0,2285.0,2038.0,3424.0,320.0,,,,0.0121854485733776,-1.9955390204367,0.0850973572705736,,-6.536891588959528,,
,9161.0,2581.0,10376.0,2280.0,2034.0,3410.0,319.0,,,,0.0122704557539372,-1.99579813223653,0.0850790870243928,,-6.521445959329202,,
,9162.0,2581.0,10379.0,2284.0,2043.0,3419.0,326.0,,,,0.012120401569352,-1.99610815146028,0.085096454897502,,-6.503800784954674,,
2025-07-03 19:54:37,9162.0,2581.0,10381.0,2286.0,2029.0,3404.0,356.0,,,2025/07/03 07:54:37 PM,0.0120174981196739,-1.99662469140113,0.0850811858181485,,-6.484792149174073,,
,9162.0,2584.0,10379.0,2286.0,2039.0,3403.0,360.0,,,,0.0119702948094162,-1.99703019700948,0.0850522546789342,,-6.46555861908117,,
,9163.0,2583.0,10381.0,2284.0,2050.0,3428.0,344.0,,,,0.0119531830713635,-1.99704022758802,0.0850177043415523,,-6.44742449784623,,
,9164.0,2585.0,10380.0,2285.0,2038.0,3418.0,350.0,,,,0.0120191413396427,-1.99731695263169,0.0850389885144661,,-6.431702511528259,,
,9164.0,2586.0,10381.0,2285.0,2054.0,3408.0,340.0,,,,0.0117829480785972,-1.99757042721609,0.0850170309266843,,-6.419438991831041,,
,9164.0,2587.0,10382.0,2287.0,2054.0,3374.0,335.0,,,,0.0117911311591029,-1.99766925944891,0.0850335412721995,,-6.411132864024638,,
,9166.0,2587.0,10384.0,2286.0,2058.0,3368.0,331.0,,,,0.011732167511476,-1.99841287656127,0.0850027137212952,,-6.406464287129217,,
,9166.0,2591.0,10383.0,2286.0,2036.0,3389.0,318.0,,,,0.0115505211183997,-1.99843535617497,0.0849868483041157,,-6.404069300336259,,
,9168.0,2593.0,10385.0,2288.0,2037.0,3393.0,330.0,,,,0.011694276994113,-1.99873821666783,0.0850033006464233,,-6.401393128007799,,
,9170.0,2591.0,10384.0,2288.0,2037.0,3399.0,358.0,,,,0.0115812803684822,-1.99873883165697,0.0849565080101584,,-6.3946468428530565,,
,9171.0,2594.0,10385.0,2286.0,2049.0,3398.0,352.0,,,,0.0114742586106207,-1.99939734377661,0.0849383215300768,,-6.378880341502001,,
,9174.0,2595.0,10382.0,2289.0,2036.0,3433.0,359.0,,,,0.0113250105946449,-1.99918794311092,0.0849489437060543,,-6.348170603747666,,
,9174.0,2595.0,10385.0,2287.0,2012.0,3404.0,356.0,,,,0.0113275668363854,-1.9998501420701,0.0849358520352699,,-6.2959106946864445,,
,9177.0,2598.0,10382.0,2291.0,2023.0,3407.0,348.0,,,,0.0113218880040144,-2.00020217222786,0.0848832117187787,,-6.215174705108066,,
,9178.0,2598.0,10388.0,2289.0,2017.0,3392.0,349.0,,,,0.0112896619445459,-2.00018991747557,0.0848728576818665,,-6.099128162273249,,
,9173.0,2595.0,10382.0,2289.0,2036.0,3393.0,341.0,,,,0.0112598295773796,-2.00023739628647,0.0848290229442832,,-5.941451874702826,,
,9175.0,2598.0,10382.0,2289.0,2044.0,3388.0,380.0,,,,0.0112432689350952,-2.00053101511813,0.0848668235090176,,-5.736748280507252,,
,9178.0,2599.0,10386.0,2290.0,2026.0,3361.0,372.0,,,,0.0111226241697256,-2.0010596631476,0.0848666886191309,,-5.480902027557566,,
,9180.0,2600.0,10384.0,2292.0,2041.0,3400.0,361.0,,,,0.0110719660740074,-2.00107231916876,0.0848488378621752,,-5.171370393217899,,
,9178.0,2601.0,10383.0,2290.0,2034.0,3390.0,359.0,,,,0.0110080756036871,-2.0012873587196,0.0848420603511435,,-4.807384491353933,,
,9178.0,2599.0,10387.0,2291.0,2041.0,3421.0,353.0,,,,0.0110238517714034,-2.00167187573521,0.0848401891351294,,-4.390049297843047,,
,9177.0,2600.0,10384.0,2291.0,2038.0,3399.0,343.0,,,,0.0109213745130416,-2.0014656505514,0.0848094017126467,,-3.9223390393499917,,
,9178.0,2598.0,10384.0,2290.0,2053.0,3399.0,359.0,,,,0.0108483091770626,-2.00259810964234,0.0847766197417724,,-3.4089931056824008,,
,9177.0,2597.0,10388.0,2290.0,2048.0,3389.0,364.0,,,,0.0107603066051331,-2.00256025900372,0.0848010494263764,,-2.85632437426998,,
,9177.0,2600.0,10386.0,2291.0,2054.0,3378.0,358.0,,,,0.0106527187066574,-2.00271684808349,0.0847681626750523,,-2.2719552338136317,,
,9179.0,2600.0,10385.0,2288.0,2051.0,3392.0,370.0,,,,0.0105302766733916,-2.0033226513682,0.08475532527876,,-1.6644969698784242,,
,9177.0,2602.0,10387.0,2293.0,2037.0,3376.0,363.0,,,,0.0104301623693832,-2.00347419059461,0.0847762163348954,,-1.04318750712761,,
,9181.0,2602.0,10388.0,2293.0,2037.0,3372.0,343.0,,,,0.0104853635039402,-2.00360772360511,0.0847369188657302,,-0.417502854977943,,
,9182.0,2604.0,10386.0,2293.0,2038.0,3391.0,343.0,,,,0.0103435610796731,-2.00379224153909,0.0847453120731637,,0.20324047085865427,,
,9180.0,2599.0,10386.0,2291.0,2040.0,3391.0,337.0,,,,0.0101694520047613,-2.00409816038927,0.0847012214038029,,0.8102722906198252,,
,9184.0,2604.0,10388.0,2292.0,2026.0,3378.0,328.0,,,,0.0101462680425237,-2.00468174307315,0.0846975643764823,,1.3957234485439722,,
,9186.0,2604.0,10389.0,2293.0,2040.0,3416.0,354.0,,,,0.0099901514817553,-2.00519457240924,0.0846889767142829,,1.9529269138530079,,
,9188.0,2606.0,10389.0,2294.0,2046.0,3412.0,350.0,,,,0.0097524924918511,-2.00567370673313,0.0846603010996156,,2.4766457128353845,,
,9189.0,2603.0,10386.0,2292.0,2053.0,3389.0,333.0,,,,0.0098003283858761,-2.00652845329394,0.0846196221766946,,2.963211936078036,,
,9192.0,2606.0,10387.0,2296.0,2053.0,3380.0,349.0,,,,0.0097289737755114,-2.00679857972589,0.0846096908896236,,3.4105671047401964,,
,9195.0,2608.0,10389.0,2296.0,2046.0,3397.0,338.0,,,,0.0096572339893599,-2.00749664067476,0.0846064906104898,,3.8182026354773018,,
,9197.0,2609.0,10388.0,2297.0,2051.0,3374.0,334.0,,,,0.009519141270912,-2.0081073408194,0.0845716718495208,,4.187009738087027,,
,9200.0,2610.0,10391.0,2297.0,2055.0,3375.0,339.0,,,,0.0094379221993173,-2.00877022856369,0.0845908575081554,,4.519059447463479,,
,9201.0,2609.0,10389.0,2296.0,2054.0,3380.0,347.0,,,,0.0092506112559499,-2.00907842658628,0.0845970864302122,,4.817342869847396,,
,9203.0,2612.0,10388.0,2299.0,2043.0,3396.0,370.0,,,,0.0092515602819601,-2.00960275296052,0.0846326445051422,,5.085505788358994,,
,9206.0,2614.0,10393.0,2298.0,2021.0,3384.0,376.0,,,,0.0090335224043612,-2.01021292909585,0.084594215022513,,5.327608555769649,,
,9212.0,2616.0,10392.0,2300.0,2035.0,3386.0,377.0,,,,0.008721371059388,-2.01132850315778,0.084600838960295,,5.547932496208948,,
,9213.0,2617.0,10392.0,2298.0,2042.0,3398.0,373.0,,,,0.0086218930042182,-2.0118748436594,0.0845676639185642,,5.750840851887164,,
,9216.0,2618.0,10393.0,2301.0,2040.0,3400.0,366.0,,,,0.0083876163027031,-2.01301836780274,0.0845810777684819,,5.940689027283596,,
,9221.0,2620.0,10391.0,2301.0,2039.0,3399.0,362.0,,,,0.0081722090438751,-2.01363003639722,0.08457758576934,,6.121767998636147,,
,9225.0,2621.0,10393.0,2303.0,2050.0,3402.0,350.0,,,,0.0080354434044851,-2.01395777451508,0.0845921695239828,,6.298257915867026,,
,9228.0,2621.0,10394.0,2306.0,2047.0,3395.0,364.0,,,,0.0079196242699937,-2.01463012551793,0.0845530838797221,,6.474167329077524,,
,9230.0,2621.0,10393.0,2303.0,2027.0,3388.0,359.0,,,,0.0078443935913908,-2.01501512478974,0.0844637943291796,,6.653237829717159,,
,9235.0,2623.0,10392.0,2303.0,2013.0,3416.0,370.0,,,,0.0079173436096757,-2.01520684373748,0.0845445331288938,,6.83880401292282,,
,9239.0,2623.0,10394.0,2306.0,2083.0,3367.0,361.0,,,,0.0078596251092303,-2.01498277580991,0.0844400726681743,,7.033613023731997,,
,9241.0,2627.0,10394.0,2308.0,2067.0,3352.0,373.0,,,,0.0078480518943924,-2.01532749271957,0.0844834304443181,,7.239623358057091,,
,9242.0,2628.0,10392.0,2309.0,2035.0,3405.0,357.0,,,,0.0077323766568776,-2.01534267575067,0.0844249622689015,,7.457814366211926,,
,9249.0,2628.0,10393.0,2309.0,2071.0,3382.0,348.0,,,,0.0076746209864638,-2.01582515415521,0.0844005886399742,,7.688041454630391,,
,9252.0,2629.0,10394.0,2308.0,2061.0,3385.0,354.0,,,,0.0075916373936481,-2.01580198291449,0.0844152037667011,,7.928965435176926,,
,9257.0,2630.0,10395.0,2310.0,2053.0,3385.0,352.0,,,,0.0076931514843339,-2.01596218452022,0.0843718077823473,,8.178070099172231,,
,9258.0,2629.0,10396.0,2310.0,2061.0,3390.0,357.0,,,,0.0076573512797606,-2.01570577126832,0.0843333558179235,,8.431764870934565,,
,9260.0,2634.0,10395.0,2310.0,2053.0,3409.0,340.0,,,,0.0076084257555203,-2.01625335624803,0.0843215323990819,,8.685554192339875,,
,9266.0,2634.0,10394.0,2311.0,2064.0,3397.0,322.0,,,,0.0075624392806681,-2.0161851910957,0.0843498564670045,,8.934245140662398,,
,9273.0,2637.0,10394.0,2315.0,2060.0,3397.0,323.0,,,,0.0075197557716042,-2.01645108224971,0.0843404232203834,,9.172160911291343,,
,9276.0,2636.0,10395.0,2315.0,2064.0,3396.0,321.0,,,,0.0074820367315924,-2.01640059211494,0.0843902928175194,,9.39333032596086,,
,9276.0,2636.0,10395.0,2314.0,2057.0,3389.0,348.0,,,,0.0075799964338231,-2.01650769607449,0.0844602712475508,,9.591631858407975,,
,9283.0,2638.0,10396.0,2315.0,2057.0,3378.0,370.0,,,,0.0074705107662772,-2.0161045216578,0.0844274391426541,,9.76088351966685,,
,9288.0,2640.0,10398.0,2317.0,2047.0,3338.0,376.0,,,,0.0075163593521536,-2.01647562843671,0.0843847772733416,,9.89488532392602,,
,9291.0,2642.0,10399.0,2322.0,2056.0,3338.0,360.0,,,,0.0073784363238766,-2.01657712878158,0.0843282826386818,,9.987436137692828,,
,9294.0,2641.0,10396.0,2318.0,2056.0,3356.0,349.0,,,,0.0074849082270306,-2.0168888670135,0.0843713928974453,,10.03235782527008,,
,9297.0,2641.0,10394.0,2320.0,2055.0,3386.0,354.0,,,,0.0074401906488681,-2.01649526797813,0.0843204902215908,,10.023563095707795,,
,9300.0,2642.0,10397.0,2321.0,2052.0,3408.0,357.0,,,,0.007313898471091,-2.01641326032571,0.0842719236704765,,9.95519745958853,,
,9301.0,2643.0,10396.0,2321.0,2040.0,3431.0,349.0,,,,0.0074110599188111,-2.01643100579713,0.0843119040250101,,9.821871262988045,,
,9298.0,2642.0,10394.0,2318.0,2051.0,3426.0,324.0,,,,0.0074747382795111,-2.01700651396294,0.0842904576016709,,9.61897820184225,,
,9294.0,2642.0,10394.0,2319.0,2048.0,3423.0,350.0,,,,0.0073760569783538,-2.01663479442088,0.0842062659962522,,9.343075991658209,,
,9285.0,2639.0,10395.0,2317.0,2043.0,3412.0,357.0,,,,0.0074426842778904,-2.016779384428,0.0843092248261298,,8.992286614943195,,
,9276.0,2639.0,10394.0,2316.0,2041.0,3399.0,362.0,,,,0.0074768275987274,-2.01680151194327,0.0841948273447341,,8.566661163965001,,
,9267.0,2631.0,10393.0,2314.0,2048.0,3416.0,359.0,,,,0.0075835048174671,-2.01759973153313,0.0841325297583397,,8.068450705097284,,
,9253.0,2628.0,10390.0,2308.0,2053.0,3408.0,361.0,,,,0.0073424929544229,-2.01736444194829,0.0841087957141875,,7.502231427721893,,
,9240.0,2623.0,10387.0,2308.0,2034.0,3388.0,363.0,,,,0.0073854434665947,-2.01758102909202,0.0841085899976394,,6.87484904493152,,
,9229.0,2615.0,10389.0,2304.0,2031.0,3394.0,366.0,,,,0.0073710159728675,-2.0171739469516,0.084110447741699,,6.195171365934722,,
,9215.0,2613.0,10389.0,2304.0,2057.0,3384.0,370.0,,,,0.0073134397321305,-2.0175935319661,0.0841117325081762,,5.47366507754547,,
,9199.0,2606.0,10384.0,2296.0,2046.0,3374.0,364.0,,,,0.0073134475403309,-2.01748315222123,0.0841450149429622,,4.721838048202259,,
,9184.0,2600.0,10386.0,2292.0,2036.0,3379.0,344.0,,,,0.0072266927710383,-2.01759403653407,0.084162286885824,,3.951606895673332,,
,9173.0,2598.0,10386.0,2291.0,2037.0,3381.0,339.0,,,,0.0070812566490182,-2.01805175866954,0.084055009189289,,3.174657694760787,,
,9161.0,2595.0,10386.0,2285.0,2048.0,3409.0,333.0,,,,0.0069536458097707,-2.0182695853579,0.0840892465621403,,2.4018648767074153,,
,9151.0,2591.0,10385.0,2286.0,2037.0,3401.0,340.0,,,,0.0069402257750433,-2.01843024670351,0.084046672441029,,1.6428214853992709,,
,9143.0,2588.0,10386.0,2280.0,2029.0,3411.0,346.0,,,,0.0069302475801678,-2.01880282115928,0.0840709168454754,,0.9055161814688607,,
,9135.0,2587.0,10388.0,2279.0,2043.0,3394.0,372.0,,,,0.0070936580025845,-2.01847087238338,0.0840376933167133,,0.19617201206135768,,
,9129.0,2586.0,10387.0,2278.0,2025.0,3394.0,344.0,,,,0.0070416107467148,-2.01921710064582,0.0840312366238483,,-0.4807580791778936,,
,9122.0,2587.0,10388.0,2276.0,2030.0,3413.0,352.0,,,,0.006819346374372,-2.0188123472896,0.0840151395935223,,-1.122461269511792,,
,9121.0,2584.0,10389.0,2278.0,2035.0,3420.0,340.0,,,,0.0067539579468229,-2.01864820067812,0.0839537521626946,,-1.7275352199860314,,
,9118.0,2582.0,10389.0,2274.0,2055.0,3409.0,330.0,,,,0.0068362986391514,-2.01916983781894,0.0839957951895729,,-2.295700262391871,,
,9117.0,2586.0,10388.0,2275.0,2073.0,3389.0,341.0,,,,0.0066505610606361,-2.01984462746938,0.0838805594208867,,-2.8274951320206756,,
,9114.0,2586.0,10390.0,2276.0,2074.0,3437.0,351.0,,,,0.0067266582246105,-2.01994759778363,0.083987641126899,,-3.323991969066061,,
,9113.0,2586.0,10394.0,2277.0,2064.0,3431.0,345.0,,,,0.0065773587445031,-2.0201037449091,0.0839445134133279,,-3.7865552999720484,,
,9109.0,2588.0,10389.0,2275.0,2075.0,3409.0,327.0,,,,0.0065944517196648,-2.02064131733122,0.0838533870003634,,-4.216656343530501,,
,9115.0,2588.0,10393.0,2274.0,2058.0,3414.0,334.0,,,,0.0065290483218304,-2.0206339693516,0.0839016069922426,,-4.615741873589584,,
,9113.0,2589.0,10396.0,2278.0,2046.0,3401.0,335.0,,,,0.0063766452084067,-2.02099931084912,0.0838488759229456,,-4.98514899379693,,
,9112.0,2590.0,10392.0,2276.0,2048.0,3399.0,329.0,,,,0.0064291633893549,-2.02122095259758,0.0838627967946965,,-5.326054457525299,,
,9114.0,2591.0,10394.0,2277.0,2066.0,3408.0,321.0,,,,0.006420188462872,-2.02068005056491,0.0839502753180432,,-5.639448457020823,,
,9116.0,2592.0,10393.0,2277.0,2059.0,3362.0,333.0,,,,0.0063557275297018,-2.02106918597279,0.0839181800278118,,-5.926126087144416,,
,9117.0,2593.0,10395.0,2279.0,2056.0,3384.0,343.0,,,,0.006445635898409,-2.02104902461573,0.0838068647652439,,-6.186693210991567,,
,9119.0,2597.0,10395.0,2279.0,2058.0,3375.0,336.0,,,,0.0063597071265537,-2.02141046153572,0.0838181617632441,,-6.421586218849792,,
,9119.0,2597.0,10396.0,2279.0,2055.0,3369.0,345.0,,,,0.0063557000160959,-2.02145266665464,0.0838580373484197,,-6.631106827877244,,
,9118.0,2598.0,10394.0,2277.0,2054.0,3386.0,360.0,,,,0.0063520445747956,-2.02166333542016,0.0838387062905194,,-6.8154735796857135,,
,9123.0,2599.0,10398.0,2282.0,2044.0,3394.0,355.0,,,,0.0063750381977875,-2.02187554224892,0.0837534507691442,,-6.974891042664071,,
,9126.0,2600.0,10397.0,2280.0,2032.0,3400.0,360.0,,,,0.006370448140702,-2.02168142018836,0.0836859875402752,,-7.1096358070620465,,
,9130.0,2602.0,10394.0,2280.0,2041.0,3406.0,355.0,,,,0.0063473900668655,-2.02173925493143,0.0837597208060025,,-7.220155063963619,,
,9129.0,2603.0,10396.0,2282.0,2075.0,3395.0,365.0,,,,0.0062550801159311,-2.0217172459727,0.0837313060717504,,-7.307169111549266,,
,9131.0,2603.0,10397.0,2282.0,2056.0,3387.0,378.0,,,,0.0059790303464927,-2.02418952846189,0.0834501692868957,,-7.371764550845621,,
,9129.0,2605.0,10397.0,2283.0,2037.0,3393.0,352.0,,,,0.0056444458323407,-2.02485397271383,0.0833313209929894,,-7.415462040910797,,
,9131.0,2605.0,10397.0,2284.0,2052.0,3403.0,348.0,,,,0.0061453878383613,-2.02407491492723,0.0834320537112724,,-7.440243025007419,,
,9133.0,2604.0,10398.0,2284.0,2046.0,3398.0,351.0,,,,0.0061446741803261,-2.02324599926806,0.0834810494639279,,-7.448524297691551,,
