TimeLabel,MEAS1_PPG1,MEAS1_PPG2,MEAS1_PPG3,MEAS1_PPG4,ACCX,ACCY,ACCZ,HR_timestamp,HR_value,radar_timestamp,phase_rx0,phase_rx1,phase_rx2,timestep,n_process,original_rate,calculated_rate
2025-07-02 22:21:50,4552.0,1069.0,6542.0,505.0,1982.0,3419.0,129.0,2025-07-02 22:21:50,86.0,2025/07/02 10:21:50 PM,1.94209433668401,-2.71773533529666,-1.83018391580338,2025/07/02 10:21:50 PM,4.47100814295086,13.274336814880373,11.729925615105856
,4552.0,1068.0,6544.0,504.0,1972.0,3433.0,134.0,2025-07-02 22:21:51,87.0,,1.9427820372835,-2.71700427041265,-1.82960019111089,2025/07/02 10:22:00 PM,4.0827574586021,12.711864471435549,11.3951395139514
,4551.0,1070.0,6544.0,505.0,1983.0,3454.0,125.0,2025-07-02 22:21:52,87.0,,1.94238189172846,-2.71910761053691,-1.8284613219006,2025/07/02 10:22:10 PM,3.675490134976244,11.848341941833496,11.2977369165488
,4554.0,1071.0,6546.0,507.0,1977.0,3455.0,116.0,2025-07-02 22:21:53,87.0,,1.94266946062525,-2.71835033841814,-1.82883735101432,2025/07/02 10:22:20 PM,3.243320225437431,11.363636016845703,11.380798274002153
,4558.0,1070.0,6546.0,506.0,1967.0,3431.0,114.0,2025-07-02 22:21:54,87.0,,1.94247086328498,-2.71861770376973,-1.82862836936365,2025/07/02 10:22:30 PM,2.781394489261354,11.312216758728027,15.117370892018776
,4555.0,1071.0,6551.0,506.0,1977.0,3434.0,110.0,2025-07-02 22:21:55,86.0,,1.94287109979929,-2.71880746924472,-1.82869023835419,2025/07/02 10:22:40 PM,2.286264417313978,12.793176651000977,11.765836777852556
,4559.0,1071.0,6552.0,506.0,1978.0,3454.0,130.0,2025-07-02 22:21:56,86.0,,1.94249073063517,-2.71870084329694,-1.82885974682711,2025/07/02 10:22:50 PM,1.7561807411181911,12.693934440612791,11.06014271151885
,4560.0,1073.0,6560.0,508.0,1967.0,3458.0,112.0,2025-07-02 22:21:57,85.0,,1.9422264395772,-2.71935573578441,-1.82965552645956,2025/07/02 10:23:00 PM,1.1912857169855753,12.405238151550291,10.05046257359125
,4563.0,1070.0,6558.0,510.0,1966.0,3466.0,113.0,2025-07-02 22:21:58,85.0,,1.94265752432993,-2.71908958898388,-1.82923723312969,2025/07/02 10:23:10 PM,0.5936844089925166,11.18568229675293,10.878048780487813
,4564.0,1073.0,6560.0,507.0,1963.0,3469.0,118.0,2025-07-02 22:21:59,85.0,,1.94179154711582,-2.71819329360883,-1.82872283191901,2025/07/02 10:23:20 PM,-0.03261503517072264,10.762331962585447,10.0
,4564.0,1074.0,6564.0,506.0,1966.0,3478.0,137.0,2025-07-02 22:22:00,85.0,,1.94225461558992,-2.71861560378288,-1.82939306099493,2025/07/02 10:23:30 PM,-0.6818915175249155,10.676156997680664,9.231315462453388
,4566.0,1075.0,6567.0,507.0,1970.0,3475.0,141.0,2025-07-02 22:22:01,85.0,,1.94132459522056,-2.71901642753358,-1.82998404703351,2025/07/02 10:23:40 PM,-1.347019650901411,10.474860191345217,8.45070422535212
,4568.0,1075.0,6566.0,508.0,1969.0,3462.0,145.0,2025-07-02 22:22:02,86.0,,1.94185870491221,-2.71970923748103,-1.8286369163568,2025/07/02 10:23:50 PM,-2.0198739793110163,9.209516525268553,8.187514504525419
,4571.0,1074.0,6569.0,508.0,1973.0,3462.0,159.0,2025-07-02 22:22:03,86.0,,1.94103581122713,-2.72074258820454,-1.82863190197643,2025/07/02 10:24:00 PM,-2.691795618762971,8.348793983459473,9.022556390977435
,4566.0,1073.0,6569.0,507.0,1976.0,3445.0,135.0,2025-07-02 22:22:04,86.0,,1.94074526761671,-2.71862891462009,-1.8287578938019,2025/07/02 10:24:10 PM,-3.3540802019528044,8.534850120544434,9.196617336152212
,4569.0,1077.0,6572.0,509.0,1971.0,3444.0,131.0,2025-07-02 22:22:05,87.0,,1.94077189350373,-2.71931781674405,-1.82877871666247,2025/07/02 10:24:20 PM,-3.99844241733205,8.902076721191406,9.448818897637803
,4570.0,1075.0,6572.0,509.0,1975.0,3447.0,135.0,2025-07-02 22:22:06,86.0,,1.94069615823056,-2.71902156424968,-1.8298373534737,2025/07/02 10:24:30 PM,-4.617415426827992,9.30232524871826,8.759124087591248
,4572.0,1074.0,6573.0,509.0,1985.0,3449.0,128.0,2025-07-02 22:22:07,86.0,,1.94072641080871,-2.71926346191907,-1.82916589777213,2025/07/02 10:24:40 PM,-5.2046535161311445,9.24499225616455,8.633093525179834
,4570.0,1072.0,6570.0,507.0,1978.0,3448.0,131.0,2025-07-02 22:22:08,86.0,,1.94022211674346,-2.7196525695462,-1.82950308800369,,-5.755121410425209,,
,4573.0,1075.0,6572.0,509.0,1983.0,3471.0,143.0,2025-07-02 22:22:09,86.0,,1.94006559590517,-2.71928648075987,-1.82910089194949,,-6.2651700810657225,,
,4572.0,1075.0,6572.0,509.0,1977.0,3447.0,128.0,2025-07-02 22:22:10,85.0,,1.93901774038567,-2.71988884676357,-1.82930106422084,,-6.732512975362271,,
,4568.0,1074.0,6572.0,510.0,1972.0,3438.0,122.0,2025-07-02 22:22:11,85.0,,1.94012574123598,-2.71921610827327,-1.8294376358949,,-7.156126103375341,,
,4574.0,1073.0,6571.0,506.0,1972.0,3454.0,115.0,2025-07-02 22:22:12,85.0,,1.94030162519255,-2.7206599148161,-1.8281917051032,,-7.536099583091741,,
,4573.0,1074.0,6573.0,509.0,1972.0,3448.0,127.0,2025-07-02 22:22:13,85.0,,1.93965729853754,-2.71941231378975,-1.82966021065501,,-7.873467649686594,,
,4575.0,1076.0,6572.0,511.0,1980.0,3458.0,132.0,2025-07-02 22:22:14,85.0,,1.94045742705407,-2.71858883620857,-1.8287060693934,,-8.170039994181346,,
,4576.0,1077.0,6575.0,510.0,1992.0,3467.0,123.0,2025-07-02 22:22:15,85.0,,1.93998867833082,-2.72105377729313,-1.82937667878845,,-8.428250726618462,,
,4575.0,1075.0,6578.0,508.0,1982.0,3470.0,129.0,2025-07-02 22:22:16,84.0,,1.94067447259061,-2.71998581606436,-1.82915583291571,,-8.651032914173065,,
,4576.0,1078.0,6582.0,510.0,1985.0,3454.0,135.0,2025-07-02 22:22:17,83.0,,1.94030798554455,-2.72003491377271,-1.82827537393431,,-8.841717081965822,,
,4579.0,1077.0,6584.0,509.0,1977.0,3451.0,117.0,2025-07-02 22:22:18,82.0,,1.93970693286415,-2.72015012062601,-1.82850716636496,,-9.003942518892458,,
,4583.0,1078.0,6586.0,509.0,1966.0,3461.0,125.0,2025-07-02 22:22:19,81.0,,1.94102456378911,-2.71926835007638,-1.82853031758134,,-9.141563035436482,,
,4588.0,1080.0,6590.0,511.0,1976.0,3463.0,128.0,2025-07-02 22:22:20,80.0,,1.93985289424124,-2.71954563648179,-1.82898689491572,,-9.25852672835673,,
,4585.0,1078.0,6592.0,509.0,2005.0,3469.0,131.0,2025-07-02 22:22:21,79.0,,1.94036030533732,-2.71899169389534,-1.82863345256666,,-9.358713846689136,,
,4590.0,1083.0,6598.0,510.0,2000.0,3458.0,124.0,2025-07-02 22:22:22,79.0,,1.94024487314463,-2.71944493109684,-1.82959700540326,,-9.445727108599714,,
,4591.0,1082.0,6602.0,514.0,1980.0,3469.0,131.0,2025-07-02 22:22:23,78.0,,1.9397816399471,-2.71923316501499,-1.82894583736376,,-9.522641861868923,,
,4592.0,1082.0,6604.0,510.0,1980.0,3470.0,140.0,2025-07-02 22:22:24,78.0,,1.94060187130745,-2.71895396231673,-1.82889065780944,,-9.591735941650144,,
,4595.0,1084.0,6606.0,511.0,1970.0,3442.0,144.0,2025-07-02 22:22:25,79.0,,1.93984463221034,-2.72042790739971,-1.82942928324398,,-9.654228410539366,,
,4598.0,1087.0,6612.0,512.0,1970.0,3458.0,146.0,2025-07-02 22:22:26,79.0,,1.94072307565021,-2.71974245703965,-1.82892209018512,,-9.710061181170769,,
,4599.0,1086.0,6621.0,513.0,1977.0,3455.0,120.0,2025-07-02 22:22:27,80.0,,1.93989627502368,-2.71932710972192,-1.82924629700865,,-9.757757364064377,,
,4604.0,1089.0,6623.0,514.0,1968.0,3446.0,125.0,2025-07-02 22:22:28,81.0,,1.93971473342644,-2.71947212727791,-1.82944799017078,,-9.794385205106565,,
,4607.0,1089.0,6627.0,512.0,1994.0,3450.0,157.0,2025-07-02 22:22:29,81.0,,1.93978622111143,-2.72003073436073,-1.82859973916052,,-9.815647160399743,,
,4610.0,1090.0,6632.0,514.0,1967.0,3460.0,146.0,2025-07-02 22:22:30,82.0,,1.94006224547412,-2.7203790578074,-1.82931202189175,,-9.81610062505064,,
,4611.0,1094.0,6639.0,514.0,1978.0,3453.0,145.0,2025-07-02 22:22:31,83.0,,1.93996139720253,-2.72015356744929,-1.82974129886469,,-9.789500918910923,,
,4615.0,1093.0,6642.0,512.0,1984.0,3466.0,139.0,2025-07-02 22:22:32,82.0,,1.9405832703715,-2.71980405420743,-1.8290548369165,,-9.729239800819391,,
,4618.0,1094.0,6648.0,514.0,1992.0,3478.0,148.0,2025-07-02 22:22:33,81.0,,1.93997707979811,-2.71879252264651,-1.82926260288424,,-9.628836636608032,,
,4623.0,1097.0,6654.0,513.0,1982.0,3478.0,124.0,2025-07-02 22:22:34,80.0,,1.94023684072712,-2.71989970735332,-1.82913553341905,,-9.48242802253215,,
,4627.0,1097.0,6659.0,514.0,1987.0,3468.0,129.0,2025-07-02 22:22:35,79.0,,1.93957692932063,-2.71894800136104,-1.8285070175838,,-9.285198650354873,,
,4627.0,1099.0,6667.0,518.0,1986.0,3457.0,136.0,2025-07-02 22:22:36,78.0,,1.94007126288888,-2.71864309231366,-1.828648264586,,-9.03370315802138,,
,4629.0,1100.0,6669.0,515.0,1984.0,3436.0,144.0,2025-07-02 22:22:37,77.0,,1.93908518229641,-2.71931364348605,-1.82944975720149,,-8.726044606664368,,
,4633.0,1100.0,6675.0,514.0,1973.0,3431.0,137.0,2025-07-02 22:22:38,76.0,,1.93952229606618,-2.71883222265547,-1.82970788199368,,-8.361896803120613,,
,4635.0,1103.0,6681.0,516.0,1971.0,3434.0,138.0,2025-07-02 22:22:39,76.0,,1.9398570377779,-2.71808468344994,-1.82896022082732,,-7.942380721010605,,
,4641.0,1102.0,6684.0,515.0,1987.0,3447.0,122.0,2025-07-02 22:22:40,75.0,,1.94060079618872,-2.72006720402737,-1.82794931787228,,-7.469825737093617,,
,4644.0,1105.0,6689.0,516.0,1992.0,3468.0,127.0,2025-07-02 22:22:41,74.0,,1.93998827208164,-2.71956644817141,-1.82884402811563,,-6.947461162567496,,
,4643.0,1105.0,6695.0,516.0,1971.0,3457.0,110.0,2025-07-02 22:22:42,75.0,,1.93969439101163,-2.71891076716475,-1.82928249410286,,-6.379090645436071,,
,4648.0,1108.0,6702.0,520.0,1969.0,3446.0,139.0,2025-07-02 22:22:43,75.0,,1.93904567982037,-2.71892823185511,-1.82958368845296,,-5.768800652806855,,
,4654.0,1110.0,6707.0,517.0,1975.0,3446.0,133.0,2025-07-02 22:22:44,75.0,,1.93931384654666,-2.71915290181508,-1.8295356457505,,-5.1207446743119105,,
,4654.0,1109.0,6712.0,518.0,1982.0,3448.0,129.0,2025-07-02 22:22:45,75.0,,1.94032686754608,-2.7195129498198,-1.82966295322325,,-4.439028296213945,,
,4659.0,1112.0,6716.0,519.0,1987.0,3436.0,143.0,2025-07-02 22:22:46,75.0,,1.9403897744698,-2.71811673207028,-1.82983604553132,,-3.7276993564668213,,
,4663.0,1113.0,6725.0,520.0,1986.0,3447.0,166.0,2025-07-02 22:22:47,75.0,,1.94019780306767,-2.71892737136736,-1.82964828864834,,-2.990825936277106,,
,4666.0,1116.0,6731.0,521.0,1990.0,3460.0,149.0,2025-07-02 22:22:48,76.0,,1.94055058292806,-2.71827099482768,-1.82990133864545,,-2.23262786692642,,
,4668.0,1115.0,6735.0,520.0,1991.0,3470.0,140.0,2025-07-02 22:22:49,76.0,,1.93999441615497,-2.71897168026389,-1.82985449890015,,-1.4576188061845088,,
,4672.0,1118.0,6739.0,520.0,2003.0,3469.0,151.0,2025-07-02 22:22:50,76.0,,1.93973372003853,-2.71761976701789,-1.83050247305639,,-0.6707170453607796,,
,4674.0,1118.0,6745.0,519.0,1985.0,3466.0,144.0,2025-07-02 22:22:51,76.0,,1.93981036115749,-2.71884366009696,-1.82983755587792,,0.12270784535357301,,
,4678.0,1120.0,6753.0,523.0,1991.0,3482.0,138.0,2025-07-02 22:22:52,76.0,,1.93994844491461,-2.717924565672,-1.8294812827447,,0.9168721648842284,,
,4678.0,1122.0,6753.0,522.0,1982.0,3485.0,133.0,2025-07-02 22:22:53,76.0,,1.94007474113944,-2.71819585560629,-1.8299437885636,,1.7057042292196487,,
,4675.0,1120.0,6752.0,520.0,1982.0,3487.0,126.0,2025-07-02 22:22:54,76.0,,1.93980039409033,-2.71876257465343,-1.82925805924349,,2.4830509729920753,,
,4669.0,1115.0,6745.0,521.0,1993.0,3480.0,142.0,2025-07-02 22:22:55,76.0,,1.94011486927082,-2.71871743089484,-1.82998263738732,,3.2429443030343683,,
,4661.0,1115.0,6732.0,520.0,1971.0,3453.0,158.0,2025-07-02 22:22:56,77.0,,1.9391754350431,-2.71875998634127,-1.8297678144014,,3.979896752369053,,
,4654.0,1106.0,6715.0,517.0,1965.0,3448.0,165.0,2025-07-02 22:22:57,77.0,,1.93939202741456,-2.7181812814062,-1.83012783835723,,4.689189668009369,,
,4641.0,1101.0,6696.0,512.0,1958.0,3429.0,169.0,2025-07-02 22:22:58,78.0,,1.94042085017993,-2.71856199968696,-1.83008469881864,,5.367115439980454,,
,4629.0,1097.0,6673.0,509.0,1956.0,3427.0,162.0,2025-07-02 22:22:59,79.0,,1.93967235025694,-2.71792588459548,-1.82964472487642,,6.011139098032025,,
,4619.0,1091.0,6652.0,510.0,1968.0,3437.0,145.0,2025-07-02 22:23:00,80.0,,1.93951310413773,-2.71836034534837,-1.82984116604247,,6.6199541020855275,,
,4608.0,1085.0,6629.0,509.0,1970.0,3452.0,129.0,2025-07-02 22:23:01,80.0,,1.9393964061281,-2.71813593355151,-1.83012532790757,,7.19342102598516,,
,4595.0,1080.0,6611.0,508.0,1961.0,3463.0,129.0,2025-07-02 22:23:02,81.0,,1.93954103050014,-2.71937719861093,-1.82927831015257,,7.732393513521777,,
,4584.0,1076.0,6588.0,505.0,1967.0,3437.0,121.0,2025-07-02 22:23:03,82.0,,1.93898703299768,-2.71860991243065,-1.82997110956941,,8.23845056139323,,
,4576.0,1072.0,6575.0,505.0,1980.0,3460.0,121.0,2025-07-02 22:23:04,82.0,,1.93890698516046,-2.71857056591344,-1.83088125432418,,8.713565585090585,,
,4570.0,1068.0,6559.0,506.0,1983.0,3476.0,138.0,2025-07-02 22:23:05,82.0,,1.93949866237318,-2.71842911150024,-1.82989787763766,,9.15974919320594,,
,4564.0,1066.0,6548.0,506.0,1986.0,3478.0,139.0,2025-07-02 22:23:06,81.0,,1.93983987576398,-2.71848466489418,-1.82985739704388,,9.578703289083556,,
,4557.0,1063.0,6536.0,504.0,2007.0,3468.0,118.0,2025-07-02 22:23:07,81.0,,1.94042539347108,-2.71759515232388,-1.82966661936159,,9.97151963418597,,
,4553.0,1061.0,6528.0,502.0,1998.0,3470.0,131.0,2025-07-02 22:23:08,80.0,,1.94025079898338,-2.7175524704001,-1.83066444789288,,10.338448363185416,,
,4551.0,1063.0,6522.0,503.0,1996.0,3473.0,129.0,2025-07-02 22:23:09,80.0,,1.94013644749872,-2.71860982622753,-1.83045085953718,,10.678753328084449,,
,4545.0,1059.0,6518.0,504.0,2001.0,3474.0,129.0,2025-07-02 22:23:10,81.0,,1.94007137145224,-2.71871032142761,-1.82904901617691,,10.990662703249509,,
,4544.0,1057.0,6512.0,499.0,2012.0,3462.0,131.0,2025-07-02 22:23:11,82.0,,1.94077804575016,-2.7182486161514,-1.83007052065583,,11.27141522816029,,
,4539.0,1053.0,6510.0,501.0,1997.0,3462.0,139.0,2025-07-02 22:23:12,82.0,,1.94055746766777,-2.71879669946172,-1.83043593275248,,11.517395085071994,,
,4538.0,1055.0,6509.0,502.0,1986.0,3478.0,125.0,2025-07-02 22:23:13,83.0,,1.94074056673802,-2.71776912173576,-1.829861478024,,11.724342297051258,,
,4538.0,1057.0,6504.0,502.0,1981.0,3446.0,106.0,2025-07-02 22:23:14,84.0,,1.94088031507959,-2.71792786432693,-1.830609919157,,11.887620850445282,,
,4538.0,1056.0,6503.0,503.0,1983.0,3449.0,104.0,2025-07-02 22:23:15,85.0,,1.94018593164001,-2.71748783300538,-1.83018815908873,,12.002522867782965,,
,4534.0,1053.0,6500.0,500.0,1997.0,3458.0,114.0,2025-07-02 22:23:16,85.0,,1.940816763311,-2.71704172492319,-1.82965205813976,,12.06458357119105,,
,4531.0,1056.0,6502.0,501.0,1985.0,3447.0,110.0,2025-07-02 22:23:17,86.0,,1.94167407549541,-2.71855997715731,-1.82994629068732,,12.069879226923803,,
,4534.0,1055.0,6501.0,502.0,1985.0,3432.0,128.0,2025-07-02 22:23:18,86.0,,1.94110278480283,-2.71911836519671,-1.82981637350047,,12.015280521187726,,
,4532.0,1055.0,6499.0,502.0,1987.0,3435.0,146.0,2025-07-02 22:23:19,86.0,,1.94123769127368,-2.71718165962659,-1.83009494671031,,11.898638181874404,,
,4532.0,1054.0,6501.0,502.0,1978.0,3455.0,150.0,2025-07-02 22:23:20,86.0,,1.94121419175819,-2.71833633046451,-1.83083758470209,,11.718885822832675,,
,4532.0,1056.0,6500.0,503.0,1997.0,3435.0,126.0,2025-07-02 22:23:21,87.0,,1.9412299143604,-2.71776013146738,-1.82988709883401,,11.476055276576016,,
,4532.0,1053.0,6504.0,502.0,1982.0,3446.0,144.0,2025-07-02 22:23:22,87.0,,1.94076449669118,-2.71777275084156,-1.83053326087533,,11.171210057760204,,
,4535.0,1057.0,6507.0,504.0,1972.0,3447.0,154.0,2025-07-02 22:23:23,87.0,,1.94029287642388,-2.71894108925188,-1.82977113769403,,10.806311489560693,,
,4535.0,1056.0,6509.0,503.0,1975.0,3446.0,135.0,2025-07-02 22:23:24,87.0,,1.94065686572175,-2.7188520578227,-1.82998515691307,,10.384038687846,,
,4536.0,1056.0,6513.0,502.0,1972.0,3461.0,160.0,2025-07-02 22:23:25,87.0,,1.94134844928381,-2.71841660810156,-1.82973041846615,,9.907587927987112,,
,4540.0,1056.0,6513.0,504.0,1982.0,3472.0,151.0,2025-07-02 22:23:26,88.0,,1.94160790820621,-2.71785418880822,-1.82972360998229,,9.380478735991586,,
,4541.0,1059.0,6517.0,506.0,1977.0,3482.0,150.0,2025-07-02 22:23:27,88.0,,1.94175588119326,-2.71846754078455,-1.82992855889591,,8.80639249293672,,
,4536.0,1058.0,6519.0,503.0,1976.0,3487.0,143.0,2025-07-02 22:23:28,87.0,,1.94077838153075,-2.71884030224174,-1.829821887282,,8.189063304967728,,
,4538.0,1058.0,6519.0,504.0,1964.0,3485.0,156.0,2025-07-02 22:23:29,87.0,,1.94009765423804,-2.71877624578255,-1.83032024677441,,7.532230463735067,,
,4540.0,1060.0,6522.0,505.0,1961.0,3477.0,150.0,2025-07-02 22:23:30,86.0,,1.94030157604069,-2.71897966362808,-1.83011585009644,,6.839649318283403,,
,4540.0,1058.0,6524.0,502.0,1965.0,3477.0,144.0,2025-07-02 22:23:31,85.0,,1.93995544646673,-2.71813202922901,-1.83089111895632,,6.115146445605786,,
,4540.0,1059.0,6526.0,505.0,1960.0,3459.0,154.0,2025-07-02 22:23:32,86.0,,1.93949195873335,-2.718439994172,-1.83023435237316,,5.362698461585593,,
,4538.0,1057.0,6522.0,504.0,1960.0,3455.0,159.0,2025-07-02 22:23:33,87.0,,1.93906957624018,-2.71854076808744,-1.83051809121198,,4.586512234268402,,
,4541.0,1057.0,6526.0,504.0,1953.0,3432.0,151.0,2025-07-02 22:23:34,87.0,,1.93883269998447,-2.7181638029911,-1.83040080081853,,3.7910864054266917,,
,4541.0,1057.0,6526.0,504.0,1957.0,3442.0,151.0,2025-07-02 22:23:35,87.0,,1.9383004420466,-2.71764476805172,-1.82980819776479,,2.9812384262574803,,
,4538.0,1058.0,6525.0,505.0,1969.0,3452.0,163.0,2025-07-02 22:23:36,86.0,,1.93885652578634,-2.71819465642437,-1.82989022381957,,2.162086904113473,,
,4536.0,1056.0,6524.0,503.0,1971.0,3430.0,160.0,2025-07-02 22:23:37,85.0,,1.93849655832428,-2.71850288006436,-1.83037688905091,,1.338985696255484,,
,4538.0,1057.0,6526.0,505.0,1962.0,3441.0,144.0,2025-07-02 22:23:38,84.0,,1.93752186526603,-2.71902721684248,-1.82981805593666,,0.5174136594915071,,
,4540.0,1058.0,6526.0,501.0,1985.0,3458.0,134.0,2025-07-02 22:23:39,84.0,,1.93837423291889,-2.71841949279951,-1.82993902057431,,-0.29716831209055705,,
,4536.0,1057.0,6528.0,503.0,1986.0,3459.0,128.0,2025-07-02 22:23:40,83.0,,1.93753724956075,-2.71774139107956,-1.82989509835515,,-1.0994744814922899,,
,4536.0,1058.0,6526.0,503.0,1973.0,3461.0,136.0,2025-07-02 22:23:41,83.0,,1.93693116308702,-2.71861209876111,-1.82941325799647,,-1.8845430196602393,,
,4537.0,1055.0,6529.0,502.0,1986.0,3449.0,122.0,2025-07-02 22:23:42,82.0,,1.93825904301448,-2.71825813309529,-1.82925654924937,,-2.6478541648824514,,
,4539.0,1058.0,6532.0,504.0,1991.0,3475.0,122.0,2025-07-02 22:23:43,80.0,,1.93835343510442,-2.7166389181278,-1.82979211859399,,-3.3854019893275615,,
,4539.0,1060.0,6532.0,504.0,1989.0,3487.0,127.0,2025-07-02 22:23:44,80.0,,1.93889333170096,-2.71854622282187,-1.82919387072762,,-4.093714863035607,,
,4541.0,1059.0,6536.0,505.0,1981.0,3452.0,123.0,2025-07-02 22:23:45,79.0,,1.93843486949691,-2.7180668457395,-1.82970710137287,,-4.76983160653688,,
,4542.0,1060.0,6538.0,503.0,1982.0,3460.0,136.0,2025-07-02 22:23:46,78.0,,1.93883653089699,-2.71793817107734,-1.82862361612169,,-5.411249330539231,,
,4543.0,1062.0,6542.0,507.0,1987.0,3443.0,130.0,2025-07-02 22:23:47,78.0,,1.93935695328205,-2.71900632754208,-1.83059424734304,,-6.015862894784939,,
,4544.0,1062.0,6544.0,504.0,1994.0,3459.0,137.0,2025-07-02 22:23:48,77.0,,1.93904749157251,-2.7191735578401,-1.82956192292,,-6.581914949500893,,
,4545.0,1063.0,6548.0,505.0,1990.0,3461.0,139.0,2025-07-02 22:23:49,76.0,,1.93888859468971,-2.71813807759396,-1.82955150605631,,-7.107971254326804,,
,4546.0,1061.0,6550.0,504.0,1997.0,3446.0,155.0,2025-07-02 22:23:50,76.0,,1.93960739187484,-2.71815974936693,-1.82996073762701,,-7.5929301106322615,,
,4549.0,1066.0,6555.0,507.0,1994.0,3470.0,141.0,2025-07-02 22:23:51,76.0,,1.9384000532801,-2.71860279388062,-1.82923081132441,,-8.036068327047213,,
,4549.0,1064.0,6559.0,506.0,1994.0,3447.0,128.0,2025-07-02 22:23:52,76.0,,1.93806777866441,-2.71933944946007,-1.82993226696578,,-8.437119447680223,,
,4556.0,1068.0,6567.0,508.0,1983.0,3434.0,127.0,2025-07-02 22:23:53,77.0,,1.93878085199444,-2.71844501080442,-1.82948370783921,,-8.79637299087833,,
,4556.0,1065.0,6569.0,506.0,1972.0,3457.0,125.0,2025-07-02 22:23:54,76.0,,1.93944666578477,-2.71873440733961,-1.82974033107015,,-9.114776563869672,,
,4554.0,1068.0,6571.0,505.0,1980.0,3449.0,117.0,2025-07-02 22:23:55,76.0,,1.93908748816926,-2.71842218709766,-1.8292518028571,,-9.39401726645506,,
,4561.0,1071.0,6578.0,507.0,1969.0,3431.0,133.0,2025-07-02 22:23:56,75.0,,1.93903810801549,-2.71761513550134,-1.82956919189158,,-9.636556841836564,,
,4563.0,1072.0,6582.0,509.0,1973.0,3435.0,137.0,2025-07-02 22:23:57,74.0,,1.93887400299561,-2.7167749205973,-1.83032599104819,,-9.845598256869591,,
2025-07-02 22:21:51,4565.0,1072.0,6589.0,507.0,1993.0,3459.0,132.0,2025-07-02 22:23:58,75.0,2025/07/02 10:21:51 PM,1.93973101552746,-2.71865865035811,-1.82942644431428,,-10.024969868080625,,
,4564.0,1073.0,6591.0,508.0,1977.0,3453.0,146.0,2025-07-02 22:23:59,76.0,,1.93908554906185,-2.71777143219653,-1.82917532855721,,-10.178925307386809,,
,4568.0,1075.0,6599.0,510.0,1990.0,3452.0,138.0,2025-07-02 22:24:00,77.0,,1.93993022347519,-2.71770057665596,-1.82982749289297,,-10.311870051896443,,
,4569.0,1078.0,6602.0,509.0,1989.0,3454.0,153.0,2025-07-02 22:24:01,78.0,,1.93994897635453,-2.71750129091041,-1.8298103163624,,-10.428036901821308,,
,4570.0,1078.0,6610.0,509.0,1985.0,3465.0,151.0,2025-07-02 22:24:02,78.0,,1.93939454101707,-2.71773403249126,-1.82920289222391,,-10.531140695437848,,
,4573.0,1078.0,6613.0,510.0,1982.0,3455.0,136.0,2025-07-02 22:24:03,78.0,,1.94043197219991,-2.71635342604131,-1.83011500999622,,-10.624046820577302,,
,4578.0,1080.0,6618.0,511.0,1967.0,3458.0,136.0,2025-07-02 22:24:04,78.0,,1.9404255843501,-2.71837453399719,-1.83081877131445,,-10.708488299495825,,
,4581.0,1083.0,6623.0,512.0,1976.0,3441.0,134.0,2025-07-02 22:24:05,77.0,,1.93968746369529,-2.71734102613179,-1.83020866889565,,-10.78486256463891,,
,4584.0,1081.0,6625.0,511.0,1977.0,3449.0,129.0,2025-07-02 22:24:06,78.0,,1.9402764670675,-2.71734996238933,-1.83020441808214,,-10.852131767507055,,
,4585.0,1084.0,6629.0,510.0,1988.0,3449.0,147.0,2025-07-02 22:24:07,79.0,,1.93993615957246,-2.71680257088051,-1.82980042151035,,-10.907840008503882,,
,4588.0,1083.0,6639.0,511.0,1979.0,3443.0,141.0,2025-07-02 22:24:08,79.0,,1.93982664976006,-2.71717358607414,-1.83050883390963,,-10.948248064173026,,
,4590.0,1086.0,6644.0,513.0,1976.0,3467.0,134.0,2025-07-02 22:24:09,79.0,,1.93969820484385,-2.71642542545699,-1.8303648309735,,-10.96857251278328,,
,4593.0,1089.0,6649.0,512.0,1969.0,3462.0,144.0,2025-07-02 22:24:10,78.0,,1.94002098508828,-2.71682008844476,-1.83144431344075,,-10.963303927156204,,
,4595.0,1088.0,6655.0,511.0,1979.0,3459.0,139.0,2025-07-02 22:24:11,78.0,,1.9400644357155,-2.71711849598333,-1.83094746489089,,-10.926570642545549,,
,4599.0,1092.0,6658.0,513.0,1976.0,3471.0,137.0,2025-07-02 22:24:12,77.0,,1.94001326923352,-2.71778092396213,-1.83028132656599,,-10.852512199140444,,
,4603.0,1092.0,6666.0,514.0,1963.0,3449.0,148.0,2025-07-02 22:24:13,77.0,,1.94013402576969,-2.7174886398606,-1.82973265844493,,-10.735629583771132,,
,4604.0,1092.0,6671.0,513.0,1960.0,3458.0,138.0,2025-07-02 22:24:14,78.0,,1.94085060281956,-2.71629008108961,-1.83080251674709,,-10.57108584912131,,
,4605.0,1094.0,6676.0,513.0,1988.0,3475.0,146.0,2025-07-02 22:24:15,78.0,,1.94018920997228,-2.71779163392164,-1.83067783619611,,-10.354938346314455,,
,4607.0,1097.0,6680.0,513.0,1992.0,3482.0,131.0,2025-07-02 22:24:16,77.0,,1.94059676896549,-2.71573442113924,-1.83092604817311,,-10.084291530981359,,
,4612.0,1098.0,6685.0,512.0,1987.0,3489.0,129.0,2025-07-02 22:24:17,77.0,,1.94002171531909,-2.71682356569792,-1.8304156225961,,-9.757367236305727,,
,4618.0,1101.0,6692.0,514.0,1963.0,3462.0,132.0,2025-07-02 22:24:18,77.0,,1.9410167127016,-2.71611882301547,-1.82917191936665,,-9.373497971564612,,
,4618.0,1102.0,6699.0,515.0,1958.0,3460.0,139.0,2025-07-02 22:24:19,77.0,,1.94056153993723,-2.71591682979682,-1.83058591591762,,-8.933057877944389,,
,4620.0,1103.0,6704.0,519.0,1958.0,3456.0,125.0,2025-07-02 22:24:20,78.0,,1.93979356947437,-2.71737306284599,-1.8310430611112,,-8.43735366048565,,
,4622.0,1103.0,6710.0,516.0,1956.0,3444.0,133.0,2025-07-02 22:24:21,80.0,,1.94016299897879,-2.71619306207152,-1.83061681739412,,-7.888501377677306,,
,4626.0,1106.0,6713.0,518.0,1961.0,3457.0,128.0,2025-07-02 22:24:22,80.0,,1.94059724806171,-2.71614662742893,-1.83148157794726,,-7.289312230727029,,
,4627.0,1108.0,6715.0,517.0,1967.0,3468.0,149.0,2025-07-02 22:24:23,80.0,,1.94098540242565,-2.71670920525458,-1.82982827242934,,-6.643201443068384,,
,4619.0,1099.0,6712.0,513.0,1970.0,3452.0,153.0,2025-07-02 22:24:24,80.0,,1.94085698910678,-2.71631934612821,-1.83027240541575,,-5.9541217665626025,,
,4614.0,1098.0,6707.0,515.0,1972.0,3487.0,144.0,2025-07-02 22:24:25,80.0,,1.94081096926955,-2.71608246740143,-1.83112509995397,,-5.226511709177269,,
,4608.0,1096.0,6693.0,513.0,1953.0,3474.0,145.0,2025-07-02 22:24:26,80.0,,1.94105158808565,-2.71662943733105,-1.83015574644095,,-4.465242294807862,,
,4596.0,1090.0,6679.0,512.0,1955.0,3471.0,142.0,2025-07-02 22:24:27,81.0,,1.94142958531401,-2.71595339759864,-1.82976676822208,,-3.6755464571311047,,
,4586.0,1083.0,6658.0,509.0,1960.0,3461.0,147.0,2025-07-02 22:24:28,81.0,,1.94142981848861,-2.71648751908328,-1.83125979749161,,-2.862920693043052,,
,4573.0,1081.0,6635.0,507.0,1966.0,3453.0,154.0,2025-07-02 22:24:29,81.0,,1.94085927888455,-2.71667746537082,-1.83010096930918,,-2.0329967311942365,,
,4562.0,1073.0,6619.0,505.0,1970.0,3433.0,135.0,2025-07-02 22:24:30,81.0,,1.94222850010597,-2.71569047174951,-1.83076879843665,,-1.19138929401742,,
,4550.0,1068.0,6595.0,504.0,1971.0,3444.0,141.0,2025-07-02 22:24:31,80.0,,1.94159471741164,-2.71572947453228,-1.83094810536297,,-0.3435329136722119,,
,4538.0,1064.0,6573.0,503.0,1953.0,3440.0,162.0,2025-07-02 22:24:32,80.0,,1.94208643199535,-2.71623679768592,-1.83117628010175,,0.5054747916210546,,
,4526.0,1056.0,6553.0,500.0,1951.0,3452.0,173.0,2025-07-02 22:24:33,80.0,,1.94171533703402,-2.71573517997769,-1.83025157682072,,1.3510045826016848,,
,4516.0,1052.0,6540.0,500.0,1960.0,3447.0,131.0,2025-07-02 22:24:34,80.0,,1.94201149479643,-2.71371692507728,-1.83067472499011,,2.188985038404588,,
,4507.0,1052.0,6526.0,498.0,1978.0,3447.0,123.0,2025-07-02 22:24:35,80.0,,1.94150132369456,-2.7138802250914,-1.83083383552991,,3.015938781582882,,
,4502.0,1047.0,6511.0,499.0,1982.0,3441.0,122.0,2025-07-02 22:24:36,79.0,,1.94263709073511,-2.71549109688405,-1.83093981985671,,3.8289630927951186,,
,4495.0,1046.0,6502.0,496.0,1972.0,3457.0,116.0,2025-07-02 22:24:37,78.0,,1.94232643643176,-2.71418911499163,-1.83130451331752,,4.6256631892612665,,
,4489.0,1045.0,6492.0,496.0,1965.0,3444.0,111.0,2025-07-02 22:24:38,78.0,,1.94213023453637,-2.71446272902654,-1.83091951206846,,5.4040562094866775,,
,4484.0,1041.0,6487.0,498.0,1952.0,3441.0,138.0,2025-07-02 22:24:39,78.0,,1.94256941275321,-2.71442302159139,-1.83002405517139,,6.1624693233541175,,
,4480.0,1042.0,6477.0,496.0,1967.0,3431.0,130.0,2025-07-02 22:24:40,79.0,,1.94284805732588,-2.7144926070808,-1.83005702296138,,6.899454139605293,,
,4477.0,1039.0,6474.0,493.0,1991.0,3461.0,136.0,2025-07-02 22:24:41,79.0,,1.94265762879878,-2.71511337156896,-1.8311844579199,,7.613732174606711,,
,4476.0,1040.0,6471.0,494.0,1988.0,3458.0,136.0,2025-07-02 22:24:42,79.0,,1.94285428432568,-2.71455246648506,-1.83104953878821,,8.304175191124969,,
,4475.0,1040.0,6469.0,497.0,1970.0,3450.0,140.0,2025-07-02 22:24:43,79.0,,1.94309180342094,-2.71530641434795,-1.83161377867897,,8.969812800809011,,
,4470.0,1036.0,6467.0,497.0,1977.0,3454.0,141.0,2025-07-02 22:24:44,79.0,,1.94259205347497,-2.71446058620559,-1.83070232476953,,9.609850274063726,,
,4466.0,1037.0,6467.0,498.0,1980.0,3456.0,125.0,2025-07-02 22:24:45,78.0,,1.94367518934431,-2.71529688949869,-1.83081799620256,,10.223673669628505,,
,4466.0,1037.0,6462.0,495.0,1979.0,3446.0,135.0,2025-07-02 22:24:46,79.0,,1.94311568792975,-2.7136366258611,-1.83161665563465,,10.810818394910783,,
,4466.0,1035.0,6463.0,494.0,1990.0,3458.0,148.0,2025-07-02 22:24:47,79.0,,1.94378970249681,-2.71405374689667,-1.83146885010255,,11.370881991670707,,
,4464.0,1036.0,6461.0,496.0,1987.0,3464.0,117.0,2025-07-02 22:24:48,79.0,,1.94438034407941,-2.71444620464083,-1.83115622441261,,11.9033724164446,,
,4463.0,1036.0,6463.0,495.0,1987.0,3483.0,116.0,2025-07-02 22:24:49,79.0,,1.94431261097537,-2.71333417397622,-1.83208307827213,,12.407498104226358,,
,4463.0,1036.0,6463.0,494.0,1971.0,3469.0,154.0,,,,1.94422727555108,-2.71237497930544,-1.83153482166626,,12.881922697805173,,
,4466.0,1035.0,6465.0,495.0,1962.0,3464.0,154.0,,,,1.94439359190014,-2.71350643060221,-1.83160207935471,,13.324521144210445,,
,4466.0,1036.0,6467.0,496.0,1973.0,3442.0,145.0,,,,1.94388469889176,-2.71360557306393,-1.83072397719117,,13.732180602027025,,
,4463.0,1038.0,6467.0,496.0,1976.0,3438.0,149.0,,,,1.94395937931394,-2.71198301454898,-1.83145548809986,,14.100687051405373,,
,4464.0,1038.0,6470.0,496.0,1980.0,3460.0,161.0,,,,1.94399786241476,-2.71318293216503,-1.83083228176603,,14.424727598843097,,
,4466.0,1037.0,6474.0,496.0,1973.0,3450.0,166.0,,,,1.94404335092417,-2.71224819109315,-1.83080905897607,,14.698022403020618,,
,4465.0,1036.0,6474.0,497.0,1970.0,3445.0,156.0,,,,1.94411754526194,-2.71197062842227,-1.83104010972879,,14.913582408970562,,
,4466.0,1039.0,6477.0,496.0,1964.0,3445.0,156.0,,,,1.94450927101825,-2.71263223952589,-1.83094198659576,,15.064072443561754,,
,4467.0,1040.0,6480.0,496.0,1975.0,3456.0,140.0,,,,1.94346507165804,-2.71320222897878,-1.83175372593514,,15.14224594526385,,
,4467.0,1037.0,6481.0,498.0,1970.0,3456.0,146.0,,,,1.94368003419889,-2.71203908961871,-1.8314277019533,,15.141409514003158,,
,4468.0,1041.0,6486.0,498.0,1956.0,3473.0,155.0,,,,1.94424806448331,-2.7118566234429,-1.83106624287697,,15.055873448226977,,
,4467.0,1041.0,6485.0,499.0,1957.0,3474.0,149.0,,,,1.94321663214434,-2.71287260007378,-1.83113318059722,,14.881348035576023,,
,4464.0,1038.0,6484.0,498.0,1963.0,3460.0,174.0,,,,1.9428686147406,-2.71320180680365,-1.83091525587576,,14.615253268610596,,
,4464.0,1038.0,6487.0,492.0,1965.0,3464.0,162.0,,,,1.94346996095173,-2.71353881909581,-1.83109263422765,,14.25692037702528,,
,4468.0,1041.0,6487.0,498.0,1978.0,3459.0,158.0,,,,1.94410504687405,-2.71235442077211,-1.83173057658009,,13.807675595845264,,
,4463.0,1039.0,6488.0,498.0,1983.0,3457.0,158.0,,,,1.94303577911185,-2.71187287389191,-1.83176686831545,,13.270808326993475,,
,4466.0,1039.0,6487.0,497.0,1979.0,3457.0,148.0,,,,1.94296056350636,-2.71226646497773,-1.83056729208952,,12.651435935232833,,
,4462.0,1039.0,6490.0,495.0,1974.0,3458.0,140.0,,,,1.94332563007861,-2.71377525190519,-1.83181685998223,,11.956285125708765,,
,4462.0,1038.0,6490.0,496.0,1959.0,3450.0,123.0,,,,1.94308379211472,-2.71226943730173,-1.83160816476959,,11.19341480861871,,
,4465.0,1041.0,6491.0,496.0,1980.0,3482.0,135.0,,,,1.9434054712922,-2.71258603288846,-1.83185184667652,,10.37190695851048,,
,4465.0,1038.0,6492.0,496.0,1983.0,3490.0,141.0,,,,1.94344760143188,-2.7117312254766,-1.83156163673666,,9.50154959007417,,
,4461.0,1039.0,6494.0,496.0,1974.0,3460.0,142.0,,,,1.94308553071161,-2.71298727154452,-1.83095565006433,,8.59252986884781,,
,4465.0,1040.0,6495.0,495.0,1973.0,3465.0,157.0,,,,1.9438040511258,-2.71206524711788,-1.83149632969333,,7.6551471389937085,,
,4465.0,1039.0,6499.0,497.0,1971.0,3478.0,172.0,,,,1.94326574,-2.71216260408903,-1.83108397957728,,6.699547540070048,,
,4464.0,1041.0,6500.0,496.0,1970.0,3481.0,163.0,,,,1.94425360057325,-2.71124071067833,-1.8316187393969,,5.735475914673546,,
,4466.0,1042.0,6503.0,495.0,1982.0,3445.0,168.0,,,,1.94378762631433,-2.71156442858342,-1.83168113700392,,4.772038368653941,,
,4465.0,1041.0,6506.0,496.0,1984.0,3453.0,163.0,,,,1.94349774031253,-2.71317045445344,-1.83135554510165,,3.8174712516100437,,
,4469.0,1043.0,6511.0,499.0,1989.0,3466.0,140.0,,,,1.94296028539865,-2.71132387655346,-1.83124322168972,,2.8789198526590853,,
,4473.0,1045.0,6514.0,499.0,1978.0,3465.0,134.0,,,,1.94424695723007,-2.71221132163869,-1.8318941730892,,1.9622412778505682,,
,4473.0,1046.0,6519.0,498.0,1957.0,3464.0,136.0,,,,1.94348791136034,-2.71263686699736,-1.83279273260126,,1.071856757892463,,
,4472.0,1043.0,6523.0,498.0,1961.0,3458.0,143.0,,,,1.94390025352843,-2.71134389619872,-1.83162878960492,,0.21068364647996246,,
,4475.0,1046.0,6526.0,498.0,1972.0,3431.0,147.0,,,,1.94430621405556,-2.71085361650875,-1.83090167503271,,-0.6198270894132548,,
,4477.0,1048.0,6531.0,499.0,1964.0,3436.0,159.0,,,,1.94490935088993,-2.71183717805097,-1.83127054790208,,-1.4195355432069166,,
,4481.0,1047.0,6535.0,501.0,1978.0,3451.0,148.0,,,,1.94409315744744,-2.71159274150443,-1.83125250623167,,-2.1893456096295445,,
,4480.0,1050.0,6538.0,500.0,1972.0,3426.0,140.0,,,,1.94483374097337,-2.71139636066586,-1.83100924692461,,-2.93084962625459,,
,4483.0,1051.0,6548.0,501.0,1966.0,3462.0,140.0,,,,1.9452558895127,-2.71147797098457,-1.83216480125193,,-3.6459227348348406,,
,4485.0,1051.0,6549.0,501.0,1970.0,3476.0,149.0,,,,1.94505393881016,-2.71146252318049,-1.83236313232583,,-4.336312982348939,,
,4487.0,1054.0,6554.0,500.0,1961.0,3468.0,152.0,,,,1.94547187882463,-2.7110765238676,-1.83213389569435,,-5.003274846052664,,
,4489.0,1054.0,6559.0,500.0,1967.0,3453.0,153.0,,,,1.94571687019821,-2.71051943723348,-1.83208927046512,,-5.647289080786998,,
,4493.0,1056.0,6564.0,501.0,1985.0,3445.0,150.0,,,,1.9458016037776,-2.71055626235863,-1.83252027312845,,-6.267901509970762,,
,4495.0,1058.0,6574.0,504.0,1981.0,3468.0,139.0,,,,1.94547424690489,-2.71165295601618,-1.83260298311847,,-6.863699056881778,,
,4501.0,1059.0,6575.0,503.0,1977.0,3466.0,139.0,,,,1.94660402783171,-2.71093732799044,-1.83250848271653,,-7.432424369061146,,
,4500.0,1057.0,6581.0,502.0,1963.0,3483.0,135.0,,,,1.94667869971406,-2.70965849878973,-1.8309271852135,,-7.97121240960736,,
,4503.0,1060.0,6584.0,502.0,1968.0,3454.0,132.0,,,,1.94554888820634,-2.71100060865912,-1.83245723062533,,-8.476915769248016,,
,4507.0,1064.0,6593.0,504.0,1963.0,3457.0,134.0,,,,1.94543713956284,-2.7101162114545,-1.83202053281641,,-8.946473496183092,,
,4508.0,1064.0,6598.0,503.0,1969.0,3461.0,135.0,,,,1.9461452359318,-2.71007639834152,-1.83187331222817,,-9.377273992851645,,
,4513.0,1066.0,6602.0,503.0,1974.0,3487.0,136.0,,,,1.94607266316762,-2.70999654155916,-1.83106926253586,,-9.76746698508162,,
,4512.0,1063.0,6605.0,503.0,1964.0,3454.0,140.0,,,,1.94638416707016,-2.71020858279924,-1.83185282436485,,-10.116190916557697,,
,4517.0,1068.0,6615.0,505.0,1968.0,3449.0,151.0,,,,1.9459638800964,-2.70931225871872,-1.83264737379064,,-10.423696809907367,,
,4523.0,1068.0,6618.0,506.0,1965.0,3468.0,167.0,,,,1.94538023247693,-2.70954194101888,-1.83207426119457,,-10.69136419552391,,
,4522.0,1069.0,6625.0,506.0,1962.0,3447.0,163.0,,,,1.9460082494155,-2.70910403377018,-1.83130280030488,,-10.921616866623387,,
,4525.0,1070.0,6629.0,505.0,1955.0,3438.0,150.0,,,,1.94608979431637,-2.71011915567671,-1.83132024827999,,-11.11775500404171,,
,4528.0,1073.0,6636.0,505.0,1947.0,3443.0,143.0,,,,1.94668727165653,-2.71008801404708,-1.83255576074287,,-11.283725568815234,,
,4531.0,1074.0,6641.0,505.0,1945.0,3440.0,141.0,,,,1.94617887510494,-2.70876760164725,-1.83203180074464,,-11.423855175707363,,
,4537.0,1076.0,6648.0,505.0,1951.0,3444.0,142.0,,,,1.94611884716576,-2.70971012117038,-1.83231556248482,,-11.542569381589463,,
,4538.0,1075.0,6652.0,506.0,1964.0,3463.0,141.0,,,,1.94632673548341,-2.70952187245166,-1.83225959336677,,-11.644119710543055,,
,4539.0,1077.0,6659.0,510.0,1962.0,3452.0,169.0,,,,1.94542457544247,-2.7099890625599,-1.83207599035335,,-11.732334945386555,,
,4543.0,1080.0,6662.0,507.0,1967.0,3464.0,191.0,,,,1.94595813180378,-2.70947608415045,-1.83235596324333,,-11.810406710058368,,
,4548.0,1081.0,6671.0,508.0,1966.0,3468.0,190.0,,,,1.94643947454391,-2.7099726068307,-1.83247181978613,,-11.880712436837836,,
,4550.0,1083.0,6677.0,509.0,1976.0,3455.0,180.0,,,,1.9458825945084,-2.70985666484757,-1.8318951940441,,-11.944673590671387,,
,4552.0,1083.0,6685.0,509.0,1969.0,3468.0,179.0,,,,1.94575575909076,-2.70907177849715,-1.83276761471842,,-12.002645591299052,,
,4558.0,1086.0,6689.0,509.0,1980.0,3467.0,170.0,,,,1.94603333366895,-2.70948074233175,-1.83339267862192,,-12.053838848781131,,
,4559.0,1088.0,6695.0,511.0,1982.0,3473.0,171.0,,,,1.94588573921071,-2.70907860233756,-1.83186110012212,,-12.096276140301752,,
,4562.0,1087.0,6701.0,509.0,1968.0,3455.0,173.0,,,,1.94622889460943,-2.70995151473326,-1.83221281803005,,-12.126797191985798,,
,4561.0,1089.0,6703.0,509.0,1973.0,3454.0,165.0,,,,1.94595619066292,-2.70950961358989,-1.83369833527816,,-12.14112394763617,,
,4563.0,1088.0,6707.0,510.0,1969.0,3479.0,146.0,,,,1.94658452974459,-2.7080367949669,-1.83298929569044,,-12.133998160905753,,
,4562.0,1088.0,6707.0,510.0,1967.0,3482.0,119.0,,,,1.94691309175057,-2.7083537158335,-1.83282968158958,,-12.099396803888517,,
,4554.0,1083.0,6698.0,509.0,1965.0,3479.0,126.0,,,,1.9460145502746,-2.70859519441757,-1.83306396142107,,-12.030821681383395,,
,4544.0,1077.0,6682.0,504.0,1970.0,3477.0,142.0,,,,1.94671520150395,-2.7078117655997,-1.83254028249285,,-11.92164952565565,,
,4536.0,1076.0,6668.0,505.0,1959.0,3473.0,143.0,,,,1.9466040841228,-2.70934687525001,-1.83368569182536,,-11.76551975675783,,
,4521.0,1070.0,6646.0,502.0,1964.0,3456.0,167.0,,,,1.94699102456311,-2.70879477242004,-1.83292679456376,,-11.55673063879185,,
,4510.0,1062.0,6627.0,500.0,1960.0,3468.0,167.0,,,,1.94767846396984,-2.70836753142164,-1.83194966209664,,-11.290611550293656,,
,4493.0,1054.0,6604.0,496.0,1950.0,3458.0,167.0,,,,1.94743489132027,-2.70917632266196,-1.83282518182419,,-10.963839510337614,,
,4485.0,1051.0,6583.0,499.0,1952.0,3447.0,153.0,,,,1.94748032770204,-2.70855561718554,-1.83374855551376,,-10.574671621209664,,
,4472.0,1048.0,6564.0,496.0,1951.0,3471.0,149.0,,,,1.94895256857079,-2.70866921727214,-1.83259262590127,,-10.123071655615622,,
,4461.0,1045.0,6546.0,496.0,1969.0,3480.0,145.0,,,,1.94912071111585,-2.70778439743112,-1.83357304659242,,-9.610718800883129,,
2025-07-02 22:21:52,4452.0,1041.0,6531.0,494.0,1969.0,3467.0,152.0,,,2025/07/02 10:21:52 PM,1.94943929654286,-2.7082304674713,-1.83363566627136,,-9.040898982481659,,
,4444.0,1034.0,6518.0,493.0,1954.0,3453.0,178.0,,,,1.94879143198574,-2.70815949076911,-1.83225387522546,,-8.418292205543985,,
,4439.0,1035.0,6507.0,494.0,1964.0,3467.0,168.0,,,,1.94950153657809,-2.70682546923151,-1.83243023659344,,-7.748680258854997,,
,4431.0,1031.0,6500.0,491.0,1980.0,3480.0,165.0,,,,1.94938509370745,-2.70834235279841,-1.83500896983103,,-7.0386059363219795,,
,4427.0,1028.0,6490.0,490.0,1981.0,3473.0,158.0,,,,1.95026013638791,-2.70818258056926,-1.83410734033369,,-6.295017149965555,,
,4423.0,1027.0,6484.0,490.0,1973.0,3461.0,168.0,,,,1.95032599531713,-2.70731672236384,-1.83286000220231,,-5.524927666272159,,
,4419.0,1027.0,6482.0,491.0,1961.0,3472.0,156.0,,,,1.94938950527148,-2.70745275384218,-1.83297502671601,,-4.735121896442344,,
,4416.0,1022.0,6477.0,490.0,1977.0,3459.0,143.0,,,,1.94925739571024,-2.70623583316636,-1.8332830578037,,-3.9319251310682244,,
,4415.0,1026.0,6475.0,491.0,1974.0,3449.0,142.0,,,,1.94977807448277,-2.70779671706624,-1.83414409649966,,-3.1210530350511028,,
,4412.0,1021.0,6470.0,489.0,1966.0,3453.0,163.0,,,,1.94990587613466,-2.70735333368054,-1.83349901862663,,-2.307544790127893,,
,4412.0,1024.0,6472.0,489.0,1969.0,3451.0,170.0,,,,1.95079835928393,-2.7058659666136,-1.83327846072493,,-1.4957730369048068,,
,4410.0,1024.0,6470.0,492.0,1968.0,3473.0,142.0,,,,1.95035550612416,-2.70776431291854,-1.83256116522237,,-0.6895121858045117,,
,4408.0,1025.0,6469.0,490.0,1967.0,3477.0,153.0,,,,1.95065093183873,-2.70555514313415,-1.83395368280284,,0.10796220409047665,,
,4407.0,1020.0,6464.0,490.0,1972.0,3483.0,152.0,,,,1.95044982932879,-2.70526669746032,-1.83473470657617,,0.8937731358392584,,
,4405.0,1022.0,6465.0,489.0,1971.0,3473.0,153.0,,,,1.95055677008191,-2.70540805957588,-1.83460135708041,,1.6653665604068513,,
,4405.0,1020.0,6468.0,492.0,1960.0,3455.0,152.0,,,,1.95002509040394,-2.7058486742165,-1.83366482553662,,2.4204754835420625,,
,4405.0,1024.0,6466.0,490.0,1967.0,3461.0,152.0,,,,1.94979379110533,-2.70559374754116,-1.83365165826382,,3.1571256723938803,,
,4404.0,1020.0,6469.0,489.0,1969.0,3439.0,168.0,,,,1.95075859348154,-2.70788511824137,-1.83424053728849,,3.8736724817905994,,
,4405.0,1023.0,6471.0,490.0,1976.0,3442.0,175.0,,,,1.95045675633597,-2.70631603694768,-1.83453977342982,,4.568849248205412,,
,4409.0,1023.0,6475.0,490.0,1970.0,3453.0,168.0,,,,1.95060852274536,-2.70602274418958,-1.83398773540953,,5.241803337876826,,
,4408.0,1027.0,6477.0,492.0,1971.0,3466.0,160.0,,,,1.95062467148372,-2.7069669698616,-1.83343738238586,,5.892096926530929,,
,4409.0,1026.0,6481.0,491.0,1967.0,3463.0,157.0,,,,1.94976457742,-2.70606273064808,-1.83449217951985,,6.519655918306419,,
,4408.0,1025.0,6480.0,489.0,1968.0,3456.0,155.0,,,,1.94982121682443,-2.70689910709603,-1.83431538395419,,7.12466131579928,,
,4413.0,1024.0,6484.0,493.0,1971.0,3480.0,162.0,,,,1.94942297101462,-2.70633114198357,-1.83435853633487,,7.707391139244001,,
,4411.0,1026.0,6488.0,495.0,1966.0,3488.0,170.0,,,,1.9487369265096,-2.70732229695546,-1.83404422472314,,8.268034865041528,,
,4414.0,1025.0,6492.0,492.0,1958.0,3485.0,185.0,,,,1.94851112025379,-2.70623671425068,-1.83349846076752,,8.806512596564852,,
,4413.0,1024.0,6493.0,490.0,1952.0,3468.0,177.0,,,,1.94838384106925,-2.70704351623755,-1.83427542996292,,9.322334321350954,,
,4413.0,1027.0,6491.0,493.0,1958.0,3467.0,171.0,,,,1.94777430324865,-2.70720668444922,-1.83521356026609,,9.814529226409668,,
,4413.0,1027.0,6495.0,494.0,1953.0,3467.0,165.0,,,,1.94848926712379,-2.70660848925944,-1.83478100081287,,10.281662643844573,,
,4413.0,1026.0,6497.0,491.0,1950.0,3469.0,159.0,,,,1.94827612377427,-2.70663283749761,-1.83408020505852,,10.721942233457492,,
,4412.0,1025.0,6496.0,493.0,1944.0,3471.0,174.0,,,,1.94803264519122,-2.70764638075158,-1.83435371972915,,11.13339901487219,,
,4414.0,1027.0,6499.0,494.0,1942.0,3454.0,168.0,,,,1.94832951050438,-2.70718853442813,-1.83450863866449,,11.514115386420324,,
,4413.0,1026.0,6500.0,494.0,1946.0,3460.0,161.0,,,,1.94740958722002,-2.7072165148552,-1.83436241166903,,11.862462991559273,,
,4413.0,1027.0,6498.0,493.0,1943.0,3452.0,164.0,,,,1.94808702053109,-2.70694130258898,-1.8342116261176,,12.177309423711623,,
,4412.0,1024.0,6500.0,490.0,1965.0,3458.0,162.0,,,,1.94846897654715,-2.70673230843563,-1.83433081476675,,12.458155013849222,,
,4414.0,1026.0,6504.0,491.0,1987.0,3492.0,142.0,,,,1.94736605162539,-2.70737028183344,-1.83461885225217,,12.705169455186006,,
,4413.0,1030.0,6505.0,493.0,1990.0,3490.0,161.0,,,,1.9480399213745,-2.70688467493457,-1.83508716116622,,12.919112349862417,,
,4413.0,1027.0,6507.0,493.0,1987.0,3491.0,160.0,,,,1.94856129600621,-2.70663733234085,-1.83498208611518,,13.10114046070922,,
,4414.0,1028.0,6509.0,492.0,1971.0,3465.0,159.0,,,,1.94865048884351,-2.70676719870629,-1.83495136141993,,13.252524331659403,,
,4414.0,1027.0,6507.0,492.0,1981.0,3465.0,144.0,,,,1.94835120194294,-2.70601922294051,-1.83550709223156,,13.374313465705221,,
,4416.0,1028.0,6515.0,492.0,1984.0,3483.0,136.0,,,,1.94820645390933,-2.70585537700101,-1.8344041493429,,13.466998479760166,,
,4417.0,1027.0,6516.0,495.0,1961.0,3475.0,170.0,,,,1.94787552395546,-2.70766918064874,-1.83523455486101,,13.530219214903017,,
,4417.0,1031.0,6521.0,494.0,1964.0,3471.0,168.0,,,,1.94777956893014,-2.70685731506271,-1.83519798758754,,13.562560975761055,,
,4418.0,1031.0,6522.0,494.0,1962.0,3457.0,156.0,,,,1.94744246195221,-2.70767907880715,-1.83409633886005,,13.561469314813538,,
,4421.0,1032.0,6526.0,494.0,1959.0,3452.0,153.0,,,,1.94703015972871,-2.70679685961713,-1.83545731749564,,13.523299198050683,,
,4425.0,1035.0,6532.0,496.0,1957.0,3442.0,150.0,,,,1.94823249469698,-2.70663231845803,-1.83408099077209,,13.443498723359179,,
,4426.0,1034.0,6534.0,495.0,1965.0,3451.0,145.0,,,,1.94825766387124,-2.7074410275532,-1.83515335587049,,13.316912478448502,,
,4430.0,1031.0,6539.0,492.0,1965.0,3458.0,160.0,,,,1.94797397481029,-2.70580951549464,-1.83440503447313,,13.138176629195831,,
,4429.0,1034.0,6543.0,496.0,1962.0,3462.0,150.0,,,,1.94828445109901,-2.70690742631006,-1.83430070136042,,12.90216807681857,,
,4433.0,1038.0,6549.0,498.0,1958.0,3454.0,181.0,,,,1.9489912203503,-2.70656328171455,-1.83510033335399,,12.604464368519597,,
,4436.0,1037.0,6554.0,497.0,1957.0,3457.0,178.0,,,,1.94918032787128,-2.70639286938715,-1.83533866144218,,12.24176999765259,,
,4435.0,1037.0,6555.0,493.0,1967.0,3467.0,164.0,,,,1.94914807085226,-2.70651916144636,-1.83507040718677,,11.812268161593924,,
,4440.0,1043.0,6562.0,498.0,1970.0,3461.0,162.0,,,,1.94911933390001,-2.70540989251773,-1.83481849856489,,11.315864270593735,,
,4442.0,1043.0,6569.0,495.0,1965.0,3491.0,157.0,,,,1.94868161133254,-2.70714209494187,-1.83574512002421,,10.754297848158773,,
,4447.0,1044.0,6574.0,497.0,1963.0,3491.0,152.0,,,,1.9494085184555,-2.70683759546351,-1.83505389402038,,10.13111243621045,,
,4447.0,1045.0,6578.0,498.0,1951.0,3457.0,150.0,,,,1.9496072832059,-2.70638174164936,-1.8350702526813,,9.451487682862199,,
,4449.0,1046.0,6585.0,500.0,1961.0,3425.0,152.0,,,,1.94970431088187,-2.70609318266437,-1.83537601967935,,8.72195201752204,,
,4453.0,1050.0,6590.0,500.0,1955.0,3438.0,163.0,,,,1.9489165568554,-2.70652056049377,-1.83557625916043,,7.95000621719562,,
,4455.0,1049.0,6597.0,500.0,1956.0,3452.0,174.0,,,,1.94868688350957,-2.70774154813361,-1.83556042823387,,7.143696556925931,,
,4459.0,1050.0,6600.0,499.0,1963.0,3456.0,159.0,,,,1.94951680325572,-2.70673313557313,-1.83489532205814,,6.311180513712265,,
,4462.0,1051.0,6609.0,500.0,1965.0,3446.0,169.0,,,,1.95011949994377,-2.7054584043537,-1.83581494928245,,5.460327529435588,,
,4466.0,1055.0,6614.0,501.0,1954.0,3468.0,164.0,,,,1.94938057835267,-2.70700191876343,-1.83562102974534,,4.598391651220229,,
,4467.0,1054.0,6619.0,501.0,1947.0,3462.0,147.0,,,,1.9494284359779,-2.70674656878847,-1.83579827795452,,3.7317824705639477,,
,4472.0,1059.0,6624.0,502.0,1958.0,3457.0,157.0,,,,1.94935353595593,-2.70573673199759,-1.83573376971422,,2.8659476783020836,,
,4471.0,1054.0,6629.0,500.0,1964.0,3455.0,170.0,,,,1.94904425444262,-2.70686330138382,-1.83590293171923,,2.0053675252083214,,
,4476.0,1059.0,6635.0,502.0,1968.0,3469.0,179.0,,,,1.94858440173938,-2.70525651282369,-1.83440121135963,,1.153650500167259,,
,4481.0,1059.0,6641.0,504.0,1973.0,3467.0,172.0,,,,1.9491546877594,-2.70576105037546,-1.83548140281182,,0.3137108454855699,,
,4482.0,1062.0,6648.0,502.0,1964.0,3467.0,165.0,,,,1.94914504199881,-2.7069783238958,-1.83542090797074,,-0.5119985117126223,,
,4485.0,1062.0,6651.0,502.0,1954.0,3461.0,174.0,,,,1.94823812182915,-2.70662613441997,-1.83468952421708,,-1.3212292992214796,,
,4488.0,1061.0,6660.0,503.0,1951.0,3472.0,167.0,,,,1.94917713493474,-2.70631785000835,-1.835585911197,,-2.111691404040007,,
,4488.0,1067.0,6665.0,506.0,1960.0,3457.0,162.0,,,,1.94827627297886,-2.70702593156097,-1.83557532340265,,-2.8808482587529047,,
,4495.0,1068.0,6671.0,505.0,1954.0,3445.0,156.0,,,,1.94928989222527,-2.70572244771056,-1.83637639875069,,-3.6257791600057585,,
,4501.0,1070.0,6675.0,505.0,1951.0,3455.0,151.0,,,,1.94854885399976,-2.70582714706886,-1.83483694647278,,-4.343123752493036,,
,4500.0,1070.0,6682.0,505.0,1963.0,3453.0,155.0,,,,1.94935129237618,-2.70649306971788,-1.83563540687101,,-5.0291130667285175,,
,4506.0,1073.0,6689.0,505.0,1963.0,3464.0,172.0,,,,1.95035770483844,-2.70628943605198,-1.83522907181977,,-5.679681654189814,,
,4508.0,1075.0,6695.0,508.0,1953.0,3470.0,175.0,,,,1.94862612201345,-2.70676307624347,-1.83528514356903,,-6.290647854672103,,
,4508.0,1077.0,6698.0,507.0,1954.0,3462.0,168.0,,,,1.9496868396563,-2.70577212315109,-1.83554098325686,,-6.857944383241051,,
,4514.0,1078.0,6706.0,506.0,1971.0,3475.0,173.0,,,,1.94933827924061,-2.70695873823704,-1.83583318468,,-7.377878572137394,,
,4517.0,1077.0,6709.0,507.0,1968.0,3462.0,150.0,,,,1.94882556453558,-2.70691452461002,-1.83618856743285,,-7.847399629374351,,
,4519.0,1080.0,6717.0,508.0,1968.0,3465.0,177.0,,,,1.94879273948333,-2.70585006457047,-1.83571672107956,,-8.264348523561145,,
,4521.0,1080.0,6722.0,510.0,1967.0,3469.0,173.0,,,,1.94951674432192,-2.70606537198774,-1.83533388025197,,-8.62766510990291,,
,4519.0,1081.0,6723.0,508.0,1952.0,3460.0,169.0,,,,1.94933432532985,-2.70700091252713,-1.83592601758716,,-8.937528584165973,,
,4520.0,1081.0,6724.0,507.0,1956.0,3475.0,160.0,,,,1.94822634813412,-2.70619091569485,-1.83507357184345,,-9.195413069115906,,
,4514.0,1078.0,6718.0,506.0,1954.0,3487.0,155.0,,,,1.94919659056925,-2.70528456025719,-1.83421725473131,,-9.404050298535013,,
,4505.0,1073.0,6707.0,506.0,1956.0,3470.0,151.0,,,,1.94873172540153,-2.70543932257129,-1.83633693790377,,-9.567303884539315,,
,4494.0,1068.0,6692.0,503.0,1959.0,3475.0,177.0,,,,1.94903979244077,-2.70645415742925,-1.83631186686982,,-9.689971241235636,,
,4484.0,1061.0,6668.0,501.0,1957.0,3482.0,173.0,,,,1.94931838921434,-2.70669946619497,-1.83573912366959,,-9.777537175900155,,
,4472.0,1056.0,6650.0,500.0,1964.0,3490.0,189.0,,,,1.94875641104369,-2.7075968850287,-1.83623017459692,,-9.835906333918384,,
,4459.0,1050.0,6628.0,496.0,1965.0,3468.0,195.0,,,,1.94910362251626,-2.70640888524542,-1.83598638378321,,-9.871140473744484,,
,4446.0,1046.0,6605.0,495.0,1948.0,3439.0,178.0,,,,1.94933765018065,-2.70654303103874,-1.83562461647194,,-9.889222086797739,,
,4432.0,1040.0,6584.0,494.0,1956.0,3448.0,180.0,,,,1.95023714259378,-2.70607495677862,-1.83523681285921,,-9.89585932808935,,
,4426.0,1037.0,6570.0,494.0,1949.0,3463.0,150.0,,,,1.94940976308666,-2.70658610693271,-1.8357562410662,,-9.8963394479964,,
,4413.0,1035.0,6551.0,492.0,1954.0,3463.0,154.0,,,,1.94946989685381,-2.70652529329439,-1.83478404713618,,-9.89542955484745,,
,4406.0,1028.0,6534.0,489.0,1972.0,3436.0,148.0,,,,1.94930215681753,-2.70688628583924,-1.83572746334272,,-9.897315267768388,,
,4396.0,1024.0,6525.0,490.0,1979.0,3448.0,156.0,,,,1.94940626406219,-2.70710696567364,-1.83389193467364,,-9.90556054362175,,
,4393.0,1025.0,6515.0,490.0,1965.0,3472.0,147.0,,,,1.94972447826978,-2.7056668075207,-1.8346116227782,,-9.923066937097072,,
,4389.0,1023.0,6506.0,490.0,1963.0,3480.0,155.0,,,,1.95050109040659,-2.70591370285056,-1.83550631529749,,-9.952009453753346,,
,4384.0,1022.0,6502.0,489.0,1971.0,3474.0,147.0,,,,1.95007417325277,-2.70650443907245,-1.83602268172351,,-9.993730707176598,,
,4375.0,1018.0,6492.0,488.0,1968.0,3441.0,145.0,,,,1.95019383475583,-2.70597860652861,-1.83467243320007,,-10.04858594970645,,
,4375.0,1018.0,6492.0,487.0,1967.0,3456.0,144.0,,,,1.9509211966675,-2.70589254452785,-1.83532729637943,,-10.115747127757217,,
,4372.0,1017.0,6486.0,489.0,1967.0,3466.0,143.0,,,,1.95071424077262,-2.70605024714664,-1.83618517402923,,-10.19299066816888,,
,4373.0,1016.0,6482.0,488.0,1967.0,3463.0,146.0,,,,1.95068445898748,-2.70628257973946,-1.83576423617772,,-10.276506858883089,,
,4369.0,1015.0,6482.0,487.0,1979.0,3463.0,144.0,,,,1.95081516697781,-2.70607781261006,-1.83582524190495,,-10.360775248814946,,
,4370.0,1014.0,6479.0,488.0,1966.0,3459.0,142.0,,,,1.9512148354613,-2.70587220510626,-1.83510154163206,,-10.43854927830505,,
,4369.0,1016.0,6478.0,489.0,1966.0,3480.0,131.0,,,,1.95062373366232,-2.70575343261389,-1.83625670061695,,-10.500984888460646,,
,4367.0,1014.0,6477.0,490.0,1965.0,3478.0,136.0,,,,1.95090469489764,-2.7067887181329,-1.83501936568228,,-10.537933522396767,,
,4364.0,1015.0,6475.0,489.0,1966.0,3476.0,163.0,,,,1.95077996722084,-2.70501604066551,-1.8352634152303,,-10.538401351094725,,
,4364.0,1013.0,6474.0,487.0,1965.0,3455.0,176.0,,,,1.95069343566136,-2.70606275593354,-1.83496529740558,,-10.49115558502217,,
,4368.0,1014.0,6479.0,489.0,1962.0,3465.0,171.0,,,,1.95087307333986,-2.7058882277347,-1.8356560682255,,-10.385437660132883,,
,4367.0,1016.0,6478.0,489.0,1966.0,3473.0,177.0,,,,1.9510063900519,-2.7055425290129,-1.83633966940222,,-10.211724608598509,,
,4365.0,1015.0,6479.0,489.0,1963.0,3469.0,158.0,,,,1.95142090533717,-2.70628775026539,-1.83548846943039,,-9.962466840462302,,
,4371.0,1015.0,6482.0,489.0,1956.0,3457.0,156.0,,,,1.95080089583653,-2.70542712707286,-1.83541630268704,,-9.632725496134467,,
,4370.0,1013.0,6483.0,490.0,1946.0,3472.0,154.0,,,,1.95026807034424,-2.70600781982411,-1.83453214679918,,-9.220637629642496,,
,4372.0,1018.0,6489.0,492.0,1962.0,3478.0,144.0,,,,1.95007975131404,-2.70588388097023,-1.83535109228728,,-8.72765362438475,,
,4373.0,1019.0,6490.0,490.0,1963.0,3472.0,154.0,,,,1.95105047520582,-2.7058760983486,-1.83571300414233,,-8.1585167866255,,
,4372.0,1017.0,6491.0,490.0,1948.0,3478.0,182.0,,,,1.95060669819533,-2.70643637353903,-1.83524005066528,,-7.52098540121856,,
,4374.0,1016.0,6491.0,492.0,1953.0,3465.0,156.0,,,,1.95013278133446,-2.70752230020006,-1.83425495513263,,-6.8253265705549335,,
,4373.0,1019.0,6494.0,491.0,1954.0,3453.0,162.0,,,,1.94950604677554,-2.70709021996386,-1.83428914689825,,-6.0836338996168955,,
,4377.0,1017.0,6497.0,492.0,1952.0,3460.0,168.0,,,,1.95026772327134,-2.70621840209405,-1.83517984946188,,-5.309035256061636,,
,4377.0,1017.0,6499.0,491.0,1964.0,3479.0,151.0,,,,1.94951485507883,-2.70670822718067,-1.83561320366005,,-4.5148625266948414,,
,4377.0,1019.0,6501.0,492.0,1963.0,3480.0,152.0,,,,1.94884941962008,-2.70628851443841,-1.8338559258744,,-3.7138537627782964,,
,4378.0,1020.0,6503.0,492.0,1966.0,3466.0,169.0,,,,1.94942872539669,-2.70616473339558,-1.83520376888029,,-2.917450860409634,,
,4378.0,1017.0,6504.0,492.0,1960.0,3474.0,167.0,,,,1.94845063003257,-2.70553750446742,-1.83538089537544,,-2.1352443343222873,,
,4377.0,1017.0,6502.0,489.0,1963.0,3464.0,172.0,,,,1.94901089507453,-2.70752307819491,-1.83540516050581,,-1.3746018773136564,,
,4374.0,1019.0,6499.0,491.0,1958.0,3457.0,170.0,,,,1.94823344550269,-2.70727964942271,-1.83468289579484,,-0.6404999778201153,,
,4377.0,1020.0,6501.0,490.0,1959.0,3466.0,155.0,,,,1.94905903477929,-2.70722074039822,-1.83534662423553,,0.06444139978414837,,
,4375.0,1019.0,6504.0,489.0,1972.0,3456.0,148.0,,,,1.94924932558991,-2.70732937076059,-1.83486482068045,,0.7397408099632129,,
,4376.0,1017.0,6502.0,491.0,1971.0,3461.0,149.0,,,,1.94869161671836,-2.7075556047368,-1.83423276782575,,1.386691325658777,,
2025-07-02 22:21:53,4374.0,1019.0,6504.0,492.0,1988.0,3458.0,149.0,,,2025/07/02 10:21:53 PM,1.94896468882391,-2.7071197399073,-1.834051751045,,2.007899884557749,,
,4379.0,1017.0,6503.0,491.0,1972.0,3465.0,140.0,,,,1.94921052226824,-2.7067335866992,-1.83589202062989,,2.6067832665639354,,
,4378.0,1019.0,6508.0,492.0,1971.0,3483.0,146.0,,,,1.94864283646617,-2.70660982353848,-1.83408403008906,,3.187070002271125,,
,4380.0,1021.0,6510.0,491.0,1965.0,3469.0,147.0,,,,1.94910188228522,-2.70715658339612,-1.83427819895891,,3.7523483249396232,,
,4380.0,1020.0,6508.0,492.0,1959.0,3458.0,135.0,,,,1.94896213801946,-2.70643528935122,-1.8340012829613,,4.305689429605833,,
,4383.0,1020.0,6511.0,491.0,1976.0,3483.0,157.0,,,,1.94858462048037,-2.70691235549133,-1.83410735517824,,4.84936520833503,,
,4385.0,1023.0,6514.0,492.0,1984.0,3455.0,170.0,,,,1.94818196067426,-2.70734291021612,-1.83441767614633,,5.384670852386383,,
,4387.0,1024.0,6517.0,493.0,1972.0,3443.0,170.0,,,,1.94805639264936,-2.7064792680915,-1.83336442235494,,5.91185459195374,,
,4386.0,1023.0,6519.0,492.0,1960.0,3452.0,165.0,,,,1.94870724390581,-2.7058697428251,-1.83359257734861,,6.4301486554909015,,
,4391.0,1024.0,6525.0,491.0,1947.0,3454.0,173.0,,,,1.94894113172483,-2.70653688533881,-1.8342232385873,,6.93788731013331,,
,4393.0,1026.0,6530.0,494.0,1962.0,3448.0,169.0,,,,1.94932852992099,-2.70702922556011,-1.83497938043694,,7.432690614885664,,
,4394.0,1026.0,6533.0,494.0,1957.0,3447.0,161.0,,,,1.94940307172802,-2.70599170383113,-1.83439701898444,,7.9116879384242145,,
,4396.0,1027.0,6536.0,494.0,1960.0,3438.0,159.0,,,,1.94969515673444,-2.7073494871033,-1.83382138585026,,8.371754817608377,,
,4399.0,1030.0,6543.0,493.0,1959.0,3442.0,162.0,,,,1.95014458161595,-2.70596155610311,-1.83421558633735,,8.809740517198307,,
,4402.0,1030.0,6547.0,496.0,1967.0,3447.0,156.0,,,,1.95017567829841,-2.70588577729643,-1.83486452380718,,9.222669975886744,,
,4403.0,1030.0,6552.0,496.0,1960.0,3461.0,175.0,,,,1.94989726479303,-2.70721875866453,-1.83387294779664,,9.607909873644154,,
,4408.0,1035.0,6557.0,495.0,1966.0,3462.0,171.0,,,,1.94938161443379,-2.70580468162387,-1.83482485325507,,9.963292220475875,,
,4410.0,1032.0,6559.0,495.0,1953.0,3461.0,165.0,,,,1.94981364344823,-2.7053815690627,-1.83439493947634,,10.287190007990672,,
,4415.0,1038.0,6567.0,498.0,1958.0,3453.0,153.0,,,,1.95028554996418,-2.70593720121576,-1.83470883810427,,10.578539598783296,,
,4418.0,1037.0,6571.0,496.0,1962.0,3464.0,178.0,,,,1.95028598736876,-2.7060991261024,-1.83333092755365,,10.836805481602026,,
,4420.0,1041.0,6576.0,497.0,1971.0,3459.0,179.0,,,,1.95023917084206,-2.70633524034334,-1.83424181697904,,11.061885839262786,,
,4421.0,1037.0,6578.0,496.0,1955.0,3468.0,154.0,,,,1.95031651963613,-2.70641140405246,-1.83403352747911,,11.253962083565852,,
,4423.0,1040.0,6587.0,498.0,1968.0,3448.0,151.0,,,,1.94982122210694,-2.70675397121438,-1.83444521506382,,11.413301437234981,,
,4430.0,1042.0,6589.0,500.0,1951.0,3468.0,157.0,,,,1.94987317012305,-2.70649227798063,-1.83451332634931,,11.540027917240883,,
,4434.0,1045.0,6595.0,500.0,1949.0,3467.0,149.0,,,,1.94979303793188,-2.70697511650424,-1.83466608021594,,11.633883001496441,,
,4435.0,1045.0,6602.0,497.0,1944.0,3458.0,162.0,,,,1.94940845457714,-2.70592883469548,-1.8338743301219,,11.694002366238074,,
,4436.0,1046.0,6605.0,498.0,1943.0,3475.0,154.0,,,,1.94993876974555,-2.70590229826251,-1.83440923880045,,11.71873882649171,,
,4441.0,1048.0,6609.0,498.0,1958.0,3471.0,163.0,,,,1.94993471808161,-2.70529607084633,-1.83481454046285,,11.705563006205642,,
,4444.0,1050.0,6616.0,503.0,1955.0,3465.0,169.0,,,,1.9507135730681,-2.70647033936045,-1.83442478836935,,11.651070662026505,,
,4446.0,1048.0,6622.0,500.0,1972.0,3446.0,175.0,,,,1.95017043713127,-2.70591794567919,-1.83464846105586,,11.55111716292956,,
,4449.0,1051.0,6626.0,501.0,1970.0,3446.0,162.0,,,,1.95053832623909,-2.70547354248602,-1.83478630838065,,11.401084815315478,,
,4452.0,1052.0,6632.0,502.0,1961.0,3453.0,158.0,,,,1.94994790862286,-2.70638115278879,-1.83438032434869,,11.196269530092414,,
,4458.0,1054.0,6640.0,500.0,1959.0,3465.0,156.0,,,,1.95125520724817,-2.70546825686362,-1.83406909117614,,10.932353875907696,,
,4459.0,1055.0,6645.0,499.0,1961.0,3457.0,151.0,,,,1.95009106740094,-2.70655450690047,-1.83441299305663,,10.605917984026604,,
,4461.0,1057.0,6645.0,501.0,1963.0,3467.0,160.0,,,,1.95066067610817,-2.70572673745086,-1.8350012882996,,10.214930662826669,,
,4466.0,1058.0,6655.0,502.0,1961.0,3457.0,162.0,,,,1.95017675426243,-2.70644596719232,-1.8341931158267,,9.759161591564471,,
,4470.0,1062.0,6663.0,504.0,1963.0,3463.0,194.0,,,,1.95136115366684,-2.70581134003414,-1.83417800243781,,9.240461821315668,,
,4472.0,1063.0,6665.0,502.0,1968.0,3460.0,189.0,,,,1.94990927142856,-2.70613291168547,-1.83484863702077,,8.662873210216102,,
,4477.0,1063.0,6668.0,502.0,1980.0,3466.0,174.0,,,,1.95128668376401,-2.70604607183306,-1.83501457360963,,8.032545849742629,,
,4481.0,1066.0,6679.0,504.0,1984.0,3462.0,164.0,,,,1.95074999003658,-2.70684503500027,-1.83463639463342,,7.357463390393458,,
,4485.0,1069.0,6685.0,506.0,1971.0,3478.0,177.0,,,,1.95059315925039,-2.70626987592596,-1.83513671591084,,6.646997222899513,,
,4486.0,1068.0,6687.0,505.0,1951.0,3471.0,172.0,,,,1.9511061789522,-2.70630692454508,-1.83434797815924,,5.911330209148859,,
,4489.0,1071.0,6692.0,507.0,1978.0,3464.0,153.0,,,,1.95089856157252,-2.70580950937232,-1.83406491804223,,5.160807657706398,,
,4490.0,1070.0,6696.0,505.0,1984.0,3457.0,136.0,,,,1.95079692149502,-2.7064239164363,-1.83517849329855,,4.405285176918358,,
,4494.0,1071.0,6702.0,507.0,1976.0,3456.0,160.0,,,,1.95085780010454,-2.70605674126023,-1.83402519167704,,3.65354661532243,,
,4489.0,1071.0,6698.0,504.0,1968.0,3470.0,174.0,,,,1.9502767897953,-2.70572514543646,-1.83465809165262,,2.9128577909755244,,
,4482.0,1065.0,6693.0,505.0,1965.0,3474.0,159.0,,,,1.95098661302832,-2.70729075584674,-1.83473878543928,,2.18870311809108,,
,4475.0,1062.0,6681.0,504.0,1955.0,3466.0,167.0,,,,1.95075728571272,-2.70526235476588,-1.83462700282458,,1.4847260243039653,,
,4466.0,1058.0,6666.0,501.0,1960.0,3450.0,165.0,,,,1.95006816158524,-2.70619546148691,-1.83504334608186,,0.8028657803342087,,
,4457.0,1054.0,6646.0,500.0,1963.0,3440.0,178.0,,,,1.95115305241879,-2.70511114951526,-1.83455940733139,,0.14365845147105566,,
,4445.0,1049.0,6627.0,498.0,1965.0,3434.0,167.0,,,,1.95044959512241,-2.70663252264068,-1.83550453375707,,-0.4933482003122128,,
,4432.0,1041.0,6604.0,496.0,1947.0,3429.0,173.0,,,,1.95083220344099,-2.70610045322107,-1.83274248725507,,-1.1091253589702086,,
,4422.0,1039.0,6583.0,493.0,1957.0,3437.0,161.0,,,,1.95042432252128,-2.70742297504288,-1.83413620338519,,-1.7046998487624434,,
,4411.0,1035.0,6564.0,493.0,1950.0,3429.0,157.0,,,,1.95061426498211,-2.70664032519186,-1.83469087093825,,-2.280751455497922,,
,4401.0,1029.0,6544.0,493.0,1953.0,3425.0,151.0,,,,1.95149215075446,-2.70661725132928,-1.83396072397457,,-2.8373143681558877,,
,4389.0,1024.0,6526.0,487.0,1962.0,3425.0,131.0,,,,1.95005734423388,-2.70708742282356,-1.83480789900255,,-3.3736116218346,,
,4383.0,1022.0,6512.0,489.0,1950.0,3442.0,145.0,,,,1.95044908382141,-2.70669905050194,-1.83450932045215,,-3.888034520483937,,
,4378.0,1020.0,6500.0,491.0,1960.0,3458.0,139.0,,,,1.95053086943183,-2.70686465501765,-1.83403101724514,,-4.378260973898622,,
,4371.0,1015.0,6492.0,490.0,1967.0,3464.0,130.0,,,,1.95044001373549,-2.70667794738768,-1.8352866302626,,-4.841489018610196,,
,4367.0,1014.0,6481.0,486.0,1967.0,3474.0,131.0,,,,1.9506277785295,-2.70690004411958,-1.83464510577707,,-5.274746721263111,,
,4366.0,1014.0,6475.0,487.0,1984.0,3484.0,139.0,,,,1.95088124389244,-2.70782230720425,-1.83365142327664,,-5.675230021019394,,
,4362.0,1014.0,6469.0,488.0,1978.0,3469.0,129.0,,,,1.95095717918487,-2.70699234176557,-1.83463071969529,,-6.0406184597073995,,
,4362.0,1012.0,6468.0,488.0,1971.0,3465.0,139.0,,,,1.95053326141746,-2.70769769593986,-1.83519881696675,,-6.369326024373103,,
,4361.0,1013.0,6462.0,487.0,1973.0,3452.0,156.0,,,,1.95072252876055,-2.70832753073103,-1.83377442021939,,-6.660658579149037,,
,4357.0,1009.0,6458.0,490.0,1975.0,3453.0,159.0,,,,1.95084491068196,-2.70692847748793,-1.83430557619291,,-6.914866630423921,,
,4357.0,1011.0,6460.0,489.0,1977.0,3473.0,159.0,,,,1.95032215247584,-2.70738609438897,-1.83412996267926,,-7.133098379318145,,
,4358.0,1010.0,6455.0,488.0,1962.0,3454.0,145.0,,,,1.95021548735139,-2.7072009055068,-1.83430086804878,,-7.317270531593988,,
,4355.0,1009.0,6453.0,490.0,1963.0,3437.0,152.0,,,,1.95027496436352,-2.70809004734836,-1.83471033238864,,-7.469882218110838,,
,4353.0,1009.0,6452.0,487.0,1973.0,3456.0,132.0,,,,1.94989511132694,-2.70689774142838,-1.83483402802036,,-7.593800839876492,,
,4357.0,1010.0,6455.0,490.0,1976.0,3466.0,133.0,,,,1.95053933911971,-2.70781787455781,-1.83346239864953,,-7.692048449906221,,
,4358.0,1011.0,6455.0,488.0,1977.0,3447.0,145.0,,,,1.95077311836125,-2.708765222471,-1.83407918181468,,-7.767614290563861,,
,4360.0,1012.0,6458.0,489.0,1976.0,3444.0,140.0,,,,1.95076482720326,-2.70774879528919,-1.83388902427118,,-7.82331396802374,,
,4360.0,1011.0,6457.0,488.0,1962.0,3436.0,153.0,,,,1.9500104778511,-2.70721738829354,-1.83453182263084,,-7.861708735111876,,
,4363.0,1014.0,6460.0,490.0,1954.0,3450.0,147.0,,,,1.94965507160564,-2.70827275706801,-1.83383611898605,,-7.885089508280247,,
,4362.0,1013.0,6466.0,492.0,1959.0,3446.0,168.0,,,,1.95077666902055,-2.70728816749054,-1.83402323290385,,-7.895519755477875,,
,4365.0,1013.0,6465.0,490.0,1954.0,3455.0,161.0,,,,1.94910696745898,-2.70870904733509,-1.83413356292621,,-7.894920081528872,,
,4364.0,1013.0,6466.0,490.0,1963.0,3460.0,139.0,,,,1.94922822684797,-2.70850632816177,-1.83260446493059,,-7.885167079084756,,
,4367.0,1014.0,6466.0,489.0,1969.0,3468.0,161.0,,,,1.94888311938726,-2.70868289669831,-1.83361434252804,,-7.868172706427918,,
,4371.0,1014.0,6473.0,492.0,1958.0,3480.0,158.0,,,,1.94897587958726,-2.70877974442007,-1.83348541728796,,-7.845911005442106,,
,4371.0,1015.0,6472.0,491.0,1969.0,3477.0,164.0,,,,1.94820948282556,-2.70945679027922,-1.8338881668392,,-7.820367524781511,,
,4370.0,1019.0,6475.0,492.0,1969.0,3480.0,170.0,,,,1.94808069276308,-2.71005658811566,-1.83243646088754,,-7.793401699598422,,
,4372.0,1014.0,6475.0,491.0,1968.0,3487.0,173.0,,,,1.94737253118257,-2.70974518440071,-1.83400659569557,,-7.766529963546244,,
,4373.0,1018.0,6476.0,492.0,1971.0,3473.0,174.0,,,,1.94690636097116,-2.71001602176396,-1.83352561282796,,-7.740653601544216,,
,4376.0,1019.0,6474.0,490.0,1958.0,3456.0,175.0,,,,1.94703388241023,-2.71006512828922,-1.83312696162148,,-7.715767456321127,,
,4376.0,1014.0,6475.0,492.0,1961.0,3449.0,175.0,,,,1.94658739537918,-2.7090066826906,-1.83476734028979,,-7.690692163302801,,
,4371.0,1015.0,6474.0,488.0,1968.0,3424.0,167.0,,,,1.94656842935933,-2.70988576922182,-1.83420586879688,,-7.662873334768457,,
,4373.0,1014.0,6474.0,489.0,1960.0,3461.0,162.0,,,,1.94619283211639,-2.71059437616417,-1.83361464059941,,-7.628286508277398,,
,4376.0,1019.0,6475.0,492.0,1963.0,3457.0,143.0,,,,1.94531381290509,-2.70926502694638,-1.83313191008874,,-7.581477569421003,,
,4375.0,1017.0,6473.0,491.0,1964.0,3459.0,155.0,,,,1.94524521463131,-2.71091141545232,-1.8325625305594,,-7.5157557023964054,,
,4373.0,1015.0,6472.0,490.0,1971.0,3441.0,161.0,,,,1.9456635086182,-2.70980116757121,-1.8324305283927,,-7.4235405322984604,,
,4376.0,1018.0,6473.0,492.0,1973.0,3443.0,153.0,,,,1.94523689468043,-2.70915860938866,-1.83274921464155,,-7.296847695770707,,
,4376.0,1018.0,6474.0,492.0,1965.0,3477.0,138.0,,,,1.94529790274912,-2.70947611218699,-1.83266879284381,,-7.127878556658268,,
,4376.0,1019.0,6475.0,494.0,1970.0,3468.0,142.0,,,,1.94526077599539,-2.71087796445505,-1.83299635874752,,-6.909662036245982,,
,4379.0,1017.0,6475.0,494.0,1980.0,3453.0,144.0,,,,1.94512215321267,-2.71183329069037,-1.833268162105,,-6.6366828608063475,,
,4379.0,1018.0,6477.0,493.0,1985.0,3458.0,162.0,,,,1.94485145750758,-2.71152014053825,-1.83315749833512,,-6.305425192145401,,
,4380.0,1019.0,6479.0,494.0,1969.0,3462.0,155.0,,,,1.94535049436834,-2.71208675191569,-1.83319080829468,,-5.914766805893186,,
,4383.0,1018.0,6483.0,493.0,1984.0,3481.0,163.0,,,,1.94450607361325,-2.7121131731843,-1.8325999762771,,-5.466176553923287,,
,4383.0,1018.0,6482.0,492.0,1991.0,3464.0,173.0,,,,1.9446368423521,-2.71082899249724,-1.83180108410939,,-4.963692718769159,,
,4384.0,1020.0,6485.0,490.0,1976.0,3466.0,155.0,,,,1.94384746993905,-2.71185775978506,-1.83276024415189,,-4.4136860832147455,,
,4389.0,1019.0,6491.0,492.0,1961.0,3453.0,152.0,,,,1.94520664265226,-2.71166888439434,-1.83321434794716,,-3.8244342453832774,,
,4391.0,1021.0,6492.0,495.0,1959.0,3446.0,163.0,,,,1.94546005504067,-2.71196190535556,-1.83263167243695,,-3.2055507345642154,,
,4394.0,1023.0,6499.0,494.0,1954.0,3446.0,152.0,,,,1.9438101333672,-2.71269462147707,-1.83273285518014,,-2.567323758002389,,
,4396.0,1021.0,6500.0,494.0,1962.0,3459.0,157.0,,,,1.94397477338154,-2.71122313387469,-1.83222500471616,,-1.9200255308427252,,
,4397.0,1024.0,6506.0,494.0,1976.0,3465.0,153.0,,,,1.94438190148655,-2.71167766240109,-1.833323809543,,-1.273254440095869,,
,4402.0,1029.0,6510.0,495.0,1983.0,3461.0,162.0,,,,1.94463087582806,-2.71221379417674,-1.83219635313175,,-0.635368633778283,,
,4405.0,1029.0,6512.0,495.0,1974.0,3455.0,173.0,,,,1.94498483110759,-2.71294487321744,-1.83236089033039,,-0.013060610912944162,,
,4405.0,1027.0,6518.0,497.0,1964.0,3452.0,161.0,,,,1.94484455335191,-2.7121140907431,-1.83301502501518,,0.5888922263520623,,
,4408.0,1028.0,6519.0,494.0,1965.0,3471.0,158.0,,,,1.94468899643392,-2.71181351742861,-1.83209161691216,,1.1676858070865686,,
,4412.0,1033.0,6525.0,497.0,1954.0,3472.0,147.0,,,,1.94392348801491,-2.71256596760945,-1.83241656197025,,1.72236398373477,,
,4418.0,1032.0,6533.0,498.0,1962.0,3480.0,143.0,,,,1.94422490164931,-2.71192911974402,-1.83211317437107,,2.2535390966152744,,
,4418.0,1035.0,6535.0,498.0,1977.0,3475.0,142.0,,,,1.94408822399523,-2.71277095680501,-1.83351910450633,,2.7630044457326557,,
,4421.0,1035.0,6538.0,496.0,1959.0,3489.0,151.0,,,,1.94420215059525,-2.71357987433338,-1.83222466808863,,3.2532915113533325,,
,4426.0,1035.0,6544.0,498.0,1964.0,3468.0,157.0,,,,1.9444901443621,-2.71241334404992,-1.83330644083117,,3.7272218147241367,,
,4430.0,1038.0,6553.0,499.0,1968.0,3452.0,164.0,,,,1.94382980293972,-2.71295170406514,-1.83235343290374,,4.187493208339838,,
,4431.0,1040.0,6556.0,501.0,1973.0,3463.0,154.0,,,,1.94354066676799,-2.71226669785866,-1.83169400642932,,4.636327107295541,,
,4433.0,1040.0,6556.0,499.0,1976.0,3479.0,157.0,,,,1.94384944758252,-2.71262949348304,-1.83179049864027,,5.075190049635583,,
,4437.0,1041.0,6565.0,499.0,1963.0,3432.0,171.0,,,,1.94379741358334,-2.71247357756356,-1.83271464244794,,5.504591977389062,,
,4443.0,1045.0,6572.0,500.0,1976.0,3447.0,170.0,,,,1.94403509584205,-2.71293581325181,-1.8320603970172,,5.9239557648853705,,
,4446.0,1045.0,6577.0,500.0,1981.0,3457.0,172.0,,,,1.94340251515422,-2.71290715401652,-1.83255767028798,,6.331548340028214,,
,4450.0,1047.0,6579.0,499.0,1996.0,3449.0,133.0,,,,1.94313318391795,-2.71433505435155,-1.83346447645499,,6.724463426418047,,
,4453.0,1046.0,6585.0,500.0,1976.0,3433.0,138.0,,,,1.94352424983584,-2.7136269265188,-1.83157190789825,,7.098649155383509,,
,4457.0,1050.0,6593.0,502.0,1970.0,3432.0,141.0,,,,1.94321782608638,-2.7135804645253,-1.83255116492065,,7.448979655212609,,
,4458.0,1050.0,6599.0,501.0,1986.0,3444.0,141.0,,,,1.94358491380485,-2.71314788344679,-1.8326260985274,,7.769376573064517,,
,4465.0,1051.0,6605.0,503.0,1986.0,3446.0,162.0,,,,1.9429391349185,-2.71283725737357,-1.83276193800404,,8.052991748329239,,
,4467.0,1054.0,6607.0,501.0,1994.0,3468.0,172.0,,,,1.94335695433686,-2.71286545951869,-1.83170410337983,,8.29246304561615,,
,4474.0,1055.0,6615.0,504.0,1989.0,3459.0,179.0,,,,1.94253467920189,-2.71405059934489,-1.83250011749879,,8.480250262077707,,
,4476.0,1055.0,6623.0,504.0,1999.0,3471.0,180.0,,,,1.94223830403024,-2.71424355645915,-1.83171587835219,,8.609048513180158,,
,4482.0,1058.0,6628.0,505.0,1996.0,3463.0,172.0,,,,1.94190042379442,-2.71378789764272,-1.83216843582704,,8.672265902784996,,
2025-07-02 22:21:54,4483.0,1058.0,6633.0,505.0,1976.0,3469.0,160.0,,,2025/07/02 10:21:54 PM,1.94198873916211,-2.71535415209465,-1.83216070206378,,8.664543078958369,,
,4486.0,1061.0,6639.0,504.0,1982.0,3466.0,145.0,,,,1.9421517263735,-2.71460391009546,-1.83182938535266,,8.582284581511512,,
,4492.0,1063.0,6645.0,506.0,1984.0,3455.0,138.0,,,,1.94259381650541,-2.71437166946907,-1.83233797395177,,8.424164608479536,,
,4491.0,1062.0,6648.0,505.0,1975.0,3438.0,141.0,,,,1.94255481098013,-2.71532923223823,-1.83168357155517,,8.191562941081786,,
,4490.0,1059.0,6646.0,505.0,1974.0,3447.0,165.0,,,,1.94200024325785,-2.71347043904047,-1.832119386918,,7.888882068597316,,
,4488.0,1060.0,6644.0,502.0,1973.0,3462.0,155.0,,,,1.94247552151022,-2.71357377317984,-1.83240594003386,,7.523696366206106,,
,4484.0,1058.0,6638.0,503.0,1957.0,3447.0,177.0,,,,1.94162404802213,-2.71530749976576,-1.83294314007668,,7.106689994862326,,
,4475.0,1055.0,6625.0,503.0,1954.0,3439.0,183.0,,,,1.94222193640403,-2.71455149075643,-1.83165407921403,,6.651352798632524,,
,4465.0,1048.0,6609.0,501.0,1947.0,3431.0,153.0,,,,1.94167854926049,-2.71532050153979,-1.83210255492796,,6.173423512089606,,
,4456.0,1045.0,6590.0,500.0,1962.0,3451.0,159.0,,,,1.94195744668657,-2.71625816354082,-1.83186469266715,,5.6900968247839385,,
,4446.0,1040.0,6573.0,497.0,1954.0,3467.0,180.0,,,,1.94134218879462,-2.71539646184544,-1.83103865852381,,5.219042325107737,,
,4436.0,1037.0,6554.0,496.0,1948.0,3469.0,188.0,,,,1.94274479030922,-2.71516466802505,-1.83212756167509,,4.777312684554079,,
,4426.0,1029.0,6535.0,494.0,1952.0,3455.0,179.0,,,,1.94141343741784,-2.71597174331583,-1.8316678756752,,4.3802380582676275,,
,4417.0,1026.0,6514.0,493.0,1957.0,3454.0,166.0,,,,1.94144637078114,-2.7160492255005,-1.83114593918942,,4.0404085513233765,,
,4408.0,1022.0,6501.0,491.0,1967.0,3480.0,133.0,,,,1.94183124805822,-2.71456177538277,-1.83041335904424,,3.7668364531909915,,
,4405.0,1021.0,6487.0,492.0,1954.0,3476.0,125.0,,,,1.94196321193613,-2.7149125604346,-1.83152562060416,,3.564368383360111,,
,4394.0,1016.0,6473.0,490.0,1963.0,3485.0,126.0,,,,1.94161245114631,-2.71623404241282,-1.83140142011166,,3.43338955598315,,
,4391.0,1014.0,6464.0,491.0,1972.0,3471.0,139.0,,,,1.94127482108585,-2.71553068079306,-1.83271261880035,,3.3698326126436933,,
,4387.0,1012.0,6460.0,490.0,1975.0,3484.0,162.0,,,,1.94186110735778,-2.71544428563956,-1.83119382107996,,3.3654753585333395,,
,4383.0,1010.0,6449.0,490.0,1963.0,3462.0,168.0,,,,1.9421094710667,-2.71431150520474,-1.83204431716123,,3.408487846250566,,
,4383.0,1009.0,6446.0,489.0,1971.0,3449.0,166.0,,,,1.94157369156867,-2.71528815755907,-1.83286021726455,,3.484171732226521,,
,4377.0,1010.0,6440.0,488.0,1991.0,3439.0,159.0,,,,1.94187047349219,-2.71465795713961,-1.8311317011182,,3.575825664348904,,
,4380.0,1010.0,6438.0,492.0,1980.0,3438.0,157.0,,,,1.94180788368362,-2.71485890817192,-1.83157464517731,,3.665670830718492,,
,4379.0,1012.0,6436.0,489.0,1981.0,3448.0,147.0,,,,1.94234803663616,-2.7155180598427,-1.83066561163985,,3.7357798647242366,,
,4377.0,1009.0,6438.0,490.0,1990.0,3457.0,142.0,,,,1.94175231617804,-2.71478970021919,-1.8320478406653,,3.7689667583132844,,
,4376.0,1008.0,6433.0,489.0,1995.0,3448.0,141.0,,,,1.94211689587433,-2.71449334598641,-1.83190454194145,,3.749610403308769,,
,4377.0,1008.0,6434.0,491.0,1996.0,3466.0,137.0,,,,1.94142123647198,-2.71464562971145,-1.83129343816722,,3.6643948159359185,,
,4377.0,1009.0,6435.0,491.0,1983.0,3462.0,124.0,,,,1.94196269893959,-2.71411772984112,-1.83173131798168,,3.502951460627592,,
,4379.0,1009.0,6436.0,490.0,1991.0,3455.0,123.0,,,,1.94088986617697,-2.71444095240549,-1.83102607124846,,3.2583832373441894,,
,4381.0,1009.0,6437.0,492.0,1993.0,3423.0,126.0,,,,1.94149869303042,-2.71438977890414,-1.83116465466942,,2.9276397397677107,,
,4382.0,1009.0,6440.0,491.0,1994.0,3436.0,142.0,,,,1.94199688316879,-2.71483304035549,-1.83201445016597,,2.5117061384991217,,
,4387.0,1012.0,6445.0,493.0,1981.0,3467.0,154.0,,,,1.94193561522159,-2.71473550045698,-1.83097525196517,,2.0155698116650265,,
,4388.0,1013.0,6448.0,492.0,1977.0,3468.0,168.0,,,,1.94164413124341,-2.71522930648785,-1.83130525380636,,1.447942635025237,,
,4390.0,1016.0,6452.0,491.0,1977.0,3463.0,166.0,,,,1.9413282095372,-2.71543109269766,-1.83162535393785,,0.820741138686798,,
,4390.0,1014.0,6454.0,493.0,1969.0,3475.0,168.0,,,,1.94195130172695,-2.71582322340294,-1.83074087093285,,0.14835601922857417,,
,4391.0,1013.0,6455.0,493.0,1973.0,3465.0,163.0,,,,1.94231956839036,-2.71422657291198,-1.83008290485725,,-0.5532307833552049,,
,4395.0,1014.0,6460.0,491.0,1968.0,3453.0,172.0,,,,1.94152894222357,-2.71403347869909,-1.83060027337929,,-1.2674056048818245,,
,4397.0,1016.0,6463.0,494.0,1962.0,3448.0,164.0,,,,1.94117355650906,-2.71569460046852,-1.83094487125107,,-1.9778775869874357,,
,4398.0,1016.0,6465.0,492.0,1972.0,3472.0,163.0,,,,1.94020764861773,-2.71634244538582,-1.83016740267524,,-2.6695513781511115,,
,4401.0,1018.0,6466.0,493.0,1967.0,3474.0,163.0,,,,1.94044023666438,-2.71473700848016,-1.83129539927056,,-3.3292529793321117,,
,4402.0,1019.0,6466.0,493.0,1972.0,3488.0,155.0,,,,1.94003022484957,-2.71601331360232,-1.82913350666628,,-3.946259917132816,,
,4401.0,1017.0,6467.0,495.0,1962.0,3486.0,149.0,,,,1.93955779829463,-2.71646179837837,-1.82975841527154,,-4.5126066282779265,,
,4402.0,1017.0,6468.0,494.0,1947.0,3464.0,147.0,,,,1.93941190725915,-2.71541719412029,-1.83017522074587,,-5.023158682530377,,
,4401.0,1017.0,6467.0,494.0,1943.0,3460.0,156.0,,,,1.93904803675872,-2.71653661827581,-1.82998902922629,,-5.47547343225413,,
,4404.0,1017.0,6471.0,495.0,1970.0,3456.0,159.0,,,,1.93973334140092,-2.715343610051,-1.83048160828662,,-5.869486381094297,,
,4402.0,1017.0,6468.0,494.0,1971.0,3462.0,140.0,,,,1.938957437667,-2.71763923348623,-1.82964233569943,,-6.207078273088901,,
,4403.0,1018.0,6467.0,494.0,1971.0,3475.0,136.0,,,,1.93869997445816,-2.71638842567483,-1.83033101450937,,-6.491585221248848,,
,4404.0,1016.0,6467.0,493.0,1957.0,3485.0,146.0,,,,1.93863232203174,-2.71593121523313,-1.83102608680932,,-6.7273127459218225,,
,4406.0,1018.0,6468.0,495.0,1953.0,3474.0,138.0,,,,1.93821870865733,-2.71654172950174,-1.82965051148598,,-6.919105679439788,,
,4405.0,1019.0,6469.0,493.0,1970.0,3481.0,134.0,,,,1.93878114277932,-2.71724196965753,-1.83064388264845,,-7.072011679182185,,
,4407.0,1020.0,6471.0,493.0,1969.0,3477.0,138.0,,,,1.93795067219499,-2.71702183241863,-1.82968190738677,,-7.191058851897776,,
,4408.0,1017.0,6469.0,492.0,1964.0,3476.0,151.0,,,,1.93931164737363,-2.71594265605389,-1.82952951046034,,-7.281149649530496,,
,4408.0,1017.0,6470.0,492.0,1967.0,3486.0,151.0,,,,1.93840077928375,-2.71713293642996,-1.83017193213252,,-7.347055212963347,,
,4412.0,1019.0,6475.0,497.0,1964.0,3466.0,146.0,,,,1.93849697342427,-2.71704930654095,-1.83016328019588,,-7.39347800361089,,
,4414.0,1019.0,6480.0,496.0,1964.0,3467.0,149.0,,,,1.93952467461597,-2.71664195320161,-1.82991435769508,,-7.425137531426995,,
,4416.0,1022.0,6479.0,494.0,1969.0,3456.0,134.0,,,,1.93955275380208,-2.71700726866894,-1.82996502734411,,-7.44682672831384,,
,4418.0,1024.0,6484.0,497.0,1963.0,3461.0,135.0,,,,1.93900021658029,-2.71674055157919,-1.82979967703932,,-7.463388108232746,,
,4422.0,1022.0,6487.0,496.0,1967.0,3453.0,139.0,,,,1.93957005699521,-2.71740636947204,-1.83031698902435,,-7.479571672268413,,
,4425.0,1025.0,6492.0,498.0,1971.0,3436.0,135.0,,,,1.93892187024173,-2.71643605313371,-1.83047159161687,,-7.499760134327446,,
,4429.0,1024.0,6495.0,497.0,1969.0,3450.0,129.0,,,,1.93879349543031,-2.71854480618999,-1.83010722698267,,-7.527576983885249,,
,4431.0,1026.0,6500.0,496.0,1971.0,3464.0,145.0,,,,1.93870194587575,-2.71701489067521,-1.82988809068565,,-7.565421648923873,,
,4435.0,1028.0,6504.0,496.0,1961.0,3460.0,133.0,,,,1.93993485889052,-2.7170365506732,-1.8293220925248,,-7.613996023918755,,
,4436.0,1029.0,6511.0,497.0,1964.0,3468.0,142.0,,,,1.93858606403287,-2.71553140839128,-1.82976571776216,,-7.67189354672077,,
,4442.0,1031.0,6516.0,499.0,1967.0,3472.0,155.0,,,,1.93879660701417,-2.71788001858632,-1.82929452078053,,-7.73531619671935,,
,4442.0,1032.0,6517.0,497.0,1980.0,3475.0,136.0,,,,1.93904400272981,-2.71655084974728,-1.82936598802204,,-7.797970147968609,,
,4447.0,1034.0,6524.0,500.0,1971.0,3475.0,143.0,,,,1.93927943058291,-2.71702629273217,-1.82928439979095,,-7.851172087451242,,
,4452.0,1033.0,6531.0,497.0,1987.0,3480.0,132.0,,,,1.93970569877488,-2.71667110481741,-1.82937894643431,,-7.8841786268290095,,
,4453.0,1036.0,6537.0,501.0,1978.0,3483.0,126.0,,,,1.93862461706803,-2.71600386857356,-1.82935587986942,,-7.884731774580048,,
,4457.0,1038.0,6539.0,500.0,1964.0,3465.0,143.0,,,,1.93849563335828,-2.71695547336307,-1.82852158406863,,-7.839793670100455,,
,4457.0,1037.0,6545.0,499.0,1962.0,3455.0,139.0,,,,1.93899359096764,-2.71738834036202,-1.83004176776904,,-7.7364233752331595,,
,4463.0,1040.0,6549.0,501.0,1975.0,3481.0,143.0,,,,1.93806429971287,-2.71737883314205,-1.828926948693,,-7.562728552916885,,
,4466.0,1043.0,6556.0,502.0,1971.0,3481.0,151.0,,,,1.93884392124408,-2.71798915812843,-1.82916902430752,,-7.308808561547548,,
,4469.0,1042.0,6561.0,500.0,1976.0,3468.0,137.0,,,,1.93805072272415,-2.71748698620117,-1.82894698530023,,-6.967597689083064,,
,4470.0,1043.0,6567.0,503.0,1977.0,3473.0,125.0,,,,1.9381592958087,-2.71770074697571,-1.82879764259985,,-6.53552218044617,,
,4475.0,1046.0,6571.0,503.0,1963.0,3472.0,122.0,,,,1.93773638797915,-2.71784321670814,-1.83014949072806,,-6.012903274960269,,
,4479.0,1045.0,6574.0,503.0,1963.0,3465.0,134.0,,,,1.9378721677277,-2.71669468560848,-1.82918846788208,,-5.404067147648511,,
,4484.0,1048.0,6583.0,503.0,1968.0,3451.0,139.0,,,,1.93806733451804,-2.71568765888606,-1.82891200298532,,-4.7171550629673735,,
,4484.0,1050.0,6585.0,502.0,1964.0,3460.0,144.0,,,,1.93740846159624,-2.71792823189765,-1.82915006139976,,-3.9636569339182723,,
,4489.0,1050.0,6591.0,504.0,1967.0,3450.0,139.0,,,,1.93873223431557,-2.71706010706519,-1.82798796372103,,-3.1577149825483937,,
,4492.0,1057.0,6596.0,503.0,1969.0,3442.0,142.0,,,,1.93820283631192,-2.7181659706411,-1.82729614509013,,-2.3152603333440593,,
,4494.0,1055.0,6606.0,505.0,1966.0,3454.0,134.0,,,,1.93791778754384,-2.71855040017978,-1.82879447323967,,-1.4530548793414209,,
,4499.0,1054.0,6610.0,503.0,1966.0,3467.0,157.0,,,,1.93803222444324,-2.7167918392897,-1.82906721302304,,-0.587714642670789,,
,4502.0,1057.0,6615.0,506.0,1977.0,3455.0,156.0,,,,1.93815798737251,-2.71790012056794,-1.82847494902996,,0.2652104852218538,,
,4508.0,1062.0,6622.0,506.0,1984.0,3487.0,184.0,,,,1.9384226091157,-2.71777961854097,-1.82878110671007,,1.092032609690421,,
,4510.0,1062.0,6626.0,508.0,1983.0,3487.0,178.0,,,,1.93824508481222,-2.71699766011723,-1.82929598061572,,1.88154215213454,,
,4514.0,1063.0,6631.0,507.0,1972.0,3480.0,111.0,,,,1.93832595053522,-2.71811001725671,-1.82760243759872,,2.625407649627153,,
,4515.0,1062.0,6636.0,508.0,1981.0,3484.0,127.0,,,,1.93809973627708,-2.71809337762617,-1.82921876829275,,3.318342833128128,,
,4520.0,1066.0,6640.0,505.0,1967.0,3477.0,158.0,,,,1.93828316880499,-2.71680776918724,-1.82818754152424,,3.9580441859579523,,
,4520.0,1065.0,6643.0,508.0,1976.0,3467.0,152.0,,,,1.93950562564084,-2.71775139514839,-1.82749766518539,,4.544917328405198,,
,4515.0,1061.0,6641.0,508.0,1965.0,3465.0,131.0,,,,1.93798635714324,-2.71877200738757,-1.82759386420085,,5.081621220779842,,
,4511.0,1056.0,6632.0,507.0,1963.0,3463.0,122.0,,,,1.93741550794696,-2.71800975043196,-1.82737862105608,,5.572467213922024,,
,4504.0,1057.0,6621.0,506.0,1967.0,3454.0,130.0,,,,1.93722914869579,-2.71744116464527,-1.82749124481981,,6.022717510980367,,
,4495.0,1050.0,6604.0,504.0,1960.0,3462.0,150.0,,,,1.93762144520647,-2.71796989619217,-1.82813319712684,,6.437835271702786,,
,4482.0,1046.0,6586.0,503.0,1956.0,3456.0,157.0,,,,1.93748244771116,-2.71865656503515,-1.82835095718389,,6.82274510763074,,
,4473.0,1038.0,6563.0,497.0,1955.0,3451.0,143.0,,,,1.93755930121212,-2.71785652645085,-1.82854788352412,,7.181165757744964,,
,4460.0,1035.0,6543.0,499.0,1960.0,3440.0,149.0,,,,1.93823025371731,-2.71809487076194,-1.8276633168041,,7.5150744188520155,,
,4451.0,1033.0,6523.0,497.0,1957.0,3473.0,148.0,,,,1.93846258197186,-2.71859493156449,-1.82720919582284,,7.824354189343843,,
,4440.0,1028.0,6501.0,494.0,1956.0,3454.0,151.0,,,,1.93745578800809,-2.71852273254463,-1.82720987027882,,8.106663397108033,,
,4430.0,1023.0,6481.0,494.0,1965.0,3454.0,120.0,,,,1.93734079425494,-2.718217353872,-1.82592970218238,,8.357549271298218,,
,4421.0,1021.0,6465.0,493.0,1994.0,3484.0,112.0,,,,1.93774341289633,-2.71816931844995,-1.82707192724987,,8.57080851617903,,
,4414.0,1015.0,6453.0,491.0,1988.0,3469.0,128.0,,,,1.93788064304733,-2.71942594043831,-1.8275113170841,,8.739073573495736,,
,4408.0,1011.0,6440.0,492.0,1991.0,3445.0,126.0,,,,1.93759351010711,-2.71778770012579,-1.82784276368693,,8.854576885174703,,
,4402.0,1011.0,6427.0,490.0,2001.0,3456.0,120.0,,,,1.93831502652525,-2.71939018356216,-1.82754041367473,,8.910019755331046,,
,4398.0,1005.0,6421.0,490.0,1997.0,3455.0,127.0,,,,1.93827832521477,-2.71895352875477,-1.82722176390668,,8.899452396212167,,
,4397.0,1008.0,6412.0,491.0,2007.0,3472.0,130.0,,,,1.93870535857474,-2.71809362502515,-1.82655035515173,,8.819062237514855,,
,4394.0,1008.0,6409.0,492.0,1996.0,3472.0,124.0,,,,1.93783111257763,-2.71997469085357,-1.82766417649755,,8.667771970446777,,
,4395.0,1007.0,6404.0,490.0,1981.0,3476.0,133.0,,,,1.9383629360968,-2.71828401907489,-1.82764869179343,,8.447568268520817,,
,4390.0,1003.0,6400.0,491.0,1985.0,3477.0,124.0,,,,1.93769827367473,-2.71936948623759,-1.82755672541373,,8.163515084903556,,
,4389.0,1004.0,6398.0,491.0,1985.0,3449.0,117.0,,,,1.93825207559066,-2.71939519160678,-1.82810733883259,,7.823447242859329,,
,4389.0,1003.0,6397.0,490.0,1991.0,3462.0,123.0,,,,1.93836904115819,-2.71955271239921,-1.82742698529114,,7.437383666202467,,
,4387.0,1003.0,6393.0,491.0,1989.0,3464.0,121.0,,,,1.93746828778981,-2.71874388324228,-1.82629374484818,,7.016737219602626,,
,4388.0,1000.0,6394.0,491.0,1983.0,3457.0,132.0,,,,1.93827398166539,-2.71802063085464,-1.8274133632958,,6.573423047607459,,
,4388.0,1002.0,6393.0,489.0,1973.0,3448.0,150.0,,,,1.93856578642093,-2.71902540143755,-1.82568788687031,,6.118975413279362,,
,4390.0,1002.0,6393.0,488.0,1968.0,3457.0,155.0,,,,1.93780137629751,-2.71825161060959,-1.82644961389966,,5.66377381557347,,
,4393.0,1005.0,6393.0,492.0,1974.0,3468.0,163.0,,,,1.93854722857521,-2.7176476556203,-1.82722595600542,,5.2164558762807,,
,4393.0,1003.0,6397.0,493.0,2001.0,3456.0,145.0,,,,1.93853842484316,-2.72001304619487,-1.82712558976083,,4.783563016459521,,
,4394.0,1006.0,6397.0,490.0,1979.0,3466.0,161.0,,,,1.937755458878,-2.7185868351662,-1.82682470888106,,4.369431562331386,,
,4399.0,1007.0,6400.0,493.0,1987.0,3458.0,150.0,,,,1.93767493237019,-2.71941705599858,-1.82589805157097,,3.9763115119149606,,
,4400.0,1007.0,6402.0,494.0,1973.0,3452.0,143.0,,,,1.93802788225165,-2.71905775974116,-1.82740067098723,,3.6046708279479773,,
,4401.0,1006.0,6407.0,490.0,1976.0,3444.0,136.0,,,,1.93837054167761,-2.7194128278572,-1.82773921165716,,3.253626508262707,,
,4401.0,1007.0,6405.0,492.0,2001.0,3450.0,141.0,,,,1.93751674165368,-2.71959217817445,-1.82812222945155,,2.9214356218067046,,
,4404.0,1009.0,6412.0,490.0,1999.0,3461.0,146.0,,,,1.93670809782361,-2.71977260282836,-1.82755285529035,,2.6059800990099196,,
,4408.0,1012.0,6413.0,494.0,1988.0,3440.0,131.0,,,,1.93714559086088,-2.72083816181371,-1.82667671221317,,2.305187821885454,,
,4410.0,1011.0,6419.0,492.0,1991.0,3439.0,139.0,,,,1.93666416925411,-2.7197240757802,-1.82657318723318,,2.0173482238516316,,
,4409.0,1010.0,6416.0,494.0,1982.0,3430.0,163.0,,,,1.93753998239329,-2.71999388841452,-1.82689923803523,,1.741300849629286,,
,4411.0,1010.0,6420.0,493.0,1993.0,3447.0,149.0,,,,1.9357192984092,-2.7205653988367,-1.82769238628827,,1.4764965097607432,,
,4414.0,1011.0,6420.0,491.0,2000.0,3450.0,152.0,,,,1.93659864416505,-2.71961655525585,-1.82598517925651,,1.222948457178636,,
,4413.0,1011.0,6420.0,492.0,2001.0,3456.0,160.0,,,,1.93594740583276,-2.72086639833769,-1.82629801836949,,0.9811019900353859,,
2025-07-02 22:21:55,4412.0,1011.0,6423.0,495.0,1977.0,3471.0,163.0,,,2025/07/02 10:21:55 PM,1.93584812125562,-2.7202014477234,-1.82719018853319,,0.7516541278832618,,
,4412.0,1010.0,6422.0,492.0,1958.0,3446.0,160.0,,,,1.9362615814034,-2.72104126424947,-1.82727727788588,,0.5353522304356908,,
,4410.0,1012.0,6422.0,492.0,1957.0,3458.0,156.0,,,,1.93555238551501,-2.72067538950879,-1.826546419022,,0.33279453115053487,,
,4415.0,1010.0,6423.0,493.0,1957.0,3468.0,150.0,,,,1.93543000636941,-2.72050527802654,-1.82631458538145,,0.14424901658603567,,
,4414.0,1010.0,6424.0,493.0,1959.0,3479.0,147.0,,,,1.9351382245188,-2.72100689554835,-1.82762235244825,,-0.030498720368330276,,
,4414.0,1011.0,6420.0,493.0,1962.0,3488.0,145.0,,,,1.93478915247871,-2.72088642019996,-1.8267967793008,,-0.1922626213571435,,
,4414.0,1010.0,6422.0,493.0,1976.0,3477.0,156.0,,,,1.93605671374732,-2.72134745413616,-1.82661762504314,,-0.342535658820461,,
,4415.0,1013.0,6427.0,495.0,1969.0,3485.0,139.0,,,,1.93532870855222,-2.72074059511355,-1.82689584266967,,-0.4835312904661318,,
,4419.0,1011.0,6429.0,494.0,1973.0,3478.0,131.0,,,,1.93558088210683,-2.72044916575587,-1.82645472888992,,-0.6181873736071832,,
,4416.0,1012.0,6427.0,493.0,1974.0,3472.0,123.0,,,,1.93545996671245,-2.7216738559983,-1.82752529793927,,-0.7501322275438878,,
,4418.0,1012.0,6431.0,493.0,1971.0,3453.0,152.0,,,,1.9355647147968,-2.7218868751286,-1.82699423904352,,-0.8836099706883888,,
,4422.0,1015.0,6434.0,495.0,1962.0,3451.0,125.0,,,,1.93496750236056,-2.72219171593049,-1.82642061731209,,-1.0233589563008645,,
,4426.0,1017.0,6435.0,494.0,1975.0,3456.0,126.0,,,,1.93469958001687,-2.72073443260481,-1.82629320470723,,-1.174435399011967,,
,4428.0,1017.0,6438.0,494.0,1972.0,3466.0,125.0,,,,1.93520513995538,-2.72147832611872,-1.82751229554043,,-1.3419768024833643,,
,4426.0,1016.0,6441.0,494.0,1970.0,3442.0,105.0,,,,1.9351636930286,-2.72159813435629,-1.82637793145204,,-1.530907699280878,,
,4429.0,1019.0,6446.0,495.0,1987.0,3450.0,126.0,,,,1.93480384846985,-2.72120433612408,-1.82764500534514,,-1.745601899800261,,
,4435.0,1021.0,6452.0,497.0,1993.0,3426.0,112.0,,,,1.93455518323457,-2.72082586506934,-1.8262552213162,,-1.9895273722186033,,
,4432.0,1020.0,6454.0,496.0,1988.0,3416.0,107.0,,,,1.93527836558508,-2.72128070376806,-1.8270837210268,,-2.264908453948965,,
,4432.0,1021.0,6461.0,494.0,1986.0,3446.0,110.0,,,,1.9342963457808,-2.72154383101763,-1.82677090471977,,-2.5724431451126706,,
,4437.0,1021.0,6466.0,498.0,1981.0,3440.0,121.0,,,,1.93442987698819,-2.72142336097132,-1.82673760527086,,-2.9111103441346176,,
,4439.0,1022.0,6470.0,497.0,1976.0,3477.0,132.0,,,,1.93476159338298,-2.72076721062907,-1.82764664869052,,-3.2780940187905947,,
,4438.0,1025.0,6472.0,498.0,1980.0,3481.0,135.0,,,,1.93449866257934,-2.72249213865115,-1.82591957436995,,-3.668840188142208,,
,4441.0,1023.0,6476.0,498.0,1983.0,3486.0,131.0,,,,1.935665399794,-2.72188152216173,-1.82744900747526,,-4.077250141646417,,
,4445.0,1026.0,6480.0,500.0,1971.0,3481.0,148.0,,,,1.93439431171709,-2.72210500075288,-1.82725313849394,,-4.49600109332432,,
,4446.0,1029.0,6483.0,500.0,1966.0,3470.0,163.0,,,,1.93417512543066,-2.72220816659155,-1.82617647588409,,-4.916974159281544,,
,4450.0,1028.0,6490.0,500.0,1966.0,3451.0,164.0,,,,1.93372488537926,-2.72136413591957,-1.82596074740833,,-5.331759004740188,,
,4450.0,1029.0,6493.0,498.0,1970.0,3473.0,149.0,,,,1.93395630042535,-2.72277998284619,-1.82731246926012,,-5.7321945242890555,,
,4453.0,1030.0,6497.0,501.0,1971.0,3480.0,140.0,,,,1.93419677703774,-2.72207851643147,-1.82679310196504,,-6.110896409739201,,
,4454.0,1032.0,6503.0,501.0,1959.0,3481.0,140.0,,,,1.93489650786352,-2.7219544060886,-1.82675358984415,,-6.461717924301086,,
,4457.0,1035.0,6506.0,503.0,1964.0,3470.0,132.0,,,,1.93348190046464,-2.72140375990344,-1.82690449775772,,-6.780092583149463,,
,4459.0,1035.0,6510.0,504.0,1966.0,3468.0,146.0,,,,1.93404520576975,-2.7214390602388,-1.82708613955682,,-7.063218019085099,,
,4462.0,1033.0,6513.0,500.0,1953.0,3445.0,154.0,,,,1.93440358213793,-2.72149630835696,-1.82652164498716,,-7.3100576429775685,,
,4463.0,1037.0,6516.0,503.0,1965.0,3423.0,154.0,,,,1.93361577242349,-2.72205228635135,-1.82601887972742,,-7.52115755059447,,
,4467.0,1038.0,6522.0,504.0,1973.0,3443.0,171.0,,,,1.93422594680482,-2.72093853823212,-1.8253191361854,,-7.698297100554339,,
,4468.0,1040.0,6527.0,504.0,1978.0,3451.0,163.0,,,,1.93451685342642,-2.72282737504015,-1.82675503409005,,-7.844010060283306,,
,4468.0,1039.0,6531.0,499.0,1964.0,3440.0,141.0,,,,1.93407247458639,-2.72168643851686,-1.82628098196893,,-7.961027355096652,,
,4472.0,1040.0,6535.0,503.0,1959.0,3433.0,146.0,,,,1.93474248969139,-2.72039320587333,-1.82618823054633,,-8.051701110242606,,
,4476.0,1043.0,6540.0,504.0,1961.0,3459.0,151.0,,,,1.93502456854886,-2.72098862604818,-1.82603427285426,,-8.117472348002668,,
,4480.0,1044.0,6547.0,505.0,1965.0,3476.0,163.0,,,,1.93436219167849,-2.71965146853069,-1.82824798383289,,-8.158441409113873,,
,4484.0,1045.0,6546.0,503.0,1975.0,3475.0,138.0,,,,1.93450640203637,-2.72033798386281,-1.82586631178827,,-8.173091149352238,,
,4487.0,1047.0,6555.0,503.0,1978.0,3476.0,118.0,,,,1.93523560563179,-2.71978279443188,-1.82604776752533,,-8.158198500281754,,
,4495.0,1049.0,6563.0,507.0,1994.0,3477.0,132.0,,,,1.9355563615831,-2.72116691109303,-1.82634977403857,,-8.108950634436848,,
,4497.0,1051.0,6564.0,504.0,2004.0,3472.0,136.0,,,,1.9351743002183,-2.72160475152764,-1.82581271277811,,-8.019259171762611,,
,4499.0,1053.0,6572.0,506.0,2010.0,3469.0,136.0,,,,1.93418234150703,-2.72030376085289,-1.82707697320883,,-7.882242462288359,,
,4503.0,1053.0,6578.0,504.0,2016.0,3468.0,154.0,,,,1.93467793896706,-2.72073642708877,-1.82699604867905,,-7.6908261293513815,,
,4502.0,1053.0,6579.0,505.0,2019.0,3459.0,135.0,,,,1.93504791831579,-2.72107182926954,-1.8272514948247,,-7.43839990123231,,
,4505.0,1054.0,6582.0,507.0,2008.0,3449.0,146.0,,,,1.93470403965361,-2.72069170577946,-1.82744051361524,,-7.1194664035918604,,
,4500.0,1050.0,6576.0,504.0,2010.0,3441.0,148.0,,,,1.93482061304448,-2.72043297520231,-1.82730152637743,,-6.730223955196161,,
,4495.0,1049.0,6564.0,502.0,1993.0,3460.0,149.0,,,,1.93502650756399,-2.72199364486426,-1.82649855810668,,-6.269037123540476,,
,4486.0,1042.0,6552.0,503.0,1994.0,3441.0,156.0,,,,1.9345571135141,-2.72283379612482,-1.82626381512475,,-5.736762270713281,,
,4473.0,1040.0,6535.0,503.0,1998.0,3438.0,169.0,,,,1.93447628533891,-2.72162985534724,-1.8274523364574,,-5.136908363446306,,
,4464.0,1034.0,6516.0,499.0,1993.0,3442.0,183.0,,,,1.93512694133529,-2.72155592075864,-1.82711239619018,,-4.475625305690724,,
,4451.0,1030.0,6491.0,497.0,2012.0,3411.0,169.0,,,,1.93544405158211,-2.72056309819456,-1.82721325071599,,-3.761523130891582,,
,4437.0,1023.0,6468.0,493.0,2006.0,3416.0,155.0,,,,1.93583588822377,-2.72104137269275,-1.82676057023228,,-3.005335834961777,,
,4426.0,1016.0,6447.0,494.0,1983.0,3440.0,147.0,,,,1.93565104262243,-2.72077444774754,-1.8266644620098,,-2.2194535018982218,,
,4418.0,1013.0,6427.0,494.0,1980.0,3461.0,142.0,,,,1.93524919547412,-2.72197413267565,-1.82643001143467,,-1.4173551637766784,,
,4406.0,1006.0,6408.0,491.0,1982.0,3471.0,149.0,,,,1.93531990795116,-2.72066779533681,-1.82691619723518,,-0.61298125945311,,
,4395.0,1003.0,6389.0,487.0,1981.0,3464.0,132.0,,,,1.9353349897372,-2.72048607395277,-1.8266302692521,,0.1799130302061954,,
,4389.0,1003.0,6378.0,489.0,1974.0,3454.0,128.0,,,,1.9358616599546,-2.72102080841601,-1.82675323576084,,0.9483848968018447,,
,4383.0,1000.0,6366.0,486.0,2008.0,3477.0,130.0,,,,1.93525445552939,-2.72179299534231,-1.82675505831902,,1.680879774386351,,
,4377.0,994.0,6358.0,487.0,1994.0,3470.0,116.0,,,,1.93587178651049,-2.72146738604343,-1.82680041525246,,2.3677330297441594,,
,4376.0,993.0,6349.0,488.0,2003.0,3461.0,133.0,,,,1.93685640560996,-2.71901335680228,-1.82710553040471,,3.001581522506876,,
,4371.0,989.0,6341.0,486.0,1983.0,3463.0,145.0,,,,1.9368633365049,-2.72019839185365,-1.8268908596568,,3.577671787158205,,
,4370.0,993.0,6338.0,490.0,1972.0,3464.0,125.0,,,,1.93641774092757,-2.72152417012843,-1.82756172479085,,4.094050154076762,,
,4367.0,988.0,6330.0,485.0,1963.0,3459.0,120.0,,,,1.93700415016382,-2.72108453363007,-1.82677299983344,,4.551617192675214,,
,4367.0,990.0,6329.0,487.0,1967.0,3441.0,138.0,,,,1.93693862833432,-2.72059682781386,-1.82652012002981,,4.95402783596476,,
,4364.0,986.0,6321.0,485.0,1984.0,3437.0,135.0,,,,1.93670491959664,-2.72030511443551,-1.82765654835293,,5.307421899958872,,
,4362.0,988.0,6323.0,487.0,1980.0,3455.0,122.0,,,,1.93701400473498,-2.71887027116128,-1.82702412179468,,5.619978342588045,,
,4361.0,988.0,6320.0,488.0,1959.0,3467.0,144.0,,,,1.93636243053394,-2.72008587510837,-1.82766610954592,,5.901300044536843,,
,4362.0,987.0,6320.0,486.0,1959.0,3467.0,140.0,,,,1.93674874942226,-2.71917805816062,-1.82604860573242,,6.161652669066578,,
,4361.0,986.0,6318.0,485.0,1974.0,3451.0,143.0,,,,1.93664479903168,-2.71935238228329,-1.82756906294716,,6.411099146502809,,
,4359.0,985.0,6315.0,485.0,1968.0,3467.0,159.0,,,,1.93668334117332,-2.71962695439605,-1.82713605281889,,6.658588158395838,,
,4363.0,988.0,6316.0,484.0,1963.0,3452.0,166.0,,,,1.93687606972938,-2.71930545846203,-1.82523221877604,,6.9110684973427405,,
,4362.0,988.0,6318.0,488.0,1962.0,3439.0,157.0,,,,1.93730090434047,-2.71888215574826,-1.82847836459021,,7.172709662068837,,
,4361.0,987.0,6321.0,487.0,1958.0,3435.0,156.0,,,,1.93622673723185,-2.71922543754532,-1.82879617222139,,7.444311058139852,,
,4365.0,986.0,6320.0,485.0,1967.0,3439.0,150.0,,,,1.93646581365432,-2.71856047761286,-1.82768869822748,,7.722975897825523,,
,4364.0,989.0,6325.0,488.0,1958.0,3450.0,154.0,,,,1.93606705793821,-2.71978055674554,-1.82829713574658,,8.002109279782239,,
,4367.0,988.0,6328.0,486.0,1960.0,3450.0,143.0,,,,1.93591475460689,-2.71833720054643,-1.8277557196241,,8.271772165140428,,
,4369.0,991.0,6330.0,486.0,1967.0,3475.0,144.0,,,,1.93628068689327,-2.7186556123941,-1.82817740155035,,8.51938604762534,,
,4367.0,990.0,6332.0,486.0,1950.0,3462.0,142.0,,,,1.93554844255878,-2.71846946200173,-1.82777666860002,,8.730741836753916,,
,4372.0,992.0,6335.0,489.0,1955.0,3478.0,133.0,,,,1.93576656805566,-2.71942660739506,-1.82706631412818,,8.891226927145896,,
,4370.0,991.0,6339.0,486.0,1961.0,3460.0,160.0,,,,1.93569225938187,-2.71896589244263,-1.82801035831837,,8.98715247924369,,
,4374.0,994.0,6341.0,487.0,1965.0,3467.0,164.0,,,,1.93586730525658,-2.7183187274131,-1.82739278427295,,9.007043503104088,,
,4376.0,994.0,6345.0,486.0,1963.0,3482.0,146.0,,,,1.93513553215988,-2.71790145040107,-1.82827035693229,,8.942751091671905,,
,4378.0,993.0,6347.0,489.0,1972.0,3486.0,163.0,,,,1.93548502931982,-2.71898066276689,-1.82734167930205,,8.79026104720585,,
,4377.0,994.0,6348.0,489.0,1960.0,3463.0,141.0,,,,1.93440404801764,-2.71811035208723,-1.82884071913429,,8.550105656138683,,
,4375.0,994.0,6349.0,486.0,1966.0,3464.0,138.0,,,,1.93451585555379,-2.71865138044375,-1.82845352295241,,8.22733185224262,,
,4376.0,993.0,6349.0,487.0,1973.0,3459.0,143.0,,,,1.9344482040557,-2.71938473543256,-1.82769037762876,,7.831032828272318,,
,4374.0,991.0,6349.0,487.0,1973.0,3444.0,151.0,,,,1.93441804587371,-2.71927611201758,-1.82838519786027,,7.373502972314009,,
,4377.0,994.0,6351.0,491.0,1969.0,3419.0,159.0,,,,1.93391639557823,-2.71918766771973,-1.82777457889412,,6.86911983378394,,
,4375.0,991.0,6351.0,487.0,1975.0,3431.0,154.0,,,,1.9341259919976,-2.71868412613106,-1.82796654442143,,6.333085629605575,,
,4376.0,994.0,6350.0,488.0,1980.0,3441.0,164.0,,,,1.93433998052936,-2.72004957265122,-1.82766968576449,,5.78017102167955,,
,4375.0,994.0,6349.0,488.0,1987.0,3457.0,145.0,,,,1.93384234157624,-2.71771948047123,-1.82780869859298,,5.2235947173867805,,
,4374.0,994.0,6354.0,488.0,1978.0,3446.0,134.0,,,,1.93456278199922,-2.7182396625081,-1.82740579431481,,4.674146337205283,,
,4377.0,996.0,6355.0,490.0,1993.0,3461.0,155.0,,,,1.93486732387372,-2.71900127187892,-1.82849921478326,,4.139622554447073,,
,4378.0,996.0,6358.0,489.0,1996.0,3462.0,155.0,,,,1.93455756005273,-2.71946227505009,-1.82825341132193,,3.6246048285931587,,
,4377.0,998.0,6358.0,490.0,1974.0,3467.0,145.0,,,,1.93492835217514,-2.71872320939855,-1.82883636811305,,3.1305675099980284,,
,4382.0,996.0,6364.0,489.0,1993.0,3475.0,142.0,,,,1.93521382609885,-2.7195386468621,-1.82846681944092,,2.656272044565956,,
,4381.0,999.0,6366.0,491.0,1967.0,3454.0,123.0,,,,1.93533981966369,-2.71829637536728,-1.82766724997905,,2.1983786926468105,,
,4384.0,998.0,6369.0,491.0,1977.0,3457.0,119.0,,,,1.93444375684218,-2.71882896992401,-1.82820916762062,,1.7521923171951863,,
,4386.0,998.0,6373.0,489.0,1979.0,3475.0,133.0,,,,1.93485980756536,-2.71819630572011,-1.82746474175705,,1.3124532517276188,,
,4386.0,998.0,6373.0,488.0,1995.0,3475.0,136.0,,,,1.93509726878078,-2.71840770269045,-1.8289533697651,,0.8740875032347571,,
,4392.0,1001.0,6381.0,488.0,1990.0,3448.0,135.0,,,,1.93430645655152,-2.71785738779479,-1.82784636531979,,0.43284189013396435,,
,4393.0,1004.0,6384.0,491.0,1987.0,3448.0,146.0,,,,1.93551696064759,-2.71909862840811,-1.82799007798707,,-0.014251767757448977,,
,4396.0,1004.0,6387.0,488.0,1997.0,3438.0,167.0,,,,1.93595088972601,-2.71673356427513,-1.82866125546745,,-0.46861506394999514,,
,4397.0,1005.0,6394.0,490.0,1967.0,3454.0,170.0,,,,1.93555757308176,-2.71714687739655,-1.82815655156556,,-0.9300681215090539,,
,4401.0,1006.0,6398.0,491.0,1982.0,3466.0,189.0,,,,1.93468950326922,-2.71747756704028,-1.82856895989628,,-1.3969582128085023,,
,4402.0,1009.0,6404.0,493.0,1984.0,3448.0,155.0,,,,1.93519343035649,-2.7172636350467,-1.82878609816404,,-1.8664262541915138,,
,4408.0,1011.0,6411.0,494.0,1974.0,3439.0,150.0,,,,1.93524021744015,-2.7178917719565,-1.82913493515741,,-2.3347522799311347,,
,4409.0,1008.0,6414.0,491.0,1986.0,3451.0,150.0,,,,1.93510597539245,-2.71772976923521,-1.82901445476515,,-2.7977189913554046,,
,4413.0,1010.0,6422.0,493.0,1969.0,3451.0,155.0,,,,1.93494757322392,-2.71830284080466,-1.8288640916149,,-3.2509406687544105,,
,4418.0,1011.0,6428.0,493.0,1993.0,3431.0,148.0,,,,1.93427708334914,-2.71752940599663,-1.82855494885188,,-3.690119756666865,,
,4419.0,1015.0,6436.0,494.0,1990.0,3430.0,139.0,,,,1.93495992524392,-2.7186450189992,-1.828661622045,,-4.111211345661859,,
,4421.0,1015.0,6440.0,492.0,1978.0,3457.0,144.0,,,,1.9355850843517,-2.71751378389884,-1.82827814712858,,-4.5104933673497944,,
,4425.0,1014.0,6445.0,494.0,1978.0,3451.0,158.0,,,,1.93561087890063,-2.71745361621483,-1.82928752604521,,-4.88455551648104,,
,4430.0,1018.0,6453.0,493.0,1974.0,3471.0,148.0,,,,1.93479095624196,-2.71845598088537,-1.82972700001618,,-5.230231530931006,,
,4435.0,1019.0,6459.0,496.0,1968.0,3478.0,139.0,,,,1.9351028368633,-2.71750448334628,-1.82932283326732,,-5.544506770936087,,
,4438.0,1018.0,6463.0,494.0,1970.0,3480.0,139.0,,,,1.93452811642429,-2.71705190823413,-1.82805785653703,,-5.8244354324764975,,
,4438.0,1022.0,6469.0,495.0,1967.0,3471.0,151.0,,,,1.93528184347718,-2.7178645535405,-1.82887733210377,,-6.067098647349663,,
,4446.0,1024.0,6477.0,496.0,1969.0,3463.0,158.0,,,,1.93519996856895,-2.71770944617128,-1.82918521771876,,-6.269625930144415,,
,4448.0,1027.0,6483.0,495.0,1962.0,3459.0,158.0,,,,1.9349527250537,-2.71828741044908,-1.8288905090622,,-6.4292884695117305,,
,4450.0,1027.0,6488.0,499.0,1953.0,3459.0,159.0,,,,1.93447170790082,-2.71736575920123,-1.82897367344797,,-6.543655355513531,,
,4452.0,1026.0,6496.0,498.0,1945.0,3451.0,166.0,,,,1.93509954782486,-2.71761103984223,-1.82833597228777,,-6.610786163377735,,
,4460.0,1030.0,6503.0,499.0,1961.0,3466.0,169.0,,,,1.93506426059659,-2.71848811462674,-1.82935602394521,,-6.629419800177024,,
,4461.0,1031.0,6510.0,498.0,1945.0,3465.0,161.0,,,,1.93520833866427,-2.71726966491306,-1.82872871316943,,-6.599114599009517,,
,4465.0,1033.0,6517.0,498.0,1951.0,3449.0,160.0,,,,1.93549944379758,-2.71716024614819,-1.83021982059628,,-6.520300638606588,,
,4468.0,1035.0,6523.0,499.0,1979.0,3444.0,185.0,,,,1.93506955577441,-2.71850837138971,-1.82809042230928,,-6.394220930406027,,
,4473.0,1036.0,6532.0,498.0,1968.0,3467.0,177.0,,,,1.93417622869489,-2.71718432463185,-1.82851890198061,,-6.222759232962143,,
2025-07-02 22:21:56,4475.0,1038.0,6536.0,500.0,1955.0,3469.0,162.0,,,2025/07/02 10:21:56 PM,1.93503224968273,-2.71790721785614,-1.82809787374745,,-6.00817369499025,,
,4482.0,1042.0,6542.0,502.0,1967.0,3480.0,160.0,,,,1.93515413546492,-2.71757036458856,-1.82903318724897,,-5.752773093441722,,
,4482.0,1042.0,6550.0,499.0,1960.0,3486.0,136.0,,,,1.93462530961417,-2.71840878570061,-1.82900146776313,,-5.4585836230258185,,
,4489.0,1043.0,6557.0,501.0,1966.0,3490.0,161.0,,,,1.93592174541006,-2.7169106028709,-1.82943445822011,,-5.127058149288731,,
,4491.0,1044.0,6562.0,502.0,1957.0,3464.0,152.0,,,,1.93543180190014,-2.71681753105589,-1.82908429020979,,-4.758876906186619,,
,4493.0,1046.0,6569.0,502.0,1958.0,3478.0,167.0,,,,1.93478052671462,-2.71686880269015,-1.82944581591437,,-4.353879776554857,,
,4494.0,1046.0,6573.0,501.0,1946.0,3473.0,168.0,,,,1.93474060265268,-2.71739648698634,-1.8285813717848,,-3.911156627502749,,
,4488.0,1043.0,6567.0,499.0,1947.0,3490.0,150.0,,,,1.9358266465797,-2.71684343842874,-1.82943011649578,,-3.429304690724398,,
,4482.0,1039.0,6563.0,497.0,1967.0,3480.0,144.0,,,,1.9355994165036,-2.71710892749917,-1.82918166933147,,-2.9068417761071315,,
,4472.0,1035.0,6552.0,495.0,1969.0,3476.0,138.0,,,,1.93488939417786,-2.71664427582642,-1.82911658273503,,-2.3427427148511075,,
,4463.0,1032.0,6534.0,495.0,1962.0,3461.0,151.0,,,,1.93489870340279,-2.71621881199352,-1.82949188970751,,-1.7370461827817598,,
,4447.0,1025.0,6514.0,495.0,1966.0,3465.0,156.0,,,,1.93550650858663,-2.71653801027986,-1.82979022711593,,-1.0914632736400818,,
,4436.0,1019.0,6492.0,492.0,1967.0,3456.0,180.0,,,,1.9353698398639,-2.71590119188749,-1.82921699079378,,-0.40991161052049596,,
,4425.0,1015.0,6470.0,493.0,1960.0,3429.0,171.0,,,,1.93578479841312,-2.71644333298927,-1.8296194016466,,0.30109797635974633,,
,4413.0,1009.0,6451.0,490.0,1964.0,3414.0,176.0,,,,1.93499830885673,-2.71766870254576,-1.83008714166181,,1.0322811602480935,,
,4402.0,1005.0,6429.0,488.0,1975.0,3461.0,176.0,,,,1.93476077763518,-2.71553537558512,-1.83066652338376,,1.7716432608821968,,
,4387.0,999.0,6412.0,483.0,1965.0,3456.0,168.0,,,,1.9346904782662,-2.71682691363478,-1.82925074603468,,2.504797347764123,,
,4382.0,995.0,6395.0,482.0,1962.0,3457.0,173.0,,,,1.93539227688283,-2.71611093379263,-1.82924117535401,,3.21552354369254,,
,4369.0,993.0,6380.0,483.0,1965.0,3470.0,149.0,,,,1.93563708310735,-2.71676344610114,-1.82902426414575,,3.8865331268117194,,
,4368.0,991.0,6369.0,484.0,1967.0,3462.0,145.0,,,,1.93508598961931,-2.71716435982317,-1.82957907013776,,4.500382272322837,,
,4358.0,988.0,6358.0,481.0,1981.0,3472.0,162.0,,,,1.93555145122945,-2.71653308591496,-1.8303756032825,,5.040466175980152,,
,4357.0,987.0,6352.0,482.0,1996.0,3456.0,173.0,,,,1.93547930423101,-2.71652270040453,-1.83172605139724,,5.492015581817501,,
,4353.0,986.0,6350.0,483.0,1993.0,3483.0,161.0,,,,1.93552519953709,-2.71588161272391,-1.83071963400414,,5.843015059548928,,
,4352.0,984.0,6345.0,480.0,1995.0,3479.0,155.0,,,,1.93560552880941,-2.71741652117829,-1.83025862032746,,6.084966191897245,,
,4348.0,984.0,6338.0,481.0,1981.0,3461.0,129.0,,,,1.93532149610892,-2.71655127450922,-1.82966913615713,,6.213429248499432,,
,4346.0,982.0,6336.0,481.0,1971.0,3469.0,141.0,,,,1.93619547766298,-2.71585668806979,-1.83068602406598,,6.228293603829978,,
,4345.0,985.0,6337.0,483.0,1978.0,3453.0,140.0,,,,1.93649187211814,-2.71616878045887,-1.83095545650994,,6.133749115890499,,
,4345.0,981.0,6333.0,481.0,1970.0,3446.0,152.0,,,,1.93644712089016,-2.7149315481948,-1.8305676363588,,5.937956134223679,,
,4344.0,983.0,6333.0,482.0,2000.0,3469.0,150.0,,,,1.9365390339764,-2.71549366585574,-1.83080837522602,,5.652438554859826,,
,4343.0,982.0,6333.0,483.0,1991.0,3472.0,157.0,,,,1.93632443620425,-2.71545531628205,-1.83064262033505,,5.291250550879207,,
,4343.0,983.0,6331.0,480.0,1989.0,3448.0,158.0,,,,1.936551659175,-2.7158012557433,-1.83158081785011,,4.869991635900689,,
,4342.0,984.0,6332.0,483.0,1958.0,3442.0,157.0,,,,1.93606343498361,-2.71584465820258,-1.83115075368114,,4.404763617712246,,
,4342.0,983.0,6331.0,482.0,1954.0,3456.0,153.0,,,,1.93609564585906,-2.71454926938509,-1.83116589893986,,3.911171890232043,,
,4343.0,982.0,6333.0,479.0,1955.0,3438.0,175.0,,,,1.93623083972863,-2.71470777868492,-1.83154063978066,,3.4034677827722626,,
,4345.0,980.0,6333.0,482.0,1964.0,3447.0,166.0,,,,1.9369877724687,-2.71521990195628,-1.83136581429281,,2.8939074326860528,,
,4345.0,984.0,6340.0,484.0,1971.0,3437.0,143.0,,,,1.93635951996077,-2.71493938764808,-1.83144870059092,,2.392369948727382,,
,4345.0,983.0,6341.0,485.0,1959.0,3429.0,118.0,,,,1.93579411463648,-2.71573422436288,-1.83014366000874,,1.9062406175939453,,
,4350.0,983.0,6347.0,482.0,1979.0,3458.0,163.0,,,,1.93596815142752,-2.71656436474419,-1.83011053622483,,1.4405306598902594,,
,4349.0,986.0,6350.0,482.0,1964.0,3438.0,165.0,,,,1.93506728639661,-2.71433223099045,-1.83129892043301,,0.9981787165152702,,
,4351.0,988.0,6352.0,481.0,1957.0,3462.0,157.0,,,,1.93454708520166,-2.71591993820848,-1.83113993148268,,0.5804638343184025,,
,4352.0,989.0,6356.0,483.0,1960.0,3463.0,169.0,,,,1.93483034381284,-2.71637435068907,-1.83083865159862,,0.18745644139092882,,
,4354.0,988.0,6360.0,482.0,1952.0,3435.0,169.0,,,,1.93439178846818,-2.71457938901166,-1.83022114250754,,-0.1815577336912979,,
,4354.0,984.0,6361.0,482.0,1962.0,3448.0,167.0,,,,1.93467173420075,-2.71671547749019,-1.83115434449499,,-0.5277278222964672,,
,4357.0,991.0,6367.0,484.0,1960.0,3465.0,162.0,,,,1.93505659819624,-2.71720054800737,-1.83105858553935,,-0.8523856690342354,,
,4359.0,991.0,6372.0,486.0,1946.0,3472.0,171.0,,,,1.93425235243482,-2.71599428716179,-1.83110168153838,,-1.156891832479576,,
,4361.0,991.0,6372.0,485.0,1945.0,3470.0,171.0,,,,1.93444883646381,-2.71589472388994,-1.83227631513973,,-1.4425627022813874,,
,4358.0,989.0,6378.0,484.0,1948.0,3487.0,179.0,,,,1.93396345078411,-2.71675202602569,-1.83185583830489,,-1.7106530253638947,,
,4360.0,990.0,6378.0,485.0,1957.0,3483.0,186.0,,,,1.93472713384392,-2.71620903728556,-1.83140305168806,,-1.9623681416745067,,
,4362.0,990.0,6379.0,483.0,1944.0,3476.0,188.0,,,,1.93461463266314,-2.71703331638631,-1.8316347351747,,-2.198886180198187,,
,4360.0,990.0,6383.0,485.0,1949.0,3475.0,182.0,,,,1.93389870428514,-2.71728408649704,-1.83233893566572,,-2.421378619220869,,
,4361.0,990.0,6384.0,483.0,1963.0,3470.0,171.0,,,,1.93355804367621,-2.71801831121305,-1.83166583520147,,-2.6310248685961595,,
,4362.0,991.0,6386.0,483.0,1961.0,3477.0,180.0,,,,1.93473039062376,-2.71604528470738,-1.83129499320161,,-2.829021366882617,,
,4362.0,991.0,6389.0,484.0,1957.0,3452.0,156.0,,,,1.9338363543986,-2.71737607818585,-1.8317184060341,,-3.016588136303979,,
,4368.0,994.0,6392.0,485.0,1964.0,3440.0,158.0,,,,1.93384799197673,-2.71811182451452,-1.83129102564996,,-3.1949766204355874,,
,4361.0,992.0,6393.0,485.0,1963.0,3445.0,156.0,,,,1.93339456946328,-2.71617585472416,-1.83197355948475,,-3.365482662181962,,
,4365.0,993.0,6397.0,484.0,1959.0,3444.0,164.0,,,,1.93361500876633,-2.71655260427119,-1.83199890496533,,-3.5294678319627946,,
,4367.0,995.0,6399.0,486.0,1983.0,3447.0,165.0,,,,1.93382374012593,-2.71661439332008,-1.8306841127394,,-3.688390664788651,,
,4368.0,994.0,6403.0,486.0,1982.0,3432.0,150.0,,,,1.93372910577668,-2.71573635995094,-1.83111300072947,,-3.8438462237918283,,
,4371.0,996.0,6408.0,486.0,1976.0,3443.0,163.0,,,,1.93395738763222,-2.71729699465349,-1.83238050404713,,-3.997607575653019,,
,4372.0,996.0,6411.0,485.0,1964.0,3449.0,161.0,,,,1.93431340484795,-2.71672042928315,-1.8315827725692,,-4.1516568749664975,,
,4376.0,996.0,6417.0,486.0,1978.0,3466.0,176.0,,,,1.9348344066341,-2.71736279435192,-1.83298893987163,,-4.308188659475849,,
,4378.0,998.0,6420.0,485.0,1975.0,3450.0,181.0,,,,1.93432933193222,-2.71730935337423,-1.83131591994887,,-4.469566294042166,,
,4380.0,1001.0,6426.0,488.0,1975.0,3467.0,179.0,,,,1.93467508628817,-2.71650507596043,-1.83203284138516,,-4.6382162434354735,,
,4383.0,1000.0,6431.0,486.0,1959.0,3459.0,175.0,,,,1.93407994907219,-2.71787903864338,-1.83193791894849,,-4.81645381475155,,
,4383.0,1002.0,6436.0,486.0,1965.0,3458.0,180.0,,,,1.93475830764996,-2.71730077148572,-1.83254734815914,,-5.0062457114529675,,
,4388.0,1006.0,6444.0,488.0,1958.0,3455.0,172.0,,,,1.93423814180829,-2.71651338995211,-1.83198515494541,,-5.20892583663587,,
,4390.0,1006.0,6450.0,489.0,1956.0,3457.0,172.0,,,,1.93409066940977,-2.71713059524849,-1.83218121998059,,-5.424888760540567,,
,4394.0,1007.0,6455.0,488.0,1961.0,3461.0,177.0,,,,1.93401916360554,-2.71618100396906,-1.83122549783066,,-5.6532892623866156,,
,4396.0,1005.0,6460.0,487.0,1972.0,3482.0,189.0,,,,1.93412530091364,-2.7170771098113,-1.83170070679657,,-5.891776987527744,,
,4401.0,1009.0,6465.0,489.0,1962.0,3471.0,167.0,,,,1.93422462220812,-2.71720516655892,-1.83229482747671,,-6.1362939514196855,,
,4403.0,1011.0,6475.0,489.0,1975.0,3456.0,167.0,,,,1.93501387966529,-2.71686495444004,-1.83327476024674,,-6.380960704916824,,
,4409.0,1012.0,6479.0,490.0,1970.0,3460.0,163.0,,,,1.93442619311486,-2.71727947334538,-1.83237391145162,,-6.618074783996663,,
,4409.0,1013.0,6486.0,488.0,1957.0,3474.0,166.0,,,,1.93511837789231,-2.71618512304507,-1.83256097684982,,-6.838241568888067,,
,4413.0,1016.0,6494.0,491.0,1971.0,3481.0,153.0,,,,1.93522649480026,-2.71659601537444,-1.83271862440595,,-7.030651094092869,,
,4414.0,1018.0,6500.0,491.0,1962.0,3450.0,157.0,,,,1.93445228878894,-2.71674264826048,-1.8322314732819,,-7.183503328684197,,
,4418.0,1018.0,6508.0,492.0,1955.0,3444.0,165.0,,,,1.93560522593796,-2.71594244679048,-1.83281272474809,,-7.284568958517274,,
,4424.0,1022.0,6511.0,491.0,1950.0,3472.0,179.0,,,,1.93456449346328,-2.71624586445283,-1.83290376295049,,-7.321854415077253,,
,4425.0,1021.0,6516.0,489.0,1952.0,3469.0,170.0,,,,1.93531940609912,-2.71659713874864,-1.83280117618081,,-7.284322125027368,,
,4431.0,1024.0,6526.0,492.0,1951.0,3462.0,162.0,,,,1.93515199818306,-2.71648037238394,-1.83304454170728,,-7.162603960766385,,
,4433.0,1026.0,6532.0,493.0,1949.0,3459.0,164.0,,,,1.93488590182423,-2.71630290038541,-1.83311301882893,,-6.949641276996613,,
,4437.0,1027.0,6540.0,497.0,1961.0,3463.0,154.0,,,,1.93498685755176,-2.71671391062018,-1.83267967134275,,-6.641190081540542,,
,4436.0,1027.0,6546.0,493.0,1961.0,3457.0,177.0,,,,1.93556927482218,-2.7172608699433,-1.83316722501349,,-6.236143555630319,,
,4443.0,1031.0,6553.0,496.0,1966.0,3446.0,167.0,,,,1.93563095241106,-2.71687702893717,-1.83217513195365,,-5.736643486663692,,
,4449.0,1032.0,6557.0,495.0,1963.0,3471.0,176.0,,,,1.93534610369732,-2.71566459858175,-1.83321520310037,,-5.147974106857279,,
,4450.0,1034.0,6565.0,497.0,1968.0,3473.0,176.0,,,,1.93600242641065,-2.71638736555351,-1.83280801852346,,-4.478253483805206,,
,4455.0,1035.0,6571.0,495.0,1968.0,3463.0,179.0,,,,1.93576328472104,-2.71553689965726,-1.83408594412176,,-3.737956327779459,,
,4458.0,1035.0,6579.0,496.0,1960.0,3450.0,162.0,,,,1.93549515468018,-2.71676271011557,-1.83254294218412,,-2.9393157281934097,,
,4462.0,1039.0,6587.0,498.0,1982.0,3450.0,180.0,,,,1.93580057631382,-2.71698655167933,-1.83287108331765,,-2.0956588892885626,,
,4468.0,1042.0,6591.0,497.0,1994.0,3457.0,168.0,,,,1.93560435635306,-2.71669021207141,-1.83339280908762,,-1.2207335307462415,,
,4468.0,1042.0,6601.0,498.0,1972.0,3473.0,161.0,,,,1.93614286097098,-2.71645405593422,-1.83295302001675,,-0.32807788293968376,,
,4473.0,1044.0,6605.0,497.0,1950.0,3444.0,164.0,,,,1.9361201937774,-2.71575306258992,-1.83311002187534,,0.5695213131804012,,
,4477.0,1048.0,6614.0,498.0,1950.0,3433.0,180.0,,,,1.9357390608281,-2.7165856249329,-1.83298093243447,,1.4604512673578194,,
,4481.0,1049.0,6622.0,500.0,1964.0,3447.0,171.0,,,,1.93557967745682,-2.71611054594046,-1.83231339060441,,2.3345609672200087,,
,4487.0,1049.0,6629.0,502.0,1979.0,3480.0,186.0,,,,1.93518660154539,-2.71617247761813,-1.83220224431001,,3.183317370081088,,
,4488.0,1051.0,6630.0,499.0,1972.0,3457.0,172.0,,,,1.9353817875688,-2.71668450974095,-1.83295333267046,,3.999849303622046,,
,4493.0,1054.0,6640.0,501.0,1956.0,3452.0,150.0,,,,1.93594521389998,-2.71655514484589,-1.83312171417275,,4.778908986289519,,
,4493.0,1055.0,6647.0,501.0,1958.0,3463.0,150.0,,,,1.93587680621844,-2.71563957539772,-1.83319015365375,,5.516783219465904,,
,4494.0,1053.0,6649.0,499.0,1962.0,3475.0,147.0,,,,1.93561753118112,-2.71740915376963,-1.83245195494444,,6.211180336662696,,
,4486.0,1050.0,6645.0,498.0,1948.0,3488.0,168.0,,,,1.93562514909857,-2.71703183711145,-1.83311948582624,,6.861107981271877,,
,4482.0,1047.0,6640.0,499.0,1949.0,3469.0,180.0,,,,1.93568041891964,-2.71624016392485,-1.83330743388152,,7.466744812952218,,
,4472.0,1044.0,6630.0,497.0,1947.0,3486.0,172.0,,,,1.93605226587399,-2.71639179408668,-1.83320514866731,,8.029299613978061,,
,4458.0,1040.0,6610.0,495.0,1953.0,3484.0,159.0,,,,1.93523418071494,-2.71634577702144,-1.83364380672493,,8.550845711767032,,
,4446.0,1031.0,6588.0,492.0,1967.0,3487.0,184.0,,,,1.93613319952321,-2.71637876002004,-1.83256624325649,,9.034117593275413,,
,4434.0,1027.0,6567.0,491.0,1956.0,3492.0,182.0,,,,1.93563088689921,-2.71697775773359,-1.83302596394879,,9.48225977857731,,
,4419.0,1020.0,6544.0,490.0,1940.0,3476.0,172.0,,,,1.93600632618281,-2.71593929360116,-1.83366463864232,,9.898524825573517,,
,4407.0,1018.0,6522.0,489.0,1954.0,3469.0,174.0,,,,1.93667073321302,-2.71629338232891,-1.83389909134191,,10.285927023468957,,
,4392.0,1012.0,6499.0,489.0,1960.0,3477.0,195.0,,,,1.93760234058802,-2.71655426761488,-1.83337250367819,,10.646870029775377,,
,4382.0,1007.0,6482.0,484.0,1960.0,3468.0,187.0,,,,1.93657439140199,-2.71719396376097,-1.83232095461784,,10.982779013331346,,
,4375.0,1003.0,6467.0,484.0,1977.0,3472.0,197.0,,,,1.93726549323576,-2.71703339386473,-1.83294259579596,,11.293778339313183,,
,4367.0,1000.0,6450.0,484.0,1971.0,3455.0,182.0,,,,1.93652179669073,-2.7161670566973,-1.83374079584107,,11.578461002430855,,
,4361.0,999.0,6442.0,484.0,1969.0,3446.0,182.0,,,,1.93672587754348,-2.71617669787179,-1.83237250042836,,11.833792537564772,,
,4353.0,996.0,6429.0,481.0,1974.0,3425.0,184.0,,,,1.93655229402564,-2.71635668502044,-1.83320700599763,,12.055178699611488,,
,4351.0,997.0,6421.0,483.0,1993.0,3442.0,175.0,,,,1.93727827533738,-2.71591447389949,-1.83323104405581,,12.236704701558699,,
,4348.0,993.0,6414.0,484.0,1984.0,3420.0,161.0,,,,1.93746594697939,-2.71592880371628,-1.83411868907812,,12.37152869750447,,
,4344.0,996.0,6411.0,483.0,1977.0,3422.0,154.0,,,,1.93726716699226,-2.71486597886207,-1.83224822020444,,12.452388714266196,,
,4344.0,991.0,6406.0,482.0,1994.0,3453.0,146.0,,,,1.93719075185793,-2.71497609147255,-1.83335286021775,,12.47216486465266,,
,4342.0,991.0,6401.0,481.0,2001.0,3433.0,139.0,,,,1.9366367900569,-2.71540435663443,-1.83302748154629,,12.42443059294663,,
,4344.0,991.0,6402.0,483.0,2007.0,3437.0,118.0,,,,1.9371983610113,-2.71495695624983,-1.8328829196098,,12.303929423835028,,
,4342.0,990.0,6400.0,482.0,1987.0,3442.0,102.0,,,,1.93759488508121,-2.71607882247372,-1.83422291098918,,12.106926593215123,,
,4340.0,990.0,6397.0,483.0,1990.0,3463.0,108.0,,,,1.93809366817753,-2.71519852675107,-1.8334499108924,,11.831405239084155,,
,4339.0,989.0,6393.0,479.0,1977.0,3470.0,160.0,,,,1.93776194546012,-2.71495666112085,-1.83355476845778,,11.477100423908402,,
,4341.0,991.0,6397.0,481.0,1994.0,3465.0,175.0,,,,1.93804512260684,-2.71440683107274,-1.83315259447243,,11.045387068712984,,
,4341.0,991.0,6398.0,481.0,1985.0,3466.0,179.0,,,,1.9379495668756,-2.71584101664211,-1.83361950433978,,10.539056712937,,
,4341.0,993.0,6397.0,482.0,1967.0,3465.0,193.0,,,,1.93799965447716,-2.71452601803105,-1.83386833548622,,9.962030547973814,,
,4344.0,991.0,6398.0,480.0,1949.0,3448.0,212.0,,,,1.93815875106674,-2.71443205589381,-1.83336227909153,,9.319060496162177,,
,4346.0,991.0,6401.0,482.0,1940.0,3447.0,190.0,,,,1.93853468903274,-2.71515872720808,-1.83330806455421,,8.615464933997208,,
,4349.0,996.0,6404.0,483.0,1937.0,3429.0,193.0,,,,1.93771691019822,-2.71469541561822,-1.83362638840833,,7.856931658028603,,
,4352.0,991.0,6410.0,483.0,1943.0,3432.0,183.0,,,,1.93780796537298,-2.71507433532191,-1.83431335787715,,7.049401534420064,,
2025-07-02 22:21:57,4352.0,994.0,6410.0,485.0,1944.0,3440.0,151.0,,,2025/07/02 10:21:57 PM,1.93778566307933,-2.71528359167088,-1.83466767607411,,6.199027511222698,,
,4357.0,997.0,6415.0,482.0,1942.0,3436.0,137.0,,,,1.93801731822265,-2.71578633223589,-1.83347644280983,,5.312189983275482,,
,4361.0,996.0,6421.0,484.0,1933.0,3427.0,176.0,,,,1.93683712972676,-2.71629246182993,-1.83299386231673,,4.395542780479704,,
,4362.0,999.0,6424.0,487.0,1944.0,3437.0,192.0,,,,1.93678538106437,-2.71533469959266,-1.83323374582527,,3.456063625225064,,
,4363.0,999.0,6427.0,483.0,1960.0,3447.0,176.0,,,,1.93679588503563,-2.71517087877173,-1.83356167807389,,2.5010868275190914,,
,4365.0,1000.0,6431.0,484.0,1960.0,3440.0,160.0,,,,1.93811508115397,-2.7146541813503,-1.83304920205171,,1.5383020574733564,,
,4370.0,1000.0,6438.0,485.0,1957.0,3447.0,175.0,,,,1.93717361866119,-2.71344820909622,-1.83370463573268,,0.5757092995577805,,
,4373.0,1002.0,6441.0,487.0,1946.0,3442.0,168.0,,,,1.93723879884527,-2.71564210538063,-1.83380901744498,,-0.3784747511853101,,
,4374.0,1001.0,6445.0,485.0,1945.0,3437.0,174.0,,,,1.93724055771831,-2.71394266584858,-1.83254251255904,,-1.3159597960322502,,
,4375.0,1000.0,6445.0,483.0,1953.0,3428.0,172.0,,,,1.937508975624,-2.71327645824287,-1.83286177337988,,-2.2285721865415393,,
,4375.0,1004.0,6451.0,485.0,1952.0,3454.0,181.0,,,,1.93712054951178,-2.7144219674493,-1.83273684550272,,-3.108485661763278,,
,4379.0,1003.0,6454.0,485.0,1968.0,3456.0,185.0,,,,1.93754339272393,-2.71486887000283,-1.83439156449147,,-3.948479482486809,,
,4376.0,1003.0,6456.0,486.0,1970.0,3460.0,187.0,,,,1.93734170700737,-2.7152709319695,-1.83454856957547,,-4.742202847609085,,
,4379.0,1004.0,6456.0,486.0,1970.0,3462.0,189.0,,,,1.93669246802289,-2.7157256122438,-1.8340081590013,,-5.4844174611146,,
,4378.0,1005.0,6459.0,487.0,1973.0,3473.0,160.0,,,,1.93548685449333,-2.71633428687577,-1.83404789673924,,-6.171187688829967,,
