TimeLabel,MEAS1_PPG1,MEAS1_PPG2,MEAS1_PPG3,MEAS1_PPG4,ACCX,ACCY,ACCZ,HR_timestamp,HR_value,radar_timestamp,phase_rx0,phase_rx1,phase_rx2,timestep,n_process,original_rate,calculated_rate
2025-07-29 18:30:20,7731.0,1716.0,8441.0,1943.0,1774.0,2585.0,2378.0,2025-07-29 18:30:51,68.0,2025/07/29 06:30:20 PM,2.03784094720932,-3.13056336591765,-1.64152028219171,2025/07/29 06:30:20 PM,-0.25125757451524167,8.189263343811035,11.954797779540048
,7733.0,1717.0,8442.0,1943.0,1766.0,2619.0,2386.0,2025-07-29 18:30:52,68.0,,2.03842462095782,-3.13253746848763,-1.6413425452249,2025/07/29 06:30:30 PM,-0.30535146402206537,10.600706100463867,13.348164627363733
,7738.0,1718.0,8443.0,1943.0,1771.0,2618.0,2379.0,2025-07-29 18:30:53,68.0,,2.03801377667798,-3.1305793544148,-1.64119642261405,2025/07/29 06:30:40 PM,-0.3167695370913176,12.008005142211914,10.814321669237644
,7738.0,1717.0,8440.0,1941.0,1763.0,2617.0,2389.0,2025-07-29 18:30:54,68.0,,2.03870156246999,-3.13067625492298,-1.6405201154777,2025/07/29 06:30:50 PM,-0.30057617486157145,12.264923095703123,14.451612903225799
,7741.0,1719.0,8441.0,1946.0,1774.0,2602.0,2374.0,2025-07-29 18:30:55,69.0,,2.03878681518756,-3.13036645254111,-1.64062747919222,2025/07/29 06:31:00 PM,-0.2714384557326043,12.658227920532228,17.105219460895565
,7746.0,1721.0,8445.0,1949.0,1765.0,2589.0,2375.0,2025-07-29 18:30:56,70.0,,2.03911911780851,-3.13070714859846,-1.64143816800788,2025/07/29 06:31:10 PM,-0.24260537478018018,13.432836532592772,15.228915662650593
,7750.0,1724.0,8446.0,1948.0,1763.0,2586.0,2392.0,2025-07-29 18:30:57,71.0,,2.03871288931627,-3.13114067504047,-1.64035988542297,2025/07/29 06:31:20 PM,-0.2250732913380497,15.49815559387207,16.22203811101905
,7753.0,1724.0,8446.0,1951.0,1768.0,2608.0,2391.0,2025-07-29 18:30:58,72.0,,2.03837905960239,-3.13055242589321,-1.64127344358397,2025/07/29 06:31:30 PM,-0.2269882309645963,16.183412551879883,14.907455992993624
,7757.0,1725.0,8444.0,1949.0,1757.0,2595.0,2393.0,2025-07-29 18:30:59,73.0,,2.03821013095591,-3.13125107521721,-1.64171851631279,2025/07/29 06:31:40 PM,-0.2533164234772825,15.718563079833984,13.57466063348417
,7765.0,1726.0,8449.0,1956.0,1751.0,2600.0,2387.0,2025-07-29 18:31:00,72.0,,2.03754438048183,-3.13035595771329,-1.63990880359482,2025/07/29 06:31:50 PM,-0.3057933462320177,14.827018737792969,17.29935698975946
,7766.0,1727.0,8450.0,1958.0,1760.0,2582.0,2383.0,2025-07-29 18:31:01,70.0,,2.03849992829238,-3.13063665564825,-1.64172964873378,2025/07/29 06:32:00 PM,-0.3831400567762202,14.50443172454834,17.564102564102544
,7772.0,1730.0,8453.0,1956.0,1766.0,2602.0,2378.0,2025-07-29 18:31:02,70.0,,2.03953969840337,-3.13041231689056,-1.64175832756095,2025/07/29 06:32:10 PM,-0.481515114183055,16.0060977935791,14.486794465182873
,7774.0,1729.0,8450.0,1957.0,1759.0,2577.0,2390.0,2025-07-29 18:31:03,69.0,,2.03830512728633,-3.13011637815023,-1.64157639076789,2025/07/29 06:32:20 PM,-0.5951520619142322,16.587678909301758,13.59447004608296
,7781.0,1733.0,8453.0,1960.0,1771.0,2587.0,2382.0,2025-07-29 18:31:04,68.0,,2.03910287544911,-3.1309681472827,-1.64078725162001,2025/07/29 06:32:30 PM,-0.7171174668992171,14.925373077392578,14.210526315789451
,7787.0,1730.0,8452.0,1959.0,1761.0,2608.0,2392.0,2025-07-29 18:31:05,69.0,,2.03870595096808,-3.13096851534446,-1.64164569529487,2025/07/29 06:32:40 PM,-0.8401145497152603,13.986014366149902,13.749701171408072
,7790.0,1735.0,8450.0,1961.0,1759.0,2588.0,2381.0,2025-07-29 18:31:06,69.0,,2.03795459227887,-3.13084072498471,-1.641129825529,2025/07/29 06:32:50 PM,-0.9572545963791009,13.564431190490724,13.792207792207805
,7794.0,1735.0,8453.0,1964.0,1766.0,2566.0,2372.0,2025-07-29 18:31:07,70.0,,2.03650943931856,-3.13083215746855,-1.64196106004114,2025/07/29 06:33:00 PM,-1.0627241087774593,13.513513565063477,16.472251679038525
,7798.0,1738.0,8455.0,1965.0,1761.0,2584.0,2374.0,2025-07-29 18:31:08,70.0,,2.03650337339422,-3.13147102496064,-1.64156443545472,2025/07/29 06:33:10 PM,-1.1522897007785675,14.52784538269043,17.517605633802802
,7801.0,1737.0,8455.0,1966.0,1750.0,2585.0,2382.0,2025-07-29 18:31:09,70.0,,2.03747240321386,-3.13123754952965,-1.64173692985735,,-1.2236027997928038,,
,7808.0,1739.0,8456.0,1969.0,1757.0,2579.0,2383.0,2025-07-29 18:31:10,71.0,,2.03600137959967,-3.13058833555812,-1.64112129117739,,-1.2762890857738243,,
,7811.0,1739.0,8454.0,1968.0,1756.0,2577.0,2369.0,2025-07-29 18:31:11,70.0,,2.03571773131702,-3.13147923718932,-1.6423511432628,,-1.3118303647920426,,
,7815.0,1742.0,8457.0,1969.0,1760.0,2578.0,2373.0,2025-07-29 18:31:12,70.0,,2.0359817530859,-3.13155102902997,-1.64175817969485,,-1.333266982505136,,
,7819.0,1740.0,8459.0,1970.0,1770.0,2600.0,2397.0,2025-07-29 18:31:13,68.0,,2.03494240965029,-3.13163976686392,-1.64216128869528,,-1.3447651282426545,,
,7825.0,1745.0,8458.0,1974.0,1760.0,2585.0,2382.0,2025-07-29 18:31:14,67.0,,2.03529245982322,-3.13165704708292,-1.64127521429415,,-1.351103891846792,,
,7827.0,1745.0,8460.0,1974.0,1780.0,2588.0,2377.0,2025-07-29 18:31:15,66.0,,2.03612407647113,-3.13153846684789,-1.64167681525126,,-1.357140663878127,,
,7830.0,1746.0,8459.0,1976.0,1776.0,2592.0,2398.0,2025-07-29 18:31:16,65.0,,2.03588859542678,-3.13106068328317,-1.64150276242231,,-1.3673104102771256,,
,7834.0,1748.0,8459.0,1977.0,1747.0,2573.0,2374.0,2025-07-29 18:31:17,64.0,,2.03481181013105,-3.13131049660216,-1.64094776400382,,-1.38520567506498,,
,7835.0,1749.0,8464.0,1978.0,1758.0,2577.0,2346.0,2025-07-29 18:31:18,63.0,,2.03553861464961,-3.13227436526119,-1.64121701683245,,-1.4132717588880372,,
,7841.0,1752.0,8464.0,1979.0,1761.0,2584.0,2360.0,2025-07-29 18:31:19,63.0,,2.03512847268618,-3.13141875033234,-1.64106510164423,,-1.4526373202666991,,
,7841.0,1751.0,8461.0,1980.0,1755.0,2574.0,2397.0,2025-07-29 18:31:20,62.0,,2.03467363120265,-3.13164054547267,-1.64108449676226,,-1.5030861591853109,,
,7848.0,1754.0,8462.0,1980.0,1756.0,2590.0,2379.0,2025-07-29 18:31:21,64.0,,2.03364084036767,-3.13195993661617,-1.64142786243418,,-1.5631621551040014,,
,7852.0,1753.0,8463.0,1980.0,1761.0,2589.0,2365.0,2025-07-29 18:31:22,65.0,,2.03480396330218,-3.1321079409899,-1.64175266016303,,-1.6303869376713178,,
,7853.0,1757.0,8465.0,1985.0,1759.0,2609.0,2348.0,2025-07-29 18:31:23,66.0,,2.03413023440849,-3.13153619271704,-1.64102317334007,,-1.701559702620192,,
,7855.0,1755.0,8467.0,1983.0,1767.0,2584.0,2398.0,2025-07-29 18:31:24,67.0,,2.03412480489035,-3.13210792986035,-1.64114636324414,,-1.7731019287520304,,
,7858.0,1754.0,8460.0,1984.0,1775.0,2604.0,2390.0,2025-07-29 18:31:25,67.0,,2.03494010549841,-3.13204789696251,-1.64225835260483,,-1.8414080241097812,,
,7865.0,1755.0,8467.0,1986.0,1768.0,2618.0,2384.0,2025-07-29 18:31:26,67.0,,2.03505361690315,-3.13194264740056,-1.64109749831208,,-1.9031667107711396,,
,7867.0,1759.0,8468.0,1985.0,1764.0,2601.0,2409.0,2025-07-29 18:31:27,66.0,,2.03446333562962,-3.13207939866543,-1.64072866944015,,-1.9556261933362105,,
,7868.0,1759.0,8466.0,1987.0,1756.0,2593.0,2400.0,2025-07-29 18:31:28,66.0,,2.03459397374896,-3.13182091923872,-1.64129740723887,,-1.9967865064006338,,
,7872.0,1761.0,8467.0,1984.0,1755.0,2595.0,2380.0,2025-07-29 18:31:29,65.0,,2.03433092771928,-3.1316617874941,-1.64046052322213,,-2.0255125522030974,,
,7873.0,1758.0,8468.0,1989.0,1760.0,2587.0,2396.0,2025-07-29 18:31:30,65.0,,2.03594992113368,-3.131552479238,-1.64100096161862,,-2.041569840255758,,
,7877.0,1763.0,8469.0,1989.0,1753.0,2571.0,2391.0,2025-07-29 18:31:31,65.0,,2.03587249772047,-3.1307320929068,-1.64089933681276,,-2.045591380573644,,
,7883.0,1761.0,8468.0,1992.0,1748.0,2581.0,2380.0,2025-07-29 18:31:32,65.0,,2.03634987465055,-3.13174307927458,-1.64084371939536,,-2.0389884686877746,,
,7885.0,1764.0,8468.0,1990.0,1749.0,2578.0,2366.0,2025-07-29 18:31:33,64.0,,2.03728573593219,-3.13181679961905,-1.64022288809911,,-2.0238201480970646,,
,7887.0,1764.0,8469.0,1991.0,1750.0,2581.0,2360.0,2025-07-29 18:31:34,64.0,,2.0374472295912,-3.13112193279462,-1.64139243422954,,-2.002635971288852,,
,7892.0,1766.0,8471.0,1994.0,1759.0,2580.0,2383.0,2025-07-29 18:31:35,64.0,,2.0378103662155,-3.13078887216004,-1.64124108803512,,-1.9783046751071292,,
,7896.0,1770.0,8470.0,1996.0,1766.0,2570.0,2395.0,2025-07-29 18:31:36,63.0,,2.03809152364754,-3.13173771639605,-1.64064202291849,,-1.9538382758576307,,
,7901.0,1768.0,8470.0,1995.0,1755.0,2596.0,2389.0,2025-07-29 18:31:37,63.0,,2.03809109602317,-3.13080880335781,-1.64169751564926,,-1.932217753173496,,
,7902.0,1771.0,8471.0,1996.0,1756.0,2567.0,2373.0,2025-07-29 18:31:38,63.0,,2.03758114232833,-3.13047830187307,-1.64026911996044,,-1.9162236394994825,,
,7908.0,1772.0,8472.0,1999.0,1739.0,2572.0,2411.0,2025-07-29 18:31:39,63.0,,2.03829174555992,-3.13101630271887,-1.6404768002201,,-1.9082727585051529,,
,7911.0,1771.0,8472.0,1999.0,1749.0,2578.0,2405.0,2025-07-29 18:31:40,62.0,,2.03869784081764,-3.13099908377751,-1.640470821596,,-1.9102609076760404,,
,7916.0,1774.0,8475.0,2002.0,1751.0,2583.0,2371.0,2025-07-29 18:31:41,62.0,,2.03867479486502,-3.13100864407323,-1.64108770251981,,-1.923410144654651,,
,7919.0,1774.0,8473.0,2001.0,1756.0,2605.0,2371.0,2025-07-29 18:31:42,62.0,,2.03880940908534,-3.13092863020192,-1.64070659752586,,-1.948118580330065,,
,7922.0,1777.0,8476.0,2004.0,1757.0,2595.0,2387.0,2025-07-29 18:31:43,61.0,,2.03867971723725,-3.13057841219777,-1.64103120212259,,-1.9838110531095212,,
,7929.0,1777.0,8476.0,2004.0,1763.0,2581.0,2375.0,2025-07-29 18:31:44,61.0,,2.03912222785689,-3.13037947141662,-1.64092549882818,,-2.028792031933261,,
,7934.0,1779.0,8475.0,2005.0,1761.0,2595.0,2373.0,2025-07-29 18:31:45,60.0,,2.03857935630891,-3.13101047066241,-1.6411434975382,,-2.080108104514351,,
,7932.0,1782.0,8473.0,2007.0,1752.0,2603.0,2381.0,2025-07-29 18:31:46,60.0,,2.04010088583182,-3.13107552455482,-1.64102060432621,,-2.1334353531116217,,
,7941.0,1781.0,8478.0,2010.0,1765.0,2580.0,2391.0,2025-07-29 18:31:47,60.0,,2.03851908356486,-3.13081009174748,-1.63985729962065,,-2.1830144453768066,,
,7941.0,1783.0,8476.0,2008.0,1762.0,2585.0,2370.0,2025-07-29 18:31:48,60.0,,2.03922791877022,-3.13077446149768,-1.64085562269477,,-2.221660955264191,,
,7943.0,1785.0,8480.0,2011.0,1759.0,2585.0,2371.0,2025-07-29 18:31:49,60.0,,2.03876071468214,-3.13173454235739,-1.64131974454863,,-2.240878686852001,,
,7937.0,1783.0,8480.0,2006.0,1766.0,2565.0,2400.0,2025-07-29 18:31:50,60.0,,2.03846610941393,-3.13116426161611,-1.64113751568938,,-2.231098978656255,,
,7929.0,1781.0,8476.0,2002.0,1772.0,2571.0,2398.0,2025-07-29 18:31:51,60.0,,2.03729005106822,-3.13115845880567,-1.64035890532963,,-2.1820592264055376,,
,7914.0,1778.0,8475.0,2000.0,1761.0,2569.0,2391.0,2025-07-29 18:31:52,60.0,,2.03580136230125,-3.13239416633943,-1.6405459153962,,-2.0833198953337235,,
,7897.0,1771.0,8473.0,1994.0,1755.0,2576.0,2377.0,2025-07-29 18:31:53,60.0,,2.03541226134476,-3.13212592567701,-1.64078691041664,,-1.9249025322345785,,
,7876.0,1767.0,8468.0,1987.0,1757.0,2569.0,2384.0,2025-07-29 18:31:54,60.0,,2.03381001027738,-3.13340529132543,-1.64117182471789,,-1.6980139229808957,,
,7859.0,1760.0,8461.0,1978.0,1755.0,2562.0,2375.0,2025-07-29 18:31:55,60.0,,2.03344876953409,-3.13284606246853,-1.63966461779823,,-1.3958062334808896,,
,7838.0,1755.0,8460.0,1973.0,1762.0,2573.0,2383.0,2025-07-29 18:31:56,60.0,,2.03230127763337,-3.13370886556135,-1.63976566620357,,-1.014112337927583,,
,7820.0,1749.0,8451.0,1964.0,1750.0,2565.0,2370.0,2025-07-29 18:31:57,61.0,,2.03266773760182,-3.13323139059677,-1.64130458420916,,-0.5520915931833701,,
,7800.0,1744.0,8447.0,1958.0,1756.0,2576.0,2383.0,2025-07-29 18:31:58,61.0,,2.03225575104978,-3.13363262195099,-1.64204651005698,,-0.012724901493839693,,
,7783.0,1735.0,8442.0,1949.0,1765.0,2556.0,2381.0,2025-07-29 18:31:59,61.0,,2.03215075371797,-3.1342492748802,-1.64080146462555,,0.5968917813465102,,
,7767.0,1730.0,8436.0,1945.0,1760.0,2569.0,2369.0,2025-07-29 18:32:00,61.0,,2.0297186251959,-3.13431828641557,-1.64163587766891,,1.2654915829248479,,
,7753.0,1727.0,8434.0,1940.0,1776.0,2592.0,2376.0,2025-07-29 18:32:01,62.0,,2.03047476027431,-3.1343567493656,-1.64013512684986,,1.97783812125542,,
,7740.0,1725.0,8430.0,1935.0,1777.0,2594.0,2378.0,2025-07-29 18:32:02,62.0,,2.03026862303564,-3.13389040957172,-1.64076968982445,,2.7151873929730517,,
,7729.0,1721.0,8422.0,1933.0,1771.0,2584.0,2400.0,2025-07-29 18:32:03,62.0,,2.03041347872601,-3.13356903601859,-1.64132765983427,,3.4559973110780597,,
,7724.0,1718.0,8424.0,1926.0,1760.0,2590.0,2397.0,2025-07-29 18:32:04,62.0,,2.02975464833298,-3.13409558088811,-1.64136494040977,,4.1768561235250825,,
,7720.0,1715.0,8424.0,1926.0,1757.0,2579.0,2374.0,2025-07-29 18:32:05,62.0,,2.0301958448661,-3.13438650415999,-1.64097788580317,,4.853585448151248,,
,7717.0,1716.0,8423.0,1924.0,1750.0,2580.0,2358.0,2025-07-29 18:32:06,62.0,,2.03157929201496,-3.13451128221128,-1.64087540922333,,5.4624597397467785,,
,7713.0,1713.0,8422.0,1924.0,1756.0,2608.0,2370.0,2025-07-29 18:32:07,63.0,,2.03204620837513,-3.13383699596514,-1.63984781715435,,5.981472793195455,,
,7713.0,1713.0,8425.0,1927.0,1774.0,2582.0,2384.0,2025-07-29 18:32:08,63.0,,2.03162676398169,-3.13347626654924,-1.64087786115948,,6.391573893271008,,
,7714.0,1710.0,8426.0,1928.0,1766.0,2583.0,2385.0,2025-07-29 18:32:09,65.0,,2.0310596192163,-3.13318351105695,-1.64085822017445,,6.677791654279814,,
,7717.0,1714.0,8426.0,1928.0,1770.0,2580.0,2385.0,2025-07-29 18:32:10,65.0,,2.03211185629444,-3.13367323989222,-1.64094729969796,,6.830163111408407,,
,7713.0,1713.0,8429.0,1930.0,1770.0,2568.0,2368.0,2025-07-29 18:32:11,67.0,,2.03199191140587,-3.13333369425224,-1.6412196154127,,6.844390637845482,,
,7718.0,1711.0,8433.0,1927.0,1756.0,2576.0,2393.0,2025-07-29 18:32:12,68.0,,2.03234680223852,-3.13399497743258,-1.64112451734012,,6.722161489186144,,
,7723.0,1717.0,8437.0,1934.0,1763.0,2580.0,2406.0,2025-07-29 18:32:13,69.0,,2.03300496690925,-3.13370462160665,-1.64103991873619,,6.471085475854962,,
,7727.0,1719.0,8441.0,1935.0,1745.0,2612.0,2398.0,2025-07-29 18:32:14,71.0,,2.03223330509268,-3.13275715779624,-1.64098088443524,,6.104235492814329,,
,7732.0,1719.0,8442.0,1936.0,1747.0,2611.0,2404.0,2025-07-29 18:32:15,71.0,,2.03287175487953,-3.133003528777,-1.64097071967174,,5.639311601555094,,
,7733.0,1719.0,8442.0,1937.0,1771.0,2587.0,2403.0,2025-07-29 18:32:16,71.0,,2.03295514089499,-3.1338562901821,-1.64112528284628,,5.097487888817123,,
,7738.0,1721.0,8441.0,1938.0,1759.0,2597.0,2415.0,2025-07-29 18:32:17,70.0,,2.03327227157385,-3.132312277246,-1.64107436479058,,4.502036105479785,,
,7745.0,1724.0,8445.0,1942.0,1753.0,2586.0,2393.0,2025-07-29 18:32:18,70.0,,2.03391611742107,-3.13340212548853,-1.64062396257209,,3.876844516931695,,
,7749.0,1724.0,8449.0,1943.0,1750.0,2583.0,2397.0,2025-07-29 18:32:19,70.0,,2.03469752111497,-3.13317300511319,-1.64064881002957,,3.2449602582799817,,
,7755.0,1725.0,8447.0,1947.0,1758.0,2566.0,2418.0,2025-07-29 18:32:20,69.0,,2.03414358076665,-3.13241636146489,-1.64156677106374,,2.6272780248124348,,
,7759.0,1726.0,8451.0,1948.0,1749.0,2573.0,2372.0,2025-07-29 18:32:21,69.0,,2.03536913581189,-3.13299718970612,-1.64071418978816,,2.041478738379129,,
,7769.0,1731.0,8452.0,1952.0,1753.0,2557.0,2403.0,2025-07-29 18:32:22,69.0,,2.03400777704063,-3.13237456755912,-1.64128618898924,,1.501291824949683,,
,7772.0,1729.0,8451.0,1953.0,1766.0,2567.0,2414.0,2025-07-29 18:32:23,69.0,,2.03488727233125,-3.13278280135941,-1.63966315060147,,1.016118163002206,,
,7778.0,1732.0,8453.0,1956.0,1764.0,2550.0,2414.0,2025-07-29 18:32:24,68.0,,2.0352700374078,-3.1329326803128,-1.64076116170298,,0.5910129137471435,,
,7778.0,1732.0,8454.0,1956.0,1777.0,2560.0,2409.0,2025-07-29 18:32:25,67.0,,2.03508332495,-3.1326375971069,-1.64099110995561,,0.22699347306745052,,
,7783.0,1732.0,8452.0,1959.0,1772.0,2569.0,2370.0,2025-07-29 18:32:26,66.0,,2.03466177819586,-3.13388725557223,-1.64094865456156,,-0.0783885127047322,,
,7785.0,1733.0,8455.0,1957.0,1768.0,2582.0,2395.0,2025-07-29 18:32:27,65.0,,2.03350117486338,-3.1324519954149,-1.64080042032126,,-0.3302888307896686,,
,7785.0,1734.0,8457.0,1960.0,1764.0,2579.0,2412.0,2025-07-29 18:32:28,64.0,,2.03387123361914,-3.13348141786948,-1.64149175520688,,-0.535710779646982,,
,7788.0,1733.0,8454.0,1957.0,1746.0,2580.0,2404.0,2025-07-29 18:32:29,64.0,,2.03399153168911,-3.13285819266375,-1.64084004059612,,-0.7026265472005593,,
,7787.0,1734.0,8453.0,1959.0,1748.0,2578.0,2390.0,2025-07-29 18:32:30,64.0,,2.03333641398992,-3.1334814010217,-1.64069501756318,,-0.8391540627833816,,
,7785.0,1737.0,8455.0,1959.0,1771.0,2556.0,2384.0,2025-07-29 18:32:31,65.0,,2.03243734586857,-3.13260841071362,-1.64101850677393,,-0.9528498817800275,,
,7783.0,1736.0,8457.0,1957.0,1771.0,2559.0,2398.0,2025-07-29 18:32:32,66.0,,2.03289836178141,-3.13300132977318,-1.64086004452243,,-1.050162206340464,,
,7782.0,1733.0,8457.0,1955.0,1766.0,2576.0,2414.0,2025-07-29 18:32:33,66.0,,2.03328548423015,-3.13345819305306,-1.64081112967603,,-1.1360705990405482,,
,7781.0,1730.0,8454.0,1958.0,1763.0,2563.0,2387.0,2025-07-29 18:32:34,67.0,,2.0333868444903,-3.1334804716012,-1.64068091428193,,-1.2139216036114833,,
,7778.0,1733.0,8456.0,1955.0,1753.0,2559.0,2395.0,2025-07-29 18:32:35,66.0,,2.03264189059349,-3.13335264923333,-1.64116426710455,,-1.285453172523137,,
,7776.0,1731.0,8453.0,1953.0,1752.0,2577.0,2393.0,2025-07-29 18:32:36,66.0,,2.03305682000178,-3.13365301720541,-1.6400971325703,,-1.350986008541607,,
,7775.0,1731.0,8453.0,1955.0,1745.0,2566.0,2400.0,2025-07-29 18:32:37,66.0,,2.03384128190294,-3.13292956198794,-1.64044544682285,,-1.409747081077303,,
,7771.0,1727.0,8453.0,1951.0,1748.0,2579.0,2401.0,2025-07-29 18:32:38,65.0,,2.03326740228557,-3.13284373875566,-1.63953455771216,,-1.4602803883859297,,
,7772.0,1731.0,8454.0,1952.0,1750.0,2576.0,2394.0,2025-07-29 18:32:39,65.0,,2.0342378977593,-3.13335184930088,-1.64063035560045,,-1.500893704959369,,
,7772.0,1728.0,8449.0,1951.0,1761.0,2567.0,2373.0,2025-07-29 18:32:40,65.0,,2.03347529131487,-3.13272090159185,-1.64039498743701,,-1.5300889276303467,,
,7770.0,1730.0,8452.0,1954.0,1760.0,2573.0,2365.0,2025-07-29 18:32:41,65.0,,2.03462250089291,-3.13312450531944,-1.64061722719655,,-1.5469283775911942,,
,7771.0,1730.0,8454.0,1951.0,1766.0,2578.0,2366.0,2025-07-29 18:32:42,66.0,,2.03378597096234,-3.13257930700455,-1.64060074649046,,-1.5512994415560015,,
,7771.0,1730.0,8450.0,1950.0,1774.0,2599.0,2356.0,2025-07-29 18:32:43,66.0,,2.03480978570252,-3.13267246249853,-1.6404023895431,,-1.5440536731202592,,
,7772.0,1730.0,8454.0,1954.0,1761.0,2596.0,2348.0,2025-07-29 18:32:44,67.0,,2.03442361535447,-3.13279983032797,-1.64050162858564,,-1.527012100922806,,
,7774.0,1729.0,8454.0,1952.0,1756.0,2572.0,2340.0,2025-07-29 18:32:45,67.0,,2.03430985220284,-3.13287645039606,-1.64094761973113,,-1.5028442907896566,,
,7776.0,1732.0,8455.0,1952.0,1751.0,2563.0,2373.0,2025-07-29 18:32:46,67.0,,2.03411580629108,-3.13288394691229,-1.64089224770079,,-1.4748428747892288,,
,7779.0,1735.0,8454.0,1955.0,1753.0,2584.0,2391.0,2025-07-29 18:32:47,66.0,,2.03436417023568,-3.13334335651131,-1.63982029813864,,-1.4466257867086287,,
,7782.0,1733.0,8455.0,1957.0,1764.0,2596.0,2378.0,2025-07-29 18:32:48,66.0,,2.03380865063536,-3.13339010106489,-1.6410855615174,,-1.421803753413915,,
,7787.0,1737.0,8458.0,1960.0,1757.0,2597.0,2369.0,2025-07-29 18:32:49,66.0,,2.0337661222209,-3.13297455850209,-1.64132152498639,,-1.4036504279382298,,
,7790.0,1739.0,8458.0,1960.0,1750.0,2609.0,2369.0,2025-07-29 18:32:50,66.0,,2.03340172610847,-3.13337752740035,-1.64083922150819,,-1.3948081563924184,,
,7792.0,1736.0,8460.0,1958.0,1730.0,2590.0,2363.0,2025-07-29 18:32:51,67.0,,2.03234837665088,-3.13273996321859,-1.64099787460814,,-1.3970557141217674,,
,7801.0,1741.0,8461.0,1963.0,1747.0,2594.0,2392.0,2025-07-29 18:32:52,68.0,,2.03252472116505,-3.13314274308069,-1.64160319347263,,-1.4111570703029468,,
,7803.0,1741.0,8463.0,1964.0,1756.0,2570.0,2426.0,2025-07-29 18:32:53,69.0,,2.03423662417337,-3.13380110987155,-1.6409011309234,,-1.4368030895617068,,
,7810.0,1742.0,8461.0,1965.0,1770.0,2586.0,2423.0,2025-07-29 18:32:54,70.0,,2.03279964718556,-3.13254771401802,-1.64136955999132,,-1.4726509907997312,,
,7812.0,1741.0,8462.0,1965.0,1773.0,2582.0,2388.0,2025-07-29 18:32:55,71.0,,2.03418144150597,-3.13243844438101,-1.64038521504013,,-1.516458945527925,,
,7820.0,1747.0,8464.0,1970.0,1760.0,2578.0,2400.0,2025-07-29 18:32:56,72.0,,2.03355298568438,-3.13275513893103,-1.64086568746872,,-1.565305111900334,,
,7823.0,1744.0,8462.0,1969.0,1763.0,2578.0,2410.0,2025-07-29 18:32:57,71.0,,2.03395895064444,-3.13249455530006,-1.64086542673403,,-1.6158718530292853,,
,7829.0,1748.0,8467.0,1975.0,1759.0,2570.0,2394.0,2025-07-29 18:32:58,71.0,,2.03386840238317,-3.13242272883515,-1.64112386588419,,-1.664767883645263,,
2025-07-29 18:30:21,7833.0,1746.0,8465.0,1976.0,1761.0,2566.0,2399.0,2025-07-29 18:32:59,70.0,2025/07/29 06:30:21 PM,2.033289720096,-3.13297202958155,-1.6406562560541,,-1.7088554325413334,,
,7839.0,1750.0,8465.0,1973.0,1739.0,2586.0,2388.0,2025-07-29 18:33:00,70.0,,2.0335517019678,-3.1330797771715,-1.64130876428566,,-1.7455480284685319,,
,7844.0,1752.0,8467.0,1978.0,1754.0,2589.0,2363.0,2025-07-29 18:33:01,69.0,,2.03334365760954,-3.13180971616289,-1.64021349364661,,-1.7730479569925572,,
,7849.0,1757.0,8471.0,1980.0,1769.0,2604.0,2370.0,2025-07-29 18:33:02,68.0,,2.03443555561586,-3.13198351275778,-1.64121163920907,,-1.7905000272254112,,
,7852.0,1755.0,8470.0,1978.0,1762.0,2610.0,2395.0,2025-07-29 18:33:03,68.0,,2.03322514373875,-3.13232478281741,-1.64085650536948,,-1.7980483159087326,,
,7855.0,1756.0,8471.0,1981.0,1767.0,2602.0,2380.0,2025-07-29 18:33:04,67.0,,2.03336425810731,-3.13179237696359,-1.64069089195612,,-1.7967932340280799,,
,7862.0,1760.0,8472.0,1984.0,1762.0,2590.0,2385.0,2025-07-29 18:33:05,67.0,,2.03362577292587,-3.13240123641487,-1.64052291018302,,-1.788656215865676,,
,7869.0,1762.0,8474.0,1984.0,1730.0,2588.0,2395.0,2025-07-29 18:33:06,67.0,,2.03393755722741,-3.13240712368747,-1.64090354877286,,-1.7761676578511236,,
,7870.0,1760.0,8475.0,1988.0,1730.0,2582.0,2397.0,2025-07-29 18:33:07,67.0,,2.03338784982153,-3.13167170808212,-1.64181335805561,,-1.7621999474409904,,
,7873.0,1762.0,8473.0,1982.0,1744.0,2602.0,2398.0,2025-07-29 18:33:08,67.0,,2.03377538757535,-3.13123361241761,-1.64166664564384,,-1.749671460580815,,
,7879.0,1763.0,8474.0,1988.0,1747.0,2589.0,2410.0,2025-07-29 18:33:09,67.0,,2.03327140824415,-3.13211283456174,-1.64208862668043,,-1.7412495225863198,,
,7886.0,1768.0,8478.0,1993.0,1752.0,2595.0,2407.0,2025-07-29 18:33:10,67.0,,2.03411628641476,-3.13218567416892,-1.64132727442466,,-1.7390807238843227,,
,7886.0,1767.0,8477.0,1988.0,1753.0,2586.0,2417.0,2025-07-29 18:33:11,67.0,,2.0351422957091,-3.1319803960262,-1.64186351693664,,-1.7445755027173173,,
,7893.0,1768.0,8478.0,1990.0,1748.0,2584.0,2404.0,2025-07-29 18:33:12,67.0,,2.03469752947657,-3.13170453740107,-1.64139956681344,,-1.7582701386071404,,
,7894.0,1767.0,8479.0,1992.0,1752.0,2603.0,2374.0,2025-07-29 18:33:13,66.0,,2.03500598355433,-3.13152526249617,-1.64162789470063,,-1.779782974595919,,
,7896.0,1769.0,8476.0,1993.0,1760.0,2615.0,2347.0,2025-07-29 18:33:14,65.0,,2.03542748517691,-3.13146912713175,-1.64026124195913,,-1.807872979040447,,
,7900.0,1773.0,8480.0,1994.0,1758.0,2609.0,2353.0,2025-07-29 18:33:15,64.0,,2.03543768977949,-3.13159585066821,-1.64133263362888,,-1.8405982746830218,,
,7904.0,1772.0,8479.0,1998.0,1756.0,2584.0,2379.0,2025-07-29 18:33:16,63.0,,2.03507391877063,-3.13169897366957,-1.64088176968167,,-1.8755608450659496,,
,7906.0,1774.0,8478.0,1997.0,1759.0,2577.0,2364.0,2025-07-29 18:33:17,62.0,,2.03523073352948,-3.13151570126413,-1.64122781015497,,-1.9102123362286894,,
,7912.0,1772.0,8480.0,1996.0,1767.0,2580.0,2377.0,2025-07-29 18:33:18,61.0,,2.03529011705524,-3.1318005135127,-1.64138738328703,,-1.9421862401943655,,
,7911.0,1775.0,8481.0,1998.0,1760.0,2582.0,2379.0,2025-07-29 18:33:19,61.0,,2.03478460202403,-3.13138602265793,-1.6402823880394,,-1.969615758659731,,
,7917.0,1776.0,8482.0,1999.0,1756.0,2583.0,2380.0,2025-07-29 18:33:20,62.0,,2.03613633486487,-3.13212144367853,-1.64150204566809,,-1.9913959476576435,,
,7919.0,1778.0,8480.0,1998.0,1749.0,2583.0,2383.0,2025-07-29 18:33:21,62.0,,2.03645863461412,-3.13220764882076,-1.6400190887878,,-2.007353710641701,,
,7922.0,1781.0,8480.0,2002.0,1748.0,2605.0,2379.0,2025-07-29 18:33:22,63.0,,2.03626002057489,-3.13196768209878,-1.63971026617761,,-2.018298824790365,,
,7926.0,1780.0,8484.0,2004.0,1753.0,2595.0,2396.0,2025-07-29 18:33:23,62.0,,2.03613991605627,-3.13189655766993,-1.64122257432677,,-2.025941757883541,,
,7927.0,1782.0,8482.0,2003.0,1760.0,2590.0,2392.0,2025-07-29 18:33:24,62.0,,2.03603405145937,-3.13186931026889,-1.64073901988226,,-2.0326779230886065,,
,7930.0,1782.0,8482.0,2001.0,1753.0,2593.0,2403.0,2025-07-29 18:33:25,61.0,,2.03638248404886,-3.13176492758464,-1.64056419667094,,-2.04125191617983,,
,7934.0,1782.0,8482.0,2003.0,1750.0,2604.0,2397.0,2025-07-29 18:33:26,60.0,,2.03663983028125,-3.13161210407875,-1.64099208746443,,-2.054328093744876,,
,7938.0,1785.0,8485.0,2007.0,1756.0,2588.0,2394.0,2025-07-29 18:33:27,60.0,,2.03556288090842,-3.13150217774799,-1.64032391914036,,-2.0740045803112883,,
,7942.0,1785.0,8483.0,2007.0,1757.0,2603.0,2402.0,2025-07-29 18:33:28,59.0,,2.03704152032247,-3.13085009288215,-1.64059320663337,,-2.1013155884352894,,
,7947.0,1785.0,8485.0,2007.0,1754.0,2612.0,2369.0,2025-07-29 18:33:29,60.0,,2.03684250875209,-3.13135300632559,-1.63978749042484,,-2.1357712483360176,,
,7948.0,1787.0,8485.0,2006.0,1774.0,2596.0,2378.0,2025-07-29 18:33:30,60.0,,2.03658207172095,-3.13214187234825,-1.64069654465218,,-2.174984716455855,,
,7950.0,1790.0,8485.0,2008.0,1785.0,2578.0,2386.0,2025-07-29 18:33:31,61.0,,2.03652030866341,-3.13123210142611,-1.64098508421332,,-2.2144330474717773,,
,7954.0,1790.0,8488.0,2009.0,1768.0,2584.0,2409.0,2025-07-29 18:33:32,62.0,,2.03640213533394,-3.13249629189166,-1.64070421689686,,-2.2473910810093782,,
,7957.0,1793.0,8487.0,2010.0,1770.0,2588.0,2406.0,2025-07-29 18:33:33,62.0,,2.03577907165547,-3.13166632708246,-1.640203591871,,-2.265066373531301,,
,7961.0,1788.0,8486.0,2010.0,1774.0,2562.0,2394.0,2025-07-29 18:33:34,62.0,,2.03665805581636,-3.13230271578837,-1.63940652204124,,-2.2569480911785695,,
,7968.0,1795.0,8489.0,2013.0,1764.0,2576.0,2392.0,2025-07-29 18:33:35,62.0,,2.03626445610558,-3.13178750497517,-1.6405450409317,,-2.2113641303243545,,
,7971.0,1795.0,8490.0,2017.0,1781.0,2584.0,2366.0,2025-07-29 18:33:36,61.0,,2.03551215848549,-3.1320321135053,-1.64110072449631,,-2.116219521211967,,
,7976.0,1798.0,8489.0,2016.0,1773.0,2582.0,2372.0,2025-07-29 18:33:37,61.0,,2.0353285908959,-3.13188774136668,-1.64137219915902,,-1.9598675231914398,,
,7976.0,1797.0,8488.0,2016.0,1784.0,2563.0,2376.0,2025-07-29 18:33:38,60.0,,2.03563217009928,-3.13151739272454,-1.6405661464099,,-1.7320462005356756,,
,7983.0,1798.0,8489.0,2016.0,1780.0,2559.0,2389.0,2025-07-29 18:33:39,60.0,,2.03502929324414,-3.13234868990904,-1.64076516791827,,-1.4248016005289366,,
,7984.0,1798.0,8488.0,2019.0,1763.0,2583.0,2405.0,2025-07-29 18:33:40,60.0,,2.03524986942964,-3.1317511850418,-1.64109843537714,,-1.0333166508569254,,
,7991.0,1799.0,8490.0,2021.0,1752.0,2587.0,2395.0,2025-07-29 18:33:41,60.0,,2.03518452492452,-3.13178022455668,-1.64117030570256,,-0.5565728621360018,,
,7996.0,1804.0,8492.0,2021.0,1768.0,2582.0,2382.0,2025-07-29 18:33:42,60.0,,2.03507418618566,-3.13136223688324,-1.64132155307531,,0.0022120717606859395,,
,8000.0,1804.0,8493.0,2021.0,1766.0,2554.0,2367.0,2025-07-29 18:33:43,60.0,,2.0354447598021,-3.13171619779601,-1.64077028052436,,0.6354067969955806,,
,8004.0,1805.0,8494.0,2021.0,1762.0,2575.0,2377.0,2025-07-29 18:33:44,59.0,,2.0350793480488,-3.13223507200805,-1.64078131214065,,1.3310625593648224,,
,8007.0,1805.0,8491.0,2026.0,1773.0,2594.0,2396.0,2025-07-29 18:33:45,58.0,,2.03457485282166,-3.13226068546207,-1.64027722587792,,2.073275751509914,,
,8010.0,1807.0,8495.0,2027.0,1782.0,2585.0,2400.0,2025-07-29 18:33:46,58.0,,2.03462891801113,-3.13258777947589,-1.64048422424866,,2.8427915864833464,,
,8010.0,1808.0,8492.0,2026.0,1778.0,2599.0,2383.0,2025-07-29 18:33:47,58.0,,2.033331961334,-3.13224751978482,-1.6408320740748,,3.617810395015593,,
,8007.0,1807.0,8491.0,2023.0,1760.0,2586.0,2395.0,2025-07-29 18:33:48,58.0,,2.03324723013789,-3.13272352278766,-1.64091894622614,,4.374949265441277,,
,7999.0,1807.0,8492.0,2022.0,1767.0,2571.0,2428.0,2025-07-29 18:33:49,58.0,,2.0338690006551,-3.13288792270241,-1.63980078313074,,5.090307093962562,,
,7983.0,1804.0,8492.0,2020.0,1769.0,2572.0,2444.0,2025-07-29 18:33:50,58.0,,2.03245417887208,-3.13326200433554,-1.64055207563768,,5.740579589881001,,
,7961.0,1798.0,8490.0,2012.0,1757.0,2578.0,2407.0,,,,2.03106187097128,-3.13355147953637,-1.64121235511373,,6.304170961268531,,
,7939.0,1794.0,8488.0,2004.0,1736.0,2575.0,2404.0,,,,2.0298175125723,-3.13426761603688,-1.64148852747306,,6.762249539185852,,
,7917.0,1785.0,8480.0,1997.0,1750.0,2555.0,2384.0,,,,2.02972657239985,-3.13441581805974,-1.64101264325491,,7.09969484956047,,
,7892.0,1777.0,8476.0,1987.0,1761.0,2552.0,2393.0,,,,2.02907788640445,-3.13397277194474,-1.64066901746229,,7.305884022380486,,
,7872.0,1769.0,8469.0,1979.0,1739.0,2556.0,2431.0,,,,2.02892788913856,-3.13421743392184,-1.64137251856493,,7.375267210464329,,
,7847.0,1765.0,8463.0,1969.0,1739.0,2587.0,2396.0,,,,2.02711946051086,-3.13473648781339,-1.6407355596546,,7.307686473908729,,
,7828.0,1757.0,8458.0,1960.0,1741.0,2595.0,2376.0,,,,2.02815771486763,-3.13503881414682,-1.64041460776367,,7.108401815585385,,
,7807.0,1751.0,8453.0,1957.0,1746.0,2598.0,2367.0,,,,2.02713527672855,-3.13457406434775,-1.64107963254156,,6.7878029081112965,,
,7786.0,1745.0,8444.0,1945.0,1741.0,2596.0,2366.0,,,,2.02570322680554,-3.13536693135099,-1.64131893715639,,6.360806352403989,,
,7772.0,1738.0,8438.0,1941.0,1731.0,2587.0,2390.0,,,,2.02719259446948,-3.13529008023979,-1.64214872858063,,5.845965711856575,,
,7758.0,1735.0,8435.0,1938.0,1750.0,2593.0,2400.0,,,,2.02781490121644,-3.13508269916313,-1.64109973009673,,5.264352308060553,,
,7748.0,1732.0,8429.0,1934.0,1747.0,2612.0,2393.0,,,,2.02755946690454,-3.13533517813136,-1.64127868504008,,4.638293301124201,,
,7735.0,1726.0,8427.0,1931.0,1761.0,2607.0,2391.0,,,,2.02746313858204,-3.13516583669883,-1.64137133889784,,3.9900731863665895,,
,7730.0,1724.0,8426.0,1927.0,1754.0,2585.0,2367.0,,,,2.02870961803318,-3.13508737602507,-1.64160046211261,,3.3407104215075405,,
,7727.0,1722.0,8427.0,1929.0,1760.0,2589.0,2361.0,,,,2.02811541400714,-3.13490320219293,-1.64075181863468,,2.708911001645129,,
,7724.0,1722.0,8432.0,1928.0,1758.0,2593.0,2381.0,,,,2.03011122965154,-3.13492518047212,-1.64162131464332,,2.110277643005593,,
,7722.0,1718.0,8429.0,1928.0,1753.0,2607.0,2377.0,,,,2.02907258687308,-3.13508380991173,-1.64202684914382,,1.5568213406922535,,
,7723.0,1722.0,8432.0,1925.0,1755.0,2577.0,2380.0,,,,2.03046125243815,-3.13450237300316,-1.64131380858454,,1.056786721217098,,
,7724.0,1720.0,8435.0,1929.0,1760.0,2580.0,2386.0,,,,2.03019992516045,-3.1342018817137,-1.64117923936312,,0.6147688467226232,,
,7724.0,1720.0,8437.0,1929.0,1768.0,2586.0,2386.0,,,,2.03092247240114,-3.13445844111523,-1.64071068491335,,0.23207119482714544,,
,7724.0,1721.0,8441.0,1930.0,1773.0,2587.0,2386.0,,,,2.03118580760405,-3.13419423358161,-1.64192407793329,,-0.09276437322487198,,
,7727.0,1722.0,8441.0,1931.0,1770.0,2593.0,2363.0,,,,2.03191412924471,-3.13330482340427,-1.64151937868418,,-0.3633329016516915,,
,7726.0,1721.0,8441.0,1932.0,1765.0,2587.0,2392.0,,,,2.03291429549124,-3.13320569899538,-1.64060334562461,,-0.584721166986216,,
,7731.0,1723.0,8446.0,1934.0,1767.0,2571.0,2392.0,,,,2.03221773592631,-3.13387191383758,-1.64111962029574,,-0.7629039644174048,,
,7733.0,1723.0,8447.0,1936.0,1762.0,2580.0,2410.0,,,,2.0322242266158,-3.13344905687027,-1.64217197757502,,-0.9042253162536706,,
,7735.0,1725.0,8450.0,1938.0,1758.0,2592.0,2392.0,,,,2.03191058258203,-3.13345324009926,-1.64122677214273,,-1.0149878398439363,,
,7738.0,1723.0,8449.0,1936.0,1756.0,2602.0,2383.0,,,,2.03240185969972,-3.13333095776859,-1.64049845763138,,-1.1011556091960892,,
,7740.0,1723.0,8451.0,1939.0,1759.0,2596.0,2383.0,,,,2.03225048744824,-3.13321715108458,-1.63998576762254,,-1.16816269884313,,
,7742.0,1726.0,8454.0,1942.0,1762.0,2580.0,2384.0,,,,2.03247362433753,-3.13413855408549,-1.6414942035663,,-1.2208115454109227,,
,7748.0,1727.0,8455.0,1944.0,1764.0,2575.0,2375.0,,,,2.03358199244422,-3.13369421021992,-1.64147128139538,,-1.2632413321154845,,
,7749.0,1729.0,8453.0,1944.0,1753.0,2575.0,2383.0,,,,2.03307380372618,-3.13385128449294,-1.64023843275137,,-1.2989456263834664,,
,7752.0,1728.0,8454.0,1945.0,1758.0,2581.0,2371.0,,,,2.03320466963571,-3.13409262523697,-1.64056238881889,,-1.3308196282857214,,
,7757.0,1733.0,8459.0,1949.0,1784.0,2572.0,2373.0,,,,2.03182712023001,-3.13346424213584,-1.63990551472154,,-1.361220009423521,,
,7758.0,1729.0,8458.0,1946.0,1797.0,2568.0,2386.0,,,,2.03262183846171,-3.1335486696691,-1.64072832405133,,-1.3920239072688256,,
,7759.0,1729.0,8457.0,1948.0,1763.0,2576.0,2385.0,,,,2.03200787918994,-3.1336194995457,-1.64027141433647,,-1.4246777257959526,,
,7760.0,1732.0,8460.0,1951.0,1757.0,2588.0,2389.0,,,,2.03159515506086,-3.13387361359782,-1.64095539888462,,-1.4602306464068082,,
,7759.0,1730.0,8461.0,1950.0,1767.0,2595.0,2397.0,,,,2.03083469372414,-3.13381885742049,-1.64063172258449,,-1.4993519703481788,,
,7762.0,1732.0,8459.0,1952.0,1760.0,2597.0,2401.0,,,,2.02999170989077,-3.13423253140189,-1.6412358047677,,-1.5423354382377046,,
,7759.0,1731.0,8460.0,1949.0,1761.0,2572.0,2387.0,,,,2.02987712674362,-3.13424188232201,-1.64107108275194,,-1.589097245700304,,
,7757.0,1728.0,8459.0,1947.0,1757.0,2589.0,2413.0,,,,2.02938834690192,-3.13431567073876,-1.6414028217269,,-1.6391771119503098,,
,7757.0,1729.0,8458.0,1949.0,1758.0,2595.0,2412.0,,,,2.02924366155779,-3.13384971009622,-1.64192850012582,,-1.6917527995213149,,
,7754.0,1730.0,8462.0,1949.0,1754.0,2594.0,2410.0,,,,2.02884879161932,-3.13430744753916,-1.64098198613407,,-1.7456773217193045,,
,7753.0,1729.0,8459.0,1948.0,1746.0,2609.0,2415.0,,,,2.02823139154427,-3.13403934910106,-1.64177403114621,,-1.799544448767375,,
,7748.0,1726.0,8457.0,1945.0,1750.0,2585.0,2367.0,,,,2.02873720015722,-3.13471167605219,-1.64120592542162,,-1.8517824535416751,,
,7749.0,1726.0,8458.0,1945.0,1742.0,2598.0,2407.0,,,,2.02817780855278,-3.13392975580572,-1.64143789249608,,-1.9007696867024992,,
,7747.0,1728.0,8458.0,1945.0,1754.0,2580.0,2415.0,,,,2.02808583658608,-3.13503720915028,-1.64123602607091,,-1.944960568139698,,
,7746.0,1727.0,8461.0,1944.0,1744.0,2578.0,2410.0,,,,2.02784599702485,-3.13467417082833,-1.64102532925773,,-1.9830085929366463,,
,7742.0,1723.0,8456.0,1943.0,1759.0,2589.0,2406.0,,,,2.02873863592591,-3.13447333620038,-1.64082504126945,,-2.0138742492313924,,
,7742.0,1725.0,8459.0,1943.0,1752.0,2588.0,2382.0,,,,2.02960194163777,-3.13421237174461,-1.64166937115509,,-2.036909191941201,,
,7745.0,1726.0,8461.0,1942.0,1753.0,2578.0,2392.0,,,,2.02992125190153,-3.13362535739082,-1.64103728692622,,-2.051911992857252,,
,7744.0,1729.0,8461.0,1945.0,1764.0,2594.0,2376.0,,,,2.02884471099927,-3.13449618540652,-1.64218648499432,,-2.05915412591353,,
,7742.0,1727.0,8458.0,1944.0,1762.0,2591.0,2364.0,,,,2.02922432983936,-3.13413167765732,-1.64108165239618,,-2.059377102909818,,
,7744.0,1727.0,8461.0,1945.0,1753.0,2581.0,2399.0,,,,2.02974482083662,-3.13436136150216,-1.64106926570392,,-2.0537629061821807,,
,7744.0,1724.0,8463.0,1944.0,1754.0,2561.0,2388.0,,,,2.03063375179455,-3.13394711070274,-1.64196111582748,,-2.0438803303308,,
,7747.0,1728.0,8463.0,1947.0,1753.0,2560.0,2402.0,,,,2.03056167134634,-3.13409288063779,-1.64152159597394,,-2.031609861945251,,
,7749.0,1729.0,8464.0,1945.0,1753.0,2570.0,2383.0,,,,2.0305217244526,-3.13368017410926,-1.64163776753008,,-2.019049616563922,,
,7751.0,1727.0,8463.0,1948.0,1747.0,2586.0,2385.0,,,,2.03139363211892,-3.13394167166694,-1.64211052017206,,-2.0084048735070623,,
,7756.0,1734.0,8466.0,1951.0,1751.0,2586.0,2358.0,,,,2.0311528542472,-3.1337516150581,-1.64226181855538,,-2.001864026257698,,
,7761.0,1732.0,8467.0,1952.0,1745.0,2587.0,2365.0,,,,2.03177601408441,-3.13359297169924,-1.64174135794199,,-2.0014642765714874,,
,7763.0,1733.0,8468.0,1953.0,1741.0,2582.0,2374.0,,,,2.03188123694552,-3.13364942120702,-1.64162998747009,,-2.0089509905920484,,
,7767.0,1732.0,8468.0,1953.0,1752.0,2610.0,2399.0,,,,2.03256801612046,-3.13322419502096,-1.64097390834794,,-2.0256350301723307,,
,7771.0,1734.0,8469.0,1954.0,1751.0,2596.0,2412.0,,,,2.03250919899447,-3.1323946450031,-1.64102507571922,,-2.0522522287410547,,
,7777.0,1737.0,8470.0,1954.0,1755.0,2576.0,2405.0,,,,2.03312182301301,-3.133612918984,-1.6416680833069,,-2.0888282987118525,,
,7782.0,1739.0,8474.0,1958.0,1759.0,2578.0,2407.0,,,,2.0321603205178,-3.13311524162377,-1.64146151464106,,-2.134551181194282,,
,7785.0,1735.0,8471.0,1959.0,1749.0,2568.0,2410.0,,,,2.03244059398514,-3.13342606340812,-1.6415815042575,,-2.187652298272154,,
,7790.0,1740.0,8472.0,1960.0,1755.0,2587.0,2393.0,,,,2.03337195152109,-3.1331339054174,-1.64118900688056,,-2.2452997574617375,,
,7797.0,1741.0,8475.0,1963.0,1781.0,2578.0,2406.0,,,,2.03346296393432,-3.13313817326692,-1.64105297391252,,-2.3035109027849594,,
,7799.0,1741.0,8475.0,1963.0,1767.0,2571.0,2399.0,,,,2.03371097850332,-3.13440690314356,-1.64071076984261,,-2.357097763625095,,
,7805.0,1744.0,8474.0,1963.0,1768.0,2576.0,2345.0,,,,2.0321893434661,-3.1331380526508,-1.64087063370058,,-2.3996647494447614,,
,7811.0,1744.0,8477.0,1969.0,1769.0,2588.0,2382.0,,,,2.03154663934409,-3.13331361587236,-1.64026309116345,,-2.4236810779249494,,
,7814.0,1746.0,8476.0,1968.0,1774.0,2591.0,2383.0,,,,2.03139941853918,-3.13374225840019,-1.640811523399,,-2.4206494087465567,,
,7820.0,1747.0,8478.0,1971.0,1793.0,2592.0,2394.0,,,,2.03172408407654,-3.13361176906349,-1.64080976248443,,-2.3813865360552526,,
,7823.0,1749.0,8478.0,1973.0,1791.0,2609.0,2385.0,,,,2.03315105890697,-3.13324799009653,-1.64019546430857,,-2.296422182013852,,
,7825.0,1749.0,8480.0,1972.0,1772.0,2614.0,2402.0,,,,2.03172945260423,-3.13391915131523,-1.63961536326564,,-2.1565090016088213,,
,7833.0,1751.0,8481.0,1974.0,1770.0,2592.0,2397.0,,,,2.03102434019216,-3.13397558275261,-1.6411911858221,,-1.9532224807572474,,
,7838.0,1754.0,8481.0,1974.0,1765.0,2588.0,2401.0,,,,2.03125983642109,-3.13414579046165,-1.64139403136947,,-1.6796155509642634,,
2025-07-29 18:30:22,7842.0,1755.0,8481.0,1978.0,1755.0,2583.0,2387.0,,,2025/07/29 06:30:22 PM,2.03068568724743,-3.13466964777631,-1.64195971996714,,-1.3308816988058647,,
,7843.0,1756.0,8480.0,1976.0,1764.0,2570.0,2383.0,,,,2.03090614630372,-3.1341895745474,-1.64071799369092,,-0.904974085378283,,
,7848.0,1756.0,8484.0,1978.0,1768.0,2589.0,2370.0,,,,2.02949292714915,-3.13437811205035,-1.64115754573465,,-0.40312780725899117,,
,7853.0,1758.0,8480.0,1980.0,1767.0,2576.0,2378.0,,,,2.02974059277772,-3.13383262538365,-1.64116674458374,,0.16976233297940674,,
,7855.0,1756.0,8484.0,1982.0,1776.0,2577.0,2387.0,,,,2.03056939647777,-3.13522793097196,-1.64099544196828,,0.8049469114404533,,
,7860.0,1759.0,8484.0,1982.0,1774.0,2565.0,2406.0,,,,2.02839307245187,-3.13432843641038,-1.64076616311183,,1.489837061930369,,
,7862.0,1759.0,8484.0,1982.0,1774.0,2584.0,2392.0,,,,2.03003860466387,-3.13420093223295,-1.64116434800679,,2.208245646903589,,
,7865.0,1761.0,8488.0,1986.0,1770.0,2576.0,2384.0,,,,2.02896408238198,-3.13471187695206,-1.64129656589856,,2.940859117044982,,
,7869.0,1763.0,8485.0,1986.0,1775.0,2567.0,2378.0,,,,2.02956416245948,-3.13495667503217,-1.64149021128236,,3.6659329432789156,,
,7872.0,1764.0,8486.0,1988.0,1762.0,2572.0,2376.0,,,,2.02863266666881,-3.13446016393303,-1.64176361543701,,4.360190247478559,,
,7873.0,1764.0,8485.0,1988.0,1751.0,2579.0,2407.0,,,,2.02884539562426,-3.13422253096359,-1.64192183353914,,4.999888647695796,,
,7878.0,1764.0,8485.0,1989.0,1749.0,2575.0,2411.0,,,,2.0294950363406,-3.13476422348537,-1.64117191442529,,5.562005472406568,,
,7881.0,1767.0,8488.0,1988.0,1743.0,2586.0,2378.0,,,,2.02821904279344,-3.13399235560239,-1.64122629668757,,6.025477791819129,,
,7886.0,1768.0,8489.0,1991.0,1745.0,2579.0,2379.0,,,,2.02909629592551,-3.13477097901829,-1.64139583230071,,6.372422267879623,,
,7887.0,1766.0,8488.0,1992.0,1749.0,2581.0,2391.0,,,,2.0279466916401,-3.13449764797717,-1.64171030495769,,6.5892515223451005,,
,7890.0,1772.0,8492.0,1992.0,1742.0,2556.0,2417.0,,,,2.02897093174634,-3.13419779009138,-1.64089208753503,,6.667599792097092,,
,7895.0,1773.0,8489.0,1999.0,1743.0,2563.0,2399.0,,,,2.02875583907211,-3.13414240983944,-1.64231088240209,,6.604973065503949,,
,7898.0,1771.0,8491.0,1997.0,1750.0,2575.0,2384.0,,,,2.02849008826343,-3.13474924819549,-1.64137411376989,,6.405050171232382,,
,7900.0,1773.0,8492.0,1997.0,1745.0,2589.0,2385.0,,,,2.02818194609606,-3.13464183324575,-1.64185782458869,,6.077583492377321,,
,7905.0,1775.0,8494.0,1998.0,1742.0,2581.0,2393.0,,,,2.02840784190219,-3.13401996267616,-1.64219059347293,,5.637881343798787,,
,7909.0,1777.0,8495.0,2000.0,1763.0,2583.0,2410.0,,,,2.0285557502735,-3.13401594339469,-1.64233055950389,,5.105895617637578,,
,7911.0,1776.0,8494.0,2000.0,1757.0,2585.0,2406.0,,,,2.02818044607303,-3.13403693680104,-1.64146849419007,,4.504981566959267,,
,7913.0,1778.0,8491.0,2000.0,1741.0,2592.0,2405.0,,,,2.02856931437957,-3.13444102281014,-1.64176357385799,,3.860433198268712,,
,7916.0,1778.0,8490.0,2001.0,1751.0,2593.0,2410.0,,,,2.02815696474129,-3.13362965151252,-1.64149713394873,,3.1979206921611927,,
,7921.0,1780.0,8492.0,2003.0,1750.0,2593.0,2412.0,,,,2.02956516246904,-3.13437643058632,-1.64104737355255,,2.5419625169850275,,
,7926.0,1782.0,8495.0,2006.0,1752.0,2583.0,2387.0,,,,2.02904843300563,-3.13434687608618,-1.64109195811598,,1.9145554816175545,,
,7927.0,1782.0,8494.0,2003.0,1753.0,2587.0,2396.0,,,,2.02948587111285,-3.13402456457388,-1.64050069003017,,1.3340642738511708,,
,7929.0,1780.0,8494.0,2005.0,1754.0,2583.0,2405.0,,,,2.03042473736239,-3.13393665897174,-1.64168120427425,,0.814441959434137,,
,7936.0,1782.0,8499.0,2006.0,1746.0,2580.0,2391.0,,,,2.02878933955669,-3.13354271296026,-1.64113312375902,,0.36481822520454743,,
,7939.0,1786.0,8499.0,2010.0,1756.0,2602.0,2421.0,,,,2.02909360995376,-3.13413843951892,-1.64195687279982,,-0.01054334241267131,,
,7942.0,1787.0,8498.0,2010.0,1759.0,2590.0,2419.0,,,,2.03025450709042,-3.13351972688385,-1.64203443407684,,-0.31194999540177715,,
,7945.0,1785.0,8499.0,2008.0,1746.0,2596.0,2385.0,,,,2.03034366960697,-3.13408034489461,-1.64141138860407,,-0.5437033770128822,,
,7950.0,1787.0,8497.0,2010.0,1751.0,2591.0,2384.0,,,,2.02920147676361,-3.13416343390991,-1.64150306895381,,-0.7133157045279749,,
,7953.0,1789.0,8499.0,2014.0,1758.0,2587.0,2385.0,,,,2.02939855746131,-3.13392015960232,-1.64185766985751,,-0.830600174333205,,
,7959.0,1792.0,8500.0,2014.0,1754.0,2595.0,2385.0,,,,2.02998879759522,-3.13326390883664,-1.64209688635996,,-0.9067165392818458,,
,7963.0,1792.0,8500.0,2017.0,1761.0,2576.0,2399.0,,,,2.02947011320089,-3.13349696919634,-1.64161123505383,,-0.9532453451653211,,
,7967.0,1795.0,8502.0,2017.0,1746.0,2600.0,2417.0,,,,2.03035541882359,-3.13373225484101,-1.64089891988959,,-0.9813519752285679,,
,7974.0,1797.0,8506.0,2019.0,1757.0,2574.0,2410.0,,,,2.02980071265004,-3.13355556057576,-1.64153561813939,,-1.0010865001235543,,
,7976.0,1795.0,8499.0,2016.0,1771.0,2580.0,2392.0,,,,2.0301280735665,-3.13480602975889,-1.64236413632082,,-1.0208493329262152,,
,7981.0,1797.0,8502.0,2021.0,1765.0,2580.0,2396.0,,,,2.02852823973433,-3.13380963780878,-1.63972250070278,,-1.0470374668705547,,
,7979.0,1797.0,8502.0,2019.0,1762.0,2597.0,2403.0,,,,2.02992383496411,-3.13442995029803,-1.64065813340193,,-1.083872754389426,,
,7977.0,1799.0,8500.0,2020.0,1745.0,2609.0,2401.0,,,,2.02891713187136,-3.13542023095267,-1.64165080979058,,-1.1334028733327028,,
,7969.0,1799.0,8502.0,2017.0,1739.0,2606.0,2412.0,,,,2.02727647215999,-3.13503833986969,-1.64158370311983,,-1.1956573503269003,,
,7959.0,1795.0,8501.0,2014.0,1750.0,2589.0,2417.0,,,,2.02580776345955,-3.13563078445602,-1.6411590891432,,-1.2689347251124907,,
,7937.0,1791.0,8498.0,2007.0,1768.0,2587.0,2422.0,,,,2.02546750875333,-3.13593733082472,-1.64084271658996,,-1.3501917701071393,,
,7916.0,1786.0,8496.0,2000.0,1767.0,2575.0,2421.0,,,,2.02340132808392,-3.13631887132466,-1.64146838532752,,-1.435500937312338,,
,7896.0,1777.0,8493.0,1994.0,1743.0,2564.0,2391.0,,,,2.0231329627945,-3.13624856545989,-1.64212893307465,,-1.5205379691336967,,
,7868.0,1770.0,8483.0,1982.0,1742.0,2575.0,2398.0,,,,2.02249722656497,-3.13600835286968,-1.64168988917959,,-1.6010590388705461,,
,7845.0,1759.0,8477.0,1972.0,1747.0,2599.0,2381.0,,,,2.02192083511686,-3.13798316867945,-1.64195335482533,,-1.6733276709612948,,
,7825.0,1751.0,8473.0,1964.0,1736.0,2588.0,2384.0,,,,2.02200010968297,-3.13639766702628,-1.64163444446926,,-1.734457264442958,,
,7801.0,1748.0,8464.0,1956.0,1745.0,2589.0,2409.0,,,,2.0218982087006,-3.13787540887225,-1.64200698358074,,-1.7826449726667568,,
,7781.0,1744.0,8458.0,1953.0,1753.0,2598.0,2409.0,,,,2.02031466100913,-3.13743175216974,-1.64163786015061,,-1.8172851575621873,,
,7766.0,1737.0,8450.0,1944.0,1761.0,2581.0,2406.0,,,,2.02071851387844,-3.1373908872885,-1.64159863457122,,-1.8389633124135303,,
,7747.0,1731.0,8439.0,1936.0,1748.0,2606.0,2391.0,,,,2.02030111536178,-3.1371114630089,-1.64237505435016,,-1.8493423529503312,,
,7732.0,1723.0,8438.0,1931.0,1758.0,2571.0,2380.0,,,,2.0200204318675,-3.13726386687438,-1.64188549189746,,-1.8509614220427895,,
,7721.0,1721.0,8437.0,1931.0,1752.0,2581.0,2375.0,,,,2.02135565297528,-3.13773658177322,-1.64206495161307,,-1.8469724150102669,,
,7714.0,1718.0,8433.0,1927.0,1754.0,2595.0,2378.0,,,,2.02190799043506,-3.13706077351995,-1.64202702637984,,-1.8408413534591246,,
,7706.0,1713.0,8431.0,1924.0,1759.0,2581.0,2381.0,,,,2.02185389461434,-3.13703846817608,-1.64117445883762,,-1.8360409449075197,,
,7702.0,1711.0,8431.0,1922.0,1760.0,2577.0,2389.0,,,,2.02208053817932,-3.1371608795397,-1.6417850433191,,-1.8357579281862995,,
,7700.0,1710.0,8433.0,1924.0,1757.0,2576.0,2393.0,,,,2.0225145113368,-3.13681322602795,-1.64165056133433,,-1.8426350452897977,,
,7695.0,1710.0,8433.0,1922.0,1766.0,2584.0,2398.0,,,,2.02357460553052,-3.13718995996889,-1.64187123558682,,-1.858563517341338,,
,7693.0,1708.0,8435.0,1922.0,1746.0,2604.0,2375.0,,,,2.0231008620761,-3.13733349483922,-1.64121638982072,,-1.8845382469523941,,
,7693.0,1707.0,8435.0,1921.0,1745.0,2599.0,2394.0,,,,2.022848554771,-3.13706332190699,-1.64175599172621,,-1.9205847450546962,,
,7695.0,1709.0,8440.0,1924.0,1759.0,2583.0,2390.0,,,,2.02356148335253,-3.13623275368008,-1.64202408491333,,-1.9657637237356052,,
,7696.0,1709.0,8444.0,1926.0,1755.0,2593.0,2393.0,,,,2.02472315494331,-3.13650514500149,-1.64190026668038,,-2.018255835998175,,
,7697.0,1712.0,8445.0,1929.0,1748.0,2587.0,2404.0,,,,2.02316394565046,-3.13554925351628,-1.64237627458748,,-2.0755244828927637,,
,7698.0,1706.0,8446.0,1926.0,1772.0,2581.0,2438.0,,,,2.02402887984802,-3.13629598975802,-1.64255584524688,,-2.1345484338598197,,
,7703.0,1712.0,8449.0,1929.0,1761.0,2616.0,2404.0,,,,2.02283551234672,-3.13648013842185,-1.64216039309155,,-2.1921083466561218,,
,7702.0,1711.0,8451.0,1931.0,1752.0,2608.0,2398.0,,,,2.02391668635695,-3.13614257772795,-1.64182621740289,,-2.2451033548643236,,
,7703.0,1712.0,8452.0,1933.0,1747.0,2598.0,2412.0,,,,2.02453002198277,-3.13608805976306,-1.64094943572161,,-2.290867869455273,,
,7707.0,1708.0,8454.0,1931.0,1755.0,2594.0,2407.0,,,,2.02388051396492,-3.13597716023242,-1.64189453399201,,-2.3274565774645044,,
,7706.0,1713.0,8453.0,1934.0,1762.0,2566.0,2396.0,,,,2.02410243192361,-3.1363838485747,-1.64055866300888,,-2.353867868233034,,
,7711.0,1711.0,8458.0,1937.0,1749.0,2566.0,2404.0,,,,2.02472326265977,-3.1357469491565,-1.64167948531294,,-2.3701816114194423,,
,7710.0,1713.0,8458.0,1936.0,1748.0,2573.0,2411.0,,,,2.02347751691602,-3.13611417313265,-1.64274003996659,,-2.3775947966052335,,
,7715.0,1715.0,8462.0,1939.0,1756.0,2559.0,2415.0,,,,2.02406059424436,-3.13654095942861,-1.64085810862557,,-2.378346798024615,,
,7717.0,1715.0,8460.0,1939.0,1754.0,2561.0,2413.0,,,,2.02340993250727,-3.13577942808834,-1.64189752991142,,-2.3755343365380437,,
,7719.0,1714.0,8463.0,1941.0,1743.0,2569.0,2398.0,,,,2.02391097591897,-3.13609494263069,-1.64242114455134,,-2.372824343920387,,
,7722.0,1718.0,8464.0,1943.0,1754.0,2587.0,2381.0,,,,2.02350581655026,-3.13605960502228,-1.64163332394664,,-2.374080720772306,,
,7722.0,1715.0,8462.0,1942.0,1766.0,2574.0,2390.0,,,,2.02349307662344,-3.13565405442094,-1.64151628215134,,-2.382928165801273,,
,7722.0,1716.0,8463.0,1943.0,1755.0,2577.0,2411.0,,,,2.02428119936108,-3.13644926418823,-1.64131637034995,,-2.402282545105591,,
,7722.0,1716.0,8463.0,1945.0,1732.0,2578.0,2408.0,,,,2.02378740355113,-3.13561951711115,-1.64228243229441,,-2.433882378962965,,
,7722.0,1717.0,8464.0,1942.0,1740.0,2596.0,2394.0,,,,2.02336978189691,-3.13564368203306,-1.64255191941082,,-2.4778596313488923,,
,7724.0,1719.0,8464.0,1942.0,1748.0,2581.0,2399.0,,,,2.02426034801789,-3.13655748016229,-1.64173604434589,,-2.5323896509303965,,
,7721.0,1714.0,8466.0,1940.0,1740.0,2574.0,2424.0,,,,2.02383460120917,-3.13666125007648,-1.64178120730243,,-2.5934592217049564,,
,7720.0,1714.0,8464.0,1942.0,1752.0,2568.0,2401.0,,,,2.02396174559417,-3.13617683339469,-1.64156320416438,,-2.654787517498284,,
,7721.0,1716.0,8466.0,1943.0,1753.0,2586.0,2400.0,,,,2.02370639691663,-3.13642888965068,-1.64092067720649,,-2.707926668642806,,
,7715.0,1716.0,8462.0,1940.0,1757.0,2581.0,2403.0,,,,2.0243428010097,-3.13648777617976,-1.64086438736733,,-2.7425563437576392,,
,7711.0,1712.0,8463.0,1939.0,1752.0,2567.0,2406.0,,,,2.02486979831327,-3.13577392357636,-1.6424708435568,,-2.746970547641951,,
,7710.0,1714.0,8462.0,1936.0,1747.0,2575.0,2369.0,,,,2.0243956666927,-3.13615419287694,-1.64142371543824,,-2.708735899716617,,
,7711.0,1715.0,8464.0,1939.0,1749.0,2590.0,2372.0,,,,2.02519184589402,-3.13516176337659,-1.64151681219207,,-2.6154812033310444,,
,7709.0,1712.0,8467.0,1937.0,1747.0,2598.0,2382.0,,,,2.02476440286424,-3.13630151701846,-1.64208383577437,,-2.4557613518688504,,
,7706.0,1713.0,8465.0,1935.0,1741.0,2613.0,2405.0,,,,2.02565555687143,-3.13603472680168,-1.6412696092698,,-2.2199278992749085,,
,7708.0,1713.0,8465.0,1938.0,1742.0,2608.0,2374.0,,,,2.02547147788429,-3.13621876440579,-1.64170580445211,,-1.9009361254651649,,
,7705.0,1712.0,8466.0,1938.0,1746.0,2605.0,2398.0,,,,2.02564619678865,-3.13585922449911,-1.6412546837438,,-1.4950244131960861,,
,7707.0,1712.0,8464.0,1939.0,1751.0,2607.0,2389.0,,,,2.02588535614905,-3.13625715293507,-1.64051201119079,,-1.0022148538837756,,
,7709.0,1713.0,8464.0,1938.0,1755.0,2566.0,2363.0,,,,2.02710170651612,-3.13574463882422,-1.64113617725273,,-0.42660179809777155,,
,7705.0,1710.0,8464.0,1937.0,1753.0,2567.0,2394.0,,,,2.02615426958313,-3.13540308297726,-1.64089822444448,,0.2235855497794124,,
,7707.0,1715.0,8469.0,1937.0,1758.0,2564.0,2397.0,,,,2.02609812709533,-3.13512643227691,-1.64024363759785,,0.9361427611781258,,
,7708.0,1716.0,8468.0,1940.0,1757.0,2577.0,2393.0,,,,2.02721535255634,-3.13589694707498,-1.64103160529194,,1.6952550705376532,,
,7712.0,1715.0,8469.0,1939.0,1761.0,2573.0,2402.0,,,,2.02737080030843,-3.13508027892677,-1.64116815040521,,2.4820427105503744,,
,7712.0,1716.0,8470.0,1942.0,1755.0,2587.0,2389.0,,,,2.02821161872184,-3.13438934751985,-1.64089063883989,,3.275258532161846,,
,7717.0,1716.0,8470.0,1943.0,1755.0,2597.0,2407.0,,,,2.02729681673393,-3.13481990177802,-1.64133572929081,,4.052108805372838,,
,7720.0,1717.0,8475.0,1944.0,1755.0,2585.0,2394.0,,,,2.02703896779211,-3.13542415042504,-1.6410237766661,,4.789167488336521,,
,7724.0,1722.0,8475.0,1945.0,1753.0,2589.0,2392.0,,,,2.02809941829482,-3.13498338399711,-1.64161188348191,,5.463352659167987,,
,7727.0,1719.0,8475.0,1947.0,1764.0,2598.0,2403.0,,,,2.02841619507404,-3.13521603653991,-1.64041671846578,,6.052930738039749,,
,7732.0,1723.0,8477.0,1949.0,1773.0,2592.0,2378.0,,,,2.02735497400322,-3.135346494415,-1.64167330489356,,6.538509650092224,,
,7736.0,1725.0,8476.0,1950.0,1767.0,2588.0,2379.0,,,,2.02734937854741,-3.13477383947511,-1.64099663941805,,6.9039766253244,,
,7737.0,1724.0,8475.0,1950.0,1776.0,2595.0,2390.0,,,,2.02743892911729,-3.13422520247783,-1.64125208316822,,7.137330722767882,,
,7742.0,1723.0,8477.0,1951.0,1776.0,2577.0,2403.0,,,,2.02794367933136,-3.13525433485328,-1.64039146233439,,7.231355727525726,,
,7746.0,1724.0,8478.0,1953.0,1765.0,2567.0,2413.0,,,,2.02793276257149,-3.13469994728933,-1.64104756529594,,7.1840776588250135,,
,7752.0,1727.0,8482.0,1956.0,1763.0,2564.0,2395.0,,,,2.02786183296097,-3.13471457884122,-1.64138821639581,,6.998955030400808,,
,7755.0,1729.0,8484.0,1957.0,1762.0,2563.0,2413.0,,,,2.02750858860063,-3.13468841225877,-1.64101936045818,,6.68476165427085,,
,7761.0,1731.0,8482.0,1958.0,1752.0,2572.0,2391.0,,,,2.02767262593091,-3.13451179328648,-1.64121116303723,,6.2551430079640395,,
,7762.0,1731.0,8480.0,1961.0,1747.0,2569.0,2382.0,,,,2.02780782313601,-3.13462592690941,-1.64117438892991,,5.7278577753262345,,
,7768.0,1731.0,8484.0,1961.0,1750.0,2583.0,2402.0,,,,2.0272009988712,-3.13485388199473,-1.64109572176431,,5.123752381236348,,
,7770.0,1734.0,8484.0,1963.0,1762.0,2600.0,2424.0,,,,2.02761243326035,-3.13432740126139,-1.64164685928429,,4.465550961554998,,
,7777.0,1732.0,8485.0,1964.0,1765.0,2605.0,2419.0,,,,2.02726504200046,-3.13486223968359,-1.64128738281867,,3.7765679108329904,,
,7779.0,1737.0,8484.0,1963.0,1766.0,2593.0,2396.0,,,,2.0268255189924,-3.13471490037542,-1.64213129386223,,3.0794588260827513,,
,7784.0,1740.0,8486.0,1966.0,1770.0,2586.0,2378.0,,,,2.02634900711972,-3.1353865440391,-1.6416191054743,,2.395116591732891,,
,7788.0,1738.0,8485.0,1966.0,1773.0,2597.0,2362.0,,,,2.02764832661233,-3.13483806615816,-1.6415547419924,,1.7417951931544429,,
,7791.0,1739.0,8489.0,1971.0,1759.0,2597.0,2377.0,,,,2.02714182001416,-3.13423399911669,-1.64127570776351,,1.134510197464449,,
,7794.0,1741.0,8488.0,1970.0,1756.0,2609.0,2387.0,,,,2.02651600444292,-3.13469865173406,-1.64135148812658,,0.5847284318185386,,
,7797.0,1741.0,8487.0,1968.0,1760.0,2607.0,2405.0,,,,2.02674472260799,-3.13460375963268,-1.64107911450432,,0.10032652628609857,,
,7803.0,1743.0,8489.0,1974.0,1762.0,2600.0,2421.0,,,,2.02609601924181,-3.134753235236,-1.64173128104879,,-0.3142266560729846,,
,7808.0,1746.0,8492.0,1977.0,1762.0,2598.0,2407.0,,,,2.02650057342898,-3.13405002920207,-1.64211545114578,,-0.6575227246355483,,
,7812.0,1744.0,8492.0,1974.0,1748.0,2595.0,2411.0,,,,2.02603084232068,-3.13580567462722,-1.64161551962787,,-0.9307639588271488,,
,7813.0,1745.0,8489.0,1974.0,1750.0,2595.0,2393.0,,,,2.02507570378851,-3.13505322979018,-1.64255222421893,,-1.137267634605261,,
,7813.0,1747.0,8491.0,1977.0,1738.0,2593.0,2423.0,,,,2.02627019043477,-3.13523949761922,-1.64192864578344,,-1.281969221549433,,
2025-07-29 18:30:23,7819.0,1748.0,8493.0,1977.0,1743.0,2562.0,2396.0,,,2025/07/29 06:30:23 PM,2.02713624615876,-3.13524626710583,-1.64178657188559,,-1.3709547731347305,,
,7821.0,1750.0,8494.0,1978.0,1755.0,2563.0,2369.0,,,,2.02773333903672,-3.13517054430975,-1.64160960731203,,-1.4110396014507605,,
,7824.0,1751.0,8494.0,1978.0,1754.0,2582.0,2360.0,,,,2.02562042847929,-3.13506140561571,-1.64131923121422,,-1.4094008788456205,,
,7827.0,1752.0,8494.0,1982.0,1745.0,2592.0,2380.0,,,,2.02661363497511,-3.13445669527217,-1.64204908842965,,-1.3732666823116142,,
,7831.0,1754.0,8494.0,1983.0,1765.0,2571.0,2405.0,,,,2.02733931964146,-3.13501516474075,-1.64137555332783,,-1.3096619121949427,,
,7833.0,1753.0,8493.0,1982.0,1768.0,2579.0,2404.0,,,,2.02572728913163,-3.13519813248793,-1.64159443702812,,-1.225210621323741,,
,7837.0,1755.0,8496.0,1984.0,1771.0,2575.0,2406.0,,,,2.02689202599727,-3.13490864515154,-1.64148299546683,,-1.1259933271996039,,
,7842.0,1755.0,8493.0,1982.0,1761.0,2600.0,2380.0,,,,2.02692942202036,-3.13437464202628,-1.64018175765974,,-1.0174565036396048,,
,7842.0,1758.0,8496.0,1987.0,1742.0,2604.0,2387.0,,,,2.02554877794358,-3.13509549785125,-1.64209918810496,,-0.9043698000125855,,
,7846.0,1759.0,8498.0,1988.0,1740.0,2595.0,2388.0,,,,2.02621219361706,-3.13483110152614,-1.64151721320718,,-0.7908247502269656,,
,7849.0,1757.0,8498.0,1985.0,1746.0,2580.0,2396.0,,,,2.02680433323337,-3.13501837513778,-1.64085914442815,,-0.6802668564919622,,
,7853.0,1759.0,8496.0,1985.0,1748.0,2614.0,2411.0,,,,2.0255511085789,-3.13453261977083,-1.64258952638143,,-0.5755511414501133,,
,7855.0,1761.0,8496.0,1987.0,1744.0,2587.0,2407.0,,,,2.02601683227996,-3.13448789192366,-1.64100742991316,,-0.47901001332095894,,
,7858.0,1764.0,8500.0,1991.0,1737.0,2595.0,2389.0,,,,2.0263427267349,-3.13534425486541,-1.64026337428864,,-0.3925222098937592,,
,7862.0,1764.0,8500.0,1992.0,1746.0,2570.0,2382.0,,,,2.02600603172419,-3.13503728429305,-1.64217910799262,,-0.3175731651928927,,
,7864.0,1762.0,8501.0,1992.0,1754.0,2566.0,2381.0,,,,2.02661699214743,-3.13494957235035,-1.6418154995018,,-0.2553004063950699,,
,7869.0,1765.0,8502.0,1992.0,1751.0,2593.0,2381.0,,,,2.02616949859327,-3.13504216880819,-1.64093263922916,,-0.20652199429904064,,
,7873.0,1767.0,8501.0,1994.0,1748.0,2599.0,2388.0,,,,2.02781373822524,-3.1350242354001,-1.64146881581293,,-0.17175058264775642,,
,7876.0,1769.0,8502.0,1996.0,1750.0,2590.0,2410.0,,,,2.02900528420793,-3.13383473684852,-1.64160039222115,,-0.15119920439837858,,
,7879.0,1765.0,8496.0,1994.0,1754.0,2589.0,2398.0,,,,2.02853190139921,-3.13465740077701,-1.64109536405063,,-0.1447863393305303,,
,7882.0,1771.0,8502.0,1997.0,1753.0,2598.0,2409.0,,,,2.02867131651756,-3.13458826627779,-1.64154718493751,,-0.15214677409612032,,
,7887.0,1774.0,8505.0,2001.0,1750.0,2597.0,2404.0,,,,2.02820417233294,-3.13378696669275,-1.64165819851252,,-0.1726518999342317,,
,7891.0,1774.0,8505.0,2000.0,1751.0,2582.0,2403.0,,,,2.02795381325984,-3.13436136471832,-1.64159630451822,,-0.20543983008279967,,
,7897.0,1775.0,8503.0,2001.0,1763.0,2598.0,2375.0,,,,2.02872531509349,-3.13385501533049,-1.64091505194378,,-0.24945333014245724,,
,7899.0,1775.0,8505.0,2001.0,1758.0,2568.0,2390.0,,,,2.02941635178453,-3.13501246515885,-1.64171211367321,,-0.3034825270242244,,
,7904.0,1777.0,8508.0,2004.0,1759.0,2571.0,2399.0,,,,2.02811732364512,-3.13484036367568,-1.64177576225853,,-0.36620946789662856,,
,7910.0,1778.0,8508.0,2002.0,1752.0,2566.0,2393.0,,,,2.02870824471392,-3.13392123035761,-1.64170015486935,,-0.43625229167784624,,
,7912.0,1781.0,8510.0,2006.0,1749.0,2573.0,2412.0,,,,2.02874393356976,-3.13357039810667,-1.64113072424773,,-0.5122074702440679,,
,7916.0,1780.0,8504.0,2006.0,1746.0,2620.0,2399.0,,,,2.02860288859276,-3.13411724684213,-1.64165578707046,,-0.5926888030946078,,
,7922.0,1783.0,8508.0,2010.0,1750.0,2605.0,2395.0,,,,2.02919724320431,-3.13339076120416,-1.64133198292383,,-0.6763614170355872,,
,7925.0,1785.0,8508.0,2009.0,1748.0,2585.0,2389.0,,,,2.02799817792854,-3.13420176209551,-1.64148511205205,,-0.7619682094495009,,
,7929.0,1785.0,8507.0,2011.0,1751.0,2594.0,2381.0,,,,2.02877975958883,-3.13479670641335,-1.64173444120893,,-0.8483456737129533,,
,7931.0,1784.0,8508.0,2012.0,1756.0,2585.0,2397.0,,,,2.02832326155007,-3.13429006107218,-1.64198543930779,,-0.9344265764055679,,
,7936.0,1786.0,8509.0,2012.0,1764.0,2585.0,2416.0,,,,2.02754845343015,-3.13480392922303,-1.64152446975713,,-1.0192288175791628,,
,7936.0,1790.0,8509.0,2015.0,1751.0,2595.0,2438.0,,,,2.02680683769731,-3.13444977805393,-1.64207805565122,,-1.1018327062009636,,
,7935.0,1789.0,8509.0,2013.0,1741.0,2594.0,2429.0,,,,2.025989766304,-3.13446175690856,-1.64143349116952,,-1.1813520867193164,,
,7927.0,1788.0,8511.0,2012.0,1746.0,2609.0,2403.0,,,,2.02479293228645,-3.1348364469883,-1.64106633979508,,-1.256907371106396,,
,7919.0,1785.0,8512.0,2007.0,1749.0,2634.0,2407.0,,,,2.02413860505501,-3.13569886827233,-1.64139240737967,,-1.3276097413314498,,
,7900.0,1782.0,8508.0,2003.0,1746.0,2606.0,2414.0,,,,2.02347649188279,-3.13630569682047,-1.64180219726133,,-1.3925649291868334,,
,7880.0,1777.0,8502.0,1997.0,1752.0,2596.0,2416.0,,,,2.02211385716479,-3.13664606305746,-1.64200848609812,,-1.4509017412921832,,
,7858.0,1767.0,8501.0,1985.0,1738.0,2565.0,2423.0,,,,2.02039271569834,-3.13622045151309,-1.64283598909515,,-1.5018253158816228,,
,7833.0,1761.0,8493.0,1977.0,1737.0,2571.0,2411.0,,,,2.01992086192467,-3.1365159437821,-1.64191695454329,,-1.5446893990574027,,
,7813.0,1753.0,8489.0,1971.0,1735.0,2597.0,2396.0,,,,2.02044520934877,-3.13679933073309,-1.64249061822126,,-1.5790776102784796,,
,7794.0,1747.0,8482.0,1962.0,1753.0,2585.0,2414.0,,,,2.01878833620767,-3.1367506758265,-1.64229869784583,,-1.6048819904450995,,
,7769.0,1740.0,8476.0,1954.0,1758.0,2581.0,2443.0,,,,2.01986232135946,-3.13716963228552,-1.64285918381971,,-1.6223679934210071,,
,7745.0,1732.0,8469.0,1943.0,1760.0,2556.0,2415.0,,,,2.01883665550286,-3.13708667699715,-1.64329325304717,,-1.6322174106792071,,
,7730.0,1731.0,8460.0,1941.0,1757.0,2587.0,2414.0,,,,2.01958649676188,-3.13649229832663,-1.64204408881169,,-1.6355434340020998,,
,7715.0,1723.0,8453.0,1934.0,1741.0,2614.0,2368.0,,,,2.01951832193739,-3.13737309318698,-1.64199331648326,,-1.6338746924595307,,
,7699.0,1718.0,8449.0,1929.0,1744.0,2609.0,2373.0,,,,2.01980427377525,-3.13686981993321,-1.64206175184786,,-1.629107617801922,,
,7688.0,1715.0,8444.0,1926.0,1746.0,2592.0,2395.0,,,,2.02169281794366,-3.13697303616232,-1.64221832216505,,-1.6234288583763665,,
,7679.0,1709.0,8443.0,1923.0,1748.0,2590.0,2380.0,,,,2.02208676266273,-3.13640778085624,-1.64240042999285,,-1.6192114551709795,,
,7673.0,1706.0,8443.0,1920.0,1741.0,2585.0,2360.0,,,,2.0216990735565,-3.13711161660014,-1.64195115744412,,-1.6188899002535153,,
,7669.0,1706.0,8445.0,1923.0,1743.0,2589.0,2364.0,,,,2.02169669314566,-3.13634005008141,-1.6415250470555,,-1.624820046094994,,
,7666.0,1704.0,8441.0,1917.0,1753.0,2594.0,2365.0,,,,2.0219665883102,-3.13561787801395,-1.64143823932582,,-1.6391303819517666,,
,7662.0,1701.0,8445.0,1918.0,1762.0,2606.0,2377.0,,,,2.02380781694523,-3.13614702185107,-1.64220729067387,,-1.6635716870585298,,
,7662.0,1702.0,8450.0,1918.0,1755.0,2594.0,2368.0,,,,2.02213718708855,-3.13627477487462,-1.64082727753357,,-1.6993725358741143,,
,7662.0,1700.0,8451.0,1921.0,1757.0,2573.0,2358.0,,,,2.02335300029138,-3.13562069886074,-1.64115518728765,,-1.7471083550712183,,
,7659.0,1702.0,8449.0,1921.0,1745.0,2569.0,2371.0,,,,2.02238832433156,-3.13605633608927,-1.64215861660802,,-1.8065913820413624,,
,7658.0,1699.0,8451.0,1920.0,1754.0,2594.0,2383.0,,,,2.02168930942518,-3.13508034529128,-1.64148299683585,,-1.876787654141093,,
,7662.0,1700.0,8455.0,1924.0,1759.0,2620.0,2413.0,,,,2.02212062899376,-3.13545327576597,-1.64201882747886,,-1.9557649696397492,,
,7665.0,1703.0,8455.0,1925.0,1764.0,2605.0,2390.0,,,,2.02355840612097,-3.13628614303255,-1.64179322918936,,-2.040672903673023,,
,7668.0,1703.0,8459.0,1924.0,1768.0,2587.0,2385.0,,,,2.02340315602827,-3.13541946326919,-1.64167668528946,,-2.1277533147431797,,
,7667.0,1700.0,8460.0,1924.0,1747.0,2608.0,2402.0,,,,2.02333634263484,-3.13541078208584,-1.64230623880619,,-2.2123786413990616,,
,7669.0,1702.0,8464.0,1928.0,1749.0,2586.0,2417.0,,,,2.02319994046426,-3.13539363184464,-1.6423510569074,,-2.2891165986729107,,
,7669.0,1702.0,8465.0,1927.0,1739.0,2587.0,2399.0,,,,2.02387674606588,-3.13543812193261,-1.64156390379748,,-2.3518232995827986,,
,7672.0,1704.0,8466.0,1931.0,1736.0,2586.0,2390.0,,,,2.02465629172865,-3.13527100472051,-1.642055464574,,-2.3937707297802238,,
,7671.0,1701.0,8465.0,1931.0,1745.0,2586.0,2390.0,,,,2.02483333478255,-3.1345941281617,-1.64211214579252,,-2.4078169975705825,,
,7674.0,1703.0,8467.0,1931.0,1748.0,2588.0,2413.0,,,,2.02534866960874,-3.1357567571703,-1.64180426595487,,-2.386627657997609,,
,7678.0,1705.0,8467.0,1933.0,1752.0,2582.0,2415.0,,,,2.0258560791603,-3.13457445453638,-1.64183288215708,,-2.3229533063439978,,
,7677.0,1706.0,8472.0,1934.0,1754.0,2590.0,2401.0,,,,2.02494730589758,-3.13509564472258,-1.64050400933304,,-2.209962709687201,,
,7680.0,1708.0,8471.0,1934.0,1776.0,2612.0,2404.0,,,,2.02533949147681,-3.13582979813574,-1.64069877200099,,-2.041622517251352,,
,7686.0,1707.0,8470.0,1936.0,1759.0,2570.0,2396.0,,,,2.02535553281845,-3.13526986103337,-1.64160345827389,,-1.813105136632537,,
,7688.0,1707.0,8474.0,1939.0,1748.0,2614.0,2418.0,,,,2.02594980271402,-3.13494765036016,-1.64127607163841,,-1.5211974737310885,,
,7689.0,1711.0,8474.0,1938.0,1746.0,2591.0,2436.0,,,,2.02563076820343,-3.13563464975079,-1.64142768316972,,-1.1646771626140242,,
,7687.0,1713.0,8473.0,1939.0,1751.0,2590.0,2437.0,,,,2.02530768068117,-3.13488120152534,-1.64111375512381,,-0.7446216999135489,,
,7685.0,1708.0,8473.0,1936.0,1762.0,2574.0,2414.0,,,,2.02415258199192,-3.13553405169927,-1.64190141605138,,-0.26462054677564784,,
,7685.0,1709.0,8474.0,1938.0,1756.0,2583.0,2405.0,,,,2.02453635678819,-3.13488811683395,-1.64100365783362,,0.2691299619581923,,
,7686.0,1708.0,8476.0,1937.0,1748.0,2588.0,2411.0,,,,2.02497261697488,-3.13547268027938,-1.64130598681061,,0.8478567783413264,,
,7683.0,1711.0,8476.0,1936.0,1745.0,2578.0,2406.0,,,,2.0246883925174,-3.13544671429146,-1.64180439964525,,1.4603622241228085,,
,7682.0,1707.0,8475.0,1934.0,1764.0,2583.0,2407.0,,,,2.02410519929816,-3.13536155185295,-1.64193200950163,,2.0932884394688136,,
,7681.0,1707.0,8474.0,1936.0,1754.0,2584.0,2406.0,,,,2.02550732666312,-3.13572356021334,-1.6415716899113,,2.731484129105617,,
,7676.0,1707.0,8476.0,1936.0,1741.0,2599.0,2409.0,,,,2.02481082602665,-3.13513073175568,-1.64186124841961,,3.3584672502025894,,
,7677.0,1706.0,8474.0,1932.0,1736.0,2603.0,2384.0,,,,2.02442229718928,-3.13543659387446,-1.64129131933138,,3.9569811908291492,,
,7675.0,1707.0,8475.0,1932.0,1735.0,2606.0,2382.0,,,,2.02502173674362,-3.13538738894829,-1.64167589365251,,4.509641714536764,,
,7672.0,1705.0,8474.0,1932.0,1749.0,2596.0,2383.0,,,,2.02572177976115,-3.13556333881617,-1.64168135467641,,4.999665134265531,,
,7672.0,1706.0,8475.0,1936.0,1760.0,2629.0,2392.0,,,,2.02614254145151,-3.13465998175238,-1.64111193211247,,5.4116554991229275,,
,7669.0,1707.0,8476.0,1933.0,1769.0,2623.0,2394.0,,,,2.0259763977353,-3.13504628149251,-1.64196332052301,,5.7324129157789345,,
,7668.0,1706.0,8475.0,1936.0,1773.0,2620.0,2394.0,,,,2.02603692836267,-3.13508108778752,-1.64192069241281,,5.951710059080602,,
,7669.0,1705.0,8476.0,1932.0,1771.0,2597.0,2409.0,,,,2.02600547989658,-3.13556129468245,-1.64181474793322,,6.062972756694235,,
,7669.0,1707.0,8477.0,1937.0,1749.0,2592.0,2413.0,,,,2.02785124540921,-3.13537192243684,-1.64079753678201,,6.063796003482281,,
,7672.0,1709.0,8477.0,1936.0,1737.0,2594.0,2404.0,,,,2.02678544770586,-3.13366830496581,-1.64201927216201,,5.956230952398932,,
,7673.0,1711.0,8478.0,1936.0,1744.0,2583.0,2395.0,,,,2.0266546864105,-3.13466707065704,-1.64148761267186,,5.746792544148257,,
,7672.0,1705.0,8476.0,1936.0,1758.0,2592.0,2390.0,,,,2.02671341260667,-3.13452678014327,-1.64215871739804,,5.44616143557556,,
,7674.0,1707.0,8479.0,1937.0,1759.0,2585.0,2392.0,,,,2.02676580669631,-3.13492059507013,-1.64211018501628,,5.068585833889281,,
,7679.0,1708.0,8481.0,1939.0,1755.0,2569.0,2391.0,,,,2.02682619518496,-3.13471532611594,-1.6413936018418,,4.631024208474634,,
,7681.0,1707.0,8480.0,1940.0,1750.0,2564.0,2395.0,,,,2.02696486064883,-3.13471575490868,-1.64047599543099,,4.152101785554919,,
,7683.0,1711.0,8481.0,1940.0,1755.0,2581.0,2421.0,,,,2.0270939084164,-3.13368710120575,-1.64131653913655,,3.650975162146541,,
,7685.0,1710.0,8483.0,1938.0,1744.0,2580.0,2411.0,,,,2.02663301266023,-3.13439512028619,-1.641944399632,,3.1462059590532614,,
,7694.0,1716.0,8487.0,1943.0,1751.0,2610.0,2397.0,,,,2.02678165316151,-3.13431859091366,-1.64165073040493,,2.6547363390698346,,
,7695.0,1714.0,8485.0,1947.0,1750.0,2601.0,2396.0,,,,2.02674670814252,-3.13443392749439,-1.64227966541249,,2.1910406278624417,,
,7700.0,1715.0,8487.0,1946.0,1759.0,2562.0,2377.0,,,,2.02746038879246,-3.13437625090807,-1.64169961714488,,1.7665039576614812,,
,7701.0,1715.0,8486.0,1945.0,1756.0,2567.0,2394.0,,,,2.02819018161134,-3.13440862218594,-1.64195592657099,,1.3890553493031519,,
,7706.0,1719.0,8490.0,1949.0,1768.0,2581.0,2408.0,,,,2.02750655794291,-3.134513227797,-1.64184507514728,,1.0630609278706924,,
,7712.0,1720.0,8490.0,1951.0,1756.0,2592.0,2417.0,,,,2.02794773914017,-3.13405297851931,-1.64187684812187,,0.7894632638537893,,
,7715.0,1723.0,8488.0,1953.0,1759.0,2597.0,2406.0,,,,2.02784236996554,-3.13397779520201,-1.64148064629688,,0.5661354382052046,,
,7721.0,1721.0,8493.0,1953.0,1750.0,2604.0,2411.0,,,,2.02751823052513,-3.13457053659047,-1.64110037852991,,0.3884045712014576,,
,7722.0,1724.0,8493.0,1954.0,1758.0,2584.0,2387.0,,,,2.02761159418979,-3.13439483774125,-1.64109886088329,,0.24969075236951602,,
,7730.0,1728.0,8494.0,1959.0,1752.0,2578.0,2387.0,,,,2.02778507138088,-3.1343108289267,-1.64189303181649,,0.14220426665149666,,
,7734.0,1727.0,8495.0,1960.0,1758.0,2578.0,2398.0,,,,2.0281243787494,-3.13382916713459,-1.6414361839444,,0.05764622640919102,,
,7734.0,1729.0,8494.0,1958.0,1762.0,2571.0,2398.0,,,,2.02771132076126,-3.134760130933,-1.64141718424662,,-0.012136045185936566,,
,7741.0,1728.0,8494.0,1960.0,1754.0,2585.0,2376.0,,,,2.0284573038415,-3.13392931315851,-1.64211016307774,,-0.07457861956072409,,
,7744.0,1732.0,8498.0,1964.0,1761.0,2592.0,2372.0,,,,2.0279423670673,-3.1340231128539,-1.64107696432561,,-0.1359449444146661,,
,7748.0,1732.0,8496.0,1964.0,1758.0,2600.0,2392.0,,,,2.02720023019391,-3.1349834901576,-1.64165332064363,,-0.2010029383224765,,
,7753.0,1732.0,8496.0,1964.0,1756.0,2597.0,2381.0,,,,2.02686618531213,-3.13461667065263,-1.64146310993141,,-0.2728438866453363,,
,7756.0,1732.0,8501.0,1967.0,1774.0,2581.0,2384.0,,,,2.02778592275444,-3.13467570541112,-1.64163489480356,,-0.35284285795997933,,
,7759.0,1737.0,8501.0,1969.0,1759.0,2585.0,2398.0,,,,2.02747437130556,-3.13402840200761,-1.64193495647954,,-0.4407525355897036,,
,7760.0,1735.0,8498.0,1969.0,1751.0,2580.0,2414.0,,,,2.0261607566558,-3.13462902738814,-1.64126668369711,,-0.5349154971882375,,
,7767.0,1736.0,8499.0,1970.0,1755.0,2569.0,2410.0,,,,2.02728974336126,-3.1344108000517,-1.64045066405307,,-0.6325737923764929,,
,7767.0,1736.0,8500.0,1968.0,1746.0,2580.0,2397.0,,,,2.02689683046951,-3.13484002407068,-1.64074730097057,,-0.7302488992381005,,
,7774.0,1741.0,8504.0,1973.0,1748.0,2584.0,2382.0,,,,2.02698504333088,-3.13477869489939,-1.64183678562349,,-0.8241598189729655,,
,7777.0,1741.0,8500.0,1973.0,1752.0,2577.0,2409.0,,,,2.02644648569864,-3.13469843547673,-1.64127411166133,,-0.9106429674293038,,
,7780.0,1741.0,8501.0,1972.0,1745.0,2602.0,2423.0,,,,2.02679211660937,-3.13421917316023,-1.6410171368992,,-0.986536219391664,,
,7779.0,1741.0,8503.0,1975.0,1748.0,2602.0,2410.0,,,,2.02628875789523,-3.1336662693626,-1.64199490545845,,-1.0494925135541255,,
,7783.0,1742.0,8504.0,1976.0,1744.0,2605.0,2407.0,,,,2.02663146435474,-3.13478024390795,-1.64149856127527,,-1.0981961883573683,,
,7788.0,1745.0,8504.0,1977.0,1755.0,2605.0,2408.0,,,,2.0268877524329,-3.13451154840218,-1.64207389082523,,-1.1324664473070551,,
,7791.0,1746.0,8504.0,1979.0,1760.0,2596.0,2395.0,,,,2.02745404539759,-3.13446060973311,-1.64136040755822,,-1.1532449019977977,,
,7792.0,1746.0,8504.0,1976.0,1761.0,2586.0,2382.0,,,,2.02781133708992,-3.13444056246736,-1.64152461833913,,-1.1624759915243699,,
,7797.0,1747.0,8504.0,1976.0,1766.0,2601.0,2381.0,,,,2.02752554040277,-3.13409096789301,-1.64173705616491,,-1.1628988616193443,,
2025-07-29 18:30:24,7801.0,1748.0,8507.0,1979.0,1752.0,2607.0,2401.0,,,2025/07/29 06:30:24 PM,2.02597581205662,-3.13392052090578,-1.64226115396761,,-1.1577762066467936,,
,7802.0,1750.0,8508.0,1980.0,1756.0,2598.0,2408.0,,,,2.02740111357781,-3.13388976793842,-1.64169518117747,,-1.1505891763780045,,
,7807.0,1751.0,8508.0,1981.0,1761.0,2584.0,2406.0,,,,2.02607214122889,-3.13455988707952,-1.64122075842615,,-1.144727662611877,,
,7810.0,1751.0,8507.0,1981.0,1748.0,2577.0,2396.0,,,,2.0272780131639,-3.13462923399098,-1.64150378721331,,-1.143202630343191,,
,7811.0,1753.0,8511.0,1985.0,1756.0,2602.0,2420.0,,,,2.02768212583124,-3.13459086455201,-1.64218544659009,,-1.148402689929756,,
,7815.0,1754.0,8509.0,1983.0,1750.0,2592.0,2420.0,,,,2.02814492292881,-3.13436210116296,-1.64195392048764,,-1.1619119512778926,,
,7818.0,1758.0,8511.0,1985.0,1749.0,2594.0,2431.0,,,,2.02908849309501,-3.13374192663325,-1.64185931067993,,-1.1844010738031832,,
,7820.0,1755.0,8510.0,1987.0,1742.0,2589.0,2412.0,,,,2.02719550958228,-3.13435588467488,-1.64181198773973,,-1.2155984542080334,,
,7823.0,1757.0,8510.0,1986.0,1755.0,2588.0,2377.0,,,,2.02797723509851,-3.13389836821579,-1.64295084509369,,-1.2543434246110197,,
,7827.0,1757.0,8511.0,1988.0,1754.0,2608.0,2376.0,,,,2.02893139904777,-3.13362946279875,-1.64140269373024,,-1.2987178259243293,,
,7830.0,1759.0,8511.0,1990.0,1758.0,2597.0,2395.0,,,,2.02981954369441,-3.13391119019518,-1.64202287345255,,-1.346246140535752,,
,7832.0,1761.0,8512.0,1988.0,1737.0,2595.0,2396.0,,,,2.02970253965383,-3.13295550475125,-1.64173856758725,,-1.3941476417045355,,
,7837.0,1762.0,8512.0,1992.0,1737.0,2599.0,2370.0,,,,2.02905460955367,-3.13311744980914,-1.64191498453664,,-1.4396176185108536,,
,7840.0,1763.0,8512.0,1990.0,1737.0,2597.0,2392.0,,,,2.03066888933728,-3.13359798242631,-1.64173600847071,,-1.480110299026675,,
,7843.0,1763.0,8512.0,1993.0,1748.0,2613.0,2411.0,,,,2.03021243090473,-3.13350077555743,-1.64273917300598,,-1.513595212920134,,
,7847.0,1764.0,8512.0,1993.0,1744.0,2613.0,2408.0,,,,2.03050587796632,-3.13233164566487,-1.64122427148393,,-1.5387618796049722,,
,7849.0,1766.0,8514.0,1994.0,1745.0,2603.0,2400.0,,,,2.03121356282007,-3.13288974417743,-1.64118773462603,,-1.5551539312022005,,
,7853.0,1768.0,8515.0,1998.0,1750.0,2586.0,2401.0,,,,2.03133283792036,-3.13298642005566,-1.64147560850991,,-1.5632214285990123,,
,7856.0,1770.0,8517.0,1995.0,1749.0,2584.0,2400.0,,,,2.03256233907904,-3.13307416802968,-1.64146770943565,,-1.5642878088624337,,
,7862.0,1772.0,8517.0,1996.0,1749.0,2587.0,2389.0,,,,2.03241245845886,-3.13215726971706,-1.64127189811276,,-1.5604349148763728,,
,7866.0,1773.0,8518.0,1994.0,1738.0,2584.0,2370.0,,,,2.03304091735678,-3.13212787481072,-1.64197027792214,,-1.5543157412337336,,
,7871.0,1774.0,8517.0,2001.0,1740.0,2593.0,2386.0,,,,2.03244577113621,-3.13198203274209,-1.6412642653289,,-1.5489099038695517,,
,7876.0,1774.0,8519.0,2001.0,1732.0,2619.0,2391.0,,,,2.03451101254033,-3.13117785300716,-1.64158496565618,,-1.5472413818526456,,
,7880.0,1773.0,8518.0,2002.0,1740.0,2602.0,2379.0,,,,2.03429124325933,-3.13164766998845,-1.64076743616933,,-1.5520816517568945,,
,7881.0,1776.0,8517.0,2006.0,1748.0,2597.0,2372.0,,,,2.03361708922131,-3.13186250120239,-1.6414227746974,,-1.5656636841526956,,
,7887.0,1781.0,8519.0,2002.0,1744.0,2580.0,2399.0,,,,2.03437433456727,-3.13178296671669,-1.64096341279207,,-1.58943305579155,,
,7889.0,1778.0,8522.0,2006.0,1755.0,2578.0,2385.0,,,,2.03450308911935,-3.13152467951942,-1.64116789395542,,-1.6238612736376121,,
,7895.0,1783.0,8522.0,2008.0,1758.0,2587.0,2380.0,,,,2.0351834173222,-3.13168543045304,-1.6416719290956,,-1.6683429764733397,,
,7897.0,1782.0,8519.0,2006.0,1770.0,2618.0,2374.0,,,,2.03428087502015,-3.13272895881942,-1.64145192543451,,-1.7211928152079714,,
,7899.0,1783.0,8521.0,2008.0,1758.0,2613.0,2396.0,,,,2.03360669870093,-3.13282364108018,-1.64094078723417,,-1.7797496519509832,,
,7897.0,1785.0,8523.0,2008.0,1743.0,2601.0,2414.0,,,,2.03274491227298,-3.13270375826696,-1.64105326720037,,-1.840585706085793,,
,7891.0,1783.0,8522.0,2007.0,1742.0,2601.0,2410.0,,,,2.03145624547264,-3.13310959819655,-1.64079907147593,,-1.8998071078176986,,
,7879.0,1782.0,8522.0,2002.0,1762.0,2596.0,2363.0,,,,2.03152958548796,-3.13334268022929,-1.64146571180523,,-1.9534210627666988,,
,7862.0,1776.0,8521.0,1995.0,1762.0,2581.0,2378.0,,,,2.03029608310062,-3.13293464009128,-1.64070484545595,,-1.9977351313424399,,
,7842.0,1770.0,8515.0,1988.0,1753.0,2618.0,2390.0,,,,2.03042720796434,-3.1336755348012,-1.64209381261443,,-2.0297479453338627,,
,7819.0,1765.0,8511.0,1983.0,1738.0,2606.0,2380.0,,,,2.03090222541906,-3.13281740941855,-1.64209471347455,,-2.047489443333446,,
,7800.0,1759.0,8508.0,1972.0,1736.0,2607.0,2368.0,,,,2.02963135725153,-3.13378725985966,-1.6412589831268,,-2.050272584296492,,
,7777.0,1749.0,8500.0,1963.0,1746.0,2578.0,2364.0,,,,2.03064753484829,-3.13346094097262,-1.64232913595877,,-2.0388265454995222,,
,7754.0,1743.0,8494.0,1954.0,1757.0,2573.0,2384.0,,,,2.03051371749841,-3.13300109481415,-1.64144235743261,,-2.0152922659667256,,
,7734.0,1735.0,8486.0,1948.0,1743.0,2553.0,2371.0,,,,2.03006625354961,-3.13311473143063,-1.64178471948259,,-1.9830736762548777,,
,7709.0,1731.0,8480.0,1940.0,1744.0,2574.0,2376.0,,,,2.03062651763593,-3.13405496579731,-1.64128587891104,,-1.9465511356617007,,
,7691.0,1725.0,8470.0,1932.0,1763.0,2581.0,2410.0,,,,2.03185150975354,-3.13326750372753,-1.64100704622296,,-1.9106765807760844,,
,7675.0,1719.0,8462.0,1926.0,1752.0,2562.0,2394.0,,,,2.0309969741825,-3.1330867346063,-1.6405842445687,,-1.8804816531288602,,
,7664.0,1712.0,8458.0,1924.0,1748.0,2566.0,2372.0,,,,2.03316218532162,-3.13295930983361,-1.6413884262739,,-1.8605395282042962,,
,7651.0,1707.0,8454.0,1920.0,1747.0,2576.0,2375.0,,,,2.03231097185776,-3.13324095646567,-1.64137725195829,,-1.854427296674484,,
,7644.0,1706.0,8450.0,1914.0,1759.0,2600.0,2374.0,,,,2.03333505509621,-3.13313774046546,-1.64119976702897,,-1.8642377795302083,,
,7635.0,1700.0,8451.0,1912.0,1775.0,2609.0,2377.0,,,,2.03375150861361,-3.13305308282083,-1.64060607320729,,-1.8901872582415276,,
,7632.0,1699.0,8452.0,1914.0,1764.0,2621.0,2371.0,,,,2.03413683123847,-3.13246469356556,-1.64116706906394,,-1.9303589353720882,,
,7628.0,1700.0,8454.0,1910.0,1756.0,2608.0,2366.0,,,,2.03561183355055,-3.13205125904531,-1.64134029463946,,-1.9806115039585728,,
,7624.0,1698.0,8455.0,1909.0,1762.0,2603.0,2375.0,,,,2.03584520734002,-3.13164063077382,-1.64088001455529,,-2.0346686326706873,,
,7622.0,1696.0,8453.0,1910.0,1760.0,2589.0,2389.0,,,,2.03716285861077,-3.13199664502105,-1.64075502112119,,-2.084389296950221,,
,7624.0,1695.0,8457.0,1910.0,1762.0,2601.0,2353.0,,,,2.03672967831788,-3.13124798882697,-1.64065913075029,,-2.120201950661407,,
,7621.0,1695.0,8458.0,1910.0,1765.0,2614.0,2379.0,,,,2.03607832789918,-3.13140250899303,-1.64118883148925,,-2.1316694055773624,,
,7622.0,1697.0,8462.0,1911.0,1763.0,2627.0,2378.0,,,,2.03781205296633,-3.13165138068912,-1.64141117859763,,-2.1081383590293723,,
,7621.0,1695.0,8461.0,1910.0,1770.0,2587.0,2384.0,,,,2.0369010859469,-3.13148449506473,-1.64217679096949,,-2.039420053811398,,
,7624.0,1697.0,8462.0,1913.0,1757.0,2589.0,2395.0,,,,2.0387091042594,-3.13148988114409,-1.64127574004714,,-1.9164477923599887,,
,7624.0,1698.0,8469.0,1916.0,1760.0,2596.0,2387.0,,,,2.03808839213154,-3.1316310476363,-1.6415758341743,,-1.7318626887513164,,
,7625.0,1697.0,8471.0,1914.0,1761.0,2618.0,2394.0,,,,2.03884491704259,-3.1300397355547,-1.6409772242995,,-1.480489735476081,,
,7624.0,1697.0,8466.0,1913.0,1746.0,2617.0,2388.0,,,,2.03885767517636,-3.13097846890641,-1.64130791443016,,-1.1596801676219266,,
,7623.0,1695.0,8472.0,1913.0,1761.0,2608.0,2379.0,,,,2.04031318524958,-3.13052791573979,-1.64104581034634,,-0.769511322174032,,
,7627.0,1699.0,8474.0,1917.0,1761.0,2585.0,2365.0,,,,2.0398345249288,-3.13056040558516,-1.64146191213873,,-0.3128496509225391,,
,7628.0,1697.0,8475.0,1917.0,1753.0,2581.0,2363.0,,,,2.04067341856139,-3.13118486846445,-1.64095025128206,,0.20470596933268556,,
,7633.0,1700.0,8477.0,1918.0,1766.0,2604.0,2365.0,,,,2.04043333750029,-3.13074002784334,-1.64065208094149,,0.7749768778601962,,
,7633.0,1699.0,8479.0,1918.0,1759.0,2598.0,2363.0,,,,2.03935162604472,-3.13026741142952,-1.64106346601155,,1.3874286008557688,,
,7638.0,1701.0,8480.0,1922.0,1755.0,2605.0,2387.0,,,,2.04052902006059,-3.13055128356628,-1.64104582785706,,2.0294458311172665,,
,7640.0,1701.0,8480.0,1921.0,1755.0,2581.0,2397.0,,,,2.03931975234355,-3.13116682555863,-1.64083924311706,,2.6866458580202144,,
,7640.0,1703.0,8479.0,1921.0,1757.0,2581.0,2387.0,,,,2.03983773289922,-3.13068270257571,-1.64066153499442,,3.343227000565572,,
,7640.0,1703.0,8483.0,1921.0,1764.0,2565.0,2376.0,,,,2.03936992618301,-3.13016448094943,-1.64062387780596,,3.9823571258424124,,
,7640.0,1704.0,8481.0,1921.0,1761.0,2601.0,2373.0,,,,2.04033765217804,-3.13032572219581,-1.64228118547529,,4.586613600971305,,
,7640.0,1703.0,8483.0,1924.0,1770.0,2609.0,2363.0,,,,2.03931916729946,-3.13073054482798,-1.64041298653644,,5.138488428810628,,
,7636.0,1702.0,8481.0,1919.0,1772.0,2601.0,2348.0,,,,2.04015855025089,-3.13015178609125,-1.64100294141166,,5.620969453216592,,
,7634.0,1702.0,8482.0,1920.0,1748.0,2584.0,2383.0,,,,2.03936256572773,-3.1301985475733,-1.64216657676977,,6.018199626277438,,
,7632.0,1702.0,8481.0,1920.0,1743.0,2578.0,2369.0,,,,2.0397284524166,-3.1303737383309,-1.64139947942318,,6.316201735805386,,
,7635.0,1703.0,8483.0,1917.0,1773.0,2590.0,2396.0,,,,2.04006717133342,-3.13092006337977,-1.64125721606895,,6.50363740492655,,
,7632.0,1704.0,8484.0,1923.0,1766.0,2595.0,2385.0,,,,2.04078185048277,-3.12960655313131,-1.64159144870868,,6.5725497845457195,,
,7629.0,1701.0,8485.0,1918.0,1763.0,2596.0,2384.0,,,,2.04094159458732,-3.13103956082379,-1.64061528579576,,6.519023464905915,,
,7626.0,1700.0,8481.0,1917.0,1768.0,2603.0,2382.0,,,,2.04052865794642,-3.13063074578567,-1.64165235349818,,6.3436871454274835,,
,7624.0,1701.0,8483.0,1920.0,1757.0,2582.0,2387.0,,,,2.04058269599252,-3.12934327847867,-1.64124693903025,,6.05198782762146,,
,7623.0,1699.0,8483.0,1916.0,1756.0,2599.0,2388.0,,,,2.04208939394385,-3.1301737270677,-1.64114115657032,,5.65418099791554,,
,7617.0,1695.0,8480.0,1916.0,1770.0,2599.0,2393.0,,,,2.04286313529287,-3.13019743171239,-1.64172615237752,,5.165008012055575,,
,7615.0,1696.0,8479.0,1910.0,1750.0,2608.0,2387.0,,,,2.04261666842068,-3.12983109289223,-1.64017158455598,,4.603065293011577,,
,7615.0,1695.0,8477.0,1911.0,1743.0,2583.0,2388.0,,,,2.04279659320323,-3.12975250141911,-1.64014854540996,,3.9899035059696066,,
,7617.0,1701.0,8484.0,1914.0,1756.0,2598.0,2350.0,,,,2.04312264814864,-3.12919503670695,-1.64069818162788,,3.3489221124558166,,
,7615.0,1697.0,8481.0,1912.0,1751.0,2605.0,2345.0,,,,2.04366449453567,-3.13033600849491,-1.64078609047607,,2.704141522619395,,
,7611.0,1697.0,8482.0,1910.0,1764.0,2604.0,2363.0,,,,2.04287433952256,-3.12955773737567,-1.64111231268708,,2.07894067839119,,
,7614.0,1696.0,8482.0,1910.0,1770.0,2603.0,2352.0,,,,2.04414026681382,-3.12919374940489,-1.64077657891235,,1.4948441738395692,,
,7611.0,1695.0,8484.0,1912.0,1766.0,2582.0,2362.0,,,,2.04406557117952,-3.12885039483286,-1.6409641007261,,0.9704330139300303,,
,7618.0,1699.0,8483.0,1911.0,1756.0,2584.0,2379.0,,,,2.04456128264566,-3.12982394890554,-1.64101611036725,,0.5204398867625124,,
,7616.0,1698.0,8482.0,1911.0,1751.0,2617.0,2392.0,,,,2.04510248093112,-3.12870829351912,-1.64114486583873,,0.15507584498290491,,
,7619.0,1698.0,8486.0,1912.0,1770.0,2605.0,2369.0,,,,2.04532245480329,-3.12822574455817,-1.6401126138304,,-0.12037784146029054,,
,7618.0,1702.0,8486.0,1914.0,1763.0,2605.0,2389.0,,,,2.04446419833997,-3.12914561465035,-1.6406694920222,,-0.3056908201682348,,
,7623.0,1702.0,8487.0,1916.0,1747.0,2590.0,2371.0,,,,2.04480219884148,-3.1289549048224,-1.6407160475003,,-0.4055077359211873,,
,7626.0,1700.0,8488.0,1917.0,1744.0,2590.0,2346.0,,,,2.04575224290583,-3.12812477598412,-1.6404932081916,,-0.42887892942757505,,
,7629.0,1702.0,8487.0,1916.0,1771.0,2603.0,2346.0,,,,2.04622502117711,-3.1280555195866,-1.64029742432894,,-0.38851890191841393,,
,7631.0,1704.0,8489.0,1919.0,1769.0,2606.0,2396.0,,,,2.04636945447183,-3.1285516114346,-1.64112613206067,,-0.2998353704188662,,
,7635.0,1704.0,8490.0,1921.0,1764.0,2587.0,2394.0,,,,2.04590841836452,-3.12869135863578,-1.64067948099631,,-0.17979575759677996,,
,7637.0,1705.0,8491.0,1922.0,1766.0,2571.0,2372.0,,,,2.04739193213257,-3.12808325052733,-1.64149705848565,,-0.045719713864964415,,
,7640.0,1706.0,8494.0,1920.0,1759.0,2577.0,2364.0,,,,2.04628651482499,-3.1278547531271,-1.64054083132562,,0.08590064028971357,,
,7644.0,1707.0,8494.0,1923.0,1764.0,2574.0,2370.0,,,,2.04639794397992,-3.1285067500844,-1.64056497225291,,0.20045204583076195,,
,7648.0,1712.0,8494.0,1924.0,1771.0,2590.0,2363.0,,,,2.04709402906811,-3.12750528751609,-1.64092286256183,,0.28603862053372653,,
,7651.0,1712.0,8495.0,1926.0,1760.0,2601.0,2356.0,,,,2.04653470499559,-3.12833233117135,-1.64029055338015,,0.334050988290453,,
,7655.0,1711.0,8497.0,1927.0,1777.0,2607.0,2344.0,,,,2.0472531973168,-3.12705939200523,-1.64167042235288,,0.3394419547204704,,
,7658.0,1710.0,8497.0,1924.0,1754.0,2589.0,2361.0,,,,2.04646909001371,-3.12794581879416,-1.64033177304641,,0.30071525753139805,,
,7662.0,1715.0,8499.0,1929.0,1760.0,2603.0,2348.0,,,,2.04706345919176,-3.12761058876574,-1.64078964416291,,0.21965835969362954,,
,7665.0,1717.0,8499.0,1932.0,1754.0,2592.0,2350.0,,,,2.04716217305537,-3.12773002639602,-1.64072709286699,,0.1008669706997964,,
,7666.0,1717.0,8499.0,1930.0,1761.0,2608.0,2358.0,,,,2.04722105080902,-3.12807222959486,-1.64039629277059,,-0.048881691557356804,,
,7670.0,1715.0,8499.0,1929.0,1769.0,2593.0,2355.0,,,,2.04616587080517,-3.12807576849762,-1.6401066831548,,-0.2213466903074284,,
,7673.0,1716.0,8500.0,1931.0,1759.0,2597.0,2387.0,,,,2.04580748802067,-3.12793815189254,-1.64043611792251,,-0.40757336348631484,,
,7677.0,1720.0,8502.0,1934.0,1756.0,2593.0,2355.0,,,,2.04570681689772,-3.12784670092361,-1.64087862089352,,-0.5986210021683374,,
,7677.0,1720.0,8502.0,1934.0,1758.0,2599.0,2369.0,,,,2.04584722248049,-3.12788112031338,-1.64100638356482,,-0.7862196895875905,,
,7681.0,1720.0,8500.0,1934.0,1782.0,2607.0,2392.0,,,,2.04578055606953,-3.12779465014965,-1.64180575238703,,-0.9633148756926715,,
,7684.0,1723.0,8503.0,1936.0,1778.0,2592.0,2409.0,,,,2.04607192736068,-3.12864176786183,-1.64140369982081,,-1.124466949354005,,
,7687.0,1724.0,8504.0,1939.0,1762.0,2590.0,2377.0,,,,2.04571484506029,-3.12962131359981,-1.64101838399076,,-1.2660843823650678,,
,7689.0,1722.0,8503.0,1940.0,1775.0,2590.0,2373.0,,,,2.0446937493272,-3.12775970426114,-1.64074349811491,,-1.386483247270604,,
,7692.0,1723.0,8503.0,1937.0,1774.0,2594.0,2376.0,,,,2.04584073517604,-3.12815798624682,-1.64074006751438,,-1.4857816854655408,,
,7692.0,1724.0,8503.0,1939.0,1782.0,2607.0,2351.0,,,,2.04493877081351,-3.12798604356434,-1.64047419325973,,-1.5656526541452096,,
,7698.0,1727.0,8507.0,1940.0,1764.0,2622.0,2381.0,,,,2.0454138973924,-3.12843587445709,-1.64106257253233,,-1.6289695838171474,,
,7697.0,1727.0,8506.0,1942.0,1759.0,2612.0,2394.0,,,,2.04686395498963,-3.1280854904629,-1.64139416341215,,-1.679386165768746,,
,7701.0,1727.0,8504.0,1941.0,1770.0,2602.0,2363.0,,,,2.04560119355915,-3.12852382980667,-1.64182603800434,,-1.7208933461673734,,
,7703.0,1727.0,8506.0,1940.0,1758.0,2599.0,2381.0,,,,2.0455179331969,-3.1283136114575,-1.64087090294216,,-1.7573944102093388,,
,7705.0,1728.0,8508.0,1943.0,1760.0,2614.0,2385.0,,,,2.04591838878983,-3.12857800201805,-1.6409965332553,,-1.792333647413069,,
,7707.0,1733.0,8509.0,1944.0,1762.0,2595.0,2386.0,,,,2.04450317022322,-3.12840299627949,-1.64069277584747,,-1.8284063934916415,,
,7711.0,1731.0,8507.0,1945.0,1773.0,2598.0,2377.0,,,,2.04427187209874,-3.12918269821918,-1.6406929960523,,-1.8673692234971564,,
,7710.0,1731.0,8508.0,1944.0,1772.0,2605.0,2395.0,,,,2.04404660178844,-3.12937266684092,-1.64059567215116,,-1.90995967099286,,
,7713.0,1731.0,8509.0,1945.0,1771.0,2598.0,2372.0,,,,2.04474502818478,-3.12917264457032,-1.64134606080918,,-1.9559257672665495,,
,7715.0,1733.0,8512.0,1946.0,1781.0,2597.0,2377.0,,,,2.04465270205359,-3.12890947547372,-1.64071999404235,,-2.0041572945359514,,
,7717.0,1733.0,8509.0,1945.0,1779.0,2623.0,2387.0,,,,2.04337423940311,-3.12880569567953,-1.64118399912372,,-2.052903031180134,,
,7721.0,1736.0,8511.0,1946.0,1760.0,2617.0,2373.0,,,,2.04272913098581,-3.1287572239602,-1.64084809470591,,-2.100051413049362,,
2025-07-29 18:30:25,7723.0,1733.0,8508.0,1947.0,1777.0,2601.0,2362.0,,,2025/07/29 06:30:25 PM,2.04309356523268,-3.12918109583445,-1.64160830455144,,-2.1434459531072356,,
,7724.0,1737.0,8511.0,1951.0,1759.0,2595.0,2381.0,,,,2.04180733869979,-3.12967018356145,-1.64103493556731,,-2.181201786375417,,
,7729.0,1740.0,8514.0,1950.0,1770.0,2603.0,2376.0,,,,2.04249728627405,-3.1298905123826,-1.64211976995177,,-2.2119868573357375,,
,7730.0,1737.0,8512.0,1950.0,1773.0,2601.0,2361.0,,,,2.04095021535127,-3.12926338198163,-1.64187087331413,,-2.2352321832370303,,
,7733.0,1738.0,8512.0,1948.0,1770.0,2597.0,2390.0,,,,2.04085358516192,-3.1295628204258,-1.64125606484661,,-2.251241670325843,,
,7736.0,1741.0,8513.0,1950.0,1762.0,2612.0,2395.0,,,,2.04058438057882,-3.12948928478769,-1.64146480224367,,-2.261183021292807,,
,7741.0,1739.0,8513.0,1952.0,1769.0,2596.0,2386.0,,,,2.04065316126528,-3.12912444851599,-1.6413523729158,,-2.2669554814826642,,
,7740.0,1740.0,8513.0,1956.0,1783.0,2593.0,2377.0,,,,2.04064900875177,-3.12945013579652,-1.64111775594708,,-2.2709448385743864,,
,7745.0,1741.0,8513.0,1955.0,1771.0,2594.0,2372.0,,,,2.04024725402493,-3.12973251259951,-1.64247773115187,,-2.275688921017543,,
,7751.0,1744.0,8513.0,1957.0,1761.0,2612.0,2393.0,,,,2.04093028391387,-3.12950590153057,-1.6411163437364,,-2.283486478481181,,
,7752.0,1746.0,8515.0,1958.0,1751.0,2606.0,2368.0,,,,2.04015316937449,-3.13034230559748,-1.64043121722851,,-2.295988200043662,,
,7756.0,1745.0,8517.0,1960.0,1748.0,2610.0,2380.0,,,,2.0409207941478,-3.12995262204586,-1.64109600506621,,-2.313810610404831,,
,7758.0,1746.0,8516.0,1959.0,1767.0,2607.0,2369.0,,,,2.04008757829034,-3.13072616186702,-1.64137388407362,,-2.3362118658918796,,
,7763.0,1749.0,8515.0,1961.0,1759.0,2594.0,2396.0,,,,2.03968614760768,-3.12963919391412,-1.64102365247909,,-2.3608635354217213,,
,7768.0,1753.0,8519.0,1963.0,1773.0,2607.0,2388.0,,,,2.03956424509344,-3.13018704905586,-1.64144581430939,,-2.3837449903984327,,
,7770.0,1750.0,8515.0,1962.0,1769.0,2593.0,2389.0,,,,2.03840392569898,-3.13055017395853,-1.64173413416388,,-2.3991777532379874,,
,7774.0,1750.0,8519.0,1963.0,1770.0,2575.0,2385.0,,,,2.03805609740965,-3.13114121821526,-1.64089620057449,,-2.400006666383094,,
,7773.0,1751.0,8518.0,1965.0,1764.0,2576.0,2406.0,,,,2.03777478222611,-3.13080039719079,-1.64108246162799,,-2.3779235289045895,,
,7774.0,1753.0,8521.0,1965.0,1775.0,2600.0,2383.0,,,,2.03569336259039,-3.13121668605531,-1.64152880194857,,-2.3239173520256013,,
,7770.0,1751.0,8519.0,1963.0,1772.0,2586.0,2371.0,,,,2.03585111945885,-3.13228107092032,-1.64167089216066,,-2.2288241313880692,,
,7760.0,1747.0,8520.0,1958.0,1776.0,2586.0,2379.0,,,,2.03301820448397,-3.13136271665728,-1.64201589912906,,-2.083938837499574,,
,7747.0,1745.0,8514.0,1956.0,1762.0,2599.0,2399.0,,,,2.03223354415713,-3.13204383644286,-1.64174291200201,,-1.8816445699522697,,
,7730.0,1741.0,8508.0,1949.0,1767.0,2578.0,2397.0,,,,2.03241565873052,-3.13269465237864,-1.64183777228437,,-1.6160104379843332,,
,7712.0,1737.0,8509.0,1944.0,1762.0,2588.0,2391.0,,,,2.03125694075154,-3.13277749092752,-1.64217960488846,,-1.283312417307765,,
,7692.0,1726.0,8498.0,1932.0,1763.0,2569.0,2407.0,,,,2.03088339059202,-3.13327061772095,-1.64220333004964,,-0.8824403252100359,,
,7675.0,1723.0,8491.0,1926.0,1753.0,2597.0,2397.0,,,,2.03027864977709,-3.13383474792613,-1.6418775114015,,-0.4151670141478664,,
,7656.0,1719.0,8490.0,1922.0,1735.0,2601.0,2363.0,,,,2.03067497872992,-3.13369317128742,-1.64210786723833,,0.11373061933424969,,
,7639.0,1714.0,8483.0,1913.0,1748.0,2612.0,2380.0,,,,2.02988966177401,-3.13352499038479,-1.64253155081598,,0.6964981691024423,,
,7627.0,1707.0,8476.0,1909.0,1756.0,2600.0,2377.0,,,,2.02994321156584,-3.13367516590302,-1.64189972986934,,1.3225697028947503,,
,7611.0,1702.0,8467.0,1902.0,1769.0,2597.0,2376.0,,,,2.02993372124617,-3.13348523096428,-1.64109005172011,,1.9788607291894895,,
,7597.0,1698.0,8461.0,1897.0,1762.0,2586.0,2363.0,,,,2.02999469068868,-3.13369079855093,-1.6422571419538,,2.6501733389631146,,
,7585.0,1693.0,8461.0,1896.0,1764.0,2605.0,2372.0,,,,2.03035233595406,-3.13398337305289,-1.64178863909249,,3.3196976571064436,,
,7579.0,1690.0,8457.0,1892.0,1754.0,2611.0,2372.0,,,,2.0289652350387,-3.1341089433677,-1.64220669049845,,3.969593559372952,,
,7573.0,1688.0,8458.0,1890.0,1749.0,2617.0,2374.0,,,,2.03010252518069,-3.13385417830693,-1.64209781200764,,4.581636722284012,,
,7568.0,1685.0,8453.0,1887.0,1759.0,2608.0,2355.0,,,,2.02919099694811,-3.13339385634003,-1.6419779803242,,5.137912464565917,,
,7563.0,1684.0,8458.0,1886.0,1759.0,2583.0,2372.0,,,,2.02914804502331,-3.13389795196299,-1.64143076006383,,5.621538453787004,,
,7561.0,1681.0,8455.0,1886.0,1769.0,2619.0,2374.0,,,,2.03020149919629,-3.13306427949645,-1.64187139788499,,6.0173926809282445,,
,7559.0,1679.0,8457.0,1888.0,1772.0,2615.0,2381.0,,,,2.03002447086746,-3.13333196229833,-1.64139944594138,,6.312816534844249,,
,7558.0,1674.0,8458.0,1886.0,1766.0,2601.0,2381.0,,,,2.0300893237954,-3.13376867310947,-1.64177375467301,,6.498255643983942,,
,7559.0,1679.0,8461.0,1887.0,1752.0,2566.0,2378.0,,,,2.02928570932756,-3.13369485686027,-1.6412956242727,,6.567795305161974,,
,7560.0,1681.0,8468.0,1890.0,1744.0,2583.0,2378.0,,,,2.02975835397672,-3.13322180354981,-1.64162330170181,,6.51954471137289,,
,7565.0,1680.0,8466.0,1889.0,1743.0,2594.0,2368.0,,,,2.02884783753061,-3.1336358951519,-1.64199025159625,,6.355826281235803,,
,7565.0,1682.0,8470.0,1892.0,1746.0,2606.0,2360.0,,,,2.02948768532187,-3.13314216089748,-1.64182781228571,,6.083134244292653,,
,7569.0,1684.0,8472.0,1895.0,1753.0,2607.0,2380.0,,,,2.02955947798752,-3.13374768279024,-1.64196140349406,,5.71184124789105,,
,7573.0,1683.0,8473.0,1894.0,1756.0,2605.0,2392.0,,,,2.02938702286554,-3.13351946809993,-1.64100821861585,,5.255653674932605,,
,7575.0,1684.0,8476.0,1896.0,1760.0,2620.0,2409.0,,,,2.02928371886057,-3.1337885695571,-1.64152464921401,,4.730844240872069,,
,7578.0,1686.0,8480.0,1899.0,1765.0,2651.0,2399.0,,,,2.03072938988331,-3.13291417732506,-1.64222958714521,,4.15531973654185,,
,7576.0,1685.0,8478.0,1898.0,1753.0,2662.0,2416.0,,,,2.03037116256018,-3.13381069938822,-1.64182438230275,,3.547605503878464,,
,7583.0,1690.0,8481.0,1900.0,1764.0,2611.0,2404.0,,,,2.03058268301687,-3.13447274222348,-1.64181758016595,,2.9258398205444904,,
,7589.0,1689.0,8485.0,1905.0,1753.0,2525.0,2387.0,,,,2.02994426176998,-3.13374284790398,-1.64116527956662,,2.3068678331098162,,
,7594.0,1690.0,8487.0,1905.0,1746.0,2547.0,2382.0,,,,2.0303459135874,-3.1335291684796,-1.64248512403908,,1.7055075882578337,,
,7594.0,1690.0,8484.0,1904.0,1746.0,2597.0,2365.0,,,,2.02987388301717,-3.13307552870229,-1.64181672141446,,1.1340347466676763,,
,7601.0,1691.0,8485.0,1907.0,1746.0,2588.0,2398.0,,,,2.03156736703136,-3.13275936897563,-1.64085727023778,,0.6019032738599729,,
,7603.0,1696.0,8489.0,1912.0,1752.0,2577.0,2393.0,,,,2.03037520339043,-3.13298772556041,-1.64059517998887,,0.11569170658283175,,
,7605.0,1696.0,8492.0,1912.0,1741.0,2591.0,2377.0,,,,2.03062114575793,-3.13368557554537,-1.64139718766884,,-0.3207578203145223,,
,7608.0,1697.0,8491.0,1912.0,1751.0,2619.0,2417.0,,,,2.03045140012993,-3.13362525645529,-1.64165846272587,,-0.7060554085581718,,
,7607.0,1693.0,8490.0,1911.0,1752.0,2588.0,2409.0,,,,2.02957966592813,-3.13393603647676,-1.64142176165934,,-1.040887869579039,,
,7608.0,1697.0,8490.0,1915.0,1761.0,2605.0,2428.0,,,,2.02934929477495,-3.13448891508495,-1.64162093272601,,-1.327603271172936,,
,7608.0,1697.0,8491.0,1914.0,1755.0,2604.0,2407.0,,,,2.03027999018514,-3.13408811704097,-1.64057670556821,,-1.5697976519265502,,
,7607.0,1698.0,8492.0,1913.0,1755.0,2583.0,2398.0,,,,2.03066856504284,-3.13410041261924,-1.64216566703343,,-1.7719326075129311,,
,7606.0,1693.0,8490.0,1911.0,1768.0,2583.0,2410.0,,,,2.03039492979247,-3.13456693124065,-1.64167218543454,,-1.9389987718717414,,
,7605.0,1695.0,8491.0,1911.0,1742.0,2582.0,2427.0,,,,2.02926576213876,-3.13405609407093,-1.64039255865058,,-2.076229339633428,,
,7605.0,1696.0,8493.0,1913.0,1749.0,2604.0,2423.0,,,,2.02909127230547,-3.13476778144732,-1.64168866047717,,-2.188860990283021,,
,7601.0,1694.0,8487.0,1910.0,1746.0,2599.0,2420.0,,,,2.02885849396011,-3.13423899037182,-1.64150443337565,,-2.28193650027254,,
,7598.0,1690.0,8487.0,1907.0,1757.0,2586.0,2401.0,,,,2.02862001637107,-3.13384348008649,-1.64116615288584,,-2.3601428774013242,,
,7595.0,1690.0,8489.0,1909.0,1758.0,2588.0,2398.0,,,,2.0290987589168,-3.13448297074758,-1.64101070165885,,-2.4276799808652467,,
,7596.0,1692.0,8490.0,1907.0,1772.0,2623.0,2399.0,,,,2.0286009589233,-3.13440125302977,-1.64197657011391,,-2.488156529399925,,
,7595.0,1692.0,8489.0,1909.0,1777.0,2607.0,2393.0,,,,2.02745152671937,-3.13485012506646,-1.64141351367056,,-2.544512556655912,,
,7592.0,1692.0,8488.0,1907.0,1766.0,2590.0,2374.0,,,,2.02785725892446,-3.13428808313685,-1.64126377072388,,-2.5989692324708593,,
,7591.0,1693.0,8490.0,1907.0,1763.0,2608.0,2410.0,,,,2.02867424230065,-3.13449183273535,-1.64132951945223,,-2.6530081527167027,,
,7591.0,1694.0,8492.0,1908.0,1770.0,2590.0,2392.0,,,,2.02861242383797,-3.13473684832756,-1.64159658924279,,-2.7073825927221193,,
,7594.0,1692.0,8490.0,1910.0,1756.0,2596.0,2399.0,,,,2.02778395526892,-3.13438855622914,-1.64190966309893,,-2.76216294679454,,
,7593.0,1692.0,8491.0,1910.0,1771.0,2588.0,2401.0,,,,2.02826932917195,-3.13397075216989,-1.64127386114303,,-2.816817809692971,,
,7595.0,1692.0,8493.0,1909.0,1770.0,2613.0,2406.0,,,,2.02905082581124,-3.1340391372929,-1.64145220964393,,-2.870330892665981,,
,7599.0,1695.0,8496.0,1911.0,1751.0,2618.0,2395.0,,,,2.02874053979353,-3.13395247230612,-1.64143530846169,,-2.9213519728745854,,
,7606.0,1696.0,8495.0,1913.0,1766.0,2600.0,2397.0,,,,2.02968102143411,-3.13420739646605,-1.64067003545425,,-2.9683770125967506,,
,7606.0,1696.0,8498.0,1915.0,1771.0,2599.0,2405.0,,,,2.02922411858738,-3.13378585030306,-1.64134114978361,,-3.0099482166688882,,
,7604.0,1697.0,8496.0,1914.0,1757.0,2590.0,2395.0,,,,2.0293787190149,-3.13390211426624,-1.64125846435015,,-3.044859237348633,,
,7611.0,1696.0,8500.0,1915.0,1757.0,2607.0,2401.0,,,,2.02929130257303,-3.13406327342877,-1.641274502833,,-3.0723448196238787,,
,7614.0,1701.0,8498.0,1917.0,1764.0,2615.0,2400.0,,,,2.02935038679923,-3.13348891038931,-1.63978753302986,,-3.0922297036893154,,
,7619.0,1699.0,8500.0,1918.0,1758.0,2602.0,2381.0,,,,2.02852067625078,-3.13379519370238,-1.64029095159111,,-3.105010808000163,,
,7621.0,1702.0,8501.0,1920.0,1747.0,2609.0,2383.0,,,,2.03011412573575,-3.1343850208491,-1.64128771766294,,-3.111851019731465,,
,7627.0,1705.0,8502.0,1922.0,1742.0,2607.0,2391.0,,,,2.02888479128171,-3.13356866087146,-1.64107580342985,,-3.1144720027015356,,
,7634.0,1705.0,8503.0,1926.0,1764.0,2580.0,2409.0,,,,2.02918101899539,-3.13407162103406,-1.64185659940414,,-3.1149455854100108,,
,7639.0,1708.0,8505.0,1926.0,1767.0,2582.0,2420.0,,,,2.0298194531803,-3.13380727112693,-1.64132756501969,,-3.1153964144286386,,
,7643.0,1708.0,8506.0,1927.0,1761.0,2589.0,2417.0,,,,2.02919771514258,-3.13399010491277,-1.64096402816937,,-3.117640809694508,,
,7646.0,1709.0,8506.0,1929.0,1748.0,2577.0,2399.0,,,,2.02881028206618,-3.13354701006986,-1.64113983155781,,-3.1227966241516616,,
,7651.0,1712.0,8507.0,1932.0,1745.0,2585.0,2406.0,,,,2.02835759165823,-3.13382011829923,-1.64157223508103,,-3.1309051361754086,,
,7660.0,1713.0,8509.0,1934.0,1759.0,2604.0,2395.0,,,,2.02934016372863,-3.13407155810579,-1.64146992493218,,-3.1406077561863746,,
,7663.0,1714.0,8511.0,1935.0,1760.0,2612.0,2392.0,,,,2.02954198976893,-3.13378188066699,-1.64100248628592,,-3.1489174785930376,,
,7666.0,1715.0,8508.0,1935.0,1751.0,2615.0,2394.0,,,,2.02881042475814,-3.13392050851983,-1.64166885869173,,-3.151118144808756,,
,7670.0,1717.0,8507.0,1937.0,1763.0,2605.0,2385.0,,,,2.02909054068072,-3.13348767336018,-1.64191720831854,,-3.140814664425121,,
,7675.0,1720.0,8513.0,1940.0,1758.0,2575.0,2399.0,,,,2.02924570821887,-3.13369263623557,-1.64117093456148,,-3.1101453214129164,,
,7681.0,1720.0,8513.0,1943.0,1759.0,2588.0,2413.0,,,,2.02812885854271,-3.13382652928867,-1.64092810905932,,-3.0501539601487555,,
,7683.0,1720.0,8515.0,1941.0,1755.0,2611.0,2390.0,,,,2.02942968454706,-3.13325784669647,-1.64155690235897,,-2.9513058991197183,,
,7690.0,1723.0,8514.0,1942.0,1768.0,2607.0,2397.0,,,,2.03010410551458,-3.13320772062158,-1.6413878742579,,-2.804117637340273,,
,7696.0,1726.0,8515.0,1946.0,1762.0,2617.0,2388.0,,,,2.02985793064925,-3.13352540382494,-1.64046445073418,,-2.5998578303072537,,
,7696.0,1728.0,8515.0,1947.0,1760.0,2612.0,2383.0,,,,2.02994687647651,-3.13366260799725,-1.64192211656361,,-2.3312670161572266,,
,7701.0,1728.0,8516.0,1950.0,1749.0,2607.0,2387.0,,,,2.02870010890244,-3.13367356792302,-1.6413102903233,,-1.9932380062714337,,
,7706.0,1729.0,8515.0,1949.0,1750.0,2616.0,2402.0,,,,2.0289296718103,-3.13446974995123,-1.6419598080325,,-1.58339976750735,,
,7711.0,1729.0,8515.0,1948.0,1749.0,2597.0,2405.0,,,,2.02826293689636,-3.13382178257678,-1.6409534403605,,-1.1025562367081672,,
,7715.0,1731.0,8518.0,1952.0,1760.0,2585.0,2385.0,,,,2.02765550432709,-3.13359221629132,-1.64118230422932,,-0.5549467196660066,,
,7719.0,1730.0,8517.0,1952.0,1760.0,2599.0,2387.0,,,,2.02922076990827,-3.13398257811942,-1.64167771412763,,0.05168739194163152,,
,7720.0,1734.0,8517.0,1951.0,1751.0,2593.0,2372.0,,,,2.02883173451993,-3.13426530256489,-1.64106236026213,,0.706228475005652,,
,7726.0,1734.0,8517.0,1954.0,1746.0,2610.0,2389.0,,,,2.02795894646654,-3.13445458403374,-1.64083188489743,,1.39448835656936,,
,7728.0,1733.0,8519.0,1958.0,1760.0,2613.0,2414.0,,,,2.02787210166382,-3.13372710488615,-1.64140043508311,,2.0996747143016448,,
,7732.0,1735.0,8524.0,1956.0,1762.0,2610.0,2412.0,,,,2.02826548069711,-3.1342641123973,-1.64114642566493,,2.8029966130530775,,
,7737.0,1738.0,8518.0,1959.0,1755.0,2613.0,2410.0,,,,2.02886732908454,-3.13413768723506,-1.64120781592845,,3.484386806712109,,
,7739.0,1740.0,8521.0,1960.0,1754.0,2598.0,2387.0,,,,2.0284281181616,-3.13252890075822,-1.6420835676162,,4.123317145582146,,
,7742.0,1740.0,8523.0,1962.0,1761.0,2600.0,2405.0,,,,2.02844736835933,-3.13333110462807,-1.64120986624793,,4.699680060148897,,
,7746.0,1740.0,8520.0,1962.0,1752.0,2616.0,2403.0,,,,2.02932228176467,-3.13384387668602,-1.64169048793607,,5.194703099058499,,
,7749.0,1741.0,8523.0,1963.0,1763.0,2617.0,2390.0,,,,2.02849673036313,-3.13328474489875,-1.64123152441984,,5.59185551641146,,
,7752.0,1743.0,8525.0,1963.0,1747.0,2599.0,2387.0,,,,2.03001228060954,-3.13319204283573,-1.64102975911217,,5.877697566012859,,
,7759.0,1744.0,8525.0,1965.0,1741.0,2582.0,2401.0,,,,2.0287808685212,-3.13316240979551,-1.64146917866342,,6.042616746261472,,
,7760.0,1743.0,8524.0,1966.0,1754.0,2578.0,2385.0,,,,2.02936364957094,-3.13319090224356,-1.64215697163772,,6.081393179593978,,
,7764.0,1748.0,8527.0,1965.0,1743.0,2560.0,2375.0,,,,2.0293752939153,-3.13346652445571,-1.64151207858046,,5.993540585892884,,
,7767.0,1748.0,8526.0,1967.0,1741.0,2571.0,2399.0,,,,2.02935343258342,-3.13367072144971,-1.64145294455084,,5.783380973024059,,
,7772.0,1748.0,8528.0,1969.0,1750.0,2576.0,2379.0,,,,2.02920284112815,-3.13357265558782,-1.64102718643462,,5.4598301788116,,
,7778.0,1751.0,8528.0,1969.0,1758.0,2592.0,2391.0,,,,2.02991787280076,-3.13285215602023,-1.64096664772278,,5.035896565106234,,
,7778.0,1748.0,8530.0,1972.0,1754.0,2591.0,2392.0,,,,2.02856051998815,-3.13338742213616,-1.64129649574321,,4.527923878858879,,
,7781.0,1751.0,8527.0,1971.0,1751.0,2578.0,2419.0,,,,2.0297203593701,-3.13390695119009,-1.64143460725366,,3.954637240150456,,
,7785.0,1752.0,8527.0,1972.0,1750.0,2593.0,2388.0,,,,2.02931797205066,-3.13276950613377,-1.64110235345849,,3.3360728756026643,,
,7787.0,1757.0,8529.0,1975.0,1765.0,2595.0,2403.0,,,,2.02935830235621,-3.13350754826574,-1.64133689164107,,2.6924828050045786,,
,7794.0,1754.0,8530.0,1976.0,1770.0,2597.0,2404.0,,,,2.03005820323984,-3.13368577019168,-1.6397783318094,,2.04330349172877,,
,7796.0,1758.0,8531.0,1976.0,1750.0,2564.0,2396.0,,,,2.02932156828888,-3.13321297040169,-1.64221210739928,,1.4062643623210693,,
,7803.0,1757.0,8531.0,1977.0,1727.0,2562.0,2408.0,,,,2.02985581748216,-3.13301391579583,-1.64082941184466,,0.7966918290213025,,
,7804.0,1758.0,8532.0,1979.0,1735.0,2599.0,2380.0,,,,2.02992015152088,-3.13303218573556,-1.64170130625281,,0.2270406748501671,,
,7814.0,1763.0,8535.0,1982.0,1741.0,2606.0,2384.0,,,,2.03067117317497,-3.1325475712383,-1.64160326239194,,-0.29333961057038255,,
2025-07-29 18:30:26,7813.0,1765.0,8532.0,1983.0,1733.0,2599.0,2395.0,,,2025/07/29 06:30:26 PM,2.03172142116875,-3.13236999202861,-1.6409761717091,,-0.7582182012871399,,
,7821.0,1764.0,8532.0,1982.0,1741.0,2605.0,2399.0,,,,2.0317169295806,-3.132307722881,-1.64055781677658,,-1.1643088428727988,,
,7826.0,1767.0,8530.0,1983.0,1750.0,2580.0,2376.0,,,,2.03089607610308,-3.13319109990131,-1.64266414785587,,-1.5109538210270768,,
,7830.0,1766.0,8535.0,1985.0,1750.0,2604.0,2393.0,,,,2.0308356162644,-3.1331950649133,-1.64046308982678,,-1.7997179838428563,,
,7832.0,1770.0,8536.0,1990.0,1748.0,2611.0,2408.0,,,,2.03041287381857,-3.13252767429688,-1.64154151106932,,-2.033944918362765,,
,7835.0,1767.0,8536.0,1987.0,1755.0,2613.0,2401.0,,,,2.03028209521066,-3.13295469471,-1.64132434317531,,-2.21832143675706,,
,7839.0,1770.0,8537.0,1993.0,1752.0,2631.0,2411.0,,,,2.02973827345194,-3.13373305047784,-1.64150351960147,,-2.358485212996638,,
,7842.0,1774.0,8536.0,1990.0,1747.0,2591.0,2397.0,,,,2.02884454967554,-3.13360613476322,-1.64165202514507,,-2.4606950440357487,,
,7843.0,1774.0,8538.0,1991.0,1743.0,2572.0,2398.0,,,,2.0279553309097,-3.13354803830125,-1.64053265028796,,-2.5315661793054547,,
,7831.0,1770.0,8535.0,1990.0,1769.0,2565.0,2433.0,,,,2.02672264706022,-3.13416352481635,-1.64109737196077,,-2.5778578139539015,,
,7818.0,1769.0,8535.0,1982.0,1748.0,2578.0,2412.0,,,,2.02466177992419,-3.13476680016741,-1.64158031246785,,-2.606289395143342,,
,7803.0,1765.0,8533.0,1977.0,1745.0,2602.0,2414.0,,,,2.02510870660391,-3.13424463913003,-1.64093563385179,,-2.623358641339333,,
,7780.0,1759.0,8531.0,1971.0,1747.0,2610.0,2415.0,,,,2.02399686899317,-3.1351452684615,-1.64169329211254,,-2.6351370984470037,,
,7757.0,1752.0,8521.0,1961.0,1750.0,2586.0,2404.0,,,,2.0244950056799,-3.13551017118291,-1.64147285677558,,-2.647027419957157,,
,7735.0,1743.0,8518.0,1954.0,1734.0,2563.0,2399.0,,,,2.02362656424825,-3.13600521574997,-1.64113818530104,,-2.6634786136610624,,
,7710.0,1737.0,8511.0,1944.0,1731.0,2588.0,2406.0,,,,2.02323883742823,-3.13574028822439,-1.64139787445652,,-2.6876691827445756,,
,7692.0,1730.0,8507.0,1936.0,1749.0,2595.0,2400.0,,,,2.02379601208343,-3.13605762452704,-1.64196510779745,,-2.7211810812873445,,
,7668.0,1725.0,8501.0,1928.0,1753.0,2581.0,2422.0,,,,2.02429959724357,-3.13583666130973,-1.64170549663384,,-2.763697550888277,,
,7649.0,1716.0,8492.0,1921.0,1752.0,2606.0,2394.0,,,,2.02454237446662,-3.13564320360224,-1.6411243706631,,-2.812763838779977,,
,7629.0,1712.0,8487.0,1914.0,1744.0,2600.0,2389.0,,,,2.02447340074369,-3.13594162335325,-1.64161264959671,,-2.863651117818867,,
,7615.0,1708.0,8478.0,1910.0,1744.0,2612.0,2386.0,,,,2.02470266701081,-3.1353407056923,-1.64144502442892,,-2.9093607918972486,,
,7601.0,1702.0,8472.0,1906.0,1742.0,2627.0,2389.0,,,,2.02663896597035,-3.13579775917016,-1.64133419654793,,-2.9407989166512345,,
,7587.0,1695.0,8470.0,1902.0,1742.0,2611.0,2382.0,,,,2.02482767348489,-3.1356244908492,-1.64117761405049,,-2.9471385774305876,,
,7585.0,1694.0,8472.0,1901.0,1744.0,2624.0,2402.0,,,,2.02578835833489,-3.13482413028408,-1.64125788808562,,-2.9163716594102453,,
,7578.0,1692.0,8470.0,1899.0,1757.0,2620.0,2396.0,,,,2.02681152408173,-3.13474496246026,-1.64082760573877,,-2.836031095408947,,
,7570.0,1689.0,8466.0,1895.0,1758.0,2625.0,2387.0,,,,2.02704180270861,-3.13509185006892,-1.64078279405089,,-2.694042216826902,,
,7567.0,1687.0,8473.0,1895.0,1761.0,2578.0,2379.0,,,,2.02779274229678,-3.13400764816436,-1.64150280823763,,-2.4796406418830816,,
,7565.0,1685.0,8470.0,1894.0,1771.0,2596.0,2385.0,,,,2.02707749801454,-3.13490103401033,-1.64134311484074,,-2.184278834672076,,
,7561.0,1687.0,8475.0,1895.0,1765.0,2613.0,2378.0,,,,2.02790298399808,-3.13492864515919,-1.64126805630217,,-1.8024385620558037,,
,7560.0,1686.0,8475.0,1897.0,1762.0,2603.0,2381.0,,,,2.02903970948384,-3.13442354161487,-1.63997907075902,,-1.3322742194723072,,
,7562.0,1686.0,8481.0,1897.0,1776.0,2618.0,2395.0,,,,2.02852455442024,-3.13359282899796,-1.64030640792935,,-0.7760310118572642,,
,7563.0,1684.0,8477.0,1897.0,1782.0,2619.0,2384.0,,,,2.02758221612265,-3.13487847649571,-1.64074212900215,,-0.14020780452987855,,
,7566.0,1686.0,8479.0,1900.0,1777.0,2610.0,2364.0,,,,2.02855127168284,-3.13390627419114,-1.64041259096972,,0.5645384536820215,,
,7566.0,1688.0,8484.0,1899.0,1765.0,2615.0,2380.0,,,,2.03009093333931,-3.13456090074274,-1.64078055520177,,1.3237262366471438,,
,7567.0,1687.0,8485.0,1902.0,1772.0,2600.0,2390.0,,,,2.02890416626444,-3.13522601792231,-1.63993088674672,,2.1195833836109457,,
,7567.0,1686.0,8486.0,1899.0,1776.0,2628.0,2379.0,,,,2.02930104847633,-3.13383859936492,-1.64097785876806,,2.931735105412652,,
,7569.0,1688.0,8487.0,1901.0,1755.0,2614.0,2406.0,,,,2.02875236936337,-3.13438473905096,-1.64026534659453,,3.737998884260182,,
,7571.0,1689.0,8491.0,1905.0,1760.0,2587.0,2397.0,,,,2.03042901472079,-3.13340021310233,-1.64076373169872,,4.515244636641357,,
,7572.0,1689.0,8488.0,1906.0,1758.0,2587.0,2402.0,,,,2.02952259503956,-3.13469587473919,-1.64073255688807,,5.240287204280228,,
,7570.0,1689.0,8491.0,1906.0,1771.0,2607.0,2397.0,,,,2.03025019254983,-3.13388640390395,-1.64046688936871,,5.890786521937095,,
,7575.0,1691.0,8493.0,1906.0,1766.0,2603.0,2406.0,,,,2.02923197921043,-3.13429798423495,-1.64066932896851,,6.446135879941124,,
,7579.0,1693.0,8497.0,1910.0,1759.0,2577.0,2403.0,,,,2.02957190048055,-3.13406282395262,-1.64066817670403,,6.888319092693078,,
,7581.0,1692.0,8496.0,1909.0,1769.0,2578.0,2412.0,,,,2.02919135661197,-3.13455832707672,-1.64088819804076,,7.202713006720619,,
,7582.0,1691.0,8494.0,1908.0,1765.0,2603.0,2408.0,,,,2.02820369830209,-3.1341455458985,-1.64012867598715,,7.378803669748698,,
,7583.0,1691.0,8495.0,1912.0,1771.0,2587.0,2415.0,,,,2.02871967616958,-3.13473931322012,-1.64004325444643,,7.410774589921538,,
,7586.0,1692.0,8499.0,1913.0,1773.0,2583.0,2411.0,,,,2.0288974005201,-3.13405552174242,-1.64038512125904,,7.2979167805062,,
,7590.0,1696.0,8501.0,1913.0,1775.0,2570.0,2404.0,,,,2.02860024090651,-3.13468992394558,-1.64074103890348,,7.0448067578409805,,
,7586.0,1693.0,8501.0,1913.0,1758.0,2589.0,2399.0,,,,2.02796483100723,-3.13418716735747,-1.64062141298973,,6.661204844097672,,
,7587.0,1694.0,8499.0,1911.0,1757.0,2577.0,2403.0,,,,2.02690283254648,-3.133817244952,-1.64146598935874,,6.161645120467418,,
,7586.0,1696.0,8502.0,1914.0,1757.0,2592.0,2419.0,,,,2.02865848477635,-3.13488238290892,-1.64080196956384,,5.5647194890323215,,
,7589.0,1694.0,8501.0,1914.0,1755.0,2613.0,2420.0,,,,2.0280014422154,-3.13513412854171,-1.64144541563279,,4.892095754209281,,
,7585.0,1694.0,8501.0,1914.0,1754.0,2605.0,2404.0,,,,2.02873636789029,-3.13457761534728,-1.64115431115233,,4.167344103985589,,
,7584.0,1692.0,8502.0,1912.0,1760.0,2600.0,2414.0,,,,2.02936159194085,-3.13440027533569,-1.64103284194454,,3.414669215276197,,
,7583.0,1694.0,8498.0,1913.0,1752.0,2591.0,2407.0,,,,2.02892982340415,-3.13402349194278,-1.64123427668236,,2.657652279569608,,
,7580.0,1694.0,8500.0,1911.0,1739.0,2587.0,2395.0,,,,2.030638821273,-3.1340101854806,-1.64064087280585,,1.9180994798697468,,
,7580.0,1694.0,8502.0,1912.0,1738.0,2600.0,2418.0,,,,2.02989425036223,-3.13318126186153,-1.64113685262801,,1.2150748802480493,,
,7580.0,1692.0,8502.0,1912.0,1739.0,2581.0,2429.0,,,,2.03104572336962,-3.13392130381693,-1.64088318957534,,0.5641712462108339,,
,7575.0,1690.0,8499.0,1909.0,1744.0,2583.0,2414.0,,,,2.0321954001301,-3.13313451703784,-1.6402456932827,,-0.022953504794201437,,
,7578.0,1693.0,8503.0,1912.0,1748.0,2582.0,2405.0,,,,2.03102523598843,-3.13268235044718,-1.64074157668171,,-0.5387702883736768,,
,7575.0,1693.0,8503.0,1911.0,1738.0,2596.0,2399.0,,,,2.03161201834974,-3.13386898399272,-1.64048757270391,,-0.9798188486844013,,
,7576.0,1692.0,8500.0,1911.0,1727.0,2589.0,2404.0,,,,2.0322570328641,-3.13347229844002,-1.64037131016498,,-1.3464235351238767,,
,7572.0,1691.0,8501.0,1911.0,1749.0,2593.0,2400.0,,,,2.03355413633506,-3.1332246166606,-1.63986712718197,,-1.6422236187630395,,
,7572.0,1691.0,8503.0,1911.0,1764.0,2576.0,2395.0,,,,2.03343770346314,-3.13218429589056,-1.64145001695426,,-1.8735619177289153,,
,7576.0,1695.0,8503.0,1912.0,1749.0,2572.0,2402.0,,,,2.03315219216408,-3.13250920778721,-1.64040351780182,,-2.0487781910418095,,
,7577.0,1692.0,8503.0,1910.0,1749.0,2568.0,2401.0,,,,2.03444135618437,-3.13237109530478,-1.64063859626416,,-2.1774550683247837,,
,7579.0,1692.0,8504.0,1911.0,1744.0,2585.0,2389.0,,,,2.03376239232493,-3.13323743591921,-1.64009196774484,,-2.2696639811102126,,
,7582.0,1695.0,8503.0,1913.0,1748.0,2603.0,2398.0,,,,2.03319524093231,-3.13251508431645,-1.64021582150019,,-2.3352559432079,,
,7583.0,1694.0,8505.0,1915.0,1740.0,2590.0,2408.0,,,,2.03391152403153,-3.13189235921721,-1.64018189943752,,-2.383236812980019,,
,7588.0,1695.0,8507.0,1918.0,1742.0,2591.0,2396.0,,,,2.03513560087842,-3.13242708416046,-1.63954883939554,,-2.421259247017524,,
,7588.0,1699.0,8508.0,1916.0,1744.0,2600.0,2387.0,,,,2.03392923081295,-3.13159922320834,-1.64049134878437,,-2.455254648503617,,
,7593.0,1703.0,8511.0,1920.0,1736.0,2614.0,2383.0,,,,2.03387051556143,-3.13210941665291,-1.64049837548439,,-2.4892187352951898,,
,7598.0,1700.0,8511.0,1921.0,1741.0,2596.0,2383.0,,,,2.03504516321045,-3.13252579419421,-1.64049254257524,,-2.5251544928013816,,
,7605.0,1702.0,8512.0,1926.0,1741.0,2590.0,2403.0,,,,2.03447368201838,-3.1322034957902,-1.64012710521641,,-2.563166756286464,,
,7606.0,1705.0,8512.0,1924.0,1738.0,2569.0,2403.0,,,,2.03453005813466,-3.13230589029605,-1.64095830758545,,-2.6016939677905992,,
,7610.0,1706.0,8514.0,1927.0,1747.0,2569.0,2385.0,,,,2.03496205876088,-3.13238139487618,-1.64029381851781,,-2.63785517873524,,
,7615.0,1705.0,8514.0,1929.0,1730.0,2582.0,2387.0,,,,2.03525462834544,-3.1327810523253,-1.63953721402667,,-2.667884383764862,,
,7621.0,1707.0,8516.0,1931.0,1748.0,2570.0,2398.0,,,,2.03526738100908,-3.13269736472625,-1.63979578313105,,-2.6876198281849475,,
,7625.0,1707.0,8514.0,1931.0,1745.0,2579.0,2398.0,,,,2.03500108466357,-3.13246755197667,-1.639273996157,,-2.6930128586605164,,
,7627.0,1711.0,8516.0,1931.0,1752.0,2587.0,2381.0,,,,2.03431345144121,-3.13212738876721,-1.64014803723376,,-2.680618924752499,,
,7634.0,1709.0,8517.0,1934.0,1752.0,2614.0,2370.0,,,,2.03476461702209,-3.13244863447319,-1.63972361179143,,-2.6480324161036948,,
,7638.0,1713.0,8520.0,1935.0,1760.0,2601.0,2398.0,,,,2.03430061255254,-3.13239945465453,-1.63941328469902,,-2.594227507117307,,
,7643.0,1715.0,8520.0,1936.0,1759.0,2621.0,2389.0,,,,2.03459504273807,-3.1327084079325,-1.63990776628688,,-2.5197700100943674,,
,7647.0,1713.0,8519.0,1938.0,1744.0,2613.0,2384.0,,,,2.03422499699545,-3.13284317234961,-1.64035652130508,,-2.426871882937417,,
,7651.0,1720.0,8521.0,1938.0,1773.0,2592.0,2378.0,,,,2.0345576297194,-3.13257508796143,-1.64043490465224,,-2.3192721913775896,,
,7658.0,1718.0,8520.0,1944.0,1749.0,2593.0,2393.0,,,,2.03478599264453,-3.13262647887136,-1.64006648150887,,-2.201946936155091,,
,7658.0,1722.0,8525.0,1942.0,1745.0,2575.0,2395.0,,,,2.03384082728927,-3.13227372807818,-1.63990541584669,,-2.0806738519579997,,
,7664.0,1719.0,8523.0,1944.0,1756.0,2571.0,2383.0,,,,2.03340357064386,-3.13252646777023,-1.63907013874059,,-1.9615022885264868,,
,7668.0,1722.0,8522.0,1946.0,1735.0,2579.0,2388.0,,,,2.033801346641,-3.13284412585768,-1.64074009397974,,-1.8501956094051017,,
,7674.0,1726.0,8526.0,1947.0,1746.0,2589.0,2418.0,,,,2.03309422524711,-3.13327058199294,-1.64002821665786,,-1.7517186301341219,,
,7677.0,1725.0,8524.0,1949.0,1750.0,2598.0,2414.0,,,,2.03257114151556,-3.13328460381025,-1.64072967829396,,-1.6698344498388533,,
,7680.0,1728.0,8527.0,1950.0,1764.0,2582.0,2385.0,,,,2.0315248580953,-3.13248322015994,-1.63999389721648,,-1.606856915450803,,
,7680.0,1728.0,8523.0,1949.0,1742.0,2590.0,2383.0,,,,2.03280049992932,-3.13354538803853,-1.63984798141994,,-1.5635818237740067,,
,7691.0,1730.0,8527.0,1952.0,1762.0,2596.0,2405.0,,,,2.03268543061399,-3.13311830737044,-1.64027919479219,,-1.53939602299891,,
,7689.0,1730.0,8527.0,1954.0,1770.0,2626.0,2390.0,,,,2.03275662374221,-3.13316186090178,-1.63964338555803,,-1.5325416664194462,,
,7692.0,1730.0,8527.0,1955.0,1778.0,2628.0,2415.0,,,,2.03242094593,-3.1334478636135,-1.64030265609137,,-1.5404949782657344,,
,7694.0,1730.0,8527.0,1952.0,1737.0,2552.0,2415.0,,,,2.03219485327438,-3.13388372859305,-1.63984976479993,,-1.5604067342045,,
,7699.0,1732.0,8527.0,1953.0,1731.0,2556.0,2395.0,,,,2.03139853405969,-3.13303998248253,-1.64152424642845,,-1.589546613082819,,
,7703.0,1735.0,8528.0,1956.0,1746.0,2571.0,2399.0,,,,2.03157051792725,-3.1330604807651,-1.64057654550009,,-1.6256959226839711,,
,7708.0,1736.0,8531.0,1958.0,1745.0,2573.0,2398.0,,,,2.03197881338985,-3.13313204520988,-1.64025840733284,,-1.6674416748797345,,
,7709.0,1737.0,8530.0,1959.0,1738.0,2607.0,2380.0,,,,2.03155588076999,-3.13240540459151,-1.63995860018548,,-1.7143374177003234,,
,7711.0,1737.0,8529.0,1958.0,1741.0,2595.0,2394.0,,,,2.03235928091724,-3.13330302370226,-1.64015188853906,,-1.7669107170508267,,
,7716.0,1739.0,8535.0,1960.0,1738.0,2623.0,2424.0,,,,2.0314404114593,-3.13333637393599,-1.6402469080793,,-1.8265125844793473,,
,7718.0,1741.0,8534.0,1961.0,1749.0,2620.0,2441.0,,,,2.03228670025176,-3.133409893947,-1.64103204046541,,-1.8950197641418878,,
,7724.0,1741.0,8532.0,1964.0,1760.0,2627.0,2417.0,,,,2.03057075672387,-3.13354791819557,-1.64124423527784,,-1.9744157996103497,,
,7723.0,1742.0,8534.0,1964.0,1741.0,2613.0,2426.0,,,,2.03161666290592,-3.13368985989404,-1.64069406241511,,-2.0662900192762548,,
,7733.0,1745.0,8536.0,1964.0,1738.0,2589.0,2424.0,,,,2.03135625338064,-3.13287810102497,-1.64094791349162,,-2.171303639527586,,
,7734.0,1746.0,8538.0,1967.0,1756.0,2587.0,2417.0,,,,2.03174273482221,-3.13265336398626,-1.64112529146773,,-2.288677933472819,,
,7741.0,1749.0,8535.0,1967.0,1752.0,2576.0,2424.0,,,,2.03247469753321,-3.13311498575499,-1.64063670818778,,-2.4157601806369473,,
,7737.0,1749.0,8537.0,1967.0,1745.0,2608.0,2419.0,,,,2.03293096704822,-3.13314571121952,-1.64208383974639,,-2.547718676906301,,
,7743.0,1747.0,8537.0,1971.0,1746.0,2602.0,2386.0,,,,2.03216864609196,-3.13247826396008,-1.6415118688215,,-2.677408589791549,,
,7749.0,1752.0,8541.0,1970.0,1739.0,2593.0,2372.0,,,,2.03294118852688,-3.13381072263762,-1.64111404388421,,-2.7954366066885985,,
,7751.0,1753.0,8535.0,1970.0,1733.0,2580.0,2388.0,,,,2.03178482935705,-3.13225856728296,-1.64184416351905,,-2.890435673846526,,
,7755.0,1751.0,8536.0,1972.0,1739.0,2592.0,2400.0,,,,2.03220374391153,-3.13223801286925,-1.64113058627063,,-2.9495437272463323,,
,7761.0,1754.0,8537.0,1974.0,1739.0,2587.0,2392.0,,,,2.03264002967995,-3.13297819685991,-1.64038196600559,,-2.9590639574358386,,
,7764.0,1754.0,8541.0,1975.0,1749.0,2585.0,2391.0,,,,2.03323857725095,-3.13294399098497,-1.64086705871028,,-2.9052697409795973,,
,7764.0,1754.0,8541.0,1977.0,1753.0,2596.0,2381.0,,,,2.03292430898604,-3.13303614085361,-1.64064812456289,,-2.7753051884627773,,
,7768.0,1756.0,8543.0,1975.0,1762.0,2617.0,2397.0,,,,2.03330500605749,-3.13237470582294,-1.63976078735261,,-2.5581226775006933,,
,7773.0,1759.0,8542.0,1976.0,1763.0,2647.0,2389.0,,,,2.03313445165517,-3.13266619452484,-1.6407324164877,,-2.245392657268114,,
,7779.0,1761.0,8542.0,1980.0,1769.0,2609.0,2383.0,,,,2.03278258249215,-3.13244354448213,-1.64053356867966,,-1.8323196093068326,,
,7783.0,1761.0,8543.0,1979.0,1753.0,2604.0,2390.0,,,,2.03331375989055,-3.13301601091611,-1.64021067320629,,-1.3183021945817919,,
,7786.0,1763.0,8545.0,1982.0,1749.0,2609.0,2383.0,,,,2.03279937428265,-3.13240143532143,-1.64120157088376,,-0.707385381091007,,
,7789.0,1764.0,8544.0,1981.0,1758.0,2601.0,2388.0,,,,2.03205532820108,-3.1324757072956,-1.64049973325693,,-0.008466817056256567,,
,7796.0,1767.0,8544.0,1983.0,1747.0,2593.0,2389.0,,,,2.03296407483817,-3.13307302650451,-1.63944084233355,,0.7647629471693106,,
,7802.0,1770.0,8544.0,1987.0,1765.0,2597.0,2381.0,,,,2.03265556341993,-3.13298352860142,-1.64110188696535,,1.5941490364236952,,
,7804.0,1767.0,8544.0,1988.0,1769.0,2590.0,2385.0,,,,2.03257862155425,-3.13222667537635,-1.63975020889964,,2.4576565794325544,,
