TimeLabel,MEAS1_PPG1,MEAS1_PPG2,MEAS1_PPG3,MEAS1_PPG4,ACCX,ACCY,ACCZ,HR_timestamp,HR_value,radar_timestamp,phase_rx0,phase_rx1,phase_rx2,timestep,n_process,original_rate,calculated_rate
2025-07-03 21:58:53,4659.0,336.0,3644.0,817.0,4.0,1422.0,3685.0,2025-07-03 21:58:53,78.0,2025/07/03 09:58:53 PM,-0.690299689107927,-2.9203351930609,-1.1209875247524,2025/07/03 09:58:53 PM,-1.6058765884953956,19.494585037231445,20.04408320705332
,4660.0,334.0,3644.0,817.0,9.0,1419.0,3682.0,2025-07-03 21:58:54,78.0,,-0.690337763458092,-2.92043237285985,-1.12017602550578,2025/07/03 09:59:03 PM,-1.6396791638367683,19.89683151245117,20.189393939393934
,4660.0,333.0,3644.0,817.0,30.0,1395.0,3700.0,2025-07-03 21:58:55,77.0,,-0.690475972131062,-2.92043728182137,-1.1204509343695,2025/07/03 09:59:13 PM,-1.6659260208312732,20.22926521301269,20.58076225045372
,4661.0,333.0,3646.0,816.0,29.0,1409.0,3692.0,2025-07-03 21:58:56,77.0,,-0.690929531174903,-2.92030152291313,-1.12003469175646,2025/07/03 09:59:23 PM,-1.680034399460556,20.50113868713379,19.375000000000004
,4663.0,336.0,3651.0,816.0,27.0,1404.0,3691.0,2025-07-03 21:58:57,77.0,,-0.691493892329624,-2.92050786309939,-1.12171885770653,2025/07/03 09:59:33 PM,-1.677496162513331,19.940916061401367,20.835945663531856
,4665.0,335.0,3649.0,821.0,31.0,1404.0,3699.0,2025-07-03 21:58:58,77.0,,-0.692104161987344,-2.92055883962216,-1.12079512204374,2025/07/03 09:59:43 PM,-1.6542187261592491,20.053476333618164,20.98410210479178
,4666.0,337.0,3649.0,818.0,25.0,1411.0,3702.0,2025-07-03 21:58:59,77.0,,-0.692509526252133,-2.92073959109534,-1.12259006930129,2025/07/03 09:59:53 PM,-1.6068226270690704,20.300752639770508,21.177944862155385
,4666.0,337.0,3652.0,819.0,22.0,1412.0,3734.0,2025-07-03 21:59:00,77.0,,-0.693041237784309,-2.92069361323354,-1.12216607955944,2025/07/03 10:00:03 PM,-1.532867300849595,21.06741714477539,21.25357693154301
,4671.0,333.0,3653.0,821.0,30.0,1403.0,3698.0,2025-07-03 21:59:01,77.0,,-0.693650065291761,-2.92081007589866,-1.12318492266616,2025/07/03 10:00:13 PM,-1.4309855742033224,21.08222007751465,21.091617933723207
,4670.0,337.0,3653.0,821.0,3.0,1395.0,3698.0,2025-07-03 21:59:02,77.0,,-0.694311285757133,-2.92098685499347,-1.12444806628497,2025/07/03 10:00:23 PM,-1.3009183426769917,21.246458053588867,21.99346405228757
,4672.0,335.0,3659.0,824.0,11.0,1391.0,3685.0,2025-07-03 21:59:03,77.0,,-0.694639000560703,-2.92089559474162,-1.12418243687048,2025/07/03 10:00:33 PM,-1.1434529847599209,21.32196044921875,20.956937799043075
,4671.0,336.0,3654.0,822.0,24.0,1412.0,3680.0,2025-07-03 21:59:04,77.0,,-0.695153496239531,-2.92109190882428,-1.1241132116867,2025/07/03 10:00:43 PM,-0.9602808986925925,21.367521286010746,21.198710897255516
,4671.0,336.0,3656.0,823.0,23.0,1417.0,3658.0,2025-07-03 21:59:05,76.0,,-0.695524271574308,-2.92097154286074,-1.12474634625875,2025/07/03 10:00:53 PM,-0.7537995712290354,21.723388671875,21.56780840991369
,4671.0,336.0,3657.0,826.0,27.0,1402.0,3669.0,2025-07-03 21:59:06,76.0,,-0.695724645553554,-2.92114150428991,-1.12477344343212,2025/07/03 10:01:03 PM,-0.5268913182662838,21.26151657104492,22.863485016648166
,4669.0,335.0,3659.0,822.0,21.0,1400.0,3675.0,2025-07-03 21:59:07,75.0,,-0.695749713807563,-2.92094084401295,-1.12458427457993,2025/07/03 10:01:13 PM,-0.2827129892448364,21.94586753845215,22.670478368591528
,4668.0,337.0,3654.0,819.0,21.0,1403.0,3710.0,2025-07-03 21:59:08,75.0,,-0.695885267085496,-2.92112600122161,-1.12414408629522,2025/07/03 10:01:23 PM,-0.024527559776708813,22.556390762329105,22.66910392604068
,4665.0,338.0,3648.0,818.0,26.0,1411.0,3677.0,2025-07-03 21:59:09,75.0,,-0.695989158187961,-2.9212457149025,-1.12384937806647,2025/07/03 10:01:33 PM,0.24440047727957703,22.883295059204105,21.558441558441572
,4661.0,335.0,3642.0,812.0,37.0,1410.0,3704.0,2025-07-03 21:59:10,75.0,,-0.695924900474759,-2.92107950353736,-1.12494622921104,2025/07/03 10:01:43 PM,0.520837408319535,22.74293708801269,22.034646364338506
,4656.0,336.0,3637.0,812.0,44.0,1417.0,3733.0,2025-07-03 21:59:11,75.0,,-0.6955793730479,-2.92105895838715,-1.12545738349913,,0.8015467465872871,,
,4652.0,335.0,3632.0,810.0,35.0,1413.0,3720.0,2025-07-03 21:59:12,75.0,,-0.695780031212549,-2.9210689332838,-1.12518197283979,,1.0832092793072767,,
,4643.0,334.0,3626.0,805.0,29.0,1433.0,3724.0,2025-07-03 21:59:13,75.0,,-0.696274464771837,-2.9210943811366,-1.12594685409529,,1.3623242678511471,,
,4643.0,334.0,3623.0,805.0,35.0,1420.0,3702.0,2025-07-03 21:59:14,76.0,,-0.695674794642125,-2.92127533655356,-1.12543195375565,,1.6351215113186948,,
,4639.0,331.0,3617.0,805.0,30.0,1418.0,3697.0,2025-07-03 21:59:15,76.0,,-0.696151566797471,-2.921295479818,-1.12531993108472,,1.8975109147875753,,
,4636.0,334.0,3618.0,805.0,26.0,1414.0,3689.0,2025-07-03 21:59:16,76.0,,-0.696281857123757,-2.92115438185289,-1.12628435300246,,2.145089470662399,,
,4629.0,330.0,3613.0,800.0,24.0,1407.0,3687.0,2025-07-03 21:59:17,76.0,,-0.695949919741185,-2.9213005585617,-1.12451347021078,,2.373216601212039,,
,4629.0,333.0,3611.0,802.0,21.0,1419.0,3701.0,2025-07-03 21:59:18,75.0,,-0.695831481970758,-2.92116539133513,-1.12505516695617,,2.5771586376123636,,
,4625.0,336.0,3610.0,801.0,32.0,1425.0,3699.0,2025-07-03 21:59:19,75.0,,-0.695989079008939,-2.92123556944438,-1.12594900439904,,2.7522927485512603,,
,4625.0,332.0,3607.0,800.0,18.0,1431.0,3708.0,2025-07-03 21:59:20,75.0,,-0.696272213374126,-2.92128741944155,-1.12601445450789,,2.8943510466184783,,
,4623.0,332.0,3606.0,798.0,28.0,1417.0,3704.0,2025-07-03 21:59:21,74.0,,-0.695705712161737,-2.92115711797716,-1.12548468957225,,2.999678251968229,,
,4620.0,334.0,3605.0,799.0,23.0,1422.0,3698.0,2025-07-03 21:59:22,74.0,,-0.695916495164805,-2.92119491135914,-1.12564882357229,,3.0654724695115014,,
,4620.0,333.0,3603.0,800.0,21.0,1408.0,3670.0,2025-07-03 21:59:23,74.0,,-0.69611703129376,-2.92117795910184,-1.12540095723869,,3.0899793312521417,,
,4619.0,331.0,3603.0,799.0,21.0,1396.0,3674.0,2025-07-03 21:59:24,74.0,,-0.696475242327599,-2.92124796283011,-1.12530590409281,,3.0726154060121433,,
,4615.0,332.0,3600.0,798.0,22.0,1392.0,3719.0,2025-07-03 21:59:25,75.0,,-0.696214604451235,-2.92118331167898,-1.12563713208195,,3.0140068579640285,,
,4614.0,331.0,3597.0,796.0,27.0,1398.0,3713.0,2025-07-03 21:59:26,75.0,,-0.69606632369923,-2.92125308207467,-1.12495945655203,,2.915942015718212,,
,4614.0,333.0,3599.0,799.0,15.0,1414.0,3692.0,2025-07-03 21:59:27,75.0,,-0.696126991193981,-2.92118835759294,-1.12499255528209,,2.781248897814744,,
,4613.0,333.0,3598.0,797.0,13.0,1408.0,3681.0,2025-07-03 21:59:28,75.0,,-0.695632805691863,-2.92128391017882,-1.12423174571229,,2.6136178895959876,,
,4612.0,331.0,3595.0,798.0,17.0,1418.0,3695.0,2025-07-03 21:59:29,75.0,,-0.695866197556877,-2.92115499455052,-1.1244462076337,,2.4173939836885996,,
,4612.0,330.0,3595.0,798.0,28.0,1416.0,3688.0,2025-07-03 21:59:30,75.0,,-0.696170769194487,-2.92108301485359,-1.12553007033902,,2.1973623799233244,,
,4611.0,331.0,3597.0,798.0,11.0,1409.0,3685.0,2025-07-03 21:59:31,76.0,,-0.69615031368192,-2.9211584288991,-1.12443880137042,,1.9585471267076626,,
,4611.0,331.0,3597.0,798.0,14.0,1406.0,3697.0,2025-07-03 21:59:32,76.0,,-0.695732006790383,-2.92111996299599,-1.12535520802715,,1.7060364346333363,,
,4611.0,334.0,3593.0,798.0,22.0,1407.0,3691.0,2025-07-03 21:59:33,77.0,,-0.695714411392156,-2.92118569634633,-1.12457529117027,,1.4448415035612352,,
,4611.0,330.0,3592.0,797.0,27.0,1426.0,3689.0,2025-07-03 21:59:34,78.0,,-0.695558716698704,-2.92129120922746,-1.12503283303224,,1.1797890552707104,,
,4612.0,335.0,3595.0,800.0,27.0,1405.0,3689.0,2025-07-03 21:59:35,79.0,,-0.695789105436841,-2.92129137469221,-1.12534314762279,,0.9154420327596665,,
,4614.0,334.0,3595.0,803.0,33.0,1393.0,3671.0,2025-07-03 21:59:36,79.0,,-0.695782463132732,-2.92114696140772,-1.12478784513361,,0.6560388400311253,,
,4616.0,332.0,3595.0,800.0,27.0,1398.0,3682.0,2025-07-03 21:59:37,79.0,,-0.696168921480101,-2.92127089633613,-1.12533391227815,,0.4054396784922719,,
,4612.0,333.0,3593.0,796.0,25.0,1409.0,3728.0,2025-07-03 21:59:38,79.0,,-0.695780045921546,-2.92117375509774,-1.12511775431306,,0.1670694679588463,,
,4612.0,331.0,3594.0,798.0,30.0,1437.0,3687.0,2025-07-03 21:59:39,79.0,,-0.695797447645552,-2.92119308485527,-1.12535320674077,,-0.0561493243785408,,
,4615.0,334.0,3595.0,797.0,18.0,1410.0,3703.0,2025-07-03 21:59:40,78.0,,-0.695980532736074,-2.92139275609498,-1.12439789113088,,-0.2618744303429928,,
,4615.0,335.0,3592.0,798.0,14.0,1407.0,3702.0,2025-07-03 21:59:41,78.0,,-0.69599840966453,-2.92124609952502,-1.12522291806801,,-0.448425530612936,,
,4612.0,332.0,3593.0,796.0,36.0,1412.0,3694.0,2025-07-03 21:59:42,78.0,,-0.695898479367288,-2.92132677451344,-1.12530728241814,,-0.6148576169081774,,
,4612.0,333.0,3592.0,798.0,30.0,1397.0,3702.0,2025-07-03 21:59:43,79.0,,-0.695723686005714,-2.92127346406454,-1.12424233089381,,-0.7610107400691355,,
,4616.0,335.0,3593.0,800.0,44.0,1417.0,3710.0,2025-07-03 21:59:44,79.0,,-0.695633484457438,-2.92132704374044,-1.12603181111212,,-0.8875216381564527,,
,4616.0,333.0,3593.0,799.0,27.0,1420.0,3693.0,2025-07-03 21:59:45,79.0,,-0.695545488531217,-2.92130580920463,-1.1241567324201,,-0.9957864017613557,,
,4615.0,336.0,3592.0,802.0,23.0,1425.0,3691.0,2025-07-03 21:59:46,80.0,,-0.695737336982596,-2.92126167491213,-1.12574206877104,,-1.0878687985278728,,
,4615.0,332.0,3593.0,799.0,20.0,1419.0,3690.0,2025-07-03 21:59:47,79.0,,-0.695624722614408,-2.92121708034066,-1.12513749580675,,-1.166355129397114,,
,4616.0,335.0,3594.0,802.0,17.0,1414.0,3681.0,2025-07-03 21:59:48,79.0,,-0.695211519706305,-2.92098311000885,-1.12506824251737,,-1.2341628294438105,,
,4617.0,334.0,3592.0,801.0,28.0,1410.0,3686.0,2025-07-03 21:59:49,79.0,,-0.695387567108276,-2.92107757568853,-1.1251109012186,,-1.2943158861089556,,
,4614.0,333.0,3592.0,800.0,22.0,1411.0,3692.0,2025-07-03 21:59:50,78.0,,-0.6952734292917,-2.92111410424704,-1.12507210659821,,-1.3497048948483694,,
,4617.0,331.0,3589.0,799.0,28.0,1422.0,3686.0,2025-07-03 21:59:51,78.0,,-0.695309722541082,-2.92094325706718,-1.12545019007669,,-1.4028525749853833,,
,4616.0,333.0,3590.0,801.0,28.0,1428.0,3704.0,2025-07-03 21:59:52,78.0,,-0.695392974336337,-2.92112650181785,-1.12458203853303,,-1.4557063462363697,,
,4618.0,333.0,3590.0,801.0,20.0,1436.0,3681.0,2025-07-03 21:59:53,78.0,,-0.695344331511489,-2.9211131114414,-1.12566990495755,,-1.5094778118149745,,
,4617.0,334.0,3589.0,800.0,23.0,1436.0,3681.0,2025-07-03 21:59:54,78.0,,-0.695344487196749,-2.92121384030777,-1.12410095271919,,-1.5645445516145786,,
,4616.0,333.0,3591.0,799.0,39.0,1397.0,3702.0,2025-07-03 21:59:55,78.0,,-0.695253636176955,-2.92109678912293,-1.12456626702171,,-1.6204226423221055,,
,4619.0,333.0,3588.0,801.0,46.0,1391.0,3708.0,2025-07-03 21:59:56,78.0,,-0.694911299068025,-2.92105397976551,-1.12350063471957,,-1.6758095592544586,,
,4618.0,336.0,3589.0,800.0,27.0,1415.0,3690.0,2025-07-03 21:59:57,78.0,,-0.695148558784573,-2.92091783397566,-1.12450974021612,,-1.7286881841010853,,
,4619.0,333.0,3588.0,801.0,29.0,1418.0,3672.0,2025-07-03 21:59:58,78.0,,-0.694978404020996,-2.92095778249331,-1.12412369323809,,-1.776475666621813,,
,4620.0,333.0,3588.0,801.0,31.0,1422.0,3687.0,2025-07-03 21:59:59,78.0,,-0.694916275598772,-2.92112792517897,-1.12375640920961,,-1.8161975730739723,,
,4618.0,331.0,3590.0,801.0,31.0,1404.0,3690.0,2025-07-03 22:00:00,78.0,,-0.694964831224907,-2.92088980685965,-1.12488748695125,,-1.8446684786683254,,
,4619.0,333.0,3591.0,801.0,13.0,1412.0,3684.0,2025-07-03 22:00:01,78.0,,-0.694546869594478,-2.92092976410818,-1.12448529222104,,-1.858663899269545,,
,4619.0,333.0,3588.0,802.0,24.0,1432.0,3707.0,2025-07-03 22:00:02,78.0,,-0.694423337213474,-2.92097657218538,-1.12361761291812,,-1.8550735833351237,,
,4621.0,333.0,3590.0,803.0,23.0,1430.0,3713.0,2025-07-03 22:00:03,78.0,,-0.694750454296747,-2.92102976495618,-1.12348577007126,,-1.8310313959323363,,
,4620.0,331.0,3591.0,802.0,21.0,1421.0,3676.0,2025-07-03 22:00:04,78.0,,-0.694343936917125,-2.92090899767034,-1.12456952341324,,-1.7840216431657465,,
,4623.0,336.0,3590.0,803.0,21.0,1401.0,3675.0,2025-07-03 22:00:05,78.0,,-0.694633865959261,-2.92116659006954,-1.12334197365953,,-1.71196536549447,,
,4625.0,335.0,3592.0,804.0,16.0,1419.0,3686.0,2025-07-03 22:00:06,78.0,,-0.694411221786274,-2.92110961035209,-1.12355003823942,,-1.613292600625287,,
,4626.0,334.0,3591.0,805.0,19.0,1418.0,3682.0,2025-07-03 22:00:07,77.0,,-0.694905764459895,-2.9209495313739,-1.12410012384861,,-1.4870077339437031,,
,4626.0,334.0,3592.0,803.0,27.0,1417.0,3696.0,2025-07-03 22:00:08,77.0,,-0.694659395487128,-2.92098763505612,-1.12365890554056,,-1.3327548706404735,,
,4625.0,332.0,3591.0,806.0,23.0,1439.0,3681.0,2025-07-03 22:00:09,77.0,,-0.694754055074266,-2.92091924167201,-1.12311196396829,,-1.150888753219426,,
,4630.0,333.0,3597.0,807.0,18.0,1409.0,3678.0,2025-07-03 22:00:10,77.0,,-0.694566274000759,-2.92102127416508,-1.12359954617043,,-0.9425539678559003,,
,4631.0,337.0,3596.0,808.0,27.0,1400.0,3683.0,2025-07-03 22:00:11,77.0,,-0.694657458985819,-2.92088962710125,-1.12328744966756,,-0.7097707548374111,,
,4629.0,334.0,3594.0,809.0,36.0,1399.0,3693.0,2025-07-03 22:00:12,77.0,,-0.693542739313872,-2.92086936693492,-1.12376462853589,,-0.4555197398232208,,
,4631.0,336.0,3598.0,808.0,29.0,1395.0,3703.0,2025-07-03 22:00:13,77.0,,-0.693896816243363,-2.92091970212646,-1.12308311318357,,-0.1838113213295334,,
,4633.0,335.0,3599.0,809.0,39.0,1412.0,3708.0,2025-07-03 22:00:14,77.0,,-0.693566082089886,-2.92083262248794,-1.12274792194467,,0.10027979884769084,,
,4633.0,335.0,3598.0,810.0,39.0,1414.0,3703.0,2025-07-03 22:00:15,76.0,,-0.693697514550909,-2.92101222297638,-1.1233474952474,,0.39063633872372455,,
,4632.0,335.0,3601.0,809.0,27.0,1412.0,3689.0,2025-07-03 22:00:16,76.0,,-0.693747490397582,-2.92075680732217,-1.1225850302731,,0.680195296640068,,
,4636.0,332.0,3600.0,809.0,31.0,1416.0,3689.0,2025-07-03 22:00:17,77.0,,-0.693803340113168,-2.92070936477111,-1.1221657351657,,0.9611323837321782,,
,4636.0,337.0,3601.0,810.0,26.0,1414.0,3675.0,2025-07-03 22:00:18,77.0,,-0.69364796683542,-2.92068408702463,-1.12285248062923,,1.2251375045197443,,
,4639.0,337.0,3604.0,811.0,43.0,1415.0,3693.0,2025-07-03 22:00:19,77.0,,-0.693347406574576,-2.9207737532508,-1.12293777247008,,1.4637747205230256,,
,4640.0,336.0,3604.0,812.0,43.0,1421.0,3706.0,2025-07-03 22:00:20,78.0,,-0.692884404175404,-2.92063156770454,-1.12291009440481,,1.6689098747938431,,
,4642.0,335.0,3603.0,810.0,45.0,1386.0,3726.0,2025-07-03 22:00:21,78.0,,-0.693133384478803,-2.9207126933542,-1.1223799780893,,1.833179099060656,,
,4645.0,335.0,3607.0,813.0,34.0,1394.0,3705.0,2025-07-03 22:00:22,78.0,,-0.693645336929861,-2.92069498395764,-1.12249027914751,,1.95046252465534,,
,4646.0,337.0,3607.0,814.0,37.0,1408.0,3718.0,2025-07-03 22:00:23,79.0,,-0.693188354685421,-2.92053665046568,-1.12276542770254,,2.016320957534879,,
,4648.0,337.0,3608.0,814.0,36.0,1423.0,3712.0,2025-07-03 22:00:24,79.0,,-0.693377147373324,-2.92071455944676,-1.12228384878041,,2.0283505770773727,,
,4645.0,336.0,3608.0,814.0,21.0,1417.0,3720.0,2025-07-03 22:00:25,79.0,,-0.692877807026855,-2.9207208793139,-1.12252618011494,,1.9864131624433323,,
,4650.0,335.0,3609.0,815.0,14.0,1413.0,3706.0,2025-07-03 22:00:26,79.0,,-0.692862281221604,-2.92060017623752,-1.12183946753932,,1.892707787020151,,
,4652.0,334.0,3611.0,815.0,31.0,1400.0,3691.0,2025-07-03 22:00:27,78.0,,-0.69281791341135,-2.9206791658227,-1.12259166608891,,1.7516646006424033,,
,4653.0,336.0,3611.0,815.0,20.0,1414.0,3716.0,2025-07-03 22:00:28,78.0,,-0.692807366351634,-2.92068230038738,-1.12284418950622,,1.56966133147906,,
,4655.0,336.0,3612.0,818.0,19.0,1411.0,3727.0,2025-07-03 22:00:29,78.0,,-0.693093310553722,-2.92070955064822,-1.12168730447974,,1.3545857249911557,,
,4654.0,335.0,3613.0,820.0,29.0,1382.0,3710.0,2025-07-03 22:00:30,78.0,,-0.692642821065204,-2.9206963189381,-1.12134152264062,,1.1152877733789166,,
,4655.0,335.0,3613.0,819.0,23.0,1398.0,3707.0,2025-07-03 22:00:31,77.0,,-0.692056796480638,-2.92069468294675,-1.12215639389143,,0.8609794502133861,,
,4660.0,336.0,3617.0,820.0,34.0,1404.0,3716.0,2025-07-03 22:00:32,77.0,,-0.692580627343139,-2.92085451656376,-1.12146510238614,,0.6006437880203378,,
,4662.0,336.0,3617.0,818.0,35.0,1421.0,3710.0,2025-07-03 22:00:33,76.0,,-0.692273468125965,-2.92064987514321,-1.12180311900784,,0.3425096199336421,,
,4662.0,337.0,3621.0,820.0,35.0,1428.0,3683.0,2025-07-03 22:00:34,76.0,,-0.692017916017247,-2.92057227449813,-1.1208328333491,,0.09363566187109224,,
,4662.0,339.0,3619.0,820.0,18.0,1416.0,3689.0,2025-07-03 22:00:35,76.0,,-0.691719068521633,-2.92061648858931,-1.12154332758312,,-0.1403688565427815,,
,4666.0,338.0,3620.0,822.0,2.0,1428.0,3667.0,2025-07-03 22:00:36,77.0,,-0.691227117965315,-2.92058020103915,-1.12084229019004,,-0.3554772077202029,,
,4667.0,339.0,3621.0,821.0,6.0,1429.0,3668.0,2025-07-03 22:00:37,77.0,,-0.69145127476547,-2.92054390627709,-1.12102396626904,,-0.549238224533564,,
,4667.0,340.0,3623.0,825.0,32.0,1398.0,3683.0,2025-07-03 22:00:38,77.0,,-0.6918256991941,-2.92059621617315,-1.12080604380635,,-0.7206492749200125,,
,4667.0,339.0,3623.0,823.0,16.0,1417.0,3696.0,2025-07-03 22:00:39,77.0,,-0.692159603258466,-2.92062078866642,-1.12138632413719,,-0.8699387777906286,,
,4670.0,338.0,3625.0,822.0,26.0,1424.0,3707.0,2025-07-03 22:00:40,77.0,,-0.692682736443747,-2.92071214946108,-1.1227792677461,,-0.9982934098672441,,
,4675.0,338.0,3627.0,826.0,26.0,1422.0,3699.0,2025-07-03 22:00:41,77.0,,-0.692894138373813,-2.92085608931848,-1.12260626232588,,-1.1075663155814452,,
,4675.0,336.0,3627.0,825.0,30.0,1435.0,3698.0,2025-07-03 22:00:42,76.0,,-0.693693479670377,-2.92085771672222,-1.12371949847151,,-1.1999994554785405,,
,4675.0,338.0,3629.0,823.0,22.0,1432.0,3705.0,2025-07-03 22:00:43,76.0,,-0.694178660932555,-2.92113960383316,-1.12245645661656,,-1.2779859179794368,,
,4675.0,339.0,3632.0,825.0,29.0,1421.0,3709.0,2025-07-03 22:00:44,75.0,,-0.69500808064828,-2.920827082329,-1.1236078596103,,-1.3438873220853849,,
,4678.0,340.0,3633.0,827.0,42.0,1414.0,3702.0,2025-07-03 22:00:45,75.0,,-0.695289424414453,-2.92106008027381,-1.12561785950725,,-1.3999090340428932,,
,4681.0,339.0,3632.0,827.0,32.0,1418.0,3696.0,2025-07-03 22:00:46,75.0,,-0.695557804700328,-2.92122186612493,-1.12540175813532,,-1.448024386427482,,
,4679.0,336.0,3632.0,825.0,27.0,1424.0,3689.0,2025-07-03 22:00:47,75.0,,-0.696302966440007,-2.92121019447757,-1.12530295376175,,-1.4899311600621796,,
,4680.0,341.0,3636.0,829.0,18.0,1417.0,3692.0,2025-07-03 22:00:48,75.0,,-0.696268786691522,-2.92142127267657,-1.12595115373794,,-1.5270209764653047,,
,4683.0,340.0,3635.0,829.0,35.0,1441.0,3688.0,2025-07-03 22:00:49,76.0,,-0.696371254768719,-2.92130529969465,-1.12500480749955,,-1.5603448660201014,,
,4684.0,341.0,3638.0,828.0,29.0,1449.0,3684.0,2025-07-03 22:00:50,76.0,,-0.696535444956586,-2.92127129620525,-1.12483425040465,,-1.5905645613958743,,
,4680.0,339.0,3634.0,824.0,27.0,1432.0,3698.0,2025-07-03 22:00:51,76.0,,-0.696504477632964,-2.92125108345829,-1.12581902636063,,-1.6178870091522513,,
,4677.0,338.0,3629.0,821.0,31.0,1420.0,3683.0,2025-07-03 22:00:52,77.0,,-0.696712366823652,-2.92121913559805,-1.12534542263228,,-1.6419875626141271,,
,4676.0,341.0,3626.0,822.0,31.0,1410.0,3694.0,2025-07-03 22:00:53,77.0,,-0.696947763297813,-2.92137759977926,-1.12503917659508,,-1.6619341843640938,,
,4670.0,338.0,3617.0,820.0,37.0,1400.0,3694.0,2025-07-03 22:00:54,77.0,,-0.696699290420015,-2.9212061047721,-1.12537784213819,,-1.6761298412207835,,
,4668.0,338.0,3609.0,816.0,41.0,1376.0,3675.0,2025-07-03 22:00:55,76.0,,-0.696766224826581,-2.92130985749665,-1.1250798860504,,-1.6822923233978344,,
,4663.0,337.0,3604.0,813.0,40.0,1407.0,3702.0,2025-07-03 22:00:56,76.0,,-0.696835427565573,-2.92124005544477,-1.12653055048233,,-1.6774894684002661,,
,4658.0,340.0,3602.0,815.0,50.0,1421.0,3711.0,2025-07-03 22:00:57,76.0,,-0.696627834086024,-2.92131365636594,-1.12543566764195,,-1.6582432069044775,,
,4655.0,340.0,3593.0,811.0,40.0,1429.0,3698.0,2025-07-03 22:00:58,76.0,,-0.69623454408942,-2.92125691521259,-1.12538808272221,,-1.620708380941071,,
,4654.0,338.0,3590.0,810.0,34.0,1415.0,3692.0,2025-07-03 22:00:59,77.0,,-0.6966054931613,-2.92130635951082,-1.1252526035403,,-1.5609225723604758,,
,4647.0,336.0,3583.0,809.0,23.0,1405.0,3718.0,2025-07-03 22:01:00,77.0,,-0.696354049858936,-2.92135621892964,-1.12502861036576,,-1.4751121271407928,,
2025-07-03 21:58:54,4646.0,336.0,3583.0,809.0,35.0,1407.0,3706.0,2025-07-03 22:01:01,78.0,2025/07/03 09:58:54 PM,-0.696282112558208,-2.92128002232734,-1.12498947083942,,-1.3600285838576172,,
,4647.0,337.0,3580.0,810.0,29.0,1415.0,3695.0,2025-07-03 22:01:02,78.0,,-0.696179704014023,-2.9212330400963,-1.12543848426765,,-1.2132810049497647,,
,4641.0,337.0,3575.0,808.0,34.0,1413.0,3715.0,2025-07-03 22:01:03,78.0,,-0.696561347241556,-2.92128146755608,-1.12500164304697,,-1.0336259590530619,,
,4639.0,336.0,3571.0,807.0,16.0,1421.0,3719.0,2025-07-03 22:01:04,78.0,,-0.696347410066281,-2.92129550134275,-1.12611873698862,,-0.8211801696459059,,
,4640.0,336.0,3571.0,806.0,29.0,1421.0,3699.0,2025-07-03 22:01:05,77.0,,-0.696275896775121,-2.92134333445109,-1.12543728525873,,-0.5775311392262492,,
,4639.0,337.0,3567.0,808.0,29.0,1427.0,3693.0,2025-07-03 22:01:06,77.0,,-0.696868644777369,-2.92127971886761,-1.12534889550497,,-0.3057358527339781,,
,4636.0,336.0,3568.0,809.0,24.0,1423.0,3690.0,2025-07-03 22:01:07,77.0,,-0.69630126343909,-2.92127839742263,-1.12559467524084,,-0.010212981496468893,,
,4636.0,336.0,3566.0,807.0,25.0,1409.0,3685.0,2025-07-03 22:01:08,77.0,,-0.696266744527711,-2.92128278815399,-1.12509628769812,,0.3034536554113395,,
,4635.0,334.0,3565.0,806.0,30.0,1425.0,3709.0,2025-07-03 22:01:09,77.0,,-0.696289082031295,-2.92125728183289,-1.12504775198743,,0.628775022439564,,
,4635.0,336.0,3562.0,807.0,42.0,1427.0,3684.0,2025-07-03 22:01:10,77.0,,-0.695977379426318,-2.92125031086679,-1.12539741419315,,0.9586520826531264,,
,4635.0,335.0,3565.0,808.0,39.0,1420.0,3683.0,2025-07-03 22:01:11,77.0,,-0.696681844851824,-2.92112289839116,-1.12465105185096,,1.285679454048999,,
,4635.0,336.0,3562.0,808.0,40.0,1420.0,3711.0,2025-07-03 22:01:12,77.0,,-0.695559230995756,-2.92113394277625,-1.12404897006042,,1.6024348205926882,,
,4633.0,333.0,3560.0,806.0,44.0,1421.0,3698.0,2025-07-03 22:01:13,78.0,,-0.695905609145449,-2.9210868555569,-1.12453062530075,,1.9017372421917673,,
,4636.0,337.0,3561.0,808.0,24.0,1411.0,3686.0,2025-07-03 22:01:14,78.0,,-0.695458797186837,-2.92121686872414,-1.12406759450687,,2.176863917391999,,
,4636.0,339.0,3560.0,810.0,22.0,1404.0,3700.0,2025-07-03 22:01:15,78.0,,-0.695430798974161,-2.92122546844353,-1.12427367418571,,2.421721196030504,,
,4639.0,335.0,3560.0,809.0,9.0,1409.0,3704.0,2025-07-03 22:01:16,78.0,,-0.695781930929369,-2.92108211482707,-1.12465651344972,,2.6309714109088804,,
,4635.0,337.0,3561.0,809.0,23.0,1426.0,3698.0,2025-07-03 22:01:17,79.0,,-0.695896854853356,-2.9211017462429,-1.12468702374197,,2.8001222702563053,,
,4636.0,336.0,3559.0,807.0,30.0,1438.0,3687.0,2025-07-03 22:01:18,79.0,,-0.695817720380236,-2.92119494657686,-1.1246462330062,,2.9255896238310797,,
,4637.0,337.0,3560.0,807.0,25.0,1435.0,3679.0,2025-07-03 22:01:19,79.0,,-0.6957762982388,-2.92134801002278,-1.12475375643232,,3.0047462208504983,,
,4638.0,334.0,3562.0,810.0,31.0,1429.0,3683.0,2025-07-03 22:01:20,79.0,,-0.695840502637611,-2.92121698286445,-1.12403705774368,,3.0359673658074096,,
,4641.0,337.0,3562.0,810.0,28.0,1429.0,3692.0,2025-07-03 22:01:21,79.0,,-0.696044085118868,-2.92114730975034,-1.12482605433146,,3.0186789596759027,,
,4638.0,334.0,3560.0,807.0,23.0,1421.0,3702.0,2025-07-03 22:01:22,80.0,,-0.695789461668126,-2.92107812776004,-1.12510196822836,,2.9534058015755154,,
,4638.0,335.0,3560.0,810.0,38.0,1424.0,3683.0,2025-07-03 22:01:23,79.0,,-0.696120722933596,-2.92113349986966,-1.12527734128324,,2.8418108567108007,,
,4640.0,337.0,3564.0,811.0,22.0,1426.0,3709.0,2025-07-03 22:01:24,79.0,,-0.696067299628471,-2.92125655050421,-1.1257028697329,,2.686711854362569,,
,4641.0,338.0,3561.0,812.0,14.0,1421.0,3707.0,2025-07-03 22:01:25,79.0,,-0.69594753690053,-2.92124075733138,-1.12551407143645,,2.492061075289215,,
,4640.0,333.0,3561.0,808.0,28.0,1417.0,3686.0,2025-07-03 22:01:26,79.0,,-0.696133203739221,-2.92122907955735,-1.12577869847316,,2.2628770052406284,,
,4639.0,336.0,3561.0,810.0,41.0,1401.0,3697.0,2025-07-03 22:01:27,78.0,,-0.695954487141903,-2.92109647883937,-1.12543135611416,,2.005121292006707,,
,4641.0,339.0,3562.0,811.0,38.0,1423.0,3681.0,2025-07-03 22:01:28,78.0,,-0.695836637650378,-2.92099484584009,-1.1253133642582,,1.7255197317948436,,
,4642.0,338.0,3561.0,811.0,22.0,1417.0,3687.0,2025-07-03 22:01:29,78.0,,-0.695577622736643,-2.92116290391341,-1.12462252243246,,1.4313308986564095,,
,4642.0,336.0,3560.0,809.0,28.0,1434.0,3701.0,2025-07-03 22:01:30,78.0,,-0.695879375739149,-2.92105085578844,-1.125811964894,,1.1300702486565612,,
,4642.0,337.0,3560.0,814.0,34.0,1422.0,3704.0,2025-07-03 22:01:31,78.0,,-0.69557967166884,-2.92112394290665,-1.12510076845946,,0.8292013593379215,,
,4643.0,338.0,3561.0,812.0,39.0,1435.0,3705.0,2025-07-03 22:01:32,78.0,,-0.69538086944707,-2.9210661315154,-1.12511176979036,,0.5358098743842098,,
,4645.0,337.0,3559.0,814.0,35.0,1438.0,3710.0,2025-07-03 22:01:33,78.0,,-0.695545135110141,-2.92105991012142,-1.12588037204407,,0.2562798296011451,,
,4642.0,337.0,3561.0,813.0,29.0,1442.0,3715.0,2025-07-03 22:01:34,78.0,,-0.695517335031274,-2.92106176026486,-1.12462436703869,,-0.004004350927270443,,
,4644.0,336.0,3556.0,810.0,27.0,1447.0,3718.0,2025-07-03 22:01:35,77.0,,-0.695007865228599,-2.92107064191984,-1.12449224898932,,-0.2409051882580467,,
,4646.0,337.0,3558.0,812.0,49.0,1418.0,3705.0,2025-07-03 22:01:36,77.0,,-0.695269645074287,-2.92101378686923,-1.12419256627862,,-0.4517053304003516,,
,4646.0,337.0,3560.0,813.0,34.0,1397.0,3688.0,2025-07-03 22:01:37,78.0,,-0.694736070640169,-2.92104809954662,-1.12420484724069,,-0.6351881967923299,,
,4645.0,336.0,3559.0,813.0,36.0,1401.0,3676.0,2025-07-03 22:01:38,78.0,,-0.694779082958415,-2.92093063428196,-1.12476520080975,,-0.791615542233518,,
,4643.0,335.0,3557.0,811.0,30.0,1408.0,3664.0,2025-07-03 22:01:39,78.0,,-0.69490740113825,-2.92110091165029,-1.1237449960844,,-0.9226005813660543,,
,4645.0,339.0,3559.0,813.0,25.0,1407.0,3663.0,2025-07-03 22:01:40,79.0,,-0.694439891072755,-2.92084392917855,-1.12336524335063,,-1.0308846065894153,,
,4647.0,337.0,3556.0,813.0,15.0,1420.0,3690.0,2025-07-03 22:01:41,79.0,,-0.694418172550823,-2.92099544812761,-1.12433408415984,,-1.1200336515045373,,
,4650.0,337.0,3558.0,813.0,13.0,1423.0,3709.0,2025-07-03 22:01:42,80.0,,-0.694650180683399,-2.92088609749176,-1.12395546717725,,-1.1940791455643196,,
,4648.0,337.0,3556.0,814.0,36.0,1437.0,3705.0,2025-07-03 22:01:43,80.0,,-0.694276428797089,-2.92081236080536,-1.1242342726399,,-1.2571320672211128,,
,4651.0,338.0,3560.0,813.0,21.0,1442.0,3680.0,2025-07-03 22:01:44,80.0,,-0.694312011897615,-2.92078639205479,-1.12404424658872,,-1.313003194780769,,
,4652.0,335.0,3559.0,816.0,21.0,1437.0,3696.0,2025-07-03 22:01:45,80.0,,-0.69444681467009,-2.92075388496767,-1.12374523834497,,-1.3648621797148022,,
,4649.0,338.0,3557.0,815.0,40.0,1433.0,3706.0,2025-07-03 22:01:46,79.0,,-0.694584350786826,-2.92089400724591,-1.12437317129072,,-1.4149650311968198,,
,4652.0,336.0,3559.0,814.0,36.0,1429.0,3707.0,2025-07-03 22:01:47,79.0,,-0.694200213294923,-2.92081127590939,-1.12450294615398,,-1.464473126409285,,
,4651.0,336.0,3557.0,815.0,24.0,1434.0,3691.0,2025-07-03 22:01:48,78.0,,-0.693755225409282,-2.92092227631761,-1.1233729284277,,-1.5133773479189825,,
,4655.0,338.0,3559.0,816.0,22.0,1429.0,3683.0,2025-07-03 22:01:49,78.0,,-0.69382486551944,-2.92070713820414,-1.12259671996151,,-1.5605293480318627,,
,4656.0,336.0,3560.0,818.0,39.0,1439.0,3678.0,2025-07-03 22:01:50,78.0,,-0.693573883512355,-2.92080864858725,-1.12347610324783,,-1.6037700151957723,,
,4657.0,336.0,3560.0,817.0,37.0,1438.0,3682.0,2025-07-03 22:01:51,78.0,,-0.693525762495477,-2.92066000334787,-1.12329085477974,,-1.640135253312275,,
,4655.0,337.0,3558.0,813.0,45.0,1430.0,3680.0,2025-07-03 22:01:52,78.0,,-0.693865501134068,-2.92083714903337,-1.12244331402067,,-1.6661131180846411,,
,4658.0,337.0,3559.0,820.0,33.0,1418.0,3699.0,,,,-0.693334388484182,-2.92069026024043,-1.12259228650171,,-1.6779248576553438,,
,4660.0,338.0,3561.0,819.0,35.0,1436.0,3715.0,,,,-0.693859101985143,-2.92067824923537,-1.12302719189777,,-1.6718047034215495,,
,4662.0,339.0,3563.0,819.0,29.0,1421.0,3701.0,,,,-0.693517926345039,-2.92064806291952,-1.12196571495554,,-1.6442578434088335,,
,4659.0,337.0,3561.0,818.0,34.0,1419.0,3683.0,,,,-0.693437398432897,-2.92074638902385,-1.12263905218471,,-1.5922815922612106,,
,4664.0,335.0,3562.0,820.0,45.0,1414.0,3706.0,,,,-0.692945293612604,-2.92060498936849,-1.12221090490982,,-1.5135406601309431,,
,4665.0,338.0,3564.0,820.0,49.0,1420.0,3711.0,,,,-0.693672245578135,-2.92070346170431,-1.12237371190767,,-1.406493248605781,,
,4666.0,340.0,3565.0,821.0,38.0,1409.0,3697.0,,,,-0.693341175566884,-2.92074203269131,-1.12235636260451,,-1.270470052305171,,
,4667.0,341.0,3568.0,822.0,49.0,1412.0,3699.0,,,,-0.693296164100375,-2.92072501205093,-1.12291355095537,,-1.1057126517598113,,
,4668.0,340.0,3567.0,820.0,52.0,1433.0,3693.0,,,,-0.692804326672223,-2.92057510539617,-1.12240507645591,,-0.9133808344654666,,
,4671.0,339.0,3570.0,823.0,33.0,1439.0,3672.0,,,,-0.692835040545891,-2.9206795563262,-1.12240331893716,,-0.6955396432901108,,
,4671.0,340.0,3569.0,822.0,33.0,1419.0,3685.0,,,,-0.693165684458091,-2.92057142354963,-1.12223826177382,,-0.45513587832282915,,
,4672.0,340.0,3571.0,822.0,34.0,1425.0,3696.0,,,,-0.692848328065224,-2.92057622826124,-1.12213565039631,,-0.1959699564661591,,
,4676.0,338.0,3569.0,823.0,31.0,1419.0,3699.0,,,,-0.692977682809796,-2.92051952537556,-1.12187328550737,,0.07733722598745146,,
,4675.0,339.0,3572.0,823.0,47.0,1426.0,3709.0,,,,-0.692577452397899,-2.92053827635286,-1.12170595228124,,0.359389964598609,,
,4677.0,340.0,3574.0,826.0,37.0,1433.0,3693.0,,,,-0.692811901924489,-2.92052028382044,-1.12201396565088,,0.6440891550488482,,
,4678.0,339.0,3577.0,826.0,26.0,1440.0,3691.0,,,,-0.692418468760589,-2.92055962316716,-1.12146229446952,,0.9247445856893167,,
,4680.0,339.0,3575.0,827.0,31.0,1448.0,3687.0,,,,-0.692454844572148,-2.92059154737573,-1.12175997215401,,1.1942406944277888,,
,4678.0,341.0,3575.0,825.0,32.0,1421.0,3697.0,,,,-0.692240750252792,-2.92049235065588,-1.12187806802929,,1.4452621221888937,,
,4682.0,338.0,3577.0,828.0,39.0,1414.0,3708.0,,,,-0.691956506852244,-2.92057674579026,-1.121707431732,,1.6705770938726123,,
,4683.0,342.0,3579.0,830.0,29.0,1423.0,3720.0,,,,-0.691813671060435,-2.92040189499453,-1.12209610857127,,1.8633677403187439,,
,4684.0,341.0,3579.0,829.0,32.0,1431.0,3714.0,,,,-0.691575054415118,-2.92038434100577,-1.12104537494217,,2.017587851614877,,
,4683.0,338.0,3577.0,830.0,8.0,1402.0,3690.0,,,,-0.691289511675981,-2.92060355584673,-1.12097596069878,,2.1283209525715443,,
,4686.0,341.0,3581.0,829.0,14.0,1405.0,3676.0,,,,-0.691334986365935,-2.92040006082315,-1.12049546005549,,2.19210596546237,,
,4687.0,342.0,3584.0,831.0,27.0,1420.0,3680.0,,,,-0.691540889413714,-2.92040674204461,-1.12127802365238,,2.2071952442436418,,
,4692.0,340.0,3584.0,832.0,41.0,1429.0,3695.0,,,,-0.691931341738684,-2.92045598751679,-1.12057398835199,,2.1737115592409597,,
,4689.0,340.0,3584.0,831.0,55.0,1431.0,3685.0,,,,-0.69193765919248,-2.92040652499247,-1.12112896674782,,2.0936775176775324,,
,4692.0,340.0,3584.0,831.0,37.0,1438.0,3704.0,,,,-0.692510160644777,-2.92047159309521,-1.12180260807168,,1.970903176685039,,
,4693.0,342.0,3586.0,831.0,27.0,1433.0,3720.0,,,,-0.69350574786147,-2.92063797755632,-1.12203532164821,,1.8107344303423358,,
,4696.0,341.0,3588.0,833.0,28.0,1430.0,3715.0,,,,-0.69371839201141,-2.92071895964949,-1.12388524955091,,1.6196837302908642,,
,4694.0,341.0,3588.0,833.0,31.0,1429.0,3703.0,,,,-0.694462075274061,-2.92075812367674,-1.12325729161203,,1.404981883832944,,
,4697.0,339.0,3587.0,833.0,27.0,1431.0,3677.0,,,,-0.694879295696624,-2.92087457665028,-1.12418369383957,,1.1741007498536664,,
,4699.0,339.0,3590.0,834.0,26.0,1444.0,3680.0,,,,-0.695853561370101,-2.92093518016378,-1.12384615801284,,0.9342988541597592,,
,4700.0,343.0,3592.0,835.0,29.0,1422.0,3704.0,,,,-0.695930333762914,-2.92089878824442,-1.12445170223158,,0.6922352993611031,,
,4702.0,341.0,3593.0,837.0,32.0,1423.0,3700.0,,,,-0.696179203830893,-2.92088889653666,-1.12499310479826,,0.4536842989257263,,
,4703.0,342.0,3593.0,834.0,19.0,1428.0,3698.0,,,,-0.695931880371004,-2.92095794458352,-1.12529965526323,,0.22336662009185618,,
,4705.0,342.0,3594.0,836.0,16.0,1442.0,3694.0,,,,-0.696300256921492,-2.92107554351627,-1.12407589669222,,0.004898177076815262,,
,4706.0,342.0,3592.0,835.0,13.0,1437.0,3701.0,,,,-0.696274716804797,-2.92109630660501,-1.12489880576526,,-0.1991579494383067,,
,4704.0,341.0,3590.0,834.0,14.0,1437.0,3702.0,,,,-0.696255244046049,-2.92106223559558,-1.12447268093548,,-0.3871603902214561,,
,4701.0,341.0,3585.0,833.0,27.0,1437.0,3701.0,,,,-0.695775600588997,-2.92106153028304,-1.12439673686937,,-0.5582100916337099,,
,4697.0,340.0,3574.0,830.0,24.0,1431.0,3684.0,,,,-0.696002768986675,-2.92110624838304,-1.12365408356671,,-0.7119556479555403,,
,4694.0,340.0,3572.0,827.0,12.0,1430.0,3686.0,,,,-0.69563090173963,-2.92103393936966,-1.12417186793279,,-0.8484143582750199,,
,4689.0,340.0,3563.0,826.0,36.0,1435.0,3668.0,,,,-0.695549262352351,-2.92107309973619,-1.12483253913316,,-0.9678341652023791,,
,4684.0,338.0,3553.0,824.0,42.0,1441.0,3682.0,,,,-0.696030037685817,-2.9210992332752,-1.12523441565642,,-1.0706124600762275,,
,4682.0,340.0,3545.0,821.0,39.0,1429.0,3673.0,,,,-0.696035973734686,-2.92108775516773,-1.12386924101361,,-1.1572761553876951,,
,4678.0,338.0,3541.0,821.0,46.0,1438.0,3688.0,,,,-0.695904009778981,-2.92101590783309,-1.12459681395749,,-1.228515091624002,,
,4673.0,337.0,3535.0,820.0,39.0,1452.0,3689.0,,,,-0.69613064988091,-2.92106008949369,-1.1244493127299,,-1.2852501109403778,,
,4670.0,337.0,3532.0,818.0,32.0,1460.0,3690.0,,,,-0.695871128237679,-2.92091663611784,-1.12476722449148,,-1.3287103669694786,,
,4669.0,336.0,3526.0,815.0,16.0,1471.0,3698.0,,,,-0.69545369354419,-2.92102101878844,-1.1247305762695,,-1.3604930346859079,,
,4668.0,336.0,3520.0,817.0,32.0,1443.0,3684.0,,,,-0.695507881846301,-2.92111360516771,-1.12471284617584,,-1.3825823276681288,,
,4667.0,337.0,3519.0,818.0,46.0,1435.0,3687.0,,,,-0.695291628934047,-2.92114351376716,-1.12401471021499,,-1.3973121420484957,,
,4667.0,336.0,3516.0,817.0,54.0,1425.0,3698.0,,,,-0.695179211904461,-2.92098546295106,-1.12332270308405,,-1.4072658968733085,,
,4667.0,337.0,3516.0,817.0,51.0,1416.0,3696.0,,,,-0.695374352964692,-2.9209410277839,-1.1241771677065,,-1.4151167688339006,,
,4662.0,333.0,3508.0,814.0,38.0,1416.0,3700.0,,,,-0.69512781114817,-2.92105944284908,-1.12420356824141,,-1.423420525057305,,
,4665.0,336.0,3508.0,815.0,47.0,1424.0,3692.0,,,,-0.69514626829169,-2.92074638226462,-1.12369956250516,,-1.4343807335187369,,
,4661.0,338.0,3506.0,815.0,39.0,1431.0,3691.0,,,,-0.6949055761911,-2.9208694604635,-1.12458615718063,,-1.4496115432165249,,
,4665.0,338.0,3503.0,818.0,38.0,1429.0,3697.0,,,,-0.694520105696579,-2.92088972242813,-1.12340177071156,,-1.4699259214662097,,
,4663.0,335.0,3502.0,814.0,37.0,1422.0,3704.0,,,,-0.694600286620554,-2.92093364019175,-1.12370063870167,,-1.4951768769700782,,
,4664.0,335.0,3503.0,815.0,25.0,1416.0,3700.0,,,,-0.69416171068405,-2.92078191069058,-1.1237079572235,,-1.5241755590548334,,
,4665.0,337.0,3501.0,819.0,25.0,1422.0,3691.0,,,,-0.694205763881177,-2.92087470610002,-1.12236338319748,,-1.5547030685569048,,
,4666.0,336.0,3502.0,815.0,30.0,1417.0,3702.0,,,,-0.694175789488782,-2.92088710846147,-1.1235097469874,,-1.583622531035849,,
,4664.0,337.0,3498.0,817.0,27.0,1416.0,3711.0,,,,-0.694238183698845,-2.92089286246356,-1.1231760827153,,-1.6070853884040313,,
,4663.0,334.0,3498.0,816.0,30.0,1418.0,3699.0,,,,-0.69433737662594,-2.92080687198888,-1.12333724328281,,-1.6208128739181251,,
,4665.0,333.0,3496.0,817.0,30.0,1433.0,3683.0,,,,-0.694376571267202,-2.92089764067292,-1.12417215862821,,-1.620422867730058,,
,4666.0,336.0,3497.0,818.0,36.0,1439.0,3682.0,,,,-0.694411632468693,-2.92079193715039,-1.12319533173289,,-1.6017661787546313,,
,4666.0,335.0,3498.0,817.0,35.0,1439.0,3670.0,,,,-0.694532599184293,-2.9208651418003,-1.12417273910238,,-1.5612358730017064,,
,4667.0,334.0,3496.0,817.0,31.0,1426.0,3677.0,,,,-0.694988038557226,-2.9208257318373,-1.12373884906088,,-1.496018081446564,,
,4667.0,337.0,3500.0,819.0,44.0,1428.0,3685.0,,,,-0.695073124942931,-2.92085018486406,-1.1239170507535,,-1.4042613648698803,,
,4669.0,337.0,3496.0,819.0,36.0,1413.0,3685.0,,,,-0.694566395389572,-2.92078435423657,-1.12350618448495,,-1.2851527502313187,,
,4669.0,332.0,3498.0,819.0,33.0,1424.0,3683.0,,,,-0.694247642685948,-2.92083121964485,-1.12418963099396,,-1.1389007589217837,,
,4667.0,335.0,3495.0,819.0,25.0,1436.0,3682.0,,,,-0.693932362732871,-2.92096708083836,-1.1241020193211,,-0.9666378006368361,,
,4668.0,336.0,3495.0,821.0,15.0,1429.0,3696.0,,,,-0.694190030779909,-2.92088297789689,-1.12346035600429,,-0.7702646214038885,,
,4668.0,338.0,3493.0,820.0,37.0,1427.0,3674.0,,,,-0.694159414971344,-2.92101876884839,-1.12368940357272,,-0.552266510613364,,
,4672.0,334.0,3494.0,820.0,39.0,1430.0,3718.0,,,,-0.693800987553721,-2.92094669674518,-1.12440197361165,,-0.31553356575373415,,
,4670.0,335.0,3492.0,821.0,46.0,1424.0,3704.0,,,,-0.693657538720845,-2.92078214093187,-1.12381655456801,,-0.0632149257005161,,
,4669.0,334.0,3490.0,819.0,45.0,1420.0,3691.0,,,,-0.693661876813965,-2.92080056107521,-1.1231003684446,,0.20137054943413873,,
,4670.0,336.0,3490.0,823.0,28.0,1428.0,3678.0,,,,-0.693618096392257,-2.92082246345997,-1.12304597992319,,0.4747565888066405,,
2025-07-03 21:58:55,4672.0,336.0,3487.0,821.0,19.0,1414.0,3675.0,,,2025/07/03 09:58:55 PM,-0.693642229742083,-2.92091661256832,-1.12413125599366,,0.7532890327173613,,
,4669.0,334.0,3486.0,819.0,22.0,1412.0,3680.0,,,,-0.693513742085655,-2.9208100829747,-1.12297627023393,,1.0330415703635547,,
,4671.0,334.0,3485.0,820.0,29.0,1415.0,3693.0,,,,-0.69333030842692,-2.92095158956517,-1.12296655460233,,1.309717981202421,,
,4671.0,333.0,3483.0,818.0,27.0,1425.0,3698.0,,,,-0.693332935984906,-2.92069291813965,-1.12324069224165,,1.578576187456822,,
,4671.0,334.0,3483.0,818.0,21.0,1422.0,3684.0,,,,-0.692795943619913,-2.92069604102724,-1.12405967559657,,1.8344073241375298,,
,4672.0,333.0,3480.0,819.0,25.0,1443.0,3696.0,,,,-0.692853891035927,-2.92080413786315,-1.12301357844482,,2.0715949060899184,,
,4672.0,336.0,3480.0,819.0,17.0,1434.0,3700.0,,,,-0.692515205836411,-2.92070094104272,-1.12314555669803,,2.284267066662711,,
,4671.0,331.0,3478.0,818.0,25.0,1409.0,3684.0,,,,-0.692716581376908,-2.9208303970513,-1.12287608534669,,2.4665407207194985,,
,4672.0,334.0,3477.0,821.0,21.0,1427.0,3689.0,,,,-0.69255621597093,-2.92060253799352,-1.12240255402818,,2.6128419751173673,,
,4671.0,334.0,3474.0,819.0,29.0,1418.0,3692.0,,,,-0.69231424929706,-2.92077114293834,-1.12232511520725,,2.718273759039116,,
,4671.0,333.0,3475.0,819.0,37.0,1416.0,3705.0,,,,-0.692036087512244,-2.92069639009441,-1.12183693322381,,2.7789912540685044,,
,4671.0,333.0,3472.0,820.0,39.0,1405.0,3690.0,,,,-0.692186153420398,-2.92073405533479,-1.12225561330795,,2.7925400395017284,,
,4673.0,333.0,3473.0,820.0,23.0,1401.0,3689.0,,,,-0.691846999660443,-2.92073438118147,-1.12351532238094,,2.7581123239745953,,
,4674.0,333.0,3472.0,821.0,22.0,1412.0,3683.0,,,,-0.691866358485816,-2.92060718256061,-1.12216198472447,,2.6766839272844716,,
,4677.0,331.0,3474.0,821.0,28.0,1428.0,3683.0,,,,-0.691771101148026,-2.92053103956408,-1.12202943294982,,2.5510085681963677,,
,4675.0,330.0,3471.0,820.0,38.0,1432.0,3679.0,,,,-0.691948569296606,-2.92063465097977,-1.12246057714136,,2.3854649462450035,,
,4675.0,333.0,3472.0,818.0,25.0,1440.0,3688.0,,,,-0.691987640055008,-2.9206161604766,-1.12087044225336,,2.185772925176931,,
,4676.0,333.0,3471.0,822.0,22.0,1413.0,3689.0,,,,-0.691748619711815,-2.92067673306076,-1.12060220025663,,1.958613456657947,,
,4677.0,335.0,3473.0,821.0,32.0,1428.0,3681.0,,,,-0.691319674385436,-2.92064950977761,-1.12126237313059,,1.7111985214602143,,
,4677.0,332.0,3472.0,822.0,30.0,1423.0,3683.0,,,,-0.691134671381983,-2.92052461859605,-1.12105772476528,,1.4508400609779621,,
,4678.0,333.0,3469.0,821.0,32.0,1423.0,3682.0,,,,-0.69130054146443,-2.92055045990732,-1.12185939921766,,1.1845611647098482,,
,4681.0,333.0,3470.0,822.0,20.0,1413.0,3710.0,,,,-0.691288069110279,-2.92051672415666,-1.12208574434121,,0.9187812959266571,,
,4681.0,334.0,3471.0,822.0,20.0,1415.0,3701.0,,,,-0.690801724402665,-2.92071677428794,-1.12180379026027,,0.6590932830782974,,
,4681.0,335.0,3472.0,824.0,18.0,1415.0,3705.0,,,,-0.691209761891578,-2.92050874111794,-1.12125963499007,,0.41013584395943964,,
,4683.0,331.0,3469.0,823.0,17.0,1418.0,3706.0,,,,-0.690921079774793,-2.92049151472551,-1.12121511649391,,0.17555340160223226,,
,4685.0,331.0,3470.0,823.0,33.0,1453.0,3714.0,,,,-0.690652523337272,-2.92031387302423,-1.12058621154621,,-0.04197391253693499,,
,4686.0,334.0,3472.0,825.0,23.0,1442.0,3683.0,,,,-0.690281933725641,-2.92038965657542,-1.12055218787258,,-0.24065228804661754,,
,4686.0,334.0,3472.0,823.0,19.0,1437.0,3672.0,,,,-0.690985869142895,-2.92051545497001,-1.12152209536377,,-0.4194717974578385,,
,4689.0,335.0,3468.0,826.0,12.0,1436.0,3686.0,,,,-0.690706057533505,-2.92048278967882,-1.1216382243287,,-0.5781006432360523,,
,4686.0,332.0,3470.0,824.0,18.0,1439.0,3686.0,,,,-0.690712164818307,-2.9203207328944,-1.12118620369906,,-0.7167916289683031,,
,4688.0,332.0,3472.0,828.0,35.0,1431.0,3696.0,,,,-0.690349681904123,-2.92046365705139,-1.12078022245653,,-0.8363082157259418,,
,4691.0,333.0,3471.0,824.0,40.0,1415.0,3723.0,,,,-0.690669247325734,-2.92032743528963,-1.12196797444608,,-0.9378681868603809,,
,4692.0,333.0,3472.0,827.0,32.0,1418.0,3709.0,,,,-0.6906846093018,-2.92041437753547,-1.1209403698705,,-1.0230946040746636,,
,4692.0,333.0,3473.0,827.0,26.0,1400.0,3683.0,,,,-0.690574843039008,-2.92046020074094,-1.1200062736309,,-1.0939586940243051,,
,4694.0,334.0,3473.0,827.0,11.0,1410.0,3719.0,,,,-0.690672751134847,-2.92032990126514,-1.12014025879987,,-1.1526989766522264,,
,4698.0,334.0,3474.0,828.0,31.0,1425.0,3714.0,,,,-0.69028390267532,-2.92042689969644,-1.12123511602253,,-1.2017052224066571,,
,4696.0,330.0,3476.0,827.0,24.0,1430.0,3709.0,,,,-0.690216078060958,-2.92032582057144,-1.12026734068877,,-1.2433633072482295,,
,4698.0,333.0,3475.0,827.0,25.0,1397.0,3672.0,,,,-0.689906205532948,-2.92029564569833,-1.12007737712445,,-1.279865860157494,,
,4696.0,333.0,3474.0,829.0,33.0,1396.0,3689.0,,,,-0.690191643111038,-2.92028364452015,-1.12000678812589,,-1.313002151755143,,
,4702.0,334.0,3476.0,828.0,28.0,1414.0,3713.0,,,,-0.689873640458682,-2.92030374740186,-1.12012766194231,,-1.3439477785046847,,
,4700.0,334.0,3475.0,830.0,7.0,1427.0,3713.0,,,,-0.68962934922657,-2.92025836670923,-1.12028150508699,,-1.3730794318913027,,
,4703.0,333.0,3477.0,828.0,9.0,1435.0,3681.0,,,,-0.689518205748019,-2.92023736927005,-1.12030418164837,,-1.3998416214702354,,
,4701.0,333.0,3476.0,828.0,14.0,1422.0,3701.0,,,,-0.689866650901532,-2.92030220063843,-1.12024680048692,,-1.4226901390432385,,
,4705.0,334.0,3477.0,830.0,25.0,1439.0,3701.0,,,,-0.69008728497918,-2.92042275440693,-1.12016193223161,,-1.4391312152618576,,
,4708.0,336.0,3482.0,834.0,39.0,1412.0,3688.0,,,,-0.690068698662428,-2.92047980893674,-1.1200505974159,,-1.4458660077630299,,
,4706.0,334.0,3483.0,832.0,34.0,1407.0,3669.0,,,,-0.690950888523662,-2.9205623225404,-1.12136548711282,,-1.4390379022488184,,
,4705.0,334.0,3479.0,831.0,23.0,1393.0,3673.0,,,,-0.691421899195917,-2.92056775650531,-1.12155607213567,,-1.4145662633233875,,
,4709.0,332.0,3481.0,831.0,25.0,1419.0,3693.0,,,,-0.691590521900652,-2.9206263923643,-1.12038853528357,,-1.3685366587339538,,
,4710.0,331.0,3482.0,832.0,25.0,1424.0,3704.0,,,,-0.69201948577768,-2.92080445051809,-1.1220218684985,,-1.2976068402956105,,
,4711.0,334.0,3481.0,834.0,17.0,1410.0,3710.0,,,,-0.692693232030621,-2.92077048019323,-1.12270399013133,,-1.1993826445415503,,
,4711.0,333.0,3481.0,835.0,14.0,1407.0,3714.0,,,,-0.693358183290078,-2.92089453056574,-1.12322487426332,,-1.0727202029474905,,
,4711.0,334.0,3484.0,831.0,12.0,1409.0,3690.0,,,,-0.693780342417985,-2.92085713155702,-1.12422952998339,,-0.9179202192109862,,
,4715.0,336.0,3485.0,836.0,17.0,1415.0,3675.0,,,,-0.694164842971049,-2.92093325569089,-1.1239002801662,,-0.7367945087707364,,
,4715.0,335.0,3487.0,837.0,30.0,1423.0,3687.0,,,,-0.694234810233363,-2.92098673362145,-1.12424868809603,,-0.5326015322591297,,
,4716.0,335.0,3487.0,836.0,26.0,1412.0,3684.0,,,,-0.694802691716797,-2.92103237830929,-1.12336736797624,,-0.30986346196407305,,
,4714.0,334.0,3482.0,835.0,24.0,1437.0,3670.0,,,,-0.694928675599768,-2.92108366109864,-1.12444173820577,,-0.07409022534687172,,
,4711.0,335.0,3477.0,833.0,14.0,1441.0,3697.0,,,,-0.695439111482577,-2.92107662625335,-1.12428966090346,,0.16855546486395734,,
,4707.0,334.0,3471.0,830.0,26.0,1426.0,3696.0,,,,-0.695233097899996,-2.92112537789997,-1.12375416316799,,0.41161452751612093,,
,4704.0,334.0,3462.0,828.0,41.0,1428.0,3679.0,,,,-0.695122480846265,-2.92122564181,-1.12528289635739,,0.6486731524443136,,
,4697.0,333.0,3450.0,824.0,31.0,1409.0,3701.0,,,,-0.695380112392043,-2.92108772894491,-1.1238060352958,,0.8736590052154302,,
,4695.0,332.0,3440.0,822.0,36.0,1409.0,3682.0,,,,-0.696091090785725,-2.92119166309051,-1.12345068150418,,1.0810702548062756,,
,4689.0,331.0,3432.0,821.0,60.0,1424.0,3701.0,,,,-0.695515897287392,-2.92117110216248,-1.12421902173756,,1.2661270088982977,,
,4685.0,329.0,3424.0,817.0,52.0,1419.0,3700.0,,,,-0.695244347462531,-2.92119796571319,-1.12459046244647,,1.4248472308893618,,
,4677.0,329.0,3416.0,816.0,52.0,1421.0,3680.0,,,,-0.695762895491198,-2.92105745350777,-1.1243951474901,,1.5540609359199398,,
,4676.0,329.0,3407.0,812.0,16.0,1428.0,3691.0,,,,-0.695364490640235,-2.92122542242329,-1.12483594817451,,1.651384917227227,,
,4674.0,330.0,3405.0,812.0,27.0,1425.0,3697.0,,,,-0.695865072038836,-2.92113357805974,-1.12331030576949,,1.7151832404273273,,
,4671.0,328.0,3399.0,811.0,46.0,1427.0,3691.0,,,,-0.695634121877359,-2.92113550502265,-1.12410228844161,,1.7445355502426598,,
,4668.0,330.0,3395.0,810.0,34.0,1416.0,3683.0,,,,-0.695675014411383,-2.92114653761746,-1.12407061582586,,1.7392271211824228,,
,4664.0,325.0,3389.0,808.0,17.0,1417.0,3695.0,,,,-0.695668499438326,-2.92107658000105,-1.12429224232663,,1.69976412261603,,
,4663.0,328.0,3387.0,808.0,12.0,1426.0,3717.0,,,,-0.695608117321715,-2.92105951026879,-1.12401918354189,,1.627407467087524,,
,4659.0,325.0,3381.0,809.0,17.0,1428.0,3702.0,,,,-0.695796929170373,-2.9211055934589,-1.1233391605888,,1.524210901548017,,
,4659.0,329.0,3380.0,807.0,27.0,1434.0,3685.0,,,,-0.695435513575028,-2.9210794744672,-1.12353837319048,,1.393044859398032,,
,4654.0,324.0,3374.0,806.0,22.0,1420.0,3697.0,,,,-0.695762127342215,-2.92116060012456,-1.12361081058481,,1.237587421367277,,
,4655.0,324.0,3373.0,805.0,36.0,1387.0,3696.0,,,,-0.695658695478678,-2.92117868966986,-1.12341743159848,,1.062267177841484,,
,4655.0,328.0,3375.0,806.0,21.0,1407.0,3701.0,,,,-0.69543722522333,-2.92117601433686,-1.1238783133099,,0.8721487897054049,,
,4653.0,328.0,3369.0,805.0,14.0,1416.0,3695.0,,,,-0.695463632228013,-2.92112966722903,-1.12395815755243,,0.6727592837204431,,
,4650.0,325.0,3366.0,804.0,25.0,1439.0,3684.0,,,,-0.695236309299694,-2.92111605738405,-1.12352665702585,,0.4698605965310992,,
,4649.0,324.0,3366.0,804.0,17.0,1434.0,3685.0,,,,-0.695327978097619,-2.92099618968469,-1.12387370988234,,0.2691811268004126,,
,4649.0,325.0,3364.0,806.0,22.0,1421.0,3701.0,,,,-0.695488767911814,-2.92098795985519,-1.12362761864183,,0.07612570265771808,,
,4652.0,325.0,3362.0,805.0,26.0,1401.0,3688.0,,,,-0.694896509745583,-2.92096782309749,-1.12324314998473,,-0.10451138894048984,,
,4651.0,323.0,3360.0,806.0,28.0,1405.0,3708.0,,,,-0.694914904478769,-2.92089435208058,-1.12282518671268,,-0.26880314243461034,,
,4648.0,325.0,3359.0,806.0,21.0,1415.0,3722.0,,,,-0.694786586583721,-2.92101323870721,-1.12361946524618,,-0.41389053418272703,,
,4649.0,326.0,3361.0,805.0,27.0,1422.0,3719.0,,,,-0.694802363961011,-2.92094092868806,-1.12435810868466,,-0.5381067618930393,,
,4646.0,326.0,3361.0,807.0,25.0,1407.0,3706.0,,,,-0.695099418102008,-2.92100634697011,-1.12430306867376,,-0.6410128842712377,,
,4650.0,323.0,3360.0,806.0,20.0,1400.0,3692.0,,,,-0.695189052546647,-2.92098701483405,-1.1239556492297,,-0.7233421238935102,,
,4646.0,323.0,3358.0,806.0,22.0,1385.0,3689.0,,,,-0.695447938952639,-2.92101114747392,-1.12432129456702,,-0.7868591087618197,,
,4649.0,324.0,3359.0,807.0,31.0,1417.0,3699.0,,,,-0.695742207631987,-2.92094847762409,-1.12411894855293,,-0.8341481013035469,,
,4650.0,326.0,3359.0,807.0,10.0,1423.0,3701.0,,,,-0.695399173596994,-2.92111741755642,-1.12406369023447,,-0.8683503821349884,,
,4649.0,323.0,3360.0,808.0,14.0,1428.0,3689.0,,,,-0.695642816886462,-2.9212164177401,-1.12345987071668,,-0.8928750921088741,,
,4649.0,322.0,3358.0,808.0,38.0,1423.0,3674.0,,,,-0.695784168356417,-2.92113270944916,-1.12429031498871,,-0.911109688629368,,
,4647.0,324.0,3360.0,805.0,21.0,1397.0,3670.0,,,,-0.695883093763676,-2.92106952009819,-1.124405666847,,-0.9261556009665578,,
,4650.0,324.0,3359.0,807.0,17.0,1399.0,3672.0,,,,-0.695486227126456,-2.9211263267351,-1.12461975619248,,-0.9406117217722778,,
,4648.0,324.0,3358.0,808.0,23.0,1408.0,3686.0,,,,-0.695736602604427,-2.92105985372035,-1.12409963589121,,-0.9564231574301402,,
,4648.0,323.0,3361.0,807.0,26.0,1406.0,3685.0,,,,-0.695758608639698,-2.9212080414557,-1.12380707412313,,-0.9748052982884116,,
,4647.0,324.0,3358.0,807.0,25.0,1417.0,3695.0,,,,-0.695676330734404,-2.92102323741969,-1.12443888146716,,-0.9962440854327037,,
,4648.0,324.0,3353.0,806.0,34.0,1399.0,3702.0,,,,-0.695813888919711,-2.9210581896366,-1.12401828049488,,-1.0205632532917783,,
,4649.0,324.0,3356.0,808.0,45.0,1396.0,3702.0,,,,-0.695801680719637,-2.9210633415636,-1.12453575988632,,-1.0470400733893204,,
,4649.0,326.0,3356.0,807.0,34.0,1401.0,3692.0,,,,-0.695195359497908,-2.92106838486142,-1.12434119309706,,-1.0745449937024172,,
,4645.0,325.0,3352.0,806.0,31.0,1398.0,3704.0,,,,-0.695439457143463,-2.92108660814186,-1.12386012548154,,-1.1016793518148946,,
,4646.0,322.0,3352.0,807.0,20.0,1407.0,3685.0,,,,-0.69507187470963,-2.9210590540363,-1.1244859530623,,-1.1268893269989941,,
,4646.0,324.0,3353.0,807.0,27.0,1420.0,3675.0,,,,-0.694560945170408,-2.92100871695618,-1.12377878506195,,-1.1485421388803079,,
,4647.0,322.0,3353.0,806.0,29.0,1413.0,3705.0,,,,-0.694275941483252,-2.92100939772102,-1.12377427287582,,-1.1649600462330554,,
,4646.0,323.0,3351.0,810.0,31.0,1407.0,3718.0,,,,-0.694543907206363,-2.92099506051068,-1.12368056710112,,-1.1744170080162357,,
,4644.0,322.0,3349.0,806.0,29.0,1408.0,3706.0,,,,-0.694570021601218,-2.92105890467914,-1.12325865048605,,-1.1751106207080622,,
,4648.0,323.0,3351.0,807.0,22.0,1412.0,3715.0,,,,-0.694543831703889,-2.92099097173278,-1.12406821135156,,-1.1651272448375112,,
,4646.0,327.0,3351.0,808.0,22.0,1406.0,3701.0,,,,-0.694123810464215,-2.92087608401907,-1.12387088741872,,-1.142420419710589,,
,4644.0,324.0,3351.0,808.0,34.0,1412.0,3692.0,,,,-0.693992130704357,-2.92088444240159,-1.12362491802521,,-1.1048214557489542,,
,4645.0,322.0,3350.0,807.0,37.0,1406.0,3713.0,,,,-0.695066212325857,-2.92093236256317,-1.12236659503463,,-1.0500967369490715,,
,4645.0,323.0,3351.0,805.0,34.0,1407.0,3692.0,,,,-0.694823258420321,-2.92086669735188,-1.12307793632135,,-0.9760594193372747,,
,4645.0,323.0,3351.0,807.0,37.0,1400.0,3683.0,,,,-0.694605282833568,-2.92094570829714,-1.12281849339816,,-0.8807346846127247,,
,4647.0,325.0,3351.0,807.0,16.0,1414.0,3687.0,,,,-0.694198952544663,-2.92092881011541,-1.12342387676538,,-0.7625683628085566,,
,4649.0,325.0,3351.0,808.0,22.0,1431.0,3687.0,,,,-0.694321227064617,-2.92080510313755,-1.12301359261175,,-0.6206596469708155,,
,4652.0,323.0,3353.0,808.0,23.0,1439.0,3682.0,,,,-0.694415029165149,-2.92096516646804,-1.12253097306554,,-0.4549913001074275,,
,4649.0,322.0,3353.0,808.0,18.0,1419.0,3673.0,,,,-0.69422174671264,-2.92091374238202,-1.12213033970577,,-0.26662701963737456,,
,4650.0,325.0,3353.0,809.0,32.0,1407.0,3704.0,,,,-0.694288385676503,-2.92080336971799,-1.12231906626121,,-0.057846859452383735,,
,4651.0,323.0,3352.0,806.0,35.0,1405.0,3696.0,,,,-0.694078383095873,-2.92072111248853,-1.12224349283723,,0.16780214386919015,,
,4652.0,323.0,3354.0,812.0,41.0,1406.0,3684.0,,,,-0.694105353513673,-2.92078364446481,-1.12224560788403,,0.4055532496249867,,
,4652.0,327.0,3356.0,808.0,28.0,1411.0,3670.0,,,,-0.694057144087663,-2.92082608727112,-1.12171359181416,,0.649567358082868,,
,4652.0,325.0,3357.0,809.0,31.0,1417.0,3692.0,,,,-0.69393339014717,-2.92092998699479,-1.12128234219535,,0.8931723749205739,,
,4653.0,325.0,3358.0,812.0,27.0,1426.0,3703.0,,,,-0.693705875907225,-2.9207658401284,-1.12260592783873,,1.1291780740287594,,
,4653.0,324.0,3358.0,811.0,23.0,1373.0,3732.0,,,,-0.693656700501083,-2.92078894799676,-1.12245545130746,,1.3502434734797308,,
,4655.0,325.0,3359.0,813.0,13.0,1410.0,3693.0,,,,-0.693741046773456,-2.92080329792726,-1.12268660580308,,1.5492693232505774,,
,4658.0,327.0,3362.0,813.0,10.0,1412.0,3699.0,,,,-0.693467411557541,-2.92077906733643,-1.12281664022152,,1.7197859564357552,,
,4659.0,325.0,3364.0,812.0,8.0,1403.0,3699.0,,,,-0.693296003550569,-2.9207389717909,-1.12207217423371,,1.856306503662804,,
,4658.0,326.0,3362.0,814.0,14.0,1399.0,3689.0,,,,-0.693418623471724,-2.92071454825196,-1.12188911945233,,1.9546174275975408,,
,4658.0,322.0,3362.0,810.0,27.0,1403.0,3676.0,,,,-0.693765577504466,-2.92073268190826,-1.12223345752391,,2.0119827944243944,,
,4660.0,322.0,3365.0,812.0,28.0,1399.0,3682.0,,,,-0.693391234971768,-2.92078935751031,-1.12276290512729,,2.0272459956641735,,
,4660.0,325.0,3365.0,813.0,28.0,1400.0,3714.0,,,,-0.693452568530733,-2.920787896185,-1.12276108070024,,2.0008226956613777,,
2025-07-03 21:58:56,4662.0,325.0,3365.0,814.0,23.0,1406.0,3703.0,,,2025/07/03 09:58:56 PM,-0.700977654300616,-2.9216059857776,-1.12779060458568,,1.9345905987650007,,
,4663.0,323.0,3368.0,813.0,24.0,1411.0,3699.0,,,,-0.701696467519233,-2.92182192530761,-1.12793230484293,,1.8316931441086288,,
,4667.0,325.0,3369.0,812.0,24.0,1417.0,3693.0,,,,-0.702055810535237,-2.92190500326473,-1.12807298609802,,1.696283012300863,,
,4669.0,325.0,3373.0,817.0,30.0,1416.0,3709.0,,,,-0.701911618725231,-2.92195694434471,-1.12878414250721,,1.533235654074995,,
,4668.0,325.0,3372.0,815.0,27.0,1414.0,3703.0,,,,-0.70201649075857,-2.92197534085721,-1.12866218404031,,1.3478625451392987,,
,4669.0,323.0,3374.0,814.0,16.0,1421.0,3683.0,,,,-0.702852052849791,-2.92197872635828,-1.12823765719762,,1.1456492647891179,,
,4666.0,327.0,3374.0,814.0,18.0,1420.0,3700.0,,,,-0.702296272107858,-2.92198291358655,-1.12855644384935,,0.9320360347552298,,
,4671.0,326.0,3378.0,815.0,16.0,1413.0,3681.0,,,,-0.702357034037749,-2.92201786919372,-1.12863904016948,,0.7122494180329649,,
,4671.0,326.0,3377.0,818.0,26.0,1421.0,3699.0,,,,-0.702582257318783,-2.92200130009247,-1.12880738986588,,0.49118490894167677,,
,4673.0,325.0,3379.0,818.0,28.0,1420.0,3694.0,,,,-0.702997473732961,-2.9219984387888,-1.12962101387218,,0.27333256922401494,,
,4674.0,324.0,3378.0,817.0,20.0,1418.0,3686.0,,,,-0.702889145116196,-2.92215388685833,-1.12828826485572,,0.06273277389715819,,
,4675.0,325.0,3381.0,821.0,16.0,1427.0,3691.0,,,,-0.702528197584281,-2.92195748866359,-1.12925072335686,,-0.13705298073129157,,
,4676.0,327.0,3381.0,821.0,24.0,1429.0,3686.0,,,,-0.702691399751378,-2.92211621071006,-1.12934369385165,,-0.3229704080419541,,
,4676.0,326.0,3384.0,819.0,34.0,1435.0,3703.0,,,,-0.70280271294206,-2.92214192828232,-1.12917350034613,,-0.4925105557819053,,
,4677.0,327.0,3383.0,820.0,23.0,1414.0,3685.0,,,,-0.702742690486668,-2.92220335722233,-1.12955032496471,,-0.643762521277162,,
,4679.0,326.0,3385.0,821.0,33.0,1415.0,3664.0,,,,-0.703045949360853,-2.92210414689776,-1.12943500401137,,-0.7754780989257088,,
,4680.0,325.0,3387.0,822.0,32.0,1408.0,3681.0,,,,-0.702899959570458,-2.92203887562453,-1.12856911447366,,-0.8871379697139684,,
,4682.0,328.0,3391.0,821.0,44.0,1399.0,3675.0,,,,-0.702952714729831,-2.922071154772,-1.12849987055097,,-0.9790029314491225,,
,4685.0,327.0,3391.0,822.0,37.0,1405.0,3688.0,,,,-0.702851864731556,-2.92205234652733,-1.12965951468726,,-1.0521310516298066,,
,4684.0,327.0,3391.0,823.0,42.0,1390.0,3728.0,,,,-0.702949629712973,-2.92216629517591,-1.1294176466836,,-1.1083434445508915,,
,4686.0,325.0,3394.0,821.0,33.0,1397.0,3717.0,,,,-0.703101379686157,-2.92214635091036,-1.12988253471879,,-1.1501271482204312,,
,4686.0,328.0,3396.0,823.0,20.0,1401.0,3702.0,,,,-0.702622342027884,-2.92208115515052,-1.12872758758908,,-1.1804717708886654,,
,4690.0,327.0,3398.0,825.0,19.0,1406.0,3705.0,,,,-0.702709987099791,-2.92202853284103,-1.12888625168567,,-1.2026455088954748,,
,4689.0,325.0,3398.0,825.0,38.0,1393.0,3713.0,,,,-0.70296694965128,-2.92191093194777,-1.12785010917798,,-1.2199246116091362,,
,4689.0,328.0,3400.0,827.0,27.0,1409.0,3683.0,,,,-0.702700887715627,-2.92207722811887,-1.12918297510465,,-1.235297632098847,,
,4692.0,328.0,3402.0,824.0,33.0,1419.0,3678.0,,,,-0.702517317589839,-2.92199600254873,-1.12830117097821,,-1.2511711914029335,,
,4693.0,325.0,3400.0,823.0,26.0,1412.0,3686.0,,,,-0.702684606496162,-2.92201092293582,-1.12792602352017,,-1.269106832696761,,
,4691.0,325.0,3399.0,824.0,17.0,1433.0,3692.0,,,,-0.702377373262657,-2.92195322082283,-1.12883134438962,,-1.2896183557383096,,
,4689.0,327.0,3399.0,823.0,20.0,1445.0,3705.0,,,,-0.702722462617921,-2.92188139220359,-1.12891585854915,,-1.3120555842774295,,
,4692.0,327.0,3395.0,820.0,19.0,1445.0,3694.0,,,,-0.702602114386662,-2.92190557107352,-1.12846012079691,,-1.3345938082135833,,
,4686.0,327.0,3388.0,820.0,25.0,1438.0,3684.0,,,,-0.702697722393783,-2.92202838765045,-1.12867414285331,,-1.35433828810748,,
,4679.0,327.0,3378.0,816.0,29.0,1429.0,3685.0,,,,-0.702641954352924,-2.92200332855491,-1.12876827339371,,-1.367540689730846,,
,4671.0,326.0,3364.0,812.0,31.0,1408.0,3691.0,,,,-0.702710407074113,-2.9220086250007,-1.12818410072831,,-1.369910341493351,,
,4670.0,325.0,3359.0,810.0,33.0,1394.0,3701.0,,,,-0.70288081883865,-2.92180659304098,-1.12938513091886,,-1.3569899513219064,,
,4665.0,323.0,3352.0,806.0,47.0,1382.0,3696.0,,,,-0.703077977684205,-2.92211237411249,-1.12906862894552,,-1.3245556572938502,,
,4657.0,323.0,3346.0,804.0,38.0,1390.0,3697.0,,,,-0.703166046328299,-2.92209880164006,-1.12827209692119,,-1.2689973822173597,,
,4654.0,322.0,3338.0,803.0,24.0,1409.0,3676.0,,,,-0.703198333858416,-2.9220799027363,-1.12913673997303,,-1.1876383130856907,,
,4648.0,325.0,3334.0,802.0,13.0,1433.0,3677.0,,,,-0.703470566500088,-2.9220459073406,-1.12936983202998,,-1.0789611069665255,,
,4645.0,325.0,3328.0,798.0,13.0,1421.0,3687.0,,,,-0.703136528591266,-2.92209430494962,-1.12909595394781,,-0.9427212721702616,,
,4645.0,323.0,3325.0,799.0,10.0,1409.0,3704.0,,,,-0.703442332513738,-2.92217419406031,-1.12911807645661,,-0.7799430206604488,,
,4641.0,320.0,3322.0,798.0,27.0,1397.0,3704.0,,,,-0.703365337048664,-2.92196543335021,-1.12887318302236,,-0.5928077550803801,,
,4637.0,322.0,3319.0,793.0,34.0,1395.0,3682.0,,,,-0.703099323108169,-2.92202997354754,-1.12864643408621,,-0.3844583004598453,,
,4637.0,321.0,3317.0,796.0,25.0,1408.0,3678.0,,,,-0.703356688926681,-2.92214950004801,-1.12933384042243,,-0.1587512758613563,,
,4636.0,320.0,3312.0,796.0,17.0,1420.0,3668.0,,,,-0.703149851811607,-2.92211459678787,-1.12932519918711,,0.08000554552775986,,
,4634.0,322.0,3313.0,794.0,16.0,1421.0,3686.0,,,,-0.702836629584805,-2.92203622644122,-1.13018181126228,,0.32729485178959555,,
,4630.0,320.0,3310.0,793.0,13.0,1393.0,3702.0,,,,-0.702914979497818,-2.92196999297914,-1.12919010065868,,0.5785802669233527,,
,4629.0,319.0,3308.0,794.0,15.0,1409.0,3699.0,,,,-0.703052983438067,-2.92193259613777,-1.12867868699367,,0.8294260088451589,,
,4627.0,321.0,3308.0,794.0,23.0,1430.0,3712.0,,,,-0.703103287957599,-2.92202411120402,-1.12887959595759,,1.0755399329121202,,
,4625.0,319.0,3305.0,795.0,24.0,1414.0,3701.0,,,,-0.70303759740205,-2.92190899123149,-1.12986957185938,,1.3127496420359632,,
,4624.0,321.0,3305.0,794.0,23.0,1383.0,3701.0,,,,-0.70275986513407,-2.92201567491774,-1.12931072435409,,1.536935685846466,,
,4623.0,319.0,3304.0,792.0,29.0,1405.0,3693.0,,,,-0.702719171617085,-2.92204259213062,-1.1292274663165,,1.743955824752304,,
,4625.0,320.0,3306.0,793.0,19.0,1420.0,3697.0,,,,-0.702601490049347,-2.92202582294454,-1.12886112007066,,1.9295972277950078,,
,4623.0,321.0,3304.0,793.0,10.0,1397.0,3696.0,,,,-0.702496542266693,-2.92202742207752,-1.12859724991337,,2.089588455454447,,
,4621.0,321.0,3305.0,793.0,18.0,1397.0,3694.0,,,,-0.702055591388394,-2.92197706189467,-1.12858302088826,,2.21969152062771,,
,4620.0,317.0,3304.0,794.0,6.0,1402.0,3691.0,,,,-0.702413903423629,-2.9219471420455,-1.12896228673051,,2.3158790026466027,,
,4621.0,319.0,3304.0,791.0,22.0,1428.0,3686.0,,,,-0.702043561550408,-2.92184072705158,-1.12907420219427,,2.374585040544439,,
,4619.0,319.0,3307.0,793.0,22.0,1392.0,3674.0,,,,-0.702097587425787,-2.92184856818672,-1.12918705026307,,2.39300442826202,,
,4620.0,320.0,3308.0,793.0,23.0,1381.0,3682.0,,,,-0.702158552146233,-2.92188044632262,-1.12891938318922,,2.3694028359819996,,
,4618.0,320.0,3308.0,794.0,32.0,1421.0,3673.0,,,,-0.702036289011,-2.92177496791467,-1.12843529362265,,2.3033949450223155,,
,4620.0,320.0,3310.0,792.0,16.0,1402.0,3691.0,,,,-0.702116998918493,-2.92195800937524,-1.12759145808833,,2.196147147949046,,
,4621.0,320.0,3310.0,792.0,18.0,1390.0,3668.0,,,,-0.701952411759333,-2.921799981859,-1.12871890243813,,2.05046781248799,,
,4621.0,319.0,3308.0,793.0,23.0,1392.0,3675.0,,,,-0.701306059233498,-2.92185812606062,-1.12864452959232,,1.8707603848432548,,
,4619.0,320.0,3310.0,793.0,10.0,1411.0,3664.0,,,,-0.70167104507277,-2.92190131156598,-1.12798152768145,,1.662831414026973,,
,4621.0,318.0,3311.0,794.0,18.0,1419.0,3675.0,,,,-0.701207039101665,-2.92189756210964,-1.12833001617738,,1.4335647774121794,,
,4620.0,319.0,3313.0,793.0,33.0,1404.0,3705.0,,,,-0.701464352302875,-2.9218532639012,-1.12819936485266,,1.1904921282815208,,
,4619.0,321.0,3315.0,794.0,17.0,1400.0,3695.0,,,,-0.701284977525099,-2.92189848109113,-1.12750832738066,,0.9413045190145145,,
,4620.0,319.0,3315.0,793.0,11.0,1398.0,3698.0,,,,-0.701393897658929,-2.92188751709684,-1.12826652701056,,0.6933582083901522,,
,4619.0,318.0,3314.0,793.0,19.0,1408.0,3682.0,,,,-0.70149815405714,-2.92191173105648,-1.1276419797549,,0.4532272083668902,,
,4620.0,318.0,3314.0,793.0,32.0,1435.0,3682.0,,,,-0.701235497220457,-2.92171603936642,-1.12796161517319,,0.2263467194530134,,
,4620.0,320.0,3315.0,794.0,27.0,1427.0,3709.0,,,,-0.700823666713045,-2.92173433005132,-1.12827162857569,,0.016777656493196843,,
,4621.0,321.0,3315.0,793.0,23.0,1422.0,3694.0,,,,-0.701216586499057,-2.92192731256558,-1.12789988911698,,-0.17289391463412138,,
,4620.0,321.0,3318.0,792.0,25.0,1421.0,3679.0,,,,-0.701130374217888,-2.92181828093403,-1.12900789835366,,-0.34152472504548964,,
,4620.0,321.0,3316.0,793.0,11.0,1418.0,3701.0,,,,-0.701246106998578,-2.92172072349011,-1.12833687494285,,-0.48926591322388935,,
,4619.0,322.0,3315.0,793.0,18.0,1430.0,3702.0,,,,-0.701110721028976,-2.92181317496591,-1.12823917679641,,-0.6173252525495433,,
,4620.0,319.0,3316.0,793.0,3.0,1427.0,3707.0,,,,-0.700883984688658,-2.92168015376459,-1.12787121263149,,-0.727673645047464,,
,4618.0,320.0,3316.0,795.0,6.0,1426.0,3723.0,,,,-0.701030813891222,-2.92175109670063,-1.12786285434864,,-0.8227320005815933,,
,4616.0,321.0,3313.0,789.0,15.0,1436.0,3703.0,,,,-0.701039583850622,-2.92172227892938,-1.12795500665026,,-0.9050730112469667,,
,4618.0,319.0,3318.0,795.0,15.0,1408.0,3716.0,,,,-0.701039377012826,-2.9216891961953,-1.12809687255185,,-0.9771670101406749,,
,4619.0,320.0,3320.0,794.0,11.0,1410.0,3702.0,,,,-0.701298201603066,-2.92173879362306,-1.1277524197065,,-1.0411925607963768,,
,4617.0,319.0,3318.0,793.0,6.0,1421.0,3705.0,,,,-0.70111327436979,-2.92174288321835,-1.12701744358169,,-1.098921418302738,,
,4618.0,320.0,3318.0,792.0,-3.0,1396.0,3692.0,,,,-0.700938368529581,-2.9217820179963,-1.12706882237492,,-1.151675380364453,,
,4618.0,319.0,3318.0,792.0,24.0,1392.0,3680.0,,,,-0.700804711339211,-2.92174695065978,-1.12772140889495,,-1.200341338234917,,
,4619.0,321.0,3323.0,791.0,33.0,1401.0,3700.0,,,,-0.700959977756962,-2.92173694568496,-1.12709352185791,,-1.245422849181003,,
,4621.0,321.0,3323.0,795.0,27.0,1401.0,3689.0,,,,-0.700675116216841,-2.92174111207934,-1.12756107827059,,-1.2871035554198018,,
,4619.0,321.0,3324.0,794.0,8.0,1420.0,3674.0,,,,-0.7005928611576,-2.92177558883181,-1.12762969235739,,-1.3253002552782427,,
,4620.0,319.0,3325.0,794.0,12.0,1424.0,3673.0,,,,-0.700509352509855,-2.9217602180592,-1.12632017990162,,-1.3596903509588676,,
,4620.0,319.0,3327.0,796.0,5.0,1401.0,3687.0,,,,-0.700347650047496,-2.92178559733967,-1.12736817560751,,-1.3897076942501927,,
,4625.0,324.0,3328.0,794.0,26.0,1397.0,3688.0,,,,-0.70062555120565,-2.92170350021009,-1.12757665841889,,-1.4145103961128755,,
,4625.0,320.0,3328.0,794.0,16.0,1401.0,3684.0,,,,-0.700223773722531,-2.92167225575214,-1.1277198019898,,-1.4329323725113843,,
,4623.0,322.0,3332.0,796.0,15.0,1412.0,3671.0,,,,-0.699947390708762,-2.92165561992829,-1.12710977591032,,-1.4434361740958772,,
,4625.0,321.0,3334.0,796.0,24.0,1409.0,3670.0,,,,-0.699926497710272,-2.92166165398155,-1.12698404099146,,-1.4440871971031226,,
,4630.0,320.0,3336.0,797.0,36.0,1398.0,3697.0,,,,-0.699849151513667,-2.92171255397114,-1.12653844042186,,-1.4325683341970603,,
,4624.0,319.0,3333.0,792.0,35.0,1395.0,3699.0,,,,-0.699790292481481,-2.92164112434429,-1.12631312099137,,-1.4062497473397804,,
,4627.0,318.0,3334.0,795.0,31.0,1395.0,3692.0,,,,-0.699505956185174,-2.92145611149535,-1.12584904069586,,-1.362321436308615,,
,4626.0,322.0,3339.0,797.0,36.0,1398.0,3688.0,,,,-0.699758073105097,-2.92147578872524,-1.12549386320953,,-1.297987473338489,,
,4629.0,323.0,3344.0,799.0,26.0,1392.0,3685.0,,,,-0.699317317705382,-2.92164319584386,-1.12639908255425,,-1.2107110446279774,,
,4632.0,320.0,3342.0,798.0,11.0,1393.0,3689.0,,,,-0.699729225181497,-2.92157894217796,-1.12653695988498,,-1.0984898713091609,,
,4632.0,319.0,3343.0,799.0,30.0,1397.0,3670.0,,,,-0.70045995587842,-2.92160352775687,-1.12655484130378,,-0.9601337166374148,,
,4631.0,322.0,3346.0,799.0,15.0,1422.0,3689.0,,,,-0.700611482789468,-2.92173284441007,-1.12681555355536,,-0.7955114260652496,,
,4632.0,322.0,3349.0,800.0,26.0,1397.0,3692.0,,,,-0.701165024922038,-2.92185825370819,-1.12711568999189,,-0.6057358866155478,,
,4635.0,320.0,3352.0,801.0,24.0,1388.0,3684.0,,,,-0.701692259901087,-2.92194204809088,-1.12888180210337,,-0.39326173420872546,,
,4635.0,322.0,3353.0,803.0,20.0,1395.0,3692.0,,,,-0.702143662495413,-2.92195018835448,-1.12833170264668,,-0.16188113359661005,,
,4636.0,320.0,3352.0,800.0,17.0,1416.0,3714.0,,,,-0.703295871502918,-2.92204897989567,-1.12925265413069,,0.08338505547121602,,
,4637.0,323.0,3355.0,802.0,18.0,1401.0,3694.0,,,,-0.703705217449278,-2.9222451014512,-1.12898651188759,,0.33649231002345287,,
,4642.0,321.0,3356.0,803.0,17.0,1415.0,3703.0,,,,-0.703338381385263,-2.9222049935833,-1.12966494034728,,0.5906563795817502,,
,4639.0,323.0,3358.0,803.0,13.0,1414.0,3702.0,,,,-0.704015809610404,-2.92224735817088,-1.13102068514894,,0.8386925595837575,,
,4643.0,321.0,3361.0,803.0,37.0,1410.0,3701.0,,,,-0.704308297056705,-2.9223123927471,-1.13098605378697,,1.0733830289399893,,
,4642.0,321.0,3363.0,803.0,35.0,1417.0,3692.0,,,,-0.704225354958882,-2.92227025246144,-1.13052180978264,,1.2878436938130708,,
,4643.0,322.0,3367.0,804.0,26.0,1422.0,3695.0,,,,-0.704263765236532,-2.92240308699091,-1.13043274937938,,1.47586294868903,,
,4644.0,324.0,3368.0,803.0,31.0,1406.0,3710.0,,,,-0.703667994576681,-2.92231713852788,-1.13068677841373,,1.6321878692818275,,
,4644.0,324.0,3371.0,804.0,31.0,1405.0,3720.0,,,,-0.704417864687736,-2.92237625970081,-1.13078409336112,,1.752738597590801,,
,4647.0,323.0,3371.0,804.0,25.0,1408.0,3695.0,,,,-0.704558510019835,-2.92236852643322,-1.13060716040464,,1.8347390618065174,,
,4648.0,323.0,3374.0,807.0,21.0,1426.0,3697.0,,,,-0.704405496914669,-2.92242047328649,-1.13134981116599,,1.8767612550020745,,
,4649.0,324.0,3378.0,808.0,39.0,1425.0,3691.0,,,,-0.704223865544626,-2.92231740387442,-1.12969785555224,,1.8786897997172491,,
,4651.0,323.0,3377.0,809.0,54.0,1421.0,3684.0,,,,-0.703876007838642,-2.92229800933383,-1.13003981050626,,1.841621485955865,,
,4651.0,322.0,3380.0,805.0,42.0,1411.0,3677.0,,,,-0.703965918954506,-2.92236672288145,-1.13055151303395,,1.767719142726965,,
,4654.0,324.0,3383.0,809.0,39.0,1404.0,3698.0,,,,-0.703947761341832,-2.92227405643997,-1.1311299637132,,1.660040034747076,,
,4657.0,325.0,3385.0,808.0,24.0,1409.0,3700.0,,,,-0.70415752136982,-2.92219694635071,-1.13099765160222,,1.522356715492292,,
,4657.0,324.0,3388.0,810.0,19.0,1416.0,3701.0,,,,-0.703958687628439,-2.92227981571717,-1.13121836443445,,1.3589841946076133,,
,4658.0,323.0,3386.0,808.0,20.0,1419.0,3702.0,,,,-0.704010337566057,-2.92222300382207,-1.13029047738897,,1.1746223785608716,,
,4657.0,323.0,3390.0,811.0,13.0,1426.0,3697.0,,,,-0.70420427566124,-2.92219817627466,-1.13110493160811,,0.9742175425821584,,
,4660.0,325.0,3396.0,811.0,3.0,1414.0,3702.0,,,,-0.703729234356794,-2.92241726100876,-1.13078141380787,,0.762841548771105,,
,4660.0,325.0,3397.0,812.0,17.0,1408.0,3699.0,,,,-0.704140597306371,-2.92231760883616,-1.1305919871653,,0.5455833321572333,,
,4662.0,326.0,3398.0,814.0,26.0,1399.0,3697.0,,,,-0.704061209099445,-2.92223347736793,-1.12992971610889,,0.3274445650025002,,
,4661.0,323.0,3402.0,810.0,36.0,1409.0,3690.0,,,,-0.703829583944204,-2.92214693555142,-1.13057243455111,,0.11323082704065979,,
,4665.0,325.0,3402.0,813.0,31.0,1407.0,3707.0,,,,-0.703509487713477,-2.92232201618535,-1.13002043618931,,-0.09256877964071888,,
,4668.0,326.0,3404.0,815.0,21.0,1394.0,3702.0,,,,-0.703794955746901,-2.92230759977259,-1.13017887297964,,-0.2859167905016112,,
,4667.0,325.0,3407.0,814.0,13.0,1412.0,3706.0,,,,-0.703451130852731,-2.92213848683724,-1.12990836380391,,-0.46337467285562617,,
2025-07-03 21:58:57,4668.0,325.0,3408.0,813.0,27.0,1419.0,3691.0,,,2025/07/03 09:58:57 PM,-0.703291834445916,-2.92218414891003,-1.13017619413444,,-0.6222525930231864,,
,4670.0,324.0,3412.0,815.0,29.0,1405.0,3698.0,,,,-0.703541544544924,-2.92217368501999,-1.1304743915713,,-0.760745509883972,,
,4674.0,326.0,3415.0,817.0,12.0,1432.0,3706.0,,,,-0.70314235911283,-2.92235364101622,-1.13022769983054,,-0.8780355840429769,,
,4673.0,326.0,3417.0,815.0,9.0,1427.0,3693.0,,,,-0.703729469400593,-2.92211111865824,-1.13051859415572,,-0.9743411157843707,,
,4674.0,324.0,3420.0,814.0,18.0,1430.0,3680.0,,,,-0.703340386682423,-2.92222375666987,-1.13019708954387,,-1.050896617333316,,
,4674.0,327.0,3421.0,815.0,12.0,1431.0,3674.0,,,,-0.703359611380937,-2.92221981051076,-1.13024931504116,,-1.1098560086857683,,
,4675.0,324.0,3422.0,815.0,24.0,1422.0,3686.0,,,,-0.703212124436291,-2.92212538747496,-1.12922286664237,,-1.1541196840203107,,
,4673.0,326.0,3420.0,814.0,12.0,1410.0,3666.0,,,,-0.703187573614099,-2.92223761139501,-1.13064654991031,,-1.1870950014567077,,
,4669.0,327.0,3415.0,811.0,12.0,1411.0,3669.0,,,,-0.703276870162838,-2.92215291207085,-1.13036160990919,,-1.2124077179481982,,
,4667.0,325.0,3409.0,806.0,29.0,1422.0,3703.0,,,,-0.703776325522255,-2.92223967839692,-1.13027558891975,,-1.2335883096602849,,
,4659.0,325.0,3401.0,808.0,34.0,1411.0,3692.0,,,,-0.703438395486465,-2.9222826922775,-1.13049157396701,,-1.253761272712241,,
,4656.0,327.0,3394.0,804.0,29.0,1422.0,3687.0,,,,-0.703903055135039,-2.92222077745386,-1.13024761663679,,-1.2753668022378042,,
,4648.0,325.0,3393.0,800.0,40.0,1427.0,3686.0,,,,-0.703978865519752,-2.92223364305934,-1.12998759423823,,-1.2999423836269157,,
,4644.0,322.0,3387.0,796.0,59.0,1404.0,3715.0,,,,-0.704210445766327,-2.92236471845241,-1.1297519935379,,-1.32798673295672,,
,4641.0,322.0,3384.0,797.0,36.0,1408.0,3715.0,,,,-0.704146987839891,-2.92230044768643,-1.13158244068476,,-1.3589203592283245,,
,4636.0,326.0,3383.0,796.0,40.0,1424.0,3683.0,,,,-0.703209828369597,-2.92226419118727,-1.13018996045694,,-1.391146342661732,,
,4633.0,322.0,3382.0,794.0,33.0,1417.0,3681.0,,,,-0.703605639005214,-2.92223642524616,-1.13052536317594,,-1.4222029444938753,,
,4629.0,323.0,3378.0,792.0,29.0,1427.0,3695.0,,,,-0.703487014768958,-2.92239172946115,-1.13118799862162,,-1.4489883764600053,,
,4625.0,320.0,3377.0,789.0,20.0,1409.0,3703.0,,,,-0.704068575862456,-2.92227091750728,-1.13079775467758,,-1.4680298244173535,,
,4626.0,323.0,3376.0,791.0,20.0,1421.0,3686.0,,,,-0.704030401623436,-2.92229778553307,-1.1304292573114,,-1.475765389760011,,
,4625.0,322.0,3377.0,791.0,27.0,1437.0,3686.0,,,,-0.703961983349477,-2.92229739560261,-1.13054746331365,,-1.468809245278283,,
,4622.0,321.0,3375.0,789.0,31.0,1431.0,3688.0,,,,-0.703245815230868,-2.92223787957094,-1.13013871580602,,-1.4441758100512099,,
,4618.0,319.0,3373.0,788.0,34.0,1414.0,3688.0,,,,-0.703276718564142,-2.92225595277891,-1.13033246752448,,-1.3994463900868894,,
,4620.0,322.0,3376.0,789.0,35.0,1419.0,3678.0,,,,-0.702972383328323,-2.92212300795468,-1.13040292328001,,-1.3328701148184046,,
,4619.0,322.0,3374.0,790.0,22.0,1396.0,3675.0,,,,-0.703172065834114,-2.92221778031658,-1.13159943620566,,-1.243399289604819,,
,4617.0,321.0,3378.0,788.0,17.0,1412.0,3678.0,,,,-0.702858480185622,-2.92232188533409,-1.1294766266421,,-1.1306668798221329,,
,4615.0,322.0,3376.0,789.0,0.0,1397.0,3697.0,,,,-0.702808843703203,-2.92218025019563,-1.13047408730824,,-0.9949201470869461,,
,4613.0,321.0,3378.0,788.0,17.0,1416.0,3683.0,,,,-0.702507484773887,-2.92202637357833,-1.129519972097,,-0.8369289596324909,,
,4613.0,321.0,3380.0,790.0,24.0,1410.0,3692.0,,,,-0.703290285077562,-2.92212650717755,-1.13071253959364,,-0.6578896096661652,,
,4613.0,323.0,3381.0,788.0,34.0,1408.0,3684.0,,,,-0.70261425933502,-2.92215737107488,-1.1292395828903,,-0.45934466217996645,,
,4614.0,322.0,3381.0,788.0,30.0,1409.0,3696.0,,,,-0.702512183250652,-2.92217454940818,-1.13063833633244,,-0.24313588309078998,,
,4614.0,322.0,3382.0,786.0,28.0,1405.0,3707.0,,,,-0.701819954005079,-2.92214281851783,-1.12970492440541,,-0.011400314895343546,,
,4613.0,322.0,3382.0,790.0,53.0,1398.0,3675.0,,,,-0.702494710043198,-2.92219043215305,-1.12923378108104,,0.23339037251101616,,
,4613.0,322.0,3387.0,788.0,48.0,1422.0,3698.0,,,,-0.702853807320681,-2.92199724060731,-1.12943209615334,,0.48835815289303713,,
,4613.0,322.0,3389.0,790.0,44.0,1426.0,3706.0,,,,-0.70244936696162,-2.922120888345,-1.12945622528133,,0.7501347246402,,
,4613.0,320.0,3388.0,787.0,41.0,1432.0,3702.0,,,,-0.702184617522415,-2.92216183345431,-1.12908084051013,,1.014790658317374,,
,4616.0,323.0,3391.0,791.0,23.0,1419.0,3689.0,,,,-0.702262543050382,-2.92214126118919,-1.12950178966524,,1.2778027560015768,,
,4616.0,324.0,3392.0,790.0,17.0,1420.0,3694.0,,,,-0.702765138211382,-2.92202491478392,-1.12916772817094,,1.5340801880319228,,
,4616.0,323.0,3395.0,792.0,25.0,1418.0,3688.0,,,,-0.702050692742187,-2.92194167109352,-1.1287410622105,,1.7780624425500455,,
,4615.0,322.0,3398.0,788.0,36.0,1409.0,3698.0,,,,-0.702577986637281,-2.921909846216,-1.12959611419499,,2.003892993357673,,
,4615.0,322.0,3399.0,789.0,24.0,1411.0,3694.0,,,,-0.702597833532369,-2.92214503490117,-1.12972816759399,,2.2056627256778834,,
,4615.0,324.0,3401.0,791.0,37.0,1417.0,3711.0,,,,-0.70182412900161,-2.92204753153642,-1.12920557073504,,2.377707266162945,,
,4616.0,322.0,3402.0,791.0,52.0,1425.0,3691.0,,,,-0.701831212817854,-2.92197663941113,-1.12843663716609,,2.5149333967148078,,
,4615.0,325.0,3403.0,793.0,46.0,1430.0,3684.0,,,,-0.701535825734268,-2.92195726460458,-1.12916250569898,,2.6131429288527825,,
,4614.0,324.0,3405.0,790.0,30.0,1432.0,3683.0,,,,-0.701827217711971,-2.92191311656401,-1.12900897482543,,2.6693190759917447,,
,4617.0,323.0,3411.0,792.0,20.0,1437.0,3693.0,,,,-0.701797856421698,-2.92187147573277,-1.12848546353065,,2.681841594869116,,
,4618.0,322.0,3411.0,792.0,15.0,1423.0,3688.0,,,,-0.702263601094713,-2.9219889914132,-1.12850601272117,,2.650603427589996,,
,4620.0,326.0,3412.0,792.0,26.0,1423.0,3699.0,,,,-0.701456459172083,-2.92178635938203,-1.12850987313441,,2.577013079967704,,
,4613.0,325.0,3413.0,791.0,33.0,1420.0,3696.0,,,,-0.701428629342396,-2.92193098531222,-1.12825561860193,,2.4638820541657602,,
,4616.0,324.0,3413.0,791.0,39.0,1419.0,3684.0,,,,-0.701509500339982,-2.92199373192807,-1.12836586530012,,2.3152124478431704,,
,4621.0,322.0,3415.0,792.0,34.0,1404.0,3702.0,,,,-0.701513569668323,-2.92179126872335,-1.12741629710614,,2.1359128177656848,,
,4620.0,323.0,3418.0,793.0,14.0,1418.0,3695.0,,,,-0.701518648063344,-2.92194360862557,-1.12832585623559,,1.9314778420611796,,
,4618.0,325.0,3420.0,792.0,18.0,1414.0,3711.0,,,,-0.701404535704678,-2.92193291165706,-1.1286458217063,,1.7076682888966381,,
,4614.0,323.0,3417.0,790.0,33.0,1426.0,3705.0,,,,-0.701067060228015,-2.92185017061073,-1.12844485335554,,1.4702231303209075,,
,4619.0,325.0,3424.0,792.0,30.0,1423.0,3679.0,,,,-0.701024658498641,-2.92182299419806,-1.12783403236467,,1.2246270326801652,,
,4616.0,326.0,3422.0,794.0,28.0,1407.0,3686.0,,,,-0.700881736972001,-2.92190818853198,-1.12797411614031,,0.9759457441024707,,
,4618.0,324.0,3427.0,793.0,21.0,1415.0,3677.0,,,,-0.70113655503068,-2.92190453202601,-1.12849540970104,,0.7287307768967823,,
,4616.0,322.0,3424.0,790.0,28.0,1425.0,3656.0,,,,-0.701098001056655,-2.92187292238098,-1.12769548241285,,0.4869847905638885,,
,4620.0,325.0,3427.0,795.0,36.0,1411.0,3663.0,,,,-0.701200746701314,-2.92183248160689,-1.12770995615827,,0.25417151041495234,,
,4621.0,327.0,3429.0,793.0,41.0,1417.0,3691.0,,,,-0.701060929902369,-2.9218027994121,-1.12724777847716,,0.03324971581007207,,
,4619.0,326.0,3431.0,794.0,38.0,1426.0,3701.0,,,,-0.7011075127943,-2.92185122664038,-1.12818724934986,,-0.17328980492804189,,
,4622.0,323.0,3434.0,795.0,40.0,1423.0,3708.0,,,,-0.701060988410361,-2.9218789705411,-1.12731953989364,,-0.3634023245691354,,
,4622.0,324.0,3435.0,792.0,32.0,1452.0,3689.0,,,,-0.700551623247883,-2.92189987685001,-1.12839653963547,,-0.5354936747379557,,
,4623.0,324.0,3437.0,793.0,29.0,1434.0,3693.0,,,,-0.700637390114831,-2.92187102696089,-1.1267495917135,,-0.6884534597832208,,
,4623.0,325.0,3442.0,796.0,32.0,1401.0,3686.0,,,,-0.700873317585526,-2.92183405316267,-1.12691353426692,,-0.8217094925988139,,
,4624.0,326.0,3442.0,796.0,42.0,1385.0,3682.0,,,,-0.700570990261163,-2.92180843398148,-1.12753586206903,,-0.935287937574771,,
,4623.0,326.0,3446.0,796.0,40.0,1409.0,3682.0,,,,-0.700470525501119,-2.9217696468699,-1.12697720177409,,-1.0298594749209933,,
,4627.0,325.0,3448.0,795.0,19.0,1428.0,3681.0,,,,-0.700218199746099,-2.92191267621754,-1.12622647818917,,-1.1067522867046125,,
,4626.0,325.0,3448.0,795.0,33.0,1430.0,3674.0,,,,-0.700342039536914,-2.9217728532048,-1.12651442248729,,-1.167917124919272,,
,4625.0,323.0,3451.0,797.0,27.0,1436.0,3672.0,,,,-0.700392040860348,-2.92180490364119,-1.12762455242848,,-1.215836642990866,,
,4627.0,323.0,3451.0,796.0,19.0,1426.0,3682.0,,,,-0.700331103225804,-2.92183808403545,-1.12753261328236,,-1.253379075868816,,
,4628.0,329.0,3455.0,798.0,32.0,1413.0,3698.0,,,,-0.700817416649292,-2.92195963643815,-1.12810135826271,,-1.2836041739596278,,
,4631.0,327.0,3458.0,799.0,33.0,1417.0,3697.0,,,,-0.701594808859655,-2.92197753621311,-1.12779234262391,,-1.309536244444323,,
,4631.0,325.0,3460.0,799.0,34.0,1423.0,3717.0,,,,-0.702280586509862,-2.92220277249716,-1.12828517300354,,-1.3339245172097798,,
,4632.0,327.0,3464.0,800.0,42.0,1424.0,3690.0,,,,-0.702896138775406,-2.92221240665412,-1.12945086078977,,-1.3590142070576812,,
,4635.0,326.0,3465.0,800.0,46.0,1399.0,3702.0,,,,-0.703570244556006,-2.92225364370213,-1.12935731756754,,-1.3863521556539193,,
,4633.0,328.0,3466.0,799.0,34.0,1420.0,3674.0,,,,-0.703650018484627,-2.92219735642506,-1.12959932830539,,-1.4166485720191742,,
,4636.0,327.0,3470.0,801.0,31.0,1417.0,3684.0,,,,-0.704560571696905,-2.92242792488513,-1.13036641520797,,-1.4497110966497588,,
,4638.0,326.0,3471.0,800.0,34.0,1415.0,3687.0,,,,-0.705273881905366,-2.9224117366911,-1.13080069692184,,-1.4844594429586524,,
,4639.0,326.0,3477.0,800.0,41.0,1421.0,3690.0,,,,-0.705465779314567,-2.92252446692603,-1.13076899186354,,-1.5190190378643171,,
,4641.0,329.0,3477.0,802.0,32.0,1425.0,3708.0,,,,-0.705391091343026,-2.92253129267537,-1.13121740522348,,-1.5508819530895075,,
,4640.0,328.0,3482.0,805.0,20.0,1415.0,3709.0,,,,-0.705925968320682,-2.9225895332897,-1.13133165164084,,-1.5771150782247085,,
,4642.0,329.0,3481.0,805.0,22.0,1418.0,3694.0,,,,-0.705996649529379,-2.92268276420962,-1.13051550446591,,-1.5945907966570925,,
,4641.0,328.0,3483.0,804.0,32.0,1422.0,3680.0,,,,-0.70637224769848,-2.92266555169697,-1.13155302195464,,-1.6002151127517563,,
,4643.0,327.0,3487.0,804.0,30.0,1417.0,3703.0,,,,-0.706503997468974,-2.92281401095981,-1.13219401193741,,-1.5911315543691782,,
,4649.0,332.0,3490.0,805.0,22.0,1420.0,3694.0,,,,-0.706480106942003,-2.92273065228124,-1.13243297052863,,-1.5648847849698817,,
,4647.0,327.0,3492.0,805.0,26.0,1425.0,3691.0,,,,-0.706651739251052,-2.92273202832038,-1.13276295478637,,-1.5195344003951226,,
,4649.0,328.0,3493.0,806.0,23.0,1436.0,3692.0,,,,-0.706258197131442,-2.92261979063042,-1.13178035377124,,-1.4537160579711605,,
,4648.0,327.0,3495.0,804.0,27.0,1442.0,3685.0,,,,-0.706296141021198,-2.92268983337489,-1.1323632785328,,-1.366653377015591,,
,4652.0,328.0,3496.0,808.0,23.0,1430.0,3693.0,,,,-0.706715550185181,-2.92269163855981,-1.13127236231088,,-1.258129496505997,,
,4654.0,329.0,3502.0,809.0,19.0,1426.0,3681.0,,,,-0.706584891169088,-2.92274195279124,-1.13233387744562,,-1.1284313712813252,,
,4654.0,328.0,3502.0,805.0,25.0,1411.0,3677.0,,,,-0.706940877530934,-2.92270668168246,-1.1314777610889,,-0.9782825157625225,,
,4657.0,328.0,3502.0,808.0,24.0,1423.0,3673.0,,,,-0.706820727548691,-2.92283764096171,-1.13238522483028,,-0.8087806012059775,,
,4658.0,329.0,3507.0,809.0,44.0,1411.0,3689.0,,,,-0.706305374720656,-2.92278719780939,-1.13161108401191,,-0.6213545517384131,,
,4661.0,332.0,3509.0,811.0,39.0,1416.0,3694.0,,,,-0.706284251410874,-2.922674394373,-1.13283863310479,,-0.4177511125235587,,
,4659.0,329.0,3511.0,810.0,35.0,1405.0,3685.0,,,,-0.706729905287301,-2.922539271429,-1.13085401692308,,-0.2000535235560485,,
,4661.0,331.0,3515.0,810.0,21.0,1415.0,3662.0,,,,-0.706665755640345,-2.92260408340841,-1.13197246735528,,0.029273644441631438,,
,4661.0,331.0,3518.0,811.0,34.0,1409.0,3671.0,,,,-0.706639108963815,-2.92251981312014,-1.13166483467609,,0.26732693501081956,,
,4665.0,331.0,3522.0,813.0,21.0,1395.0,3701.0,,,,-0.706403742709381,-2.92269184512757,-1.13160884448412,,0.5107115397706327,,
,4670.0,328.0,3521.0,813.0,19.0,1390.0,3679.0,,,,-0.706787219518596,-2.92270314162129,-1.13199787429547,,0.7555122798642531,,
,4669.0,331.0,3526.0,815.0,22.0,1399.0,3687.0,,,,-0.706229139420932,-2.92259311439468,-1.13074449309699,,0.9973039157935847,,
,4668.0,328.0,3524.0,811.0,33.0,1400.0,3707.0,,,,-0.706523042128394,-2.9226155729249,-1.13182658696051,,1.2312124367447068,,
,4671.0,333.0,3529.0,813.0,29.0,1406.0,3719.0,,,,-0.706395033912877,-2.92269162757819,-1.13152154459733,,1.4520337441976023,,
,4674.0,332.0,3534.0,813.0,24.0,1410.0,3697.0,,,,-0.705860832547128,-2.92258809491267,-1.13109622770696,,1.6544099381606823,,
,4674.0,331.0,3535.0,816.0,21.0,1417.0,3693.0,,,,-0.70591839501964,-2.92274004026071,-1.13168965822707,,1.833056196907941,,
,4672.0,331.0,3535.0,813.0,17.0,1423.0,3699.0,,,,-0.705856606619341,-2.92261529069273,-1.13098397305841,,1.9830235494803474,,
,4674.0,331.0,3539.0,816.0,14.0,1421.0,3693.0,,,,-0.705776622645928,-2.92269819695005,-1.13153086681197,,2.0999758131035335,,
,4679.0,332.0,3540.0,817.0,30.0,1404.0,3687.0,,,,-0.706070301900768,-2.92269991782656,-1.13169565276932,,2.1804539238965943,,
,4675.0,331.0,3542.0,817.0,34.0,1426.0,3679.0,,,,-0.706210020406572,-2.92271981847632,-1.13124829742016,,2.222099043658949,,
,4677.0,332.0,3543.0,818.0,8.0,1438.0,3688.0,,,,-0.705963594565019,-2.92249525804211,-1.13116979309179,,2.223808182777374,,
,4679.0,330.0,3546.0,816.0,19.0,1415.0,3709.0,,,,-0.706026377623669,-2.92252418236651,-1.13071229368839,,2.1858031100515727,,
,4677.0,331.0,3543.0,813.0,11.0,1389.0,3704.0,,,,-0.706193389983179,-2.92268806554778,-1.13193621246704,,2.109604370352407,,
,4675.0,332.0,3541.0,814.0,17.0,1400.0,3701.0,,,,-0.705863670314265,-2.92262692059222,-1.13116322002127,,1.9979152012253232,,
,4672.0,329.0,3538.0,808.0,32.0,1394.0,3694.0,,,,-0.706360891552925,-2.92265443007634,-1.1320070181907,,1.854432035784138,,
,4670.0,330.0,3534.0,805.0,28.0,1420.0,3705.0,,,,-0.706342020109443,-2.92282024041685,-1.13108067743079,,1.6836064768444594,,
,4663.0,330.0,3527.0,806.0,35.0,1409.0,3696.0,,,,-0.706168763386425,-2.92267791489686,-1.13146043127213,,1.490386886611253,,
,4658.0,330.0,3528.0,802.0,30.0,1414.0,3698.0,,,,-0.706787768475688,-2.92273390496115,-1.13203595655056,,1.2799662719085654,,
,4654.0,329.0,3524.0,801.0,34.0,1418.0,3687.0,,,,-0.706662170723561,-2.9224807971132,-1.13200865209238,,1.057558006603326,,
,4650.0,329.0,3521.0,799.0,31.0,1429.0,3706.0,,,,-0.706514604415211,-2.92261668662447,-1.13163552568394,,0.8282133945273726,,
,4646.0,327.0,3519.0,797.0,25.0,1415.0,3708.0,,,,-0.706100542730371,-2.92251170273257,-1.13190413396822,,0.5966864263386822,,
,4644.0,327.0,3519.0,798.0,24.0,1420.0,3692.0,,,,-0.70619612956731,-2.92260113877686,-1.13236107291937,,0.3673426712255582,,
,4641.0,328.0,3517.0,796.0,23.0,1425.0,3686.0,,,,-0.70593338977653,-2.92259778583325,-1.13127545849245,,0.1441024173770311,,
,4639.0,328.0,3515.0,794.0,22.0,1408.0,3695.0,,,,-0.706106526662727,-2.92268726533425,-1.13116008660623,,-0.0695959353375184,,
,4638.0,329.0,3516.0,792.0,25.0,1412.0,3690.0,,,,-0.706210126698273,-2.92247236740778,-1.13172392540364,,-0.27082686371356873,,
,4634.0,327.0,3514.0,794.0,27.0,1411.0,3686.0,,,,-0.706017940355468,-2.92267269431506,-1.1319985203591,,-0.4572146026475928,,
,4636.0,329.0,3517.0,793.0,26.0,1402.0,3684.0,,,,-0.705870007838756,-2.92252051271192,-1.13123078978788,,-0.6269809757708724,,
,4634.0,329.0,3519.0,795.0,31.0,1402.0,3696.0,,,,-0.705775357984504,-2.92271565468294,-1.13091820408518,,-0.7790008582220098,,
,4634.0,325.0,3514.0,791.0,26.0,1404.0,3706.0,,,,-0.705646766042962,-2.92254452400242,-1.13183015484415,,-0.9128539796622931,,
2025-07-03 21:58:58,4632.0,329.0,3515.0,792.0,34.0,1410.0,3701.0,,,2025/07/03 09:58:58 PM,-0.707351842125955,-2.92273754306975,-1.13211172571015,,-1.0288566299112978,,
,4633.0,329.0,3517.0,793.0,28.0,1407.0,3679.0,,,,-0.707078489449816,-2.92267696503676,-1.13101417107979,,-1.1280559696883723,,
,4632.0,329.0,3519.0,794.0,18.0,1410.0,3665.0,,,,-0.707214725436996,-2.92274051571339,-1.13017763077176,,-1.2121730061333227,,
,4631.0,325.0,3516.0,791.0,13.0,1410.0,3702.0,,,,-0.70751055191365,-2.92264166485717,-1.13098523653607,,-1.2834866634737196,,
,4632.0,324.0,3516.0,791.0,42.0,1389.0,3702.0,,,,-0.707149992744954,-2.92274337390557,-1.1307135429681,,-1.344659297765247,,
,4630.0,326.0,3520.0,793.0,24.0,1381.0,3695.0,,,,-0.707180453637255,-2.92277578507894,-1.13102226241082,,-1.3985123183181358,,
,4634.0,327.0,3520.0,793.0,21.0,1386.0,3696.0,,,,-0.707444762229244,-2.92274984905784,-1.13104445384587,,-1.4477684081478384,,
,4632.0,329.0,3519.0,794.0,15.0,1402.0,3738.0,,,,-0.706835121875662,-2.92254269820959,-1.13162293425886,,-1.4947832821258245,,
,4633.0,327.0,3522.0,794.0,20.0,1387.0,3720.0,,,,-0.707161585589731,-2.92259043302047,-1.13093024957721,,-1.5412940105397883,,
,4634.0,329.0,3521.0,794.0,20.0,1412.0,3699.0,,,,-0.706473590013361,-2.92235715875635,-1.1299472248163,,-1.5882118336042301,,
,4633.0,326.0,3524.0,794.0,13.0,1425.0,3693.0,,,,-0.706398868992519,-2.92249096715971,-1.13115414091822,,-1.6354845970516365,,
,4636.0,326.0,3524.0,794.0,14.0,1426.0,3692.0,,,,-0.706663593148159,-2.92269477389203,-1.13007274717792,,-1.6820473602696138,,
,4636.0,326.0,3525.0,792.0,25.0,1419.0,3690.0,,,,-0.706663996191224,-2.92254732705169,-1.13002193752581,,-1.7258698143019122,,
,4635.0,327.0,3527.0,796.0,22.0,1420.0,3704.0,,,,-0.706631356451776,-2.92254458716941,-1.13017016317916,,-1.7640971181889502,,
,4637.0,327.0,3527.0,795.0,27.0,1413.0,3694.0,,,,-0.706594079411227,-2.92270991985649,-1.13038378490706,,-1.7932687167040744,,
,4638.0,328.0,3531.0,796.0,25.0,1411.0,3690.0,,,,-0.706340140050568,-2.92249745598914,-1.13053757898414,,-1.8095901666405063,,
,4638.0,327.0,3529.0,794.0,22.0,1417.0,3686.0,,,,-0.706904111975799,-2.92266562246972,-1.1298021535595,,-1.8092278905003483,,
,4635.0,327.0,3530.0,795.0,20.0,1416.0,3710.0,,,,-0.706069487997695,-2.92262060097936,-1.13047519309678,,-1.788596532919283,,
,4637.0,327.0,3532.0,797.0,21.0,1420.0,3677.0,,,,-0.706270418398628,-2.92264951918674,-1.1302787144764,,-1.7446122676740548,,
,4638.0,330.0,3531.0,795.0,25.0,1419.0,3703.0,,,,-0.705958561049836,-2.92251173207075,-1.13052272760821,,-1.6748915685404016,,
,4635.0,329.0,3534.0,795.0,7.0,1418.0,3711.0,,,,-0.706477861647292,-2.92253047406786,-1.12937759848045,,-1.5778825386343418,,
,4637.0,327.0,3535.0,794.0,10.0,1416.0,3701.0,,,,-0.706220308454572,-2.92247492456484,-1.12986973774748,,-1.4529242603381594,,
,4637.0,329.0,3535.0,795.0,19.0,1418.0,3708.0,,,,-0.706111014603441,-2.92245917493612,-1.12978764207774,,-1.300238196623077,,
,4636.0,328.0,3534.0,799.0,21.0,1398.0,3703.0,,,,-0.70634714251067,-2.9224378673468,-1.13041492491723,,-1.1208636273739492,,
,4635.0,326.0,3535.0,794.0,21.0,1405.0,3705.0,,,,-0.705703349872619,-2.9223230765101,-1.12910340721931,,-0.9165554508981919,,
,4636.0,328.0,3537.0,796.0,29.0,1420.0,3703.0,,,,-0.705571542337096,-2.92253256509201,-1.13031944639531,,-0.6896663680780215,,
,4637.0,328.0,3535.0,792.0,21.0,1405.0,3707.0,,,,-0.705310387169708,-2.92245205707697,-1.12889367764221,,-0.4430354427070671,,
,4636.0,326.0,3540.0,796.0,21.0,1413.0,3692.0,,,,-0.706008697558163,-2.92219917572559,-1.12986444965664,,-0.17990059542225723,,
,4638.0,327.0,3539.0,797.0,26.0,1419.0,3698.0,,,,-0.70662927712669,-2.92242605223195,-1.12973543650587,,0.09615586770484626,,
,4637.0,328.0,3539.0,796.0,26.0,1421.0,3703.0,,,,-0.706963599104924,-2.92267571379674,-1.13055490076883,,0.3812300911909232,,
,4638.0,327.0,3539.0,793.0,16.0,1416.0,3674.0,,,,-0.707602605675748,-2.92283635110386,-1.13084205522094,,0.671098805335537,,
,4637.0,328.0,3541.0,795.0,17.0,1407.0,3704.0,,,,-0.708925244615137,-2.92291249668257,-1.13231771731238,,0.9612176779498431,,
,4639.0,330.0,3543.0,797.0,21.0,1428.0,3710.0,,,,-0.708959995246779,-2.92295675084366,-1.13227263098703,,1.2467342864883717,,
,4638.0,328.0,3542.0,796.0,24.0,1428.0,3722.0,,,,-0.709830720603201,-2.92318543203914,-1.13221661922767,,1.522531803139211,,
,4636.0,326.0,3540.0,794.0,18.0,1438.0,3686.0,,,,-0.710438243732262,-2.92326494494988,-1.13370635805104,,1.7833146886071913,,
,4640.0,328.0,3544.0,797.0,28.0,1419.0,3688.0,,,,-0.710845065407034,-2.92329830542731,-1.13398312895698,,2.0237413943501137,,
,4640.0,329.0,3546.0,797.0,28.0,1423.0,3677.0,,,,-0.711416527145255,-2.92327954309416,-1.13386195281499,,2.2386018411631623,,
,4639.0,330.0,3544.0,798.0,16.0,1417.0,3697.0,,,,-0.711862408699953,-2.9232557924706,-1.13346584002715,,2.4230298625810955,,
,4640.0,330.0,3545.0,796.0,37.0,1417.0,3700.0,,,,-0.712122725137507,-2.92341399983525,-1.13435196664447,,2.572733788851966,,
,4644.0,328.0,3549.0,799.0,40.0,1412.0,3671.0,,,,-0.71185807963528,-2.92349067591051,-1.13432998960404,,2.6842230711771187,,
,4644.0,330.0,3551.0,800.0,28.0,1419.0,3675.0,,,,-0.712251600592428,-2.92335300292993,-1.13422883743199,,2.755006496891697,,
,4643.0,330.0,3552.0,800.0,34.0,1417.0,3687.0,,,,-0.711810462659428,-2.92335788931148,-1.13519651236479,,2.7837390565663047,,
,4643.0,329.0,3551.0,798.0,43.0,1404.0,3692.0,,,,-0.712025436379884,-2.92344036812032,-1.13421061648332,,2.7703001711971695,,
,4642.0,328.0,3554.0,800.0,38.0,1412.0,3714.0,,,,-0.712202175083287,-2.92333666897987,-1.13502662780299,,2.7157949439102653,,
,4645.0,330.0,3556.0,801.0,25.0,1409.0,3706.0,,,,-0.71175315174917,-2.92336440589296,-1.13530794070344,,2.6224803547959543,,
,4645.0,331.0,3557.0,800.0,6.0,1407.0,3690.0,,,,-0.711780599557982,-2.92332762545262,-1.13422602952896,,2.4936273752799742,,
,4647.0,330.0,3558.0,801.0,5.0,1414.0,3704.0,,,,-0.711812430060211,-2.92346770705044,-1.134485204694,,2.3333360096247597,,
,4648.0,328.0,3559.0,800.0,19.0,1404.0,3695.0,,,,-0.711512077994132,-2.92338217464938,-1.13451111714425,,2.146322766947728,,
,4651.0,328.0,3562.0,804.0,31.0,1414.0,3694.0,,,,-0.711500237629009,-2.92350594493201,-1.1344058771054,,1.9376995652457942,,
,4650.0,329.0,3561.0,803.0,35.0,1414.0,3692.0,,,,-0.711693523535088,-2.92348040183219,-1.13450839971385,,1.7127604342274652,,
,4654.0,329.0,3566.0,802.0,35.0,1410.0,3695.0,,,,-0.711557871520561,-2.92339579066893,-1.13449600243745,,1.4767883317345243,,
,4654.0,329.0,3567.0,803.0,30.0,1415.0,3701.0,,,,-0.711771101866642,-2.92341775850401,-1.13418541813393,,1.2348894836384487,,
,4654.0,329.0,3568.0,804.0,16.0,1430.0,3694.0,,,,-0.712026049743689,-2.92337051952288,-1.13324141264991,,0.9918575368830745,,
,4656.0,329.0,3570.0,803.0,9.0,1399.0,3678.0,,,,-0.711726976058021,-2.92346467649323,-1.13499937668124,,0.7520652915265419,,
,4659.0,330.0,3570.0,803.0,20.0,1400.0,3688.0,,,,-0.711356408527705,-2.92332424978582,-1.13439774458305,,0.5193787552723375,,
,4660.0,330.0,3574.0,806.0,18.0,1402.0,3681.0,,,,-0.711495219043276,-2.92330211446513,-1.13339657613729,,0.2970875575387692,,
,4657.0,331.0,3575.0,806.0,10.0,1393.0,3706.0,,,,-0.711094510966934,-2.92327469436959,-1.13441448676414,,0.08784773333907031,,
,4659.0,331.0,3575.0,808.0,10.0,1400.0,3733.0,,,,-0.711128215301087,-2.92336490148533,-1.13407730660912,,-0.10636303578618814,,
,4660.0,329.0,3578.0,806.0,28.0,1407.0,3712.0,,,,-0.711054035929082,-2.92333106885256,-1.13432513426417,,-0.28427312301284213,,
,4663.0,331.0,3579.0,808.0,30.0,1410.0,3701.0,,,,-0.711058566175902,-2.92333163448388,-1.13440647122143,,-0.4453201512517874,,
,4665.0,330.0,3577.0,808.0,36.0,1423.0,3718.0,,,,-0.710896280047444,-2.92318938173231,-1.13372912412212,,-0.589622405734418,,
,4664.0,328.0,3583.0,807.0,34.0,1417.0,3701.0,,,,-0.710745348986405,-2.92324846232084,-1.13346856433226,,-0.7179142565644651,,
,4667.0,334.0,3582.0,809.0,22.0,1421.0,3682.0,,,,-0.711409692242947,-2.92327179641599,-1.13364698803732,,-0.8314460690079161,,
,4669.0,331.0,3588.0,810.0,30.0,1414.0,3691.0,,,,-0.711279888125578,-2.92322064738985,-1.13341923610653,,-0.9318538924300411,,
,4668.0,328.0,3585.0,810.0,16.0,1399.0,3707.0,,,,-0.711227024923774,-2.92328068366994,-1.13504381923294,,-1.021008201848284,,
,4672.0,333.0,3585.0,809.0,15.0,1391.0,3692.0,,,,-0.711319055483733,-2.92325780350735,-1.13371109081695,,-1.1008537699516334,,
,4671.0,331.0,3593.0,811.0,23.0,1406.0,3688.0,,,,-0.711407315829441,-2.92327133920869,-1.13432494006767,,-1.1732542482932613,,
,4672.0,332.0,3593.0,813.0,17.0,1417.0,3687.0,,,,-0.711237067262192,-2.92310138771333,-1.13466123334067,,-1.2398550631230791,,
,4677.0,331.0,3593.0,813.0,29.0,1403.0,3688.0,,,,-0.711078352625518,-2.92334487191332,-1.13415824873303,,-1.3019766246931563,,
,4677.0,331.0,3593.0,813.0,3.0,1428.0,3701.0,,,,-0.711250689309198,-2.92333665818709,-1.13395951660517,,-1.360546569985247,,
,4678.0,334.0,3598.0,814.0,-1.0,1411.0,3723.0,,,,-0.711207081843647,-2.92337113322954,-1.13442083460107,,-1.4160749033221145,,
,4681.0,334.0,3600.0,815.0,5.0,1420.0,3686.0,,,,-0.711202929643097,-2.92337057809737,-1.13475741555417,,-1.4686698229196353,,
,4680.0,331.0,3599.0,813.0,14.0,1424.0,3671.0,,,,-0.710921404841244,-2.92343893256426,-1.1346766373935,,-1.5180856292339087,,
,4680.0,331.0,3603.0,813.0,19.0,1416.0,3676.0,,,,-0.710764747266411,-2.92335502255291,-1.13420815515457,,-1.5637889436298804,,
,4682.0,331.0,3603.0,812.0,19.0,1417.0,3682.0,,,,-0.711150528791153,-2.92349382167864,-1.13475328938578,,-1.605027203775263,,
,4685.0,332.0,3606.0,813.0,21.0,1400.0,3706.0,,,,-0.711260443242347,-2.92346168857055,-1.13552030569542,,-1.6408849580457034,,
,4686.0,334.0,3607.0,814.0,20.0,1411.0,3715.0,,,,-0.711197914091381,-2.92356116035317,-1.13462072541746,,-1.6703183909137853,,
,4687.0,334.0,3609.0,816.0,24.0,1383.0,3705.0,,,,-0.711274059103072,-2.92336986051327,-1.13541386720502,,-1.6921651948225582,,
,4687.0,334.0,3611.0,820.0,14.0,1405.0,3692.0,,,,-0.711023786038477,-2.92343680443658,-1.13427335247835,,-1.7051335852436074,,
,4690.0,332.0,3611.0,819.0,12.0,1419.0,3683.0,,,,-0.71083225481036,-2.92324258968552,-1.13594517239812,,-1.7077797002630832,,
,4694.0,333.0,3616.0,820.0,20.0,1428.0,3677.0,,,,-0.711140662035244,-2.92326112740301,-1.1343092784448,,-1.6984861807441716,,
,4690.0,333.0,3615.0,816.0,22.0,1424.0,3674.0,,,,-0.710668059417631,-2.92329541259413,-1.1344585884271,,-1.6754560193281807,,
,4689.0,331.0,3615.0,818.0,17.0,1410.0,3673.0,,,,-0.710501391731918,-2.92333495101062,-1.13431190176135,,-1.6367346304678974,,
,4693.0,334.0,3620.0,822.0,14.0,1418.0,3697.0,,,,-0.710666077613799,-2.9232844099641,-1.1346969890298,,-1.5802696926647415,,
,4696.0,333.0,3618.0,821.0,6.0,1431.0,3703.0,,,,-0.710440490289785,-2.92335810403631,-1.13325689226677,,-1.5040131230706622,,
,4695.0,331.0,3619.0,819.0,8.0,1415.0,3692.0,,,,-0.710199032412653,-2.92338022381597,-1.13393909046316,,-1.4060631743881307,,
,4688.0,330.0,3613.0,812.0,41.0,1408.0,3702.0,,,,-0.709920361103304,-2.92325596485263,-1.13441190155926,,-1.2848377517916645,,
,4689.0,332.0,3612.0,814.0,33.0,1405.0,3679.0,,,,-0.710317133511974,-2.92315990411764,-1.13338009520626,,-1.1392634649288895,,
,4682.0,332.0,3607.0,808.0,12.0,1402.0,3696.0,,,,-0.709758686195125,-2.92332676433674,-1.13416701166859,,-0.9689598573679435,,
,4680.0,335.0,3603.0,808.0,18.0,1397.0,3701.0,,,,-0.709721738778845,-2.92312169242544,-1.13340818672959,,-0.7743961476197568,,
,4676.0,331.0,3599.0,805.0,27.0,1398.0,3692.0,,,,-0.709345733960123,-2.92334893731257,-1.1327015761559,,-0.5569997329959688,,
,4667.0,329.0,3596.0,802.0,18.0,1421.0,3696.0,,,,-0.70902459006459,-2.92341772325602,-1.13296418530236,,-0.31920152490192755,,
,4664.0,331.0,3592.0,801.0,23.0,1390.0,3693.0,,,,-0.709486195554649,-2.9230963629915,-1.13309102955721,,-0.06441141746213995,,
,4660.0,331.0,3591.0,802.0,11.0,1424.0,3692.0,,,,-0.708900925801299,-2.9232591080597,-1.13368986768802,,0.20307425596235024,,
,4659.0,332.0,3590.0,799.0,18.0,1424.0,3689.0,,,,-0.708985951180674,-2.92322773240297,-1.13353935758009,,0.4782241815992466,,
,4656.0,329.0,3586.0,797.0,26.0,1444.0,3671.0,,,,-0.709044989413445,-2.92320323700671,-1.13220793388272,,0.7554680876182043,,
,4652.0,331.0,3588.0,797.0,27.0,1419.0,3678.0,,,,-0.708831651611205,-2.92306379073925,-1.13246266628458,,1.0289197786720639,,
,4653.0,331.0,3590.0,798.0,21.0,1424.0,3698.0,,,,-0.708403299255182,-2.92314160540397,-1.13395458347667,,1.2926084629602688,,
,4650.0,333.0,3586.0,796.0,12.0,1421.0,3694.0,,,,-0.708456964076774,-2.92302533263436,-1.13204009910082,,1.5407005122681674,,
,4647.0,332.0,3587.0,796.0,21.0,1423.0,3688.0,,,,-0.708397143544208,-2.92315149329753,-1.13206627400141,,1.7676965792242763,,
,4647.0,330.0,3587.0,796.0,18.0,1412.0,3706.0,,,,-0.708095632537302,-2.92310245808797,-1.13344989860036,,1.9685934738738393,,
,4648.0,330.0,3586.0,795.0,8.0,1397.0,3690.0,,,,-0.708295969023998,-2.92315749684971,-1.13221095922465,,2.1390060377627798,,
,4649.0,332.0,3587.0,796.0,5.0,1408.0,3691.0,,,,-0.708211879281572,-2.92302474085343,-1.13250688804655,,2.2752508356355134,,
,4648.0,330.0,3588.0,796.0,16.0,1408.0,3685.0,,,,-0.708213615722489,-2.92290300534151,-1.13183335562056,,2.3743996184465543,,
,4642.0,329.0,3589.0,794.0,22.0,1403.0,3711.0,,,,-0.708013048223609,-2.92295031965726,-1.13250756921672,,2.434314427667834,,
,4645.0,331.0,3588.0,794.0,19.0,1427.0,3692.0,,,,-0.70779137119742,-2.92283603553436,-1.13160219284412,,2.4536763031706768,,
,4645.0,331.0,3589.0,796.0,21.0,1403.0,3689.0,,,,-0.707760994128924,-2.92295516449032,-1.13204213424123,,2.4320155202529237,,
,4643.0,331.0,3590.0,796.0,17.0,1400.0,3694.0,,,,-0.70751499348941,-2.92296378012629,-1.13241746178593,,2.3697446104623867,,
,4643.0,327.0,3585.0,793.0,11.0,1403.0,3699.0,,,,-0.707727380911847,-2.92303443515074,-1.13191374382117,,2.268188674238196,,
,4645.0,330.0,3591.0,796.0,15.0,1408.0,3709.0,,,,-0.70769197431863,-2.92291990462651,-1.1313192892875,,2.1296028973665466,,
,4646.0,331.0,3592.0,797.0,23.0,1398.0,3681.0,,,,-0.707101236420621,-2.92286521027907,-1.13146804099065,,1.9571656392263246,,
,4645.0,329.0,3593.0,796.0,25.0,1395.0,3690.0,,,,-0.707256263957373,-2.92290404946664,-1.13287801326492,,1.7549365501650525,,
,4645.0,328.0,3592.0,795.0,16.0,1395.0,3687.0,,,,-0.707747883621592,-2.92303920269624,-1.13160019117587,,1.5277719115359896,,
,4644.0,328.0,3593.0,795.0,23.0,1399.0,3682.0,,,,-0.707255973069566,-2.92287193280828,-1.13178773352147,,1.281192947027771,,
,4647.0,330.0,3593.0,797.0,9.0,1416.0,3707.0,,,,-0.707228681709245,-2.92287175834011,-1.13136251275995,,1.02120680317605,,
,4644.0,331.0,3598.0,798.0,13.0,1429.0,3708.0,,,,-0.70707123281937,-2.92289023835391,-1.13170607016899,,0.7540841550419384,,
,4646.0,332.0,3594.0,799.0,4.0,1429.0,3721.0,,,,-0.707110872915564,-2.92281248618954,-1.13123419972544,,0.48610207353689006,,
,4647.0,329.0,3597.0,794.0,11.0,1428.0,3703.0,,,,-0.707087289356453,-2.9228436440896,-1.1320427389606,,0.22326591974689525,,
,4647.0,331.0,3598.0,798.0,10.0,1414.0,3714.0,,,,-0.707028834079738,-2.92273671073619,-1.13140453842372,,-0.028970885578165333,,
,4647.0,331.0,3598.0,797.0,19.0,1401.0,3698.0,,,,-0.706610315244,-2.92268847485524,-1.13053935538934,,-0.2659665385284543,,
,4649.0,331.0,3599.0,800.0,12.0,1403.0,3700.0,,,,-0.706298375195889,-2.92269184614408,-1.13105329758522,,-0.48410619227986385,,
,4649.0,329.0,3598.0,799.0,19.0,1405.0,3677.0,,,,-0.706409153717499,-2.92278306547309,-1.1306988231263,,-0.6809516867826001,,
,4648.0,331.0,3602.0,798.0,29.0,1402.0,3694.0,,,,-0.706137675554461,-2.92273999887465,-1.1308155139774,,-0.8553102388840825,,
,4651.0,332.0,3601.0,800.0,36.0,1406.0,3693.0,,,,-0.705960326200246,-2.9227951937345,-1.13159469850662,,-1.0072145842678446,,
,4650.0,331.0,3600.0,797.0,28.0,1405.0,3701.0,,,,-0.706044428302781,-2.92262210995568,-1.13084536949915,,-1.1378155099549754,,
,4649.0,329.0,3600.0,798.0,28.0,1407.0,3704.0,,,,-0.706086300432266,-2.92258078739332,-1.13094058495674,,-1.2491955452973698,,
,4650.0,331.0,3602.0,799.0,28.0,1400.0,3694.0,,,,-0.706452074214875,-2.92264617859008,-1.13092809622535,,-1.344119260477131,,
,4651.0,333.0,3602.0,801.0,36.0,1411.0,3693.0,,,,-0.706794136253047,-2.92267177599202,-1.13047396910636,,-1.4257409352281154,,
2025-07-03 21:58:59,4653.0,333.0,3602.0,801.0,27.0,1407.0,3695.0,,,2025/07/03 09:58:59 PM,-0.707391776416644,-2.92289393889874,-1.13231497491808,,-1.4972940466799347,,
,4651.0,333.0,3605.0,800.0,23.0,1406.0,3693.0,,,,-0.707717455944552,-2.92309890633507,-1.13259978629622,,-1.5617887689813559,,
,4648.0,331.0,3605.0,798.0,19.0,1412.0,3702.0,,,,-0.708522130599463,-2.9231042609475,-1.13256952605622,,-1.62174322377847,,
,4651.0,330.0,3603.0,801.0,26.0,1417.0,3694.0,,,,-0.709636622217068,-2.92304597172809,-1.13229143287992,,-1.67897133368238,,
,4650.0,333.0,3604.0,801.0,12.0,1414.0,3702.0,,,,-0.710440890628505,-2.92313605986387,-1.13340665543894,,-1.7344445868475509,,
,4655.0,330.0,3604.0,798.0,15.0,1420.0,3692.0,,,,-0.710314227762581,-2.92321585242912,-1.13385139339942,,-1.7882369119448085,,
,4652.0,330.0,3603.0,797.0,20.0,1422.0,3693.0,,,,-0.710724030393181,-2.92342044485236,-1.13429790520937,,-1.8395520558151088,,
,4652.0,330.0,3606.0,799.0,6.0,1420.0,3688.0,,,,-0.711102639243932,-2.92338109402021,-1.13525201574847,,-1.8868231314028072,,
,4654.0,334.0,3607.0,801.0,26.0,1403.0,3702.0,,,,-0.71179492721087,-2.92360112313311,-1.13507152649407,,-1.9278665184187525,,
,4656.0,333.0,3610.0,802.0,21.0,1407.0,3697.0,,,,-0.711400116628891,-2.92349000047758,-1.13461788037488,,-1.9600685665185467,,
,4656.0,330.0,3609.0,799.0,15.0,1418.0,3703.0,,,,-0.711702435185143,-2.92350236277593,-1.13481717336617,,-1.9805837150145953,,
,4658.0,333.0,3608.0,800.0,5.0,1411.0,3684.0,,,,-0.712279692895037,-2.92359356100349,-1.13452670136561,,-1.9865256635533075,,
,4657.0,333.0,3609.0,801.0,31.0,1417.0,3695.0,,,,-0.711988383914835,-2.9236740242247,-1.13563528440148,,-1.9751377104254508,,
,4657.0,332.0,3612.0,798.0,39.0,1401.0,3692.0,,,,-0.712057538826448,-2.92361979563039,-1.13512445541889,,-1.943933277929875,,
,4658.0,331.0,3613.0,802.0,43.0,1397.0,3684.0,,,,-0.712253783231198,-2.92356469247889,-1.13550174901591,,-1.8908024072133771,,
,4659.0,330.0,3610.0,801.0,41.0,1393.0,3693.0,,,,-0.712021887814391,-2.92364495437217,-1.13534431201242,,-1.8140843051021185,,
,4661.0,332.0,3615.0,803.0,20.0,1407.0,3670.0,,,,-0.711677575839607,-2.92359195331862,-1.13450888180449,,-1.7126096331891887,,
,4660.0,332.0,3616.0,804.0,29.0,1397.0,3693.0,,,,-0.711880143044009,-2.92361077491215,-1.13519712938353,,-1.5857190469606295,,
,4662.0,333.0,3616.0,803.0,36.0,1394.0,3712.0,,,,-0.712141321291985,-2.92351254724422,-1.13505911257713,,-1.4332664630643146,,
,4661.0,331.0,3615.0,803.0,33.0,1397.0,3706.0,,,,-0.711953662310971,-2.92353194025376,-1.13569377023477,,-1.2556163722845042,,
,4664.0,335.0,3617.0,804.0,16.0,1394.0,3678.0,,,,-0.711946683351502,-2.92351437018837,-1.13416839955576,,-1.0536436672747278,,
,4668.0,335.0,3619.0,805.0,11.0,1403.0,3693.0,,,,-0.712033617693442,-2.92362042024707,-1.13520040629438,,-0.8287415159827486,,
,4665.0,333.0,3616.0,804.0,25.0,1406.0,3686.0,,,,-0.711884958513913,-2.92360770498081,-1.13532851873798,,-0.5828381424603584,,
,4668.0,332.0,3623.0,806.0,15.0,1421.0,3692.0,,,,-0.711710335339276,-2.92360977238275,-1.1350400887185,,-0.31841829473611033,,
,4667.0,332.0,3621.0,805.0,13.0,1421.0,3698.0,,,,-0.711816915576542,-2.92353522287207,-1.13498458233632,,-0.03854140897448728,,
,4671.0,334.0,3624.0,807.0,15.0,1421.0,3678.0,,,,-0.71179733129152,-2.92335759281756,-1.13486272941468,,0.2531528649072132,,
,4673.0,335.0,3625.0,807.0,33.0,1419.0,3684.0,,,,-0.711800911833197,-2.92349773318584,-1.13512964440542,,0.552460145547053,,
,4672.0,335.0,3623.0,808.0,27.0,1409.0,3680.0,,,,-0.71178156089989,-2.9234006460716,-1.13485780147915,,0.8546539216208289,,
,4675.0,334.0,3625.0,808.0,25.0,1388.0,3716.0,,,,-0.711900350032378,-2.92344155179033,-1.13507324210124,,1.1545588494227157,,
,4675.0,334.0,3625.0,809.0,29.0,1407.0,3697.0,,,,-0.712048392904453,-2.92335902461757,-1.13412745291635,,1.4466559162469297,,
,4675.0,335.0,3628.0,809.0,29.0,1401.0,3697.0,,,,-0.712018376639509,-2.92339991738583,-1.1350521173172,,1.7252182469097368,,
,4677.0,334.0,3632.0,811.0,20.0,1412.0,3698.0,,,,-0.711493806700952,-2.92330039776594,-1.13451849341097,,1.9844738004074827,,
,4676.0,335.0,3630.0,807.0,23.0,1416.0,3710.0,,,,-0.711786153105039,-2.92347912560406,-1.13481629125918,,2.2187886081743806,,
,4680.0,334.0,3631.0,810.0,4.0,1395.0,3702.0,,,,-0.711526417126464,-2.92336938796955,-1.13454775930197,,2.422861788862185,,
,4680.0,336.0,3634.0,812.0,19.0,1391.0,3700.0,,,,-0.711251015510315,-2.92332182230057,-1.13432760462565,,2.5919216965645915,,
,4682.0,335.0,3636.0,814.0,20.0,1400.0,3696.0,,,,-0.711555411902935,-2.92342557043867,-1.13401952364982,,2.721911731962561,,
,4684.0,335.0,3638.0,813.0,29.0,1384.0,3687.0,,,,-0.711537783881032,-2.92338022753047,-1.13482876923586,,2.809655073881253,,
,4682.0,334.0,3635.0,810.0,21.0,1380.0,3706.0,,,,-0.711312704244061,-2.92345178155174,-1.13516560959427,,2.8529898832563774,,
,4687.0,335.0,3639.0,812.0,37.0,1405.0,3713.0,,,,-0.711354187038411,-2.92335708912011,-1.13465733205241,,2.850869531205948,,
,4689.0,334.0,3640.0,813.0,17.0,1407.0,3717.0,,,,-0.711523252399454,-2.92342524500343,-1.13475951672675,,2.8034247146026905,,
,4687.0,335.0,3641.0,812.0,16.0,1408.0,3716.0,,,,-0.711398013674266,-2.92346340159002,-1.13492441567417,,2.711985053124116,,
,4690.0,335.0,3642.0,816.0,8.0,1421.0,3694.0,,,,-0.711211973176856,-2.92360221367114,-1.13327606593093,,2.5790573534130132,,
,4692.0,333.0,3642.0,815.0,7.0,1428.0,3685.0,,,,-0.711465467908736,-2.92335003078554,-1.13528746079813,,2.408257662978557,,
,4694.0,333.0,3648.0,817.0,21.0,1405.0,3664.0,,,,-0.711919459523356,-2.92342432228105,-1.13530403851008,,2.2041957813008692,,
,4696.0,337.0,3648.0,816.0,24.0,1420.0,3660.0,,,,-0.712107584435582,-2.9234844440289,-1.13494477538726,,1.9723140996271749,,
,4693.0,336.0,3646.0,816.0,33.0,1427.0,3677.0,,,,-0.712117975613163,-2.92349410226712,-1.13534699918228,,1.7186865094180999,,
,4697.0,334.0,3649.0,814.0,26.0,1397.0,3687.0,,,,-0.712284529109613,-2.92350185000548,-1.13402368226087,,1.449786468321901,,
,4699.0,334.0,3648.0,819.0,24.0,1415.0,3714.0,,,,-0.711564542818149,-2.92338212918,-1.13438906308856,,1.1722353868027933,,
,4701.0,334.0,3652.0,820.0,16.0,1417.0,3711.0,,,,-0.711378371988542,-2.92335214374746,-1.13431836824248,,0.8925431372334396,,
,4704.0,335.0,3654.0,821.0,17.0,1423.0,3689.0,,,,-0.711334046753654,-2.92350491156344,-1.1339804840911,,0.6168521217026333,,
,4701.0,334.0,3656.0,817.0,6.0,1410.0,3695.0,,,,-0.711300650991429,-2.9234159378919,-1.13417959843714,,0.35069582949750916,,
,4707.0,336.0,3657.0,820.0,23.0,1411.0,3678.0,,,,-0.711272099693994,-2.92348026849318,-1.13435601969371,,0.09878297398779068,,
,4706.0,337.0,3658.0,821.0,32.0,1414.0,3699.0,,,,-0.711352584961176,-2.92350715257199,-1.13505492643771,,-0.1351807872711539,,
,4706.0,336.0,3658.0,821.0,33.0,1406.0,3690.0,,,,-0.711116597395468,-2.92355290224895,-1.13359073263092,,-0.34862077157129606,,
,4710.0,335.0,3657.0,822.0,24.0,1403.0,3695.0,,,,-0.710824820343831,-2.92342386856461,-1.13425062151769,,-0.5401588069086936,,
,4713.0,338.0,3661.0,822.0,35.0,1410.0,3708.0,,,,-0.710659124946293,-2.92333003274887,-1.13347071409588,,-0.7096075387115951,,
,4712.0,337.0,3661.0,824.0,34.0,1427.0,3726.0,,,,-0.710564262242014,-2.92339019850429,-1.13376436487995,,-0.8578900133203082,,
,4715.0,337.0,3664.0,823.0,27.0,1430.0,3727.0,,,,-0.710179308140037,-2.92323194689325,-1.13417632159591,,-0.9868874327839786,,
,4716.0,336.0,3665.0,823.0,19.0,1429.0,3699.0,,,,-0.710388224683071,-2.9233427297595,-1.13384129040522,,-1.099224159167367,,
,4718.0,334.0,3666.0,822.0,31.0,1406.0,3701.0,,,,-0.709761990031209,-2.9229399090763,-1.1335609863353,,-1.198004292424582,,
,4721.0,337.0,3669.0,827.0,19.0,1421.0,3699.0,,,,-0.710235291594316,-2.92321414304957,-1.13317024092205,,-1.2865182588742794,,
,4723.0,337.0,3670.0,828.0,17.0,1431.0,3700.0,,,,-0.709831261593399,-2.92304730521911,-1.13344096216399,,-1.3679407854619792,,
,4723.0,338.0,3673.0,827.0,4.0,1431.0,3695.0,,,,-0.709671978611066,-2.92308780363686,-1.13258598643542,,-1.445043214873126,,
,4721.0,338.0,3674.0,827.0,-2.0,1427.0,3678.0,,,,-0.70986092550984,-2.9231395462886,-1.13243610252486,,-1.5199430356111825,,
,4722.0,338.0,3674.0,828.0,17.0,1423.0,3683.0,,,,-0.709608918240173,-2.92323824225252,-1.13251371825847,,-1.5939114571911432,,
,4724.0,339.0,3673.0,826.0,21.0,1411.0,3700.0,,,,-0.709540540548194,-2.92326203306654,-1.13196171953589,,-1.6672555973485603,,
,4719.0,338.0,3670.0,823.0,28.0,1404.0,3712.0,,,,-0.709282197716909,-2.92310516952763,-1.13268062638214,,-1.7392852649860575,,
,4715.0,336.0,3662.0,820.0,20.0,1426.0,3734.0,,,,-0.709650800968104,-2.92317059929933,-1.13303243832084,,-1.8083657709569487,,
,4713.0,336.0,3660.0,816.0,47.0,1418.0,3708.0,,,,-0.709429763548304,-2.92309918824977,-1.13313561543346,,-1.8720487965758066,,
,4710.0,337.0,3652.0,816.0,33.0,1410.0,3702.0,,,,-0.709131178283667,-2.92307465158265,-1.1314018289524,,-1.9272649422851806,,
,4705.0,337.0,3649.0,813.0,24.0,1401.0,3705.0,,,,-0.709283862070411,-2.92309132464147,-1.13216579940119,,-1.9705560748792115,,
,4702.0,337.0,3646.0,811.0,40.0,1422.0,3705.0,,,,-0.70933834001601,-2.92291584505059,-1.13233208637859,,-1.9983239512105064,,
,4697.0,336.0,3643.0,809.0,28.0,1427.0,3689.0,,,,-0.709069000166693,-2.92303893627073,-1.13180861678811,,-2.0070733393596063,,
,4694.0,336.0,3640.0,810.0,36.0,1421.0,3679.0,,,,-0.709064472765136,-2.92307913016269,-1.13225649767073,,-1.9936316118439936,,
,4694.0,336.0,3637.0,808.0,32.0,1415.0,3673.0,,,,-0.708882721687877,-2.92313446894766,-1.13276607847928,,-1.9553312943806034,,
,4691.0,334.0,3635.0,809.0,36.0,1419.0,3684.0,,,,-0.7088019600805,-2.92283697908214,-1.13231649890729,,-1.8901467100685057,,
,4687.0,332.0,3632.0,805.0,23.0,1414.0,3698.0,,,,-0.70919540616001,-2.92280599446697,-1.13185041373612,,-1.7967805356212005,,
,4687.0,334.0,3632.0,806.0,28.0,1416.0,3686.0,,,,-0.708843249012045,-2.92285535245746,-1.13277271322345,,-1.674700770558436,,
,4686.0,337.0,3631.0,806.0,32.0,1420.0,3708.0,,,,-0.709017162163252,-2.92306158547023,-1.13229473260109,,-1.5241332410029145,,
,4686.0,335.0,3632.0,808.0,26.0,1411.0,3701.0,,,,-0.708730721237841,-2.92290221108272,-1.13146049769305,,-1.346019096602893,,
,4683.0,331.0,3629.0,805.0,18.0,1408.0,3703.0,,,,-0.708764973931774,-2.92280288562913,-1.13195316276773,,-1.141950231926983,,
,4686.0,333.0,3629.0,807.0,26.0,1407.0,3687.0,,,,-0.708519203930336,-2.92288539820397,-1.13145051847603,,-0.9140971264312737,,
,4682.0,336.0,3631.0,808.0,26.0,1411.0,3681.0,,,,-0.708125515488792,-2.92286933131379,-1.13119925233419,,-0.6651421804224015,,
,4683.0,336.0,3632.0,809.0,29.0,1417.0,3685.0,,,,-0.708226197614467,-2.92283829548878,-1.13173985476358,,-0.3982270606731012,,
,4683.0,335.0,3631.0,809.0,35.0,1418.0,3705.0,,,,-0.708446777966631,-2.92286877643645,-1.13129272162509,,-0.11691615887576567,,
,4683.0,334.0,3630.0,807.0,12.0,1416.0,3699.0,,,,-0.708307142103849,-2.92283159131787,-1.1310506105956,,0.17482778754317016,,
,4684.0,334.0,3631.0,807.0,37.0,1412.0,3680.0,,,,-0.708409762489225,-2.92297443216638,-1.13109377224836,,0.4726638066405995,,
,4687.0,337.0,3630.0,808.0,17.0,1415.0,3678.0,,,,-0.707951759904765,-2.92285162255719,-1.13079077117549,,0.771897894596271,,
,4685.0,336.0,3632.0,809.0,24.0,1428.0,3682.0,,,,-0.708047086662479,-2.92304415769151,-1.13020454611701,,1.067522401603838,,
,4683.0,333.0,3630.0,806.0,40.0,1417.0,3693.0,,,,-0.708524016860601,-2.92289966014371,-1.13047231397053,,1.354277511272606,,
,4683.0,334.0,3633.0,809.0,20.0,1417.0,3736.0,,,,-0.708022374735028,-2.92285738037442,-1.13123298827689,,1.6267408101282186,,
,4688.0,337.0,3631.0,811.0,22.0,1407.0,3713.0,,,,-0.707969269025996,-2.92294183630795,-1.1302519553865,,1.8794480345560105,,
,4684.0,336.0,3633.0,811.0,28.0,1419.0,3714.0,,,,-0.707674423670385,-2.92282041130717,-1.13006386604971,,2.1070440807803004,,
,4685.0,334.0,3634.0,809.0,25.0,1428.0,3712.0,,,,-0.707132834058872,-2.92276250706829,-1.13100102643199,,2.304458657455183,,
,4685.0,334.0,3634.0,810.0,29.0,1409.0,3713.0,,,,-0.707417285950632,-2.92268697726609,-1.13094616949147,,2.4670963403951967,,
,4689.0,335.0,3638.0,812.0,31.0,1408.0,3718.0,,,,-0.706905918926864,-2.92266205745256,-1.13055324526116,,2.5910272445513622,,
,4691.0,335.0,3637.0,813.0,37.0,1417.0,3692.0,,,,-0.707195958145946,-2.92272735974678,-1.13033394348266,,2.6731630307961156,,
,4689.0,336.0,3635.0,812.0,35.0,1416.0,3695.0,,,,-0.707146635873893,-2.92270568235523,-1.12984074165384,,2.7114041109427625,,
,4691.0,335.0,3637.0,810.0,28.0,1405.0,3706.0,,,,-0.707496447569889,-2.92283207624323,-1.13074590503563,,2.7047474361661794,,
,4691.0,333.0,3639.0,813.0,28.0,1426.0,3699.0,,,,-0.707887102561395,-2.92303652538692,-1.13100600648009,,2.653348831197632,,
,4690.0,336.0,3636.0,812.0,37.0,1422.0,3696.0,,,,-0.709051360712525,-2.92329301004775,-1.1312251835174,,2.558537752935649,,
,4691.0,336.0,3640.0,811.0,38.0,1411.0,3690.0,,,,-0.709393601755732,-2.92308526453257,-1.13174127954617,,2.4227847100967477,,
,4691.0,334.0,3639.0,812.0,39.0,1405.0,3684.0,,,,-0.710520022483137,-2.92315398222927,-1.13255827007751,,2.249622867728716,,
,4694.0,337.0,3639.0,812.0,29.0,1413.0,3684.0,,,,-0.711133035037686,-2.92326215476958,-1.13271708723297,,2.0435267284060665,,
,4697.0,337.0,3639.0,815.0,13.0,1418.0,3678.0,,,,-0.711592744583145,-2.92330432663515,-1.13381638664604,,1.8097528575684783,,
,4696.0,339.0,3641.0,814.0,20.0,1413.0,3680.0,,,,-0.711915761794114,-2.92343835537427,-1.13403112629443,,1.5541500087408358,,
,4694.0,336.0,3639.0,814.0,17.0,1400.0,3698.0,,,,-0.71261839967611,-2.92345031811391,-1.13466928672809,,1.2829477320459728,,
,4693.0,336.0,3639.0,811.0,27.0,1411.0,3697.0,,,,-0.712707584091375,-2.92363715478828,-1.13485343143656,,1.0025328737488473,,
,4696.0,335.0,3641.0,816.0,31.0,1414.0,3694.0,,,,-0.713401650136103,-2.92363386878349,-1.13565683053156,,0.7192223151948801,,
,4698.0,337.0,3641.0,815.0,19.0,1421.0,3689.0,,,,-0.713515598853946,-2.92376609734096,-1.13627965000299,,0.43903867465891033,,
,4696.0,335.0,3639.0,816.0,26.0,1419.0,3686.0,,,,-0.71372908893576,-2.92370856727025,-1.13532264133189,,0.16749475179915477,,
,4696.0,333.0,3640.0,813.0,37.0,1411.0,3669.0,,,,-0.713915696933732,-2.92393254624365,-1.13646596017128,,-0.09060674724261251,,
,4697.0,337.0,3641.0,812.0,25.0,1415.0,3679.0,,,,-0.713729680633209,-2.92371801138388,-1.13550363903373,,-0.33134910946398377,,
,4699.0,339.0,3642.0,814.0,23.0,1420.0,3703.0,,,,-0.714069876209914,-2.92381224166045,-1.13640581726911,,-0.5518408253838332,,
,4698.0,337.0,3641.0,815.0,25.0,1411.0,3689.0,,,,-0.713923024921125,-2.92369666151201,-1.13536563380491,,-0.7503038281319159,,
,4699.0,336.0,3641.0,815.0,29.0,1418.0,3697.0,,,,-0.714241397169048,-2.92365905803118,-1.1356088689435,,-0.9260973950377408,,
,4699.0,336.0,3643.0,815.0,20.0,1402.0,3697.0,,,,-0.714444827099762,-2.92373509681882,-1.13568536521065,,-1.0796685851261967,,
,4700.0,337.0,3644.0,814.0,36.0,1390.0,3687.0,,,,-0.713993226460077,-2.92380994452044,-1.13549496176629,,-1.2124268177223398,,
,4702.0,339.0,3644.0,817.0,26.0,1396.0,3683.0,,,,-0.714148792832484,-2.92378601466951,-1.13541512160982,,-1.326547990838613,,
,4701.0,336.0,3643.0,815.0,18.0,1401.0,3682.0,,,,-0.713625742199459,-2.92372450407612,-1.13651921646575,,-1.4247211236941173,,
,4705.0,338.0,3645.0,815.0,12.0,1405.0,3668.0,,,,-0.713883010424378,-2.92375021773778,-1.13570510749182,,-1.509857054551564,,
,4703.0,338.0,3647.0,819.0,26.0,1420.0,3672.0,,,,-0.713561550260977,-2.92370097747384,-1.13518000800154,,-1.5847836339214818,,
,4706.0,337.0,3645.0,818.0,19.0,1420.0,3673.0,,,,-0.713838400251691,-2.92380869783876,-1.13562837288867,,-1.6519545433852743,,
,4707.0,338.0,3650.0,818.0,27.0,1432.0,3684.0,,,,-0.713776546872156,-2.92363630092516,-1.1363433371806,,-1.7131988484478482,,
,4707.0,336.0,3647.0,819.0,23.0,1434.0,3702.0,,,,-0.713607118450279,-2.9238622461736,-1.13584266496918,,-1.7695353899416308,,
,4708.0,340.0,3651.0,817.0,38.0,1412.0,3699.0,,,,-0.714061961551202,-2.92384697747796,-1.13561976847295,,-1.8210700960234296,,
,4709.0,338.0,3653.0,819.0,39.0,1409.0,3680.0,,,,-0.713685472970839,-2.92379768178994,-1.13550149310695,,-1.8669855184740267,,
,4709.0,339.0,3653.0,822.0,39.0,1417.0,3684.0,,,,-0.713665635212378,-2.92362562309365,-1.13508876026432,,-1.9056212036429028,,
2025-07-03 21:59:00,4710.0,338.0,3652.0,819.0,9.0,1422.0,3688.0,,,2025/07/03 09:59:00 PM,-0.714047883011236,-2.92357648782253,-1.13599683735491,,-1.9346325566805913,,
,4710.0,341.0,3654.0,819.0,26.0,1424.0,3689.0,,,,-0.713669135940426,-2.9235223192123,-1.13579968237909,,-1.9512068570139638,,
,4713.0,336.0,3654.0,823.0,31.0,1418.0,3709.0,,,,-0.713170322682351,-2.9237042082273,-1.13540081863132,,-1.9523099166486235,,
,4714.0,339.0,3657.0,825.0,32.0,1408.0,3712.0,,,,-0.71340349434586,-2.92363249836044,-1.13576087125937,,-1.9349361722337781,,
,4718.0,339.0,3656.0,823.0,30.0,1401.0,3684.0,,,,-0.713715207039346,-2.92361296509719,-1.13477324183505,,-1.8963380076751695,,
,4716.0,339.0,3656.0,822.0,17.0,1415.0,3680.0,,,,-0.713391675131797,-2.92368717976078,-1.1356790931299,,-1.834215452532874,,
,4720.0,338.0,3658.0,822.0,9.0,1414.0,3673.0,,,,-0.713397398682314,-2.9236553775532,-1.13430951913345,,-1.746854017740598,,
,4721.0,341.0,3660.0,821.0,44.0,1424.0,3673.0,,,,-0.713680816293785,-2.92359493162471,-1.13565426904284,,-1.633205738526666,,
,4718.0,338.0,3660.0,824.0,41.0,1413.0,3678.0,,,,-0.714030690212059,-2.92359635170021,-1.13492849308741,,-1.4929160487464708,,
,4720.0,337.0,3662.0,823.0,33.0,1416.0,3693.0,,,,-0.713499797906169,-2.92368461333613,-1.13548421641582,,-1.3263062601023834,,
