TimeLabel,MEAS1_PPG1,MEAS1_PPG2,MEAS1_PPG3,MEAS1_PPG4,ACCX,ACCY,ACCZ,HR_timestamp,HR_value,radar_timestamp,phase_rx0,phase_rx1,phase_rx2,timestep,n_process,original_rate,calculated_rate
2025-07-21 21:21:11,9444.0,3070.0,11798.0,2316.0,2187.0,3188.0,-968.0,2025-07-21 21:21:32,91.0,2025/07/21 09:21:11 PM,-0.554001749191532,-2.87710546113136,-0.730779357557421,2025/07/21 09:21:11 PM,-9.492300737480084,8.534850120544434,11.504587155963304
,9445.0,3072.0,11801.0,2315.0,2196.0,3184.0,-965.0,2025-07-21 21:21:33,91.0,,-0.554271064900289,-2.87700696521211,-0.730511910898459,2025/07/21 09:21:21 PM,-9.602641437572162,12.73344612121582,11.267853994004586
,9449.0,3072.0,11804.0,2322.0,2199.0,3184.0,-944.0,2025-07-21 21:21:34,91.0,,-0.554493226176281,-2.87695259368019,-0.729145157438323,2025/07/21 09:21:31 PM,-9.693824656192271,11.295180320739746,13.19318593693367
,9449.0,3074.0,11804.0,2321.0,2212.0,3197.0,-938.0,2025-07-21 21:21:35,91.0,,-0.554888265690143,-2.87696939538164,-0.730011993703166,2025/07/21 09:21:41 PM,-9.769606761161754,12.116315841674805,11.329829874409903
,9447.0,3077.0,11803.0,2323.0,2211.0,3202.0,-942.0,2025-07-21 21:21:36,91.0,,-0.555778623499408,-2.87704402525041,-0.728045972880019,2025/07/21 09:21:51 PM,-9.83298330289165,12.03852367401123,12.26533166458072
,9447.0,3075.0,11804.0,2322.0,2193.0,3201.0,-943.0,2025-07-21 21:21:37,90.0,,-0.556683842219369,-2.87700365834849,-0.728047518433132,2025/07/21 09:22:01 PM,-9.88624446911,12.534818649291992,11.267853994004593
,9449.0,3075.0,11803.0,2323.0,2204.0,3214.0,-925.0,2025-07-21 21:21:38,89.0,,-0.556949490555979,-2.877186866644,-0.727350566796306,2025/07/21 09:22:11 PM,-9.931099499828393,11.627906799316406,11.990455358918275
,9451.0,3077.0,11800.0,2325.0,2202.0,3212.0,-925.0,2025-07-21 21:21:39,89.0,,-0.557722165504644,-2.87720018044562,-0.727731068029847,2025/07/21 09:22:21 PM,-9.968837580331371,11.838990211486816,11.704545454545439
,9451.0,3077.0,11800.0,2323.0,2202.0,3211.0,-921.0,2025-07-21 21:21:40,88.0,,-0.558238644160074,-2.87692336522964,-0.72736928539265,2025/07/21 09:22:31 PM,-10.000489393846593,11.6913480758667,12.246173070915344
,9446.0,3071.0,11791.0,2319.0,2210.0,3217.0,-911.0,2025-07-21 21:21:40,89.0,,-0.558808006066385,-2.87700979513127,-0.725876868821188,2025/07/21 09:22:41 PM,-10.026955611848626,11.829652786254885,10.769230769230766
,9443.0,3065.0,11787.0,2316.0,2203.0,3228.0,-925.0,2025-07-21 21:21:42,89.0,,-0.559257890962195,-2.87686916032398,-0.726537463858782,2025/07/21 09:22:51 PM,-10.049075815887743,12.008005142211914,11.017520215633418
,9440.0,3063.0,11786.0,2314.0,2207.0,3229.0,-932.0,2025-07-21 21:21:43,89.0,,-0.55972538753432,-2.87690197136544,-0.725367650987801,2025/07/21 09:23:01 PM,-10.067622239660622,11.398176193237305,10.666877370417193
,9438.0,3059.0,11779.0,2312.0,2204.0,3219.0,-925.0,2025-07-21 21:21:43,90.0,,-0.559961378836688,-2.87694545108368,-0.725229900369515,2025/07/21 09:23:11 PM,-10.083215287624377,11.037527084350586,11.320754716981169
,9431.0,3049.0,11772.0,2310.0,2193.0,3223.0,-917.0,2025-07-21 21:21:45,90.0,,-0.560538347728236,-2.87681524952926,-0.724395735788691,2025/07/21 09:23:21 PM,-10.096170171278063,10.877447128295898,10.533610533610528
,9427.0,3040.0,11768.0,2300.0,2173.0,3232.0,-905.0,2025-07-21 21:21:46,89.0,,-0.561090458887948,-2.87657319141335,-0.724894718754582,2025/07/21 09:23:31 PM,-10.106294757568381,10.77586269378662,10.909992561368709
,9421.0,3036.0,11764.0,2301.0,2173.0,3208.0,-894.0,2025-07-21 21:21:47,88.0,,-0.561199988767949,-2.87690194806369,-0.723427743353423,2025/07/21 09:23:41 PM,-10.112666793055695,11.070111274719238,11.385606874328682
,9419.0,3034.0,11763.0,2297.0,2178.0,3225.0,-893.0,2025-07-21 21:21:48,87.0,,-0.56209726337809,-2.87675494109378,-0.723484312467209,2025/07/21 09:23:51 PM,-10.113423480598588,10.628875732421877,10.485525416001824
,9414.0,3028.0,11761.0,2295.0,2179.0,3226.0,-891.0,2025-07-21 21:21:49,87.0,,-0.562444446413841,-2.87692584092317,-0.722860034085698,2025/07/21 09:24:01 PM,-10.105597861339419,11.389521598815918,9.6
,9411.0,3023.0,11765.0,2289.0,2190.0,3227.0,-907.0,2025-07-21 21:21:49,87.0,,-0.563429898743366,-2.87690397854503,-0.723424125657724,,-10.085034654729123,,
,9406.0,3022.0,11763.0,2290.0,2190.0,3236.0,-894.0,2025-07-21 21:21:50,87.0,,-0.563930723007523,-2.87664614914556,-0.722572417784791,,-10.046412892673672,,
,9406.0,3019.0,11765.0,2289.0,2199.0,3239.0,-915.0,2025-07-21 21:21:52,87.0,,-0.564982194398503,-2.87691362144336,-0.723859276471502,,-9.98339338672344,,
,9406.0,3018.0,11770.0,2286.0,2196.0,3232.0,-935.0,2025-07-21 21:21:53,88.0,,-0.56590979239282,-2.87719770851982,-0.723493023012071,,-9.88889589712962,,
,9404.0,3018.0,11771.0,2285.0,2190.0,3228.0,-921.0,2025-07-21 21:21:54,89.0,,-0.567105734599813,-2.87699493722492,-0.724496320540565,,-9.755495321264723,,
,9402.0,3020.0,11773.0,2286.0,2183.0,3228.0,-931.0,2025-07-21 21:21:55,90.0,,-0.56811056909651,-2.87726015299666,-0.723552052516112,,-9.575910913446274,,
,9405.0,3021.0,11777.0,2285.0,2172.0,3204.0,-948.0,2025-07-21 21:21:56,91.0,,-0.568496720593399,-2.87733914457335,-0.723259714104415,,-9.343549876716656,,
,9407.0,3019.0,11778.0,2282.0,2188.0,3188.0,-957.0,2025-07-21 21:21:57,91.0,,-0.569636699661353,-2.87748284928388,-0.723841788124456,,-9.053057686402704,,
,9405.0,3022.0,11778.0,2283.0,2187.0,3192.0,-957.0,2025-07-21 21:21:58,91.0,,-0.570421241586951,-2.87745912603777,-0.723884008589552,,-8.700822291997264,,
,9406.0,3024.0,11781.0,2284.0,2185.0,3193.0,-938.0,2025-07-21 21:21:58,92.0,,-0.571282162129595,-2.87774052950944,-0.724182368972744,,-8.285378163566556,,
,9407.0,3026.0,11783.0,2286.0,2180.0,3200.0,-942.0,2025-07-21 21:21:59,92.0,,-0.572215390921692,-2.87752864371217,-0.723547254006302,,-7.807660015885835,,
,9408.0,3026.0,11784.0,2284.0,2172.0,3216.0,-962.0,2025-07-21 21:22:01,92.0,,-0.57247962528135,-2.87771008800475,-0.724343472740115,,-7.27106621368779,,
,9411.0,3029.0,11788.0,2286.0,2183.0,3222.0,-969.0,2025-07-21 21:22:02,92.0,,-0.573679057111443,-2.87764632894353,-0.724031202736265,,-6.681308869562153,,
,9409.0,3032.0,11788.0,2285.0,2176.0,3226.0,-959.0,2025-07-21 21:22:02,92.0,,-0.574176514111321,-2.87788611552584,-0.724810498439592,,-6.046050528697734,,
,9411.0,3034.0,11789.0,2285.0,2189.0,3215.0,-958.0,2025-07-21 21:22:04,92.0,,-0.57505220960947,-2.87794443496377,-0.724130681873381,,-5.3743532781647465,,
,9413.0,3036.0,11793.0,2288.0,2186.0,3222.0,-955.0,2025-07-21 21:22:05,92.0,,-0.575587694768842,-2.87799308409862,-0.72410468113598,,-4.675990829822687,,
,9418.0,3038.0,11795.0,2286.0,2191.0,3210.0,-955.0,2025-07-21 21:22:06,92.0,,-0.575823323366843,-2.87802796230985,-0.724573078861953,,-3.960693194481682,,
,9415.0,3042.0,11795.0,2290.0,2180.0,3217.0,-961.0,2025-07-21 21:22:07,92.0,,-0.577030262176077,-2.87818195767957,-0.722950828391209,,-3.237404101446553,,
,9419.0,3041.0,11793.0,2289.0,2191.0,3221.0,-963.0,2025-07-21 21:22:08,93.0,,-0.577975363332717,-2.87807051453095,-0.724097832515292,,-2.5136324431724297,,
,9422.0,3045.0,11796.0,2292.0,2183.0,3214.0,-969.0,2025-07-21 21:22:09,93.0,,-0.57858955681382,-2.87787515585541,-0.723117473729335,,-1.794970942609788,,
,9423.0,3047.0,11798.0,2292.0,2189.0,3209.0,-954.0,2025-07-21 21:22:10,93.0,,-0.579217641404553,-2.87800299819972,-0.72407905161222,,-1.0848382916041819,,
,9427.0,3046.0,11799.0,2293.0,2196.0,3205.0,-960.0,2025-07-21 21:22:10,92.0,,-0.579341606693125,-2.87790473802398,-0.723090973396082,,-0.38447585084966884,,
,9424.0,3049.0,11796.0,2292.0,2182.0,3211.0,-960.0,2025-07-21 21:22:11,92.0,,-0.579872672314365,-2.87760093855383,-0.723321646019137,,0.3068014927457654,,
,9425.0,3050.0,11791.0,2291.0,2189.0,3203.0,-951.0,2025-07-21 21:22:13,91.0,,-0.580512672182299,-2.87772795171577,-0.723233340390186,,0.9911347184305076,,
,9429.0,3051.0,11796.0,2295.0,2198.0,3211.0,-954.0,2025-07-21 21:22:14,91.0,,-0.580615743088534,-2.87783049257138,-0.722916020775429,,1.6714953185333148,,
,9428.0,3053.0,11794.0,2296.0,2197.0,3211.0,-962.0,2025-07-21 21:22:15,90.0,,-0.581199410838158,-2.87798628379995,-0.722945793558967,,2.350990676756078,,
,9426.0,3051.0,11796.0,2293.0,2182.0,3221.0,-939.0,2025-07-21 21:22:16,90.0,,-0.581363626557394,-2.87765976368783,-0.722929651112718,,3.03219152267154,,
,9427.0,3053.0,11792.0,2292.0,2167.0,3212.0,-939.0,2025-07-21 21:22:16,91.0,,-0.581741182407131,-2.8778093027274,-0.72291272962038,,3.716564456367765,,
,9427.0,3051.0,11795.0,2295.0,2185.0,3209.0,-946.0,2025-07-21 21:22:18,91.0,,-0.582158364232818,-2.87781485230535,-0.722535944844895,,4.404074415565114,,
,9428.0,3052.0,11793.0,2294.0,2181.0,3202.0,-956.0,2025-07-21 21:22:19,91.0,,-0.582391880511559,-2.87777598658584,-0.72171448635719,,5.092998898781981,,
,9427.0,3053.0,11794.0,2293.0,2182.0,3203.0,-954.0,2025-07-21 21:22:20,91.0,,-0.583670213079241,-2.87791368905016,-0.722404881551545,,5.779970233475996,,
,9426.0,3051.0,11791.0,2293.0,2182.0,3219.0,-933.0,2025-07-21 21:22:21,91.0,,-0.584484377293634,-2.87788235821248,-0.722006864903937,,6.460235006068162,,
,9427.0,3051.0,11792.0,2293.0,2183.0,3222.0,-947.0,2025-07-21 21:22:22,91.0,,-0.585549949367737,-2.87798491254195,-0.722224429220155,,7.1280928271417565,,
,9424.0,3052.0,11794.0,2294.0,2191.0,3216.0,-935.0,2025-07-21 21:22:23,91.0,,-0.586475380855059,-2.87822807508147,-0.722205487978282,,7.777453918166311,,
,9428.0,3051.0,11793.0,2293.0,2203.0,3218.0,-942.0,2025-07-21 21:22:24,91.0,,-0.587547145278038,-2.87814230956636,-0.723311241995391,,8.402440863333567,,
,9427.0,3050.0,11793.0,2291.0,2184.0,3230.0,-948.0,2025-07-21 21:22:25,90.0,,-0.588727926697892,-2.87833818121502,-0.723696718408767,,8.997956361967539,,
,9423.0,3050.0,11790.0,2292.0,2189.0,3211.0,-956.0,2025-07-21 21:22:26,90.0,,-0.589737060386958,-2.87836379556413,-0.724087129754486,,9.560145416502207,,
,9429.0,3052.0,11795.0,2294.0,2192.0,3231.0,-955.0,2025-07-21 21:22:27,88.0,,-0.590413267006631,-2.87839683619585,-0.723638566648277,,10.086695225309327,,
,9426.0,3053.0,11797.0,2293.0,2204.0,3222.0,-950.0,2025-07-21 21:22:28,87.0,,-0.591734966817924,-2.87858201091077,-0.723936666605701,,10.57693706127688,,
,9426.0,3053.0,11797.0,2295.0,2195.0,3223.0,-943.0,2025-07-21 21:22:29,87.0,,-0.592226566917012,-2.87890401839608,-0.725090430477448,,11.031739553220193,,
,9427.0,3053.0,11798.0,2292.0,2188.0,3225.0,-931.0,2025-07-21 21:22:29,87.0,,-0.592491321656554,-2.87916415142361,-0.725530856318838,,11.453209461003665,,
,9431.0,3053.0,11795.0,2294.0,2201.0,3213.0,-930.0,2025-07-21 21:22:31,88.0,,-0.593430200987232,-2.87906420920379,-0.725621382586193,,11.8442405173016,,
,9429.0,3054.0,11801.0,2294.0,2175.0,3227.0,-941.0,2025-07-21 21:22:31,88.0,,-0.593627796863771,-2.87981240970217,-0.727038335823162,,12.207968541161165,,
,9430.0,3055.0,11800.0,2298.0,2174.0,3229.0,-943.0,2025-07-21 21:22:32,88.0,,-0.593342583612115,-2.87980005410406,-0.727404095579608,,12.547197983050994,,
,9430.0,3055.0,11799.0,2295.0,2177.0,3236.0,-917.0,2025-07-21 21:22:34,88.0,,-0.59415169818523,-2.87994298769534,-0.728546924224498,,12.863860817726955,,
,9431.0,3058.0,11802.0,2297.0,2189.0,3246.0,-922.0,2025-07-21 21:22:35,88.0,,-0.594070364264529,-2.88027091557599,-0.728446941520704,,13.158556706246934,,
,9433.0,3060.0,11800.0,2298.0,2182.0,3247.0,-933.0,2025-07-21 21:22:35,87.0,,-0.594321668548863,-2.88024690024785,-0.728846371534432,,13.43020868593664,,
,9431.0,3060.0,11802.0,2298.0,2174.0,3243.0,-934.0,2025-07-21 21:22:37,88.0,,-0.594426301133246,-2.88054523410574,-0.730482302405755,,13.675854992775953,,
,9435.0,3064.0,11803.0,2300.0,2179.0,3230.0,-934.0,2025-07-21 21:22:37,88.0,,-0.594648084835783,-2.88032802155328,-0.729786155506778,,13.890586260470915,,
,9437.0,3062.0,11801.0,2300.0,2180.0,3236.0,-943.0,2025-07-21 21:22:38,88.0,,-0.594754135198746,-2.88082367754717,-0.730645422166463,,14.06762823705503,,
,9436.0,3065.0,11804.0,2300.0,2184.0,3244.0,-940.0,2025-07-21 21:22:40,89.0,,-0.595068660843749,-2.88068693926842,-0.730045973979307,,14.198563199706221,,
,9438.0,3066.0,11803.0,2302.0,2178.0,3213.0,-949.0,2025-07-21 21:22:41,89.0,,-0.594410818378311,-2.88097871216032,-0.731058067839808,,14.273678486721177,,
,9440.0,3071.0,11805.0,2304.0,2170.0,3208.0,-945.0,2025-07-21 21:22:41,88.0,,-0.595007679455726,-2.8808549758858,-0.731170739338524,,14.28242768405691,,
,9442.0,3068.0,11807.0,2302.0,2184.0,3221.0,-958.0,2025-07-21 21:22:43,89.0,,-0.594790410690154,-2.88092773928106,-0.731385173724088,,14.213987786153968,,
,9442.0,3072.0,11806.0,2304.0,2185.0,3220.0,-960.0,2025-07-21 21:22:44,89.0,,-0.594670862434959,-2.88050991447897,-0.731053685032351,,14.05789214388262,,
,9441.0,3071.0,11806.0,2305.0,2182.0,3227.0,-965.0,2025-07-21 21:22:44,89.0,,-0.59503221247025,-2.88068983711808,-0.730521160168078,,13.804712689779233,,
,9444.0,3074.0,11807.0,2304.0,2183.0,3229.0,-962.0,2025-07-21 21:22:46,89.0,,-0.595984706187581,-2.88090364885245,-0.730745833267898,,13.44675617569331,,
,9445.0,3074.0,11807.0,2305.0,2195.0,3211.0,-969.0,2025-07-21 21:22:47,89.0,,-0.596879263708329,-2.88081251285609,-0.731432623330809,,12.978730337663665,,
,9446.0,3076.0,11807.0,2303.0,2188.0,3211.0,-971.0,2025-07-21 21:22:47,89.0,,-0.596844511623441,-2.8809854690323,-0.731057919518348,,12.398329594176722,,
,9447.0,3076.0,11810.0,2309.0,2186.0,3216.0,-970.0,2025-07-21 21:22:49,89.0,,-0.597241203426882,-2.88096313763718,-0.731846838562971,,11.706687442200025,,
,9445.0,3078.0,11807.0,2307.0,2175.0,3206.0,-957.0,2025-07-21 21:22:50,89.0,,-0.598284123507073,-2.88115955207061,-0.731262411419196,,10.908644879049392,,
,9451.0,3077.0,11807.0,2307.0,2178.0,3210.0,-955.0,2025-07-21 21:22:51,90.0,,-0.598473294672156,-2.88114618161286,-0.732456592732388,,10.012792280157802,,
,9449.0,3079.0,11809.0,2308.0,2179.0,3203.0,-953.0,2025-07-21 21:22:52,91.0,,-0.598842629149477,-2.88118339037113,-0.732192023411689,,9.031257848840452,,
,9454.0,3081.0,11810.0,2309.0,2177.0,3212.0,-954.0,2025-07-21 21:22:53,92.0,,-0.599206613873158,-2.88123384303572,-0.730974113915739,,7.979239369225981,,
,9453.0,3083.0,11812.0,2311.0,2179.0,3213.0,-979.0,2025-07-21 21:22:54,93.0,,-0.600097732821115,-2.88127809681278,-0.732610448576139,,6.874305159452223,,
,9451.0,3082.0,11813.0,2314.0,2181.0,3216.0,-966.0,2025-07-21 21:22:55,93.0,,-0.600239383276498,-2.88138442547967,-0.732258054530183,,5.735519536640169,,
,9455.0,3081.0,11812.0,2312.0,2173.0,3227.0,-967.0,2025-07-21 21:22:56,93.0,,-0.600247456989059,-2.88158884682742,-0.731948216190043,,4.582470927290956,,
,9452.0,3083.0,11813.0,2313.0,2168.0,3218.0,-953.0,2025-07-21 21:22:56,92.0,,-0.60071485368837,-2.88155589930011,-0.732619586772831,,3.434291364325324,,
,9455.0,3087.0,11816.0,2316.0,2166.0,3231.0,-957.0,2025-07-21 21:22:58,92.0,,-0.601251993509518,-2.88176191601267,-0.73350489145691,,2.3087528133816506,,
,9455.0,3085.0,11817.0,2318.0,2151.0,3232.0,-930.0,2025-07-21 21:22:59,93.0,,-0.602277662179258,-2.88185754202045,-0.733818875104664,,1.221511240568961,,
,9457.0,3087.0,11815.0,2319.0,2149.0,3245.0,-932.0,2025-07-21 21:23:00,93.0,,-0.603056886613056,-2.88189349688169,-0.734186870395198,,0.18554824192404135,,
,9458.0,3088.0,11813.0,2319.0,2151.0,3244.0,-935.0,2025-07-21 21:23:01,93.0,,-0.603168544286447,-2.881955226277,-0.733601255085541,,-0.7891636392163442,,
,9459.0,3090.0,11816.0,2322.0,2155.0,3229.0,-937.0,2025-07-21 21:23:02,93.0,,-0.603980372237085,-2.8820220008349,-0.735041452346765,,-1.6957694370159389,,
,9461.0,3090.0,11816.0,2320.0,2190.0,3244.0,-952.0,2025-07-21 21:23:02,93.0,,-0.604091778210126,-2.88239932512678,-0.735117231069498,,-2.5304330702492206,,
,9460.0,3094.0,11816.0,2324.0,2195.0,3234.0,-948.0,2025-07-21 21:23:04,94.0,,-0.604431289415343,-2.88212564278236,-0.735240869973051,,-3.2920673053613863,,
,9459.0,3093.0,11816.0,2326.0,2178.0,3231.0,-941.0,2025-07-21 21:23:05,94.0,,-0.605226857863074,-2.88223306347124,-0.734766797683064,,-3.981938857640652,,
,9459.0,3093.0,11814.0,2325.0,2172.0,3233.0,-931.0,2025-07-21 21:23:06,94.0,,-0.605016251603664,-2.882246616876,-0.734570295187485,,-4.603198462344776,,
,9459.0,3094.0,11815.0,2330.0,2176.0,3231.0,-931.0,2025-07-21 21:23:07,94.0,,-0.604949214256214,-2.88227236494545,-0.734845885877239,,-5.160382174208461,,
,9463.0,3095.0,11813.0,2330.0,2190.0,3229.0,-935.0,2025-07-21 21:23:08,94.0,,-0.605282794383058,-2.8823480661066,-0.734934523815786,,-5.658921486611611,,
,9461.0,3092.0,11812.0,2327.0,2190.0,3234.0,-939.0,2025-07-21 21:23:08,93.0,,-0.605606718397419,-2.8822661046252,-0.73514606153377,,-6.104689163806819,,
,9460.0,3088.0,11808.0,2325.0,2212.0,3227.0,-938.0,2025-07-21 21:23:10,93.0,,-0.605183017926678,-2.88224463614172,-0.734859184486521,,-6.503598119444915,,
,9460.0,3085.0,11800.0,2323.0,2203.0,3220.0,-935.0,2025-07-21 21:23:10,93.0,,-0.605215206561767,-2.88242781845246,-0.735350334848981,,-6.861264071426196,,
,9454.0,3081.0,11797.0,2321.0,2190.0,3236.0,-931.0,2025-07-21 21:23:12,93.0,,-0.605002762986274,-2.88259248595505,-0.735917641070964,,-7.1827389510042465,,
,9449.0,3075.0,11790.0,2318.0,2186.0,3221.0,-934.0,2025-07-21 21:23:13,94.0,,-0.605191442860462,-2.88276282745189,-0.735590175996828,,-7.472319850063839,,
,9443.0,3067.0,11789.0,2313.0,2174.0,3217.0,-894.0,2025-07-21 21:23:14,95.0,,-0.604964936003231,-2.8828274090284,-0.736751562189147,,-7.73343635618547,,
,9435.0,3061.0,11784.0,2309.0,2180.0,3214.0,-911.0,2025-07-21 21:23:14,96.0,,-0.60495589613161,-2.88270220967326,-0.736131934245969,,-7.9686167296647765,,
,9435.0,3056.0,11782.0,2308.0,2195.0,3216.0,-917.0,2025-07-21 21:23:16,96.0,,-0.604881998024222,-2.88271798864558,-0.737004758498388,,-8.17953026717076,,
,9428.0,3054.0,11779.0,2306.0,2191.0,3218.0,-910.0,2025-07-21 21:23:16,95.0,,-0.604926458580615,-2.88305937686081,-0.737751925887088,,-8.367099360437031,,
,9426.0,3051.0,11780.0,2304.0,2183.0,3219.0,-909.0,2025-07-21 21:23:18,95.0,,-0.604598866121883,-2.88297524447647,-0.737854622289819,,-8.53167037445385,,
,9425.0,3043.0,11778.0,2298.0,2183.0,3229.0,-919.0,2025-07-21 21:23:19,94.0,,-0.604418521442746,-2.88308593674895,-0.737698005683787,,-8.67322785978045,,
,9423.0,3041.0,11781.0,2301.0,2198.0,3218.0,-922.0,2025-07-21 21:23:20,94.0,,-0.604566164038033,-2.88331498575451,-0.738601835865885,,-8.791632122761953,,
,9418.0,3037.0,11783.0,2299.0,2211.0,3202.0,-909.0,2025-07-21 21:23:21,93.0,,-0.604303017329026,-2.88332694773331,-0.738955219048879,,-8.886856283770555,,
,9419.0,3042.0,11784.0,2300.0,2209.0,3203.0,-904.0,2025-07-21 21:23:22,92.0,,-0.60429170302213,-2.88334977045808,-0.738332539737343,,-8.959196655744863,,
,9418.0,3037.0,11786.0,2296.0,2229.0,3208.0,-917.0,2025-07-21 21:23:23,92.0,,-0.604132745111972,-2.88363988314103,-0.73955434109256,,-9.00943109765331,,
,9416.0,3036.0,11789.0,2295.0,2223.0,3187.0,-937.0,2025-07-21 21:23:24,92.0,,-0.604120823643739,-2.88373125847057,-0.739918184272198,,-9.038905085343405,,
,9418.0,3039.0,11793.0,2294.0,2221.0,3188.0,-943.0,2025-07-21 21:23:25,92.0,,-0.604276050606479,-2.88367611512253,-0.739754310906634,,-9.049534216000755,,
,9419.0,3041.0,11794.0,2297.0,2229.0,3179.0,-943.0,2025-07-21 21:23:26,92.0,,-0.604275979507781,-2.88392193490392,-0.739946001514716,,-9.043722685402177,,
,9416.0,3038.0,11794.0,2296.0,2225.0,3181.0,-949.0,2025-07-21 21:23:27,92.0,,-0.604544595879172,-2.88378858846067,-0.741204887457152,,-9.024207389777159,,
,9419.0,3040.0,11797.0,2296.0,2210.0,3188.0,-947.0,2025-07-21 21:23:28,91.0,,-0.604502467269902,-2.88385558706618,-0.741232606416569,,-8.993844976646269,,
,9419.0,3044.0,11800.0,2298.0,2204.0,3202.0,-960.0,2025-07-21 21:23:28,91.0,,-0.604646988725877,-2.88394727062513,-0.740842907605116,,-8.955363962695019,,
,9424.0,3045.0,11801.0,2299.0,2227.0,3218.0,-956.0,2025-07-21 21:23:30,91.0,,-0.60482209317537,-2.88406563815742,-0.740510903006003,,-8.911106324128474,,
,9422.0,3047.0,11802.0,2298.0,2238.0,3235.0,-954.0,2025-07-21 21:23:31,91.0,,-0.605232327662182,-2.88414957289657,-0.741517765793467,,-8.862783268676832,,
,9425.0,3048.0,11803.0,2300.0,2243.0,3236.0,-959.0,2025-07-21 21:23:32,91.0,,-0.605600218852734,-2.88382677167644,-0.741554598310594,,-8.811268548180358,,
,9427.0,3051.0,11805.0,2301.0,2222.0,3217.0,-945.0,2025-07-21 21:23:32,91.0,,-0.605520187266867,-2.88440836989446,-0.741453253100566,,-8.756449698897116,,
,9428.0,3055.0,11808.0,2303.0,2213.0,3213.0,-947.0,2025-07-21 21:23:34,91.0,,-0.606365457772994,-2.88421783258475,-0.741334457861682,,-8.697152787807667,,
,9430.0,3054.0,11810.0,2304.0,2200.0,3213.0,-939.0,2025-07-21 21:23:35,92.0,,-0.606483523603677,-2.88432096676961,-0.741781840754913,,-8.631149482721602,,
,9433.0,3059.0,11812.0,2305.0,2206.0,3210.0,-954.0,2025-07-21 21:23:36,92.0,,-0.606534263388078,-2.8844767203872,-0.742728885598957,,-8.555247115206772,,
,9432.0,3058.0,11813.0,2307.0,2199.0,3203.0,-947.0,2025-07-21 21:23:37,92.0,,-0.606283229301189,-2.88459620226129,-0.742507217440299,,-8.465454339924802,,
,9438.0,3063.0,11813.0,2307.0,2185.0,3204.0,-946.0,2025-07-21 21:23:38,92.0,,-0.60630166740222,-2.8844639822115,-0.743244740233792,,-8.357208749785752,,
,9440.0,3063.0,11814.0,2310.0,2172.0,3206.0,-939.0,2025-07-21 21:23:38,92.0,,-0.606975756836472,-2.88458471468814,-0.74385583279521,,-8.2256492368925,,
2025-07-21 21:21:12,9437.0,3062.0,11813.0,2311.0,2172.0,3222.0,-940.0,2025-07-21 21:23:40,92.0,2025/07/21 09:21:12 PM,-0.607033231684762,-2.88472967237096,-0.744650129418161,,-8.06591442099497,,
,9441.0,3064.0,11812.0,2311.0,2165.0,3229.0,-930.0,2025-07-21 21:23:41,92.0,,-0.607378346333959,-2.88532227338102,-0.744825515799507,,-7.873447788133961,,
,9441.0,3065.0,11814.0,2313.0,2175.0,3231.0,-928.0,2025-07-21 21:23:42,93.0,,-0.607644639361207,-2.88520311980764,-0.745862355113623,,-7.6442894833489206,,
,9443.0,3065.0,11813.0,2313.0,2162.0,3246.0,-915.0,2025-07-21 21:23:43,93.0,,-0.607829571436698,-2.88533939290217,-0.746899380401126,,-7.375334295337753,,
,9441.0,3065.0,11814.0,2313.0,2168.0,3244.0,-919.0,2025-07-21 21:23:44,94.0,,-0.608623394239735,-2.88547351824011,-0.746998708763788,,-7.064536346331132,,
,9445.0,3066.0,11812.0,2311.0,2181.0,3251.0,-898.0,2025-07-21 21:23:45,95.0,,-0.608957231946045,-2.8855040793387,-0.746835762832667,,-6.711044419484774,,
,9442.0,3063.0,11810.0,2313.0,2172.0,3229.0,-909.0,2025-07-21 21:23:46,95.0,,-0.60871659870372,-2.88572144487438,-0.747713005470239,,-6.315257973698335,,
,9443.0,3067.0,11813.0,2315.0,2160.0,3203.0,-911.0,2025-07-21 21:23:47,94.0,,-0.609132901168603,-2.88563357773677,-0.747756556606863,,-5.878801709227296,,
,9443.0,3065.0,11811.0,2313.0,2177.0,3207.0,-915.0,2025-07-21 21:23:47,94.0,,-0.609459424860947,-2.88565892208901,-0.747660974079448,,-5.404424111230612,,
,9442.0,3063.0,11814.0,2315.0,2177.0,3203.0,-917.0,2025-07-21 21:23:49,92.0,,-0.609688820156421,-2.88604216830024,-0.748297350437835,,-4.895831028617235,,
,9442.0,3063.0,11810.0,2313.0,2187.0,3220.0,-924.0,2025-07-21 21:23:50,91.0,,-0.609395020391384,-2.88605794722265,-0.748675491864835,,-4.357468846037691,,
,9441.0,3065.0,11812.0,2313.0,2183.0,3218.0,-944.0,2025-07-21 21:23:50,90.0,,-0.610487546333708,-2.88621311431752,-0.749352128322958,,-3.794274359395933,,
,9442.0,3065.0,11811.0,2313.0,2185.0,3211.0,-952.0,2025-07-21 21:23:52,90.0,,-0.61084966053617,-2.88638450763395,-0.748922071196911,,-3.2114110838410084,,
,9441.0,3064.0,11812.0,2315.0,2183.0,3208.0,-943.0,2025-07-21 21:23:52,89.0,,-0.611429953833113,-2.88660082160197,-0.750515327839693,,-2.6140139718192685,,
,9444.0,3065.0,11813.0,2314.0,2186.0,3218.0,-942.0,2025-07-21 21:23:54,89.0,,-0.612252023167313,-2.88679927141673,-0.750776484021766,,-2.006964879977563,,
,9440.0,3063.0,11811.0,2311.0,2186.0,3221.0,-940.0,2025-07-21 21:23:55,89.0,,-0.612803379438702,-2.88689536693033,-0.752261136646807,,-1.3947183491189912,,
,9445.0,3065.0,11812.0,2316.0,2191.0,3233.0,-940.0,2025-07-21 21:23:55,90.0,,-0.612367516243663,-2.88704924581999,-0.751883342093355,,-0.7811912199773642,,
,9444.0,3065.0,11815.0,2313.0,2201.0,3240.0,-925.0,2025-07-21 21:23:57,90.0,,-0.611878983586137,-2.88700003991088,-0.753322049609545,,-0.16972118457507437,,
,9443.0,3067.0,11815.0,2315.0,2187.0,3228.0,-920.0,2025-07-21 21:23:58,90.0,,-0.611806390139147,-2.88741736034133,-0.752937321587099,,0.4369100616315622,,
,9445.0,3065.0,11811.0,2312.0,2185.0,3214.0,-930.0,2025-07-21 21:23:59,90.0,,-0.610892526426994,-2.88770888959249,-0.754816115264159,,1.0364024396828604,,
,9446.0,3065.0,11815.0,2315.0,2189.0,3229.0,-948.0,2025-07-21 21:23:59,89.0,,-0.610913263477784,-2.88813611446323,-0.755948252010312,,1.6268326694421364,,
,9446.0,3069.0,11815.0,2316.0,2196.0,3213.0,-958.0,2025-07-21 21:24:01,89.0,,-0.610348568164528,-2.88805734421249,-0.756157708273566,,2.206544585196934,,
,9447.0,3069.0,11816.0,2315.0,2200.0,3211.0,-952.0,2025-07-21 21:24:01,90.0,,-0.610070137741773,-2.88855847884152,-0.757743449135966,,2.7740613000647887,,
,9447.0,3068.0,11815.0,2315.0,2196.0,3227.0,-948.0,2025-07-21 21:24:03,90.0,,-0.608922946363617,-2.88882544513867,-0.758644860026037,,3.3280422082510626,,
,9451.0,3071.0,11818.0,2317.0,2192.0,3220.0,-971.0,2025-07-21 21:24:04,90.0,,-0.608322707723139,-2.88914109064369,-0.760909838445002,,3.8672980541904285,,
,9451.0,3073.0,11817.0,2318.0,2185.0,3210.0,-953.0,2025-07-21 21:24:05,91.0,,-0.607216655873866,-2.88955698973438,-0.761503153505325,,4.390861778103314,,
,9452.0,3072.0,11820.0,2319.0,2184.0,3212.0,-946.0,2025-07-21 21:24:06,91.0,,-0.605894267713908,-2.88956611308889,-0.764016430479869,,4.89809472580733,,
,9454.0,3075.0,11821.0,2318.0,2187.0,3213.0,-960.0,2025-07-21 21:24:07,91.0,,-0.605062363101671,-2.88973964565432,-0.765508699257326,,5.388792609933172,,
,9452.0,3075.0,11820.0,2317.0,2194.0,3213.0,-958.0,2025-07-21 21:24:08,92.0,,-0.604153892956102,-2.89009275134749,-0.766180888817867,,5.863248443355967,,
,9455.0,3076.0,11821.0,2322.0,2194.0,3226.0,-955.0,2025-07-21 21:24:08,92.0,,-0.604086227197343,-2.89054767103637,-0.768670217731343,,6.322232692085698,,
,9460.0,3078.0,11822.0,2321.0,2186.0,3226.0,-945.0,2025-07-21 21:24:10,92.0,,-0.603048918234496,-2.89072948445025,-0.77028821736425,,6.766863121168857,,
,9460.0,3077.0,11820.0,2321.0,2184.0,3225.0,-932.0,2025-07-21 21:24:11,92.0,,-0.602817737392761,-2.89091368342541,-0.770945290474676,,7.198355533099325,,
,9457.0,3079.0,11820.0,2320.0,2175.0,3218.0,-919.0,2025-07-21 21:24:11,92.0,,-0.602269313117129,-2.89112473686393,-0.771508670574672,,7.6176686819606525,,
,9459.0,3083.0,11821.0,2323.0,2189.0,3205.0,-929.0,2025-07-21 21:24:13,92.0,,-0.602280077766668,-2.89123412946242,-0.771867719515304,,8.025078948774794,,
,9463.0,3083.0,11826.0,2323.0,2194.0,3201.0,-918.0,2025-07-21 21:24:14,92.0,,-0.602044038255225,-2.89118966738214,-0.771825357301092,,8.419739745099433,,
,9463.0,3084.0,11823.0,2322.0,2191.0,3207.0,-925.0,2025-07-21 21:24:14,91.0,,-0.602051417078919,-2.89123928965476,-0.771788841122292,,8.799293811438464,,
,9462.0,3087.0,11826.0,2324.0,2197.0,3214.0,-926.0,2025-07-21 21:24:16,91.0,,-0.602085915322876,-2.89147649134811,-0.773128337315945,,9.159610141029649,,
,9464.0,3087.0,11826.0,2324.0,2184.0,3222.0,-923.0,2025-07-21 21:24:17,91.0,,-0.601994817038422,-2.89162200470254,-0.774754783448782,,9.494708119356915,,
,9464.0,3088.0,11823.0,2322.0,2174.0,3247.0,-920.0,2025-07-21 21:24:18,91.0,,-0.601918973937451,-2.89202408554637,-0.775382474219174,,9.796908676688343,,
,9467.0,3090.0,11826.0,2325.0,2168.0,3235.0,-923.0,2025-07-21 21:24:19,92.0,,-0.602264695734046,-2.89184295083189,-0.776910961553349,,10.057218764562203,,
,9470.0,3091.0,11825.0,2323.0,2173.0,3233.0,-935.0,2025-07-21 21:24:20,92.0,,-0.601357729473657,-2.89205380293023,-0.77671970280864,,10.2659179681378,,
,9471.0,3091.0,11826.0,2323.0,2177.0,3227.0,-947.0,2025-07-21 21:24:21,92.0,,-0.601643103611465,-2.89220053761628,-0.777531571408279,,10.413282632868453,,
,9469.0,3092.0,11824.0,2324.0,2187.0,3219.0,-937.0,2025-07-21 21:24:22,92.0,,-0.601698160872339,-2.8923415572813,-0.777700205298788,,10.490360346691237,,
,9474.0,3095.0,11826.0,2326.0,2185.0,3215.0,-935.0,2025-07-21 21:24:22,92.0,,-0.602063541155049,-2.892101720802,-0.777855098945921,,10.48969992289595,,
,9475.0,3098.0,11828.0,2326.0,2183.0,3225.0,-933.0,2025-07-21 21:24:23,92.0,,-0.602434573261802,-2.89220394114414,-0.777306991770781,,10.40594970826437,,
,9475.0,3099.0,11825.0,2324.0,2164.0,3214.0,-940.0,2025-07-21 21:24:25,93.0,,-0.602856555219105,-2.89215471363859,-0.777973356923036,,10.236257610414857,,
,9474.0,3099.0,11828.0,2326.0,2166.0,3204.0,-931.0,2025-07-21 21:24:26,93.0,,-0.603066745508276,-2.89230412854864,-0.777640452317659,,9.980435341606453,,
,9478.0,3101.0,11830.0,2326.0,2179.0,3208.0,-938.0,2025-07-21 21:24:27,92.0,,-0.603225894077901,-2.89246074351895,-0.777172134445294,,9.640882245327195,,
,9481.0,3103.0,11829.0,2327.0,2188.0,3231.0,-953.0,2025-07-21 21:24:28,91.0,,-0.60338909946088,-2.89229809661162,-0.778069030248598,,9.222296365283807,,
,9481.0,3104.0,11827.0,2327.0,2188.0,3227.0,-933.0,2025-07-21 21:24:29,90.0,,-0.603366227622867,-2.8923471168301,-0.777417346267132,,8.73122790063394,,
,9480.0,3101.0,11828.0,2327.0,2183.0,3213.0,-918.0,2025-07-21 21:24:30,90.0,,-0.603046249087805,-2.89229710052606,-0.778191139969345,,8.175548271617412,,
,9480.0,3106.0,11833.0,2329.0,2184.0,3208.0,-929.0,2025-07-21 21:24:31,90.0,,-0.603411355345022,-2.89252023104246,-0.778111404656806,,7.563912745691505,,
,9482.0,3104.0,11830.0,2327.0,2183.0,3213.0,-927.0,,,,-0.602888262501087,-2.89238590001096,-0.779729971046003,,6.905284928420028,,
,9483.0,3106.0,11832.0,2329.0,2180.0,3206.0,-929.0,,,,-0.602783528500238,-2.89284056815172,-0.779773350981706,,6.208570585164286,,
,9485.0,3105.0,11828.0,2329.0,2171.0,3217.0,-934.0,,,,-0.602515687396486,-2.89291053306347,-0.78087362123844,,5.482382207104233,,
,9483.0,3108.0,11828.0,2326.0,2187.0,3221.0,-948.0,,,,-0.602056121052814,-2.8928553953933,-0.78295720269437,,4.734930381932846,,
,9485.0,3106.0,11823.0,2327.0,2192.0,3221.0,-963.0,,,,-0.601720734906054,-2.89327301304932,-0.783442846375356,,3.9740174269347537,,
,9484.0,3101.0,11823.0,2326.0,2188.0,3216.0,-954.0,,,,-0.601647872117196,-2.89333248846891,-0.784438594075428,,3.207095163558472,,
,9483.0,3099.0,11816.0,2324.0,2186.0,3224.0,-934.0,,,,-0.601846251408365,-2.89365954158949,-0.786369802252016,,2.441343355355659,,
,9481.0,3090.0,11809.0,2319.0,2181.0,3223.0,-920.0,,,,-0.602258884347151,-2.89355997378842,-0.78767852926337,,1.6837284649981759,,
,9474.0,3087.0,11810.0,2316.0,2181.0,3224.0,-918.0,,,,-0.60168888177409,-2.89414516712875,-0.789296302673858,,0.9410130248513233,,
,9471.0,3082.0,11805.0,2314.0,2174.0,3199.0,-906.0,,,,-0.601305876307203,-2.89428479332726,-0.790733381811603,,0.21970159832751854,,
,9467.0,3078.0,11800.0,2309.0,2172.0,3194.0,-913.0,,,,-0.601199185815715,-2.8944096376637,-0.791324588383788,,-0.47407364177400696,,
,9463.0,3068.0,11799.0,2303.0,2169.0,3221.0,-914.0,,,,-0.600869597436568,-2.89476135191485,-0.792216880300913,,-1.1347103277529722,,
,9456.0,3065.0,11794.0,2300.0,2175.0,3206.0,-898.0,,,,-0.601112474294465,-2.89466243168027,-0.792359061608383,,-1.7573103502296963,,
,9455.0,3061.0,11792.0,2298.0,2193.0,3222.0,-907.0,,,,-0.60072530884364,-2.89477068658958,-0.793524392736649,,-2.3378436127917355,,
,9453.0,3057.0,11792.0,2295.0,2189.0,3216.0,-899.0,,,,-0.601011165052451,-2.89486478046001,-0.794008771129509,,-2.8732770776676286,,
,9451.0,3056.0,11796.0,2293.0,2187.0,3209.0,-910.0,,,,-0.600914208078371,-2.89502116833467,-0.795311913345265,,-3.361652040255423,,
,9444.0,3051.0,11794.0,2289.0,2186.0,3219.0,-922.0,,,,-0.6007919097264,-2.89503692712813,-0.795434450479386,,-3.802100837718194,,
,9446.0,3054.0,11797.0,2291.0,2178.0,3214.0,-909.0,,,,-0.600905051766659,-2.89505056353873,-0.796223170211463,,-4.19480260913982,,
,9449.0,3051.0,11800.0,2288.0,2185.0,3221.0,-937.0,,,,-0.6008287105185,-2.8953531914903,-0.796720263585279,,-4.540885387933258,,
,9446.0,3052.0,11803.0,2287.0,2199.0,3226.0,-933.0,,,,-0.600557587365924,-2.89547915007536,-0.797697377255711,,-4.842287855027824,,
,9443.0,3052.0,11803.0,2285.0,2205.0,3216.0,-916.0,,,,-0.600063093977311,-2.89537807574049,-0.796938443072325,,-5.101597784401339,,
,9444.0,3054.0,11808.0,2287.0,2195.0,3212.0,-935.0,,,,-0.600189334567161,-2.89537517643339,-0.797721006563056,,-5.321885035731732,,
,9445.0,3053.0,11806.0,2288.0,2193.0,3219.0,-945.0,,,,-0.600430926068094,-2.89533172656953,-0.79812857232679,,-5.506544572293517,,
,9445.0,3055.0,11807.0,2285.0,2204.0,3224.0,-942.0,,,,-0.599957007159414,-2.89533897987665,-0.798462440588278,,-5.659159595301353,,
,9448.0,3056.0,11810.0,2287.0,2201.0,3215.0,-935.0,,,,-0.599483730086542,-2.89524694947861,-0.798828447900024,,-5.783387653633423,,
,9450.0,3058.0,11811.0,2287.0,2194.0,3219.0,-946.0,,,,-0.599042921453954,-2.89553782821051,-0.799886621222239,,-5.8828657213306,,
,9452.0,3062.0,11816.0,2288.0,2205.0,3229.0,-951.0,,,,-0.598690336463938,-2.89556427662854,-0.800833641481891,,-5.961126165063435,,
,9453.0,3061.0,11816.0,2288.0,2192.0,3231.0,-950.0,,,,-0.598093259402315,-2.89562700193927,-0.80115401819402,,-6.021515489907387,,
,9455.0,3065.0,11817.0,2289.0,2194.0,3226.0,-965.0,,,,-0.597410931100815,-2.89567085195318,-0.801510031509843,,-6.0671110517569895,,
,9457.0,3067.0,11821.0,2289.0,2203.0,3208.0,-955.0,,,,-0.596906942748891,-2.89556013076579,-0.801458527437909,,-6.100635593776989,,
,9459.0,3069.0,11820.0,2292.0,2201.0,3204.0,-946.0,,,,-0.596353788508008,-2.89548549891157,-0.802313633539426,,-6.124373621845026,,
,9462.0,3070.0,11823.0,2292.0,2192.0,3181.0,-944.0,,,,-0.595932075979925,-2.89540912417228,-0.803321601255945,,-6.140096281201522,,
,9462.0,3072.0,11826.0,2296.0,2197.0,3180.0,-935.0,,,,-0.595220338650373,-2.89540546183059,-0.803782520869452,,-6.1490023862037315,,
,9465.0,3073.0,11822.0,2293.0,2205.0,3189.0,-929.0,,,,-0.594479630174762,-2.89540628630908,-0.804238421071037,,-6.151682887890778,,
,9464.0,3076.0,11827.0,2295.0,2193.0,3203.0,-931.0,,,,-0.593329391973554,-2.89514913931792,-0.805150846847207,,-6.148114701944912,,
,9466.0,3078.0,11824.0,2298.0,2194.0,3206.0,-939.0,,,,-0.593011260672234,-2.8952264279052,-0.80565826223149,,-6.137687629879596,,
,9470.0,3078.0,11823.0,2298.0,2179.0,3198.0,-954.0,,,,-0.592045232845654,-2.89529148379563,-0.806166168708013,,-6.119265011112521,,
,9471.0,3082.0,11824.0,2298.0,2170.0,3194.0,-947.0,,,,-0.591516948095204,-2.89529558873142,-0.808220023503171,,-6.091274697340284,,
,9467.0,3080.0,11823.0,2300.0,2173.0,3173.0,-934.0,,,,-0.591093931143468,-2.89542344211459,-0.808019018003248,,-6.051822451612552,,
,9471.0,3083.0,11820.0,2300.0,2172.0,3179.0,-918.0,,,,-0.590704408750886,-2.89531017374098,-0.809466360293089,,-5.998816284170466,,
,9470.0,3082.0,11821.0,2302.0,2184.0,3175.0,-937.0,,,,-0.59057019869283,-2.89535839962622,-0.809963524033572,,-5.93008919275807,,
,9468.0,3083.0,11822.0,2302.0,2185.0,3181.0,-934.0,,,,-0.590238192389549,-2.89536395062373,-0.809960344068853,,-5.843510058793641,,
,9468.0,3080.0,11820.0,2299.0,2170.0,3174.0,-932.0,,,,-0.590063234678833,-2.89517477520326,-0.810401321629215,,-5.737077244551385,,
,9472.0,3083.0,11820.0,2300.0,2177.0,3168.0,-949.0,,,,-0.589932887873156,-2.89510358652658,-0.810513632755703,,-5.608994810441558,,
,9467.0,3083.0,11818.0,2298.0,2187.0,3179.0,-958.0,,,,-0.590353836640788,-2.89522631619283,-0.810772997433829,,-5.457735368922844,,
,9467.0,3084.0,11817.0,2302.0,2195.0,3188.0,-965.0,,,,-0.589717753546264,-2.89501178811713,-0.809976680171483,,-5.28209544174579,,
,9467.0,3082.0,11817.0,2302.0,2212.0,3192.0,-978.0,,,,-0.590016459752593,-2.89512984959259,-0.808935625541666,,-5.081248752357835,,
,9466.0,3083.0,11814.0,2300.0,2204.0,3205.0,-955.0,,,,-0.590131179462554,-2.8952955409935,-0.809020485826474,,-4.85480067628572,,
,9467.0,3082.0,11816.0,2301.0,2192.0,3214.0,-949.0,,,,-0.591236788844394,-2.89524830316945,-0.810306701406715,,-4.602843767180672,,
,9467.0,3087.0,11817.0,2303.0,2192.0,3225.0,-937.0,,,,-0.592237748259629,-2.89530460498117,-0.808363707544649,,-4.326010523034186,,
,9465.0,3085.0,11815.0,2303.0,2195.0,3228.0,-925.0,,,,-0.593100594506893,-2.89552523510239,-0.80857611235023,,-4.025515962396646,,
,9465.0,3084.0,11815.0,2303.0,2198.0,3229.0,-903.0,,,,-0.594136637245573,-2.8958003884308,-0.807404110321357,,-3.7031798603112875,,
,9466.0,3086.0,11816.0,2303.0,2201.0,3259.0,-903.0,,,,-0.595093932496132,-2.89556869864961,-0.808168466853027,,-3.3614176212632954,,
,9467.0,3090.0,11814.0,2304.0,2192.0,3236.0,-896.0,,,,-0.595705516150276,-2.89588863048396,-0.807708417736704,,-3.0031907162679294,,
,9466.0,3090.0,11813.0,2303.0,2203.0,3268.0,-905.0,,,,-0.596666725956099,-2.89597064472905,-0.806786196830225,,-2.6319125902935285,,
,9467.0,3092.0,11815.0,2306.0,2193.0,3246.0,-898.0,,,,-0.597666710277801,-2.89613359824134,-0.806711167362167,,-2.251312814246771,,
,9464.0,3090.0,11812.0,2304.0,2193.0,3227.0,-902.0,,,,-0.598564027146454,-2.89591094470476,-0.806750958352645,,-1.8652689617381757,,
,9468.0,3094.0,11814.0,2306.0,2188.0,3217.0,-932.0,,,,-0.598671286846097,-2.89588297294784,-0.805896664254868,,-1.4776204614255146,,
,9466.0,3093.0,11812.0,2306.0,2172.0,3214.0,-951.0,,,,-0.599298390375494,-2.8959507325217,-0.805816871982224,,-1.0919808064222394,,
,9466.0,3096.0,11813.0,2305.0,2170.0,3217.0,-959.0,,,,-0.600144154996492,-2.89597598240302,-0.804737762252247,,-0.7115641835340426,,
,9464.0,3094.0,11803.0,2303.0,2152.0,3271.0,-972.0,,,,-0.600167054410469,-2.89595413818425,-0.804631348891998,,-0.33904030464877805,,
,9461.0,3098.0,11808.0,2306.0,2175.0,3282.0,-966.0,,,,-0.600198536873561,-2.8955929462682,-0.804088833672866,,0.02357256395650723,,
,9461.0,3095.0,11806.0,2305.0,2154.0,3274.0,-969.0,,,,-0.600130036957601,-2.89613015183591,-0.804415706760097,,0.37497123526526743,,
,9458.0,3097.0,11803.0,2307.0,2147.0,3280.0,-971.0,,,,-0.599654507514568,-2.89608180789939,-0.805174452610964,,0.7145881389022423,,
,9456.0,3096.0,11801.0,2302.0,2201.0,3328.0,-953.0,,,,-0.599727375872664,-2.89603217442961,-0.804946280793168,,1.0425740434758866,,
,9457.0,3097.0,11800.0,2306.0,2184.0,3285.0,-936.0,,,,-0.599707033682624,-2.89593479937826,-0.804298530420057,,1.3597516278480957,,
,9458.0,3100.0,11801.0,2305.0,2184.0,3268.0,-948.0,,,,-0.599703845515258,-2.89588497023096,-0.803988312558453,,1.6675489581871772,,
,9457.0,3100.0,11799.0,2302.0,2206.0,3264.0,-963.0,,,,-0.599886836670161,-2.89584010615659,-0.802647737471108,,1.967919037620971,,
,9457.0,3099.0,11800.0,2301.0,2210.0,3266.0,-961.0,,,,-0.600374187548881,-2.89609369723064,-0.80218012940791,,2.2632467249425967,,
,9458.0,3099.0,11795.0,2300.0,2192.0,3223.0,-976.0,,,,-0.600991684083517,-2.8959105361037,-0.801101260022552,,2.556239586437236,,
,9459.0,3099.0,11797.0,2297.0,2195.0,3215.0,-1001.0,,,,-0.600820238267886,-2.8956626274286,-0.800892193579046,,2.8497963166028675,,
,9459.0,3104.0,11800.0,2297.0,2176.0,3197.0,-1022.0,,,,-0.600715646764027,-2.89558348338868,-0.798797588948167,,3.146846043140512,,
,9460.0,3103.0,11798.0,2299.0,2172.0,3220.0,-1019.0,,,,-0.601242751912328,-2.89576631304202,-0.798032339657575,,3.4501545036903924,,
,9460.0,3100.0,11799.0,2294.0,2187.0,3188.0,-1045.0,,,,-0.601158909100107,-2.89541828184059,-0.798284084678431,,3.762099025465687,,
,9463.0,3104.0,11800.0,2295.0,2181.0,3160.0,-1056.0,,,,-0.6010934553495,-2.89536241173439,-0.798098580927758,,4.084423361278694,,
,9465.0,3104.0,11803.0,2293.0,2168.0,3156.0,-1051.0,,,,-0.600955934745384,-2.89531370322717,-0.797645542602108,,4.417994755147654,,
2025-07-21 21:21:13,9463.0,3105.0,11806.0,2294.0,2173.0,3160.0,-1037.0,,,2025/07/21 09:21:13 PM,-0.601147605338524,-2.8951241192384,-0.796816486175096,,4.76259681198981,,
,9463.0,3104.0,11806.0,2293.0,2143.0,3154.0,-1025.0,,,,-0.601647056110429,-2.8951150241467,-0.795124113066674,,5.116799038760271,,
,9466.0,3106.0,11807.0,2291.0,2151.0,3177.0,-1015.0,,,,-0.601868946470465,-2.89511777139824,-0.795361848794402,,5.4779429012602945,,
,9469.0,3109.0,11811.0,2291.0,2174.0,3191.0,-1012.0,,,,-0.602694599843364,-2.89492339230669,-0.794208940057317,,5.842272114349768,,
,9470.0,3111.0,11812.0,2292.0,2169.0,3199.0,-1017.0,,,,-0.602781901664895,-2.8948492313889,-0.793737167938463,,6.205212704598578,,
,9470.0,3110.0,11813.0,2294.0,2174.0,3220.0,-1019.0,,,,-0.602665654425362,-2.89468861372993,-0.791810122654327,,6.561781060344667,,
,9473.0,3110.0,11815.0,2292.0,2160.0,3244.0,-1012.0,,,,-0.603212598175507,-2.89452135730436,-0.791111657845372,,6.907072125987615,,
,9475.0,3111.0,11816.0,2293.0,2161.0,3224.0,-1005.0,,,,-0.603798276092379,-2.89418421521862,-0.788874757354511,,7.236760439928431,,
,9474.0,3114.0,11818.0,2294.0,2162.0,3257.0,-1013.0,,,,-0.603725381855181,-2.89440577010096,-0.787470880229932,,7.54753715765209,,
,9477.0,3115.0,11819.0,2292.0,2165.0,3261.0,-1005.0,,,,-0.604416010770939,-2.89388015068092,-0.786969347907993,,7.837408230627031,,
,9477.0,3113.0,11818.0,2291.0,2159.0,3261.0,-977.0,,,,-0.604870355932439,-2.89354631211924,-0.786011664381942,,8.10579299662411,,
,9478.0,3113.0,11817.0,2291.0,2167.0,3262.0,-979.0,,,,-0.605866066711758,-2.89340811884622,-0.783988116269744,,8.353387541877282,,
,9480.0,3113.0,11820.0,2296.0,2170.0,3246.0,-971.0,,,,-0.606494147773345,-2.89300863377266,-0.782515190102144,,8.581790379261184,,
,9476.0,3110.0,11819.0,2291.0,2171.0,3228.0,-984.0,,,,-0.607223419737315,-2.89300576420248,-0.780755747395738,,8.792924506848179,,
,9474.0,3108.0,11815.0,2291.0,2172.0,3216.0,-983.0,,,,-0.608398226486992,-2.89255082402023,-0.779794712695015,,8.98832384114628,,
,9472.0,3104.0,11808.0,2285.0,2168.0,3204.0,-985.0,,,,-0.609151692028458,-2.89228152914943,-0.778158214479567,,9.168377304865148,,
,9472.0,3101.0,11810.0,2285.0,2181.0,3185.0,-980.0,,,,-0.610430681122832,-2.892331668482,-0.776458025440517,,9.331635870044561,,
,9470.0,3097.0,11805.0,2282.0,2194.0,3183.0,-988.0,,,,-0.611390535504708,-2.89184069696205,-0.775701682916586,,9.474284902745307,,
,9462.0,3092.0,11802.0,2279.0,2189.0,3192.0,-987.0,,,,-0.611963057924008,-2.89167400584138,-0.774534193290844,,9.589867555178023,,
,9457.0,3082.0,11801.0,2273.0,2180.0,3194.0,-1002.0,,,,-0.613072935046948,-2.89175877879111,-0.772455961512284,,9.669317700103807,,
,9456.0,3077.0,11798.0,2273.0,2178.0,3173.0,-982.0,,,,-0.614363805004755,-2.89150355477351,-0.772818154717419,,9.701326325412422,,
,9453.0,3077.0,11799.0,2270.0,2200.0,3173.0,-980.0,,,,-0.615311036827067,-2.89131830829854,-0.771708398123401,,9.673026867051641,,
,9451.0,3076.0,11798.0,2267.0,2211.0,3170.0,-979.0,,,,-0.616301095008977,-2.89137547777426,-0.771352930020895,,9.570946569551781,,
,9449.0,3073.0,11802.0,2268.0,2205.0,3175.0,-980.0,,,,-0.616778305352723,-2.89114784652193,-0.770579138779989,,9.382136973092086,,
,9445.0,3067.0,11803.0,2263.0,2212.0,3191.0,-982.0,,,,-0.617789989863465,-2.89152257526674,-0.769498572170127,,9.095371553974733,,
,9446.0,3067.0,11804.0,2263.0,2195.0,3209.0,-986.0,,,,-0.618687026048958,-2.8911362752963,-0.769926328467275,,8.702286614941187,,
,9444.0,3068.0,11805.0,2262.0,2198.0,3208.0,-986.0,,,,-0.619013691786893,-2.89096625754244,-0.769161567972345,,8.19834547723277,,
,9444.0,3065.0,11805.0,2260.0,2198.0,3223.0,-990.0,,,,-0.619142698598968,-2.89087578334606,-0.768575210173951,,7.583525474431054,,
,9441.0,3066.0,11806.0,2257.0,2175.0,3216.0,-994.0,,,,-0.619273696359069,-2.89108589519504,-0.768561402819986,,6.862658222779444,,
,9442.0,3067.0,11808.0,2260.0,2187.0,3210.0,-990.0,,,,-0.619175408892283,-2.89094731952705,-0.768562390145535,,6.0453904428785235,,
,9442.0,3068.0,11809.0,2261.0,2187.0,3227.0,-996.0,,,,-0.619261206004246,-2.89099951577165,-0.769082291633079,,5.1457702960356055,,
,9443.0,3069.0,11812.0,2259.0,2193.0,3230.0,-990.0,,,,-0.618712851995824,-2.89108303253085,-0.769023697007582,,4.181499414276355,,
,9442.0,3070.0,11814.0,2260.0,2176.0,3218.0,-987.0,,,,-0.618661397019909,-2.89079432874416,-0.76905140270333,,3.1729208597827476,,
,9446.0,3070.0,11816.0,2259.0,2183.0,3217.0,-998.0,,,,-0.617988478746271,-2.89105230100471,-0.76940096182981,,2.1418353227373594,,
,9446.0,3073.0,11816.0,2264.0,2181.0,3207.0,-995.0,,,,-0.617249330040617,-2.89099965468827,-0.769467106300326,,1.1102493859531006,,
,9448.0,3076.0,11820.0,2262.0,2194.0,3188.0,-991.0,,,,-0.616495625153669,-2.89103545037666,-0.769215672631026,,0.0991594805514197,,
,9452.0,3076.0,11821.0,2263.0,2189.0,3195.0,-992.0,,,,-0.615607540456852,-2.8913100776501,-0.769483722770496,,-0.8725357370168071,,
,9452.0,3080.0,11822.0,2264.0,2183.0,3174.0,-990.0,,,,-0.614334580248999,-2.89132686774505,-0.770374729013499,,-1.7889204318975025,,
,9453.0,3082.0,11825.0,2266.0,2170.0,3180.0,-983.0,,,,-0.613017000218495,-2.89111888461559,-0.770142053248972,,-2.637692371859049,,
,9456.0,3082.0,11826.0,2267.0,2178.0,3201.0,-986.0,,,,-0.611794800402492,-2.89126692487068,-0.77062936530211,,-3.41051103076643,,
,9460.0,3083.0,11830.0,2269.0,2173.0,3206.0,-988.0,,,,-0.610979668306368,-2.89124178320212,-0.77083921687124,,-4.10305721430058,,
,9457.0,3086.0,11826.0,2269.0,2166.0,3222.0,-993.0,,,,-0.610241045973807,-2.89103698455057,-0.771690717196194,,-4.714820064696114,,
,9458.0,3086.0,11827.0,2269.0,2171.0,3212.0,-989.0,,,,-0.608731641845587,-2.89124337062016,-0.771793010882795,,-5.248647574019647,,
,9461.0,3089.0,11828.0,2269.0,2179.0,3219.0,-1003.0,,,,-0.608656606916011,-2.89157582750078,-0.772081262601307,,-5.710114104240671,,
,9461.0,3090.0,11830.0,2268.0,2179.0,3212.0,-1006.0,,,,-0.608860868926443,-2.89130061554409,-0.772160471796459,,-6.106770661764048,,
,9466.0,3089.0,11830.0,2271.0,2178.0,3227.0,-1005.0,,,,-0.608902752070865,-2.89144496036071,-0.77298642807565,,-6.4473491031976256,,
,9464.0,3088.0,11827.0,2270.0,2184.0,3211.0,-980.0,,,,-0.608607937552839,-2.89173928962006,-0.773713040751663,,-6.7409896318528935,,
,9464.0,3090.0,11828.0,2269.0,2176.0,3191.0,-989.0,,,,-0.608646111277378,-2.89182124780558,-0.773905794367585,,-6.996552624148557,,
,9465.0,3091.0,11826.0,2271.0,2164.0,3198.0,-999.0,,,,-0.607972467272924,-2.89186410098615,-0.773972916863806,,-7.22206247423222,,
,9467.0,3090.0,11829.0,2270.0,2161.0,3196.0,-1013.0,,,,-0.607965545885673,-2.89198001616467,-0.774378191554277,,-7.424314586511315,,
,9464.0,3090.0,11826.0,2268.0,2167.0,3198.0,-1004.0,,,,-0.607961443357249,-2.89187246950396,-0.774115599139783,,-7.608658700223029,,
,9464.0,3090.0,11828.0,2270.0,2167.0,3182.0,-1007.0,,,,-0.60829422180298,-2.8922328242741,-0.776639816703315,,-7.77895395092545,,
,9465.0,3090.0,11828.0,2269.0,2166.0,3187.0,-1015.0,,,,-0.607787218013038,-2.89231040054298,-0.777362710322185,,-7.9376748240120865,,
,9468.0,3091.0,11830.0,2268.0,2180.0,3173.0,-1021.0,,,,-0.607739702320323,-2.89213990748025,-0.776752758723021,,-8.086133989613034,,
,9466.0,3088.0,11828.0,2267.0,2175.0,3174.0,-1022.0,,,,-0.607299410798718,-2.89226537925192,-0.7780135723621,,-8.224779748576026,,
,9462.0,3085.0,11829.0,2264.0,2163.0,3191.0,-1026.0,,,,-0.60684569215698,-2.892318442173,-0.778049045820944,,-8.353523809235613,,
,9464.0,3087.0,11829.0,2266.0,2181.0,3203.0,-1025.0,,,,-0.606611966811136,-2.89236775651845,-0.779438591403562,,-8.472059173395195,,
,9463.0,3089.0,11830.0,2265.0,2185.0,3181.0,-1022.0,,,,-0.605697579415428,-2.892276440353,-0.779635313322764,,-8.580136144961418,,
,9463.0,3086.0,11829.0,2265.0,2184.0,3186.0,-1025.0,,,,-0.604826533510174,-2.89274867440936,-0.779850793620336,,-8.677774289500322,,
,9462.0,3088.0,11828.0,2263.0,2185.0,3190.0,-1015.0,,,,-0.605253083271199,-2.89293881071584,-0.782106472537886,,-8.765397559031141,,
,9463.0,3086.0,11828.0,2261.0,2180.0,3203.0,-1029.0,,,,-0.604893923128614,-2.892913405721,-0.78240345851651,,-8.843887870168274,,
,9468.0,3088.0,11828.0,2263.0,2187.0,3209.0,-1031.0,,,,-0.60401922847001,-2.89325785646121,-0.783364887402403,,-8.914559096265892,,
,9464.0,3089.0,11833.0,2263.0,2187.0,3201.0,-1025.0,,,,-0.603593992182478,-2.89331172403548,-0.784329995836653,,-8.979058838252678,,
,9466.0,3088.0,11832.0,2261.0,2191.0,3187.0,-998.0,,,,-0.604031271858225,-2.89338711047132,-0.78577044968543,,-9.039209505751971,,
,9464.0,3090.0,11828.0,2262.0,2185.0,3181.0,-1028.0,,,,-0.603734083704227,-2.89379984841325,-0.786021566158384,,-9.096803063226607,,
,9467.0,3091.0,11830.0,2261.0,2185.0,3201.0,-1039.0,,,,-0.603908757898227,-2.89366832473181,-0.787668390178937,,-9.153365191075297,,
,9468.0,3090.0,11832.0,2260.0,2188.0,3202.0,-1027.0,,,,-0.604058129511928,-2.89385973623301,-0.789044652085593,,-9.209904834058516,,
,9468.0,3093.0,11832.0,2264.0,2182.0,3194.0,-1023.0,,,,-0.604321676965029,-2.89438174604809,-0.789499225329344,,-9.266665011157443,,
,9466.0,3091.0,11835.0,2263.0,2174.0,3194.0,-1032.0,,,,-0.604101452805417,-2.89456484012013,-0.791889901992028,,-9.322891529753944,,
,9471.0,3093.0,11834.0,2262.0,2175.0,3199.0,-1026.0,,,,-0.60475564607823,-2.89507139067871,-0.792745571156335,,-9.376638516386555,,
,9473.0,3096.0,11838.0,2262.0,2182.0,3195.0,-1029.0,,,,-0.604769512342215,-2.89504897570078,-0.794582245695453,,-9.424632746751259,,
,9470.0,3096.0,11837.0,2265.0,2173.0,3200.0,-1023.0,,,,-0.604467433629741,-2.89528305594846,-0.795094576890517,,-9.46222077762494,,
,9474.0,3094.0,11836.0,2261.0,2187.0,3204.0,-1035.0,,,,-0.603593566218359,-2.89559408244898,-0.797691437354001,,-9.483421854242698,,
,9472.0,3096.0,11838.0,2261.0,2180.0,3197.0,-1023.0,,,,-0.603191288191896,-2.8953487494592,-0.798208321695342,,-9.4811042939337,,
,9472.0,3100.0,11837.0,2265.0,2180.0,3163.0,-1023.0,,,,-0.60239894095779,-2.89572039119455,-0.799214833805419,,-9.44729347513834,,
,9474.0,3099.0,11840.0,2265.0,2189.0,3170.0,-1041.0,,,,-0.602143911186681,-2.89609545432048,-0.801688285904901,,-9.373606590136635,,
,9476.0,3098.0,11843.0,2265.0,2192.0,3177.0,-1047.0,,,,-0.602230930150381,-2.89598567812823,-0.801828826560833,,-9.251794435752767,,
,9476.0,3099.0,11838.0,2265.0,2194.0,3177.0,-1038.0,,,,-0.601953337013144,-2.89597764589943,-0.803621325058039,,-9.074355432714686,,
,9477.0,3102.0,11841.0,2266.0,2186.0,3180.0,-1015.0,,,,-0.601638279077985,-2.89620770867867,-0.802969676310444,,-8.835173482287427,,
,9477.0,3105.0,11841.0,2267.0,2176.0,3161.0,-1011.0,,,,-0.602091992094007,-2.89616531246467,-0.803351619153187,,-8.530120897927498,,
,9479.0,3105.0,11845.0,2264.0,2181.0,3154.0,-1007.0,,,,-0.602156355717177,-2.89650866485801,-0.803672723112158,,-8.157562481910045,,
,9483.0,3105.0,11842.0,2266.0,2175.0,3163.0,-1023.0,,,,-0.602861925956821,-2.89642643517676,-0.804322488077575,,-7.718699151162482,,
,9482.0,3105.0,11843.0,2264.0,2181.0,3168.0,-1038.0,,,,-0.603321382976208,-2.89625358480556,-0.804264005591194,,-7.217701091606429,,
,9483.0,3108.0,11845.0,2270.0,2195.0,3185.0,-1044.0,,,,-0.603342625944814,-2.89649322195981,-0.802694411947753,,-6.661600970601232,,
,9485.0,3109.0,11845.0,2269.0,2202.0,3209.0,-1026.0,,,,-0.603848231254924,-2.89660193839576,-0.802466425032988,,-6.059944321742622,,
,9483.0,3110.0,11844.0,2268.0,2191.0,3213.0,-1019.0,,,,-0.604042282699575,-2.89643438178868,-0.80236586220621,,-5.424222100931367,,
,9483.0,3110.0,11845.0,2266.0,2191.0,3210.0,-1024.0,,,,-0.603448109428695,-2.89644100922142,-0.802137843429155,,-4.767134796913035,,
,9484.0,3112.0,11845.0,2268.0,2213.0,3222.0,-1032.0,,,,-0.603218970410976,-2.8962497701945,-0.802514459691755,,-4.101754897384328,,
,9486.0,3111.0,11844.0,2269.0,2198.0,3197.0,-1027.0,,,,-0.602992785910542,-2.89631945572243,-0.801623844885894,,-3.4406633756807583,,
,9486.0,3113.0,11846.0,2269.0,2195.0,3195.0,-1021.0,,,,-0.602840567325822,-2.89629128160936,-0.802548847135971,,-2.795136204724521,,
,9489.0,3109.0,11847.0,2268.0,2205.0,3179.0,-1011.0,,,,-0.602459502452541,-2.89624139781748,-0.801964478446939,,-2.1744496266656785,,
,9486.0,3113.0,11843.0,2268.0,2196.0,3165.0,-1023.0,,,,-0.603109172616826,-2.89619817806436,-0.800776576648522,,-1.5853591111280538,,
,9485.0,3110.0,11842.0,2267.0,2182.0,3176.0,-1026.0,,,,-0.603235158933725,-2.89618015504346,-0.801144365621048,,-1.0317878924197323,,
,9484.0,3106.0,11841.0,2267.0,2172.0,3195.0,-1021.0,,,,-0.603765042557359,-2.8958273771534,-0.800100137432303,,-0.5147387316671322,,
,9484.0,3102.0,11837.0,2262.0,2175.0,3190.0,-1022.0,,,,-0.603444066219464,-2.89594834259969,-0.799780312861761,,-0.032420368812292155,,
,9481.0,3095.0,11830.0,2262.0,2180.0,3189.0,-1011.0,,,,-0.602569887849906,-2.89570232250579,-0.79930934660456,,0.4194382452076526,,
,9476.0,3092.0,11827.0,2257.0,2185.0,3185.0,-1010.0,,,,-0.602173404194958,-2.89565066589884,-0.799058905678702,,0.8471249543695377,,
,9475.0,3086.0,11826.0,2256.0,2189.0,3198.0,-1014.0,,,,-0.602131436910649,-2.89577509847459,-0.799430513211434,,1.258377400345288,,
,9469.0,3081.0,11825.0,2252.0,2196.0,3200.0,-1009.0,,,,-0.601227008033882,-2.89580846047565,-0.799489646881789,,1.6617576607932214,,
,9462.0,3076.0,11823.0,2246.0,2183.0,3191.0,-1002.0,,,,-0.600185134832553,-2.89548797832513,-0.80007101565159,,2.0660117725809304,,
,9462.0,3071.0,11820.0,2243.0,2187.0,3180.0,-1013.0,,,,-0.599525160949516,-2.89577835060457,-0.800200389620921,,2.479452763915795,,
,9460.0,3070.0,11824.0,2244.0,2187.0,3189.0,-1009.0,,,,-0.599851594741951,-2.89527861732671,-0.799924494116255,,2.9093998298739687,,
,9455.0,3063.0,11824.0,2239.0,2183.0,3178.0,-1010.0,,,,-0.599411184209154,-2.89521228286681,-0.800293824884485,,3.361700075809777,,
,9454.0,3063.0,11823.0,2238.0,2203.0,3181.0,-1010.0,,,,-0.599197043928574,-2.8952143105953,-0.800032158877898,,3.840354091389341,,
,9456.0,3057.0,11822.0,2236.0,2189.0,3170.0,-1012.0,,,,-0.599300222337646,-2.89510590736107,-0.799173368774721,,4.347263403981962,,
,9450.0,3058.0,11826.0,2232.0,2192.0,3186.0,-1016.0,,,,-0.599739206584366,-2.8951497797288,-0.798446474165725,,4.882116589537432,,
,9450.0,3062.0,11826.0,2231.0,2177.0,3200.0,-1018.0,,,,-0.600008402106914,-2.89516641803277,-0.797320787525175,,5.442430023569354,,
,9450.0,3061.0,11827.0,2233.0,2163.0,3212.0,-1013.0,,,,-0.600763875032745,-2.89488223679167,-0.796591810312667,,6.023755826760034,,
,9452.0,3059.0,11831.0,2230.0,2227.0,3199.0,-1012.0,,,,-0.601061725586209,-2.89485179644578,-0.794680693158173,,6.620059837706568,,
,9450.0,3059.0,11832.0,2229.0,2242.0,3171.0,-1021.0,,,,-0.601572661687959,-2.89469422794839,-0.794990183912055,,7.224254433207519,,
,9454.0,3063.0,11836.0,2231.0,2195.0,3150.0,-1015.0,,,,-0.602044931086752,-2.89491746764825,-0.794635722781495,,7.8288461158087115,,
,9454.0,3064.0,11837.0,2229.0,2204.0,3156.0,-1016.0,,,,-0.60249855711722,-2.89489958686964,-0.793639259362207,,8.42663087506013,,
,9458.0,3062.0,11839.0,2229.0,2215.0,3173.0,-1030.0,,,,-0.60312451906679,-2.8951204681238,-0.793223458475006,,9.011348616775345,,
,9456.0,3064.0,11840.0,2229.0,2199.0,3195.0,-1015.0,,,,-0.603583372233279,-2.89513342164105,-0.794252412194212,,9.57819914054037,,
,9457.0,3065.0,11843.0,2231.0,2202.0,3173.0,-1031.0,,,,-0.604510676272388,-2.89500151330349,-0.792903426180681,,10.124131658831692,,
,9459.0,3067.0,11844.0,2232.0,2211.0,3189.0,-1030.0,,,,-0.605005831934416,-2.89489466644834,-0.792774487172146,,10.647848118823319,,
,9463.0,3071.0,11849.0,2233.0,2189.0,3195.0,-1026.0,,,,-0.605698978656217,-2.89513621116274,-0.791908556788767,,11.149502436148161,,
,9463.0,3070.0,11848.0,2229.0,2178.0,3191.0,-1030.0,,,,-0.605878096405786,-2.89494561525075,-0.790935476465935,,11.630124638282997,,
,9464.0,3073.0,11848.0,2230.0,2190.0,3216.0,-1038.0,,,,-0.605806387406221,-2.89486164913969,-0.790970622328988,,12.090842231466302,,
,9465.0,3075.0,11850.0,2234.0,2179.0,3207.0,-1021.0,,,,-0.60603553378695,-2.89478620607043,-0.790547971431753,,12.532004184074099,,
,9470.0,3074.0,11850.0,2234.0,2185.0,3199.0,-1021.0,,,,-0.606329387205867,-2.89480583453219,-0.790112587013408,,12.95233126063177,,
,9470.0,3074.0,11851.0,2233.0,2189.0,3196.0,-1018.0,,,,-0.605973664446116,-2.89460206094666,-0.789126609371465,,13.34821756467844,,
,9468.0,3075.0,11852.0,2234.0,2180.0,3194.0,-1022.0,,,,-0.605836973327762,-2.89429584991818,-0.78940125544959,,13.713292095879378,,
,9472.0,3076.0,11853.0,2234.0,2176.0,3184.0,-1017.0,,,,-0.606102992633017,-2.89445095703935,-0.788817048559136,,14.038318642340856,,
,9474.0,3077.0,11852.0,2235.0,2169.0,3183.0,-1008.0,,,,-0.605736728182011,-2.89422986903681,-0.788062879316663,,14.311471788256933,,
,9476.0,3079.0,11852.0,2236.0,2176.0,3182.0,-1010.0,,,,-0.605500270002174,-2.89433392288746,-0.789363591306558,,14.518980872507838,,
,9476.0,3076.0,11851.0,2234.0,2168.0,3179.0,-1009.0,,,,-0.604720032687652,-2.89430098264267,-0.790148807403193,,14.646087039962667,,
,9475.0,3075.0,11849.0,2235.0,2166.0,3174.0,-1009.0,,,,-0.60482860391257,-2.89426003471713,-0.788928719430755,,14.67821626417941,,
2025-07-21 21:21:14,9474.0,3079.0,11850.0,2236.0,2171.0,3190.0,-1025.0,,,2025/07/21 09:21:14 PM,-0.604559582584797,-2.89405485807281,-0.788867198283273,,14.602239261433528,,
,9472.0,3079.0,11849.0,2233.0,2172.0,3197.0,-1038.0,,,,-0.604282425921438,-2.89380259573534,-0.788000264842215,,14.407673418679913,,
,9472.0,3075.0,11848.0,2233.0,2179.0,3195.0,-1036.0,,,,-0.603870223809568,-2.89380195979732,-0.786097540367393,,14.087686649400604,,
,9471.0,3071.0,11848.0,2230.0,2177.0,3179.0,-1016.0,,,,-0.604280821905703,-2.89364350299139,-0.785513969871686,,13.63978966714932,,
,9473.0,3073.0,11848.0,2231.0,2179.0,3190.0,-1019.0,,,,-0.603833244983484,-2.89320564144005,-0.785180664980044,,13.066147826144428,,
,9473.0,3073.0,11851.0,2230.0,2186.0,3184.0,-1018.0,,,,-0.603731697044209,-2.89343306405235,-0.785567056663295,,12.3734975054649,,
,9472.0,3073.0,11848.0,2231.0,2186.0,3181.0,-1027.0,,,,-0.603553203544654,-2.89318787462988,-0.784691133030342,,11.572703246150624,,
,9470.0,3072.0,11848.0,2229.0,2187.0,3197.0,-1021.0,,,,-0.603069365517153,-2.89319128350586,-0.783917565443256,,10.67803042530383,,
,9471.0,3071.0,11850.0,2230.0,2183.0,3182.0,-1031.0,,,,-0.602708238276741,-2.8931054985584,-0.783204764779907,,9.706229514835439,,
,9472.0,3073.0,11849.0,2229.0,2189.0,3178.0,-1017.0,,,,-0.602571924924002,-2.89316715602249,-0.784839342224749,,8.675532856716048,,
,9472.0,3070.0,11852.0,2227.0,2192.0,3182.0,-1013.0,,,,-0.601607745268109,-2.89305684876118,-0.785080491528388,,7.604657247818988,,
,9469.0,3071.0,11848.0,2228.0,2197.0,3185.0,-1008.0,,,,-0.601831932030941,-2.89313738884124,-0.784899878885037,,6.511889711095852,,
,9470.0,3071.0,11850.0,2229.0,2203.0,3186.0,-1009.0,,,,-0.60132337278046,-2.89310038114881,-0.783711028943194,,5.4143133831015415,,
,9471.0,3072.0,11850.0,2228.0,2219.0,3189.0,-1008.0,,,,-0.601253748480598,-2.89304382100143,-0.782871881334934,,4.327208757645211,,
,9472.0,3072.0,11852.0,2230.0,2225.0,3190.0,-1009.0,,,,-0.601335055984299,-2.89305039203686,-0.783622350924555,,3.263645412962019,,
,9473.0,3076.0,11854.0,2228.0,2210.0,3203.0,-1010.0,,,,-0.600719751183563,-2.89282052732744,-0.783385197962878,,2.2342628795467605,,
,9474.0,3073.0,11851.0,2230.0,2188.0,3178.0,-1013.0,,,,-0.601064506678198,-2.89287215588516,-0.78320947477096,,1.2472273784642633,,
,9474.0,3075.0,11850.0,2231.0,2182.0,3183.0,-1012.0,,,,-0.60088790191208,-2.89296324827415,-0.783685401631479,,0.3083433124002892,,
,9475.0,3074.0,11854.0,2229.0,2193.0,3192.0,-1014.0,,,,-0.601102867418012,-2.89282756926194,-0.782886784140639,,-0.5787069386155315,,
,9476.0,3078.0,11854.0,2231.0,2208.0,3198.0,-1018.0,,,,-0.601206180694363,-2.89279779346083,-0.783246393784069,,-1.4120259660389773,,
,9477.0,3076.0,11855.0,2228.0,2207.0,3198.0,-1015.0,,,,-0.601535527395279,-2.89299468836555,-0.783743931470181,,-2.1911027078964813,,
,9476.0,3078.0,11856.0,2232.0,2216.0,3196.0,-1020.0,,,,-0.601804247527907,-2.89324583431587,-0.784658606260292,,-2.916391669425594,,
,9477.0,3077.0,11857.0,2233.0,2202.0,3193.0,-1018.0,,,,-0.602100022147004,-2.89338288968775,-0.783858782778606,,-3.5889103492672945,,
,9481.0,3080.0,11856.0,2231.0,2206.0,3190.0,-1010.0,,,,-0.601826554458434,-2.89323947124479,-0.784990514947263,,-4.2098919156423795,,
,9479.0,3079.0,11857.0,2235.0,2208.0,3160.0,-1022.0,,,,-0.60153159270545,-2.89331791011424,-0.785030971806774,,-4.780522427077335,,
,9479.0,3079.0,11855.0,2232.0,2203.0,3177.0,-1013.0,,,,-0.601821827244348,-2.89354403189932,-0.785360821289784,,-5.3017807156672765,,
,9481.0,3081.0,11858.0,2237.0,2199.0,3197.0,-1016.0,,,,-0.602115897918219,-2.89342624116246,-0.784615103092968,,-5.774386118118895,,
,9483.0,3082.0,11857.0,2234.0,2193.0,3173.0,-1004.0,,,,-0.602285087144992,-2.89357818235169,-0.78705477769731,,-6.198846362735657,,
,9483.0,3082.0,11858.0,2236.0,2189.0,3153.0,-1004.0,,,,-0.601787933993405,-2.89349873120553,-0.786445100118096,,-6.575586632822214,,
,9485.0,3085.0,11857.0,2235.0,2197.0,3165.0,-1002.0,,,,-0.601722730396284,-2.89371119919839,-0.787084142051555,,-6.905132130963555,,
,9484.0,3085.0,11858.0,2236.0,2184.0,3162.0,-1009.0,,,,-0.601780823402037,-2.89368900970549,-0.785797811840387,,-7.188310889617195,,
,9485.0,3086.0,11859.0,2239.0,2186.0,3162.0,-1013.0,,,,-0.601549475871671,-2.89358734288061,-0.786649758857962,,-7.426441569125332,,
,9485.0,3088.0,11860.0,2237.0,2194.0,3173.0,-1016.0,,,,-0.601286276937943,-2.89347167626454,-0.786016925930125,,-7.621473321464773,,
,9489.0,3087.0,11861.0,2240.0,2188.0,3188.0,-1015.0,,,,-0.6007618828095,-2.89339564026812,-0.786430298814693,,-7.776052164897548,,
,9487.0,3090.0,11859.0,2239.0,2206.0,3175.0,-1008.0,,,,-0.60064954393309,-2.89307534242453,-0.786214610782451,,-7.893500181986986,,
,9490.0,3090.0,11860.0,2240.0,2195.0,3189.0,-1007.0,,,,-0.600181075707019,-2.89323547459366,-0.785922700785205,,-7.977707885315669,,
,9489.0,3092.0,11860.0,2241.0,2204.0,3197.0,-993.0,,,,-0.599848919922678,-2.89338204141582,-0.785512273549833,,-8.03295306974532,,
,9492.0,3091.0,11861.0,2242.0,2200.0,3199.0,-1003.0,,,,-0.598800630982107,-2.89328196471969,-0.786028854668997,,-8.06366886822829,,
,9491.0,3092.0,11860.0,2244.0,2199.0,3221.0,-1016.0,,,,-0.598872487152941,-2.89353315121611,-0.786390446345399,,-8.074188538586045,,
,9492.0,3094.0,11859.0,2242.0,2201.0,3201.0,-1005.0,,,,-0.598616671690679,-2.89344184503167,-0.786206498832456,,-8.06849496947452,,
,9492.0,3093.0,11862.0,2243.0,2198.0,3206.0,-1004.0,,,,-0.59855771733507,-2.89314454275693,-0.785271192694103,,-8.049999895447284,,
,9493.0,3090.0,11861.0,2244.0,2191.0,3190.0,-999.0,,,,-0.598796282734196,-2.89297700083633,-0.784264391623268,,-8.021372490496725,,
,9490.0,3085.0,11853.0,2242.0,2211.0,3200.0,-1000.0,,,,-0.598113794756421,-2.89296002495151,-0.785188749188283,,-7.98443048144224,,
,9488.0,3080.0,11845.0,2239.0,2188.0,3193.0,-990.0,,,,-0.598001071241135,-2.89312157073122,-0.785689891654967,,-7.940099994658984,,
,9482.0,3077.0,11843.0,2237.0,2172.0,3162.0,-989.0,,,,-0.597777807476852,-2.89317947789647,-0.786556662937387,,-7.888443376971154,,
,9480.0,3073.0,11837.0,2232.0,2172.0,3175.0,-988.0,,,,-0.597520862951445,-2.89311370140688,-0.78543804715884,,-7.82874739979262,,
,9478.0,3067.0,11834.0,2229.0,2167.0,3153.0,-989.0,,,,-0.596626934732096,-2.89299330160629,-0.785225510080272,,-7.759658186136037,,
,9469.0,3057.0,11826.0,2222.0,2167.0,3164.0,-997.0,,,,-0.596258621068347,-2.89300907098734,-0.786088344105942,,-7.67934517719305,,
,9464.0,3052.0,11826.0,2222.0,2164.0,3183.0,-994.0,,,,-0.59624951415994,-2.89256292453542,-0.785869680995182,,-7.585675720661113,,
,9462.0,3047.0,11825.0,2219.0,2177.0,3193.0,-991.0,,,,-0.595822361862758,-2.89284606518891,-0.785881793456065,,-7.476384508756473,,
,9458.0,3045.0,11826.0,2216.0,2182.0,3194.0,-989.0,,,,-0.59598661330479,-2.89282575063354,-0.785031541824279,,-7.349226757473496,,
,9455.0,3037.0,11821.0,2210.0,2183.0,3200.0,-1010.0,,,,-0.596462905613733,-2.89271712384406,-0.784659697024699,,-7.202108788891644,,
,9452.0,3035.0,11824.0,2211.0,2184.0,3220.0,-1006.0,,,,-0.596747743358436,-2.89265578122016,-0.784499441782196,,-7.033193302681637,,
,9452.0,3034.0,11830.0,2208.0,2202.0,3196.0,-1005.0,,,,-0.597355318453202,-2.89276480314457,-0.782838230981166,,-6.840978931551249,,
,9449.0,3034.0,11825.0,2208.0,2200.0,3192.0,-1003.0,,,,-0.597941327560398,-2.89240691083395,-0.781930478619341,,-6.624355159488716,,
,9449.0,3031.0,11830.0,2204.0,2196.0,3186.0,-1018.0,,,,-0.599040867952339,-2.89223625217127,-0.780213961691332,,-6.382634903591956,,
,9448.0,3029.0,11830.0,2203.0,2205.0,3186.0,-1009.0,,,,-0.600058243961726,-2.8920845901042,-0.77794167025536,,-6.115568280172507,,
,9449.0,3032.0,11836.0,2204.0,2206.0,3161.0,-1032.0,,,,-0.602040856684693,-2.89185511320787,-0.776655355078646,,-5.823342052401884,,
,9447.0,3030.0,11835.0,2200.0,2210.0,3184.0,-1031.0,,,,-0.604089009385013,-2.89143295042155,-0.77383452946821,,-5.506569276514575,,
,9450.0,3031.0,11837.0,2204.0,2203.0,3185.0,-1020.0,,,,-0.607289509682945,-2.89119392019169,-0.771584013160429,,-5.166271996080345,,
,9449.0,3030.0,11839.0,2200.0,2188.0,3167.0,-1015.0,,,,-0.611002876759265,-2.89068925903035,-0.768764250531842,,-4.803856523841674,,
,9450.0,3028.0,11840.0,2201.0,2189.0,3173.0,-1026.0,,,,-0.615491250565735,-2.89047414805806,-0.766421023398541,,-4.421077236392782,,
,9450.0,3034.0,11844.0,2201.0,2186.0,3181.0,-1017.0,,,,-0.620148591601217,-2.88990131718123,-0.763947819752754,,-4.019983033396199,,
,9452.0,3033.0,11845.0,2203.0,2200.0,3182.0,-1021.0,,,,-0.624918858402423,-2.88920601010175,-0.762370536105417,,-3.6028421753934916,,
,9453.0,3034.0,11846.0,2204.0,2202.0,3184.0,-1022.0,,,,-0.630614933687383,-2.88876649880071,-0.760871516614391,,-3.172045722664957,,
,9455.0,3035.0,11848.0,2201.0,2200.0,3180.0,-1016.0,,,,-0.636125617891883,-2.88802984145633,-0.760299788631951,,-2.7299952471995406,,
,9458.0,3036.0,11848.0,2205.0,2206.0,3165.0,-1007.0,,,,-0.64137932153661,-2.88765982834799,-0.762470554242582,,-2.278984795894629,,
,9458.0,3040.0,11851.0,2207.0,2225.0,3172.0,-1010.0,,,,-0.645923553642824,-2.88743007306763,-0.761226705536786,,-1.8210892582503546,,
,9462.0,3041.0,11853.0,2207.0,2238.0,3181.0,-1008.0,,,,-0.649260988740527,-2.88666495817431,-0.762213512186462,,-1.3580713427352964,,
,9461.0,3040.0,11856.0,2207.0,2205.0,3193.0,-998.0,,,,-0.653123760308061,-2.88668726953177,-0.76462044977359,,-0.8913176577406139,,
,9462.0,3039.0,11853.0,2207.0,2203.0,3199.0,-1008.0,,,,-0.656986802690791,-2.88691357997464,-0.766665587110905,,-0.42181141194545885,,
,9464.0,3043.0,11856.0,2208.0,2185.0,3194.0,-1011.0,,,,-0.660767713342126,-2.88726625348289,-0.770776353944889,,0.049854427403222545,,
,9465.0,3042.0,11853.0,2209.0,2187.0,3194.0,-1018.0,,,,-0.664106480806013,-2.88798812806024,-0.775867435948542,,0.5234236901044442,,
,9465.0,3045.0,11852.0,2210.0,2191.0,3194.0,-1024.0,,,,-0.665904579022681,-2.88863618391771,-0.780539002562319,,0.998887842072265,,
,9464.0,3043.0,11851.0,2209.0,2190.0,3199.0,-1005.0,,,,-0.666785010589497,-2.88929404442167,-0.784839217304947,,1.476370379597944,,
,9465.0,3045.0,11852.0,2211.0,2190.0,3188.0,-1005.0,,,,-0.666715584715487,-2.88980579530099,-0.788883949008951,,1.9559979682205113,,
,9467.0,3044.0,11851.0,2210.0,2183.0,3198.0,-1017.0,,,,-0.666956023931785,-2.89032722961959,-0.792760035156704,,2.4377726351050573,,
,9466.0,3044.0,11849.0,2210.0,2176.0,3202.0,-1006.0,,,,-0.667882154069093,-2.89067095898152,-0.796954140693409,,2.9214561897531683,,
,9465.0,3042.0,11851.0,2209.0,2188.0,3189.0,-1008.0,,,,-0.668215345316366,-2.89104764913656,-0.798186877903716,,3.4064713425251387,,
,9464.0,3041.0,11849.0,2209.0,2192.0,3193.0,-1011.0,,,,-0.668991847687782,-2.89118496451195,-0.798773770366574,,3.8918164222734664,,
,9465.0,3042.0,11850.0,2209.0,2178.0,3189.0,-1005.0,,,,-0.668797863675905,-2.89075824092942,-0.796903098501984,,4.375985120887477,,
,9465.0,3037.0,11851.0,2208.0,2168.0,3190.0,-1009.0,,,,-0.670004397656058,-2.89034214774357,-0.795758713659546,,4.856880950240708,,
,9461.0,3037.0,11847.0,2207.0,2189.0,3202.0,-1003.0,,,,-0.670864117404289,-2.88980734927982,-0.79212579640295,,5.331718241634376,,
,9461.0,3038.0,11847.0,2206.0,2188.0,3188.0,-1004.0,,,,-0.671668973286681,-2.8894071510973,-0.790342386819657,,5.79690687260782,,
,9460.0,3038.0,11851.0,2207.0,2182.0,3192.0,-1007.0,,,,-0.672689876765601,-2.88901554251848,-0.786270811625655,,6.247925498351245,,
,9461.0,3035.0,11849.0,2208.0,2165.0,3178.0,-1006.0,,,,-0.672604305979209,-2.88869256162303,-0.784574901022209,,6.6791968549010745,,
,9462.0,3036.0,11851.0,2206.0,2177.0,3167.0,-997.0,,,,-0.672444788657998,-2.88823746621551,-0.781796301367887,,7.0839875761854305,,
,9462.0,3034.0,11849.0,2206.0,2183.0,3165.0,-1006.0,,,,-0.672393002411378,-2.88791545350602,-0.779205219923641,,7.45436252833277,,
,9460.0,3036.0,11849.0,2208.0,2198.0,3163.0,-1001.0,,,,-0.672312460850941,-2.88733808496081,-0.777560878895722,,7.781227973239963,,
,9461.0,3037.0,11849.0,2205.0,2181.0,3180.0,-1006.0,,,,-0.672037315643117,-2.88714283410592,-0.776640544164705,,8.054496590871775,,
,9460.0,3036.0,11851.0,2209.0,2189.0,3182.0,-1014.0,,,,-0.671680746443103,-2.88656735700414,-0.775343684563442,,8.263398749929621,,
,9460.0,3035.0,11849.0,2206.0,2175.0,3184.0,-1007.0,,,,-0.672010913891283,-2.88618536115337,-0.773615863410964,,8.396948634125241,,
,9460.0,3036.0,11851.0,2208.0,2182.0,3198.0,-1016.0,,,,-0.671174284191239,-2.88586989150994,-0.771737029236886,,8.444553511247207,,
,9464.0,3036.0,11855.0,2210.0,2181.0,3198.0,-1012.0,,,,-0.670752878018241,-2.88581299653457,-0.771952788425327,,8.396733068223877,,
,9465.0,3038.0,11855.0,2208.0,2185.0,3188.0,-1007.0,,,,-0.670597331450427,-2.88541647034301,-0.771048727363908,,8.245895664788545,,
,9464.0,3039.0,11854.0,2211.0,2192.0,3188.0,-1005.0,,,,-0.671471716393827,-2.88557662067762,-0.772775062353718,,7.987100713581424,,
,9467.0,3038.0,11852.0,2211.0,2195.0,3177.0,-998.0,,,,-0.672281196533897,-2.88591010786363,-0.77402624828769,,7.618723243634148,,
,9466.0,3042.0,11855.0,2212.0,2194.0,3158.0,-1006.0,,,,-0.673030056954772,-2.88596756840629,-0.774466570729966,,7.1429323925201045,,
,9466.0,3042.0,11854.0,2213.0,2186.0,3174.0,-997.0,,,,-0.673807601908233,-2.88616544319489,-0.77764724975798,,6.5659050760286215,,
,9467.0,3041.0,11855.0,2214.0,2189.0,3181.0,-995.0,,,,-0.674690132726535,-2.88665937813572,-0.778656940372471,,5.897721798068431,,
,9473.0,3043.0,11857.0,2212.0,2205.0,3173.0,-1013.0,,,,-0.675061513104678,-2.88644622447797,-0.78019033258644,,5.1519311725213015,,
,9470.0,3044.0,11855.0,2214.0,2199.0,3157.0,-1023.0,,,,-0.675594033876167,-2.88656780963916,-0.781344706111721,,4.344816173214708,,
,9468.0,3043.0,11857.0,2217.0,2192.0,3179.0,-1021.0,,,,-0.675998183633157,-2.88689040925261,-0.781572653672179,,3.494438372035296,,
,9473.0,3046.0,11859.0,2217.0,2189.0,3189.0,-1013.0,,,,-0.675985597811379,-2.88668445412347,-0.781347647682198,,2.61956653111874,,
,9471.0,3044.0,11858.0,2219.0,2187.0,3182.0,-1009.0,,,,-0.675698331845846,-2.8868101414871,-0.7814254771665,,1.7386065357033957,,
,9471.0,3046.0,11860.0,2220.0,2204.0,3191.0,-1015.0,,,,-0.675530966075849,-2.88671359624988,-0.77960864317686,,0.8686402510418002,,
,9474.0,3045.0,11856.0,2221.0,2210.0,3201.0,-1008.0,,,,-0.674255858630727,-2.88619925491086,-0.777807129274581,,0.02465622619339186,,
,9474.0,3048.0,11858.0,2222.0,2204.0,3205.0,-1008.0,,,,-0.673858986502466,-2.88589289474194,-0.776316278863902,,-0.7809774831497799,,
,9474.0,3048.0,11858.0,2225.0,2210.0,3204.0,-1008.0,,,,-0.673384121424611,-2.88552221297451,-0.775504536635846,,-1.5387820072951466,,
,9474.0,3047.0,11857.0,2225.0,2208.0,3210.0,-1004.0,,,,-0.673084625249163,-2.88577459885088,-0.774329941161163,,-2.2421919547173808,,
,9475.0,3049.0,11858.0,2226.0,2203.0,3204.0,-1009.0,,,,-0.673385693748989,-2.88569124820055,-0.774688673111688,,-2.887373518037201,,
,9475.0,3051.0,11859.0,2227.0,2188.0,3202.0,-1014.0,,,,-0.673347532019391,-2.88579990013335,-0.774799040350267,,-3.4728906918029248,,
,9479.0,3050.0,11860.0,2229.0,2181.0,3194.0,-1022.0,,,,-0.674059175274277,-2.88572734394756,-0.775634204078515,,-3.999280998850463,,
,9478.0,3049.0,11860.0,2231.0,2181.0,3188.0,-1009.0,,,,-0.674545895084777,-2.88612223132717,-0.77652635781947,,-4.468600186404201,,
,9477.0,3051.0,11860.0,2230.0,2206.0,3181.0,-1004.0,,,,-0.67527203905832,-2.8863424204917,-0.778329174613131,,-4.883985506189829,,
,9478.0,3052.0,11859.0,2234.0,2203.0,3200.0,-1010.0,,,,-0.675953279984907,-2.88662462201558,-0.77885078251087,,-5.249271972162374,,
,9478.0,3053.0,11862.0,2235.0,2196.0,3203.0,-1017.0,,,,-0.676469840422528,-2.88652092198532,-0.78095458565852,,-5.568679167417313,,
,9480.0,3051.0,11860.0,2232.0,2198.0,3187.0,-1020.0,,,,-0.67724497160167,-2.88706096261375,-0.782569332485195,,-5.846571712957408,,
,9478.0,3050.0,11857.0,2231.0,2194.0,3196.0,-1022.0,,,,-0.677844919871613,-2.8873354710751,-0.784643639131711,,-6.087286954647053,,
,9479.0,3045.0,11853.0,2233.0,2187.0,3185.0,-1010.0,,,,-0.678595013724694,-2.88779943165634,-0.786670311969911,,-6.295018941083055,,
,9475.0,3044.0,11849.0,2230.0,2203.0,3200.0,-1022.0,,,,-0.679255702476205,-2.88821523313558,-0.789128114992681,,-6.473746753306157,,
,9472.0,3040.0,11842.0,2230.0,2202.0,3193.0,-1017.0,,,,-0.679507606924576,-2.8885915439061,-0.79068440000642,,-6.627195823176262,,
,9466.0,3030.0,11838.0,2226.0,2193.0,3200.0,-1007.0,,,,-0.679641200660932,-2.88869263496821,-0.792358026472494,,-6.758821914211109,,
,9466.0,3023.0,11834.0,2223.0,2178.0,3182.0,-1003.0,,,,-0.679415832734487,-2.88885472759563,-0.794112287097402,,-6.871808601996242,,
,9459.0,3019.0,11828.0,2222.0,2170.0,3179.0,-990.0,,,,-0.679149818410226,-2.88877682386759,-0.793895396565248,,-6.969070325668301,,
,9455.0,3014.0,11825.0,2217.0,2165.0,3176.0,-991.0,,,,-0.679176124878109,-2.8885967212251,-0.79351278963194,,-7.05325424374648,,
,9452.0,3007.0,11822.0,2214.0,2159.0,3180.0,-995.0,,,,-0.678972679751853,-2.88873794398539,-0.794125552150795,,-7.126734979393256,,
,9444.0,3000.0,11820.0,2209.0,2167.0,3182.0,-1007.0,,,,-0.678193842330184,-2.88845744815657,-0.792773104695,,-7.191596705770861,,
2025-07-21 21:21:15,9445.0,2997.0,11819.0,2208.0,2179.0,3182.0,-1005.0,,,2025/07/21 09:21:15 PM,-0.677886745095837,-2.88822686829309,-0.792409860427421,,-7.249596964694711,,
,9439.0,2994.0,11820.0,2206.0,2181.0,3170.0,-994.0,,,,-0.677841863652999,-2.88799286610442,-0.792115400964689,,-7.3021066651040965,,
,9439.0,2988.0,11821.0,2205.0,2176.0,3166.0,-998.0,,,,-0.67705064851674,-2.88823576877778,-0.791296257370936,,-7.350021984102772,,
,9437.0,2985.0,11821.0,2199.0,2173.0,3186.0,-990.0,,,,-0.67697625986313,-2.88794808985686,-0.791413540373977,,-7.3936476484409095,,
,9433.0,2985.0,11823.0,2201.0,2188.0,3192.0,-1006.0,,,,-0.676568686977726,-2.8876991901976,-0.789867419970293,,-7.43255772769037,,
,9433.0,2985.0,11827.0,2202.0,2190.0,3182.0,-1002.0,,,,-0.676150946099892,-2.8876179323633,-0.789726665251764,,-7.465448471021258,,
,9433.0,2985.0,11829.0,2201.0,2181.0,3190.0,-1003.0,,,,-0.675720823372918,-2.88754693222248,-0.789079753483934,,-7.490005477759941,,
,9434.0,2983.0,11833.0,2200.0,2186.0,3204.0,-1017.0,,,,-0.675234044833181,-2.8873355619111,-0.787789018071399,,-7.502812165258559,,
,9432.0,2980.0,11831.0,2198.0,2178.0,3182.0,-1008.0,,,,-0.67430680104894,-2.88695077633506,-0.787782342275589,,-7.499326593097975,,
,9435.0,2982.0,11837.0,2201.0,2177.0,3185.0,-1013.0,,,,-0.673060783488119,-2.88643709530536,-0.785664867841193,,-7.4739488968815975,,
,9432.0,2984.0,11839.0,2201.0,2193.0,3172.0,-1016.0,,,,-0.672370311687433,-2.88606144379207,-0.783643593811094,,-7.420192482439131,,
,9436.0,2985.0,11842.0,2203.0,2190.0,3171.0,-1016.0,,,,-0.671549758086607,-2.88600531180056,-0.782652711504463,,-7.33095999841366,,
,9435.0,2983.0,11841.0,2201.0,2180.0,3180.0,-1029.0,,,,-0.670742410915002,-2.88537759279189,-0.781237926330114,,-7.198911584625178,,
,9438.0,2986.0,11842.0,2204.0,2178.0,3187.0,-1023.0,,,,-0.670847875164617,-2.88521393285029,-0.78017487766537,,-7.016899698105926,,
,9439.0,2989.0,11847.0,2208.0,2167.0,3195.0,-1028.0,,,,-0.669506747120385,-2.88460988707442,-0.77759045428275,,-6.778433688797233,,
,9437.0,2989.0,11848.0,2210.0,2184.0,3197.0,-1022.0,,,,-0.668226423215023,-2.88384394194463,-0.774690739070667,,-6.47813024461939,,
,9441.0,2989.0,11850.0,2207.0,2187.0,3199.0,-1009.0,,,,-0.666736166256674,-2.88335367833531,-0.772681546235538,,-6.112104994328397,,
,9442.0,2991.0,11850.0,2209.0,2193.0,3176.0,-1003.0,,,,-0.665469833423734,-2.88288909051458,-0.770771246532387,,-5.678267154179816,,
,9444.0,2992.0,11852.0,2213.0,2196.0,3187.0,-1013.0,,,,-0.664424428567319,-2.8827561967346,-0.76965164483547,,-5.176492125642137,,
,9445.0,2994.0,11854.0,2215.0,2183.0,3184.0,-1003.0,,,,-0.6638660489476,-2.88230824127913,-0.7690805902625,,-4.608663137785477,,
,9446.0,2994.0,11853.0,2216.0,2174.0,3168.0,-1005.0,,,,-0.663265219269552,-2.88206657357502,-0.767822055929545,,-3.978588461636182,,
,9448.0,2993.0,11853.0,2217.0,2189.0,3178.0,-996.0,,,,-0.662691583882221,-2.88194175126407,-0.76733987870488,,-3.291812741225819,,
,9448.0,2995.0,11854.0,2219.0,2177.0,3190.0,-1002.0,,,,-0.662306179313147,-2.88165920164569,-0.76625498994352,,-2.555348794669403,,
,9451.0,2995.0,11853.0,2221.0,2178.0,3175.0,-1000.0,,,,-0.662316101286197,-2.88139243964985,-0.76531657902844,,-1.777360082891814,,
,9452.0,2998.0,11852.0,2221.0,2174.0,3180.0,-1001.0,,,,-0.66215003271707,-2.88125379368253,-0.764867195544343,,-0.9668241331014029,,
,9449.0,2994.0,11850.0,2221.0,2179.0,3200.0,-992.0,,,,-0.661443003383048,-2.88103664476753,-0.764529566237106,,-0.13320339482712643,,
,9450.0,2996.0,11851.0,2221.0,2179.0,3205.0,-992.0,,,,-0.661578048934872,-2.8808629772985,-0.763799606736748,,0.713857739664287,,
,9450.0,2993.0,11852.0,2222.0,2169.0,3203.0,-994.0,,,,-0.661221852628518,-2.88057978485543,-0.763111808217785,,1.5648018638913912,,
,9450.0,2993.0,11849.0,2220.0,2178.0,3212.0,-987.0,,,,-0.660608539311014,-2.8806286368234,-0.761780939206886,,2.410397195434581,,
,9449.0,2992.0,11849.0,2223.0,2176.0,3188.0,-992.0,,,,-0.660087383955997,-2.88033228442366,-0.761096706766558,,3.241958441529279,,
,9447.0,2990.0,11847.0,2222.0,2182.0,3196.0,-984.0,,,,-0.65963772632345,-2.8803874156524,-0.760798472699594,,4.051564417823188,,
,9445.0,2989.0,11846.0,2220.0,2176.0,3197.0,-1006.0,,,,-0.659319900609659,-2.88021330457036,-0.760780382885161,,4.8322805717383694,,
,9446.0,2991.0,11845.0,2222.0,2193.0,3190.0,-1003.0,,,,-0.658961863583014,-2.87996256450715,-0.759570259197147,,5.578382168411785,,
,9444.0,2986.0,11847.0,2222.0,2190.0,3193.0,-1018.0,,,,-0.658824204572118,-2.87980879411973,-0.759398345712598,,6.2855606835768905,,
,9444.0,2986.0,11842.0,2222.0,2184.0,3181.0,-1008.0,,,,-0.658126695448053,-2.87978159466401,-0.759586433774644,,6.951086616025229,,
,9444.0,2987.0,11843.0,2222.0,2177.0,3193.0,-1015.0,,,,-0.657992796141838,-2.87981209876481,-0.759583153173812,,7.573898668621843,,
,9446.0,2988.0,11847.0,2219.0,2195.0,3196.0,-1015.0,,,,-0.657271414420891,-2.87984262344853,-0.759035127042978,,8.154592257171409,,
,9446.0,2986.0,11846.0,2220.0,2194.0,3183.0,-1021.0,,,,-0.657150053718906,-2.87947911770255,-0.758945001482569,,8.695288887369747,,
,9444.0,2988.0,11847.0,2220.0,2186.0,3182.0,-1024.0,,,,-0.656846738887996,-2.87933001702238,-0.758370952083809,,9.199380702524417,,
,9445.0,2985.0,11847.0,2222.0,2189.0,3187.0,-1023.0,,,,-0.657070484074272,-2.87933868209829,-0.758352653172166,,9.67115939517835,,
,9445.0,2987.0,11847.0,2221.0,2202.0,3209.0,-1032.0,,,,-0.656316184735496,-2.87924202751476,-0.757164686071854,,10.115353433752361,,
,9445.0,2988.0,11849.0,2224.0,2208.0,3204.0,-1021.0,,,,-0.656342166854414,-2.87932774398593,-0.758145032633152,,10.536610176904528,,
,9446.0,2992.0,11851.0,2223.0,2204.0,3203.0,-1017.0,,,,-0.656405685735879,-2.87912248154053,-0.757225487117865,,10.93896811471953,,
,9445.0,2990.0,11851.0,2225.0,2182.0,3193.0,-1022.0,,,,-0.656514826203016,-2.87906531371178,-0.757583181302508,,11.325367387423926,,
,9445.0,2991.0,11852.0,2226.0,2179.0,3204.0,-1029.0,,,,-0.656346409299301,-2.87920756645522,-0.757565849798407,,11.69724271861552,,
,9452.0,2993.0,11853.0,2226.0,2177.0,3201.0,-1011.0,,,,-0.656699865016113,-2.87934114948368,-0.75944471372961,,12.054232499193892,,
,9447.0,2991.0,11853.0,2228.0,2183.0,3200.0,-1011.0,,,,-0.656806708485835,-2.87961080163202,-0.759927733225861,,12.394023372274598,,
,9451.0,2992.0,11854.0,2228.0,2177.0,3187.0,-1006.0,,,,-0.656262573214789,-2.8795659439522,-0.761630148715261,,12.712334379466801,,
,9448.0,2994.0,11855.0,2229.0,2174.0,3179.0,-1002.0,,,,-0.656415720196656,-2.87972493106732,-0.761729354020311,,13.003031028392755,,
,9452.0,2995.0,11855.0,2232.0,2164.0,3197.0,-998.0,,,,-0.65716657800742,-2.87999491554089,-0.763289370104475,,13.258349176588874,,
,9452.0,2997.0,11858.0,2234.0,2183.0,3202.0,-1011.0,,,,-0.656989091553999,-2.88008132149263,-0.764350900554684,,13.469202563728523,,
,9451.0,2997.0,11858.0,2234.0,2178.0,3195.0,-1020.0,,,,-0.657275662970359,-2.88028867629681,-0.765332045187913,,13.625546965353292,,
,9453.0,2996.0,11857.0,2233.0,2172.0,3182.0,-1002.0,,,,-0.657722702692676,-2.88033116343434,-0.765896395943388,,13.716778389546231,,
,9453.0,2998.0,11856.0,2238.0,2191.0,3204.0,-1007.0,,,,-0.657805550040783,-2.8804810872384,-0.765820393107485,,13.732151390650712,,
,9459.0,3000.0,11859.0,2237.0,2174.0,3197.0,-1004.0,,,,-0.658848695465033,-2.88049583106085,-0.765804670551775,,13.661213792183714,,
,9457.0,3002.0,11861.0,2242.0,2179.0,3189.0,-1006.0,,,,-0.659788899149011,-2.88063556533624,-0.766525452984135,,13.494261955246436,,
,9457.0,3003.0,11859.0,2242.0,2175.0,3193.0,-1017.0,,,,-0.660886868584271,-2.88108940089649,-0.765757362495193,,13.222822159453447,,
,9459.0,3006.0,11859.0,2242.0,2186.0,3213.0,-1013.0,,,,-0.661629545361307,-2.8809974778712,-0.766331117592404,,12.840156599768646,,
,9459.0,3008.0,11861.0,2246.0,2201.0,3203.0,-1011.0,,,,-0.661753215063293,-2.8810745968769,-0.765559156716723,,12.341778465678653,,
,9460.0,3004.0,11862.0,2245.0,2208.0,3181.0,-1004.0,,,,-0.662592863792432,-2.8811984312997,-0.765818032228544,,11.725944177400777,,
,9459.0,3007.0,11862.0,2244.0,2203.0,3188.0,-1000.0,,,,-0.662944912767524,-2.88106954488234,-0.765750128080436,,10.994077309822755,,
,9461.0,3007.0,11864.0,2248.0,2196.0,3188.0,-995.0,,,,-0.662907999755456,-2.88135806555786,-0.764640962417604,,10.151071643308965,,
,9461.0,3010.0,11862.0,2247.0,2181.0,3196.0,-1000.0,,,,-0.662914254541452,-2.88128261672199,-0.763895475265079,,9.20542184407212,,
,9465.0,3012.0,11865.0,2251.0,2182.0,3182.0,-1016.0,,,,-0.662927356743715,-2.88118891733735,-0.764573238370457,,8.16913999530161,,
,9464.0,3010.0,11862.0,2251.0,2183.0,3182.0,-1013.0,,,,-0.662640016066764,-2.88111503480766,-0.764036555654513,,7.057434200858035,,
,9462.0,3010.0,11864.0,2253.0,2183.0,3176.0,-999.0,,,,-0.662607647753301,-2.88075643575922,-0.762683413785956,,5.888150272165274,,
,9465.0,3012.0,11861.0,2254.0,2191.0,3192.0,-991.0,,,,-0.661504018402513,-2.88059133483533,-0.761844386395668,,4.681006113902213,,
,9464.0,3013.0,11865.0,2254.0,2188.0,3184.0,-1009.0,,,,-0.66118138097374,-2.88032427377634,-0.760803649743568,,3.4566763622839827,,
,9470.0,3017.0,11865.0,2258.0,2181.0,3188.0,-1010.0,,,,-0.660109390162285,-2.88000724002135,-0.759955607543105,,2.2358066486285435,,
,9467.0,3018.0,11867.0,2260.0,2184.0,3183.0,-990.0,,,,-0.659411394583947,-2.87982495376729,-0.757814827197844,,1.0380473710447569,,
,9468.0,3015.0,11865.0,2256.0,2182.0,3191.0,-996.0,,,,-0.661068951424905,-2.88063708300096,-0.760019701529617,,-0.11880698621282391,,
,9466.0,3016.0,11861.0,2260.0,2189.0,3186.0,-1002.0,,,,-0.665627371041198,-2.88161793552225,-0.765149058077193,,-1.2195042720012377,,
,9466.0,3017.0,11860.0,2262.0,2193.0,3194.0,-1002.0,,,,-0.665692201843446,-2.88158459502852,-0.763398079578908,,-2.2518040356411384,,
,9468.0,3016.0,11857.0,2260.0,2196.0,3194.0,-998.0,,,,-0.665281447060339,-2.88155405266887,-0.761753650567354,,-3.2067149774850505,,
,9462.0,3006.0,11850.0,2258.0,2212.0,3206.0,-1008.0,,,,-0.663408971122656,-2.88100330646664,-0.759643385665826,,-4.078510386628349,,
,9461.0,3004.0,11846.0,2256.0,2196.0,3195.0,-1011.0,,,,-0.659890204184716,-2.88019595017977,-0.755321910736532,,-4.864550770322619,,
,9456.0,2998.0,11840.0,2252.0,2197.0,3182.0,-1006.0,,,,-0.657588923204914,-2.87962828241269,-0.752376407699171,,-5.564956247476335,,
,9452.0,2992.0,11834.0,2249.0,2191.0,3185.0,-1002.0,,,,-0.656218345985236,-2.87884745460618,-0.751717520959776,,-6.1821785242015,,
,9445.0,2986.0,11828.0,2243.0,2196.0,3193.0,-990.0,,,,-0.654436383211849,-2.87854804841753,-0.748915926683072,,-6.72052310007797,,
,9440.0,2975.0,11826.0,2240.0,2185.0,3185.0,-998.0,,,,-0.653400127588831,-2.87827518498383,-0.747097419464263,,-7.185666981637627,,
,9436.0,2974.0,11823.0,2239.0,2184.0,3174.0,-996.0,,,,-0.652010670194789,-2.87802995513871,-0.745573194847872,,-7.5842068239993115,,
,9432.0,2966.0,11822.0,2236.0,2198.0,3171.0,-993.0,,,,-0.650712092895323,-2.87754566718456,-0.745001766026086,,-7.923259248714426,,
,9428.0,2962.0,11820.0,2232.0,2205.0,3172.0,-991.0,,,,-0.649959862775383,-2.87758764080334,-0.742555841930816,,-8.210121799466473,,
,9423.0,2957.0,11818.0,2229.0,2188.0,3187.0,-1003.0,,,,-0.648917901348298,-2.87726606484625,-0.74205940620037,,-8.451992330777987,,
,9421.0,2954.0,11823.0,2229.0,2208.0,3176.0,-1002.0,,,,-0.647359763166723,-2.87716269696505,-0.74033402137621,,-8.655738653872847,,
,9420.0,2952.0,11823.0,2228.0,2201.0,3187.0,-998.0,,,,-0.646543279809127,-2.87694958747335,-0.738537681305213,,-8.827709534377025,,
,9417.0,2953.0,11826.0,2225.0,2201.0,3195.0,-998.0,,,,-0.645038842925125,-2.87683897621541,-0.737112760232025,,-8.973581264128928,,
,9417.0,2953.0,11829.0,2224.0,2199.0,3193.0,-985.0,,,,-0.644013383408892,-2.87661695998519,-0.736506679987031,,-9.098238475928985,,
,9421.0,2950.0,11830.0,2223.0,2191.0,3180.0,-994.0,,,,-0.643207568342006,-2.87649559919048,-0.734963941127396,,-9.205691442325808,,
,9417.0,2952.0,11832.0,2225.0,2186.0,3179.0,-1015.0,,,,-0.642681458551962,-2.87654544539594,-0.735069449165897,,-9.299033836460335,,
,9419.0,2953.0,11840.0,2224.0,2188.0,3189.0,-1006.0,,,,-0.641908489179093,-2.87642000698864,-0.732841546054463,,-9.380444849062782,,
,9416.0,2954.0,11838.0,2225.0,2183.0,3189.0,-1004.0,,,,-0.641243930372094,-2.87645546731479,-0.73284107409485,,-9.4512380141069,,
,9418.0,2954.0,11838.0,2227.0,2179.0,3198.0,-1010.0,,,,-0.64056704606769,-2.87643889861408,-0.732533163217531,,-9.511956539588043,,
,9419.0,2956.0,11843.0,2227.0,2191.0,3188.0,-1022.0,,,,-0.640424796675288,-2.87637777857808,-0.731296505454707,,-9.562511815357823,,
,9423.0,2960.0,11847.0,2229.0,2193.0,3191.0,-1018.0,,,,-0.639730313778708,-2.87618003758417,-0.73239759473304,,-9.602358321112845,,
,9424.0,2961.0,11848.0,2229.0,2206.0,3201.0,-1012.0,,,,-0.639875340157093,-2.87676221051008,-0.732398645901148,,-9.63069429513067,,
,9423.0,2962.0,11847.0,2229.0,2203.0,3194.0,-1017.0,,,,-0.639521991923375,-2.87685086063975,-0.731068579311946,,-9.64667314233841,,
,9428.0,2962.0,11851.0,2229.0,2196.0,3197.0,-1014.0,,,,-0.639423572175716,-2.87681594025465,-0.731585486243448,,-9.649606219188511,,
,9426.0,2965.0,11851.0,2232.0,2188.0,3198.0,-1005.0,,,,-0.63962242138868,-2.87705539044713,-0.732053014899159,,-9.639134880205127,,
,9429.0,2966.0,11850.0,2232.0,2193.0,3183.0,-1007.0,,,,-0.639682574693142,-2.87692682642975,-0.732670402951578,,-9.615350335045477,,
,9429.0,2968.0,11852.0,2234.0,2188.0,3175.0,-999.0,,,,-0.639740480912569,-2.87690393501838,-0.731722196073344,,-9.578844714674878,,
,9430.0,2968.0,11855.0,2235.0,2186.0,3174.0,-1017.0,,,,-0.639675704944366,-2.87702665394977,-0.731831002603436,,-9.530684771349602,,
,9433.0,2972.0,11857.0,2236.0,2185.0,3189.0,-1012.0,,,,-0.639222490887392,-2.87691521578674,-0.731792140315569,,-9.472308675695562,,
,9435.0,2973.0,11857.0,2237.0,2190.0,3182.0,-1015.0,,,,-0.639342882179615,-2.87708123141464,-0.731362071722658,,-9.405354457726006,,
,9435.0,2972.0,11853.0,2235.0,2190.0,3194.0,-1023.0,,,,-0.638441931662695,-2.87725501207973,-0.731267885385413,,-9.331434872258411,,
,9432.0,2973.0,11855.0,2237.0,2193.0,3197.0,-1014.0,,,,-0.63804609244776,-2.87713777308524,-0.730362640163664,,-9.251877961894548,,
,9435.0,2972.0,11855.0,2237.0,2186.0,3200.0,-1005.0,,,,-0.638035875583527,-2.87731650626993,-0.730634639366771,,-9.167455894339875,,
,9436.0,2975.0,11858.0,2240.0,2193.0,3198.0,-1007.0,,,,-0.637280486139063,-2.87753421181656,-0.731027680952623,,-9.078127205542119,,
,9435.0,2971.0,11856.0,2240.0,2189.0,3197.0,-1003.0,,,,-0.636770969959542,-2.87757504614273,-0.730990274731207,,-8.982819249006589,,
,9436.0,2973.0,11853.0,2240.0,2193.0,3218.0,-999.0,,,,-0.636541604396948,-2.87763067136482,-0.729841990407181,,-8.879277423675177,,
,9432.0,2969.0,11851.0,2237.0,2189.0,3195.0,-997.0,,,,-0.63585528675004,-2.87765977712844,-0.72979166554736,,-8.76400406251002,,
,9433.0,2970.0,11852.0,2238.0,2175.0,3206.0,-998.0,,,,-0.63513678479382,-2.87741639458242,-0.729061000527389,,-8.632301781163408,,
,9433.0,2971.0,11851.0,2239.0,2177.0,3209.0,-992.0,,,,-0.634324392344576,-2.87752344090837,-0.72899637853987,,-8.47842453899501,,
,9435.0,2968.0,11852.0,2238.0,2180.0,3206.0,-998.0,,,,-0.633604541971546,-2.87751302674873,-0.729601383378081,,-8.295827337210765,,
,9431.0,2968.0,11853.0,2236.0,2204.0,3197.0,-1000.0,,,,-0.633080581149546,-2.87776904755977,-0.728666546330844,,-8.07749527790361,,
,9430.0,2969.0,11852.0,2238.0,2203.0,3194.0,-1006.0,,,,-0.632277568620848,-2.87779541920154,-0.728369317868185,,-7.816326266446942,,
,9431.0,2968.0,11849.0,2239.0,2195.0,3200.0,-1010.0,,,,-0.630908559696534,-2.87793551719081,-0.728127141877279,,-7.50553908546824,,
,9432.0,2970.0,11851.0,2239.0,2184.0,3200.0,-1012.0,,,,-0.630892655368185,-2.87773471835262,-0.728362741842357,,-7.139079217503305,,
,9429.0,2968.0,11850.0,2236.0,2197.0,3202.0,-1020.0,,,,-0.629717461255061,-2.87784425258365,-0.727420073660136,,-6.711997755288346,,
,9430.0,2967.0,11851.0,2239.0,2189.0,3195.0,-1013.0,,,,-0.62902001268737,-2.87777944736518,-0.727612269870679,,-6.220783131665431,,
,9429.0,2968.0,11852.0,2239.0,2177.0,3201.0,-1011.0,,,,-0.627969282538749,-2.87794759907816,-0.727980075835839,,-5.663630429101093,,
,9430.0,2969.0,11854.0,2241.0,2183.0,3189.0,-1007.0,,,,-0.627603394354921,-2.87793297968419,-0.727303427718635,,-5.040637984918254,,
,9432.0,2970.0,11858.0,2243.0,2182.0,3185.0,-1011.0,,,,-0.627013449554278,-2.87790791751941,-0.727228456909727,,-4.353925198170999,,
,9431.0,2969.0,11852.0,2238.0,2189.0,3197.0,-1021.0,,,,-0.626838173856262,-2.87790536951451,-0.726761354341327,,-3.607668221005619,,
,9433.0,2968.0,11856.0,2241.0,2188.0,3197.0,-1016.0,,,,-0.626021254787333,-2.87794463994329,-0.727392951359525,,-2.808051309600584,,
,9433.0,2970.0,11859.0,2243.0,2190.0,3186.0,-996.0,,,,-0.625396554717721,-2.87780945164355,-0.726470065296061,,-1.9631316246040282,,
,9433.0,2971.0,11858.0,2246.0,2185.0,3183.0,-992.0,,,,-0.625612115271804,-2.87786693781579,-0.726652550860175,,-1.0826157717985498,,
,9433.0,2974.0,11859.0,2246.0,2188.0,3202.0,-994.0,,,,-0.625501835399384,-2.87788808464634,-0.727213963415082,,-0.1775489750745849,,
2025-07-21 21:21:16,9439.0,2974.0,11862.0,2245.0,2193.0,3206.0,-998.0,,,2025/07/21 09:21:16 PM,-0.625047129527717,-2.87788135832017,-0.726846377264148,,0.7400771094895041,,
,9438.0,2976.0,11863.0,2249.0,2195.0,3187.0,-990.0,,,,-0.62472918785634,-2.87801369956634,-0.726635196527281,,1.6577852933679287,,
,9437.0,2979.0,11862.0,2249.0,2185.0,3183.0,-994.0,,,,-0.624557867899732,-2.87826603281722,-0.726897943161653,,2.5631230608390543,,
,9439.0,2980.0,11865.0,2249.0,2177.0,3181.0,-1000.0,,,,-0.62432425263565,-2.87841835238124,-0.72722870594549,,3.44419659393159,,
,9440.0,2979.0,11863.0,2250.0,2171.0,3179.0,-999.0,,,,-0.623795137170743,-2.87842231498979,-0.727113180854473,,4.2901979507672285,,
,9443.0,2979.0,11863.0,2250.0,2192.0,3184.0,-1003.0,,,,-0.623476489123786,-2.87874393259969,-0.727680915707667,,5.091890672128869,,
,9444.0,2983.0,11865.0,2251.0,2170.0,3183.0,-1003.0,,,,-0.622964889933271,-2.87867746693906,-0.728216108114378,,5.842016912937552,,
,9445.0,2982.0,11863.0,2253.0,2177.0,3180.0,-1005.0,,,,-0.622571772581757,-2.87865537565828,-0.728695518599624,,6.535590267166346,,
,9441.0,2984.0,11863.0,2253.0,2181.0,3185.0,-999.0,,,,-0.621581322875677,-2.87895498467635,-0.728250149536911,,7.1700443552980815,,
,9443.0,2986.0,11867.0,2257.0,2191.0,3184.0,-994.0,,,,-0.621646068605456,-2.87903443154358,-0.72888139314721,,7.745218963085418,,
,9446.0,2987.0,11867.0,2256.0,2204.0,3182.0,-987.0,,,,-0.621716611268354,-2.87897345179958,-0.728781543880235,,8.263182443514163,,
,9448.0,2990.0,11868.0,2259.0,2199.0,3185.0,-987.0,,,,-0.622555950453978,-2.8790760592205,-0.728492135453954,,8.727908272681265,,
,9447.0,2990.0,11868.0,2260.0,2195.0,3187.0,-998.0,,,,-0.622775239008453,-2.87909109204373,-0.729134501028168,,9.144840345892728,,
,9447.0,2990.0,11864.0,2261.0,2176.0,3194.0,-1003.0,,,,-0.623456969069922,-2.8789469522262,-0.728499757800962,,9.520391442232858,,
,9449.0,2992.0,11866.0,2261.0,2190.0,3197.0,-998.0,,,,-0.623491430778768,-2.87887580902677,-0.728230501942654,,9.861420563295905,,
,9451.0,2993.0,11869.0,2263.0,2183.0,3219.0,-1004.0,,,,-0.624028499078267,-2.87898065648941,-0.728055099124254,,10.17472895826748,,
,9452.0,2993.0,11867.0,2263.0,2179.0,3210.0,-1008.0,,,,-0.623808661655761,-2.87901097040499,-0.72762389325815,,10.46660459963495,,
,9451.0,2996.0,11867.0,2262.0,2182.0,3185.0,-1002.0,,,,-0.623076179750229,-2.87883167518132,-0.728354951762718,,10.742433565969922,,
,9451.0,2996.0,11867.0,2263.0,2192.0,3183.0,-1000.0,,,,-0.622582620138328,-2.87877975211833,-0.728694567191687,,11.006386300399951,,
,9455.0,2999.0,11869.0,2268.0,2205.0,3196.0,-1004.0,,,,-0.621787415172183,-2.87890208525845,-0.727823767466775,,11.261178553465138,,
,9454.0,2997.0,11870.0,2268.0,2195.0,3192.0,-1008.0,,,,-0.62100516129661,-2.87892288569336,-0.728280604791125,,11.507902247715272,,
,9458.0,2999.0,11872.0,2268.0,2185.0,3195.0,-999.0,,,,-0.620362977373241,-2.87911040878374,-0.72805795352032,,11.745921393013795,,
,9457.0,3000.0,11870.0,2268.0,2179.0,3187.0,-1001.0,,,,-0.620600894088733,-2.8792422011316,-0.728312593564155,,11.972832372006128,,
,9457.0,3002.0,11871.0,2270.0,2191.0,3196.0,-1010.0,,,,-0.62054436102514,-2.87893219466027,-0.727254368168605,,12.184494429656727,,
,9459.0,3003.0,11871.0,2271.0,2187.0,3217.0,-998.0,,,,-0.62073290550452,-2.87892698007951,-0.727772505875076,,12.375141371622158,,
,9457.0,3005.0,11870.0,2271.0,2192.0,3227.0,-998.0,,,,-0.620175446325862,-2.87884189913322,-0.726952304069642,,12.537585691707868,,
,9461.0,3005.0,11868.0,2272.0,2225.0,3209.0,-993.0,,,,-0.619676444142655,-2.87872600485136,-0.726577487953465,,12.663520292665646,,
,9459.0,3008.0,11870.0,2273.0,2195.0,3200.0,-992.0,,,,-0.619206847537273,-2.87871189766975,-0.72750263242147,,12.74391215338411,,
,9460.0,3009.0,11871.0,2275.0,2186.0,3183.0,-998.0,,,,-0.618680440249265,-2.87847768254005,-0.726799158221069,,12.769469584626274,,
,9463.0,3011.0,11872.0,2277.0,2185.0,3189.0,-997.0,,,,-0.617584716880448,-2.87875185521359,-0.726301414069076,,12.731152725061465,,
,9462.0,3007.0,11870.0,2275.0,2183.0,3220.0,-983.0,,,,-0.617153652643762,-2.87839658390168,-0.72566583064724,,12.620687787160213,,
,9461.0,3005.0,11867.0,2276.0,2177.0,3204.0,-1017.0,,,,-0.616633908930736,-2.87828821782493,-0.725631307211663,,12.431041239608795,,
,9456.0,3005.0,11858.0,2271.0,2182.0,3198.0,-1001.0,,,,-0.616607819568635,-2.8784252670114,-0.725375521555186,,12.156812174444697,,
,9457.0,2998.0,11855.0,2270.0,2190.0,3197.0,-1003.0,,,,-0.616832698354496,-2.87829226279694,-0.724840082087668,,11.794510050842632,,
,9452.0,2994.0,11847.0,2268.0,2195.0,3201.0,-1001.0,,,,-0.617198735242392,-2.87826119793536,-0.725376253690107,,11.34270000144164,,
,9442.0,2984.0,11840.0,2261.0,2200.0,3199.0,-995.0,,,,-0.617621369652905,-2.8785283140991,-0.725066726657612,,10.802016865071352,,
,9442.0,2982.0,11837.0,2255.0,2182.0,3192.0,-1000.0,,,,-0.618046002435767,-2.87830865479518,-0.72488461166585,,10.17506867373734,,
,9437.0,2976.0,11832.0,2256.0,2183.0,3185.0,-1004.0,,,,-0.617743216801935,-2.87834833888931,-0.725821529141082,,9.46626581963436,,
,9430.0,2965.0,11825.0,2251.0,2184.0,3185.0,-995.0,,,,-0.6178036688625,-2.87850583106184,-0.72527108469548,,8.68161901089935,,
,9427.0,2958.0,11826.0,2247.0,2177.0,3211.0,-995.0,,,,-0.617244168778269,-2.87838504066076,-0.726205105053595,,7.828545314424329,,
,9419.0,2955.0,11828.0,2244.0,2187.0,3189.0,-983.0,,,,-0.617608161818633,-2.87825802274466,-0.72592764680085,,6.915708655267798,,
,9416.0,2951.0,11826.0,2241.0,2183.0,3183.0,-989.0,,,,-0.618186685012556,-2.87820839314954,-0.725469189991401,,5.952903079580973,,
,9415.0,2945.0,11827.0,2237.0,2179.0,3180.0,-993.0,,,,-0.618010130573831,-2.8781546044423,-0.724596765810918,,4.950968182842756,,
,9416.0,2946.0,11829.0,2236.0,2180.0,3185.0,-1004.0,,,,-0.618228342512904,-2.87820074746113,-0.724416385919928,,3.9217099629773577,,
,9411.0,2943.0,11833.0,2233.0,2203.0,3198.0,-1002.0,,,,-0.618359118211481,-2.87829118939093,-0.72512391772938,,2.8777899592040317,,
,9410.0,2944.0,11833.0,2232.0,2197.0,3189.0,-1003.0,,,,-0.619092121114713,-2.8782450631349,-0.725710622931923,,1.8325432805771262,,
,9411.0,2945.0,11835.0,2234.0,2185.0,3191.0,-1001.0,,,,-0.619461522936125,-2.87835129061546,-0.725364186280312,,0.7996934804143404,,
,9408.0,2946.0,11840.0,2234.0,2189.0,3199.0,-1003.0,,,,-0.619668718555284,-2.87845108166227,-0.725590350103154,,-0.20705076768255495,,
,9410.0,2943.0,11841.0,2232.0,2201.0,3198.0,-1004.0,,,,-0.620886860779459,-2.87856726400982,-0.725794347877838,,-1.1745075442379012,,
,9408.0,2944.0,11844.0,2231.0,2190.0,3196.0,-997.0,,,,-0.622011007071342,-2.8784947868228,-0.726725226278808,,-2.0906046205591293,,
,9412.0,2948.0,11846.0,2232.0,2195.0,3182.0,-1005.0,,,,-0.623124371048013,-2.87842709412868,-0.727050607879808,,-2.9449720015177547,,
,9411.0,2947.0,11849.0,2232.0,2188.0,3182.0,-1008.0,,,,-0.624552071901894,-2.87850429352767,-0.727201169041336,,-3.7294700360993414,,
,9413.0,2946.0,11852.0,2232.0,2183.0,3202.0,-997.0,,,,-0.626112067258502,-2.87861295228555,-0.727634049863188,,-4.438582351506786,,
,9413.0,2948.0,11852.0,2233.0,2184.0,3185.0,-1016.0,,,,-0.627981012539481,-2.87850706886973,-0.728785377802319,,-5.0696210136471755,,
,9413.0,2952.0,11851.0,2236.0,2190.0,3194.0,-998.0,,,,-0.628945198905136,-2.87856643680885,-0.729521158101424,,-5.622718603905979,,
,9416.0,2952.0,11856.0,2236.0,2184.0,3181.0,-990.0,,,,-0.631157136147645,-2.8789712759157,-0.729604617193511,,-6.100611247634014,,
,9418.0,2953.0,11859.0,2239.0,2195.0,3185.0,-990.0,,,,-0.632927972027464,-2.87909573748928,-0.730447047707328,,-6.508242445246583,,
,9420.0,2954.0,11859.0,2235.0,2193.0,3189.0,-1004.0,,,,-0.634496763641161,-2.87910792345404,-0.730976384558531,,-6.85223656359204,,
,9420.0,2958.0,11862.0,2239.0,2180.0,3196.0,-1007.0,,,,-0.636370171570791,-2.87884477227653,-0.730653612140929,,-7.1403016285284755,,
,9422.0,2959.0,11860.0,2242.0,2186.0,3193.0,-1017.0,,,,-0.63725077828381,-2.87895784624275,-0.731115259016877,,-7.380623490209291,,
,9424.0,2959.0,11862.0,2241.0,2199.0,3190.0,-1010.0,,,,-0.63908173883464,-2.87895060307702,-0.73173061612447,,-7.58130822584575,,
,9424.0,2961.0,11863.0,2245.0,2198.0,3195.0,-995.0,,,,-0.640299486257076,-2.87901606922901,-0.732386092552872,,-7.749918056613396,,
,9425.0,2961.0,11863.0,2244.0,2191.0,3200.0,-1002.0,,,,-0.642821720432121,-2.87919838477702,-0.733200654762404,,-7.893129857732536,,
,9427.0,2965.0,11864.0,2245.0,2194.0,3195.0,-1002.0,,,,-0.645073703838186,-2.87909703029767,-0.734209294511425,,-8.016527021906327,,
,9425.0,2963.0,11862.0,2246.0,2201.0,3195.0,-987.0,,,,-0.646763211288668,-2.87931370316401,-0.73480819373903,,-8.124518146950086,,
,9427.0,2964.0,11862.0,2246.0,2209.0,3201.0,-993.0,,,,-0.648704549164738,-2.87956958837336,-0.736282452587444,,-8.220362802708784,,
,9426.0,2962.0,11861.0,2246.0,2181.0,3215.0,-994.0,,,,-0.650421350435195,-2.87932826343465,-0.737348090430628,,-8.306277253340532,,
,9427.0,2965.0,11861.0,2248.0,2175.0,3204.0,-995.0,,,,-0.653026237434547,-2.87945305600323,-0.739229084546274,,-8.383591356124652,,
,9428.0,2965.0,11862.0,2248.0,2189.0,3195.0,-983.0,,,,-0.654412496241508,-2.87959257660089,-0.739906696269626,,-8.452930432795279,,
,9427.0,2962.0,11860.0,2246.0,2193.0,3188.0,-976.0,,,,-0.655981930977521,-2.87965601661558,-0.740381135917378,,-8.514400843581988,,
,9423.0,2960.0,11858.0,2246.0,2201.0,3181.0,-999.0,,,,-0.658238294782397,-2.87976721235586,-0.743064547400484,,-8.567763728046101,,
,9422.0,2961.0,11855.0,2246.0,2198.0,3195.0,-997.0,,,,-0.659592296675513,-2.87992650704053,-0.743601186290612,,-8.612586851974585,,
,9425.0,2961.0,11858.0,2247.0,2194.0,3185.0,-995.0,,,,-0.660644589744823,-2.88016895905734,-0.744632993466717,,-8.64836911839536,,
,9422.0,2960.0,11858.0,2246.0,2193.0,3198.0,-998.0,,,,-0.661500915875093,-2.8801319535336,-0.746616967567353,,-8.67463580657242,,
,9422.0,2961.0,11856.0,2245.0,2189.0,3201.0,-1003.0,,,,-0.662228476561813,-2.8806359146245,-0.746589606434694,,-8.691004901305991,,
,9419.0,2957.0,11859.0,2244.0,2211.0,3199.0,-994.0,,,,-0.662848482616585,-2.88071758734942,-0.748595093109136,,-8.697225893165907,,
,9420.0,2957.0,11857.0,2248.0,2209.0,3192.0,-1001.0,,,,-0.664384667396487,-2.88073454719885,-0.749128286969225,,-8.693192186817233,,
,9420.0,2961.0,11857.0,2245.0,2208.0,3204.0,-1002.0,,,,-0.664827857424514,-2.88094064625943,-0.7491374468698,,-8.678927185742895,,
,9422.0,2960.0,11858.0,2245.0,2201.0,3205.0,-1001.0,,,,-0.665632057882892,-2.88120463806132,-0.750351631700436,,-8.654543334122847,,
,9419.0,2959.0,11861.0,2245.0,2199.0,3203.0,-1006.0,,,,-0.666534152495509,-2.88126679018911,-0.751514375276549,,-8.620174307421468,,
,9422.0,2959.0,11861.0,2248.0,2192.0,3174.0,-997.0,,,,-0.667312317456724,-2.88143399991834,-0.752048591652785,,-8.575883894689568,,
,9423.0,2962.0,11862.0,2248.0,2194.0,3188.0,-989.0,,,,-0.667998044079117,-2.88199229828553,-0.752750737541309,,-8.521560199850251,,
,9419.0,2963.0,11862.0,2247.0,2191.0,3197.0,-988.0,,,,-0.66864080108687,-2.88208070502181,-0.752902997407124,,-8.456808716246847,,
,9424.0,2963.0,11864.0,2249.0,2184.0,3185.0,-997.0,,,,-0.669948846320991,-2.8823104404034,-0.753986000891645,,-8.380860628182921,,
,9425.0,2962.0,11864.0,2249.0,2203.0,3203.0,-991.0,,,,-0.670607594704449,-2.88266969715995,-0.754083136911731,,-8.292512269887656,,
,9426.0,2965.0,11865.0,2251.0,2199.0,3193.0,-1005.0,,,,-0.671913956446382,-2.8829568945028,-0.755873554606869,,-8.190108053595383,,
,9430.0,2967.0,11866.0,2253.0,2184.0,3190.0,-1000.0,,,,-0.672476575204525,-2.88291851418652,-0.756097957577225,,-8.071573266258731,,
,9428.0,2969.0,11868.0,2252.0,2178.0,3209.0,-1006.0,,,,-0.673182465674018,-2.88312376366619,-0.756356678858812,,-7.934496282227482,,
,9426.0,2967.0,11869.0,2253.0,2175.0,3209.0,-994.0,,,,-0.673611513342625,-2.88340973938861,-0.757503259468782,,-7.776253221307181,,
,9431.0,2968.0,11870.0,2252.0,2179.0,3200.0,-991.0,,,,-0.674732988501079,-2.88351441585258,-0.759596020888338,,-7.594162605648701,,
,9428.0,2970.0,11869.0,2257.0,2184.0,3196.0,-994.0,,,,-0.675589117955798,-2.88375460461374,-0.76002498400936,,-7.385653264279042,,
,9431.0,2971.0,11873.0,2257.0,2176.0,3196.0,-998.0,,,,-0.676383018352707,-2.88412399418797,-0.760417394356247,,-7.148425810681607,,
,9430.0,2972.0,11872.0,2257.0,2195.0,3203.0,-991.0,,,,-0.677122713145058,-2.88438563269753,-0.761028346883125,,-6.880587439665702,,
,9433.0,2974.0,11870.0,2256.0,2185.0,3200.0,-992.0,,,,-0.678418247719305,-2.88455130994551,-0.763232243890463,,-6.580742961231098,,
,9435.0,2976.0,11874.0,2260.0,2183.0,3194.0,-1001.0,,,,-0.679365700251477,-2.88478315098125,-0.764162700149567,,-6.248032449036034,,
,9435.0,2976.0,11873.0,2260.0,2195.0,3186.0,-1007.0,,,,-0.680379023848228,-2.88510009147211,-0.765718338367082,,-5.882116246092294,,
,9439.0,2978.0,11873.0,2262.0,2188.0,3199.0,-1003.0,,,,-0.681452845675956,-2.88541927799154,-0.767659089045566,,-5.483118455315265,,
,9437.0,2978.0,11874.0,2261.0,2188.0,3196.0,-996.0,,,,-0.682324475719365,-2.88557801080092,-0.768800748225971,,-5.051547650013644,,
,9441.0,2979.0,11872.0,2261.0,2210.0,3191.0,-997.0,,,,-0.683416352624832,-2.88563244812278,-0.771725622057155,,-4.588216922189853,,
,9438.0,2983.0,11872.0,2263.0,2194.0,3188.0,-1002.0,,,,-0.684729250727332,-2.88625635341977,-0.773417403335782,,-4.0941845115002105,,
,9439.0,2984.0,11875.0,2263.0,2199.0,3194.0,-1000.0,,,,-0.68529473509451,-2.88650058187922,-0.774782666164888,,-3.5707318788980533,,
,9442.0,2981.0,11875.0,2265.0,2185.0,3197.0,-1006.0,,,,-0.686346556798242,-2.88697967832619,-0.777216560337374,,-3.01938919814349,,
,9441.0,2986.0,11873.0,2265.0,2186.0,3200.0,-998.0,,,,-0.687351755267353,-2.88708193819675,-0.779224108328385,,-2.442009755710165,,
,9446.0,2988.0,11875.0,2267.0,2194.0,3200.0,-993.0,,,,-0.687791712565379,-2.8874777442931,-0.781930075103491,,-1.8408854331523192,,
,9443.0,2991.0,11876.0,2267.0,2206.0,3204.0,-1001.0,,,,-0.68892238056187,-2.88772151179057,-0.783586639276109,,-1.2188861841854184,,
,9446.0,2990.0,11877.0,2271.0,2207.0,3210.0,-992.0,,,,-0.689509799411248,-2.88821439250272,-0.785794245855986,,-0.5795987564245696,,
,9445.0,2988.0,11874.0,2267.0,2190.0,3207.0,-1000.0,,,,-0.690188004882742,-2.88845938586399,-0.786298075311401,,0.0725640194843941,,
,9445.0,2994.0,11878.0,2270.0,2196.0,3184.0,-1001.0,,,,-0.69069034185155,-2.88856696903188,-0.787751099578193,,0.7323106968565682,,
,9448.0,2993.0,11876.0,2273.0,2190.0,3199.0,-1005.0,,,,-0.690937397092442,-2.88886966041873,-0.789187843535911,,1.3934964992582666,,
,9448.0,2994.0,11878.0,2273.0,2188.0,3202.0,-1013.0,,,,-0.691617971150277,-2.88913852717341,-0.790356612461409,,2.0492385505629525,,
,9448.0,2996.0,11878.0,2273.0,2175.0,3185.0,-1001.0,,,,-0.692092134865605,-2.8892104539661,-0.791003154155688,,2.692124086891475,,
,9450.0,2996.0,11879.0,2273.0,2198.0,3197.0,-996.0,,,,-0.692226404991243,-2.88962279958394,-0.792806312117147,,3.3145067308854936,,
,9450.0,2999.0,11882.0,2276.0,2194.0,3185.0,-1001.0,,,,-0.692662091156398,-2.88960679445143,-0.792926950860146,,3.9088788317028267,,
,9453.0,2999.0,11881.0,2276.0,2180.0,3190.0,-996.0,,,,-0.69355911909352,-2.89000603165696,-0.79362268039554,,4.4683008497268,,
,9453.0,3000.0,11881.0,2277.0,2176.0,3199.0,-997.0,,,,-0.693094963609849,-2.89013117261405,-0.793960370172604,,4.9868615120200355,,
,9454.0,3001.0,11882.0,2275.0,2186.0,3199.0,-997.0,,,,-0.693382804562314,-2.89002527147693,-0.7946004383065,,5.4601357107749,,
,9454.0,3002.0,11881.0,2278.0,2193.0,3194.0,-995.0,,,,-0.693717214937138,-2.89059000709887,-0.795857218253408,,5.885602295705522,,
,9457.0,3004.0,11885.0,2279.0,2184.0,3194.0,-1000.0,,,,-0.694097945236147,-2.89024508252884,-0.796372590497376,,6.262982387311529,,
,9459.0,3002.0,11880.0,2282.0,2180.0,3199.0,-1000.0,,,,-0.693744043954573,-2.89020653284037,-0.796660379856797,,6.594461026467379,,
,9454.0,3005.0,11881.0,2280.0,2180.0,3197.0,-997.0,,,,-0.69402423701902,-2.89062412950997,-0.796169706842682,,6.884759989185784,,
,9454.0,3002.0,11876.0,2277.0,2199.0,3198.0,-998.0,,,,-0.693129863528336,-2.89020432854934,-0.795704839263057,,7.1410360862745526,,
,9455.0,2999.0,11873.0,2277.0,2194.0,3210.0,-1006.0,,,,-0.692750129707747,-2.89011668404386,-0.794885707868429,,7.372586954856029,,
,9449.0,2994.0,11864.0,2275.0,2195.0,3210.0,-998.0,,,,-0.691254173303398,-2.88979976488567,-0.795466480330433,,7.5903564814094375,,
,9444.0,2987.0,11858.0,2268.0,2196.0,3208.0,-974.0,,,,-0.691012915842935,-2.88955053867262,-0.794910403528865,,7.80624606984024,,
,9439.0,2979.0,11850.0,2264.0,2190.0,3216.0,-1005.0,,,,-0.690298786100342,-2.88968594781395,-0.793894075166305,,8.032256158091835,,
,9434.0,2975.0,11846.0,2263.0,2187.0,3200.0,-991.0,,,,-0.689662397133425,-2.88920178247803,-0.793392886527802,,8.279503148112067,,
,9431.0,2970.0,11843.0,2259.0,2182.0,3194.0,-973.0,,,,-0.689430175186872,-2.88914319563847,-0.792836938836606,,8.557177531296496,,
,9426.0,2961.0,11840.0,2253.0,2185.0,3194.0,-971.0,,,,-0.688975403169866,-2.88912596788356,-0.792620792536173,,8.871526298545785,,
2025-07-21 21:21:17,9418.0,2954.0,11835.0,2252.0,2204.0,3196.0,-981.0,,,2025/07/21 09:21:17 PM,-0.688590414302571,-2.8889361163489,-0.792154078360009,,9.22495381943232,,
,9417.0,2951.0,11837.0,2243.0,2186.0,3205.0,-980.0,,,,-0.688666434604996,-2.88884729538688,-0.791853429938165,,9.615338211075317,,
,9414.0,2946.0,11841.0,2247.0,2182.0,3197.0,-979.0,,,,-0.688780658715211,-2.88884600360776,-0.791357956422789,,10.035653488748292,,
,9410.0,2941.0,11834.0,2244.0,2179.0,3200.0,-985.0,,,,-0.688712594433467,-2.888851428885,-0.792848403141196,,10.473970195623895,,
,9408.0,2937.0,11838.0,2238.0,2193.0,3202.0,-984.0,,,,-0.688474738072582,-2.88904976998147,-0.791946463889964,,10.913877578015404,,
,9403.0,2937.0,11840.0,2235.0,2193.0,3188.0,-984.0,,,,-0.68845977080401,-2.88900528694544,-0.792003817728551,,11.33532952957287,,
,9406.0,2940.0,11846.0,2238.0,2188.0,3192.0,-979.0,,,,-0.688454890868723,-2.88867642783609,-0.792558997706678,,11.715869042748624,,
,9403.0,2939.0,11848.0,2240.0,2180.0,3200.0,-986.0,,,,-0.68852596547307,-2.88881016129925,-0.792851898609758,,12.032139316059828,,
,9402.0,2938.0,11851.0,2237.0,2175.0,3214.0,-994.0,,,,-0.688791587559236,-2.88903884331786,-0.79235083789584,,12.261551669547007,,
,9401.0,2936.0,11848.0,2234.0,2187.0,3211.0,-995.0,,,,-0.688757101180854,-2.88922000312639,-0.790950956652894,,12.383956599889167,,
,9406.0,2939.0,11855.0,2237.0,2197.0,3222.0,-1002.0,,,,-0.689248793742881,-2.88879433096179,-0.790855178911287,,12.383157635989733,,
,9409.0,2941.0,11858.0,2237.0,2182.0,3208.0,-1008.0,,,,-0.689360143896766,-2.88892194263751,-0.791807295349966,,12.248119064277757,,
,9403.0,2941.0,11860.0,2238.0,2190.0,3198.0,-1009.0,,,,-0.689372985936798,-2.88887167877732,-0.79177677628595,,11.973747574974578,,
,9407.0,2943.0,11861.0,2238.0,2194.0,3182.0,-1006.0,,,,-0.690216500432355,-2.88920474191462,-0.792232120545458,,11.561172624077193,,
,9407.0,2944.0,11863.0,2239.0,2198.0,3205.0,-997.0,,,,-0.690548765658035,-2.88921416266891,-0.792637709331126,,11.01750700052191,,
,9412.0,2948.0,11865.0,2238.0,2195.0,3206.0,-1014.0,,,,-0.690987874947407,-2.88947984559004,-0.793330518096456,,10.355130781291903,,
,9413.0,2946.0,11864.0,2239.0,2195.0,3202.0,-1004.0,,,,-0.691118342626492,-2.88954782204967,-0.793540888772824,,9.59059824451728,,
,9413.0,2951.0,11869.0,2241.0,2196.0,3205.0,-1010.0,,,,-0.691458958818363,-2.88948932387691,-0.793825293568188,,8.743307002259987,,
,9413.0,2949.0,11866.0,2241.0,2197.0,3198.0,-1005.0,,,,-0.691959925070048,-2.88960353668018,-0.794442469934451,,7.834083761596822,,
,9416.0,2952.0,11870.0,2243.0,2205.0,3200.0,-1010.0,,,,-0.692605270095035,-2.8898414067699,-0.794615067269691,,6.8838312724628485,,
,9421.0,2954.0,11874.0,2246.0,2204.0,3198.0,-1012.0,,,,-0.692729148105589,-2.89000695028378,-0.795302463299707,,5.912352627228836,,
,9418.0,2954.0,11872.0,2245.0,2206.0,3191.0,-1009.0,,,,-0.693435253630072,-2.89011491723055,-0.795769128093212,,4.937431231148894,,
,9421.0,2955.0,11869.0,2246.0,2192.0,3171.0,-995.0,,,,-0.693164370379922,-2.89013930877944,-0.794855688983428,,3.9742052244299955,,
,9425.0,2958.0,11872.0,2248.0,2193.0,3179.0,-994.0,,,,-0.693793253415188,-2.8901702213542,-0.795408156395443,,3.034839140706363,,
,9422.0,2958.0,11874.0,2250.0,2187.0,3189.0,-987.0,,,,-0.693995964745388,-2.89043881261845,-0.796223439782167,,2.1284664180129655,,
,9421.0,2958.0,11873.0,2248.0,2189.0,3185.0,-979.0,,,,-0.693974814018214,-2.89022173544382,-0.79658173646797,,1.2613559416699596,,
,9423.0,2960.0,11873.0,2250.0,2197.0,3192.0,-981.0,,,,-0.694327734618475,-2.89050407650364,-0.796466140751781,,0.4372447787975029,,
,9419.0,2959.0,11870.0,2247.0,2184.0,3200.0,-995.0,,,,-0.694699027843897,-2.89066402239809,-0.797032792788452,,-0.34222282162425344,,
,9421.0,2959.0,11872.0,2250.0,2193.0,3200.0,-985.0,,,,-0.695839506226074,-2.89097541670094,-0.798237530375795,,-1.0770048921640205,,
,9422.0,2958.0,11870.0,2250.0,2177.0,3197.0,-985.0,,,,-0.696081039563108,-2.89081253133737,-0.798314216113553,,-1.768164723063653,,
,9424.0,2959.0,11869.0,2251.0,2176.0,3204.0,-991.0,,,,-0.696778994219482,-2.89089989704694,-0.799036929914707,,-2.4174017186103876,,
,9421.0,2955.0,11866.0,2249.0,2178.0,3202.0,-988.0,,,,-0.69753864785735,-2.89132893245477,-0.800442906346364,,-3.0266357101904604,,
,9422.0,2957.0,11867.0,2250.0,2181.0,3213.0,-1000.0,,,,-0.69807737617251,-2.89129177261527,-0.800578152185566,,-3.5976642672017545,,
,9420.0,2954.0,11866.0,2248.0,2176.0,3201.0,-1004.0,,,,-0.69885913373083,-2.89172130286143,-0.802402616592729,,-4.131907936337104,,
,9420.0,2954.0,11867.0,2247.0,2170.0,3193.0,-994.0,,,,-0.699353438844185,-2.89201238099237,-0.80369795890458,,-4.630253115873221,,
,9419.0,2954.0,11867.0,2247.0,2180.0,3198.0,-979.0,,,,-0.699911310851051,-2.89222918540092,-0.804471885586046,,-5.0929953783821835,,
,9418.0,2954.0,11869.0,2248.0,2210.0,3193.0,-1000.0,,,,-0.700044101173368,-2.89239598820612,-0.805027337040312,,-5.519877899755725,,
,9418.0,2955.0,11869.0,2248.0,2191.0,3180.0,-1008.0,,,,-0.701039454470177,-2.89265607344352,-0.805596064269438,,-5.910211539618081,,
,9420.0,2954.0,11870.0,2249.0,2189.0,3186.0,-1001.0,,,,-0.701362831679274,-2.89252337017917,-0.806302482205597,,-6.263056488363431,,
,9419.0,2955.0,11872.0,2248.0,2191.0,3191.0,-994.0,,,,-0.702212237615439,-2.89261068564964,-0.806293808682289,,-6.577441269955672,,
,9416.0,2952.0,11868.0,2247.0,2194.0,3208.0,-989.0,,,,-0.702927247147887,-2.89288334094584,-0.806927377462847,,-6.852593554218661,,
,9421.0,2956.0,11870.0,2248.0,2192.0,3194.0,-996.0,,,,-0.703132492995605,-2.89288159764917,-0.806370121254184,,-7.088158231661718,,
,9422.0,2956.0,11873.0,2253.0,2186.0,3179.0,-998.0,,,,-0.703725163808205,-2.89315071294038,-0.806871552160064,,-7.284380736497227,,
,9423.0,2957.0,11875.0,2252.0,2183.0,3182.0,-985.0,,,,-0.704466361692659,-2.89339304049571,-0.808336228582122,,-7.442237198761245,,
,9422.0,2958.0,11874.0,2249.0,2173.0,3194.0,-994.0,,,,-0.705146587586655,-2.89364991366245,-0.807968821438738,,-7.563497925931355,,
,9421.0,2955.0,11875.0,2249.0,2183.0,3197.0,-990.0,,,,-0.705152268693113,-2.89359711091103,-0.80937873279076,,-7.650717466931306,,
,9426.0,2961.0,11878.0,2253.0,2185.0,3208.0,-993.0,,,,-0.706079342320773,-2.89359410658654,-0.81011650838224,,-7.707152786962363,,
,9426.0,2961.0,11875.0,2252.0,2202.0,3215.0,-1001.0,,,,-0.706155514815606,-2.89379753725521,-0.810568014517202,,-7.736619367325512,,
,9426.0,2962.0,11879.0,2254.0,2205.0,3221.0,-1002.0,,,,-0.705894378548576,-2.89391425957108,-0.811967926724532,,-7.743301475236215,,
,9425.0,2963.0,11879.0,2253.0,2186.0,3205.0,-1000.0,,,,-0.705965211295565,-2.89388668647681,-0.810682540955161,,-7.731536296635413,,
,9428.0,2963.0,11878.0,2253.0,2183.0,3198.0,-987.0,,,,-0.706175841054215,-2.89409145848571,-0.811238973750596,,-7.7055919868990985,,
,9430.0,2967.0,11882.0,2259.0,2181.0,3184.0,-994.0,,,,-0.70600108194704,-2.89411319061686,-0.812006461149379,,-7.669457534811113,,
,9433.0,2970.0,11878.0,2258.0,2179.0,3190.0,-992.0,,,,-0.705385279018668,-2.89389776631398,-0.811339004095021,,-7.626658505265197,,
,9432.0,2968.0,11881.0,2257.0,2184.0,3195.0,-984.0,,,,-0.705366700893649,-2.89418928056101,-0.811681667055669,,-7.580108110358042,,
,9432.0,2969.0,11882.0,2257.0,2176.0,3211.0,-989.0,,,,-0.705172561733292,-2.8940736671297,-0.810989047703899,,-7.5319983380099105,,
,9435.0,2971.0,11882.0,2261.0,2167.0,3210.0,-1007.0,,,,-0.704913749723431,-2.89418153678129,-0.81204109174831,,-7.4837313876569596,,
,9436.0,2974.0,11882.0,2263.0,2183.0,3194.0,-995.0,,,,-0.704837459091215,-2.89450005166037,-0.812400692938319,,-7.43588760506231,,
,9438.0,2974.0,11885.0,2264.0,2188.0,3193.0,-997.0,,,,-0.70463291891483,-2.894097313536,-0.81166639457929,,-7.388222925053383,,
,9436.0,2974.0,11881.0,2261.0,2200.0,3198.0,-1001.0,,,,-0.70429625242811,-2.89416763914753,-0.811024097664334,,-7.3396875065663565,,
,9437.0,2976.0,11884.0,2265.0,2188.0,3203.0,-995.0,,,,-0.704050044014425,-2.89407717431121,-0.810565252499009,,-7.288458830621415,,
,9439.0,2979.0,11886.0,2267.0,2178.0,3176.0,-987.0,,,,-0.703924005599649,-2.89384549498129,-0.81059354488686,,-7.231987092950589,,
,9443.0,2980.0,11886.0,2265.0,2182.0,3178.0,-989.0,,,,-0.703542744997914,-2.89352599141001,-0.810405087248869,,-7.167056752644398,,
,9440.0,2978.0,11884.0,2264.0,2184.0,3198.0,-1012.0,,,,-0.703561784913307,-2.8934398754888,-0.809557679602945,,-7.089873152769758,,
,9441.0,2981.0,11884.0,2267.0,2189.0,3180.0,-994.0,,,,-0.703328710542384,-2.89335033438062,-0.808414153954069,,-6.996185094109913,,
,9445.0,2982.0,11887.0,2267.0,2184.0,3196.0,-994.0,,,,-0.703527353073096,-2.89318348631276,-0.808495354289377,,-6.881452185912756,,
,9445.0,2984.0,11885.0,2268.0,2177.0,3191.0,-1000.0,,,,-0.703386093734256,-2.89326453425844,-0.808466176072672,,-6.741060080200199,,
,9448.0,2986.0,11885.0,2269.0,2182.0,3190.0,-996.0,,,,-0.704264342713452,-2.89324916939739,-0.808120166584857,,-6.570578648521753,,
,9448.0,2984.0,11886.0,2270.0,2195.0,3212.0,-997.0,,,,-0.704647733100352,-2.89358350148494,-0.808623847651227,,-6.36604957530861,,
,9446.0,2988.0,11888.0,2269.0,2192.0,3200.0,-988.0,,,,-0.704878127826938,-2.89347014953568,-0.810010632695522,,-6.124282389689777,,
,9448.0,2991.0,11890.0,2274.0,2195.0,3179.0,-982.0,,,,-0.705646465651833,-2.89350451271537,-0.809790802500154,,-5.843132692720522,,
,9450.0,2988.0,11889.0,2270.0,2194.0,3187.0,-991.0,,,,-0.705979537793379,-2.89365183530906,-0.810010287819443,,-5.5217336684323275,,
,9452.0,2992.0,11890.0,2275.0,2196.0,3190.0,-1006.0,,,,-0.705857683726764,-2.89371122422429,-0.809827282299955,,-5.160652233260349,,
,9451.0,2990.0,11890.0,2274.0,2203.0,3186.0,-1003.0,,,,-0.706184081716628,-2.89372697133784,-0.810102567503678,,-4.761945221000646,,
,9453.0,2995.0,11891.0,2276.0,2200.0,3198.0,-992.0,,,,-0.706041593209914,-2.89363037275483,-0.809918317101328,,-4.329099738635466,,
,9454.0,2995.0,11891.0,2276.0,2201.0,3197.0,-987.0,,,,-0.706560271566461,-2.89376386402114,-0.809154734204153,,-3.8668549205105722,,
,9455.0,2996.0,11892.0,2277.0,2199.0,3199.0,-989.0,,,,-0.706076515850195,-2.89363093574848,-0.809217894587361,,-3.3809174788925205,,
,9458.0,2995.0,11893.0,2274.0,2193.0,3195.0,-995.0,,,,-0.705922732681036,-2.89375503899,-0.809714081089496,,-2.8775974869318053,,
,9459.0,2998.0,11896.0,2280.0,2187.0,3189.0,-993.0,,,,-0.706014986176194,-2.89374139276421,-0.808368548843531,,-2.3634011786921074,,
,9457.0,2999.0,11895.0,2278.0,2192.0,3194.0,-994.0,,,,-0.706225932683144,-2.89374363814277,-0.809302801124999,,-1.8446229257756395,,
,9459.0,3000.0,11894.0,2279.0,2192.0,3190.0,-989.0,,,,-0.705746626688454,-2.89364951932495,-0.809111042103691,,-1.3269785569768047,,
,9457.0,2995.0,11890.0,2277.0,2193.0,3216.0,-989.0,,,,-0.705715688980244,-2.89378783019821,-0.809746207183105,,-0.8153169092828908,,
,9459.0,2999.0,11888.0,2276.0,2182.0,3223.0,-1000.0,,,,-0.705802198970752,-2.89387862328256,-0.810167718822847,,-0.31343647485554643,,
,9457.0,2994.0,11882.0,2276.0,2189.0,3198.0,-1005.0,,,,-0.706217213809522,-2.89381872625771,-0.809970154265711,,0.17597968613162193,,
,9452.0,2992.0,11877.0,2272.0,2188.0,3199.0,-999.0,,,,-0.706016668775296,-2.89377344521116,-0.809418640806169,,0.6513133930528261,,
,9449.0,2983.0,11869.0,2269.0,2195.0,3218.0,-982.0,,,,-0.706257655376733,-2.893883861083,-0.809242080838433,,1.1118636435695335,,
,9441.0,2975.0,11862.0,2266.0,2189.0,3197.0,-994.0,,,,-0.707351788989136,-2.89400941406365,-0.810980292882626,,1.5576336672163524,,
,9438.0,2971.0,11857.0,2260.0,2197.0,3185.0,-985.0,,,,-0.707653241983275,-2.8941145522483,-0.811150020702027,,1.9890928586749252,,
,9434.0,2963.0,11853.0,2254.0,2179.0,3184.0,-992.0,,,,-0.707651192834729,-2.89413644908901,-0.810738840111024,,2.4069546951347864,,
,9428.0,2956.0,11849.0,2253.0,2177.0,3181.0,-992.0,,,,-0.70754226118553,-2.89410414153935,-0.810972559781778,,2.8120052329986547,,
,9424.0,2950.0,11848.0,2248.0,2178.0,3184.0,-984.0,,,,-0.707401799361166,-2.89415395430592,-0.811474063449446,,3.2050045506355174,,
,9420.0,2944.0,11849.0,2244.0,2183.0,3197.0,-981.0,,,,-0.708066748495176,-2.89411265788817,-0.810805714585734,,3.5866683332085585,,
,9417.0,2942.0,11850.0,2243.0,2186.0,3194.0,-983.0,,,,-0.708008684708235,-2.89439113785619,-0.811337129422336,,3.957721305534488,,
,9416.0,2937.0,11848.0,2240.0,2181.0,3191.0,-988.0,,,,-0.708324130811488,-2.89444001788858,-0.811412882052559,,4.319000557948682,,
,9410.0,2934.0,11850.0,2236.0,2180.0,3177.0,-979.0,,,,-0.708740841996355,-2.89442348858793,-0.811383979948864,,4.671576868269856,,
,9411.0,2933.0,11852.0,2236.0,2182.0,3187.0,-987.0,,,,-0.708716030617412,-2.89446899666018,-0.811658011165253,,5.01685749275779,,
,9408.0,2934.0,11856.0,2234.0,2188.0,3191.0,-972.0,,,,-0.709319842220977,-2.89476926322906,-0.812193783631532,,5.356635509516204,,
,9412.0,2934.0,11861.0,2235.0,2171.0,3190.0,-990.0,,,,-0.709641193272919,-2.89473842780085,-0.81303358642567,,5.693058636337422,,
,9412.0,2933.0,11860.0,2233.0,2181.0,3193.0,-985.0,,,,-0.709959426118437,-2.89487670530983,-0.811495886207219,,6.028503422024708,,
