TimeLabel,MEAS1_PPG1,MEAS1_PPG2,MEAS1_PPG3,MEAS1_PPG4,ACCX,ACCY,ACCZ,HR_timestamp,HR_value,radar_timestamp,phase_rx0,phase_rx1,phase_rx2,timestep,n_process,original_rate,calculated_rate
2025-07-17 16:57:57,2659.0,699.0,1536.0,570.0,2307.0,2956.0,1333.0,2025-07-17 16:58:01,72.0,2025/07/17 04:57:57 PM,-0.084118170099697,-2.5104257356666,-0.215203867482312,2025/07/17 04:57:57 PM,-2.928129075212486,24.70830535888672,26.244638802455643
,2660.0,702.0,1537.0,570.0,2312.0,2954.0,1352.0,2025-07-17 16:58:02,73.0,,-0.0840052577737115,-2.5097789917737,-0.215764480024215,2025/07/17 04:58:07 PM,-2.9615966027931955,25.104602813720703,25.350724637681157
,2659.0,700.0,1538.0,568.0,2299.0,2944.0,1372.0,2025-07-17 16:58:03,74.0,,-0.083831972908856,-2.50963113312679,-0.215198316408133,2025/07/17 04:58:17 PM,-2.963355606725926,25.843503952026367,24.87244897959184
,2656.0,699.0,1535.0,570.0,2310.0,2959.0,1385.0,2025-07-17 16:58:04,75.0,,-0.0841323428976155,-2.50992841936302,-0.215241702341754,2025/07/17 04:58:27 PM,-2.9320676090504247,26.0173454284668,24.055555555555557
,2653.0,696.0,1531.0,566.0,2329.0,2978.0,1395.0,2025-07-17 16:58:05,76.0,,-0.0841125833218201,-2.50980858846284,-0.214270414233158,2025/07/17 04:58:37 PM,-2.865496034624285,25.2100830078125,23.429608127721337
,2654.0,697.0,1533.0,568.0,2332.0,2955.0,1401.0,2025-07-17 16:58:06,76.0,,-0.0840241991310979,-2.50995839090893,-0.214048568014329,2025/07/17 04:58:47 PM,-2.760700587166087,24.08759117126465,23.67081447963799
,2653.0,698.0,1531.0,569.0,2330.0,2966.0,1405.0,2025-07-17 16:58:07,77.0,,-0.083876246261361,-2.50989067291137,-0.214618817409145,2025/07/17 04:58:57 PM,-2.614335643587756,23.68987846374512,23.694939792302087
,2651.0,697.0,1533.0,567.0,2339.0,2977.0,1405.0,2025-07-17 16:58:08,77.0,,-0.0839336447033887,-2.50954148762653,-0.213821388225638,2025/07/17 04:59:07 PM,-2.4230341835398947,23.55460357666016,22.727978977092317
,2653.0,697.0,1531.0,565.0,2343.0,2969.0,1390.0,2025-07-17 16:58:09,77.0,,-0.0836044744285813,-2.50931317643156,-0.212858168441826,2025/07/17 04:59:17 PM,-2.1838542312183375,23.4375,21.539657660347306
,2651.0,698.0,1529.0,566.0,2324.0,2970.0,1356.0,2025-07-17 16:58:10,77.0,,-0.0835443096172874,-2.50897729701992,-0.213404284568525,2025/07/17 04:59:27 PM,-1.8947614569570854,22.758621215820312,23.089547683480195
,2651.0,697.0,1532.0,567.0,2351.0,2973.0,1358.0,2025-07-17 16:58:11,76.0,,-0.0836838966994509,-2.50872293088716,-0.212891911631425,2025/07/17 04:59:37 PM,-1.555118477834501,22.205774307250977,23.295984232819254
,2651.0,696.0,1530.0,567.0,2361.0,2981.0,1361.0,2025-07-17 16:58:12,76.0,,-0.083435298626852,-2.50882203969099,-0.210841657703551,2025/07/17 04:59:47 PM,-1.1661476986642787,22.59036064147949,23.082614758530372
,2652.0,698.0,1531.0,568.0,2348.0,2981.0,1370.0,2025-07-17 16:58:13,75.0,,-0.0835850542345871,-2.50880867619852,-0.212481063135878,2025/07/17 04:59:57 PM,-0.7313304869381593,22.98050117492676,22.59451464977071
,2648.0,694.0,1527.0,566.0,2335.0,2969.0,1359.0,2025-07-17 16:58:14,74.0,,-0.0834362319397235,-2.50877091361375,-0.211364639773187,2025/07/17 05:00:07 PM,-0.2567025684155418,22.90076446533203,23.215932914046135
,2649.0,698.0,1528.0,563.0,2350.0,2947.0,1343.0,2025-07-17 16:58:15,73.0,,-0.0833794393440351,-2.50848678361043,-0.210085154930621,2025/07/17 05:00:17 PM,0.2489943353311596,22.964509963989254,25.74848331648132
,2650.0,697.0,1530.0,568.0,2349.0,2975.0,1337.0,2025-07-17 16:58:16,72.0,,-0.0832173963847812,-2.50809959798475,-0.211088774552813,2025/07/17 05:00:27 PM,0.7743401099921905,23.98255920410156,24.265331664580714
,2650.0,695.0,1529.0,567.0,2335.0,2968.0,1345.0,2025-07-17 16:58:17,72.0,,-0.0833169382511136,-2.50828128133748,-0.211331456876184,2025/07/17 05:00:37 PM,1.305469204057855,24.590164184570312,25.328116445468115
,2649.0,693.0,1527.0,567.0,2307.0,2972.0,1322.0,2025-07-17 16:58:18,72.0,,-0.083222325810057,-2.50801429661408,-0.210322131415752,2025/07/17 05:00:47 PM,1.8265208667838657,25.316455841064453,25.015957446808525
,2650.0,695.0,1530.0,566.0,2331.0,2979.0,1324.0,2025-07-17 16:58:19,72.0,,-0.0831405431122991,-2.50795693252151,-0.210041917808557,,2.320300254212588,,
,2650.0,698.0,1527.0,567.0,2321.0,2974.0,1361.0,2025-07-17 16:58:20,72.0,,-0.0830145556897331,-2.50776452865465,-0.209018710482183,,2.7691229168908955,,
,2650.0,696.0,1530.0,567.0,2315.0,2969.0,1352.0,2025-07-17 16:58:21,72.0,,-0.0830103084186901,-2.50746576165304,-0.209892624946798,,3.1557935589135027,,
,2648.0,694.0,1526.0,565.0,2346.0,2942.0,1358.0,2025-07-17 16:58:22,72.0,,-0.0829285385304333,-2.50770114882158,-0.210002240279446,,3.4646503410040137,,
,2648.0,693.0,1527.0,567.0,2368.0,2969.0,1383.0,2025-07-17 16:58:23,72.0,,-0.0829732784026685,-2.50758910100219,-0.209390490870298,,3.6825909611452596,,
,2648.0,695.0,1527.0,565.0,2357.0,2960.0,1387.0,2025-07-17 16:58:24,71.0,,-0.0829152829001076,-2.50729171598048,-0.209298868992199,,3.7999886937477028,,
,2650.0,694.0,1526.0,565.0,2378.0,2950.0,1374.0,2025-07-17 16:58:25,71.0,,-0.0828651893549133,-2.5069730560381,-0.208843348183483,,3.811407678808084,,
,2648.0,696.0,1526.0,568.0,2368.0,2966.0,1382.0,2025-07-17 16:58:26,70.0,,-0.0828664414104146,-2.50711174535162,-0.208746412703926,,3.7160387334095955,,
,2649.0,694.0,1527.0,566.0,2344.0,2971.0,1370.0,2025-07-17 16:58:27,69.0,,-0.0827150712882312,-2.5067561072521,-0.20834195627485,,3.517800471489176,,
,2650.0,696.0,1527.0,567.0,2340.0,2973.0,1353.0,2025-07-17 16:58:28,68.0,,-0.0828248331574123,-2.50690840207046,-0.208443748313601,,3.2250843171909342,,
,2650.0,696.0,1525.0,568.0,2349.0,2960.0,1370.0,2025-07-17 16:58:29,68.0,,-0.0826872717743771,-2.50716710792568,-0.208482577595054,,2.8501621469300926,,
,2649.0,698.0,1528.0,568.0,2351.0,2963.0,1370.0,2025-07-17 16:58:30,67.0,,-0.0826417346565305,-2.50641786372552,-0.208231850274273,,2.40831520810658,,
,2649.0,697.0,1526.0,566.0,2336.0,2964.0,1370.0,2025-07-17 16:58:31,68.0,,-0.0826716077833413,-2.50649785191779,-0.208037131265308,,1.916774902978245,,
,2652.0,696.0,1528.0,568.0,2350.0,2954.0,1350.0,2025-07-17 16:58:32,69.0,,-0.0825593157381241,-2.50626832733772,-0.20769274405303,,1.3935838241570095,,
,2650.0,698.0,1526.0,569.0,2330.0,2974.0,1335.0,2025-07-17 16:58:33,69.0,,-0.0826497089095293,-2.50624248352117,-0.207881078167124,,0.8564868915468896,,
,2651.0,695.0,1528.0,568.0,2339.0,2975.0,1329.0,2025-07-17 16:58:34,70.0,,-0.0827307737095901,-2.50645278447028,-0.208686708702758,,0.3219497059266842,,
,2651.0,696.0,1528.0,567.0,2335.0,2976.0,1344.0,2025-07-17 16:58:35,70.0,,-0.0829014541141446,-2.50690973257879,-0.208060215018499,,-0.19562109720721788,,
,2646.0,695.0,1527.0,568.0,2333.0,2972.0,1347.0,2025-07-17 16:58:36,70.0,,-0.0829664384728385,-2.50744743684452,-0.209617385953957,,-0.6844078767675195,,
,2651.0,696.0,1527.0,567.0,2317.0,2971.0,1377.0,2025-07-17 16:58:37,69.0,,-0.0832058891947926,-2.50780135049789,-0.210109282063749,,-1.1354430018987387,,
,2647.0,695.0,1528.0,568.0,2323.0,2962.0,1394.0,2025-07-17 16:58:38,69.0,,-0.0832824605237249,-2.50808522929641,-0.208354819102017,,-1.542607954384078,,
,2649.0,696.0,1525.0,569.0,2311.0,2940.0,1388.0,2025-07-17 16:58:39,68.0,,-0.0833442965442972,-2.508336515482,-0.210499555056999,,-1.9024003634568727,,
,2647.0,693.0,1524.0,565.0,2307.0,2966.0,1371.0,2025-07-17 16:58:40,67.0,,-0.0834703710433543,-2.50833010161708,-0.210642000693435,,-2.2135164594809145,,
,2651.0,697.0,1525.0,570.0,2312.0,2975.0,1389.0,2025-07-17 16:58:41,67.0,,-0.0835219841678534,-2.50862070116181,-0.21014872742858,,-2.476308282114378,,
,2649.0,697.0,1526.0,569.0,2306.0,2950.0,1393.0,2025-07-17 16:58:42,67.0,,-0.0835174356953905,-2.50881192608237,-0.209831222990669,,-2.6921808882393714,,
,2649.0,698.0,1524.0,568.0,2292.0,2966.0,1388.0,2025-07-17 16:58:43,67.0,,-0.0834776522826318,-2.5084764152007,-0.208699947780845,,-2.8629949202542413,,
,2648.0,694.0,1526.0,568.0,2286.0,2963.0,1401.0,2025-07-17 16:58:44,67.0,,-0.0834200040247946,-2.50836426924872,-0.208425758041288,,-2.9905345010948423,,
,2649.0,698.0,1525.0,565.0,2306.0,2965.0,1392.0,2025-07-17 16:58:45,67.0,,-0.0833969941510577,-2.5082579081953,-0.207574310284324,,-3.076089990014154,,
,2651.0,696.0,1528.0,568.0,2313.0,2959.0,1388.0,2025-07-17 16:58:46,68.0,,-0.0833232904854831,-2.50775491906923,-0.207860788358427,,-3.120190453180542,,
,2648.0,696.0,1526.0,567.0,2313.0,2960.0,1376.0,2025-07-17 16:58:47,68.0,,-0.0831470873054537,-2.50762134458877,-0.2075907780903,,-3.1225029623324687,,
,2651.0,696.0,1528.0,567.0,2338.0,2947.0,1402.0,2025-07-17 16:58:48,68.0,,-0.0830155339400352,-2.50705913868824,-0.207482649988294,,-3.081896671048425,,
,2653.0,698.0,1526.0,567.0,2316.0,2973.0,1409.0,2025-07-17 16:58:49,68.0,,-0.0828444504252427,-2.5068114669101,-0.206456325250429,,-2.996651208394788,,
,2652.0,698.0,1528.0,570.0,2325.0,2968.0,1398.0,2025-07-17 16:58:50,68.0,,-0.0827466637264474,-2.50639646160546,-0.205249456246992,,-2.8647738927440263,,
,2654.0,696.0,1530.0,569.0,2324.0,2968.0,1393.0,2025-07-17 16:58:51,68.0,,-0.0828338445605283,-2.50605062162657,-0.206058101351718,,-2.684381080556001,,
,2654.0,697.0,1526.0,567.0,2331.0,2967.0,1370.0,2025-07-17 16:58:52,68.0,,-0.0828563154084712,-2.50573596704759,-0.205236516328929,,-2.4540970476943462,,
,2652.0,698.0,1526.0,568.0,2337.0,2955.0,1364.0,2025-07-17 16:58:53,68.0,,-0.0824979055076281,-2.50571365401178,-0.205604185230475,,-2.1734288911039723,,
,2653.0,699.0,1528.0,571.0,2338.0,2976.0,1381.0,2025-07-17 16:58:54,68.0,,-0.0825610997565627,-2.50593808153179,-0.203775562050232,,-1.8430861316487381,,
,2655.0,697.0,1529.0,569.0,2324.0,2976.0,1369.0,2025-07-17 16:58:55,68.0,,-0.0824705363298927,-2.50561394884336,-0.204675326351129,,-1.4652260514560098,,
,2656.0,699.0,1529.0,571.0,2326.0,2975.0,1350.0,2025-07-17 16:58:56,69.0,,-0.0824656340155562,-2.50567956533168,-0.203831951235527,,-1.0436171988527376,,
,2654.0,699.0,1528.0,568.0,2332.0,2967.0,1347.0,2025-07-17 16:58:57,69.0,,-0.0824176181906776,-2.50585262869522,-0.203833097375328,,-0.5837215668596546,,
,2655.0,699.0,1530.0,569.0,2331.0,2977.0,1348.0,2025-07-17 16:58:58,70.0,,-0.0823854876779543,-2.50557284710124,-0.20287385918156,,-0.0926997332673033,,
,2657.0,700.0,1530.0,568.0,2337.0,2970.0,1361.0,2025-07-17 16:58:59,70.0,,-0.0823281441677362,-2.50561048744309,-0.204643865745838,,0.42065669636069986,,
,2655.0,698.0,1530.0,570.0,2341.0,2961.0,1351.0,2025-07-17 16:59:00,70.0,,-0.0822743776607623,-2.5056196062948,-0.203618906751946,,0.9460631035881885,,
,2657.0,696.0,1530.0,566.0,2333.0,2950.0,1351.0,2025-07-17 16:59:01,69.0,,-0.082261243629337,-2.50535896159786,-0.202960059465569,,1.4719505696622208,,
,2658.0,700.0,1528.0,569.0,2330.0,2974.0,1385.0,2025-07-17 16:59:02,69.0,,-0.0822001644441565,-2.50500139222512,-0.20393797840763,,1.9857469907144574,,
,2658.0,701.0,1528.0,571.0,2349.0,2971.0,1401.0,2025-07-17 16:59:03,69.0,,-0.0821457927386548,-2.50476388498832,-0.203911717822695,,2.474231911938832,,
,2661.0,701.0,1530.0,571.0,2343.0,2968.0,1392.0,2025-07-17 16:59:04,69.0,,-0.0822822500984067,-2.50491440596213,-0.20416334360079,,2.923963765745223,,
,2660.0,701.0,1530.0,571.0,2338.0,2967.0,1344.0,2025-07-17 16:59:05,69.0,,-0.0821220019503497,-2.50502974318096,-0.202623125025667,,3.3217732647226534,,
,2659.0,700.0,1531.0,572.0,2335.0,2963.0,1373.0,2025-07-17 16:59:06,69.0,,-0.0822177164806407,-2.50522994899865,-0.202605522258958,,3.6553096212978398,,
,2661.0,702.0,1533.0,574.0,2322.0,2977.0,1367.0,2025-07-17 16:59:07,70.0,,-0.082273457093699,-2.5052144506562,-0.203461549013087,,3.913617347632316,,
,2661.0,702.0,1531.0,572.0,2344.0,2987.0,1363.0,2025-07-17 16:59:08,70.0,,-0.0822340472445364,-2.50529888497827,-0.203737976872129,,4.087711320800039,,
,2660.0,701.0,1532.0,573.0,2342.0,2986.0,1359.0,2025-07-17 16:59:09,70.0,,-0.0822615346878356,-2.50547224413657,-0.204182840152912,,4.171108221681417,,
,2663.0,702.0,1533.0,571.0,2345.0,2962.0,1379.0,2025-07-17 16:59:10,70.0,,-0.0823026496793253,-2.50545880765414,-0.203121697044653,,4.160266116280503,,
,2664.0,701.0,1534.0,574.0,2332.0,2949.0,1388.0,2025-07-17 16:59:11,70.0,,-0.0823631081317018,-2.50548777865646,-0.203804212573526,,4.054883799928387,,
,2666.0,703.0,1535.0,573.0,2336.0,2962.0,1369.0,2025-07-17 16:59:12,69.0,,-0.0822207881582248,-2.50567509926233,-0.204781665757071,,3.858019382918322,,
,2666.0,705.0,1537.0,575.0,2330.0,2973.0,1362.0,2025-07-17 16:59:13,69.0,,-0.0823599408980675,-2.50569630793159,-0.204922313058379,,3.5760033102435624,,
,2663.0,702.0,1534.0,571.0,2339.0,2977.0,1346.0,2025-07-17 16:59:14,69.0,,-0.0823147004628139,-2.5056173066067,-0.204641152290486,,3.2181423353385687,,
,2666.0,702.0,1535.0,574.0,2355.0,2959.0,1349.0,2025-07-17 16:59:15,69.0,,-0.0822531111259845,-2.50582962239863,-0.205436732859064,,2.7962339797716638,,
,2666.0,705.0,1535.0,575.0,2342.0,2947.0,1384.0,2025-07-17 16:59:16,69.0,,-0.0823328608448892,-2.50608311521808,-0.205255423413134,,2.3239312327783344,,
,2668.0,703.0,1535.0,575.0,2346.0,2947.0,1388.0,2025-07-17 16:59:17,69.0,,-0.0824515915080311,-2.50576095779528,-0.205655376048277,,1.8160112857978412,,
,2667.0,704.0,1537.0,575.0,2335.0,2962.0,1376.0,2025-07-17 16:59:18,68.0,,-0.0826387562652811,-2.50569524936829,-0.205075015299492,,1.2876085812739868,,
,2668.0,705.0,1539.0,573.0,2338.0,2966.0,1348.0,2025-07-17 16:59:19,68.0,,-0.0824006483063864,-2.50612930683651,-0.205393213660337,,0.7534716706268497,,
,2671.0,705.0,1538.0,576.0,2333.0,2975.0,1386.0,2025-07-17 16:59:20,68.0,,-0.0824248085156771,-2.50616604286909,-0.205753929382996,,0.22729657234045345,,
,2671.0,706.0,1537.0,577.0,2333.0,2955.0,1376.0,2025-07-17 16:59:21,68.0,,-0.0824381645052931,-2.50629571681116,-0.205181609201165,,-0.27882163727520615,,
,2671.0,706.0,1539.0,576.0,2321.0,2954.0,1374.0,2025-07-17 16:59:22,68.0,,-0.0822891736048708,-2.50594736909367,-0.204548862921575,,-0.7547902189274305,,
,2671.0,706.0,1538.0,574.0,2315.0,2972.0,1376.0,2025-07-17 16:59:23,68.0,,-0.0824188822829496,-2.50546784340549,-0.204687732193673,,-1.192757393136735,,
,2673.0,708.0,1537.0,575.0,2335.0,2972.0,1399.0,2025-07-17 16:59:24,69.0,,-0.0823928443497887,-2.50600798503604,-0.204593069961232,,-1.5871843774024843,,
,2676.0,708.0,1539.0,579.0,2342.0,2952.0,1358.0,2025-07-17 16:59:25,69.0,,-0.0823639417532239,-2.50576746166377,-0.20468354429806,,-1.9347577158514901,,
,2673.0,706.0,1542.0,578.0,2327.0,2946.0,1369.0,2025-07-17 16:59:26,69.0,,-0.0822773963504904,-2.5055617368836,-0.206153471747064,,-2.2341586794637442,,
,2672.0,707.0,1540.0,574.0,2315.0,2957.0,1378.0,2025-07-17 16:59:27,69.0,,-0.0823427721340028,-2.50607469153152,-0.206669784113035,,-2.485715884340055,,
,2674.0,707.0,1542.0,575.0,2332.0,2967.0,1371.0,2025-07-17 16:59:28,69.0,,-0.082234224928802,-2.5059097814973,-0.206160819797398,,-2.6909755324928732,,
,2677.0,708.0,1543.0,578.0,2335.0,2976.0,1365.0,2025-07-17 16:59:29,70.0,,-0.0823676934029986,-2.50590450517442,-0.207103585751341,,-2.852229576254429,,
,2677.0,710.0,1542.0,578.0,2351.0,2966.0,1379.0,2025-07-17 16:59:30,70.0,,-0.0822419425041543,-2.50588199112804,-0.206222316641023,,-2.9720444906058794,,
,2676.0,709.0,1543.0,577.0,2350.0,2963.0,1378.0,2025-07-17 16:59:31,70.0,,-0.0824326162526176,-2.50583972213031,-0.206540890097928,,-3.0528317153358073,,
,2680.0,711.0,1545.0,578.0,2352.0,2958.0,1394.0,2025-07-17 16:59:32,71.0,,-0.0824859681655427,-2.50604853033419,-0.205789739911415,,-3.0964954016253854,,
,2680.0,708.0,1541.0,579.0,2344.0,2956.0,1386.0,2025-07-17 16:59:33,71.0,,-0.0823615650102406,-2.50601090887842,-0.207381183720735,,-3.104184546901516,,
,2677.0,710.0,1546.0,578.0,2358.0,2969.0,1365.0,2025-07-17 16:59:34,71.0,,-0.0825037708684596,-2.50585158518327,-0.208030348100849,,-3.0761659544523723,,
,2680.0,710.0,1546.0,579.0,2354.0,2967.0,1354.0,2025-07-17 16:59:35,72.0,,-0.0824878465986309,-2.50606645654072,-0.208275397355216,,-3.0118230297513127,,
,2682.0,710.0,1543.0,579.0,2357.0,2968.0,1383.0,2025-07-17 16:59:36,72.0,,-0.0824217582280159,-2.50608814875631,-0.208206284023168,,-2.909774701552187,,
,2681.0,711.0,1548.0,579.0,2348.0,2972.0,1400.0,2025-07-17 16:59:37,73.0,,-0.0823999995868674,-2.50624710224561,-0.209178145578944,,-2.768100070255259,,
,2682.0,712.0,1548.0,579.0,2338.0,2955.0,1379.0,2025-07-17 16:59:38,73.0,,-0.0825130225239471,-2.50626122152125,-0.209448367087909,,-2.5846485575862013,,
,2685.0,711.0,1550.0,580.0,2326.0,2957.0,1375.0,2025-07-17 16:59:39,74.0,,-0.0826974284856699,-2.50630265054814,-0.209215602717099,,-2.357412358572115,,
,2684.0,713.0,1547.0,578.0,2334.0,2956.0,1379.0,2025-07-17 16:59:40,74.0,,-0.0825747518478564,-2.50628022749124,-0.208434880481857,,-2.084936978672545,,
,2686.0,713.0,1548.0,581.0,2346.0,2965.0,1382.0,2025-07-17 16:59:41,75.0,,-0.0826049107377629,-2.5064633788099,-0.210592940049131,,-1.766745090614141,,
,2686.0,714.0,1550.0,581.0,2345.0,2991.0,1369.0,2025-07-17 16:59:42,76.0,,-0.0825092564799743,-2.50690207205909,-0.209622596997103,,-1.4037475693451922,,
,2688.0,713.0,1550.0,583.0,2341.0,2986.0,1369.0,2025-07-17 16:59:43,76.0,,-0.0826157365065828,-2.50673478011609,-0.20983729690058,,-0.9986131032232345,,
,2686.0,713.0,1549.0,580.0,2324.0,2968.0,1369.0,2025-07-17 16:59:44,77.0,,-0.0827343478964101,-2.50666528291592,-0.210588248988866,,-0.5560652386269186,,
,2687.0,713.0,1553.0,580.0,2323.0,2983.0,1371.0,2025-07-17 16:59:45,77.0,,-0.0827903638332335,-2.50708211393616,-0.210013288898251,,-0.08307469285521084,,
,2693.0,713.0,1552.0,581.0,2333.0,2965.0,1380.0,2025-07-17 16:59:46,77.0,,-0.0827976610291135,-2.50702546362684,-0.211349004771664,,0.4110834200326594,,
,2691.0,715.0,1554.0,583.0,2323.0,2964.0,1385.0,2025-07-17 16:59:47,78.0,,-0.0828239977780542,-2.50692818539453,-0.211227866769278,,0.9149324731724489,,
,2692.0,717.0,1552.0,582.0,2344.0,2954.0,1372.0,2025-07-17 16:59:48,78.0,,-0.082658722856361,-2.50751561317812,-0.211312540575303,,1.4150732949562395,,
,2692.0,715.0,1553.0,584.0,2349.0,2945.0,1359.0,2025-07-17 16:59:49,78.0,,-0.082836891043107,-2.50756806663665,-0.21319257039812,,1.896642684215156,,
,2694.0,717.0,1552.0,583.0,2348.0,2952.0,1379.0,2025-07-17 16:59:50,78.0,,-0.0829338821889509,-2.5073927875755,-0.212325581253534,,2.343939779582555,,
,2693.0,716.0,1555.0,582.0,2357.0,2944.0,1376.0,2025-07-17 16:59:51,78.0,,-0.082892476636631,-2.50765968801361,-0.212235568803253,,2.7411921533337034,,
,2699.0,718.0,1554.0,587.0,2356.0,2958.0,1371.0,2025-07-17 16:59:52,78.0,,-0.0828399572022613,-2.5075421202897,-0.212357407232311,,3.0734174048802783,,
,2697.0,716.0,1556.0,584.0,2345.0,2963.0,1373.0,2025-07-17 16:59:53,78.0,,-0.0828998979786676,-2.50785478389345,-0.212821962651635,,3.327321838511239,,
,2700.0,718.0,1554.0,582.0,2310.0,2964.0,1349.0,2025-07-17 16:59:54,78.0,,-0.0829699860549387,-2.50792355666046,-0.213117212143808,,3.492166964815995,,
,2696.0,718.0,1559.0,585.0,2318.0,2973.0,1369.0,2025-07-17 16:59:55,78.0,,-0.0830026771198371,-2.50815341765177,-0.214358717664536,,3.560528578128078,,
,2698.0,720.0,1555.0,586.0,2334.0,2976.0,1364.0,2025-07-17 16:59:56,78.0,,-0.0830637876630713,-2.50825933029518,-0.213123397249586,,3.528873783798003,,
,2695.0,716.0,1556.0,585.0,2343.0,2974.0,1367.0,2025-07-17 16:59:57,77.0,,-0.0831236351954621,-2.50809976872186,-0.214343934891708,,3.397890404739766,,
,2696.0,717.0,1556.0,583.0,2366.0,2979.0,1377.0,2025-07-17 16:59:58,77.0,,-0.083063542514369,-2.5079865599274,-0.214202842185218,,3.172521976895505,,
,2695.0,715.0,1556.0,583.0,2350.0,2994.0,1388.0,2025-07-17 16:59:59,77.0,,-0.0831691682089006,-2.5085798158211,-0.214059729137185,,2.8616897866337707,,
,2694.0,717.0,1555.0,584.0,2362.0,2978.0,1390.0,2025-07-17 17:00:00,77.0,,-0.0831509750376311,-2.50868293674259,-0.213531379835247,,2.4777181840162488,,
,2691.0,716.0,1556.0,583.0,2329.0,2955.0,1362.0,2025-07-17 17:00:01,77.0,,-0.0831660883154174,-2.50856249625782,-0.214167523711151,,2.035514849571677,,
,2690.0,715.0,1553.0,579.0,2339.0,2945.0,1353.0,2025-07-17 17:00:02,77.0,,-0.0831349910041092,-2.50862185153821,-0.215353764863566,,1.551586523337636,,
,2687.0,715.0,1553.0,581.0,2338.0,2953.0,1365.0,2025-07-17 17:00:03,76.0,,-0.083187545106066,-2.50878200795498,-0.214842800398667,,1.042987181700773,,
,2685.0,715.0,1551.0,581.0,2315.0,2957.0,1360.0,2025-07-17 17:00:04,76.0,,-0.083315348711574,-2.50918109158443,-0.21614527039596,,0.5262977919942023,,
,2684.0,716.0,1551.0,580.0,2317.0,2945.0,1362.0,2025-07-17 17:00:05,77.0,,-0.083461779364826,-2.50867055377442,-0.216882861772495,,0.01672631341454356,,
,2682.0,713.0,1547.0,576.0,2345.0,2930.0,1357.0,2025-07-17 17:00:06,77.0,,-0.0833520708222139,-2.50898650719849,-0.215592398058898,,-0.47260275161605275,,
,2678.0,713.0,1547.0,580.0,2350.0,2949.0,1363.0,2025-07-17 17:00:07,78.0,,-0.0833349090648721,-2.50937247687018,-0.216433558429667,,-0.9311242149756008,,
,2682.0,713.0,1548.0,580.0,2340.0,2945.0,1349.0,2025-07-17 17:00:08,79.0,,-0.0833924710753472,-2.50887531104848,-0.216611872835644,,-1.3510541259473323,,
2025-07-17 16:57:58,2682.0,714.0,1547.0,581.0,2348.0,2949.0,1356.0,2025-07-17 17:00:09,80.0,2025/07/17 04:57:58 PM,-0.0834191895667649,-2.50930052090351,-0.216163115216864,,-1.727362915671198,,
,2680.0,710.0,1545.0,578.0,2364.0,2964.0,1336.0,2025-07-17 17:00:10,81.0,,-0.0834636386740011,-2.50895904730047,-0.217617442290887,,-2.057526451527481,,
,2682.0,714.0,1547.0,581.0,2368.0,2980.0,1344.0,2025-07-17 17:00:11,82.0,,-0.0835793031071204,-2.50923704620205,-0.217673435713291,,-2.341099139081465,,
,2678.0,713.0,1548.0,580.0,2361.0,2969.0,1347.0,2025-07-17 17:00:12,82.0,,-0.0835402487440379,-2.50931204514072,-0.217373870074847,,-2.579165775544413,,
,2680.0,711.0,1546.0,579.0,2354.0,2967.0,1355.0,2025-07-17 17:00:13,81.0,,-0.0836205932365367,-2.50935810767848,-0.217226323743644,,-2.773735882419225,,
,2678.0,712.0,1545.0,580.0,2360.0,2967.0,1361.0,2025-07-17 17:00:14,81.0,,-0.0836886262049808,-2.50961103982774,-0.217666750312092,,-2.9271452971778547,,
,2679.0,711.0,1544.0,579.0,2360.0,2961.0,1371.0,2025-07-17 17:00:15,80.0,,-0.0836787869363909,-2.50943692812154,-0.217473658205987,,-3.0415248819538365,,
,2678.0,712.0,1549.0,580.0,2349.0,2962.0,1382.0,2025-07-17 17:00:16,79.0,,-0.0837796320179038,-2.51007314408079,-0.217711889711277,,-3.118385800372173,,
,2683.0,713.0,1548.0,580.0,2364.0,2975.0,1369.0,2025-07-17 17:00:17,78.0,,-0.0839520182540344,-2.50979073778397,-0.218637722008321,,-3.158355833193381,,
,2677.0,713.0,1544.0,579.0,2348.0,2970.0,1362.0,2025-07-17 17:00:18,77.0,,-0.0841889574209612,-2.51013626010351,-0.219060523372273,,-3.161082993012939,,
,2676.0,714.0,1543.0,578.0,2347.0,2958.0,1357.0,2025-07-17 17:00:19,76.0,,-0.0840772645405494,-2.51017893212351,-0.219468836391459,,-3.1253031958613886,,
,2676.0,714.0,1546.0,580.0,2355.0,2964.0,1342.0,2025-07-17 17:00:20,75.0,,-0.0840637435913802,-2.50997519052504,-0.218627054406925,,-3.049050480759573,,
,2679.0,712.0,1547.0,579.0,2349.0,2975.0,1332.0,2025-07-17 17:00:21,75.0,,-0.0841413873340639,-2.51027593420349,-0.22071334517008,,-2.9299738545349943,,
,2678.0,709.0,1545.0,581.0,2346.0,2976.0,1350.0,2025-07-17 17:00:22,75.0,,-0.0842352883135366,-2.51041790395016,-0.219784188483577,,-2.765716261657173,,
,2676.0,712.0,1544.0,577.0,2354.0,2972.0,1378.0,2025-07-17 17:00:23,74.0,,-0.0841758855834593,-2.51078607598352,-0.220097166303035,,-2.554309419330511,,
,2679.0,710.0,1546.0,581.0,2364.0,2941.0,1348.0,2025-07-17 17:00:24,74.0,,-0.0843188720251019,-2.51119646447517,-0.221793834569301,,-2.2945432874393408,,
,2677.0,713.0,1546.0,580.0,2332.0,2948.0,1354.0,2025-07-17 17:00:25,73.0,,-0.0846581420627828,-2.51188228011573,-0.223020863869128,,-1.986279570550649,,
,2678.0,715.0,1545.0,580.0,2321.0,2959.0,1355.0,2025-07-17 17:00:26,73.0,,-0.0847233616171629,-2.51287272834741,-0.222840751823176,,-1.630692279858803,,
,2677.0,710.0,1545.0,581.0,2332.0,2953.0,1323.0,2025-07-17 17:00:27,73.0,,-0.0849191807850782,-2.5132276415892,-0.223229549308054,,-1.2304314432871608,,
,2679.0,711.0,1544.0,580.0,2346.0,2946.0,1331.0,2025-07-17 17:00:28,72.0,,-0.08508848662531,-2.51373019771134,-0.224297407901604,,-0.7897153347096295,,
,2677.0,712.0,1548.0,582.0,2371.0,2954.0,1344.0,2025-07-17 17:00:29,72.0,,-0.0852266052300425,-2.51434473038635,-0.224839069192033,,-0.31436057467710127,,
,2679.0,716.0,1546.0,580.0,2372.0,2948.0,1351.0,2025-07-17 17:00:30,72.0,,-0.0855021827408822,-2.51458237935625,-0.225274221431393,,0.18824144240657573,,
,2678.0,713.0,1544.0,582.0,2356.0,2940.0,1363.0,2025-07-17 17:00:31,72.0,,-0.0855632551179011,-2.51485996562544,-0.225417787190044,,0.7091974703704931,,
,2674.0,713.0,1543.0,580.0,2357.0,2956.0,1371.0,2025-07-17 17:00:32,72.0,,-0.0855617814297899,-2.51496787294583,-0.226247790950519,,1.2382357759357043,,
,2676.0,711.0,1545.0,580.0,2366.0,2972.0,1368.0,2025-07-17 17:00:33,72.0,,-0.0856230315912846,-2.51467886028865,-0.226327490972287,,1.7638860597929722,,
,2676.0,713.0,1546.0,578.0,2357.0,2964.0,1355.0,2025-07-17 17:00:34,71.0,,-0.085673789056666,-2.51513082045769,-0.22618686424205,,2.273725397039788,,
,2677.0,714.0,1546.0,579.0,2345.0,2968.0,1357.0,2025-07-17 17:00:35,72.0,,-0.0855816401294587,-2.51457252363664,-0.226161897930228,,2.7547003825020595,,
,2678.0,712.0,1544.0,579.0,2341.0,2971.0,1364.0,2025-07-17 17:00:36,72.0,,-0.0856181309854831,-2.51459158342883,-0.22462137021881,,3.19353296118474,,
,2677.0,713.0,1545.0,580.0,2357.0,2969.0,1354.0,2025-07-17 17:00:37,72.0,,-0.0854731094074012,-2.51445236511651,-0.22447648957169,,3.577210628763891,,
,2677.0,715.0,1547.0,582.0,2351.0,2962.0,1373.0,2025-07-17 17:00:38,73.0,,-0.0855957096005613,-2.51456603758762,-0.224288208116498,,3.8935506606859014,,
,2679.0,714.0,1545.0,580.0,2345.0,2951.0,1351.0,2025-07-17 17:00:39,73.0,,-0.0856422908638972,-2.51429189405896,-0.223784372901837,,4.131813731556724,,
,2677.0,713.0,1544.0,580.0,2339.0,2962.0,1375.0,2025-07-17 17:00:40,73.0,,-0.0854336024215236,-2.51448825231739,-0.223952679027119,,4.283326978715686,,
,2677.0,714.0,1545.0,578.0,2347.0,2966.0,1333.0,2025-07-17 17:00:41,73.0,,-0.0855682137554482,-2.51447146956221,-0.223015078696629,,4.342063433459846,,
,2676.0,714.0,1547.0,583.0,2332.0,2960.0,1364.0,2025-07-17 17:00:42,73.0,,-0.0854733019982164,-2.51428278061508,-0.224073697188937,,4.305117280961947,,
,2678.0,712.0,1546.0,582.0,2349.0,2961.0,1350.0,2025-07-17 17:00:43,72.0,,-0.0855595318977434,-2.51429282168577,-0.223959715812105,,4.173015661813533,,
,2678.0,713.0,1548.0,579.0,2353.0,2958.0,1353.0,2025-07-17 17:00:44,72.0,,-0.0855954243175795,-2.51434630049461,-0.22442869457794,,3.949819322583697,,
,2678.0,712.0,1545.0,578.0,2355.0,2951.0,1343.0,2025-07-17 17:00:45,72.0,,-0.0855771523178126,-2.51426309363432,-0.224852626921032,,3.6429855763240155,,
,2677.0,713.0,1544.0,582.0,2366.0,2975.0,1363.0,2025-07-17 17:00:46,72.0,,-0.0855928245453388,-2.51459894284634,-0.224762266250808,,3.26299418118169,,
,2675.0,714.0,1545.0,580.0,2347.0,2971.0,1372.0,2025-07-17 17:00:47,72.0,,-0.0857110240509972,-2.51498398006103,-0.224799603687623,,2.822764404903883,,
,2678.0,713.0,1549.0,582.0,2365.0,2964.0,1361.0,2025-07-17 17:00:48,72.0,,-0.0858296765381434,-2.51492290739454,-0.22540991550663,,2.336914280896483,,
,2677.0,712.0,1547.0,580.0,2338.0,2959.0,1359.0,2025-07-17 17:00:49,72.0,,-0.0858384541009782,-2.5150645717247,-0.225290459052686,,1.8209274050460569,,
,2677.0,714.0,1547.0,582.0,2356.0,2956.0,1359.0,2025-07-17 17:00:50,73.0,,-0.0859400558247361,-2.51501527635476,-0.224887765676021,,1.2902977618060343,,
,2679.0,718.0,1547.0,582.0,2350.0,2956.0,1365.0,2025-07-17 17:00:51,73.0,,-0.0858612037196373,-2.5151513558605,-0.225292055542064,,0.759720273662145,,
,2679.0,717.0,1551.0,583.0,2367.0,2958.0,1335.0,2025-07-17 17:00:52,73.0,,-0.0859450431453278,-2.51495309437958,-0.225471618810965,,0.24238624448998625,,
,2679.0,714.0,1547.0,580.0,2367.0,2958.0,1357.0,2025-07-17 17:00:53,74.0,,-0.0859405521512703,-2.51504564662271,-0.226272015131601,,-0.25056931834708446,,
,2680.0,714.0,1549.0,583.0,2361.0,2959.0,1331.0,2025-07-17 17:00:54,74.0,,-0.0859298292255274,-2.51486157576937,-0.225915674080664,,-0.7104360025837165,,
,2680.0,715.0,1547.0,579.0,2368.0,2957.0,1334.0,2025-07-17 17:00:55,74.0,,-0.0858479777836722,-2.51509747657582,-0.226204917230015,,-1.1310953370152963,,
,2682.0,717.0,1548.0,581.0,2364.0,2952.0,1342.0,2025-07-17 17:00:56,74.0,,-0.0859506930549914,-2.51532130690211,-0.225444765726108,,-1.5089870061567874,,
,2681.0,716.0,1550.0,583.0,2346.0,2957.0,1334.0,2025-07-17 17:00:57,74.0,,-0.0859957829593632,-2.51492128764103,-0.225273552447866,,-1.8428892706008277,,
,2680.0,714.0,1549.0,582.0,2340.0,2975.0,1322.0,2025-07-17 17:00:58,74.0,,-0.0859849702299007,-2.51512239840896,-0.226411900285717,,-2.1335422464582896,,
,2680.0,717.0,1550.0,583.0,2348.0,2969.0,1322.0,2025-07-17 17:00:59,74.0,,-0.0860993990568377,-2.51530613384997,-0.226204763027069,,-2.3831529827194493,,
,2682.0,715.0,1551.0,584.0,2357.0,2960.0,1320.0,2025-07-17 17:01:00,74.0,,-0.0861300691883224,-2.51568438292567,-0.227622683863572,,-2.594828213668496,,
,2682.0,717.0,1552.0,585.0,2369.0,2964.0,1345.0,,,,-0.086142192828414,-2.51539947303698,-0.227433377579353,,-2.771984177744483,,
,2683.0,715.0,1548.0,585.0,2361.0,2960.0,1334.0,,,,-0.0861668286902945,-2.51576680278835,-0.226240093437673,,-2.917782938868385,,
,2684.0,719.0,1552.0,583.0,2342.0,2942.0,1338.0,,,,-0.0861881537251835,-2.51595058309403,-0.227331608315464,,-3.0346412367737066,,
,2686.0,719.0,1551.0,584.0,2345.0,2966.0,1335.0,,,,-0.0862456151089501,-2.51606467957072,-0.227399060936656,,-3.123851255122859,,
,2684.0,716.0,1549.0,584.0,2357.0,2961.0,1355.0,,,,-0.0862517462466931,-2.51595431078123,-0.227613604927367,,-3.185343300310972,,
,2686.0,715.0,1551.0,583.0,2359.0,2954.0,1338.0,,,,-0.0863378199755157,-2.51621447870377,-0.227998948955307,,-3.2176088289004943,,
,2688.0,717.0,1551.0,583.0,2367.0,2946.0,1338.0,,,,-0.0863622221271114,-2.51602860222603,-0.228480542965179,,-3.2177892005579225,,
,2689.0,720.0,1553.0,586.0,2338.0,2947.0,1349.0,,,,-0.0863339645925816,-2.51630153680342,-0.227371667380263,,-3.181921729132776,,
,2687.0,719.0,1554.0,584.0,2338.0,2944.0,1341.0,,,,-0.0864412481671361,-2.51630823614018,-0.227612858028424,,-3.1053210361830264,,
,2687.0,716.0,1552.0,583.0,2363.0,2937.0,1297.0,,,,-0.0863886353533507,-2.51642815715791,-0.22790174380282,,-2.9830616897294906,,
,2687.0,718.0,1555.0,585.0,2367.0,2936.0,1313.0,,,,-0.086231215712945,-2.51632737637213,-0.228017225436967,,-2.810519325225641,,
,2689.0,720.0,1557.0,585.0,2367.0,2929.0,1353.0,,,,-0.0861337213561989,-2.51636395481787,-0.226949344152092,,-2.5839236316319583,,
,2689.0,718.0,1555.0,587.0,2357.0,2930.0,1350.0,,,,-0.0860803330297576,-2.51598318989903,-0.228298573812331,,-2.3008786560571863,,
,2691.0,720.0,1556.0,585.0,2348.0,2945.0,1328.0,,,,-0.0859473205091824,-2.51619317356653,-0.22697530141194,,-1.960813060542491,,
,2690.0,719.0,1555.0,586.0,2341.0,2960.0,1321.0,,,,-0.0861392343909135,-2.51591310336447,-0.227058624940414,,-1.5653328395065327,,
,2691.0,719.0,1554.0,586.0,2364.0,2950.0,1328.0,,,,-0.0859647041780809,-2.5160464912185,-0.226755219423398,,-1.118458663922163,,
,2692.0,718.0,1556.0,586.0,2369.0,2959.0,1372.0,,,,-0.0858776293444934,-2.51600310999188,-0.226526713321163,,-0.6267374273993281,,
,2692.0,721.0,1556.0,588.0,2381.0,2955.0,1364.0,,,,-0.0858856031396261,-2.51603456630954,-0.2268451007794,,-0.0992222492361455,,
,2692.0,720.0,1556.0,584.0,2374.0,2960.0,1337.0,,,,-0.0859450648920008,-2.5155434867785,-0.227113933261064,,0.4526820336060941,,
,2692.0,721.0,1557.0,588.0,2373.0,2955.0,1326.0,,,,-0.0860668137914922,-2.5157462153541,-0.225982772844629,,1.0155085717718735,,
,2695.0,718.0,1557.0,587.0,2358.0,2971.0,1337.0,,,,-0.0861174291324999,-2.51584213797773,-0.227023251604177,,1.5741509747234346,,
,2693.0,721.0,1557.0,586.0,2365.0,2965.0,1338.0,,,,-0.0860787140526006,-2.51573643748433,-0.226500961420742,,2.1124112343213097,,
,2694.0,720.0,1559.0,587.0,2360.0,2950.0,1333.0,,,,-0.0860039754814596,-2.51575905406187,-0.227414624023888,,2.613658677209597,,
,2694.0,721.0,1559.0,588.0,2370.0,2950.0,1323.0,,,,-0.085963002578161,-2.515677765824,-0.227419926739124,,3.061576192158032,,
,2695.0,721.0,1561.0,588.0,2362.0,2943.0,1354.0,,,,-0.0860424598015385,-2.51580954162731,-0.226142897638168,,3.4409590018744263,,
,2697.0,722.0,1558.0,590.0,2362.0,2948.0,1351.0,,,,-0.0858945944308019,-2.51568432753217,-0.228665039679827,,3.7385199477735735,,
,2695.0,724.0,1561.0,587.0,2357.0,2952.0,1371.0,,,,-0.0860785979966181,-2.51553990430053,-0.226573536717392,,3.9436456728312335,,
,2697.0,719.0,1559.0,587.0,2358.0,2959.0,1376.0,,,,-0.0859198710061132,-2.51565791885209,-0.227008134612601,,4.049042520616678,,
,2700.0,724.0,1560.0,590.0,2371.0,2938.0,1355.0,,,,-0.0860935160499559,-2.51566915211311,-0.227317050995336,,4.051211445924327,,
,2698.0,724.0,1563.0,590.0,2360.0,2944.0,1346.0,,,,-0.0861556305209908,-2.51591004522012,-0.226378338243283,,3.9506993421527907,,
,2701.0,724.0,1566.0,590.0,2361.0,2967.0,1338.0,,,,-0.0860352869758508,-2.51574166780015,-0.227027166727422,,3.7520908461642057,,
,2697.0,721.0,1562.0,587.0,2358.0,2961.0,1352.0,,,,-0.0860697419405907,-2.51562343377797,-0.22759536607998,,3.4637292606585706,,
,2701.0,723.0,1564.0,591.0,2357.0,2946.0,1337.0,,,,-0.086024472274847,-2.51546145212702,-0.228336573373533,,3.0971846499900964,,
,2703.0,725.0,1566.0,592.0,2342.0,2962.0,1344.0,,,,-0.0859608199181885,-2.51572830531108,-0.227270429761163,,2.666516056987795,,
,2703.0,725.0,1565.0,589.0,2352.0,2961.0,1325.0,,,,-0.0860477197762046,-2.5156994660686,-0.228444593172311,,2.1873972126260255,,
,2702.0,724.0,1565.0,588.0,2361.0,2966.0,1355.0,,,,-0.0860572356792109,-2.51571274612048,-0.228719839766065,,1.6761868214683424,,
,2701.0,724.0,1567.0,591.0,2386.0,2950.0,1349.0,,,,-0.0859934358307125,-2.51544961301935,-0.227596569958886,,1.149024361319382,,
,2705.0,726.0,1567.0,591.0,2381.0,2958.0,1340.0,,,,-0.0860139069900014,-2.51620722134558,-0.228174777848229,,0.6210221004228745,,
,2704.0,725.0,1568.0,594.0,2369.0,2944.0,1341.0,,,,-0.0861210637503895,-2.51579620549629,-0.227779590270634,,0.10560710128527102,,
,2703.0,725.0,1565.0,590.0,2359.0,2925.0,1341.0,,,,-0.0861024142225412,-2.51585922578762,-0.228672768777075,,-0.3859530043444157,,
,2705.0,725.0,1567.0,590.0,2360.0,2961.0,1338.0,,,,-0.0860911505058048,-2.51566333916221,-0.227254917538305,,-0.8448266334385711,,
,2705.0,726.0,1567.0,593.0,2381.0,2955.0,1331.0,,,,-0.0862287143898864,-2.51578930127273,-0.228142190676293,,-1.2647010345420566,,
,2709.0,727.0,1568.0,591.0,2385.0,2950.0,1323.0,,,,-0.0861324154005878,-2.51621325660931,-0.227180983500283,,-1.6416887682954637,,
,2708.0,726.0,1568.0,595.0,2350.0,2942.0,1306.0,,,,-0.0861852949433341,-2.515606813095,-0.228803221060993,,-1.97408478419166,,
,2707.0,724.0,1567.0,590.0,2346.0,2959.0,1312.0,,,,-0.0861471441125098,-2.51595877511613,-0.227577447983631,,-2.262006485962664,,
,2709.0,728.0,1568.0,592.0,2354.0,2979.0,1316.0,,,,-0.0862362733250795,-2.51600802583393,-0.229325873208781,,-2.5069520256695763,,
,2709.0,727.0,1570.0,593.0,2367.0,2974.0,1326.0,,,,-0.0861884794200129,-2.51605611930035,-0.228548665227088,,-2.711313381879573,,
,2711.0,726.0,1571.0,594.0,2362.0,2977.0,1332.0,,,,-0.0860991413428006,-2.51589295204787,-0.228804803597286,,-2.8778809268464505,,
,2713.0,728.0,1570.0,592.0,2365.0,2976.0,1335.0,,,,-0.0860670254824314,-2.51613426602082,-0.228218367001678,,-3.0093748606013166,,
,2712.0,728.0,1569.0,594.0,2388.0,2969.0,1312.0,,,,-0.0859255938491031,-2.51575925180798,-0.228867555581423,,-3.108035680773461,,
,2713.0,729.0,1573.0,594.0,2385.0,2969.0,1341.0,,,,-0.0860087919875073,-2.5159820076559,-0.228640064197291,,-3.17530072558693,,
,2713.0,729.0,1571.0,594.0,2387.0,2965.0,1342.0,,,,-0.0861278013778726,-2.51583389303949,-0.228188584393797,,-3.2115871207960462,,
,2710.0,726.0,1570.0,591.0,2386.0,2977.0,1326.0,,,,-0.0860177356608461,-2.51592833841549,-0.228815400125379,,-3.2161936933443,,
,2714.0,730.0,1572.0,596.0,2379.0,2969.0,1338.0,,,,-0.0861823011553671,-2.51566534393177,-0.229224121984075,,-3.187326104982905,,
,2712.0,726.0,1574.0,594.0,2359.0,2982.0,1315.0,,,,-0.0861121560118624,-2.51588772192235,-0.228061798963459,,-3.1222411497333193,,
,2713.0,728.0,1574.0,594.0,2359.0,2980.0,1331.0,,,,-0.0861852803268507,-2.51578953482888,-0.228261283755731,,-3.017498516737187,,
,2711.0,729.0,1573.0,593.0,2364.0,2982.0,1342.0,,,,-0.086068472423788,-2.51583205473579,-0.228705961923062,,-2.8693021152614855,,
,2710.0,727.0,1568.0,594.0,2343.0,2968.0,1350.0,,,,-0.0857613371431279,-2.51570514653882,-0.229342476827173,,-2.6739089070020765,,
,2707.0,725.0,1569.0,593.0,2337.0,2969.0,1334.0,,,,-0.0859407860289599,-2.51564269078108,-0.228851058693597,,-2.4280811765662182,,
,2706.0,725.0,1567.0,593.0,2329.0,2939.0,1335.0,,,,-0.0858306813682887,-2.51599689736363,-0.229255548188436,,-2.1295576078470138,,
,2705.0,727.0,1566.0,590.0,2308.0,2931.0,1331.0,,,,-0.08598402423483,-2.51585725379293,-0.22858927248867,,-1.7775181165115057,,
,2700.0,723.0,1563.0,589.0,2321.0,2939.0,1351.0,,,,-0.0858258147824289,-2.51549368213611,-0.229122275046404,,-1.3730158533954202,,
,2699.0,722.0,1564.0,590.0,2327.0,2941.0,1365.0,,,,-0.0858322000105588,-2.51577878805573,-0.228208799789701,,-0.9193468494601694,,
,2695.0,723.0,1562.0,589.0,2346.0,2940.0,1357.0,,,,-0.0857504380011345,-2.51564725596991,-0.227966251077229,,-0.4223246097394609,,
,2694.0,724.0,1562.0,591.0,2348.0,2936.0,1356.0,,,,-0.0857972032640937,-2.51542846564146,-0.228346868358576,,0.10957428981382976,,
,2694.0,722.0,1562.0,587.0,2357.0,2955.0,1361.0,,,,-0.0856853286882238,-2.51547295834963,-0.228004872267182,,0.665225058203465,,
,2692.0,720.0,1559.0,587.0,2354.0,2932.0,1359.0,,,,-0.0856856897925439,-2.51509161331348,-0.228314723463016,,1.2310544551443088,,
,2692.0,721.0,1560.0,588.0,2348.0,2954.0,1332.0,,,,-0.085689131906831,-2.51519210177793,-0.226935925900132,,1.7914385776080137,,
,2692.0,724.0,1559.0,589.0,2348.0,2953.0,1344.0,,,,-0.0858189259429431,-2.51520180338723,-0.227804635666401,,2.3292967512025426,,
,2689.0,720.0,1558.0,588.0,2373.0,2952.0,1325.0,,,,-0.085681578639396,-2.51489018753457,-0.225946327053903,,2.8268619428579393,,
,2689.0,719.0,1557.0,587.0,2372.0,2959.0,1324.0,,,,-0.0857076611243289,-2.51468419203403,-0.228134181559474,,3.2665892358151867,,
,2690.0,720.0,1560.0,587.0,2342.0,2975.0,1314.0,,,,-0.0854714104818256,-2.51484782351944,-0.226734988148081,,3.6321456193678325,,
,2688.0,720.0,1558.0,587.0,2355.0,2963.0,1310.0,,,,-0.0854491048211113,-2.51468734497969,-0.226152108134931,,3.9094087879363304,,
,2688.0,718.0,1557.0,586.0,2358.0,2954.0,1310.0,,,,-0.0854817284353091,-2.51477577762304,-0.227280927392902,,4.087392311147327,,
,2688.0,718.0,1557.0,584.0,2359.0,2970.0,1332.0,,,,-0.0854671479112489,-2.51452682634702,-0.226409548967818,,4.1590119724162635,,
,2686.0,718.0,1556.0,587.0,2348.0,2972.0,1322.0,,,,-0.0852621079267965,-2.5142256467564,-0.225863668316326,,4.12161514885915,,
2025-07-17 16:57:59,2686.0,718.0,1556.0,586.0,2345.0,2958.0,1340.0,,,2025/07/17 04:57:59 PM,-0.085335437858306,-2.51401887296017,-0.225861321550313,,3.977212386863987,,
,2687.0,720.0,1558.0,587.0,2354.0,2964.0,1336.0,,,,-0.0853386369699762,-2.5138393764163,-0.226066282728278,,3.7323768958349115,,
,2685.0,715.0,1555.0,584.0,2360.0,2962.0,1314.0,,,,-0.0853278016976598,-2.51372673508032,-0.225917364475842,,3.3978110484121804,,
,2683.0,718.0,1556.0,585.0,2364.0,2964.0,1347.0,,,,-0.08529680632231,-2.51384589996308,-0.225200719640986,,2.9876149533654885,,
,2685.0,716.0,1556.0,587.0,2360.0,2964.0,1344.0,,,,-0.0852611719090185,-2.51356809468435,-0.225441052806453,,2.5183252060243593,,
,2683.0,716.0,1556.0,585.0,2364.0,2955.0,1354.0,,,,-0.085200987335228,-2.51389966597462,-0.224831879842473,,2.0078162927782808,,
,2685.0,718.0,1553.0,583.0,2326.0,2952.0,1375.0,,,,-0.0853529442630323,-2.51376016279499,-0.225818004759375,,1.4741687252946467,,
,2685.0,718.0,1555.0,586.0,2312.0,2951.0,1362.0,,,,-0.0856415156374141,-2.51447498468629,-0.22471303683535,,0.9346057426895332,,
,2686.0,719.0,1556.0,587.0,2341.0,2940.0,1340.0,,,,-0.0857623402407611,-2.51509369783968,-0.226218442856392,,0.40458634058743964,,
,2685.0,717.0,1555.0,587.0,2338.0,2939.0,1343.0,,,,-0.0859733435145273,-2.51551437894785,-0.226346945778765,,-0.10287977511743901,,
,2682.0,718.0,1553.0,586.0,2314.0,2945.0,1348.0,,,,-0.0860484244312518,-2.51535777932084,-0.226630795274126,,-0.5776559586441146,,
,2683.0,715.0,1555.0,585.0,2343.0,2964.0,1362.0,,,,-0.0858537168774165,-2.51552916618796,-0.227500680871329,,-1.0126287507942933,,
,2684.0,718.0,1554.0,586.0,2344.0,2944.0,1364.0,,,,-0.0859708633281144,-2.51587341284207,-0.226186183698704,,-1.4035971612129952,,
,2683.0,718.0,1553.0,585.0,2332.0,2967.0,1374.0,,,,-0.0860650498959546,-2.5154976529526,-0.226474397967001,,-1.7489353666967917,,
,2683.0,716.0,1554.0,584.0,2341.0,2965.0,1359.0,,,,-0.0859254079629386,-2.51570990595468,-0.226824752582667,,-2.049079558625325,,
,2681.0,717.0,1554.0,584.0,2355.0,2951.0,1362.0,,,,-0.0860047632581363,-2.51573870421605,-0.226118788992687,,-2.305900504444912,,
,2683.0,719.0,1554.0,586.0,2336.0,2957.0,1350.0,,,,-0.0860399612188712,-2.51584775585634,-0.224817127511085,,-2.522028455403137,,
,2683.0,718.0,1556.0,587.0,2332.0,2951.0,1342.0,,,,-0.0859079131085109,-2.51586904281194,-0.224366581676939,,-2.7001965368365735,,
,2683.0,715.0,1551.0,585.0,2322.0,2952.0,1348.0,,,,-0.0860230820028531,-2.51561288649115,-0.224217632227146,,-2.842663060742658,,
,2681.0,716.0,1552.0,586.0,2305.0,2959.0,1354.0,,,,-0.0859475426547281,-2.51530464937452,-0.224117808584865,,-2.9507627946994592,,
,2681.0,716.0,1553.0,584.0,2334.0,2963.0,1349.0,,,,-0.0857810895176501,-2.51481006026958,-0.223746341259111,,-3.024622825113752,,
,2681.0,718.0,1553.0,584.0,2342.0,2954.0,1388.0,,,,-0.0854890295697879,-2.51407908450819,-0.223099495582358,,-3.0630614066102417,,
,2683.0,720.0,1552.0,585.0,2322.0,2962.0,1391.0,,,,-0.0854528047542469,-2.51415141120332,-0.220922846417928,,-3.0636698312717536,,
,2679.0,717.0,1553.0,585.0,2342.0,2929.0,1382.0,,,,-0.0852039853829487,-2.51348624730751,-0.220988699220062,,-3.0230600926944935,,
,2679.0,716.0,1549.0,584.0,2355.0,2962.0,1375.0,,,,-0.0850421321339867,-2.51345348952749,-0.219764111822073,,-2.9372470684192162,,
,2677.0,716.0,1550.0,585.0,2334.0,2967.0,1380.0,,,,-0.0850083796749059,-2.5133811119259,-0.219279058269184,,-2.80212446711281,,
,2678.0,717.0,1551.0,586.0,2343.0,2953.0,1375.0,,,,-0.0850460908793361,-2.51278452788447,-0.21841626593617,,-2.613989340117399,,
,2679.0,716.0,1551.0,585.0,2340.0,2945.0,1359.0,,,,-0.0849719476458418,-2.51275786498587,-0.21904312395163,,-2.3700703009205353,,
,2676.0,717.0,1549.0,584.0,2361.0,2942.0,1370.0,,,,-0.084970325125182,-2.51248313791415,-0.218420790507847,,-2.0690189368304166,,
,2679.0,716.0,1551.0,583.0,2343.0,2965.0,1366.0,,,,-0.0848569098300192,-2.512838884278,-0.217954488964286,,-1.711330907255555,,
,2679.0,717.0,1554.0,587.0,2349.0,2980.0,1335.0,,,,-0.0848357968194739,-2.51262807417201,-0.219866940661912,,-1.2996712530456416,,
,2680.0,716.0,1551.0,583.0,2348.0,2978.0,1341.0,,,,-0.0849963175793037,-2.51252959007533,-0.218546955759394,,-0.8390859888760795,,
,2676.0,716.0,1549.0,582.0,2353.0,2956.0,1362.0,,,,-0.0848167739320925,-2.51244024632749,-0.217972550995977,,-0.33708820588731114,,
,2680.0,715.0,1551.0,584.0,2347.0,2940.0,1372.0,,,,-0.0848267277647208,-2.51221705084635,-0.219014395490137,,0.19638847892146477,,
,2681.0,717.0,1554.0,586.0,2353.0,2958.0,1355.0,,,,-0.0847917217988546,-2.51211074854155,-0.218793691756801,,0.7491727475316727,,
,2679.0,717.0,1549.0,586.0,2340.0,2972.0,1359.0,,,,-0.0846149381633733,-2.51187644763261,-0.217679447292339,,1.3071749676125612,,
,2676.0,716.0,1549.0,586.0,2327.0,2986.0,1370.0,,,,-0.0846621196226133,-2.51127442841824,-0.216334229123138,,1.854839340514753,,
,2681.0,714.0,1552.0,586.0,2326.0,2955.0,1366.0,,,,-0.0845482464155583,-2.51120497555589,-0.216756773937724,,2.375719367570693,,
,2680.0,718.0,1552.0,585.0,2341.0,2951.0,1385.0,,,,-0.0844010937728876,-2.51089667101542,-0.215591526239528,,2.8531596238884975,,
,2682.0,718.0,1551.0,585.0,2338.0,2957.0,1382.0,,,,-0.0844082035435123,-2.51110579869923,-0.216151489132202,,3.2710575501287753,,
,2683.0,717.0,1554.0,585.0,2352.0,2946.0,1373.0,,,,-0.084355660741924,-2.51102319430256,-0.214530748276077,,3.61466869338161,,
,2677.0,716.0,1551.0,584.0,2335.0,2941.0,1352.0,,,,-0.0843531444160669,-2.51112528052745,-0.214883009222287,,3.871408549794807,,
,2681.0,716.0,1555.0,587.0,2340.0,2946.0,1336.0,,,,-0.0844621578204184,-2.51087601699375,-0.215710723672177,,4.031595247828079,,
,2681.0,717.0,1553.0,585.0,2338.0,2946.0,1370.0,,,,-0.0842832629852648,-2.51075491755223,-0.215912654178999,,4.089071778549763,,
,2682.0,719.0,1555.0,587.0,2329.0,2951.0,1370.0,,,,-0.0844362565045769,-2.51100858121395,-0.216678812800078,,4.0416468770033145,,
,2680.0,717.0,1551.0,584.0,2336.0,2961.0,1349.0,,,,-0.0844210932904792,-2.51121630247617,-0.21619004293423,,3.891302243374963,,
,2682.0,719.0,1553.0,586.0,2306.0,2962.0,1356.0,,,,-0.0843299975600062,-2.51105404902129,-0.216196475166211,,3.644131459126271,,
,2682.0,718.0,1553.0,585.0,2307.0,2948.0,1354.0,,,,-0.084383143621154,-2.51133165775608,-0.215969018861634,,3.3100014796926702,,
,2683.0,718.0,1554.0,586.0,2317.0,2938.0,1363.0,,,,-0.0842743029701594,-2.51123003611484,-0.21579969589032,,2.9019574574574283,,
,2683.0,717.0,1552.0,586.0,2344.0,2937.0,1337.0,,,,-0.0842800185702954,-2.51093853321191,-0.215946208439437,,2.435420633131765,,
,2685.0,717.0,1553.0,586.0,2348.0,2951.0,1343.0,,,,-0.0842251803589789,-2.51096811795574,-0.216032976682026,,1.9272515497151328,,
,2684.0,718.0,1553.0,588.0,2334.0,2952.0,1346.0,,,,-0.0841192131974271,-2.51079211631465,-0.214660047955483,,1.394762723553723,,
,2684.0,720.0,1555.0,589.0,2345.0,2958.0,1351.0,,,,-0.084175689381979,-2.51047762863413,-0.216470934538054,,0.8547647459046416,,
,2685.0,720.0,1555.0,587.0,2330.0,2956.0,1354.0,,,,-0.0841122344936917,-2.51025421864467,-0.215548572227401,,0.3227191599288789,,
,2684.0,719.0,1552.0,586.0,2325.0,2962.0,1357.0,,,,-0.0840059205088511,-2.51041038837947,-0.216124707214609,,-0.18794607180233075,,
,2685.0,719.0,1556.0,587.0,2338.0,2959.0,1350.0,,,,-0.0838752154488019,-2.51012040270852,-0.212504736345818,,-0.666323054293041,,
,2687.0,718.0,1555.0,586.0,2341.0,2963.0,1374.0,,,,-0.0839026133413221,-2.50992522391669,-0.213844665547013,,-1.1042967463753384,,
,2686.0,721.0,1554.0,589.0,2359.0,2972.0,1356.0,,,,-0.0837349320201352,-2.50975867739129,-0.212384769218328,,-1.496605568296767,,
,2686.0,721.0,1552.0,587.0,2365.0,2948.0,1380.0,,,,-0.0838446185732268,-2.5094038269687,-0.212030706008052,,-1.8407053196729024,,
,2686.0,720.0,1557.0,588.0,2356.0,2949.0,1340.0,,,,-0.0836454346962724,-2.50917479809015,-0.211005606094326,,-2.1364630643019877,,
,2687.0,722.0,1556.0,589.0,2331.0,2947.0,1362.0,,,,-0.0834197584905028,-2.50848982764034,-0.21072054993163,,-2.385716459967824,,
,2688.0,722.0,1560.0,588.0,2343.0,2944.0,1345.0,,,,-0.0833749186917889,-2.50839446000585,-0.20934300874152,,-2.5917403290693635,,
,2689.0,722.0,1555.0,589.0,2330.0,2959.0,1335.0,,,,-0.0833377192875439,-2.5081812796503,-0.209651885629338,,-2.7586655412182415,,
,2687.0,720.0,1555.0,588.0,2337.0,2956.0,1337.0,,,,-0.083208929395104,-2.50804330504561,-0.209150037822785,,-2.8908952549735654,,
,2689.0,721.0,1559.0,590.0,2346.0,2961.0,1383.0,,,,-0.0831504466739937,-2.50778380123999,-0.208683345467411,,-2.9925605488279983,,
,2689.0,723.0,1559.0,589.0,2344.0,2973.0,1380.0,,,,-0.0831397575558342,-2.50744189191657,-0.208774767045221,,-3.0670520841062214,,
,2692.0,723.0,1559.0,589.0,2333.0,2946.0,1344.0,,,,-0.0831299201638934,-2.50703526864985,-0.208349235929484,,-3.1166572691147585,,
,2690.0,721.0,1556.0,590.0,2339.0,2975.0,1367.0,,,,-0.0831048111384474,-2.50715710527428,-0.20756880714904,,-3.1423238771973985,,
,2692.0,720.0,1560.0,591.0,2346.0,2983.0,1380.0,,,,-0.083020380326854,-2.50689064706369,-0.207518997180098,,-3.143561649087897,,
,2690.0,722.0,1559.0,592.0,2330.0,2967.0,1373.0,,,,-0.0830072644933198,-2.50650472760564,-0.206935836227921,,-3.118483644924375,,
,2692.0,723.0,1559.0,588.0,2340.0,2958.0,1374.0,,,,-0.0828925296951971,-2.50653622329712,-0.207104697666798,,-3.0639796700869653,,
,2690.0,724.0,1558.0,587.0,2344.0,2946.0,1373.0,,,,-0.0828650994668189,-2.50655766707571,-0.207590469839804,,-2.976005659987306,,
,2691.0,722.0,1559.0,590.0,2336.0,2940.0,1360.0,,,,-0.0827704582580994,-2.50625814782367,-0.206771740014007,,-2.8499660943822374,,
,2691.0,725.0,1562.0,590.0,2327.0,2948.0,1374.0,,,,-0.0827623651694073,-2.50600676406163,-0.206154683044543,,-2.6811618035804017,,
,2693.0,724.0,1560.0,589.0,2321.0,2956.0,1403.0,,,,-0.0826722198952833,-2.50583099919114,-0.205862278577412,,-2.4652731232373246,,
,2693.0,722.0,1559.0,587.0,2319.0,2969.0,1398.0,,,,-0.0825586604681282,-2.5055516759341,-0.206222211066354,,-2.198848092181654,,
,2694.0,722.0,1562.0,591.0,2321.0,2976.0,1360.0,,,,-0.0822730526203903,-2.5055463300698,-0.205502140034853,,-1.879766884552864,,
,2695.0,723.0,1562.0,592.0,2339.0,2962.0,1333.0,,,,-0.0822350507343988,-2.50556814379247,-0.204502859811527,,-1.5076564264031134,,
,2696.0,725.0,1562.0,590.0,2352.0,2953.0,1337.0,,,,-0.0822380222096322,-2.50522142928174,-0.204231155982611,,-1.084232471930401,,
,2698.0,724.0,1563.0,591.0,2348.0,2969.0,1351.0,,,,-0.0820087047312973,-2.50504165136917,-0.203617634383999,,-0.6135495009157871,,
,2693.0,723.0,1563.0,591.0,2355.0,2959.0,1370.0,,,,-0.0820515840582868,-2.50518704693982,-0.202706748849599,,-0.10214125625528248,,
,2699.0,726.0,1562.0,592.0,2331.0,2959.0,1373.0,,,,-0.0819477268678593,-2.50452375806795,-0.2031275837638,,0.44096303958658156,,
,2697.0,728.0,1567.0,592.0,2339.0,2959.0,1367.0,,,,-0.0817158549013482,-2.50445868782503,-0.20310144056921,,1.004358924747184,,
,2698.0,725.0,1565.0,594.0,2346.0,2951.0,1374.0,,,,-0.0817171812195815,-2.50421540806762,-0.203024307483084,,1.5745314142101385,,
,2697.0,724.0,1563.0,589.0,2346.0,2964.0,1390.0,,,,-0.0817105734558217,-2.50403021673985,-0.201852282257439,,2.1362665001032233,,
,2701.0,727.0,1566.0,590.0,2329.0,2953.0,1392.0,,,,-0.0814823436092843,-2.50389021776625,-0.201995666781555,,2.6732043204935354,,
,2701.0,725.0,1566.0,592.0,2348.0,2950.0,1363.0,,,,-0.0817314132601959,-2.50371385516117,-0.20112791472015,,3.16851962089941,,
,2700.0,727.0,1566.0,596.0,2349.0,2947.0,1370.0,,,,-0.0816946609289594,-2.5037807996493,-0.20145923364076,,3.6057040026346376,,
,2699.0,727.0,1565.0,591.0,2345.0,2954.0,1372.0,,,,-0.0815506355835183,-2.50360543012449,-0.202558605875199,,3.9694118648994507,,
,2702.0,728.0,1565.0,593.0,2336.0,2951.0,1375.0,,,,-0.0814410836990181,-2.50357365930715,-0.200902186770872,,4.246319082519499,,
,2701.0,728.0,1564.0,594.0,2339.0,2966.0,1357.0,,,,-0.0813532802858789,-2.50364602323423,-0.201499596180357,,4.425932333405224,,
,2702.0,729.0,1565.0,596.0,2338.0,2973.0,1360.0,,,,-0.0813089370705222,-2.50340174088034,-0.200884928864775,,4.501280227761833,,
,2701.0,726.0,1568.0,592.0,2341.0,2976.0,1361.0,,,,-0.0813322781502632,-2.50341228721852,-0.201006378184788,,4.4694176838032575,,
,2700.0,728.0,1564.0,591.0,2360.0,2978.0,1382.0,,,,-0.0813584734924332,-2.50324045713299,-0.199801846929114,,4.331684302926765,,
,2702.0,726.0,1566.0,592.0,2333.0,2945.0,1355.0,,,,-0.0813569258010707,-2.50295563393999,-0.200859888823516,,4.093676421979198,,
,2703.0,728.0,1567.0,596.0,2345.0,2970.0,1381.0,,,,-0.0812874045930501,-2.50306190159722,-0.20078459405864,,3.764919974509694,,
,2699.0,727.0,1568.0,592.0,2337.0,2970.0,1389.0,,,,-0.0811609942248473,-2.50309223798657,-0.201402248823762,,3.3582641565671607,,
,2695.0,725.0,1565.0,590.0,2325.0,2967.0,1358.0,,,,-0.081107551529015,-2.50293538474681,-0.200775277452998,,2.8890488526880214,,
,2696.0,725.0,1562.0,593.0,2323.0,2929.0,1383.0,,,,-0.0812139973699786,-2.5026895949182,-0.201324791992846,,2.374125330133515,,
,2695.0,726.0,1563.0,590.0,2322.0,2956.0,1365.0,,,,-0.0812139028495511,-2.50320300821284,-0.200558415033337,,1.8308244809633685,,
,2690.0,723.0,1559.0,590.0,2334.0,2963.0,1355.0,,,,-0.0810795374006436,-2.50283468003128,-0.200055849329366,,1.2759677648943695,,
,2687.0,724.0,1560.0,589.0,2317.0,2969.0,1383.0,,,,-0.0811227932839491,-2.50299346805241,-0.199622679901713,,0.7250044037455112,,
,2684.0,720.0,1558.0,587.0,2323.0,2957.0,1409.0,,,,-0.0809914624468333,-2.5025169673349,-0.201036959502285,,0.1913378208967984,,
,2684.0,720.0,1557.0,588.0,2325.0,2955.0,1400.0,,,,-0.0810288882238099,-2.50257484925583,-0.199283199191926,,-0.3141211819786638,,
,2678.0,724.0,1557.0,589.0,2318.0,2959.0,1381.0,,,,-0.080963194006308,-2.5026214203081,-0.200371206738509,,-0.7831636752830916,,
,2679.0,720.0,1553.0,584.0,2311.0,2957.0,1397.0,,,,-0.0810487096319674,-2.50246526770912,-0.199545251416923,,-1.210267830604908,,
,2679.0,717.0,1554.0,586.0,2320.0,2957.0,1400.0,,,,-0.0808724788901947,-2.50219082462069,-0.199813589191192,,-1.5923929887944297,,
,2675.0,719.0,1552.0,585.0,2345.0,2957.0,1379.0,,,,-0.0809545553123878,-2.50247412520125,-0.199113713078049,,-1.9286279024139101,,
,2674.0,719.0,1552.0,585.0,2350.0,2967.0,1355.0,,,,-0.0809283458640874,-2.50235843747594,-0.201202121745717,,-2.21974373663962,,
,2674.0,719.0,1550.0,586.0,2358.0,2960.0,1350.0,,,,-0.0808508270255009,-2.5021621685414,-0.200388419403852,,-2.4677014035282165,,
,2672.0,718.0,1551.0,583.0,2347.0,2971.0,1356.0,,,,-0.0809708782636338,-2.5026772478523,-0.20094310410902,,-2.6751575155558514,,
,2675.0,718.0,1551.0,585.0,2348.0,2971.0,1323.0,,,,-0.0808216905655257,-2.50221871517481,-0.200195626590357,,-2.8450058915404615,,
,2672.0,719.0,1552.0,584.0,2322.0,2967.0,1328.0,,,,-0.0808003275438589,-2.50248244619072,-0.201287772288981,,-2.9799836508232334,,
,2671.0,716.0,1547.0,585.0,2334.0,2971.0,1323.0,,,,-0.0808243713687524,-2.50267898947796,-0.20158374385809,,-3.0823629248998343,,
,2669.0,716.0,1548.0,583.0,2333.0,2950.0,1353.0,,,,-0.0806235449608394,-2.50232764114598,-0.202301059375496,,-3.1537409396541034,,
,2667.0,716.0,1548.0,583.0,2319.0,2944.0,1342.0,,,,-0.0808501224946922,-2.50261594074617,-0.202357470387832,,-3.1949326715385604,,
,2670.0,715.0,1549.0,583.0,2335.0,2962.0,1359.0,,,,-0.0808113766992776,-2.50235266254374,-0.203587804555689,,-3.2059618820779567,,
,2671.0,717.0,1550.0,583.0,2328.0,2961.0,1356.0,,,,-0.0807361218156464,-2.50259663426111,-0.201767216216787,,-3.186138740163628,,
,2667.0,714.0,1545.0,580.0,2344.0,2970.0,1334.0,,,,-0.0808287876593489,-2.50275277314341,-0.202274638897007,,-3.134206100415385,,
,2668.0,714.0,1546.0,580.0,2337.0,2960.0,1366.0,,,,-0.0807996176533215,-2.50327569357392,-0.202714619544597,,-3.0485324376223715,,
,2666.0,717.0,1546.0,582.0,2328.0,2955.0,1336.0,,,,-0.0808733262570437,-2.50332612486203,-0.203907139248567,,-2.9273280897384804,,
,2668.0,714.0,1547.0,583.0,2350.0,2954.0,1349.0,,,,-0.0810666056943768,-2.50332754638735,-0.204099819039043,,-2.768863404771239,,
,2666.0,714.0,1544.0,581.0,2356.0,2964.0,1368.0,,,,-0.0811268796972853,-2.50351953576782,-0.203981723742389,,-2.571672737493414,,
,2663.0,711.0,1543.0,580.0,2336.0,2975.0,1378.0,,,,-0.081111959011121,-2.50347111645464,-0.204168405555508,,-2.3347361856314994,,
,2667.0,716.0,1546.0,582.0,2333.0,2953.0,1397.0,,,,-0.081038577983483,-2.50361884299097,-0.206047882810922,,-2.057639522230607,,
,2666.0,715.0,1547.0,581.0,2328.0,2960.0,1381.0,,,,-0.0813228545015318,-2.50428736047808,-0.206095395186944,,-1.740719297289473,,
,2663.0,715.0,1547.0,581.0,2329.0,2956.0,1372.0,,,,-0.0815695871787806,-2.50457480634369,-0.206703105734561,,-1.3852023503638802,,
,2663.0,712.0,1546.0,578.0,2332.0,2966.0,1378.0,,,,-0.0819374167120266,-2.5053341164493,-0.208676978414101,,-0.9933464249535754,,
2025-07-17 16:58:00,2662.0,713.0,1546.0,580.0,2330.0,2967.0,1393.0,,,2025/07/17 04:58:00 PM,-0.0824484813259448,-2.50587882936393,-0.210001130262435,,-0.5685823604037794,,
,2662.0,714.0,1546.0,578.0,2322.0,2951.0,1387.0,,,,-0.082582413401746,-2.50675639641906,-0.209506812670663,,-0.11565041811458728,,
,2663.0,714.0,1545.0,582.0,2318.0,2956.0,1382.0,,,,-0.0826664261034558,-2.50751793596167,-0.211334189685227,,0.35928446058984004,,
,2661.0,714.0,1543.0,580.0,2320.0,2962.0,1378.0,,,,-0.0829136800941224,-2.50791971146973,-0.212614573392863,,0.8485597759688956,,
,2662.0,714.0,1545.0,582.0,2315.0,2971.0,1358.0,,,,-0.083167606964557,-2.50827745844109,-0.212898318683465,,1.343009622386993,,
,2659.0,713.0,1543.0,581.0,2312.0,2968.0,1357.0,,,,-0.0831946624865158,-2.50884830749832,-0.212662693423099,,1.83205043776478,,
,2661.0,713.0,1546.0,580.0,2324.0,2963.0,1358.0,,,,-0.0832359036647785,-2.50891222469755,-0.212954750810431,,2.30387921773419,,
,2661.0,714.0,1544.0,580.0,2325.0,2974.0,1353.0,,,,-0.0832697237782905,-2.50896040159682,-0.213358879036345,,2.7457978620778163,,
,2657.0,713.0,1540.0,576.0,2328.0,2952.0,1374.0,,,,-0.0833006058387576,-2.50847339018414,-0.211443324585424,,3.1446668464714675,,
,2657.0,710.0,1538.0,579.0,2323.0,2950.0,1397.0,,,,-0.0832112807861099,-2.50893577067155,-0.213097162839923,,3.4874780331216373,,
,2658.0,711.0,1542.0,581.0,2317.0,2957.0,1401.0,,,,-0.0831540663845857,-2.50903632953856,-0.21352679909099,,3.7620208909091257,,
,2660.0,713.0,1542.0,580.0,2311.0,2952.0,1387.0,,,,-0.0830319910170108,-2.50822904937755,-0.212469776426439,,3.957600074579331,,
,2657.0,711.0,1542.0,579.0,2307.0,2963.0,1383.0,,,,-0.0831314627606706,-2.50819808513182,-0.212563904511035,,4.0657473993209425,,
,2657.0,712.0,1541.0,580.0,2322.0,2970.0,1389.0,,,,-0.0831317803115207,-2.50836843815127,-0.212124357792557,,4.080860674204616,,
,2657.0,713.0,1541.0,579.0,2324.0,2961.0,1398.0,,,,-0.0831301049814556,-2.5079507246259,-0.210960477350032,,4.00069886799226,,
,2656.0,713.0,1542.0,580.0,2333.0,2962.0,1395.0,,,,-0.0830374106474272,-2.50809794392689,-0.212367931731505,,3.826670257145676,,
,2654.0,712.0,1542.0,579.0,2331.0,2964.0,1375.0,,,,-0.0831204910207437,-2.50822642279406,-0.211815951351817,,3.563868300223398,,
,2656.0,712.0,1541.0,579.0,2337.0,2945.0,1350.0,,,,-0.0831033647723695,-2.50853942225046,-0.21174349596154,,3.220837238800768,,
,2657.0,710.0,1540.0,579.0,2335.0,2931.0,1341.0,,,,-0.0831079642439004,-2.50823242378283,-0.212390022409847,,2.8090816710557793,,
,2657.0,714.0,1542.0,577.0,2342.0,2951.0,1371.0,,,,-0.0831993920292643,-2.50862205031369,-0.212533384320992,,2.3423657180746633,,
,2657.0,712.0,1540.0,579.0,2344.0,2967.0,1382.0,,,,-0.0834626098938726,-2.50885802368245,-0.21357779181826,,1.835871798663331,,
,2653.0,711.0,1538.0,577.0,2337.0,2964.0,1360.0,,,,-0.0832535775522037,-2.5084774690381,-0.213533888447925,,1.3053021087875356,,
,2656.0,712.0,1541.0,581.0,2328.0,2944.0,1350.0,,,,-0.0833688773925755,-2.50910580524483,-0.214234579885067,,0.7660065524216576,,
,2658.0,714.0,1539.0,579.0,2332.0,2924.0,1357.0,,,,-0.0834226997119255,-2.50897613168819,-0.214614301001789,,0.23221098047026525,,
,2657.0,713.0,1540.0,579.0,2325.0,2932.0,1357.0,,,,-0.0834414474230519,-2.50868637329031,-0.215098334321973,,-0.2835974865289256,,
,2658.0,713.0,1542.0,578.0,2330.0,2962.0,1347.0,,,,-0.0834293868242747,-2.50922913586781,-0.214386108760985,,-0.7710922063467562,,
,2657.0,713.0,1541.0,579.0,2324.0,2962.0,1388.0,,,,-0.0834494082201282,-2.50920509487022,-0.214425109865506,,-1.222322022626439,,
,2657.0,713.0,1541.0,580.0,2319.0,2960.0,1385.0,,,,-0.0834832561024657,-2.50901373833602,-0.213767736889196,,-1.6317266472657237,,
,2658.0,712.0,1541.0,579.0,2335.0,2972.0,1384.0,,,,-0.0835142966332208,-2.50931135729298,-0.214611558520153,,-1.9959774452455428,,
,2655.0,713.0,1544.0,578.0,2350.0,2955.0,1375.0,,,,-0.0834583872774613,-2.50941995784613,-0.21466566853369,,-2.313681889035782,,
,2657.0,713.0,1542.0,578.0,2359.0,2965.0,1366.0,,,,-0.083577223387045,-2.50951147392256,-0.215120039911065,,-2.584997336018938,,
,2660.0,713.0,1542.0,580.0,2379.0,2961.0,1375.0,,,,-0.08343646800641,-2.50975689342768,-0.215998909932205,,-2.811201015085259,,
,2660.0,715.0,1540.0,579.0,2380.0,2927.0,1363.0,,,,-0.0835802599261854,-2.50981200348218,-0.215506342425641,,-2.9942590321418887,,
,2659.0,716.0,1541.0,578.0,2370.0,2932.0,1359.0,,,,-0.083607805818549,-2.50969811695555,-0.215667978297151,,-3.1364296107637344,,
,2660.0,712.0,1540.0,579.0,2348.0,2955.0,1371.0,,,,-0.0837687160402283,-2.51001501380152,-0.216190061421992,,-3.2399266665564217,,
,2658.0,715.0,1543.0,579.0,2346.0,2969.0,1383.0,,,,-0.0838896145111326,-2.51009798657782,-0.21760849005869,,-3.30666055247194,,
,2660.0,718.0,1544.0,579.0,2366.0,2951.0,1366.0,,,,-0.0838452589665866,-2.51052345412059,-0.217171855379139,,-3.3380639892813084,,
,2662.0,716.0,1543.0,581.0,2369.0,2953.0,1355.0,,,,-0.08402804286996,-2.51098739531268,-0.216970815789975,,-3.335003061311362,,
,2659.0,716.0,1543.0,580.0,2349.0,2951.0,1379.0,,,,-0.0841110806129743,-2.51078970031801,-0.217862998571452,,-3.297766104345618,,
,2661.0,716.0,1545.0,580.0,2357.0,2957.0,1376.0,,,,-0.0841429578910595,-2.51102604056663,-0.218528691541874,,-3.226117920371749,,
,2662.0,716.0,1543.0,581.0,2345.0,2953.0,1359.0,,,,-0.084125021359357,-2.51089295695628,-0.219577932462994,,-3.119403583568249,,
,2661.0,716.0,1544.0,581.0,2346.0,2942.0,1358.0,,,,-0.0841630707147797,-2.51125337384246,-0.21863787883571,,-2.976685540701391,,
,2661.0,714.0,1545.0,581.0,2343.0,2944.0,1368.0,,,,-0.0840800692547633,-2.51111624754917,-0.218480144468578,,-2.7968998740135333,,
,2660.0,716.0,1542.0,580.0,2336.0,2967.0,1368.0,,,,-0.0840740257044879,-2.5113137699752,-0.217705450504212,,-2.5790221164790657,,
,2662.0,715.0,1545.0,580.0,2341.0,2947.0,1366.0,,,,-0.0841906261641399,-2.51118485477186,-0.217348038657631,,-2.3222387522901413,,
,2664.0,717.0,1546.0,581.0,2326.0,2961.0,1373.0,,,,-0.0840757406345794,-2.51121360324136,-0.218828062917311,,-2.0261256883246404,,
,2666.0,715.0,1544.0,581.0,2332.0,2955.0,1377.0,,,,-0.0841836099378916,-2.51118099718632,-0.218130284302876,,-1.6908377319499974,,
,2662.0,715.0,1545.0,581.0,2354.0,2951.0,1376.0,,,,-0.0842034057880909,-2.51089008279854,-0.217907140860342,,-1.3173123533300333,,
,2664.0,717.0,1546.0,583.0,2337.0,2957.0,1344.0,,,,-0.0841910973826768,-2.51119130863292,-0.217573497383246,,-0.9074865832829645,,
,2666.0,718.0,1547.0,581.0,2330.0,2944.0,1359.0,,,,-0.0842035911697928,-2.51107576741042,-0.217879077556944,,-0.4645185754116108,,
,2665.0,719.0,1548.0,582.0,2346.0,2939.0,1339.0,,,,-0.0842476463447844,-2.51088681569349,-0.217654514693287,,0.0070031825651370155,,
,2665.0,719.0,1546.0,583.0,2364.0,2949.0,1341.0,,,,-0.0841981068517562,-2.51095137571895,-0.217362293551657,,0.5008876300564853,,
,2665.0,718.0,1549.0,580.0,2347.0,2960.0,1349.0,,,,-0.0839799875095156,-2.51088846370191,-0.218631193365171,,1.009235295974859,,
,2668.0,718.0,1548.0,581.0,2354.0,2968.0,1359.0,,,,-0.0839802264259343,-2.51092790137763,-0.217217288900601,,1.5224292508941257,,
,2667.0,717.0,1550.0,581.0,2343.0,2957.0,1337.0,,,,-0.083973932219029,-2.51086546392248,-0.217108206986382,,2.0292500193783516,,
,2667.0,719.0,1549.0,583.0,2334.0,2943.0,1344.0,,,,-0.083875927407397,-2.51082502861757,-0.218262458161395,,2.5171342456984385,,
,2668.0,719.0,1550.0,582.0,2358.0,2943.0,1357.0,,,,-0.0840628275101353,-2.51076613945677,-0.217714821821587,,2.972585620136316,,
,2668.0,719.0,1550.0,583.0,2379.0,2937.0,1313.0,,,,-0.0840551302217712,-2.51088419084549,-0.218236218500912,,3.3817320062800995,,
,2671.0,720.0,1554.0,586.0,2348.0,2931.0,1345.0,,,,-0.084105568579591,-2.51142182122494,-0.218092059474617,,3.7310059697606075,,
,2670.0,719.0,1552.0,583.0,2342.0,2942.0,1363.0,,,,-0.0841914783250917,-2.51064249146848,-0.217729452503011,,4.007908513540891,,
,2670.0,717.0,1551.0,582.0,2364.0,2938.0,1350.0,,,,-0.0843848465590211,-2.51115486359224,-0.218710900689021,,4.201799646841383,,
,2670.0,720.0,1551.0,583.0,2359.0,2945.0,1348.0,,,,-0.0843633330390324,-2.51127606735543,-0.217028570979773,,4.30464675559507,,
,2672.0,722.0,1554.0,585.0,2364.0,2943.0,1344.0,,,,-0.0842957337528378,-2.51144690329548,-0.218247306042442,,4.311655293134206,,
,2672.0,722.0,1555.0,584.0,2355.0,2954.0,1343.0,,,,-0.0841946790202057,-2.51113383307964,-0.218756681086908,,4.221708699579093,,
,2673.0,722.0,1553.0,585.0,2356.0,2942.0,1361.0,,,,-0.0843832159633494,-2.51134851417916,-0.219277093355654,,4.037557488494475,,
,2673.0,721.0,1553.0,583.0,2334.0,2948.0,1376.0,,,,-0.0843707964622297,-2.51118066012551,-0.219701076237403,,3.7657213180943105,,
,2677.0,724.0,1554.0,585.0,2346.0,2962.0,1349.0,,,,-0.0843649790441189,-2.51136226819368,-0.219747870156136,,3.416100486103279,,
,2674.0,722.0,1555.0,585.0,2355.0,2958.0,1354.0,,,,-0.0845511252252281,-2.51160176282502,-0.218741704501132,,3.00132970807091,,
,2676.0,722.0,1554.0,585.0,2359.0,2945.0,1343.0,,,,-0.0846632140795097,-2.51193311250941,-0.22091232886906,,2.535940075551658,,
,2673.0,720.0,1555.0,584.0,2344.0,2950.0,1358.0,,,,-0.0846295334066051,-2.51213041923291,-0.220603252448478,,2.0354176877526076,,
,2676.0,722.0,1557.0,584.0,2346.0,2951.0,1366.0,,,,-0.0847067754491705,-2.51229850073436,-0.221145616996295,,1.5152555149541724,,
,2677.0,724.0,1557.0,584.0,2343.0,2967.0,1349.0,,,,-0.0845552890711371,-2.51245202360027,-0.220935154240765,,0.9900886306842768,,
,2678.0,723.0,1557.0,586.0,2355.0,2960.0,1335.0,,,,-0.0844957448764876,-2.51261036745142,-0.222268685712298,,0.47298528744720375,,
,2676.0,725.0,1557.0,585.0,2374.0,2966.0,1323.0,,,,-0.0845092287287708,-2.51269002788632,-0.222812434945687,,-0.02505796372825289,,
,2677.0,723.0,1557.0,585.0,2369.0,2956.0,1328.0,,,,-0.084616457339742,-2.51264495184068,-0.222339778379499,,-0.49539527114124804,,
,2680.0,725.0,1558.0,586.0,2386.0,2957.0,1344.0,,,,-0.0846428200902195,-2.5130224635206,-0.223414491586469,,-0.9317875922643258,,
,2680.0,724.0,1560.0,587.0,2391.0,2945.0,1344.0,,,,-0.0846940703708799,-2.51284602724933,-0.223059458711345,,-1.3302597955995383,,
,2680.0,722.0,1558.0,585.0,2389.0,2953.0,1327.0,,,,-0.0847490356001332,-2.51314216160165,-0.222321846171542,,-1.6887982959453258,,
,2680.0,723.0,1558.0,586.0,2372.0,2958.0,1333.0,,,,-0.0848364535995917,-2.51300368438172,-0.224154233685727,,-2.006938779427851,,
,2683.0,726.0,1561.0,587.0,2378.0,2960.0,1357.0,,,,-0.0849771240280236,-2.51305303694074,-0.222694925243188,,-2.2852979920122265,,
,2684.0,726.0,1562.0,589.0,2358.0,2974.0,1357.0,,,,-0.0848962355811335,-2.5132982505454,-0.22340259752426,,-2.5251026425488536,,
,2683.0,725.0,1559.0,586.0,2358.0,2973.0,1343.0,,,,-0.0848228117512367,-2.51332615568772,-0.225007282161516,,-2.727762626314959,,
,2682.0,725.0,1560.0,585.0,2368.0,2959.0,1354.0,,,,-0.0849954650220269,-2.51335694852188,-0.224488216039671,,-2.8945256643339174,,
,2683.0,723.0,1561.0,588.0,2350.0,2953.0,1323.0,,,,-0.0850820459496912,-2.51314661826116,-0.225175221579884,,-3.0262370830319156,,
,2682.0,724.0,1559.0,587.0,2350.0,2954.0,1339.0,,,,-0.0850879928050259,-2.51338251473913,-0.224230984604142,,-3.1232133073096615,,
,2681.0,723.0,1561.0,586.0,2346.0,2956.0,1328.0,,,,-0.0850982565431711,-2.51320565339242,-0.224610035525102,,-3.1852227148135044,,
,2678.0,723.0,1558.0,585.0,2336.0,2934.0,1336.0,,,,-0.0850318190240029,-2.51312318220685,-0.224995296155808,,-3.211555050872938,,
,2676.0,722.0,1556.0,584.0,2332.0,2949.0,1351.0,,,,-0.0849071265319558,-2.51319782517997,-0.226103513246877,,-3.20115244604582,,
,2674.0,720.0,1554.0,584.0,2336.0,2925.0,1371.0,,,,-0.0849748444466695,-2.51326299096456,-0.225387474210171,,-3.152772033107929,,
,2674.0,721.0,1554.0,582.0,2341.0,2944.0,1378.0,,,,-0.0851203490520679,-2.51365902548291,-0.225599593841826,,-3.0651521284068375,,
,2670.0,720.0,1553.0,581.0,2342.0,2929.0,1359.0,,,,-0.0851147978746268,-2.51340087919495,-0.226276332212529,,-2.937160301065691,,
,2666.0,719.0,1552.0,581.0,2350.0,2928.0,1348.0,,,,-0.0851169277836411,-2.51411091144113,-0.226744374773317,,-2.7679113530737323,,
,2663.0,716.0,1550.0,576.0,2341.0,2951.0,1335.0,,,,-0.085049938050298,-2.51372828697437,-0.22530730667717,,-2.556854573511864,,
,2662.0,717.0,1552.0,580.0,2350.0,2965.0,1359.0,,,,-0.0848562606420794,-2.51354728149889,-0.226104747533439,,-2.3038402438310843,,
,2660.0,718.0,1550.0,581.0,2360.0,2964.0,1342.0,,,,-0.0850224488120234,-2.51387072275566,-0.226064851722043,,-2.009182776774709,,
,2659.0,714.0,1546.0,578.0,2349.0,2957.0,1373.0,,,,-0.0849639187188882,-2.51428243733808,-0.227191153365556,,-1.6737403538544138,,
,2658.0,716.0,1548.0,576.0,2368.0,2968.0,1344.0,,,,-0.0850573030257137,-2.51389523097311,-0.22648279024466,,-1.299028094266542,,
,2658.0,714.0,1546.0,578.0,2366.0,2964.0,1310.0,,,,-0.0850240490696042,-2.51406579609413,-0.226553003966092,,-0.8873744274364604,,
,2656.0,712.0,1546.0,577.0,2369.0,2958.0,1315.0,,,,-0.0850504380070065,-2.51426893861834,-0.226611915633674,,-0.4421198404315936,,
,2652.0,712.0,1544.0,576.0,2386.0,2949.0,1336.0,,,,-0.0850987717071163,-2.51431191239233,-0.226583631092803,,0.032154942358644634,,
,2655.0,712.0,1544.0,575.0,2397.0,2947.0,1309.0,,,,-0.0850706517947903,-2.5140545441683,-0.227469252721138,,0.5293964865020374,,
,2653.0,711.0,1544.0,577.0,2384.0,2964.0,1300.0,,,,-0.0852361095498465,-2.51417647549468,-0.227469099292342,,1.0418776920036477,,
,2655.0,713.0,1547.0,579.0,2361.0,2959.0,1293.0,,,,-0.0852258492935052,-2.51391638596738,-0.226366384639792,,1.5600715171387467,,
,2652.0,713.0,1545.0,576.0,2358.0,2954.0,1285.0,,,,-0.0851733648185402,-2.51392847116883,-0.227140879284221,,2.0726446802152885,,
,2651.0,709.0,1541.0,575.0,2366.0,2972.0,1300.0,,,,-0.085262382151309,-2.5142352028129,-0.227197607457693,,2.5666120335288403,,
,2652.0,709.0,1542.0,574.0,2364.0,2971.0,1323.0,,,,-0.0852940122363509,-2.5142498153613,-0.227257906302247,,3.0276804436468816,,
,2651.0,711.0,1544.0,576.0,2378.0,2925.0,1316.0,,,,-0.085269860961105,-2.51429167093424,-0.227365520492614,,3.4407925966768134,,
,2650.0,710.0,1542.0,575.0,2366.0,2921.0,1308.0,,,,-0.0852198280084693,-2.51454584078796,-0.227188441061529,,3.7908577613126306,,
,2648.0,707.0,1539.0,574.0,2349.0,2939.0,1353.0,,,,-0.0853253926084971,-2.51481833010728,-0.228865646087588,,4.063630398612328,,
,2648.0,708.0,1539.0,573.0,2362.0,2955.0,1358.0,,,,-0.0852508101021688,-2.51477852679864,-0.227262054144585,,4.246671608492829,,
,2649.0,712.0,1542.0,574.0,2353.0,2941.0,1363.0,,,,-0.0853582404669736,-2.51454841184133,-0.227567586770632,,4.330306670621739,,
,2651.0,710.0,1542.0,576.0,2346.0,2939.0,1373.0,,,,-0.0852955638857226,-2.5148091124025,-0.228158138796824,,4.30847874065649,,
,2650.0,711.0,1542.0,573.0,2356.0,2935.0,1345.0,,,,-0.0854651123872096,-2.51528650016256,-0.230242372423529,,4.17939789631796,,
,2647.0,708.0,1539.0,572.0,2373.0,2922.0,1338.0,,,,-0.0857820352486285,-2.51597385973766,-0.229111802728438,,3.9458983481276726,,
,2648.0,711.0,1541.0,574.0,2356.0,2949.0,1362.0,,,,-0.0859492080241846,-2.51637443876931,-0.230890578929252,,3.6154444946426825,,
,2649.0,712.0,1540.0,575.0,2357.0,2968.0,1340.0,,,,-0.0860660743639242,-2.51697261607309,-0.232057007422077,,3.199765537867156,,
,2646.0,709.0,1539.0,574.0,2356.0,2961.0,1328.0,,,,-0.0862733389345705,-2.51745946909516,-0.232463086184636,,2.7141427634399142,,
,2646.0,708.0,1539.0,571.0,2360.0,2943.0,1350.0,,,,-0.0864146380783153,-2.51792467337655,-0.23303345939059,,2.1764158438699783,,
,2647.0,708.0,1539.0,574.0,2349.0,2966.0,1356.0,,,,-0.0865815046933554,-2.51852519736667,-0.233151449261225,,1.605807445397024,,
,2645.0,710.0,1540.0,572.0,2360.0,2967.0,1363.0,,,,-0.086700861222605,-2.51838969138914,-0.233393979414686,,1.0216839576590118,,
,2645.0,706.0,1541.0,575.0,2358.0,2967.0,1360.0,,,,-0.0868785803573344,-2.51868670135682,-0.233263908109469,,0.4423723105382905,,
,2644.0,705.0,1538.0,571.0,2339.0,2947.0,1341.0,,,,-0.0869873327862857,-2.51868850044362,-0.232670716797833,,-0.11586033268389243,,
,2645.0,708.0,1537.0,572.0,2326.0,2960.0,1352.0,,,,-0.0869862736466682,-2.51875968363885,-0.233583469765813,,-0.6395820907555686,,
,2643.0,708.0,1539.0,573.0,2316.0,2958.0,1327.0,,,,-0.0868248650044284,-2.51868496737016,-0.233525601423914,,-1.1186767430487716,,
,2645.0,706.0,1537.0,573.0,2337.0,2956.0,1311.0,,,,-0.0868613848180199,-2.51850819808274,-0.232847746982078,,-1.5465119928953257,,
,2641.0,706.0,1539.0,571.0,2344.0,2962.0,1325.0,,,,-0.0869170832196539,-2.51821342391606,-0.231882482116721,,-1.9198099721256443,,
,2641.0,705.0,1537.0,570.0,2339.0,2971.0,1358.0,,,,-0.0865844533622331,-2.51817129769527,-0.232230478087036,,-2.2382609474139428,,
,2641.0,706.0,1535.0,572.0,2352.0,2953.0,1336.0,,,,-0.0866050459070903,-2.51767247843868,-0.231418826428518,,-2.5039411453682052,,
2025-07-17 16:58:01,2640.0,705.0,1534.0,572.0,2346.0,2960.0,1347.0,,,2025/07/17 04:58:01 PM,-0.0864792194814417,-2.51741961484945,-0.231468173358518,,-2.720607684888455,,
,2639.0,704.0,1535.0,568.0,2357.0,2969.0,1339.0,,,,-0.0863769549984174,-2.51722866075103,-0.230528870966469,,-2.8929474608167705,,
,2639.0,703.0,1535.0,569.0,2346.0,2977.0,1368.0,,,,-0.0862592815588031,-2.51750574951853,-0.229775468739412,,-3.0258531515792093,,
,2637.0,703.0,1534.0,569.0,2368.0,2962.0,1361.0,,,,-0.0863276560089863,-2.51684995776424,-0.231569846860981,,-3.1237897520374367,,
,2639.0,705.0,1538.0,570.0,2369.0,2949.0,1345.0,,,,-0.0863965469235214,-2.51698341138998,-0.230173507005882,,-3.1903008375558892,,
,2639.0,703.0,1535.0,569.0,2365.0,2950.0,1347.0,,,,-0.0864393849052458,-2.51707394067177,-0.230498293356673,,-3.227686720378136,,
,2637.0,704.0,1535.0,569.0,2348.0,2956.0,1332.0,,,,-0.0864000428535225,-2.51741576740644,-0.231489381771865,,-3.2368681451669254,,
,2637.0,703.0,1533.0,569.0,2363.0,2957.0,1364.0,,,,-0.0864550238486931,-2.5174745969407,-0.231671974256432,,-3.2174304739958597,,
,2635.0,702.0,1533.0,569.0,2360.0,2955.0,1327.0,,,,-0.086396824375073,-2.51765138326715,-0.231472548273642,,-3.167825828273028,,
,2639.0,703.0,1534.0,570.0,2352.0,2936.0,1316.0,,,,-0.0864399775811587,-2.51797332126349,-0.230142447458962,,-3.085696099520999,,
,2639.0,705.0,1533.0,570.0,2351.0,2943.0,1341.0,,,,-0.0863888600273413,-2.5175793448572,-0.231902250752437,,-2.9682701035092887,,
,2639.0,701.0,1534.0,569.0,2354.0,2961.0,1316.0,,,,-0.0864219146293591,-2.51774312905188,-0.230131354435169,,-2.8127851530380226,,
,2638.0,702.0,1534.0,570.0,2360.0,2959.0,1330.0,,,,-0.086297220457288,-2.51775332554391,-0.230470764635556,,-2.6168875716184936,,
,2639.0,703.0,1535.0,570.0,2350.0,2967.0,1341.0,,,,-0.0862102599356546,-2.5172997685141,-0.230910249973489,,-2.37897715889258,,
,2642.0,704.0,1534.0,569.0,2362.0,2952.0,1339.0,,,,-0.0862337594135709,-2.51718184306628,-0.229174896764389,,-2.098474928454625,,
,2639.0,699.0,1533.0,567.0,2364.0,2960.0,1316.0,,,,-0.0863262561520429,-2.517409402508,-0.230390888858465,,-1.7760084161693923,,
,2639.0,701.0,1535.0,569.0,2367.0,2966.0,1368.0,,,,-0.0861882056126358,-2.51697271182504,-0.230025582716147,,-1.4135214309231965,,
,2639.0,704.0,1533.0,569.0,2362.0,2955.0,1351.0,,,,-0.086138665301641,-2.51703511517638,-0.230092173024481,,-1.0143230494269184,,
,2639.0,703.0,1533.0,571.0,2352.0,2949.0,1333.0,,,,-0.0861003110414228,-2.51724859559516,-0.231076893686394,,-0.5830930298148357,,
,2639.0,701.0,1534.0,565.0,2367.0,2951.0,1331.0,,,,-0.0861843060431042,-2.51732314719801,-0.229592376776339,,-0.12585810710022735,,
,2639.0,701.0,1533.0,568.0,2350.0,2952.0,1333.0,,,,-0.0861573529649662,-2.51686691050295,-0.229857767139486,,0.3500526933536938,,
,2638.0,701.0,1536.0,569.0,2342.0,2932.0,1339.0,,,,-0.0861423508494628,-2.51694204528799,-0.230034998935882,,0.836073651028024,,
,2640.0,703.0,1534.0,570.0,2346.0,2949.0,1354.0,,,,-0.0862654542657441,-2.51682588698413,-0.230758604597742,,1.3224967622449837,,
,2640.0,704.0,1538.0,571.0,2340.0,2956.0,1340.0,,,,-0.0863262448725182,-2.51712279290653,-0.230066012357005,,1.7986092237456983,,
,2640.0,702.0,1534.0,567.0,2348.0,2962.0,1344.0,,,,-0.0861034759818267,-2.51670523585202,-0.229783888130355,,2.2528917039648855,,
,2642.0,703.0,1535.0,569.0,2359.0,2940.0,1347.0,,,,-0.0860988285011586,-2.51646488597468,-0.229212355515111,,2.6732947591052225,,
,2643.0,705.0,1537.0,570.0,2351.0,2951.0,1323.0,,,,-0.0860211626918789,-2.51649332284417,-0.229950060887126,,3.0476059304972836,,
,2641.0,705.0,1535.0,568.0,2355.0,2948.0,1328.0,,,,-0.0860861367480817,-2.51630205143541,-0.229811916590968,,3.3639104756987073,,
,2642.0,700.0,1536.0,569.0,2358.0,2948.0,1364.0,,,,-0.0861071248443542,-2.51649070831632,-0.227547221996652,,3.6111347541046466,,
,2644.0,703.0,1534.0,568.0,2347.0,2960.0,1351.0,,,,-0.0861702876563121,-2.51630294746111,-0.228322342687816,,3.7796446861493567,,
,2642.0,703.0,1536.0,569.0,2340.0,2946.0,1357.0,,,,-0.0862778617738041,-2.51598772669879,-0.2284851815081,,3.8618553883151066,,
,2643.0,705.0,1538.0,572.0,2356.0,2939.0,1385.0,,,,-0.0860496251063041,-2.51588389742529,-0.228457183058399,,3.8527955286885844,,
,2644.0,702.0,1534.0,570.0,2355.0,2934.0,1350.0,,,,-0.0860623532611021,-2.51612655839593,-0.227426893468021,,3.7505642210875894,,
,2641.0,702.0,1533.0,567.0,2341.0,2957.0,1360.0,,,,-0.0859198036961396,-2.51595636135163,-0.227139924926191,,3.5566215046155665,,
,2644.0,701.0,1535.0,569.0,2350.0,2948.0,1361.0,,,,-0.0859838776560819,-2.51548893767778,-0.226078847547071,,3.275866496464224,,
,2647.0,702.0,1537.0,572.0,2338.0,2959.0,1354.0,,,,-0.0858484791916554,-2.51561461274497,-0.226561424284446,,2.9164792579283856,,
,2645.0,703.0,1535.0,570.0,2347.0,2962.0,1341.0,,,,-0.0857634986411416,-2.51531751155709,-0.22525545769888,,2.4895300913799807,,
,2644.0,703.0,1536.0,570.0,2362.0,2959.0,1335.0,,,,-0.0857925799155944,-2.51501140373761,-0.224516315821503,,2.008388130314161,,
,2643.0,701.0,1537.0,568.0,2369.0,2946.0,1363.0,,,,-0.0856680835906034,-2.51494693388608,-0.225392894534197,,1.4879839242776742,,
,2647.0,704.0,1534.0,570.0,2369.0,2963.0,1356.0,,,,-0.085730067306062,-2.51492537818403,-0.224354071776466,,0.9439942540955679,,
,2645.0,704.0,1537.0,572.0,2356.0,2964.0,1346.0,,,,-0.0855470215414289,-2.5146630408101,-0.224620938765501,,0.39202075653754936,,
,2646.0,705.0,1533.0,570.0,2357.0,2963.0,1343.0,,,,-0.0855024398341211,-2.51463180885198,-0.223579464582655,,-0.15317118791535242,,
,2645.0,703.0,1534.0,568.0,2353.0,2956.0,1357.0,,,,-0.0854242145220506,-2.51452970741311,-0.222409434553942,,-0.6782977333225049,,
,2647.0,704.0,1538.0,573.0,2341.0,2946.0,1377.0,,,,-0.085427078493804,-2.51418807704636,-0.222571632296536,,-1.1720447565351682,,
,2648.0,704.0,1538.0,571.0,2324.0,2947.0,1352.0,,,,-0.0852093665727357,-2.51402710813603,-0.222399647410921,,-1.6253739736270423,,
,2648.0,702.0,1537.0,570.0,2342.0,2938.0,1340.0,,,,-0.0852779717977109,-2.51373385829097,-0.223014889076567,,-2.031639236080491,,
,2648.0,704.0,1537.0,569.0,2347.0,2956.0,1334.0,,,,-0.0851373657620108,-2.51336455136118,-0.222131867342434,,-2.3865222734206597,,
,2648.0,702.0,1536.0,570.0,2333.0,2944.0,1352.0,,,,-0.0851176541005174,-2.51348054772394,-0.221603251182133,,-2.687812368395808,,
,2649.0,705.0,1539.0,571.0,2350.0,2956.0,1365.0,,,,-0.0850104694159479,-2.51313249667471,-0.222286440811254,,-2.9350662693145546,,
,2650.0,705.0,1539.0,570.0,2348.0,2961.0,1380.0,,,,-0.0850137924146584,-2.51288311263033,-0.221094515816014,,-3.129191947202612,,
,2650.0,706.0,1538.0,571.0,2356.0,2947.0,1382.0,,,,-0.0849975800359859,-2.51298366584015,-0.220014380977885,,-3.2720021934568218,,
,2651.0,704.0,1538.0,572.0,2347.0,2948.0,1369.0,,,,-0.0849158573161478,-2.51266443204628,-0.220773864513136,,-3.3657817508841137,,
,2655.0,706.0,1540.0,572.0,2329.0,2952.0,1358.0,,,,-0.0850749793196175,-2.51268061224171,-0.220304421222828,,-3.412905345315873,,
,2653.0,705.0,1541.0,572.0,2327.0,2951.0,1341.0,,,,-0.0849116810211776,-2.51268444092357,-0.219384430624213,,-3.4155346319648165,,
,2652.0,706.0,1543.0,572.0,2326.0,2954.0,1334.0,,,,-0.0846414414817489,-2.51215722095145,-0.219034967628698,,-3.3754109453342007,,
,2651.0,704.0,1539.0,568.0,2337.0,2965.0,1343.0,,,,-0.0846531316736137,-2.51206510805566,-0.219486195262729,,-3.293749271113611,,
,2655.0,706.0,1541.0,576.0,2330.0,2971.0,1338.0,,,,-0.0847415714324382,-2.51199663484615,-0.219335159885711,,-3.171228510974256,,
,2655.0,706.0,1542.0,574.0,2349.0,2970.0,1374.0,,,,-0.0847047595505,-2.51188811658372,-0.218310101613308,,-3.00806520108685,,
,2655.0,707.0,1541.0,575.0,2353.0,2964.0,1383.0,,,,-0.0846553969609581,-2.51190602686452,-0.217636297436386,,-2.804153251276667,,
,2655.0,705.0,1539.0,571.0,2349.0,2942.0,1353.0,,,,-0.0846336070562867,-2.5113935657702,-0.218341175629747,,-2.5592511258616675,,
,2656.0,706.0,1541.0,573.0,2345.0,2942.0,1355.0,,,,-0.0844423189153275,-2.51153462991307,-0.21773623363884,,-2.2731994716738244,,
,2657.0,707.0,1544.0,574.0,2350.0,2947.0,1349.0,,,,-0.0842110880250931,-2.51153190794082,-0.217418438681678,,-1.9461552500370327,,
,2660.0,707.0,1544.0,575.0,2355.0,2965.0,1352.0,,,,-0.0843112857041181,-2.51149445975298,-0.217262681637263,,-1.5788316369416227,,
,2658.0,706.0,1543.0,572.0,2372.0,2962.0,1353.0,,,,-0.0842995486645946,-2.51103566358959,-0.216840746947958,,-1.1727352443487589,,
,2656.0,707.0,1543.0,571.0,2369.0,2969.0,1356.0,,,,-0.0842584315095553,-2.51091300132323,-0.217922384675615,,-0.7303928257459639,,
,2660.0,706.0,1546.0,575.0,2362.0,2966.0,1361.0,,,,-0.0842445251062535,-2.51108760069538,-0.216108364165129,,-0.25555828889006316,,
,2659.0,705.0,1545.0,573.0,2352.0,2966.0,1357.0,,,,-0.0841591554208823,-2.51056013581809,-0.216536351645025,,0.24661206140590106,,
,2657.0,705.0,1543.0,573.0,2346.0,2952.0,1354.0,,,,-0.0840546846886706,-2.51058047289322,-0.21599147398853,,0.7694316643563891,,
,2655.0,703.0,1542.0,571.0,2338.0,2965.0,1344.0,,,,-0.0839813988296076,-2.51054352156652,-0.215637200542546,,1.3046218979731816,,
,2653.0,705.0,1544.0,574.0,2346.0,2957.0,1344.0,,,,-0.0838895799056878,-2.51001626296639,-0.214596474499378,,1.8423365025305527,,
,2652.0,705.0,1541.0,574.0,2343.0,2949.0,1372.0,,,,-0.0838620357387718,-2.50976538083803,-0.214607214045843,,2.371291437914488,,
,2649.0,703.0,1538.0,570.0,2327.0,2950.0,1365.0,,,,-0.0838742660354233,-2.50973562554341,-0.214867292275852,,2.879015223240177,,
,2647.0,703.0,1536.0,569.0,2320.0,2954.0,1373.0,,,,-0.0837139820291528,-2.50981586528321,-0.215105289287011,,3.3522270754847905,,
,2645.0,702.0,1535.0,569.0,2322.0,2950.0,1382.0,,,,-0.0836324084106383,-2.50960080778626,-0.213871324051909,,3.777338984577952,,
,2641.0,701.0,1533.0,569.0,2332.0,2966.0,1370.0,,,,-0.083576101223331,-2.50966425996232,-0.213883174551848,,4.141064081128232,,
,2639.0,699.0,1532.0,566.0,2340.0,2965.0,1354.0,,,,-0.0834206913490816,-2.50945754292095,-0.212521110058638,,4.431098893231728,,
,2634.0,698.0,1531.0,565.0,2346.0,2942.0,1394.0,,,,-0.0835453191577172,-2.50941604411699,-0.212960709834965,,4.636833548648706,,
,2634.0,695.0,1527.0,564.0,2335.0,2960.0,1388.0,,,,-0.0834005860824095,-2.50909399468932,-0.213856110401853,,4.750033932062729,,
,2632.0,695.0,1525.0,564.0,2330.0,2950.0,1375.0,,,,-0.08334637757841,-2.50887668595853,-0.213407351050175,,4.765434992326693,,
,2631.0,695.0,1526.0,562.0,2342.0,2939.0,1343.0,,,,-0.0833747680451666,-2.50876041749659,-0.211129547059102,,4.681185770447482,,
,2628.0,692.0,1527.0,563.0,2346.0,2944.0,1356.0,,,,-0.0833901551205595,-2.5084139560533,-0.212053057147894,,4.499094807403129,,
,2627.0,694.0,1526.0,562.0,2358.0,2939.0,1353.0,,,,-0.0832940654491345,-2.50839007290486,-0.211625800248779,,4.224639759063747,,
,2623.0,689.0,1524.0,562.0,2345.0,2957.0,1334.0,,,,-0.0832098859703288,-2.50814726044675,-0.211958668727239,,3.8667269328153333,,
,2624.0,690.0,1523.0,561.0,2338.0,2953.0,1350.0,,,,-0.0832418251143627,-2.50827363947893,-0.211860060535461,,3.437212902062957,,
,2625.0,688.0,1523.0,561.0,2345.0,2966.0,1355.0,,,,-0.0830772973384473,-2.50805571312989,-0.211585622736891,,2.9502271151844544,,
,2624.0,688.0,1520.0,560.0,2342.0,2962.0,1339.0,,,,-0.0829093944696585,-2.50780152808039,-0.211637847540979,,2.421356399843768,,
,2624.0,686.0,1520.0,560.0,2331.0,2959.0,1355.0,,,,-0.0830049529284864,-2.50775796138651,-0.211616420807846,,1.866765425924202,,
,2621.0,688.0,1521.0,560.0,2348.0,2962.0,1356.0,,,,-0.0828058555146094,-2.50762156407129,-0.209208889411539,,1.3023298283138198,,
,2621.0,688.0,1520.0,560.0,2348.0,2953.0,1373.0,,,,-0.0828367101832967,-2.50744776868796,-0.21039235400425,,0.7428515350616872,,
,2621.0,687.0,1519.0,558.0,2340.0,2958.0,1360.0,,,,-0.0827815405318653,-2.50742092492216,-0.210093193321624,,0.2014113132595063,,
,2619.0,686.0,1518.0,556.0,2327.0,2936.0,1351.0,,,,-0.0827665639828893,-2.50751627689015,-0.209777261939414,,-0.31110518174526347,,
,2620.0,689.0,1519.0,561.0,2335.0,2954.0,1334.0,,,,-0.0827133318811493,-2.50734597159347,-0.209900374368139,,-0.7862912712795599,,
,2618.0,688.0,1519.0,559.0,2322.0,2972.0,1371.0,,,,-0.0828063401775645,-2.50708170253107,-0.209508555869596,,-1.2183143819535347,,
,2616.0,686.0,1519.0,558.0,2334.0,2972.0,1379.0,,,,-0.0827626422295554,-2.50662596526018,-0.209353220630532,,-1.603838002509448,,
,2616.0,688.0,1517.0,557.0,2336.0,2952.0,1376.0,,,,-0.082668956453986,-2.5064669403064,-0.208710132658063,,-1.9417956640707985,,
,2617.0,685.0,1516.0,557.0,2333.0,2956.0,1358.0,,,,-0.0826443726122107,-2.50647099544813,-0.209541538902366,,-2.2330475621211106,,
,2618.0,686.0,1518.0,557.0,2321.0,2935.0,1375.0,,,,-0.0825672562885079,-2.50632527872223,-0.209146293515948,,-2.4799529385352503,,
,2614.0,684.0,1519.0,557.0,2319.0,2938.0,1360.0,,,,-0.0825452405192441,-2.50620518778114,-0.209291811299111,,-2.6858921800445645,,
,2615.0,685.0,1515.0,558.0,2324.0,2935.0,1392.0,,,,-0.0825323713937198,-2.50599705228093,-0.208671624492215,,-2.854772248268524,,
,2614.0,685.0,1517.0,558.0,2346.0,2956.0,1379.0,,,,-0.0824820527189656,-2.50615576705899,-0.207013876069343,,-2.990547380543785,,
,2614.0,684.0,1517.0,557.0,2342.0,2954.0,1357.0,,,,-0.082579433826943,-2.5064091973695,-0.208136483242789,,-3.096783847717513,,
,2613.0,685.0,1513.0,556.0,2333.0,2955.0,1357.0,,,,-0.0825571444746411,-2.50641541880261,-0.209225598284632,,-3.176293122668614,,
,2614.0,684.0,1516.0,556.0,2328.0,2955.0,1328.0,,,,-0.0827787487945685,-2.50688516340269,-0.21008815829903,,-3.230852491851025,,
,2614.0,682.0,1512.0,556.0,2332.0,2964.0,1350.0,,,,-0.0829259715599236,-2.50738737728679,-0.210594201282787,,-3.2610262924096336,,
,2613.0,683.0,1516.0,558.0,2332.0,2969.0,1368.0,,,,-0.0830660381871933,-2.50764597639623,-0.211533955286554,,-3.2660948827001883,,
,2611.0,685.0,1514.0,560.0,2322.0,2973.0,1394.0,,,,-0.0833845107094779,-2.50834905490647,-0.211686881025998,,-3.2440924964402593,,
,2612.0,685.0,1512.0,556.0,2324.0,2974.0,1400.0,,,,-0.0833839233856728,-2.5084577544058,-0.211364856480898,,-3.191949701889823,,
,2608.0,681.0,1511.0,554.0,2345.0,2954.0,1372.0,,,,-0.0834512736578271,-2.50882030315995,-0.211799952092473,,-3.1057316802664077,,
,2609.0,681.0,1513.0,554.0,2344.0,2967.0,1351.0,,,,-0.0835708554514422,-2.50873599784984,-0.211548407076163,,-2.9809602011924925,,
,2612.0,682.0,1513.0,556.0,2327.0,2965.0,1369.0,,,,-0.0836155918855671,-2.50895389135777,-0.211843899874492,,-2.81300497786614,,
,2609.0,684.0,1512.0,554.0,2322.0,2950.0,1373.0,,,,-0.0837687087297267,-2.50918373224419,-0.211532237688683,,-2.597528554398765,,
,2608.0,684.0,1512.0,554.0,2317.0,2931.0,1375.0,,,,-0.0837671257544326,-2.50925800221192,-0.211323325569838,,-2.3309670581616095,,
,2605.0,680.0,1510.0,552.0,2328.0,2967.0,1399.0,,,,-0.0837820651668834,-2.50910804239136,-0.211040585564254,,-2.0110260403393188,,
,2608.0,681.0,1510.0,554.0,2348.0,2948.0,1373.0,,,,-0.0836027365561484,-2.50895583681149,-0.209522173146631,,-1.6371659518177026,,
,2608.0,683.0,1511.0,553.0,2337.0,2957.0,1366.0,,,,-0.083327414294056,-2.50847279195765,-0.210172067642638,,-1.211046346085409,,
,2604.0,680.0,1510.0,555.0,2319.0,2947.0,1401.0,,,,-0.0832248349874293,-2.50828687661102,-0.209564233743574,,-0.7368930396018833,,
,2604.0,680.0,1508.0,553.0,2337.0,2960.0,1382.0,,,,-0.0831158868059842,-2.50771899761106,-0.208156284240952,,-0.22174953312964205,,
,2604.0,681.0,1511.0,553.0,2325.0,2971.0,1377.0,,,,-0.0830026012437803,-2.50752955956768,-0.208595517487412,,0.32442582832928496,,
,2609.0,681.0,1512.0,555.0,2339.0,2936.0,1376.0,,,,-0.0829310654366644,-2.50701430649255,-0.208182719940411,,0.8888511852763135,,
,2606.0,679.0,1509.0,554.0,2334.0,2923.0,1381.0,,,,-0.0828538565590795,-2.50665660754729,-0.207267786574338,,1.4562261413843993,,
,2606.0,681.0,1507.0,552.0,2333.0,2933.0,1376.0,,,,-0.0828291172103308,-2.50666186792733,-0.207645200091682,,2.0092616283002096,,
,2607.0,679.0,1507.0,555.0,2316.0,2966.0,1384.0,,,,-0.0826798772001337,-2.50643941041694,-0.206709687559014,,2.5294275721793786,,
,2608.0,680.0,1510.0,555.0,2320.0,2975.0,1385.0,,,,-0.0826653572127844,-2.50640910819583,-0.20641405810275,,2.9978893580460886,,
,2609.0,681.0,1511.0,555.0,2309.0,2967.0,1402.0,,,,-0.0826354202006638,-2.50634388184123,-0.206414163065894,,3.3965799329200377,,
,2608.0,678.0,1507.0,553.0,2317.0,2965.0,1389.0,,,,-0.0825285300300994,-2.50631106522145,-0.205583209371162,,3.709330491288949,,
,2605.0,680.0,1507.0,553.0,2334.0,2974.0,1393.0,,,,-0.0824802710791751,-2.50622849083135,-0.204763861363546,,3.9229631497144855,,
,2610.0,681.0,1508.0,554.0,2331.0,2973.0,1367.0,,,,-0.0825331789701375,-2.50643292885339,-0.206259135910792,,4.0282389957665545,,
,2609.0,679.0,1510.0,553.0,2308.0,2962.0,1358.0,,,,-0.0825279056750474,-2.50626146746405,-0.20470513787688,,4.020558838482851,,
2025-07-17 16:58:02,2609.0,680.0,1509.0,555.0,2330.0,2951.0,1371.0,,,2025/07/17 04:58:02 PM,-0.0823842750892454,-2.50612618403381,-0.20635008431197,,3.900333756467718,,
,2607.0,680.0,1506.0,553.0,2351.0,2945.0,1348.0,,,,-0.0825066255056269,-2.50608505353772,-0.205631425548762,,3.6729764938420377,,
,2608.0,681.0,1509.0,552.0,2344.0,2959.0,1329.0,,,,-0.0824134550506324,-2.50580568623401,-0.204944054207811,,3.348507909330134,,
,2610.0,684.0,1512.0,554.0,2341.0,2966.0,1335.0,,,,-0.082323626404764,-2.50580619655415,-0.20518173580536,,2.940817769998516,,
,2611.0,680.0,1510.0,556.0,2341.0,2957.0,1337.0,,,,-0.0823957801370224,-2.50586833936821,-0.205561972120905,,2.4666584384750236,,
,2611.0,682.0,1508.0,551.0,2352.0,2962.0,1331.0,,,,-0.0823919134273992,-2.50577111847517,-0.205480814027684,,1.9444771605637274,,
,2609.0,680.0,1510.0,556.0,2337.0,2951.0,1374.0,,,,-0.082466963994944,-2.50582278253967,-0.205828919829923,,1.393204324363472,,
,2615.0,682.0,1511.0,556.0,2347.0,2950.0,1389.0,,,,-0.0826133537880283,-2.50634684126173,-0.20681965915986,,0.8311110821364944,,
,2614.0,683.0,1512.0,555.0,2350.0,2950.0,1416.0,,,,-0.0826708202319192,-2.50618129475956,-0.205558983900549,,0.27483260595707865,,
,2613.0,682.0,1508.0,556.0,2351.0,2951.0,1417.0,,,,-0.0825347139119987,-2.5060331145399,-0.206427938357111,,-0.26137298961398253,,
,2612.0,681.0,1511.0,554.0,2343.0,2954.0,1402.0,,,,-0.0825783300976519,-2.50625706345325,-0.206356442329994,,-0.766090942005153,,
,2614.0,681.0,1510.0,555.0,2319.0,2960.0,1385.0,,,,-0.0825850013498431,-2.50660281797537,-0.206616253068095,,-1.2309337074671962,,
,2614.0,684.0,1511.0,557.0,2336.0,2935.0,1389.0,,,,-0.082551769906982,-2.50645273473565,-0.20849770898745,,-1.6504633313282817,,
,2614.0,680.0,1511.0,552.0,2328.0,2925.0,1378.0,,,,-0.0824703221063149,-2.50627847773034,-0.206947909398558,,-2.021896294153817,,
,2614.0,681.0,1510.0,554.0,2342.0,2947.0,1377.0,,,,-0.082569720951163,-2.50676253998378,-0.207328701320055,,-2.344650511548596,,
,2615.0,683.0,1512.0,555.0,2358.0,2950.0,1381.0,,,,-0.0825858303711342,-2.50672397307837,-0.207455343572928,,-2.619801620932976,,
,2615.0,682.0,1510.0,556.0,2341.0,2960.0,1357.0,,,,-0.0825603157483739,-2.50672814964932,-0.207636097794785,,-2.8495149347131794,,
,2617.0,681.0,1513.0,554.0,2340.0,2963.0,1365.0,,,,-0.0824791695251664,-2.50655382543743,-0.207405191490502,,-3.0365114411605125,,
,2616.0,682.0,1511.0,553.0,2342.0,2949.0,1359.0,,,,-0.0823680124678033,-2.50678032030318,-0.207670826313827,,-3.183612781704114,,
,2616.0,684.0,1509.0,553.0,2318.0,2949.0,1394.0,,,,-0.0825473951090063,-2.50669126301819,-0.207504598061188,,-3.2933936929433965,,
,2617.0,683.0,1513.0,557.0,2344.0,2949.0,1369.0,,,,-0.082512410789233,-2.50664281345215,-0.20794477669283,,-3.3679536781854633,,
,2619.0,685.0,1514.0,556.0,2327.0,2956.0,1370.0,,,,-0.0825233712683369,-2.50647572837511,-0.207303070401695,,-3.4088048238701387,,
,2621.0,684.0,1513.0,557.0,2311.0,2954.0,1367.0,,,,-0.0825294246996695,-2.50681384985635,-0.206927144163179,,-3.4168608130287152,,
,2619.0,681.0,1512.0,556.0,2342.0,2947.0,1366.0,,,,-0.0825189455095055,-2.50650773197065,-0.20673210751889,,-3.3925036807812816,,
,2623.0,685.0,1513.0,557.0,2334.0,2945.0,1385.0,,,,-0.0824469876633343,-2.50666071106078,-0.206481479626646,,-3.3356999537039864,,
,2622.0,684.0,1514.0,555.0,2348.0,2941.0,1374.0,,,,-0.0824753436347055,-2.50649254684241,-0.207282924864907,,-3.2461368425400066,,
,2621.0,685.0,1513.0,557.0,2344.0,2958.0,1372.0,,,,-0.0824323241007483,-2.50681081514284,-0.206926252955799,,-3.1233522922462877,,
,2621.0,684.0,1514.0,555.0,2325.0,2969.0,1383.0,,,,-0.0822541023999435,-2.5067295932898,-0.208023903861617,,-2.9668397101176307,,
,2621.0,685.0,1515.0,555.0,2329.0,2952.0,1391.0,,,,-0.0822449309433874,-2.50662681036261,-0.207823427116262,,-2.776118355479849,,
,2624.0,687.0,1515.0,557.0,2325.0,2959.0,1381.0,,,,-0.0821894826407959,-2.50659874783743,-0.207926476000931,,-2.550772346224062,,
,2623.0,683.0,1516.0,557.0,2327.0,2949.0,1390.0,,,,-0.082434152766184,-2.50660717464766,-0.209078977086743,,-2.290472983586535,,
,2625.0,686.0,1515.0,557.0,2332.0,2949.0,1389.0,,,,-0.0824210797704177,-2.50699983597653,-0.208759850512563,,-1.995008030532002,,
,2625.0,686.0,1515.0,559.0,2346.0,2958.0,1375.0,,,,-0.082468195457899,-2.50657329567847,-0.20902633551538,,-1.6643452083018118,,
,2626.0,688.0,1515.0,561.0,2348.0,2944.0,1372.0,,,,-0.0824819735695901,-2.50667457976725,-0.20855442674373,,-1.2987540240757147,,
,2629.0,686.0,1518.0,560.0,2336.0,2941.0,1379.0,,,,-0.0825595752050322,-2.50680342903663,-0.210089391047904,,-0.8990002132518108,,
,2627.0,686.0,1521.0,559.0,2306.0,2973.0,1366.0,,,,-0.0825312696212356,-2.50700907036534,-0.209823801772648,,-0.4666121582876222,,
,2627.0,687.0,1516.0,558.0,2317.0,2961.0,1364.0,,,,-0.0827145322908845,-2.50682748715515,-0.210699815234182,,-0.004201292381956054,,
,2632.0,689.0,1522.0,559.0,2347.0,2965.0,1382.0,,,,-0.0826606192977291,-2.50702259238297,-0.211400427006675,,0.48419799723904816,,
,2631.0,691.0,1521.0,560.0,2344.0,2948.0,1379.0,,,,-0.0826204111157739,-2.50707557192361,-0.211496364550915,,0.9928158545021136,,
,2631.0,690.0,1519.0,559.0,2339.0,2949.0,1376.0,,,,-0.082699121700301,-2.50694889357719,-0.210954944979371,,1.513914762107951,,
,2631.0,688.0,1520.0,557.0,2349.0,2954.0,1360.0,,,,-0.0826507792803984,-2.50705839910084,-0.210870478537368,,2.037689393291978,,
,2633.0,688.0,1519.0,560.0,2350.0,2958.0,1357.0,,,,-0.0827516232922389,-2.50687110120033,-0.210166225533574,,2.5523418221712193,,
,2633.0,692.0,1522.0,561.0,2337.0,2947.0,1363.0,,,,-0.0826930567734274,-2.5072074906579,-0.210965814454293,,3.044360371621231,,
,2634.0,691.0,1522.0,560.0,2317.0,2945.0,1386.0,,,,-0.0827399268045011,-2.50734126144357,-0.212635830350313,,3.4990098974689645,,
,2634.0,691.0,1521.0,559.0,2330.0,2947.0,1369.0,,,,-0.082916978108203,-2.50703426317983,-0.212351624145009,,3.901017502447959,,
,2635.0,691.0,1520.0,561.0,2309.0,2947.0,1370.0,,,,-0.0829546439747319,-2.50738659956592,-0.212062888412805,,4.235413456304261,,
,2638.0,691.0,1522.0,561.0,2321.0,2965.0,1365.0,,,,-0.0829160827942632,-2.50740905943629,-0.212437808718005,,4.488465517356098,,
,2637.0,692.0,1523.0,563.0,2333.0,2961.0,1357.0,,,,-0.0829096377182971,-2.50806624295648,-0.212182781951332,,4.648628443656363,,
,2636.0,690.0,1523.0,561.0,2333.0,2953.0,1343.0,,,,-0.0829895486005702,-2.50805089043399,-0.212387498120643,,4.707421132528308,,
,2638.0,690.0,1523.0,562.0,2364.0,2962.0,1386.0,,,,-0.0832116477560925,-2.50821363610199,-0.214024829526976,,4.66014300851364,,
,2639.0,693.0,1526.0,562.0,2345.0,2977.0,1378.0,,,,-0.0832273700420853,-2.50842964120598,-0.2132083662005,,4.506350171692075,,
,2642.0,694.0,1526.0,561.0,2370.0,2975.0,1382.0,,,,-0.0832066209660382,-2.50846869597918,-0.213251594453874,,4.250031022498272,,
,2641.0,691.0,1524.0,563.0,2359.0,2985.0,1364.0,,,,-0.0832998253240448,-2.5082602360256,-0.214336559223458,,3.899449962954047,,
,2636.0,693.0,1523.0,560.0,2340.0,2987.0,1368.0,,,,-0.0833189973435084,-2.50853592139998,-0.214504221840911,,3.466663641101014,,
,2640.0,692.0,1523.0,562.0,2318.0,2959.0,1372.0,,,,-0.0833605146489485,-2.50865096979599,-0.215856107726067,,2.966751986025965,,
,2641.0,690.0,1526.0,561.0,2333.0,2972.0,1385.0,,,,-0.0835062300588858,-2.50907117951677,-0.214535830485289,,2.4168395271218963,,
,2638.0,690.0,1524.0,561.0,2333.0,2982.0,1410.0,,,,-0.0834562269555428,-2.50887568637223,-0.216465775318929,,1.8350053130337576,,
,2633.0,687.0,1521.0,557.0,2312.0,2967.0,1401.0,,,,-0.0834766053796805,-2.50859499861197,-0.216961343550854,,1.2391885442353592,,
,2631.0,689.0,1520.0,559.0,2326.0,2943.0,1374.0,,,,-0.0835389540163021,-2.50877653530272,-0.216694587365259,,0.646191365247244,,
,2626.0,685.0,1520.0,558.0,2317.0,2924.0,1399.0,,,,-0.083521943920856,-2.50915001264681,-0.216075988778374,,0.07086259774491348,,
,2627.0,687.0,1519.0,557.0,2340.0,2936.0,1383.0,,,,-0.0835000935061551,-2.50952902933199,-0.216901118840359,,-0.47447932598941805,,
,2624.0,684.0,1516.0,557.0,2328.0,2932.0,1366.0,,,,-0.0834171743799419,-2.5088178317714,-0.216446924852658,,-0.9803549936614575,,
,2620.0,681.0,1512.0,552.0,2327.0,2941.0,1394.0,,,,-0.0835558865838344,-2.5095673735705,-0.216002238825531,,-1.4401638286559308,,
,2617.0,683.0,1512.0,554.0,2322.0,2941.0,1377.0,,,,-0.0836106638341741,-2.50954770039672,-0.216823704685022,,-1.8499806849684326,,
,2617.0,681.0,1511.0,556.0,2332.0,2954.0,1389.0,,,,-0.0835643602152763,-2.50938636900285,-0.216452872134009,,-2.2081560276396828,,
,2613.0,680.0,1510.0,552.0,2345.0,2940.0,1392.0,,,,-0.0834892005808282,-2.50962387174805,-0.217601127297188,,-2.5147816633525752,,
,2612.0,681.0,1511.0,553.0,2349.0,2964.0,1398.0,,,,-0.0837725132887122,-2.50976652191895,-0.217954652969797,,-2.77109220211654,,
,2611.0,678.0,1506.0,551.0,2343.0,2954.0,1352.0,,,,-0.0837855791294047,-2.50961669410926,-0.216319287181543,,-2.978873229678616,,
,2610.0,681.0,1510.0,552.0,2371.0,2964.0,1337.0,,,,-0.0836555495502099,-2.50969871941814,-0.217152753127751,,-3.139940619503893,,
,2609.0,678.0,1507.0,549.0,2369.0,2967.0,1360.0,,,,-0.0836476982770706,-2.50970950777424,-0.217078450121585,,-3.255742221645769,,
,2609.0,676.0,1506.0,549.0,2363.0,2958.0,1348.0,,,,-0.0836469616970087,-2.50952441934519,-0.217348709329745,,-3.3271147171059736,,
,2607.0,675.0,1505.0,551.0,2365.0,2969.0,1363.0,,,,-0.0837921237457152,-2.50955829409309,-0.217129094887061,,-3.3542068447787634,,
,2606.0,676.0,1504.0,552.0,2360.0,2964.0,1349.0,,,,-0.0837654130248309,-2.50953355056927,-0.217899986749534,,-3.336558357037928,,
,2605.0,676.0,1504.0,550.0,2359.0,2966.0,1351.0,,,,-0.0837620709825296,-2.50976552216314,-0.218251160173072,,-3.273305111972316,,
,2604.0,676.0,1504.0,549.0,2362.0,2971.0,1357.0,,,,-0.0837929125073747,-2.51013133313591,-0.219304367904559,,-3.163467297987924,,
,2603.0,674.0,1505.0,548.0,2372.0,2952.0,1350.0,,,,-0.0837715912583911,-2.5103629264839,-0.218936747384279,,-3.0062714189994764,,
,2606.0,676.0,1503.0,549.0,2362.0,2953.0,1372.0,,,,-0.0838061401332965,-2.51038732149442,-0.218720511813846,,-2.801457832277073,,
,2603.0,675.0,1503.0,548.0,2349.0,2942.0,1389.0,,,,-0.0839993470054435,-2.51068830271621,-0.220213116019686,,-2.549534013799881,,
,2604.0,674.0,1503.0,551.0,2351.0,2954.0,1379.0,,,,-0.0840781862350658,-2.51076777077149,-0.219358152078161,,-2.251947955181959,,
,2602.0,673.0,1500.0,546.0,2361.0,2955.0,1390.0,,,,-0.0839289219457685,-2.51071932455151,-0.219870115119345,,-1.9111733930803618,,
,2601.0,676.0,1504.0,549.0,2345.0,2970.0,1381.0,,,,-0.0841526729927759,-2.51061955682336,-0.220879319393747,,-1.530715156881482,,
,2603.0,675.0,1502.0,547.0,2360.0,2965.0,1353.0,,,,-0.0840974632799942,-2.5108243805765,-0.219940344619772,,-1.115055245960316,,
,2603.0,673.0,1502.0,548.0,2364.0,2958.0,1362.0,,,,-0.0841990714706175,-2.51102873834408,-0.221463037710228,,-0.6695662195792186,,
,2601.0,673.0,1501.0,548.0,2350.0,2946.0,1408.0,,,,-0.0842524512452367,-2.51133864952773,-0.221495471890105,,-0.20041782763389082,,
,2600.0,672.0,1501.0,546.0,2365.0,2950.0,1383.0,,,,-0.084648653155995,-2.51170203644259,-0.222215306988176,,0.28550340384449807,,
,2600.0,673.0,1501.0,548.0,2370.0,2933.0,1367.0,,,,-0.0847570977052708,-2.51196264022578,-0.222837384227019,,0.7806519483798048,,
,2602.0,674.0,1499.0,548.0,2361.0,2940.0,1376.0,,,,-0.0851198011734777,-2.51240384891426,-0.222913356318671,,1.2768605415068832,,
,2598.0,674.0,1502.0,546.0,2345.0,2949.0,1413.0,,,,-0.0853494993142226,-2.51333791658705,-0.222916463629376,,1.7653704978663876,,
,2600.0,671.0,1498.0,548.0,2334.0,2962.0,1389.0,,,,-0.0854840321898707,-2.5138609982748,-0.224547851237798,,2.236877620551886,,
,2601.0,674.0,1499.0,548.0,2359.0,2962.0,1371.0,,,,-0.08567791171821,-2.51426934841218,-0.225399557150284,,2.6816208532245565,,
,2599.0,671.0,1499.0,548.0,2375.0,2944.0,1376.0,,,,-0.0858304050421907,-2.51482096730226,-0.226346744908049,,3.0895397373005324,,
,2598.0,674.0,1499.0,548.0,2370.0,2943.0,1377.0,,,,-0.085925939566353,-2.51520758309473,-0.225591665458749,,3.4505196212246187,,
,2597.0,673.0,1497.0,546.0,2347.0,2953.0,1344.0,,,,-0.0861184843795363,-2.51564172884665,-0.226691380401389,,3.7547313828966735,,
,2601.0,673.0,1497.0,546.0,2347.0,2942.0,1376.0,,,,-0.0864090059816277,-2.51584434515588,-0.227096243506642,,3.9930571200364184,,
,2598.0,675.0,1499.0,547.0,2363.0,2964.0,1378.0,,,,-0.0862252863978965,-2.51525394331343,-0.226609779958481,,4.15757719991518,,
,2598.0,672.0,1497.0,545.0,2358.0,2953.0,1375.0,,,,-0.0860403725001373,-2.51552481124561,-0.226735614215749,,4.242079625438761,,
,2598.0,672.0,1496.0,547.0,2358.0,2971.0,1390.0,,,,-0.0861306009005848,-2.5154058861657,-0.226119791310237,,4.242542139233397,,
,2595.0,672.0,1498.0,546.0,2352.0,2985.0,1383.0,,,,-0.0859765177337385,-2.51527360972696,-0.225191383029466,,4.157532851230024,,
,2596.0,673.0,1495.0,548.0,2357.0,2985.0,1381.0,,,,-0.0860551063928506,-2.5153270370509,-0.223883762278738,,3.988477831093582,,
,2597.0,672.0,1497.0,547.0,2333.0,2972.0,1412.0,,,,-0.0859341719228728,-2.51524838897214,-0.223925944290297,,3.739754386479717,,
,2596.0,670.0,1495.0,545.0,2339.0,2974.0,1417.0,,,,-0.0859884605664142,-2.51465041662491,-0.224128703407214,,3.4185855760503787,,
,2595.0,672.0,1497.0,545.0,2358.0,2965.0,1386.0,,,,-0.0859722360646401,-2.51460414108313,-0.225154179645581,,3.03473243618149,,
,2595.0,672.0,1496.0,546.0,2343.0,2970.0,1391.0,,,,-0.0858976359667083,-2.51442599236393,-0.223020249134673,,2.6000021670117266,,
,2598.0,670.0,1497.0,547.0,2335.0,2966.0,1376.0,,,,-0.0859457916925176,-2.51442154204231,-0.22330998615412,,2.1276099325993005,,
,2593.0,670.0,1493.0,547.0,2338.0,2959.0,1386.0,,,,-0.0859179472680973,-2.51436675216891,-0.224623256354966,,1.6314466596671613,,
,2593.0,670.0,1494.0,544.0,2343.0,2963.0,1371.0,,,,-0.085880946558779,-2.51473604919746,-0.223419527843787,,1.1253140800865529,,
,2597.0,674.0,1495.0,546.0,2361.0,2915.0,1335.0,,,,-0.0857656638151381,-2.51427514087111,-0.223988598234187,,0.6221908193594086,,
,2596.0,670.0,1495.0,545.0,2348.0,2937.0,1362.0,,,,-0.0858234330939384,-2.51457173565454,-0.225158291083954,,0.13358946053362933,,
,2596.0,673.0,1496.0,545.0,2341.0,2947.0,1347.0,,,,-0.0857867159415654,-2.51455378692774,-0.224724849439914,,-0.33094546571537103,,
,2595.0,673.0,1494.0,545.0,2332.0,2952.0,1377.0,,,,-0.0857381908914059,-2.51461087420036,-0.224255234249643,,-0.764163440616361,,
,2595.0,672.0,1494.0,544.0,2339.0,2953.0,1374.0,,,,-0.0857815397704531,-2.5147512050235,-0.223593137617312,,-1.161240259259456,,
,2595.0,671.0,1495.0,546.0,2358.0,2966.0,1356.0,,,,-0.0858911411539607,-2.5145725969252,-0.224606089152849,,-1.5197169412275335,,
,2597.0,670.0,1496.0,547.0,2349.0,2951.0,1375.0,,,,-0.0858527255112337,-2.5143798109929,-0.224087483090832,,-1.8392619352187551,,
,2598.0,674.0,1496.0,547.0,2348.0,2965.0,1375.0,,,,-0.0859271449024153,-2.51465788412982,-0.224829616595253,,-2.1212871156917354,,
,2597.0,671.0,1493.0,545.0,2352.0,2945.0,1371.0,,,,-0.085879132895836,-2.5145873819396,-0.224803765199971,,-2.3684585329285324,,
,2598.0,671.0,1495.0,546.0,2367.0,2950.0,1359.0,,,,-0.0857977453262021,-2.51470091483998,-0.223936057615029,,-2.584149473389898,,
,2598.0,672.0,1497.0,546.0,2345.0,2969.0,1352.0,,,,-0.0858736075544982,-2.5148283762923,-0.225007091107592,,-2.771885860939262,,
,2599.0,675.0,1496.0,547.0,2333.0,2949.0,1380.0,,,,-0.0858732994790645,-2.51480933304553,-0.224880584573299,,-2.9348324826047563,,
,2599.0,672.0,1494.0,544.0,2336.0,2938.0,1368.0,,,,-0.0859664806232352,-2.51455325782925,-0.225491626292519,,-3.0753633593178455,,
,2599.0,673.0,1495.0,545.0,2361.0,2959.0,1353.0,,,,-0.0859627944682303,-2.51461865957567,-0.224701134779651,,-3.1947513337879583,,
,2601.0,674.0,1497.0,547.0,2355.0,2961.0,1365.0,,,,-0.0861063252270202,-2.51497181139925,-0.226316954932332,,-3.29300113571526,,
,2602.0,670.0,1497.0,544.0,2359.0,2951.0,1382.0,,,,-0.086052845914727,-2.51536869505951,-0.226347946779638,,-3.3688373224079764,,
,2601.0,672.0,1497.0,545.0,2349.0,2936.0,1376.0,,,,-0.0861138670918358,-2.51571654718328,-0.227027178135504,,-3.419844198188505,,
,2602.0,673.0,1497.0,544.0,2351.0,2956.0,1360.0,,,,-0.0860755442135804,-2.5157389029361,-0.226582646774465,,-3.4427399986878724,,
,2601.0,672.0,1497.0,546.0,2345.0,2955.0,1363.0,,,,-0.0861819459194932,-2.51551485496101,-0.227007466806643,,-3.4337537001771605,,
,2607.0,672.0,1497.0,547.0,2353.0,2969.0,1338.0,,,,-0.0862672359929751,-2.51573196744105,-0.226501480642221,,-3.389061673007471,,
,2604.0,674.0,1497.0,550.0,2368.0,2963.0,1340.0,,,,-0.0863613956420912,-2.51588966422508,-0.228116625416961,,-3.305234916183079,,
,2606.0,674.0,1499.0,546.0,2353.0,2974.0,1355.0,,,,-0.0863549969888251,-2.51584295312677,-0.227670733167619,,-3.179646972984647,,
2025-07-17 16:58:03,2606.0,674.0,1500.0,549.0,2367.0,2959.0,1317.0,,,2025/07/17 04:58:03 PM,-0.0863074073377073,-2.51576718957241,-0.228265571608981,,-3.0107980794124294,,
,2606.0,674.0,1500.0,548.0,2365.0,2966.0,1323.0,,,,-0.0862604877097151,-2.51608983881592,-0.228766976855747,,-2.798522129922715,,
,2608.0,674.0,1500.0,548.0,2369.0,2957.0,1332.0,,,,-0.0861143925990229,-2.5159541661188,-0.228494865363915,,-2.5440585314206983,,
,2609.0,674.0,1498.0,546.0,2364.0,2948.0,1347.0,,,,-0.0861126754767903,-2.51630336375,-0.227372810012683,,-2.249989084551873,,
,2607.0,673.0,1499.0,547.0,2374.0,2946.0,1326.0,,,,-0.0859922471209749,-2.51609283093237,-0.227661194674357,,-1.9200580418022164,,
,2611.0,674.0,1502.0,546.0,2361.0,2959.0,1349.0,,,,-0.086157692871642,-2.51609598233716,-0.22715862141959,,-1.5589085104644493,,
,2610.0,677.0,1501.0,547.0,2353.0,2960.0,1377.0,,,,-0.0861019871352249,-2.51567291066429,-0.228190384945602,,-1.1717780128842017,,
,2607.0,676.0,1501.0,549.0,2369.0,2944.0,1359.0,,,,-0.0860793978817471,-2.51603095457806,-0.227192317554299,,-0.7641991145119383,,
,2609.0,674.0,1502.0,550.0,2342.0,2937.0,1327.0,,,,-0.086088719459359,-2.51547948852366,-0.22761840039821,,-0.3417476685926599,,
,2614.0,674.0,1503.0,550.0,2352.0,2929.0,1354.0,,,,-0.0860866042653163,-2.51510072995712,-0.22646884227802,,0.09012767379747531,,
,2612.0,678.0,1501.0,548.0,2348.0,2934.0,1341.0,,,,-0.0860339324763521,-2.51576690295555,-0.227617464491858,,0.5261741841356175,,
,2613.0,677.0,1501.0,550.0,2354.0,2933.0,1329.0,,,,-0.0859931823064022,-2.5156977247365,-0.227095898452476,,0.961297466833921,,
,2611.0,675.0,1504.0,550.0,2357.0,2908.0,1339.0,,,,-0.085898136888119,-2.51540568339137,-0.226105379688624,,1.3904302360488296,,
,2613.0,677.0,1503.0,549.0,2376.0,2945.0,1364.0,,,,-0.0860056213906236,-2.51578294650161,-0.227217606269479,,1.8083366974319453,,
,2615.0,680.0,1506.0,551.0,2371.0,2944.0,1360.0,,,,-0.0858915618550598,-2.51574426642651,-0.227435554572533,,2.209395311059926,,
,2617.0,677.0,1505.0,549.0,2362.0,2943.0,1348.0,,,,-0.0859380283660055,-2.51555127562738,-0.226702535203747,,2.5874107519680734,,
,2616.0,673.0,1503.0,549.0,2359.0,2946.0,1358.0,,,,-0.0859685824486035,-2.51572978694955,-0.226554223076307,,2.9355066007268524,,
,2617.0,676.0,1505.0,549.0,2357.0,2958.0,1371.0,,,,-0.0859464096995903,-2.51538551860198,-0.227047093222353,,3.246143013794734,,
,2618.0,677.0,1505.0,551.0,2366.0,2970.0,1365.0,,,,-0.0861562066377857,-2.51562000465236,-0.228183648974467,,3.5112887965616006,,
,2619.0,678.0,1507.0,552.0,2354.0,2959.0,1362.0,,,,-0.0861437507425938,-2.51582279829031,-0.227486148909351,,3.722756350651052,,
,2621.0,676.0,1509.0,549.0,2344.0,2935.0,1361.0,,,,-0.0860195353368499,-2.5157949241285,-0.226808902997862,,3.8726832807231077,,
,2621.0,678.0,1510.0,552.0,2350.0,2950.0,1363.0,,,,-0.0858216568387682,-2.51584096660361,-0.227263880944607,,3.954119380560519,,
,2621.0,677.0,1507.0,551.0,2353.0,2966.0,1346.0,,,,-0.0861324239409237,-2.51590128668987,-0.227095231621783,,3.9616562869190397,,
,2622.0,681.0,1510.0,552.0,2343.0,2957.0,1336.0,,,,-0.0862763841335911,-2.51569698835129,-0.228315186789687,,3.892023295117169,,
,2624.0,681.0,1509.0,552.0,2348.0,2952.0,1329.0,,,,-0.0862812948831332,-2.51587899913004,-0.226635867014333,,3.7445698313790174,,
,2621.0,680.0,1509.0,550.0,2359.0,2953.0,1363.0,,,,-0.0862326563624809,-2.51597392834701,-0.22773321279809,,3.5215644231382925,,
,2623.0,679.0,1511.0,554.0,2384.0,2953.0,1381.0,,,,-0.0861683814616755,-2.5153359140409,-0.227790777903621,,3.228261037223316,,
,2623.0,680.0,1513.0,552.0,2364.0,2967.0,1365.0,,,,-0.0860795890274673,-2.51543710249579,-0.226333887258477,,2.8727131765356293,,
,2627.0,680.0,1513.0,554.0,2343.0,2979.0,1360.0,,,,-0.0861101662847959,-2.51517374726761,-0.226971744506365,,2.465348826218037,,
,2628.0,680.0,1513.0,553.0,2356.0,2961.0,1367.0,,,,-0.086161274230398,-2.51569293698351,-0.227250652898932,,2.018349242181931,,
,2627.0,681.0,1512.0,555.0,2365.0,2964.0,1344.0,,,,-0.086203993225279,-2.51549749507693,-0.228168652872916,,1.5448969003291828,,
,2627.0,681.0,1514.0,555.0,2380.0,2942.0,1347.0,,,,-0.0861811800732856,-2.51564237435003,-0.228329260458504,,1.0583701093451594,,
,2630.0,683.0,1515.0,555.0,2381.0,2939.0,1348.0,,,,-0.085994750383212,-2.51530891620861,-0.227248880980038,,0.5715633216231751,,
,2629.0,681.0,1515.0,553.0,2392.0,2948.0,1367.0,,,,-0.0858731949872617,-2.51565825920489,-0.227452872602791,,0.09600410380019808,,
,2629.0,679.0,1515.0,551.0,2370.0,2963.0,1350.0,,,,-0.0858965537610583,-2.51546334928006,-0.22843463778526,,-0.3585776810307866,,
,2632.0,682.0,1516.0,556.0,2371.0,2953.0,1337.0,,,,-0.0859073947516179,-2.51555752435919,-0.227162185245979,,-0.7845926945698766,,
,2632.0,682.0,1518.0,556.0,2374.0,2947.0,1364.0,,,,-0.086011764338461,-2.51586402056322,-0.22799307880468,,-1.1767323470042785,,
,2634.0,684.0,1519.0,557.0,2380.0,2960.0,1377.0,,,,-0.085903383462695,-2.51602675160045,-0.227693738053876,,-1.5319120346721689,,
,2631.0,683.0,1518.0,553.0,2374.0,2961.0,1365.0,,,,-0.0859463276405317,-2.51609638259921,-0.226006082980684,,-1.8490404846507633,,
,2633.0,684.0,1520.0,557.0,2367.0,2965.0,1337.0,,,,-0.0859595518469706,-2.51587128705276,-0.228430934816201,,-2.1286518477668372,,
,2633.0,682.0,1522.0,558.0,2371.0,2959.0,1341.0,,,,-0.0859245802134177,-2.51588768515046,-0.227803056068295,,-2.3724461702711617,,
,2633.0,684.0,1519.0,558.0,2363.0,2969.0,1335.0,,,,-0.0858453199676531,-2.51577274025036,-0.227777167539899,,-2.5827882358131524,,
,2633.0,681.0,1519.0,556.0,2376.0,2998.0,1322.0,,,,-0.0859332092149615,-2.51573004906441,-0.228529417503897,,-2.7622148078314246,,
,2634.0,681.0,1519.0,556.0,2375.0,2983.0,1329.0,,,,-0.085933186371811,-2.51562589532117,-0.227590823633671,,-2.9129964413437093,,
,2632.0,683.0,1521.0,558.0,2361.0,2958.0,1363.0,,,,-0.085908745529906,-2.5155553084918,-0.22872199083012,,-3.0367926875632927,,
,2633.0,681.0,1518.0,556.0,2358.0,2958.0,1361.0,,,,-0.0858747768822902,-2.5155711015125,-0.228567260859821,,-3.134429130556287,,
,2631.0,680.0,1518.0,555.0,2354.0,2954.0,1341.0,,,,-0.0858357031805629,-2.5156626794695,-0.227668442970073,,-3.205811845160281,,
,2627.0,680.0,1516.0,553.0,2340.0,2962.0,1364.0,,,,-0.0857586506793945,-2.51531619800036,-0.228044117203817,,-3.2499803237044365,,
,2625.0,678.0,1514.0,555.0,2343.0,2954.0,1357.0,,,,-0.0856769390297501,-2.5152461743141,-0.227794860913792,,-3.2652847619395797,,
,2624.0,677.0,1513.0,553.0,2327.0,2935.0,1335.0,,,,-0.0856397066088342,-2.51529164256749,-0.228185158014217,,-3.2496593577441506,,
,2619.0,677.0,1509.0,552.0,2321.0,2937.0,1331.0,,,,-0.085613452986606,-2.51526925162411,-0.227042926685702,,-3.200951946022276,,
,2614.0,673.0,1509.0,550.0,2328.0,2926.0,1349.0,,,,-0.0856294772997121,-2.51537165898519,-0.228307718486166,,-3.117263850558012,,
,2613.0,672.0,1509.0,548.0,2322.0,2937.0,1350.0,,,,-0.0855937953060732,-2.51485302114988,-0.22727717705968,,-2.997253553828091,,
,2613.0,674.0,1507.0,549.0,2321.0,2953.0,1344.0,,,,-0.0856492779380445,-2.51486035296818,-0.227401568275793,,-2.8403638900050416,,
,2609.0,672.0,1508.0,550.0,2336.0,2937.0,1333.0,,,,-0.0857159313717643,-2.51499943866436,-0.228095379799947,,-2.6469442812593154,,
,2607.0,673.0,1505.0,549.0,2347.0,2956.0,1345.0,,,,-0.0855538445963042,-2.51485385090513,-0.225628586664016,,-2.4182557023380276,,
,2608.0,671.0,1504.0,546.0,2343.0,2957.0,1325.0,,,,-0.08556535092396,-2.51470682468118,-0.226307546841881,,-2.1563644865750944,,
,2604.0,673.0,1504.0,547.0,2365.0,2957.0,1338.0,,,,-0.085588893401417,-2.51482072484252,-0.226622944394299,,-1.863948979182384,,
,2603.0,671.0,1502.0,547.0,2361.0,2959.0,1338.0,,,,-0.0854392868842662,-2.51453796149663,-0.22625844519578,,-1.5440573474331711,,
,2602.0,667.0,1502.0,545.0,2358.0,2974.0,1342.0,,,,-0.0854888540234646,-2.51430866778351,-0.226221057039857,,-1.199863067978383,,
,2601.0,668.0,1500.0,545.0,2376.0,2974.0,1353.0,,,,-0.0855313482973491,-2.51404540590255,-0.226026692122678,,-0.8344654111723764,,
,2601.0,667.0,1502.0,548.0,2373.0,2968.0,1374.0,,,,-0.0855944167252058,-2.51415829191006,-0.224914361233863,,-0.4507756032844239,,
,2602.0,667.0,1498.0,546.0,2359.0,2978.0,1372.0,,,,-0.0853687107665985,-2.51402634305,-0.224771084805315,,-0.051516246449987986,,
,2601.0,667.0,1501.0,545.0,2354.0,2974.0,1353.0,,,,-0.0853993001358415,-2.51391454517274,-0.22551836026256,,0.36065629078029243,,
,2600.0,668.0,1499.0,545.0,2352.0,2969.0,1335.0,,,,-0.0853848501935965,-2.51390326620441,-0.224454116243517,,0.7829171663234277,,
,2600.0,668.0,1498.0,546.0,2368.0,2959.0,1337.0,,,,-0.08524044216101,-2.51417535333727,-0.225630475023608,,1.2119568922636221,,
,2600.0,669.0,1499.0,545.0,2365.0,2952.0,1365.0,,,,-0.0852843838030812,-2.51406829832737,-0.22524888736692,,1.6436317434329855,,
,2597.0,668.0,1500.0,545.0,2356.0,2960.0,1347.0,,,,-0.0852435057638329,-2.5137710181351,-0.224322475626918,,2.072640224862543,,
,2597.0,667.0,1499.0,542.0,2349.0,2956.0,1350.0,,,,-0.0851900634009792,-2.51333724222599,-0.22589521980858,,2.4922884136196566,,
,2597.0,666.0,1498.0,544.0,2349.0,2963.0,1337.0,,,,-0.0853798598891174,-2.51383612984891,-0.224747441634584,,2.8944009599078626,,
,2598.0,666.0,1499.0,544.0,2345.0,2962.0,1372.0,,,,-0.0854229680661899,-2.51433388212434,-0.226264420495542,,3.2694194949644144,,
,2598.0,667.0,1499.0,545.0,2342.0,2962.0,1372.0,,,,-0.0855053717092116,-2.51443478383487,-0.225635167494471,,3.606708130334958,,
,2598.0,665.0,1499.0,544.0,2343.0,2931.0,1379.0,,,,-0.0857354031188161,-2.51535381633656,-0.22720629322701,,3.8950596598229765,,
,2595.0,666.0,1497.0,546.0,2345.0,2943.0,1385.0,,,,-0.0859587014609291,-2.51546812451808,-0.227696534624043,,4.123369391349034,,
,2599.0,667.0,1498.0,547.0,2339.0,2936.0,1354.0,,,,-0.0861723257475059,-2.51580670008679,-0.226991034514849,,4.281419585023391,,
,2598.0,664.0,1495.0,545.0,2345.0,2952.0,1386.0,,,,-0.0862664433848903,-2.51603888811697,-0.227378256624954,,4.360699234047784,,
,2598.0,663.0,1497.0,544.0,2324.0,2950.0,1390.0,,,,-0.0863282127248003,-2.51639266449744,-0.227044986462841,,4.35517374910619,,
,2594.0,664.0,1494.0,544.0,2308.0,2963.0,1407.0,,,,-0.0864230488252265,-2.51669087216088,-0.22809363611366,,4.261918546978523,,
,2596.0,664.0,1496.0,543.0,2348.0,2977.0,1370.0,,,,-0.0864068207477957,-2.51712674329646,-0.226950495035145,,4.081540277193021,,
,2596.0,664.0,1494.0,544.0,2369.0,2965.0,1346.0,,,,-0.0864448640208178,-2.5167423607791,-0.22599932740246,,3.8183291545362263,,
,2597.0,667.0,1498.0,544.0,2371.0,2962.0,1348.0,,,,-0.0863638444525355,-2.51647177323594,-0.225729926164142,,3.4801140589627346,,
,2594.0,661.0,1495.0,541.0,2352.0,2959.0,1352.0,,,,-0.0864009003744601,-2.51626589249026,-0.22525194905476,,3.0778255468902955,,
,2596.0,664.0,1493.0,543.0,2333.0,2953.0,1353.0,,,,-0.0862801038310081,-2.51583523184862,-0.223962408115008,,2.6248059201753633,,
,2594.0,663.0,1494.0,544.0,2330.0,2941.0,1347.0,,,,-0.0861160369795983,-2.51579119160157,-0.223383243399767,,2.135934589185866,,
,2595.0,664.0,1494.0,544.0,2325.0,2935.0,1366.0,,,,-0.0859589762572978,-2.51528717828333,-0.222304249805289,,1.6266565697766704,,
,2594.0,664.0,1495.0,544.0,2341.0,2940.0,1382.0,,,,-0.0859080678994367,-2.51513359229197,-0.222483990726444,,1.1120095004771378,,
,2593.0,663.0,1492.0,540.0,2339.0,2958.0,1386.0,,,,-0.0857981170990424,-2.51502776599941,-0.221460105520428,,0.6057398071483892,,
,2596.0,663.0,1492.0,543.0,2350.0,2961.0,1366.0,,,,-0.0857110237950423,-2.51455051471885,-0.220997763607226,,0.11958341542537233,,
,2594.0,664.0,1493.0,543.0,2367.0,2962.0,1356.0,,,,-0.0856683085099663,-2.51427271647882,-0.221815775717306,,-0.33723596965936903,,
,2592.0,663.0,1493.0,543.0,2361.0,2965.0,1354.0,,,,-0.0855449702798461,-2.51435651969224,-0.221050274463582,,-0.7582636919492761,,
,2594.0,662.0,1492.0,543.0,2364.0,2966.0,1362.0,,,,-0.0856058808666921,-2.51402332068285,-0.219933907950486,,-1.1398242918439279,,
,2596.0,662.0,1491.0,544.0,2323.0,2948.0,1355.0,,,,-0.0855639298190273,-2.51435866122945,-0.220884630781669,,-1.480805883831415,,
,2596.0,663.0,1493.0,541.0,2339.0,2943.0,1360.0,,,,-0.0855108597925862,-2.5141811885659,-0.220218806707318,,-1.7822576890650137,,
,2595.0,664.0,1493.0,545.0,2349.0,2945.0,1344.0,,,,-0.085726571116633,-2.51396273455614,-0.22065327448833,,-2.0468519571548605,,
,2593.0,665.0,1491.0,540.0,2350.0,2954.0,1343.0,,,,-0.0856308186811991,-2.51388365923227,-0.219285224564035,,-2.2782679397342926,,
,2594.0,662.0,1492.0,543.0,2376.0,2966.0,1386.0,,,,-0.0855041326193444,-2.51413688513091,-0.220681283535647,,-2.480556678046134,,
,2595.0,664.0,1494.0,543.0,2363.0,2969.0,1383.0,,,,-0.0853725821726821,-2.51371826157486,-0.220502186927684,,-2.6575420783170096,,
,2596.0,664.0,1493.0,544.0,2350.0,2974.0,1382.0,,,,-0.085405447315694,-2.51344857906286,-0.218271108532812,,-2.8123070056611095,,
,2593.0,663.0,1493.0,543.0,2344.0,2950.0,1415.0,,,,-0.0852787771658981,-2.51342928973777,-0.218849326357958,,-2.946803625432468,,
,2595.0,664.0,1493.0,543.0,2354.0,2950.0,1395.0,,,,-0.0852913172676371,-2.51310129831759,-0.218921668061922,,-3.0616154299305496,,
,2596.0,665.0,1494.0,544.0,2343.0,2946.0,1362.0,,,,-0.085103056231408,-2.5134757613645,-0.218442071186809,,-3.155884707999073,,
,2596.0,664.0,1490.0,543.0,2346.0,2943.0,1331.0,,,,-0.0851055152799142,-2.51306680146273,-0.219041489465264,,-3.2274041601822274,,
,2597.0,665.0,1494.0,542.0,2345.0,2941.0,1336.0,,,,-0.0852334737785778,-2.51286884003044,-0.218141744545124,,-3.272855810665218,,
,2596.0,661.0,1493.0,542.0,2338.0,2953.0,1345.0,,,,-0.0851960384500265,-2.51296630982059,-0.218525594208653,,-3.288165847052642,,
,2598.0,666.0,1491.0,543.0,2337.0,2970.0,1336.0,,,,-0.0850865969771676,-2.51274645334618,-0.218399741852055,,-3.2689326289777294,,
,2600.0,664.0,1493.0,545.0,2351.0,2975.0,1351.0,,,,-0.0851136523065326,-2.51282918408947,-0.217824491396356,,-3.210878796543869,,
,2597.0,667.0,1493.0,544.0,2355.0,2974.0,1376.0,,,,-0.0851424130468594,-2.51310531111994,-0.218894362374509,,-3.1102781967934097,,
,2599.0,666.0,1489.0,544.0,2355.0,2966.0,1386.0,,,,-0.0850795805981756,-2.51285117195483,-0.217732937277665,,-2.9643142227208235,,
,2601.0,665.0,1495.0,542.0,2325.0,2953.0,1401.0,,,,-0.085104670360139,-2.51287674152346,-0.218278731324872,,-2.771337485922754,,
,2598.0,666.0,1495.0,544.0,2310.0,2952.0,1389.0,,,,-0.0849855538563602,-2.51275839932305,-0.219005209120212,,-2.531006373436967,,
,2603.0,666.0,1494.0,545.0,2311.0,2954.0,1391.0,,,,-0.0849998084703901,-2.51293139385824,-0.217999116181646,,-2.2443120077108123,,
,2600.0,667.0,1494.0,541.0,2313.0,2993.0,1370.0,,,,-0.0850032287178052,-2.51268286051189,-0.217646311513199,,-1.91350649522138,,
