TimeLabel,MEAS1_PPG1,MEAS1_PPG2,MEAS1_PPG3,MEAS1_PPG4,ACCX,ACCY,ACCZ,HR_timestamp,HR_value,radar_timestamp,phase_rx0,phase_rx1,phase_rx2,timestep,n_process,original_rate,calculated_rate
2025-08-01 19:17:23,6903.0,1041.0,7919.0,1138.0,2074.0,1875.0,2807.0,2025-08-01 19:17:52,72.0,2025/08/01 07:17:23 PM,0.129974064605721,0.0570041135886061,2.68684592113768,2025/08/01 07:17:23 PM,-1.1929246748237101,15.859030723571776,19.535972754363556
,6905.0,1041.0,7918.0,1137.0,2086.0,1869.0,2775.0,2025-08-01 19:17:53,71.0,,0.130051556169465,0.0570831925716917,2.68811693582436,2025/08/01 07:17:33 PM,-0.755668701853187,15.777610778808594,16.167413350511943
,6907.0,1042.0,7919.0,1141.0,2088.0,1854.0,2799.0,2025-08-01 19:17:54,71.0,,0.130107574543368,0.0571963946526612,2.68934781719939,2025/08/01 07:17:43 PM,-0.24438480078958655,15.75393772125244,14.907407407407412
,6909.0,1044.0,7921.0,1142.0,2086.0,1842.0,2801.0,2025-08-01 19:17:55,71.0,,0.130253384384023,0.0573308919561074,2.69088404049692,2025/08/01 07:17:53 PM,0.33305330549673456,14.32469367980957,14.444444444444445
,6911.0,1044.0,7920.0,1142.0,2089.0,1843.0,2797.0,2025-08-01 19:17:56,70.0,,0.130255361327695,0.0573624752215906,2.69188701091289,2025/08/01 07:18:03 PM,0.9655651292651332,15.206371307373049,18.609625668449194
,6912.0,1043.0,7921.0,1142.0,2098.0,1857.0,2777.0,2025-08-01 19:17:57,70.0,,0.130287024400364,0.0573870069674097,2.69105515969407,2025/08/01 07:18:13 PM,1.6391402486893172,15.648285865783691,17.79880765773221
,6913.0,1043.0,7917.0,1143.0,2096.0,1865.0,2767.0,2025-08-01 19:17:58,69.0,,0.13021301709032,0.0573874166870312,2.69035018310966,2025/08/01 07:18:23 PM,2.337257196340763,17.14285659790039,27.603215199123127
,6917.0,1044.0,7920.0,1146.0,2090.0,1879.0,2771.0,2025-08-01 19:17:59,68.0,,0.130292767349607,0.0574036742831971,2.69090724069053,2025/08/01 07:18:33 PM,3.04142650499385,20.40816307067871,13.570132227119524
,6920.0,1046.0,7924.0,1147.0,2092.0,1866.0,2780.0,2025-08-01 19:18:00,66.0,,0.13034056257526,0.0574253493683415,2.69137384548512,2025/08/01 07:18:43 PM,3.731839038172172,18.53281784057617,15.484515484515484
,6919.0,1044.0,7924.0,1146.0,2102.0,1855.0,2802.0,2025-08-01 19:18:01,65.0,,0.130358642183213,0.0574917317217578,2.69233575535791,2025/08/01 07:18:53 PM,4.388100558472804,17.253774642944336,18.446339729921803
,6919.0,1042.0,7921.0,1145.0,2100.0,1860.0,2779.0,2025-08-01 19:18:02,64.0,,0.130437263970659,0.0576699195675849,2.69354233403257,2025/08/01 07:19:03 PM,4.990031882422323,15.683346748352053,16.63570691434471
,6926.0,1046.0,7927.0,1147.0,2095.0,1859.0,2778.0,2025-08-01 19:18:03,64.0,,0.130633227551958,0.0579053718167812,2.69607884995116,2025/08/01 07:19:13 PM,5.518510185947282,17.069700241088867,17.014238742362018
,6929.0,1047.0,7930.0,1147.0,2098.0,1876.0,2773.0,2025-08-01 19:18:04,63.0,,0.130805272887415,0.0581801955265353,2.69840752205856,2025/08/01 07:19:23 PM,5.956321681496503,17.227235794067383,18.37399540757747
,6931.0,1048.0,7927.0,1148.0,2094.0,1878.0,2769.0,2025-08-01 19:18:05,62.0,,0.13097356033961,0.0584180050634871,2.70257997192509,2025/08/01 07:19:33 PM,6.288989932940566,16.613924026489258,14.636323070058031
,6927.0,1042.0,7926.0,1146.0,2080.0,1875.0,2770.0,2025-08-01 19:18:06,62.0,,0.131186150388263,0.0587047974759992,2.70668450187349,2025/08/01 07:19:43 PM,6.505538014228636,16.771488189697266,19.72913679628252
,6934.0,1047.0,7928.0,1149.0,2068.0,1882.0,2777.0,2025-08-01 19:18:07,62.0,,0.131346634927244,0.0589239642862882,2.708598184821,2025/08/01 07:19:53 PM,6.599136831325233,17.608217239379883,15.279921538362606
,6934.0,1048.0,7932.0,1150.0,2082.0,1869.0,2772.0,2025-08-01 19:18:08,62.0,,0.131492137579682,0.0590896160950274,2.71069437813272,2025/08/01 07:20:03 PM,6.567587092669338,16.5289249420166,17.227443609022547
,6935.0,1045.0,7930.0,1151.0,2090.0,1871.0,2778.0,2025-08-01 19:18:09,63.0,,0.131553616014738,0.0591983076176881,2.71180850689135,2025/08/01 07:20:13 PM,6.413580737737735,16.419076919555664,18.000904568068748
,6938.0,1046.0,7928.0,1150.0,2106.0,1879.0,2770.0,2025-08-01 19:18:10,63.0,,0.131580482622093,0.0592790917099277,2.71222800157908,,6.1446922695933495,,
,6941.0,1049.0,7930.0,1153.0,2095.0,1876.0,2787.0,2025-08-01 19:18:11,65.0,,0.131513591775498,0.0592023154213839,2.71155089972708,,5.773064496585104,,
,6944.0,1047.0,7932.0,1153.0,2112.0,1856.0,2771.0,2025-08-01 19:18:12,65.0,,0.131476278224066,0.059211292219098,2.71071919139162,,5.314778155293473,,
,6946.0,1050.0,7932.0,1155.0,2097.0,1862.0,2767.0,2025-08-01 19:18:13,65.0,,0.131461983760059,0.0591351527803749,2.70987825705668,,4.788929167296918,,
,6947.0,1049.0,7934.0,1155.0,2086.0,1874.0,2779.0,2025-08-01 19:18:14,66.0,,0.131411580260989,0.059066084630657,2.70942496437219,,4.216475537400408,,
,6947.0,1048.0,7932.0,1154.0,2082.0,1868.0,2776.0,2025-08-01 19:18:15,66.0,,0.131375688851713,0.0590334182346368,2.70902606582482,,3.618949929677175,,
,6952.0,1047.0,7934.0,1156.0,2077.0,1866.0,2766.0,2025-08-01 19:18:16,66.0,,0.131321465508158,0.0589732872281131,2.70818697141463,,3.0171553831047886,,
,6955.0,1051.0,7937.0,1156.0,2099.0,1854.0,2771.0,2025-08-01 19:18:17,66.0,,0.131286739328628,0.0588941278319758,2.70779205461775,,2.429965157252249,,
,6956.0,1050.0,7938.0,1158.0,2089.0,1860.0,2784.0,2025-08-01 19:18:18,67.0,,0.131284106077531,0.0588754116013244,2.70685146327148,,1.8733329675169035,,
,6960.0,1052.0,7936.0,1159.0,2087.0,1858.0,2791.0,2025-08-01 19:18:19,67.0,,0.131226941059788,0.0588287374188986,2.70579706059472,,1.3595910151711441,,
,6962.0,1051.0,7937.0,1162.0,2100.0,1873.0,2784.0,2025-08-01 19:18:20,67.0,,0.131248478429347,0.0588142862458787,2.70618283884112,,0.8970768726790703,,
,6965.0,1053.0,7940.0,1162.0,2102.0,1873.0,2787.0,2025-08-01 19:18:21,66.0,,0.131248982590595,0.0588322239480577,2.706677946153,,0.49009324608799115,,
,6965.0,1054.0,7940.0,1164.0,2098.0,1868.0,2762.0,2025-08-01 19:18:22,66.0,,0.131226019374174,0.0588946014491965,2.70616250414437,,0.13917214920044677,,
,6971.0,1053.0,7943.0,1161.0,2077.0,1881.0,2778.0,2025-08-01 19:18:23,65.0,,0.131232612877172,0.0589325544379346,2.70610098421418,,-0.15840984657576898,,
,6970.0,1052.0,7940.0,1164.0,2084.0,1877.0,2776.0,2025-08-01 19:18:24,65.0,,0.131242218139339,0.0589717886048825,2.70682984717342,,-0.4079346767540848,,
,6974.0,1055.0,7942.0,1165.0,2089.0,1876.0,2790.0,2025-08-01 19:18:25,64.0,,0.131359319499298,0.0590411270759759,2.70773491529731,,-0.6164408420454527,,
,6975.0,1054.0,7943.0,1163.0,2086.0,1871.0,2783.0,2025-08-01 19:18:26,64.0,,0.13131957540289,0.05906339519806,2.70739004973953,,-0.791892562506835,,
,6973.0,1056.0,7942.0,1162.0,2107.0,1879.0,2769.0,2025-08-01 19:18:27,64.0,,0.131366683378507,0.0591182361331713,2.70835636619331,,-0.9423891927050202,,
,6971.0,1053.0,7943.0,1160.0,2090.0,1882.0,2767.0,2025-08-01 19:18:28,64.0,,0.131398833502204,0.0591690420050788,2.70898883793193,,-1.0754726116868452,,
,6970.0,1053.0,7940.0,1160.0,2085.0,1881.0,2759.0,2025-08-01 19:18:29,64.0,,0.131442496497449,0.0592460380151687,2.70976284781488,,-1.1975761869689232,,
,6967.0,1051.0,7937.0,1156.0,2091.0,1861.0,2751.0,2025-08-01 19:18:30,65.0,,0.131525860280539,0.05929474287032,2.71007575296897,,-1.3136436907682607,,
,6962.0,1050.0,7940.0,1155.0,2086.0,1860.0,2770.0,2025-08-01 19:18:31,65.0,,0.131563035624237,0.0593540386202251,2.7112134829643,,-1.426931312705309,,
,6954.0,1044.0,7933.0,1146.0,2090.0,1867.0,2779.0,2025-08-01 19:18:32,65.0,,0.131526014807862,0.0594377119354086,2.71199695756715,,-1.5389913022852268,,
,6944.0,1044.0,7932.0,1145.0,2089.0,1860.0,2777.0,2025-08-01 19:18:33,65.0,,0.131534324235861,0.0594422566717855,2.71259753430507,,-1.649822115461518,,
,6940.0,1044.0,7932.0,1141.0,2083.0,1853.0,2803.0,2025-08-01 19:18:34,65.0,,0.131575202834578,0.0594412144250979,2.71289390428324,,-1.758157481068703,,
,6932.0,1042.0,7929.0,1136.0,2083.0,1859.0,2785.0,2025-08-01 19:18:35,64.0,,0.131638205362443,0.0594594922691893,2.71356069409031,,-1.8618560032997573,,
,6925.0,1038.0,7927.0,1134.0,2072.0,1861.0,2781.0,2025-08-01 19:18:36,63.0,,0.131656991737358,0.059457089476009,2.71410915242673,,-1.9583447778120144,,
,6919.0,1039.0,7923.0,1131.0,2068.0,1859.0,2782.0,2025-08-01 19:18:37,63.0,,0.13162132108127,0.05937815912319,2.71381258462547,,-2.045066625378825,,
,6913.0,1039.0,7923.0,1134.0,2076.0,1879.0,2779.0,2025-08-01 19:18:38,62.0,,0.131571948839176,0.0593699919800129,2.71312225209772,,-2.11988247353784,,
,6906.0,1038.0,7917.0,1130.0,2082.0,1879.0,2778.0,2025-08-01 19:18:39,62.0,,0.131555039717678,0.0592947912232327,2.7116707872946,,-2.1813884708878932,,
,6902.0,1034.0,7914.0,1124.0,2075.0,1872.0,2793.0,2025-08-01 19:18:40,62.0,,0.13150847018019,0.0592331694912409,2.71138022863183,,-2.229120165060922,,
,6896.0,1033.0,7911.0,1125.0,2072.0,1862.0,2813.0,2025-08-01 19:18:41,61.0,,0.131410464320189,0.0591107938908173,2.71013530510689,,-2.2636309471452036,,
,6892.0,1036.0,7915.0,1125.0,2090.0,1850.0,2799.0,2025-08-01 19:18:42,61.0,,0.131310056014879,0.0589070329376706,2.70896379082694,,-2.2864464683967873,,
,6889.0,1037.0,7911.0,1122.0,2091.0,1858.0,2804.0,2025-08-01 19:18:43,61.0,,0.131275880787709,0.0588125759672147,2.70750200123718,,-2.2999092027004195,,
,6885.0,1036.0,7913.0,1122.0,2093.0,1855.0,2777.0,2025-08-01 19:18:44,61.0,,0.131190336343845,0.0587549365152506,2.70721608636204,,-2.306936908677816,,
,6882.0,1033.0,7908.0,1121.0,2090.0,1884.0,2777.0,2025-08-01 19:18:45,61.0,,0.131194444076348,0.0587598535143598,2.70716642664086,,-2.310725060604927,,
,6882.0,1033.0,7909.0,1122.0,2087.0,1887.0,2797.0,2025-08-01 19:18:46,61.0,,0.131193320827474,0.0587866222643129,2.70755065184907,,-2.314426282152988,,
,6880.0,1035.0,7909.0,1120.0,2101.0,1881.0,2781.0,2025-08-01 19:18:47,61.0,,0.131207196956908,0.0588138752478796,2.70787716298289,,-2.320839679998726,,
,6879.0,1034.0,7908.0,1119.0,2097.0,1874.0,2781.0,2025-08-01 19:18:48,61.0,,0.131268814456908,0.0588393560566121,2.70850989305617,,-2.3321403202057547,,
,6873.0,1032.0,7904.0,1118.0,2078.0,1880.0,2770.0,2025-08-01 19:18:49,61.0,,0.131221849558056,0.0587636998061859,2.70826258108094,,-2.349674626301561,,
,6875.0,1033.0,7908.0,1121.0,2079.0,1877.0,2784.0,2025-08-01 19:18:50,61.0,,0.131175551237386,0.0587339045750788,2.70732307287726,,-2.3738417342546394,,
,6872.0,1033.0,7909.0,1120.0,2103.0,1873.0,2762.0,2025-08-01 19:18:51,60.0,,0.131151146329188,0.0586554041374914,2.70659886161269,,-2.404074021295345,,
,6874.0,1034.0,7908.0,1121.0,2105.0,1870.0,2754.0,2025-08-01 19:18:52,60.0,,0.131042170188051,0.0585973563067227,2.70623030144149,,-2.438922079079139,,
,6870.0,1029.0,7906.0,1116.0,2087.0,1873.0,2765.0,2025-08-01 19:18:53,59.0,,0.131008273038132,0.05850926248262,2.70595475824168,,-2.4762402001733634,,
,6868.0,1033.0,7907.0,1118.0,2092.0,1867.0,2772.0,2025-08-01 19:18:54,59.0,,0.130912225113292,0.058387683319259,2.70429661964501,,-2.51345804835628,,
,6869.0,1034.0,7909.0,1120.0,2088.0,1865.0,2791.0,2025-08-01 19:18:55,59.0,,0.130840732790896,0.0582681064307676,2.70270333453101,,-2.547913200773735,,
,6866.0,1033.0,7907.0,1118.0,2085.0,1863.0,2798.0,2025-08-01 19:18:56,58.0,,0.1308111927751,0.0582062662749094,2.70214838078534,,-2.5772092165349587,,
,6867.0,1031.0,7906.0,1119.0,2065.0,1867.0,2780.0,2025-08-01 19:18:57,58.0,,0.130797269106964,0.0581496872112006,2.70238230580939,,-2.5995571243139515,,
,6865.0,1030.0,7904.0,1117.0,2065.0,1861.0,2772.0,2025-08-01 19:18:58,58.0,,0.1307640295791,0.058129447787608,2.7021739028468,,-2.614056868449862,,
,6864.0,1032.0,7904.0,1119.0,2083.0,1853.0,2787.0,2025-08-01 19:18:59,57.0,,0.130817810536538,0.0581767256964913,2.70244185523535,,-2.6208800698716646,,
,6863.0,1031.0,7905.0,1121.0,2096.0,1857.0,2804.0,2025-08-01 19:19:00,57.0,,0.13089391376765,0.05823435055266,2.70385609801127,,-2.621325511920167,,
,6863.0,1034.0,7906.0,1118.0,2092.0,1850.0,2800.0,2025-08-01 19:19:01,57.0,,0.130875701419189,0.0582829550252516,2.70341967084868,,-2.617732132799806,,
,6859.0,1030.0,7907.0,1118.0,2082.0,1859.0,2793.0,2025-08-01 19:19:02,58.0,,0.130929798336487,0.0583184777243794,2.70476077494255,,-2.6132490080784896,,
,6862.0,1033.0,7909.0,1121.0,2082.0,1871.0,2788.0,2025-08-01 19:19:03,58.0,,0.130920099505645,0.0583179137251704,2.70522889749775,,-2.611476268319246,,
,6859.0,1031.0,7906.0,1120.0,2084.0,1870.0,2786.0,2025-08-01 19:19:04,58.0,,0.130974023067395,0.0583604281007846,2.70537473818566,,-2.6160039972338884,,
,6862.0,1032.0,7907.0,1120.0,2072.0,1872.0,2783.0,2025-08-01 19:19:05,58.0,,0.130966775572529,0.0583827541239113,2.7051798201361,,-2.6298870476318723,,
,6860.0,1031.0,7906.0,1119.0,2091.0,1871.0,2818.0,2025-08-01 19:19:06,58.0,,0.130986920378008,0.0584060737190741,2.70524454770914,,-2.655101703443363,,
,6860.0,1034.0,7909.0,1118.0,2077.0,1862.0,2819.0,2025-08-01 19:19:07,57.0,,0.130960381657452,0.0584129503696589,2.70545912713819,,-2.6920347061580916,,
,6859.0,1032.0,7908.0,1120.0,2071.0,1853.0,2796.0,2025-08-01 19:19:08,57.0,,0.13096140125636,0.0583646930173199,2.70524056755342,,-2.739056101941036,,
,6859.0,1033.0,7906.0,1121.0,2086.0,1859.0,2786.0,2025-08-01 19:19:09,57.0,,0.130942714883709,0.0583403983462387,2.70502499941043,,-2.7922245602216798,,
,6858.0,1033.0,7908.0,1117.0,2094.0,1871.0,2792.0,2025-08-01 19:19:10,57.0,,0.130940520628055,0.0583856740152067,2.70590426788631,,-2.8451671666906773,,
,6859.0,1032.0,7905.0,1118.0,2080.0,1872.0,2811.0,2025-08-01 19:19:11,57.0,,0.131043143472362,0.0583938211234224,2.70593962957708,,-2.8891650590778286,,
,6858.0,1033.0,7907.0,1119.0,2080.0,1874.0,2825.0,2025-08-01 19:19:12,57.0,,0.130973497695959,0.0583865993017132,2.70631339071369,,-2.9134616307154735,,
,6859.0,1032.0,7909.0,1120.0,2068.0,1874.0,2820.0,2025-08-01 19:19:13,58.0,,0.130965980928201,0.0583412198517019,2.70492200472162,,-2.9057917199673624,,
,6856.0,1031.0,7905.0,1119.0,2084.0,1854.0,2795.0,2025-08-01 19:19:14,59.0,,0.130959152448843,0.0583952734799746,2.70608234386675,,-2.8531091488498843,,
,6852.0,1029.0,7905.0,1118.0,2072.0,1879.0,2779.0,2025-08-01 19:19:15,60.0,,0.131027597946955,0.0584325588668953,2.70720754682398,,-2.7424678831554155,,
,6853.0,1031.0,7906.0,1120.0,2074.0,1856.0,2771.0,2025-08-01 19:19:16,61.0,,0.131083449016651,0.0585376460859895,2.70816588127119,,-2.5619917356753605,,
,6853.0,1030.0,7909.0,1119.0,2085.0,1860.0,2789.0,2025-08-01 19:19:17,62.0,,0.13114639825887,0.0585735856704945,2.70851748523464,,-2.3018526480020465,,
,6854.0,1029.0,7908.0,1119.0,2071.0,1860.0,2795.0,2025-08-01 19:19:18,63.0,,0.131112766190935,0.0585453891141947,2.70838618980879,,-1.955171804419387,,
,6850.0,1031.0,7905.0,1117.0,2074.0,1869.0,2784.0,2025-08-01 19:19:19,63.0,,0.131033143823117,0.058416659753923,2.70777792691875,,-1.5187630973641941,,
,6854.0,1031.0,7909.0,1117.0,2081.0,1859.0,2774.0,2025-08-01 19:19:20,63.0,,0.130922388890534,0.058282613994088,2.70597453880447,,-0.9936539774186063,,
,6853.0,1030.0,7907.0,1119.0,2086.0,1857.0,2783.0,2025-08-01 19:19:21,62.0,,0.130844755823501,0.058112017882962,2.70390800824133,,-0.3853412178203443,,
,6852.0,1030.0,7908.0,1120.0,2090.0,1856.0,2780.0,2025-08-01 19:19:22,62.0,,0.13073972400871,0.0580098024682579,2.70293988318126,,0.29623575397959934,,
,6849.0,1030.0,7904.0,1116.0,2073.0,1857.0,2790.0,2025-08-01 19:19:23,62.0,,0.130674926128109,0.0579400854424474,2.70161515759352,,1.0369974311017152,,
,6852.0,1031.0,7908.0,1118.0,2066.0,1844.0,2817.0,2025-08-01 19:19:24,63.0,,0.130617324841015,0.0578127471881256,2.70137039152394,,1.8192760318305499,,
,6851.0,1031.0,7907.0,1117.0,2081.0,1854.0,2798.0,2025-08-01 19:19:25,63.0,,0.130503560168166,0.0576863330464622,2.70003548057836,,2.622574554068273,,
,6854.0,1028.0,7908.0,1120.0,2085.0,1855.0,2806.0,2025-08-01 19:19:26,63.0,,0.130445692798407,0.0575808479953592,2.69904049077033,,3.424480955071157,,
,6852.0,1032.0,7911.0,1121.0,2089.0,1860.0,2798.0,2025-08-01 19:19:27,63.0,,0.130354988637236,0.0573911100595477,2.69654744838239,,4.201680218429764,,
,6852.0,1032.0,7907.0,1120.0,2092.0,1867.0,2796.0,2025-08-01 19:19:28,62.0,,0.130202289234854,0.0571732351737572,2.69360645684835,,4.931006437387155,,
,6853.0,1032.0,7911.0,1125.0,2103.0,1874.0,2778.0,2025-08-01 19:19:29,62.0,,0.130005906176802,0.0569569823403884,2.68971168196059,,5.590479878127811,,
,6855.0,1032.0,7910.0,1123.0,2099.0,1860.0,2786.0,2025-08-01 19:19:30,61.0,,0.129849507298995,0.0566639466699106,2.6862983049417,,6.160279006986424,,
,6856.0,1035.0,7913.0,1120.0,2094.0,1874.0,2793.0,2025-08-01 19:19:31,61.0,,0.129609543129418,0.0564044747255374,2.68256224674073,,6.623603561987531,,
,6857.0,1033.0,7912.0,1122.0,2078.0,1859.0,2782.0,2025-08-01 19:19:32,61.0,,0.129425190357585,0.0560999199589595,2.67840709356402,,6.967391377150678,,
,6861.0,1033.0,7914.0,1124.0,2064.0,1848.0,2785.0,2025-08-01 19:19:33,62.0,,0.129306894336151,0.0557412229508655,2.6765510456828,,7.1828588036256,,
,6861.0,1034.0,7914.0,1128.0,2081.0,1868.0,2802.0,2025-08-01 19:19:34,63.0,,0.129184663552702,0.0554717327968866,2.6747005132562,,7.265842206474482,,
,6863.0,1034.0,7915.0,1123.0,2087.0,1859.0,2805.0,2025-08-01 19:19:35,63.0,,0.12909486637823,0.0554235936900902,2.67389615524095,,7.216925690220519,,
,6864.0,1034.0,7913.0,1126.0,2091.0,1846.0,2810.0,2025-08-01 19:19:36,63.0,,0.129074569755411,0.0553766746595768,2.6722553601607,,7.041347187666869,,
,6864.0,1034.0,7915.0,1128.0,2104.0,1853.0,2804.0,2025-08-01 19:19:37,63.0,,0.12902256039815,0.0553541486313745,2.67106643661331,,6.7486813177966685,,
,6867.0,1033.0,7916.0,1130.0,2080.0,1851.0,2795.0,2025-08-01 19:19:38,63.0,,0.129013004934614,0.0552774709925641,2.67010090689294,,6.352304708327974,,
,6868.0,1036.0,7918.0,1127.0,2082.0,1860.0,2819.0,2025-08-01 19:19:39,63.0,,0.129005315060384,0.0554077286909004,2.67088299541369,,5.86866082995922,,
,6870.0,1037.0,7916.0,1129.0,2097.0,1857.0,2799.0,2025-08-01 19:19:40,62.0,,0.129141468384185,0.0556479457700932,2.67160754886577,,5.31635873026604,,
,6873.0,1035.0,7916.0,1129.0,2079.0,1876.0,2801.0,2025-08-01 19:19:41,61.0,,0.129128375141384,0.0557137751983246,2.67230711905785,,4.7151615133922,,
,6876.0,1036.0,7921.0,1129.0,2065.0,1873.0,2805.0,2025-08-01 19:19:42,60.0,,0.129186356719538,0.0558556242442401,2.67367711641256,,4.0849399547995775,,
,6878.0,1037.0,7919.0,1133.0,2069.0,1873.0,2806.0,2025-08-01 19:19:43,59.0,,0.12932965440688,0.0561942407103978,2.67541866916127,,3.4446768715427667,,
,6878.0,1038.0,7921.0,1133.0,2086.0,1883.0,2800.0,2025-08-01 19:19:44,58.0,,0.129439814327949,0.0563356958328443,2.67698299060938,,2.811604128196774,,
,6882.0,1035.0,7920.0,1132.0,2088.0,1875.0,2807.0,2025-08-01 19:19:45,57.0,,0.129511530414287,0.0563873062712022,2.67731249236983,,2.2005368357881143,,
,6884.0,1038.0,7922.0,1133.0,2103.0,1867.0,2813.0,2025-08-01 19:19:46,57.0,,0.12953373602894,0.0565114848533903,2.67846704235296,,1.6234429202585003,,
,6884.0,1039.0,7922.0,1134.0,2088.0,1853.0,2806.0,2025-08-01 19:19:47,57.0,,0.129619251660105,0.0566156502534323,2.67932060865807,,1.089256792046663,,
,6886.0,1039.0,7923.0,1136.0,2088.0,1850.0,2814.0,2025-08-01 19:19:48,57.0,,0.129704184951321,0.0566689368126556,2.68097468759554,,0.6039186397287309,,
,6885.0,1038.0,7921.0,1136.0,2075.0,1867.0,2795.0,2025-08-01 19:19:49,57.0,,0.129693168306524,0.0567282148263488,2.68126700488479,,0.17059963146822585,,
,6891.0,1042.0,7926.0,1138.0,2083.0,1878.0,2774.0,2025-08-01 19:19:50,57.0,,0.129708273125698,0.0566605619214164,2.68102295790148,,-0.20993986160257005,,
,6892.0,1041.0,7927.0,1141.0,2092.0,1876.0,2788.0,2025-08-01 19:19:51,57.0,,0.129649800893467,0.056594409015194,2.68013913297619,,-0.5389163698931361,,
,6897.0,1039.0,7926.0,1141.0,2075.0,1872.0,2783.0,2025-08-01 19:19:52,57.0,,0.129610134117986,0.0565542692752861,2.67977492301629,,-0.8190674754969947,,
,6897.0,1040.0,7927.0,1138.0,2075.0,1868.0,2803.0,2025-08-01 19:19:53,57.0,,0.129586404418149,0.0566139732091146,2.67968036810811,,-1.0542176081730539,,
,6898.0,1041.0,7926.0,1141.0,2066.0,1877.0,2803.0,2025-08-01 19:19:54,57.0,,0.129645451541261,0.0566068174705002,2.68071569535759,,-1.2488949197749546,,
,6905.0,1042.0,7928.0,1140.0,2073.0,1886.0,2780.0,2025-08-01 19:19:55,57.0,,0.129670312369252,0.0566555916114817,2.68102356545453,,-1.408013549696481,,
,6905.0,1041.0,7930.0,1143.0,2073.0,1880.0,2798.0,2025-08-01 19:19:56,56.0,,0.129708242459017,0.0566882292391973,2.68090241571225,,-1.5366227468292637,,
,6905.0,1040.0,7928.0,1143.0,2073.0,1867.0,2815.0,2025-08-01 19:19:57,57.0,,0.129695231270167,0.0567075864356011,2.68187796579299,,-1.6397160248590898,,
,6908.0,1041.0,7931.0,1144.0,2086.0,1862.0,2802.0,2025-08-01 19:19:58,57.0,,0.129745406351412,0.0567102473084571,2.68133810255487,,-1.7220902035561747,,
,6913.0,1044.0,7933.0,1144.0,2079.0,1866.0,2788.0,2025-08-01 19:19:59,57.0,,0.129753773875006,0.056738274098647,2.68226497317894,,-1.7882444531854191,,
2025-08-01 19:17:24,6915.0,1042.0,7933.0,1147.0,2076.0,1862.0,2787.0,2025-08-01 19:20:00,57.0,2025/08/01 07:17:24 PM,0.129788027420012,0.056811339428527,2.68273092007536,,-1.842311262123644,,
,6918.0,1046.0,7933.0,1148.0,2078.0,1866.0,2816.0,2025-08-01 19:20:01,58.0,,0.129850514185662,0.0568789791911699,2.68337016358041,,-1.888013014602892,,
,6917.0,1043.0,7935.0,1148.0,2093.0,1856.0,2828.0,2025-08-01 19:20:02,59.0,,0.129815198917111,0.0568457083794714,2.68291784618358,,-1.9286389311956298,,
,6923.0,1043.0,7933.0,1149.0,2065.0,1858.0,2797.0,2025-08-01 19:20:03,59.0,,0.12972895858262,0.0567248312251801,2.68202928906766,,-1.9670375082917584,,
,6923.0,1044.0,7937.0,1150.0,2068.0,1874.0,2793.0,2025-08-01 19:20:04,60.0,,0.129720601439345,0.0566664477832461,2.68109777267499,,-2.005619586058223,,
,6924.0,1045.0,7939.0,1151.0,2074.0,1867.0,2788.0,2025-08-01 19:20:05,60.0,,0.129657654527787,0.0566359084024881,2.68052766452291,,-2.0463671061889595,,
,6926.0,1046.0,7938.0,1152.0,2074.0,1860.0,2797.0,2025-08-01 19:20:06,60.0,,0.129673616518587,0.0565989988828134,2.68060750554852,,-2.090842816502493,,
,6930.0,1047.0,7938.0,1152.0,2073.0,1870.0,2786.0,2025-08-01 19:20:07,60.0,,0.129672797757272,0.0566091324482262,2.68083106755403,,-2.14019691773128,,
,6933.0,1047.0,7937.0,1153.0,2092.0,1871.0,2781.0,2025-08-01 19:20:08,60.0,,0.129686903175219,0.0566945615423719,2.68092127014012,,-2.1951680411545773,,
,6935.0,1049.0,7941.0,1155.0,2102.0,1868.0,2778.0,2025-08-01 19:20:09,60.0,,0.129714305302997,0.0567115749309744,2.68104629162088,,-2.2560778543580855,,
,6936.0,1046.0,7940.0,1155.0,2103.0,1882.0,2805.0,2025-08-01 19:20:10,60.0,,0.129823022160297,0.0568452269136472,2.68261170565555,,-2.3228206352927696,,
,6939.0,1047.0,7941.0,1155.0,2091.0,1879.0,2763.0,2025-08-01 19:20:11,61.0,,0.129888360685471,0.0569222085795653,2.68305850810544,,-2.3948507741075953,,
,6940.0,1050.0,7944.0,1159.0,2080.0,1884.0,2769.0,2025-08-01 19:20:12,62.0,,0.129913620459681,0.0569198875395657,2.68367581988598,,-2.471171739003259,,
,6945.0,1051.0,7944.0,1158.0,2078.0,1886.0,2772.0,2025-08-01 19:20:13,63.0,,0.129856985745064,0.0568383947271839,2.68193798927019,,-2.5503291465557627,,
,6948.0,1048.0,7943.0,1159.0,2096.0,1879.0,2805.0,2025-08-01 19:20:14,63.0,,0.129757640849667,0.0567636724922913,2.68173137213673,,-2.6304083766932886,,
,6948.0,1049.0,7944.0,1159.0,2109.0,1873.0,2822.0,2025-08-01 19:20:15,62.0,,0.129676731993429,0.0566961172291826,2.68002503583355,,-2.7090347484236093,,
,6951.0,1052.0,7945.0,1161.0,2100.0,1872.0,2804.0,2025-08-01 19:20:16,62.0,,0.129617219967767,0.0565796693663199,2.67912034328238,,-2.78337333058885,,
,6955.0,1051.0,7946.0,1161.0,2108.0,1871.0,2804.0,2025-08-01 19:20:17,62.0,,0.12953855809957,0.0564952681568503,2.67738861921296,,-2.8501272965627282,,
,6959.0,1050.0,7949.0,1161.0,2102.0,1872.0,2825.0,2025-08-01 19:20:18,62.0,,0.129431017212567,0.0563781586959041,2.67652164774972,,-2.9055382000001297,,
,6960.0,1049.0,7948.0,1162.0,2092.0,1867.0,2811.0,2025-08-01 19:20:19,62.0,,0.129438066658995,0.0563128146209041,2.67638518744234,,-2.945397046557479,,
,6966.0,1052.0,7953.0,1162.0,2089.0,1857.0,2797.0,2025-08-01 19:20:20,61.0,,0.129528438516261,0.0563669462920137,2.67606697721969,,-2.965079430667088,,
,6966.0,1054.0,7951.0,1164.0,2088.0,1872.0,2774.0,2025-08-01 19:20:21,61.0,,0.129531542784696,0.0564038342751043,2.67667134786063,,-2.9596195943303845,,
,6969.0,1052.0,7952.0,1166.0,2097.0,1880.0,2781.0,2025-08-01 19:20:22,61.0,,0.129636776915708,0.0565846573131193,2.67737175421711,,-2.923836205244299,,
,6971.0,1054.0,7953.0,1166.0,2099.0,1873.0,2805.0,2025-08-01 19:20:23,61.0,,0.129710119663187,0.0566688495031613,2.67984026099166,,-2.852516987976974,,
,6971.0,1054.0,7952.0,1168.0,2098.0,1872.0,2779.0,2025-08-01 19:20:24,61.0,,0.129793145672064,0.0567927571341239,2.68089096462838,,-2.74066084654897,,
,6977.0,1056.0,7955.0,1168.0,2096.0,1881.0,2794.0,2025-08-01 19:20:25,61.0,,0.129885621571817,0.0569251285134164,2.6819167599331,,-2.5837661020916665,,
,6976.0,1054.0,7955.0,1166.0,2107.0,1875.0,2788.0,2025-08-01 19:20:26,62.0,,0.130008258900589,0.0570664390445971,2.68429000095543,,-2.3781436796381983,,
,6975.0,1052.0,7955.0,1167.0,2103.0,1870.0,2762.0,2025-08-01 19:20:27,62.0,,0.130122845641524,0.0572833289922367,2.68641247045565,,-2.121226595635855,,
,6973.0,1052.0,7954.0,1161.0,2089.0,1859.0,2771.0,2025-08-01 19:20:28,62.0,,0.130221394975536,0.0574556836949032,2.68890783543479,,-1.8118440368792361,,
,6971.0,1053.0,7953.0,1162.0,2093.0,1842.0,2790.0,2025-08-01 19:20:29,62.0,,0.130365964371294,0.0576246536546847,2.69122065271222,,-1.450431193236202,,
,6966.0,1050.0,7951.0,1159.0,2097.0,1860.0,2803.0,2025-08-01 19:20:30,62.0,,0.130461936279982,0.0577288068074386,2.69233676368617,,-1.0391549184899458,,
,6960.0,1047.0,7949.0,1155.0,2102.0,1864.0,2799.0,2025-08-01 19:20:31,61.0,,0.130455817832775,0.0577342587043713,2.69218920406651,,-0.5819484268406522,,
,6952.0,1046.0,7944.0,1150.0,2093.0,1864.0,2778.0,2025-08-01 19:20:32,61.0,,0.130453046835544,0.0576965823378937,2.69215847662708,,-0.08446209787352417,,
,6949.0,1042.0,7945.0,1144.0,2075.0,1871.0,2787.0,2025-08-01 19:20:33,60.0,,0.13040884510221,0.0576610981892182,2.69201806809928,,0.44605194721708874,,
,6943.0,1044.0,7945.0,1145.0,2092.0,1872.0,2799.0,2025-08-01 19:20:34,59.0,,0.130366263759862,0.0576434816261054,2.69213117858921,,1.00089949667591,,
,6939.0,1041.0,7942.0,1143.0,2093.0,1864.0,2792.0,2025-08-01 19:20:35,59.0,,0.130386806001402,0.0575298538750991,2.69256212195068,,1.5701288004579763,,
,6929.0,1043.0,7939.0,1140.0,2058.0,1852.0,2801.0,2025-08-01 19:20:36,59.0,,0.130320618132312,0.0575041288585841,2.69126362500992,,2.1427287502645345,,
,6924.0,1039.0,7938.0,1134.0,2080.0,1849.0,2800.0,2025-08-01 19:20:37,60.0,,0.130337379153721,0.057461879141263,2.69148032534952,,2.706839763273536,,
,6919.0,1039.0,7935.0,1132.0,2109.0,1860.0,2803.0,2025-08-01 19:20:38,60.0,,0.130362773402642,0.0575455236699152,2.69200099542047,,3.249985986534688,,
,6913.0,1037.0,7931.0,1134.0,2111.0,1863.0,2790.0,2025-08-01 19:20:39,61.0,,0.13038685133992,0.0575757607651846,2.6938765673459,,3.7593438977060436,,
,6909.0,1036.0,7928.0,1132.0,2084.0,1860.0,2792.0,2025-08-01 19:20:40,61.0,,0.130448601405091,0.0576964019704279,2.69441439405936,,4.222064336756612,,
,6902.0,1036.0,7929.0,1128.0,2076.0,1856.0,2767.0,2025-08-01 19:20:41,60.0,,0.130549321470959,0.0577371603394928,2.69563566681682,,4.625661690195464,,
,6902.0,1036.0,7928.0,1129.0,2076.0,1876.0,2766.0,2025-08-01 19:20:42,59.0,,0.130476477748144,0.0577392768746141,2.69564956391262,,4.958475286889941,,
,6900.0,1036.0,7926.0,1125.0,2073.0,1857.0,2772.0,2025-08-01 19:20:43,58.0,,0.130576730165045,0.0577848207189102,2.69693814318166,,5.210194891080589,,
,6898.0,1036.0,7926.0,1127.0,2094.0,1858.0,2776.0,2025-08-01 19:20:44,58.0,,0.130586390714742,0.0579327163776321,2.69785210810526,,5.372426328428106,,
,6894.0,1034.0,7922.0,1123.0,2108.0,1876.0,2797.0,2025-08-01 19:20:45,58.0,,0.130698208742737,0.0580169044165538,2.69879782503215,,5.439257360367177,,
,6892.0,1035.0,7921.0,1124.0,2100.0,1873.0,2790.0,2025-08-01 19:20:46,58.0,,0.130794045644782,0.0582007166548085,2.70054174168714,,5.407770821620296,,
,6891.0,1035.0,7924.0,1124.0,2084.0,1898.0,2748.0,2025-08-01 19:20:47,59.0,,0.130988097634642,0.0584638640526049,2.70275519670599,,5.278444411356322,,
,6889.0,1037.0,7924.0,1126.0,2094.0,1894.0,2757.0,2025-08-01 19:20:48,59.0,,0.13106904504849,0.0586291690447237,2.70511702330449,,5.055376493465005,,
,6886.0,1034.0,7921.0,1124.0,2082.0,1867.0,2788.0,2025-08-01 19:20:49,59.0,,0.131185182393889,0.0587880321975258,2.70775390049789,,4.746286273001941,,
,6886.0,1034.0,7921.0,1124.0,2107.0,1878.0,2788.0,2025-08-01 19:20:50,59.0,,0.131351622617362,0.059000970767712,2.70938460075138,,4.3622552900940725,,
,6887.0,1037.0,7922.0,1125.0,2096.0,1873.0,2797.0,2025-08-01 19:20:51,59.0,,0.131512235857191,0.0592161974733579,2.71244361388138,,3.9172041878853308,,
,6885.0,1034.0,7924.0,1125.0,2101.0,1868.0,2785.0,,,,0.131750188236429,0.059547761266217,2.71608732757627,,3.4271307893421867,,
,6885.0,1035.0,7919.0,1124.0,2132.0,1858.0,2763.0,,,,0.131946739442571,0.0598401599599163,2.72008707499539,,2.909167336457689,,
,6880.0,1032.0,7920.0,1122.0,2123.0,1840.0,2785.0,,,,0.132174831155296,0.060147759658034,2.72385657146573,,2.3805403850845406,,
,6881.0,1032.0,7921.0,1124.0,2082.0,1856.0,2801.0,,,,0.132268755393935,0.0603148994587667,2.72642892902194,,1.8575313917486262,,
,6882.0,1033.0,7924.0,1124.0,2086.0,1878.0,2799.0,,,,0.132390913825281,0.0604912258496298,2.72854742006748,,1.3545367458994821,,
,6884.0,1033.0,7924.0,1125.0,2087.0,1868.0,2819.0,,,,0.132443499837305,0.0605235646844414,2.72915403327942,,0.8833129779588955,,
,6880.0,1033.0,7923.0,1122.0,2090.0,1842.0,2783.0,,,,0.132490364981622,0.0606542293661189,2.73061677932311,,0.45246895237331425,,
,6881.0,1037.0,7924.0,1122.0,2101.0,1827.0,2782.0,,,,0.132676177293006,0.0608641124320562,2.73366335281034,,0.06723676354897977,,
,6879.0,1036.0,7924.0,1125.0,2084.0,1853.0,2771.0,,,,0.132738834983937,0.0610406629007016,2.73517258978094,,-0.27047798281928226,,
,6880.0,1034.0,7924.0,1124.0,2092.0,1853.0,2791.0,,,,0.132794429556513,0.0611016970166529,2.73602045812398,,-0.5617933854572685,,
,6879.0,1032.0,7922.0,1124.0,2089.0,1853.0,2813.0,,,,0.132925280339515,0.0612111148721137,2.73843413388177,,-0.8103440712902562,,
,6880.0,1035.0,7923.0,1124.0,2083.0,1850.0,2797.0,,,,0.132982549136628,0.0613095985975786,2.73939539645985,,-1.0216313496755751,,
,6879.0,1036.0,7925.0,1125.0,2093.0,1857.0,2806.0,,,,0.133079371865005,0.0614625910115314,2.74152798768832,,-1.2022983749510336,,
,6878.0,1034.0,7925.0,1125.0,2092.0,1871.0,2800.0,,,,0.133136642994185,0.0615513832981452,2.74320746904906,,-1.3593971503462945,,
,6879.0,1032.0,7922.0,1125.0,2097.0,1853.0,2790.0,,,,0.133166146735607,0.0615567879569402,2.74304422726959,,-1.4997079795692942,,
,6878.0,1034.0,7923.0,1123.0,2085.0,1862.0,2781.0,,,,0.13315073360587,0.061527730608624,2.74309583283636,,-1.6291619427714785,,
,6879.0,1035.0,7925.0,1124.0,2095.0,1861.0,2811.0,,,,0.133175238540079,0.0615713767837578,2.74363474909324,,-1.7524045323141082,,
,6876.0,1035.0,7926.0,1126.0,2118.0,1854.0,2828.0,,,,0.133205998769708,0.061610703849996,2.74427396541105,,-1.872524786491761,,
,6874.0,1034.0,7925.0,1123.0,2125.0,1859.0,2803.0,,,,0.133232949133158,0.0616894676885073,2.74458907566472,,-1.990959836962229,,
,6874.0,1032.0,7923.0,1122.0,2116.0,1861.0,2813.0,,,,0.133190322387221,0.061612271010422,2.743565604669,,-2.107570233323066,,
,6873.0,1033.0,7923.0,1123.0,2105.0,1872.0,2788.0,,,,0.13304062278758,0.0613959636722535,2.74116046364191,,-2.220867189048439,,
,6874.0,1033.0,7925.0,1124.0,2104.0,1852.0,2787.0,,,,0.132944577900808,0.0611904350483336,2.73940531060266,,-2.328359794062395,,
,6868.0,1033.0,7923.0,1123.0,2106.0,1852.0,2788.0,,,,0.132962545077734,0.0612709544593664,2.74040076815361,,-2.426979706437171,,
,6869.0,1032.0,7921.0,1123.0,2099.0,1876.0,2794.0,,,,0.133127145101022,0.0616050257415702,2.74343841505509,,-2.513534836995075,,
,6870.0,1031.0,7925.0,1122.0,2088.0,1868.0,2812.0,,,,0.133239520904761,0.0618025490201349,2.7458947206657,,-2.585143666900607,,
,6872.0,1034.0,7923.0,1123.0,2093.0,1852.0,2766.0,,,,0.13341921598144,0.0619512347519897,2.74841370679559,,-2.6396081906405566,,
,6869.0,1032.0,7922.0,1124.0,2103.0,1854.0,2770.0,,,,0.133569186689424,0.0622804461516742,2.75082067387788,,-2.675694421247874,,
,6865.0,1032.0,7924.0,1121.0,2120.0,1831.0,2762.0,,,,0.133699943848911,0.0624437321338478,2.75276795227673,,-2.693302429032262,,
,6865.0,1035.0,7925.0,1121.0,2122.0,1852.0,2753.0,,,,0.133666136302502,0.0624365433789423,2.75338603003768,,-2.6935207119131697,,
,6866.0,1032.0,7924.0,1123.0,2127.0,1869.0,2772.0,,,,0.133717351335919,0.0624776983649345,2.7533800599227,,-2.678570745164173,,
,6864.0,1031.0,7924.0,1123.0,2113.0,1856.0,2793.0,,,,0.133724226068347,0.062434157174886,2.75317496573795,,-2.651656022593389,,
,6864.0,1032.0,7926.0,1124.0,2102.0,1850.0,2800.0,,,,0.133766253937782,0.0624276912401906,2.75340883672769,,-2.6167355559054277,,
,6863.0,1034.0,7923.0,1120.0,2116.0,1877.0,2785.0,,,,0.133757428689923,0.0624215806447756,2.75355850594256,,-2.57824476757828,,
,6867.0,1035.0,7922.0,1122.0,2101.0,1861.0,2769.0,,,,0.133722693846269,0.0623988432929837,2.75329486514287,,-2.5407873097706095,,
,6867.0,1033.0,7926.0,1121.0,2092.0,1861.0,2777.0,,,,0.133776017512834,0.0623441352881004,2.75340042183361,,-2.5088200461639727,,
,6865.0,1032.0,7927.0,1122.0,2095.0,1853.0,2779.0,,,,0.133719643217708,0.0622567413907982,2.75258084343438,,-2.4863508657635314,,
,6866.0,1032.0,7923.0,1122.0,2084.0,1867.0,2771.0,,,,0.13365331484494,0.0622340683472948,2.75084110423978,,-2.476665804207631,,
,6867.0,1034.0,7925.0,1127.0,2089.0,1856.0,2789.0,,,,0.133658368786761,0.0622469463777069,2.75124856738521,,-2.482098633519569,,
,6868.0,1036.0,7929.0,1126.0,2095.0,1855.0,2778.0,,,,0.133717790114248,0.0623637643421927,2.75211416504753,,-2.503852876256812,,
,6870.0,1035.0,7926.0,1127.0,2105.0,1864.0,2777.0,,,,0.133809579062957,0.0625719477234009,2.7544678383443,,-2.5418830319925227,,
,6871.0,1034.0,7930.0,1128.0,2112.0,1877.0,2775.0,,,,0.133934842484504,0.0627527943219017,2.7556773824658,,-2.594838403400186,,
,6872.0,1033.0,7926.0,1126.0,2111.0,1859.0,2799.0,,,,0.134005752315016,0.0627579454093546,2.7559028033672,,-2.6600690618039415,,
,6875.0,1034.0,7929.0,1127.0,2119.0,1868.0,2797.0,,,,0.133998205989743,0.0627932590686902,2.75615646715331,,-2.7336894090485067,,
,6875.0,1036.0,7928.0,1129.0,2124.0,1869.0,2805.0,,,,0.134116845338789,0.0630178925609759,2.75821675307036,,-2.810691373714949,,
,6878.0,1037.0,7930.0,1128.0,2109.0,1873.0,2801.0,,,,0.134263963785422,0.0633153531491096,2.7608598532821,,-2.8850978101117866,,
,6877.0,1034.0,7927.0,1129.0,2120.0,1874.0,2785.0,,,,0.134419705566761,0.0635758390074546,2.7626917751699,,-2.950147873371541,,
,6879.0,1036.0,7928.0,1131.0,2100.0,1850.0,2789.0,,,,0.134514329600719,0.0638679500129303,2.76584176389797,,-2.998509416358579,,
,6881.0,1038.0,7930.0,1132.0,2100.0,1864.0,2780.0,,,,0.134665999337208,0.0641940528469301,2.76781899287523,,-3.022517080955966,,
,6885.0,1039.0,7932.0,1133.0,2086.0,1865.0,2800.0,,,,0.134832092085943,0.0644750542574488,2.77072519993707,,-3.0144368955545464,,
,6884.0,1036.0,7930.0,1133.0,2098.0,1868.0,2782.0,,,,0.134967146594927,0.0646777410518744,2.77329042841509,,-2.9667577162200263,,
,6886.0,1036.0,7931.0,1132.0,2088.0,1862.0,2789.0,,,,0.135050744189833,0.0648328999166971,2.77485591506467,,-2.8725065896151083,,
,6892.0,1038.0,7934.0,1136.0,2104.0,1854.0,2773.0,,,,0.135119817788331,0.0648703377871869,2.77554894240708,,-2.725579653453731,,
,6891.0,1038.0,7935.0,1134.0,2111.0,1862.0,2784.0,,,,0.135087232063455,0.0649684277997692,2.77605398379558,,-2.5210736529143256,,
,6894.0,1038.0,7934.0,1136.0,2089.0,1888.0,2773.0,,,,0.135088425450081,0.0650012812224129,2.77620734328427,,-2.255597190254326,,
,6891.0,1040.0,7935.0,1135.0,2079.0,1866.0,2780.0,,,,0.13511687191288,0.0650157143820117,2.77666682730956,,-1.927537509598522,,
,6897.0,1040.0,7937.0,1139.0,2101.0,1882.0,2771.0,,,,0.135139749436723,0.0650262961190301,2.77697533813774,,-1.5372599058482934,,
,6898.0,1039.0,7936.0,1137.0,2115.0,1879.0,2768.0,,,,0.135169435439934,0.06508559582727,2.77721655541965,,-1.0872236335202619,,
,6899.0,1040.0,7939.0,1139.0,2122.0,1875.0,2775.0,,,,0.135224796124295,0.0651640734930004,2.77729039011164,,-0.5820093526728318,,
,6899.0,1039.0,7936.0,1139.0,2121.0,1881.0,2770.0,,,,0.135228267922243,0.0651465422058595,2.77817501004671,,-0.028265332569096295,,
,6903.0,1039.0,7937.0,1140.0,2110.0,1892.0,2779.0,,,,0.135368579703202,0.0653389023158949,2.77995414102364,,0.5654114891077237,,
,6906.0,1042.0,7942.0,1143.0,2111.0,1885.0,2776.0,,,,0.135436182337065,0.065567464057798,2.78263040447646,,1.1886411288465584,,
,6907.0,1043.0,7938.0,1143.0,2108.0,1875.0,2772.0,,,,0.135481543249421,0.0655760366225171,2.78236252071178,,1.8294592758413974,,
,6908.0,1041.0,7939.0,1143.0,2122.0,1872.0,2774.0,,,,0.13558323407793,0.0657831376359528,2.78533239368463,,2.4745458177496413,,
,6908.0,1040.0,7939.0,1143.0,2105.0,1882.0,2774.0,,,,0.135639543486507,0.0659875005459122,2.78661840731811,,3.1094918170265755,,
,6911.0,1043.0,7939.0,1143.0,2110.0,1875.0,2777.0,,,,0.135763417614559,0.0662620817134963,2.78920447635793,,3.719122539474499,,
,6911.0,1044.0,7942.0,1145.0,2108.0,1875.0,2786.0,,,,0.13589234377777,0.0664796754954352,2.79088641881661,,4.2878965149583985,,
,6915.0,1044.0,7940.0,1143.0,2087.0,1855.0,2784.0,,,,0.135971984535553,0.0665875128980244,2.79268195973346,,4.800395257718069,,
,6918.0,1044.0,7945.0,1149.0,2093.0,1861.0,2770.0,,,,0.136132060955466,0.066955399747785,2.79567379223996,,5.2419063035165365,,
,6915.0,1042.0,7942.0,1146.0,2108.0,1873.0,2801.0,,,,0.136582730655741,0.0673260687213203,2.79947034454883,,5.59908572543909,,
,6919.0,1045.0,7944.0,1150.0,2110.0,1867.0,2815.0,,,,0.136920303709704,0.0675792694291414,2.80198159915436,,5.86066754370978,,
,6920.0,1044.0,7944.0,1147.0,2098.0,1856.0,2792.0,,,,0.136867916477852,0.0675488731258605,2.80209406899826,,6.018169024704713,,
,6924.0,1045.0,7946.0,1148.0,2098.0,1861.0,2775.0,,,,0.136917451314949,0.0675393822717267,2.80237697244211,,6.066525987329794,,
,6924.0,1046.0,7944.0,1152.0,2112.0,1859.0,2778.0,,,,0.136886033062174,0.0674618244029281,2.80135612469362,,6.004584629284411,,
,6928.0,1047.0,7947.0,1153.0,2109.0,1865.0,2788.0,,,,0.13671486773961,0.0673918931408036,2.80079218025041,,5.835379460789031,,
,6927.0,1046.0,7949.0,1150.0,2105.0,1872.0,2802.0,,,,0.136805065418882,0.0673215640549669,2.80079722690888,,5.566142501013555,,
,6928.0,1046.0,7949.0,1150.0,2103.0,1879.0,2807.0,,,,0.136648280293998,0.0672849109711263,2.79990302908868,,5.2080160009199306,,
2025-08-01 19:17:25,6933.0,1045.0,7949.0,1154.0,2110.0,1860.0,2787.0,,,2025/08/01 07:17:25 PM,0.136538370987196,0.0672134211517674,2.79929067794918,,4.775475412268881,,
,6935.0,1047.0,7946.0,1151.0,2098.0,1885.0,2769.0,,,,0.136481528484849,0.0671300742723821,2.79824421706875,,4.2855044300246705,,
,6936.0,1048.0,7950.0,1155.0,2109.0,1873.0,2768.0,,,,0.136384928268963,0.0671195517026745,2.79703781917576,,3.756592643834613,,
,6939.0,1049.0,7950.0,1156.0,2101.0,1885.0,2768.0,,,,0.136300938722319,0.066997564757008,2.79719328887529,,3.207643922657961,,
,6941.0,1050.0,7952.0,1156.0,2105.0,1882.0,2777.0,,,,0.136155351627879,0.0668683172996929,2.79668611376944,,2.6568890867278045,,
,6945.0,1048.0,7952.0,1156.0,2099.0,1882.0,2780.0,,,,0.136119352531246,0.0667922313862114,2.7951944915272,,2.1208913653878274,,
,6947.0,1049.0,7952.0,1158.0,2109.0,1869.0,2778.0,,,,0.136092036095565,0.0667379771602331,2.7944494591602,,1.6137199739517163,,
,6949.0,1053.0,7953.0,1158.0,2123.0,1878.0,2765.0,,,,0.136070683367439,0.0666959834219404,2.79358953650184,,1.1463479247599382,,
,6948.0,1048.0,7953.0,1160.0,2126.0,1876.0,2768.0,,,,0.136050296393445,0.0666666326569079,2.79402957162305,,0.7263069842131183,,
,6952.0,1050.0,7956.0,1161.0,2129.0,1864.0,2769.0,,,,0.136087201061453,0.0667039775822618,2.79365961012396,,0.3576080741900394,,
,6955.0,1052.0,7960.0,1164.0,2121.0,1859.0,2777.0,,,,0.136110882662521,0.0667896506176271,2.79503847207503,,0.04091224426488644,,
,6957.0,1052.0,7956.0,1161.0,2120.0,1856.0,2787.0,,,,0.136129385836712,0.0668631765276233,2.79619734303113,,-0.22608197638812463,,
,6954.0,1049.0,7957.0,1159.0,2110.0,1864.0,2804.0,,,,0.136136773939651,0.0668885727501612,2.79558356411971,,-0.44808303158928847,,
,6957.0,1051.0,7957.0,1159.0,2110.0,1866.0,2799.0,,,,0.136205883794743,0.0670061800158858,2.79680290155223,,-0.6315389612150435,,
,6954.0,1050.0,7956.0,1158.0,2106.0,1854.0,2798.0,,,,0.136247784567706,0.067085816780422,2.7971692988931,,-0.7839171963223324,,
,6953.0,1052.0,7956.0,1158.0,2103.0,1857.0,2808.0,,,,0.136510383665292,0.0671557741605944,2.79895109154801,,-0.912988369858097,,
,6945.0,1046.0,7954.0,1154.0,2109.0,1855.0,2813.0,,,,0.136545239079871,0.0672544345472158,2.79913473307847,,-1.026165080985244,,
,6941.0,1045.0,7952.0,1150.0,2099.0,1864.0,2773.0,,,,0.136664201089842,0.0673202508095621,2.80075474075778,,-1.129938084829281,,
,6938.0,1046.0,7951.0,1147.0,2096.0,1868.0,2771.0,,,,0.136678225909157,0.0673593227383574,2.80077162068331,,-1.2294424790501373,,
,6931.0,1045.0,7950.0,1147.0,2102.0,1860.0,2780.0,,,,0.136795879739902,0.0674246493907367,2.80167409276019,,-1.3281759537944897,,
,6927.0,1043.0,7947.0,1141.0,2099.0,1869.0,2770.0,,,,0.136731686124285,0.0674860004458851,2.80180133861963,,-1.4278804520282287,,
,6915.0,1042.0,7946.0,1138.0,2086.0,1884.0,2790.0,,,,0.137003090087636,0.0675983110612273,2.80305852654988,,-1.5285876591693335,,
,6916.0,1041.0,7946.0,1136.0,2076.0,1892.0,2765.0,,,,0.13701981849699,0.0676469828348328,2.80411197205673,,-1.628817469720127,,
,6911.0,1041.0,7943.0,1136.0,2073.0,1880.0,2793.0,,,,0.137108054736894,0.0676716582454079,2.80438870354601,,-1.725907031955345,,
,6907.0,1039.0,7943.0,1134.0,2075.0,1871.0,2802.0,,,,0.137235321785205,0.0677611426561847,2.80486081996995,,-1.8164368087714193,,
,6899.0,1036.0,7941.0,1133.0,2063.0,1862.0,2834.0,,,,0.137194853120686,0.0676952925300845,2.80458095628215,,-1.8967108595008988,,
,6896.0,1037.0,7939.0,1130.0,2077.0,1872.0,2797.0,,,,0.137070164618378,0.0677251842369639,2.80460100059093,,-1.9632434188611632,,
,6896.0,1039.0,7938.0,1132.0,2094.0,1881.0,2783.0,,,,0.137048696402728,0.0676830742938815,2.80439313781139,,-2.0132045417139848,,
,6895.0,1039.0,7936.0,1133.0,2092.0,1886.0,2794.0,,,,0.137053251713085,0.0677162253050161,2.80467982992551,,-2.044784182706078,,
,6890.0,1038.0,7938.0,1129.0,2089.0,1893.0,2800.0,,,,0.137083891357568,0.0677669141573053,2.8052881932876,,-2.057444928718266,,
,6889.0,1038.0,7936.0,1127.0,2087.0,1876.0,2807.0,,,,0.137085625690374,0.0677543937977167,2.80526560946661,,-2.0520462815945795,,
,6889.0,1038.0,7937.0,1130.0,2074.0,1872.0,2786.0,,,,0.137014793193788,0.0676066711847458,2.80498187141364,,-2.03083582645008,,
,6890.0,1039.0,7938.0,1133.0,2073.0,1871.0,2771.0,,,,0.137011935156284,0.0676261308081103,2.80463398113377,,-1.9973135507872042,,
,6888.0,1037.0,7939.0,1129.0,2067.0,1875.0,2768.0,,,,0.137038658489932,0.0676867943270705,2.80498783379618,,-1.9559844038538907,,
,6890.0,1040.0,7936.0,1130.0,2067.0,1886.0,2774.0,,,,0.137056496005822,0.0676923112671322,2.8056675905383,,-1.9120206986319435,,
,6889.0,1040.0,7939.0,1132.0,2074.0,1881.0,2782.0,,,,0.137119278907085,0.0676805581838952,2.8057222253951,,-1.8708602384432382,,
,6890.0,1040.0,7938.0,1134.0,2096.0,1874.0,2811.0,,,,0.136966222684126,0.0676378268308014,2.80460042916205,,-1.8377684425311138,,
,6889.0,1041.0,7938.0,1132.0,2093.0,1871.0,2798.0,,,,0.136926698895714,0.0676635736695565,2.80458791159103,,-1.8173937422348259,,
,6890.0,1040.0,7936.0,1132.0,2078.0,1889.0,2773.0,,,,0.136893095509546,0.0675899113328083,2.80425340159438,,-1.813345524554048,,
,6889.0,1040.0,7937.0,1133.0,2094.0,1879.0,2753.0,,,,0.136861362975449,0.0675246380886729,2.80388771880659,,-1.827823031790864,,
,6889.0,1040.0,7938.0,1133.0,2090.0,1883.0,2766.0,,,,0.136737743768838,0.0674653789760306,2.8035843539837,,-1.8613216739742018,,
,6894.0,1040.0,7941.0,1136.0,2087.0,1884.0,2764.0,,,,0.136665451006772,0.0673427952794809,2.80227020604306,,-1.9124397498025099,,
,6893.0,1040.0,7939.0,1136.0,2083.0,1866.0,2774.0,,,,0.136299661508206,0.0671637492220557,2.80071268650635,,-1.9778031721298008,,
,6891.0,1038.0,7938.0,1133.0,2094.0,1871.0,2788.0,,,,0.136177175527656,0.0670149003096854,2.7991542124961,,-2.0521182724556124,,
,6895.0,1039.0,7940.0,1137.0,2096.0,1869.0,2790.0,,,,0.136102264757817,0.0669062359508192,2.79829339692705,,-2.1283535109830076,,
,6897.0,1043.0,7943.0,1138.0,2092.0,1872.0,2786.0,,,,0.136063628147914,0.0668630421872008,2.79830802800784,,-2.198041201522193,,
,6898.0,1042.0,7944.0,1140.0,2094.0,1875.0,2778.0,,,,0.136062704085407,0.0667787087032534,2.79807634422076,,-2.251682000151475,,
,6896.0,1040.0,7942.0,1138.0,2101.0,1877.0,2773.0,,,,0.136098024521417,0.0667384764138151,2.7970234994973,,-2.2792292499028006,,
,6900.0,1040.0,7941.0,1139.0,2068.0,1876.0,2774.0,,,,0.136017113353719,0.0665834758125727,2.79646315803052,,-2.2706272881893295,,
,6901.0,1043.0,7943.0,1139.0,2090.0,1887.0,2791.0,,,,0.135981482770775,0.066510035129689,2.79572153103114,,-2.216376326936336,,
,6903.0,1042.0,7944.0,1141.0,2085.0,1889.0,2792.0,,,,0.13594666833243,0.0663591769092375,2.79437836351116,,-2.1080952465356573,,
,6902.0,1041.0,7943.0,1140.0,2093.0,1879.0,2813.0,,,,0.135792737790478,0.0661750929640384,2.79273688247759,,-1.9390521692654794,,
,6903.0,1043.0,7945.0,1141.0,2108.0,1868.0,2798.0,,,,0.135697257631747,0.0659854331467706,2.7906572502007,,-1.7046316010091895,,
,6902.0,1044.0,7945.0,1142.0,2109.0,1876.0,2783.0,,,,0.135613717796697,0.0659006881818605,2.78943526774138,,-1.4027075169408614,,
,6902.0,1045.0,7947.0,1141.0,2103.0,1887.0,2783.0,,,,0.135517373929977,0.0657688521207956,2.7876679419949,,-1.0338953159160011,,
,6906.0,1043.0,7945.0,1141.0,2086.0,1882.0,2778.0,,,,0.135446539145608,0.0655725078343376,2.78654961691085,,-0.601662856869265,,
,6902.0,1043.0,7948.0,1138.0,2068.0,1857.0,2804.0,,,,0.135409939278852,0.0654530522534398,2.78627486445693,,-0.1122916939547637,,
,6904.0,1041.0,7946.0,1141.0,2070.0,1870.0,2808.0,,,,0.135358595319288,0.0653528136515546,2.78510892721077,,0.42530707895594694,,
,6903.0,1042.0,7948.0,1144.0,2076.0,1889.0,2803.0,,,,0.135305825373783,0.0652729681997667,2.7838534463332,,0.9999045037161931,,
,6904.0,1042.0,7948.0,1141.0,2074.0,1898.0,2793.0,,,,0.135257613612793,0.0652257795596066,2.78436257448505,,1.598364204007886,,
,6900.0,1042.0,7947.0,1139.0,2102.0,1870.0,2780.0,,,,0.135270088732335,0.0651952003267341,2.7836769176959,,2.2061170931905063,,
,6900.0,1041.0,7948.0,1141.0,2111.0,1881.0,2794.0,,,,0.135168901519853,0.0650818091393502,2.78295290574471,,2.807666708370935,,
,6901.0,1041.0,7950.0,1140.0,2100.0,1866.0,2775.0,,,,0.135106590704467,0.0649101774535986,2.78091084661966,,3.3870988513075715,,
,6900.0,1040.0,7948.0,1140.0,2110.0,1859.0,2787.0,,,,0.134944668164768,0.064701686169609,2.77894257621937,,3.9285808494415635,,
,6900.0,1039.0,7946.0,1139.0,2121.0,1879.0,2779.0,,,,0.13486039747816,0.0644751590748124,2.77705585990534,,4.416848044259594,,
,6902.0,1038.0,7949.0,1140.0,2124.0,1872.0,2757.0,,,,0.134780694707304,0.0643202612943607,2.77509130166217,,4.837683850068544,,
,6901.0,1043.0,7952.0,1142.0,2113.0,1867.0,2778.0,,,,0.13458281697325,0.0640344188840865,2.77225337520673,,5.178401517191675,,
,6905.0,1044.0,7950.0,1143.0,2116.0,1875.0,2795.0,,,,0.134542068558961,0.0638368785174669,2.77160641467385,,5.42832949367546,,
,6905.0,1041.0,7951.0,1142.0,2109.0,1873.0,2774.0,,,,0.134436438921568,0.0635558065129496,2.76836932244393,,5.579289834638022,,
,6903.0,1042.0,7951.0,1142.0,2103.0,1888.0,2771.0,,,,0.134251248489931,0.0632238923680243,2.76578431122333,,5.626044313640313,,
,6906.0,1044.0,7951.0,1142.0,2107.0,1876.0,2762.0,,,,0.134067265895921,0.0628940926732269,2.76161106822906,,5.566669971552532,,
,6908.0,1042.0,7952.0,1143.0,2109.0,1887.0,2772.0,,,,0.133850627820289,0.0624835876012974,2.75841155546136,,5.402818217808775,,
,6907.0,1044.0,7951.0,1145.0,2104.0,1892.0,2774.0,,,,0.133602786847881,0.0620991246704252,2.75427082318184,,5.13981158327988,,
,6907.0,1042.0,7952.0,1142.0,2100.0,1879.0,2788.0,,,,0.133350756208341,0.0617154721381074,2.74940237217184,,4.786541023753859,,
,6910.0,1043.0,7954.0,1146.0,2115.0,1864.0,2793.0,,,,0.133174884536565,0.0614069362503696,2.74610958090565,,4.355144130675385,,
,6911.0,1044.0,7955.0,1146.0,2098.0,1875.0,2804.0,,,,0.132979267610555,0.0612049465679847,2.74248967656509,,3.860468565543061,,
,6912.0,1045.0,7956.0,1147.0,2103.0,1878.0,2799.0,,,,0.132829904647043,0.060999212726954,2.7395020053879,,3.3193511086492613,,
,6914.0,1043.0,7956.0,1147.0,2118.0,1864.0,2783.0,,,,0.132748089811168,0.0607610189214278,2.73692361735483,,2.7497653048113295,,
,6917.0,1044.0,7958.0,1150.0,2109.0,1870.0,2803.0,,,,0.132665334325438,0.06078926670201,2.73592921556949,,2.169905040518827,,
,6921.0,1046.0,7960.0,1150.0,2109.0,1866.0,2791.0,,,,0.132703418320111,0.060845741051521,2.73551839711074,,1.5972753617607394,,
,6921.0,1046.0,7959.0,1154.0,2114.0,1873.0,2783.0,,,,0.132688612552066,0.0608586985407052,2.73624495189885,,1.047856354996575,,
,6925.0,1047.0,7961.0,1154.0,2103.0,1873.0,2785.0,,,,0.132717302256841,0.0609793899303817,2.73576363342876,,0.5353940125336574,,
,6927.0,1047.0,7960.0,1153.0,2119.0,1853.0,2805.0,,,,0.13268553455621,0.0609934781892512,2.73521588846221,,0.07085731966817121,,
,6927.0,1046.0,7961.0,1156.0,2114.0,1870.0,2790.0,,,,0.132784833030753,0.0611433611804186,2.73624863974669,,-0.3379139222290926,,
,6931.0,1049.0,7962.0,1155.0,2091.0,1873.0,2781.0,,,,0.132875140935507,0.0613229874921458,2.73848080644866,,-0.6863597257438057,,
,6932.0,1050.0,7964.0,1156.0,2081.0,1883.0,2773.0,,,,0.132927042640118,0.0614083681378943,2.739054064064,,-0.9731511510474079,,
,6933.0,1047.0,7961.0,1156.0,2093.0,1875.0,2769.0,,,,0.13297957850146,0.0614621335204072,2.74036403719982,,-1.199956927644652,,
,6936.0,1050.0,7968.0,1159.0,2086.0,1868.0,2772.0,,,,0.13298910704721,0.061500898258451,2.74000043325572,,-1.3710521285676414,,
,6942.0,1051.0,7967.0,1160.0,2080.0,1864.0,2790.0,,,,0.133013376983404,0.0615921147492555,2.74069219581328,,-1.4928054366444583,,
,6945.0,1053.0,7967.0,1161.0,2088.0,1873.0,2790.0,,,,0.13296015951408,0.0615280903522886,2.74009788882957,,-1.573088061662865,,
,6946.0,1051.0,7965.0,1160.0,2091.0,1880.0,2803.0,,,,0.13300769160654,0.0615313634746767,2.73915211849948,,-1.620649728724582,,
,6949.0,1052.0,7968.0,1162.0,2082.0,1894.0,2813.0,,,,0.13299121649686,0.06156997793757,2.73897881098257,,-1.6445053265773562,,
,6950.0,1050.0,7970.0,1163.0,2077.0,1894.0,2793.0,,,,0.133007985618711,0.0616390982214806,2.73960388958627,,-1.6533703920316234,,
,6954.0,1053.0,7970.0,1165.0,2091.0,1889.0,2783.0,,,,0.132931826950068,0.0615943506786741,2.73874645019697,,-1.6551756238523054,,
,6951.0,1054.0,7971.0,1168.0,2091.0,1882.0,2799.0,,,,0.132973653126481,0.0616193247363177,2.73932782197172,,-1.6566812762907845,,
,6959.0,1051.0,7970.0,1166.0,2083.0,1880.0,2814.0,,,,0.133034681191264,0.0616442011441122,2.73924784102319,,-1.6632028607522835,,
,6959.0,1054.0,7976.0,1169.0,2076.0,1870.0,2797.0,,,,0.133070729793685,0.0617724079047652,2.74109467257378,,-1.6784512563155112,,
,6964.0,1055.0,7977.0,1169.0,2082.0,1862.0,2791.0,,,,0.132959042516709,0.0615851640682559,2.73936047106654,,-1.704483889110443,,
,6966.0,1055.0,7975.0,1169.0,2087.0,1866.0,2782.0,,,,0.132862714485165,0.0614163337952768,2.7375709683305,,-1.7417592962574475,,
,6967.0,1054.0,7976.0,1171.0,2094.0,1880.0,2775.0,,,,0.132839318214436,0.0613679948833834,2.73665237284505,,-1.789284735810867,,
,6970.0,1057.0,7977.0,1171.0,2091.0,1887.0,2781.0,,,,0.132824553860713,0.0613858575575387,2.73714260583124,,-1.8448446546137898,,
,6974.0,1058.0,7980.0,1172.0,2080.0,1874.0,2788.0,,,,0.132812386762615,0.0613023414306926,2.73684407260414,,-1.9052957111182705,,
,6977.0,1058.0,7979.0,1175.0,2084.0,1878.0,2786.0,,,,0.13276440152268,0.0612252645950853,2.73727620031167,,-1.9669108530639519,,
,6975.0,1056.0,7979.0,1173.0,2071.0,1862.0,2805.0,,,,0.132780842772429,0.0611735836494368,2.73654784371184,,-2.025750626745498,,
,6981.0,1057.0,7982.0,1173.0,2082.0,1860.0,2805.0,,,,0.132838410599754,0.0612356540944134,2.7379468748934,,-2.0780355465624627,,
,6984.0,1059.0,7982.0,1175.0,2080.0,1882.0,2799.0,,,,0.132835966136495,0.0612975738556613,2.73874624091609,,-2.120490963647639,,
,6987.0,1060.0,7983.0,1176.0,2075.0,1884.0,2801.0,,,,0.132796959934768,0.0612299963518878,2.73806587493363,,-2.1506371877078596,,
,6987.0,1060.0,7984.0,1176.0,2068.0,1883.0,2772.0,,,,0.132817755145954,0.0612169348415115,2.7380404292217,,-2.1670029325884808,,
,6991.0,1059.0,7985.0,1177.0,2059.0,1879.0,2783.0,,,,0.132844304790294,0.0612531614341974,2.73963182283607,,-2.1692481626535165,,
,6995.0,1061.0,7989.0,1177.0,2060.0,1876.0,2788.0,,,,0.132824083295422,0.0611602460010679,2.73868974329538,,-2.1581911704370516,,
,6995.0,1063.0,7990.0,1180.0,2089.0,1859.0,2808.0,,,,0.13273439650167,0.0610295686106952,2.73718305471732,,-2.1357426800128043,,
,6999.0,1062.0,7987.0,1182.0,2096.0,1865.0,2810.0,,,,0.132669957384219,0.0609812359540403,2.7364053149098,,-2.104756169480105,,
,7002.0,1062.0,7986.0,1182.0,2091.0,1875.0,2813.0,,,,0.132564932220957,0.0608380196707857,2.73550955104137,,-2.0688082374714627,,
,7005.0,1064.0,7992.0,1183.0,2111.0,1881.0,2782.0,,,,0.132546894425542,0.0607711420873184,2.73452267481509,,-2.031925779533733,,
,7005.0,1063.0,7991.0,1183.0,2105.0,1874.0,2792.0,,,,0.13247933906472,0.060607699266686,2.73365784662955,,-1.998278206502124,,
,7009.0,1063.0,7991.0,1185.0,2100.0,1861.0,2797.0,,,,0.1323826088252,0.0604499966828432,2.73178541710622,,-1.971853292952354,,
,7011.0,1063.0,7991.0,1183.0,2085.0,1878.0,2789.0,,,,0.132281465184569,0.0602098479142054,2.7298912614609,,-1.9561349657148746,,
,7015.0,1064.0,7994.0,1186.0,2082.0,1874.0,2795.0,,,,0.132052795868778,0.0599151136857223,2.72499396508988,,-1.9538008398593898,,
,7017.0,1065.0,7994.0,1187.0,2080.0,1866.0,2774.0,,,,0.131647265494103,0.0594200165128168,2.71927489782724,,-1.9664567411140412,,
,7021.0,1066.0,7997.0,1190.0,2067.0,1861.0,2775.0,,,,0.131428579572592,0.0591014256102479,2.71584088063834,,-1.9944246740154008,,
,7023.0,1065.0,7997.0,1188.0,2089.0,1878.0,2780.0,,,,0.131419625994076,0.0590628753156297,2.71572496138814,,-2.0365993142545014,,
,7023.0,1066.0,7995.0,1190.0,2069.0,1860.0,2780.0,,,,0.131326673599476,0.0589697329070271,2.71499643264558,,-2.0903855936223317,,
,7028.0,1066.0,8000.0,1195.0,2081.0,1877.0,2774.0,,,,0.131356626488352,0.0589877190982774,2.71541038851659,,-2.151725799238613,,
,7033.0,1070.0,7999.0,1192.0,2085.0,1877.0,2790.0,,,,0.131454443859726,0.0590789302386343,2.71586791436278,,-2.215218624455815,,
,7034.0,1070.0,8002.0,1193.0,2103.0,1873.0,2780.0,,,,0.131488859168734,0.0591481602631859,2.71707707257596,,-2.2743253047437637,,
,7039.0,1068.0,8001.0,1195.0,2105.0,1878.0,2789.0,,,,0.131567474978276,0.0592572603521617,2.71798210895661,,-2.3216507702465132,,
,7042.0,1069.0,8002.0,1195.0,2097.0,1886.0,2776.0,,,,0.131632367647118,0.0593149634884127,2.71924874486965,,-2.349282397234908,,
,7045.0,1070.0,8001.0,1197.0,2110.0,1885.0,2788.0,,,,0.131682604546162,0.0594073925495103,2.72002427385906,,-2.349166376022562,,
2025-08-01 19:17:26,7046.0,1070.0,8005.0,1196.0,2094.0,1878.0,2796.0,,,2025/08/01 07:17:26 PM,0.131749609165666,0.059384866177647,2.71992355876116,,-2.313501469787391,,
,7045.0,1067.0,8001.0,1193.0,2111.0,1869.0,2804.0,,,,0.131754715261589,0.0593897594475057,2.71980615101498,,-2.2351307790079127,,
,7043.0,1066.0,8002.0,1192.0,2101.0,1878.0,2798.0,,,,0.131756179654998,0.059435042731001,2.72047258991226,,-2.107913113110135,,
,7044.0,1069.0,8003.0,1191.0,2087.0,1867.0,2777.0,,,,0.131692110897982,0.0593404686077836,2.71941033922604,,-1.9270566014998058,,
,7037.0,1067.0,8004.0,1188.0,2080.0,1864.0,2786.0,,,,0.13157230576844,0.0592804801274952,2.71826741935,,-1.6893987841967535,,
,7033.0,1064.0,7999.0,1183.0,2100.0,1853.0,2801.0,,,,0.131522898230377,0.059141352510179,2.71680078250965,,-1.393620229967724,,
,7027.0,1063.0,7999.0,1182.0,2096.0,1864.0,2803.0,,,,0.131424090071034,0.0590298295457025,2.71536018646364,,-1.040382994163025,,
,7021.0,1063.0,7997.0,1179.0,2097.0,1880.0,2790.0,,,,0.131408028362968,0.0589969540980639,2.71486910650647,,-0.6323906923148193,,
,7012.0,1061.0,7996.0,1175.0,2101.0,1877.0,2782.0,,,,0.131418501047635,0.0590429910650158,2.71493911318272,,-0.17437289426950725,,
,7008.0,1057.0,7990.0,1171.0,2088.0,1872.0,2781.0,,,,0.131394697601012,0.0590301786304348,2.71507211468732,,0.32699815572976026,,
,7002.0,1055.0,7991.0,1167.0,2087.0,1867.0,2788.0,,,,0.131347849720083,0.0589542832373248,2.71464318407744,,0.8632469740453437,,
,6995.0,1058.0,7990.0,1165.0,2086.0,1864.0,2804.0,,,,0.131316513161292,0.0589279185202541,2.71485879036467,,1.4242780139458142,,
,6990.0,1055.0,7985.0,1164.0,2069.0,1843.0,2788.0,,,,0.131368492417522,0.0589735540645107,2.71470313342699,,1.998592198552648,,
,6984.0,1052.0,7986.0,1161.0,2067.0,1854.0,2774.0,,,,0.131328720430836,0.0589674234437704,2.71505430437077,,2.5735311984580806,,
,6979.0,1051.0,7982.0,1158.0,2070.0,1876.0,2783.0,,,,0.131342539089661,0.0590470269365354,2.71577406468566,,3.13555065923716,,
,6975.0,1052.0,7982.0,1157.0,2082.0,1884.0,2763.0,,,,0.131386962692513,0.0590292925579771,2.71580709570158,,3.6705309706222145,,
,6971.0,1053.0,7982.0,1156.0,2076.0,1880.0,2792.0,,,,0.131365940944495,0.0590649640244752,2.7162912350458,,4.164139715247935,,
,6964.0,1053.0,7978.0,1155.0,2073.0,1880.0,2799.0,,,,0.13142640930083,0.059137047946553,2.71671847876214,,4.6022607317428115,,
,6962.0,1050.0,7978.0,1153.0,2100.0,1871.0,2788.0,,,,0.131407433317314,0.0591112365222196,2.71651103628817,,4.97149855140395,,
,6961.0,1050.0,7976.0,1154.0,2097.0,1863.0,2788.0,,,,0.131448778085896,0.0591758019246925,2.71665365180051,,5.2597536436501375,,
,6956.0,1051.0,7977.0,1154.0,2082.0,1881.0,2769.0,,,,0.131441307374445,0.0592329057928615,2.71785125262551,,5.4568457726481485,,
,6956.0,1049.0,7977.0,1150.0,2079.0,1870.0,2774.0,,,,0.131431457723875,0.059253796468922,2.71668393256572,,5.555143822285309,,
,6957.0,1050.0,7977.0,1154.0,2100.0,1861.0,2775.0,,,,0.131494871600021,0.0593132832802874,2.71726830426058,,5.550144940802789,,
,6953.0,1051.0,7974.0,1152.0,2092.0,1883.0,2794.0,,,,0.13152589967586,0.0593272035222909,2.71859378854114,,5.440937344939053,,
,6955.0,1050.0,7976.0,1156.0,2077.0,1888.0,2777.0,,,,0.13151555874553,0.059312112175399,2.71853332569058,,5.230482138442113,,
,6952.0,1053.0,7979.0,1155.0,2076.0,1879.0,2769.0,,,,0.131503575427702,0.0592898301432437,2.7178163039417,,4.925661390122643,,
,6951.0,1052.0,7977.0,1155.0,2082.0,1865.0,2771.0,,,,0.131512550598349,0.0592796984262009,2.71672910783737,,4.537062116849372,,
,6948.0,1047.0,7977.0,1154.0,2091.0,1860.0,2793.0,,,,0.131498021671545,0.0592729622317369,2.71821273806791,,4.078495800397916,,
,6949.0,1050.0,7975.0,1151.0,2110.0,1872.0,2785.0,,,,0.131576950582142,0.0593634790186253,2.71840863067839,,3.5662850479258297,,
,6949.0,1052.0,7976.0,1155.0,2104.0,1873.0,2795.0,,,,0.13169801796041,0.0594918773352822,2.72028173285542,,3.018376326734663,,
,6948.0,1051.0,7978.0,1154.0,2101.0,1862.0,2808.0,,,,0.131778074746457,0.0596432070761046,2.72133157959049,,2.453355175801677,,
,6950.0,1050.0,7979.0,1153.0,2079.0,1850.0,2799.0,,,,0.131823577955101,0.0597087210222483,2.72153652565432,,1.8894459370845647,,
,6949.0,1048.0,7975.0,1151.0,2088.0,1874.0,2786.0,,,,0.131857687346296,0.0597726454986606,2.7221975736686,,1.3435731062385452,,
,6948.0,1050.0,7977.0,1156.0,2071.0,1869.0,2766.0,,,,0.13191000002156,0.0598019324051222,2.72283442765906,,0.8305490962476407,,
,6948.0,1052.0,7978.0,1154.0,2074.0,1863.0,2773.0,,,,0.131937133636405,0.0598248758447641,2.72325472899875,,0.36243716352965455,,
,6947.0,1053.0,7982.0,1155.0,2098.0,1851.0,2767.0,,,,0.131899945968411,0.0597532975958607,2.72256044846259,,-0.051878744257370824,,
,6945.0,1050.0,7979.0,1155.0,2071.0,1850.0,2788.0,,,,0.131841223692704,0.0597909276141923,2.72278462629163,,-0.4069020750937683,,
,6947.0,1053.0,7980.0,1156.0,2076.0,1867.0,2771.0,,,,0.131890256545484,0.0598145306302176,2.72257650427673,,-0.7005107215255647,,
,6946.0,1051.0,7978.0,1159.0,2072.0,1871.0,2775.0,,,,0.131938366963786,0.0598315284365352,2.72315461802179,,-0.9337398945961899,,
,6947.0,1051.0,7978.0,1157.0,2068.0,1850.0,2771.0,,,,0.131953090388858,0.0598650935187018,2.72433258374618,,-1.1103923471272268,,
,6945.0,1052.0,7978.0,1153.0,2080.0,1855.0,2765.0,,,,0.131967482791014,0.0598321207247791,2.72368666451129,,-1.2365190625735172,,
,6948.0,1052.0,7980.0,1157.0,2095.0,1872.0,2790.0,,,,0.13191902266787,0.0598006195073627,2.72308109889592,,-1.3198201001074696,,
,6946.0,1052.0,7981.0,1156.0,2093.0,1878.0,2777.0,,,,0.131828249751554,0.0597202141060595,2.72214273085561,,-1.369015952833327,,
,6944.0,1052.0,7980.0,1156.0,2082.0,1868.0,2789.0,,,,0.131722752752328,0.0595854119424515,2.72041511730944,,-1.393235034559415,,
,6944.0,1052.0,7982.0,1156.0,2096.0,1867.0,2802.0,,,,0.131688222483705,0.0595140396265526,2.72031299147837,,-1.4014542303800814,,
,6943.0,1053.0,7982.0,1155.0,2078.0,1870.0,2802.0,,,,0.131587302492668,0.0594416296267812,2.71919333626099,,-1.4020186464395552,,
,6944.0,1052.0,7982.0,1158.0,2075.0,1886.0,2773.0,,,,0.131556106532589,0.0594177190311986,2.71826586100897,,-1.4022555673510524,,
,6944.0,1050.0,7982.0,1152.0,2096.0,1885.0,2765.0,,,,0.131579969005353,0.0594199132633019,2.71924394247969,,-1.4081877982902882,,
,6944.0,1052.0,7982.0,1157.0,2092.0,1881.0,2799.0,,,,0.131694894371849,0.0595148909181056,2.72001106764951,,-1.424344318920193,,
,6939.0,1051.0,7979.0,1154.0,2082.0,1866.0,2802.0,,,,0.131726623150474,0.0595603761809175,2.72193294874377,,-1.4536621911692686,,
,6942.0,1051.0,7982.0,1155.0,2083.0,1877.0,2806.0,,,,0.131797765661152,0.0596224497971034,2.72236148665667,,-1.4974728009585536,,
,6942.0,1051.0,7982.0,1155.0,2076.0,1874.0,2791.0,,,,0.131876078117039,0.0596784820545284,2.72349209108052,,-1.5555667731398857,,
,6940.0,1049.0,7982.0,1154.0,2090.0,1873.0,2782.0,,,,0.131917809901203,0.0597917937763261,2.72456546770107,,-1.6263336469068155,,
,6942.0,1047.0,7982.0,1155.0,2090.0,1847.0,2785.0,,,,0.132018368150128,0.0598850285692219,2.72578811749316,,-1.7069728803933473,,
,6942.0,1051.0,7982.0,1155.0,2094.0,1864.0,2786.0,,,,0.132069695001779,0.0599361873474446,2.72639858832029,,-1.7937706921868952,,
,6942.0,1050.0,7986.0,1157.0,2090.0,1868.0,2782.0,,,,0.132016774503481,0.0598447629150126,2.72546225452327,,-1.8824322850254191,,
,6939.0,1052.0,7983.0,1158.0,2095.0,1876.0,2795.0,,,,0.131939968631407,0.0597879230946574,2.72428476481915,,-1.9684519131128269,,
,6937.0,1052.0,7982.0,1154.0,2089.0,1869.0,2811.0,,,,0.131822458342364,0.0596481592422959,2.72317383223603,,-2.0474959723174146,,
,6939.0,1051.0,7984.0,1156.0,2081.0,1878.0,2779.0,,,,0.131665301939882,0.0593103085257913,2.72072284351877,,-2.1157693360222076,,
,6941.0,1051.0,7983.0,1156.0,2089.0,1860.0,2790.0,,,,0.131472776788813,0.059068854205135,2.71692367820222,,-2.1703344421406907,,
,6939.0,1051.0,7986.0,1158.0,2084.0,1862.0,2787.0,,,,0.131201990258588,0.0586661116137476,2.71302482843172,,-2.209356437078737,,
,6943.0,1054.0,7988.0,1159.0,2105.0,1867.0,2782.0,,,,0.131059078162157,0.0583933917327707,2.70914872894856,,-2.2322547827613106,,
,6939.0,1050.0,7983.0,1157.0,2088.0,1890.0,2778.0,,,,0.130850061673183,0.0581922838669568,2.70571325203536,,-2.239750411904346,,
,6944.0,1050.0,7988.0,1161.0,2072.0,1880.0,2784.0,,,,0.130745973530769,0.0579698724783042,2.70304780666928,,-2.233806331843365,,
,6943.0,1052.0,7986.0,1157.0,2096.0,1890.0,2773.0,,,,0.130635104409104,0.0578589110344757,2.70134101241812,,-2.2174675617033874,,
,6944.0,1055.0,7988.0,1159.0,2103.0,1890.0,2776.0,,,,0.130584717042066,0.0577711747634121,2.70118749496693,,-2.1946128865949106,,
,6946.0,1052.0,7986.0,1157.0,2097.0,1883.0,2790.0,,,,0.130567414557702,0.057711744835587,2.70040619949494,,-2.1696359113104235,,
,6947.0,1053.0,7987.0,1163.0,2094.0,1861.0,2821.0,,,,0.130537740774229,0.0576880801971028,2.69998466249348,,-2.1470763618773363,,
,6949.0,1053.0,7990.0,1161.0,2085.0,1863.0,2797.0,,,,0.130485739682499,0.0576780034829722,2.69985464898187,,-2.1312247802383277,,
,6952.0,1053.0,7989.0,1162.0,2090.0,1872.0,2790.0,,,,0.130470550828298,0.0576928485027203,2.69945603609997,,-2.125725013563817,,
,6949.0,1054.0,7990.0,1164.0,2089.0,1881.0,2791.0,,,,0.130420050972095,0.0576183388417404,2.69932447963456,,-2.1331994746037757,,
,6952.0,1054.0,7991.0,1163.0,2088.0,1878.0,2772.0,,,,0.130372368856251,0.05756914392184,2.69730840221548,,-2.1549221462157084,,
,6958.0,1056.0,7994.0,1164.0,2095.0,1872.0,2776.0,,,,0.130375156371,0.0575446359008288,2.69805837212461,,-2.190563599488461,,
,6959.0,1056.0,7995.0,1168.0,2095.0,1881.0,2790.0,,,,0.1304254580839,0.0576317947028214,2.69879452048682,,-2.238030498771435,,
,6961.0,1055.0,7993.0,1170.0,2099.0,1886.0,2767.0,,,,0.130490060385098,0.0577772654500049,2.69899222106546,,-2.2934185855514215,,
,6961.0,1055.0,7996.0,1168.0,2115.0,1867.0,2793.0,,,,0.130589183222628,0.0578640631857485,2.70002360219373,,-2.351092377293355,,
,6962.0,1058.0,7996.0,1167.0,2118.0,1877.0,2791.0,,,,0.130706765736826,0.0579975540805094,2.70274507690078,,-2.403896446543486,,
,6967.0,1056.0,7998.0,1168.0,2112.0,1881.0,2783.0,,,,0.13075557210521,0.0581172706018097,2.70346365513089,,-2.443492310257286,,
,6969.0,1057.0,7998.0,1172.0,2115.0,1868.0,2800.0,,,,0.130752227757198,0.0581328860953445,2.70384484232934,,-2.4608025970466754,,
,6970.0,1057.0,8000.0,1170.0,2113.0,1869.0,2802.0,,,,0.130787825080861,0.0581638394068719,2.7035511851346,,-2.44653217009037,,
,6970.0,1058.0,7998.0,1172.0,2102.0,1874.0,2780.0,,,,0.13080379768749,0.0582065837891828,2.70411923186686,,-2.3917267220354566,,
,6974.0,1060.0,8000.0,1176.0,2086.0,1871.0,2789.0,,,,0.130768904399827,0.0581659419133018,2.704034625034,,-2.28832503720055,,
,6975.0,1058.0,8000.0,1174.0,2097.0,1876.0,2794.0,,,,0.130690208789678,0.0580626685885007,2.7027354884846,,-2.12966237640081,,
,6974.0,1055.0,7999.0,1174.0,2085.0,1882.0,2774.0,,,,0.130622077607431,0.0579867479280792,2.70166515474403,,-1.9108887544174429,,
,6976.0,1057.0,8001.0,1175.0,2105.0,1892.0,2794.0,,,,0.130587838601832,0.0579345879311585,2.70130453955949,,-1.6292760205191177,,
,6981.0,1059.0,8004.0,1179.0,2093.0,1866.0,2783.0,,,,0.130578853633034,0.0579233790154206,2.70072909801118,,-1.2844001245604746,,
,6984.0,1062.0,8005.0,1178.0,2097.0,1872.0,2777.0,,,,0.130587228041312,0.0578769281373768,2.70040365732591,,-0.8781980839647676,,
,6985.0,1061.0,8003.0,1178.0,2090.0,1866.0,2780.0,,,,0.130523434772971,0.0578757572897588,2.70027674681112,,-0.41491112648194667,,
,6985.0,1062.0,8005.0,1181.0,2105.0,1866.0,2784.0,,,,0.130535621921132,0.0578160544577204,2.70001601768079,,0.0990655137683171,,
,6990.0,1063.0,8008.0,1181.0,2112.0,1861.0,2770.0,,,,0.13052368508174,0.0577856329824099,2.6996345679918,,0.6554009751827596,,
,6995.0,1064.0,8007.0,1181.0,2094.0,1873.0,2765.0,,,,0.130492352791484,0.0578116858114944,2.69945739134789,,1.244090350974089,,
,6994.0,1061.0,8008.0,1181.0,2089.0,1873.0,2768.0,,,,0.130496671849868,0.0578058319843709,2.69982353236386,,1.8537392564854016,,
,6996.0,1062.0,8008.0,1182.0,2085.0,1882.0,2803.0,,,,0.130503905029603,0.0578641572670379,2.7006271145443,,2.4718591753423076,,
,6998.0,1061.0,8009.0,1183.0,2100.0,1879.0,2799.0,,,,0.130593730368689,0.0579331715142348,2.70102705092313,,3.085170543935967,,
,7003.0,1063.0,8011.0,1186.0,2077.0,1861.0,2796.0,,,,0.130715182983296,0.0580207825295672,2.70245631584997,,3.6799183656944323,,
,7007.0,1065.0,8013.0,1187.0,2087.0,1861.0,2795.0,,,,0.130724491214389,0.0581728764225442,2.70375098830459,,4.2422095050478825,,
,7005.0,1064.0,8015.0,1187.0,2097.0,1877.0,2767.0,,,,0.13071916026437,0.0581268911304834,2.70333832125127,,4.758380653897977,,
,7005.0,1062.0,8012.0,1187.0,2078.0,1874.0,2778.0,,,,0.130718676335259,0.0580702893514714,2.70310118532365,,5.215401663834825,,
,7010.0,1065.0,8014.0,1190.0,2091.0,1867.0,2817.0,,,,0.130746758889011,0.0581020194166472,2.70334258862821,,5.601311886343123,,
,7012.0,1065.0,8014.0,1190.0,2096.0,1856.0,2786.0,,,,0.130727526079507,0.0580823750028174,2.70352940080646,,5.905678841287906,,
,7015.0,1067.0,8017.0,1193.0,2087.0,1863.0,2787.0,,,,0.130722498756213,0.0581547002566182,2.7039738326604,,6.120059744115335,,
,7017.0,1067.0,8016.0,1188.0,2097.0,1866.0,2800.0,,,,0.130773421518938,0.0581621240912565,2.70483358483447,,6.23843749382073,,
,7020.0,1067.0,8018.0,1190.0,2093.0,1870.0,2797.0,,,,0.130860206000299,0.0582801733867788,2.70575010607576,,6.257594599982613,,
,7024.0,1068.0,8019.0,1192.0,2085.0,1872.0,2792.0,,,,0.130846737574626,0.0582573112766038,2.70649026934834,,6.177383456090604,,
,7026.0,1070.0,8022.0,1194.0,2098.0,1873.0,2792.0,,,,0.130784325147323,0.0581536038977796,2.70573201727563,,6.000852258578339,,
,7028.0,1067.0,8019.0,1194.0,2088.0,1858.0,2781.0,,,,0.130724469094255,0.0580668896192799,2.70475623147932,,5.734194857163187,,
,7030.0,1069.0,8021.0,1194.0,2103.0,1865.0,2782.0,,,,0.130620462541821,0.0579487341471164,2.7032803306478,,5.386509982482216,,
,7035.0,1070.0,8024.0,1196.0,2095.0,1871.0,2806.0,,,,0.130655006209659,0.057919706286857,2.70323038432678,,4.969378003019091,,
,7034.0,1070.0,8024.0,1197.0,2096.0,1871.0,2801.0,,,,0.13056663326632,0.0577999216545225,2.7019450800001,,4.4962866222889275,,
,7036.0,1072.0,8024.0,1196.0,2101.0,1866.0,2772.0,,,,0.130487032658909,0.0576882508129518,2.70098364093224,,3.9819551026160234,,
,7039.0,1071.0,8024.0,1198.0,2096.0,1877.0,2776.0,,,,0.130396315209611,0.0575838025111269,2.69923291541573,,3.44161580885345,,
,7042.0,1074.0,8026.0,1203.0,2091.0,1887.0,2782.0,,,,0.130329960096991,0.0574701032534297,2.69866479061615,,2.8903113519392134,,
,7046.0,1072.0,8027.0,1201.0,2075.0,1872.0,2804.0,,,,0.130253947753128,0.0573387438810369,2.69733121821951,,2.3422572853063928,,
,7049.0,1072.0,8029.0,1200.0,2080.0,1868.0,2804.0,,,,0.130177702746067,0.0572821180861831,2.69628706812678,,1.8103072467434795,,
,7048.0,1072.0,8029.0,1201.0,2097.0,1867.0,2782.0,,,,0.130134746927501,0.057189987070066,2.69494521935248,,1.305542614788163,,
,7053.0,1074.0,8028.0,1204.0,2094.0,1851.0,2785.0,,,,0.13011110819882,0.0571668709383557,2.69437701663549,,0.8369944422224058,,
,7058.0,1075.0,8032.0,1206.0,2070.0,1860.0,2769.0,,,,0.130166299845906,0.0572829773786108,2.69604091844551,,0.4114932666189549,,
,7060.0,1075.0,8031.0,1206.0,2072.0,1863.0,2796.0,,,,0.130264089411355,0.0573228565961156,2.69759378019535,,0.03363361138225375,,
,7064.0,1077.0,8032.0,1206.0,2082.0,1864.0,2822.0,,,,0.130330858106946,0.0574355836384434,2.69842689120427,,-0.2941646225904096,,
,7065.0,1075.0,8036.0,1208.0,2072.0,1868.0,2802.0,,,,0.130439935597155,0.0576207500132949,2.70084888778849,,-0.571516243117384,,
,7069.0,1079.0,8035.0,1212.0,2071.0,1873.0,2780.0,,,,0.130520770558237,0.0577801068406064,2.70248411260312,,-0.799868636877207,,
,7071.0,1079.0,8034.0,1209.0,2081.0,1879.0,2776.0,,,,0.130563182618799,0.0578764731623179,2.70340669940966,,-0.9822511858416216,,
,7074.0,1077.0,8037.0,1211.0,2115.0,1863.0,2774.0,,,,0.130664330872287,0.0579474863661585,2.70445128447654,,-1.122988577326377,,
,7072.0,1077.0,8036.0,1211.0,2121.0,1869.0,2791.0,,,,0.130675803975346,0.0580226208426816,2.70495102450983,,-1.2273903332353664,,
,7081.0,1080.0,8040.0,1213.0,2103.0,1889.0,2773.0,,,,0.130732551969949,0.0580283484778036,2.70535181346617,,-1.3014295121121948,,
,7082.0,1080.0,8040.0,1214.0,2110.0,1876.0,2763.0,,,,0.130706801029062,0.0579802250779086,2.70519543942568,,-1.351423902668429,,
,7081.0,1080.0,8038.0,1215.0,2100.0,1879.0,2779.0,,,,0.130714867825791,0.0579804665797543,2.70541570624624,,-1.3837325491901156,,
,7084.0,1077.0,8037.0,1212.0,2111.0,1872.0,2802.0,,,,0.130699202277668,0.0579839573615736,2.70555176852305,,-1.4044789422906168,,
2025-08-01 19:17:27,7083.0,1080.0,8039.0,1212.0,2084.0,1873.0,2803.0,,,2025/08/01 07:17:27 PM,0.130682898444685,0.0579780708449188,2.70515312743271,,-1.4193097756895352,,
,7080.0,1076.0,8039.0,1210.0,2083.0,1881.0,2794.0,,,,0.130700644013863,0.0580169028804978,2.70508127588047,,-1.4331951200910802,,
,7080.0,1074.0,8038.0,1206.0,2088.0,1879.0,2784.0,,,,0.130632620742643,0.0579776835958819,2.70490434765931,,-1.4502727139129399,,
,7073.0,1075.0,8040.0,1203.0,2096.0,1889.0,2771.0,,,,0.130675682204919,0.0579213044772481,2.70499472654577,,-1.473736492123779,,
,7068.0,1074.0,8034.0,1197.0,2075.0,1889.0,2782.0,,,,0.130681077213564,0.0578749343362353,2.70502689632712,,-1.5057680623389318,,
,7059.0,1070.0,8033.0,1194.0,2069.0,1881.0,2783.0,,,,0.130670609586983,0.0579358161632261,2.70615598099504,,-1.5475097849918515,,
,7054.0,1069.0,8032.0,1192.0,2075.0,1877.0,2783.0,,,,0.130721042339648,0.0579945484876641,2.70669418391428,,-1.5990790748494332,,
,7047.0,1067.0,8028.0,1187.0,2086.0,1872.0,2796.0,,,,0.130746280583203,0.0579788423410003,2.70684394963213,,-1.659624762274423,,
,7041.0,1064.0,8025.0,1185.0,2096.0,1877.0,2785.0,,,,0.130683096727135,0.0579359045335407,2.70619212633342,,-1.7274269779435865,,
,7033.0,1064.0,8025.0,1181.0,2089.0,1869.0,2771.0,,,,0.130696662583331,0.057881493869923,2.70661138649945,,-1.8000413597592593,,
,7030.0,1064.0,8024.0,1179.0,2077.0,1878.0,2792.0,,,,0.130608033661504,0.0578047160393384,2.70469268326675,,-1.8744860005139143,,
,7025.0,1064.0,8021.0,1178.0,2074.0,1871.0,2793.0,,,,0.130575617112569,0.0577132804789464,2.70367774024289,,-1.9474653557818475,,
,7016.0,1063.0,8019.0,1176.0,2065.0,1873.0,2785.0,,,,0.130554639630745,0.0576803678232088,2.70333208378186,,-2.0156197467809256,,
,7009.0,1060.0,8019.0,1173.0,2069.0,1859.0,2779.0,,,,0.130513368178168,0.057654274106341,2.70324977288206,,-2.0757833942457187,,
,7007.0,1061.0,8015.0,1172.0,2078.0,1863.0,2796.0,,,,0.130538287663537,0.057692185121355,2.70335020303783,,-2.12523006255026,,
,7004.0,1062.0,8013.0,1172.0,2081.0,1865.0,2789.0,,,,0.130556732379921,0.0577645461083808,2.7043016576317,,-2.161885062270529,,
,6998.0,1060.0,8012.0,1169.0,2105.0,1884.0,2783.0,,,,0.130590913273895,0.0578231300746344,2.70466467578413,,-2.184485861705733,,
,6995.0,1059.0,8012.0,1169.0,2101.0,1876.0,2805.0,,,,0.130684373189765,0.057882316753729,2.70522363346247,,-2.1926796836507307,,
,6996.0,1061.0,8014.0,1171.0,2084.0,1861.0,2781.0,,,,0.130761721114385,0.0580314143932527,2.70631158266549,,-2.187053404859311,,
,6993.0,1058.0,8013.0,1172.0,2088.0,1868.0,2784.0,,,,0.130726807711171,0.0580410667640223,2.70636714292297,,-2.169097392265298,,
,6990.0,1058.0,8010.0,1167.0,2097.0,1876.0,2784.0,,,,0.130763666834667,0.0580499654284102,2.70741772865958,,-2.141109825840888,,
,6988.0,1057.0,8011.0,1169.0,2094.0,1887.0,2796.0,,,,0.130762548922695,0.0580451926405417,2.7073047365929,,-2.1060512871776274,,
,6989.0,1062.0,8010.0,1169.0,2076.0,1870.0,2783.0,,,,0.130770674228539,0.0580489989432722,2.70760949070797,,-2.0673609520521263,,
,6989.0,1057.0,8012.0,1172.0,2087.0,1882.0,2758.0,,,,0.130778833358233,0.0580804777780977,2.70706086143389,,-2.0287458949702484,,
,6985.0,1058.0,8011.0,1170.0,2082.0,1868.0,2771.0,,,,0.130813018233598,0.0580923231196199,2.70691642476135,,-1.9939543451671726,,
,6984.0,1060.0,8012.0,1171.0,2090.0,1870.0,2788.0,,,,0.130752622354921,0.0579989534261108,2.70655605799986,,-1.9665429163544113,,
,6983.0,1057.0,8013.0,1171.0,2089.0,1872.0,2773.0,,,,0.130713386156747,0.057969915433994,2.70624927255005,,-1.9496474087798947,,
,6982.0,1060.0,8011.0,1170.0,2085.0,1878.0,2798.0,,,,0.13062926707337,0.0578010263177368,2.70478536810853,,-1.9457669231684456,,
,6986.0,1059.0,8016.0,1172.0,2091.0,1889.0,2797.0,,,,0.130578127490785,0.0577196641437443,2.70334125881847,,-1.9565715383583704,,
,6981.0,1059.0,8012.0,1170.0,2084.0,1872.0,2793.0,,,,0.130539694529888,0.057640228065608,2.70281086852979,,-1.9827442890350202,,
,6977.0,1060.0,8013.0,1170.0,2072.0,1867.0,2772.0,,,,0.130464871835922,0.0576002324124393,2.70232082136264,,-2.023868180935805,,
,6980.0,1058.0,8013.0,1171.0,2078.0,1876.0,2793.0,,,,0.130402694886207,0.0575248585585268,2.70083532916065,,-2.0783680525194668,,
,6980.0,1062.0,8011.0,1173.0,2091.0,1861.0,2818.0,,,,0.13040534349337,0.0574636597590108,2.69999968862685,,-2.143514820609841,,
,6980.0,1061.0,8016.0,1170.0,2089.0,1851.0,2801.0,,,,0.130343769668458,0.057433590221198,2.69940007076366,,-2.215495735216056,,
,6981.0,1059.0,8015.0,1171.0,2080.0,1846.0,2800.0,,,,0.130316949639511,0.0573925096503046,2.69924451473889,,-2.2895487905957532,,
,6979.0,1061.0,8014.0,1172.0,2069.0,1858.0,2813.0,,,,0.130306951493694,0.0573867703359405,2.69980155463774,,-2.3601532020116283,,
,6979.0,1061.0,8015.0,1174.0,2087.0,1856.0,2815.0,,,,0.130280064669021,0.0574281149420558,2.70055889916406,,-2.421262447533258,,
,6980.0,1060.0,8016.0,1172.0,2095.0,1859.0,2808.0,,,,0.130345486374315,0.0574802218528541,2.70067295079703,,-2.4665634766229196,,
,6976.0,1060.0,8014.0,1173.0,2084.0,1867.0,2790.0,,,,0.130384455183036,0.0574953943620372,2.70018895780337,,-2.4897459962944004,,
,6980.0,1060.0,8014.0,1173.0,2071.0,1877.0,2774.0,,,,0.130415819390922,0.0575316712261724,2.70215212223805,,-2.4847684710161877,,
,6977.0,1059.0,8016.0,1173.0,2096.0,1864.0,2776.0,,,,0.130495369472865,0.057628701842586,2.70305097226642,,-2.446110891837112,,
,6979.0,1060.0,8016.0,1173.0,2091.0,1872.0,2756.0,,,,0.130545857617621,0.057848582138114,2.70427237921969,,-2.3690068496652996,,
,6980.0,1059.0,8017.0,1170.0,2079.0,1882.0,2772.0,,,,0.130697588555958,0.057952827168363,2.70616470545126,,-2.249648207701556,,
,6975.0,1059.0,8015.0,1173.0,2081.0,1875.0,2786.0,,,,0.130764118165942,0.0580123329079314,2.70800931140512,,-2.08535499839969,,
,6979.0,1058.0,8015.0,1171.0,2092.0,1865.0,2795.0,,,,0.13079876363129,0.0580977393766481,2.70844618145408,,-1.8747021277641207,,
,6977.0,1059.0,8017.0,1171.0,2077.0,1870.0,2800.0,,,,0.13081409265795,0.058112153195467,2.70893206995407,,-1.6175943667828114,,
,6974.0,1061.0,8017.0,1173.0,2092.0,1861.0,2783.0,,,,0.130816791039172,0.0581475456580255,2.70868165353394,,-1.3152830844895356,,
,6973.0,1060.0,8015.0,1173.0,2084.0,1853.0,2781.0,,,,0.130834358381015,0.0581703057866942,2.70917269857848,,-0.9703227882122509,,
,6975.0,1059.0,8018.0,1173.0,2090.0,1855.0,2769.0,,,,0.130813255054644,0.0581474965925057,2.70882943384557,,-0.5864723518373866,,
,6974.0,1062.0,8018.0,1173.0,2085.0,1857.0,2795.0,,,,0.130724825945654,0.0580126791925931,2.707682867648,,-0.1685533558795747,,
,6970.0,1059.0,8019.0,1171.0,2078.0,1850.0,2800.0,,,,0.130526346175005,0.0577409610205379,2.70486648894053,,0.2777157530174697,,
,6970.0,1058.0,8018.0,1172.0,2088.0,1847.0,2797.0,,,,0.130258262125175,0.057288086818081,2.70028807589202,,0.7458877165111485,,
,6970.0,1058.0,8019.0,1172.0,2093.0,1859.0,2802.0,,,,0.129961962062587,0.0568599447135473,2.69539971509022,,1.228935650846118,,
,6972.0,1062.0,8020.0,1173.0,2113.0,1865.0,2802.0,,,,0.12974365434389,0.0565731840544195,2.69095312704709,,1.719367685065645,,
,6972.0,1059.0,8020.0,1174.0,2114.0,1868.0,2803.0,,,,0.129599349435545,0.0564073197609688,2.68918996716093,,2.2093008791695037,,
,6970.0,1059.0,8017.0,1172.0,2106.0,1869.0,2805.0,,,,0.12939494336825,0.056155855456741,2.6858470615584,,2.6905005229454844,,
,6972.0,1059.0,8018.0,1171.0,2076.0,1869.0,2789.0,,,,0.129243121922923,0.0558513878224846,2.68347369633223,,3.1544035392187495,,
,6972.0,1060.0,8017.0,1173.0,2083.0,1864.0,2795.0,,,,0.129061387741506,0.0554039884227849,2.68065337159518,,3.592154448087816,,
,6971.0,1060.0,8018.0,1176.0,2093.0,1865.0,2792.0,,,,0.128827689570019,0.0548058982518582,2.67682656321396,,3.994686113729583,,
,6975.0,1059.0,8022.0,1174.0,2097.0,1868.0,2783.0,,,,0.128605717325502,0.0542617604999257,2.67298924783296,,4.352873739806733,,
,6973.0,1059.0,8020.0,1173.0,2089.0,1865.0,2798.0,,,,0.128439676724357,0.0537665487207223,2.66857189460353,,4.657779980851948,,
,6974.0,1060.0,8023.0,1176.0,2064.0,1874.0,2769.0,,,,0.128234090525979,0.0533534147448462,2.66577514774161,,4.900993969111602,,
,6975.0,1061.0,8024.0,1176.0,2086.0,1879.0,2765.0,,,,0.12808954275275,0.0531424209146556,2.66291337211825,,5.075050368140882,,
,6975.0,1060.0,8023.0,1177.0,2081.0,1873.0,2758.0,,,,0.127973413400237,0.052827640653709,2.66123950905983,,5.173898669689274,,
,6975.0,1059.0,8019.0,1176.0,2097.0,1870.0,2761.0,,,,0.127912855885053,0.0525799369433359,2.65994831881727,,5.19337967704482,,
,6975.0,1061.0,8024.0,1177.0,2091.0,1881.0,2757.0,,,,0.127883418741362,0.0525984258869924,2.65931009519555,,5.1316570968275705,,
,6981.0,1062.0,8026.0,1180.0,2095.0,1875.0,2817.0,,,,0.127809979552799,0.0524231661722503,2.65829190426518,,4.98954921229715,,
,6980.0,1062.0,8024.0,1179.0,2104.0,1860.0,2812.0,,,,0.127833865603602,0.0523687908769307,2.65799917016228,,4.770710518565526,,
,6981.0,1064.0,8024.0,1179.0,2081.0,1866.0,2794.0,,,,0.127855355810063,0.0524076524541119,2.65757579440293,,4.4816267005183805,,
,6982.0,1064.0,8025.0,1181.0,2072.0,1858.0,2782.0,,,,0.127877212046684,0.0524496362685534,2.65852229560813,,4.131406984313021,,
,6987.0,1062.0,8026.0,1183.0,2081.0,1866.0,2773.0,,,,0.12797314667602,0.0527919215400457,2.66056211660165,,3.7313818569563617,,
,6988.0,1065.0,8028.0,1183.0,2099.0,1859.0,2774.0,,,,0.128050572495974,0.0528947326790285,2.66041649406947,,3.294536432437594,,
,6991.0,1066.0,8029.0,1184.0,2093.0,1867.0,2779.0,,,,0.128054053979642,0.0530278103556085,2.66119387785973,,2.8348262724215987,,
,6989.0,1064.0,8026.0,1184.0,2086.0,1858.0,2794.0,,,,0.128116110129174,0.0532108032025395,2.66152963978401,,2.366431544378802,,
,6994.0,1066.0,8031.0,1186.0,2098.0,1869.0,2784.0,,,,0.128089294303127,0.0531156193391176,2.66120606549099,,1.903007615968405,,
,6995.0,1065.0,8029.0,1187.0,2099.0,1865.0,2794.0,,,,0.127964285314417,0.052956270096082,2.65975716898272,,1.45698725573035,,
,6999.0,1068.0,8034.0,1190.0,2083.0,1860.0,2795.0,,,,0.12783439695239,0.0526317144265643,2.65708236592091,,1.0389830824480741,,
,6999.0,1066.0,8031.0,1186.0,2087.0,1878.0,2778.0,,,,0.127759024613257,0.0523964281422553,2.65534664931171,,0.6573295074683867,,
,7000.0,1066.0,8030.0,1188.0,2084.0,1864.0,2792.0,,,,0.127630654890811,0.0521056307110382,2.65342664530105,,0.31779135056309715,,
,7003.0,1069.0,8032.0,1191.0,2078.0,1880.0,2782.0,,,,0.127452462215178,0.0518366135905138,2.65076805787751,,0.02345208142275651,,
,7003.0,1069.0,8035.0,1192.0,2071.0,1873.0,2787.0,,,,0.127271263018062,0.0514469721469716,2.64701238672988,,-0.22522047383669414,,
,7006.0,1067.0,8031.0,1189.0,2085.0,1875.0,2814.0,,,,0.127182207300158,0.0513174028419967,2.64686262385509,,-0.4301472949598017,,
,7009.0,1066.0,8033.0,1191.0,2106.0,1872.0,2801.0,,,,0.127115338434916,0.0511915644295894,2.64517411008682,,-0.5952780082249918,,
,7012.0,1069.0,8037.0,1196.0,2088.0,1875.0,2777.0,,,,0.127151646714776,0.0511653075574535,2.64571278567347,,-0.726132821106893,,
,7013.0,1071.0,8036.0,1192.0,2096.0,1874.0,2787.0,,,,0.127184614339919,0.0512973735869794,2.64631749076704,,-0.8292853568957841,,
,7014.0,1068.0,8040.0,1196.0,2098.0,1877.0,2797.0,,,,0.127248290498729,0.0515221738650385,2.64739742814041,,-0.9118247906495173,,
,7016.0,1069.0,8038.0,1193.0,2069.0,1877.0,2793.0,,,,0.127314010971539,0.0516836162825162,2.64817866372923,,-0.980832409187553,,
,7020.0,1070.0,8039.0,1195.0,2080.0,1877.0,2807.0,,,,0.127528289430166,0.0519373292804251,2.65034891050243,,-1.0429026828393062,,
,7021.0,1071.0,8041.0,1197.0,2089.0,1881.0,2788.0,,,,0.127626240138201,0.0521647505085657,2.65237208228983,,-1.1037331884079085,,
,7025.0,1072.0,8042.0,1199.0,2088.0,1875.0,2791.0,,,,0.127714617529659,0.0524059390449044,2.65412538451497,,-1.1678020088346286,,
,7026.0,1072.0,8041.0,1198.0,2080.0,1869.0,2803.0,,,,0.127771379000196,0.0525569918497575,2.65515681831892,,-1.2381459259889314,,
,7027.0,1072.0,8042.0,1200.0,2085.0,1863.0,2798.0,,,,0.127821215749662,0.0527833627457076,2.65628373250605,,-1.3162478673972058,,
,7032.0,1073.0,8045.0,1202.0,2095.0,1882.0,2772.0,,,,0.12793236252058,0.0530421919902129,2.65827306951198,,-1.4020374421880386,,
,7031.0,1073.0,8045.0,1205.0,2091.0,1884.0,2786.0,,,,0.128033978621298,0.0532341205504154,2.65960656698726,,-1.494003535226192,,
,7033.0,1073.0,8044.0,1204.0,2084.0,1863.0,2777.0,,,,0.128107301908408,0.05330456833968,2.65974570458621,,-1.58941224259565,,
,7036.0,1072.0,8044.0,1205.0,2084.0,1855.0,2763.0,,,,0.128127417862163,0.0532713797581025,2.65998222436464,,-1.6846165417808192,,
,7036.0,1074.0,8046.0,1203.0,2081.0,1878.0,2767.0,,,,0.128068724629498,0.0531629426144818,2.65949368151225,,-1.7754361632562818,,
,7043.0,1077.0,8047.0,1205.0,2079.0,1880.0,2769.0,,,,0.127950192803297,0.052934145763395,2.6572858542047,,-1.8575781836515288,,
,7047.0,1078.0,8049.0,1207.0,2076.0,1879.0,2778.0,,,,0.127832638862987,0.052667084425689,2.65570594260702,,-1.9270627689943405,,
,7044.0,1074.0,8049.0,1206.0,2077.0,1874.0,2793.0,,,,0.127718568441842,0.0524710735138063,2.65450564363808,,-1.9806163283630682,,
,7047.0,1076.0,8052.0,1208.0,2075.0,1865.0,2813.0,,,,0.127648738605435,0.0522597260885155,2.65214262594784,,-2.0159971858911194,,
,7050.0,1078.0,8052.0,1209.0,2099.0,1865.0,2799.0,,,,0.127626558539896,0.0520258275728672,2.65134559132338,,-2.0322261993579436,,
,7055.0,1078.0,8052.0,1212.0,2103.0,1878.0,2782.0,,,,0.127515421936109,0.0519511929632093,2.65041712254155,,-2.0297048344511617,,
,7056.0,1076.0,8053.0,1209.0,2088.0,1880.0,2801.0,,,,0.127484127615663,0.0517773662011975,2.6499646465183,,-2.0102141121713513,,
,7058.0,1076.0,8050.0,1211.0,2092.0,1869.0,2794.0,,,,0.127464472224605,0.0517637571724971,2.64923933027733,,-1.9767980295418377,,
,7059.0,1079.0,8053.0,1212.0,2098.0,1876.0,2803.0,,,,0.127453355360203,0.0517543891904664,2.64916864041303,,-1.9335435213079397,,
,7061.0,1080.0,8054.0,1211.0,2105.0,1874.0,2797.0,,,,0.127493363251687,0.0517777428539423,2.64871684027745,,-1.885275360288059,,
,7064.0,1078.0,8053.0,1214.0,2090.0,1879.0,2770.0,,,,0.127495277495157,0.0517420869707392,2.64937116052174,,-1.8371886423229014,,
,7065.0,1081.0,8054.0,1214.0,2100.0,1883.0,2789.0,,,,0.12747008122541,0.0517370277791897,2.64909044911014,,-1.7944440609145023,,
,7068.0,1080.0,8057.0,1215.0,2086.0,1891.0,2804.0,,,,0.127489056183375,0.0518960898431111,2.64957889316055,,-1.7617525855553051,,
,7070.0,1081.0,8056.0,1216.0,2093.0,1889.0,2786.0,,,,0.127482673055553,0.0518502075516829,2.64920754874878,,-1.7429768286310043,,
,7074.0,1081.0,8058.0,1218.0,2089.0,1889.0,2785.0,,,,0.127477954338823,0.0517997537392539,2.64858440147434,,-1.7407763412177988,,
,7078.0,1081.0,8059.0,1219.0,2085.0,1881.0,2760.0,,,,0.127448892187199,0.0517921591239031,2.6478526768969,,-1.7563228978648235,,
,7079.0,1081.0,8059.0,1220.0,2088.0,1877.0,2767.0,,,,0.12746396845093,0.0518788773244877,2.64828794913557,,-1.7891088870946257,,
,7083.0,1084.0,8061.0,1221.0,2101.0,1877.0,2771.0,,,,0.127546867815132,0.0520246390629763,2.64879481968197,,-1.8368667567345311,,
,7086.0,1083.0,8060.0,1220.0,2102.0,1875.0,2773.0,,,,0.127609153223077,0.0521044896278126,2.65038636385502,,-1.8956100183813231,,
,7086.0,1083.0,8062.0,1220.0,2093.0,1875.0,2800.0,,,,0.127653472825004,0.0522508264008802,2.65125788758021,,-1.9597969451721833,,
,7092.0,1083.0,8061.0,1222.0,2085.0,1871.0,2796.0,,,,0.127719728042964,0.0524847699142488,2.65224068627272,,-2.0226075154473837,,
,7093.0,1084.0,8066.0,1225.0,2077.0,1882.0,2791.0,,,,0.127772592164613,0.0525624888255889,2.65301561727387,,-2.076313572685081,,
,7099.0,1086.0,8066.0,1225.0,2089.0,1890.0,2783.0,,,,0.127786647700187,0.0525356368301574,2.6537077971026,,-2.1127133691059,,
,7100.0,1086.0,8065.0,1226.0,2085.0,1877.0,2803.0,,,,0.127840429878907,0.0526557333383293,2.65371118234179,,-2.123596501525012,,
,7103.0,1087.0,8066.0,1225.0,2089.0,1880.0,2783.0,,,,0.127796354903607,0.0527409857401075,2.65393574468424,,-2.101204727394951,,
,7107.0,1087.0,8068.0,1229.0,2086.0,1890.0,2763.0,,,,0.127854205873065,0.0525982607017956,2.65382859085496,,-2.0386577838525617,,
,7109.0,1088.0,8069.0,1228.0,2085.0,1865.0,2763.0,,,,0.12784995259244,0.0527237397027934,2.65514588352191,,-1.9303194998244575,,
,7111.0,1088.0,8070.0,1229.0,2101.0,1862.0,2769.0,,,,0.127871723086746,0.0528291479994091,2.65547075884804,,-1.7720863834330558,,
,7117.0,1087.0,8069.0,1231.0,2088.0,1884.0,2765.0,,,,0.127883173339893,0.0528566895631114,2.65680146692873,,-1.5615873457012155,,
,7116.0,1089.0,8072.0,1231.0,2103.0,1882.0,2781.0,,,,0.127929894225648,0.0528540823675821,2.6570866231354,,-1.2982891299101418,,
,7121.0,1090.0,8072.0,1232.0,2101.0,1884.0,2786.0,,,,0.127938194404706,0.0529725686971143,2.65625652610892,,-0.9835078698142317,,
2025-08-01 19:17:28,7120.0,1089.0,8071.0,1232.0,2108.0,1874.0,2794.0,,,2025/08/01 07:17:28 PM,0.127877755135744,0.0528253967337038,2.65591410439622,,-0.6203334991202613,,
,7121.0,1085.0,8069.0,1231.0,2095.0,1873.0,2793.0,,,,0.127863643683194,0.0528390833676752,2.65653399954182,,-0.21348037620223342,,
,7122.0,1088.0,8074.0,1229.0,2109.0,1873.0,2772.0,,,,0.127841272106306,0.0526450790565784,2.65597534556204,,0.2309163881773761,,
,7120.0,1090.0,8075.0,1229.0,2109.0,1882.0,2794.0,,,,0.1277546468445,0.0525221091167253,2.65473425246436,,0.7055351568465739,,
,7119.0,1088.0,8073.0,1224.0,2102.0,1888.0,2800.0,,,,0.127692397973096,0.0524046039616501,2.65531676530954,,1.2021077244010643,,
,7109.0,1083.0,8071.0,1220.0,2092.0,1883.0,2796.0,,,,0.127684379178395,0.0523092383128558,2.65472202756535,,1.711642988161937,,
,7103.0,1080.0,8066.0,1216.0,2089.0,1887.0,2805.0,,,,0.127643005653677,0.0523523454519163,2.65410761461308,,2.2246188179663484,,
,7101.0,1084.0,8070.0,1214.0,2099.0,1898.0,2797.0,,,,0.127659652860102,0.0522204847356778,2.65437176808507,,2.7311359472120684,,
,7095.0,1079.0,8066.0,1211.0,2078.0,1885.0,2797.0,,,,0.127601772007374,0.052244603454133,2.65333592849725,,3.221038689013875,,
,7087.0,1076.0,8065.0,1209.0,2079.0,1879.0,2791.0,,,,0.127540008231176,0.0520454919781099,2.65271202988853,,3.6840185145978226,,
,7079.0,1076.0,8060.0,1202.0,2072.0,1860.0,2801.0,,,,0.127598597260263,0.0520553446716324,2.6542126002086,,4.109726138547413,,
,7073.0,1073.0,8059.0,1200.0,2068.0,1867.0,2786.0,,,,0.127633126398559,0.0521775299113431,2.65405375375998,,4.4879231667045545,,
,7071.0,1076.0,8055.0,1200.0,2091.0,1871.0,2809.0,,,,0.127683050623897,0.0522236792377262,2.6546888923866,,4.808702801119097,,
,7063.0,1075.0,8058.0,1196.0,2088.0,1878.0,2785.0,,,,0.127663151732456,0.0522648152684599,2.65530409719049,,5.062798945187045,,
,7060.0,1073.0,8053.0,1190.0,2077.0,1863.0,2783.0,,,,0.127670902946497,0.0522859005759924,2.65460888387565,,5.241985251911771,,
,7053.0,1072.0,8052.0,1191.0,2088.0,1856.0,2785.0,,,,0.127618080686813,0.0522466907022973,2.65508394430553,,5.339543805765984,,
,7047.0,1071.0,8051.0,1189.0,2102.0,1850.0,2794.0,,,,0.127676085179788,0.0523075464527074,2.65515654923108,,5.3507621020054295,,
,7047.0,1070.0,8049.0,1191.0,2096.0,1871.0,2762.0,,,,0.127662200794503,0.0521576858938613,2.65464863152566,,5.27340133146204,,
,7044.0,1069.0,8049.0,1190.0,2108.0,1878.0,2760.0,,,,0.12764715955828,0.0521212012991246,2.65541534652247,,5.1080720297814874,,
,7039.0,1072.0,8050.0,1188.0,2084.0,1881.0,2780.0,,,,0.127647223309011,0.0521877924112948,2.65546420606072,,4.858456782998363,,
,7039.0,1068.0,8048.0,1189.0,2073.0,1896.0,2776.0,,,,0.127582022361574,0.0520075261602553,2.65477889809648,,4.531334133035178,,
,7037.0,1070.0,8050.0,1190.0,2058.0,1890.0,2781.0,,,,0.127506334331321,0.0517785457440172,2.65398981987871,,4.136381294655772,,
,7034.0,1074.0,8048.0,1187.0,2058.0,1880.0,2797.0,,,,0.127545299064008,0.0518686824443235,2.65330225058379,,3.6857616153700294,,
,7035.0,1070.0,8048.0,1186.0,2085.0,1896.0,2788.0,,,,0.127545292309359,0.0518490718584773,2.6537404344188,,3.193529948479753,,
,7035.0,1069.0,8046.0,1188.0,2085.0,1891.0,2798.0,,,,0.127556476618964,0.051922839319051,2.65451108330827,,2.674909496866269,,
,7036.0,1072.0,8048.0,1190.0,2077.0,1889.0,2810.0,,,,0.127481441135818,0.0518463583087041,2.65438209318664,,2.145503904485877,,
,7035.0,1072.0,8048.0,1189.0,2070.0,1881.0,2797.0,,,,0.12747009195067,0.051783019313642,2.65345717512279,,1.6205085082392592,,
,7030.0,1070.0,8047.0,1190.0,2076.0,1871.0,2788.0,,,,0.127381318228963,0.0516718352859986,2.65226529291416,,1.1139773048897021,,
,7032.0,1070.0,8050.0,1190.0,2083.0,1877.0,2796.0,,,,0.127380326917097,0.0516002797390728,2.65331094391569,,0.6381908028890682,,
,7033.0,1070.0,8048.0,1190.0,2081.0,1865.0,2806.0,,,,0.127341869964128,0.051622674731213,2.65296108882659,,0.20315759492340152,,
,7033.0,1072.0,8051.0,1190.0,2104.0,1858.0,2788.0,,,,0.127341099707778,0.0515146350168347,2.65261045043699,,-0.18372890528312202,,
,7034.0,1071.0,8048.0,1190.0,2117.0,1854.0,2771.0,,,,0.127278643412367,0.0514499554447968,2.65221677185749,,-0.5178672590488738,,
,7031.0,1072.0,8050.0,1191.0,2093.0,1865.0,2778.0,,,,0.127273141893607,0.0514539030967226,2.65288761457349,,-0.7974567841423218,,
,7034.0,1071.0,8048.0,1192.0,2110.0,1871.0,2796.0,,,,0.127264313578478,0.0514948043573139,2.65296188658957,,-1.0233469544149192,,
,7031.0,1074.0,8050.0,1190.0,2081.0,1871.0,2785.0,,,,0.127306201985297,0.0515554404411751,2.65281948033466,,-1.1987463679067378,,
,7030.0,1072.0,8050.0,1190.0,2065.0,1856.0,2789.0,,,,0.127344263549802,0.0515488726024198,2.65248201504754,,-1.3288193826172778,,
,7031.0,1069.0,8049.0,1193.0,2073.0,1867.0,2789.0,,,,0.1273195368095,0.0514657914573972,2.65288899729012,,-1.4202050346194814,,
,7031.0,1072.0,8052.0,1191.0,2085.0,1866.0,2801.0,,,,0.127304354394779,0.0515982694867219,2.65369543935067,,-1.4804958141928786,,
,7033.0,1072.0,8051.0,1192.0,2076.0,1866.0,2803.0,,,,0.12727491654693,0.0515025591129631,2.65231032269367,,-1.5177131155239965,,
,7034.0,1073.0,8052.0,1194.0,2081.0,1857.0,2790.0,,,,0.127252441662045,0.0512430610553021,2.65285062930216,,-1.5398121769992204,,
,7033.0,1071.0,8052.0,1192.0,2088.0,1857.0,2760.0,,,,0.127266635577984,0.0513896443723843,2.65296845320225,,-1.5542429960229411,,
,7031.0,1069.0,8053.0,1192.0,2087.0,1859.0,2778.0,,,,0.127296074646633,0.051465772642175,2.65336212948316,,-1.567586132476835,,
,7033.0,1072.0,8054.0,1192.0,2079.0,1859.0,2780.0,,,,0.127229673272284,0.0513264306139343,2.65286646594493,,-1.585274637302859,,
,7035.0,1073.0,8054.0,1193.0,2082.0,1870.0,2787.0,,,,0.127260555580015,0.0512939359053426,2.65287287881639,,-1.6114065609114383,,
,7034.0,1073.0,8051.0,1195.0,2094.0,1865.0,2792.0,,,,0.127251518139803,0.0512526011104243,2.65309535407992,,-1.6486472777300358,,
,7031.0,1068.0,8053.0,1193.0,2086.0,1860.0,2791.0,,,,0.127183274915151,0.0510711418464504,2.65174910136643,,-1.6982173724933787,,
,7031.0,1071.0,8052.0,1193.0,2108.0,1871.0,2792.0,,,,0.127222175499345,0.0510573054626409,2.65219043996006,,-1.7599597552578736,,
,7033.0,1073.0,8055.0,1194.0,2076.0,1874.0,2801.0,,,,0.127243577548988,0.0513164431494009,2.65354054881233,,-1.832478398587013,,
,7033.0,1071.0,8053.0,1191.0,2080.0,1876.0,2792.0,,,,0.127295826676127,0.0513870126906391,2.65433855281913,,-1.9133399301981655,,
,7031.0,1071.0,8056.0,1192.0,2076.0,1894.0,2786.0,,,,0.127331183504033,0.0516364902638078,2.65509114015373,,-1.999327650227837,,
,7031.0,1073.0,8054.0,1192.0,2105.0,1865.0,2798.0,,,,0.127396548066293,0.0516418168806736,2.6554320371845,,-2.086734984326814,,
,7030.0,1073.0,8055.0,1194.0,2096.0,1872.0,2806.0,,,,0.127364430952055,0.0515683368410238,2.6549819347404,,-2.1716819719685283,,
,7032.0,1072.0,8055.0,1192.0,2092.0,1875.0,2807.0,,,,0.127192965433415,0.0512170463874786,2.65245324490577,,-2.250434803898144,,
,7030.0,1070.0,8053.0,1192.0,2099.0,1867.0,2771.0,,,,0.126942423182278,0.0506645138516828,2.64902726622552,,-2.319705950164234,,
,7027.0,1071.0,8053.0,1192.0,2102.0,1884.0,2759.0,,,,0.126676309895719,0.0499440460276174,2.6434867132309,,-2.3769123957853546,,
,7029.0,1071.0,8053.0,1192.0,2108.0,1866.0,2767.0,,,,0.126529595515891,0.0496089702306774,2.64109931468439,,-2.420372475500802,,
,7028.0,1073.0,8057.0,1191.0,2098.0,1860.0,2772.0,,,,0.12640519263024,0.0496233929821648,2.6407865174908,,-2.4494271952792253,,
,7028.0,1072.0,8057.0,1192.0,2091.0,1863.0,2757.0,,,,0.126375362495998,0.0494123187760335,2.63898689933219,,-2.4644785085517817,,
,7028.0,1070.0,8053.0,1190.0,2090.0,1861.0,2774.0,,,,0.12620699000052,0.0490511961319684,2.63680015960993,,-2.466943606086147,,
,7026.0,1075.0,8055.0,1193.0,2093.0,1871.0,2776.0,,,,0.126026227781518,0.0485160475926558,2.63311741039276,,-2.459130149737433,,
,7029.0,1072.0,8056.0,1195.0,2108.0,1870.0,2786.0,,,,0.125822588332117,0.0479540421430352,2.62911742578363,,-2.444042216101556,,
,7029.0,1071.0,8056.0,1194.0,2095.0,1861.0,2808.0,,,,0.125631007904942,0.0476454148887276,2.62616019073208,,-2.425130406535904,,
,7028.0,1072.0,8057.0,1193.0,2100.0,1880.0,2789.0,,,,0.125537110423571,0.047343167267744,2.62359982940781,,-2.406002088827239,,
,7030.0,1069.0,8057.0,1193.0,2113.0,1861.0,2781.0,,,,0.125397867366344,0.0471214796383542,2.62192394401473,,-2.390109167804339,,
,7031.0,1074.0,8058.0,1195.0,2095.0,1864.0,2778.0,,,,0.125334228111537,0.0469197221362309,2.62021338842109,,-2.380431482386361,,
,7032.0,1075.0,8058.0,1197.0,2103.0,1867.0,2774.0,,,,0.125278733489098,0.0469503382750005,2.61918906526292,,-2.3791743693955087,,
,7032.0,1073.0,8060.0,1196.0,2101.0,1851.0,2785.0,,,,0.125263785108339,0.0468189013075974,2.6187362451209,,-2.387499421145936,,
,7034.0,1071.0,8056.0,1194.0,2104.0,1852.0,2796.0,,,,0.125232436566109,0.0468547771177271,2.61781359234574,,-2.40530785014686,,
,7036.0,1074.0,8060.0,1197.0,2113.0,1847.0,2795.0,,,,0.125227111575712,0.0469549691720274,2.61852183262078,,-2.4310955371202043,,
,7039.0,1074.0,8062.0,1197.0,2098.0,1882.0,2771.0,,,,0.125216656934541,0.0468691755664132,2.61744330822028,,-2.461896931241276,,
,7039.0,1072.0,8060.0,1199.0,2097.0,1886.0,2777.0,,,,0.125279369350689,0.0469917815685112,2.61852677395924,,-2.4933308128670246,,
,7037.0,1075.0,8060.0,1199.0,2086.0,1885.0,2785.0,,,,0.125391955135601,0.0473851620249521,2.62016170743752,,-2.519754289283036,,
,7042.0,1074.0,8060.0,1197.0,2112.0,1892.0,2789.0,,,,0.125524829991075,0.0475909835902955,2.62183005825415,,-2.5345225421356727,,
,7044.0,1076.0,8064.0,1200.0,2112.0,1887.0,2776.0,,,,0.125729246785015,0.0481896973607969,2.62519908113024,,-2.530341445424086,,
,7045.0,1077.0,8063.0,1201.0,2103.0,1891.0,2774.0,,,,0.125973630098505,0.0487065515096141,2.62936361325307,,-2.499689330133443,,
,7044.0,1075.0,8061.0,1201.0,2109.0,1881.0,2771.0,,,,0.126217054174867,0.0493736897003367,2.63386224405534,,-2.43527470340283,,
,7050.0,1077.0,8066.0,1204.0,2104.0,1872.0,2784.0,,,,0.126538477634501,0.0499279396087411,2.63705945617197,,-2.33049109163149,,
,7053.0,1078.0,8064.0,1205.0,2099.0,1874.0,2789.0,,,,0.126738056207543,0.0504395316926006,2.64110773044001,,-2.1798305094186534,,
,7052.0,1077.0,8062.0,1204.0,2094.0,1872.0,2784.0,,,,0.126953406238031,0.0509207845486206,2.64357409002069,,-1.979223940826815,,
,7054.0,1078.0,8065.0,1204.0,2110.0,1853.0,2775.0,,,,0.12711927538976,0.0513699741109747,2.64652780975831,,-1.7262892332797302,,
,7058.0,1077.0,8067.0,1208.0,2093.0,1876.0,2787.0,,,,0.127350328981441,0.0518399353856852,2.64979289951528,,-1.4204810815559883,,
,7059.0,1080.0,8069.0,1208.0,2107.0,1886.0,2752.0,,,,0.127546401164873,0.0521682467756862,2.65273043895226,,-1.0631509780833046,,
,7059.0,1079.0,8068.0,1208.0,2095.0,1865.0,2749.0,,,,0.127728389921001,0.0525489719028297,2.65454037978825,,-0.6575342430780625,,
,7063.0,1081.0,8069.0,1209.0,2102.0,1852.0,2761.0,,,,0.127841871243,0.0529189408387717,2.65691234051066,,-0.20868482371999583,,
,7064.0,1080.0,8069.0,1209.0,2089.0,1851.0,2765.0,,,,0.12812397325775,0.0535515716778872,2.6610467187677,,0.27662372844715205,,
,7066.0,1078.0,8070.0,1211.0,2096.0,1856.0,2771.0,,,,0.128307897281177,0.0540233494806509,2.66406717137897,,0.7900196325700682,,
,7068.0,1080.0,8071.0,1211.0,2091.0,1870.0,2790.0,,,,0.128438761520876,0.0542953308567323,2.66711370577922,,1.321674556657373,,
,7070.0,1082.0,8070.0,1212.0,2095.0,1880.0,2773.0,,,,0.128597255683743,0.0546191875168244,2.66879842898467,,1.8604728753279085,,
,7071.0,1080.0,8072.0,1213.0,2099.0,1885.0,2781.0,,,,0.128716548421579,0.0549153744842392,2.67072988237233,,2.3942227065706407,,
,7075.0,1083.0,8071.0,1212.0,2104.0,1874.0,2759.0,,,,0.12883229925132,0.0552338603094838,2.67251550926852,,2.9099258835524218,,
,7078.0,1081.0,8073.0,1211.0,2099.0,1882.0,2779.0,,,,0.129004862439151,0.0556690575312681,2.67533158948328,,3.39412231000117,,
,7080.0,1083.0,8074.0,1215.0,2088.0,1882.0,2787.0,,,,0.129267672907959,0.0561180638361248,2.67938563290639,,3.833317812133852,,
,7080.0,1081.0,8073.0,1216.0,2099.0,1875.0,2807.0,,,,0.129427703595907,0.0564161650397167,2.68198706649471,,4.21449428219693,,
,7083.0,1082.0,8071.0,1213.0,2120.0,1873.0,2804.0,,,,0.129605070097078,0.0566806325078562,2.68516965188728,,4.5256878710019635,,
,7083.0,1087.0,8077.0,1217.0,2133.0,1866.0,2792.0,,,,0.129726848802317,0.0569164289020425,2.68854055622944,,4.756607098708084,,
,7086.0,1084.0,8078.0,1217.0,2129.0,1883.0,2782.0,,,,0.130028622334066,0.0572800196269127,2.69244625314626,,4.899250193415593,,
,7087.0,1082.0,8075.0,1219.0,2084.0,1874.0,2795.0,,,,0.130260216674506,0.0575459799782358,2.69558386650427,,4.948471605747166,,
,7091.0,1084.0,8075.0,1217.0,2088.0,1869.0,2773.0,,,,0.130459649983685,0.0578242792022852,2.69970097966531,,4.902442587263993,,
,7091.0,1084.0,8076.0,1220.0,2113.0,1870.0,2792.0,,,,0.130605265966852,0.0580611669282945,2.70262056506753,,4.7629506265872115,,
,7095.0,1086.0,8076.0,1221.0,2114.0,1878.0,2766.0,,,,0.130797422139736,0.0582819545497425,2.70468622326696,,4.5354885147103845,,
,7095.0,1087.0,8080.0,1220.0,2108.0,1871.0,2759.0,,,,0.130896892375266,0.0584507812978621,2.70686438451237,,4.229097569576163,,
,7096.0,1085.0,8078.0,1219.0,2101.0,1873.0,2767.0,,,,0.131094067539998,0.0587068157158784,2.70992990548074,,3.8559520873639035,,
,7098.0,1086.0,8082.0,1222.0,2117.0,1860.0,2790.0,,,,0.131150425861348,0.0587888086226772,2.71122474401825,,3.430701789712926,,
,7100.0,1086.0,8083.0,1220.0,2114.0,1868.0,2770.0,,,,0.131131896389406,0.0587660607748513,2.71100924750908,,2.9696209073605164,,
,7103.0,1088.0,8084.0,1222.0,2125.0,1868.0,2772.0,,,,0.131104368804607,0.0587160232496726,2.71102492027884,,2.48963955136009,,
,7105.0,1087.0,8080.0,1225.0,2112.0,1862.0,2811.0,,,,0.131069645994309,0.0586767937361292,2.70987904547181,,2.0073489450249116,,
,7105.0,1084.0,8081.0,1223.0,2107.0,1858.0,2794.0,,,,0.13120000959609,0.0587781063270262,2.71101322898088,,1.5380739127677727,,
,7110.0,1089.0,8083.0,1226.0,2120.0,1844.0,2781.0,,,,0.131265896947612,0.0589368610875377,2.71294410882673,,1.0950944504890605,,
,7111.0,1091.0,8084.0,1227.0,2122.0,1855.0,2789.0,,,,0.131313462302975,0.0589536549255016,2.71418310770892,,0.6890765049791796,,
,7113.0,1089.0,8084.0,1225.0,2115.0,1858.0,2801.0,,,,0.131307540510945,0.0588961693059861,2.71412487566067,,0.32774459643213544,,
,7112.0,1086.0,8085.0,1226.0,2120.0,1869.0,2818.0,,,,0.131298100292019,0.0589770788235182,2.71432524248673,,0.01579998198177807,,
,7121.0,1091.0,8087.0,1228.0,2113.0,1877.0,2821.0,,,,0.131416456650948,0.0591126494682408,2.71505525066505,,-0.24493849633562417,,
,7121.0,1088.0,8087.0,1230.0,2121.0,1883.0,2794.0,,,,0.131571964716729,0.0593153214222778,2.71873276181964,,-0.45521487532679167,,
,7122.0,1091.0,8089.0,1228.0,2120.0,1880.0,2791.0,,,,0.131703271393891,0.0595115249998982,2.72022881227969,,-0.6178953697814196,,
,7124.0,1087.0,8086.0,1229.0,2115.0,1876.0,2790.0,,,,0.131796017260606,0.0595625200976674,2.72176659436484,,-0.7374685755508619,,
,7127.0,1090.0,8089.0,1229.0,2110.0,1855.0,2816.0,,,,0.131906326060355,0.0597176995043693,2.72358701904589,,-0.8195438975757566,,
,7129.0,1090.0,8089.0,1229.0,2109.0,1856.0,2797.0,,,,0.132026086869316,0.0599126544463419,2.72483799248048,,-0.8703927961757633,,
,7130.0,1091.0,8091.0,1231.0,2107.0,1873.0,2781.0,,,,0.132188196376071,0.0601501508069498,2.7284842998214,,-0.8965600717678732,,
,7132.0,1091.0,8092.0,1230.0,2100.0,1867.0,2796.0,,,,0.132364226291712,0.0604607621691382,2.73159650494402,,-0.904555103031579,,
,7135.0,1091.0,8090.0,1235.0,2109.0,1861.0,2776.0,,,,0.132574236130897,0.0607620051378584,2.73584878438548,,-0.900619926724961,,
,7138.0,1093.0,8093.0,1236.0,2099.0,1874.0,2761.0,,,,0.132891440026292,0.0611805632766585,2.7407947196522,,-0.890564136673425,,
,7143.0,1096.0,8094.0,1239.0,2091.0,1877.0,2772.0,,,,0.133012673282955,0.0614604266302071,2.74258647604158,,-0.8796548527738578,,
,7143.0,1096.0,8091.0,1235.0,2105.0,1882.0,2800.0,,,,0.133206741362361,0.0617235170609772,2.74624738141306,,-0.8725509303813608,,
,7149.0,1094.0,8095.0,1240.0,2105.0,1873.0,2802.0,,,,0.133381676586499,0.0620474941603266,2.74983985977941,,-0.8732717131000918,,
,7148.0,1096.0,8097.0,1238.0,2118.0,1874.0,2809.0,,,,0.133572367655693,0.0623035340992753,2.75292035567708,,-0.8851908132109327,,
,7151.0,1096.0,8098.0,1239.0,2125.0,1886.0,2784.0,,,,0.13367655387005,0.0624733633368342,2.75539105534501,,-0.9110447905459985,,
,7154.0,1095.0,8099.0,1242.0,2126.0,1879.0,2791.0,,,,0.133801455201224,0.062682256018829,2.75743670302602,,-0.9529459327186955,,
,7153.0,1095.0,8096.0,1237.0,2128.0,1858.0,2809.0,,,,0.133914345258742,0.0628471505893235,2.75921715767725,,-1.0123882700817406,,
2025-08-01 19:17:29,7158.0,1097.0,8097.0,1242.0,2107.0,1868.0,2804.0,,,2025/08/01 07:17:29 PM,0.134042491097498,0.0631044293006717,2.76198406922715,,-1.0902369103248035,,
,7164.0,1099.0,8100.0,1242.0,2111.0,1872.0,2799.0,,,,0.134047352510898,0.0630612504308495,2.76175917189245,,-1.1866930968207705,,
,7162.0,1097.0,8099.0,1245.0,2094.0,1877.0,2803.0,,,,0.134088523746122,0.063117449936276,2.76329641856469,,-1.3012313890238343,,
,7163.0,1095.0,8099.0,1242.0,2100.0,1863.0,2812.0,,,,0.134107058567433,0.0631976836874679,2.76390978161626,,-1.4325110759335793,,
,7163.0,1095.0,8100.0,1243.0,2109.0,1859.0,2807.0,,,,0.13422263654612,0.0634377382542332,2.76640116230933,,-1.5782708600599928,,
,7161.0,1095.0,8100.0,1241.0,2101.0,1880.0,2788.0,,,,0.134344564573457,0.0635514197331337,2.7677782222603,,-1.735222907487751,,
,7161.0,1095.0,8100.0,1238.0,2098.0,1879.0,2790.0,,,,0.134374893864304,0.0636428726765839,2.76911028852005,,-1.8989681749811806,,
,7161.0,1095.0,8099.0,1239.0,2082.0,1850.0,2788.0,,,,0.134458754947628,0.0637497602009636,2.77051068565006,,-2.0639581688491413,,
,7149.0,1092.0,8095.0,1230.0,2101.0,1861.0,2804.0,,,,0.134472285356859,0.0637709284276587,2.77103868200996,,-2.2235278574010664,,
,7149.0,1092.0,8095.0,1229.0,2096.0,1868.0,2773.0,,,,0.134577095988701,0.0638737734833766,2.77269344514889,,-2.3700196091037564,,
,7143.0,1090.0,8091.0,1226.0,2101.0,1874.0,2778.0,,,,0.134667253762225,0.0640459885792503,2.77420606353903,,-2.4950087788939714,,
,7137.0,1087.0,8093.0,1220.0,2096.0,1874.0,2778.0,,,,0.134730220843246,0.0642248428994678,2.77529106196272,,-2.5896292123924685,,
,7133.0,1085.0,8087.0,1219.0,2086.0,1881.0,2809.0,,,,0.134752428143945,0.0642181402599134,2.77652588622548,,-2.6449839767461194,,
,7123.0,1085.0,8088.0,1215.0,2077.0,1877.0,2782.0,,,,0.134801219852037,0.0644229422829882,2.77766095950685,,-2.652615662405473,,
,7118.0,1084.0,8084.0,1216.0,2093.0,1865.0,2786.0,,,,0.134856021341875,0.0645319431729237,2.77889640886216,,-2.605003121678771,,
,7114.0,1081.0,8083.0,1210.0,2101.0,1870.0,2772.0,,,,0.13499802215358,0.0647405456672656,2.78104674585515,,-2.496047691382923,,
,7109.0,1082.0,8082.0,1208.0,2108.0,1891.0,2803.0,,,,0.135112937988658,0.0648936491547491,2.78256273015219,,-2.321511401299551,,
,7099.0,1080.0,8078.0,1208.0,2104.0,1876.0,2802.0,,,,0.13514920362714,0.0650686104304224,2.78511398083851,,-2.0793721993019485,,
,7101.0,1079.0,8077.0,1206.0,2103.0,1871.0,2791.0,,,,0.135270553027495,0.0651827744860078,2.78610942194482,,-1.7700669630955106,,
,7095.0,1079.0,8077.0,1204.0,2099.0,1872.0,2786.0,,,,0.135350507641454,0.0653478220848372,2.7881100882033,,-1.3966020599574975,,
,7092.0,1079.0,8078.0,1204.0,2121.0,1892.0,2756.0,,,,0.135336596185861,0.0652740703213661,2.78808049163043,,-0.9645228194853541,,
,7087.0,1078.0,8076.0,1202.0,2119.0,1885.0,2771.0,,,,0.135073913904346,0.0647996884876324,2.78317177665077,,-0.48174597085726856,,
,7088.0,1083.0,8078.0,1204.0,2098.0,1874.0,2776.0,,,,0.134599844684616,0.0639273740877265,2.77326353786107,,0.04172912800265521,,
,7087.0,1080.0,8075.0,1202.0,2098.0,1877.0,2772.0,,,,0.134337500438998,0.0633667631714627,2.76924909044731,,0.5942055184329937,,
,7085.0,1083.0,8077.0,1203.0,2103.0,1874.0,2790.0,,,,0.13442819965632,0.0635095385600041,2.77032705307589,,1.1627395222719712,,
,7082.0,1079.0,8072.0,1203.0,2094.0,1883.0,2780.0,,,,0.134416964637501,0.0635288814972577,2.77122647917303,,1.7336255099387683,,
,7084.0,1080.0,8074.0,1205.0,2094.0,1878.0,2775.0,,,,0.13433085566204,0.0632968139920152,2.76935614079875,,2.292884489241936,,
,7084.0,1080.0,8078.0,1205.0,2099.0,1881.0,2784.0,,,,0.134332770480428,0.0633180709988805,2.76969141817183,,2.8267310174085702,,
,7080.0,1079.0,8075.0,1203.0,2110.0,1885.0,2791.0,,,,0.134321379567986,0.0633390066782296,2.77000895378751,,3.321999389224384,,
,7082.0,1081.0,8076.0,1205.0,2105.0,1884.0,2750.0,,,,0.134337037001131,0.0632953930696144,2.77036060491809,,3.7665178218504276,,
,7082.0,1081.0,8076.0,1204.0,2117.0,1879.0,2768.0,,,,0.134425545733739,0.0633514079544511,2.7713692248515,,4.149427829383819,,
,7077.0,1080.0,8075.0,1202.0,2128.0,1863.0,2764.0,,,,0.134447022250068,0.0635101275723812,2.77165484609319,,4.461453856593556,,
,7081.0,1081.0,8078.0,1207.0,2114.0,1857.0,2783.0,,,,0.134419539041808,0.0634013144641319,2.7708054120004,,4.6951332720730505,,
,7079.0,1080.0,8075.0,1204.0,2096.0,1870.0,2794.0,,,,0.134395534493574,0.0633247100614913,2.77039898236788,,4.845016650222482,,
,7080.0,1081.0,8075.0,1206.0,2097.0,1871.0,2772.0,,,,0.134279171689828,0.0631910857226934,2.76894706441532,,4.907842063544045,,
,7082.0,1080.0,8078.0,1207.0,2091.0,1877.0,2778.0,,,,0.134209808525459,0.0630909950764937,2.76850658441151,,4.882676614661344,,
,7080.0,1082.0,8078.0,1207.0,2097.0,1877.0,2782.0,,,,0.134221650822398,0.0631102212962249,2.76923938715376,,4.771007469444423,,
,7083.0,1083.0,8078.0,1207.0,2103.0,1874.0,2801.0,,,,0.134322678938241,0.0632350256822783,2.7700998743843,,4.576757375920991,,
,7084.0,1082.0,8078.0,1207.0,2106.0,1839.0,2790.0,,,,0.134347722664393,0.0633647680187006,2.7713019755603,,4.306199084186127,,
,7087.0,1085.0,8079.0,1210.0,2101.0,1864.0,2798.0,,,,0.134441268518824,0.0634817624199445,2.77207111026542,,3.967750407569158,,
,7085.0,1081.0,8076.0,1210.0,2095.0,1879.0,2771.0,,,,0.134502822835077,0.0636997982008491,2.77401094214824,,3.571646008766678,,
,7085.0,1083.0,8077.0,1210.0,2089.0,1878.0,2789.0,,,,0.134686526972756,0.0639691725729094,2.77634954738883,,3.1295003346193275,,
,7085.0,1082.0,8075.0,1207.0,2104.0,1876.0,2796.0,,,,0.134729806202303,0.0641616951541623,2.77807443419059,,2.653793760501413,,
,7084.0,1082.0,8077.0,1207.0,2086.0,1883.0,2781.0,,,,0.134789926764391,0.0642120533598705,2.77912386847406,,2.157325969280051,,
,7085.0,1084.0,8076.0,1211.0,2074.0,1892.0,2770.0,,,,0.134893404192948,0.0643827146947063,2.7805798177847,,1.6526835619903621,,
,7086.0,1083.0,8081.0,1209.0,2080.0,1893.0,2783.0,,,,0.134949357344022,0.0645245656965627,2.781833941811,,1.1517625756917602,,
,7086.0,1082.0,8077.0,1210.0,2117.0,1872.0,2792.0,,,,0.135051942122083,0.0647760996145832,2.78377525381796,,0.6653736394572268,,
,7083.0,1082.0,8078.0,1209.0,2110.0,1869.0,2808.0,,,,0.135080985325469,0.0648555085616826,2.78485462577581,,0.20294221635442122,,
,7084.0,1082.0,8077.0,1209.0,2115.0,1869.0,2796.0,,,,0.135150243662419,0.0649160995148592,2.78515967110501,,-0.2276971208664928,,
,7083.0,1083.0,8078.0,1211.0,2116.0,1872.0,2793.0,,,,0.135145903215652,0.0649307977904948,2.78604556752858,,-0.6204224520317849,,
,7084.0,1083.0,8080.0,1209.0,2105.0,1884.0,2780.0,,,,0.135159634361773,0.0649898408650736,2.78674444930647,,-0.970876079963859,,
,7081.0,1078.0,8076.0,1207.0,2093.0,1887.0,2797.0,,,,0.135204716448029,0.0649771450270343,2.78702097406322,,-1.2764589408631766,,
,7083.0,1080.0,8081.0,1208.0,2091.0,1875.0,2792.0,,,,0.135144533454051,0.06487361855913,2.7860972777939,,-1.5362777908539516,,
,7079.0,1083.0,8079.0,1208.0,2098.0,1891.0,2785.0,,,,0.135097188914578,0.0648115143336144,2.78585640766648,,-1.7510519084836358,,
,7078.0,1082.0,8078.0,1207.0,2088.0,1881.0,2796.0,,,,0.135065204381007,0.0647413399307227,2.78498275531477,,-1.922984062852127,,
,7074.0,1081.0,8078.0,1204.0,2096.0,1859.0,2786.0,,,,0.135051961795065,0.064711393863917,2.7852275154686,,-2.05559972333375,,
,7075.0,1081.0,8078.0,1205.0,2091.0,1867.0,2785.0,,,,0.135049597257899,0.064699792098819,2.78496008411808,,-2.153558247785523,,
,7076.0,1081.0,8077.0,1206.0,2101.0,1875.0,2778.0,,,,0.135041820328726,0.0646741390299925,2.78440326157763,,-2.222439480267761,,
,7075.0,1080.0,8077.0,1206.0,2113.0,1862.0,2771.0,,,,0.134973241684137,0.0645824174781524,2.78356942246902,,-2.2685086135083923,,
,7075.0,1080.0,8076.0,1206.0,2076.0,1831.0,2787.0,,,,0.134960051307277,0.0645234618814323,2.78306529309865,,-2.2984614535942085,,
,7076.0,1081.0,8080.0,1205.0,2099.0,1853.0,2782.0,,,,0.134913524277341,0.0644059163708593,2.78200117646864,,-2.319151655026472,,
,7078.0,1080.0,8077.0,1207.0,2098.0,1865.0,2772.0,,,,0.134894037407762,0.0643361269694267,2.7822627143972,,-2.3373014123697824,,
,7074.0,1081.0,8080.0,1208.0,2088.0,1869.0,2772.0,,,,0.134776797835612,0.0641133263906267,2.77971105103634,,-2.359197857871774,,
,7077.0,1083.0,8080.0,1208.0,2081.0,1865.0,2774.0,,,,0.13465316017668,0.0639385907107822,2.77712478738192,,-2.39037936483609,,
,7079.0,1081.0,8077.0,1206.0,2095.0,1870.0,2773.0,,,,0.134538258499583,0.0636809134425064,2.77557792921861,,-2.4353192888068196,,
,7078.0,1082.0,8081.0,1208.0,2104.0,1887.0,2770.0,,,,0.134473468544811,0.0634952647485499,2.77353884289708,,-2.497119249352054,,
,7081.0,1085.0,8079.0,1212.0,2111.0,1884.0,2778.0,,,,0.13436169906316,0.0633841448948772,2.77144439459123,,-2.5772292627779754,,
,7084.0,1083.0,8079.0,1212.0,2095.0,1884.0,2770.0,,,,0.134311038169916,0.0633145887796136,2.77068755051626,,-2.675216864144969,,
,7080.0,1083.0,8080.0,1210.0,2064.0,1880.0,2770.0,,,,0.134322394001666,0.0631990056618675,2.7694745750378,,-2.788610582677909,,
,7084.0,1087.0,8081.0,1211.0,2071.0,1888.0,2773.0,,,,0.13429785774753,0.0631708781492022,2.76900371454738,,-2.91284360136865,,
,7089.0,1086.0,8081.0,1217.0,2090.0,1896.0,2763.0,,,,0.134271270450759,0.0631453445124193,2.76885153080882,,-3.041320273383772,,
,7088.0,1085.0,8082.0,1214.0,2110.0,1896.0,2774.0,,,,0.134260159457989,0.0631586459597077,2.76882558976926,,-3.1656210326602894,,
,7088.0,1083.0,8082.0,1212.0,2079.0,1890.0,2767.0,,,,0.134222237923632,0.0631299269517867,2.76899554485407,,-3.2758506310712936,,
,7092.0,1085.0,8083.0,1215.0,2086.0,1886.0,2806.0,,,,0.134241362505881,0.0631517614306919,2.76848431933763,,-3.361122151118814,,
,7096.0,1085.0,8086.0,1218.0,2098.0,1893.0,2790.0,,,,0.134299743118902,0.0631956236538322,2.76961910535613,,-3.410157060496469,,
,7097.0,1088.0,8086.0,1219.0,2095.0,1885.0,2782.0,,,,0.134262882852493,0.0632287616032729,2.76941143618608,,-3.4119712976859047,,
,7097.0,1085.0,8081.0,1220.0,2072.0,1865.0,2813.0,,,,0.134249316464264,0.0631442596683399,2.76950006738341,,-3.356609321911125,,
,7101.0,1087.0,8085.0,1218.0,2073.0,1869.0,2790.0,,,,0.134224802838126,0.0630646726793662,2.76880353071432,,-3.235881727199762,,
,7104.0,1087.0,8087.0,1221.0,2082.0,1882.0,2778.0,,,,0.134189190876422,0.0630380136915963,2.7684587997915,,-3.0440570985465607,,
,7105.0,1090.0,8091.0,1223.0,2076.0,1888.0,2769.0,,,,0.134175316674453,0.0630408934300775,2.76922853813429,,-2.778455736002723,,
,7108.0,1090.0,8087.0,1224.0,2099.0,1891.0,2783.0,,,,0.134189321967328,0.0630148725371003,2.76851676350912,,-2.4398928858786593,,
,7109.0,1090.0,8089.0,1223.0,2074.0,1882.0,2788.0,,,,0.134111547780714,0.0628849484605385,2.76837166971655,,-2.032923701268539,,
,7112.0,1091.0,8091.0,1225.0,2083.0,1896.0,2817.0,,,,0.134148168530945,0.0630080421624249,2.76883571421814,,-1.5658524644910266,,
,7118.0,1091.0,8092.0,1228.0,2087.0,1893.0,2798.0,,,,0.134163989242645,0.0630355858851861,2.76931879035427,,-1.0504848118266727,,
,7118.0,1089.0,8091.0,1228.0,2079.0,1894.0,2789.0,,,,0.134196969389578,0.0630713638613316,2.76884077701693,,-0.5016226591261264,,
,7118.0,1089.0,8092.0,1227.0,2077.0,1875.0,2791.0,,,,0.13420477295781,0.06296474483344,2.76920340316889,,0.06367507887345993,,
,7124.0,1089.0,8092.0,1228.0,2065.0,1880.0,2800.0,,,,0.133848553476338,0.0623000873660166,2.76309662867652,,0.6270200210169369,,
,7127.0,1093.0,8097.0,1231.0,2087.0,1878.0,2780.0,,,,0.133280031101305,0.0613934030696429,2.75225769366708,,1.1697448812254,,
,7130.0,1093.0,8095.0,1232.0,2074.0,1873.0,2784.0,,,,0.132903404878204,0.0608255965444782,2.74583186452427,,1.6739988655954539,,
,7130.0,1095.0,8095.0,1232.0,2088.0,1875.0,2771.0,,,,0.132902486100266,0.060768095556681,2.74479930229806,,2.1238049330513507,,
,7132.0,1095.0,8096.0,1231.0,2095.0,1880.0,2779.0,,,,0.132894132362452,0.0608584151393216,2.74718232372341,,2.505999961774865,,
,7135.0,1095.0,8098.0,1234.0,2070.0,1888.0,2783.0,,,,0.132884243877928,0.0608942884141195,2.74677210846856,,2.810990720557009,,
,7138.0,1095.0,8098.0,1233.0,2092.0,1885.0,2776.0,,,,0.132906780680777,0.0609574138001293,2.74744862008298,,3.0332758878835766,,
,7141.0,1094.0,8100.0,1236.0,2092.0,1885.0,2767.0,,,,0.132936291255446,0.0609939477254045,2.74777837839467,,3.1717039435022105,,
,7144.0,1094.0,8098.0,1236.0,2096.0,1884.0,2783.0,,,,0.132885430591326,0.0609448870665725,2.74778982812381,,3.2294553718150363,,
,7144.0,1097.0,8100.0,1239.0,2085.0,1878.0,2785.0,,,,0.132898550587593,0.0609247754978956,2.74777404824293,,3.2137533401145597,,
,7149.0,1099.0,8100.0,1239.0,2053.0,1891.0,2791.0,,,,0.132828315683541,0.0607635889958122,2.74678462877428,,3.135319938103077,,
,7150.0,1096.0,8102.0,1238.0,2049.0,1888.0,2803.0,,,,0.132732028154917,0.060642686781272,2.74517724616102,,3.007606771865225,,
,7150.0,1095.0,8098.0,1238.0,2065.0,1879.0,2768.0,,,,0.132631657890584,0.0604415235887497,2.74343795295966,,2.8458409391366692,,
,7153.0,1098.0,8102.0,1239.0,2077.0,1882.0,2799.0,,,,0.132556569210804,0.0603427838177625,2.74265263096721,,2.6659409841250494,,
,7157.0,1099.0,8103.0,1238.0,2081.0,1865.0,2787.0,,,,0.132444928262246,0.0601621441898939,2.74086422387034,,2.4833717395656074,,
,7159.0,1096.0,8105.0,1241.0,2078.0,1855.0,2790.0,,,,0.132298121603747,0.0600366972254479,2.73880416083388,,2.312019889493213,,
,7160.0,1100.0,8106.0,1242.0,2062.0,1860.0,2779.0,,,,0.132156121310035,0.0598320335581511,2.73682717496769,,2.16318020667273,,
,7162.0,1095.0,8104.0,1241.0,2074.0,1862.0,2772.0,,,,0.131994907086751,0.0595988726112715,2.73451213672726,,2.04474187956826,,
,7170.0,1100.0,8110.0,1244.0,2075.0,1876.0,2792.0,,,,0.131880043954773,0.0594411470950452,2.73296530928479,,1.9606524123320535,,
,7170.0,1098.0,8107.0,1244.0,2081.0,1874.0,2793.0,,,,0.131798902032714,0.0592361807800775,2.73052267900689,,1.910713175668508,,
,7170.0,1097.0,8108.0,1246.0,2082.0,1863.0,2815.0,,,,0.131670139718118,0.0590960421579949,2.72850445717006,,1.8907287816528713,,
,7173.0,1098.0,8107.0,1246.0,2085.0,1853.0,2820.0,,,,0.13162230274302,0.0589904410033627,2.72734948893969,,1.8929969812718956,,
,7173.0,1099.0,8110.0,1247.0,2079.0,1855.0,2772.0,,,,0.131565409111697,0.058824662832414,2.72529003481793,,1.907091883168392,,
,7177.0,1101.0,8114.0,1249.0,2082.0,1854.0,2806.0,,,,0.131481629559338,0.0587345379855594,2.72454904917016,,1.9208651208846603,,
,7181.0,1099.0,8112.0,1249.0,2074.0,1850.0,2809.0,,,,0.131426572807953,0.0586652488228441,2.7238888336688,,1.9215699342902877,,
,7182.0,1100.0,8111.0,1248.0,2089.0,1871.0,2814.0,,,,0.1312831736843,0.0585822930718363,2.72183955950336,,1.8970034101009794,,
,7187.0,1102.0,8112.0,1249.0,2109.0,1865.0,2824.0,,,,0.13126592268875,0.0584989576566668,2.72099547809633,,1.8365627474954334,,
,7191.0,1104.0,8114.0,1254.0,2087.0,1858.0,2807.0,,,,0.131188242276024,0.0584613434716318,2.72065130152932,,1.732122303367466,,
,7191.0,1104.0,8115.0,1251.0,2092.0,1865.0,2803.0,,,,0.131167705991317,0.0584488970212653,2.71958337400801,,1.578658842909656,,
,7192.0,1103.0,8115.0,1252.0,2098.0,1875.0,2788.0,,,,0.131097516204706,0.0583761398287865,2.71901645036661,,1.374581143626107,,
,7195.0,1104.0,8114.0,1253.0,2093.0,1858.0,2794.0,,,,0.131050228687254,0.0583561964472487,2.71714268059069,,1.1217531647819203,,
,7198.0,1103.0,8116.0,1256.0,2094.0,1861.0,2770.0,,,,0.131081708265537,0.0584356437972079,2.71825264223795,,0.8252322351464759,,
,7201.0,1106.0,8121.0,1256.0,2095.0,1874.0,2774.0,,,,0.131143005664205,0.0585680176824835,2.71871561382956,,0.49277009309991004,,
