TimeLabel,MEAS1_PPG1,MEAS1_PPG2,MEAS1_PPG3,MEAS1_PPG4,ACCX,ACCY,ACCZ,HR_timestamp,HR_value,radar_timestamp,phase_rx0,phase_rx1,phase_rx2,timestep,n_process,original_rate,calculated_rate
2025-08-05 18:41:47,3978.0,853.0,3158.0,873.0,1525.0,2010.0,3002.0,2025-08-05 18:42:20,80.0,2025/08/05 06:41:47 PM,0.0772683051453019,-1.69697742344406,0.0927823239284348,2025/08/05 06:41:47 PM,1.9429490766161934,0.0,19.702908927693592
,3980.0,850.0,3157.0,873.0,1519.0,2012.0,3017.0,2025-08-05 18:42:21,80.0,,0.0772897501192699,-1.69745622157527,0.0927751687914608,2025/08/05 06:41:57 PM,1.4156355875891518,15.544041633605955,21.453928773318257
,3974.0,849.0,3157.0,873.0,1517.0,2008.0,3024.0,2025-08-05 18:42:22,80.0,,0.0772634881299419,-1.69669241026203,0.092789625485401,2025/08/05 06:42:07 PM,0.9063268881114906,19.24447631835937,16.843313902137428
,3976.0,849.0,3157.0,874.0,1507.0,1999.0,3044.0,2025-08-05 18:42:23,80.0,,0.0772806568003583,-1.69638552381753,0.0927908935522344,2025/08/05 06:42:17 PM,0.4256505069982045,19.480518341064453,15.626585489599197
,3974.0,849.0,3156.0,874.0,1511.0,1992.0,3047.0,2025-08-05 18:42:24,81.0,,0.0772851195533489,-1.69600820429477,0.0927870896195651,2025/08/05 06:42:27 PM,-0.01834145487881126,17.897090911865234,17.401053519908114
,3973.0,849.0,3156.0,874.0,1533.0,1988.0,3058.0,2025-08-05 18:42:25,82.0,,0.0773131208670124,-1.69590286074169,0.0927896867209739,2025/08/05 06:42:37 PM,-0.42042366830720257,16.759777069091797,17.228005715452138
,3974.0,848.0,3155.0,872.0,1522.0,1995.0,3045.0,2025-08-05 18:42:26,83.0,,0.077324141749977,-1.69555871295978,0.0927907598872764,2025/08/05 06:42:47 PM,-0.7782123744565681,16.830293655395508,16.767210401376396
,3971.0,848.0,3155.0,872.0,1522.0,2007.0,3032.0,2025-08-05 18:42:27,84.0,,0.0772866387652198,-1.69538815440492,0.0927945725489221,2025/08/05 06:42:57 PM,-1.09195713983451,17.216642379760742,17.82981803143092
,3975.0,848.0,3156.0,874.0,1519.0,2005.0,3013.0,2025-08-05 18:42:28,83.0,,0.0772811529581923,-1.69552213980609,0.0927851342017864,2025/08/05 06:43:07 PM,-1.3641430222074287,17.26618766784668,17.39374010473753
,3973.0,848.0,3155.0,871.0,1535.0,2011.0,3035.0,2025-08-05 18:42:29,83.0,,0.0772893768152609,-1.69529154041191,0.0927956236480634,2025/08/05 06:43:17 PM,-1.5989516300963793,17.518247604370117,18.182822424744565
,3970.0,847.0,3154.0,871.0,1520.0,1994.0,3045.0,2025-08-05 18:42:30,83.0,,0.0772860269801983,-1.69561975760487,0.0927990675882731,2025/08/05 06:43:27 PM,-1.8016383809667138,18.012008666992188,18.48781199824843
,3972.0,848.0,3153.0,873.0,1534.0,2009.0,3039.0,2025-08-05 18:42:31,82.0,,0.0772916578002973,-1.69537945636292,0.0927980056889748,2025/08/05 06:43:37 PM,-1.9778856005260725,18.096513748168945,20.151847095263236
,3971.0,849.0,3155.0,871.0,1542.0,2001.0,3044.0,2025-08-05 18:42:32,81.0,,0.0772633285062599,-1.69574890491117,0.0927916209731988,2025/08/05 06:43:47 PM,-2.1331876354905446,18.867923736572266,19.3650793650794
,3970.0,848.0,3155.0,873.0,1547.0,2006.0,3043.0,2025-08-05 18:42:33,80.0,,0.0772982233207852,-1.69571568089569,0.092801094061279,2025/08/05 06:43:57 PM,-2.2723162417971445,19.313304901123047,18.400355863042414
,3969.0,845.0,3154.0,870.0,1528.0,1996.0,3033.0,2025-08-05 18:42:34,79.0,,0.0772806743886864,-1.69552102865247,0.0928055327933109,2025/08/05 06:44:07 PM,-2.3989037566094757,19.21708106994629,17.913108255513905
,3967.0,847.0,3153.0,871.0,1523.0,2003.0,3044.0,2025-08-05 18:42:35,78.0,,0.0772698969098135,-1.69558187624966,0.0927986035446239,2025/08/05 06:44:17 PM,-2.515169355182994,18.447347640991207,15.192307692307681
,3968.0,847.0,3156.0,874.0,1519.0,1979.0,3024.0,2025-08-05 18:42:36,77.0,,0.0772603375935133,-1.6955145764442,0.0927964782615416,2025/08/05 06:44:27 PM,-2.621800977406882,17.403915405273438,16.724843783667296
,3969.0,849.0,3154.0,872.0,1520.0,1974.0,3037.0,2025-08-05 18:42:37,75.0,,0.077269529160055,-1.69582938887175,0.0927959444552546,2025/08/05 06:44:37 PM,-2.717992795545344,16.818500518798828,16.921561163483272
,3967.0,845.0,3154.0,871.0,1531.0,1982.0,3035.0,2025-08-05 18:42:38,73.0,,0.0772756129706341,-1.69586396067266,0.0927936383933196,,-2.801625689781051,,
,3965.0,843.0,3152.0,869.0,1538.0,1980.0,3036.0,2025-08-05 18:42:39,72.0,,0.0772821255368033,-1.69524422397217,0.0928017465746827,,-2.8695665562306796,,
,3965.0,848.0,3154.0,872.0,1521.0,2000.0,3042.0,2025-08-05 18:42:40,71.0,,0.0772677348628486,-1.69593072054586,0.0928049839920237,,-2.918052288758737,,
,3965.0,848.0,3154.0,872.0,1519.0,2009.0,3044.0,2025-08-05 18:42:41,70.0,,0.0773001268302868,-1.6953067340842,0.0928054401022556,,-2.9431172065453057,,
,3964.0,843.0,3152.0,871.0,1532.0,2010.0,3057.0,2025-08-05 18:42:42,69.0,,0.0773042390516041,-1.69489160511674,0.0927991825637338,,-2.9410196487515643,,
,3962.0,845.0,3154.0,871.0,1512.0,2011.0,3067.0,2025-08-05 18:42:43,69.0,,0.0772635202986819,-1.69532129391453,0.092805007911357,,-2.908624885644801,,
,3965.0,844.0,3153.0,871.0,1522.0,1990.0,3055.0,2025-08-05 18:42:44,69.0,,0.0772866386734835,-1.69489172783595,0.0928120973019022,,-2.843707144059988,,
,3964.0,847.0,3155.0,872.0,1515.0,1986.0,3049.0,2025-08-05 18:42:45,68.0,,0.0772985914504434,-1.69507340304951,0.0927927345775104,,-2.7451426978586824,,
,3963.0,843.0,3154.0,870.0,1503.0,1992.0,3045.0,2025-08-05 18:42:46,68.0,,0.0772838401063704,-1.69504291385845,0.0928067975355501,,-2.6129777793694435,,
,3964.0,843.0,3150.0,872.0,1526.0,1984.0,3049.0,2025-08-05 18:42:47,68.0,,0.0772930057268846,-1.69512109510401,0.0927999830482035,,-2.4483687049049387,,
,3960.0,846.0,3150.0,870.0,1519.0,2009.0,3066.0,2025-08-05 18:42:48,67.0,,0.0772885462798853,-1.69451002838894,0.0928207723220846,,-2.2534061570883277,,
,3960.0,844.0,3154.0,870.0,1519.0,2004.0,3054.0,2025-08-05 18:42:49,67.0,,0.0772728560207795,-1.69480632460876,0.0928139628803327,,-2.0308497497601334,,
,3958.0,842.0,3151.0,869.0,1520.0,1984.0,3061.0,2025-08-05 18:42:50,67.0,,0.0772552593021818,-1.69441749254692,0.0928139519328816,,-1.783811119153802,,
,3960.0,842.0,3151.0,868.0,1526.0,1992.0,3042.0,2025-08-05 18:42:51,66.0,,0.0772705704587331,-1.69491054447682,0.0927997651219369,,-1.5154319267133929,,
,3960.0,842.0,3152.0,868.0,1520.0,2000.0,3044.0,2025-08-05 18:42:52,66.0,,0.0772826209218373,-1.69460760268432,0.0928173775185256,,-1.2286055526589243,,
,3960.0,845.0,3151.0,869.0,1518.0,1994.0,3022.0,2025-08-05 18:42:53,66.0,,0.0772815287058988,-1.69448876992577,0.0928021209903021,,-0.9257867401334351,,
,3963.0,843.0,3151.0,870.0,1520.0,1992.0,3018.0,2025-08-05 18:42:54,67.0,,0.0773011067021466,-1.69439299647467,0.0928262703017692,,-0.6089219434562829,,
,3959.0,843.0,3153.0,867.0,1522.0,1992.0,3028.0,2025-08-05 18:42:55,67.0,,0.077315937471805,-1.69440016670034,0.0928103862525059,,-0.2795159126909318,,
,3960.0,843.0,3152.0,871.0,1529.0,1994.0,3037.0,2025-08-05 18:42:56,68.0,,0.0772810152094198,-1.69461949375282,0.0928162608366745,,0.06117035585035474,,
,3961.0,846.0,3153.0,870.0,1532.0,1980.0,3041.0,2025-08-05 18:42:57,69.0,,0.0772710814004957,-1.69470827480473,0.0928095387801678,,0.41181537801025936,,
,3961.0,841.0,3151.0,867.0,1530.0,1982.0,3062.0,2025-08-05 18:42:58,69.0,,0.0772210583316377,-1.69400149438104,0.0928149450422682,,0.77066831532657,,
,3959.0,842.0,3152.0,867.0,1524.0,1988.0,3054.0,2025-08-05 18:42:59,69.0,,0.0773156844605808,-1.6946134366807,0.092810214040163,,1.1351676763591112,,
,3961.0,843.0,3150.0,867.0,1513.0,1999.0,3045.0,2025-08-05 18:43:00,70.0,,0.0772459257606771,-1.69474389651061,0.092816913374647,,1.5016033097917023,,
,3962.0,842.0,3153.0,869.0,1516.0,1984.0,3042.0,2025-08-05 18:43:01,70.0,,0.077260800899026,-1.69446146804396,0.0928221971707039,,1.8648743040246556,,
,3962.0,844.0,3150.0,868.0,1513.0,1993.0,3056.0,2025-08-05 18:43:02,70.0,,0.0771884492276488,-1.69408908609354,0.092822604021759,,2.2183866168396205,,
,3962.0,844.0,3154.0,869.0,1525.0,1994.0,3064.0,2025-08-05 18:43:03,70.0,,0.0772173491347776,-1.69413448277019,0.0928221051783777,,2.5541207950324947,,
,3961.0,841.0,3150.0,870.0,1524.0,1993.0,3063.0,2025-08-05 18:43:04,71.0,,0.0772607392057712,-1.6941959137717,0.0928217423485612,,2.862882934349268,,
,3964.0,845.0,3153.0,871.0,1512.0,1991.0,3042.0,2025-08-05 18:43:05,71.0,,0.0772558688234936,-1.69403167805668,0.0928232084168835,,3.1347321855043164,,
,3964.0,846.0,3152.0,870.0,1511.0,1992.0,3026.0,2025-08-05 18:43:06,72.0,,0.0772821445646539,-1.69407947620034,0.0928243900790063,,3.359557290641804,,
,3964.0,843.0,3154.0,871.0,1515.0,1984.0,3049.0,2025-08-05 18:43:07,72.0,,0.0772479767490471,-1.69363365467737,0.0928282944914815,,3.5277551102055784,,
,3964.0,842.0,3154.0,871.0,1531.0,1980.0,3040.0,2025-08-05 18:43:08,73.0,,0.0772342134725534,-1.69379643485257,0.0928187799031973,,3.630948454922974,,
,3967.0,843.0,3156.0,870.0,1529.0,1988.0,3052.0,2025-08-05 18:43:09,73.0,,0.0772353599559156,-1.69389125971927,0.0928246495812068,,3.662671203989244,,
,3966.0,844.0,3156.0,871.0,1529.0,2002.0,3049.0,2025-08-05 18:43:10,73.0,,0.0772713860307617,-1.69362856781244,0.0928340709930024,,3.6189475378044857,,
,3966.0,842.0,3154.0,868.0,1510.0,2014.0,3028.0,2025-08-05 18:43:11,73.0,,0.0772161642238723,-1.69360687045277,0.0928319976343428,,3.4987001689609682,,
,3967.0,842.0,3154.0,871.0,1528.0,2003.0,3041.0,2025-08-05 18:43:12,73.0,,0.0772430897196704,-1.69376131539782,0.0928299254924897,,3.3039397084793443,,
,3966.0,844.0,3155.0,873.0,1523.0,2005.0,3051.0,2025-08-05 18:43:13,72.0,,0.0772708733502172,-1.69371799300323,0.092839792478788,,3.0397122961440872,,
,3967.0,846.0,3157.0,873.0,1525.0,2009.0,3045.0,2025-08-05 18:43:14,72.0,,0.07727199401052,-1.69344969417995,0.0928389850151063,,2.713811844429505,,
,3967.0,844.0,3157.0,872.0,1518.0,1999.0,3047.0,2025-08-05 18:43:15,72.0,,0.0772569030631109,-1.69304680743857,0.0928309512634272,,2.336291305745641,,
,3966.0,841.0,3157.0,871.0,1517.0,2007.0,3047.0,2025-08-05 18:43:16,72.0,,0.0772763145881537,-1.69309197075987,0.0928440177805805,,1.9188287204299055,,
,3968.0,844.0,3155.0,872.0,1522.0,2003.0,3035.0,2025-08-05 18:43:17,72.0,,0.0772578888623227,-1.69315713810229,0.0928384922743549,,1.474015010367731,,
,3970.0,845.0,3158.0,873.0,1504.0,1989.0,3047.0,2025-08-05 18:43:18,72.0,,0.0773111666926558,-1.69256627255256,0.0928426261516562,,1.0146312784175895,,
,3969.0,845.0,3156.0,873.0,1506.0,1988.0,3038.0,2025-08-05 18:43:19,72.0,,0.0773426416172187,-1.69260800639339,0.0928588114623919,,0.5529758867311909,,
,3969.0,843.0,3159.0,872.0,1517.0,1994.0,3029.0,2025-08-05 18:43:20,72.0,,0.077312349490074,-1.69241065768542,0.0928400836788857,,0.10028882642797099,,
,3970.0,844.0,3155.0,869.0,1522.0,2001.0,3048.0,2025-08-05 18:43:21,72.0,,0.0773849785561335,-1.6927663751133,0.0928372560249078,,-0.333694377500754,,
,3972.0,843.0,3157.0,873.0,1514.0,1988.0,3053.0,2025-08-05 18:43:22,71.0,,0.0773824136945059,-1.69250858892108,0.092844382455283,,-0.7410426143371847,,
,3972.0,846.0,3161.0,873.0,1508.0,1986.0,3053.0,2025-08-05 18:43:23,71.0,,0.0773527293669225,-1.69276118840565,0.0928498082481767,,-1.1157808313404765,,
,3971.0,844.0,3156.0,871.0,1505.0,1996.0,3036.0,2025-08-05 18:43:24,70.0,,0.0773246541125731,-1.69251646477772,0.0928442638777465,,-1.453903490217071,,
,3975.0,844.0,3157.0,873.0,1534.0,1990.0,3045.0,2025-08-05 18:43:25,70.0,,0.077351701804281,-1.69256058821341,0.0928389232857179,,-1.7532694893788736,,
,3975.0,844.0,3159.0,874.0,1533.0,1994.0,3061.0,2025-08-05 18:43:26,70.0,,0.0772980290311662,-1.69322405926709,0.0928418412163012,,-2.0134046884645627,,
,3978.0,845.0,3160.0,873.0,1523.0,2000.0,3065.0,2025-08-05 18:43:27,70.0,,0.07729692974272,-1.69349862564589,0.0928346814621558,,-2.2352413699847515,,
,3974.0,844.0,3159.0,871.0,1535.0,1995.0,3033.0,2025-08-05 18:43:28,70.0,,0.0772405603871691,-1.69445702705119,0.0928336675948198,,-2.4208237691621632,,
,3973.0,843.0,3157.0,874.0,1530.0,1986.0,3044.0,2025-08-05 18:43:29,70.0,,0.0772326328732527,-1.69515759217083,0.0928165702493938,,-2.573005410884472,,
,3976.0,848.0,3161.0,875.0,1519.0,1999.0,3046.0,2025-08-05 18:43:30,70.0,,0.0771807599064631,-1.69529892866539,0.092825142979688,,-2.6951581847971715,,
,3978.0,847.0,3163.0,875.0,1525.0,1997.0,3041.0,2025-08-05 18:43:31,70.0,,0.077113616836169,-1.69543750274041,0.0928178433348341,,-2.7909062340247432,,
,3979.0,845.0,3160.0,871.0,1515.0,1996.0,3026.0,2025-08-05 18:43:32,70.0,,0.0771365231934508,-1.69551217620073,0.092811876048829,,-2.863891469068668,,
,3978.0,845.0,3161.0,873.0,1523.0,1985.0,3030.0,2025-08-05 18:43:33,70.0,,0.0771569397313799,-1.6956302440719,0.0928038897794709,,-2.9175731272123513,,
,3982.0,848.0,3165.0,876.0,1518.0,1998.0,3044.0,2025-08-05 18:43:34,70.0,,0.0771388865908249,-1.69610785438519,0.0928164003695264,,-2.955061667111163,,
,3979.0,847.0,3161.0,875.0,1520.0,2002.0,3048.0,2025-08-05 18:43:35,70.0,,0.0771465564035413,-1.69605533203616,0.0928074885070753,,-2.9789868852545003,,
,3981.0,846.0,3161.0,873.0,1523.0,1999.0,3053.0,2025-08-05 18:43:36,69.0,,0.0771347173930464,-1.69607451289538,0.0928165040112055,,-2.9914004755572674,,
,3981.0,845.0,3163.0,875.0,1518.0,2002.0,3054.0,2025-08-05 18:43:37,69.0,,0.0771378317337092,-1.69610632941012,0.092820776962122,,-2.9937134503338565,,
,3984.0,846.0,3163.0,876.0,1516.0,1994.0,3048.0,2025-08-05 18:43:38,69.0,,0.077105744464094,-1.69616104994022,0.0928152164113149,,-2.986668469260549,,
,3985.0,847.0,3166.0,873.0,1515.0,2007.0,3059.0,2025-08-05 18:43:39,69.0,,0.0771496982078017,-1.69543911707858,0.092826669170714,,-2.970346183376779,,
,3986.0,848.0,3165.0,877.0,1523.0,2000.0,3064.0,2025-08-05 18:43:40,70.0,,0.0771467362858984,-1.6955159349995,0.0928295404542663,,-2.9442034298014157,,
,3985.0,846.0,3164.0,877.0,1516.0,2008.0,3045.0,2025-08-05 18:43:41,70.0,,0.0771477483220851,-1.69511213567285,0.0928266897323814,,-2.907139820135166,,
,3986.0,848.0,3166.0,875.0,1504.0,1994.0,3039.0,2025-08-05 18:43:42,70.0,,0.0771448176207397,-1.69510547611505,0.0928264530323309,,-2.857588246113536,,
,3989.0,848.0,3165.0,878.0,1505.0,2013.0,3051.0,2025-08-05 18:43:43,71.0,,0.0771812842055282,-1.69488352809733,0.0928274694037631,,-2.7936242516579366,,
,3989.0,850.0,3168.0,879.0,1514.0,2013.0,3048.0,2025-08-05 18:43:44,71.0,,0.0771976305719124,-1.69459656407113,0.0928207803698586,,-2.7130890425406227,,
,3988.0,848.0,3166.0,876.0,1526.0,2005.0,3051.0,2025-08-05 18:43:45,71.0,,0.077169257721193,-1.694608821202,0.0928317314389045,,-2.6137208839473622,,
,3991.0,851.0,3169.0,879.0,1519.0,2004.0,3057.0,2025-08-05 18:43:46,71.0,,0.0771815871634543,-1.69403626887492,0.0928233746768736,,-2.493289510680162,,
,3992.0,853.0,3170.0,881.0,1510.0,2033.0,3058.0,2025-08-05 18:43:47,71.0,,0.0771583149930493,-1.6951872145932,0.0928288819715352,,-2.349727892979961,,
,3993.0,851.0,3169.0,878.0,1520.0,2030.0,3052.0,2025-08-05 18:43:48,71.0,,0.0771750180778375,-1.69486735161103,0.0928355378876136,,-2.1812556429658225,,
,3993.0,850.0,3166.0,879.0,1514.0,1996.0,3046.0,2025-08-05 18:43:49,71.0,,0.0771638916450361,-1.69511124613173,0.0928260414867121,,-1.9864893066742455,,
,3992.0,848.0,3169.0,878.0,1517.0,1990.0,3056.0,2025-08-05 18:43:50,71.0,,0.0771586878119689,-1.69454671426477,0.0928371738900294,,-1.7645374166095582,,
,3992.0,847.0,3168.0,879.0,1512.0,1981.0,3058.0,2025-08-05 18:43:51,71.0,,0.0771956602986649,-1.69430590720908,0.0928423057845446,,-1.5150821635235854,,
,3989.0,849.0,3169.0,878.0,1519.0,2008.0,3057.0,2025-08-05 18:43:52,72.0,,0.0771563239249262,-1.69435100227184,0.0928388356463883,,-1.238453368944848,,
,3989.0,847.0,3169.0,877.0,1508.0,2026.0,3027.0,2025-08-05 18:43:53,72.0,,0.0771715641809778,-1.69434641889915,0.0928372459384792,,-0.9357021494221659,,
,3986.0,848.0,3168.0,876.0,1508.0,2013.0,3036.0,2025-08-05 18:43:54,72.0,,0.0771247376843849,-1.69450999123065,0.0928487625042932,,-0.6086800180433662,,
,3986.0,849.0,3167.0,878.0,1515.0,1994.0,3025.0,2025-08-05 18:43:55,73.0,,0.0771551837622365,-1.69432126218358,0.0928372558016439,,-0.26012432467611785,,
,3981.0,847.0,3164.0,877.0,1519.0,1995.0,3030.0,2025-08-05 18:43:56,73.0,,0.0771805642485633,-1.69413408053328,0.0928568704809517,,0.10625568419080522,,
,3978.0,845.0,3166.0,874.0,1510.0,2004.0,3027.0,2025-08-05 18:43:57,73.0,,0.0771665183897926,-1.69386974381862,0.0928545422968705,,0.4857043990008831,,
,3972.0,843.0,3164.0,872.0,1506.0,1981.0,3037.0,2025-08-05 18:43:58,73.0,,0.0771517710323327,-1.6936437927011,0.0928482536288322,,0.8723740098609567,,
,3971.0,845.0,3161.0,873.0,1512.0,1976.0,3034.0,2025-08-05 18:43:59,73.0,,0.0771539007447464,-1.69350796708663,0.0928596584805469,,1.2593265748261284,,
,3968.0,843.0,3160.0,870.0,1515.0,1995.0,3054.0,2025-08-05 18:44:00,73.0,,0.0771567929655255,-1.69348915602337,0.0928610290412709,,1.6386024606743468,,
,3966.0,843.0,3160.0,872.0,1518.0,1991.0,3061.0,2025-08-05 18:44:01,73.0,,0.0771349228758884,-1.69380911443962,0.0928566268182042,,2.0013696499464473,,
,3962.0,840.0,3156.0,870.0,1502.0,2006.0,3046.0,2025-08-05 18:44:02,73.0,,0.0771560172370222,-1.69387297099434,0.092865564365654,,2.3381616532443164,,
,3960.0,841.0,3156.0,870.0,1498.0,2004.0,3046.0,2025-08-05 18:44:03,73.0,,0.0771725315319402,-1.69333510198399,0.0928505209838117,,2.6392032013339484,,
,3958.0,841.0,3154.0,870.0,1507.0,1996.0,3035.0,2025-08-05 18:44:04,73.0,,0.0771611723365241,-1.69361320133792,0.0928631228521257,,2.894813891201216,,
,3958.0,839.0,3155.0,868.0,1506.0,1993.0,3030.0,2025-08-05 18:44:05,73.0,,0.0771557080256299,-1.69400900390131,0.0928601660156507,,3.0958717407708076,,
,3953.0,839.0,3153.0,865.0,1515.0,1999.0,3034.0,2025-08-05 18:44:06,74.0,,0.0771250680970472,-1.69399097430998,0.0928506871154623,,3.2343115904665516,,
,3952.0,838.0,3151.0,867.0,1514.0,2005.0,3048.0,2025-08-05 18:44:07,74.0,,0.0771268164029924,-1.69408519333332,0.0928519817948518,,3.303627086808641,,
,3953.0,841.0,3152.0,868.0,1507.0,1992.0,3028.0,2025-08-05 18:44:08,74.0,,0.0771331075692737,-1.69410825578236,0.0928636976249224,,3.299339315748144,,
,3952.0,841.0,3152.0,868.0,1517.0,1998.0,3028.0,2025-08-05 18:44:09,75.0,,0.0771176188375167,-1.69471197189888,0.0928572837427936,,3.2193909543852883,,
,3951.0,836.0,3149.0,866.0,1522.0,1993.0,3032.0,2025-08-05 18:44:10,75.0,,0.0771675543177145,-1.69379676900457,0.0928726592903693,,3.06442429424134,,
,3949.0,837.0,3147.0,864.0,1507.0,2002.0,3020.0,2025-08-05 18:44:11,75.0,,0.0771332972978545,-1.69396575923089,0.0928685964533676,,2.8379069128726013,,
,3951.0,837.0,3150.0,868.0,1523.0,2007.0,3042.0,2025-08-05 18:44:12,75.0,,0.0771019687929033,-1.69396473237934,0.0928631979201345,,2.5460808405636883,,
,3950.0,839.0,3148.0,867.0,1522.0,2001.0,3051.0,2025-08-05 18:44:13,76.0,,0.0771169654523858,-1.69385240681559,0.0928722393987143,,2.197728213847385,,
,3948.0,838.0,3148.0,865.0,1516.0,2012.0,3044.0,2025-08-05 18:44:14,76.0,,0.0771022160905426,-1.69405942074998,0.092872382033855,,1.8037653688198323,,
,3942.0,837.0,3147.0,864.0,1509.0,2005.0,3033.0,2025-08-05 18:44:15,76.0,,0.0770995146319439,-1.69446190934795,0.092868116895988,,1.3766945906184436,,
,3945.0,836.0,3147.0,864.0,1506.0,1997.0,3037.0,2025-08-05 18:44:16,76.0,,0.077116556834808,-1.69444732257338,0.092863357097089,,0.9299558119916193,,
,3945.0,836.0,3151.0,865.0,1516.0,2001.0,3038.0,2025-08-05 18:44:17,76.0,,0.0771243425502526,-1.69375092716553,0.0928805777990306,,0.47722840859592025,,
,3944.0,835.0,3147.0,862.0,1507.0,2006.0,3039.0,2025-08-05 18:44:18,76.0,,0.0771730760024388,-1.69378808615601,0.0928734933558827,,0.03173594880396034,,
,3942.0,835.0,3146.0,861.0,1511.0,2003.0,3046.0,2025-08-05 18:44:19,76.0,,0.0771633929919882,-1.69389599711426,0.0928715161232067,,-0.39439506492477683,,
,3944.0,835.0,3146.0,863.0,1512.0,1977.0,3055.0,2025-08-05 18:44:20,76.0,,0.0771348729838744,-1.69382392560371,0.0928748881499686,,-0.7906770321229393,,
,3943.0,835.0,3145.0,865.0,1512.0,2006.0,3061.0,2025-08-05 18:44:21,76.0,,0.0771613587956412,-1.69451664101697,0.0928618578091748,,-1.1486669245190755,,
,3941.0,834.0,3143.0,865.0,1516.0,2015.0,3059.0,2025-08-05 18:44:22,76.0,,0.0771712909030762,-1.69407744858093,0.0928697714851899,,-1.4622102208880263,,
,3943.0,836.0,3145.0,864.0,1512.0,1997.0,3058.0,2025-08-05 18:44:23,77.0,,0.0771518618684783,-1.69417561095348,0.0928607703032608,,-1.7275107082645447,,
,3940.0,834.0,3148.0,862.0,1511.0,1987.0,3045.0,2025-08-05 18:44:24,78.0,,0.0771501756001321,-1.69459248612029,0.0928611863205649,,-1.9430283446362107,,
,3943.0,836.0,3148.0,864.0,1502.0,1987.0,3029.0,2025-08-05 18:44:25,78.0,,0.0771091256246233,-1.69466964777861,0.0928583905259513,,-2.1092223776802856,,
,3942.0,837.0,3144.0,862.0,1496.0,1985.0,3034.0,2025-08-05 18:44:26,79.0,,0.0771119047223325,-1.69494270129717,0.0928534868353526,,-2.2281707362820677,,
,3941.0,833.0,3144.0,863.0,1496.0,1979.0,3022.0,2025-08-05 18:44:27,80.0,,0.0771180711908054,-1.69479004858821,0.0928552551674705,,-2.3031075479878687,,
2025-08-05 18:41:48,3937.0,834.0,3144.0,863.0,1510.0,1981.0,3033.0,2025-08-05 18:44:28,80.0,2025/08/05 06:41:48 PM,0.0771109847843204,-1.69473649804783,0.0928562819757768,,-2.337926964297354,,
,3940.0,834.0,3145.0,863.0,1508.0,1990.0,3047.0,2025-08-05 18:44:29,80.0,,0.0770945100943085,-1.69530081365072,0.0928481644616943,,-2.336702421545526,,
,3938.0,834.0,3140.0,863.0,1510.0,1989.0,3054.0,2025-08-05 18:44:30,80.0,,0.0771153181101989,-1.69538722733224,0.092845654154958,,-2.3032660025467475,,
,3939.0,834.0,3144.0,861.0,1519.0,1983.0,3051.0,2025-08-05 18:44:31,79.0,,0.0771063591328325,-1.6957344009846,0.0928379573549145,,-2.2408835178396838,,
,3936.0,831.0,3143.0,859.0,1508.0,1992.0,3070.0,2025-08-05 18:44:32,78.0,,0.0771430066289997,-1.69604238259573,0.0928407943851911,,-2.1520486562918886,,
,3939.0,834.0,3143.0,863.0,1506.0,1990.0,3060.0,2025-08-05 18:44:33,78.0,,0.0771053807989064,-1.6960739043849,0.0928373178871593,,-2.0384055408085024,,
,3937.0,835.0,3146.0,863.0,1503.0,1997.0,3065.0,2025-08-05 18:44:34,78.0,,0.0770866650243867,-1.69622579680225,0.0928289999234592,,-1.9007947153527491,,
,3935.0,832.0,3140.0,861.0,1501.0,1981.0,3057.0,2025-08-05 18:44:35,78.0,,0.0771047767620911,-1.69669808595337,0.0928315070819704,,-1.7394045097682083,,
,3936.0,832.0,3141.0,861.0,1498.0,1993.0,3062.0,2025-08-05 18:44:36,77.0,,0.0770824556323189,-1.69647372587654,0.0928222125632762,,-1.5539994360794194,,
,3936.0,834.0,3142.0,861.0,1497.0,1983.0,3042.0,2025-08-05 18:44:37,77.0,,0.0770774370516972,-1.69705958513295,0.0928184659841847,,-1.3441910330780928,,
,3937.0,834.0,3143.0,862.0,1511.0,1993.0,3050.0,2025-08-05 18:44:38,77.0,,0.077080804439357,-1.69773164730491,0.0927959627914498,,-1.1097150793369273,,
,3937.0,833.0,3140.0,863.0,1516.0,1981.0,3036.0,2025-08-05 18:44:39,77.0,,0.0770562044281752,-1.69819626741719,0.0927921769900942,,-0.8506823818593456,,
,3934.0,830.0,3141.0,859.0,1510.0,1986.0,3046.0,2025-08-05 18:44:40,77.0,,0.0770693841630423,-1.69869475276229,0.0927888372167542,,-0.5677778728944797,,
,3934.0,834.0,3142.0,862.0,1506.0,1989.0,3042.0,2025-08-05 18:44:41,77.0,,0.0770722586204047,-1.69949422083503,0.0927785091300339,,-0.2623933265820248,,
,3937.0,832.0,3142.0,861.0,1510.0,1984.0,3044.0,2025-08-05 18:44:42,76.0,,0.0770520434624112,-1.69913187742775,0.0927730014664681,,0.06330923077161363,,
,3933.0,832.0,3143.0,861.0,1507.0,1981.0,3042.0,2025-08-05 18:44:43,76.0,,0.0770487155329737,-1.69932555256638,0.0927677193094733,,0.4063956526581809,,
,3932.0,831.0,3140.0,859.0,1509.0,1988.0,3026.0,2025-08-05 18:44:44,76.0,,0.077027009786128,-1.69952931397448,0.0927742639398476,,0.7632039419752663,,
,3937.0,834.0,3142.0,861.0,1515.0,1983.0,3035.0,2025-08-05 18:44:45,76.0,,0.07702566526387,-1.7002479736741,0.0927516621835632,,1.1294158003769794,,
,3937.0,835.0,3145.0,862.0,1516.0,1993.0,3045.0,2025-08-05 18:44:46,77.0,,0.0770301436341589,-1.70035255637053,0.0927491976594054,,1.5001374714108489,,
,3937.0,833.0,3142.0,863.0,1516.0,1990.0,3053.0,2025-08-05 18:44:47,77.0,,0.077011645064384,-1.70061510409132,0.092743266669043,,1.8699763946431507,,
,3938.0,832.0,3140.0,859.0,1525.0,1996.0,3033.0,2025-08-05 18:44:48,78.0,,0.0770517512920238,-1.70092734804018,0.0927261500786349,,2.233107111537084,,
,3938.0,833.0,3142.0,862.0,1522.0,2005.0,3041.0,2025-08-05 18:44:49,78.0,,0.0770278501937795,-1.70085077419329,0.0927442351843028,,2.583327759354934,,
,3939.0,835.0,3145.0,864.0,1515.0,1998.0,3054.0,2025-08-05 18:44:50,79.0,,0.0770048813077041,-1.70128106397966,0.0927336370702309,,2.914115810130879,,
,3937.0,833.0,3142.0,861.0,1509.0,1995.0,3063.0,2025-08-05 18:44:51,79.0,,0.0770430681855454,-1.70133205194606,0.0927299015412545,,3.2186969723878396,,
,3939.0,830.0,3140.0,861.0,1508.0,1982.0,3040.0,2025-08-05 18:44:52,79.0,,0.0770205418562149,-1.70149985601289,0.0927194000735218,,3.4901432731098785,,
,3938.0,830.0,3140.0,860.0,1515.0,1998.0,3024.0,2025-08-05 18:44:53,78.0,,0.0770295378930126,-1.70176456538439,0.0927186216791629,,3.721514849584051,,
,3942.0,834.0,3141.0,862.0,1516.0,1990.0,3042.0,2025-08-05 18:44:54,78.0,,0.0770420223547364,-1.70253496396415,0.0927054250777678,,3.906055181499402,,
,3942.0,835.0,3145.0,862.0,1515.0,1985.0,3043.0,2025-08-05 18:44:55,78.0,,0.077038079277354,-1.70264753729754,0.0927034743306792,,4.037442184705092,,
,3940.0,831.0,3139.0,861.0,1547.0,2001.0,3026.0,2025-08-05 18:44:56,78.0,,0.0770312309816666,-1.70204089571494,0.0927057427617237,,4.110088792754671,,
,3939.0,833.0,3144.0,860.0,1524.0,2002.0,3033.0,2025-08-05 18:44:57,78.0,,0.0770187231160203,-1.7019000330961,0.0927074621537358,,4.11947728951727,,
,3944.0,833.0,3144.0,862.0,1527.0,2000.0,3050.0,2025-08-05 18:44:58,78.0,,0.0770286955795873,-1.70210478645369,0.0926978456216207,,4.0625025581887035,,
,3945.0,838.0,3145.0,863.0,1518.0,1994.0,3054.0,2025-08-05 18:44:59,78.0,,0.0770097383855445,-1.70202383150238,0.0926983367476123,,3.937791796827069,,
,3944.0,835.0,3145.0,865.0,1514.0,1987.0,3055.0,2025-08-05 18:45:00,79.0,,0.0770316275362394,-1.70227887970739,0.0927023160507006,,3.7459639525828416,,
,3943.0,833.0,3142.0,860.0,1518.0,1984.0,3046.0,2025-08-05 18:45:01,79.0,,0.0770023379207906,-1.70213040907526,0.0926949483313545,,3.4897929818715663,,
,3943.0,835.0,3144.0,863.0,1507.0,1983.0,3050.0,2025-08-05 18:45:02,79.0,,0.0770312830825126,-1.70266428728188,0.092687560696341,,3.1742458536576397,,
,3947.0,835.0,3147.0,864.0,1516.0,1985.0,3046.0,2025-08-05 18:45:03,79.0,,0.0770289508768258,-1.70272184411719,0.0926883961659546,,2.806378169926127,,
,3946.0,836.0,3146.0,862.0,1517.0,1989.0,3057.0,2025-08-05 18:45:04,79.0,,0.0770235212902281,-1.70277496464713,0.0926915536618831,,2.3950852463666346,,
,3946.0,836.0,3145.0,865.0,1514.0,1998.0,3059.0,2025-08-05 18:45:05,79.0,,0.0769794812316261,-1.7031974526558,0.0926836391313112,,1.9507218663151062,,
,3948.0,835.0,3146.0,863.0,1506.0,1983.0,3041.0,2025-08-05 18:45:06,79.0,,0.07696289146881,-1.70309038620285,0.0926830813004955,,1.4846173729817402,,
,3949.0,836.0,3147.0,865.0,1509.0,1977.0,3049.0,2025-08-05 18:45:07,78.0,,0.0770033856859886,-1.70312305415789,0.092678571417205,,1.0085226118656514,,
,3951.0,835.0,3148.0,863.0,1514.0,1980.0,3043.0,2025-08-05 18:45:08,78.0,,0.0769955464987524,-1.70324697747647,0.0926719799044493,,0.5340305397893842,,
,3950.0,836.0,3146.0,863.0,1522.0,2002.0,3040.0,2025-08-05 18:45:09,78.0,,0.0769990054284865,-1.70313234128955,0.092674002909385,,0.07201299379361907,,
,3949.0,833.0,3144.0,863.0,1514.0,1997.0,3042.0,2025-08-05 18:45:10,79.0,,0.0770104360674409,-1.70370133947654,0.0926674887560422,,-0.3678870755779817,,
,3952.0,836.0,3149.0,866.0,1514.0,2005.0,3051.0,2025-08-05 18:45:11,80.0,,0.0769996254307537,-1.70339141541295,0.0926618281792706,,-0.7776743044877815,,
,3955.0,836.0,3146.0,866.0,1525.0,1996.0,3049.0,2025-08-05 18:45:12,80.0,,0.0769620072491665,-1.70380853930295,0.092656198652254,,-1.151303823606695,,
,3952.0,837.0,3146.0,864.0,1524.0,2005.0,3051.0,2025-08-05 18:45:13,80.0,,0.0769678037453369,-1.70428251072442,0.0926404840485813,,-1.4848491278404623,,
,3956.0,837.0,3148.0,865.0,1522.0,2020.0,3032.0,2025-08-05 18:45:14,79.0,,0.0769476747460663,-1.70584422459114,0.0926430032581941,,-1.7765241572701547,,
,3954.0,836.0,3147.0,865.0,1520.0,1998.0,3048.0,2025-08-05 18:45:15,78.0,,0.0769015878455083,-1.70581830011543,0.0926278488222135,,-2.026558958826968,,
,3959.0,839.0,3150.0,866.0,1516.0,1999.0,3041.0,2025-08-05 18:45:16,77.0,,0.0769017670521727,-1.70659796880112,0.0926156727214589,,-2.236939809027273,,
,3957.0,837.0,3151.0,866.0,1515.0,2000.0,3048.0,2025-08-05 18:45:17,76.0,,0.0769138851900099,-1.70753269197157,0.0926060704779718,,-2.411036254876579,,
,3957.0,837.0,3147.0,866.0,1517.0,2000.0,3051.0,2025-08-05 18:45:18,75.0,,0.0769481023568405,-1.70819204219013,0.0926088172644775,,-2.5531473858836686,,
,3958.0,836.0,3148.0,866.0,1528.0,2014.0,3048.0,2025-08-05 18:45:19,75.0,,0.0769236732495621,-1.70856391630369,0.0926030508623181,,-2.6680063397115785,,
,3959.0,840.0,3151.0,869.0,1526.0,1995.0,3038.0,,,,0.0768923488062428,-1.70947001177011,0.0925864795065286,,-2.76028489663319,,
,3960.0,836.0,3151.0,866.0,1518.0,1989.0,3045.0,,,,0.0768662384114896,-1.7092654544066,0.0925816131705869,,-2.834139096577772,,
,3959.0,834.0,3151.0,864.0,1533.0,1995.0,3033.0,,,,0.0768908880283172,-1.7094873661031,0.0925873950216315,,-2.8928326118755536,,
,3963.0,840.0,3155.0,868.0,1517.0,1990.0,3029.0,,,,0.0768705983809198,-1.70988184664679,0.0925843646168558,,-2.9384677576035507,,
,3964.0,842.0,3154.0,870.0,1527.0,1989.0,3047.0,,,,0.0768752876296347,-1.70926920993911,0.0925832341643083,,-2.9718450899157896,,
,3964.0,840.0,3152.0,867.0,1517.0,1994.0,3046.0,,,,0.0768908668391893,-1.70935822270987,0.0925772874644918,,-2.99246196853769,,
,3964.0,839.0,3152.0,867.0,1516.0,1988.0,3045.0,,,,0.0769035513106941,-1.70977340841778,0.0925833207272254,,-2.998648633483087,,
,3965.0,839.0,3153.0,869.0,1520.0,2006.0,3050.0,,,,0.0769055134997235,-1.70980219394184,0.0925810737892057,,-2.987827810631112,,
,3968.0,841.0,3155.0,871.0,1516.0,2009.0,3039.0,,,,0.0768995683124057,-1.70993784942033,0.0925783878122189,,-2.956871460636602,,
,3969.0,841.0,3156.0,870.0,1526.0,1994.0,3032.0,,,,0.0768819872194814,-1.70972807148901,0.0925871406938477,,-2.902517225858146,,
,3969.0,841.0,3156.0,868.0,1527.0,2008.0,3015.0,,,,0.0769196009010846,-1.70916788064071,0.0925938148911221,,-2.8217990025734045,,
,3972.0,839.0,3155.0,870.0,1520.0,2013.0,3040.0,,,,0.0768977144548215,-1.70946884560424,0.0925848222536422,,-2.712442680024652,,
,3972.0,842.0,3158.0,871.0,1532.0,1991.0,3048.0,,,,0.0768917243774883,-1.71024688469567,0.0925866558618919,,-2.573180880312607,,
,3973.0,842.0,3157.0,869.0,1527.0,1988.0,3042.0,,,,0.0768653763167851,-1.70923843751127,0.0925940091008792,,-2.403949824870308,,
,3976.0,844.0,3159.0,872.0,1519.0,1978.0,3031.0,,,,0.0768768260895387,-1.70929969111574,0.0925927591095148,,-2.2059461584250446,,
,3973.0,843.0,3158.0,871.0,1516.0,1978.0,3024.0,,,,0.0768608535979362,-1.70959782104548,0.0925824588552805,,-1.9815395313500581,,
,3977.0,844.0,3158.0,871.0,1526.0,1987.0,3022.0,,,,0.0768429201726833,-1.70977156746804,0.09258335412352,,-1.7340553510200247,,
,3978.0,844.0,3159.0,872.0,1507.0,1998.0,3034.0,,,,0.076869482590092,-1.70970072929114,0.092590527468309,,-1.4674586883575296,,
,3979.0,844.0,3160.0,872.0,1513.0,2001.0,3037.0,,,,0.0768560432167339,-1.71024216519527,0.0925766163035486,,-1.1859824393859288,,
,3977.0,841.0,3160.0,872.0,1520.0,1994.0,3034.0,,,,0.076886868681122,-1.70991491453019,0.0925819958764865,,-0.8937487346384299,,
,3978.0,843.0,3157.0,871.0,1524.0,2007.0,3038.0,,,,0.0768341174903735,-1.71009945167556,0.0925786315716781,,-0.594431674579934,,
,3980.0,844.0,3158.0,873.0,1523.0,2009.0,3050.0,,,,0.07680629658421,-1.71030137266625,0.0925751492787065,,-0.2910024761716798,,
,3979.0,844.0,3160.0,872.0,1529.0,2011.0,3053.0,,,,0.0768139818198225,-1.71052487897919,0.0925794047810769,,0.014413345543986395,,
,3978.0,843.0,3160.0,872.0,1551.0,2015.0,3038.0,,,,0.0768232182413816,-1.71052972225042,0.0925799308376545,,0.3205512418919254,,
,3978.0,843.0,3159.0,872.0,1541.0,1999.0,3038.0,,,,0.0768101479884077,-1.71035943001319,0.0925779636239354,,0.6268949145119106,,
,3975.0,841.0,3159.0,871.0,1550.0,1997.0,3046.0,,,,0.0768285406550852,-1.71095265040254,0.0925721403710356,,0.9334497537042157,,
,3973.0,843.0,3158.0,871.0,1545.0,2004.0,3045.0,,,,0.076784029036625,-1.71097551652218,0.0925773665762797,,1.240429062239943,,
,3970.0,838.0,3155.0,869.0,1532.0,1989.0,3045.0,,,,0.076834338791365,-1.71083911654467,0.0925695178358564,,1.5478886761798014,,
,3967.0,839.0,3156.0,869.0,1529.0,1974.0,3045.0,,,,0.076822504684941,-1.71135430649697,0.0925668806617631,,1.8553501426825367,,
,3965.0,840.0,3155.0,868.0,1523.0,1984.0,3042.0,,,,0.0768299630996085,-1.71159022453226,0.0925701955845242,,2.161452777711991,,
,3959.0,839.0,3153.0,866.0,1519.0,1980.0,3032.0,,,,0.0768057613155548,-1.71110140294956,0.0925607551937773,,2.4636716216499828,,
,3957.0,838.0,3152.0,869.0,1517.0,1974.0,3013.0,,,,0.0768369605349282,-1.71163266766267,0.0925682583804858,,2.758132723139136,,
,3954.0,838.0,3151.0,864.0,1527.0,1985.0,3034.0,,,,0.0767887284853664,-1.7110939494171,0.0925599225045864,,3.0395501385983095,,
,3952.0,838.0,3151.0,865.0,1517.0,1986.0,3031.0,,,,0.0768261736616426,-1.7109501648012,0.0925668915563795,,3.3013007543852155,,
,3952.0,837.0,3148.0,864.0,1510.0,1996.0,3027.0,,,,0.0768119899785171,-1.71174704695148,0.0925581316740001,,3.535643319783861,,
,3950.0,838.0,3147.0,865.0,1511.0,2009.0,3046.0,,,,0.0768011131108618,-1.71086461871861,0.0925604795604149,,3.7340767694412182,,
,3946.0,834.0,3144.0,862.0,1520.0,2012.0,3053.0,,,,0.0768099442957435,-1.71114034957754,0.0925560033905596,,3.887820324568656,,
,3948.0,837.0,3147.0,865.0,1540.0,2014.0,3030.0,,,,0.076780839788112,-1.71117407524959,0.0925576537275853,,3.988384896118645,,
,3946.0,836.0,3147.0,863.0,1531.0,2014.0,3016.0,,,,0.0767964573554314,-1.71123515885133,0.0925564640072913,,4.028193345471082,,
,3947.0,834.0,3146.0,860.0,1532.0,2010.0,3011.0,,,,0.076816836479227,-1.71193652180968,0.0925626053193424,,4.001197836215827,,
,3944.0,832.0,3143.0,858.0,1515.0,1983.0,3004.0,,,,0.0768534890263535,-1.71146812947383,0.0925613172156386,,3.9034375636768375,,
,3946.0,835.0,3146.0,864.0,1519.0,2005.0,3032.0,,,,0.0768423972010401,-1.71140534153925,0.0925600012869661,,3.733481149179938,,
,3945.0,835.0,3147.0,862.0,1537.0,2007.0,3033.0,,,,0.0769000390842275,-1.71197482447254,0.0925666109522493,,3.492705931799321,,
,3943.0,833.0,3144.0,860.0,1528.0,2005.0,3028.0,,,,0.0768914632133184,-1.71153324585849,0.0925621864605845,,3.1853811361843376,,
,3942.0,834.0,3140.0,860.0,1515.0,1999.0,3023.0,,,,0.0768708862096098,-1.71169006700883,0.092557752470283,,2.8185417564169812,,
,3944.0,833.0,3146.0,862.0,1533.0,1997.0,3036.0,,,,0.0768466540896437,-1.71192813413317,0.0925595871595281,,2.401661937560762,,
,3943.0,833.0,3143.0,862.0,1548.0,1996.0,3030.0,,,,0.0767716055354701,-1.71194365131329,0.0925574319595037,,1.9461571210582287,,
,3945.0,833.0,3143.0,862.0,1544.0,1997.0,3038.0,,,,0.0768129955343581,-1.71137858384745,0.0925666039498319,,1.4647602583523767,,
,3942.0,835.0,3142.0,861.0,1522.0,2005.0,3031.0,,,,0.0768369056375384,-1.7115964461133,0.0925644137691735,,0.9708271689248813,,
,3942.0,833.0,3142.0,860.0,1525.0,1999.0,3033.0,,,,0.0768155992778834,-1.71158718658953,0.0925719547691993,,0.4776289920865973,,
,3944.0,833.0,3142.0,862.0,1532.0,1996.0,3050.0,,,,0.0768137794285212,-1.71130710329751,0.0925649527653395,,-0.0023139854009372276,,
,3941.0,834.0,3142.0,862.0,1537.0,1985.0,3050.0,,,,0.0768389896567956,-1.71079503142269,0.0925627582684,,-0.45781181071489596,,
,3942.0,832.0,3142.0,860.0,1517.0,1990.0,3042.0,,,,0.0768554011572363,-1.71086679702644,0.0925718360739437,,-0.8794646597971439,,
,3942.0,831.0,3141.0,861.0,1540.0,1987.0,3050.0,,,,0.0768314117805307,-1.71084118538615,0.0925729526892353,,-1.259983440556328,,
,3942.0,834.0,3144.0,861.0,1528.0,1988.0,3046.0,,,,0.0769102338796784,-1.71052864728871,0.0925695235391633,,-1.594364554124931,,
,3943.0,834.0,3142.0,862.0,1520.0,1986.0,3043.0,,,,0.0768960364210984,-1.71066338066279,0.0925721912196742,,-1.8799232825635026,,
,3939.0,832.0,3140.0,860.0,1513.0,2001.0,3034.0,,,,0.0768879275760783,-1.7107181973627,0.0925722961494231,,-2.116199115333162,,
,3940.0,831.0,3141.0,858.0,1525.0,2009.0,3037.0,,,,0.0769106510074984,-1.7110506257923,0.0925717565599141,,-2.3047525929341335,,
,3940.0,834.0,3140.0,860.0,1524.0,1987.0,3029.0,,,,0.0769146239696241,-1.71074834707427,0.0925682725893523,,-2.4488768299607706,,
,3940.0,835.0,3140.0,859.0,1512.0,1980.0,3033.0,,,,0.0769113853966259,-1.71057541096943,0.0925648096303814,,-2.553248100087174,,
,3937.0,831.0,3140.0,858.0,1521.0,1989.0,3033.0,,,,0.0769583434284783,-1.71126504544067,0.0925662465596692,,-2.6235394370944802,,
,3936.0,832.0,3140.0,857.0,1533.0,2001.0,3042.0,,,,0.076933507087821,-1.71102953117002,0.0925680691989577,,-2.666019825297804,,
,3940.0,833.0,3141.0,859.0,1527.0,1993.0,3056.0,,,,0.0769534280472119,-1.71134257171119,0.0925657927557286,,-2.6871595649692757,,
,3938.0,833.0,3139.0,859.0,1523.0,1992.0,3042.0,,,,0.0769185400334499,-1.71054287990863,0.0925710731092516,,-2.6932598518077757,,
,3939.0,832.0,3140.0,859.0,1525.0,1987.0,3044.0,,,,0.0769462823819106,-1.71068605702171,0.0925726815394946,,-2.690121523290572,,
,3937.0,831.0,3135.0,857.0,1520.0,1995.0,3036.0,,,,0.0769529408483235,-1.71088035542199,0.0925652090706215,,-2.682764522050595,,
,3939.0,831.0,3141.0,859.0,1520.0,1992.0,3039.0,,,,0.0769572625982914,-1.71027135282072,0.0925613371527938,,-2.675206358584861,,
,3937.0,832.0,3139.0,860.0,1531.0,2006.0,3044.0,,,,0.0769354676626597,-1.71102717640684,0.0925694157386417,,-2.670305163391656,,
,3940.0,833.0,3139.0,859.0,1517.0,2002.0,3036.0,,,,0.0769600446395557,-1.71052374695675,0.0925591765060737,,-2.6696709428812535,,
,3937.0,830.0,3136.0,858.0,1518.0,2000.0,3034.0,,,,0.0769794073385397,-1.71021822316561,0.0925800876960121,,-2.6736471543079565,,
,3940.0,830.0,3137.0,859.0,1518.0,2004.0,3036.0,,,,0.0769981985142138,-1.71032311096127,0.0925788550216536,,-2.681363207738172,,
,3936.0,832.0,3139.0,859.0,1527.0,2003.0,3039.0,,,,0.0769989931844854,-1.71000436704746,0.0925670700677816,,-2.6908564577409146,,
,3938.0,832.0,3139.0,861.0,1529.0,1992.0,3024.0,,,,0.0770058215353725,-1.71009499690946,0.0925715796264953,,-2.6992592332092475,,
,3939.0,832.0,3138.0,858.0,1524.0,1993.0,3045.0,,,,0.0769946015982004,-1.71027700832126,0.0925653133326966,,-2.7030422420996585,,
,3940.0,834.0,3138.0,859.0,1527.0,1994.0,3062.0,,,,0.0769907368603408,-1.71023590922935,0.0925633428256026,,-2.6983004646695408,,
,3939.0,834.0,3140.0,859.0,1531.0,1981.0,3048.0,,,,0.0769935476237292,-1.70997204162031,0.0925827330649599,,-2.6810622840366967,,
2025-08-05 18:41:49,3941.0,832.0,3140.0,861.0,1539.0,1979.0,3041.0,,,2025/08/05 06:41:49 PM,0.0769838490339206,-1.71000035666543,0.0925761857533238,,-2.6475985266767545,,
,3939.0,831.0,3138.0,859.0,1541.0,1992.0,3038.0,,,,0.076967607770063,-1.70991065424396,0.0925634415106397,,-2.5947065771037385,,
,3941.0,832.0,3140.0,861.0,1532.0,1999.0,3036.0,,,,0.0769765386959478,-1.70935080602135,0.0925695439560065,,-2.519946250581995,,
,3943.0,832.0,3140.0,860.0,1546.0,2003.0,3022.0,,,,0.0769921399208181,-1.70979026069148,0.0925712278000337,,-2.421808325755292,,
,3941.0,833.0,3141.0,861.0,1545.0,1996.0,3026.0,,,,0.0770143280753461,-1.70974799860882,0.0925766818697716,,-2.2998029219231135,,
,3945.0,833.0,3140.0,859.0,1552.0,1992.0,3025.0,,,,0.077020776151468,-1.70963933723686,0.0925646917323865,,-2.1544625884279482,,
,3943.0,831.0,3138.0,859.0,1555.0,1984.0,3019.0,,,,0.0770029717676975,-1.70951846504527,0.0925723082979354,,-1.987263252153354,,
,3946.0,834.0,3141.0,860.0,1547.0,1994.0,3023.0,,,,0.0770177892589107,-1.70949051482358,0.0925695098114503,,-1.8004739851919298,,
,3947.0,834.0,3143.0,861.0,1538.0,1990.0,3040.0,,,,0.077035175552281,-1.70922696372535,0.0925655937517896,,-1.5969527918730013,,
,3948.0,834.0,3141.0,862.0,1543.0,1998.0,3028.0,,,,0.076989940764866,-1.7093689742609,0.092578206528874,,-1.379909491224407,,
,3948.0,833.0,3139.0,857.0,1549.0,2004.0,3007.0,,,,0.0770319017935332,-1.70906884872355,0.0925639653166829,,-1.1526580656718055,,
,3949.0,834.0,3141.0,861.0,1540.0,1993.0,3018.0,,,,0.0770271609261261,-1.70918109860758,0.0925771786053289,,-0.9183797789247896,,
,3948.0,836.0,3143.0,860.0,1526.0,1999.0,3029.0,,,,0.077029782516567,-1.70920321920032,0.0925722351988223,,-0.679915334180115,,
,3949.0,833.0,3143.0,861.0,1523.0,1994.0,3030.0,,,,0.0770747881999484,-1.70884597794771,0.0925837502680095,,-0.43959983659031504,,
,3948.0,835.0,3143.0,861.0,1526.0,2002.0,3049.0,,,,0.077035579699687,-1.70909284368094,0.0925848316739636,,-0.19914908615516363,,
,3952.0,833.0,3139.0,860.0,1522.0,1991.0,3038.0,,,,0.0770569406592038,-1.70912287352078,0.092579564147556,,0.04039915317725352,,
,3952.0,835.0,3143.0,862.0,1525.0,1990.0,3021.0,,,,0.0770074522266194,-1.70866914591568,0.0925914309416423,,0.2786887764616773,,
,3953.0,836.0,3145.0,861.0,1535.0,1995.0,3025.0,,,,0.0770014604495718,-1.70851364631431,0.0925865849467192,,0.5159956202408892,,
,3954.0,835.0,3145.0,863.0,1529.0,2001.0,3024.0,,,,0.0770045207978638,-1.70835171176379,0.0925903294157487,,0.7531270907815046,,
,3953.0,833.0,3143.0,861.0,1556.0,1998.0,3011.0,,,,0.0770530660531917,-1.70821747419155,0.0925980947132673,,0.9912746961738582,,
,3956.0,837.0,3146.0,864.0,1543.0,1998.0,2992.0,,,,0.0770460748834471,-1.70766907563738,0.0925971151683156,,1.2318245025240298,,
,3956.0,836.0,3142.0,864.0,1552.0,2001.0,2984.0,,,,0.0770595482640504,-1.70827229082202,0.092599187829824,,1.4761327457434383,,
,3957.0,837.0,3146.0,864.0,1533.0,1996.0,2993.0,,,,0.0770937980441181,-1.70821845154192,0.0925873179839298,,1.7252765778711887,,
,3955.0,836.0,3143.0,862.0,1538.0,1981.0,3001.0,,,,0.0771232419869101,-1.70859455837756,0.0925956491198003,,1.9797928476405982,,
,3958.0,839.0,3147.0,863.0,1529.0,1987.0,3023.0,,,,0.0771297130333412,-1.70894799427031,0.0925886045447431,,2.2394206242026433,,
,3959.0,836.0,3145.0,862.0,1528.0,2004.0,3033.0,,,,0.077105653888453,-1.70946640081942,0.0925929603763268,,2.502865747548139,,
,3961.0,839.0,3148.0,865.0,1527.0,1997.0,3036.0,,,,0.0770883331618016,-1.70999091985119,0.0925686974611767,,2.767607938098187,,
,3962.0,835.0,3145.0,860.0,1534.0,2007.0,3039.0,,,,0.0770426658394065,-1.71122745820178,0.0925717252913583,,3.029772653398877,,
,3959.0,836.0,3147.0,864.0,1545.0,2002.0,3050.0,,,,0.077063633318306,-1.71019260276891,0.092558513735548,,3.284090409297953,,
,3962.0,838.0,3147.0,865.0,1530.0,1984.0,3037.0,,,,0.0770299069971138,-1.71122891708067,0.0925621960959317,,3.52396490367074,,
,3964.0,836.0,3147.0,864.0,1534.0,1978.0,3029.0,,,,0.0770180807104526,-1.71120705625554,0.0925445621558417,,3.741666955540145,,
,3965.0,837.0,3144.0,865.0,1525.0,1999.0,3001.0,,,,0.0770130944751936,-1.71135260088059,0.0925470108741495,,3.9286628865679045,,
,3969.0,839.0,3151.0,866.0,1538.0,1996.0,3036.0,,,,0.0769383875634103,-1.71131336952878,0.0925341777419868,,4.076073003085369,,
,3967.0,840.0,3149.0,867.0,1559.0,1984.0,3017.0,,,,0.0769382460733004,-1.71143838470023,0.0925544398115952,,4.1752391848308426,,
,3968.0,838.0,3151.0,866.0,1550.0,1987.0,3022.0,,,,0.0769227119742674,-1.71189726702702,0.0925394274697311,,4.218362758233472,,
,3969.0,839.0,3149.0,865.0,1530.0,1998.0,3028.0,,,,0.0769589563650654,-1.71179173611532,0.0925411975170806,,4.199158248959308,,
,3969.0,840.0,3148.0,866.0,1537.0,1984.0,3024.0,,,,0.0769457347175737,-1.71165919299025,0.0925530035517564,,4.113458574853507,,
,3971.0,840.0,3151.0,867.0,1543.0,1984.0,3034.0,,,,0.0769578401171894,-1.71115121338939,0.092547216662353,,3.9597051608336082,,
,3972.0,841.0,3152.0,869.0,1544.0,1993.0,3039.0,,,,0.0769441139142689,-1.7110116338145,0.092557162414545,,3.7392634720530724,,
,3974.0,840.0,3153.0,869.0,1549.0,1984.0,3041.0,,,,0.0769363478995537,-1.71090131627698,0.0925561046313779,,3.4565202669665,,
,3974.0,841.0,3150.0,869.0,1536.0,2001.0,3031.0,,,,0.0769044931221768,-1.71115753563864,0.0925610491116561,,3.118741522025395,,
,3974.0,841.0,3152.0,869.0,1549.0,1980.0,3021.0,,,,0.0769447092340914,-1.7102531398865,0.0925557581349186,,2.7356960082464274,,
,3978.0,840.0,3155.0,869.0,1553.0,1987.0,3033.0,,,,0.0769599655167749,-1.71058431283714,0.0925546951166707,,2.3190747914801797,,
,3979.0,846.0,3154.0,870.0,1543.0,2010.0,3031.0,,,,0.0770069610780823,-1.71081491509565,0.0925698025315478,,1.8817579677765182,,
,3978.0,842.0,3155.0,869.0,1534.0,2005.0,3024.0,,,,0.0769656410308835,-1.71057878993028,0.0925628001149033,,1.4369945825686439,,
,3980.0,842.0,3153.0,871.0,1536.0,1993.0,2996.0,,,,0.0769794352014739,-1.71015905132938,0.0925691144227285,,0.9975690751653674,,
,3980.0,839.0,3154.0,869.0,1541.0,1995.0,3019.0,,,,0.076961210239724,-1.71064620679602,0.09256700233345,,0.5750276600616383,,
,3982.0,842.0,3155.0,869.0,1540.0,1991.0,3025.0,,,,0.0769561259720012,-1.70983400824688,0.0925690047818521,,0.17903098908021298,,
,3981.0,840.0,3154.0,867.0,1540.0,1991.0,3004.0,,,,0.0769823486434633,-1.71037283642476,0.0925568154340361,,-0.18311436573429368,,
,3984.0,844.0,3155.0,870.0,1524.0,1986.0,3013.0,,,,0.0769836130682206,-1.71061596044979,0.0925774433653813,,-0.5067125486722305,,
,3984.0,844.0,3157.0,874.0,1541.0,1998.0,3047.0,,,,0.0769589830516167,-1.71079391267018,0.0925687315638745,,-0.789713083134852,,
,3987.0,843.0,3159.0,871.0,1538.0,1997.0,3051.0,,,,0.0769774824977683,-1.710642131399,0.0925639477284925,,-1.0325366927983999,,
,3988.0,843.0,3157.0,872.0,1564.0,2009.0,3039.0,,,,0.076976360223605,-1.71032206331957,0.092560929897372,,-1.2377254030001619,,
,3988.0,844.0,3157.0,873.0,1581.0,2000.0,3038.0,,,,0.0769629413035917,-1.71031713493682,0.0925699659943198,,-1.4094640776774632,,
,3991.0,845.0,3160.0,874.0,1578.0,2006.0,3029.0,,,,0.0769999636340783,-1.71026244136142,0.0925686556894947,,-1.553027421038567,,
,3989.0,842.0,3159.0,871.0,1586.0,2005.0,3030.0,,,,0.0769632927769448,-1.709865619367,0.0925718642697353,,-1.6742065672904751,,
,3991.0,843.0,3158.0,870.0,1569.0,2008.0,3026.0,,,,0.076994687523598,-1.71009813140609,0.0925769998738542,,-1.7787641173345365,,
,3988.0,843.0,3159.0,873.0,1574.0,2007.0,3001.0,,,,0.0770176533391451,-1.71040414691518,0.0925734802528314,,-1.8719576218798393,,
,3988.0,843.0,3159.0,871.0,1561.0,2007.0,3008.0,,,,0.0770344090960534,-1.70998881645828,0.0925843135532146,,-1.9581606858841913,,
,3987.0,844.0,3162.0,874.0,1538.0,2006.0,3017.0,,,,0.0770065634802157,-1.70972852294714,0.0925776682115549,,-2.0405993740781816,,
,3984.0,841.0,3158.0,872.0,1531.0,2024.0,3026.0,,,,0.0770141990731169,-1.70968534554602,0.0925767808291407,,-2.12121036700465,,
,3979.0,841.0,3158.0,868.0,1548.0,2002.0,3028.0,,,,0.0770148738088735,-1.70974907360412,0.0925873869591642,,-2.200617009537804,,
,3975.0,839.0,3157.0,871.0,1551.0,1983.0,3034.0,,,,0.0770004742956164,-1.7093488102726,0.0925920307208969,,-2.278210517016235,,
,3975.0,841.0,3155.0,869.0,1548.0,1972.0,3019.0,,,,0.0770310463526779,-1.70961826918246,0.0925798639987842,,-2.352316651302413,,
,3971.0,839.0,3154.0,868.0,1538.0,1985.0,3019.0,,,,0.0770327448730347,-1.70918118636853,0.0925861166497248,,-2.4204237189219717,,
,3968.0,836.0,3150.0,865.0,1537.0,1988.0,3005.0,,,,0.0770221281822195,-1.70889921752132,0.0925807403912013,,-2.4794462850685033,,
,3968.0,837.0,3152.0,866.0,1552.0,1978.0,2999.0,,,,0.0770429258306643,-1.70894689161224,0.0925891036495682,,-2.5260005720948837,,
,3963.0,836.0,3151.0,867.0,1547.0,1987.0,3021.0,,,,0.0770340878345385,-1.70914770811953,0.0925882100798056,,-2.556671361471712,,
,3961.0,836.0,3148.0,866.0,1539.0,2005.0,3021.0,,,,0.077055307369162,-1.70891330023959,0.0925971006754657,,-2.568255026026307,,
,3957.0,834.0,3147.0,863.0,1534.0,2011.0,3012.0,,,,0.0770320818848949,-1.70875817194289,0.0925974406355991,,-2.557967852242428,,
,3956.0,835.0,3147.0,865.0,1524.0,1986.0,3022.0,,,,0.0770255021090037,-1.70880583205884,0.0926020668080131,,-2.5236124699943283,,
,3956.0,836.0,3147.0,863.0,1546.0,1995.0,3015.0,,,,0.0770472826154125,-1.70869677637913,0.0926014747552026,,-2.463698060752939,,
,3957.0,835.0,3145.0,861.0,1541.0,2007.0,3021.0,,,,0.0770406581953015,-1.7086956092828,0.0926077772521431,,-2.37751239024438,,
,3953.0,834.0,3145.0,861.0,1534.0,2004.0,3025.0,,,,0.0770349886106809,-1.70846114704231,0.0926030985873578,,-2.265145820509476,,
,3955.0,835.0,3144.0,862.0,1544.0,2014.0,3029.0,,,,0.0770438537684909,-1.70816374535911,0.0926068626725026,,-2.1274694380515258,,
,3954.0,833.0,3143.0,864.0,1560.0,2006.0,3031.0,,,,0.0770597619814131,-1.7086268806112,0.092614838558457,,-1.9660714925138483,,
,3954.0,832.0,3146.0,859.0,1563.0,2010.0,3033.0,,,,0.0770878904572117,-1.70822489827973,0.0926191689195525,,-1.7831585743738572,,
,3952.0,832.0,3142.0,860.0,1548.0,2004.0,3033.0,,,,0.0770672974635804,-1.7080753180469,0.0926095751921042,,-1.5814300732435707,,
,3948.0,835.0,3143.0,861.0,1536.0,2020.0,3054.0,,,,0.0771049125117056,-1.70836001072292,0.0926218222734683,,-1.3639357676783503,,
,3951.0,833.0,3142.0,862.0,1541.0,2020.0,3034.0,,,,0.0770953078842173,-1.70805517173746,0.0926146359309371,,-1.133926222665181,,
,3948.0,833.0,3145.0,860.0,1541.0,2014.0,3042.0,,,,0.0770700061359002,-1.70834664034447,0.0926279200301284,,-0.8947038577283772,,
,3948.0,832.0,3141.0,861.0,1535.0,2010.0,3044.0,,,,0.0770922617816478,-1.70792248270668,0.0926147931919935,,-0.6494798271003243,,
,3946.0,830.0,3140.0,862.0,1534.0,2014.0,3048.0,,,,0.077101382879422,-1.70802393813518,0.0926219275171957,,-0.40123966788318277,,
,3948.0,832.0,3144.0,860.0,1537.0,1991.0,3040.0,,,,0.0771313871808364,-1.70772287682619,0.0926275296097416,,-0.15262033715447829,,
,3949.0,835.0,3143.0,859.0,1523.0,2000.0,3041.0,,,,0.0771208708499165,-1.70729134999379,0.0926195074132342,,0.09419697601694037,,
,3948.0,831.0,3143.0,860.0,1522.0,2008.0,3030.0,,,,0.0770968828959245,-1.70727294108827,0.0926266260284323,,0.33757098432154664,,
,3945.0,830.0,3140.0,860.0,1527.0,1990.0,3042.0,,,,0.0771529009259276,-1.706952604676,0.0926238719072195,,0.5764515739393236,,
,3949.0,829.0,3142.0,861.0,1520.0,1986.0,3043.0,,,,0.0770767995239886,-1.70679718352118,0.0926256386518269,,0.8103874410188268,,
,3949.0,832.0,3141.0,861.0,1518.0,1994.0,3042.0,,,,0.077106619769158,-1.70690333181847,0.0926237813837945,,1.0394804671550109,,
,3944.0,831.0,3139.0,861.0,1531.0,1980.0,3047.0,,,,0.077107833555219,-1.70665359248008,0.0926358291886998,,1.264280465336852,,
,3943.0,830.0,3140.0,860.0,1529.0,1975.0,3042.0,,,,0.0771320360377856,-1.70663369015731,0.0926398048046312,,1.4856189685927104,,
,3945.0,832.0,3141.0,859.0,1529.0,1980.0,3026.0,,,,0.0770612841422185,-1.70662661655738,0.0926311715346642,,1.704387053755664,,
,3948.0,830.0,3140.0,858.0,1540.0,1983.0,3031.0,,,,0.0770746385227899,-1.7068810590232,0.0926420217331102,,1.9212691852089423,,
,3944.0,828.0,3137.0,859.0,1558.0,1981.0,3014.0,,,,0.077056877365644,-1.70630329946062,0.0926421209574326,,2.1364520762155705,,
,3943.0,830.0,3140.0,857.0,1547.0,2009.0,3046.0,,,,0.0771070448476482,-1.70554144545677,0.0926521754164509,,2.3493339157062825,,
,3942.0,829.0,3138.0,860.0,1548.0,1993.0,3060.0,,,,0.0771210366390852,-1.705325588085,0.092644882790129,,2.5582642854815516,,
,3943.0,831.0,3143.0,858.0,1538.0,1994.0,3051.0,,,,0.0771184341207561,-1.70558568819567,0.0926585921018037,,2.7603479773670125,,
,3945.0,829.0,3137.0,860.0,1531.0,1999.0,3041.0,,,,0.0771174989146535,-1.70499768307959,0.09265371621674,,2.951345885225586,,
,3939.0,829.0,3136.0,860.0,1522.0,1989.0,3041.0,,,,0.0771293129716193,-1.70476790621426,0.092660710737862,,3.125702101441232,,
,3941.0,829.0,3139.0,857.0,1524.0,1990.0,3056.0,,,,0.0771294674374614,-1.70484549108,0.092659879822155,,3.2767172303931935,,
,3939.0,829.0,3135.0,859.0,1527.0,1991.0,3045.0,,,,0.0771090629804085,-1.70510185212393,0.0926598750051502,,3.3968736155164563,,
,3939.0,828.0,3137.0,858.0,1529.0,1991.0,3049.0,,,,0.0771146720985425,-1.70502072518971,0.0926595998941658,,3.478300136523394,,
,3939.0,826.0,3136.0,858.0,1551.0,1985.0,3029.0,,,,0.0771216407525671,-1.70445522147531,0.0926736098902345,,3.513345198998923,,
,3939.0,830.0,3136.0,856.0,1535.0,2003.0,3036.0,,,,0.0771342365285385,-1.70422050855949,0.092674283231404,,3.4952095481587313,,
,3939.0,831.0,3137.0,858.0,1530.0,1984.0,3018.0,,,,0.077135096403456,-1.70412100719541,0.0926646883394739,,3.4185782694456024,,
,3940.0,830.0,3138.0,858.0,1521.0,1990.0,3017.0,,,,0.077108705049129,-1.70377767034581,0.0926666748979598,,3.2801859304329386,,
,3941.0,829.0,3138.0,858.0,1523.0,1996.0,3033.0,,,,0.0771118248071386,-1.70396356919276,0.0926690673189796,,3.0792517798847294,,
,3938.0,827.0,3132.0,856.0,1522.0,1995.0,3041.0,,,,0.0771357426967018,-1.70367372708157,0.0926738044932189,,2.817733695948433,,
,3941.0,831.0,3135.0,856.0,1523.0,1997.0,3025.0,,,,0.0771024003528053,-1.70387977121659,0.0926807120309973,,2.5003689073101856,,
,3940.0,829.0,3137.0,857.0,1515.0,1990.0,3029.0,,,,0.0770460892629496,-1.70335009957898,0.0926875545494921,,2.134493317702902,,
,3939.0,828.0,3135.0,855.0,1516.0,1996.0,3047.0,,,,0.0770882380766284,-1.70335053115743,0.0926883206950205,,1.7296554966232454,,
,3938.0,829.0,3136.0,858.0,1529.0,1988.0,3039.0,,,,0.0770674651593612,-1.7031452406544,0.0926720478222207,,1.297062371748897,,
,3941.0,828.0,3138.0,858.0,1529.0,1989.0,3046.0,,,,0.0770615601527743,-1.7036347456703,0.0926859277321523,,0.8489089954489841,,
,3942.0,830.0,3138.0,859.0,1528.0,1997.0,3040.0,,,,0.0770562410079063,-1.70305165139585,0.092680847234959,,0.39765352199329,,
,3941.0,829.0,3137.0,857.0,1524.0,1985.0,3031.0,,,,0.0771067940953962,-1.70288870893761,0.0926846324755275,,-0.04469931603698838,,
,3942.0,828.0,3137.0,856.0,1534.0,1986.0,3012.0,,,,0.0771926258748651,-1.70283343714603,0.092691385625804,,-0.4672471502884238,,
,3942.0,829.0,3136.0,858.0,1516.0,1977.0,3010.0,,,,0.077181511522628,-1.70253066236017,0.0926913687305165,,-0.8607223210156594,,
,3943.0,826.0,3135.0,856.0,1535.0,1979.0,3040.0,,,,0.0771729651312198,-1.70269083629317,0.0926946877884636,,-1.2178733426812052,,
,3944.0,828.0,3137.0,857.0,1524.0,1988.0,3043.0,,,,0.0771884679139205,-1.70203960660598,0.092698622760362,,-1.5336785209910069,,
,3946.0,829.0,3140.0,858.0,1532.0,2001.0,3019.0,,,,0.0771768365550571,-1.70241387628755,0.0927000752444761,,-1.8053920401978971,,
,3944.0,827.0,3135.0,855.0,1534.0,2002.0,3030.0,,,,0.077202742117665,-1.70237669801674,0.0926979005631214,,-2.0324377675008884,,
,3946.0,830.0,3139.0,859.0,1516.0,1988.0,3047.0,,,,0.0771821781168071,-1.70210553632104,0.0927020422241182,,-2.216177084227023,,
,3945.0,829.0,3137.0,858.0,1509.0,1990.0,3041.0,,,,0.0771508622750025,-1.70185990682535,0.0927001185251031,,-2.3595837302911593,,
,3947.0,830.0,3136.0,859.0,1524.0,1984.0,3029.0,,,,0.0771454876568025,-1.70221699288933,0.0927024781458095,,-2.466861206310731,,
,3946.0,831.0,3139.0,858.0,1515.0,1996.0,3037.0,,,,0.0771610711150437,-1.70199994431432,0.0927083253273635,,-2.543037438933677,,
,3946.0,830.0,3137.0,859.0,1520.0,1995.0,3045.0,,,,0.0771416176319723,-1.70156140867586,0.0927028313520712,,-2.5935680370125045,,
,3947.0,829.0,3138.0,859.0,1517.0,2001.0,3039.0,,,,0.0771746512059967,-1.70150648573356,0.0927248857113621,,-2.6239742994039714,,
,3951.0,831.0,3138.0,859.0,1509.0,1992.0,3026.0,,,,0.0771629324415792,-1.70151181690492,0.092725099439095,,-2.6395357205328813,,
2025-08-05 18:41:50,3948.0,829.0,3138.0,857.0,1512.0,1979.0,3042.0,,,2025/08/05 06:41:50 PM,0.0771747709155665,-1.700587143778,0.0927230265416099,,-2.6450494718510513,,
,3952.0,829.0,3143.0,861.0,1506.0,1974.0,3025.0,,,,0.0771888828928256,-1.70121016300844,0.0927238742020177,,-2.644661590252081,,
,3951.0,833.0,3142.0,863.0,1500.0,2008.0,3038.0,,,,0.0771995085250742,-1.70089333550375,0.0927216433621814,,-2.6417668533605143,,
,3950.0,830.0,3139.0,861.0,1500.0,2005.0,3046.0,,,,0.0771817382603404,-1.70098486354987,0.0927140502623104,,-2.63896731317149,,
,3951.0,830.0,3139.0,860.0,1508.0,2009.0,3029.0,,,,0.077146820413287,-1.70129389407347,0.0927106795636432,,-2.6380743297268956,,
,3951.0,832.0,3141.0,860.0,1509.0,2006.0,3037.0,,,,0.077151153089722,-1.70151995915436,0.0927172845502611,,-2.640136919066104,,
,3954.0,829.0,3140.0,862.0,1512.0,1982.0,3050.0,,,,0.0771582813336951,-1.7017990404564,0.0927103605900205,,-2.6454808763591124,,
,3955.0,830.0,3143.0,860.0,1511.0,1987.0,3051.0,,,,0.0771906217124692,-1.70248404311346,0.0926997345357452,,-2.653747864079567,,
,3953.0,831.0,3139.0,861.0,1523.0,1980.0,3024.0,,,,0.0771422494089658,-1.70339490119105,0.0926864000640586,,-2.6639299783979364,,
,3955.0,833.0,3141.0,861.0,1533.0,1994.0,3050.0,,,,0.0771123117762526,-1.70374349623026,0.0926830924013473,,-2.6744016089371097,,
,3954.0,834.0,3143.0,862.0,1517.0,2003.0,3049.0,,,,0.0770932992722175,-1.70412329607616,0.092671338030764,,-2.682955533724362,,
,3956.0,833.0,3144.0,864.0,1519.0,2014.0,3053.0,,,,0.0770434213349304,-1.70433375661394,0.09267583285506,,-2.6868535038005876,,
,3955.0,832.0,3142.0,861.0,1510.0,2011.0,3052.0,,,,0.077024185779534,-1.7044520633044,0.0926726865527648,,-2.682902671779212,,
,3957.0,830.0,3142.0,861.0,1532.0,2009.0,3039.0,,,,0.0770562760206679,-1.70464262610411,0.0926733468924078,,-2.6675678287628815,,
,3960.0,833.0,3144.0,864.0,1523.0,1988.0,3046.0,,,,0.0770167133740589,-1.70445675534442,0.092672900571015,,-2.637125553860067,,
,3958.0,830.0,3143.0,864.0,1526.0,1982.0,3051.0,,,,0.0770226300490981,-1.70443027975339,0.0926781263070633,,-2.587860495978225,,
,3960.0,834.0,3146.0,861.0,1525.0,1984.0,3045.0,,,,0.0770325759881288,-1.70433499188582,0.0926820691128795,,-2.516296856827908,,
,3961.0,832.0,3141.0,861.0,1517.0,1990.0,3045.0,,,,0.0770399583354625,-1.70448823561786,0.0926899431846053,,-2.4194506352678298,,
,3961.0,834.0,3146.0,862.0,1519.0,1997.0,3050.0,,,,0.0770552047636016,-1.70400317640815,0.0926816582165248,,-2.295081332658397,,
,3962.0,834.0,3147.0,867.0,1513.0,1992.0,3057.0,,,,0.0770338085458444,-1.70388983162266,0.0926985045234726,,-2.1419167118001714,,
,3963.0,832.0,3144.0,863.0,1521.0,1989.0,3059.0,,,,0.077068103017515,-1.70348986405746,0.0926905688403976,,-1.9598220636781662,,
,3964.0,833.0,3145.0,862.0,1524.0,1987.0,3042.0,,,,0.0770845781418781,-1.70299494810236,0.0926959057557717,,-1.7498875070817754,,
,3964.0,834.0,3146.0,862.0,1514.0,1998.0,3034.0,,,,0.0770607030012414,-1.70318640586728,0.0926937824993058,,-1.5144139132970895,,
,3966.0,836.0,3148.0,866.0,1504.0,2019.0,3072.0,,,,0.0770582894888606,-1.70301439743953,0.0926995569454331,,-1.2567896527568971,,
,3968.0,834.0,3147.0,867.0,1513.0,2013.0,3066.0,,,,0.0770630027983619,-1.70311153014208,0.0926881509987514,,-0.9812644612047848,,
,3963.0,835.0,3145.0,863.0,1514.0,1994.0,3034.0,,,,0.0770387844577595,-1.70283837597695,0.092693484580019,,-0.692640377619699,,
,3966.0,837.0,3147.0,864.0,1517.0,1994.0,3029.0,,,,0.0770695457679432,-1.70322908023172,0.0927130148540261,,-0.39591030647776876,,
,3969.0,836.0,3151.0,869.0,1508.0,1985.0,3033.0,,,,0.0770551240476919,-1.70278426249751,0.0926977705505682,,-0.09588086051963841,,
,3972.0,837.0,3149.0,868.0,1512.0,1983.0,3045.0,,,,0.077070605808741,-1.70248796421916,0.0927073968818957,,0.2031824922015658,,
,3971.0,836.0,3150.0,866.0,1509.0,1991.0,3037.0,,,,0.0770478767260437,-1.70306112584627,0.092712906140457,,0.4978527715887009,,
,3972.0,835.0,3151.0,865.0,1515.0,1993.0,3038.0,,,,0.0770644620159738,-1.7025568947344,0.0927211594835475,,0.7857521831083251,,
,3972.0,836.0,3152.0,866.0,1520.0,2002.0,3035.0,,,,0.0770833373153356,-1.70256447925044,0.0926994371791974,,1.065655316314949,,
,3972.0,835.0,3153.0,865.0,1510.0,2011.0,3046.0,,,,0.077104074031583,-1.70275854689614,0.0927145534438029,,1.3374735772219344,,
,3975.0,838.0,3152.0,868.0,1512.0,2011.0,3049.0,,,,0.0770391799045762,-1.70259280901288,0.0927074481087898,,1.6021198211001377,,
,3972.0,835.0,3150.0,865.0,1512.0,1992.0,3053.0,,,,0.0770515367285493,-1.70239889856934,0.0927278781284485,,1.8612625586361329,,
,3977.0,838.0,3153.0,869.0,1520.0,1995.0,3044.0,,,,0.0770834674686044,-1.70237770231034,0.0927232495015979,,2.116989210832815,,
,3974.0,836.0,3154.0,867.0,1524.0,2005.0,3043.0,,,,0.0770625828714638,-1.70236034598695,0.0927208022359469,,2.3714070262826348,,
,3974.0,837.0,3150.0,867.0,1527.0,2010.0,3055.0,,,,0.0770858469313641,-1.70202199120706,0.0927143950963524,,2.6262174991349343,,
,3969.0,835.0,3150.0,864.0,1544.0,2014.0,3044.0,,,,0.0770591536982243,-1.70209636915443,0.0927156005259137,,2.8823043446910446,,
,3969.0,836.0,3151.0,866.0,1540.0,2004.0,3036.0,,,,0.0770814352402188,-1.70198206019614,0.0927242504093335,,3.139375519561255,,
,3971.0,837.0,3152.0,867.0,1523.0,1989.0,3015.0,,,,0.0769987867395089,-1.70188488916541,0.0927254809792533,,3.3956963310688657,,
,3963.0,836.0,3151.0,865.0,1510.0,1991.0,3013.0,,,,0.0770415723923565,-1.70175793675061,0.0927210424049948,,3.647943912900091,,
,3962.0,831.0,3148.0,861.0,1509.0,1989.0,3029.0,,,,0.0770427648662162,-1.70176981196459,0.092734302422235,,3.891204029917235,,
,3956.0,832.0,3146.0,863.0,1504.0,1994.0,3034.0,,,,0.0770412344170243,-1.70171912647759,0.0927339241373847,,4.119119997091325,,
,3954.0,833.0,3146.0,861.0,1511.0,1984.0,3039.0,,,,0.0770081473825608,-1.70123676572894,0.0927329441372622,,4.324190972900745,,
,3952.0,830.0,3141.0,862.0,1506.0,1984.0,3048.0,,,,0.0770343084500196,-1.70207828832526,0.0927293290603006,,4.498203529423046,,
,3950.0,830.0,3143.0,861.0,1493.0,1980.0,3025.0,,,,0.077007120199464,-1.70153205565813,0.0927443918434126,,4.632766977829124,,
,3944.0,830.0,3138.0,857.0,1508.0,1983.0,3042.0,,,,0.0770430627377176,-1.70129046053564,0.0927308698786464,,4.719910635102808,,
,3944.0,828.0,3138.0,858.0,1498.0,2005.0,3047.0,,,,0.0770162757151015,-1.70152728869465,0.0927427615171098,,4.75269165235759,,
,3942.0,830.0,3138.0,857.0,1502.0,2021.0,3056.0,,,,0.0769930105174704,-1.70095532311413,0.092748302069543,,4.725756957372798,,
,3940.0,826.0,3138.0,857.0,1497.0,2019.0,3060.0,,,,0.0769999318660359,-1.70092483535029,0.0927376449131703,,4.635803878963354,,
,3938.0,826.0,3136.0,854.0,1499.0,1987.0,3045.0,,,,0.0770060690357573,-1.70068374068623,0.0927352002839381,,4.481892114571677,,
,3938.0,828.0,3138.0,857.0,1510.0,1990.0,3029.0,,,,0.0770069909648472,-1.700882683922,0.0927548196496388,,4.265574812316509,,
,3936.0,828.0,3136.0,856.0,1510.0,1990.0,3035.0,,,,0.0770217927293725,-1.70077923149366,0.0927565902292471,,3.9908369961560313,,
,3936.0,827.0,3136.0,854.0,1512.0,1987.0,3048.0,,,,0.0769985780906752,-1.70084850184528,0.0927480701257301,,3.6638519186232887,,
,3931.0,826.0,3132.0,853.0,1510.0,1991.0,3029.0,,,,0.0770190282564552,-1.70058870236116,0.0927566821872409,,3.2925858458329755,,
,3933.0,826.0,3132.0,855.0,1524.0,2000.0,3038.0,,,,0.0770134427341221,-1.70047617236263,0.0927499645524765,,2.8862957953422828,,
,3933.0,824.0,3132.0,853.0,1513.0,1996.0,3046.0,,,,0.0770229275557696,-1.70032336075526,0.0927578014467388,,2.4549715079316776,,
,3933.0,826.0,3133.0,852.0,1508.0,2000.0,3050.0,,,,0.07703510762711,-1.70033257123738,0.0927675559427044,,2.0087730493392004,,
,3931.0,825.0,3129.0,851.0,1512.0,1989.0,3038.0,,,,0.0770121945846726,-1.70057455980026,0.0927648154454125,,1.5575104155681139,,
,3930.0,826.0,3128.0,853.0,1518.0,1988.0,3046.0,,,,0.0770455223428592,-1.700024516265,0.0927804564520243,,1.1102028091408602,,
,3931.0,826.0,3133.0,855.0,1515.0,1991.0,3022.0,,,,0.077076905366335,-1.70023444612417,0.0927609698936648,,0.6747439351468123,,
,3930.0,825.0,3132.0,852.0,1516.0,1992.0,3013.0,,,,0.0770197947888394,-1.69990361742339,0.0927738382851819,,0.2576866425473291,,
,3929.0,826.0,3129.0,853.0,1515.0,2002.0,3034.0,,,,0.0770497587508305,-1.70001184760454,0.0927678583811041,,-0.13585336856166566,,
,3926.0,827.0,3130.0,853.0,1522.0,1993.0,3061.0,,,,0.0770180497481022,-1.69918577328004,0.0927780631937364,,-0.5021877013943716,,
,3925.0,826.0,3127.0,852.0,1514.0,1992.0,3052.0,,,,0.0770317050984486,-1.69931912621476,0.0927863649595259,,-0.8389620618156178,,
,3928.0,825.0,3129.0,854.0,1515.0,1998.0,3060.0,,,,0.077035741653321,-1.69884469045916,0.0927819632234275,,-1.1450078538894903,,
,3925.0,825.0,3127.0,851.0,1515.0,1991.0,3074.0,,,,0.0770701302244726,-1.69917548473036,0.0927895053121022,,-1.4201667337480441,,
,3925.0,823.0,3126.0,851.0,1508.0,1990.0,3061.0,,,,0.077037161868149,-1.69899513838043,0.0927839919374614,,-1.6651114528900421,,
,3925.0,825.0,3126.0,850.0,1513.0,1992.0,3047.0,,,,0.0770922916517729,-1.69869734548396,0.0927899693433736,,-1.8811784997697532,,
,3924.0,825.0,3127.0,851.0,1513.0,1999.0,3049.0,,,,0.0770969853672098,-1.69844395722857,0.0927887343404783,,-2.0702196977686986,,
,3927.0,825.0,3128.0,852.0,1507.0,1991.0,3041.0,,,,0.077087057718584,-1.6985697401874,0.0927987679059511,,-2.2344731353173426,,
,3921.0,823.0,3126.0,850.0,1520.0,1987.0,3048.0,,,,0.0770994852754422,-1.69866177153986,0.092795548523874,,-2.376449608490216,,
,3922.0,823.0,3127.0,848.0,1515.0,1977.0,3044.0,,,,0.0770719581796523,-1.69848677801439,0.0927993310494399,,-2.498829019429346,,
,3925.0,824.0,3128.0,850.0,1506.0,1976.0,3047.0,,,,0.077111056650786,-1.69787309754528,0.0928053120653531,,-2.604361138086022,,
,3924.0,822.0,3126.0,851.0,1510.0,1978.0,3045.0,,,,0.0770983001211508,-1.69735609523121,0.0928001326405906,,-2.6957660404992665,,
,3919.0,824.0,3124.0,848.0,1518.0,1998.0,3051.0,,,,0.0770866147373668,-1.6975691449811,0.0928122024374694,,-2.775630979781024,,
,3923.0,824.0,3123.0,852.0,1505.0,2008.0,3058.0,,,,0.0771009812062722,-1.69731297356681,0.0928106515410243,,-2.846302392344387,,
,3920.0,825.0,3125.0,849.0,1506.0,1997.0,3048.0,,,,0.0771041597079442,-1.69718467115726,0.0928149271480613,,-2.909774288906656,,
,3919.0,824.0,3123.0,849.0,1509.0,1994.0,3035.0,,,,0.0771297706453666,-1.6969510426595,0.0928310765042689,,-2.967577364668216,,
,3918.0,820.0,3122.0,846.0,1514.0,1986.0,3035.0,,,,0.0770985427716036,-1.6972464132915,0.0928257299302319,,-3.020676424093875,,
,3919.0,823.0,3124.0,849.0,1508.0,1993.0,3046.0,,,,0.0770841101966237,-1.69709947922932,0.0928183171529797,,-3.069386534918265,,
,3921.0,824.0,3121.0,848.0,1499.0,1993.0,3045.0,,,,0.0770819925685373,-1.69720163695,0.0928262024972598,,-3.113319973967608,,
,3920.0,823.0,3122.0,848.0,1502.0,2001.0,3039.0,,,,0.077099234018684,-1.69707896671783,0.0928101051275075,,-3.1513758365650983,,
,3917.0,820.0,3120.0,847.0,1518.0,1993.0,3040.0,,,,0.0771024598704815,-1.69687300319277,0.0928201043575086,,-3.1817816929712035,,
,3917.0,822.0,3123.0,847.0,1511.0,1985.0,3039.0,,,,0.0770857208720282,-1.69654485713073,0.0928277636776235,,-3.2021918043893893,,
,3918.0,823.0,3121.0,850.0,1507.0,1978.0,3071.0,,,,0.0771111828142753,-1.69661795390301,0.0928251671369297,,-3.2098397102978486,,
,3920.0,825.0,3125.0,849.0,1504.0,1976.0,3060.0,,,,0.0770987041929816,-1.69648414189448,0.0928237598408893,,-3.2017358059813597,,
,3919.0,825.0,3124.0,848.0,1505.0,1995.0,3048.0,,,,0.0770899819772307,-1.69643874470788,0.0928285524990728,,-3.174894557272781,,
,3920.0,823.0,3123.0,849.0,1516.0,1989.0,3054.0,,,,0.0770455043053994,-1.69692497608098,0.092825850674641,,-3.1265724573078266,,
,3920.0,821.0,3124.0,849.0,1516.0,1991.0,3063.0,,,,0.0770332373651489,-1.69628386415803,0.0928327421045338,,-3.054496867714169,,
,3918.0,824.0,3125.0,851.0,1517.0,1991.0,3040.0,,,,0.077069837673489,-1.69660653508575,0.0928366271066701,,-2.957066882251407,,
,3921.0,824.0,3125.0,851.0,1518.0,2000.0,3044.0,,,,0.0770829047639045,-1.69651893497984,0.0928270244354548,,-2.8335096315525505,,
,3919.0,821.0,3123.0,849.0,1518.0,1991.0,3042.0,,,,0.0770826291122501,-1.69657088352718,0.0928381082806861,,-2.683978750921547,,
,3922.0,823.0,3123.0,849.0,1516.0,1991.0,3052.0,,,,0.0770892387631772,-1.69693944650501,0.0928324252902524,,-2.5095861524133745,,
,3922.0,825.0,3125.0,852.0,1520.0,1993.0,3064.0,,,,0.0770443621099312,-1.69661825292452,0.0928327160160022,,-2.3123638577800865,,
,3924.0,824.0,3123.0,848.0,1520.0,1986.0,3042.0,,,,0.07704898017677,-1.69656202559151,0.0928390254909555,,-2.0951592002781547,,
,3920.0,823.0,3123.0,848.0,1509.0,1994.0,3051.0,,,,0.0770787149669143,-1.69664661031525,0.0928315199145705,,-1.8614734925191527,,
,3923.0,825.0,3125.0,850.0,1518.0,1994.0,3049.0,,,,0.0770651696200263,-1.69693017674164,0.0928446300266675,,-1.615260226372306,,
,3925.0,825.0,3125.0,851.0,1508.0,1977.0,3033.0,,,,0.0771139189694162,-1.69634662360422,0.0928366263648515,,-1.3607028002486765,,
,3924.0,823.0,3123.0,853.0,1506.0,1975.0,3042.0,,,,0.077104437248046,-1.6959624842726,0.0928401798122754,,-1.1019926321756204,,
,3924.0,824.0,3124.0,848.0,1500.0,1999.0,3060.0,,,,0.077073883445684,-1.69611099568277,0.0928419365204045,,-0.8431259230212809,,
,3925.0,825.0,3126.0,851.0,1505.0,1996.0,3042.0,,,,0.0770878066666681,-1.69660000042696,0.0928474747713002,,-0.5877318455487959,,
,3927.0,825.0,3126.0,851.0,1514.0,2004.0,3044.0,,,,0.0771407518881805,-1.69628214892728,0.0928441437402928,,-0.33893806642123586,,
,3926.0,825.0,3125.0,850.0,1505.0,1994.0,3052.0,,,,0.0770783910026005,-1.69644198388949,0.0928544460145447,,-0.09927328158118898,,
,3929.0,826.0,3123.0,849.0,1503.0,1994.0,3047.0,,,,0.0771198787104145,-1.69610391013012,0.0928423238347744,,0.1293974674931829,,
,3928.0,825.0,3125.0,853.0,1508.0,2001.0,3052.0,,,,0.0771140177196923,-1.69691907283889,0.0928426292832545,,0.34590997892846637,,
,3929.0,830.0,3128.0,851.0,1521.0,2001.0,3034.0,,,,0.0771052466706208,-1.69666162227152,0.0928406700790657,,0.5498146675129923,,
,3933.0,827.0,3126.0,852.0,1519.0,1997.0,3046.0,,,,0.0770811828699736,-1.69671903869188,0.0928416839254763,,0.7413687625175549,,
,3931.0,827.0,3127.0,850.0,1511.0,1991.0,3048.0,,,,0.0771038668817322,-1.69712127963259,0.0928345523835462,,0.9215064962193201,,
,3933.0,825.0,3123.0,850.0,1517.0,1991.0,3050.0,,,,0.0770951803528971,-1.69693798477678,0.0928381236587884,,1.0917852712079046,,
,3934.0,825.0,3126.0,850.0,1515.0,1984.0,3052.0,,,,0.0770931392577728,-1.69722009798704,0.0928360220244894,,1.254305139541313,,
,3932.0,826.0,3126.0,853.0,1516.0,1983.0,3044.0,,,,0.0770629790985833,-1.69691595603344,0.0928277459319817,,1.4115991070974316,,
,3933.0,827.0,3125.0,851.0,1510.0,1990.0,3043.0,,,,0.0770430274114513,-1.69674945612441,0.0928291219843361,,1.566492497949211,,
,3934.0,826.0,3126.0,851.0,1511.0,2001.0,3054.0,,,,0.0770779893353568,-1.69777596929589,0.0928203852839095,,1.7219306200543665,,
,3933.0,826.0,3127.0,852.0,1515.0,1988.0,3060.0,,,,0.0770754104570383,-1.69764376445549,0.0928215125411838,,1.8807753395951126,,
,3936.0,828.0,3130.0,853.0,1510.0,2004.0,3053.0,,,,0.0770766018586218,-1.69864158691905,0.09281727807042,,2.0455733723514378,,
,3935.0,827.0,3127.0,853.0,1505.0,1996.0,3051.0,,,,0.0770284767578217,-1.69849646310725,0.0927997398844634,,2.2183026983221303,,
,3937.0,827.0,3125.0,852.0,1504.0,1990.0,3049.0,,,,0.0769784928536342,-1.69982548613141,0.0927924925416832,,2.400108713700905,,
,3938.0,830.0,3127.0,854.0,1500.0,1987.0,3046.0,,,,0.0769690544928489,-1.70062662715006,0.0927716585884618,,2.591048158695928,,
,3939.0,828.0,3129.0,854.0,1520.0,2013.0,3045.0,,,,0.0769620324818437,-1.70123401238409,0.0927734436580094,,2.789865356059623,,
,3940.0,829.0,3132.0,853.0,1520.0,2015.0,3045.0,,,,0.076956860751903,-1.70234970477844,0.0927604050224072,,2.9938299543946663,,
,3939.0,828.0,3132.0,854.0,1507.0,2004.0,3041.0,,,,0.0768839475450922,-1.70204320240539,0.0927492411895882,,3.198666058394944,,
,3940.0,828.0,3129.0,853.0,1511.0,1995.0,3028.0,,,,0.0768630052795892,-1.70245156371356,0.0927506635790988,,3.3985980893099437,,
,3944.0,828.0,3132.0,855.0,1508.0,1997.0,3054.0,,,,0.0768774913218949,-1.70281528549615,0.0927323336491252,,3.5865292900172667,,
,3943.0,830.0,3131.0,855.0,1505.0,1998.0,3049.0,,,,0.0768589033230417,-1.70306470336474,0.092729412285121,,3.7543560150264033,,
,3943.0,830.0,3131.0,855.0,1511.0,2002.0,3036.0,,,,0.0768658244435843,-1.7037647040707,0.0927283542959689,,3.893406643557308,,
,3943.0,830.0,3131.0,853.0,1518.0,1991.0,3032.0,,,,0.0768438453503077,-1.70348906306549,0.0927192471944578,,3.9949796348101607,,
2025-08-05 18:41:51,3945.0,831.0,3130.0,856.0,1517.0,1983.0,3019.0,,,2025/08/05 06:41:51 PM,0.0768281266091315,-1.70350712770352,0.0927229909058987,,4.050942130384326,,
,3947.0,831.0,3130.0,857.0,1510.0,1995.0,3017.0,,,,0.0768335494438635,-1.70411981827738,0.092723120023018,,4.05433985806624,,
,3950.0,832.0,3134.0,856.0,1513.0,2000.0,3017.0,,,,0.0768377850752576,-1.70456207292615,0.0927098354174947,,3.9999624261629214,,
,3948.0,830.0,3134.0,857.0,1523.0,1994.0,3040.0,,,,0.0768419174795501,-1.70447620010549,0.0927123891317787,,3.884807052000039,,
,3948.0,832.0,3134.0,855.0,1519.0,2001.0,3049.0,,,,0.0768175697835646,-1.70450323134838,0.0927165252681074,,3.708389617005919,,
,3947.0,832.0,3133.0,858.0,1527.0,2000.0,3032.0,,,,0.0768631784091778,-1.70489868207341,0.0927086387514165,,3.4728650691780705,,
,3951.0,833.0,3135.0,857.0,1531.0,1995.0,3032.0,,,,0.0768107105351155,-1.70513087647927,0.0927027404522196,,3.1829387003643412,,
,3951.0,832.0,3135.0,857.0,1523.0,1993.0,3036.0,,,,0.0768284797632259,-1.70553352978493,0.0927053031905797,,2.8455734060063693,,
,3952.0,835.0,3136.0,861.0,1521.0,1997.0,3053.0,,,,0.0768039792422021,-1.70563997985243,0.0926976794668672,,2.4695222595776114,,
,3955.0,835.0,3139.0,859.0,1519.0,1995.0,3039.0,,,,0.0768153687940418,-1.70611893396872,0.0926859901892811,,2.064736642536728,,
,3953.0,832.0,3135.0,858.0,1522.0,2004.0,3046.0,,,,0.076794498529763,-1.70685638680071,0.0926827151198192,,1.6417139767899585,,
,3958.0,833.0,3135.0,859.0,1534.0,1984.0,3026.0,,,,0.0767968536288578,-1.70671782559379,0.0926769532466726,,1.2108530175856889,,
,3959.0,834.0,3136.0,861.0,1526.0,1973.0,3016.0,,,,0.0768052067511876,-1.70717679062745,0.0926728020983011,,0.7818779010354426,,
,3961.0,835.0,3138.0,858.0,1536.0,1969.0,3003.0,,,,0.0767702347165791,-1.70724817598103,0.0926622798152124,,0.3633767122988032,,
,3961.0,834.0,3136.0,860.0,1531.0,1978.0,3011.0,,,,0.0767781761201158,-1.70771463636479,0.0926635876828386,,-0.03751939764631235,,
,3959.0,834.0,3137.0,860.0,1512.0,1991.0,3047.0,,,,0.076764709291223,-1.70736816022119,0.0926705419139343,,-0.4153097652096651,,
,3961.0,834.0,3140.0,862.0,1517.0,1982.0,3042.0,,,,0.0767660367018168,-1.707571213183,0.0926536682153246,,-0.7661591583560255,,
,3964.0,834.0,3139.0,862.0,1516.0,2010.0,3050.0,,,,0.0767549160130611,-1.70749430225622,0.0926551319981721,,-1.0878135397318007,,
,3965.0,837.0,3141.0,864.0,1516.0,2017.0,3057.0,,,,0.0767731860719964,-1.70768069478133,0.092667205182021,,-1.3794225211250268,,
,3964.0,839.0,3140.0,864.0,1526.0,2017.0,3042.0,,,,0.0767757223298696,-1.70823104878452,0.0926576250886446,,-1.6412976727482442,,
,3965.0,837.0,3140.0,862.0,1528.0,2003.0,3048.0,,,,0.0768039244503602,-1.70778945494787,0.092657083133865,,-1.8746368374923248,,
,3964.0,836.0,3140.0,860.0,1511.0,2020.0,3045.0,,,,0.0768052743070177,-1.70756979318691,0.0926613708765332,,-2.0812435196212937,,
,3963.0,835.0,3142.0,861.0,1507.0,2013.0,3050.0,,,,0.0767714220497595,-1.70802421675937,0.092664871095577,,-2.2632671240008824,,
,3961.0,836.0,3141.0,862.0,1513.0,2010.0,3053.0,,,,0.0767956323668388,-1.70845845253065,0.0926645823163815,,-2.422984234743518,,
,3955.0,833.0,3138.0,858.0,1513.0,2015.0,3063.0,,,,0.0767808998967738,-1.70876877537184,0.0926423326040253,,-2.562633483327008,,
,3955.0,833.0,3139.0,859.0,1521.0,2011.0,3052.0,,,,0.0767848459883447,-1.708292263856,0.0926416491353232,,-2.684307539824725,,
,3952.0,832.0,3135.0,858.0,1515.0,1993.0,3045.0,,,,0.0767634699512059,-1.70843230718351,0.0926326471567367,,-2.789896582549659,,
,3949.0,832.0,3136.0,858.0,1511.0,1989.0,3055.0,,,,0.0767724739069571,-1.70866450453573,0.0926489208378476,,-2.8810699654753913,,
,3943.0,832.0,3135.0,855.0,1511.0,1979.0,3054.0,,,,0.076757139873494,-1.70905658723998,0.0926263967391084,,-2.959278434107541,,
,3941.0,831.0,3134.0,855.0,1510.0,1974.0,3048.0,,,,0.0767541275646329,-1.70935944420093,0.0926342518936001,,-3.025759111215533,,
,3941.0,830.0,3132.0,854.0,1513.0,1981.0,3043.0,,,,0.076803666574545,-1.70971885560917,0.092634920968013,,-3.081529268781529,,
,3935.0,831.0,3130.0,853.0,1502.0,1986.0,3034.0,,,,0.0767938565248084,-1.70869097313606,0.0926340450840033,,-3.127361198355472,,
,3936.0,829.0,3129.0,852.0,1489.0,1996.0,3039.0,,,,0.0767996785663661,-1.70909514453304,0.0926305190187258,,-3.1637375026010432,,
,3933.0,828.0,3127.0,849.0,1500.0,1976.0,3051.0,,,,0.0767878387395,-1.70876582533058,0.0926312290365545,,-3.190792441638777,,
,3932.0,832.0,3125.0,853.0,1502.0,1981.0,3048.0,,,,0.0767472666718617,-1.7093696538177,0.0926416477932235,,-3.2082498295084068,,
,3929.0,828.0,3123.0,853.0,1503.0,1976.0,3035.0,,,,0.0768028062378151,-1.70924780722479,0.0926263023407475,,-3.215371114932446,,
,3931.0,830.0,3123.0,852.0,1508.0,1980.0,3040.0,,,,0.0768387181906786,-1.70906567680486,0.0926260629535053,,-3.210928539638626,,
,3928.0,826.0,3122.0,850.0,1505.0,1988.0,3026.0,,,,0.0768468948518525,-1.70942362948928,0.0926343442809262,,-3.1932174595618714,,
,3927.0,829.0,3125.0,852.0,1511.0,1993.0,3027.0,,,,0.0768193721297034,-1.70900271182656,0.0926317134876077,,-3.1601189344046525,,
,3926.0,827.0,3123.0,850.0,1512.0,1995.0,3037.0,,,,0.0768046980148095,-1.70886532285787,0.0926347403839681,,-3.109218656918622,,
,3928.0,830.0,3123.0,852.0,1525.0,2013.0,3034.0,,,,0.0768342523419997,-1.70942111649192,0.0926396819794124,,-3.0379815783157897,,
,3926.0,827.0,3123.0,847.0,1535.0,1995.0,3031.0,,,,0.0767861994052934,-1.70947683032058,0.092625229081893,,-2.9439737906738035,,
,3925.0,828.0,3122.0,849.0,1535.0,2006.0,3031.0,,,,0.0768080615549382,-1.70915005480154,0.0926372900328849,,-2.8251151264565855,,
,3924.0,829.0,3122.0,849.0,1527.0,1994.0,3027.0,,,,0.0768254319118616,-1.70924327884485,0.0926242306087456,,-2.679938443135558,,
,3925.0,828.0,3124.0,850.0,1526.0,2007.0,3031.0,,,,0.0768063910688934,-1.70958020648662,0.0926379684004132,,-2.507825846665949,,
,3923.0,825.0,3119.0,845.0,1520.0,2004.0,3046.0,,,,0.0768146739633188,-1.70927309372659,0.0926224720368622,,-2.3091897982745553,,
,3923.0,827.0,3119.0,850.0,1532.0,1993.0,3039.0,,,,0.076837408476309,-1.70931791844039,0.0926331872516246,,-2.0855699334994524,,
,3923.0,826.0,3120.0,849.0,1525.0,1999.0,3040.0,,,,0.0768239528461396,-1.70915217087261,0.0926346343689383,,-1.8396253282494857,,
,3925.0,828.0,3121.0,851.0,1521.0,2003.0,3049.0,,,,0.0768275169088527,-1.70894974584122,0.0926346146050736,,-1.5750156412244465,,
,3923.0,825.0,3117.0,848.0,1514.0,2004.0,3058.0,,,,0.0768249173972689,-1.70938464508564,0.092635225870713,,-1.2961798913989762,,
,3923.0,827.0,3119.0,848.0,1507.0,1994.0,3058.0,,,,0.0768533916370481,-1.70923944718089,0.0926406441201356,,-1.008034968037193,,
,3924.0,826.0,3122.0,850.0,1520.0,1997.0,3064.0,,,,0.0768119026682034,-1.70926091858005,0.0926279325141638,,-0.7156248796134128,,
,3921.0,827.0,3121.0,849.0,1521.0,1990.0,3062.0,,,,0.0768472792758851,-1.70930700969794,0.0926309887505159,,-0.4237556711151463,,
,3921.0,825.0,3118.0,847.0,1536.0,1983.0,3047.0,,,,0.0768491027457695,-1.70876138703994,0.0926302944554789,,-0.13665070767320822,,
,3924.0,825.0,3118.0,849.0,1537.0,1988.0,3044.0,,,,0.0768190376930495,-1.70859478500863,0.0926356355684879,,0.1423420894761779,,
,3923.0,828.0,3119.0,848.0,1524.0,1997.0,3034.0,,,,0.0768518848532043,-1.70850576777942,0.0926282270023646,,0.41096439381142563,,
,3921.0,829.0,3117.0,847.0,1514.0,1996.0,3041.0,,,,0.0768548358647401,-1.70886480590091,0.0926311424106741,,0.6681624946959261,,
,3922.0,826.0,3116.0,846.0,1518.0,1996.0,3055.0,,,,0.0768726301114218,-1.70908377601635,0.092636045821748,,0.914089940059687,,
,3921.0,826.0,3115.0,845.0,1509.0,1987.0,3065.0,,,,0.0768945014663043,-1.70884402811003,0.092629543332237,,1.1499931039367401,,
,3921.0,826.0,3117.0,849.0,1507.0,1988.0,3050.0,,,,0.0768966154126332,-1.70867915754234,0.0926327006733832,,1.3779848149084173,,
,3920.0,827.0,3116.0,846.0,1509.0,1974.0,3034.0,,,,0.0769121137320406,-1.70867244775631,0.0926319318046554,,1.6007218136290682,,
,3923.0,828.0,3115.0,849.0,1506.0,1977.0,3046.0,,,,0.0768857933107709,-1.70858319852399,0.0926265852942892,,1.821012196420208,,
,3916.0,827.0,3117.0,846.0,1505.0,1971.0,3054.0,,,,0.0768371417850339,-1.70872435050375,0.0926250165459389,,2.041387612403278,,
,3921.0,825.0,3115.0,847.0,1521.0,1976.0,3037.0,,,,0.076897817530717,-1.70850988322749,0.0926241356076357,,2.263680156055852,,
,3922.0,828.0,3118.0,849.0,1525.0,1963.0,3053.0,,,,0.0768721603086876,-1.70825679870627,0.092638057672441,,2.488644594340464,,
,3920.0,826.0,3116.0,848.0,1516.0,1976.0,3062.0,,,,0.076903696822925,-1.7081883741852,0.0926262490305238,,2.7156629087986146,,
,3920.0,827.0,3118.0,847.0,1519.0,1999.0,3050.0,,,,0.0768973177280278,-1.70797039242872,0.0926283866827822,,2.9425611491693147,,
,3921.0,827.0,3117.0,846.0,1522.0,1990.0,3037.0,,,,0.0768953714825073,-1.70870405802899,0.0926282158714365,,3.1655594579819324,,
,3921.0,829.0,3118.0,847.0,1509.0,1988.0,3039.0,,,,0.0769524346677563,-1.70854528474281,0.0926219986788709,,3.3793656392828417,,
,3921.0,827.0,3117.0,848.0,1512.0,1985.0,3036.0,,,,0.0769241515927843,-1.70847369767046,0.092616627805675,,3.5774112913797933,,
,3920.0,826.0,3114.0,849.0,1536.0,1990.0,3029.0,,,,0.0769487238867592,-1.70874881210241,0.0926216432480021,,3.7522177712470812,,
,3920.0,829.0,3116.0,848.0,1528.0,1996.0,3027.0,,,,0.0769417959012715,-1.70881363332002,0.092614750115178,,3.895867758924385,,
,3923.0,828.0,3117.0,849.0,1523.0,1989.0,3043.0,,,,0.0769407953911988,-1.7086860035033,0.0926228002676444,,4.000547764969119,,
,3922.0,827.0,3112.0,846.0,1524.0,1998.0,3051.0,,,,0.0769614040291528,-1.70868725901907,0.0926152041838312,,4.059118499416503,,
,3923.0,828.0,3117.0,847.0,1541.0,1997.0,3027.0,,,,0.0769522826998845,-1.70888561564532,0.0926258006669361,,4.065664640876622,,
,3924.0,830.0,3115.0,848.0,1531.0,1992.0,3036.0,,,,0.076984881414247,-1.70904265274743,0.092629385691283,,4.015974353396492,,
,3923.0,829.0,3117.0,847.0,1530.0,2018.0,3052.0,,,,0.0769594014340926,-1.70859692791843,0.0926253055317432,,3.9079029554797096,,
,3924.0,829.0,3116.0,848.0,1532.0,2019.0,3057.0,,,,0.0769727711693774,-1.70859604469564,0.0926213191847565,,3.74158504793047,,
,3923.0,830.0,3115.0,846.0,1531.0,1992.0,3042.0,,,,0.0769821191383485,-1.70887543945811,0.0926242767922334,,3.519474735958655,,
,3925.0,827.0,3115.0,847.0,1535.0,1986.0,3033.0,,,,0.0770210906228325,-1.70865239398864,0.0926273252921904,,3.246212383068823,,
,3929.0,831.0,3115.0,849.0,1519.0,1981.0,3051.0,,,,0.0770102561716902,-1.70772854447046,0.0926223311937256,,2.9283352609799516,,
,3928.0,830.0,3119.0,850.0,1522.0,1982.0,3031.0,,,,0.0769950277375627,-1.70790827666519,0.0926213191697872,,2.573864922096301,,
,3927.0,831.0,3119.0,848.0,1521.0,1984.0,3026.0,,,,0.0770227809610954,-1.70756415034478,0.0926282788303498,,2.1918137862926192,,
,3926.0,830.0,3117.0,850.0,1509.0,1979.0,3038.0,,,,0.0770122607625651,-1.7076933215019,0.0926305430251426,,1.7916569387702315,,
,3930.0,831.0,3122.0,849.0,1525.0,1968.0,3054.0,,,,0.0770293097084107,-1.70759493402083,0.0926277622574482,,1.3828135921241422,,
,3931.0,831.0,3122.0,849.0,1539.0,1993.0,3041.0,,,,0.0770437562022195,-1.70775158634363,0.0926194663933193,,0.9741775159576088,,
,3933.0,832.0,3121.0,851.0,1543.0,1995.0,3042.0,,,,0.0770660953581148,-1.70775066573276,0.092628159925459,,0.5737279658182239,,
,3935.0,829.0,3119.0,851.0,1539.0,1996.0,3027.0,,,,0.0770642348334622,-1.70750307043857,0.0926215881470669,,0.18824284015745385,,
,3934.0,832.0,3122.0,851.0,1527.0,1999.0,3047.0,,,,0.0770771858874863,-1.70746634670084,0.0926253558324672,,-0.17687540373100602,,
,3935.0,830.0,3123.0,852.0,1542.0,2003.0,3046.0,,,,0.0770497669895528,-1.70736293553117,0.092629219331763,,-0.5176622370004017,,
,3936.0,831.0,3118.0,850.0,1541.0,2010.0,3042.0,,,,0.0770130466953995,-1.70731639046322,0.0926285018023515,,-0.831554099757757,,
,3933.0,830.0,3120.0,850.0,1535.0,2018.0,3039.0,,,,0.0770621219848353,-1.7066768506633,0.0926413898918676,,-1.1172729071478031,,
,3935.0,831.0,3122.0,851.0,1542.0,2008.0,3059.0,,,,0.0770789883712426,-1.70692695131219,0.0926516833748913,,-1.3746578884060985,,
,3935.0,832.0,3123.0,851.0,1535.0,1996.0,3023.0,,,,0.0770875601035292,-1.70638577093498,0.0926371232113511,,-1.6044707817811459,,
,3938.0,833.0,3122.0,851.0,1528.0,1995.0,3030.0,,,,0.0770684936514226,-1.70689994247185,0.0926373602447733,,-1.8081959835641732,,
,3938.0,834.0,3123.0,853.0,1523.0,2013.0,3048.0,,,,0.07708562408689,-1.70712101905577,0.0926386243808676,,-1.9878497950684142,,
,3938.0,834.0,3125.0,852.0,1532.0,2018.0,3029.0,,,,0.0770780157837316,-1.70757029733093,0.0926317400931839,,-2.1458048171648256,,
,3942.0,837.0,3126.0,853.0,1519.0,2006.0,3043.0,,,,0.0770175041668278,-1.70829908904851,0.092629966535753,,-2.2846291024386587,,
,3943.0,836.0,3126.0,855.0,1526.0,2006.0,3052.0,,,,0.0770023955266861,-1.70867273888078,0.0926145030257877,,-2.4069361823781548,,
,3941.0,835.0,3126.0,854.0,1532.0,2003.0,3056.0,,,,0.076977056667705,-1.70909618268221,0.092609200281884,,-2.5152415535153563,,
,3944.0,834.0,3124.0,853.0,1526.0,2005.0,3022.0,,,,0.0769776346839822,-1.70938811498073,0.0926088164606621,,-2.6118228142499627,,
,3943.0,835.0,3124.0,855.0,1519.0,2022.0,3014.0,,,,0.0768956187212449,-1.70957779135281,0.0926079706435385,,-2.698583422274533,,
,3945.0,837.0,3126.0,854.0,1529.0,2019.0,3042.0,,,,0.0769224589913685,-1.70972312599816,0.0926034592577933,,-2.7769232821192666,,
,3947.0,835.0,3128.0,854.0,1541.0,2016.0,3026.0,,,,0.0769122662903248,-1.70989136052819,0.092599849395099,,-2.847622645826285,,
,3947.0,837.0,3127.0,854.0,1527.0,2026.0,3027.0,,,,0.0769190397360465,-1.70944639192643,0.0925957197356706,,-2.9107487497911233,,
,3948.0,835.0,3126.0,855.0,1529.0,2036.0,3032.0,,,,0.07694802327683,-1.70922783047503,0.0926001046357032,,-2.965596739105645,,
,3952.0,837.0,3129.0,854.0,1523.0,2012.0,3017.0,,,,0.0769541419850847,-1.7096049833477,0.0926108741777992,,-3.0106772009397487,,
,3951.0,834.0,3127.0,856.0,1533.0,2003.0,3020.0,,,,0.0769104098481696,-1.70949338051854,0.092611306912259,,-3.043761574997169,,
,3952.0,837.0,3128.0,856.0,1517.0,2000.0,3028.0,,,,0.0769543412693874,-1.70912109754021,0.0925981057527168,,-3.061993549713805,,
,3955.0,838.0,3129.0,859.0,1513.0,1985.0,3009.0,,,,0.0769804665117398,-1.70907986012971,0.0926024054806719,,-3.062069247780593,,
,3953.0,839.0,3131.0,856.0,1506.0,1979.0,2997.0,,,,0.0769542731488657,-1.70897903557434,0.0926034826289561,,-3.0404817972362066,,
,3957.0,839.0,3130.0,856.0,1511.0,1983.0,3012.0,,,,0.0769910517823201,-1.70900603581491,0.092619774957365,,-2.9938173090959466,,
,3956.0,838.0,3130.0,857.0,1539.0,1983.0,3015.0,,,,0.0769544398817298,-1.70884965899214,0.0926148138287808,,-2.9190802293991687,,
,3956.0,837.0,3130.0,857.0,1514.0,1979.0,3019.0,,,,0.0769737380367897,-1.70900406445618,0.0926116522168322,,-2.8140179305285007,,
,3961.0,842.0,3134.0,859.0,1508.0,1976.0,3029.0,,,,0.076966989775697,-1.70869367453454,0.0926164891539819,,-2.6774092165989956,,
,3960.0,842.0,3135.0,859.0,1504.0,1983.0,3024.0,,,,0.0769433048522823,-1.70828936461908,0.092622280511646,,-2.509281083721106,,
,3961.0,843.0,3133.0,857.0,1516.0,1969.0,3022.0,,,,0.0769948354411642,-1.70839335388956,0.0926183437670431,,-2.311023620013983,,
,3959.0,840.0,3133.0,858.0,1522.0,1978.0,3023.0,,,,0.0769940802767303,-1.70868070423473,0.0926251660887472,,-2.0853838586286733,,
,3963.0,842.0,3134.0,860.0,1523.0,1967.0,3029.0,,,,0.0769954246318115,-1.7085171922574,0.0926298914603456,,-1.836333821073902,,
,3963.0,843.0,3136.0,860.0,1529.0,1960.0,3048.0,,,,0.0769913438893717,-1.70841145738242,0.0926303264504175,,-1.568823306636603,,
,3964.0,840.0,3134.0,859.0,1524.0,1965.0,3055.0,,,,0.0770354180951874,-1.70823139558141,0.0926358369852869,,-1.2884416284238283,,
,3965.0,840.0,3134.0,860.0,1513.0,1989.0,3058.0,,,,0.0769909259534702,-1.70827321857493,0.0926347793168632,,-1.0010224183242606,,
,3968.0,844.0,3136.0,862.0,1513.0,2000.0,3077.0,,,,0.0770213136122425,-1.70870424336506,0.0926212810560364,,-0.7122306321060953,,
,3968.0,844.0,3136.0,863.0,1515.0,2007.0,3079.0,,,,0.077007004002512,-1.70846135961186,0.0926297083461851,,-0.4271709283793566,,
,3970.0,844.0,3139.0,863.0,1516.0,2005.0,3074.0,,,,0.0769956819185763,-1.70819767912773,0.0926183294936745,,-0.1500526467648921,,
,3971.0,844.0,3138.0,863.0,1507.0,1994.0,3089.0,,,,0.0770118869460059,-1.70819395595541,0.0926344655318261,,0.11605997789014028,,
,3976.0,847.0,3140.0,863.0,1516.0,2010.0,3079.0,,,,0.0769724957484598,-1.70770643396641,0.0926267256608611,,0.369391937019086,,
,3975.0,844.0,3139.0,863.0,1520.0,2026.0,3077.0,,,,0.0770065975913154,-1.70811527995576,0.0926324043671025,,0.6094848076446788,,
2025-08-05 18:41:52,3978.0,848.0,3142.0,863.0,1518.0,2035.0,3081.0,,,2025/08/05 06:41:52 PM,0.0770204399112019,-1.70798828075208,0.0926332717006337,,0.8371064215926038,,
,3975.0,847.0,3141.0,862.0,1524.0,2054.0,3074.0,,,,0.0770094985558267,-1.70795003055455,0.0926311264775256,,1.0540524159203142,,
,3977.0,845.0,3141.0,865.0,1530.0,2017.0,3056.0,,,,0.0769850622373548,-1.70797144698084,0.0926300694469271,,1.2628590319491324,,
,3979.0,847.0,3144.0,867.0,1540.0,2009.0,3043.0,,,,0.0770300746458379,-1.70794047266915,0.0926389242733465,,1.4664541890778269,,
,3980.0,848.0,3143.0,866.0,1547.0,2013.0,3040.0,,,,0.0770408036459561,-1.70834108003296,0.0926314979624916,,1.667778168522475,,
,3975.0,846.0,3142.0,865.0,1563.0,2023.0,3014.0,,,,0.0770083629268195,-1.70824661670616,0.092632919090532,,1.8694058852238848,,
,3978.0,847.0,3144.0,862.0,1554.0,2011.0,3019.0,,,,0.0770021748624843,-1.70813685927883,0.0926368814846118,,2.0732003484437858,,
,3975.0,848.0,3144.0,865.0,1551.0,2011.0,2991.0,,,,0.0770254468132494,-1.70835570535664,0.0926354081678826,,2.2800225647340175,,
,3973.0,847.0,3140.0,862.0,1550.0,2017.0,2999.0,,,,0.0770318098237971,-1.70882261625843,0.0926288344217796,,2.4895177222223097,,
,3969.0,846.0,3139.0,861.0,1543.0,2012.0,3011.0,,,,0.076986210402797,-1.70860403032694,0.0926326876728948,,2.6999915846497675,,
,3966.0,844.0,3137.0,859.0,1537.0,2007.0,2994.0,,,,0.0769815275196136,-1.70795163317196,0.0926359843608236,,2.908384942017433,,
,3964.0,842.0,3137.0,862.0,1529.0,1992.0,2996.0,,,,0.0770292930720891,-1.70770966906766,0.092633858254819,,3.110347920767503,,
,3964.0,842.0,3139.0,859.0,1540.0,1996.0,3015.0,,,,0.0770461458854926,-1.70749979496931,0.0926329144990372,,3.300410138246559,,
,3958.0,843.0,3137.0,862.0,1543.0,1994.0,3017.0,,,,0.0770664859082917,-1.70722429567204,0.0926399687639499,,3.472237300910288,,
,3954.0,842.0,3134.0,857.0,1534.0,1996.0,3010.0,,,,0.0770628233110321,-1.70724412288432,0.0926455415602302,,3.6189600762354113,,
,3952.0,842.0,3134.0,857.0,1533.0,2000.0,3010.0,,,,0.0770723726474825,-1.70731065536774,0.0926502669608225,,3.7335569672428837,,
,3952.0,840.0,3131.0,854.0,1539.0,2013.0,3016.0,,,,0.077100818804367,-1.70705312876661,0.0926478959541414,,3.8092694247914385,,
,3950.0,841.0,3132.0,857.0,1544.0,2008.0,3017.0,,,,0.0771286248075443,-1.70736463940741,0.0926547703294221,,3.840024620189301,,
,3949.0,841.0,3132.0,855.0,1542.0,2007.0,3017.0,,,,0.077098385043631,-1.70640641928086,0.0926607233874196,,3.82083953584369,,
,3949.0,841.0,3129.0,856.0,1545.0,2027.0,2990.0,,,,0.0771187511889154,-1.70615333192331,0.0926582994003166,,3.7481797185271133,,
,3947.0,840.0,3128.0,854.0,1551.0,2031.0,3003.0,,,,0.0771265079122722,-1.70658070872717,0.0926700321481105,,3.6202473131386537,,
,3948.0,840.0,3129.0,856.0,1543.0,2029.0,2995.0,,,,0.0771005038844647,-1.70635823032718,0.0926592686103737,,3.437175884870482,,
,3947.0,841.0,3129.0,855.0,1544.0,2053.0,2997.0,,,,0.0771240176927368,-1.70650259885495,0.0926624771575279,,3.2011143121935643,,
,3945.0,837.0,3129.0,854.0,1542.0,2049.0,3004.0,,,,0.077128033842567,-1.70636466448083,0.0926628525563747,,2.9161890596188655,,
,3946.0,839.0,3126.0,855.0,1562.0,2056.0,2996.0,,,,0.0771085814554935,-1.70592480036828,0.0926610839617625,,2.588343328762905,,
,3946.0,840.0,3131.0,856.0,1553.0,2060.0,3006.0,,,,0.0771116802951935,-1.70652274449447,0.0926646724279678,,2.2250620377148924,,
,3947.0,839.0,3128.0,854.0,1566.0,2049.0,3005.0,,,,0.0771371919237891,-1.7064260245203,0.092659259805511,,1.8350017599541468,,
,3946.0,837.0,3128.0,854.0,1550.0,2037.0,2991.0,,,,0.0771313294174971,-1.70629825318727,0.0926686724402675,,1.4275530291752856,,
,3942.0,839.0,3127.0,856.0,1549.0,2034.0,3027.0,,,,0.0771144279208048,-1.70583609288837,0.0926810178149044,,1.0123675191063128,,
,3947.0,842.0,3130.0,858.0,1536.0,2042.0,3028.0,,,,0.0771071004950479,-1.70601097963209,0.092667910748402,,0.5988838964796808,,
,3946.0,841.0,3130.0,853.0,1543.0,2032.0,3049.0,,,,0.0771256733848547,-1.70558408529167,0.0926669636919124,,0.19588376655332512,,
,3947.0,838.0,3127.0,856.0,1533.0,2043.0,3054.0,,,,0.0771388287687031,-1.70600402866606,0.0926805774818552,,-0.1888959438654628,,
,3950.0,841.0,3128.0,857.0,1529.0,2029.0,3029.0,,,,0.0771780600484114,-1.70550004473861,0.0926694961340586,,-0.5490741238583159,,
,3949.0,839.0,3128.0,855.0,1530.0,2012.0,3000.0,,,,0.0771510888406095,-1.7055995615494,0.0926770189956226,,-0.8798463052246538,,
,3945.0,841.0,3128.0,855.0,1539.0,2018.0,3004.0,,,,0.0770808002592298,-1.70571933156026,0.0926799854405322,,-1.1781067915521755,,
,3944.0,838.0,3129.0,855.0,1542.0,2011.0,3012.0,,,,0.077179435729527,-1.70460863201199,0.0926768059744421,,-1.4424684281314755,,
,3946.0,841.0,3131.0,856.0,1529.0,2007.0,3030.0,,,,0.0771783636675875,-1.70469414593301,0.0926847847352877,,-1.673180902728441,,
,3947.0,838.0,3129.0,854.0,1519.0,1987.0,3032.0,,,,0.0771808447082037,-1.70526852454352,0.0926840199367901,,-1.8719534729319829,,
,3948.0,839.0,3129.0,857.0,1538.0,2002.0,3024.0,,,,0.0771743304594052,-1.70566200117809,0.0926795628852878,,-2.041693688747571,,
,3945.0,838.0,3126.0,854.0,1539.0,2006.0,3022.0,,,,0.0771934761465572,-1.70475478123914,0.0926839753896255,,-2.1861795460595235,,
,3947.0,841.0,3127.0,855.0,1530.0,2003.0,3005.0,,,,0.0771793493823985,-1.70423678915616,0.0926880085258525,,-2.309687629283598,,
,3948.0,842.0,3129.0,855.0,1561.0,1984.0,3021.0,,,,0.0771923317156595,-1.70469913112488,0.0926913248826974,,-2.4166032654116827,,
,3944.0,841.0,3127.0,853.0,1567.0,1981.0,3015.0,,,,0.077161844484663,-1.70509882439426,0.092689664147758,,-2.5110399807853656,,
,3944.0,838.0,3126.0,855.0,1571.0,1996.0,3036.0,,,,0.0772382603924015,-1.70436841231254,0.0926898135524217,,-2.596494565946634,,
,3946.0,839.0,3125.0,855.0,1569.0,1988.0,3014.0,,,,0.0771897186384534,-1.70459773934233,0.0926887926912417,,-2.6755611344536483,,
,3944.0,838.0,3129.0,851.0,1554.0,1998.0,3008.0,,,,0.0771977714352962,-1.70454811559641,0.0926929000699219,,-2.749723220015536,,
,3945.0,839.0,3128.0,855.0,1556.0,2000.0,3007.0,,,,0.0772039702792377,-1.70432811335108,0.0926835848534184,,-2.819237711487689,,
,3942.0,839.0,3126.0,852.0,1560.0,1997.0,3002.0,,,,0.0772313244396324,-1.7040235432897,0.0926922903851438,,-2.883118678473166,,
,3945.0,838.0,3128.0,855.0,1563.0,2003.0,3035.0,,,,0.0772019317893749,-1.70421339159153,0.0926772752940528,,-2.9392230832008126,,
,3945.0,837.0,3128.0,855.0,1567.0,1997.0,3026.0,,,,0.0772124489081225,-1.70398693016188,0.0926897873974163,,-2.9844339662311286,,
,3943.0,839.0,3128.0,856.0,1558.0,2003.0,3018.0,,,,0.0771986652950782,-1.70366473390411,0.0926846378797193,,-3.014929793912164,,
,3945.0,839.0,3127.0,855.0,1543.0,1986.0,3032.0,,,,0.0771743595768004,-1.70373141223277,0.0926945737613059,,-3.0265212876683605,,
,3945.0,841.0,3128.0,855.0,1547.0,2010.0,3051.0,,,,0.0771734022002096,-1.70389987179965,0.0926987393943417,,-3.015029681783775,,
,3948.0,839.0,3127.0,856.0,1579.0,1996.0,3002.0,,,,0.0772047453141417,-1.70434387049426,0.0926872081757953,,-2.9766740627187107,,
,3946.0,838.0,3128.0,853.0,1569.0,1994.0,3011.0,,,,0.0771775596965364,-1.70417123771981,0.0926765746108785,,-2.9084318291190687,,
,3945.0,841.0,3127.0,855.0,1566.0,1990.0,3000.0,,,,0.0771801353985005,-1.70428737984485,0.0926924645333832,,-2.8083368939296123,,
,3946.0,837.0,3125.0,853.0,1576.0,1994.0,3014.0,,,,0.0771615609644274,-1.70361824608556,0.0926941190775438,,-2.675685646828917,,
,3948.0,840.0,3130.0,855.0,1585.0,1980.0,3012.0,,,,0.0771734905436936,-1.70352682856974,0.0926928785009347,,-2.5111302463258043,,
,3947.0,838.0,3127.0,856.0,1550.0,1989.0,3019.0,,,,0.0772590267886463,-1.70387091835292,0.0926940972710766,,-2.3166509155288257,,
,3949.0,839.0,3129.0,858.0,1553.0,1987.0,3026.0,,,,0.0772497873649836,-1.70340804284885,0.0926956612613587,,-2.095411735980452,,
,3948.0,837.0,3126.0,854.0,1558.0,1982.0,3031.0,,,,0.0772362766274608,-1.70345170403511,0.0926937415359381,,-1.8515164042009589,,
,3949.0,839.0,3129.0,856.0,1557.0,1983.0,3020.0,,,,0.0772304806502542,-1.70331290319009,0.0927034180313378,,-1.5896903211457403,,
,3951.0,839.0,3127.0,857.0,1552.0,1990.0,3011.0,,,,0.0772683347304444,-1.7037485004504,0.0926949266987499,,-1.3149222568540846,,
,3953.0,839.0,3130.0,856.0,1555.0,1990.0,3020.0,,,,0.0772480424383975,-1.70347043337584,0.0926964416233865,,-1.032101997831227,,
,3949.0,838.0,3128.0,854.0,1548.0,1995.0,3024.0,,,,0.0772273689251379,-1.70376972016334,0.092693072349272,,-0.745689651647508,,
,3953.0,839.0,3131.0,856.0,1539.0,2001.0,3028.0,,,,0.0771984060404459,-1.70353804474849,0.0927046227316526,,-0.4594479929086136,,
,3957.0,842.0,3131.0,861.0,1538.0,1986.0,3025.0,,,,0.0772159436185336,-1.70376512340921,0.0927049576594482,,-0.17626207927838694,,
,3955.0,839.0,3130.0,859.0,1531.0,1996.0,3026.0,,,,0.0772593732684712,-1.70313926367839,0.0927085521290899,,0.10193883915171593,,
,3956.0,842.0,3131.0,858.0,1526.0,1992.0,3025.0,,,,0.0772164277875754,-1.7029097271565,0.0927037721863496,,0.37415249767259084,,
,3956.0,842.0,3133.0,856.0,1518.0,1990.0,3041.0,,,,0.0772217018748779,-1.7029611457382,0.0927054769103872,,0.6401739330286882,,
,3957.0,841.0,3134.0,858.0,1531.0,2008.0,3020.0,,,,0.0772038659996985,-1.70291683845855,0.0927018991416338,,0.9003808449479827,,
,3959.0,843.0,3133.0,858.0,1532.0,2016.0,3029.0,,,,0.0772946861884686,-1.70393671284291,0.0926979455760992,,1.1554577651695503,,
,3956.0,841.0,3132.0,857.0,1542.0,2014.0,3012.0,,,,0.0772808450564268,-1.702814821056,0.0927087857105662,,1.4060876913305218,,
,3961.0,839.0,3131.0,856.0,1521.0,1992.0,3027.0,,,,0.0772953897532254,-1.70253555216756,0.0927110805297602,,1.6526415418792813,,
,3961.0,841.0,3135.0,858.0,1527.0,1982.0,3036.0,,,,0.0772728271643143,-1.70221293405545,0.0927099103218547,,1.8948948667049055,,
,3962.0,841.0,3137.0,858.0,1532.0,1974.0,3038.0,,,,0.0772686997343676,-1.7020452947551,0.0927082234270199,,2.1317985578102068,,
,3963.0,844.0,3136.0,860.0,1538.0,1984.0,3035.0,,,,0.0772902327927999,-1.70204921793688,0.0927093705486388,,2.3613263129610447,,
,3959.0,840.0,3132.0,858.0,1520.0,1969.0,3036.0,,,,0.07726978218241,-1.70212264480217,0.0927090336134949,,2.5804162111190894,,
,3961.0,843.0,3135.0,858.0,1514.0,1987.0,3041.0,,,,0.077265222168279,-1.70198694070796,0.0927103188621827,,2.78501668508163,,
,3964.0,841.0,3135.0,861.0,1521.0,1995.0,3030.0,,,,0.0772707021454461,-1.70253598744742,0.0927047961571446,,2.970238532857759,,
,3966.0,842.0,3135.0,862.0,1518.0,2000.0,3023.0,,,,0.0772415133525602,-1.70220104352165,0.0927091077426857,,3.130605042732404,,
,3967.0,840.0,3133.0,859.0,1515.0,1995.0,3003.0,,,,0.0772195315654144,-1.70341035257622,0.0926995680907689,,3.2603827245497503,,
,3966.0,842.0,3137.0,861.0,1523.0,1991.0,3023.0,,,,0.077213946210234,-1.7037205920694,0.0926897946572361,,3.353966477628517,,
,3968.0,844.0,3135.0,859.0,1518.0,1995.0,3022.0,,,,0.0771878357625647,-1.70439425371938,0.0926770075392704,,3.406286257925559,,
,3969.0,844.0,3136.0,862.0,1521.0,1994.0,3027.0,,,,0.0771427682683896,-1.70476934323234,0.092674194826654,,3.413198455641499,,
,3968.0,842.0,3140.0,861.0,1532.0,1990.0,3022.0,,,,0.077139984829091,-1.70480298790318,0.0926783428781296,,3.3718251926611855,,
,3968.0,843.0,3138.0,862.0,1524.0,1986.0,3024.0,,,,0.0770967104996983,-1.70563253655999,0.0926670672476765,,3.280809191950013,,
,3971.0,844.0,3136.0,860.0,1534.0,1985.0,3012.0,,,,0.0771027105149393,-1.70565287838103,0.092665073947058,,3.1404606542199223,,
,3971.0,844.0,3140.0,862.0,1535.0,1988.0,3016.0,,,,0.0770713846305237,-1.70569210143756,0.092661341297682,,2.9527845457771646,,
,3972.0,842.0,3138.0,861.0,1521.0,2008.0,3015.0,,,,0.0771213417222542,-1.70528492976364,0.0926730989666226,,2.7213897493842008,,
,3971.0,843.0,3135.0,860.0,1527.0,1992.0,3023.0,,,,0.0770988217783981,-1.7051422471395,0.0926794356261188,,2.4512933647599797,,
,3974.0,845.0,3140.0,862.0,1510.0,1989.0,3045.0,,,,0.0771201264365483,-1.70476883747746,0.092680541229616,,2.148642455261473,,
,3973.0,844.0,3141.0,863.0,1509.0,1987.0,3051.0,,,,0.0771336232338407,-1.70437248391241,0.0926765334661299,,1.82038108422179,,
,3975.0,842.0,3141.0,861.0,1525.0,2010.0,3040.0,,,,0.0771349494984958,-1.70446516584094,0.0926838917703236,,1.4738926177880707,,
,3975.0,845.0,3137.0,861.0,1531.0,2001.0,3061.0,,,,0.0771191530154285,-1.70376029037569,0.0926911513708124,,1.1166462913214876,,
,3977.0,844.0,3141.0,865.0,1528.0,2001.0,3059.0,,,,0.07715999238957,-1.70414711755705,0.0926890638722653,,0.7558732951465574,,
,3978.0,847.0,3143.0,864.0,1543.0,1992.0,3052.0,,,,0.0771252576758188,-1.70383981681049,0.0926920647120689,,0.39829166680668526,,
,3976.0,846.0,3141.0,863.0,1550.0,1996.0,3054.0,,,,0.077121804432467,-1.7040113170694,0.0926979311751478,,0.049891955065654345,,
,3978.0,847.0,3143.0,863.0,1552.0,2008.0,3044.0,,,,0.0771651618965358,-1.70402393514492,0.0927007547109215,,-0.28421195177746933,,
,3980.0,846.0,3144.0,865.0,1541.0,1991.0,3042.0,,,,0.0771492161613543,-1.70433871805742,0.0926891977459661,,-0.5998691822235142,,
,3982.0,846.0,3145.0,867.0,1534.0,2001.0,3051.0,,,,0.0771614502756339,-1.7036727720272,0.0926835902409046,,-0.8939227834645372,,
,3982.0,848.0,3148.0,867.0,1534.0,1993.0,3055.0,,,,0.0771363038262835,-1.7037038492385,0.0926888467127976,,-1.1641952120378187,,
,3985.0,847.0,3144.0,865.0,1536.0,1976.0,3032.0,,,,0.0771530249040326,-1.70356619307457,0.0926961770850804,,-1.4094386337366704,,
,3984.0,847.0,3146.0,866.0,1522.0,1978.0,3031.0,,,,0.0771512003245627,-1.7038108061334,0.0926944822720924,,-1.6292582655365453,,
,3984.0,848.0,3144.0,865.0,1531.0,1985.0,3037.0,,,,0.0771483959455383,-1.70326014280219,0.0926937544672124,,-1.8240137501279328,,
,3987.0,848.0,3143.0,867.0,1523.0,1979.0,3036.0,,,,0.0771518288596629,-1.7034352351613,0.0927003223316784,,-1.9947004497474188,,
,3986.0,848.0,3146.0,865.0,1513.0,1979.0,3031.0,,,,0.0771620823711455,-1.70361963508294,0.0926955366250778,,-2.1428109771401798,,
,3988.0,850.0,3147.0,868.0,1511.0,1972.0,3030.0,,,,0.0771179140764908,-1.70312096600021,0.0926975677310504,,-2.2701779335421044,,
,3987.0,847.0,3147.0,868.0,1529.0,1978.0,3034.0,,,,0.0771567329769395,-1.70316188306691,0.0926968581245728,,-2.3788013397196837,,
,3989.0,849.0,3147.0,865.0,1524.0,1986.0,3041.0,,,,0.0771533530219032,-1.70301238462801,0.0927138975131313,,-2.4706675806795646,,
,3988.0,848.0,3148.0,867.0,1522.0,1990.0,3030.0,,,,0.0771249166676174,-1.70284341315639,0.0927111702304784,,-2.5475697601645098,,
,3991.0,847.0,3151.0,866.0,1526.0,2000.0,3038.0,,,,0.0771476323490223,-1.70315148288283,0.092711257418193,,-2.610941495021327,,
,3991.0,848.0,3149.0,867.0,1527.0,2003.0,3034.0,,,,0.0771636872965067,-1.70273175072623,0.0927213908693359,,-2.661717113437086,,
,3989.0,848.0,3150.0,869.0,1525.0,2001.0,3040.0,,,,0.0771763572014868,-1.70291166505189,0.0927245225990903,,-2.700230931597154,,
,3986.0,847.0,3148.0,867.0,1523.0,2005.0,3041.0,,,,0.0771721957556597,-1.70244626465176,0.0927174535626994,,-2.7261668164420265,,
,3984.0,848.0,3146.0,866.0,1528.0,1981.0,3043.0,,,,0.0771377177639876,-1.70206686563225,0.0927284078073065,,-2.7385666463753235,,
,3980.0,846.0,3148.0,864.0,1517.0,1985.0,3047.0,,,,0.0771356834560681,-1.70229038468131,0.0927274973108217,,-2.7359025828941683,,
,3980.0,845.0,3146.0,864.0,1510.0,1988.0,3045.0,,,,0.0771460183318289,-1.70267883799218,0.0927231552725335,,-2.716213267758764,,
,3975.0,843.0,3142.0,862.0,1511.0,2001.0,3025.0,,,,0.0771621128497437,-1.70221564186689,0.0927336538013349,,-2.677298212599971,,
,3972.0,844.0,3140.0,864.0,1514.0,1990.0,3002.0,,,,0.0771700043160874,-1.70211892489436,0.0927311257397725,,-2.616957964196275,,
,3968.0,842.0,3143.0,861.0,1507.0,1993.0,3029.0,,,,0.0771577387441908,-1.70165814962835,0.0927349910853383,,-2.5332605944624476,,
,3965.0,843.0,3139.0,861.0,1512.0,1997.0,3047.0,,,,0.0771367297356571,-1.70166463328942,0.0927373867963099,,-2.4248085893620055,,
,3963.0,841.0,3137.0,859.0,1500.0,1992.0,2995.0,,,,0.0771899327282334,-1.70178850511951,0.0927454319304925,,-2.290975814940937,,
,3960.0,841.0,3136.0,857.0,1510.0,1989.0,3014.0,,,,0.0771829194843711,-1.70108630234442,0.0927394771854034,,-2.1320838592371576,,
,3960.0,843.0,3133.0,858.0,1519.0,2004.0,3056.0,,,,0.0771690180776447,-1.70111428800771,0.0927473079270535,,-1.949492118773065,,
,3956.0,841.0,3133.0,858.0,1509.0,1989.0,3056.0,,,,0.0771746651536578,-1.70100880261861,0.0927493463644195,,-1.7455863279887653,,
,3957.0,844.0,3135.0,858.0,1506.0,1993.0,3061.0,,,,0.077160420803647,-1.70106417026146,0.0927504841430448,,-1.523663715423899,,
,3956.0,841.0,3132.0,856.0,1507.0,1992.0,3038.0,,,,0.077128929356065,-1.70111151069621,0.0927467185352746,,-1.2877264620504572,,
2025-08-05 18:41:53,3955.0,841.0,3134.0,859.0,1511.0,2005.0,3037.0,,,2025/08/05 06:41:53 PM,0.0771603908064825,-1.70136607283148,0.0927570558891848,,-1.0422058592998618,,
,3953.0,840.0,3131.0,856.0,1498.0,1985.0,3042.0,,,,0.0771882391327457,-1.70091364777341,0.0927513322587418,,-0.7916461131446253,,
,3954.0,839.0,3133.0,856.0,1499.0,1995.0,3037.0,,,,0.0771051537088958,-1.70077859639417,0.0927555628693472,,-0.5403791073052328,,
,3950.0,838.0,3130.0,855.0,1508.0,2013.0,3040.0,,,,0.0771362998764888,-1.70072329925602,0.0927539843557215,,-0.2922203952094017,,
,3950.0,840.0,3131.0,855.0,1520.0,1991.0,3028.0,,,,0.0771307010504765,-1.70088136196399,0.0927479497067074,,-0.05021322637490118,,
,3948.0,841.0,3133.0,857.0,1506.0,2009.0,3017.0,,,,0.0771290006686379,-1.70089645379811,0.0927593620994663,,0.18355757018510277,,
,3950.0,841.0,3130.0,855.0,1504.0,2006.0,3030.0,,,,0.0771281364248617,-1.7005776128942,0.0927555807902517,,0.4080659249875998,,
,3949.0,840.0,3130.0,854.0,1519.0,2018.0,3016.0,,,,0.0771196807551889,-1.70011422130226,0.0927540769986478,,0.6233497845245044,,
,3950.0,839.0,3129.0,854.0,1518.0,2021.0,3025.0,,,,0.0771589573831206,-1.70019855700583,0.092758088927712,,0.8304193306580024,,
,3948.0,838.0,3129.0,856.0,1523.0,2007.0,3038.0,,,,0.0770977589664479,-1.70003903707952,0.0927583331914526,,1.0310742107391577,,
,3946.0,838.0,3128.0,856.0,1531.0,1996.0,3030.0,,,,0.0771420680522629,-1.69990958419809,0.0927738234630556,,1.2276440081092193,,
,3945.0,840.0,3128.0,853.0,1536.0,1995.0,3037.0,,,,0.0771347995724455,-1.69978548758071,0.0927748388551985,,1.4226735652950806,,
,3947.0,840.0,3129.0,856.0,1518.0,1988.0,3029.0,,,,0.0771118649639609,-1.69988360777092,0.0927719749062001,,1.6185800664237326,,
,3947.0,838.0,3127.0,855.0,1509.0,1962.0,3011.0,,,,0.0771942111915533,-1.69936487242318,0.0927655865327896,,1.8173109871405226,,
,3946.0,839.0,3128.0,855.0,1510.0,1966.0,3032.0,,,,0.0771725184073428,-1.69944306497848,0.0927729012752959,,2.0200310210121106,,
,3946.0,840.0,3128.0,855.0,1510.0,1987.0,3040.0,,,,0.0771903116748979,-1.699786891175,0.0927705595503332,,2.2268626960260662,,
,3944.0,840.0,3128.0,855.0,1523.0,1969.0,3040.0,,,,0.0771834113469177,-1.69988736933421,0.0927631331291872,,2.4367007338715334,,
,3945.0,839.0,3130.0,855.0,1514.0,1991.0,3057.0,,,,0.0771980486091186,-1.6995986862818,0.0927656640969787,,2.647115115029167,,
,3946.0,840.0,3128.0,855.0,1514.0,1988.0,3055.0,,,,0.07714518373938,-1.69948298503107,0.0927716238997087,,2.854352584533267,,
,3944.0,839.0,3128.0,854.0,1517.0,1986.0,3066.0,,,,0.0771656966313811,-1.69947375831027,0.0927722706633186,,3.0534408118829397,,
,3942.0,839.0,3129.0,852.0,1509.0,2002.0,3080.0,,,,0.0771976413296619,-1.69974120744338,0.0927664781857006,,3.23839330321235,,
,3944.0,839.0,3128.0,856.0,1505.0,2007.0,3075.0,,,,0.0771300269795512,-1.69951267044788,0.0927684154308163,,3.4025063171005367,,
,3944.0,839.0,3127.0,857.0,1516.0,2018.0,3079.0,,,,0.0771626266155755,-1.69928125787846,0.0927677794131193,,3.5387316772865915,,
,3941.0,841.0,3126.0,853.0,1513.0,2012.0,3081.0,,,,0.0771524468256997,-1.69901853785967,0.0927613345371014,,3.6401021404340788,,
,3942.0,839.0,3126.0,854.0,1513.0,2014.0,3081.0,,,,0.0771592422176981,-1.69919887088263,0.0927631327705126,,3.7001798081922397,,
,3943.0,838.0,3127.0,854.0,1525.0,2002.0,3067.0,,,,0.0771875685803491,-1.69895431820321,0.0927746942735678,,3.7134939681652788,,
,3944.0,839.0,3129.0,853.0,1522.0,1993.0,3069.0,,,,0.0771894324792545,-1.69852046780408,0.0927706598962615,,3.6759335310779235,,
,3942.0,839.0,3126.0,853.0,1523.0,1988.0,3072.0,,,,0.077120446916461,-1.69833488467206,0.092761760337374,,3.5850614506562435,,
,3942.0,838.0,3125.0,853.0,1524.0,2007.0,3036.0,,,,0.0771505209145196,-1.69824531277841,0.0927833245918642,,3.440324296971095,,
,3944.0,838.0,3125.0,854.0,1529.0,1981.0,3011.0,,,,0.0771428515975009,-1.69780885290697,0.0927755338936636,,3.243138956783409,,
,3944.0,841.0,3125.0,853.0,1516.0,1978.0,3013.0,,,,0.0771400317850731,-1.69780426996978,0.0927811430894822,,2.9968490656019955,,
,3941.0,839.0,3126.0,854.0,1512.0,1986.0,3001.0,,,,0.0771695796117256,-1.69741082310418,0.0927837477470011,,2.706554922565504,,
,3941.0,837.0,3123.0,851.0,1524.0,1984.0,3023.0,,,,0.07715770570526,-1.69683589397845,0.0927908657107215,,2.3788313639260568,,
,3942.0,838.0,3124.0,854.0,1518.0,1981.0,3007.0,,,,0.0771373348243968,-1.69693953541453,0.0927933968079532,,2.0213577553065063,,
,3942.0,839.0,3126.0,855.0,1511.0,1979.0,3006.0,,,,0.0772074616526416,-1.69628305225381,0.092801982805454,,1.6424921550067517,,
,3942.0,836.0,3124.0,853.0,1505.0,1983.0,3006.0,,,,0.0772272279244833,-1.69635714858806,0.0928112930964809,,1.2508266248941626,,
,3942.0,840.0,3125.0,851.0,1508.0,1998.0,3015.0,,,,0.0772230493807879,-1.69602651389276,0.0928096705380193,,0.8547612926100502,,
,3943.0,837.0,3127.0,853.0,1511.0,1992.0,2999.0,,,,0.0772540118408656,-1.6961362251524,0.0928108434678015,,0.4621303997945898,,
,3943.0,840.0,3128.0,855.0,1528.0,1988.0,3004.0,,,,0.0772155336143774,-1.69553019122813,0.0928240943309489,,0.07990482114882308,,
,3946.0,840.0,3128.0,855.0,1524.0,1990.0,3008.0,,,,0.0771760660656766,-1.69574889250512,0.0928275205281402,,-0.28601575127729023,,
,3946.0,838.0,3128.0,852.0,1517.0,2011.0,2994.0,,,,0.0772315681867819,-1.69487995047384,0.0928414158260818,,-0.6309193000012899,,
,3944.0,839.0,3126.0,854.0,1516.0,2012.0,2999.0,,,,0.0772485533405633,-1.69486186654463,0.0928333767225209,,-0.9513147775719238,,
,3947.0,840.0,3127.0,855.0,1508.0,2010.0,3013.0,,,,0.0772508228489539,-1.69512156787671,0.0928310568324618,,-1.2448970255835443,,
,3947.0,840.0,3128.0,856.0,1524.0,1991.0,3038.0,,,,0.077234714211869,-1.69519003101519,0.0928222149136752,,-1.5104611127126255,,
,3947.0,840.0,3126.0,855.0,1541.0,1987.0,3041.0,,,,0.0772476083496302,-1.69525370345889,0.0928392700580132,,-1.7477832183019524,,
,3949.0,837.0,3124.0,853.0,1518.0,2010.0,3037.0,,,,0.0772313085324205,-1.69519342320196,0.0928381275064939,,-1.9574816492630533,,
,3950.0,840.0,3127.0,856.0,1522.0,2002.0,3037.0,,,,0.0772477876304295,-1.69583479568031,0.0928318936690086,,-2.1408666495463033,,
,3949.0,841.0,3130.0,856.0,1514.0,2001.0,3042.0,,,,0.0772757632368523,-1.69534878589545,0.0928241059447953,,-2.2997832101507205,,
,3952.0,842.0,3129.0,858.0,1518.0,2002.0,3030.0,,,,0.0772711212171984,-1.69568711765407,0.0928129777818704,,-2.4364485616184184,,
,3952.0,841.0,3128.0,856.0,1519.0,2004.0,3018.0,,,,0.0772348412282583,-1.6958838613012,0.0928093076990433,,-2.553285741563169,,
,3953.0,840.0,3130.0,856.0,1524.0,2001.0,3029.0,,,,0.0772738812269663,-1.69645225806311,0.092797924965538,,-2.6527558353059706,,
,3955.0,844.0,3130.0,857.0,1518.0,1984.0,3038.0,,,,0.0772610157930616,-1.69680844060723,0.0927836044337953,,-2.737193126992258,,
,3954.0,843.0,3132.0,858.0,1513.0,1985.0,3030.0,,,,0.0772480767461745,-1.69707071866129,0.0927680698984747,,-2.808648756588069,,
,3953.0,839.0,3129.0,853.0,1499.0,1999.0,3051.0,,,,0.0772560360394351,-1.69751149466738,0.0927600663566182,,-2.868749384186885,,
,3956.0,840.0,3127.0,856.0,1512.0,1981.0,3062.0,,,,0.0772484322913712,-1.69744509275565,0.0927710426750377,,-2.918577992202353,,
,3959.0,844.0,3133.0,857.0,1511.0,1987.0,3046.0,,,,0.077256984172566,-1.69772796807387,0.0927517529326352,,-2.9585844932456293,,
,3958.0,843.0,3136.0,859.0,1504.0,1985.0,3034.0,,,,0.0773037612590622,-1.69697270656998,0.0927529782701042,,-2.988534219939151,,
,3960.0,843.0,3132.0,856.0,1508.0,1982.0,3019.0,,,,0.0772856069326731,-1.69795591928949,0.0927513075596944,,-3.0075023481542438,,
,3959.0,841.0,3132.0,857.0,1503.0,1984.0,3021.0,,,,0.0772734603533224,-1.6975211028589,0.0927422495459335,,-3.0139213560726863,,
,3961.0,845.0,3132.0,861.0,1495.0,1976.0,3017.0,,,,0.0772923985151455,-1.69692251229516,0.0927453447451847,,-3.005686231874553,,
,3962.0,844.0,3136.0,860.0,1496.0,1973.0,3016.0,,,,0.0772815186768632,-1.69689991021454,0.0927524230981268,,-2.9803179932474357,,
,3962.0,841.0,3132.0,856.0,1515.0,1974.0,3028.0,,,,0.0772772704233047,-1.69719226844513,0.0927430967916242,,-2.9351802174598602,,
,3965.0,843.0,3135.0,859.0,1519.0,1968.0,3027.0,,,,0.0772903281175363,-1.69757918460775,0.0927459281475405,,-2.8677361184648564,,
,3965.0,844.0,3133.0,859.0,1529.0,1976.0,3045.0,,,,0.0772664094790348,-1.69796569872644,0.0927483206099298,,-2.7758260338411946,,
,3966.0,845.0,3135.0,858.0,1509.0,1970.0,3036.0,,,,0.0772481141815387,-1.69847114776229,0.0927359657174323,,-2.657938332003486,,
,3967.0,842.0,3134.0,859.0,1514.0,1967.0,3040.0,,,,0.0772113845140943,-1.69937127168976,0.0927388868272185,,-2.513442643187734,,
,3966.0,844.0,3136.0,860.0,1521.0,1975.0,3051.0,,,,0.0771812776787867,-1.69922305650081,0.0927357319730458,,-2.342754871185723,,
,3968.0,846.0,3137.0,859.0,1506.0,1981.0,3055.0,,,,0.0771607764449978,-1.69871927236557,0.0927289427605208,,-2.1474095298196265,,
,3970.0,844.0,3137.0,860.0,1526.0,1977.0,3058.0,,,,0.0771354150146261,-1.69931330830202,0.0927444663416863,,-1.9300257902562923,,
,3971.0,847.0,3137.0,862.0,1522.0,1976.0,3064.0,,,,0.0771121216657931,-1.69941115739926,0.0927491440025444,,-1.6941670738690784,,
,3970.0,845.0,3134.0,858.0,1520.0,1980.0,3060.0,,,,0.0771446888765453,-1.69923560527695,0.0927422122550149,,-1.4441074359265504,,
,3970.0,846.0,3136.0,859.0,1525.0,1974.0,3041.0,,,,0.0771470013656547,-1.69919534686376,0.0927494136523779,,-1.184529077223479,,
,3972.0,847.0,3138.0,863.0,1544.0,1974.0,3048.0,,,,0.0771375082993345,-1.69908465842543,0.0927489890845293,,-0.920182633197107,,
,3972.0,845.0,3138.0,860.0,1540.0,1975.0,3053.0,,,,0.0771289837601219,-1.69912061981733,0.0927583004614124,,-0.6555448695173047,,
,3971.0,847.0,3138.0,862.0,1523.0,1981.0,3051.0,,,,0.0771572335970229,-1.69879409374961,0.0927480507634094,,-0.39450732819649037,,
,3978.0,847.0,3139.0,862.0,1516.0,1979.0,3039.0,,,,0.0771691633857368,-1.69888280143179,0.0927596613317098,,-0.14012515948038715,,
,3977.0,849.0,3141.0,863.0,1535.0,1982.0,3031.0,,,,0.077146969558475,-1.69869764307878,0.0927581249090871,,0.10555117693652942,,
,3978.0,847.0,3139.0,863.0,1545.0,1984.0,3034.0,,,,0.0771795375355734,-1.69862198965684,0.0927657937062399,,0.3415466849425856,,
,3978.0,848.0,3138.0,864.0,1539.0,1969.0,3031.0,,,,0.0771407345097422,-1.69893690759012,0.0927635663023397,,0.5679294041737396,,
,3978.0,848.0,3141.0,862.0,1521.0,1976.0,3043.0,,,,0.0771209223504825,-1.69875979940468,0.0927577506810503,,0.785678595342389,,
,3981.0,847.0,3142.0,863.0,1530.0,1978.0,3019.0,,,,0.0771096339113038,-1.69897506399073,0.0927590160538161,,0.9964667840113667,,
,3981.0,849.0,3142.0,865.0,1529.0,1975.0,3019.0,,,,0.0771201567673873,-1.69873682412207,0.0927610783296733,,1.2023773849489936,,
,3984.0,847.0,3144.0,865.0,1529.0,1978.0,3042.0,,,,0.0771615605796597,-1.69876292785514,0.0927519086169621,,1.4055858707443336,,
,3983.0,848.0,3143.0,863.0,1509.0,1975.0,3040.0,,,,0.077130806168336,-1.69868366877953,0.09275845123774,,1.608035240321155,,
,3986.0,851.0,3146.0,868.0,1506.0,1973.0,3034.0,,,,0.0771938423670003,-1.69911360326218,0.0927581056244215,,1.8111354848330856,,
,3987.0,852.0,3145.0,867.0,1511.0,1977.0,3014.0,,,,0.077190342131641,-1.69878303368232,0.0927626199827206,,2.0155125154963316,,
,3990.0,852.0,3148.0,867.0,1512.0,1982.0,3001.0,,,,0.0772352564631779,-1.69870955935935,0.0927431610887479,,2.2208258772139264,,
,3988.0,850.0,3146.0,867.0,1518.0,1986.0,3013.0,,,,0.0771700244543509,-1.69871539899915,0.0927554092625388,,2.425667721627977,,
,3989.0,852.0,3146.0,867.0,1518.0,2005.0,3043.0,,,,0.0771995622280234,-1.69898960064293,0.0927577230231714,,2.6275487463955565,,
,3992.0,853.0,3149.0,868.0,1506.0,2011.0,3059.0,,,,0.077209273606639,-1.69894036389696,0.0927635312812951,,2.8229705003042733,,
,3991.0,851.0,3147.0,867.0,1504.0,2007.0,3065.0,,,,0.0772029399116246,-1.69926567967214,0.0927496573793048,,3.0075777079120276,,
,3991.0,848.0,3145.0,865.0,1515.0,1990.0,3061.0,,,,0.0771801619470901,-1.6990301455684,0.0927549382359977,,3.176379080205014,,
,3995.0,853.0,3149.0,869.0,1527.0,1994.0,3054.0,,,,0.0771550550845311,-1.6992390564573,0.0927488839123246,,3.3240205138309054,,
,3995.0,852.0,3149.0,868.0,1522.0,2007.0,3052.0,,,,0.077180987369397,-1.69895180347757,0.0927608971881979,,3.445090920260747,,
,3994.0,852.0,3151.0,868.0,1519.0,2001.0,3058.0,,,,0.0771548316000958,-1.69932934403434,0.0927543913593896,,3.534438644772301,,
,3990.0,849.0,3147.0,865.0,1516.0,2003.0,3028.0,,,,0.077155031123733,-1.69935529550682,0.0927485794674135,,3.5874759806199448,,
,3988.0,850.0,3149.0,868.0,1518.0,1997.0,3029.0,,,,0.0771907977945196,-1.69958660620669,0.0927548559782936,,3.600450854071369,,
,3986.0,853.0,3148.0,867.0,1524.0,1991.0,3038.0,,,,0.0771782530998714,-1.6993335229806,0.0927444615988377,,3.570668219309478,,
,3984.0,850.0,3146.0,867.0,1534.0,1991.0,3036.0,,,,0.0771452436312378,-1.70000910005875,0.0927557000565306,,3.4966485555140085,,
,3981.0,851.0,3144.0,866.0,1528.0,2001.0,3032.0,,,,0.0771419556189183,-1.70003974295383,0.0927582571692837,,3.378216304498255,,
,3977.0,850.0,3143.0,863.0,1527.0,1979.0,3022.0,,,,0.0771431327254773,-1.69986355128573,0.0927485311328857,,3.216516401262073,,
,3977.0,850.0,3140.0,863.0,1518.0,1989.0,3033.0,,,,0.077134174478963,-1.69956979142481,0.0927451121375566,,3.013961919453994,,
,3974.0,847.0,3142.0,863.0,1512.0,1977.0,3030.0,,,,0.0771289349378778,-1.69967713737852,0.0927439848215511,,2.774120233486472,,
,3971.0,847.0,3140.0,860.0,1513.0,1970.0,3006.0,,,,0.0771270068943278,-1.69981105399607,0.0927360941550317,,2.501548797715666,,
,3968.0,844.0,3136.0,859.0,1511.0,1969.0,3033.0,,,,0.0771193991992806,-1.69982432062208,0.092741202190044,,2.2015942191686375,,
,3966.0,845.0,3136.0,861.0,1523.0,1979.0,3016.0,,,,0.0771411537630235,-1.70009741635746,0.092744126639586,,1.8801693462246025,,
,3966.0,847.0,3137.0,861.0,1500.0,2000.0,3018.0,,,,0.0770945044687308,-1.70045193403006,0.0927401076660678,,1.543522531577195,,
,3964.0,845.0,3136.0,860.0,1500.0,1998.0,3021.0,,,,0.0770907348953105,-1.70034091338493,0.0927397845966397,,1.1980113208775378,,
,3962.0,844.0,3134.0,858.0,1518.0,1991.0,3023.0,,,,0.0770434773823277,-1.70036431412836,0.0927343358490559,,0.8498899954695914,,
,3961.0,844.0,3133.0,857.0,1526.0,1993.0,3019.0,,,,0.0770452407169032,-1.70083151018044,0.0927475517212526,,0.5051171176651357,,
,3959.0,846.0,3133.0,859.0,1523.0,1991.0,3030.0,,,,0.0770302193438905,-1.70062075153014,0.0927418635126622,,0.16918602294944257,,
,3959.0,845.0,3133.0,861.0,1530.0,1994.0,3028.0,,,,0.0770709788619503,-1.70049794830006,0.0927447150272529,,-0.15302128502770018,,
,3958.0,844.0,3131.0,857.0,1546.0,1988.0,3015.0,,,,0.0770498693292745,-1.70061943333279,0.0927497811857484,,-0.45735754964105707,,
,3959.0,846.0,3130.0,858.0,1539.0,1998.0,3025.0,,,,0.0770554148498243,-1.70084672759226,0.0927469983418712,,-0.740511232700859,,
,3960.0,848.0,3134.0,858.0,1536.0,2003.0,3007.0,,,,0.0770413325218126,-1.70052378405363,0.0927504100683202,,-1.0000833889034393,,
,3958.0,845.0,3131.0,856.0,1543.0,2014.0,2999.0,,,,0.0769947239747482,-1.70051416193437,0.0927506032895234,,-1.2346362750381783,,
,3958.0,845.0,3134.0,858.0,1538.0,2003.0,3027.0,,,,0.0770263721341041,-1.70076000654497,0.0927521085490426,,-1.4437075849550178,,
,3958.0,846.0,3131.0,859.0,1551.0,2000.0,3041.0,,,,0.077034917832751,-1.70037166838151,0.0927556984413957,,-1.6277838103651268,,
,3958.0,846.0,3130.0,857.0,1542.0,2023.0,3039.0,,,,0.0769886884922711,-1.70081885096571,0.0927546827549231,,-1.7882276489752398,,
