TimeLabel,MEAS1_PPG1,MEAS1_PPG2,MEAS1_PPG3,MEAS1_PPG4,ACCX,ACCY,ACCZ,HR_timestamp,HR_value,radar_timestamp,phase_rx0,phase_rx1,phase_rx2,timestep,n_process,original_rate,calculated_rate
2025-07-16 19:48:25,13092.0,2688.0,8806.0,3062.0,2416.0,3151.0,409.0,2025-07-16 19:48:33,100.0,2025/07/16 07:48:25 PM,-0.0927351432194494,-2.56910733420572,-0.475175649305783,2025/07/16 07:48:25 PM,4.249078241864766,11.511896133422852,11.437908496732026
,13095.0,2690.0,8808.0,3062.0,2422.0,3166.0,412.0,2025-07-16 19:48:34,100.0,,-0.0925330812768588,-2.56910181829758,-0.474277483732755,2025/07/16 07:48:35 PM,4.701147685901755,11.6913480758667,12.443584784010318
,13093.0,2692.0,8810.0,3064.0,2420.0,3156.0,401.0,2025-07-16 19:48:35,100.0,,-0.0926795739229087,-2.56921330263652,-0.474570163012451,2025/07/16 07:48:45 PM,5.126728675366579,11.6913480758667,11.565193216569364
,13096.0,2692.0,8811.0,3063.0,2415.0,3175.0,399.0,2025-07-16 19:48:36,101.0,,-0.0927659701016375,-2.5691813738872,-0.474545983875021,2025/07/16 07:48:55 PM,5.527322954110723,11.78318977355957,11.923266109198227
,13093.0,2689.0,8808.0,3061.0,2407.0,3148.0,411.0,2025-07-16 19:48:37,100.0,,-0.0928103762935327,-2.56928601014092,-0.473796727853828,2025/07/16 07:49:05 PM,5.905425682854638,11.857707977294922,12.004801920768308
,13092.0,2690.0,8807.0,3065.0,2406.0,3159.0,432.0,2025-07-16 19:48:38,100.0,,-0.0927606980243394,-2.56933034164576,-0.473156607284563,2025/07/16 07:49:15 PM,6.2643992433571745,11.664073944091797,11.651583710407236
,13091.0,2688.0,8802.0,3063.0,2410.0,3147.0,411.0,2025-07-16 19:48:39,100.0,,-0.0928328939216896,-2.56953599113266,-0.474442987023883,2025/07/16 07:49:25 PM,6.60825303418889,11.682243347167969,11.428571428571429
,13086.0,2687.0,8795.0,3061.0,2413.0,3134.0,408.0,2025-07-16 19:48:40,100.0,,-0.0928236965293205,-2.56930805342939,-0.474896742955307,2025/07/16 07:49:35 PM,6.94133080411247,11.511896133422852,13.121693121693127
,13082.0,2686.0,8788.0,3058.0,2409.0,3126.0,420.0,2025-07-16 19:48:41,100.0,,-0.0929175206746279,-2.56982629311941,-0.474859115231963,2025/07/16 07:49:45 PM,7.267919770221636,12.03852367401123,13.328424153166424
,13083.0,2683.0,8783.0,3057.0,2403.0,3120.0,420.0,2025-07-16 19:48:42,100.0,,-0.0929682117496777,-2.56964086343994,-0.47654864704343,2025/07/16 07:49:55 PM,7.591806708074843,12.79863452911377,12.341808893533033
,13080.0,2683.0,8777.0,3054.0,2397.0,3105.0,417.0,2025-07-16 19:48:43,99.0,,-0.0929931703314613,-2.56959065998072,-0.476426838977105,2025/07/16 07:50:05 PM,7.9158135292258525,10.535557746887209,10.084033613445373
,13077.0,2679.0,8769.0,3051.0,2395.0,3117.0,422.0,2025-07-16 19:48:44,99.0,,-0.0929592847398512,-2.5698171697726,-0.4760757416967,2025/07/16 07:50:15 PM,8.241348479099354,12.17532444000244,11.538461538461547
,13075.0,2673.0,8760.0,3045.0,2374.0,3127.0,407.0,2025-07-16 19:48:45,98.0,,-0.0928465040702525,-2.56977661045129,-0.476032448209196,2025/07/16 07:50:25 PM,8.568010029117072,11.682243347167969,11.600971417896512
,13072.0,2674.0,8756.0,3045.0,2396.0,3132.0,413.0,2025-07-16 19:48:46,98.0,,-0.0928907725702128,-2.56984013153274,-0.476165244449412,2025/07/16 07:50:35 PM,8.893279573900669,11.337867736816406,12.063043038997757
,13073.0,2670.0,8749.0,3042.0,2399.0,3121.0,423.0,2025-07-16 19:48:47,98.0,,-0.0928254871484854,-2.56989793690127,-0.475596193604442,2025/07/16 07:50:45 PM,9.212336089567362,11.838990211486816,12.701612903225822
,13069.0,2672.0,8748.0,3042.0,2398.0,3142.0,413.0,2025-07-16 19:48:48,98.0,,-0.0928061956706037,-2.56988609595904,-0.475459268668309,2025/07/16 07:50:55 PM,9.518020617229984,12.067578315734863,15.066456444311585
,13073.0,2668.0,8745.0,3036.0,2404.0,3153.0,405.0,2025-07-16 19:48:49,99.0,,-0.0928350675641605,-2.56976319019024,-0.476304835199572,2025/07/16 07:51:05 PM,9.800970937330897,13.78254222869873,13.40823970037455
,13070.0,2668.0,8738.0,3038.0,2411.0,3153.0,419.0,2025-07-16 19:48:50,100.0,,-0.0928559900476566,-2.56975919060617,-0.477315912318743,2025/07/16 07:51:15 PM,10.049937665445457,14.007781982421877,13.118279569892465
,13070.0,2668.0,8738.0,3038.0,2400.0,3137.0,412.0,2025-07-16 19:48:51,101.0,,-0.0927546296594062,-2.56977673307206,-0.476150519449506,,10.252282569157765,,
,13073.0,2671.0,8736.0,3034.0,2410.0,3136.0,410.0,2025-07-16 19:48:52,101.0,,-0.0928746017405305,-2.56967766681591,-0.476094033463566,,10.39464764650462,,
,13073.0,2669.0,8735.0,3033.0,2409.0,3130.0,396.0,2025-07-16 19:48:53,102.0,,-0.0928922187107298,-2.56941754233996,-0.474371877541107,,10.463768236871761,,
,13071.0,2670.0,8731.0,3032.0,2398.0,3150.0,405.0,2025-07-16 19:48:54,103.0,,-0.0928017931582548,-2.56946195019499,-0.474100534581552,,10.447384824152273,,
,13074.0,2670.0,8736.0,3032.0,2409.0,3154.0,389.0,2025-07-16 19:48:55,103.0,,-0.0929044371043333,-2.56941348442757,-0.475023388779641,,10.3351883892124,,
,13076.0,2672.0,8740.0,3034.0,2403.0,3148.0,377.0,2025-07-16 19:48:56,104.0,,-0.0928216348006823,-2.56959126537993,-0.474022226655978,,10.119717660625268,,
,13074.0,2671.0,8740.0,3034.0,2403.0,3147.0,383.0,2025-07-16 19:48:57,104.0,,-0.0928313774401677,-2.56965819879471,-0.475103587543289,,9.797118233426868,,
,13073.0,2671.0,8742.0,3036.0,2392.0,3163.0,385.0,2025-07-16 19:48:58,104.0,,-0.0926401437621283,-2.56956550226688,-0.474497385185506,,9.367676551872597,,
,13079.0,2671.0,8747.0,3036.0,2400.0,3157.0,383.0,2025-07-16 19:48:59,104.0,,-0.09244878359025,-2.56957283316125,-0.474479266312062,,8.836057340248088,,
,13082.0,2670.0,8751.0,3038.0,2402.0,3136.0,376.0,2025-07-16 19:49:00,104.0,,-0.0925703859240221,-2.56987470018876,-0.474601442137067,,8.21120040999403,,
,13084.0,2674.0,8753.0,3042.0,2403.0,3137.0,384.0,2025-07-16 19:49:01,104.0,,-0.09262357353773,-2.56942014969933,-0.473560823628841,,7.505869148729561,,
,13085.0,2675.0,8760.0,3040.0,2403.0,3162.0,411.0,2025-07-16 19:49:02,104.0,,-0.0925338164683526,-2.56945189432262,-0.473802302965029,,6.735883857414911,,
,13084.0,2672.0,8761.0,3041.0,2394.0,3153.0,399.0,2025-07-16 19:49:03,104.0,,-0.0925323127257898,-2.56922169341597,-0.474614228282919,,5.9191124251525515,,
,13088.0,2676.0,8768.0,3044.0,2387.0,3128.0,400.0,2025-07-16 19:49:04,104.0,,-0.0925182031465681,-2.56921923680866,-0.474689590829528,,5.074321680661882,,
,13089.0,2676.0,8767.0,3045.0,2403.0,3118.0,397.0,2025-07-16 19:49:05,103.0,,-0.0924874171385711,-2.5693435946494,-0.473719427507858,,4.220008625449811,,
,13091.0,2677.0,8772.0,3045.0,2400.0,3115.0,414.0,2025-07-16 19:49:06,103.0,,-0.0925982315761761,-2.56946136194759,-0.474680545557874,,3.3733280399256755,,
,13088.0,2676.0,8773.0,3042.0,2398.0,3135.0,425.0,2025-07-16 19:49:07,103.0,,-0.0926439102602135,-2.56965655788612,-0.476055803526557,,2.5492129716849217,,
,13093.0,2676.0,8773.0,3048.0,2407.0,3147.0,416.0,2025-07-16 19:49:08,103.0,,-0.0926718599493929,-2.56976457874877,-0.476198662692258,,1.7597530043068483,,
,13091.0,2675.0,8779.0,3048.0,2406.0,3123.0,421.0,2025-07-16 19:49:09,103.0,,-0.092840975386678,-2.56997817267942,-0.477447351750448,,1.013859173265659,,
,13092.0,2678.0,8777.0,3047.0,2401.0,3121.0,420.0,2025-07-16 19:49:10,103.0,,-0.0929388330828159,-2.57043697101209,-0.477456954152454,,0.31721010662778054,,
,13093.0,2676.0,8780.0,3049.0,2398.0,3116.0,418.0,2025-07-16 19:49:11,104.0,,-0.0929995031035758,-2.57040215362071,-0.476649055308209,,-0.32755440227996513,,
,13093.0,2678.0,8780.0,3047.0,2393.0,3139.0,422.0,2025-07-16 19:49:12,104.0,,-0.0930466928612808,-2.57065832379801,-0.478233205961452,,-0.9204460974522821,,
,13092.0,2677.0,8777.0,3050.0,2402.0,3135.0,410.0,2025-07-16 19:49:13,104.0,,-0.0930549494613421,-2.57092633598011,-0.476874175447641,,-1.4636110903949924,,
,13094.0,2680.0,8780.0,3050.0,2413.0,3132.0,417.0,2025-07-16 19:49:14,104.0,,-0.0929841151501608,-2.57129780594324,-0.477693855261427,,-1.9607471036080497,,
,13094.0,2679.0,8781.0,3051.0,2413.0,3131.0,416.0,2025-07-16 19:49:15,104.0,,-0.0931049419555078,-2.57101592980546,-0.478248206447891,,-2.416511935273335,,
,13090.0,2679.0,8782.0,3049.0,2401.0,3139.0,417.0,2025-07-16 19:49:16,104.0,,-0.0933350875486682,-2.57098959988531,-0.479662576691095,,-2.835968004888257,,
,13096.0,2678.0,8782.0,3050.0,2391.0,3126.0,394.0,2025-07-16 19:49:17,103.0,,-0.0934094314056618,-2.57112098812623,-0.480298789646022,,-3.2240953805461747,,
,13094.0,2682.0,8782.0,3053.0,2401.0,3155.0,373.0,2025-07-16 19:49:18,102.0,,-0.0934220321319423,-2.57121974225516,-0.47931473264429,,-3.585395352607017,,
,13093.0,2677.0,8780.0,3050.0,2405.0,3161.0,392.0,2025-07-16 19:49:19,102.0,,-0.093375919159813,-2.57090662502927,-0.47901236456257,,-3.923598634330898,,
,13089.0,2679.0,8782.0,3051.0,2417.0,3134.0,386.0,2025-07-16 19:49:20,101.0,,-0.093187626875324,-2.57103050900058,-0.479808131319734,,-4.241485295102584,,
,13092.0,2679.0,8782.0,3049.0,2417.0,3147.0,394.0,2025-07-16 19:49:21,100.0,,-0.0932476015886834,-2.57120459358089,-0.478552815683684,,-4.540816458875055,,
,13095.0,2681.0,8783.0,3049.0,2395.0,3146.0,389.0,2025-07-16 19:49:22,100.0,,-0.0932133826543621,-2.57142004960014,-0.480044723796515,,-4.822370655677951,,
,13094.0,2679.0,8785.0,3051.0,2397.0,3146.0,388.0,2025-07-16 19:49:23,100.0,,-0.0932728655008087,-2.57150762611148,-0.479648243008594,,-5.08607118766236,,
,13094.0,2678.0,8786.0,3050.0,2408.0,3145.0,410.0,2025-07-16 19:49:24,100.0,,-0.0931945323020486,-2.57145971692319,-0.480705192035043,,-5.3311854885984005,,
,13094.0,2676.0,8786.0,3048.0,2411.0,3141.0,397.0,2025-07-16 19:49:25,100.0,,-0.0932600603995928,-2.57132953282389,-0.48022914572459,,-5.556573277027266,,
,13097.0,2680.0,8789.0,3051.0,2402.0,3158.0,403.0,2025-07-16 19:49:26,100.0,,-0.0933202018361908,-2.57145842253262,-0.482039901408256,,-5.760957223211168,,
,13097.0,2680.0,8791.0,3053.0,2400.0,3150.0,393.0,2025-07-16 19:49:27,99.0,,-0.0931881410830094,-2.5714380103333,-0.480844375603854,,-5.943188167712284,,
,13097.0,2681.0,8791.0,3055.0,2405.0,3141.0,387.0,2025-07-16 19:49:28,98.0,,-0.0932909681336981,-2.57132794943049,-0.482771840286185,,-6.102477689427915,,
,13096.0,2679.0,8791.0,3050.0,2402.0,3126.0,376.0,2025-07-16 19:49:29,98.0,,-0.0932971593138616,-2.57141628662452,-0.482400600018508,,-6.238575292148402,,
,13095.0,2681.0,8795.0,3052.0,2397.0,3134.0,375.0,2025-07-16 19:49:30,98.0,,-0.093269336963617,-2.57128895072601,-0.481379578140405,,-6.351875821685301,,
,13101.0,2681.0,8797.0,3054.0,2406.0,3135.0,346.0,2025-07-16 19:49:31,98.0,,-0.0932071694955597,-2.57152360981969,-0.48094138096645,,-6.443453190741881,,
,13100.0,2682.0,8800.0,3051.0,2403.0,3133.0,359.0,2025-07-16 19:49:32,99.0,,-0.0932661141855373,-2.57164831817376,-0.482395841600321,,-6.515026266228072,,
,13100.0,2680.0,8804.0,3053.0,2400.0,3121.0,377.0,2025-07-16 19:49:33,99.0,,-0.0930818353279447,-2.57147966357263,-0.482847521663128,,-6.5688696773393165,,
,13102.0,2682.0,8799.0,3053.0,2403.0,3127.0,390.0,2025-07-16 19:49:34,99.0,,-0.09313859031781,-2.57130920142578,-0.481728825290809,,-6.60768562226858,,
,13103.0,2680.0,8802.0,3054.0,2394.0,3122.0,407.0,2025-07-16 19:49:35,99.0,,-0.0930756022701547,-2.57120901116755,-0.482623855596492,,-6.634452864545608,,
,13106.0,2680.0,8806.0,3057.0,2404.0,3121.0,403.0,2025-07-16 19:49:36,99.0,,-0.0929611192088395,-2.57087526720824,-0.481968557057286,,-6.652266705361552,,
,13104.0,2682.0,8807.0,3056.0,2402.0,3145.0,391.0,2025-07-16 19:49:37,99.0,,-0.0929574933776007,-2.57046811444785,-0.48242686811301,,-6.6641794263115735,,
,13102.0,2682.0,8812.0,3057.0,2403.0,3129.0,382.0,2025-07-16 19:49:38,99.0,,-0.0929485731190197,-2.57056920935976,-0.48080514854619,,-6.673045262424975,,
,13104.0,2684.0,8818.0,3061.0,2404.0,3125.0,370.0,2025-07-16 19:49:39,99.0,,-0.092980004600492,-2.57054491804819,-0.48395170414652,,-6.681368662475152,,
,13109.0,2684.0,8816.0,3059.0,2410.0,3122.0,381.0,2025-07-16 19:49:40,99.0,,-0.093053521597011,-2.57092015250141,-0.482969026344478,,-6.6911513587171765,,
,13107.0,2685.0,8819.0,3060.0,2413.0,3123.0,379.0,2025-07-16 19:49:41,100.0,,-0.0930901495401976,-2.5704447188168,-0.483018785647196,,-6.7037344823463885,,
,13107.0,2683.0,8822.0,3056.0,2409.0,3141.0,377.0,2025-07-16 19:49:42,101.0,,-0.0930993652036081,-2.57075054041118,-0.482970078448524,,-6.719637078508944,,
,13111.0,2684.0,8825.0,3060.0,2413.0,3133.0,388.0,2025-07-16 19:49:43,101.0,,-0.093222547433205,-2.57088852621738,-0.483157395736428,,-6.738400241464404,,
,13109.0,2685.0,8824.0,3062.0,2411.0,3133.0,364.0,2025-07-16 19:49:44,101.0,,-0.0933289762122657,-2.57112979660179,-0.482735562580726,,-6.758453869984126,,
,13110.0,2684.0,8831.0,3065.0,2409.0,3140.0,382.0,2025-07-16 19:49:45,102.0,,-0.0932338475616956,-2.57100625635623,-0.484487053260571,,-6.777028291302261,,
,13110.0,2684.0,8831.0,3063.0,2403.0,3153.0,374.0,2025-07-16 19:49:46,102.0,,-0.0932152492184714,-2.57055993464993,-0.483239259638399,,-6.790134391899956,,
,13113.0,2684.0,8833.0,3064.0,2402.0,3149.0,372.0,2025-07-16 19:49:47,102.0,,-0.0932462133397565,-2.570744223674,-0.484479182580647,,-6.792632967038743,,
,13114.0,2687.0,8836.0,3069.0,2409.0,3158.0,392.0,2025-07-16 19:49:48,102.0,,-0.09327613743489,-2.57076671832776,-0.485822484364231,,-6.778406775764872,,
,13114.0,2688.0,8838.0,3065.0,2413.0,3159.0,396.0,2025-07-16 19:49:49,101.0,,-0.0933422595785411,-2.57112480256015,-0.48596363046215,,-6.740637677106975,,
,13109.0,2684.0,8839.0,3068.0,2408.0,3164.0,380.0,2025-07-16 19:49:50,100.0,,-0.0934070918441473,-2.57111050029568,-0.486064764744682,,-6.672177243508689,,
,13111.0,2687.0,8838.0,3067.0,2413.0,3149.0,389.0,2025-07-16 19:49:51,99.0,,-0.0935329050401033,-2.57124907987302,-0.486368340269943,,-6.565984399055141,,
,13110.0,2685.0,8837.0,3067.0,2412.0,3131.0,390.0,2025-07-16 19:49:52,98.0,,-0.0936241758106712,-2.57168885190718,-0.48686000429106,,-6.415591035387886,,
,13109.0,2687.0,8833.0,3068.0,2399.0,3135.0,407.0,2025-07-16 19:49:53,98.0,,-0.0937108367741197,-2.57173443885956,-0.487962120425166,,-6.215549639233307,,
,13104.0,2682.0,8827.0,3063.0,2399.0,3134.0,409.0,2025-07-16 19:49:54,97.0,,-0.0937397120840805,-2.57175910041152,-0.487871901902888,,-5.961817727676628,,
,13102.0,2679.0,8819.0,3063.0,2398.0,3137.0,418.0,2025-07-16 19:49:55,97.0,,-0.0939112245430746,-2.57209509984946,-0.488116409783116,,-5.6520418046747265,,
,13097.0,2681.0,8815.0,3059.0,2394.0,3117.0,395.0,2025-07-16 19:49:56,98.0,,-0.0939306213992538,-2.57257010419685,-0.488641464227633,,-5.285716204332564,,
,13099.0,2680.0,8806.0,3057.0,2394.0,3123.0,394.0,2025-07-16 19:49:57,99.0,,-0.0938645359023216,-2.57231815100992,-0.489269381960832,,-4.864206768966517,,
,13092.0,2674.0,8795.0,3053.0,2401.0,3119.0,387.0,2025-07-16 19:49:58,99.0,,-0.0941199969682235,-2.57280857142399,-0.490010210965623,,-4.390643481617301,,
,13091.0,2670.0,8789.0,3051.0,2393.0,3111.0,370.0,2025-07-16 19:49:59,100.0,,-0.0941817601288188,-2.57267771563883,-0.490811596773089,,-3.8696980757878428,,
,13091.0,2668.0,8781.0,3046.0,2394.0,3111.0,394.0,2025-07-16 19:50:00,100.0,,-0.0941202875631477,-2.57298333301932,-0.490676303522821,,-3.3072708880372477,,
,13087.0,2668.0,8775.0,3045.0,2407.0,3120.0,375.0,2025-07-16 19:50:01,100.0,,-0.094290668983501,-2.57281490739943,-0.490438080965035,,-2.710115188549257,,
,13085.0,2664.0,8771.0,3042.0,2413.0,3129.0,367.0,2025-07-16 19:50:02,101.0,,-0.0943069409686931,-2.57276985989274,-0.490569194293604,,-2.0854274959148356,,
,13085.0,2661.0,8765.0,3042.0,2400.0,3144.0,372.0,2025-07-16 19:50:03,101.0,,-0.0942976606435479,-2.57300343668053,-0.489541449962067,,-1.4404307106772745,,
,13086.0,2660.0,8761.0,3038.0,2405.0,3141.0,395.0,2025-07-16 19:50:04,101.0,,-0.094213778954307,-2.57290064532444,-0.490218271765763,,-0.7819753497281644,,
,13086.0,2661.0,8759.0,3038.0,2395.0,3152.0,381.0,2025-07-16 19:50:05,102.0,,-0.0943936942186802,-2.57271047973804,-0.490349515054257,,-0.11618373099043917,,
,13086.0,2661.0,8757.0,3037.0,2401.0,3144.0,360.0,2025-07-16 19:50:06,102.0,,-0.0944601948964641,-2.57257591898521,-0.490455644722975,,0.5518380558409232,,
,13087.0,2659.0,8758.0,3032.0,2411.0,3144.0,369.0,2025-07-16 19:50:07,102.0,,-0.0945778203257008,-2.57268507491788,-0.491679586942962,,1.2181968110339114,,
,13087.0,2660.0,8753.0,3034.0,2414.0,3149.0,370.0,2025-07-16 19:50:08,101.0,,-0.0944694259638578,-2.57281213008738,-0.490130355951472,,1.880297752574645,,
,13090.0,2662.0,8756.0,3035.0,2407.0,3136.0,382.0,2025-07-16 19:50:09,100.0,,-0.0945929719888585,-2.5730765029905,-0.491849483001747,,2.536805933865295,,
,13086.0,2662.0,8758.0,3033.0,2414.0,3143.0,368.0,2025-07-16 19:50:10,99.0,,-0.0946345602443437,-2.5732798521924,-0.491539801785582,,3.1874801922515204,,
,13091.0,2664.0,8762.0,3035.0,2409.0,3138.0,364.0,2025-07-16 19:50:11,98.0,,-0.0947430001076636,-2.57326233314577,-0.4914865387193,,3.8328882640403874,,
,13091.0,2664.0,8762.0,3034.0,2407.0,3160.0,367.0,2025-07-16 19:50:12,97.0,,-0.0947804271615882,-2.5732023843388,-0.490654009976601,,4.47402498355603,,
,13091.0,2664.0,8763.0,3036.0,2400.0,3178.0,387.0,2025-07-16 19:50:13,97.0,,-0.0948104454715667,-2.5734126322053,-0.48999522880929,,5.111868081376544,,
,13094.0,2667.0,8766.0,3037.0,2413.0,3155.0,372.0,2025-07-16 19:50:14,96.0,,-0.0950148408475125,-2.57347210942616,-0.49141905586063,,5.746915495724848,,
,13095.0,2668.0,8769.0,3039.0,2410.0,3141.0,385.0,2025-07-16 19:50:15,96.0,,-0.0949362346683267,-2.57376281125101,-0.491821772170953,,6.378751802175343,,
,13094.0,2666.0,8771.0,3038.0,2413.0,3141.0,371.0,2025-07-16 19:50:16,97.0,,-0.0949673617217781,-2.57371121325456,-0.491276065455689,,7.005687723768607,,
,13099.0,2667.0,8776.0,3041.0,2410.0,3155.0,384.0,2025-07-16 19:50:17,97.0,,-0.0949881694997875,-2.57383947535296,-0.492112422954167,,7.624506180535703,,
,13101.0,2666.0,8779.0,3041.0,2401.0,3145.0,390.0,2025-07-16 19:50:18,97.0,,-0.095115130156405,-2.5738868436391,-0.491686597655358,,8.230333746847558,,
,13101.0,2670.0,8780.0,3044.0,2398.0,3123.0,395.0,2025-07-16 19:50:19,97.0,,-0.0951183498110966,-2.57386724149524,-0.49273358187958,,8.816641298704846,,
,13105.0,2668.0,8784.0,3042.0,2399.0,3119.0,399.0,2025-07-16 19:50:20,97.0,,-0.0952262688342445,-2.5740517536703,-0.492515783293222,,9.375364946992743,,
,13103.0,2669.0,8785.0,3044.0,2409.0,3129.0,395.0,2025-07-16 19:50:21,97.0,,-0.0952866544575536,-2.5742472500869,-0.492459019152301,,9.897130062758231,,
,13105.0,2670.0,8790.0,3047.0,2403.0,3147.0,402.0,2025-07-16 19:50:22,97.0,,-0.0953597066417625,-2.57418037660369,-0.493615214345569,,10.371558631560369,,
,13104.0,2673.0,8790.0,3048.0,2392.0,3151.0,389.0,2025-07-16 19:50:23,96.0,,-0.0953712777251621,-2.5741776486559,-0.492109713132716,,10.787643444589918,,
,13106.0,2673.0,8791.0,3050.0,2388.0,3154.0,402.0,2025-07-16 19:50:24,96.0,,-0.095510671120821,-2.57427943608177,-0.49286630309572,,11.134179706801962,,
,13104.0,2672.0,8791.0,3048.0,2397.0,3151.0,407.0,2025-07-16 19:50:25,96.0,,-0.0955302202772882,-2.57420959354193,-0.493908268617784,,11.400251174896974,,
,13106.0,2671.0,8790.0,3049.0,2397.0,3124.0,413.0,2025-07-16 19:50:26,96.0,,-0.0955954633460993,-2.57452872861112,-0.493081865852888,,11.575768803344554,,
,13107.0,2672.0,8794.0,3051.0,2401.0,3140.0,421.0,2025-07-16 19:50:27,96.0,,-0.0956664511190673,-2.57459773899995,-0.493621457332729,,11.652052013011579,,
,13107.0,2673.0,8792.0,3049.0,2402.0,3143.0,411.0,2025-07-16 19:50:28,95.0,,-0.0957322771959338,-2.57463273302031,-0.495212714616758,,11.62242728295119,,
,13105.0,2670.0,8792.0,3050.0,2407.0,3131.0,419.0,2025-07-16 19:50:29,96.0,,-0.095895594527445,-2.57483578688945,-0.495125741662239,,11.482800706255913,,
,13109.0,2671.0,8793.0,3050.0,2404.0,3131.0,395.0,2025-07-16 19:50:30,96.0,,-0.0958436892863908,-2.57522175234854,-0.494441498732326,,11.232146467296353,,
,13108.0,2673.0,8792.0,3052.0,2403.0,3129.0,397.0,2025-07-16 19:50:31,97.0,,-0.096110407209672,-2.57512250201974,-0.495318524819068,,10.872846772211508,,
,13107.0,2671.0,8791.0,3051.0,2405.0,3137.0,408.0,2025-07-16 19:50:32,98.0,,-0.0960115373489762,-2.57500993940663,-0.492841051795033,,10.41082353949042,,
,13108.0,2672.0,8790.0,3052.0,2409.0,3133.0,387.0,2025-07-16 19:50:33,99.0,,-0.0961274640743466,-2.57509714762553,-0.494563465249352,,9.855418941738739,,
,13105.0,2670.0,8790.0,3048.0,2412.0,3128.0,395.0,2025-07-16 19:50:34,99.0,,-0.0962954097358563,-2.57507325990763,-0.494894909570978,,9.219009113208598,,
,13105.0,2671.0,8790.0,3051.0,2417.0,3147.0,392.0,2025-07-16 19:50:35,100.0,,-0.0963358542700885,-2.57509886790457,-0.496224832136722,,8.516369067806894,,
,13108.0,2672.0,8789.0,3050.0,2408.0,3165.0,382.0,2025-07-16 19:50:36,101.0,,-0.0963287927175276,-2.57543328017961,-0.495765800242205,,7.763841235604801,,
,13108.0,2670.0,8791.0,3048.0,2414.0,3157.0,391.0,2025-07-16 19:50:37,102.0,,-0.0963242870096057,-2.57559426563124,-0.49529801583963,,6.978388014572023,,
,13106.0,2669.0,8791.0,3049.0,2404.0,3145.0,404.0,2025-07-16 19:50:38,103.0,,-0.0963888043566027,-2.57579864915248,-0.496003220899413,,6.176623960127767,,
,13107.0,2670.0,8791.0,3049.0,2409.0,3137.0,358.0,2025-07-16 19:50:39,103.0,,-0.0963405478449882,-2.57574934133745,-0.495336057294703,,5.37392249284163,,
,13109.0,2672.0,8792.0,3047.0,2404.0,3149.0,363.0,2025-07-16 19:50:40,103.0,,-0.0965411828493303,-2.57579427971669,-0.494936879781107,,4.58367670188365,,
2025-07-16 19:48:26,13108.0,2672.0,8793.0,3049.0,2398.0,3154.0,364.0,2025-07-16 19:50:41,102.0,2025/07/16 07:48:26 PM,-0.0965371145829438,-2.57540177112673,-0.495046735573566,,3.816768848844746,,
,13108.0,2671.0,8794.0,3049.0,2401.0,3162.0,365.0,2025-07-16 19:50:42,101.0,,-0.0965290470524047,-2.57545062586513,-0.495865378035055,,3.0812744423393763,,
,13109.0,2674.0,8792.0,3050.0,2402.0,3136.0,358.0,2025-07-16 19:50:43,99.0,,-0.0965550349735142,-2.57558194685777,-0.494663753003011,,2.3823994216153803,,
,13106.0,2670.0,8795.0,3052.0,2404.0,3115.0,360.0,2025-07-16 19:50:44,98.0,,-0.0965497268407627,-2.57585737898806,-0.494494649836353,,1.722626825657208,,
,13113.0,2672.0,8797.0,3052.0,2396.0,3105.0,368.0,2025-07-16 19:50:45,98.0,,-0.0963601256685798,-2.5758638378588,-0.494611827728312,,1.1020344748976754,,
,13109.0,2673.0,8801.0,3051.0,2392.0,3104.0,376.0,2025-07-16 19:50:46,98.0,,-0.0965948506384202,-2.57585807759145,-0.493861057096376,,0.5187380251123599,,
,13112.0,2671.0,8798.0,3050.0,2405.0,3111.0,387.0,2025-07-16 19:50:47,98.0,,-0.0965314533905338,-2.57564317782033,-0.49622994020609,,-0.030587050271888225,,
,13110.0,2673.0,8800.0,3053.0,2407.0,3118.0,391.0,2025-07-16 19:50:48,99.0,,-0.0966638519403552,-2.57560698294981,-0.494644619799532,,-0.550147981942412,,
,13114.0,2672.0,8803.0,3053.0,2396.0,3121.0,399.0,2025-07-16 19:50:49,100.0,,-0.0965770469295014,-2.57558624908958,-0.494533188061216,,-1.0444811622471946,,
,13116.0,2671.0,8806.0,3054.0,2388.0,3124.0,414.0,2025-07-16 19:50:50,100.0,,-0.0966475404289872,-2.57549832767256,-0.493788978857873,,-1.5179387071705435,,
,13112.0,2671.0,8804.0,3056.0,2396.0,3125.0,415.0,2025-07-16 19:50:51,101.0,,-0.0965876797454553,-2.57544189500019,-0.494222476352391,,-1.9742484581804645,,
,13114.0,2673.0,8808.0,3056.0,2404.0,3120.0,404.0,2025-07-16 19:50:52,101.0,,-0.0967488304674187,-2.57537532486239,-0.49359342459648,,-2.4161765595272855,,
,13117.0,2673.0,8810.0,3055.0,2411.0,3149.0,389.0,2025-07-16 19:50:53,101.0,,-0.0968167538874097,-2.5753725338979,-0.495142381380242,,-2.84531460131835,,
,13117.0,2674.0,8813.0,3059.0,2411.0,3157.0,399.0,2025-07-16 19:50:54,101.0,,-0.0968363722702344,-2.57519796722046,-0.495091032623413,,-3.2620030811546776,,
,13116.0,2675.0,8813.0,3058.0,2413.0,3138.0,369.0,2025-07-16 19:50:55,101.0,,-0.0969158287857923,-2.57510615758063,-0.494323859918378,,-3.665390701994823,,
,13121.0,2672.0,8813.0,3057.0,2412.0,3112.0,377.0,2025-07-16 19:50:56,101.0,,-0.0966798841920221,-2.57520051558928,-0.49479959568645,,-4.053616264609315,,
,13119.0,2674.0,8818.0,3061.0,2406.0,3120.0,382.0,2025-07-16 19:50:57,101.0,,-0.0967250769928933,-2.57527738407178,-0.494380706976419,,-4.4240879485232405,,
,13120.0,2671.0,8820.0,3060.0,2417.0,3137.0,395.0,2025-07-16 19:50:58,101.0,,-0.0967527035998512,-2.57539213322998,-0.493730707176686,,-4.773824797966761,,
,13124.0,2673.0,8819.0,3063.0,2416.0,3138.0,395.0,2025-07-16 19:50:59,101.0,,-0.0968352269235575,-2.57551692325074,-0.495001041160976,,-5.099818631596321,,
,13120.0,2672.0,8821.0,3059.0,2413.0,3137.0,391.0,2025-07-16 19:51:00,101.0,,-0.0967372920126929,-2.57544262430091,-0.494514673939036,,-5.39937308806988,,
,13122.0,2675.0,8827.0,3064.0,2419.0,3141.0,377.0,2025-07-16 19:51:01,101.0,,-0.0968840797427625,-2.57546316023188,-0.493703191199511,,-5.67038149386664,,
,13121.0,2674.0,8827.0,3063.0,2422.0,3153.0,373.0,2025-07-16 19:51:02,101.0,,-0.0967044568811996,-2.57555461245102,-0.493881542641376,,-5.911516535576221,,
,13126.0,2675.0,8831.0,3065.0,2418.0,3163.0,382.0,2025-07-16 19:51:03,101.0,,-0.0967622263015894,-2.57567650141051,-0.494814667270875,,-6.122319977325048,,
,13123.0,2672.0,8828.0,3063.0,2398.0,3162.0,404.0,2025-07-16 19:51:04,101.0,,-0.0968379050485947,-2.57567213791332,-0.49547876811109,,-6.303196204477478,,
,13121.0,2675.0,8828.0,3062.0,2415.0,3157.0,408.0,2025-07-16 19:51:05,102.0,,-0.0968352212143927,-2.57571037914231,-0.495791488201181,,-6.4553259808642265,,
,13121.0,2675.0,8825.0,3065.0,2416.0,3146.0,412.0,2025-07-16 19:51:06,102.0,,-0.0969761802327392,-2.57577343667839,-0.495117890009231,,-6.580524828343408,,
,13118.0,2673.0,8820.0,3063.0,2415.0,3137.0,402.0,2025-07-16 19:51:07,102.0,,-0.096975672065335,-2.57575710842552,-0.495365625158841,,-6.681073581439618,,
,13114.0,2674.0,8815.0,3062.0,2408.0,3101.0,383.0,2025-07-16 19:51:08,102.0,,-0.0970492661693514,-2.57611775874354,-0.496887360252426,,-6.759547271648054,,
,13109.0,2668.0,8808.0,3059.0,2397.0,3111.0,407.0,2025-07-16 19:51:09,102.0,,-0.0971564187843644,-2.57638751763588,-0.495706682118178,,-6.8186631239482125,,
,13107.0,2665.0,8802.0,3059.0,2394.0,3128.0,401.0,2025-07-16 19:51:10,101.0,,-0.0971568253585088,-2.57656750902021,-0.49579419550984,,-6.861159980478478,,
,13105.0,2663.0,8796.0,3053.0,2393.0,3110.0,388.0,2025-07-16 19:51:11,101.0,,-0.0973887395933316,-2.57669412294205,-0.497008237426039,,-6.889711423055818,,
,13099.0,2661.0,8782.0,3051.0,2391.0,3108.0,387.0,2025-07-16 19:51:12,101.0,,-0.0974935413932733,-2.57703148822949,-0.49821429980556,,-6.906865576323672,,
,13099.0,2655.0,8772.0,3046.0,2405.0,3117.0,383.0,2025-07-16 19:51:13,102.0,,-0.097533249173326,-2.57707288998743,-0.498734887519125,,-6.914998620237243,,
,13096.0,2651.0,8765.0,3044.0,2413.0,3130.0,365.0,2025-07-16 19:51:14,102.0,,-0.0976186146489632,-2.57699397986014,-0.498272035394984,,-6.916267978041164,,
,13093.0,2648.0,8757.0,3042.0,2412.0,3140.0,383.0,2025-07-16 19:51:15,103.0,,-0.0977580835977194,-2.57729932034446,-0.498456601186293,,-6.9125545120906065,,
,13096.0,2648.0,8749.0,3038.0,2412.0,3133.0,374.0,2025-07-16 19:51:16,104.0,,-0.0978913248006117,-2.57731181681636,-0.498547961380137,,-6.905388785205928,,
,13093.0,2645.0,8742.0,3035.0,2411.0,3124.0,353.0,2025-07-16 19:51:17,103.0,,-0.0981220346307819,-2.57758969674594,-0.499399630015657,,-6.895862329184002,,
,13089.0,2643.0,8742.0,3035.0,2421.0,3119.0,370.0,2025-07-16 19:51:18,103.0,,-0.0979659849676747,-2.57775441586689,-0.499120777857084,,-6.884529661275584,,
,13094.0,2644.0,8736.0,3033.0,2420.0,3115.0,378.0,2025-07-16 19:51:19,103.0,,-0.0978632583834037,-2.57759675620091,-0.498142886910803,,-6.87131015636056,,
,13095.0,2640.0,8735.0,3032.0,2420.0,3126.0,389.0,2025-07-16 19:51:20,103.0,,-0.0979499873171486,-2.57766022151556,-0.49830799861275,,-6.855400736776508,,
,13092.0,2644.0,8734.0,3034.0,2416.0,3151.0,384.0,2025-07-16 19:51:21,103.0,,-0.0980681165436009,-2.57744943780421,-0.49921700449937,,-6.835210497797782,,
,13093.0,2643.0,8730.0,3029.0,2422.0,3130.0,357.0,2025-07-16 19:51:22,104.0,,-0.0978320748972324,-2.57745881327673,-0.498741093040632,,-6.808326705416587,,
,13092.0,2643.0,8731.0,3034.0,2423.0,3139.0,343.0,2025-07-16 19:51:23,104.0,,-0.0980387949075401,-2.57773634216976,-0.4981352174455,,-6.771518482036728,,
,13098.0,2645.0,8734.0,3032.0,2423.0,3148.0,327.0,2025-07-16 19:51:24,105.0,,-0.0980569731836742,-2.57730234967124,-0.498101101510426,,-6.720781156326319,,
,13098.0,2648.0,8735.0,3032.0,2419.0,3143.0,332.0,2025-07-16 19:51:25,105.0,,-0.0979904932178306,-2.57768409397271,-0.499812390727472,,-6.6514222004291685,,
,13097.0,2648.0,8737.0,3030.0,2419.0,3141.0,351.0,2025-07-16 19:51:26,106.0,,-0.0981185425317712,-2.57765376128011,-0.497276558127048,,-6.558189515584204,,
,13102.0,2649.0,8739.0,3035.0,2423.0,3135.0,355.0,2025-07-16 19:51:27,105.0,,-0.0982638983112161,-2.57755107472059,-0.498112621772116,,-6.435443653403276,,
,13102.0,2651.0,8744.0,3033.0,2410.0,3136.0,374.0,2025-07-16 19:51:28,105.0,,-0.0982410038265198,-2.57767286049523,-0.499244846921746,,-6.277375747250791,,
,13104.0,2649.0,8748.0,3033.0,2410.0,3135.0,388.0,2025-07-16 19:51:29,105.0,,-0.0983324764559724,-2.57777647550432,-0.499067100949626,,-6.078271420253557,,
,13105.0,2650.0,8747.0,3034.0,2412.0,3132.0,382.0,2025-07-16 19:51:30,104.0,,-0.0982655415724546,-2.5779557994202,-0.498209616031897,,-5.832817599016544,,
,13104.0,2650.0,8751.0,3037.0,2416.0,3125.0,394.0,2025-07-16 19:51:31,104.0,,-0.0983178160630489,-2.57814036280242,-0.498375506418597,,-5.536444149550132,,
,13104.0,2653.0,8754.0,3041.0,2409.0,3134.0,394.0,2025-07-16 19:51:32,104.0,,-0.0984011905788988,-2.57824811859726,-0.498466147448665,,-5.18568556104708,,
,13108.0,2654.0,8759.0,3040.0,2410.0,3143.0,408.0,,,,-0.0983496976843019,-2.57841987880714,-0.499539006617915,,-4.77853971418556,,
,13111.0,2653.0,8762.0,3041.0,2417.0,3146.0,410.0,,,,-0.0983898032655656,-2.57845144230805,-0.499742348294771,,-4.314792184527773,,
,13109.0,2654.0,8764.0,3040.0,2413.0,3141.0,407.0,,,,-0.0985389129099735,-2.57832809561602,-0.498444877789862,,-3.7962679961212817,,
,13112.0,2656.0,8765.0,3042.0,2415.0,3140.0,406.0,,,,-0.0986314587714833,-2.57869664475758,-0.499556188355727,,-3.226971402967869,,
,13114.0,2655.0,8767.0,3047.0,2416.0,3124.0,407.0,,,,-0.0987238563809539,-2.57888629597641,-0.499314466124757,,-2.6130802444729087,,
,13110.0,2655.0,8769.0,3046.0,2412.0,3123.0,401.0,,,,-0.0989119315251868,-2.57900981318399,-0.499703026156291,,-1.962774487416023,,
,13114.0,2654.0,8767.0,3045.0,2407.0,3123.0,405.0,,,,-0.0992084718217039,-2.57916257090531,-0.500254270054022,,-1.2858967596397388,,
,13114.0,2656.0,8768.0,3048.0,2410.0,3120.0,380.0,,,,-0.0992220464693798,-2.57932601281726,-0.50166290439438,,-0.5934635596209106,,
,13115.0,2656.0,8772.0,3046.0,2408.0,3128.0,392.0,,,,-0.0993465602396686,-2.57950928483727,-0.50131470715794,,0.1029334086928345,,
,13115.0,2658.0,8769.0,3045.0,2415.0,3127.0,411.0,,,,-0.0996117444533385,-2.57961043906786,-0.50265602038172,,0.7917795571651931,,
,13112.0,2657.0,8769.0,3047.0,2403.0,3150.0,381.0,,,,-0.0998259171708035,-2.57996312359882,-0.502643446367815,,1.4622788765558605,,
,13115.0,2655.0,8769.0,3046.0,2410.0,3133.0,389.0,,,,-0.0999920061677761,-2.58036028786106,-0.504282296032963,,2.104923074310598,,
,13118.0,2657.0,8770.0,3049.0,2415.0,3136.0,393.0,,,,-0.100017474548792,-2.58045333354729,-0.50461087698162,,2.7119404999650145,,
,13116.0,2655.0,8767.0,3049.0,2410.0,3116.0,368.0,,,,-0.100252314556173,-2.58073958161527,-0.505101865578706,,3.277596618514404,,
,13119.0,2658.0,8768.0,3048.0,2404.0,3121.0,364.0,,,,-0.100148575804993,-2.58097058090911,-0.503916401003053,,3.798337619549991,,
,13114.0,2656.0,8767.0,3045.0,2404.0,3130.0,373.0,,,,-0.100447187936027,-2.58099048548949,-0.504097585082007,,4.272784288109612,,
,13114.0,2658.0,8766.0,3048.0,2412.0,3134.0,387.0,,,,-0.100477857932393,-2.58104595174438,-0.505057118106511,,4.701592989247353,,
,13117.0,2657.0,8769.0,3048.0,2421.0,3125.0,390.0,,,,-0.100595189545312,-2.58134572496009,-0.503753140831653,,5.087205419558678,,
,13117.0,2659.0,8765.0,3049.0,2418.0,3115.0,388.0,,,,-0.10067518857245,-2.58123056614969,-0.504005344040894,,5.4335103617304465,,
,13113.0,2655.0,8766.0,3046.0,2412.0,3124.0,365.0,,,,-0.100642615696655,-2.58147734880866,-0.504375542962372,,5.745440537849931,,
,13115.0,2656.0,8768.0,3047.0,2417.0,3119.0,366.0,,,,-0.100729333067804,-2.58123220441777,-0.504130768699504,,6.028527018071898,,
,13120.0,2657.0,8765.0,3045.0,2411.0,3130.0,378.0,,,,-0.101000925850128,-2.58156164214078,-0.504472415459922,,6.288433582190985,,
,13120.0,2658.0,8771.0,3047.0,2419.0,3124.0,381.0,,,,-0.100820290642751,-2.58182091763998,-0.504329362178888,,6.530494644273901,,
,13120.0,2655.0,8766.0,3045.0,2412.0,3137.0,372.0,,,,-0.101103086589056,-2.58178120408393,-0.505664104595428,,6.759282632143694,,
,13117.0,2656.0,8769.0,3045.0,2417.0,3133.0,333.0,,,,-0.101115667360973,-2.58196728052275,-0.505059379274,,6.978232570168667,,
,13118.0,2657.0,8771.0,3051.0,2412.0,3124.0,365.0,,,,-0.101152654411333,-2.58193309074235,-0.505944189758454,,7.18935064073543,,
,13119.0,2658.0,8773.0,3046.0,2402.0,3119.0,377.0,,,,-0.101282547626144,-2.58193459453565,-0.505326672132524,,7.393027880295847,,
,13123.0,2657.0,8772.0,3050.0,2407.0,3124.0,376.0,,,,-0.101381943996138,-2.58223587948458,-0.505859587385742,,7.587970204280494,,
,13121.0,2658.0,8776.0,3046.0,2409.0,3129.0,352.0,,,,-0.101598610229398,-2.58235621229094,-0.505975248167757,,7.77124408350049,,
,13120.0,2659.0,8775.0,3051.0,2413.0,3100.0,365.0,,,,-0.101718295187614,-2.58263335065249,-0.505460633180713,,7.938426554959482,,
,13123.0,2660.0,8781.0,3053.0,2419.0,3115.0,374.0,,,,-0.101988458313964,-2.58319340249094,-0.50710454534808,,8.083841343950578,,
,13125.0,2660.0,8782.0,3054.0,2416.0,3114.0,381.0,,,,-0.102132633728209,-2.58310667199758,-0.508283145136758,,8.200861022072088,,
,13123.0,2658.0,8780.0,3052.0,2403.0,3108.0,399.0,,,,-0.102189201187733,-2.58340712987106,-0.508517992649459,,8.282258209114763,,
,13124.0,2659.0,8784.0,3054.0,2407.0,3101.0,404.0,,,,-0.102331783926969,-2.5834935891694,-0.508719161063087,,8.320594928034106,,
,13129.0,2662.0,8786.0,3052.0,2416.0,3112.0,387.0,,,,-0.102620840581666,-2.58377086194514,-0.510116293295133,,8.308644715479192,,
,13129.0,2660.0,8789.0,3056.0,2415.0,3107.0,379.0,,,,-0.102648037895757,-2.58376347633104,-0.510902127099999,,8.2398428682872,,
,13127.0,2662.0,8790.0,3057.0,2408.0,3135.0,385.0,,,,-0.102834384673697,-2.58405855554978,-0.510318838239175,,8.108753768527105,,
,13131.0,2660.0,8791.0,3056.0,2408.0,3132.0,399.0,,,,-0.102841614728927,-2.58411609999444,-0.511594194769163,,7.911531452661282,,
,13128.0,2663.0,8796.0,3058.0,2411.0,3130.0,387.0,,,,-0.102838936787287,-2.5842130713618,-0.510382206769231,,7.646334958725478,,
,13131.0,2665.0,8800.0,3060.0,2420.0,3131.0,391.0,,,,-0.103002505962137,-2.58434636653456,-0.510560852208569,,7.313649760077237,,
,13132.0,2663.0,8800.0,3061.0,2420.0,3143.0,398.0,,,,-0.103006925392696,-2.5840793691371,-0.510870782013704,,6.916465779422783,,
,13130.0,2664.0,8800.0,3058.0,2418.0,3152.0,392.0,,,,-0.102899021818505,-2.58391941725744,-0.510792438298024,,6.460272698280609,,
,13132.0,2664.0,8804.0,3061.0,2416.0,3143.0,378.0,,,,-0.103231427074206,-2.58397945111025,-0.510657784008333,,5.952852877548839,,
,13135.0,2664.0,8806.0,3063.0,2410.0,3161.0,373.0,,,,-0.103047684423142,-2.58397151811942,-0.511780079486398,,5.4038775952609965,,
,13134.0,2665.0,8809.0,3062.0,2412.0,3151.0,381.0,,,,-0.103034903485837,-2.5842658402904,-0.510599257784541,,4.824339024681261,,
,13134.0,2665.0,8808.0,3064.0,2416.0,3158.0,355.0,,,,-0.103164928899455,-2.58439468906182,-0.512108772185743,,4.225873672982659,,
,13131.0,2667.0,8809.0,3062.0,2410.0,3147.0,343.0,,,,-0.10310828046506,-2.58463352678979,-0.512765178988539,,3.6200485188223546,,
,13128.0,2668.0,8806.0,3065.0,2413.0,3141.0,362.0,,,,-0.103262669081438,-2.584603624359,-0.511988015226071,,3.0176856581662683,,
,13129.0,2664.0,8801.0,3063.0,2418.0,3133.0,361.0,,,,-0.103412560517906,-2.58501145691642,-0.512301293079081,,2.4282936946886213,,
,13124.0,2663.0,8798.0,3061.0,2412.0,3148.0,397.0,,,,-0.103584882315275,-2.58521997882952,-0.513353425708775,,1.8596558610725755,,
,13121.0,2661.0,8790.0,3058.0,2414.0,3126.0,421.0,,,,-0.103787542596164,-2.58555369367239,-0.514252656797849,,1.31760011782344,,
,13120.0,2660.0,8782.0,3057.0,2417.0,3130.0,401.0,,,,-0.103858992440902,-2.58575657133791,-0.514657146654154,,0.8059508476139766,,
,13116.0,2656.0,8770.0,3053.0,2411.0,3112.0,379.0,,,,-0.104139291228316,-2.58577810603099,-0.513752208508681,,0.3266401158710912,,
,13111.0,2649.0,8762.0,3049.0,2409.0,3105.0,379.0,,,,-0.104176881439624,-2.58589873122836,-0.514112044909031,,-0.12005838890308881,,
,13110.0,2646.0,8751.0,3045.0,2407.0,3110.0,376.0,,,,-0.104388608525111,-2.58617246341246,-0.515029219402535,,-0.5352167725122696,,
,13105.0,2642.0,8741.0,3042.0,2415.0,3113.0,386.0,,,,-0.104439755554483,-2.58644599325172,-0.514975247206893,,-0.920905481431924,,
,13107.0,2641.0,8735.0,3039.0,2408.0,3117.0,354.0,,,,-0.104211095120831,-2.58634503900575,-0.514230757468245,,-1.2798482782982221,,
,13104.0,2639.0,8731.0,3038.0,2402.0,3118.0,354.0,,,,-0.104515410276881,-2.5865468054369,-0.514992384772024,,-1.6151063368414076,,
,13103.0,2634.0,8721.0,3033.0,2395.0,3121.0,386.0,,,,-0.104391591514374,-2.58663718529424,-0.515096449793746,,-1.9298060492102866,,
,13101.0,2634.0,8714.0,3030.0,2401.0,3132.0,357.0,,,,-0.104671514102028,-2.58654618830046,-0.515636060646229,,-2.226914384106342,,
,13102.0,2632.0,8713.0,3030.0,2411.0,3131.0,357.0,,,,-0.104708080112135,-2.58646504431932,-0.516411359753583,,-2.5090587159103412,,
,13101.0,2637.0,8711.0,3029.0,2411.0,3128.0,360.0,,,,-0.104963609499827,-2.58721137383068,-0.515859432894567,,-2.778386243433876,,
,13102.0,2637.0,8710.0,3028.0,2413.0,3147.0,372.0,,,,-0.105088384483034,-2.58729012780735,-0.517156007230721,,-3.0364606211545104,,
,13103.0,2636.0,8707.0,3028.0,2419.0,3132.0,373.0,,,,-0.105254919977969,-2.58771715495743,-0.517832632190566,,-3.2841975897576314,,
,13104.0,2637.0,8710.0,3028.0,2422.0,3148.0,359.0,,,,-0.105486876589637,-2.58791832822189,-0.518974680872657,,-3.5218443680010663,,
,13106.0,2638.0,8712.0,3029.0,2415.0,3141.0,353.0,,,,-0.105484583948604,-2.5881452721412,-0.518608535196111,,-3.74900784548336,,
,13108.0,2638.0,8712.0,3028.0,2414.0,3149.0,333.0,,,,-0.105751437995469,-2.58815814036925,-0.518270371148039,,-3.964734196087045,,
,13108.0,2639.0,8717.0,3027.0,2419.0,3149.0,346.0,,,,-0.105795496638201,-2.58802671795599,-0.519187108366652,,-4.167638160736292,,
,13113.0,2642.0,8722.0,3029.0,2412.0,3146.0,368.0,,,,-0.105927970137886,-2.58789597374438,-0.517550253818198,,-4.356074777034312,,
,13115.0,2644.0,8726.0,3034.0,2413.0,3138.0,400.0,,,,-0.105584673228477,-2.58801185883987,-0.51690569947468,,-4.528340490868522,,
,13113.0,2645.0,8727.0,3031.0,2413.0,3142.0,391.0,,,,-0.105689817996717,-2.58790894064308,-0.517823301453246,,-4.68288500249709,,
,13116.0,2644.0,8728.0,3034.0,2407.0,3137.0,369.0,,,,-0.105807959823495,-2.5881170956744,-0.51832662229018,,-4.818510729900027,,
,13116.0,2645.0,8730.0,3034.0,2405.0,3148.0,369.0,,,,-0.105667340881829,-2.58787542981993,-0.517463284170565,,-4.934534891264747,,
,13117.0,2648.0,8735.0,3035.0,2409.0,3156.0,384.0,,,,-0.105620051487005,-2.58793043203255,-0.5184356381389,,-5.030891653177603,,
,13119.0,2649.0,8742.0,3037.0,2410.0,3124.0,377.0,,,,-0.105336402163849,-2.58813256079177,-0.517714265732043,,-5.108159189084968,,
,13120.0,2652.0,8743.0,3036.0,2410.0,3113.0,383.0,,,,-0.105367765734993,-2.58806685953605,-0.517739308405358,,-5.167507386171701,,
2025-07-16 19:48:27,13119.0,2648.0,8743.0,3039.0,2412.0,3121.0,388.0,,,2025/07/16 07:48:27 PM,-0.105410346154496,-2.58806978138528,-0.518259623367545,,-5.2105735215820665,,
,13122.0,2653.0,8746.0,3041.0,2411.0,3124.0,370.0,,,,-0.105516427327313,-2.58849556861266,-0.518260468499207,,-5.2392829927054585,,
,13123.0,2653.0,8753.0,3042.0,2407.0,3126.0,390.0,,,,-0.105761851182455,-2.58861409769459,-0.518882748739131,,-5.255638785572266,,
,13125.0,2654.0,8748.0,3041.0,2402.0,3128.0,391.0,,,,-0.105932789140315,-2.58871398867862,-0.518712949098,,-5.261506387199528,,
,13122.0,2654.0,8752.0,3041.0,2393.0,3125.0,395.0,,,,-0.106060328577,-2.5888660859208,-0.520494877997313,,-5.258420318376595,,
,13124.0,2656.0,8751.0,3045.0,2396.0,3147.0,393.0,,,,-0.106197448335252,-2.58912400010112,-0.521420018491739,,-5.2474346003591785,,
,13126.0,2656.0,8754.0,3044.0,2406.0,3134.0,408.0,,,,-0.106051949844468,-2.58898615359318,-0.520696104195184,,-5.229032647476665,,
,13127.0,2655.0,8755.0,3046.0,2406.0,3125.0,416.0,,,,-0.106243163865746,-2.5891599750062,-0.520459064743479,,-5.203103019849197,,
,13125.0,2658.0,8756.0,3046.0,2387.0,3137.0,398.0,,,,-0.106337479619633,-2.58906590647033,-0.520567830299669,,-5.168977625521949,,
,13124.0,2653.0,8757.0,3044.0,2405.0,3134.0,403.0,,,,-0.10627242210045,-2.58907853076027,-0.521617868612928,,-5.125520551862065,,
,13125.0,2657.0,8756.0,3046.0,2405.0,3134.0,398.0,,,,-0.106307340859511,-2.58917778375118,-0.520494330886877,,-5.07125086556614,,
,13125.0,2658.0,8757.0,3047.0,2411.0,3135.0,386.0,,,,-0.10626356549785,-2.58925340160406,-0.521794109300971,,-5.004482191235674,,
,13127.0,2659.0,8758.0,3043.0,2413.0,3118.0,381.0,,,,-0.106377269275941,-2.58927807332708,-0.520955074324797,,-4.9234645741122085,,
,13123.0,2656.0,8757.0,3044.0,2414.0,3131.0,380.0,,,,-0.106597601586688,-2.58957986173228,-0.520714293747861,,-4.826518057450687,,
,13123.0,2657.0,8757.0,3046.0,2408.0,3134.0,374.0,,,,-0.10645843245666,-2.58967963642301,-0.521254904116104,,-4.712150962994849,,
,13126.0,2659.0,8759.0,3046.0,2414.0,3128.0,402.0,,,,-0.106402009966152,-2.58979228016301,-0.522319503396121,,-4.5791584338019025,,
,13126.0,2661.0,8760.0,3044.0,2412.0,3137.0,375.0,,,,-0.106553268270648,-2.58998254329023,-0.521341297361776,,-4.426698478058636,,
,13125.0,2661.0,8761.0,3041.0,2413.0,3157.0,356.0,,,,-0.106500934653587,-2.59002697545937,-0.52231703011811,,-4.254343839024535,,
,13127.0,2657.0,8760.0,3044.0,2402.0,3126.0,365.0,,,,-0.106451848349797,-2.58969754698896,-0.522436999392005,,-4.062108662800056,,
,13128.0,2661.0,8764.0,3045.0,2407.0,3131.0,378.0,,,,-0.106435382188685,-2.58988861278641,-0.522743268651097,,-3.850449105267994,,
,13126.0,2664.0,8764.0,3046.0,2406.0,3136.0,392.0,,,,-0.106553686729939,-2.58974482959191,-0.520428101712506,,-3.6202368557831184,,
,13130.0,2661.0,8764.0,3045.0,2418.0,3120.0,383.0,,,,-0.106478326828077,-2.58958779485161,-0.521350662449854,,-3.3727048950684413,,
,13129.0,2661.0,8766.0,3045.0,2412.0,3126.0,393.0,,,,-0.106621410928432,-2.58985220001249,-0.520836407622334,,-3.109366912178055,,
,13132.0,2665.0,8770.0,3046.0,2411.0,3133.0,394.0,,,,-0.106603959217239,-2.59001470964496,-0.520764210566087,,-2.8319160285600926,,
,13130.0,2664.0,8769.0,3047.0,2410.0,3133.0,388.0,,,,-0.106671051228392,-2.58992299929206,-0.520750543890573,,-2.542113300628059,,
,13133.0,2668.0,8774.0,3048.0,2412.0,3127.0,384.0,,,,-0.106820401780326,-2.59002059987819,-0.519766696268836,,-2.241679429468385,,
,13133.0,2665.0,8776.0,3049.0,2418.0,3129.0,364.0,,,,-0.106653668922854,-2.59011971034845,-0.521151012523527,,-1.9322027235647037,,
,13133.0,2667.0,8782.0,3050.0,2416.0,3132.0,361.0,,,,-0.106735813312889,-2.59016570744474,-0.521305481581247,,-1.6150730880902673,,
,13134.0,2668.0,8783.0,3054.0,2406.0,3156.0,362.0,,,,-0.107063023471167,-2.5903785604817,-0.523399621503163,,-1.2914472544684528,,
,13133.0,2669.0,8782.0,3052.0,2412.0,3146.0,374.0,,,,-0.106787052956849,-2.59044725906801,-0.5219588037034,,-0.9622459302477121,,
,13134.0,2669.0,8787.0,3053.0,2404.0,3136.0,388.0,,,,-0.106948803105878,-2.59016430338156,-0.521285289902499,,-0.6281793388916529,,
,13135.0,2669.0,8788.0,3053.0,2409.0,3131.0,390.0,,,,-0.106932036107664,-2.5902224075505,-0.521948051888501,,-0.28979350181189556,,
,13139.0,2670.0,8792.0,3056.0,2416.0,3138.0,378.0,,,,-0.107095801054915,-2.59063966762637,-0.522233971636495,,0.05247407590016594,,
,13138.0,2672.0,8796.0,3058.0,2415.0,3139.0,389.0,,,,-0.107359389266926,-2.59052118963359,-0.522650309959872,,0.3982424958941808,,
,13139.0,2671.0,8797.0,3060.0,2414.0,3132.0,399.0,,,,-0.107239414508894,-2.59059988822642,-0.522625483967792,,0.7471508256716021,,
,13140.0,2671.0,8800.0,3058.0,2402.0,3133.0,382.0,,,,-0.107453415553288,-2.59064307697111,-0.523640447712791,,1.098842712462245,,
,13140.0,2675.0,8803.0,3062.0,2413.0,3125.0,350.0,,,,-0.107524008806089,-2.5907644432724,-0.522137875484861,,1.4529706944091205,,
,13142.0,2675.0,8807.0,3062.0,2404.0,3148.0,367.0,,,,-0.107381306698555,-2.59101300751973,-0.523397781408161,,1.8092117645389445,,
,13141.0,2674.0,8810.0,3061.0,2408.0,3153.0,381.0,,,,-0.107605174134128,-2.59073396913628,-0.523576776504281,,2.1672814235043956,,
,13143.0,2674.0,8808.0,3059.0,2417.0,3136.0,385.0,,,,-0.107480887428139,-2.59094465779199,-0.522818169818679,,2.526932286170571,,
,13143.0,2673.0,8814.0,3063.0,2413.0,3125.0,393.0,,,,-0.107412711665518,-2.59122838311091,-0.523828588989223,,2.887925140402739,,
,13143.0,2677.0,8818.0,3066.0,2413.0,3116.0,401.0,,,,-0.107463245146523,-2.59087927865573,-0.523534266421386,,3.249964972243218,,
,13146.0,2677.0,8820.0,3065.0,2414.0,3118.0,394.0,,,,-0.107280270430231,-2.59081055541475,-0.522493375850064,,3.61260154642182,,
,13146.0,2678.0,8821.0,3066.0,2421.0,3170.0,383.0,,,,-0.107242493632014,-2.59060037443866,-0.522087105571941,,3.9751026962245186,,
,13141.0,2676.0,8824.0,3066.0,2413.0,3154.0,354.0,,,,-0.107188332734581,-2.59035223109525,-0.522255964225903,,4.336316522618707,,
,13145.0,2679.0,8826.0,3067.0,2400.0,3169.0,350.0,,,,-0.106817819983779,-2.59055832205963,-0.523197103366857,,4.6945435772348585,,
,13141.0,2678.0,8821.0,3069.0,2396.0,3168.0,353.0,,,,-0.106884975092467,-2.59044530544818,-0.52322893333516,,5.047439812501704,,
,13140.0,2677.0,8821.0,3067.0,2395.0,3156.0,372.0,,,,-0.106882842518733,-2.59071740482906,-0.523166588080564,,5.391965638088608,,
,13135.0,2676.0,8813.0,3065.0,2396.0,3157.0,371.0,,,,-0.107039311429376,-2.59071701351292,-0.524207420830428,,5.72438793376555,,
,13131.0,2674.0,8809.0,3063.0,2407.0,3131.0,387.0,,,,-0.107102206254728,-2.59107714066804,-0.522037000714199,,6.040333174019345,,
,13135.0,2671.0,8804.0,3062.0,2411.0,3136.0,397.0,,,,-0.107197642599173,-2.59116891605323,-0.524408301139381,,6.33488307406765,,
,13126.0,2672.0,8794.0,3058.0,2414.0,3139.0,409.0,,,,-0.10726548416044,-2.59136953047066,-0.523748325691549,,6.60270051722855,,
,13128.0,2668.0,8786.0,3054.0,2402.0,3130.0,394.0,,,,-0.107340503302536,-2.59166114807007,-0.523479124889143,,6.838173485595547,,
,13122.0,2666.0,8780.0,3049.0,2395.0,3136.0,391.0,,,,-0.107444464651616,-2.5917690163631,-0.524334988121719,,7.035568341680681,,
,13120.0,2663.0,8773.0,3050.0,2394.0,3129.0,389.0,,,,-0.107620042301967,-2.59180799064608,-0.524766069503442,,7.189190373551172,,
,13115.0,2660.0,8763.0,3046.0,2387.0,3125.0,397.0,,,,-0.107624517875698,-2.59186998461187,-0.52582546193415,,7.29355703713211,,
,13116.0,2658.0,8760.0,3042.0,2399.0,3130.0,386.0,,,,-0.107754683313483,-2.59164567100891,-0.525311386148343,,7.343594533700652,,
,13114.0,2656.0,8755.0,3039.0,2405.0,3127.0,386.0,,,,-0.107751435280067,-2.59160925138728,-0.524899497524209,,7.33486773502524,,
,13116.0,2656.0,8747.0,3038.0,2406.0,3132.0,387.0,,,,-0.107720441716846,-2.5915356460128,-0.524353968483121,,7.263845254010141,,
,13117.0,2657.0,8745.0,3038.0,2405.0,3123.0,386.0,,,,-0.107764806614925,-2.59182195125826,-0.523957156041462,,7.128187220373088,,
,13116.0,2658.0,8745.0,3036.0,2410.0,3123.0,373.0,,,,-0.107779182310991,-2.59176289141316,-0.525191451411424,,6.927027621666291,,
,13115.0,2656.0,8741.0,3034.0,2413.0,3140.0,372.0,,,,-0.107835379997379,-2.59173986495246,-0.52440850097675,,6.6612114479122955,,
,13117.0,2658.0,8746.0,3035.0,2405.0,3148.0,367.0,,,,-0.107876041404615,-2.59141242662541,-0.524220475559925,,6.333443707736498,,
,13118.0,2659.0,8743.0,3035.0,2408.0,3149.0,380.0,,,,-0.107797464954288,-2.5918170528583,-0.52487397970522,,5.948314533611123,,
,13121.0,2661.0,8747.0,3034.0,2402.0,3156.0,384.0,,,,-0.107912718872369,-2.5917101961957,-0.525202567493582,,5.512180827609874,,
,13120.0,2659.0,8747.0,3034.0,2411.0,3145.0,366.0,,,,-0.10785497160955,-2.5918029575254,-0.525402393163112,,5.032906256742841,,
,13120.0,2662.0,8751.0,3034.0,2409.0,3141.0,392.0,,,,-0.107775660073951,-2.5919008996542,-0.5241531919885,,4.519482753802492,,
,13124.0,2661.0,8757.0,3037.0,2404.0,3153.0,402.0,,,,-0.107959870211093,-2.5921574068993,-0.524445405104352,,3.981573490741929,,
,13126.0,2663.0,8759.0,3038.0,2413.0,3155.0,392.0,,,,-0.107955127268552,-2.59189997355532,-0.523277061795851,,3.4290265358513694,,
,13126.0,2669.0,8760.0,3037.0,2410.0,3153.0,380.0,,,,-0.108017628475151,-2.59193032182579,-0.525123367053515,,2.871408742909152,,
,13127.0,2667.0,8765.0,3039.0,2407.0,3152.0,361.0,,,,-0.107845679294311,-2.59213305388586,-0.52382066890126,,2.317601512958408,,
,13132.0,2671.0,8767.0,3041.0,2400.0,3142.0,358.0,,,,-0.107891818083886,-2.59214684500397,-0.523939819721684,,1.7754866873323165,,
,13131.0,2671.0,8774.0,3042.0,2401.0,3137.0,381.0,,,,-0.107738597302796,-2.59184500434798,-0.523163107148098,,1.2517358438249313,,
,13134.0,2670.0,8778.0,3045.0,2401.0,3135.0,372.0,,,,-0.107461342867843,-2.59227884785224,-0.523233219093969,,0.7517029152441058,,
,13133.0,2672.0,8778.0,3046.0,2399.0,3130.0,371.0,,,,-0.107519247097992,-2.59227965507356,-0.524780701289011,,0.2794099421928084,,
,13135.0,2674.0,8782.0,3048.0,2398.0,3145.0,357.0,,,,-0.107572384806249,-2.59201067326217,-0.523591803177433,,-0.16239082106163177,,
,13139.0,2674.0,8789.0,3051.0,2396.0,3140.0,373.0,,,,-0.107845953267165,-2.59176489243892,-0.523763769784307,,-0.572098620778017,,
,13136.0,2674.0,8789.0,3050.0,2395.0,3127.0,393.0,,,,-0.107901874206059,-2.59204039884046,-0.524476325290086,,-0.9491105026845994,,
,13137.0,2674.0,8787.0,3048.0,2405.0,3142.0,410.0,,,,-0.107946842588214,-2.5919044448769,-0.524345419962327,,-1.2936510632868101,,
,13139.0,2674.0,8792.0,3052.0,2408.0,3149.0,390.0,,,,-0.107830691462045,-2.59216158510046,-0.524139050829959,,-1.6066005041622795,,
,13138.0,2676.0,8794.0,3054.0,2395.0,3138.0,404.0,,,,-0.107820409832826,-2.59205991773648,-0.523443565969244,,-1.8893305923424073,,
,13140.0,2678.0,8796.0,3054.0,2387.0,3128.0,408.0,,,,-0.107938041204705,-2.59211598857204,-0.523959080356188,,-2.1435532812739324,,
,13139.0,2679.0,8797.0,3055.0,2393.0,3127.0,415.0,,,,-0.107641433656243,-2.59202565891283,-0.524462110183794,,-2.3711839228488367,,
,13138.0,2676.0,8799.0,3053.0,2391.0,3144.0,389.0,,,,-0.107950268236808,-2.59207243975071,-0.523630809213231,,-2.5742205547143593,,
,13139.0,2680.0,8798.0,3056.0,2399.0,3139.0,397.0,,,,-0.107970654864222,-2.59220359682235,-0.524531765047645,,-2.754641509394694,,
,13141.0,2679.0,8799.0,3054.0,2410.0,3132.0,380.0,,,,-0.107965974119022,-2.59235651618131,-0.523212566683561,,-2.914324122417191,,
,13139.0,2680.0,8802.0,3055.0,2411.0,3128.0,374.0,,,,-0.107915132852807,-2.59234600279438,-0.525169736050833,,-3.0549871114490124,,
,13139.0,2681.0,8799.0,3055.0,2412.0,3146.0,396.0,,,,-0.107972043408373,-2.59234511075611,-0.524837304379232,,-3.1781585156579735,,
,13139.0,2681.0,8801.0,3054.0,2404.0,3150.0,411.0,,,,-0.108004213175502,-2.59230152546572,-0.525664176210744,,-3.28517005754814,,
,13140.0,2681.0,8803.0,3054.0,2405.0,3140.0,403.0,,,,-0.107955636605094,-2.5920456576205,-0.524560093599208,,-3.3771771056886513,,
,13141.0,2682.0,8803.0,3057.0,2404.0,3149.0,403.0,,,,-0.107750007907836,-2.59228856027667,-0.524028963204329,,-3.4552007038060792,,
,13143.0,2680.0,8802.0,3053.0,2413.0,3153.0,395.0,,,,-0.107851619321144,-2.59219075661463,-0.524050846280132,,-3.5201844683817933,,
,13141.0,2682.0,8803.0,3054.0,2410.0,3137.0,385.0,,,,-0.107809516402715,-2.591926607035,-0.524733144250772,,-3.5730554045569045,,
,13141.0,2683.0,8805.0,3056.0,2399.0,3143.0,388.0,,,,-0.107793681967264,-2.59172020977069,-0.523031168235536,,-3.6147754895953668,,
,13142.0,2685.0,8807.0,3057.0,2391.0,3152.0,399.0,,,,-0.107716920999087,-2.59158782515527,-0.522801123051458,,-3.6463719266149988,,
,13141.0,2682.0,8808.0,3056.0,2414.0,3149.0,380.0,,,,-0.10770665411215,-2.59172456561003,-0.523017755384454,,-3.668938747399164,,
,13144.0,2682.0,8806.0,3056.0,2401.0,3148.0,392.0,,,,-0.107948335075204,-2.59186566880286,-0.523462003929665,,-3.683609528545022,,
,13143.0,2684.0,8813.0,3057.0,2395.0,3153.0,379.0,,,,-0.108001008958345,-2.59176934972979,-0.523509550816779,,-3.6915079507060184,,
,13146.0,2683.0,8813.0,3056.0,2408.0,3158.0,371.0,,,,-0.107976360072149,-2.59189931296434,-0.523892174910536,,-3.693687819812167,,
,13143.0,2685.0,8817.0,3060.0,2410.0,3149.0,362.0,,,,-0.108148438888962,-2.59195665704152,-0.522886541438116,,-3.6910761894952735,,
,13144.0,2685.0,8818.0,3057.0,2404.0,3133.0,372.0,,,,-0.107993947778819,-2.59181851408971,-0.523229755807517,,-3.6844324541646953,,
,13146.0,2688.0,8818.0,3059.0,2397.0,3149.0,388.0,,,,-0.107956439497616,-2.59176267975385,-0.521538564671262,,-3.674333127862594,,
,13148.0,2689.0,8825.0,3062.0,2408.0,3157.0,392.0,,,,-0.107773840276953,-2.59142418991032,-0.522835698296652,,-3.661186926280701,,
,13147.0,2690.0,8826.0,3063.0,2404.0,3158.0,390.0,,,,-0.107642657765067,-2.59128341050708,-0.522327068416101,,-3.6452782362105127,,
,13147.0,2688.0,8829.0,3061.0,2399.0,3147.0,396.0,,,,-0.107676118802819,-2.5913981895119,-0.521325426949188,,-3.626829992792505,,
,13149.0,2691.0,8831.0,3064.0,2400.0,3154.0,400.0,,,,-0.107397204708205,-2.59124820537858,-0.520941272465247,,-3.6060710666216402,,
,13152.0,2691.0,8834.0,3065.0,2402.0,3145.0,409.0,,,,-0.107479826788658,-2.59085635623154,-0.520373272556314,,-3.5832906572365,,
,13153.0,2690.0,8836.0,3069.0,2404.0,3126.0,408.0,,,,-0.107228218658989,-2.59083058156681,-0.521121182080286,,-3.5588643218055465,,
,13154.0,2692.0,8839.0,3066.0,2406.0,3149.0,389.0,,,,-0.10709314740876,-2.59076835611935,-0.519487701450946,,-3.5332426832110913,,
,13151.0,2691.0,8843.0,3066.0,2413.0,3139.0,376.0,,,,-0.106920156235993,-2.59050549958348,-0.519438916669525,,-3.50690245688397,,
,13154.0,2695.0,8846.0,3071.0,2401.0,3143.0,397.0,,,,-0.106882169552987,-2.59062590830123,-0.519733941613121,,-3.4802677748177557,,
,13155.0,2694.0,8848.0,3071.0,2402.0,3140.0,404.0,,,,-0.10680168308537,-2.59050306013406,-0.519299788321461,,-3.4536161457875885,,
,13157.0,2696.0,8852.0,3073.0,2396.0,3136.0,403.0,,,,-0.106778900276176,-2.59023243282668,-0.519579173688115,,-3.426986900354846,,
,13154.0,2694.0,8856.0,3076.0,2390.0,3153.0,398.0,,,,-0.106676251549447,-2.59003091431803,-0.518615577399672,,-3.400110258020644,,
,13155.0,2693.0,8860.0,3075.0,2407.0,3142.0,403.0,,,,-0.106418775598695,-2.58979779649218,-0.518100399028477,,-3.3723720829138557,,
,13158.0,2695.0,8863.0,3077.0,2406.0,3156.0,409.0,,,,-0.106674319354091,-2.58966691245848,-0.517582283530027,,-3.3428230928540015,,
,13161.0,2697.0,8867.0,3078.0,2412.0,3152.0,421.0,,,,-0.106467566900976,-2.59003837664542,-0.518069375792043,,-3.310232575244632,,
,13158.0,2696.0,8869.0,3076.0,2412.0,3138.0,415.0,,,,-0.10658403328678,-2.58915265020863,-0.518675423606838,,-3.2731775490411157,,
,13159.0,2698.0,8872.0,3079.0,2403.0,3145.0,392.0,,,,-0.106373935783822,-2.58978488459773,-0.518201302464389,,-3.2301516491452045,,
,13159.0,2698.0,8874.0,3080.0,2395.0,3156.0,395.0,,,,-0.106371631131662,-2.58975848490492,-0.518715147840608,,-3.1796759719132908,,
,13159.0,2699.0,8874.0,3081.0,2387.0,3161.0,392.0,,,,-0.106218741552341,-2.58963322450898,-0.518220154916567,,-3.120396771275704,,
,13158.0,2701.0,8872.0,3083.0,2396.0,3144.0,383.0,,,,-0.106454098890783,-2.5895032950122,-0.518545983755861,,-3.05116036254908,,
,13156.0,2699.0,8872.0,3081.0,2412.0,3157.0,375.0,,,,-0.106304816389178,-2.58957504835221,-0.51819695929682,,-2.9710615161749603,,
,13153.0,2699.0,8869.0,3080.0,2404.0,3147.0,379.0,,,,-0.1062828846376,-2.58941356840636,-0.51811335287866,,-2.879466341697309,,
,13153.0,2696.0,8865.0,3077.0,2404.0,3155.0,396.0,,,,-0.10625619834488,-2.58942522491087,-0.517618713513767,,-2.776013421531191,,
,13148.0,2696.0,8860.0,3079.0,2401.0,3141.0,400.0,,,,-0.106438289001289,-2.58957026229106,-0.51783162013766,,-2.660597641211953,,
,13146.0,2696.0,8853.0,3074.0,2393.0,3127.0,396.0,,,,-0.106564473368257,-2.58963794430201,-0.517613998689046,,-2.533340080158767,,
,13143.0,2693.0,8845.0,3072.0,2393.0,3136.0,388.0,,,,-0.106533264030565,-2.58961414872407,-0.518828662967454,,-2.394545127523243,,
2025-07-16 19:48:28,13143.0,2692.0,8836.0,3070.0,2382.0,3139.0,416.0,,,2025/07/16 07:48:28 PM,-0.106702389861792,-2.58972524385541,-0.518889623522344,,-2.244643745467661,,
,13142.0,2690.0,8831.0,3067.0,2376.0,3142.0,416.0,,,,-0.106763916618786,-2.58952046505582,-0.516700381637219,,-2.084121037260888,,
,13134.0,2690.0,8823.0,3063.0,2399.0,3156.0,422.0,,,,-0.106694977442548,-2.58958164752909,-0.517643576916827,,-1.9134283970972532,,
,13136.0,2684.0,8818.0,3060.0,2401.0,3137.0,411.0,,,,-0.106689187888698,-2.58957079210768,-0.517589819661157,,-1.732885640487227,,
,13132.0,2684.0,8813.0,3058.0,2385.0,3124.0,412.0,,,,-0.106661273886009,-2.58977023933832,-0.517325164772027,,-1.542584887541825,,
,13132.0,2683.0,8813.0,3055.0,2385.0,3133.0,414.0,,,,-0.106664801700859,-2.5895320884637,-0.517516425282897,,-1.3423129565879879,,
,13132.0,2683.0,8808.0,3053.0,2399.0,3142.0,392.0,,,,-0.106598929217082,-2.58915774167539,-0.515657798358135,,-1.1315106976369749,,
,13127.0,2680.0,8802.0,3051.0,2396.0,3151.0,405.0,,,,-0.106489883362064,-2.58921315521864,-0.516960983771724,,-0.909285493479403,,
,13133.0,2681.0,8803.0,3049.0,2398.0,3155.0,400.0,,,,-0.10640815911518,-2.58929119971748,-0.516777760270812,,-0.6744873920155515,,
,13133.0,2685.0,8806.0,3052.0,2407.0,3153.0,389.0,,,,-0.106332112096981,-2.58899158007721,-0.516370403119,,-0.4258505318087215,,
,13136.0,2682.0,8803.0,3050.0,2403.0,3154.0,384.0,,,,-0.106437228911611,-2.58882252008696,-0.514736360307182,,-0.1621903510422395,,
,13133.0,2684.0,8808.0,3051.0,2406.0,3152.0,396.0,,,,-0.10606235692758,-2.58872060344842,-0.515457216395483,,0.11736514238933107,,
,13141.0,2686.0,8807.0,3049.0,2404.0,3143.0,398.0,,,,-0.105946261838811,-2.58863181194911,-0.515515602390372,,0.4131424890548203,,
,13139.0,2688.0,8812.0,3053.0,2399.0,3156.0,401.0,,,,-0.10596706205213,-2.58835421418914,-0.515021176164638,,0.7247265394341734,,
,13140.0,2685.0,8811.0,3052.0,2399.0,3162.0,399.0,,,,-0.1060231493256,-2.58807661398421,-0.513588794356559,,1.0508371549380613,,
,13144.0,2687.0,8814.0,3054.0,2389.0,3169.0,386.0,,,,-0.105885531993455,-2.58818660120542,-0.51352031706834,,1.3893049751022757,,
,13142.0,2687.0,8818.0,3053.0,2409.0,3168.0,375.0,,,,-0.106071518163133,-2.5882294636036,-0.512730142342845,,1.7371563046569996,,
,13146.0,2689.0,8822.0,3058.0,2409.0,3175.0,377.0,,,,-0.105897840658936,-2.58806528055415,-0.513277132861755,,2.0907988213365747,,
,13143.0,2691.0,8826.0,3057.0,2409.0,3155.0,370.0,,,,-0.105940595282583,-2.58791585089633,-0.512623592166947,,2.446282613311156,,
,13149.0,2690.0,8833.0,3059.0,2398.0,3138.0,378.0,,,,-0.105732681320311,-2.58784932901914,-0.512809827238158,,2.79959801499142,,
,13149.0,2691.0,8834.0,3057.0,2391.0,3134.0,392.0,,,,-0.105864526717542,-2.58782538963662,-0.512142207702035,,3.1469654555237474,,
,13150.0,2692.0,8836.0,3059.0,2404.0,3150.0,405.0,,,,-0.105809307459249,-2.58756037167312,-0.513633793166928,,3.485074683551602,,
,13151.0,2694.0,8839.0,3063.0,2406.0,3148.0,394.0,,,,-0.105676038167029,-2.5877481314002,-0.512139137957583,,3.811240968075282,,
,13152.0,2693.0,8845.0,3064.0,2400.0,3145.0,407.0,,,,-0.105555174323298,-2.5875462170882,-0.51283697967671,,4.12346175208834,,
,13154.0,2693.0,8843.0,3066.0,2393.0,3141.0,393.0,,,,-0.105246797873339,-2.58788196693006,-0.512732866004207,,4.42037487405078,,
,13154.0,2693.0,8847.0,3066.0,2385.0,3140.0,389.0,,,,-0.105388399853604,-2.58789221533545,-0.512460490836249,,4.701134869177233,,
,13153.0,2697.0,8852.0,3068.0,2401.0,3133.0,409.0,,,,-0.105362857218625,-2.58768221484478,-0.512502258274594,,4.96523429669125,,
,13157.0,2696.0,8851.0,3070.0,2399.0,3141.0,410.0,,,,-0.105188431832904,-2.58766153633901,-0.512849947027443,,5.212301693926351,,
,13155.0,2695.0,8855.0,3069.0,2401.0,3133.0,432.0,,,,-0.105104289051696,-2.58780279740585,-0.51209449848881,,5.441907200969986,,
,13157.0,2696.0,8856.0,3070.0,2405.0,3147.0,415.0,,,,-0.105132825141918,-2.58773527628923,-0.513296470758555,,5.65340221696589,,
,13157.0,2697.0,8856.0,3070.0,2408.0,3136.0,419.0,,,,-0.105153128737012,-2.58773902416538,-0.513118332585063,,5.845811904350135,,
,13159.0,2699.0,8859.0,3074.0,2400.0,3131.0,416.0,,,,-0.104990838314603,-2.58777816700569,-0.511718765636448,,6.017790397880487,,
,13155.0,2697.0,8857.0,3072.0,2394.0,3139.0,425.0,,,,-0.104956724631816,-2.58745824268981,-0.513155820064884,,6.167639624802844,,
,13157.0,2698.0,8859.0,3071.0,2410.0,3132.0,425.0,,,,-0.104957344488707,-2.58724154981959,-0.512962671543217,,6.293384763502722,,
,13155.0,2697.0,8858.0,3073.0,2414.0,3132.0,401.0,,,,-0.105083162988395,-2.58746201900488,-0.513071039836764,,6.392893210035055,,
,13156.0,2697.0,8857.0,3074.0,2404.0,3137.0,397.0,,,,-0.104760325438432,-2.58735697195831,-0.511802433242203,,6.464019860889784,,
,13154.0,2697.0,8859.0,3073.0,2401.0,3135.0,397.0,,,,-0.104657335452261,-2.58709062770917,-0.510772206527864,,6.504759665939234,,
,13157.0,2697.0,8859.0,3070.0,2405.0,3153.0,396.0,,,,-0.104628551917603,-2.58714027046089,-0.511427184944482,,6.513388612996718,,
,13155.0,2697.0,8859.0,3070.0,2401.0,3153.0,400.0,,,,-0.104285492630503,-2.58685805259637,-0.51040807552368,,6.488576395769694,,
,13156.0,2699.0,8860.0,3072.0,2403.0,3160.0,415.0,,,,-0.104405979231172,-2.58656637368609,-0.511465361181797,,6.429457837307818,,
,13158.0,2699.0,8863.0,3071.0,2394.0,3153.0,401.0,,,,-0.104363851198184,-2.58662408858503,-0.509572263002818,,6.3356552377988145,,
,13159.0,2701.0,8862.0,3072.0,2398.0,3166.0,394.0,,,,-0.104228564547703,-2.58649498639453,-0.509577035286978,,6.207249386485747,,
,13159.0,2700.0,8865.0,3074.0,2402.0,3150.0,376.0,,,,-0.104115458607275,-2.58627257797971,-0.50940391467635,,6.044702533778563,,
,13162.0,2701.0,8866.0,3071.0,2397.0,3172.0,403.0,,,,-0.10401142789791,-2.58618786421071,-0.508737987010882,,5.848742424386176,,
,13160.0,2700.0,8867.0,3075.0,2394.0,3171.0,410.0,,,,-0.104005420011897,-2.58645481853162,-0.510381528839781,,5.620222830518621,,
,13159.0,2702.0,8869.0,3074.0,2393.0,3168.0,388.0,,,,-0.103672884424053,-2.58627161714375,-0.509631790800474,,5.359982134709782,,
,13160.0,2700.0,8871.0,3074.0,2406.0,3142.0,409.0,,,,-0.103702470300693,-2.58605403833345,-0.50874817540021,,5.068725692961236,,
,13162.0,2702.0,8871.0,3075.0,2400.0,3142.0,405.0,,,,-0.103625585461634,-2.58580020362006,-0.508537982777151,,4.746958356130976,,
,13161.0,2703.0,8876.0,3080.0,2404.0,3120.0,398.0,,,,-0.103460023386531,-2.58601612649665,-0.50888019531002,,4.394989584472938,,
,13163.0,2704.0,8878.0,3079.0,2402.0,3131.0,393.0,,,,-0.103464747857056,-2.58619702799068,-0.507485024254102,,4.013024395491277,,
,13162.0,2703.0,8879.0,3078.0,2412.0,3154.0,402.0,,,,-0.103280760564251,-2.58576237153331,-0.507264057364277,,3.6013392303625467,,
,13164.0,2703.0,8884.0,3079.0,2410.0,3135.0,402.0,,,,-0.103577376266712,-2.58574348994902,-0.507917570099754,,3.160524923330993,,
,13168.0,2702.0,8886.0,3079.0,2409.0,3148.0,408.0,,,,-0.10321169827277,-2.58554150566483,-0.50780447416276,,2.691763136793754,,
,13167.0,2704.0,8887.0,3082.0,2408.0,3142.0,410.0,,,,-0.102789884894022,-2.58514562723735,-0.505777987167497,,2.1970916913263783,,
,13168.0,2703.0,8890.0,3080.0,2398.0,3156.0,418.0,,,,-0.102614273638165,-2.58502367212005,-0.507868691102035,,1.6796106965210742,,
,13167.0,2705.0,8894.0,3081.0,2400.0,3152.0,424.0,,,,-0.102657496403156,-2.58493018320375,-0.505969777297821,,1.143586352245291,,
,13168.0,2705.0,8895.0,3084.0,2398.0,3138.0,402.0,,,,-0.102455585839048,-2.58487466901367,-0.50570591684309,,0.5944225193790902,,
,13169.0,2708.0,8902.0,3087.0,2398.0,3135.0,391.0,,,,-0.102304401809748,-2.58488430769174,-0.505632968310197,,0.03848989977172692,,
,13172.0,2707.0,8904.0,3085.0,2393.0,3133.0,388.0,,,,-0.102235403683878,-2.58449709444215,-0.506072225890653,,-0.5171745107170954,,
,13170.0,2706.0,8906.0,3086.0,2396.0,3149.0,404.0,,,,-0.102016279619491,-2.58438615914305,-0.504656633836582,,-1.065263574508543,,
,13174.0,2708.0,8910.0,3089.0,2394.0,3138.0,405.0,,,,-0.102173702570837,-2.58413474034751,-0.505381526767467,,-1.5986418568706735,,
,13174.0,2708.0,8915.0,3092.0,2407.0,3144.0,398.0,,,,-0.101929333015465,-2.58399266671661,-0.504975028468545,,-2.110776330349273,,
,13175.0,2709.0,8916.0,3089.0,2410.0,3149.0,392.0,,,,-0.101770719331135,-2.58438656610052,-0.50507511055828,,-2.5961025132957545,,
,13173.0,2708.0,8918.0,3090.0,2411.0,3135.0,393.0,,,,-0.101912240050577,-2.58439510889198,-0.503948479622972,,-3.0502854083930564,,
,13177.0,2707.0,8922.0,3093.0,2415.0,3138.0,409.0,,,,-0.101570821839536,-2.58425432993471,-0.506237729917623,,-3.470353349044553,,
,13175.0,2710.0,8925.0,3093.0,2416.0,3139.0,416.0,,,,-0.101783804679107,-2.58416070972938,-0.50506293072959,,-3.854702841650648,,
,13177.0,2712.0,8927.0,3096.0,2415.0,3150.0,404.0,,,,-0.10159247402652,-2.58412345044227,-0.505522474580097,,-4.2029897114219095,,
,13178.0,2711.0,8930.0,3095.0,2402.0,3164.0,408.0,,,,-0.101391201002258,-2.58421438956079,-0.505834174000469,,-4.515934218179788,,
,13177.0,2711.0,8931.0,3096.0,2400.0,3178.0,396.0,,,,-0.1012673920845,-2.58391896568485,-0.504508684593498,,-4.795074808682644,,
,13173.0,2711.0,8930.0,3096.0,2409.0,3178.0,391.0,,,,-0.101174639299483,-2.58393984445953,-0.50474558952898,,-5.0425069898814945,,
,13175.0,2709.0,8933.0,3098.0,2418.0,3175.0,375.0,,,,-0.101341021202731,-2.58405591792781,-0.504177334359042,,-5.2606407345437995,,
,13172.0,2709.0,8928.0,3097.0,2417.0,3174.0,385.0,,,,-0.101012427591367,-2.58407516527426,-0.505091188623326,,-5.452002284409869,,
,13167.0,2707.0,8923.0,3093.0,2406.0,3156.0,414.0,,,,-0.101205105422508,-2.58371113742093,-0.504967551120845,,-5.619095138418539,,
,13166.0,2708.0,8917.0,3094.0,2417.0,3148.0,410.0,,,,-0.100977970742869,-2.58363949949508,-0.504297421320622,,-5.764322365988346,,
,13167.0,2706.0,8910.0,3090.0,2415.0,3138.0,426.0,,,,-0.100923785833874,-2.58373567277367,-0.504451548387761,,-5.8899610977808114,,
,13161.0,2705.0,8903.0,3088.0,2412.0,3124.0,418.0,,,,-0.100740737178676,-2.58341714320376,-0.502998977517942,,-5.998172911273253,,
,13157.0,2703.0,8893.0,3082.0,2415.0,3128.0,413.0,,,,-0.100588649306959,-2.58305064280849,-0.505304270877401,,-6.091031954632553,,
,13160.0,2697.0,8888.0,3080.0,2402.0,3121.0,411.0,,,,-0.100623769644757,-2.58301550855165,-0.503311511608431,,-6.170554899728933,,
,13154.0,2700.0,8879.0,3079.0,2386.0,3121.0,391.0,,,,-0.100244516606502,-2.58293059375373,-0.503632703588671,,-6.238720839077804,,
,13154.0,2697.0,8875.0,3076.0,2389.0,3121.0,410.0,,,,-0.100001400717545,-2.58275199837582,-0.501365680325636,,-6.297473163504398,,
,13150.0,2696.0,8870.0,3073.0,2397.0,3140.0,405.0,,,,-0.100145255667668,-2.58251335685528,-0.501734699459897,,-6.348698650864401,,
,13147.0,2693.0,8863.0,3070.0,2400.0,3136.0,398.0,,,,-0.100066971879203,-2.58263495684841,-0.500150898669639,,-6.394181650433959,,
,13151.0,2695.0,8862.0,3067.0,2392.0,3136.0,395.0,,,,-0.0998388073873308,-2.58249732853232,-0.502080993432808,,-6.435533621086673,,
,13148.0,2693.0,8856.0,3064.0,2398.0,3123.0,411.0,,,,-0.0997083470042107,-2.58229306432437,-0.499344618695749,,-6.4741003844318215,,
,13152.0,2694.0,8859.0,3065.0,2398.0,3133.0,402.0,,,,-0.0995519620284932,-2.58192335869198,-0.499280659362542,,-6.510851110891705,,
,13151.0,2692.0,8856.0,3061.0,2396.0,3121.0,381.0,,,,-0.0992071073539134,-2.58141952987307,-0.499631751616946,,-6.546254133652196,,
,13154.0,2696.0,8857.0,3062.0,2400.0,3115.0,398.0,,,,-0.0991072167950699,-2.58122923506245,-0.498744080929719,,-6.580145432446583,,
,13156.0,2694.0,8856.0,3063.0,2402.0,3128.0,387.0,,,,-0.0990312295046462,-2.58104444805116,-0.498440254342347,,-6.611596873587805,,
,13157.0,2695.0,8858.0,3065.0,2404.0,3138.0,386.0,,,,-0.0986142348464563,-2.5805455525887,-0.498158695917156,,-6.638793978536392,,
,13157.0,2696.0,8860.0,3063.0,2406.0,3146.0,398.0,,,,-0.0984403113241577,-2.58037546799098,-0.495735880712316,,-6.6589371413547696,,
,13157.0,2698.0,8865.0,3064.0,2407.0,3159.0,400.0,,,,-0.0982143153731652,-2.57989420994785,-0.496612229321678,,-6.668184392142199,,
,13162.0,2700.0,8867.0,3066.0,2399.0,3169.0,405.0,,,,-0.0979934781466628,-2.579585776633,-0.496223887123664,,-6.661655885591284,,
,13160.0,2700.0,8870.0,3066.0,2397.0,3166.0,403.0,,,,-0.0977243164680252,-2.57952904303722,-0.493928495863656,,-6.633518763673189,,
,13163.0,2699.0,8874.0,3069.0,2403.0,3171.0,389.0,,,,-0.0977110400895722,-2.57946038756914,-0.494902861761014,,-6.577165569237557,,
,13167.0,2701.0,8877.0,3066.0,2401.0,3160.0,376.0,,,,-0.0977394667249569,-2.57899672235675,-0.493459564983355,,-6.485490566945507,,
,13170.0,2703.0,8879.0,3070.0,2412.0,3151.0,390.0,,,,-0.0975190255649671,-2.57907616662745,-0.493515065809243,,-6.35125722818699,,
,13170.0,2699.0,8886.0,3073.0,2409.0,3152.0,401.0,,,,-0.0975011654728001,-2.57877131210454,-0.493024958808582,,-6.167538015986614,,
,13170.0,2705.0,8886.0,3077.0,2412.0,3152.0,386.0,,,,-0.0974197633289358,-2.57850424861003,-0.49238988175523,,-5.928195785304415,,
,13169.0,2701.0,8887.0,3075.0,2400.0,3152.0,402.0,,,,-0.0972093946166054,-2.5785581779396,-0.492935064269774,,-5.628366110858758,,
,13171.0,2706.0,8893.0,3076.0,2401.0,3143.0,400.0,,,,-0.0971533724663614,-2.57825974171336,-0.492098740239057,,-5.2648937005877885,,
,13171.0,2703.0,8895.0,3080.0,2403.0,3142.0,399.0,,,,-0.0969863531920243,-2.57794317648411,-0.492032219544118,,-4.8366760684362555,,
,13172.0,2704.0,8897.0,3081.0,2408.0,3143.0,411.0,,,,-0.0969891662671948,-2.5781261783153,-0.491446649062307,,-4.344875172992735,,
,13171.0,2704.0,8900.0,3080.0,2409.0,3138.0,425.0,,,,-0.0969344142364669,-2.57774417783405,-0.491174679939775,,-3.792971859294662,,
,13172.0,2706.0,8901.0,3082.0,2406.0,3141.0,420.0,,,,-0.0967859011049795,-2.57747452321938,-0.491324860038703,,-3.1866556645459405,,
,13174.0,2705.0,8904.0,3086.0,2408.0,3150.0,403.0,,,,-0.0966391392988915,-2.57741504706104,-0.489996294779185,,-2.5335603359434375,,
,13172.0,2707.0,8904.0,3085.0,2410.0,3147.0,416.0,,,,-0.0964527765180739,-2.57673720698504,-0.491450007423714,,-1.842870614818383,,
,13173.0,2707.0,8904.0,3081.0,2405.0,3115.0,431.0,,,,-0.0964084832753754,-2.57684743846437,-0.491012463021005,,-1.1248369567644647,,
,13173.0,2706.0,8903.0,3081.0,2404.0,3112.0,423.0,,,,-0.0962967178471171,-2.57655059670123,-0.489537622834737,,-0.390241026826047,,
,13175.0,2706.0,8906.0,3086.0,2411.0,3126.0,406.0,,,,-0.0961936154487103,-2.57634066095063,-0.490404774470442,,0.35014442555741604,,
,13175.0,2709.0,8906.0,3086.0,2408.0,3141.0,404.0,,,,-0.0959422979735847,-2.57599374045811,-0.489750617943697,,1.086062096726409,,
,13173.0,2708.0,8906.0,3085.0,2402.0,3140.0,400.0,,,,-0.0958272735776262,-2.57571106908496,-0.487183044975934,,1.8082120512657098,,
,13175.0,2706.0,8905.0,3085.0,2404.0,3140.0,382.0,,,,-0.095723741689451,-2.57556330713311,-0.486501783254577,,2.508607728224228,,
,13174.0,2705.0,8907.0,3083.0,2398.0,3143.0,411.0,,,,-0.0955255173762193,-2.57526021581717,-0.486812768626939,,3.1808334736121773,,
,13176.0,2709.0,8910.0,3085.0,2402.0,3143.0,392.0,,,,-0.0955481514787771,-2.57494969978623,-0.486992708692909,,3.8201974323201746,,
,13176.0,2709.0,8907.0,3086.0,2406.0,3145.0,396.0,,,,-0.0952700353729136,-2.57471158681006,-0.487819068186716,,4.4237779688010885,,
,13173.0,2707.0,8907.0,3082.0,2403.0,3149.0,408.0,,,,-0.0953232738814509,-2.57457740296087,-0.486389890931993,,4.990365472313851,,
,13175.0,2708.0,8909.0,3083.0,2391.0,3150.0,425.0,,,,-0.0953008063330388,-2.57443892062852,-0.486354338524364,,5.520305549491264,,
,13177.0,2707.0,8909.0,3085.0,2395.0,3132.0,415.0,,,,-0.0950603173093132,-2.57438786591851,-0.484512931692786,,6.015254210196326,,
,13177.0,2711.0,8912.0,3086.0,2398.0,3153.0,411.0,,,,-0.0948605205869387,-2.5739624279922,-0.485414497052583,,6.477859968309194,,
,13178.0,2710.0,8911.0,3086.0,2402.0,3172.0,406.0,,,,-0.0946943968761696,-2.57346693588861,-0.484838099242891,,6.911391243537442,,
,13175.0,2709.0,8914.0,3084.0,2406.0,3142.0,402.0,,,,-0.0946059242185167,-2.57349870248276,-0.484489448212657,,7.319330163455789,,
,13178.0,2710.0,8917.0,3085.0,2403.0,3134.0,401.0,,,,-0.0946726457581314,-2.57319241920008,-0.483904966709734,,7.704956304991915,,
,13181.0,2710.0,8915.0,3086.0,2405.0,3118.0,407.0,,,,-0.0946134638316591,-2.5729251705487,-0.482463084438586,,8.070946192250618,,
,13180.0,2712.0,8920.0,3088.0,2399.0,3127.0,402.0,,,,-0.0945100956405857,-2.57269081377989,-0.483513400266862,,8.419015636380214,,
,13179.0,2712.0,8923.0,3088.0,2400.0,3128.0,398.0,,,,-0.0942463697938047,-2.57226248617987,-0.482677268429871,,8.749630793166146,,
,13177.0,2712.0,8926.0,3089.0,2408.0,3122.0,378.0,,,,-0.0941137525388396,-2.57216268374501,-0.481322371414341,,9.061809324747184,,
,13180.0,2712.0,8931.0,3091.0,2403.0,3125.0,390.0,,,,-0.0938618041214188,-2.57164597556457,-0.4814498822948,,9.353026028562446,,
,13184.0,2712.0,8933.0,3093.0,2404.0,3136.0,392.0,,,,-0.0937811266844128,-2.57133218584309,-0.480372865011818,,9.619229395755738,,
2025-07-16 19:48:29,13182.0,2711.0,8932.0,3090.0,2406.0,3154.0,374.0,,,2025/07/16 07:48:29 PM,-0.0936708508485706,-2.57128507204006,-0.483081321196726,,9.854968138832147,,
,13183.0,2712.0,8934.0,3089.0,2403.0,3138.0,394.0,,,,-0.0936075742057195,-2.57103941408329,-0.482416295215559,,10.053620434133133,,
,13186.0,2713.0,8936.0,3093.0,2410.0,3144.0,398.0,,,,-0.0936405476139297,-2.57091989936759,-0.481588107456234,,10.207713652261061,,
,13189.0,2716.0,8942.0,3092.0,2415.0,3142.0,409.0,,,,-0.0935845338471283,-2.57092823980748,-0.481161836036441,,10.309318640276253,,
,13188.0,2716.0,8943.0,3096.0,2406.0,3132.0,420.0,,,,-0.0935012805042112,-2.57083988286138,-0.480731412692922,,10.350499993994692,,
,13186.0,2714.0,8945.0,3094.0,2407.0,3139.0,443.0,,,,-0.0935109339060909,-2.57088440129528,-0.481568175219213,,10.323801988747471,,
,13189.0,2718.0,8950.0,3097.0,2393.0,3142.0,432.0,,,,-0.0934584335778662,-2.57073472896251,-0.480932178972253,,10.222748387590993,,
,13191.0,2717.0,8952.0,3099.0,2403.0,3143.0,425.0,,,,-0.0933263435413977,-2.57038661426621,-0.480815292771074,,10.042332119329233,,
,13192.0,2718.0,8954.0,3097.0,2406.0,3132.0,417.0,,,,-0.0932506228072725,-2.56996534939121,-0.480002804937872,,9.779466806444304,,
,13194.0,2717.0,8956.0,3098.0,2408.0,3136.0,403.0,,,,-0.0930196741209675,-2.56978945317682,-0.480678137874698,,9.43336681901689,,
,13190.0,2718.0,8961.0,3099.0,2394.0,3134.0,398.0,,,,-0.0929290261020798,-2.56943966715348,-0.478934094128554,,9.005818453561146,,
,13194.0,2718.0,8964.0,3101.0,2398.0,3135.0,404.0,,,,-0.09289330774255,-2.56900550726853,-0.479161135420242,,8.501305223804687,,
,13195.0,2719.0,8965.0,3103.0,2403.0,3127.0,409.0,,,,-0.0926400647575154,-2.56873276369763,-0.478177523273286,,7.926957189322555,,
,13195.0,2719.0,8967.0,3102.0,2412.0,3127.0,408.0,,,,-0.0924955271163617,-2.56870334569819,-0.476845815406959,,7.292307954823807,,
,13197.0,2720.0,8973.0,3104.0,2418.0,3136.0,408.0,,,,-0.0923432433334297,-2.56841957507759,-0.477147567882995,,6.608862278545733,,
,13196.0,2721.0,8973.0,3105.0,2405.0,3131.0,423.0,,,,-0.0923935009627773,-2.56834560856555,-0.476977513704326,,5.889500042978225,,
,13195.0,2722.0,8977.0,3107.0,2406.0,3127.0,421.0,,,,-0.0924195847319649,-2.56841038029787,-0.477608866576094,,5.1477655002889335,,
,13193.0,2720.0,8975.0,3105.0,2400.0,3164.0,417.0,,,,-0.0924542040025049,-2.56818184353481,-0.476563499022982,,4.397109779848857,,
,13194.0,2719.0,8971.0,3104.0,2397.0,3178.0,399.0,,,,-0.0925040931468549,-2.56811603681769,-0.476680762986921,,3.6501645750202036,,
,13193.0,2723.0,8966.0,3106.0,2401.0,3159.0,400.0,,,,-0.0923392921551654,-2.56840809566874,-0.477562264275082,,2.918121808797526,,
,13190.0,2721.0,8962.0,3104.0,2397.0,3142.0,415.0,,,,-0.0924296435163025,-2.56825833270908,-0.477363483922055,,2.2102774875920157,,
,13185.0,2717.0,8958.0,3103.0,2403.0,3131.0,422.0,,,,-0.0925420026031137,-2.56813597695195,-0.477339398553778,,1.5337719320855747,,
,13180.0,2715.0,8947.0,3100.0,2403.0,3133.0,416.0,,,,-0.0923281408951552,-2.56809434578774,-0.476356668266844,,0.893529870106197,,
,13180.0,2712.0,8942.0,3097.0,2400.0,3130.0,439.0,,,,-0.0921912875925881,-2.56796518553438,-0.47626413424446,,0.29237866282499175,,
,13180.0,2710.0,8934.0,3093.0,2391.0,3139.0,436.0,,,,-0.0920059462628408,-2.56793888918395,-0.476249417992155,,-0.2686952317351665,,
,13174.0,2710.0,8928.0,3091.0,2385.0,3145.0,437.0,,,,-0.0920764187281203,-2.56767219723769,-0.476237434100257,,-0.7902014455632342,,
,13173.0,2707.0,8921.0,3085.0,2392.0,3138.0,419.0,,,,-0.0920244732013419,-2.56757903191299,-0.474557609638703,,-1.2737643639763512,,
,13170.0,2706.0,8915.0,3082.0,2403.0,3138.0,423.0,,,,-0.091984347325504,-2.56727845415754,-0.475496834296411,,-1.721751636828483,,
,13169.0,2707.0,8910.0,3081.0,2404.0,3127.0,417.0,,,,-0.0918284715472983,-2.56700609641206,-0.475110281135414,,-2.1369473131401344,,
,13171.0,2704.0,8907.0,3079.0,2408.0,3124.0,409.0,,,,-0.0918575807327369,-2.56677125761583,-0.475349677728779,,-2.5222888586240537,,
,13172.0,2703.0,8904.0,3072.0,2387.0,3121.0,416.0,,,,-0.0917105500424606,-2.56687484380112,-0.474648970779954,,-2.880671250250655,,
,13167.0,2702.0,8902.0,3074.0,2402.0,3121.0,411.0,,,,-0.0917332941337076,-2.56667704992527,-0.474829791554065,,-3.2148086825511966,,
,13171.0,2703.0,8900.0,3072.0,2409.0,3131.0,420.0,,,,-0.0917083097283307,-2.56660641522459,-0.474841059828197,,-3.52713819483276,,
,13170.0,2703.0,8900.0,3073.0,2404.0,3131.0,404.0,,,,-0.0916393738659192,-2.56660263325939,-0.474384457236949,,-3.8197503096828562,,
,13172.0,2707.0,8901.0,3071.0,2397.0,3146.0,402.0,,,,-0.0916068361897818,-2.5666138254236,-0.474862481870555,,-4.094337527646002,,
,13173.0,2704.0,8898.0,3069.0,2399.0,3165.0,392.0,,,,-0.0915299944948561,-2.5665758901726,-0.474818653558251,,-4.352158945869963,,
,13178.0,2706.0,8902.0,3073.0,2410.0,3168.0,373.0,,,,-0.0915432635065952,-2.56665280625618,-0.475712580448248,,-4.594025366327303,,
,13179.0,2705.0,8905.0,3074.0,2409.0,3160.0,360.0,,,,-0.0914568145772902,-2.56653069323606,-0.47595998354677,,-4.820312206564833,,
,13181.0,2709.0,8910.0,3072.0,2412.0,3146.0,362.0,,,,-0.0914522622066213,-2.56682237438596,-0.474531676127263,,-5.031006797537566,,
,13179.0,2708.0,8911.0,3075.0,2405.0,3165.0,409.0,,,,-0.0915336468433771,-2.56689199642187,-0.475518489757032,,-5.225792740556535,,
,13180.0,2708.0,8913.0,3076.0,2408.0,3158.0,402.0,,,,-0.0915384870654877,-2.56689423719947,-0.476154428427763,,-5.40416792221728,,
,13184.0,2711.0,8922.0,3078.0,2408.0,3140.0,411.0,,,,-0.0914705629753651,-2.56694622974093,-0.476579489070612,,-5.565585791971882,,
,13186.0,2712.0,8920.0,3081.0,2408.0,3132.0,411.0,,,,-0.0914215656705002,-2.56730751245208,-0.476982988905581,,-5.709603185231764,,
,13185.0,2710.0,8924.0,3079.0,2403.0,3114.0,410.0,,,,-0.0915199301068844,-2.56708774834048,-0.478089619831043,,-5.836014379589185,,
,13186.0,2712.0,8928.0,3079.0,2411.0,3122.0,405.0,,,,-0.0915127630610475,-2.56712331957567,-0.477569112281081,,-5.944951986011045,,
,13187.0,2713.0,8930.0,3082.0,2411.0,3136.0,426.0,,,,-0.091384356926403,-2.56695150744788,-0.478876606771809,,-6.036940924301891,,
,13189.0,2712.0,8934.0,3084.0,2413.0,3158.0,401.0,,,,-0.0914521061287438,-2.56718410549582,-0.477818557384731,,-6.112900322089406,,
,13190.0,2715.0,8938.0,3084.0,2413.0,3155.0,399.0,,,,-0.0914109628745489,-2.56701471832798,-0.478500113675749,,-6.174096964978949,,
,13188.0,2714.0,8938.0,3086.0,2410.0,3139.0,407.0,,,,-0.091474655343013,-2.56728402629352,-0.4788676467259,,-6.222060770697368,,
,13191.0,2713.0,8941.0,3087.0,2400.0,3137.0,425.0,,,,-0.0911478889970167,-2.5670525665418,-0.47869620151988,,-6.258476780223748,,
,13188.0,2716.0,8943.0,3089.0,2401.0,3131.0,417.0,,,,-0.0910609533683809,-2.56724457790274,-0.478740758472188,,-6.285069355275608,,
,13193.0,2718.0,8944.0,3091.0,2396.0,3130.0,416.0,,,,-0.0910949907534745,-2.5670155373109,-0.479165018432311,,-6.303492945122043,,
,13192.0,2715.0,8946.0,3091.0,2398.0,3158.0,423.0,,,,-0.0911091249686237,-2.5669484656838,-0.47783190954484,,-6.315240274746888,,
,13190.0,2714.0,8946.0,3091.0,2396.0,3142.0,430.0,,,,-0.0910078398748301,-2.56677193750162,-0.478330065966508,,-6.321573560690131,,
,13195.0,2716.0,8946.0,3090.0,2390.0,3157.0,430.0,,,,-0.091060558123861,-2.56673188045197,-0.477975537096377,,-6.323478291515392,,
,13195.0,2718.0,8947.0,3093.0,2391.0,3154.0,426.0,,,,-0.0911415019955542,-2.56659228648341,-0.479242198155426,,-6.321633888316954,,
,13195.0,2715.0,8947.0,3093.0,2395.0,3147.0,427.0,,,,-0.0911240908491943,-2.56660676606292,-0.478065111913791,,-6.3163931960801225,,
,13194.0,2716.0,8944.0,3092.0,2387.0,3129.0,434.0,,,,-0.0911441303630575,-2.56651088878205,-0.477123523643484,,-6.307764335525376,,
,13195.0,2718.0,8947.0,3092.0,2390.0,3119.0,405.0,,,,-0.0910601941912395,-2.56624940268867,-0.476933957337817,,-6.295393118273494,,
,13195.0,2716.0,8950.0,3094.0,2402.0,3131.0,403.0,,,,-0.0909040572933109,-2.56630721432708,-0.477740714623076,,-6.278549642006696,,
,13193.0,2716.0,8951.0,3092.0,2401.0,3140.0,413.0,,,,-0.0908225677560342,-2.56597061771251,-0.476927820339198,,-6.256126512817404,,
,13191.0,2717.0,8945.0,3091.0,2400.0,3147.0,393.0,,,,-0.09070051112175,-2.56585750609,-0.478246426183095,,-6.226657213630531,,
,13196.0,2718.0,8948.0,3091.0,2396.0,3164.0,392.0,,,,-0.090686820406843,-2.56556405891198,-0.476801000108912,,-6.188361410581961,,
,13195.0,2719.0,8949.0,3093.0,2403.0,3159.0,399.0,,,,-0.0905586367179109,-2.5655953277118,-0.477038114866833,,-6.139220029412288,,
,13196.0,2716.0,8951.0,3093.0,2408.0,3170.0,384.0,,,,-0.0905464748058623,-2.56531140339554,-0.476898434888648,,-6.077077514830907,,
,13195.0,2717.0,8952.0,3093.0,2405.0,3158.0,386.0,,,,-0.0904744287227035,-2.56523665423644,-0.477205066376022,,-5.999762624763684,,
,13195.0,2718.0,8953.0,3093.0,2401.0,3151.0,394.0,,,,-0.0904223164728851,-2.56486038256045,-0.476184111766898,,-5.905213390874175,,
,13197.0,2720.0,8954.0,3095.0,2386.0,3159.0,414.0,,,,-0.0902185197593439,-2.56437652686891,-0.47539762611496,,-5.791588006309968,,
,13198.0,2720.0,8956.0,3093.0,2392.0,3157.0,414.0,,,,-0.0900824553741012,-2.56400212081727,-0.475220864360153,,-5.65734340838897,,
,13198.0,2719.0,8958.0,3094.0,2393.0,3140.0,389.0,,,,-0.0898159528400659,-2.56375447095775,-0.473958050378462,,-5.501268692552005,,
,13198.0,2719.0,8960.0,3093.0,2399.0,3145.0,409.0,,,,-0.0896614369886883,-2.56323380158122,-0.474603245795965,,-5.322470626395031,,
,13198.0,2718.0,8962.0,3097.0,2400.0,3139.0,411.0,,,,-0.0894309877630843,-2.56269178807933,-0.472303186344422,,-5.12032044849997,,
,13197.0,2720.0,8964.0,3096.0,2401.0,3142.0,391.0,,,,-0.0892412021178292,-2.56243405903456,-0.472914351535271,,-4.894381035179735,,
,13202.0,2719.0,8967.0,3098.0,2395.0,3145.0,386.0,,,,-0.0889133158481066,-2.56162697338469,-0.471220370032811,,-4.644338651662163,,
,13200.0,2720.0,8968.0,3096.0,2405.0,3148.0,399.0,,,,-0.0886025388963237,-2.56119833954614,-0.471655061309387,,-4.369962799684144,,
,13200.0,2722.0,8969.0,3098.0,2406.0,3127.0,424.0,,,,-0.0884408213350136,-2.56063830003175,-0.470095493887097,,-4.071111379672793,,
,13202.0,2721.0,8972.0,3100.0,2397.0,3138.0,419.0,,,,-0.0882669142568369,-2.56010379633814,-0.47031971685742,,-3.7477877329614566,,
,13204.0,2720.0,8973.0,3101.0,2401.0,3140.0,415.0,,,,-0.0879613489303101,-2.55956797627434,-0.469932246613589,,-3.4002431605156036,,
,13202.0,2720.0,8977.0,3100.0,2398.0,3158.0,419.0,,,,-0.0878558968375119,-2.55920049211706,-0.469658527897505,,-3.0291057958679954,,
,13202.0,2721.0,8977.0,3100.0,2404.0,3138.0,414.0,,,,-0.0873929513656605,-2.55876472116077,-0.468482826019567,,-2.63550700692027,,
,13206.0,2719.0,8981.0,3102.0,2395.0,3127.0,406.0,,,,-0.0872333062768562,-2.55824119238521,-0.468614159098103,,-2.221172478982204,,
,13209.0,2722.0,8984.0,3105.0,2408.0,3129.0,408.0,,,,-0.0869065191110019,-2.55759982462209,-0.468063765917866,,-1.7884486337258472,,
,13208.0,2723.0,8985.0,3102.0,2411.0,3129.0,380.0,,,,-0.0868826797223801,-2.55726319051939,-0.467782579315891,,-1.3402459622503842,,
,13208.0,2721.0,8987.0,3103.0,2399.0,3119.0,381.0,,,,-0.0868995129938306,-2.5567432592508,-0.467124236743373,,-0.8798967801197501,,
,13210.0,2724.0,8992.0,3108.0,2379.0,3123.0,387.0,,,,-0.0867042601033676,-2.55619537459964,-0.467787165774537,,-0.4109421706452294,,
,13213.0,2725.0,8994.0,3109.0,2388.0,3158.0,398.0,,,,-0.0868033235188869,-2.55607350177286,-0.467713863375958,,0.06312216371183946,,
,13210.0,2723.0,8997.0,3108.0,2394.0,3157.0,401.0,,,,-0.0867777989664022,-2.55534543567227,-0.467697823545213,,0.5391019079236009,,
,13213.0,2724.0,8998.0,3109.0,2401.0,3150.0,396.0,,,,-0.086649359610282,-2.5551347721376,-0.466308199474429,,1.0143210919418442,,
,13209.0,2724.0,9000.0,3110.0,2410.0,3152.0,399.0,,,,-0.0865815260957505,-2.55483108985424,-0.467141960436966,,1.4867661358746056,,
,13211.0,2728.0,9004.0,3110.0,2404.0,3158.0,403.0,,,,-0.0864881505393042,-2.55440550045562,-0.467581317946634,,1.9551375608755561,,
,13213.0,2724.0,9007.0,3113.0,2408.0,3165.0,406.0,,,,-0.0865974787202133,-2.55382380381159,-0.466571684423607,,2.418808511568002,,
,13212.0,2726.0,9003.0,3109.0,2392.0,3173.0,379.0,,,,-0.0866371203509944,-2.55364910877728,-0.466949842709104,,2.877707453165868,,
,13210.0,2725.0,9003.0,3112.0,2406.0,3150.0,383.0,,,,-0.0865942670890147,-2.55291248317303,-0.468620459034721,,3.3321554443966632,,
,13210.0,2724.0,9000.0,3110.0,2397.0,3142.0,414.0,,,,-0.0864898744564127,-2.55294113896658,-0.467449363693341,,3.782692463077595,,
,13207.0,2722.0,8996.0,3111.0,2398.0,3136.0,419.0,,,,-0.0863941083024756,-2.55234673864396,-0.467164474057775,,4.229921391250458,,
,13202.0,2721.0,8990.0,3109.0,2385.0,3129.0,414.0,,,,-0.086270976858192,-2.55159131160586,-0.46758183221867,,4.674384962924551,,
,13205.0,2719.0,8984.0,3106.0,2388.0,3133.0,424.0,,,,-0.0861415817069024,-2.55045305009803,-0.466590889354232,,5.116475130567097,,
,13199.0,2719.0,8976.0,3105.0,2392.0,3124.0,429.0,,,,-0.0860444822438969,-2.55029860372749,-0.466854908217306,,5.556361133411621,,
,13197.0,2714.0,8967.0,3102.0,2383.0,3109.0,422.0,,,,-0.0859898753087813,-2.54920637303358,-0.466527508581685,,5.993915801745132,,
,13195.0,2714.0,8961.0,3098.0,2380.0,3113.0,408.0,,,,-0.0859273231282868,-2.54837569183027,-0.46614229294308,,6.428620657108081,,
,13192.0,2710.0,8956.0,3094.0,2392.0,3124.0,414.0,,,,-0.0862906136864875,-2.54533420352004,-0.470738043496025,,6.8594382189497,,
,13189.0,2710.0,8948.0,3091.0,2392.0,3128.0,401.0,,,,-0.0844722313663488,-2.52593145875466,-0.4704876475175,,7.284652198515016,,
,13191.0,2708.0,8942.0,3089.0,2401.0,3145.0,415.0,,,,-0.0837200554810687,-2.52184979301105,-0.467227721582498,,7.701689946052701,,
,13190.0,2709.0,8937.0,3089.0,2401.0,3152.0,408.0,,,,-0.0839905234999742,-2.52214422204936,-0.468396510592247,,8.10695338718496,,
,13191.0,2706.0,8935.0,3083.0,2399.0,3153.0,390.0,,,,-0.0839036959621649,-2.52271039077423,-0.469276583731334,,8.495691587647451,,
,13189.0,2703.0,8932.0,3080.0,2408.0,3131.0,393.0,,,,-0.0838540520269462,-2.5229626546957,-0.468534782193348,,8.861947903871144,,
,13190.0,2705.0,8928.0,3081.0,2409.0,3142.0,391.0,,,,-0.0839509714562071,-2.52281949032528,-0.467698599089734,,9.198607475089554,,
,13192.0,2706.0,8927.0,3081.0,2410.0,3155.0,376.0,,,,-0.0838321458830556,-2.52283455651426,-0.468518146130419,,9.497558821548763,,
,13192.0,2706.0,8927.0,3081.0,2410.0,3155.0,371.0,,,,-0.0838159304228396,-2.52210893815817,-0.466956272454444,,9.749969557364107,,
,13192.0,2705.0,8926.0,3079.0,2414.0,3152.0,385.0,,,,-0.0837192246985613,-2.52178199017912,-0.468495892155521,,9.946663207479794,,
,13192.0,2708.0,8930.0,3079.0,2411.0,3151.0,397.0,,,,-0.0836088943269466,-2.52146571034833,-0.467680615147072,,10.078573488824068,,
,13198.0,2707.0,8931.0,3082.0,2393.0,3190.0,388.0,,,,-0.0835734965712812,-2.52143697034926,-0.466571660014311,,10.137245165302208,,
,13195.0,2708.0,8935.0,3084.0,2397.0,3188.0,387.0,,,,-0.0835711129799639,-2.52122835985577,-0.466988771831263,,10.115347078808815,,
,13198.0,2709.0,8933.0,3080.0,2411.0,3167.0,371.0,,,,-0.0834983599816887,-2.52114276781088,-0.466004491849531,,10.007162787233222,,
,13196.0,2708.0,8935.0,3082.0,2410.0,3162.0,381.0,,,,-0.0835078213282704,-2.52071130796366,-0.466494376009289,,9.809026183755458,,
,13201.0,2713.0,8938.0,3086.0,2408.0,3150.0,389.0,,,,-0.0834116507476783,-2.5205572308905,-0.465842827633394,,9.519671941108319,,
,13203.0,2711.0,8944.0,3086.0,2407.0,3148.0,399.0,,,,-0.0833742453583388,-2.5207740318097,-0.46608032153043,,9.140472774731325,,
,13203.0,2708.0,8949.0,3088.0,2405.0,3145.0,414.0,,,,-0.0835140470375636,-2.52045869198463,-0.466883962909591,,8.675538297778921,,
,13203.0,2710.0,8953.0,3087.0,2402.0,3130.0,413.0,,,,-0.0835172704102042,-2.52028190435764,-0.467400243364764,,8.131656068292884,,
,13206.0,2711.0,8955.0,3088.0,2399.0,3133.0,396.0,,,,-0.0833489295416432,-2.5199956035353,-0.466134580619882,,7.5180662308087465,,
,13207.0,2712.0,8956.0,3093.0,2398.0,3143.0,400.0,,,,-0.083472555909773,-2.51993989132193,-0.466210694613013,,6.846076397761661,,
,13209.0,2713.0,8958.0,3094.0,2397.0,3141.0,394.0,,,,-0.0834620270154583,-2.51987859547122,-0.467593231997475,,6.128540105708938,,
,13210.0,2711.0,8960.0,3092.0,2400.0,3125.0,410.0,,,,-0.0834797235890824,-2.52001943938398,-0.467202152564443,,5.379236729607788,,
,13209.0,2714.0,8966.0,3096.0,2396.0,3125.0,413.0,,,,-0.083264496917054,-2.51964571169,-0.467057656169636,,4.612200746160149,,
,13212.0,2713.0,8967.0,3096.0,2385.0,3141.0,413.0,,,,-0.083351586947656,-2.5196175588135,-0.465501812216286,,3.841052910543529,,
,13212.0,2714.0,8966.0,3096.0,2390.0,3146.0,412.0,,,,-0.0833715228002918,-2.51958541366337,-0.465614163530276,,3.0783854824619703,,
,13210.0,2714.0,8967.0,3097.0,2387.0,3130.0,427.0,,,,-0.0835244214663219,-2.51914821942984,-0.466832593069824,,2.335248552583494,,
,13210.0,2715.0,8968.0,3097.0,2393.0,3141.0,430.0,,,,-0.0831549288390523,-2.5197294421861,-0.465120293805748,,1.6207748734757736,,
2025-07-16 19:48:30,13211.0,2714.0,8969.0,3100.0,2395.0,3132.0,412.0,,,2025/07/16 07:48:30 PM,-0.0831894514735377,-2.5194135298157,-0.466040913926447,,0.9419663458298588,,
,13210.0,2713.0,8971.0,3099.0,2393.0,3136.0,410.0,,,,-0.0830802703078074,-2.51891619193731,-0.465368048119277,,0.30364735534888915,,
,13210.0,2712.0,8969.0,3098.0,2385.0,3136.0,419.0,,,,-0.0830178022447291,-2.51873598675016,-0.465987085391712,,-0.2914287492019583,,
,13210.0,2712.0,8967.0,3099.0,2387.0,3142.0,420.0,,,,-0.0830000784882976,-2.5189595179081,-0.465177650249951,,-0.8423496660607394,,
,13211.0,2714.0,8971.0,3100.0,2391.0,3143.0,429.0,,,,-0.0832242507828324,-2.51902571222411,-0.464845496295276,,-1.3497300816637225,,
,13211.0,2717.0,8969.0,3102.0,2401.0,3144.0,416.0,,,,-0.0831014542958852,-2.51878724784374,-0.463981809882644,,-1.815355801903387,,
,13213.0,2716.0,8968.0,3097.0,2403.0,3141.0,408.0,,,,-0.0830626628101684,-2.51843992414063,-0.464158925799636,,-2.241825159751094,,
,13211.0,2715.0,8969.0,3100.0,2407.0,3150.0,416.0,,,,-0.082964438216081,-2.51864935315934,-0.463224918768522,,-2.632219341100013,,
,13212.0,2715.0,8972.0,3100.0,2406.0,3132.0,408.0,,,,-0.0829984117409141,-2.51854457764733,-0.46306346681377,,-2.989823235490395,,
,13213.0,2718.0,8971.0,3101.0,2396.0,3157.0,384.0,,,,-0.0830189713958088,-2.51820594546759,-0.463309395211023,,-3.3179073279717075,,
,13213.0,2715.0,8971.0,3100.0,2401.0,3165.0,376.0,,,,-0.0829543396458445,-2.51829632493287,-0.462551161555933,,-3.619570483219115,,
,13214.0,2715.0,8971.0,3099.0,2398.0,3155.0,398.0,,,,-0.0828849543534561,-2.51746461586909,-0.462325821116085,,-3.897634810811177,,
,13209.0,2712.0,8973.0,3100.0,2392.0,3172.0,401.0,,,,-0.0826925307763623,-2.51759301167422,-0.461904317937973,,-4.154578855759483,,
,13213.0,2716.0,8973.0,3102.0,2403.0,3148.0,400.0,,,,-0.0828373348094303,-2.51745926268282,-0.459440016558307,,-4.392495351813697,,
,13216.0,2717.0,8976.0,3102.0,2396.0,3131.0,388.0,,,,-0.0828929047564664,-2.51700866046044,-0.460520191270026,,-4.61306427120891,,
,13215.0,2717.0,8979.0,3101.0,2390.0,3140.0,368.0,,,,-0.0829510978078944,-2.51748448369212,-0.461240084311384,,-4.81753851520015,,
,13214.0,2717.0,8981.0,3102.0,2391.0,3121.0,396.0,,,,-0.0829273461360991,-2.51758279256031,-0.460541454732897,,-5.006745298570949,,
,13219.0,2716.0,8982.0,3098.0,2387.0,3106.0,405.0,,,,-0.0829734278482955,-2.51737166496481,-0.46181164253846,,-5.181109118999875,,
,13217.0,2717.0,8985.0,3101.0,2391.0,3121.0,410.0,,,,-0.0830401007907141,-2.51715588118876,-0.4615557318594,,-5.340701779367459,,
,13217.0,2718.0,8987.0,3100.0,2399.0,3127.0,413.0,,,,-0.0831448790007572,-2.51714699594819,-0.461147052940152,,-5.485321908363729,,
,13218.0,2719.0,8991.0,3100.0,2405.0,3139.0,414.0,,,,-0.0830110657473125,-2.51710573994095,-0.462068872348439,,-5.6146017837346855,,
,13217.0,2720.0,8992.0,3105.0,2405.0,3141.0,417.0,,,,-0.0830046662808844,-2.51722601993339,-0.4619472022943,,-5.728133868482462,,
,13219.0,2720.0,8999.0,3107.0,2401.0,3126.0,390.0,,,,-0.0830157798660714,-2.51726302808593,-0.460586597592548,,-5.825604062969301,,
,13220.0,2720.0,8996.0,3105.0,2405.0,3138.0,388.0,,,,-0.0830173481094271,-2.51718027646984,-0.460589965663221,,-5.906914229541671,,
,13222.0,2719.0,9000.0,3105.0,2398.0,3138.0,382.0,,,,-0.0832150395461127,-2.5173301298358,-0.461045392098818,,-5.972274558424244,,
,13221.0,2719.0,9004.0,3106.0,2391.0,3145.0,383.0,,,,-0.0834377132677702,-2.51754795006903,-0.460897462842473,,-6.022248378732279,,
,13222.0,2720.0,9007.0,3108.0,2392.0,3164.0,388.0,,,,-0.0836286169558535,-2.51776400700289,-0.461420667779823,,-6.057738521873511,,
,13224.0,2720.0,9006.0,3111.0,2392.0,3167.0,367.0,,,,-0.0836393123653794,-2.51822605807976,-0.461014750779076,,-6.079913904808815,,
,13223.0,2722.0,9012.0,3109.0,2401.0,3157.0,382.0,,,,-0.0836186076301382,-2.51829776388094,-0.461401679494847,,-6.090085032633995,,
,13224.0,2719.0,9011.0,3108.0,2413.0,3143.0,405.0,,,,-0.0837023963748826,-2.51873391096811,-0.461227411519472,,-6.089545292776913,,
,13224.0,2722.0,9017.0,3111.0,2409.0,3132.0,392.0,,,,-0.0838266519300308,-2.51962071654154,-0.462080698503555,,-6.079399949275958,,
,13226.0,2722.0,9018.0,3111.0,2409.0,3148.0,377.0,,,,-0.084074744961466,-2.51930492112032,-0.462350756634091,,-6.060406271299094,,
,13226.0,2722.0,9024.0,3115.0,2405.0,3151.0,390.0,,,,-0.0842544622857075,-2.51982867894284,-0.461909164915002,,-6.032846325657499,,
,13226.0,2722.0,9022.0,3113.0,2400.0,3172.0,394.0,,,,-0.084373664335167,-2.51976316335785,-0.460475798227318,,-5.996448921360944,,
,13225.0,2721.0,9023.0,3113.0,2401.0,3152.0,405.0,,,,-0.0843135299054624,-2.51968304280032,-0.461138054675817,,-5.950369552640583,,
,13225.0,2722.0,9028.0,3118.0,2406.0,3140.0,414.0,,,,-0.0844399766168316,-2.51954481188461,-0.460731284943603,,-5.893228010414983,,
,13226.0,2721.0,9025.0,3117.0,2408.0,3131.0,406.0,,,,-0.0845475692642734,-2.51979875395646,-0.460936094373341,,-5.823194535290483,,
,13218.0,2719.0,9023.0,3115.0,2417.0,3122.0,389.0,,,,-0.0845837082159715,-2.5197583493101,-0.460157100573962,,-5.738109415794323,,
,13220.0,2719.0,9019.0,3114.0,2407.0,3122.0,409.0,,,,-0.0845439656898502,-2.51913461164078,-0.460097934293152,,-5.635619480090324,,
,13218.0,2721.0,9015.0,3114.0,2402.0,3121.0,412.0,,,,-0.084759991302567,-2.51942005690499,-0.460142263747216,,-5.513317662884922,,
,13216.0,2717.0,9005.0,3112.0,2392.0,3121.0,394.0,,,,-0.0847162209520155,-2.51942128459995,-0.461207511241019,,-5.3688766251676805,,
,13211.0,2715.0,8999.0,3111.0,2394.0,3131.0,383.0,,,,-0.0848623529517341,-2.51986198537168,-0.460902858477196,,-5.200171860842809,,
,13208.0,2713.0,8991.0,3105.0,2384.0,3127.0,393.0,,,,-0.0846293979202059,-2.51989372631624,-0.460655729306296,,-5.0053924992917755,,
,13206.0,2717.0,8987.0,3103.0,2390.0,3137.0,394.0,,,,-0.0847281820046972,-2.520482003166,-0.461587221241559,,-4.783139030210552,,
,13206.0,2711.0,8979.0,3101.0,2392.0,3119.0,382.0,,,,-0.0846629082599816,-2.52000808445738,-0.459584820137759,,-4.532507028521228,,
,13205.0,2709.0,8973.0,3099.0,2393.0,3135.0,389.0,,,,-0.0847052968662975,-2.52054202628373,-0.461075378067492,,-4.253155188952625,,
,13201.0,2708.0,8964.0,3093.0,2384.0,3144.0,400.0,,,,-0.0848803071788276,-2.5206016252287,-0.461524338444938,,-3.945354711215554,,
,13201.0,2707.0,8963.0,3090.0,2393.0,3146.0,374.0,,,,-0.0849130743501349,-2.52063176818897,-0.460536020995393,,-3.6100152584175276,,
,13202.0,2705.0,8958.0,3090.0,2390.0,3147.0,389.0,,,,-0.084959428440782,-2.52030089913212,-0.461595900504846,,-3.248680937782479,,
,13199.0,2705.0,8953.0,3088.0,2397.0,3143.0,404.0,,,,-0.0848803135743378,-2.52048454272929,-0.460925887269987,,-2.8634897210350987,,
,13203.0,2707.0,8953.0,3085.0,2403.0,3134.0,396.0,,,,-0.0850434681730435,-2.52070469860108,-0.461107280332484,,-2.4570932584590546,,
,13199.0,2705.0,8950.0,3086.0,2405.0,3143.0,393.0,,,,-0.0851310420983185,-2.52060016054401,-0.461452308644953,,-2.0325411527476867,,
,13201.0,2706.0,8949.0,3084.0,2400.0,3144.0,410.0,,,,-0.0852005177877481,-2.5208603340808,-0.461884678824434,,-1.59314190023414,,
,13204.0,2705.0,8950.0,3084.0,2402.0,3138.0,384.0,,,,-0.0853114656986636,-2.52106971544841,-0.461189958272106,,-1.1423183802238173,,
,13203.0,2707.0,8949.0,3082.0,2399.0,3152.0,379.0,,,,-0.0855008394270315,-2.52087281741165,-0.462432963190625,,-0.6834767686981237,,
,13206.0,2703.0,8951.0,3084.0,2409.0,3154.0,372.0,,,,-0.0855346699851663,-2.52169670402486,-0.463151593541689,,-0.2199039589373983,,
,13206.0,2707.0,8955.0,3085.0,2391.0,3166.0,369.0,,,,-0.085626890204509,-2.52197775292892,-0.462580681013117,,0.24529860770907871,,
,13209.0,2709.0,8960.0,3086.0,2407.0,3158.0,366.0,,,,-0.0856885690915138,-2.52194112604814,-0.4630666434374,,0.7092453038739064,,
,13210.0,2710.0,8961.0,3088.0,2411.0,3160.0,379.0,,,,-0.085788472669251,-2.52236787831242,-0.463097609083972,,1.1692692545470897,,
,13209.0,2709.0,8960.0,3086.0,2414.0,3166.0,386.0,,,,-0.0859529557559306,-2.52256381300665,-0.464581973532793,,1.6229116653754119,,
,13210.0,2710.0,8965.0,3089.0,2392.0,3170.0,383.0,,,,-0.0860770533594603,-2.52270418433485,-0.464053721358846,,2.067913299954748,,
,13214.0,2708.0,8967.0,3090.0,2394.0,3159.0,401.0,,,,-0.0860608590979506,-2.52297013332116,-0.465404618670777,,2.502221637581908,,
,13213.0,2712.0,8972.0,3091.0,2404.0,3158.0,405.0,,,,-0.0863051181106959,-2.52333592275107,-0.465211675953749,,2.9240209829241253,,
,13214.0,2713.0,8971.0,3093.0,2410.0,3152.0,417.0,,,,-0.086438461851089,-2.52366433503269,-0.464100207047592,,3.3317840173644084,,
,13215.0,2712.0,8976.0,3095.0,2402.0,3132.0,405.0,,,,-0.0864157251894129,-2.52378763706955,-0.465311933610729,,3.724334567821268,,
,13217.0,2712.0,8977.0,3097.0,2407.0,3137.0,413.0,,,,-0.0865320000896424,-2.52418469098415,-0.465848210647663,,4.100905168189661,,
,13217.0,2711.0,8983.0,3096.0,2411.0,3127.0,404.0,,,,-0.086793976613417,-2.52449451867285,-0.466188772816783,,4.461170595530845,,
,13221.0,2716.0,8982.0,3099.0,2407.0,3128.0,406.0,,,,-0.0869454090020488,-2.52495802544002,-0.467464888038902,,4.805240106260018,,
,13217.0,2712.0,8982.0,3096.0,2400.0,3126.0,408.0,,,,-0.0871327772645343,-2.52528255293258,-0.468868609932401,,5.133596077225202,,
,13222.0,2714.0,8984.0,3100.0,2392.0,3125.0,394.0,,,,-0.0872476561482886,-2.52546276342264,-0.468500752782408,,5.446974437356715,,
,13221.0,2715.0,8988.0,3102.0,2400.0,3126.0,399.0,,,,-0.087315088731837,-2.52553290214466,-0.468527283294376,,5.746191709219904,,
,13222.0,2716.0,8987.0,3099.0,2405.0,3131.0,392.0,,,,-0.0874973826304566,-2.52591031902375,-0.469447636079048,,6.031933209954275,,
,13218.0,2716.0,8985.0,3100.0,2393.0,3122.0,379.0,,,,-0.0875389231820882,-2.52593290690174,-0.469046935777876,,6.304524825591562,,
,13218.0,2715.0,8988.0,3102.0,2391.0,3119.0,386.0,,,,-0.0877934069791584,-2.52638075951079,-0.469827312282012,,6.5637145285556215,,
,13219.0,2716.0,8987.0,3103.0,2396.0,3131.0,368.0,,,,-0.0878141514029099,-2.52666926434448,-0.469112253303525,,6.8084884929680305,,
,13219.0,2715.0,8986.0,3100.0,2394.0,3140.0,373.0,,,,-0.087886137368361,-2.52672680831606,-0.469922299282344,,7.036941344135437,,
,13222.0,2716.0,8982.0,3102.0,2409.0,3150.0,395.0,,,,-0.0880160809482404,-2.52707040822986,-0.469745156772232,,7.2462130290761,,
,13217.0,2714.0,8984.0,3099.0,2398.0,3143.0,374.0,,,,-0.0879790218836155,-2.52755646747141,-0.47077149863669,,7.432497955618157,,
,13219.0,2716.0,8988.0,3101.0,2404.0,3150.0,350.0,,,,-0.0880173576271964,-2.52734864041298,-0.46904003413395,,7.591126342820633,,
,13219.0,2719.0,8986.0,3102.0,2410.0,3138.0,359.0,,,,-0.0881149552966378,-2.52744842609627,-0.47073219580509,,7.7167134628526,,
,13220.0,2718.0,8986.0,3098.0,2411.0,3132.0,370.0,,,,-0.0883008084116777,-2.52790334363301,-0.470363848885181,,7.803369827987762,,
,13217.0,2714.0,8984.0,3097.0,2416.0,3150.0,392.0,,,,-0.0884657421689164,-2.52789259140548,-0.471301996169649,,7.844964414975217,,
,13219.0,2716.0,8986.0,3100.0,2406.0,3153.0,369.0,,,,-0.0884872994983843,-2.52820098487733,-0.471893510680753,,7.835433144167171,,
,13221.0,2715.0,8990.0,3102.0,2397.0,3153.0,370.0,,,,-0.0885868363925666,-2.52870099595173,-0.471472478080718,,7.769124538526452,,
,13222.0,2716.0,8987.0,3099.0,2396.0,3145.0,382.0,,,,-0.0885783171758205,-2.52873625211623,-0.471315877834778,,7.64117181987478,,
,13220.0,2713.0,8991.0,3098.0,2407.0,3139.0,363.0,,,,-0.0887047198751307,-2.52911552363117,-0.471488783170564,,7.447874671124446,,
,13223.0,2719.0,8990.0,3101.0,2395.0,3131.0,362.0,,,,-0.0887192790586,-2.52881195578601,-0.471651578849978,,7.1870656825839925,,
,13223.0,2718.0,8990.0,3101.0,2401.0,3142.0,383.0,,,,-0.0888137141524498,-2.52891013762185,-0.471782500734419,,6.858428985207866,,
,13222.0,2718.0,8993.0,3100.0,2400.0,3137.0,393.0,,,,-0.0890031751027289,-2.5291517329388,-0.470902225486457,,6.463734644504475,,
,13222.0,2716.0,8996.0,3103.0,2390.0,3144.0,379.0,,,,-0.0889356755680845,-2.52942691391388,-0.471906360814301,,6.006953806803616,,
,13221.0,2718.0,8999.0,3101.0,2411.0,3147.0,376.0,,,,-0.0890673902061641,-2.52921843065691,-0.473355593876241,,5.49422704883171,,
,13225.0,2720.0,9001.0,3101.0,2409.0,3134.0,376.0,,,,-0.0892229286423479,-2.52987319458019,-0.471822141039604,,4.933671828746991,,
,13223.0,2719.0,9001.0,3104.0,2396.0,3127.0,403.0,,,,-0.0891665808166653,-2.53036247066386,-0.473086558266945,,4.335033315822676,,
,13224.0,2719.0,9006.0,3104.0,2396.0,3119.0,399.0,,,,-0.0894824760374056,-2.5301294248308,-0.473664646650567,,3.7092036445876424,,
,13224.0,2720.0,9003.0,3103.0,2403.0,3113.0,388.0,,,,-0.0894543708605948,-2.53060535652153,-0.473811486602085,,3.067653796693271,,
,13227.0,2722.0,9007.0,3104.0,2398.0,3120.0,378.0,,,,-0.0896443807714657,-2.53063214646805,-0.47510242183958,,2.4218352109664134,,
,13227.0,2722.0,9009.0,3105.0,2392.0,3130.0,377.0,,,,-0.0895634655412494,-2.53099840808432,-0.475051826529983,,1.7826111428087834,,
,13224.0,2721.0,9012.0,3110.0,2396.0,3132.0,372.0,,,,-0.0895419994733715,-2.53105472667898,-0.474895423203355,,1.159769856579806,,
,13228.0,2720.0,9017.0,3107.0,2403.0,3136.0,373.0,,,,-0.0896036350281895,-2.53116129222062,-0.474429323468827,,0.5616557053935398,,
,13226.0,2722.0,9017.0,3107.0,2405.0,3132.0,367.0,,,,-0.0898249838106404,-2.53170309008531,-0.476136962181495,,-0.005064932309925603,,
,13228.0,2722.0,9021.0,3111.0,2411.0,3146.0,384.0,,,,-0.0898974895027402,-2.53177429294208,-0.477538211594222,,-0.5355033146678033,,
,13230.0,2723.0,9021.0,3111.0,2402.0,3150.0,387.0,,,,-0.0898910842077115,-2.53264673666992,-0.477095916870321,,-1.0265271380811978,,
,13232.0,2723.0,9021.0,3111.0,2407.0,3157.0,377.0,,,,-0.0900992853276746,-2.53325237054682,-0.478661038332979,,-1.4766401547659391,,
,13229.0,2721.0,9025.0,3112.0,2413.0,3180.0,375.0,,,,-0.090333548273592,-2.53356099862989,-0.477532785667292,,-1.885788015094719,,
,13231.0,2724.0,9028.0,3113.0,2416.0,3179.0,358.0,,,,-0.0904983958316519,-2.53378062323624,-0.479359229740464,,-2.2551159555459477,,
,13231.0,2723.0,9030.0,3115.0,2413.0,3160.0,356.0,,,,-0.0904061092910801,-2.53393018099413,-0.477739991243878,,-2.5867015071249453,,
,13228.0,2724.0,9031.0,3115.0,2411.0,3152.0,384.0,,,,-0.0906250100182157,-2.53453736600186,-0.478449239397708,,-2.88328123520646,,
,13227.0,2724.0,9030.0,3111.0,2411.0,3162.0,391.0,,,,-0.0908507680291841,-2.53427464806368,-0.478343580535633,,-3.147985901122951,,
,13223.0,2722.0,9025.0,3111.0,2405.0,3158.0,369.0,,,,-0.0909178501599514,-2.53495969161916,-0.478521599000537,,-3.384094781112963,,
,13225.0,2723.0,9024.0,3111.0,2396.0,3160.0,363.0,,,,-0.0911523076243684,-2.53495105117206,-0.480278096039701,,-3.5948179975635375,,
,13222.0,2721.0,9018.0,3113.0,2401.0,3150.0,353.0,,,,-0.0913062250550485,-2.5352570496686,-0.480274454324095,,-3.783115180288875,,
,13218.0,2719.0,9013.0,3109.0,2384.0,3131.0,375.0,,,,-0.0912214198234681,-2.53598965802603,-0.480407147744181,,-3.9515583102873433,,
,13219.0,2720.0,9003.0,3105.0,2390.0,3125.0,373.0,,,,-0.091387799397298,-2.53594820389655,-0.480547708584402,,-4.102245137464959,,
,13213.0,2717.0,8995.0,3103.0,2389.0,3117.0,373.0,,,,-0.0915468246749147,-2.5364815718668,-0.481571564309824,,-4.23676682264105,,
,13209.0,2713.0,8988.0,3100.0,2391.0,3120.0,367.0,,,,-0.091533690107086,-2.53688647763634,-0.480641960767055,,-4.35622971337673,,
,13209.0,2712.0,8979.0,3096.0,2389.0,3112.0,376.0,,,,-0.0916570399114049,-2.53720328030233,-0.480497832805825,,-4.461326822560773,,
,13206.0,2709.0,8970.0,3090.0,2395.0,3124.0,395.0,,,,-0.0916968101595383,-2.53709913115982,-0.481816745056036,,-4.552449943982534,,
,13205.0,2706.0,8960.0,3089.0,2395.0,3142.0,382.0,,,,-0.0919217435955362,-2.53782081071638,-0.481887513999981,,-4.629828687315024,,
,13201.0,2703.0,8955.0,3087.0,2397.0,3146.0,394.0,,,,-0.0919085037709212,-2.53747453520288,-0.481375961411316,,-4.693678621102472,,
,13200.0,2703.0,8950.0,3084.0,2407.0,3150.0,373.0,,,,-0.0919344256278213,-2.53751240554254,-0.482197028121634,,-4.744338399200973,,
,13201.0,2698.0,8944.0,3083.0,2410.0,3146.0,379.0,,,,-0.0919339100622018,-2.53786503141703,-0.481607889120553,,-4.782376768808747,,
,13202.0,2700.0,8941.0,3079.0,2413.0,3130.0,350.0,,,,-0.0920638563233984,-2.53788594904922,-0.481206241350284,,-4.808655413502389,,
,13200.0,2698.0,8940.0,3077.0,2416.0,3140.0,330.0,,,,-0.0922041806052944,-2.53793807844725,-0.482496787967498,,-4.824341573208752,,
,13201.0,2700.0,8936.0,3079.0,2416.0,3144.0,332.0,,,,-0.0920336820164302,-2.53809110479449,-0.481307171596574,,-4.830872927018945,,
,13197.0,2699.0,8933.0,3075.0,2408.0,3147.0,357.0,,,,-0.0922172871385881,-2.53818402804105,-0.481986514808743,,-4.829884151876957,,
,13200.0,2699.0,8935.0,3076.0,2405.0,3161.0,362.0,,,,-0.0921792797130919,-2.53861826653378,-0.483844853808333,,-4.823108855325275,,
,13205.0,2702.0,8936.0,3076.0,2406.0,3165.0,336.0,,,,-0.0921862606031463,-2.53876307499526,-0.48287398352848,,-4.8122721562291595,,
,13206.0,2703.0,8940.0,3078.0,2408.0,3176.0,334.0,,,,-0.0923829029110895,-2.53889638110509,-0.482689507726762,,-4.798988278627882,,
2025-07-16 19:48:31,13208.0,2705.0,8938.0,3079.0,2397.0,3169.0,331.0,,,2025/07/16 07:48:31 PM,-0.0925836271293292,-2.5395315376161,-0.483151020778345,,-4.784674282565206,,
,13205.0,2705.0,8939.0,3076.0,2405.0,3173.0,328.0,,,,-0.0926027844463005,-2.53936375454951,-0.483244927405868,,-4.770485706735653,,
,13210.0,2706.0,8943.0,3078.0,2410.0,3165.0,333.0,,,,-0.0926908532617306,-2.53928788355026,-0.485497406689151,,-4.757273237185472,,
,13209.0,2707.0,8948.0,3082.0,2407.0,3153.0,349.0,,,,-0.0928119106610469,-2.53958768891911,-0.484776694578214,,-4.745553349864565,,
,13213.0,2707.0,8950.0,3082.0,2400.0,3149.0,350.0,,,,-0.0927547193763358,-2.53997895318416,-0.484071710959876,,-4.7354826563631525,,
,13211.0,2707.0,8951.0,3082.0,2411.0,3150.0,351.0,,,,-0.0929357866700619,-2.54025629359382,-0.485241348984181,,-4.72682709320395,,
,13214.0,2707.0,8954.0,3085.0,2411.0,3137.0,342.0,,,,-0.0929086608881693,-2.54018227848376,-0.486095899408003,,-4.718922706415101,,
,13213.0,2708.0,8955.0,3085.0,2333.0,3149.0,308.0,,,,-0.0930306571969273,-2.54055347793884,-0.485191150926583,,-4.710632236469614,,
,13216.0,2710.0,8958.0,3087.0,2323.0,3136.0,311.0,,,,-0.0931538001618395,-2.54066114831417,-0.48656546053666,,-4.70030822184535,,
,13213.0,2710.0,8960.0,3086.0,2440.0,3152.0,333.0,,,,-0.0932843979918913,-2.54092068592186,-0.486269651851185,,-4.685777027226593,,
,13216.0,2712.0,8961.0,3086.0,2347.0,3177.0,323.0,,,,-0.0932962267992881,-2.5410770791912,-0.486017016344813,,-4.664358331411586,,
,13217.0,2713.0,8965.0,3088.0,2404.0,3147.0,322.0,,,,-0.093349884172115,-2.54121517810069,-0.486133363031784,,-4.632931194644959,,
,13217.0,2711.0,8963.0,3090.0,2412.0,3141.0,340.0,,,,-0.0934788292253287,-2.54142144257816,-0.48642585317202,,-4.58805129727287,,
,13215.0,2713.0,8963.0,3090.0,2403.0,3126.0,355.0,,,,-0.0935923612041578,-2.54191819864027,-0.486411912921579,,-4.52611516358522,,
,13216.0,2711.0,8964.0,3089.0,2399.0,3113.0,374.0,,,,-0.0936664184374992,-2.54210280058762,-0.488278059157124,,-4.443557719097442,,
,13217.0,2713.0,8965.0,3089.0,2407.0,3111.0,351.0,,,,-0.0937083170270805,-2.5424110831883,-0.487120753244727,,-4.337061810616231,,
,13218.0,2714.0,8964.0,3091.0,2404.0,3121.0,351.0,,,,-0.0938332454173203,-2.54235141391809,-0.488427646969705,,-4.203755034456308,,
,13219.0,2713.0,8965.0,3092.0,2398.0,3129.0,349.0,,,,-0.0938812341626367,-2.54235260168001,-0.488089032321789,,-4.041371789254855,,
,13217.0,2711.0,8961.0,3090.0,2410.0,3126.0,360.0,,,,-0.0938541107629887,-2.54264552270607,-0.488861799820089,,-3.8483659389799323,,
,13216.0,2712.0,8965.0,3092.0,2393.0,3148.0,339.0,,,,-0.0939852005218259,-2.54265829360421,-0.48821196359795,,-3.6239691073568685,,
,13216.0,2716.0,8962.0,3091.0,2409.0,3158.0,318.0,,,,-0.094013488434193,-2.54318716490754,-0.488706653216237,,-3.3681985848427063,,
,13217.0,2715.0,8963.0,3090.0,2406.0,3158.0,312.0,,,,-0.0941399664317457,-2.54268159062826,-0.488025245059026,,-3.081825233415211,,
,13214.0,2714.0,8960.0,3089.0,2410.0,3151.0,321.0,,,,-0.0942195295564607,-2.54276829687395,-0.488463257105827,,-2.766314727576591,,
,13217.0,2715.0,8961.0,3090.0,2407.0,3140.0,371.0,,,,-0.0939233104490582,-2.54227981152372,-0.488981922675647,,-2.423754804297733,,
,13218.0,2715.0,8963.0,3089.0,2408.0,3148.0,359.0,,,,-0.0940011667104823,-2.54227515438534,-0.487794602589118,,-2.056777472494969,,
,13219.0,2717.0,8963.0,3088.0,2413.0,3139.0,340.0,,,,-0.0940551774227714,-2.54247463931749,-0.486953214081051,,-1.66847972787027,,
,13217.0,2715.0,8963.0,3090.0,2420.0,3143.0,350.0,,,,-0.0939764027242163,-2.54274896261845,-0.487613055864757,,-1.2623412358476875,,
,13220.0,2713.0,8964.0,3087.0,2412.0,3143.0,350.0,,,,-0.0939869190201401,-2.54261125099001,-0.486726832885835,,-0.8421347061604809,,
,13219.0,2714.0,8964.0,3090.0,2415.0,3129.0,313.0,,,,-0.0941532331916944,-2.54258646509114,-0.488132673856675,,-0.4118253463886834,,
,13218.0,2716.0,8965.0,3089.0,2415.0,3140.0,333.0,,,,-0.0941969387367101,-2.54269663059654,-0.487546231421967,,0.02454080861675775,,
,13218.0,2717.0,8967.0,3090.0,2409.0,3144.0,326.0,,,,-0.0941661068546767,-2.54358114950501,-0.487294254562844,,0.46295574949735074,,
,13216.0,2714.0,8967.0,3088.0,2405.0,3153.0,323.0,,,,-0.0942873213632218,-2.54391019283554,-0.486291043806584,,0.8995686579922593,,
,13221.0,2717.0,8970.0,3092.0,2413.0,3155.0,344.0,,,,-0.0942773058673115,-2.5434859706317,-0.486908201853386,,1.3307975661148188,,
,13218.0,2716.0,8970.0,3090.0,2413.0,3132.0,360.0,,,,-0.0943514277085085,-2.54358088289818,-0.485596521702884,,1.7534263688650407,,
,13219.0,2718.0,8970.0,3091.0,2402.0,3132.0,355.0,,,,-0.0942887589897601,-2.54334406977805,-0.487453627625284,,2.1646817217367014,,
,13220.0,2718.0,8973.0,3090.0,2398.0,3148.0,370.0,,,,-0.0942626566948707,-2.54345132668592,-0.486407307216028,,2.5622866835482725,,
,13221.0,2718.0,8974.0,3094.0,2411.0,3125.0,365.0,,,,-0.0942241379985954,-2.54345386704117,-0.485014419097386,,2.9444908141811967,,
,13223.0,2718.0,8975.0,3093.0,2410.0,3116.0,347.0,,,,-0.0943971728603362,-2.54383506901466,-0.485699329992886,,3.3100792198781512,,
,13226.0,2718.0,8980.0,3095.0,2409.0,3119.0,339.0,,,,-0.0943365208817808,-2.54421394940268,-0.486566944057583,,3.6583644184542092,,
,13222.0,2720.0,8981.0,3095.0,2390.0,3119.0,336.0,,,,-0.0943000214420481,-2.5442254139372,-0.485537314008887,,3.989163649825976,,
,13223.0,2720.0,8981.0,3095.0,2406.0,3123.0,307.0,,,,-0.0942788325527559,-2.54444944896708,-0.486861192430795,,4.302760645287779,,
,13225.0,2719.0,8983.0,3097.0,2390.0,3131.0,304.0,,,,-0.0944074767515988,-2.54467607931349,-0.486163227151362,,4.599846835995217,,
,13227.0,2721.0,8987.0,3099.0,2389.0,3131.0,340.0,,,,-0.0943446758470957,-2.54438364559621,-0.485228613627696,,4.881434794585693,,
,13225.0,2721.0,8988.0,3099.0,2391.0,3125.0,360.0,,,,-0.094383474694779,-2.54453538397898,-0.484742904372745,,5.148737511083876,,
,13229.0,2722.0,8987.0,3096.0,2406.0,3135.0,377.0,,,,-0.0944310353422035,-2.54479794691531,-0.485400693720057,,5.403010743833541,,
,13227.0,2722.0,8991.0,3100.0,2415.0,3151.0,337.0,,,,-0.0941703877613488,-2.54534364155007,-0.485590490186664,,5.645361461602321,,
,13233.0,2722.0,8995.0,3102.0,2409.0,3163.0,357.0,,,,-0.0942879913938043,-2.54529204207491,-0.485705300625381,,5.876532645024723,,
,13230.0,2724.0,8996.0,3103.0,2417.0,3169.0,342.0,,,,-0.0943377138236825,-2.54527697512526,-0.486336153631841,,6.096682634614662,,
,13230.0,2723.0,8996.0,3101.0,2409.0,3163.0,345.0,,,,-0.0944510825072987,-2.5456118369016,-0.486196510824841,,6.3051842547448675,,
,13227.0,2722.0,8995.0,3106.0,2410.0,3150.0,332.0,,,,-0.0945319394217249,-2.5459243965225,-0.486643844050311,,6.500472679634422,,
,13226.0,2726.0,8998.0,3105.0,2413.0,3149.0,330.0,,,,-0.094561676530566,-2.5460458047226,-0.486870268299129,,6.679969137747911,,
,13225.0,2727.0,8995.0,3103.0,2415.0,3151.0,336.0,,,,-0.0946845830872312,-2.54626824976975,-0.487030835760791,,6.8400996176535,,
,13226.0,2725.0,8991.0,3100.0,2401.0,3167.0,335.0,,,,-0.0946951088259856,-2.54665149267427,-0.486860440261028,,6.97641572171422,,
,13220.0,2722.0,8986.0,3103.0,2413.0,3155.0,341.0,,,,-0.0946893391223682,-2.54647297681068,-0.487364956164532,,7.0838117592579,,
,13221.0,2723.0,8979.0,3101.0,2407.0,3143.0,348.0,,,,-0.0947838464951457,-2.54725731644942,-0.487097573237873,,7.156820479383448,,
,13214.0,2719.0,8974.0,3096.0,2393.0,3139.0,361.0,,,,-0.0948797649238409,-2.54691862226686,-0.486138243337741,,7.189960956455874,,
,13211.0,2718.0,8965.0,3096.0,2393.0,3130.0,362.0,,,,-0.0949261207655973,-2.5470674958689,-0.487555660931709,,7.178107106618089,,
,13205.0,2715.0,8955.0,3088.0,2399.0,3117.0,370.0,,,,-0.0949345512873951,-2.54734933261406,-0.486758683817613,,7.116844869539842,,
,13203.0,2710.0,8944.0,3086.0,2392.0,3114.0,348.0,,,,-0.0950826973456381,-2.54748918685996,-0.486473593010744,,7.002790119794681,,
,13201.0,2706.0,8937.0,3086.0,2389.0,3123.0,364.0,,,,-0.0951235587982999,-2.54762706867508,-0.48689531810903,,6.833846493890014,,
,13198.0,2703.0,8926.0,3080.0,2388.0,3135.0,371.0,,,,-0.095029312044017,-2.5478184028285,-0.4869278904189,,6.609390171827024,,
,13196.0,2698.0,8914.0,3075.0,2397.0,3148.0,347.0,,,,-0.0951303634024578,-2.54751656839762,-0.487308172657545,,6.330374977801287,,
,13196.0,2692.0,8907.0,3072.0,2399.0,3139.0,310.0,,,,-0.0950998763588198,-2.54770729916008,-0.486656684341613,,5.999355085701887,,
,13194.0,2695.0,8902.0,3071.0,2408.0,3171.0,314.0,,,,-0.0951969655199237,-2.54832026427611,-0.487033367227483,,5.620424976193849,,
,13193.0,2695.0,8897.0,3071.0,2408.0,3164.0,319.0,,,,-0.0951740331429611,-2.54806431496382,-0.487870982131645,,5.199078625027028,,
,13194.0,2692.0,8893.0,3069.0,2405.0,3170.0,316.0,,,,-0.0954740268179223,-2.54828876351423,-0.486140846655656,,4.741993076416071,,
,13196.0,2689.0,8887.0,3067.0,2403.0,3152.0,324.0,,,,-0.0955365760768985,-2.54844815521552,-0.487975640161523,,4.256745473412235,,
,13196.0,2692.0,8887.0,3066.0,2409.0,3142.0,319.0,,,,-0.0952675352596573,-2.54838187180894,-0.485941572139046,,3.7514769210114034,,
,13195.0,2691.0,8887.0,3066.0,2408.0,3142.0,306.0,,,,-0.0953664721859215,-2.54804996881478,-0.487331377876169,,3.234521167857004,,
,13193.0,2692.0,8888.0,3069.0,2406.0,3138.0,303.0,,,,-0.0954111390873692,-2.54772149876239,-0.486657435161158,,2.714020936197026,,
,13197.0,2694.0,8886.0,3064.0,2398.0,3154.0,301.0,,,,-0.0953999967921128,-2.54839787085355,-0.487149293764411,,2.1975591610464553,,
,13199.0,2695.0,8887.0,3067.0,2412.0,3140.0,331.0,,,,-0.0955830334653656,-2.5485496960245,-0.487253158073646,,1.6918349851094616,,
,13201.0,2694.0,8889.0,3068.0,2412.0,3150.0,345.0,,,,-0.0955367960442099,-2.54845357265146,-0.487251443589549,,1.2024132444993594,,
,13202.0,2695.0,8891.0,3067.0,2413.0,3142.0,340.0,,,,-0.0955252523157074,-2.54856050744518,-0.48745345386738,,0.7335700564605176,,
,13204.0,2699.0,8891.0,3068.0,2400.0,3156.0,342.0,,,,-0.0955465033501347,-2.54896213157305,-0.488032681702422,,0.2882463361927437,,
,13200.0,2696.0,8894.0,3067.0,2406.0,3142.0,325.0,,,,-0.0955617471430515,-2.54913826112556,-0.48954850811178,,-0.13189210163835446,,
,13207.0,2703.0,8896.0,3070.0,2406.0,3159.0,316.0,,,,-0.0956562976216793,-2.54957316097972,-0.488543709411033,,-0.5263017619037977,,
,13209.0,2701.0,8902.0,3072.0,2407.0,3148.0,310.0,,,,-0.0957623628520362,-2.54986684471241,-0.489049083549468,,-0.8953397356180748,,
,13210.0,2702.0,8903.0,3072.0,2401.0,3145.0,310.0,,,,-0.0958342638867814,-2.5500133793585,-0.488920861978723,,-1.240002969308048,,
,13209.0,2704.0,8905.0,3073.0,2407.0,3151.0,345.0,,,,-0.0960078052273956,-2.55026366121,-0.489317368935801,,-1.561660770729437,,
,13210.0,2704.0,8908.0,3074.0,2410.0,3156.0,345.0,,,,-0.095991480049795,-2.55046997910728,-0.487993378626522,,-1.8618107871218366,,
,13211.0,2705.0,8908.0,3075.0,2402.0,3151.0,341.0,,,,-0.0959917728986506,-2.5506005589776,-0.489162668011699,,-2.141882507811606,,
,13213.0,2704.0,8907.0,3076.0,2408.0,3148.0,344.0,,,,-0.0962535795848273,-2.55046275881908,-0.488961917223191,,-2.403102819595505,,
,13212.0,2706.0,8906.0,3077.0,2398.0,3143.0,351.0,,,,-0.0960848636142284,-2.55071265900908,-0.489290030681213,,-2.646426847811638,,
,13213.0,2705.0,8910.0,3076.0,2401.0,3138.0,349.0,,,,-0.096107024764799,-2.55061090755668,-0.490022434234374,,-2.872526535503835,,
,13217.0,2707.0,8908.0,3079.0,2394.0,3141.0,350.0,,,,-0.096237628807767,-2.55128167507234,-0.490763414942548,,-3.081821811292075,,
,13211.0,2707.0,8912.0,3078.0,2391.0,3149.0,344.0,,,,-0.0961922104043974,-2.55164596016815,-0.489403851130013,,-3.2745365688563064,,
,13214.0,2707.0,8908.0,3079.0,2387.0,3149.0,332.0,,,,-0.0963742174512454,-2.55118431642101,-0.489714245699449,,-3.450763774345167,,
,13214.0,2705.0,8907.0,3077.0,2390.0,3142.0,321.0,,,,-0.0964245909403985,-2.55161207406045,-0.490154812775387,,-3.6105288326515734,,
,13215.0,2708.0,8911.0,3080.0,2396.0,3138.0,331.0,,,,-0.0964883680748686,-2.55185540093236,-0.490324650429698,,-3.7538456288007946,,
,13213.0,2708.0,8905.0,3079.0,2402.0,3149.0,330.0,,,,-0.0965502115173238,-2.55192180832701,-0.49125143769155,,-3.8807640485276527,,
,13214.0,2708.0,8905.0,3079.0,2404.0,3154.0,331.0,,,,-0.0964097068576302,-2.55179444361053,-0.489399840642357,,-3.9914107739869364,,
,13213.0,2707.0,8907.0,3076.0,2402.0,3148.0,349.0,,,,-0.0965802956752273,-2.55221100445,-0.489451128154472,,-4.086026537559661,,
,13211.0,2707.0,8907.0,3077.0,2401.0,3140.0,342.0,,,,-0.0965641668294509,-2.55195572051643,-0.4895577225761,,-4.16500256626743,,
,13215.0,2709.0,8901.0,3078.0,2398.0,3154.0,325.0,,,,-0.096560635390122,-2.55198823547514,-0.489007995610438,,-4.228916566741924,,
,13213.0,2711.0,8904.0,3080.0,2403.0,3163.0,315.0,,,,-0.0965808126350919,-2.55246427080339,-0.490090158043126,,-4.2785647514724765,,
,13212.0,2709.0,8902.0,3076.0,2410.0,3149.0,324.0,,,,-0.0965049686610315,-2.55225435826887,-0.490091898908674,,-4.314982470732632,,
,13215.0,2708.0,8903.0,3076.0,2408.0,3161.0,332.0,,,,-0.09659299547443,-2.55203816173823,-0.490303574282715,,-4.339444018594383,,
,13215.0,2710.0,8903.0,3078.0,2407.0,3153.0,314.0,,,,-0.0964650757852638,-2.55194851798596,-0.487927363708561,,-4.353433640710493,,
,13219.0,2712.0,8903.0,3079.0,2402.0,3158.0,305.0,,,,-0.09640412176882,-2.55219700191307,-0.488300530921593,,-4.358584513344971,,
,13214.0,2711.0,8903.0,3076.0,2410.0,3158.0,332.0,,,,-0.0964076196451482,-2.55239255185954,-0.490504824840759,,-4.356588722937345,,
,13213.0,2710.0,8903.0,3076.0,2404.0,3155.0,336.0,,,,-0.0964740957317222,-2.55241572126914,-0.489656555618354,,-4.34908697498235,,
,13217.0,2712.0,8904.0,3078.0,2409.0,3158.0,353.0,,,,-0.0964793387494431,-2.55227477985065,-0.488817061541184,,-4.337550606645982,,
