TimeLabel,MEAS1_PPG1,MEAS1_PPG2,MEAS1_PPG3,MEAS1_PPG4,ACCX,ACCY,ACCZ,HR_timestamp,HR_value,radar_timestamp,phase_rx0,phase_rx1,phase_rx2,timestep,n_process,original_rate,calculated_rate
2025-07-16 17:58:00,4696.0,566.0,4051.0,817.0,-95.0,1481.0,3671.0,2025-07-16 17:58:06,80.0,2025/07/16 05:58:00 PM,1.9915307517739,-2.93693691566523,-1.87814179293137,2025/07/16 05:58:00 PM,-1.7141571266810385,23.58827781677246,22.07775275571886
,4694.0,568.0,4051.0,817.0,-99.0,1482.0,3679.0,2025-07-16 17:58:07,80.0,,1.9909923149491,-2.93709416348541,-1.87875915884479,2025/07/16 05:58:10 PM,-1.7130689579035026,23.878437042236328,23.443203696572972
,4695.0,569.0,4049.0,820.0,-102.0,1481.0,3680.0,2025-07-16 17:58:07,80.0,,1.99162653974842,-2.93663453884619,-1.87811355476886,2025/07/16 05:58:20 PM,-1.7066366733428806,23.4375,22.682539682539687
,4694.0,566.0,4049.0,816.0,-107.0,1483.0,3674.0,2025-07-16 17:58:08,80.0,,1.99125415966786,-2.93657968701337,-1.87858368880918,2025/07/16 05:58:30 PM,-1.6891765258267928,22.8848819732666,23.094017094017083
,4693.0,566.0,4051.0,815.0,-101.0,1488.0,3676.0,2025-07-16 17:58:09,80.0,,1.99173522865913,-2.9371223135066,-1.87842581237169,2025/07/16 05:58:40 PM,-1.6540999220251378,23.028610229492188,22.79292734818342
,4693.0,568.0,4051.0,816.0,-96.0,1480.0,3680.0,2025-07-16 17:58:10,80.0,,1.99158146884963,-2.93519786326484,-1.87834843036237,2025/07/16 05:58:50 PM,-1.5945424054173887,22.774326324462887,20.977837675950887
,4694.0,566.0,4049.0,815.0,-94.0,1478.0,3678.0,2025-07-16 17:58:11,80.0,,1.99150583090089,-2.93626211915765,-1.87781466544789,2025/07/16 05:59:00 PM,-1.5040439628745772,22.48875617980957,22.36198462613558
,4694.0,567.0,4051.0,817.0,-88.0,1476.0,3662.0,2025-07-16 17:58:12,79.0,,1.9914658602812,-2.93643499116162,-1.87852670442624,2025/07/16 05:59:10 PM,-1.3772103323174192,21.86588859558105,21.117134426679463
,4691.0,567.0,4050.0,818.0,-87.0,1478.0,3655.0,2025-07-16 17:58:13,79.0,,1.99079180824951,-2.9364323092781,-1.87829035077182,2025/07/16 05:59:20 PM,-1.2102846103465887,21.32196044921875,22.27057308274247
,4691.0,565.0,4049.0,818.0,-93.0,1479.0,3673.0,2025-07-16 17:58:14,80.0,,1.99110611757736,-2.93744481370459,-1.8781962839325,2025/07/16 05:59:30 PM,-1.0015698877184995,21.707670211791992,22.157577476380347
,4694.0,569.0,4050.0,818.0,-97.0,1484.0,3666.0,2025-07-16 17:58:15,80.0,,1.99131526911898,-2.93695688798148,-1.87789207704595,2025/07/16 05:59:40 PM,-0.7516652355230266,21.881837844848636,22.80161943319836
,4691.0,567.0,4051.0,815.0,-96.0,1474.0,3675.0,2025-07-16 17:58:16,80.0,,1.99183691998871,-2.93792812822688,-1.87743917532944,2025/07/16 05:59:50 PM,-0.46350414326952705,22.61823081970215,23.47255486107059
,4691.0,567.0,4050.0,816.0,-98.0,1478.0,3677.0,2025-07-16 17:58:17,81.0,,1.9930488902806,-2.93651082594072,-1.87796620342822,2025/07/16 06:00:00 PM,-0.14221028399557734,22.744503021240234,24.877876682587917
,4692.0,568.0,4049.0,817.0,-91.0,1489.0,3688.0,2025-07-16 17:58:18,81.0,,1.99190089843935,-2.93656546197277,-1.8783129033624,2025/07/16 06:00:10 PM,0.2051946995169138,24.016010284423828,24.251330967169515
,4692.0,569.0,4052.0,816.0,-102.0,1493.0,3673.0,2025-07-16 17:58:19,81.0,,1.99180612545985,-2.9363730177803,-1.87824474259659,2025/07/16 06:00:20 PM,0.5701852790484978,24.324323654174805,23.10761266286872
,4689.0,567.0,4051.0,815.0,-101.0,1485.0,3675.0,2025-07-16 17:58:20,81.0,,1.99234460442363,-2.93579097030513,-1.87888138319836,2025/07/16 06:00:30 PM,0.9431789304596202,23.98255920410156,25.723861417945443
,4692.0,566.0,4049.0,815.0,-96.0,1472.0,3665.0,2025-07-16 17:58:21,80.0,,1.99251623759167,-2.93667037664925,-1.87839332730916,2025/07/16 06:00:40 PM,1.3139907739644916,24.291498184204105,22.27188446228698
,4690.0,565.0,4047.0,815.0,-98.0,1473.0,3652.0,2025-07-16 17:58:22,80.0,,1.9919700689102,-2.93675117541748,-1.87819290657989,2025/07/16 06:00:50 PM,1.6722598652075533,23.521026611328125,23.275432674681756
,4692.0,569.0,4049.0,816.0,-102.0,1472.0,3646.0,2025-07-16 17:58:23,80.0,,1.99174191973351,-2.93662785244511,-1.8781475632074,,2.0078231144221905,,
,4694.0,568.0,4047.0,817.0,-96.0,1474.0,3655.0,2025-07-16 17:58:24,80.0,,1.99189757457688,-2.93692495249524,-1.87911185916449,,2.3110265519800426,,
,4690.0,566.0,4049.0,817.0,-100.0,1477.0,3667.0,2025-07-16 17:58:25,81.0,,1.99245076570708,-2.93772581713081,-1.87831852643539,,2.5729775712909335,,
,4689.0,566.0,4046.0,814.0,-92.0,1483.0,3665.0,2025-07-16 17:58:26,81.0,,1.99300353933253,-2.93565752375478,-1.87844758576437,,2.7857537860900186,,
,4691.0,567.0,4048.0,817.0,-91.0,1480.0,3661.0,2025-07-16 17:58:27,82.0,,1.99192108319409,-2.93694407843563,-1.87791813462724,,2.9425914188274884,,
,4694.0,565.0,4048.0,817.0,-94.0,1488.0,3675.0,2025-07-16 17:58:28,82.0,,1.99126717698023,-2.93647996783175,-1.87768558846257,,3.0380759751432542,,
,4694.0,569.0,4048.0,817.0,-95.0,1482.0,3671.0,2025-07-16 17:58:29,82.0,,1.99157629416703,-2.93684909124271,-1.87798460684857,,3.0683494797415065,,
,4691.0,565.0,4046.0,816.0,-91.0,1466.0,3674.0,2025-07-16 17:58:30,82.0,,1.99224103485335,-2.93785309690028,-1.87818769339353,,3.031333832912611,,
,4694.0,568.0,4047.0,818.0,-88.0,1478.0,3656.0,2025-07-16 17:58:31,81.0,,1.99195088827155,-2.93673775475736,-1.87788907142956,,2.9269531549095755,,
,4693.0,569.0,4048.0,817.0,-90.0,1481.0,3648.0,2025-07-16 17:58:32,81.0,,1.99216835359387,-2.93635893538123,-1.87766312561683,,2.7573238117396173,,
,4693.0,566.0,4047.0,817.0,-92.0,1471.0,3651.0,2025-07-16 17:58:33,80.0,,1.99168835236105,-2.93667811802426,-1.87767166227869,,2.5268724092398447,,
,4696.0,567.0,4049.0,817.0,-89.0,1469.0,3660.0,2025-07-16 17:58:34,80.0,,1.99177054465338,-2.93716145119207,-1.87828090212327,,2.242341026144272,,
,4695.0,565.0,4046.0,817.0,-89.0,1472.0,3655.0,2025-07-16 17:58:35,80.0,,1.99215597800497,-2.93632463592806,-1.8781682738505,,1.912645629833094,,
,4696.0,564.0,4045.0,816.0,-101.0,1467.0,3686.0,2025-07-16 17:58:36,80.0,,1.99066254082617,-2.93796791451884,-1.8782905784265,,1.5485672958376087,,
,4695.0,568.0,4050.0,820.0,-90.0,1468.0,3669.0,2025-07-16 17:58:37,79.0,,1.98981480143356,-2.93774834322027,-1.87778719029014,,1.162274973613871,,
,4696.0,568.0,4050.0,818.0,-89.0,1478.0,3648.0,2025-07-16 17:58:38,79.0,,1.98942628388896,-2.93676008533385,-1.87860967988853,,0.7667006931626884,,
,4698.0,564.0,4049.0,818.0,-96.0,1474.0,3663.0,2025-07-16 17:58:40,79.0,,1.98969878625562,-2.93770037934182,-1.8778673073465,,0.37481018652345555,,
,4699.0,568.0,4051.0,819.0,-95.0,1464.0,3664.0,2025-07-16 17:58:40,79.0,,1.98930136214147,-2.9368474849359,-1.87771689533433,,-0.0011695383775099189,,
,4698.0,570.0,4050.0,821.0,-89.0,1477.0,3649.0,2025-07-16 17:58:41,78.0,,1.9891234344309,-2.93838083367198,-1.87799070975841,,-0.3504924529255114,,
,4699.0,569.0,4051.0,820.0,-85.0,1478.0,3650.0,2025-07-16 17:58:42,79.0,,1.98890228334724,-2.93944952111797,-1.87831750319853,,-0.6645303727345033,,
,4698.0,569.0,4050.0,820.0,-91.0,1479.0,3668.0,2025-07-16 17:58:43,79.0,,1.9885439401812,-2.93832568286809,-1.8778650806547,,-0.9372382920070793,,
,4701.0,566.0,4049.0,822.0,-96.0,1486.0,3656.0,2025-07-16 17:58:44,80.0,,1.98870992261752,-2.93715295040402,-1.87805992673469,,-1.1654012119900736,,
,4700.0,570.0,4053.0,823.0,-96.0,1479.0,3667.0,2025-07-16 17:58:45,80.0,,1.98900694138119,-2.93785730475961,-1.87809091499445,,-1.348641176055174,,
,4703.0,567.0,4052.0,821.0,-82.0,1474.0,3675.0,2025-07-16 17:58:46,80.0,,1.98968740216853,-2.93766170201908,-1.87766835931775,,-1.4891905212461556,,
,4701.0,567.0,4053.0,822.0,-91.0,1486.0,3665.0,2025-07-16 17:58:47,80.0,,1.98913814070944,-2.93803911281109,-1.87811550482524,,-1.5914618080452558,,
,4703.0,566.0,4053.0,820.0,-93.0,1483.0,3671.0,2025-07-16 17:58:48,80.0,,1.9895846496804,-2.93813251137731,-1.87765463071173,,-1.661463644719827,,
,4703.0,570.0,4055.0,823.0,-92.0,1484.0,3662.0,2025-07-16 17:58:49,80.0,,1.98947603078806,-2.93787633015873,-1.87728998497814,,-1.7061234988500686,,
,4706.0,570.0,4056.0,822.0,-112.0,1476.0,3674.0,2025-07-16 17:58:50,80.0,,1.98861944885228,-2.93738426576552,-1.87711633473239,,-1.7325835340275024,,
,4707.0,568.0,4053.0,823.0,-97.0,1481.0,3680.0,2025-07-16 17:58:51,80.0,,1.98875505697235,-2.93835831131956,-1.87838495669314,,-1.7475340226155678,,
,4703.0,567.0,4053.0,820.0,-98.0,1481.0,3676.0,2025-07-16 17:58:52,80.0,,1.98940753488923,-2.93765402449701,-1.87797049380923,,-1.7566416362567239,,
,4706.0,568.0,4058.0,823.0,-107.0,1483.0,3671.0,2025-07-16 17:58:53,80.0,,1.9893426094688,-2.93794163762906,-1.87853760410989,,-1.7641176151786806,,
,4708.0,568.0,4055.0,826.0,-102.0,1486.0,3679.0,2025-07-16 17:58:54,79.0,,1.98851599662609,-2.93823689461636,-1.87842763619145,,-1.7724543583877175,,
,4709.0,570.0,4059.0,823.0,-95.0,1494.0,3683.0,2025-07-16 17:58:55,79.0,,1.98949174784313,-2.93895369206545,-1.87712617136005,,-1.782339754584546,,
,4709.0,567.0,4057.0,824.0,-91.0,1486.0,3658.0,2025-07-16 17:58:56,79.0,,1.9887371171115,-2.93879992354295,-1.87830676678367,,-1.7927388127990274,,
,4712.0,565.0,4058.0,824.0,-91.0,1474.0,3666.0,2025-07-16 17:58:57,79.0,,1.98914007353239,-2.93814621706632,-1.8780494883161,,-1.8011149853814288,,
,4710.0,570.0,4060.0,824.0,-101.0,1483.0,3646.0,2025-07-16 17:58:58,79.0,,1.98879490158706,-2.93822578893053,-1.87790687082288,,-1.8037523223324334,,
,4712.0,570.0,4063.0,826.0,-100.0,1477.0,3667.0,2025-07-16 17:58:59,79.0,,1.98856960797144,-2.9381584721796,-1.87811269356573,,-1.7961361402227318,,
,4711.0,572.0,4061.0,825.0,-89.0,1474.0,3678.0,2025-07-16 17:59:00,79.0,,1.98910707891101,-2.93759240506979,-1.87862761022466,,-1.7733534636332482,,
,4711.0,570.0,4059.0,825.0,-88.0,1464.0,3672.0,2025-07-16 17:59:01,79.0,,1.98903249884605,-2.93710329643636,-1.8787936890246,,-1.7304822159686362,,
,4712.0,570.0,4062.0,825.0,-88.0,1469.0,3681.0,2025-07-16 17:59:02,79.0,,1.98921515513303,-2.93762114086797,-1.87796943097648,,-1.6629468186164778,,
,4712.0,569.0,4061.0,826.0,-81.0,1473.0,3697.0,2025-07-16 17:59:03,79.0,,1.98938048772007,-2.93786644068331,-1.87848475704689,,-1.5668255387325518,,
,4714.0,570.0,4060.0,827.0,-82.0,1480.0,3702.0,2025-07-16 17:59:04,79.0,,1.98894638443146,-2.93777987569524,-1.87844463637459,,-1.4391011552474267,,
,4713.0,569.0,4062.0,826.0,-100.0,1484.0,3689.0,2025-07-16 17:59:05,79.0,,1.98963103198864,-2.93726805662114,-1.87818596197103,,-1.277851724770185,,
,4714.0,570.0,4062.0,826.0,-99.0,1483.0,3678.0,2025-07-16 17:59:06,79.0,,1.9887505331423,-2.93732695062726,-1.87750330164895,,-1.0823829375297898,,
,4715.0,572.0,4063.0,829.0,-104.0,1478.0,3663.0,2025-07-16 17:59:07,79.0,,1.98924849375915,-2.93841480461721,-1.87878124637643,,-0.853307753930831,,
,4716.0,572.0,4064.0,829.0,-105.0,1474.0,3656.0,2025-07-16 17:59:08,79.0,,1.98846777506864,-2.93825736526884,-1.87809748629683,,-0.5925819088685028,,
,4716.0,570.0,4065.0,828.0,-101.0,1471.0,3657.0,2025-07-16 17:59:09,78.0,,1.98944452397085,-2.93773812500431,-1.87773296052631,,-0.30350416712755535,,
,4715.0,570.0,4061.0,825.0,-89.0,1470.0,3654.0,2025-07-16 17:59:10,78.0,,1.98819345649377,-2.93811994108396,-1.8782465426936,,0.009312960057152228,,
,4717.0,570.0,4065.0,827.0,-86.0,1480.0,3653.0,2025-07-16 17:59:11,78.0,,1.98841781786083,-2.93874975453916,-1.87841776209322,,0.3400023668395226,,
,4715.0,568.0,4062.0,823.0,-93.0,1478.0,3685.0,2025-07-16 17:59:12,78.0,,1.98899032454998,-2.9381662450473,-1.87832404763324,,0.6815382712205136,,
,4713.0,570.0,4061.0,824.0,-100.0,1485.0,3680.0,2025-07-16 17:59:13,78.0,,1.98857634724855,-2.93804468355254,-1.8781863666073,,1.0258798884203675,,
,4709.0,567.0,4060.0,821.0,-99.0,1479.0,3665.0,2025-07-16 17:59:14,77.0,,1.98866060585603,-2.93838453420217,-1.87822890843344,,1.3641735644449764,,
,4709.0,568.0,4061.0,821.0,-96.0,1484.0,3661.0,2025-07-16 17:59:15,76.0,,1.98831943259806,-2.93796470937778,-1.87839467795364,,1.6870196313217332,,
,4707.0,569.0,4058.0,821.0,-96.0,1480.0,3659.0,2025-07-16 17:59:16,76.0,,1.98894033231845,-2.93752716652924,-1.87738454147669,,1.9848033387434556,,
,4701.0,568.0,4058.0,821.0,-94.0,1478.0,3666.0,2025-07-16 17:59:17,76.0,,1.98905008504442,-2.93715931029836,-1.87785365955903,,2.248081591144644,,
,4701.0,566.0,4056.0,816.0,-101.0,1482.0,3672.0,2025-07-16 17:59:18,77.0,,1.98935820401248,-2.93768990627367,-1.87803633439424,,2.4680098020434946,,
,4696.0,564.0,4052.0,815.0,-99.0,1482.0,3669.0,2025-07-16 17:59:19,77.0,,1.98826830932023,-2.93795509569083,-1.8779013069844,,2.6367862746477857,,
,4696.0,568.0,4053.0,814.0,-97.0,1481.0,3667.0,2025-07-16 17:59:20,78.0,,1.98782096105787,-2.93766033847104,-1.87767807396996,,2.748085454948288,,
,4696.0,566.0,4051.0,814.0,-97.0,1483.0,3664.0,2025-07-16 17:59:21,78.0,,1.98855050386761,-2.93787933469614,-1.87864628903349,,2.7974469078839905,,
,4691.0,565.0,4049.0,814.0,-97.0,1485.0,3666.0,2025-07-16 17:59:22,78.0,,1.98925149920527,-2.93826302549706,-1.87835322822236,,2.7825850607694913,,
,4689.0,564.0,4047.0,811.0,-92.0,1486.0,3664.0,2025-07-16 17:59:23,79.0,,1.98894436632068,-2.93749031129098,-1.87766603138516,,2.703586927905523,,
,4687.0,563.0,4046.0,813.0,-96.0,1479.0,3677.0,2025-07-16 17:59:24,79.0,,1.98968648476568,-2.93783105180765,-1.87860822227023,,2.562972202619317,,
,4685.0,566.0,4047.0,812.0,-95.0,1479.0,3675.0,2025-07-16 17:59:25,79.0,,1.98982137030284,-2.93787102896899,-1.87802963706481,,2.3656023813404086,,
,4683.0,564.0,4047.0,815.0,-97.0,1477.0,3671.0,2025-07-16 17:59:26,79.0,,1.99017681308587,-2.9377958245462,-1.87830409873556,,2.1184414581484394,,
,4683.0,565.0,4044.0,811.0,-98.0,1482.0,3666.0,2025-07-16 17:59:27,79.0,,1.99026675735172,-2.93756714998267,-1.87722928110183,,1.8301870192819116,,
,4681.0,562.0,4044.0,811.0,-101.0,1487.0,3670.0,2025-07-16 17:59:28,79.0,,1.98962588740299,-2.93761256761834,-1.87779304249916,,1.5108036073561124,,
,4682.0,564.0,4049.0,811.0,-94.0,1476.0,3684.0,2025-07-16 17:59:29,79.0,,1.98985483145299,-2.93764182908738,-1.87793421265112,,1.1709976674838618,,
,4679.0,563.0,4045.0,811.0,-98.0,1479.0,3691.0,2025-07-16 17:59:30,79.0,,1.99013180134845,-2.93833435111671,-1.87749674180589,,0.8216750720005332,,
,4679.0,565.0,4049.0,812.0,-97.0,1477.0,3678.0,2025-07-16 17:59:31,79.0,,1.99092717572261,-2.93832556526746,-1.8785165953704,,0.47341945039055205,,
,4682.0,564.0,4045.0,814.0,-95.0,1472.0,3667.0,2025-07-16 17:59:33,79.0,,1.98998022985931,-2.93722326352686,-1.87801048392344,,0.1360237973474523,,
,4679.0,565.0,4049.0,810.0,-101.0,1470.0,3665.0,2025-07-16 17:59:33,79.0,,1.99018373661805,-2.93752027315055,-1.87798950034204,,-0.18189992371449648,,
,4681.0,565.0,4046.0,811.0,-97.0,1468.0,3684.0,2025-07-16 17:59:34,78.0,,1.99009702351021,-2.93718093168039,-1.87838004951145,,-0.47321756548040045,,
,4678.0,565.0,4046.0,811.0,-102.0,1463.0,3681.0,2025-07-16 17:59:35,78.0,,1.99092834274813,-2.93807572099215,-1.87811944758695,,-0.7324700261606013,,
,4677.0,562.0,4048.0,811.0,-96.0,1471.0,3680.0,2025-07-16 17:59:36,77.0,,1.98905873543652,-2.93727078276368,-1.8786789999762,,-0.9559740711270579,,
,4680.0,564.0,4048.0,812.0,-95.0,1472.0,3652.0,2025-07-16 17:59:37,77.0,,1.99012855865623,-2.93794758531338,-1.87839042112346,,-1.1418369177065093,,
,4679.0,566.0,4046.0,811.0,-95.0,1466.0,3672.0,2025-07-16 17:59:38,77.0,,1.99025680604395,-2.93728877991042,-1.87877569918135,,-1.2898982691121053,,
,4680.0,565.0,4050.0,812.0,-97.0,1472.0,3675.0,2025-07-16 17:59:39,77.0,,1.99027374036501,-2.93838389885872,-1.87759731103007,,-1.401612752461663,,
,4680.0,564.0,4050.0,811.0,-98.0,1476.0,3663.0,2025-07-16 17:59:40,77.0,,1.99024931563232,-2.93764406409323,-1.87799908973647,,-1.479881350269495,,
,4678.0,563.0,4049.0,810.0,-91.0,1486.0,3681.0,2025-07-16 17:59:41,77.0,,1.98993844828296,-2.93744135710082,-1.87825314827893,,-1.5288346277915228,,
,4679.0,565.0,4050.0,812.0,-88.0,1486.0,3664.0,2025-07-16 17:59:42,77.0,,1.99028173776872,-2.93816316702628,-1.87838908631123,,-1.553566544649441,,
,4679.0,565.0,4051.0,811.0,-99.0,1480.0,3659.0,2025-07-16 17:59:43,77.0,,1.99071144008469,-2.93835679604006,-1.87696401910663,,-1.5598179618329653,,
,4678.0,564.0,4051.0,812.0,-86.0,1481.0,3658.0,2025-07-16 17:59:44,77.0,,1.99015547740307,-2.93701422032375,-1.87799874903065,,-1.5536140129014355,,
,4680.0,564.0,4051.0,810.0,-91.0,1478.0,3657.0,2025-07-16 17:59:45,77.0,,1.99059414906274,-2.93820482528171,-1.87786901698093,,-1.540867483854425,,
,4680.0,565.0,4054.0,813.0,-101.0,1470.0,3679.0,2025-07-16 17:59:46,77.0,,1.99065457806207,-2.93675009950756,-1.87792923553815,,-1.5269685706416927,,
,4681.0,562.0,4052.0,811.0,-104.0,1466.0,3684.0,2025-07-16 17:59:47,77.0,,1.99043912873197,-2.9374394777647,-1.87830007977237,,-1.5163877760545759,,
,4681.0,565.0,4056.0,812.0,-100.0,1471.0,3674.0,2025-07-16 17:59:48,77.0,,1.99051943044643,-2.93738921702235,-1.87818002200298,,-1.5123222992939311,,
,4679.0,562.0,4055.0,810.0,-92.0,1485.0,3675.0,2025-07-16 17:59:49,76.0,,1.9901442787616,-2.9379832472447,-1.87770616464072,,-1.5164168677427887,,
,4680.0,565.0,4056.0,812.0,-98.0,1473.0,3682.0,2025-07-16 17:59:50,77.0,,1.99032519760973,-2.93781120896386,-1.87795687167281,,-1.5285876118977286,,
,4678.0,563.0,4056.0,814.0,-99.0,1480.0,3683.0,2025-07-16 17:59:51,77.0,,1.99092652279894,-2.9386359759739,-1.87814819914062,,-1.546972303780187,,
,4678.0,564.0,4057.0,811.0,-93.0,1477.0,3688.0,2025-07-16 17:59:52,77.0,,1.99045477567648,-2.9379024799567,-1.87820730557187,,-1.568021985226867,,
,4680.0,565.0,4056.0,812.0,-90.0,1462.0,3683.0,2025-07-16 17:59:53,77.0,,1.99054941742561,-2.93875554474433,-1.87788097552903,,-1.5867376416342416,,
,4678.0,561.0,4055.0,810.0,-88.0,1477.0,3674.0,2025-07-16 17:59:54,78.0,,1.99059238726097,-2.93765626280768,-1.87782930855425,,-1.5970414130233073,,
,4677.0,565.0,4058.0,814.0,-87.0,1483.0,3655.0,2025-07-16 17:59:55,78.0,,1.99121947004641,-2.9377263492099,-1.87824046894298,,-1.592256000326585,,
,4679.0,564.0,4060.0,813.0,-99.0,1482.0,3652.0,2025-07-16 17:59:56,78.0,,1.99031135290896,-2.93730720285916,-1.8786343465916,,-1.5656507987956136,,
,4681.0,565.0,4060.0,814.0,-100.0,1482.0,3660.0,2025-07-16 17:59:57,79.0,,1.99045543451749,-2.93707706391933,-1.87840008984244,,-1.5110023469575815,,
,4675.0,563.0,4059.0,812.0,-91.0,1484.0,3669.0,2025-07-16 17:59:58,79.0,,1.99102654541355,-2.93823042101334,-1.87832342410531,,-1.4231132569885492,,
,4679.0,565.0,4062.0,812.0,-93.0,1481.0,3678.0,2025-07-16 17:59:59,79.0,,1.99044582355165,-2.93814643188339,-1.8775188719805,,-1.2982393171297144,,
,4679.0,565.0,4060.0,812.0,-87.0,1486.0,3653.0,2025-07-16 18:00:00,80.0,,1.9902659057761,-2.9370336988805,-1.87799648731755,,-1.1343876807708335,,
,4681.0,566.0,4062.0,811.0,-95.0,1484.0,3650.0,2025-07-16 18:00:01,80.0,,1.99122280750341,-2.93665625517756,-1.8778597692551,,-0.9314669691634372,,
,4679.0,563.0,4064.0,813.0,-101.0,1484.0,3659.0,2025-07-16 18:00:02,81.0,,1.99045671545098,-2.93719415603928,-1.87851837121296,,-0.6912893778735693,,
,4679.0,566.0,4064.0,811.0,-99.0,1477.0,3655.0,2025-07-16 18:00:03,81.0,,1.99145299232322,-2.93757316211636,-1.87794423741358,,-0.4174425375898347,,
,4681.0,566.0,4065.0,812.0,-104.0,1469.0,3657.0,2025-07-16 18:00:04,81.0,,1.99108083137305,-2.93745398416189,-1.8782641124842,,-0.11506247160023202,,
,4679.0,564.0,4062.0,813.0,-94.0,1479.0,3679.0,2025-07-16 18:00:05,81.0,,1.99107621492813,-2.93784080786554,-1.87784414202489,,0.20945327881912026,,
,4680.0,564.0,4064.0,811.0,-85.0,1485.0,3671.0,2025-07-16 18:00:06,81.0,,1.99176615097826,-2.93753445356302,-1.87825325973004,,0.5487522539166386,,
,4680.0,564.0,4064.0,812.0,-94.0,1475.0,3682.0,2025-07-16 18:00:07,81.0,,1.98996001252857,-2.93717630020608,-1.87807205594724,,0.8948187944123301,,
,4679.0,565.0,4064.0,812.0,-80.0,1472.0,3673.0,2025-07-16 18:00:08,81.0,,1.99147305767108,-2.93628847089101,-1.87793584278924,,1.2392273591205247,,
,4678.0,566.0,4066.0,811.0,-100.0,1476.0,3674.0,2025-07-16 18:00:09,80.0,,1.99167002645196,-2.93680531680134,-1.87799386494858,,1.5733488833454605,,
,4680.0,565.0,4066.0,813.0,-94.0,1482.0,3666.0,2025-07-16 18:00:10,80.0,,1.99217231033522,-2.93744089720727,-1.87817060151876,,1.8885178563230272,,
,4680.0,566.0,4067.0,814.0,-101.0,1473.0,3667.0,2025-07-16 18:00:11,80.0,,1.98999446664327,-2.93790678896942,-1.87802323390501,,2.176181754447979,,
,4681.0,564.0,4067.0,811.0,-94.0,1479.0,3670.0,2025-07-16 18:00:12,80.0,,1.99089887313118,-2.93809041509299,-1.87865298598187,,2.428062274282177,,
2025-07-16 17:58:01,4680.0,565.0,4067.0,813.0,-94.0,1476.0,3651.0,2025-07-16 18:00:13,79.0,2025/07/16 05:58:01 PM,1.98961665056892,-2.93763300939858,-1.87897117947433,,2.6363567819540026,,
,4681.0,564.0,4067.0,816.0,-94.0,1486.0,3660.0,2025-07-16 18:00:14,79.0,,1.99015950100369,-2.93757650569953,-1.87792150393428,,2.7939984800665463,,
,4685.0,565.0,4072.0,814.0,-90.0,1488.0,3668.0,2025-07-16 18:00:15,79.0,,1.9888962110996,-2.93781198623872,-1.87784256292943,,2.8949776140771526,,
,4684.0,564.0,4067.0,811.0,-94.0,1475.0,3666.0,2025-07-16 18:00:16,78.0,,1.98975374958253,-2.93797786804987,-1.87847291358692,,2.93470757307595,,
,4683.0,566.0,4073.0,815.0,-93.0,1487.0,3662.0,2025-07-16 18:00:17,78.0,,1.98859274917885,-2.93795284387248,-1.87840704909587,,2.9104028071618857,,
,4683.0,566.0,4073.0,815.0,-91.0,1488.0,3665.0,2025-07-16 18:00:18,77.0,,1.98789833744441,-2.93755461085715,-1.8787767397377,,2.8214229968392197,,
,4686.0,567.0,4073.0,818.0,-87.0,1485.0,3657.0,2025-07-16 18:00:19,77.0,,1.98814791250633,-2.9383193221923,-1.87806311400835,,2.6695318681175757,,
,4686.0,564.0,4073.0,815.0,-89.0,1479.0,3651.0,2025-07-16 18:00:20,77.0,,1.98797365074554,-2.93874832754374,-1.87799508605045,,2.459020725816433,,
,4687.0,568.0,4073.0,816.0,-90.0,1483.0,3661.0,2025-07-16 18:00:21,77.0,,1.98816688037616,-2.93842232743728,-1.87831911816678,,2.196656679212222,,
,4689.0,566.0,4076.0,818.0,-80.0,1481.0,3662.0,2025-07-16 18:00:22,77.0,,1.98781692356416,-2.94016891074993,-1.87815968152872,,1.891433147697458,,
,4687.0,566.0,4076.0,816.0,-88.0,1482.0,3680.0,2025-07-16 18:00:23,77.0,,1.98726258545853,-2.93889488645464,-1.87788376310471,,1.5541238338337677,,
,4690.0,567.0,4080.0,817.0,-92.0,1486.0,3686.0,2025-07-16 18:00:24,77.0,,1.98727061339532,-2.93984065887659,-1.87849660270447,,1.1966679421184252,,
,4690.0,564.0,4077.0,817.0,-92.0,1483.0,3676.0,2025-07-16 18:00:25,77.0,,1.98768839312909,-2.93933162192335,-1.87835938760057,,0.8314398504541396,,
,4692.0,568.0,4079.0,821.0,-98.0,1485.0,3662.0,2025-07-16 18:00:26,78.0,,1.98694793435146,-2.93834926837723,-1.87850572172398,,0.4704757870640332,,
,4692.0,569.0,4083.0,819.0,-100.0,1471.0,3653.0,2025-07-16 18:00:27,78.0,,1.9877588471946,-2.93844316247556,-1.87852364956018,,0.12473867417501093,,
,4694.0,569.0,4085.0,820.0,-98.0,1483.0,3656.0,2025-07-16 18:00:28,79.0,,1.98709428734691,-2.93854496501776,-1.8784113726083,,-0.1965024444468193,,
,4691.0,568.0,4082.0,817.0,-92.0,1492.0,3669.0,2025-07-16 18:00:29,79.0,,1.98789063198202,-2.93763620757388,-1.87849928415945,,-0.48611913817205116,,
,4691.0,567.0,4084.0,818.0,-100.0,1487.0,3679.0,2025-07-16 18:00:30,79.0,,1.98755842717184,-2.93830283792345,-1.8788980155908,,-0.7393625258738609,,
,4694.0,568.0,4087.0,820.0,-103.0,1486.0,3652.0,2025-07-16 18:00:31,79.0,,1.98772833541637,-2.93794016417782,-1.87794676175351,,-0.9538881851148336,,
,4695.0,569.0,4089.0,821.0,-103.0,1491.0,3656.0,2025-07-16 18:00:32,79.0,,1.9875394396827,-2.93708428858987,-1.8785002715474,,-1.1295860582386321,,
,4697.0,570.0,4088.0,820.0,-92.0,1486.0,3675.0,2025-07-16 18:00:33,79.0,,1.98797617412568,-2.93813366266161,-1.87792872151825,,-1.2682540753582756,,
,4696.0,568.0,4088.0,821.0,-92.0,1473.0,3686.0,2025-07-16 18:00:34,79.0,,1.98836620297917,-2.93802663185647,-1.87893758112984,,-1.373166981913309,,
,4697.0,569.0,4090.0,821.0,-97.0,1479.0,3656.0,2025-07-16 18:00:35,79.0,,1.98841991675096,-2.93819600619446,-1.87871508362796,,-1.4485974082143935,,
,4699.0,569.0,4090.0,823.0,-102.0,1475.0,3683.0,2025-07-16 18:00:36,80.0,,1.98921493194477,-2.93844227725171,-1.87823297513103,,-1.499344844235033,,
,4700.0,571.0,4090.0,821.0,-98.0,1479.0,3689.0,2025-07-16 18:00:37,81.0,,1.98858236407733,-2.93902010335131,-1.87859672341054,,-1.530320535938463,,
,4698.0,568.0,4092.0,822.0,-97.0,1476.0,3666.0,2025-07-16 18:00:38,82.0,,1.98789757537106,-2.93759458741945,-1.87917996425806,,-1.5462233482635444,,
,4700.0,568.0,4091.0,822.0,-95.0,1482.0,3671.0,2025-07-16 18:00:39,83.0,,1.9886707483349,-2.93761022293159,-1.87857524039747,,-1.5513246767685038,,
,4700.0,570.0,4094.0,825.0,-90.0,1480.0,3666.0,2025-07-16 18:00:40,83.0,,1.98816340208758,-2.93724645903388,-1.87804820922728,,-1.549361496976718,,
,4699.0,569.0,4096.0,822.0,-85.0,1488.0,3678.0,2025-07-16 18:00:41,84.0,,1.98834811585044,-2.93859513513046,-1.87850067257769,,-1.5435184851040324,,
,4704.0,570.0,4096.0,824.0,-94.0,1493.0,3695.0,2025-07-16 18:00:42,83.0,,1.98876876540304,-2.93781109253988,-1.87903084857378,,-1.5364664508529184,,
,4703.0,570.0,4099.0,823.0,-102.0,1479.0,3706.0,2025-07-16 18:00:43,83.0,,1.98876520140008,-2.93800806525932,-1.87828058268661,,-1.5304183867139043,,
,4704.0,570.0,4097.0,825.0,-102.0,1472.0,3694.0,2025-07-16 18:00:44,83.0,,1.9878709520756,-2.93769932477558,-1.8789498925855,,-1.5271675656558679,,
,4704.0,570.0,4101.0,825.0,-95.0,1482.0,3677.0,2025-07-16 18:00:45,83.0,,1.98814072414801,-2.93704075442089,-1.87880964459062,,-1.528082790328842,,
,4707.0,569.0,4104.0,824.0,-101.0,1486.0,3671.0,2025-07-16 18:00:46,82.0,,1.98859287242847,-2.93873152080546,-1.87939725267175,,-1.534050621859259,,
,4708.0,569.0,4101.0,824.0,-99.0,1482.0,3655.0,2025-07-16 18:00:47,82.0,,1.98885914485573,-2.9376729039855,-1.87822988152064,,-1.5453695420410851,,
,4706.0,570.0,4102.0,824.0,-87.0,1486.0,3661.0,2025-07-16 18:00:48,81.0,,1.98907805281805,-2.93788716319429,-1.87881049658314,,-1.5616139834253813,,
,4706.0,571.0,4101.0,825.0,-104.0,1485.0,3654.0,2025-07-16 18:00:49,81.0,,1.98836307598918,-2.93813632221479,-1.87819529860928,,-1.5814956412560093,,
,4705.0,569.0,4103.0,820.0,-104.0,1485.0,3656.0,2025-07-16 18:00:50,80.0,,1.98853387262615,-2.93790749466744,-1.87830381829226,,-1.6027547355543525,,
,4704.0,568.0,4105.0,824.0,-101.0,1492.0,3663.0,2025-07-16 18:00:51,79.0,,1.98839840856723,-2.9376794168228,-1.87832739109677,,-1.6221144273940904,,
,4704.0,570.0,4104.0,821.0,-93.0,1494.0,3659.0,2025-07-16 18:00:52,79.0,,1.98851747003891,-2.93909892536723,-1.87824779222795,,-1.6353271131197762,,
,4701.0,569.0,4102.0,821.0,-91.0,1490.0,3655.0,2025-07-16 18:00:53,78.0,,1.98849476316399,-2.9373323324948,-1.87802066570502,,-1.6373318488308888,,
,4699.0,569.0,4101.0,820.0,-91.0,1483.0,3672.0,2025-07-16 18:00:54,78.0,,1.98879164508927,-2.93791315176373,-1.87875504197501,,-1.6225282023134244,,
,4698.0,569.0,4100.0,820.0,-96.0,1476.0,3663.0,2025-07-16 18:00:55,78.0,,1.98836801824345,-2.9374594608834,-1.8785144719021,,-1.585154590992652,,
,4692.0,570.0,4099.0,816.0,-87.0,1472.0,3661.0,2025-07-16 18:00:56,78.0,,1.98778665353701,-2.93778030181678,-1.87846675899255,,-1.519740805041116,,
,4690.0,566.0,4099.0,814.0,-91.0,1482.0,3675.0,2025-07-16 18:00:57,78.0,,1.98815242277452,-2.93706598420472,-1.87824183291526,,-1.4215882750972744,,
,4688.0,569.0,4099.0,816.0,-89.0,1485.0,3667.0,2025-07-16 18:00:58,77.0,,1.98808867537102,-2.93790873074919,-1.87946451521898,,-1.2872219092857158,,
,4686.0,568.0,4097.0,814.0,-86.0,1493.0,3660.0,2025-07-16 18:00:59,77.0,,1.98780062237779,-2.93811789947648,-1.87787157560008,,-1.1147575747140757,,
,4686.0,564.0,4095.0,814.0,-84.0,1498.0,3679.0,2025-07-16 18:01:00,77.0,,1.98894670222255,-2.93815304910498,-1.87858270254006,,-0.9041405056535441,,
,4682.0,566.0,4096.0,812.0,-87.0,1487.0,3674.0,2025-07-16 18:01:01,77.0,,1.98923737030254,-2.93768022610967,-1.87842831121334,,-0.657229585085271,,
,4682.0,563.0,4093.0,814.0,-102.0,1477.0,3675.0,2025-07-16 18:01:02,77.0,,1.98839766023631,-2.93806894150553,-1.87879888814507,,-0.3777257092364118,,
,4681.0,565.0,4094.0,813.0,-104.0,1476.0,3657.0,2025-07-16 18:01:03,77.0,,1.98970431639088,-2.93770456279195,-1.87846074703464,,-0.07096413757933238,,
,4676.0,564.0,4095.0,811.0,-99.0,1481.0,3661.0,2025-07-16 18:01:04,77.0,,1.98967376317696,-2.93815046848824,-1.87790266205095,,0.25639307044372256,,
,4676.0,564.0,4094.0,812.0,-99.0,1484.0,3659.0,,,,1.98981153042058,-2.93787748558684,-1.87757965801186,,0.5967198115203036,,
,4675.0,565.0,4092.0,812.0,-92.0,1487.0,3665.0,,,,1.98870646394313,-2.93688526921105,-1.87867350538567,,0.9417984521169248,,
,4673.0,564.0,4093.0,814.0,-93.0,1481.0,3679.0,,,,1.98913688825777,-2.93776767575382,-1.87804707512206,,1.283162854419661,,
,4675.0,563.0,4094.0,811.0,-94.0,1481.0,3680.0,,,,1.98910710079259,-2.93729903419225,-1.87876707837851,,1.6123840680040151,,
,4674.0,567.0,4094.0,812.0,-92.0,1475.0,3687.0,,,,1.990052788448,-2.93752074238799,-1.87823217485004,,1.9212855983855652,,
,4672.0,564.0,4095.0,810.0,-96.0,1486.0,3676.0,,,,1.99050414472725,-2.93766390104786,-1.87890713338447,,2.202091405635225,,
,4671.0,565.0,4095.0,811.0,-96.0,1484.0,3662.0,,,,1.9896603051667,-2.93784724468063,-1.8785044645151,,2.4475252701801984,,
,4672.0,566.0,4095.0,812.0,-99.0,1485.0,3682.0,,,,1.99008145367665,-2.9373234289,-1.87761245041527,,2.650891874609654,,
,4673.0,565.0,4095.0,812.0,-89.0,1464.0,3684.0,,,,1.98914808870302,-2.93713521588835,-1.8783950904809,,2.8061744743592767,,
,4673.0,565.0,4096.0,812.0,-96.0,1479.0,3677.0,,,,1.98968001988776,-2.93749381583376,-1.87788433322042,,2.9081790936857583,,
,4671.0,565.0,4095.0,813.0,-94.0,1485.0,3672.0,,,,1.9893050285581,-2.9371133796561,-1.87838068770116,,2.9527412791508962,,
,4672.0,567.0,4098.0,813.0,-105.0,1478.0,3655.0,,,,1.9889773447921,-2.93738755337878,-1.87812461575461,,2.9369919215589566,,
,4674.0,565.0,4098.0,811.0,-109.0,1479.0,3660.0,,,,1.98965302152958,-2.93654996372417,-1.87837163107726,,2.859658222063741,,
,4671.0,565.0,4098.0,813.0,-105.0,1471.0,3674.0,,,,1.98989182374116,-2.93784932473414,-1.87830577207576,,2.7213588677043656,,
,4672.0,564.0,4098.0,812.0,-94.0,1481.0,3668.0,,,,1.98997938121331,-2.93732747595833,-1.87901224624241,,2.5248420156345004,,
,4674.0,564.0,4097.0,813.0,-96.0,1475.0,3669.0,,,,1.99103213854986,-2.9371966368816,-1.87746780946322,,2.2751126250353924,,
,4671.0,565.0,4101.0,813.0,-107.0,1479.0,3668.0,,,,1.98984615392949,-2.93640521284716,-1.87802489783556,,1.9794027733308168,,
,4674.0,566.0,4101.0,813.0,-101.0,1480.0,3654.0,,,,1.9896652143792,-2.93657605784276,-1.8783594165352,,1.6469544371433646,,
,4671.0,565.0,4099.0,813.0,-86.0,1492.0,3659.0,,,,1.9903980737576,-2.93666715756033,-1.87826194738537,,1.288607072992004,,
,4675.0,568.0,4103.0,814.0,-91.0,1490.0,3662.0,,,,1.99073656509304,-2.93722817217967,-1.87881049570796,,0.9162091581334902,,
,4675.0,567.0,4103.0,815.0,-97.0,1475.0,3680.0,,,,1.99095198342082,-2.93726651060144,-1.87860991700825,,0.541899660574938,,
,4677.0,565.0,4104.0,814.0,-95.0,1474.0,3682.0,,,,1.99014721074638,-2.93690755150501,-1.87866786514192,,0.1773278468000569,,
,4675.0,564.0,4104.0,812.0,-97.0,1478.0,3685.0,,,,1.9904725619478,-2.93693735846671,-1.87873461586987,,-0.1671062416537613,,
,4674.0,564.0,4103.0,814.0,-100.0,1472.0,3667.0,,,,1.99069608329716,-2.93514708654147,-1.87812495837936,,-0.48290617089437154,,
,4675.0,566.0,4103.0,815.0,-87.0,1481.0,3671.0,,,,1.99058304482144,-2.93703157043868,-1.87795969446044,,-0.7639548066936933,,
,4675.0,563.0,4106.0,811.0,-91.0,1485.0,3679.0,,,,1.99001995457066,-2.93714788192576,-1.87804656562039,,-1.006760042067755,,
,4673.0,564.0,4104.0,814.0,-101.0,1480.0,3678.0,,,,1.9907364685153,-2.93736055013809,-1.87854607983557,,-1.2104484831780036,,
,4672.0,563.0,4105.0,812.0,-93.0,1489.0,3663.0,,,,1.9898755549923,-2.9373452613985,-1.87917427909353,,-1.376515655304957,,
,4674.0,566.0,4103.0,814.0,-95.0,1477.0,3677.0,,,,1.99016504931424,-2.93689729119734,-1.8776250108172,,-1.5083686918623391,,
,4673.0,567.0,4104.0,816.0,-90.0,1485.0,3678.0,,,,1.99122188453029,-2.93629720325707,-1.87802457832643,,-1.6107186182084552,,
,4674.0,566.0,4110.0,815.0,-84.0,1486.0,3681.0,,,,1.9899284433179,-2.93688085295432,-1.87835751289123,,-1.688892756479134,,
,4670.0,564.0,4104.0,812.0,-81.0,1488.0,3672.0,,,,1.99076927729279,-2.93718402974898,-1.8792369721432,,-1.7481429834205335,,
,4675.0,565.0,4105.0,814.0,-87.0,1493.0,3665.0,,,,1.9906786706712,-2.93703864318628,-1.87850187507025,,-1.7930226797820243,,
,4673.0,568.0,4108.0,817.0,-89.0,1483.0,3675.0,,,,1.99106603468112,-2.93566066038751,-1.87817745766899,,-1.8268947232306683,,
,4673.0,566.0,4106.0,815.0,-89.0,1483.0,3672.0,,,,1.99107099681462,-2.93637085988027,-1.87908862905608,,-1.8516157251142937,,
,4672.0,565.0,4107.0,813.0,-91.0,1485.0,3695.0,,,,1.99119803877443,-2.93639787029012,-1.87854624653128,,-1.8674194495297596,,
,4673.0,567.0,4107.0,813.0,-86.0,1487.0,3676.0,,,,1.99074226039854,-2.93662291168333,-1.87898910829703,,-1.8729974536308196,,
,4671.0,565.0,4106.0,814.0,-91.0,1472.0,3664.0,,,,1.99184501152906,-2.93676677748462,-1.8781369993813,,-1.8657509983635783,,
,4674.0,563.0,4106.0,814.0,-91.0,1473.0,3669.0,,,,1.99106475634168,-2.93756470674665,-1.87878764149299,,-1.8421693504592647,,
,4672.0,566.0,4108.0,814.0,-82.0,1487.0,3651.0,,,,1.99066460167247,-2.93660268976214,-1.87837114001684,,-1.798279074039203,,
,4672.0,565.0,4104.0,814.0,-87.0,1483.0,3667.0,,,,1.99050809349338,-2.93640674296822,-1.87870103777387,,-1.7301078104536385,,
,4674.0,566.0,4106.0,812.0,-94.0,1476.0,3678.0,,,,1.99118876144728,-2.93623799435097,-1.87777861033202,,-1.6341128381676573,,
,4675.0,565.0,4106.0,816.0,-94.0,1480.0,3660.0,,,,1.9909395131967,-2.93597316338702,-1.87825953748027,,-1.5075365799927336,,
,4674.0,565.0,4106.0,814.0,-98.0,1481.0,3654.0,,,,1.98998231561799,-2.93621264538135,-1.87801461388915,,-1.3486655966206373,,
,4675.0,563.0,4106.0,813.0,-90.0,1467.0,3669.0,,,,1.99010725972917,-2.93670559989634,-1.87807954914557,,-1.1569846832194133,,
,4675.0,563.0,4107.0,815.0,-93.0,1476.0,3664.0,,,,1.99025933333212,-2.93808838655948,-1.87797184542126,,-0.9332320754300254,,
,4677.0,566.0,4107.0,817.0,-88.0,1472.0,3659.0,,,,1.98992514322319,-2.93701445169142,-1.87865129471372,,-0.6793739269075625,,
,4677.0,565.0,4106.0,817.0,-92.0,1472.0,3659.0,,,,1.98974968194137,-2.93683602403166,-1.87804004520648,,-0.3985244008819407,,
,4678.0,563.0,4109.0,816.0,-104.0,1484.0,3667.0,,,,1.98926531482211,-2.93762793332973,-1.87878750404571,,-0.09484038606152323,,
,4679.0,564.0,4107.0,816.0,-100.0,1477.0,3676.0,,,,1.98804943215691,-2.93824209659548,-1.87864247871661,,0.2265838118551748,,
,4676.0,565.0,4110.0,818.0,-98.0,1483.0,3659.0,,,,1.98713339293477,-2.93795276167186,-1.87904024104411,,0.5598060806052602,,
,4678.0,566.0,4110.0,819.0,-98.0,1483.0,3659.0,,,,1.9881137809726,-2.93738134869222,-1.87837208016776,,0.898108465218844,,
,4679.0,566.0,4109.0,817.0,-90.0,1482.0,3662.0,,,,1.98778861969789,-2.93738640121311,-1.87843119214953,,1.2340641490338211,,
,4680.0,565.0,4109.0,817.0,-89.0,1472.0,3688.0,,,,1.98700245962729,-2.93807140774904,-1.87889026153615,,1.559623382792395,,
,4683.0,566.0,4109.0,817.0,-83.0,1489.0,3672.0,,,,1.98692774342639,-2.93842629848867,-1.87856423063526,,1.866246651938854,,
,4682.0,566.0,4111.0,818.0,-92.0,1487.0,3673.0,,,,1.98682139655204,-2.93826247602774,-1.87811370205198,,2.145109561620997,,
,4682.0,564.0,4110.0,819.0,-94.0,1485.0,3675.0,,,,1.98746473388339,-2.93766348271638,-1.87902306190994,,2.387393369890453,,
,4683.0,564.0,4110.0,819.0,-101.0,1470.0,3686.0,,,,1.98738933493137,-2.93792350504467,-1.87814587510348,,2.5846606895955806,,
,4684.0,566.0,4110.0,819.0,-99.0,1470.0,3673.0,,,,1.98790356653781,-2.93794784186671,-1.8784998176999,,2.7293003854111517,,
,4685.0,567.0,4112.0,820.0,-107.0,1466.0,3671.0,,,,1.98771667034918,-2.93791594171062,-1.8794493607669,,2.8150111594055156,,
,4685.0,568.0,4110.0,821.0,-98.0,1491.0,3672.0,,,,1.98837537633726,-2.93821230174242,-1.87899519618732,,2.8372812577588813,,
,4687.0,567.0,4111.0,822.0,-95.0,1487.0,3677.0,,,,1.98722309197268,-2.93811654220058,-1.87881000150165,,2.793813497991971,,
,4687.0,567.0,4112.0,820.0,-94.0,1484.0,3673.0,,,,1.98835558596195,-2.93751464554752,-1.87904388663976,,2.684841844516059,,
,4687.0,565.0,4112.0,823.0,-99.0,1486.0,3663.0,,,,1.98748987736027,-2.93755771812013,-1.87802945219462,,2.5132896217496126,,
,4689.0,567.0,4111.0,823.0,-98.0,1478.0,3664.0,,,,1.98719759954882,-2.93777194234818,-1.87831571161888,,2.284731550574489,,
,4689.0,569.0,4111.0,821.0,-105.0,1469.0,3664.0,,,,1.98634336185138,-2.93810421110401,-1.87882426094517,,2.0071424609560666,,
,4690.0,567.0,4110.0,820.0,-93.0,1461.0,3662.0,,,,1.98658877426797,-2.93711279567658,-1.87831972724505,,1.6904428133608904,,
,4691.0,566.0,4112.0,822.0,-89.0,1478.0,3657.0,,,,1.98705851672861,-2.93799957579417,-1.87870446217404,,1.3458801394894557,,
,4692.0,566.0,4109.0,822.0,-95.0,1477.0,3649.0,,,,1.98674770308264,-2.93815598882823,-1.87875998112565,,0.9853093428499221,,
,4695.0,567.0,4112.0,824.0,-96.0,1474.0,3656.0,,,,1.98702565519609,-2.93781725056037,-1.87791309339838,,0.6204475567864672,,
,4693.0,566.0,4110.0,825.0,-105.0,1473.0,3656.0,,,,1.98635480085941,-2.93703167489722,-1.87820763985518,,0.2621787542977766,,
,4692.0,567.0,4109.0,823.0,-99.0,1475.0,3663.0,,,,1.98666200162978,-2.93728871886509,-1.87821217340438,,-0.08002838654563249,,
,4696.0,566.0,4112.0,823.0,-96.0,1470.0,3655.0,,,,1.98757494067602,-2.93756307482144,-1.87847743773695,,-0.39854427589918145,,
,4695.0,569.0,4112.0,827.0,-97.0,1472.0,3674.0,,,,1.9878779315613,-2.93906110586499,-1.87818896005288,,-0.687819525282978,,
,4695.0,568.0,4113.0,825.0,-96.0,1480.0,3674.0,,,,1.98746976541306,-2.93817823107702,-1.87892032211777,,-0.9444391399799039,,
,4693.0,567.0,4110.0,825.0,-101.0,1481.0,3677.0,,,,1.98834828311292,-2.93820513355735,-1.87855958984688,,-1.1670034013603932,,
2025-07-16 17:58:02,4697.0,567.0,4111.0,827.0,-101.0,1477.0,3660.0,,,2025/07/16 05:58:02 PM,1.9875740735356,-2.93688363395809,-1.87916932707731,,-1.355863758561905,,
,4699.0,568.0,4111.0,826.0,-106.0,1482.0,3677.0,,,,1.98750651768774,-2.93768308248979,-1.87798548373597,,-1.5127529180649062,,
,4696.0,566.0,4110.0,825.0,-105.0,1481.0,3685.0,,,,1.98846111526974,-2.93698147612731,-1.87826793988815,,-1.6403546719820257,,
,4695.0,565.0,4110.0,826.0,-88.0,1480.0,3668.0,,,,1.9881121381936,-2.93678294900491,-1.87884729424712,,-1.7418602009440207,,
,4695.0,566.0,4108.0,823.0,-89.0,1482.0,3664.0,,,,1.9878182622542,-2.93771783335226,-1.8787933262756,,-1.8205532598298348,,
,4691.0,566.0,4109.0,824.0,-96.0,1481.0,3666.0,,,,1.98738820746934,-2.93793495650124,-1.87821981818478,,-1.8794571954317878,,
,4690.0,568.0,4107.0,820.0,-98.0,1477.0,3670.0,,,,1.98757903986287,-2.93852410274375,-1.87840822705905,,-1.921063827155073,,
,4688.0,565.0,4104.0,821.0,-102.0,1476.0,3668.0,,,,1.98747543203648,-2.93759009741151,-1.877951854121,,-1.9471508646743416,,
,4683.0,562.0,4100.0,818.0,-100.0,1475.0,3666.0,,,,1.98816145130585,-2.93872211697086,-1.8785898805547,,-1.958684098391683,,
,4682.0,564.0,4098.0,817.0,-103.0,1485.0,3685.0,,,,1.9871270200083,-2.93849974377907,-1.87797288928522,,-1.9557949856772894,,
,4680.0,562.0,4096.0,815.0,-97.0,1478.0,3656.0,,,,1.98747695581189,-2.93747905114102,-1.87827538343695,,-1.937822934085822,,
,4677.0,562.0,4096.0,818.0,-91.0,1478.0,3655.0,,,,1.98714110292199,-2.93848528496582,-1.87893263805841,,-1.9034124052724661,,
,4673.0,561.0,4094.0,814.0,-98.0,1488.0,3668.0,,,,1.98763017787836,-2.93750172736992,-1.87855942284435,,-1.8506558595092657,,
,4671.0,562.0,4093.0,815.0,-90.0,1479.0,3659.0,,,,1.98868806657184,-2.93807644969125,-1.87906824931201,,-1.777273584153949,,
,4669.0,561.0,4094.0,813.0,-95.0,1482.0,3666.0,,,,1.98760148084574,-2.93838927953761,-1.87730210343042,,-1.6808207798895072,,
,4666.0,565.0,4091.0,814.0,-95.0,1486.0,3670.0,,,,1.98729644512543,-2.93893453561286,-1.87757920627573,,-1.5589116821863662,,
,4664.0,561.0,4089.0,814.0,-89.0,1470.0,3666.0,,,,1.98729678905763,-2.93849957828649,-1.87815425630371,,-1.4094507656185276,,
,4664.0,559.0,4088.0,812.0,-90.0,1477.0,3649.0,,,,1.98772076421737,-2.93726248965669,-1.87867058518778,,-1.2308625621149614,,
,4663.0,565.0,4086.0,813.0,-90.0,1482.0,3651.0,,,,1.98791355271569,-2.93860516446557,-1.87917349963696,,-1.0223138151454454,,
,4662.0,561.0,4084.0,814.0,-94.0,1478.0,3666.0,,,,1.98804436530642,-2.93881500697027,-1.87768868675036,,-0.7839231748465003,,
,4659.0,563.0,4085.0,811.0,-93.0,1474.0,3654.0,,,,1.98852118845298,-2.93808183526254,-1.87809967882081,,-0.5169527426088776,,
,4657.0,557.0,4081.0,811.0,-91.0,1475.0,3653.0,,,,1.9881997501827,-2.93815510392961,-1.87850569351631,,-0.2239718185106916,,
,4656.0,562.0,4085.0,813.0,-86.0,1481.0,3679.0,,,,1.98818912386997,-2.93842435638038,-1.87854781534347,,0.09102249955444688,,
,4657.0,561.0,4082.0,814.0,-95.0,1483.0,3656.0,,,,1.98822552030386,-2.93838751958055,-1.87856719945596,,0.42254773273067925,,
,4658.0,561.0,4079.0,814.0,-92.0,1480.0,3664.0,,,,1.98835481311834,-2.93817300252566,-1.8778913626886,,0.763661904067329,,
,4655.0,558.0,4080.0,812.0,-98.0,1481.0,3681.0,,,,1.98835000885734,-2.93756500579202,-1.87892311117441,,1.1060891918286844,,
,4655.0,559.0,4080.0,814.0,-103.0,1472.0,3668.0,,,,1.98935223727638,-2.9378500834026,-1.87863884082432,,1.4404540065561704,,
,4657.0,561.0,4080.0,813.0,-86.0,1472.0,3662.0,,,,1.98900860467557,-2.93813463267546,-1.87917124730507,,1.7566228122696759,,
,4654.0,559.0,4081.0,814.0,-88.0,1473.0,3666.0,,,,1.98909786606423,-2.93835369982543,-1.87891945806427,,2.0441431809007944,,
,4657.0,559.0,4078.0,813.0,-100.0,1469.0,3663.0,,,,1.98923731762387,-2.93676959772667,-1.87770748317375,,2.2927596894809463,,
,4649.0,562.0,4077.0,811.0,-106.0,1485.0,3647.0,,,,1.9891343946312,-2.93684010019816,-1.87782150980749,,2.4929766583290753,,
,4657.0,563.0,4078.0,815.0,-97.0,1481.0,3660.0,,,,1.9892644855639,-2.9371392726242,-1.87845406993305,,2.6366290555328304,,
,4656.0,561.0,4079.0,815.0,-98.0,1482.0,3656.0,,,,1.98821363870407,-2.93767062885868,-1.87800903245983,,2.717416320992991,,
,4656.0,561.0,4077.0,815.0,-98.0,1484.0,3658.0,,,,1.9890637046537,-2.9363651241908,-1.87803037341649,,2.73135096601017,,
,4653.0,559.0,4077.0,813.0,-101.0,1484.0,3662.0,,,,1.98903519058244,-2.93775935600363,-1.87724798855766,,2.677076285137349,,
,4659.0,561.0,4080.0,815.0,-91.0,1486.0,3656.0,,,,1.98880789844604,-2.93703789539915,-1.87821345891383,,2.55601664848454,,
,4653.0,560.0,4076.0,815.0,-97.0,1478.0,3659.0,,,,1.98867510000958,-2.93664903717429,-1.8784310952262,,2.372339638658109,,
,4655.0,560.0,4078.0,816.0,-99.0,1473.0,3659.0,,,,1.98911051584528,-2.9374431614616,-1.87881674478565,,2.132729731211816,,
,4656.0,558.0,4078.0,814.0,-104.0,1481.0,3654.0,,,,1.99035143637495,-2.93754073360037,-1.87819871897847,,1.8459942951641353,,
,4654.0,561.0,4077.0,814.0,-100.0,1483.0,3672.0,,,,1.98970743207603,-2.93626201177253,-1.87803443200128,,1.522539918428506,,
,4654.0,560.0,4078.0,814.0,-96.0,1484.0,3673.0,,,,1.98977042691418,-2.93706125813672,-1.87796081396333,,1.1737674776685425,,
,4655.0,559.0,4079.0,814.0,-89.0,1481.0,3666.0,,,,1.98941158851619,-2.93816177912177,-1.87838360804131,,0.8114374852650552,,
,4656.0,562.0,4075.0,817.0,-90.0,1482.0,3660.0,,,,1.9896727298882,-2.9377983090366,-1.87815962969519,,0.44705439337120384,,
,4655.0,558.0,4074.0,813.0,-102.0,1470.0,3653.0,,,,1.98936198313042,-2.9371986098353,-1.87841292011096,,0.09131157042732246,,
,4656.0,562.0,4075.0,813.0,-105.0,1466.0,3664.0,,,,1.98938677857742,-2.93804686937329,-1.8788502086285,,-0.24637086263992544,,
,4655.0,561.0,4077.0,814.0,-98.0,1486.0,3652.0,,,,1.98955129770291,-2.93637775552419,-1.87820840243055,,-0.5581940725219139,,
,4656.0,560.0,4076.0,813.0,-100.0,1484.0,3653.0,,,,1.98967110743205,-2.93654305622539,-1.87870612411997,,-0.8382044887047064,,
,4657.0,562.0,4074.0,815.0,-95.0,1467.0,3662.0,,,,1.99010189556182,-2.93637557341267,-1.87872437779841,,-1.0823945570533995,,
,4654.0,557.0,4073.0,814.0,-94.0,1487.0,3650.0,,,,1.98907488264191,-2.93663655946439,-1.87910491938379,,-1.2886903870775468,,
,4653.0,561.0,4075.0,815.0,-97.0,1490.0,3681.0,,,,1.98947925365157,-2.93766196066225,-1.87878307374083,,-1.4568430625614022,,
,4655.0,558.0,4073.0,815.0,-100.0,1477.0,3648.0,,,,1.99016242833488,-2.93698634378243,-1.87788238356258,,-1.5882433737313157,,
,4653.0,560.0,4074.0,817.0,-97.0,1477.0,3651.0,,,,1.98959854449732,-2.93668715040584,-1.87897668783533,,-1.6856786476184826,,
,4650.0,558.0,4069.0,812.0,-100.0,1485.0,3660.0,,,,1.98895240847147,-2.93702171215792,-1.87812978644818,,-1.7530461149837142,,
,4652.0,558.0,4075.0,814.0,-99.0,1478.0,3676.0,,,,1.99021176525903,-2.93753984571806,-1.87867315856758,,-1.7950322555312492,,
,4651.0,559.0,4072.0,814.0,-95.0,1477.0,3683.0,,,,1.9897505619116,-2.93802305305166,-1.87889513386362,,-1.8167647826704314,,
,4654.0,559.0,4072.0,815.0,-94.0,1478.0,3691.0,,,,1.99045020681689,-2.93777598148661,-1.87818537115701,,-1.8234451835227727,,
,4653.0,558.0,4071.0,812.0,-107.0,1487.0,3659.0,,,,1.98984162903777,-2.93742721465763,-1.87882992255204,,-1.8199745584520635,,
,4651.0,557.0,4070.0,813.0,-100.0,1477.0,3647.0,,,,1.99023937752068,-2.9379509585,-1.87886033269239,,-1.8105916933365278,,
,4654.0,563.0,4070.0,817.0,-94.0,1473.0,3664.0,,,,1.99045716498912,-2.93766559551735,-1.87754411038746,,-1.798547370708575,,
,4655.0,562.0,4072.0,816.0,-92.0,1485.0,3670.0,,,,1.99002918667384,-2.937186305378,-1.87812059649863,,-1.7858412557404701,,
,4654.0,561.0,4067.0,816.0,-98.0,1469.0,3652.0,,,,1.99009757690419,-2.93773580620519,-1.87833285248717,,-1.7730467015930067,,
,4652.0,557.0,4069.0,814.0,-97.0,1470.0,3642.0,,,,1.9895957905693,-2.93709770891006,-1.87827331493318,,-1.759244589267776,,
,4654.0,559.0,4069.0,817.0,-104.0,1475.0,3656.0,,,,1.99014205851307,-2.9365709397877,-1.87858145493343,,-1.7420801842734195,,
,4655.0,560.0,4069.0,817.0,-106.0,1481.0,3680.0,,,,1.98999998751695,-2.9375446543117,-1.8789174809197,,-1.7179473794469124,,
,4654.0,560.0,4069.0,819.0,-101.0,1480.0,3676.0,,,,1.99035792447063,-2.93710147865323,-1.87764893798019,,-1.6822931330490734,,
,4656.0,558.0,4068.0,818.0,-96.0,1484.0,3669.0,,,,1.99105408160885,-2.93729608141228,-1.87844442851572,,-1.6300221659909566,,
,4658.0,560.0,4071.0,816.0,-105.0,1486.0,3641.0,,,,1.99093683819908,-2.9376159486974,-1.87832304296128,,-1.555969243196525,,
,4658.0,562.0,4073.0,817.0,-98.0,1484.0,3645.0,,,,1.99036721726597,-2.93748361058535,-1.87830714572186,,-1.4553954850863828,,
,4657.0,562.0,4070.0,820.0,-104.0,1487.0,3668.0,,,,1.99031929147229,-2.93701011182488,-1.87900364617065,,-1.3244587354459725,,
,4657.0,559.0,4069.0,820.0,-101.0,1484.0,3696.0,,,,1.99003286203974,-2.93658848546735,-1.87741861219408,,-1.1606088444250404,,
,4658.0,560.0,4073.0,817.0,-104.0,1472.0,3680.0,,,,1.98906084587701,-2.93771110026461,-1.87882184510316,,-0.9628682892252843,,
,4659.0,560.0,4073.0,820.0,-97.0,1474.0,3672.0,,,,1.98878103711938,-2.93797315831161,-1.87837476489498,,-0.731975453104888,,
,4661.0,561.0,4071.0,821.0,-91.0,1481.0,3661.0,,,,1.98837589434776,-2.93852404256066,-1.8782437371861,,-0.4703879010474232,,
,4663.0,563.0,4072.0,819.0,-95.0,1480.0,3655.0,,,,1.98677124979621,-2.93765953889955,-1.87806672552116,,-0.18216110417300893,,
,4662.0,560.0,4074.0,820.0,-106.0,1479.0,3645.0,,,,1.98713298043874,-2.93867253114818,-1.87786900099001,,0.12726925401340017,,
,4664.0,559.0,4075.0,821.0,-104.0,1480.0,3663.0,,,,1.98675196031164,-2.9392475864175,-1.87815042505076,,0.45136713737012696,,
,4663.0,561.0,4074.0,820.0,-100.0,1480.0,3656.0,,,,1.98706238173746,-2.93839205384892,-1.87729661894623,,0.7828036957403837,,
,4665.0,562.0,4073.0,822.0,-99.0,1480.0,3650.0,,,,1.98573307723468,-2.93898021029841,-1.87852257937456,,1.1137622179811408,,
,4666.0,560.0,4074.0,820.0,-93.0,1478.0,3644.0,,,,1.98682640945179,-2.93868993923508,-1.87871931673839,,1.4362174393367733,,
,4665.0,562.0,4075.0,823.0,-97.0,1467.0,3651.0,,,,1.98755384086048,-2.93847046357738,-1.87877085944065,,1.7421750882249747,,
,4668.0,561.0,4078.0,824.0,-93.0,1482.0,3662.0,,,,1.98677759016943,-2.93766523953544,-1.87870376384902,,2.0238673325707155,,
,4668.0,562.0,4075.0,824.0,-99.0,1481.0,3672.0,,,,1.98704775815991,-2.9392769592318,-1.87874392045567,,2.2739096901870877,,
,4670.0,562.0,4076.0,823.0,-99.0,1483.0,3662.0,,,,1.98723240538603,-2.93889097369143,-1.8796280291363,,2.4854340483204806,,
,4669.0,563.0,4073.0,823.0,-93.0,1486.0,3658.0,,,,1.98665532080872,-2.93831389908214,-1.87864341938418,,2.6522189268358445,,
,4670.0,561.0,4074.0,825.0,-104.0,1475.0,3641.0,,,,1.98725926562569,-2.93907902265564,-1.87911434170884,,2.7688395305477127,,
,4669.0,563.0,4077.0,825.0,-104.0,1454.0,3649.0,,,,1.987036250161,-2.93824803939388,-1.87856144003586,,2.830854531028893,,
,4672.0,562.0,4076.0,825.0,-103.0,1458.0,3672.0,,,,1.98713262746969,-2.93903812662186,-1.87851133343284,,2.8350341489607422,,
,4671.0,562.0,4076.0,825.0,-92.0,1475.0,3668.0,,,,1.98636926012932,-2.93865130631163,-1.87755947985415,,2.779617856642025,,
,4673.0,563.0,4078.0,827.0,-94.0,1477.0,3679.0,,,,1.98665843268926,-2.93940230233187,-1.87837690932732,,2.6645741858071315,,
,4674.0,564.0,4077.0,826.0,-91.0,1476.0,3672.0,,,,1.98697158257963,-2.93929536922806,-1.87838997253122,,2.491823664065617,,
,4674.0,563.0,4078.0,828.0,-94.0,1475.0,3679.0,,,,1.98559269206534,-2.93815143199958,-1.87903780114451,,2.265381329602028,,
,4677.0,565.0,4078.0,827.0,-103.0,1468.0,3683.0,,,,1.98622417363574,-2.93866235835999,-1.87850854942825,,1.991378459429328,,
,4673.0,563.0,4079.0,825.0,-92.0,1468.0,3677.0,,,,1.98608412491958,-2.93923674740303,-1.8789566658003,,1.6779335447557513,,
,4678.0,563.0,4081.0,826.0,-90.0,1467.0,3677.0,,,,1.98610702956873,-2.93901760680002,-1.87877096331444,,1.3348585161257343,,
,4677.0,564.0,4079.0,828.0,-104.0,1464.0,3670.0,,,,1.98545652766993,-2.93839874661324,-1.8782940695459,,0.973205463180283,,
,4676.0,562.0,4082.0,829.0,-104.0,1471.0,3671.0,,,,1.98572596222344,-2.93837845603186,-1.87841819435032,,0.6046791559308513,,
,4677.0,561.0,4081.0,827.0,-103.0,1461.0,3667.0,,,,1.98565042854088,-2.93866273101102,-1.8788405238834,,0.2409592343582088,,
,4677.0,565.0,4078.0,826.0,-99.0,1475.0,3681.0,,,,1.98611738646926,-2.93935449555717,-1.87809020903885,,-0.1070092360935604,,
,4680.0,563.0,4079.0,826.0,-98.0,1479.0,3683.0,,,,1.98658442011833,-2.9387372458716,-1.87827999558711,,-0.42968933295545003,,
,4677.0,561.0,4078.0,828.0,-107.0,1475.0,3678.0,,,,1.98663224003922,-2.93781895799605,-1.87794212272483,,-0.7195218983546973,,
,4675.0,562.0,4077.0,825.0,-101.0,1485.0,3694.0,,,,1.98613932798093,-2.93788459962668,-1.87812026733059,,-0.9713322015088947,,
,4673.0,562.0,4078.0,825.0,-97.0,1485.0,3681.0,,,,1.98619676797371,-2.93904821601025,-1.87715384176426,,-1.1825325926676191,,
,4672.0,560.0,4074.0,825.0,-97.0,1485.0,3663.0,,,,1.98603644989787,-2.93908444175308,-1.87809882449839,,-1.3531038167650606,,
,4669.0,561.0,4073.0,824.0,-100.0,1475.0,3663.0,,,,1.98588109824386,-2.93878535189499,-1.87842874037238,,-1.4853627129941234,,
,4665.0,562.0,4072.0,821.0,-95.0,1477.0,3661.0,,,,1.98622414331739,-2.93880004847088,-1.87885845058636,,-1.583546439890947,,
,4663.0,559.0,4070.0,821.0,-97.0,1469.0,3669.0,,,,1.98567750527036,-2.93963799639816,-1.87836642043848,,-1.6532605312681423,,
,4660.0,561.0,4068.0,818.0,-97.0,1483.0,3655.0,,,,1.98617243430163,-2.93878522222274,-1.87854609105279,,-1.7008488069797962,,
,4657.0,559.0,4066.0,818.0,-89.0,1485.0,3664.0,,,,1.98568852622207,-2.93786415525109,-1.87819329169449,,-1.7327472296418156,,
,4655.0,557.0,4065.0,818.0,-89.0,1489.0,3667.0,,,,1.98655462598112,-2.93957357806201,-1.87832881707821,,-1.7548816049904614,,
,4651.0,557.0,4063.0,818.0,-90.0,1477.0,3680.0,,,,1.98654127003025,-2.93814490176016,-1.87835169862045,,-1.7721613000807463,,
,4646.0,558.0,4059.0,816.0,-97.0,1468.0,3654.0,,,,1.98580751792368,-2.93982907789581,-1.87901521331898,,-1.788108811066973,,
,4646.0,559.0,4059.0,819.0,-96.0,1468.0,3657.0,,,,1.98608925702939,-2.93916361432989,-1.87853351995055,,-1.804649088455919,,
,4643.0,556.0,4057.0,814.0,-96.0,1474.0,3659.0,,,,1.98492615192054,-2.939136106192,-1.87850277372924,,-1.822064311388383,,
,4644.0,557.0,4054.0,814.0,-95.0,1476.0,3661.0,,,,1.98627809585309,-2.9390533370322,-1.87952198316235,,-1.8391011441216334,,
,4638.0,555.0,4051.0,814.0,-95.0,1471.0,3660.0,,,,1.98572568923795,-2.93909320073671,-1.87839514006422,,-1.8532010983803233,,
,4635.0,553.0,4051.0,814.0,-101.0,1478.0,3662.0,,,,1.98597463458806,-2.93919987059572,-1.87823362065847,,-1.8608136586042978,,
,4638.0,556.0,4051.0,816.0,-103.0,1462.0,3672.0,,,,1.98569675007125,-2.938680363295,-1.87870134406936,,-1.8577486613284286,,
,4636.0,557.0,4051.0,815.0,-98.0,1468.0,3671.0,,,,1.98636574237271,-2.93948764137376,-1.87869933577761,,-1.8395290610983155,,
,4634.0,556.0,4049.0,812.0,-95.0,1474.0,3680.0,,,,1.98745151869102,-2.93942687388488,-1.87818506087197,,-1.801715135860658,,
,4635.0,556.0,4048.0,814.0,-106.0,1472.0,3663.0,,,,1.98639857637792,-2.93940695400422,-1.87873370349673,,-1.7401827782621389,,
,4634.0,557.0,4048.0,815.0,-95.0,1471.0,3661.0,,,,1.98645198995553,-2.93868988304287,-1.87915574722768,,-1.6513488914016832,,
,4632.0,557.0,4046.0,814.0,-92.0,1477.0,3659.0,,,,1.98658351846145,-2.9399033916429,-1.87835051531928,,-1.5323447096865779,,
,4630.0,553.0,4045.0,812.0,-93.0,1481.0,3675.0,,,,1.9860209957514,-2.93887825654028,-1.87870561044776,,-1.3811430541311904,,
,4629.0,555.0,4045.0,813.0,-99.0,1474.0,3667.0,,,,1.98638361986199,-2.93858962604447,-1.8786151313913,,-1.1966486892829642,,
,4630.0,556.0,4043.0,815.0,-97.0,1457.0,3683.0,,,,1.98679330949455,-2.93734865657158,-1.87845006179281,,-0.9787626411138811,,
,4630.0,557.0,4045.0,814.0,-93.0,1468.0,3697.0,,,,1.98646533755688,-2.93840958299683,-1.87820735918753,,-0.7284316222659881,,
,4630.0,557.0,4045.0,816.0,-93.0,1464.0,3677.0,,,,1.98697965632865,-2.93880943076168,-1.87798984499423,,-0.4476919915812341,,
,4625.0,553.0,4043.0,813.0,-96.0,1469.0,3659.0,,,,1.98640579301508,-2.93922351457894,-1.87842655936662,,-0.1397131171064536,,
2025-07-16 17:58:03,4629.0,556.0,4045.0,814.0,-95.0,1469.0,3663.0,,,2025/07/16 05:58:03 PM,1.98742181441098,-2.93839942953582,-1.87845420447588,,0.19116252042789783,,
,4631.0,557.0,4046.0,817.0,-89.0,1484.0,3659.0,,,,1.98672675919823,-2.93857454210429,-1.87848036900289,,0.539394254060992,,
,4631.0,555.0,4044.0,813.0,-87.0,1478.0,3663.0,,,,1.987175576776,-2.93860711088087,-1.87826405033097,,0.8982527347003475,,
,4625.0,555.0,4042.0,813.0,-81.0,1483.0,3664.0,,,,1.98802393852866,-2.93840637494645,-1.87774408363156,,1.2598869171656397,,
,4627.0,556.0,4044.0,814.0,-95.0,1477.0,3670.0,,,,1.98679095364342,-2.93955320103897,-1.8783656614033,,1.615468926321553,,
,4627.0,555.0,4042.0,814.0,-113.0,1469.0,3676.0,,,,1.98774975940318,-2.93861561280139,-1.8787193645538,,1.955429713249369,,
,4629.0,556.0,4044.0,813.0,-103.0,1464.0,3667.0,,,,1.98824282142794,-2.9383876767382,-1.87750296315112,,2.2697880974754394,,
,4630.0,555.0,4043.0,816.0,-98.0,1460.0,3669.0,,,,1.98790625384473,-2.93927442636113,-1.87802599742088,,2.5485646033629212,,
,4627.0,554.0,4038.0,811.0,-97.0,1468.0,3667.0,,,,1.98810266097288,-2.93838150309894,-1.87858741830036,,2.782260592636844,,
,4628.0,557.0,4041.0,815.0,-109.0,1458.0,3674.0,,,,1.98820570393791,-2.93911322885593,-1.8786129585055,,2.9623732292816594,,
,4627.0,556.0,4045.0,814.0,-94.0,1471.0,3669.0,,,,1.98743758354637,-2.93944494137679,-1.87877556018356,,3.0819084419119704,,
,4630.0,556.0,4042.0,815.0,-92.0,1482.0,3669.0,,,,1.98800783130689,-2.93870387975196,-1.87757056825361,,3.135848203929985,,
,4628.0,555.0,4043.0,813.0,-100.0,1497.0,3657.0,,,,1.98776418842157,-2.93809795608302,-1.87861886044388,,3.1215264330477677,,
,4628.0,555.0,4040.0,813.0,-103.0,1484.0,3662.0,,,,1.98670856789739,-2.93863946628595,-1.87784597568362,,3.0388711612065236,,
,4628.0,556.0,4039.0,813.0,-104.0,1479.0,3637.0,,,,1.9875566640175,-2.93861090308601,-1.87817450817089,,2.8904805891204495,,
,4628.0,555.0,4039.0,814.0,-108.0,1470.0,3656.0,,,,1.98797918588489,-2.9384278400021,-1.87798830553531,,2.681517205970647,,
,4626.0,557.0,4041.0,812.0,-104.0,1476.0,3681.0,,,,1.98714927464364,-2.93918517521318,-1.87889429571111,,2.419425140149868,,
,4626.0,553.0,4040.0,813.0,-109.0,1468.0,3674.0,,,,1.98735887030459,-2.93878312572578,-1.87740287483764,,2.113496996049953,,
,4626.0,556.0,4040.0,815.0,-104.0,1477.0,3687.0,,,,1.98787719884374,-2.9395621093667,-1.87862467398389,,1.7743327661832802,,
,4625.0,554.0,4039.0,815.0,-99.0,1486.0,3675.0,,,,1.98839290638196,-2.93985939495534,-1.87851006157167,,1.4132418446068666,,
,4625.0,555.0,4038.0,814.0,-92.0,1489.0,3666.0,,,,1.9876056223806,-2.93811287875359,-1.878586296999,,1.0416394294050744,,
,4623.0,555.0,4036.0,815.0,-90.0,1500.0,3670.0,,,,1.9883809155452,-2.93998650235832,-1.87806919391076,,0.6704825828769898,,
,4625.0,555.0,4038.0,814.0,-91.0,1497.0,3654.0,,,,1.98862961032816,-2.93816484079944,-1.87808001959869,,0.30978139279783484,,
,4625.0,556.0,4039.0,814.0,-89.0,1488.0,3662.0,,,,1.98909922444438,-2.9390290380749,-1.87817355424936,,-0.03179095702283011,,
,4625.0,557.0,4039.0,814.0,-94.0,1481.0,3670.0,,,,1.98821751117603,-2.93830176890736,-1.87823656262685,,-0.3471773584015548,,
,4624.0,555.0,4036.0,816.0,-108.0,1476.0,3670.0,,,,1.98760997004611,-2.93920675979761,-1.87876754445024,,-0.6311042932255705,,
,4622.0,553.0,4037.0,813.0,-102.0,1471.0,3653.0,,,,1.98754270185918,-2.93797056035523,-1.87797737637665,,-0.8801454706239249,,
,4625.0,556.0,4036.0,815.0,-89.0,1483.0,3665.0,,,,1.98778052395782,-2.93805370367643,-1.878394929997,,-1.092694791304773,,
,4627.0,555.0,4034.0,818.0,-90.0,1484.0,3685.0,,,,1.98835715726135,-2.9393353988006,-1.87855314539821,,-1.2688635142012101,,
,4627.0,556.0,4035.0,816.0,-92.0,1476.0,3689.0,,,,1.988408959258,-2.93909012680741,-1.87777468947834,,-1.4103145913194444,,
,4625.0,554.0,4035.0,814.0,-105.0,1480.0,3681.0,,,,1.98989513472696,-2.93870089703656,-1.87891740633032,,-1.520042679910415,,
,4626.0,557.0,4036.0,816.0,-93.0,1487.0,3678.0,,,,1.98859856718708,-2.93826780208935,-1.87713844457137,,-1.602103345218379,,
,4627.0,555.0,4036.0,815.0,-98.0,1483.0,3666.0,,,,1.98892323433561,-2.93930419445701,-1.8783132281739,,-1.6612921399040608,,
,4627.0,555.0,4038.0,817.0,-98.0,1477.0,3671.0,,,,1.98962550125853,-2.93902131838236,-1.87854082156438,,-1.7027758948740088,,
,4626.0,556.0,4036.0,814.0,-96.0,1465.0,3677.0,,,,1.98943652871134,-2.93852166689226,-1.87777172888493,,-1.7316851069559327,,
,4626.0,555.0,4037.0,817.0,-97.0,1470.0,3679.0,,,,1.98860624855752,-2.93847470086167,-1.87855216436043,,-1.7526858539959465,,
,4630.0,555.0,4036.0,818.0,-97.0,1462.0,3667.0,,,,1.9894064661019,-2.93819474489622,-1.87819483998157,,-1.7695591047133832,,
,4633.0,555.0,4038.0,818.0,-102.0,1472.0,3655.0,,,,1.98936251401338,-2.93817348480845,-1.87816821555306,,-1.7848219457404657,,
,4628.0,554.0,4039.0,819.0,-99.0,1472.0,3660.0,,,,1.98791544977846,-2.93924984141406,-1.87802729165134,,-1.7994277338799034,,
,4632.0,556.0,4041.0,818.0,-101.0,1479.0,3657.0,,,,1.98806945952291,-2.93904730493468,-1.8780142954537,,-1.8125802775765556,,
,4634.0,556.0,4039.0,817.0,-96.0,1471.0,3678.0,,,,1.9876184611578,-2.9393679129298,-1.87811681564257,,-1.8216912223471553,,
,4636.0,557.0,4044.0,819.0,-100.0,1474.0,3669.0,,,,1.98761598693525,-2.93922398804364,-1.87798338440774,,-1.8225003065256968,,
,4634.0,558.0,4045.0,818.0,-107.0,1479.0,3662.0,,,,1.98682885162412,-2.93917860505386,-1.87788980016471,,-1.8093653960371683,,
,4637.0,559.0,4043.0,819.0,-94.0,1469.0,3673.0,,,,1.98669319706531,-2.93957319599,-1.87788537088439,,-1.775713528429253,,
,4636.0,558.0,4045.0,821.0,-103.0,1465.0,3674.0,,,,1.98610839655381,-2.93999511880112,-1.87803544942195,,-1.7146263390490293,,
,4638.0,560.0,4048.0,820.0,-102.0,1465.0,3690.0,,,,1.98582792367186,-2.94120460365226,-1.87823239202547,,-1.6195149227016619,,
,4642.0,557.0,4048.0,821.0,-93.0,1478.0,3666.0,,,,1.98527001785837,-2.93969814379567,-1.87832105678891,,-1.4848234404545568,,
,4639.0,557.0,4044.0,820.0,-96.0,1474.0,3656.0,,,,1.98507701407091,-2.93988289347946,-1.87850320045893,,-1.3066916024270276,,
,4639.0,555.0,4045.0,820.0,-99.0,1473.0,3650.0,,,,1.98489830538756,-2.94045790279182,-1.87861345196782,,-1.0835070141200132,,
,4642.0,559.0,4049.0,822.0,-104.0,1492.0,3650.0,,,,1.98559319191762,-2.94041348782016,-1.87861114472987,,-0.8162901900367929,,
,4642.0,559.0,4047.0,822.0,-98.0,1492.0,3667.0,,,,1.98528836704566,-2.94074885416455,-1.87740169194645,,-0.5088751931986217,,
,4642.0,559.0,4049.0,823.0,-95.0,1493.0,3665.0,,,,1.98509581360499,-2.94024632263699,-1.87846322927585,,-0.1678723171550449,,
,4642.0,560.0,4051.0,822.0,-105.0,1477.0,3665.0,,,,1.98478025294821,-2.93948457316069,-1.87788961352671,,0.19757898277981373,,
,4641.0,558.0,4053.0,821.0,-106.0,1474.0,3662.0,,,,1.98542982321587,-2.94018607950705,-1.87865663542891,,0.5762415685880076,,
,4644.0,558.0,4054.0,823.0,-103.0,1483.0,3671.0,,,,1.984530201862,-2.94025524593702,-1.87863857553869,,0.9553594213911125,,
,4646.0,559.0,4053.0,823.0,-99.0,1475.0,3671.0,,,,1.98471350898738,-2.94007801919814,-1.87879722165603,,1.3213396449062285,,
,4647.0,562.0,4056.0,826.0,-98.0,1481.0,3674.0,,,,1.98527614469343,-2.94028600865607,-1.87795469471392,,1.6604901121083155,,
,4648.0,560.0,4056.0,823.0,-96.0,1483.0,3657.0,,,,1.98602036675683,-2.93984243942965,-1.87831773166735,,1.9597644409856205,,
,4647.0,561.0,4056.0,823.0,-100.0,1472.0,3653.0,,,,1.98480652136364,-2.93982091780379,-1.87799197880904,,2.2074675548535994,,
,4650.0,561.0,4058.0,826.0,-97.0,1478.0,3647.0,,,,1.98589819890951,-2.93977575537843,-1.87867708879975,,2.3938791834549877,,
,4650.0,560.0,4061.0,827.0,-100.0,1482.0,3649.0,,,,1.9850899079547,-2.93935134944715,-1.87828651550891,,2.5117596268426077,,
,4652.0,559.0,4060.0,826.0,-112.0,1483.0,3657.0,,,,1.98485888854455,-2.93913625814484,-1.87873573325571,,2.5567116630122833,,
,4654.0,562.0,4062.0,828.0,-111.0,1479.0,3680.0,,,,1.98500849363003,-2.94013932556302,-1.87814294135415,,2.5273832310479283,,
,4655.0,562.0,4061.0,827.0,-100.0,1484.0,3669.0,,,,1.98506900359764,-2.94060025304345,-1.87808213493832,,2.425505424549465,,
,4656.0,562.0,4064.0,827.0,-95.0,1479.0,3650.0,,,,1.98475818242163,-2.94037672394583,-1.87850244626681,,2.2557682072864735,,
,4658.0,560.0,4062.0,829.0,-87.0,1481.0,3655.0,,,,1.98518187045563,-2.93994074051323,-1.87801193163035,,2.025542730411786,,
,4655.0,559.0,4061.0,827.0,-89.0,1478.0,3682.0,,,,1.98570646761779,-2.93910624021013,-1.87867646714725,,1.7444657268564572,,
,4653.0,562.0,4065.0,827.0,-92.0,1482.0,3663.0,,,,1.98582713935379,-2.93959538647307,-1.8783346547036,,1.4239089591093146,,
,4654.0,559.0,4064.0,827.0,-101.0,1470.0,3679.0,,,,1.98583026110194,-2.94080569482151,-1.87776567574191,,1.076364371617627,,
,4655.0,560.0,4065.0,825.0,-101.0,1462.0,3673.0,,,,1.98537335333045,-2.93936343360709,-1.87888421004668,,0.7147818076447161,,
,4647.0,556.0,4063.0,824.0,-96.0,1472.0,3649.0,,,,1.98538423011215,-2.93928377320558,-1.87855452553839,,0.3518994303231256,,
,4647.0,559.0,4061.0,823.0,-97.0,1474.0,3662.0,,,,1.98607421888733,-2.93996094847882,-1.87870003844457,,-0.000393245456914452,,
,4645.0,560.0,4062.0,822.0,-102.0,1454.0,3679.0,,,,1.98552431232533,-2.93969657858234,-1.8788851775521,,-0.33162319163729226,,
,4641.0,560.0,4060.0,821.0,-89.0,1469.0,3662.0,,,,1.98567791687649,-2.93944018467928,-1.87843579808369,,-0.6332015852751817,,
,4641.0,556.0,4058.0,820.0,-82.0,1476.0,3663.0,,,,1.98483424851564,-2.93967435603519,-1.87850960743979,,-0.8987667888142384,,
,4636.0,558.0,4056.0,818.0,-92.0,1483.0,3677.0,,,,1.98663160932825,-2.93955920362589,-1.87837259074077,,-1.1243841028936703,,
,4633.0,556.0,4053.0,818.0,-89.0,1488.0,3684.0,,,,1.98545157094901,-2.93987220012729,-1.87881457873354,,-1.3085894360746229,,
,4630.0,558.0,4053.0,817.0,-97.0,1494.0,3684.0,,,,1.98554851746721,-2.9395910134141,-1.8786153581737,,-1.4522701885954983,,
,4629.0,557.0,4052.0,817.0,-97.0,1489.0,3669.0,,,,1.98607133807625,-2.93930289479055,-1.8777843964096,,-1.5583850811191102,,
,4628.0,555.0,4051.0,817.0,-99.0,1497.0,3677.0,,,,1.98457734637532,-2.94046747479224,-1.87835316839355,,-1.631536387441787,,
,4624.0,557.0,4048.0,817.0,-106.0,1475.0,3665.0,,,,1.98541327630247,-2.94021127386015,-1.8782593929283,,-1.6774220945359433,,
,4620.0,555.0,4047.0,817.0,-94.0,1479.0,3647.0,,,,1.98503255027209,-2.94056781623918,-1.87863899546563,,-1.7022092754117493,,
,4619.0,555.0,4047.0,817.0,-90.0,1484.0,3669.0,,,,1.98518016514484,-2.94045346822672,-1.87859790021914,,-1.7118805342836965,,
,4619.0,555.0,4046.0,818.0,-92.0,1485.0,3670.0,,,,1.98569788893176,-2.94003797677328,-1.87925848389888,,-1.7116108387474793,,
,4619.0,552.0,4041.0,814.0,-88.0,1487.0,3676.0,,,,1.98534659356353,-2.94017818811872,-1.87844659769843,,-1.7052316735345867,,
,4615.0,555.0,4042.0,816.0,-95.0,1480.0,3682.0,,,,1.98580740396107,-2.93920659143145,-1.87825365563106,,-1.6948333981516952,,
,4616.0,555.0,4044.0,817.0,-94.0,1459.0,3659.0,,,,1.98654783780852,-2.94022181009313,-1.87847615391055,,-1.6805456439339164,,
,4613.0,555.0,4042.0,814.0,-96.0,1471.0,3657.0,,,,1.9850850938562,-2.93988970968786,-1.87893708318744,,-1.6605204818267278,,
,4614.0,555.0,4038.0,813.0,-99.0,1477.0,3658.0,,,,1.98567132200152,-2.94055491087861,-1.87879446663796,,-1.6311249282553872,,
,4612.0,556.0,4040.0,815.0,-101.0,1471.0,3659.0,,,,1.98572970928891,-2.93911356424087,-1.87797891127266,,-1.5873291665124618,,
,4615.0,558.0,4042.0,815.0,-95.0,1468.0,3659.0,,,,1.98623048769999,-2.93984405806101,-1.87809276230436,,-1.52325597166325,,
,4615.0,555.0,4039.0,815.0,-94.0,1470.0,3657.0,,,,1.98638246214627,-2.93956198534637,-1.87779945259398,,-1.4328372962878757,,
,4612.0,557.0,4042.0,817.0,-92.0,1466.0,3684.0,,,,1.98565961645926,-2.93884945559569,-1.87803494420122,,-1.310508958411841,,
,4614.0,554.0,4040.0,814.0,-97.0,1473.0,3676.0,,,,1.98653896285363,-2.9404643740594,-1.87843145860761,,-1.1518677928236596,,
,4611.0,555.0,4039.0,816.0,-94.0,1460.0,3654.0,,,,1.98559531927444,-2.93943721053392,-1.87833910860584,,-0.9542205520888729,,
,4610.0,556.0,4044.0,817.0,-109.0,1472.0,3652.0,,,,1.98704076022162,-2.94008549832591,-1.87842829651874,,-0.7169703437452706,,
,4611.0,555.0,4039.0,815.0,-107.0,1473.0,3653.0,,,,1.98626852162201,-2.93912864286806,-1.87794521488136,,-0.44181074587220653,,
,4608.0,555.0,4040.0,815.0,-98.0,1481.0,3655.0,,,,1.98646013086162,-2.93961367484503,-1.87815881397049,,-0.13272396343003096,,
,4611.0,555.0,4039.0,814.0,-97.0,1475.0,3655.0,,,,1.98587375541591,-2.93913706396621,-1.87775313689438,,0.20419806274230254,,
,4612.0,557.0,4043.0,818.0,-102.0,1482.0,3665.0,,,,1.98774150950399,-2.93969273444,-1.87883815282284,,0.5610749593250456,,
,4610.0,557.0,4039.0,817.0,-97.0,1482.0,3664.0,,,,1.98715820185424,-2.93969072952237,-1.8778267611767,,0.9286587355371698,,
,4610.0,555.0,4042.0,816.0,-106.0,1480.0,3664.0,,,,1.98766396394744,-2.9388412742954,-1.87822190192665,,1.2968094684383746,,
,4611.0,554.0,4038.0,813.0,-92.0,1467.0,3677.0,,,,1.9875195344499,-2.93848013171523,-1.87842347189943,,1.654984508518583,,
,4612.0,558.0,4043.0,818.0,-87.0,1464.0,3666.0,,,,1.98693314249657,-2.93968581422519,-1.87861000400326,,1.9927067516155916,,
,4611.0,555.0,4045.0,819.0,-101.0,1477.0,3673.0,,,,1.98726917053922,-2.94001888268433,-1.87811492294577,,2.299986901878644,,
,4612.0,557.0,4042.0,815.0,-98.0,1479.0,3687.0,,,,1.98708082812511,-2.93915611548889,-1.87836209375142,,2.5676855501010607,,
,4610.0,556.0,4042.0,816.0,-98.0,1477.0,3675.0,,,,1.98773496385032,-2.93900752388497,-1.87808469445716,,2.7878120716876,,
,4611.0,556.0,4042.0,816.0,-94.0,1479.0,3664.0,,,,1.98844790980517,-2.93973564229274,-1.87816002597969,,2.9537668496332476,,
,4612.0,556.0,4045.0,819.0,-94.0,1489.0,3678.0,,,,1.98706881042111,-2.93918543114872,-1.87774489693053,,3.0605386190462722,,
,4611.0,557.0,4045.0,815.0,-100.0,1483.0,3679.0,,,,1.98766199189549,-2.93893692201188,-1.87878887393352,,3.1048678962986385,,
,4609.0,554.0,4044.0,813.0,-92.0,1485.0,3665.0,,,,1.98798979508156,-2.9393225741186,-1.87720615854291,,3.085380744379655,,
,4610.0,554.0,4045.0,817.0,-88.0,1476.0,3663.0,,,,1.9885207344006,-2.93975985943279,-1.87860149961126,,3.0026872731939873,,
,4612.0,557.0,4044.0,815.0,-103.0,1481.0,3683.0,,,,1.98798306788208,-2.9385618478167,-1.87899346558027,,2.859430135453027,,
,4614.0,558.0,4044.0,817.0,-100.0,1487.0,3667.0,,,,1.98761059032464,-2.93827613487916,-1.87829386191124,,2.6602630290838163,,
,4611.0,559.0,4045.0,817.0,-99.0,1488.0,3667.0,,,,1.98821224367664,-2.93818187040335,-1.87789397686652,,2.411739412175196,,
,4611.0,555.0,4045.0,817.0,-96.0,1479.0,3654.0,,,,1.98761147987864,-2.9378412661216,-1.87826037843364,,2.1220972266620493,,
,4610.0,556.0,4043.0,815.0,-89.0,1480.0,3660.0,,,,1.98945455259399,-2.93846121557698,-1.87787536519076,,1.8009351630001804,,
,4610.0,557.0,4044.0,816.0,-86.0,1483.0,3681.0,,,,1.98852833043534,-2.93819577150337,-1.87849425367907,,1.4587879560067505,,
,4611.0,557.0,4045.0,819.0,-86.0,1489.0,3665.0,,,,1.98861827768054,-2.93984101738129,-1.87833348879913,,1.1066204291810058,,
,4610.0,557.0,4046.0,816.0,-87.0,1473.0,3681.0,,,,1.98772915752119,-2.93950003515075,-1.87760869111232,,0.7552710841940021,,
,4610.0,556.0,4045.0,817.0,-89.0,1477.0,3697.0,,,,1.98899125236496,-2.93865449567516,-1.87884236425861,,0.4148851533255391,,
,4611.0,556.0,4046.0,818.0,-100.0,1475.0,3663.0,,,,1.98942855367099,-2.93837259766028,-1.87770662833326,,0.09438341149033291,,
,4614.0,558.0,4044.0,817.0,-97.0,1476.0,3662.0,,,,1.98819073513974,-2.93965854433033,-1.8775269640892,,-0.1989848203412677,,
,4613.0,556.0,4044.0,817.0,-92.0,1477.0,3664.0,,,,1.98869189181759,-2.93900160719728,-1.87778658891863,,-0.4599602128615081,,
,4610.0,556.0,4045.0,816.0,-104.0,1480.0,3663.0,,,,1.98846786997594,-2.93887824411604,-1.87808729030302,,-0.6854308367977274,,
,4613.0,556.0,4046.0,818.0,-93.0,1475.0,3668.0,,,,1.98917904832109,-2.93841437244542,-1.87782159700702,,-0.8744136020403114,,
,4614.0,554.0,4046.0,817.0,-96.0,1479.0,3659.0,,,,1.98876022340024,-2.93828802721506,-1.87762302737836,,-1.0278656648779885,,
,4614.0,559.0,4045.0,818.0,-93.0,1484.0,3663.0,,,,1.98892911972248,-2.93778315997056,-1.87802222470055,,-1.1483516171167651,,
2025-07-16 17:58:04,4615.0,557.0,4047.0,818.0,-107.0,1458.0,3663.0,,,2025/07/16 05:58:04 PM,1.98896206998158,-2.93899615011036,-1.87810902012818,,-1.239608153700141,,
,4614.0,556.0,4049.0,819.0,-100.0,1466.0,3662.0,,,,1.98928063256985,-2.93864368632979,-1.8773198437356,,-1.306057904646784,,
,4617.0,558.0,4051.0,818.0,-91.0,1484.0,3657.0,,,,1.98849345733314,-2.93815406424048,-1.87807483154559,,-1.3523274000313024,,
,4617.0,558.0,4051.0,820.0,-99.0,1482.0,3656.0,,,,1.98818597032802,-2.93900945101546,-1.87880136736178,,-1.3828208009299563,,
,4620.0,557.0,4050.0,821.0,-105.0,1477.0,3665.0,,,,1.98669985498363,-2.93906401476396,-1.87857499629492,,-1.4013918845876392,,
,4616.0,557.0,4052.0,819.0,-100.0,1481.0,3663.0,,,,1.98753854418304,-2.93922648948891,-1.87833102491461,,-1.411143065736914,,
,4619.0,558.0,4054.0,819.0,-92.0,1486.0,3658.0,,,,1.98645003265988,-2.9394834489472,-1.87827819236588,,-1.414363351306126,,
,4623.0,558.0,4053.0,821.0,-98.0,1479.0,3660.0,,,,1.9867268607662,-2.93970039356986,-1.87699745020128,,-1.412598531096275,,
,4621.0,559.0,4054.0,821.0,-102.0,1477.0,3654.0,,,,1.9861424477754,-2.93929835778322,-1.87809438338393,,-1.4068284449074764,,
,4620.0,559.0,4054.0,822.0,-104.0,1480.0,3677.0,,,,1.98611023543169,-2.93965197261097,-1.87794889143812,,-1.3977104474952748,,
,4624.0,558.0,4054.0,821.0,-102.0,1473.0,3664.0,,,,1.98579131777443,-2.9399753969267,-1.8784823136028,,-1.3858384869766474,,
,4626.0,562.0,4057.0,823.0,-94.0,1463.0,3676.0,,,,1.98561577780274,-2.94017522942155,-1.87832423093241,,-1.3719662626159521,,
,4624.0,560.0,4058.0,821.0,-92.0,1482.0,3665.0,,,,1.9862542951176,-2.94000515670433,-1.87759997016915,,-1.3571512543496902,,
,4627.0,560.0,4059.0,824.0,-90.0,1474.0,3666.0,,,,1.98638788101721,-2.94117426447821,-1.8786259903311,,-1.342791772850722,,
,4625.0,558.0,4059.0,821.0,-90.0,1476.0,3666.0,,,,1.98538704130874,-2.94054069901692,-1.87867930981547,,-1.3305478182651078,,
,4629.0,563.0,4062.0,823.0,-99.0,1467.0,3671.0,,,,1.98498742442162,-2.94051937193725,-1.87835158518969,,-1.322155003936905,,
,4629.0,560.0,4062.0,823.0,-96.0,1474.0,3701.0,,,,1.98492773593154,-2.94081710389072,-1.87802742470963,,-1.3191568036607466,,
,4631.0,562.0,4066.0,825.0,-93.0,1482.0,3692.0,,,,1.98581462398327,-2.93898186079978,-1.87854683690684,,-1.32259259432184,,
,4632.0,559.0,4063.0,824.0,-93.0,1475.0,3654.0,,,,1.98516627471867,-2.94006280270667,-1.87820459972097,,-1.332686544829611,,
,4633.0,560.0,4068.0,825.0,-99.0,1469.0,3657.0,,,,1.98450735947667,-2.93882374510752,-1.87841185946272,,-1.3485847349900069,,
,4633.0,563.0,4067.0,825.0,-94.0,1476.0,3657.0,,,,1.98575592321157,-2.94011227457682,-1.87866503566716,,-1.3681845942184723,,
,4634.0,561.0,4069.0,824.0,-92.0,1485.0,3656.0,,,,1.98443396262312,-2.94034063267145,-1.87784241344797,,-1.388091744743934,,
,4636.0,560.0,4069.0,826.0,-100.0,1490.0,3670.0,,,,1.98433591833269,-2.93986441612068,-1.87862135632518,,-1.4037249726275245,,
,4637.0,561.0,4067.0,825.0,-103.0,1488.0,3654.0,,,,1.98395328005765,-2.93964953354543,-1.87914685227994,,-1.4095714174511174,,
,4637.0,563.0,4072.0,827.0,-105.0,1486.0,3654.0,,,,1.98504098767063,-2.93923221666506,-1.87866235727831,,-1.3995733493060427,,
,4639.0,561.0,4072.0,827.0,-90.0,1488.0,3656.0,,,,1.98470723058534,-2.94053264925443,-1.87797212476227,,-1.3676085430604195,,
,4638.0,563.0,4071.0,827.0,-83.0,1490.0,3659.0,,,,1.98426554453207,-2.94009003892931,-1.87832268527861,,-1.3080124075758544,,
,4640.0,560.0,4073.0,827.0,-87.0,1471.0,3667.0,,,,1.98509040088148,-2.93939305835772,-1.87828914101842,,-1.2160849151123223,,
,4642.0,561.0,4075.0,828.0,-88.0,1483.0,3679.0,,,,1.98439962935046,-2.93968204050705,-1.87869082531427,,-1.0885296860616114,,
,4643.0,564.0,4077.0,829.0,-91.0,1465.0,3667.0,,,,1.98520402780261,-2.94054869750617,-1.87833129755654,,-0.9237842723441982,,
,4645.0,565.0,4079.0,832.0,-89.0,1467.0,3659.0,,,,1.98438063380058,-2.93941048356211,-1.87814139759241,,-0.7222164017558763,,
,4645.0,564.0,4076.0,828.0,-99.0,1491.0,3634.0,,,,1.98393280287089,-2.93982236188058,-1.87874703813461,,-0.48617762189092506,,
,4642.0,561.0,4076.0,829.0,-101.0,1485.0,3677.0,,,,1.98542504259159,-2.93985958166775,-1.87882510858815,,-0.21992119456783668,,
,4645.0,563.0,4075.0,826.0,-90.0,1490.0,3663.0,,,,1.98490977099974,-2.9387708025284,-1.87887439874485,,0.07059632048535723,,
,4643.0,560.0,4080.0,828.0,-95.0,1482.0,3661.0,,,,1.9841289331232,-2.94017565122846,-1.87890157941038,,0.3780016942404008,,
,4644.0,562.0,4077.0,825.0,-101.0,1481.0,3671.0,,,,1.98522390472542,-2.93941789387701,-1.87797450127529,,0.6938476978313767,,
,4639.0,560.0,4075.0,826.0,-93.0,1484.0,3672.0,,,,1.98479112339562,-2.93993146611547,-1.87868360148692,,1.0089803831541142,,
,4639.0,561.0,4074.0,824.0,-92.0,1487.0,3662.0,,,,1.98447207345269,-2.93967079580871,-1.8788327165803,,1.313904897597609,,
,4637.0,561.0,4076.0,825.0,-87.0,1488.0,3659.0,,,,1.98400516189526,-2.9390527126034,-1.87821333000057,,1.599132896592598,,
,4633.0,559.0,4074.0,824.0,-91.0,1488.0,3675.0,,,,1.98521084948042,-2.93945529882603,-1.87921875228506,,1.8555057513490343,,
,4629.0,561.0,4070.0,824.0,-96.0,1485.0,3685.0,,,,1.98410056606335,-2.93974158763205,-1.87780828352335,,2.07449790785585,,
,4626.0,560.0,4066.0,820.0,-93.0,1487.0,3682.0,,,,1.98365685460697,-2.93895998414768,-1.87879876495837,,2.248510401959937,,
,4627.0,561.0,4066.0,819.0,-86.0,1494.0,3671.0,,,,1.9850242981548,-2.93847928981389,-1.87794891746654,,2.3711632581392608,,
,4624.0,559.0,4067.0,820.0,-89.0,1495.0,3681.0,,,,1.98456812316891,-2.93994358199115,-1.87867702173254,,2.4375875975669707,,
,4623.0,560.0,4064.0,821.0,-84.0,1491.0,3674.0,,,,1.985481118862,-2.94005092166083,-1.87844344638027,,2.444706695401835,,
,4621.0,555.0,4060.0,819.0,-87.0,1493.0,3671.0,,,,1.98493113846809,-2.94015786124964,-1.8780470724669,,2.391483880833871,,
,4617.0,560.0,4061.0,817.0,-93.0,1485.0,3667.0,,,,1.9839272988584,-2.93916388009837,-1.87806872749481,,2.2791072551784435,,
,4614.0,559.0,4059.0,818.0,-88.0,1487.0,3660.0,,,,1.98417091062363,-2.93940903573222,-1.87763781323512,,2.1110784833023524,,
,4615.0,559.0,4057.0,819.0,-82.0,1486.0,3666.0,,,,1.9845632881277,-2.93890346214829,-1.87881740386751,,1.8931759701577322,,
,4611.0,555.0,4057.0,818.0,-87.0,1484.0,3659.0,,,,1.98504955711627,-2.93941502581812,-1.87815805624023,,1.6332713416942586,,
,4611.0,556.0,4052.0,818.0,-90.0,1485.0,3662.0,,,,1.98428295932833,-2.94026016434692,-1.87889632549853,,1.3409913990351061,,
,4612.0,558.0,4053.0,817.0,-92.0,1480.0,3653.0,,,,1.98342639886828,-2.94039274905824,-1.878097529543,,1.0272340602926324,,
,4611.0,559.0,4052.0,818.0,-93.0,1471.0,3660.0,,,,1.98467879641926,-2.94023188916896,-1.87845947154659,,0.7035642674245852,,
,4610.0,559.0,4051.0,819.0,-96.0,1474.0,3667.0,,,,1.98446293629354,-2.94003509545938,-1.87801639801105,,0.381532281108869,,
,4608.0,557.0,4048.0,817.0,-94.0,1477.0,3649.0,,,,1.98480204935508,-2.94038433172138,-1.87872390735541,,0.07197007389493931,,
,4611.0,559.0,4047.0,817.0,-89.0,1477.0,3655.0,,,,1.98454221796354,-2.93974142450528,-1.8775402621673,,-0.21567054496845472,,
,4611.0,559.0,4051.0,819.0,-91.0,1469.0,3655.0,,,,1.98459825671103,-2.94035764762635,-1.87820115862284,,-0.4738741081636723,,
,4610.0,560.0,4050.0,819.0,-93.0,1472.0,3669.0,,,,1.98476453091841,-2.93911193439119,-1.87816890423989,,-0.697456736894679,,
,4609.0,556.0,4047.0,816.0,-87.0,1474.0,3686.0,,,,1.98423029578423,-2.93964502567207,-1.87862922318173,,-0.8837624136373385,,
,4608.0,558.0,4047.0,817.0,-95.0,1481.0,3691.0,,,,1.98520384581415,-2.93973248349797,-1.87829988165118,,-1.0326448259727674,,
,4608.0,557.0,4047.0,816.0,-96.0,1467.0,3689.0,,,,1.98513807135488,-2.93939200343857,-1.87803680883428,,-1.1462429806477847,,
,4612.0,559.0,4048.0,819.0,-89.0,1471.0,3681.0,,,,1.98517590615971,-2.93970474522675,-1.87861316428716,,-1.2285796833711846,,
,4609.0,556.0,4046.0,818.0,-95.0,1475.0,3672.0,,,,1.98519121179257,-2.94005521128653,-1.87805513572968,,-1.285027753385133,,
,4608.0,553.0,4045.0,816.0,-97.0,1471.0,3677.0,,,,1.98477929487523,-2.93955631876891,-1.87858401693241,,-1.3216985801310932,,
,4609.0,556.0,4043.0,817.0,-93.0,1476.0,3679.0,,,,1.98582842475553,-2.94002824428514,-1.87873334732975,,-1.3448113998101712,,
,4612.0,558.0,4042.0,818.0,-94.0,1482.0,3683.0,,,,1.9844974409956,-2.94002147883795,-1.87829955086018,,-1.3601000145133537,,
,4610.0,557.0,4044.0,819.0,-93.0,1483.0,3682.0,,,,1.98510602251191,-2.94007157774092,-1.87879876098453,,-1.3723072610650595,,
,4611.0,557.0,4044.0,817.0,-90.0,1491.0,3665.0,,,,1.98568893653741,-2.93988131633894,-1.87833399824909,,-1.3848069955576159,,
,4611.0,557.0,4041.0,817.0,-92.0,1487.0,3660.0,,,,1.98533067800838,-2.94024364524797,-1.87771172770377,,-1.3993793559315209,,
,4610.0,558.0,4043.0,818.0,-93.0,1481.0,3657.0,,,,1.98411346437206,-2.93980018664314,-1.87746594586283,,-1.4161485278967818,,
,4611.0,558.0,4043.0,820.0,-100.0,1473.0,3670.0,,,,1.98499949236581,-2.93975028311766,-1.8785006321875,,-1.4336747151283837,,
,4612.0,558.0,4044.0,817.0,-102.0,1477.0,3681.0,,,,1.98628487965635,-2.94064614122389,-1.87863634356538,,-1.449175944374012,,
,4612.0,557.0,4041.0,818.0,-98.0,1485.0,3657.0,,,,1.9855537640642,-2.94034371665629,-1.87916040740762,,-1.4588437280664208,,
,4611.0,558.0,4043.0,817.0,-92.0,1491.0,3655.0,,,,1.98665371198091,-2.93973836769631,-1.87880652614281,,-1.4582117466328846,,
,4612.0,558.0,4044.0,820.0,-89.0,1496.0,3665.0,,,,1.98604899432573,-2.939478072799,-1.87834105167843,,-1.4425387417417699,,
,4613.0,558.0,4042.0,820.0,-90.0,1499.0,3671.0,,,,1.98690325679139,-2.94013524507193,-1.87833981550362,,-1.4071736335344185,,
,4610.0,559.0,4040.0,817.0,-92.0,1498.0,3661.0,,,,1.98624667904747,-2.94060023975931,-1.87921280586714,,-1.3478795758945148,,
,4612.0,558.0,4038.0,815.0,-88.0,1488.0,3657.0,,,,1.98618136300693,-2.93918141329849,-1.87825263913265,,-1.2611020982917331,,
,4609.0,559.0,4039.0,817.0,-96.0,1475.0,3663.0,,,,1.98616607633807,-2.93977940305044,-1.87868371281577,,-1.144173847485877,,
,4614.0,556.0,4039.0,818.0,-83.0,1488.0,3665.0,,,,1.98520898441846,-2.93934132802683,-1.8785268299195,,-0.9954548892346101,,
,4611.0,556.0,4038.0,818.0,-82.0,1484.0,3681.0,,,,1.98616636506218,-2.93921690761675,-1.87851158155945,,-0.8144134594720231,,
,4610.0,555.0,4036.0,816.0,-75.0,1480.0,3662.0,,,,1.98595025862585,-2.93984109022552,-1.87832832167469,,-0.6016574861925512,,
,4610.0,557.0,4039.0,817.0,-81.0,1484.0,3656.0,,,,1.98672914139653,-2.93980750880875,-1.87776013521561,,-0.35893137310199325,,
,4610.0,558.0,4034.0,819.0,-85.0,1472.0,3662.0,,,,1.98653879935658,-2.94018851517948,-1.87802616687204,,-0.08909395819555788,,
,4612.0,557.0,4036.0,819.0,-84.0,1480.0,3668.0,,,,1.98527421453432,-2.94020688269583,-1.87852000032762,,0.2039092695550525,,
,4610.0,556.0,4035.0,815.0,-90.0,1488.0,3683.0,,,,1.98642084544341,-2.93961275547975,-1.87810619270175,,0.5150741106328444,,
,4612.0,556.0,4034.0,819.0,-94.0,1487.0,3656.0,,,,1.98640094752312,-2.93999566322224,-1.87753218858526,,0.8383707524413168,,
,4610.0,558.0,4033.0,817.0,-92.0,1479.0,3673.0,,,,1.98681904789291,-2.93911240751515,-1.87839229043271,,1.1667972269695308,,
,4610.0,557.0,4032.0,817.0,-93.0,1466.0,3677.0,,,,1.98654144399602,-2.93987268050004,-1.87860545700499,,1.4924744754297286,,
,4612.0,559.0,4032.0,818.0,-89.0,1474.0,3662.0,,,,1.98534724329874,-2.93983268996743,-1.87775272331022,,1.8068041147650011,,
,4614.0,557.0,4032.0,818.0,-92.0,1488.0,3672.0,,,,1.98634281938361,-2.9402595594234,-1.87810786358123,,2.1007041129103152,,
,4614.0,559.0,4034.0,818.0,-96.0,1481.0,3668.0,,,,1.98552185603943,-2.93901919824904,-1.87794610927973,,2.364927909044033,,
,4613.0,558.0,4032.0,819.0,-97.0,1479.0,3666.0,,,,1.98717002126299,-2.9394649658889,-1.87792978634552,,2.590461033064281,,
,4614.0,557.0,4033.0,820.0,-95.0,1480.0,3672.0,,,,1.98626020364961,-2.94058956756855,-1.87789933117202,,2.7689773255904218,,
,4612.0,558.0,4030.0,819.0,-97.0,1476.0,3683.0,,,,1.98649262840541,-2.94027127458195,-1.87832756349512,,2.8933254219805917,,
,4614.0,555.0,4033.0,820.0,-95.0,1488.0,3660.0,,,,1.98731723047747,-2.93979828469254,-1.87745964282688,,2.958006362415252,,
,4616.0,558.0,4032.0,819.0,-86.0,1487.0,3650.0,,,,1.98737496343126,-2.93884483900534,-1.87887425525124,,2.959596482235678,,
,4617.0,560.0,4032.0,821.0,-82.0,1489.0,3646.0,,,,1.98685938764169,-2.93980495665192,-1.87838251628667,,2.897067835460678,,
,4618.0,559.0,4030.0,820.0,-90.0,1496.0,3668.0,,,,1.98641524571859,-2.93885624338482,-1.87800724035116,,2.7719629757183775,,
,4616.0,556.0,4033.0,819.0,-94.0,1492.0,3675.0,,,,1.986952658151,-2.93994530485172,-1.87858490048308,,2.58839298361205,,
,4621.0,558.0,4035.0,821.0,-99.0,1487.0,3680.0,,,,1.98661695355326,-2.9394700552636,-1.8780554105507,,2.3528467303834297,,
,4622.0,559.0,4034.0,825.0,-97.0,1478.0,3677.0,,,,1.98633064744409,-2.94090149916824,-1.87813442245579,,2.073822847524136,,
,4623.0,560.0,4034.0,822.0,-96.0,1479.0,3691.0,,,,1.98533596620522,-2.94031978932346,-1.87825796634183,,1.7613189472973103,,
,4622.0,558.0,4037.0,820.0,-101.0,1475.0,3686.0,,,,1.98485491875515,-2.9409905622129,-1.87837221054013,,1.426229911972036,,
,4623.0,559.0,4035.0,821.0,-92.0,1481.0,3686.0,,,,1.98449522193921,-2.94052998974656,-1.87810828061638,,1.0797149327315874,,
,4626.0,561.0,4035.0,825.0,-91.0,1476.0,3674.0,,,,1.98495184852345,-2.94095005831364,-1.87854474226916,,0.7325910609607923,,
,4630.0,562.0,4039.0,824.0,-92.0,1484.0,3671.0,,,,1.98420692849344,-2.94077263402543,-1.87795005960246,,0.3948015821719642,,
,4627.0,559.0,4038.0,822.0,-95.0,1489.0,3671.0,,,,1.98394540286086,-2.94139921319811,-1.87769108262831,,0.07499366722009991,,
,4628.0,558.0,4036.0,822.0,-106.0,1481.0,3671.0,,,,1.98359205754162,-2.9407107030442,-1.87863293220255,,-0.21977578644410367,,
,4630.0,561.0,4038.0,822.0,-93.0,1480.0,3661.0,,,,1.98308455487105,-2.94081005509734,-1.87893119969283,,-0.48420245466640666,,
,4631.0,561.0,4037.0,825.0,-87.0,1484.0,3678.0,,,,1.98318063716075,-2.94009489907809,-1.87906572797549,,-0.7147748217669747,,
,4631.0,562.0,4040.0,827.0,-88.0,1472.0,3673.0,,,,1.98388866939944,-2.94076347021707,-1.87869727380537,,-0.9097126156696184,,
,4630.0,561.0,4038.0,824.0,-99.0,1481.0,3674.0,,,,1.98340751038933,-2.94073439964619,-1.87809490067433,,-1.0688301646497425,,
,4633.0,560.0,4038.0,826.0,-101.0,1482.0,3680.0,,,,1.98335714891877,-2.94062068481254,-1.87835018528058,,-1.1933530345283907,,
,4635.0,561.0,4040.0,825.0,-95.0,1492.0,3665.0,,,,1.98291703527618,-2.94065331300236,-1.87856281436708,,-1.2857127546726912,,
,4637.0,564.0,4042.0,827.0,-98.0,1490.0,3664.0,,,,1.98327609395739,-2.94146791276043,-1.87842945646804,,-1.3493362424392055,,
,4637.0,562.0,4040.0,827.0,-103.0,1491.0,3670.0,,,,1.9830188659504,-2.94110925264098,-1.87886141671297,,-1.3884356139428649,,
,4635.0,559.0,4041.0,826.0,-92.0,1489.0,3678.0,,,,1.98270709623479,-2.93991876005818,-1.87832735003441,,-1.4077937190364165,,
,4639.0,561.0,4041.0,828.0,-96.0,1482.0,3681.0,,,,1.98298499209231,-2.94080147548156,-1.87846195229052,,-1.412534601701827,,
,4640.0,561.0,4041.0,829.0,-91.0,1484.0,3668.0,,,,1.98295686515888,-2.94044408809769,-1.87906508991796,,-1.4078683720566596,,
,4640.0,562.0,4042.0,828.0,-89.0,1485.0,3672.0,,,,1.98339522905054,-2.94090589320886,-1.87848347137946,,-1.398806248752267,,
,4638.0,560.0,4043.0,826.0,-99.0,1481.0,3669.0,,,,1.98315988138051,-2.9404746961866,-1.87851196526464,,-1.389851196578084,,
,4644.0,562.0,4044.0,829.0,-102.0,1477.0,3670.0,,,,1.98297672982146,-2.94131918305659,-1.87842994366864,,-1.3846795722817493,,
,4644.0,563.0,4046.0,829.0,-101.0,1475.0,3662.0,,,,1.9818430794678,-2.94086371208033,-1.87781385742363,,-1.3858373275509923,,
,4645.0,562.0,4043.0,829.0,-104.0,1475.0,3661.0,,,,1.98280334511439,-2.94008319809174,-1.8782221151387,,-1.3944795706872042,,
,4644.0,560.0,4045.0,829.0,-92.0,1483.0,3661.0,,,,1.98184470856184,-2.94017857003707,-1.87811461319454,,-1.4101842898471972,,
,4645.0,561.0,4045.0,827.0,-86.0,1491.0,3661.0,,,,1.98223196651259,-2.94006586842918,-1.87845090276584,,-1.4308696181143918,,
,4644.0,563.0,4045.0,829.0,-95.0,1486.0,3662.0,,,,1.98266852294639,-2.9412179828701,-1.87801515878977,,-1.452839006012129,,
2025-07-16 17:58:05,4643.0,563.0,4045.0,829.0,-92.0,1481.0,3677.0,,,2025/07/16 05:58:05 PM,1.98260384428823,-2.94061554292389,-1.87778745601608,,-1.4709698857140123,,
,4642.0,560.0,4040.0,826.0,-93.0,1471.0,3673.0,,,,1.98148491253351,-2.94086615653884,-1.87897473202488,,-1.4790488265676787,,
,4639.0,557.0,4039.0,824.0,-94.0,1474.0,3680.0,,,,1.98268849308302,-2.94118650240422,-1.87783595596643,,-1.4702402285122862,,
,4636.0,559.0,4037.0,824.0,-86.0,1487.0,3679.0,,,,1.98216465308653,-2.9405186656018,-1.87820459830283,,-1.43765762502471,,
,4634.0,560.0,4034.0,823.0,-92.0,1485.0,3669.0,,,,1.98290171986903,-2.94136951619218,-1.87882788389192,,-1.3749893284318495,,
,4630.0,562.0,4033.0,822.0,-94.0,1478.0,3664.0,,,,1.98267187236367,-2.94031761448407,-1.87726735579573,,-1.2771173764367727,,
,4629.0,558.0,4029.0,820.0,-107.0,1478.0,3684.0,,,,1.98321877545866,-2.94164822711367,-1.87850622643394,,-1.1406646124999151,,
,4626.0,558.0,4027.0,819.0,-98.0,1482.0,3669.0,,,,1.98226137487596,-2.94087936701947,-1.87850237941484,,-0.9644114600736315,,
,4622.0,559.0,4026.0,818.0,-89.0,1480.0,3684.0,,,,1.98254979096188,-2.94088919663155,-1.8783969114688,,-0.7495403921386901,,
,4619.0,557.0,4024.0,818.0,-88.0,1483.0,3671.0,,,,1.98230786551833,-2.94186980008187,-1.87801465816578,,-0.49968819846146734,,
,4617.0,557.0,4022.0,818.0,-96.0,1477.0,3672.0,,,,1.98245740063039,-2.94159225137704,-1.87812504352548,,-0.22080887722500922,,
,4615.0,556.0,4017.0,817.0,-87.0,1475.0,3657.0,,,,1.98232829932732,-2.94133844132235,-1.87833489276141,,0.07913080407076745,,
,4612.0,556.0,4017.0,817.0,-83.0,1479.0,3654.0,,,,1.98180857822374,-2.94107869044889,-1.87850322364401,,0.39058766205804246,,
,4611.0,556.0,4014.0,814.0,-91.0,1483.0,3651.0,,,,1.98218230966937,-2.94099786754413,-1.87808999602682,,0.7029679683036166,,
,4612.0,557.0,4013.0,816.0,-93.0,1477.0,3661.0,,,,1.98186377673306,-2.9418810550842,-1.87789612985889,,1.0051990416823873,,
,4609.0,556.0,4010.0,812.0,-85.0,1473.0,3686.0,,,,1.98226559058558,-2.94044859682912,-1.87793554173931,,1.2863054780487915,,
,4606.0,556.0,4007.0,814.0,-104.0,1484.0,3669.0,,,,1.98199744999329,-2.94127724269472,-1.8781002971213,,1.5359543469537966,,
,4609.0,557.0,4009.0,813.0,-104.0,1472.0,3650.0,,,,1.98171894865372,-2.94101411869029,-1.87760850714023,,1.7449408756096418,,
,4605.0,557.0,4008.0,814.0,-89.0,1477.0,3659.0,,,,1.9824882598012,-2.94073060602906,-1.87774025700127,,1.9055945650608932,,
,4605.0,556.0,4006.0,815.0,-91.0,1473.0,3664.0,,,,1.98263807430898,-2.94113521409927,-1.8782964611862,,2.0120946695596618,,
,4607.0,554.0,4005.0,813.0,-101.0,1488.0,3664.0,,,,1.98234073827625,-2.94139972446528,-1.87921907753331,,2.0606921558875566,,
,4604.0,555.0,4003.0,813.0,-95.0,1486.0,3652.0,,,,1.98257352394663,-2.94190732163748,-1.87770905840082,,2.049840665685903,,
,4605.0,556.0,4002.0,814.0,-93.0,1475.0,3661.0,,,,1.98243556088592,-2.94101044542622,-1.87802619661367,,1.9802401942106138,,
,4602.0,555.0,4002.0,812.0,-92.0,1477.0,3672.0,,,,1.98258767126484,-2.94141678948848,-1.87741501878563,,1.8547947557817077,,
,4601.0,553.0,4002.0,812.0,-92.0,1482.0,3675.0,,,,1.9826553068541,-2.94144111016148,-1.87857562259605,,1.6784820112933734,,
,4601.0,554.0,4001.0,812.0,-87.0,1480.0,3672.0,,,,1.98190765988256,-2.94109653491413,-1.87784381717036,,1.458132062183232,,
,4603.0,557.0,4000.0,814.0,-99.0,1477.0,3663.0,,,,1.98232533940466,-2.9406448912574,-1.87807412812692,,1.2021162573514543,,
,4602.0,555.0,4000.0,812.0,-96.0,1464.0,3652.0,,,,1.98309880200551,-2.94114557564851,-1.87805319737046,,0.9199543656682596,,
,4601.0,556.0,3999.0,812.0,-94.0,1465.0,3658.0,,,,1.98318959780254,-2.94085650616402,-1.87828570136688,,0.6218574506492689,,
,4601.0,555.0,3999.0,811.0,-86.0,1468.0,3659.0,,,,1.98326771981986,-2.94077939321569,-1.87840784292669,,0.31823144550787114,,
,4602.0,555.0,3997.0,813.0,-91.0,1464.0,3682.0,,,,1.9825719147716,-2.94247755694874,-1.87866804453384,,0.019170829173587006,,
,4601.0,555.0,4001.0,813.0,-98.0,1481.0,3674.0,,,,1.98296710335715,-2.94107674479613,-1.87811193691435,,-0.26602753957576536,,
,4601.0,557.0,3997.0,814.0,-93.0,1486.0,3669.0,,,,1.98309923348558,-2.94080938664454,-1.87811928757994,,-0.5293026442867215,,
,4601.0,554.0,3998.0,811.0,-88.0,1488.0,3681.0,,,,1.98360391273775,-2.94049540709951,-1.8781367510925,,-0.7641955018967588,,
,4600.0,554.0,4001.0,813.0,-90.0,1486.0,3666.0,,,,1.98271056973919,-2.94198047223939,-1.87829921287261,,-0.966122931407037,,
,4604.0,556.0,4000.0,813.0,-91.0,1476.0,3662.0,,,,1.98293190053387,-2.94091275063743,-1.87789528824311,,-1.1325415287541227,,
,4602.0,554.0,3999.0,814.0,-97.0,1469.0,3657.0,,,,1.98303468657337,-2.94099598086076,-1.87767996798952,,-1.2629873839948884,,
,4601.0,555.0,3997.0,811.0,-101.0,1465.0,3656.0,,,,1.9831367967783,-2.94104381516804,-1.87806605996523,,-1.358981555179907,,
,4601.0,556.0,3997.0,812.0,-102.0,1479.0,3667.0,,,,1.98271670972244,-2.94136174325498,-1.87764425215787,,-1.4237990338410844,,
,4601.0,556.0,3999.0,811.0,-100.0,1476.0,3673.0,,,,1.98260045885113,-2.94161469523124,-1.87712154773571,,-1.4621100728560483,,
,4604.0,555.0,3998.0,813.0,-98.0,1476.0,3675.0,,,,1.98228846509499,-2.94111781702435,-1.87812230458657,,-1.4795155539353437,,
,4603.0,554.0,3999.0,813.0,-98.0,1476.0,3673.0,,,,1.98330689456107,-2.94081277946051,-1.87809558196398,,-1.4820099107341154,,
,4601.0,553.0,3996.0,809.0,-103.0,1479.0,3676.0,,,,1.98290218658008,-2.94147598199744,-1.87773089052245,,-1.4754138363739542,,
,4603.0,556.0,3998.0,812.0,-104.0,1481.0,3669.0,,,,1.98312347288552,-2.94123058132749,-1.87854647837117,,-1.4648235367315678,,
,4602.0,555.0,3999.0,810.0,-98.0,1480.0,3672.0,,,,1.98303472846027,-2.94198267843849,-1.8781896884867,,-1.4541234837404797,,
,4600.0,555.0,3996.0,811.0,-96.0,1478.0,3671.0,,,,1.98311113477792,-2.9408333752533,-1.87868949566338,,-1.4456057595437573,,
,4599.0,554.0,3996.0,811.0,-95.0,1476.0,3654.0,,,,1.98257967525577,-2.94129506968047,-1.87845693043866,,-1.4397316271443754,,
,4600.0,554.0,3997.0,809.0,-97.0,1476.0,3665.0,,,,1.98279337305329,-2.94163084737725,-1.87852823063651,,-1.4350604528416295,,
,4602.0,557.0,3995.0,812.0,-94.0,1477.0,3689.0,,,,1.98233616016489,-2.94141861988557,-1.87855952169483,,-1.4283580405841436,,
,4602.0,556.0,3996.0,811.0,-93.0,1480.0,3691.0,,,,1.98401768362425,-2.94155183780013,-1.87781933374975,,-1.4148812438352243,,
,4599.0,553.0,3994.0,812.0,-95.0,1479.0,3682.0,,,,1.98298256260821,-2.94213329078498,-1.87850016109634,,-1.388818934576698,,
,4599.0,555.0,3994.0,811.0,-102.0,1472.0,3695.0,,,,1.98409928870241,-2.9407738353925,-1.87794125236675,,-1.3438520848561177,,
,4598.0,554.0,3995.0,811.0,-97.0,1472.0,3671.0,,,,1.98381852109403,-2.94169596779023,-1.87843329879942,,-1.2737799040188837,,
,4601.0,558.0,3993.0,813.0,-85.0,1476.0,3679.0,,,,1.98316571915072,-2.94154764926213,-1.87800782830874,,-1.1731479612976485,,
,4600.0,556.0,3993.0,810.0,-85.0,1476.0,3681.0,,,,1.9823567240648,-2.94171795504198,-1.87862528028235,,-1.037811794032325,,
,4598.0,555.0,3994.0,814.0,-97.0,1485.0,3675.0,,,,1.98331880856431,-2.94197301067175,-1.87739163438089,,-0.865377947534433,,
,4600.0,553.0,3992.0,810.0,-98.0,1486.0,3677.0,,,,1.98338344848375,-2.94125427759798,-1.8779125339586,,-0.6554826508255593,,
,4600.0,556.0,3993.0,811.0,-92.0,1472.0,3666.0,,,,1.98305483227686,-2.94090991108287,-1.8791696859125,,-0.4098920752568847,,
,4603.0,556.0,3992.0,813.0,-98.0,1472.0,3670.0,,,,1.98312799017601,-2.94114177107032,-1.87789325737164,,-0.13243175933623486,,
,4603.0,556.0,3991.0,812.0,-100.0,1479.0,3656.0,,,,1.98303490670007,-2.94170431436399,-1.87707959885317,,0.17122827793790257,,
,4603.0,554.0,3991.0,812.0,-99.0,1492.0,3649.0,,,,1.98326149967864,-2.94142333092389,-1.87851276104502,,0.49389441820284097,,
,4606.0,556.0,3993.0,812.0,-93.0,1495.0,3665.0,,,,1.98378393888212,-2.94030669282474,-1.87826037711164,,0.8272337535537053,,
,4603.0,555.0,3992.0,813.0,-91.0,1488.0,3657.0,,,,1.98413485233742,-2.94107994448235,-1.87790342811103,,1.1621815343441475,,
,4607.0,555.0,3993.0,814.0,-91.0,1481.0,3656.0,,,,1.98375567775134,-2.94173288226196,-1.87801452155064,,1.4893384204476685,,
,4606.0,554.0,3991.0,812.0,-110.0,1472.0,3656.0,,,,1.98390685416767,-2.94190157788908,-1.87741539887758,,1.7993337593418361,,
,4604.0,555.0,3992.0,814.0,-99.0,1476.0,3660.0,,,,1.98331894685326,-2.94110618526216,-1.87804026229081,,2.083141523003722,,
,4607.0,558.0,3994.0,816.0,-90.0,1488.0,3667.0,,,,1.98403668953798,-2.9411221295018,-1.87747806311841,,2.3323456595830616,,
,4610.0,557.0,3996.0,813.0,-96.0,1476.0,3680.0,,,,1.98262053277705,-2.94071195181655,-1.87814801735159,,2.5393607491779373,,
,4607.0,558.0,3996.0,814.0,-95.0,1478.0,3668.0,,,,1.98343936492682,-2.94208142837044,-1.87765713371094,,2.6976211355726236,,
,4609.0,557.0,3995.0,815.0,-100.0,1479.0,3666.0,,,,1.98298154819744,-2.94270913922389,-1.87766444506802,,2.801755550408758,,
,4611.0,557.0,3997.0,815.0,-85.0,1485.0,3678.0,,,,1.98258089916969,-2.94130688118991,-1.87712967963226,,2.847762595886062,,
,4613.0,558.0,3997.0,817.0,-102.0,1479.0,3667.0,,,,1.98181861196919,-2.94135373013667,-1.8780947404719,,2.8331942712316645,,
,4613.0,558.0,3999.0,816.0,-100.0,1474.0,3669.0,,,,1.98171722305027,-2.94197017766553,-1.87838338056778,,2.757341559714788,,
,4614.0,556.0,3998.0,815.0,-99.0,1476.0,3666.0,,,,1.98138570210217,-2.94219747922582,-1.8779735680249,,2.6214019448853225,,
,4613.0,558.0,3998.0,814.0,-95.0,1486.0,3673.0,,,,1.98066249547742,-2.94302367931445,-1.87817302524716,,2.4285982280734784,,
,4619.0,559.0,4001.0,816.0,-97.0,1488.0,3664.0,,,,1.98031956092313,-2.94388820852623,-1.87719635084517,,2.1842144232391965,,
,4617.0,559.0,4000.0,818.0,-106.0,1490.0,3669.0,,,,1.98070216411487,-2.94268499071945,-1.87805723404928,,1.895518764075852,,
,4616.0,560.0,4001.0,817.0,-106.0,1492.0,3666.0,,,,1.9796645143246,-2.94293195847773,-1.87881905329106,,1.5715548228687362,,
,4620.0,557.0,3999.0,817.0,-101.0,1494.0,3673.0,,,,1.98045615439305,-2.94298674527038,-1.87778675953749,,1.2227968505548332,,
,4619.0,557.0,4002.0,819.0,-104.0,1488.0,3684.0,,,,1.98015106873987,-2.94317869344981,-1.8786703999647,,0.8606815615805001,,
,4623.0,557.0,4002.0,820.0,-101.0,1474.0,3664.0,,,,1.98012433900063,-2.94276102482156,-1.87812709893417,,0.4970429096457035,,
,4624.0,559.0,4003.0,818.0,-101.0,1470.0,3661.0,,,,1.98056495194351,-2.94245090757056,-1.87837006744237,,0.14348727758458044,,
,4623.0,559.0,4003.0,819.0,-88.0,1485.0,3689.0,,,,1.98013767131037,-2.94351279905478,-1.87825708083192,,-0.1892463660858046,,
,4624.0,556.0,4004.0,818.0,-91.0,1478.0,3682.0,,,,1.98023744866364,-2.94265028889423,-1.87800099951193,,-0.4918929209500823,,
,4626.0,560.0,4008.0,821.0,-91.0,1468.0,3676.0,,,,1.98040330223615,-2.94324791507048,-1.87825950784995,,-0.7571849107482804,,
,4627.0,559.0,4008.0,818.0,-99.0,1479.0,3672.0,,,,1.98041671545799,-2.94144147077635,-1.87812416776896,,-0.9802470554347892,,
,4626.0,560.0,4008.0,821.0,-98.0,1485.0,3679.0,,,,1.98070623465233,-2.94236961893422,-1.87819483910065,,-1.1588231289513553,,
,4628.0,558.0,4008.0,819.0,-100.0,1481.0,3675.0,,,,1.98027156044421,-2.94267874089488,-1.87784419815002,,-1.293310333173515,,
,4630.0,559.0,4007.0,820.0,-94.0,1482.0,3687.0,,,,1.97983560327622,-2.94301094520819,-1.87762106763917,,-1.3865946426717044,,
,4631.0,562.0,4012.0,822.0,-103.0,1475.0,3683.0,,,,1.98089530076474,-2.94290616815917,-1.87836416106113,,-1.4437002339639733,,
,4631.0,562.0,4015.0,821.0,-109.0,1477.0,3676.0,,,,1.97945185551095,-2.94306020212138,-1.8783968637727,,-1.4712839448300579,,
,4632.0,560.0,4011.0,821.0,-95.0,1483.0,3668.0,,,,1.97992555775845,-2.94225770358045,-1.87737130729447,,-1.4770194069900966,,
,4631.0,561.0,4011.0,822.0,-89.0,1475.0,3670.0,,,,1.97947266345594,-2.94317618636721,-1.87832026063491,,-1.4689240125519702,,
,4636.0,561.0,4014.0,824.0,-77.0,1487.0,3650.0,,,,1.98008862001372,-2.94260287122299,-1.87848991004817,,-1.454685116364076,,
,4634.0,562.0,4012.0,824.0,-78.0,1486.0,3651.0,,,,1.97923876924907,-2.94322777118575,-1.87815983555996,,-1.441040247691719,,
,4635.0,561.0,4012.0,823.0,-82.0,1489.0,3666.0,,,,1.97948790930218,-2.9432464779282,-1.87796637800328,,-1.43326017976708,,
,4631.0,557.0,4012.0,820.0,-90.0,1487.0,3673.0,,,,1.97935324583555,-2.94306670963188,-1.87858763290046,,-1.434774050310315,,
,4634.0,562.0,4012.0,821.0,-96.0,1480.0,3684.0,,,,1.97945035454697,-2.94202665375479,-1.87746664568111,,-1.4469628673352946,,
,4631.0,559.0,4011.0,820.0,-86.0,1484.0,3696.0,,,,1.98009695518189,-2.94331014828072,-1.87805817233878,,-1.4691322909404383,,
,4631.0,560.0,4010.0,819.0,-91.0,1482.0,3682.0,,,,1.98008202857634,-2.94241825139445,-1.87794492455872,,-1.498658508093833,,
,4627.0,557.0,4007.0,817.0,-98.0,1476.0,3673.0,,,,1.9804302010474,-2.94266490575746,-1.87771589171326,,-1.531283945408176,,
,4622.0,558.0,4006.0,816.0,-96.0,1475.0,3654.0,,,,1.98029324544061,-2.9430837254399,-1.87757739891391,,-1.5615250632125859,,
,4620.0,557.0,4003.0,811.0,-88.0,1483.0,3663.0,,,,1.98054998294114,-2.9428139730012,-1.87749605301683,,-1.5831455763436795,,
,4619.0,558.0,4005.0,814.0,-90.0,1485.0,3660.0,,,,1.97996567262752,-2.94273484126902,-1.87771149303692,,-1.589647142785843,,
,4615.0,556.0,4000.0,814.0,-99.0,1481.0,3652.0,,,,1.98001986332164,-2.94314665248588,-1.87721636181608,,-1.5747354091014787,,
,4610.0,555.0,3998.0,810.0,-96.0,1491.0,3664.0,,,,1.98074674788161,-2.94276492475195,-1.87810730843785,,-1.532729650143755,,
,4609.0,556.0,3996.0,810.0,-93.0,1485.0,3666.0,,,,1.97914383086813,-2.94296343033161,-1.87790039828536,,-1.4588958751447287,,
,4608.0,554.0,3993.0,809.0,-91.0,1471.0,3659.0,,,,1.97979266505291,-2.94209058691924,-1.87780852082442,,-1.3496939812938364,,
,4605.0,555.0,3991.0,810.0,-92.0,1472.0,3661.0,,,,1.97958894090121,-2.94379075325661,-1.87802050637973,,-1.2029385522762286,,
,4603.0,553.0,3990.0,809.0,-103.0,1466.0,3647.0,,,,1.97995223133921,-2.94325210297208,-1.87792575732414,,-1.0178803540572317,,
,4599.0,555.0,3987.0,810.0,-100.0,1474.0,3647.0,,,,1.97981985439725,-2.94372251751896,-1.87821060326972,,-0.795221707218308,,
,4598.0,552.0,3984.0,810.0,-104.0,1475.0,3657.0,,,,1.97963818823893,-2.94365153630739,-1.87816793870819,,-0.5370834964277869,,
,4600.0,555.0,3984.0,811.0,-91.0,1483.0,3672.0,,,,1.97983755262396,-2.94354757507995,-1.8778901467404,,-0.2469437247371089,,
,4597.0,553.0,3982.0,807.0,-92.0,1486.0,3674.0,,,,1.9801930779932,-2.94261796626938,-1.8787482641557,,0.07043411536725021,,
,4594.0,554.0,3979.0,805.0,-98.0,1474.0,3666.0,,,,1.97933084025471,-2.94314588683976,-1.87816074754433,,0.4090710537994433,,
,4595.0,553.0,3981.0,806.0,-95.0,1476.0,3678.0,,,,1.97876479525261,-2.94329683552571,-1.87761579248845,,0.7618402165316115,,
,4596.0,557.0,3981.0,808.0,-100.0,1480.0,3664.0,,,,1.97916128031954,-2.94287196112014,-1.8785701758559,,1.1205441700829113,,
,4591.0,553.0,3980.0,808.0,-100.0,1480.0,3652.0,,,,1.98021117066968,-2.94322317892398,-1.8782877027636,,1.476025145934776,,
,4590.0,554.0,3977.0,807.0,-98.0,1480.0,3626.0,,,,1.98047517803898,-2.94314735222881,-1.87817859628117,,1.8183359368927634,,
,4592.0,555.0,3980.0,804.0,-98.0,1481.0,3651.0,,,,1.97958426143271,-2.94297450858325,-1.87805922192156,,2.1369958854951996,,
,4592.0,555.0,3979.0,803.0,-93.0,1482.0,3660.0,,,,1.97968961715411,-2.94248404910086,-1.87859663041239,,2.421346033827213,,
,4593.0,555.0,3980.0,806.0,-95.0,1464.0,3664.0,,,,1.97994548331004,-2.94303397769743,-1.8782952028099,,2.6610028709925784,,
,4592.0,554.0,3979.0,808.0,-102.0,1468.0,3673.0,,,,1.98010533833308,-2.94246556929125,-1.87801496566834,,2.8463937985373353,,
,4590.0,552.0,3978.0,804.0,-97.0,1458.0,3685.0,,,,1.97965673583823,-2.94239420026614,-1.87817347795832,,2.969341302730498,,
,4588.0,553.0,3977.0,806.0,-95.0,1471.0,3665.0,,,,1.98003348776048,-2.94307814047495,-1.87842618778639,,3.0236484323204826,,
,4590.0,554.0,3978.0,807.0,-100.0,1484.0,3653.0,,,,1.97943475241907,-2.94339506587614,-1.87803942116187,,3.005627376955332,,
,4591.0,554.0,3978.0,807.0,-95.0,1483.0,3656.0,,,,1.97952328361623,-2.94264282910045,-1.87820252566733,,2.9145080399841894,,
,4591.0,553.0,3977.0,805.0,-111.0,1488.0,3650.0,,,,1.98100101055304,-2.94287389594031,-1.87801139531457,,2.752666953346172,,
2025-07-16 17:58:06,4590.0,553.0,3978.0,803.0,-103.0,1481.0,3650.0,,,2025/07/16 05:58:06 PM,1.98007666848803,-2.94318459215229,-1.87806208525368,,2.5256304959535303,,
,4594.0,554.0,3979.0,807.0,-100.0,1467.0,3646.0,,,,1.98083995501862,-2.94341133231889,-1.87741797823519,,2.241830187254789,,
,4594.0,552.0,3977.0,808.0,-107.0,1480.0,3655.0,,,,1.98095354190236,-2.9433514249677,-1.87731197085295,,1.9121190799583807,,
,4593.0,554.0,3977.0,806.0,-109.0,1481.0,3667.0,,,,1.97989363074983,-2.9424225974889,-1.87821872254898,,1.5490911953573938,,
,4592.0,553.0,3979.0,807.0,-102.0,1488.0,3677.0,,,,1.9812952867702,-2.94256776315493,-1.87747704918736,,1.1662730519540323,,
,4593.0,553.0,3977.0,806.0,-100.0,1478.0,3669.0,,,,1.97986347427329,-2.94326253249055,-1.87798729563687,,0.7772712973199848,,
,4594.0,553.0,3979.0,806.0,-95.0,1487.0,3671.0,,,,1.98140528032778,-2.94238899295876,-1.87827438327488,,0.3949607949304381,,
,4590.0,552.0,3981.0,808.0,-97.0,1483.0,3663.0,,,,1.98082468137512,-2.94244234652617,-1.87814432499091,,0.03078518819022447,,
,4595.0,554.0,3979.0,806.0,-97.0,1478.0,3668.0,,,,1.98137269894272,-2.94266274514018,-1.87810837910224,,-0.3057784284347543,,
,4593.0,554.0,3981.0,805.0,-100.0,1489.0,3673.0,,,,1.98096688193178,-2.94268976038972,-1.87784890210866,,-0.6075626545675582,,
,4595.0,557.0,3979.0,806.0,-93.0,1488.0,3672.0,,,,1.9813463650488,-2.94304371712824,-1.87787259558157,,-0.8698556191239444,,
,4595.0,556.0,3980.0,808.0,-93.0,1463.0,3656.0,,,,1.98101187642729,-2.9436352182393,-1.87782440053757,,-1.090364284346103,,
,4594.0,556.0,3983.0,806.0,-94.0,1467.0,3662.0,,,,1.98135794397446,-2.94234814797456,-1.87871140706645,,-1.2690253286579154,,
,4592.0,553.0,3979.0,806.0,-102.0,1488.0,3677.0,,,,1.9812221573351,-2.94355833456949,-1.87803872806935,,-1.4077035281124073,,
,4596.0,552.0,3982.0,807.0,-103.0,1472.0,3678.0,,,,1.98159391732128,-2.94333237701771,-1.87825101676656,,-1.509821340093045,,
,4594.0,556.0,3983.0,805.0,-93.0,1476.0,3687.0,,,,1.98054437260884,-2.94291816225344,-1.87746682997622,,-1.5799610736781262,,
,4593.0,554.0,3982.0,806.0,-89.0,1478.0,3682.0,,,,1.98057470309628,-2.94356708814241,-1.87837493915424,,-1.6234731310680748,,
,4592.0,555.0,3981.0,806.0,-91.0,1485.0,3674.0,,,,1.98004755965584,-2.94411758946808,-1.87812892662221,,-1.6461118097405778,,
,4591.0,555.0,3981.0,804.0,-100.0,1484.0,3673.0,,,,1.98139492580666,-2.94270653698049,-1.87764750890607,,-1.6537067989307093,,
,4590.0,554.0,3983.0,806.0,-103.0,1482.0,3680.0,,,,1.9806794182095,-2.94261257513895,-1.87744337361043,,-1.6518674291646855,,
,4592.0,554.0,3986.0,806.0,-105.0,1485.0,3653.0,,,,1.98017408598875,-2.9426322407733,-1.87786456624999,,-1.6457111481878264,,
,4592.0,555.0,3985.0,805.0,-102.0,1483.0,3656.0,,,,1.98135772021275,-2.94224050162584,-1.87770413141889,,-1.6396086970290127,,
,4593.0,554.0,3984.0,804.0,-100.0,1477.0,3663.0,,,,1.9810364509319,-2.94336686897523,-1.87784863547069,,-1.6369445280049517,,
,4595.0,555.0,3985.0,805.0,-97.0,1477.0,3659.0,,,,1.98105121321033,-2.94337255719513,-1.87758409791775,,-1.6398991867198809,,
,4597.0,555.0,3987.0,805.0,-97.0,1488.0,3658.0,,,,1.98149703597181,-2.94288047675159,-1.87715665036578,,-1.6492679363621559,,
,4594.0,554.0,3987.0,806.0,-96.0,1489.0,3660.0,,,,1.98127688164941,-2.94321195114262,-1.87770515388793,,-1.6643351401769395,,
,4598.0,557.0,3988.0,808.0,-91.0,1483.0,3668.0,,,,1.98187105591856,-2.94318351583041,-1.87762895119096,,-1.6828260450634815,,
,4597.0,554.0,3984.0,806.0,-92.0,1487.0,3660.0,,,,1.98184772207171,-2.94320988977697,-1.87719036063366,,-1.7009562910850597,,
,4597.0,555.0,3989.0,807.0,-97.0,1471.0,3665.0,,,,1.98071592292043,-2.94185817352456,-1.87711111091877,,-1.7135945641745445,,
,4602.0,556.0,3990.0,809.0,-92.0,1464.0,3679.0,,,,1.98126101135774,-2.94303172293947,-1.87823506391065,,-1.7145453048219155,,
,4602.0,557.0,3989.0,807.0,-88.0,1468.0,3676.0,,,,1.98188343007129,-2.94222136776726,-1.87720057891229,,-1.6969465282636187,,
,4600.0,557.0,3989.0,807.0,-87.0,1479.0,3666.0,,,,1.98144898310641,-2.94204023641117,-1.87831353528127,,-1.6537634123496678,,
,4601.0,556.0,3990.0,808.0,-106.0,1472.0,3687.0,,,,1.98074366772159,-2.94204193810064,-1.87720238528869,,-1.57834315550341,,
,4601.0,557.0,3993.0,808.0,-110.0,1479.0,3688.0,,,,1.98134065270502,-2.94216627670968,-1.87810138437579,,-1.4649836932678812,,
,4604.0,557.0,3992.0,810.0,-109.0,1483.0,3682.0,,,,1.98055596921615,-2.94347616017442,-1.87801428644566,,-1.3094619435682684,,
,4603.0,557.0,3993.0,810.0,-101.0,1494.0,3671.0,,,,1.98063166491069,-2.942490954138,-1.8781985876402,,-1.1094693504919566,,
,4605.0,557.0,3995.0,808.0,-97.0,1469.0,3653.0,,,,1.98046106185985,-2.94307194868751,-1.87799074606432,,-0.8649140293455473,,
,4605.0,556.0,3993.0,810.0,-96.0,1482.0,3655.0,,,,1.98020272766506,-2.94310969414372,-1.87801882607048,,-0.5780668797385569,,
,4608.0,558.0,3999.0,810.0,-96.0,1479.0,3684.0,,,,1.98027315134454,-2.94314290191345,-1.87820375180003,,-0.2535486703415349,,
,4609.0,557.0,3999.0,812.0,-92.0,1484.0,3682.0,,,,1.97895214918555,-2.94460893509475,-1.87854332491415,,0.10182833119128637,,
,4608.0,558.0,4002.0,810.0,-93.0,1485.0,3683.0,,,,1.97973855602148,-2.94452983340972,-1.87714690838769,,0.47933967328833404,,
,4610.0,556.0,3999.0,809.0,-89.0,1478.0,3674.0,,,,1.97921697264932,-2.9445783095395,-1.87816333021096,,0.8687194705064583,,
,4612.0,560.0,4003.0,813.0,-94.0,1483.0,3680.0,,,,1.97907509332214,-2.94479272723221,-1.87802901793788,,1.2585928940394326,,
,4611.0,559.0,4003.0,813.0,-89.0,1481.0,3685.0,,,,1.97898504452194,-2.94460774539313,-1.87796459527429,,1.636943707862509,,
,4614.0,560.0,4007.0,813.0,-91.0,1469.0,3701.0,,,,1.97892833579043,-2.94462298856309,-1.87733340293857,,1.991594823792876,,
,4612.0,557.0,4005.0,810.0,-94.0,1476.0,3673.0,,,,1.97829920534974,-2.94485413542299,-1.87848907038869,,2.3106851094982828,,
,4617.0,560.0,4010.0,814.0,-93.0,1473.0,3678.0,,,,1.97789468148192,-2.94401447141727,-1.87875065647833,,2.583130855202296,,
,4617.0,560.0,4011.0,815.0,-94.0,1485.0,3675.0,,,,1.97769158936052,-2.94495476967244,-1.87797697965013,,2.799064715497014,,
,4618.0,561.0,4014.0,814.0,-102.0,1479.0,3686.0,,,,1.97962609375861,-2.94411763466457,-1.87766243981247,,2.95024748609277,,
,4617.0,560.0,4012.0,812.0,-97.0,1481.0,3683.0,,,,1.97873082461133,-2.94409293279951,-1.87813040316935,,3.030447249170311,,
,4620.0,560.0,4016.0,813.0,-100.0,1478.0,3671.0,,,,1.97837578940468,-2.94290689483427,-1.87795701672169,,3.035775307529247,,
,4621.0,561.0,4016.0,815.0,-102.0,1479.0,3672.0,,,,1.97867327425902,-2.9435447776454,-1.87759551121979,,2.9649599798324497,,
,4622.0,561.0,4017.0,816.0,-101.0,1485.0,3671.0,,,,1.97865813014783,-2.94291600477388,-1.87734775509251,,2.8195310653797994,,
,4624.0,559.0,4019.0,815.0,-90.0,1461.0,3675.0,,,,1.97858022205558,-2.94398200520725,-1.87770044470467,,2.603883746917459,,
,4623.0,560.0,4018.0,817.0,-95.0,1473.0,3686.0,,,,1.97852259582905,-2.94406812996415,-1.87796120092912,,2.3251937724815233,,
,4626.0,561.0,4021.0,819.0,-107.0,1479.0,3670.0,,,,1.97865668500904,-2.94296378537935,-1.87833949270013,,1.9931663356343996,,
,4626.0,563.0,4020.0,818.0,-96.0,1481.0,3650.0,,,,1.97922744891137,-2.94312362305611,-1.87796930715933,,1.6196171281956382,,
,4629.0,561.0,4024.0,818.0,-91.0,1475.0,3651.0,,,,1.97843870336992,-2.94199881359103,-1.87763461851559,,1.2179021382253705,,
,4628.0,563.0,4025.0,818.0,-104.0,1469.0,3645.0,,,,1.97937057130827,-2.94418134985283,-1.87723331021908,,0.8022294045692451,,
,4629.0,563.0,4026.0,820.0,-91.0,1472.0,3666.0,,,,1.9787229129175,-2.94297528938061,-1.87790353162346,,0.38689864085485287,,
,4631.0,562.0,4029.0,820.0,-95.0,1480.0,3674.0,,,,1.97910924164537,-2.94315853530142,-1.87772946030851,,-0.014477573529746511,,
,4635.0,561.0,4029.0,820.0,-95.0,1482.0,3662.0,,,,1.97994717057529,-2.9432774052399,-1.878095897975,,-0.3897142640377966,,
,4633.0,559.0,4030.0,820.0,-102.0,1486.0,3652.0,,,,1.97926412692713,-2.9435410070193,-1.87802274194293,,-0.7287005045335282,,
,4634.0,562.0,4031.0,819.0,-100.0,1486.0,3649.0,,,,1.98016932020349,-2.94250766499579,-1.87855032380515,,-1.0239013217130846,,
,4636.0,562.0,4032.0,820.0,-84.0,1481.0,3643.0,,,,1.97973676989526,-2.94165768470362,-1.87814681876548,,-1.2706744344549283,,
,4637.0,562.0,4029.0,819.0,-94.0,1491.0,3651.0,,,,1.97941050708005,-2.94327605787235,-1.87803996574691,,-1.467376241252267,,
,4635.0,563.0,4032.0,821.0,-97.0,1486.0,3653.0,,,,1.98017638445876,-2.94292779302942,-1.87804988531121,,-1.615250682863306,,
,4634.0,563.0,4031.0,817.0,-103.0,1472.0,3670.0,,,,1.98059451198663,-2.94232207757027,-1.87833047004916,,-1.7181152706465008,,
,4633.0,565.0,4030.0,817.0,-108.0,1474.0,3677.0,,,,1.98064897550319,-2.94371625953509,-1.87813232357705,,-1.781877225296938,,
,4633.0,563.0,4033.0,817.0,-109.0,1463.0,3657.0,,,,1.97987586247115,-2.94394194228448,-1.87829162579042,,-1.8139265709384316,,
,4626.0,563.0,4031.0,815.0,-107.0,1467.0,3655.0,,,,1.98003115651315,-2.94356529058091,-1.87838175289659,,-1.8224609409749088,,
,4627.0,561.0,4030.0,816.0,-97.0,1485.0,3657.0,,,,1.97957290548925,-2.9445298097357,-1.87864736151446,,-1.8157989084710164,,
,4626.0,560.0,4028.0,813.0,-92.0,1489.0,3665.0,,,,1.97893548247446,-2.94419635424597,-1.87814655382342,,-1.8017357281522786,,
,4623.0,560.0,4029.0,813.0,-91.0,1486.0,3685.0,,,,1.97974591129678,-2.94256891266343,-1.87732571827145,,-1.78698850785312,,
,4622.0,560.0,4028.0,810.0,-95.0,1485.0,3664.0,,,,1.97968145958384,-2.94367366146144,-1.87859962398648,,-1.7767678853240576,,
,4616.0,557.0,4026.0,811.0,-94.0,1481.0,3664.0,,,,1.97883205880076,-2.94370211467248,-1.87814096312072,,-1.7745008760744203,,
,4616.0,559.0,4025.0,809.0,-106.0,1466.0,3662.0,,,,1.97952518339835,-2.94321403492495,-1.87835956244163,,-1.7817151756378897,,
,4611.0,559.0,4023.0,808.0,-97.0,1474.0,3661.0,,,,1.97954436412164,-2.9427314791601,-1.87787709823716,,-1.7980796001119326,,
,4612.0,560.0,4024.0,811.0,-99.0,1492.0,3665.0,,,,1.97946058704183,-2.94404236578447,-1.87781010847151,,-1.8215799945033282,,
,4610.0,558.0,4024.0,808.0,-96.0,1492.0,3685.0,,,,1.98004366140708,-2.94348838531049,-1.87856262050996,,-1.8487972691803027,,
,4607.0,557.0,4022.0,809.0,-94.0,1487.0,3679.0,,,,1.97977376606983,-2.94264576562744,-1.8772078661012,,-1.8752471233253432,,
,4605.0,559.0,4021.0,807.0,-84.0,1482.0,3668.0,,,,1.98064275100434,-2.94318714276743,-1.87818333585978,,-1.8957412544113788,,
,4606.0,559.0,4022.0,807.0,-91.0,1482.0,3654.0,,,,1.97980852766106,-2.94298684111855,-1.87752337591402,,-1.9047367512681,,
,4606.0,559.0,4022.0,808.0,-92.0,1487.0,3675.0,,,,1.9791934473601,-2.94310140083051,-1.87801434918482,,-1.8966510775221055,,
,4605.0,559.0,4022.0,809.0,-94.0,1486.0,3679.0,,,,1.97927605230966,-2.94308865244773,-1.87774877498843,,-1.8661312081181483,,
,4603.0,556.0,4021.0,808.0,-100.0,1477.0,3685.0,,,,1.97980462052894,-2.94415643111542,-1.87862767734157,,-1.8082747185085355,,
,4601.0,557.0,4021.0,806.0,-109.0,1487.0,3663.0,,,,1.97924641317307,-2.94347002350835,-1.87793153786956,,-1.7188070317386623,,
,4603.0,557.0,4020.0,808.0,-93.0,1479.0,3654.0,,,,1.97995678651394,-2.94359238903791,-1.8789022529277,,-1.5942227609671655,,
,4604.0,558.0,4024.0,809.0,-92.0,1480.0,3650.0,,,,1.98060786799992,-2.94324880518767,-1.87733463226608,,-1.431900832317026,,
,4603.0,557.0,4023.0,808.0,-96.0,1480.0,3662.0,,,,1.97994174546456,-2.94269467968718,-1.87853990739237,,-1.2302036280325575,,
,4604.0,557.0,4023.0,808.0,-87.0,1483.0,3673.0,,,,1.98086307748614,-2.94299636391369,-1.87777904836818,,-0.9885701795328086,,
,4601.0,559.0,4023.0,806.0,-84.0,1475.0,3681.0,,,,1.98065808455316,-2.94292479760901,-1.87811800439659,,-0.7076120874947393,,
,4604.0,559.0,4025.0,808.0,-94.0,1477.0,3673.0,,,,1.98078236708171,-2.9421553002068,-1.8772945671424,,-0.389217226977561,,
,4602.0,557.0,4025.0,808.0,-96.0,1473.0,3668.0,,,,1.98081855466797,-2.94252099278221,-1.87787425585712,,-0.036659412055761384,,
,4604.0,557.0,4023.0,809.0,-87.0,1463.0,3672.0,,,,1.98061125716887,-2.94335571295713,-1.87772274562487,,0.34529749128441023,,
,4605.0,558.0,4023.0,809.0,-97.0,1484.0,3665.0,,,,1.98097284063607,-2.94150117537365,-1.8779828573984,,0.7503224755820302,,
,4606.0,559.0,4026.0,811.0,-91.0,1494.0,3682.0,,,,1.98086672396908,-2.94288348612388,-1.87764770117795,,1.1704955671561565,,
,4605.0,560.0,4028.0,810.0,-93.0,1487.0,3672.0,,,,1.98031589033278,-2.94212117254993,-1.87769084133697,,1.5963707534811007,,
,4605.0,560.0,4029.0,808.0,-88.0,1490.0,3665.0,,,,1.97997995104154,-2.94290670858792,-1.87793824097906,,2.0171486322862915,,
,4605.0,559.0,4028.0,808.0,-87.0,1486.0,3676.0,,,,1.98073261350347,-2.94281615367951,-1.87772494718969,,2.420974543502942,,
,4607.0,558.0,4031.0,811.0,-103.0,1478.0,3683.0,,,,1.97970798250598,-2.94278103743739,-1.87796065733384,,2.7953652886455735,,
,4607.0,559.0,4033.0,812.0,-92.0,1472.0,3657.0,,,,1.98105491248235,-2.94203724136168,-1.8782194686304,,3.1277525639200956,,
,4606.0,559.0,4033.0,809.0,-93.0,1467.0,3648.0,,,,1.98137739082692,-2.94271966826399,-1.87805705259973,,3.4061153120231844,,
,4607.0,560.0,4032.0,809.0,-94.0,1465.0,3678.0,,,,1.98087029805719,-2.94227712473601,-1.87816969569815,,3.619658241909982,,
,4607.0,559.0,4032.0,808.0,-92.0,1480.0,3681.0,,,,1.98091023839269,-2.94331294644661,-1.87796557196261,,3.7594820861283247,,
,4610.0,559.0,4036.0,810.0,-90.0,1492.0,3682.0,,,,1.9812106574785,-2.94158475869306,-1.87752486225661,,3.819185078261171,,
,4611.0,562.0,4037.0,810.0,-91.0,1495.0,3672.0,,,,1.98100977154324,-2.94332539799275,-1.87821934961322,,3.7953364830765413,,
,4607.0,560.0,4037.0,810.0,-98.0,1488.0,3685.0,,,,1.98125792905182,-2.94228339731462,-1.877675759767,,3.687772662878305,,
,4608.0,556.0,4037.0,810.0,-96.0,1493.0,3700.0,,,,1.98105919828303,-2.94421765419743,-1.87799272313702,,3.499683441761703,,
,4609.0,560.0,4038.0,808.0,-91.0,1499.0,3687.0,,,,1.9813020058067,-2.94246757038795,-1.8780333935049,,3.2374788005198503,,
,4610.0,560.0,4039.0,810.0,-90.0,1489.0,3676.0,,,,1.9815321508374,-2.94281073965905,-1.8771823934577,,2.9104489684318136,,
,4607.0,559.0,4037.0,809.0,-91.0,1484.0,3676.0,,,,1.98181747969087,-2.94271241975122,-1.87803394253692,,2.530250483404534,,
,4611.0,559.0,4039.0,809.0,-91.0,1474.0,3679.0,,,,1.98104673884356,-2.94288463214691,-1.8780462747895,,2.110264122463804,,
,4608.0,559.0,4040.0,809.0,-97.0,1476.0,3667.0,,,,1.9815941380752,-2.942700654668,-1.87821379550558,,1.6648772152786575,,
,4608.0,561.0,4039.0,812.0,-97.0,1490.0,3685.0,,,,1.98206759751389,-2.94265521892966,-1.87694004231626,,1.208743564570241,,
,4610.0,561.0,4042.0,811.0,-93.0,1484.0,3687.0,,,,1.98189847788628,-2.94294897433802,-1.87765678279062,,0.7560703107409437,,
,4611.0,560.0,4045.0,812.0,-94.0,1487.0,3682.0,,,,1.98118134867321,-2.94208237208257,-1.87863676596639,,0.31997381222373134,,
,4609.0,561.0,4042.0,809.0,-101.0,1480.0,3673.0,,,,1.98177581367558,-2.94245996259117,-1.8778170799148,,-0.08806310401935925,,
,4610.0,558.0,4042.0,810.0,-85.0,1475.0,3681.0,,,,1.98135643777449,-2.94313013471719,-1.87725662950082,,-0.458611443115522,,
,4610.0,560.0,4043.0,808.0,-90.0,1485.0,3667.0,,,,1.98212468193842,-2.94208150698463,-1.87751001456254,,-0.7845843978158841,,
,4613.0,559.0,4046.0,811.0,-92.0,1485.0,3670.0,,,,1.98159405139099,-2.94231551635218,-1.87788643845112,,-1.0613945379703973,,
,4611.0,559.0,4044.0,810.0,-105.0,1472.0,3662.0,,,,1.98179291427635,-2.94258532400975,-1.87752681881827,,-1.2869879885040287,,
,4611.0,561.0,4044.0,811.0,-94.0,1490.0,3664.0,,,,1.98254977403396,-2.94319284763642,-1.87840019645713,,-1.4617671632234943,,
,4613.0,559.0,4046.0,812.0,-89.0,1485.0,3661.0,,,,1.98129848585742,-2.94181019313144,-1.87750010852033,,-1.5884130960797518,,
,4613.0,561.0,4046.0,811.0,-94.0,1483.0,3653.0,,,,1.98297231192034,-2.94264118131179,-1.87738796180376,,-1.6716154984005402,,
,4613.0,560.0,4044.0,813.0,-97.0,1488.0,3644.0,,,,1.9822932332748,-2.94163668771235,-1.8774298795107,,-1.7177161976376643,,
,4616.0,560.0,4046.0,810.0,-84.0,1489.0,3652.0,,,,1.981555164317,-2.94224536030898,-1.87791146512807,,-1.7342723382689007,,
,4617.0,559.0,4047.0,812.0,-84.0,1488.0,3670.0,,,,1.98070613942795,-2.94321564219458,-1.87681296135417,,-1.729550659792403,,
2025-07-16 17:58:07,4616.0,562.0,4046.0,811.0,-85.0,1480.0,3666.0,,,2025/07/16 05:58:07 PM,1.98137347009451,-2.94199197125185,-1.87772980785767,,-1.7119720470711712,,
,4617.0,562.0,4049.0,814.0,-84.0,1477.0,3658.0,,,,1.98085854630879,-2.9420285450833,-1.87793325214332,,-1.6895338757531229,,
,4619.0,562.0,4049.0,813.0,-99.0,1491.0,3667.0,,,,1.98054163053617,-2.94233853097624,-1.87740591971978,,-1.6692442453199174,,
,4619.0,560.0,4051.0,812.0,-94.0,1481.0,3680.0,,,,1.97966269149402,-2.94329648861493,-1.8780824702925,,-1.6566058945265867,,
,4623.0,563.0,4053.0,813.0,-91.0,1488.0,3678.0,,,,1.97977829293064,-2.94369552038756,-1.8781909243692,,-1.6551882233745694,,
,4622.0,562.0,4050.0,814.0,-88.0,1492.0,3681.0,,,,1.97951089733675,-2.94329846532472,-1.87766195129459,,-1.666323507701085,,
,4624.0,562.0,4052.0,815.0,-82.0,1488.0,3675.0,,,,1.98021313701395,-2.94428837975829,-1.87707763049552,,-1.688958110650074,,
,4624.0,563.0,4053.0,813.0,-84.0,1483.0,3666.0,,,,1.98055698366241,-2.94311022426196,-1.8783201392816,,-1.7196811247281387,,
,4626.0,563.0,4055.0,815.0,-87.0,1487.0,3687.0,,,,1.97963689951653,-2.94427730137819,-1.87778160151658,,-1.7529411990538137,,
,4627.0,564.0,4056.0,816.0,-97.0,1482.0,3671.0,,,,1.97970079075976,-2.94297082070298,-1.8777272388419,,-1.7814472972187485,,
,4627.0,563.0,4055.0,817.0,-95.0,1483.0,3663.0,,,,1.97912875161839,-2.94288808719127,-1.87814812121097,,-1.7967314362909355,,
,4625.0,563.0,4054.0,817.0,-98.0,1474.0,3693.0,,,,1.97909187472108,-2.94397755967123,-1.87800318362686,,-1.7898329281555312,,
,4626.0,560.0,4057.0,816.0,-99.0,1465.0,3650.0,,,,1.97924597075612,-2.94301484595305,-1.87829515121326,,-1.7520475486413618,,
,4630.0,565.0,4058.0,818.0,-94.0,1480.0,3666.0,,,,1.97916048321415,-2.94321852145546,-1.87718797811378,,-1.6756752753530393,,
,4632.0,566.0,4059.0,817.0,-92.0,1486.0,3678.0,,,,1.97850818819742,-2.94347956158197,-1.87780374240708,,-1.5546994306597546,,
,4633.0,563.0,4061.0,819.0,-93.0,1496.0,3678.0,,,,1.97886409592919,-2.94269880706548,-1.87778255276779,,-1.3853383122512883,,
