TimeLabel,MEAS1_PPG1,MEAS1_PPG2,MEAS1_PPG3,MEAS1_PPG4,ACCX,ACCY,ACCZ,HR_timestamp,HR_value,radar_timestamp,phase_rx0,phase_rx1,phase_rx2,timestep,n_process,original_rate,calculated_rate
2025-07-29 18:09:11,5428.0,991.0,4112.0,845.0,-246.0,1401.0,3665.0,2025-07-29 18:09:38,87.0,2025/07/29 06:09:11 PM,-0.47135449555962,-2.84716940243871,-0.431231749567324,2025/07/29 06:09:11 PM,-1.1593086591458732,23.023792266845703,21.75723283868901
,5428.0,991.0,4112.0,844.0,-250.0,1404.0,3659.0,2025-07-29 18:09:39,87.0,,-0.47109260803322,-2.84710747775863,-0.430708328813266,2025/07/29 06:09:21 PM,-1.1633392283892954,22.74293708801269,21.89030131826742
,5428.0,994.0,4116.0,845.0,-259.0,1352.0,3682.0,2025-07-29 18:09:39,86.0,,-0.471054900007172,-2.84715120186524,-0.430867212666829,2025/07/29 06:09:31 PM,-1.1530750862118841,22.11796188354492,24.12587412587413
,5428.0,992.0,4113.0,844.0,-259.0,1347.0,3695.0,2025-07-29 18:09:40,86.0,,-0.471255864021361,-2.8471630372244,-0.431149936066815,2025/07/29 06:09:41 PM,-1.1237292075628564,22.758621215820312,23.034562433811494
,5427.0,989.0,4114.0,844.0,-265.0,1371.0,3711.0,2025-07-29 18:09:41,86.0,,-0.470925619433581,-2.84722148057774,-0.430524485350404,2025/07/29 06:09:51 PM,-1.0709193223395397,23.45582389831543,23.848911637450378
,5429.0,991.0,4116.0,847.0,-262.0,1358.0,3712.0,2025-07-29 18:09:42,87.0,,-0.471351110218306,-2.84704480281866,-0.430964984817433,2025/07/29 06:10:01 PM,-0.9910792796013366,23.80952262878418,23.45934737531376
,5431.0,993.0,4118.0,848.0,-262.0,1372.0,3714.0,2025-07-29 18:09:43,86.0,,-0.471044828636087,-2.84703873455588,-0.430203327208924,2025/07/29 06:10:11 PM,-0.8818211040100679,23.288637161254883,24.5054277029961
,5433.0,993.0,4118.0,849.0,-253.0,1370.0,3699.0,2025-07-29 18:09:44,85.0,,-0.471066517536145,-2.84700127909483,-0.430573236457551,2025/07/29 06:10:21 PM,-0.7422062191628105,23.91304397583008,22.431996671347594
,5434.0,990.0,4121.0,848.0,-259.0,1374.0,3678.0,2025-07-29 18:09:45,84.0,,-0.471502834250834,-2.84730681927232,-0.430924783679382,2025/07/29 06:10:31 PM,-0.5728962842567467,23.504274368286133,24.760427807486618
,5429.0,993.0,4121.0,845.0,-266.0,1379.0,3666.0,2025-07-29 18:09:46,83.0,,-0.471389453717343,-2.84700883821183,-0.430558250686328,2025/07/29 06:10:41 PM,-0.37617025438307894,23.84393119812012,24.632978723404253
,5434.0,992.0,4123.0,849.0,-239.0,1402.0,3675.0,2025-07-29 18:09:47,82.0,,-0.4713584847937,-2.84715237622352,-0.430111928191323,2025/07/29 06:10:51 PM,-0.15581127412688797,23.91304397583008,22.479090808782956
,5435.0,993.0,4122.0,847.0,-261.0,1392.0,3685.0,2025-07-29 18:09:48,81.0,,-0.47107129895464,-2.84693431953961,-0.430544728963166,2025/07/29 06:11:01 PM,0.08311797422905634,24.140453338623047,20.479895208986658
,5438.0,994.0,4123.0,850.0,-266.0,1396.0,3687.0,2025-07-29 18:09:49,80.0,,-0.471025547168915,-2.84707888376344,-0.429386868512552,2025/07/29 06:11:11 PM,0.3345816897160542,22.74293708801269,20.479895208986594
,5431.0,993.0,4123.0,848.0,-255.0,1391.0,3693.0,2025-07-29 18:09:50,80.0,,-0.470659905695685,-2.84687387676122,-0.430077152717139,2025/07/29 06:11:21 PM,0.5919230263222875,21.306818008422848,22.43790849673202
,5435.0,995.0,4123.0,847.0,-252.0,1381.0,3708.0,2025-07-29 18:09:51,80.0,,-0.470857099714564,-2.84660855087548,-0.430237440113616,2025/07/29 06:11:31 PM,0.8482243902518759,21.171487808227536,22.1823517641566
,5435.0,994.0,4123.0,849.0,-250.0,1381.0,3705.0,2025-07-29 18:09:52,79.0,,-0.470762978470449,-2.84698534044365,-0.430507157413613,2025/07/29 06:11:41 PM,1.0966418020612678,21.7548942565918,20.835945663531856
,5435.0,995.0,4122.0,848.0,-243.0,1375.0,3700.0,2025-07-29 18:09:53,79.0,,-0.470406502717806,-2.84688785851636,-0.430103079802267,2025/07/29 06:11:51 PM,1.330686266238023,21.978021621704105,20.581188694972937
,5433.0,992.0,4121.0,846.0,-270.0,1380.0,3703.0,2025-07-29 18:09:54,78.0,,-0.470306933563046,-2.84702715209954,-0.430074283889201,2025/07/29 06:12:01 PM,1.544435168484364,21.582733154296875,21.186822856514326
,5431.0,992.0,4119.0,846.0,-254.0,1380.0,3695.0,2025-07-29 18:09:55,78.0,,-0.470640289999667,-2.84676861000553,-0.429782752790356,,1.7326687944630954,,
,5435.0,993.0,4121.0,846.0,-249.0,1386.0,3700.0,2025-07-29 18:09:56,78.0,,-0.470220471281195,-2.84695188188329,-0.429143033327422,,1.8909396875777698,,
,5433.0,993.0,4120.0,844.0,-246.0,1373.0,3704.0,2025-07-29 18:09:57,78.0,,-0.470463499534501,-2.84690254074818,-0.428849194715913,,2.0155934946349165,,
,5432.0,993.0,4118.0,845.0,-236.0,1360.0,3680.0,2025-07-29 18:09:58,78.0,,-0.470305030828641,-2.84677244967956,-0.430063094676407,,2.1037664173703443,,
,5432.0,989.0,4117.0,845.0,-251.0,1375.0,3688.0,2025-07-29 18:09:59,78.0,,-0.470193054680012,-2.84672034448581,-0.429148710204554,,2.1533842914315455,,
,5433.0,991.0,4119.0,845.0,-251.0,1387.0,3685.0,2025-07-29 18:10:00,78.0,,-0.470152537537615,-2.84668660401732,-0.429979764610491,,2.163181582688836,,
,5432.0,991.0,4119.0,848.0,-263.0,1408.0,3705.0,2025-07-29 18:10:01,78.0,,-0.470298962557104,-2.84677101366254,-0.429547920182567,,2.132747462879131,,
,5432.0,992.0,4120.0,844.0,-264.0,1410.0,3714.0,2025-07-29 18:10:02,78.0,,-0.47047904896157,-2.8467983675398,-0.429577048289016,,2.062594050350222,,
,5431.0,992.0,4117.0,844.0,-241.0,1394.0,3707.0,2025-07-29 18:10:03,77.0,,-0.470258777011986,-2.8467471005264,-0.429996522541484,,1.9542319966116564,,
,5432.0,993.0,4119.0,850.0,-259.0,1395.0,3690.0,2025-07-29 18:10:04,77.0,,-0.470484720775402,-2.8467024971315,-0.430046429862482,,1.8102327036687356,,
,5434.0,992.0,4121.0,848.0,-263.0,1406.0,3691.0,2025-07-29 18:10:05,77.0,,-0.470369954035636,-2.84673027177023,-0.429768775623928,,1.6342550199050099,,
,5434.0,992.0,4123.0,848.0,-264.0,1411.0,3680.0,2025-07-29 18:10:06,77.0,,-0.470190307164808,-2.84690437053382,-0.429782393599615,,1.4310167187761693,,
,5434.0,991.0,4120.0,847.0,-250.0,1389.0,3687.0,2025-07-29 18:10:07,77.0,,-0.470516040901691,-2.84691766387376,-0.429376323565669,,1.2061963221229524,,
,5437.0,992.0,4123.0,847.0,-231.0,1393.0,3683.0,2025-07-29 18:10:08,77.0,,-0.470392614098156,-2.84668279341449,-0.430230585948263,,0.9662577971610883,,
,5436.0,992.0,4126.0,848.0,-236.0,1396.0,3679.0,2025-07-29 18:10:09,78.0,,-0.470604857651351,-2.84661793556911,-0.429810404344553,,0.7181987144338055,,
,5438.0,994.0,4127.0,849.0,-244.0,1391.0,3686.0,2025-07-29 18:10:10,78.0,,-0.470616090974984,-2.84668724026191,-0.429826623003519,,0.4692314900863078,,
,5438.0,994.0,4132.0,849.0,-248.0,1376.0,3694.0,2025-07-29 18:10:11,78.0,,-0.470554920271307,-2.846750341626,-0.429637353257932,,0.22641715469969653,,
,5442.0,993.0,4132.0,849.0,-267.0,1377.0,3698.0,2025-07-29 18:10:12,78.0,,-0.470624377088829,-2.84659772510708,-0.429924474737696,,-0.003719363484826687,,
,5445.0,998.0,4134.0,850.0,-259.0,1340.0,3714.0,2025-07-29 18:10:13,77.0,,-0.470898861357899,-2.84667291898716,-0.430174405560413,,-0.2155563535539198,,
,5448.0,996.0,4139.0,850.0,-263.0,1363.0,3703.0,2025-07-29 18:10:14,77.0,,-0.470858413102515,-2.84679282511656,-0.43025328619556,,-0.4046866414415999,,
,5447.0,997.0,4142.0,851.0,-255.0,1384.0,3701.0,2025-07-29 18:10:15,77.0,,-0.470667780998694,-2.84685258546995,-0.429714904335945,,-0.5681392675864809,,
,5449.0,994.0,4143.0,849.0,-235.0,1394.0,3686.0,2025-07-29 18:10:16,77.0,,-0.470586025803662,-2.8466412130288,-0.429699872793725,,-0.7044878430006105,,
,5452.0,998.0,4148.0,851.0,-242.0,1386.0,3677.0,2025-07-29 18:10:17,76.0,,-0.470657870809084,-2.84666041858237,-0.429466560078816,,-0.8138355351276487,,
,5455.0,999.0,4150.0,851.0,-251.0,1377.0,3693.0,2025-07-29 18:10:18,76.0,,-0.470385842285307,-2.84664503243681,-0.429545012388085,,-0.8976809244466428,,
,5458.0,998.0,4150.0,853.0,-244.0,1388.0,3684.0,2025-07-29 18:10:19,75.0,,-0.470423137305709,-2.84667143364805,-0.429643056377996,,-0.9586816789087034,,
,5458.0,999.0,4153.0,854.0,-257.0,1395.0,3702.0,2025-07-29 18:10:20,75.0,,-0.470530715756276,-2.84666766799975,-0.429420304470709,,-1.000342733549994,,
,5461.0,1000.0,4156.0,854.0,-238.0,1361.0,3687.0,2025-07-29 18:10:21,75.0,,-0.47026582237664,-2.84658520047595,-0.428799974088578,,-1.0266617695629672,,
,5464.0,1002.0,4162.0,857.0,-255.0,1390.0,3687.0,2025-07-29 18:10:22,75.0,,-0.470082276839271,-2.84659587862834,-0.429222213926164,,-1.0417671043611312,,
,5468.0,1004.0,4166.0,856.0,-246.0,1393.0,3664.0,2025-07-29 18:10:23,75.0,,-0.470142830157991,-2.84635334783417,-0.428937839159288,,-1.0495818397682906,,
,5466.0,1002.0,4171.0,859.0,-252.0,1376.0,3676.0,2025-07-29 18:10:24,75.0,,-0.470008970211669,-2.84646856449498,-0.429331762393891,,-1.053543652761515,,
,5470.0,1002.0,4168.0,856.0,-249.0,1384.0,3700.0,2025-07-29 18:10:25,75.0,,-0.470182510409239,-2.84636032721129,-0.429007683144263,,-1.0564023028119922,,
,5472.0,1005.0,4172.0,857.0,-256.0,1399.0,3698.0,2025-07-29 18:10:26,75.0,,-0.470134668298984,-2.84631697595726,-0.428635184757817,,-1.060107115440522,,
,5474.0,1004.0,4174.0,858.0,-265.0,1387.0,3727.0,2025-07-29 18:10:27,75.0,,-0.469732944784906,-2.84619788843943,-0.428094981631373,,-1.065785063868945,,
,5476.0,1004.0,4178.0,858.0,-272.0,1384.0,3723.0,2025-07-29 18:10:28,74.0,,-0.469764966319164,-2.84626144698826,-0.428398272570279,,-1.0737980043369186,,
,5479.0,1004.0,4182.0,858.0,-255.0,1379.0,3698.0,2025-07-29 18:10:29,74.0,,-0.469498585094429,-2.84627941155161,-0.42854532073828,,-1.0838572844050944,,
,5483.0,1004.0,4186.0,861.0,-250.0,1369.0,3685.0,2025-07-29 18:10:30,74.0,,-0.469299367592553,-2.84628710561461,-0.427875757539855,,-1.0951677438492862,,
,5486.0,1008.0,4190.0,863.0,-249.0,1375.0,3685.0,2025-07-29 18:10:31,75.0,,-0.469597591865414,-2.84602226201733,-0.428075069369021,,-1.1065726922509702,,
,5488.0,1008.0,4191.0,860.0,-263.0,1375.0,3695.0,2025-07-29 18:10:32,75.0,,-0.469538457818411,-2.84601109949136,-0.427998851556328,,-1.11667671378306,,
,5490.0,1009.0,4195.0,863.0,-255.0,1358.0,3692.0,2025-07-29 18:10:33,75.0,,-0.469380739504031,-2.84609402888575,-0.428105509017712,,-1.1239323345871286,,
,5494.0,1009.0,4196.0,861.0,-261.0,1344.0,3683.0,2025-07-29 18:10:34,75.0,,-0.469391113598622,-2.84603589301064,-0.427532894125705,,-1.1266870853162407,,
,5495.0,1011.0,4201.0,864.0,-260.0,1356.0,3684.0,2025-07-29 18:10:35,76.0,,-0.469272410579737,-2.84597450022129,-0.427749203851883,,-1.1231969933434944,,
,5500.0,1009.0,4203.0,862.0,-263.0,1366.0,3687.0,2025-07-29 18:10:36,76.0,,-0.469119909122704,-2.84588202973679,-0.427756831094871,,-1.1116196248324655,,
,5502.0,1013.0,4207.0,865.0,-254.0,1379.0,3714.0,2025-07-29 18:10:37,77.0,,-0.468877395749429,-2.84595911948162,-0.427982036923133,,-1.090003835390333,,
,5499.0,1008.0,4208.0,865.0,-247.0,1393.0,3714.0,2025-07-29 18:10:38,77.0,,-0.46866817607328,-2.84590263656424,-0.427788991068434,,-1.0562942378852636,,
,5507.0,1014.0,4214.0,866.0,-260.0,1380.0,3710.0,2025-07-29 18:10:39,77.0,,-0.468386810006737,-2.84588019892732,-0.427603884384348,,-1.008366291217944,,
,5504.0,1013.0,4216.0,867.0,-249.0,1385.0,3692.0,2025-07-29 18:10:40,76.0,,-0.468382050465783,-2.8457201105494,-0.42757935021501,,-0.9441033930072785,,
,5511.0,1015.0,4218.0,867.0,-252.0,1395.0,3685.0,2025-07-29 18:10:41,76.0,,-0.468624164650184,-2.84588259215915,-0.427575029574659,,-0.8615210456757275,,
,5513.0,1014.0,4221.0,867.0,-257.0,1377.0,3691.0,2025-07-29 18:10:42,75.0,,-0.468430686562577,-2.84580019579914,-0.427500539736213,,-0.7589355811327312,,
,5513.0,1015.0,4227.0,869.0,-269.0,1369.0,3691.0,2025-07-29 18:10:43,75.0,,-0.4683711291951,-2.84584360605576,-0.427154022730652,,-0.6351665903121532,,
,5518.0,1017.0,4229.0,868.0,-244.0,1369.0,3688.0,2025-07-29 18:10:44,74.0,,-0.468467744681463,-2.8456015999603,-0.427039783274578,,-0.48975397089102346,,
,5518.0,1019.0,4232.0,870.0,-247.0,1370.0,3710.0,2025-07-29 18:10:45,75.0,,-0.468156527892372,-2.84566500903849,-0.426247775172052,,-0.32316388043417915,,
,5524.0,1021.0,4236.0,871.0,-253.0,1398.0,3693.0,2025-07-29 18:10:46,75.0,,-0.468283763269425,-2.84569041917576,-0.426890310102544,,-0.13695475403135804,,
,5525.0,1019.0,4238.0,868.0,-257.0,1387.0,3684.0,2025-07-29 18:10:47,75.0,,-0.467834068644694,-2.84558008296759,-0.427062961901203,,0.06612375301649409,,
,5527.0,1020.0,4240.0,872.0,-260.0,1389.0,3689.0,2025-07-29 18:10:48,75.0,,-0.468124875022945,-2.84579930472859,-0.426621787406695,,0.28211961119205003,,
,5532.0,1020.0,4244.0,872.0,-259.0,1388.0,3698.0,2025-07-29 18:10:49,75.0,,-0.46811000300607,-2.8456158380582,-0.426846368740263,,0.5059660643182883,,
,5535.0,1022.0,4247.0,872.0,-255.0,1401.0,3710.0,2025-07-29 18:10:50,75.0,,-0.467648642015393,-2.84557026881343,-0.4265885706254,,0.7316680900857361,,
,5535.0,1021.0,4251.0,874.0,-248.0,1375.0,3704.0,2025-07-29 18:10:51,76.0,,-0.468002017070775,-2.84549700732885,-0.426698921772305,,0.9525771658812459,,
,5538.0,1023.0,4251.0,874.0,-271.0,1384.0,3721.0,2025-07-29 18:10:52,76.0,,-0.468069658122095,-2.8454805724142,-0.426955338768723,,1.1617350169799456,,
,5541.0,1023.0,4255.0,875.0,-245.0,1382.0,3709.0,2025-07-29 18:10:53,76.0,,-0.468001878111505,-2.84556107551895,-0.426652107340907,,1.352260467616858,,
,5542.0,1028.0,4257.0,874.0,-249.0,1376.0,3704.0,2025-07-29 18:10:54,76.0,,-0.46788160788207,-2.8456357832432,-0.426208457146956,,1.5177492624399354,,
,5542.0,1022.0,4254.0,872.0,-253.0,1364.0,3673.0,2025-07-29 18:10:55,77.0,,-0.467645399612246,-2.84544293458054,-0.426628938366959,,1.6526546253680503,,
,5540.0,1021.0,4248.0,873.0,-259.0,1407.0,3669.0,2025-07-29 18:10:56,77.0,,-0.467478979617048,-2.84571417065682,-0.426203958130886,,1.7526163666753851,,
,5539.0,1019.0,4245.0,868.0,-251.0,1417.0,3672.0,2025-07-29 18:10:57,77.0,,-0.467537947443491,-2.84542414208871,-0.42637022122825,,1.8147089182771827,,
,5533.0,1018.0,4232.0,868.0,-250.0,1413.0,3676.0,2025-07-29 18:10:58,77.0,,-0.467310576990455,-2.84532876514248,-0.425471695384692,,1.8375844957993737,,
,5523.0,1011.0,4220.0,865.0,-244.0,1397.0,3683.0,2025-07-29 18:10:59,77.0,,-0.467207940651377,-2.84516065425434,-0.425798993373242,,1.8214972611537852,,
,5516.0,1007.0,4206.0,860.0,-257.0,1399.0,3688.0,2025-07-29 18:11:00,77.0,,-0.467198707324083,-2.84530803739263,-0.425809064884191,,1.7682076264349478,,
,5505.0,1005.0,4194.0,856.0,-265.0,1408.0,3702.0,2025-07-29 18:11:01,77.0,,-0.467063674774772,-2.84523166204186,-0.425755329690292,,1.6807809028977785,,
,5496.0,1003.0,4181.0,855.0,-268.0,1399.0,3688.0,2025-07-29 18:11:02,77.0,,-0.466773482793959,-2.84515890962291,-0.425520580465037,,1.5633081056153726,,
,5486.0,999.0,4171.0,853.0,-256.0,1384.0,3686.0,2025-07-29 18:11:03,77.0,,-0.466642534125127,-2.8448386336803,-0.424745507431448,,1.420585380156392,,
,5474.0,996.0,4155.0,849.0,-244.0,1402.0,3692.0,2025-07-29 18:11:04,77.0,,-0.466749879132111,-2.845048328946,-0.42491131214671,,1.2577902100080178,,
,5467.0,993.0,4146.0,848.0,-260.0,1383.0,3699.0,2025-07-29 18:11:05,77.0,,-0.466996577862938,-2.84513365755843,-0.425943659340689,,1.0801876347571158,,
,5460.0,993.0,4140.0,848.0,-249.0,1399.0,3688.0,2025-07-29 18:11:06,77.0,,-0.467317927866246,-2.8453068661067,-0.425868856474488,,0.8928902707466921,,
,5455.0,990.0,4131.0,845.0,-258.0,1391.0,3675.0,2025-07-29 18:11:07,77.0,,-0.46780773225614,-2.8453114365863,-0.425922238584317,,0.7006845798437882,,
,5448.0,986.0,4126.0,842.0,-253.0,1384.0,3666.0,2025-07-29 18:11:08,77.0,,-0.467680862424832,-2.84548293463809,-0.427038736284031,,0.5079247347821543,,
,5440.0,985.0,4118.0,841.0,-251.0,1389.0,3678.0,2025-07-29 18:11:09,77.0,,-0.468028027528169,-2.84556799958471,-0.427049518073455,,0.3184860206173805,,
,5439.0,985.0,4114.0,841.0,-249.0,1387.0,3678.0,2025-07-29 18:11:10,77.0,,-0.468820195106302,-2.84589884228295,-0.427829230741842,,0.1357628100487543,,
,5433.0,983.0,4112.0,840.0,-250.0,1377.0,3684.0,2025-07-29 18:11:11,76.0,,-0.46919899554546,-2.84614740677823,-0.428725956225638,,-0.03730788310274743,,
,5431.0,984.0,4108.0,842.0,-251.0,1372.0,3684.0,2025-07-29 18:11:12,76.0,,-0.469689550910658,-2.84644115824626,-0.429157740894875,,-0.19821730846232935,,
,5424.0,982.0,4105.0,839.0,-241.0,1375.0,3700.0,2025-07-29 18:11:13,75.0,,-0.469858871655614,-2.8465071066569,-0.429030281925031,,-0.3448682936249444,,
,5428.0,982.0,4106.0,840.0,-261.0,1377.0,3703.0,2025-07-29 18:11:14,75.0,,-0.470172267429095,-2.84648240686578,-0.430094580779094,,-0.47558359983550413,,
,5425.0,984.0,4106.0,840.0,-269.0,1380.0,3702.0,2025-07-29 18:11:15,76.0,,-0.470503549051586,-2.84669294560984,-0.42920331010736,,-0.5891437271612302,,
,5425.0,984.0,4104.0,839.0,-268.0,1376.0,3698.0,2025-07-29 18:11:16,76.0,,-0.470465812741274,-2.84677357601335,-0.429563756000673,,-0.6848487191790839,,
,5420.0,980.0,4102.0,839.0,-251.0,1378.0,3708.0,2025-07-29 18:11:17,76.0,,-0.470423789928163,-2.8466922775574,-0.429920831537201,,-0.7625892770934767,,
,5418.0,982.0,4101.0,840.0,-243.0,1379.0,3688.0,2025-07-29 18:11:18,76.0,,-0.470309425839849,-2.84672535919767,-0.430803293394672,,-0.8229064724298139,,
,5419.0,983.0,4102.0,838.0,-232.0,1400.0,3701.0,2025-07-29 18:11:19,77.0,,-0.470390523997426,-2.84673234291585,-0.430004396183832,,-0.8670183568145133,,
,5417.0,978.0,4103.0,840.0,-236.0,1391.0,3699.0,2025-07-29 18:11:20,77.0,,-0.470475545621219,-2.84676036049635,-0.430601220134709,,-0.8967959192724979,,
,5418.0,981.0,4102.0,839.0,-255.0,1380.0,3719.0,2025-07-29 18:11:21,77.0,,-0.470840937205891,-2.84676528598275,-0.429729627997973,,-0.9146786189629261,,
,5419.0,979.0,4104.0,838.0,-264.0,1374.0,3704.0,2025-07-29 18:11:22,77.0,,-0.470665393149384,-2.84669864989356,-0.430125638847688,,-0.923528936545427,,
,5417.0,982.0,4100.0,838.0,-257.0,1369.0,3707.0,2025-07-29 18:11:23,77.0,,-0.470715878953879,-2.84673009363429,-0.430072934151637,,-0.9264341781346208,,
,5417.0,982.0,4104.0,840.0,-266.0,1361.0,3706.0,2025-07-29 18:11:24,77.0,,-0.470515205480535,-2.84681865505866,-0.429798309555678,,-0.9264710037605112,,
,5417.0,982.0,4105.0,839.0,-265.0,1360.0,3709.0,2025-07-29 18:11:25,77.0,,-0.470532278531515,-2.84654261758307,-0.430559004764875,,-0.9264533294694695,,
,5418.0,981.0,4105.0,838.0,-268.0,1362.0,3714.0,2025-07-29 18:11:26,78.0,,-0.470523665286004,-2.84656796053495,-0.429889790907042,,-0.9286872115492374,,
,5420.0,982.0,4108.0,840.0,-273.0,1360.0,3707.0,2025-07-29 18:11:27,78.0,,-0.470457610374964,-2.84664049403395,-0.430028056353363,,-0.9347570558116615,,
,5420.0,983.0,4111.0,843.0,-239.0,1364.0,3697.0,2025-07-29 18:11:28,79.0,,-0.470450148088707,-2.84656624344601,-0.430221160141455,,-0.9453660051349624,,
,5421.0,982.0,4110.0,840.0,-244.0,1372.0,3682.0,2025-07-29 18:11:29,79.0,,-0.470531328286645,-2.84670051769973,-0.429976540932868,,-0.9602495369906904,,
,5420.0,983.0,4109.0,841.0,-248.0,1398.0,3679.0,2025-07-29 18:11:30,79.0,,-0.470648402620175,-2.84647422617142,-0.429583931765235,,-0.9781749680439216,,
,5421.0,982.0,4110.0,841.0,-249.0,1407.0,3675.0,2025-07-29 18:11:31,80.0,,-0.470657422276956,-2.84666812481978,-0.429809140889541,,-0.9970307528454344,,
,5423.0,985.0,4112.0,841.0,-252.0,1391.0,3688.0,2025-07-29 18:11:32,80.0,,-0.470115783191159,-2.84647848482241,-0.429421773582039,,-1.013998857692283,,
,5424.0,983.0,4112.0,844.0,-256.0,1384.0,3668.0,2025-07-29 18:11:33,80.0,,-0.470048552156151,-2.84668598539947,-0.429525044727245,,-1.0257926718595436,,
,5422.0,984.0,4113.0,842.0,-259.0,1387.0,3673.0,2025-07-29 18:11:34,80.0,,-0.470007384784514,-2.84632519008926,-0.429444887567396,,-1.0289341777177254,,
,5421.0,982.0,4112.0,841.0,-251.0,1368.0,3689.0,2025-07-29 18:11:35,80.0,,-0.470092897975905,-2.84636598277532,-0.429587072158482,,-1.0200396317452896,,
,5422.0,983.0,4114.0,841.0,-250.0,1388.0,3697.0,2025-07-29 18:11:36,80.0,,-0.470013435964255,-2.84630005348876,-0.428914426675618,,-0.9960838235300625,,
,5423.0,982.0,4113.0,843.0,-242.0,1401.0,3717.0,2025-07-29 18:11:37,80.0,,-0.46961849785586,-2.84640256006591,-0.429305386923514,,-0.9546183948366037,,
,5422.0,981.0,4111.0,841.0,-245.0,1402.0,3725.0,2025-07-29 18:11:38,80.0,,-0.469725872077509,-2.8463176979102,-0.429047207599399,,-0.8939278553231819,,
,5420.0,979.0,4111.0,841.0,-260.0,1377.0,3701.0,2025-07-29 18:11:39,80.0,,-0.469814188102836,-2.84631558745338,-0.428959265031183,,-0.8131158611968121,,
,5417.0,980.0,4111.0,839.0,-263.0,1379.0,3684.0,2025-07-29 18:11:40,80.0,,-0.469349344653604,-2.84641886748866,-0.428247375925976,,-0.7121227133162596,,
,5420.0,982.0,4111.0,841.0,-249.0,1376.0,3696.0,2025-07-29 18:11:41,80.0,,-0.469646893841429,-2.84629637283928,-0.42931654339903,,-0.5916822675973998,,
,5418.0,981.0,4108.0,841.0,-248.0,1400.0,3685.0,2025-07-29 18:11:42,79.0,,-0.469649254588231,-2.8462097086396,-0.428529471269628,,-0.4532322468078138,,
,5419.0,981.0,4108.0,841.0,-258.0,1410.0,3700.0,2025-07-29 18:11:43,79.0,,-0.469766875731703,-2.84627543736861,-0.428765730141902,,-0.29879604139729554,,
,5417.0,978.0,4105.0,839.0,-263.0,1404.0,3701.0,2025-07-29 18:11:44,79.0,,-0.469664823639445,-2.8463038446737,-0.428935690625497,,-0.13085617946266323,,
2025-07-29 18:09:12,5416.0,978.0,4110.0,840.0,-265.0,1411.0,3701.0,2025-07-29 18:11:45,79.0,2025/07/29 06:09:12 PM,-0.469932204276072,-2.84642142054608,-0.429043918289215,,0.04776066550220144,,
,5418.0,981.0,4110.0,840.0,-263.0,1413.0,3690.0,2025-07-29 18:11:46,79.0,,-0.469887170224356,-2.84622391182401,-0.428887898191367,,0.23397048228888992,,
,5416.0,980.0,4108.0,839.0,-253.0,1417.0,3696.0,2025-07-29 18:11:47,79.0,,-0.469813761637687,-2.84645849442899,-0.42865823731334,,0.4244804226188378,,
,5415.0,980.0,4111.0,840.0,-235.0,1401.0,3703.0,2025-07-29 18:11:48,79.0,,-0.469711023759,-2.84643688417681,-0.429292792914573,,0.6157984397840673,,
,5419.0,980.0,4112.0,840.0,-259.0,1390.0,3678.0,2025-07-29 18:11:49,79.0,,-0.469982007260753,-2.84634074022077,-0.429521381527057,,0.8042146552930661,,
,5419.0,980.0,4113.0,843.0,-249.0,1385.0,3670.0,2025-07-29 18:11:50,80.0,,-0.470137581636963,-2.84630679640259,-0.429779551477277,,0.9857750287351874,,
,5419.0,981.0,4115.0,842.0,-241.0,1384.0,3682.0,2025-07-29 18:11:51,79.0,,-0.470269092925875,-2.84644739410596,-0.429502619818867,,1.1562735758587452,,
,5422.0,983.0,4116.0,841.0,-255.0,1394.0,3696.0,2025-07-29 18:11:52,79.0,,-0.46995371623211,-2.84664693934715,-0.42948717464676,,1.3112886942033128,,
,5422.0,981.0,4121.0,840.0,-253.0,1402.0,3690.0,2025-07-29 18:11:53,79.0,,-0.470189146695033,-2.84651365290779,-0.429362625989637,,1.4462822485800853,,
,5423.0,985.0,4120.0,843.0,-238.0,1376.0,3697.0,2025-07-29 18:11:54,79.0,,-0.470018351800611,-2.8465277766208,-0.429382716525754,,1.5567689126057906,,
,5424.0,984.0,4122.0,844.0,-258.0,1385.0,3703.0,2025-07-29 18:11:55,78.0,,-0.469813767478445,-2.84645064045087,-0.429643101165813,,1.6385504319891075,,
,5426.0,985.0,4127.0,845.0,-253.0,1380.0,3701.0,2025-07-29 18:11:56,78.0,,-0.469802887205968,-2.84630351535542,-0.429154750292879,,1.6879971839879497,,
,5428.0,983.0,4125.0,842.0,-252.0,1387.0,3690.0,2025-07-29 18:11:57,78.0,,-0.470001251510928,-2.84640364985621,-0.428831028732871,,1.7023493059254866,,
,5428.0,984.0,4130.0,845.0,-244.0,1390.0,3691.0,2025-07-29 18:11:58,78.0,,-0.46986542407016,-2.84635361484737,-0.429400961156828,,1.6800030255977987,,
,5431.0,984.0,4133.0,846.0,-240.0,1393.0,3680.0,2025-07-29 18:11:59,78.0,,-0.470107729381834,-2.84649722019434,-0.429606526974876,,1.6207455711325578,,
,5435.0,986.0,4137.0,845.0,-234.0,1369.0,3679.0,2025-07-29 18:12:00,79.0,,-0.469831889765915,-2.84637798283161,-0.429187256295044,,1.5259045484122662,,
,5434.0,986.0,4137.0,847.0,-245.0,1394.0,3694.0,2025-07-29 18:12:01,78.0,,-0.47014659272561,-2.8463869830962,-0.428705499021968,,1.3983847236705311,,
,5434.0,989.0,4142.0,847.0,-277.0,1402.0,3700.0,2025-07-29 18:12:02,78.0,,-0.47025482236123,-2.84633484626264,-0.428996401931241,,1.2425761136864617,,
,5435.0,990.0,4143.0,847.0,-258.0,1397.0,3705.0,2025-07-29 18:12:03,78.0,,-0.470092932394855,-2.84630301524175,-0.429044654408709,,1.0641313281370617,,
,5441.0,988.0,4147.0,849.0,-263.0,1394.0,3704.0,2025-07-29 18:12:04,78.0,,-0.469823694217661,-2.84637796482371,-0.428611103766619,,0.8696260214457618,,
,5442.0,989.0,4151.0,848.0,-248.0,1383.0,3702.0,2025-07-29 18:12:05,78.0,,-0.469357021070863,-2.84610288277413,-0.428712656616554,,0.6661321317520971,,
,5446.0,992.0,4153.0,846.0,-251.0,1373.0,3697.0,2025-07-29 18:12:06,78.0,,-0.469297827846489,-2.84609104065198,-0.428944162870282,,0.46074646712713563,,
,5449.0,992.0,4156.0,851.0,-251.0,1396.0,3702.0,2025-07-29 18:12:07,78.0,,-0.469454791296756,-2.84593906970226,-0.429173835199001,,0.2601241104414632,,
,5449.0,993.0,4162.0,851.0,-240.0,1384.0,3693.0,2025-07-29 18:12:08,77.0,,-0.46954752959615,-2.84613751770005,-0.428216480947753,,0.0700652431060107,,
,5450.0,992.0,4164.0,853.0,-238.0,1378.0,3684.0,2025-07-29 18:12:09,77.0,,-0.469545989593776,-2.84606787707168,-0.42893119357972,,-0.10480424383644793,,
,5451.0,993.0,4166.0,850.0,-236.0,1402.0,3731.0,2025-07-29 18:12:10,77.0,,-0.469132670730853,-2.84608671997141,-0.428139201180008,,-0.2612312799366558,,
,5455.0,993.0,4170.0,853.0,-248.0,1400.0,3707.0,2025-07-29 18:12:11,77.0,,-0.469245496853245,-2.84616601297779,-0.428606906129782,,-0.39740170121809015,,
,5461.0,994.0,4171.0,852.0,-251.0,1404.0,3685.0,2025-07-29 18:12:12,77.0,,-0.469215386519065,-2.84595878746818,-0.428189821354863,,-0.5128775666732901,,
,5461.0,998.0,4177.0,853.0,-248.0,1406.0,3680.0,2025-07-29 18:12:13,77.0,,-0.46911920713331,-2.84601416669946,-0.427809252602377,,-0.6084227460136381,,
,5463.0,996.0,4178.0,855.0,-236.0,1412.0,3680.0,2025-07-29 18:12:14,76.0,,-0.469209858938818,-2.8460684774065,-0.428599947518742,,-0.6857441945173821,,
,5465.0,996.0,4183.0,853.0,-251.0,1416.0,3689.0,2025-07-29 18:12:15,76.0,,-0.469161203622045,-2.84603571594204,-0.42801061891946,,-0.7471830474225226,,
,5468.0,998.0,4184.0,855.0,-272.0,1409.0,3716.0,2025-07-29 18:12:16,76.0,,-0.46904727478385,-2.84598929057012,-0.427266459481808,,-0.7953924685170414,,
,5470.0,999.0,4186.0,856.0,-245.0,1393.0,3716.0,2025-07-29 18:12:17,76.0,,-0.468928078206789,-2.84597925095471,-0.428066567766146,,-0.8330381352095011,,
,5472.0,999.0,4192.0,859.0,-241.0,1392.0,3705.0,2025-07-29 18:12:18,75.0,,-0.46875122043995,-2.8460184903251,-0.427284126796978,,-0.8625524801269407,,
,5475.0,1000.0,4194.0,856.0,-247.0,1385.0,3718.0,2025-07-29 18:12:19,75.0,,-0.468754981382918,-2.84580475897267,-0.427648522302047,,-0.8859654948188015,,
,5478.0,1000.0,4197.0,856.0,-262.0,1384.0,3709.0,2025-07-29 18:12:20,75.0,,-0.468634743187103,-2.84587214091479,-0.427068068505488,,-0.9048234788910386,,
,5479.0,1002.0,4202.0,858.0,-258.0,1374.0,3688.0,2025-07-29 18:12:21,76.0,,-0.468880069041876,-2.84593353471614,-0.427777752282851,,-0.9201937170277312,,
,5484.0,1002.0,4205.0,858.0,-246.0,1377.0,3684.0,2025-07-29 18:12:22,76.0,,-0.468833941953614,-2.84599346681059,-0.427371544927568,,-0.9327396855596253,,
,5482.0,1003.0,4207.0,860.0,-265.0,1395.0,3675.0,2025-07-29 18:12:23,76.0,,-0.468810351261513,-2.84580445975143,-0.427517175438845,,-0.9428406604667198,,
,5485.0,1003.0,4208.0,859.0,-254.0,1400.0,3683.0,2025-07-29 18:12:24,77.0,,-0.468592641828567,-2.84578597093952,-0.427678241400962,,-0.9507240142913503,,
,5489.0,1007.0,4212.0,863.0,-259.0,1415.0,3679.0,2025-07-29 18:12:25,77.0,,-0.468494417874498,-2.84595015968892,-0.42734766823086,,-0.9565793313387103,,
,5491.0,1006.0,4215.0,865.0,-262.0,1390.0,3679.0,2025-07-29 18:12:26,77.0,,-0.468516228665178,-2.84589549222293,-0.427381013819174,,-0.9606301467854856,,
,5493.0,1007.0,4218.0,861.0,-267.0,1388.0,3683.0,2025-07-29 18:12:27,77.0,,-0.468411563098023,-2.84599936295386,-0.427480970162019,,-0.9631495162124085,,
,5497.0,1005.0,4221.0,861.0,-255.0,1400.0,3682.0,2025-07-29 18:12:28,76.0,,-0.468294565048151,-2.84588573751884,-0.427288144548853,,-0.964417209626344,,
,5499.0,1010.0,4224.0,865.0,-252.0,1415.0,3688.0,2025-07-29 18:12:29,76.0,,-0.468318304498689,-2.84594089555489,-0.427730515054427,,-0.9646270699636772,,
,5501.0,1009.0,4228.0,864.0,-246.0,1392.0,3714.0,2025-07-29 18:12:30,76.0,,-0.468175208491971,-2.8458294231078,-0.427307893663432,,-0.9637617160229021,,
,5500.0,1010.0,4230.0,864.0,-247.0,1392.0,3703.0,2025-07-29 18:12:31,76.0,,-0.468408172426484,-2.84586952279727,-0.42715017050849,,-0.9614575923318771,,
,5506.0,1010.0,4234.0,866.0,-231.0,1370.0,3693.0,2025-07-29 18:12:32,76.0,,-0.468369363335015,-2.84581095006393,-0.427439737860866,,-0.9568860019153015,,
,5510.0,1011.0,4237.0,864.0,-230.0,1381.0,3695.0,2025-07-29 18:12:33,76.0,,-0.468270118951282,-2.84589507869334,-0.426687950900511,,-0.9486750822685105,,
,5510.0,1011.0,4238.0,864.0,-250.0,1394.0,3694.0,2025-07-29 18:12:34,76.0,,-0.46864162521363,-2.84574761853941,-0.426698163348516,,-0.9348937443311022,,
,5512.0,1013.0,4244.0,866.0,-240.0,1402.0,3697.0,2025-07-29 18:12:35,76.0,,-0.468850433534187,-2.84571521004136,-0.426883186387859,,-0.9131115362409332,,
,5516.0,1013.0,4248.0,867.0,-244.0,1391.0,3685.0,2025-07-29 18:12:36,76.0,,-0.468679388350786,-2.84563867101137,-0.427576158626461,,-0.880538583066088,,
,5519.0,1013.0,4246.0,868.0,-252.0,1403.0,3681.0,,,,-0.46849654168937,-2.84572964752702,-0.426976103660858,,-0.8342380433115686,,
,5517.0,1016.0,4250.0,867.0,-251.0,1404.0,3676.0,,,,-0.468160783484148,-2.84573446873705,-0.426949603344746,,-0.7713914999955571,,
,5517.0,1013.0,4249.0,868.0,-243.0,1400.0,3690.0,,,,-0.467947932516457,-2.84566527545884,-0.426439476979894,,-0.6895876944876491,,
,5519.0,1012.0,4245.0,867.0,-233.0,1403.0,3697.0,,,,-0.467947737953567,-2.84562443979372,-0.426665155533593,,-0.587099565568684,,
,5514.0,1009.0,4238.0,861.0,-249.0,1405.0,3697.0,,,,-0.46798972077707,-2.84532961324241,-0.426852859259058,,-0.4631153678711276,,
,5506.0,1006.0,4227.0,861.0,-259.0,1408.0,3703.0,,,,-0.467682914766743,-2.84558248151699,-0.4268059005937,,-0.3178965506687723,,
,5500.0,1003.0,4216.0,859.0,-256.0,1404.0,3721.0,,,,-0.467637705286249,-2.84529285738006,-0.426186710660223,,-0.1528460742400982,,
,5490.0,1002.0,4204.0,856.0,-260.0,1389.0,3737.0,,,,-0.467502596805218,-2.84543079835663,-0.426829804440917,,0.029516844591302275,,
,5481.0,1000.0,4190.0,853.0,-254.0,1365.0,3734.0,,,,-0.46787719209504,-2.84549659796486,-0.426653602829802,,0.2256682829539485,,
,5468.0,993.0,4174.0,848.0,-242.0,1378.0,3720.0,,,,-0.468577820169756,-2.84556965457303,-0.427223403592504,,0.4312613632261175,,
,5461.0,992.0,4163.0,847.0,-239.0,1385.0,3684.0,,,,-0.468645347230311,-2.84584204769997,-0.428392690066797,,0.6413563902424496,,
,5450.0,986.0,4155.0,844.0,-239.0,1402.0,3677.0,,,,-0.469329804628947,-2.84592736881154,-0.427974175168406,,0.8506750324993546,,
,5441.0,984.0,4144.0,841.0,-238.0,1410.0,3693.0,,,,-0.469877933979809,-2.84626552984188,-0.428152950504735,,1.0538545624934543,,
,5432.0,981.0,4133.0,838.0,-239.0,1394.0,3702.0,,,,-0.470090583941612,-2.84639786126179,-0.428841780707906,,1.245680886164701,,
,5424.0,980.0,4128.0,840.0,-229.0,1417.0,3679.0,,,,-0.470496690259129,-2.84648723823428,-0.429302974617692,,1.4212837046156679,,
,5417.0,978.0,4124.0,836.0,-256.0,1389.0,3697.0,,,,-0.470612547305921,-2.84685935734542,-0.43109338869689,,1.5762834305436968,,
,5412.0,981.0,4116.0,839.0,-248.0,1387.0,3696.0,,,,-0.471039818866017,-2.84702518775145,-0.430511985664627,,1.7068872123405794,,
,5406.0,976.0,4114.0,835.0,-232.0,1371.0,3702.0,,,,-0.471164735225357,-2.84695756310936,-0.431606544882959,,1.8099398780036113,,
,5402.0,977.0,4109.0,834.0,-247.0,1403.0,3704.0,,,,-0.471597522546935,-2.84708319251704,-0.431083367836171,,1.8829431563538972,,
,5401.0,976.0,4107.0,835.0,-255.0,1393.0,3720.0,,,,-0.471941095555466,-2.84706665177089,-0.431217978317136,,1.9240608806081159,,
,5397.0,976.0,4106.0,832.0,-256.0,1395.0,3684.0,,,,-0.471785902943847,-2.84710913415528,-0.431793774145941,,1.9321272484390004,,
,5396.0,975.0,4108.0,834.0,-252.0,1391.0,3686.0,,,,-0.472153494922167,-2.8473316434573,-0.430350823513908,,1.9066696008155393,,
,5394.0,972.0,4106.0,831.0,-235.0,1390.0,3691.0,,,,-0.47186838075163,-2.84719486057268,-0.431250464247742,,1.8479485717895907,,
,5393.0,972.0,4103.0,832.0,-244.0,1384.0,3689.0,,,,-0.4720095240166,-2.84725663043121,-0.430961933747011,,1.7570096885161066,,
,5392.0,975.0,4105.0,834.0,-262.0,1394.0,3683.0,,,,-0.471958350548466,-2.84726304858796,-0.431533962390516,,1.6357338337506915,,
,5391.0,976.0,4105.0,834.0,-262.0,1395.0,3687.0,,,,-0.471935471029478,-2.84728806498668,-0.431481295835637,,1.4868704708718081,,
,5390.0,973.0,4102.0,834.0,-256.0,1394.0,3684.0,,,,-0.472036286417416,-2.84719127440688,-0.431464844321515,,1.3140371796135975,,
,5387.0,973.0,4103.0,832.0,-252.0,1381.0,3673.0,,,,-0.471842790948182,-2.84735187877258,-0.431520029362079,,1.1216712995117228,,
,5389.0,974.0,4104.0,836.0,-260.0,1356.0,3699.0,,,,-0.471854071983869,-2.84707736500935,-0.431312975242124,,0.9149236009345291,,
,5389.0,974.0,4106.0,836.0,-258.0,1356.0,3703.0,,,,-0.471782803988484,-2.84708268959899,-0.431490695226864,,0.6994892964630645,,
,5390.0,975.0,4109.0,838.0,-257.0,1343.0,3712.0,,,,-0.47155960922051,-2.84718447699139,-0.431564985592473,,0.4813780957794543,,
,5390.0,975.0,4109.0,833.0,-252.0,1365.0,3707.0,,,,-0.471497671684519,-2.8471119528189,-0.431248449132639,,0.2666324040195689,,
,5392.0,977.0,4111.0,835.0,-238.0,1403.0,3695.0,,,,-0.471457176520314,-2.84706917119417,-0.43123094311523,,0.06101099641331423,,
,5392.0,979.0,4112.0,835.0,-244.0,1400.0,3695.0,,,,-0.471673540945176,-2.84695848138063,-0.431175497673212,,-0.13033640248870138,,
,5395.0,978.0,4114.0,837.0,-244.0,1407.0,3682.0,,,,-0.471520360346212,-2.84720209369902,-0.431115338849754,,-0.3031722185402975,,
,5396.0,977.0,4116.0,836.0,-234.0,1375.0,3686.0,,,,-0.471555971831761,-2.84710249525804,-0.431298743563387,,-0.45441880264715656,,
,5395.0,974.0,4115.0,837.0,-241.0,1398.0,3690.0,,,,-0.471504729756683,-2.84710591695376,-0.430692506856711,,-0.5823220270510088,,
,5396.0,979.0,4120.0,839.0,-249.0,1381.0,3705.0,,,,-0.471336088895684,-2.84713839188931,-0.430970733350082,,-0.6865111842078316,,
,5399.0,977.0,4119.0,837.0,-242.0,1379.0,3703.0,,,,-0.471561746072894,-2.8471485004864,-0.430852338545516,,-0.7679479686623669,,
,5395.0,977.0,4119.0,838.0,-246.0,1372.0,3695.0,,,,-0.47159257057662,-2.84699436492958,-0.431007086542024,,-0.8287698968195266,,
,5396.0,976.0,4117.0,836.0,-251.0,1376.0,3684.0,,,,-0.471453973223149,-2.84705032382895,-0.430908450828783,,-0.8720443358404305,,
,5394.0,975.0,4118.0,835.0,-246.0,1372.0,3696.0,,,,-0.471335652353464,-2.84674167667874,-0.430335579332261,,-0.9014573482806963,,
,5394.0,978.0,4117.0,837.0,-242.0,1373.0,3684.0,,,,-0.47114557634354,-2.84706861166563,-0.43061558089766,,-0.9209665323194596,,
,5396.0,975.0,4120.0,838.0,-252.0,1384.0,3688.0,,,,-0.471077313291238,-2.84686448795621,-0.430927773275112,,-0.9344490432691158,,
,5392.0,974.0,4117.0,836.0,-255.0,1393.0,3701.0,,,,-0.471646931497694,-2.8471325612049,-0.430989168746312,,-0.9453752817512434,,
,5394.0,975.0,4114.0,837.0,-250.0,1379.0,3706.0,,,,-0.471818426615864,-2.84697689122126,-0.431226007435231,,-0.9565356012977905,,
,5391.0,976.0,4115.0,836.0,-245.0,1383.0,3698.0,,,,-0.471593187549352,-2.84714176061997,-0.43062342045738,,-0.9698419597229564,,
,5393.0,976.0,4113.0,836.0,-257.0,1396.0,3690.0,,,,-0.471165168861827,-2.84697993673467,-0.430651339998821,,-0.9862187495481124,,
,5390.0,975.0,4112.0,836.0,-261.0,1413.0,3685.0,,,,-0.470901792230893,-2.84695905997511,-0.430890523503457,,-1.0055873561927267,,
,5388.0,974.0,4113.0,834.0,-250.0,1414.0,3679.0,,,,-0.471413673712721,-2.84709607795984,-0.430648743904203,,-1.0269382298572811,,
,5388.0,975.0,4114.0,836.0,-257.0,1403.0,3694.0,,,,-0.471402975519908,-2.84697287927827,-0.431629756708845,,-1.0484741726814726,,
,5389.0,974.0,4112.0,836.0,-243.0,1429.0,3700.0,,,,-0.471414022788358,-2.84716454183284,-0.430886372763972,,-1.0678013475351094,,
,5389.0,975.0,4114.0,834.0,-246.0,1412.0,3698.0,,,,-0.471462710958233,-2.8472033824693,-0.430786435350456,,-1.0821419498235345,,
,5386.0,975.0,4110.0,832.0,-244.0,1400.0,3694.0,,,,-0.471320313339587,-2.84723580986669,-0.431126094148531,,-1.088544881843199,,
,5385.0,974.0,4112.0,835.0,-257.0,1393.0,3685.0,,,,-0.471442265706707,-2.84717674170162,-0.431084184154712,,-1.0840768655820445,,
,5388.0,976.0,4113.0,836.0,-260.0,1389.0,3683.0,,,,-0.471428522305602,-2.8471908265927,-0.430837348377258,,-1.0659840910440297,,
,5389.0,977.0,4114.0,837.0,-259.0,1393.0,3666.0,,,,-0.471139137566071,-2.8472980384271,-0.43105435821802,,-1.0318217402767789,,
,5390.0,976.0,4116.0,836.0,-243.0,1392.0,3679.0,,,,-0.471303681347039,-2.84710380785948,-0.430671061264283,,-0.9795543339425107,,
,5391.0,975.0,4114.0,834.0,-253.0,1396.0,3662.0,,,,-0.471512032040608,-2.84715139992226,-0.430500795569761,,-0.907633400764845,,
,5389.0,978.0,4119.0,838.0,-240.0,1398.0,3674.0,,,,-0.471033908769797,-2.84723387183843,-0.430780346540096,,-0.8150605758162102,,
,5393.0,977.0,4119.0,838.0,-244.0,1409.0,3682.0,,,,-0.471393278041459,-2.84719240891262,-0.430901675217201,,-0.7014442172273848,,
,5392.0,977.0,4123.0,836.0,-273.0,1408.0,3701.0,,,,-0.470928090305863,-2.84716315511873,-0.431340081818472,,-0.5670562847474856,,
,5394.0,977.0,4123.0,838.0,-244.0,1392.0,3728.0,,,,-0.471146514381435,-2.84698492354688,-0.431626704136211,,-0.41289359514283874,,
,5399.0,978.0,4126.0,836.0,-245.0,1372.0,3723.0,,,,-0.470871502778277,-2.84701471489221,-0.430798019552054,,-0.24074344490928756,,
,5398.0,978.0,4130.0,840.0,-261.0,1397.0,3704.0,,,,-0.471067584782454,-2.84690478384899,-0.431146624338043,,-0.05324784258933185,,
,5400.0,980.0,4133.0,842.0,-262.0,1403.0,3695.0,,,,-0.471108605179741,-2.84697546707606,-0.430825987804097,,0.14604621778059043,,
,5402.0,979.0,4135.0,840.0,-269.0,1391.0,3683.0,,,,-0.471019266025587,-2.84684511858013,-0.430900218935413,,0.3526692325037492,,
,5404.0,980.0,4136.0,839.0,-257.0,1380.0,3712.0,,,,-0.470983508942003,-2.84674886490375,-0.429953894044025,,0.5612664258326248,,
,5408.0,979.0,4140.0,841.0,-234.0,1387.0,3725.0,,,,-0.471117507104418,-2.84690846354238,-0.430416805431894,,0.7657099560177876,,
,5408.0,980.0,4146.0,841.0,-234.0,1378.0,3717.0,,,,-0.471033076391348,-2.84692132408697,-0.430306895589984,,0.959299030922512,,
,5410.0,983.0,4144.0,841.0,-246.0,1377.0,3715.0,,,,-0.470825650262339,-2.84679351529802,-0.429897614661388,,1.1350495581569304,,
,5413.0,983.0,4148.0,843.0,-247.0,1397.0,3682.0,,,,-0.470785099164907,-2.84678505545341,-0.430340778533903,,1.286061957306002,,
,5418.0,984.0,4154.0,845.0,-245.0,1409.0,3675.0,,,,-0.470828657628739,-2.84675867470343,-0.430129672161888,,1.4059433176567386,,
,5420.0,986.0,4157.0,845.0,-243.0,1401.0,3673.0,,,,-0.470648241264196,-2.84693474805279,-0.430094306248415,,1.4892498056246348,,
,5420.0,985.0,4156.0,843.0,-238.0,1398.0,3676.0,,,,-0.470711033337105,-2.84680858037199,-0.430170803396613,,1.531908212202253,,
,5420.0,984.0,4159.0,844.0,-245.0,1409.0,3699.0,,,,-0.470394475335208,-2.84649160173245,-0.429311702986635,,1.5315726194865062,,
2025-07-29 18:09:13,5424.0,988.0,4165.0,847.0,-249.0,1399.0,3696.0,,,2025/07/29 06:09:13 PM,-0.470498952197754,-2.84661620875168,-0.429596231469789,,1.4878740176751344,,
,5429.0,989.0,4168.0,848.0,-252.0,1394.0,3688.0,,,,-0.470231521645311,-2.84653908400548,-0.430166643854787,,1.4025277564997494,,
,5429.0,988.0,4170.0,845.0,-260.0,1387.0,3681.0,,,,-0.470092109738035,-2.84654464410228,-0.429617354377485,,1.279276049022229,,
,5430.0,989.0,4173.0,846.0,-255.0,1391.0,3708.0,,,,-0.470385878366892,-2.84638672052701,-0.429172141003099,,1.123659795719343,,
,5433.0,991.0,4176.0,849.0,-257.0,1376.0,3719.0,,,,-0.470362663119315,-2.84657894453259,-0.42991356755491,,0.9426341494480434,,
,5437.0,991.0,4181.0,851.0,-262.0,1381.0,3733.0,,,,-0.47020363849396,-2.846394994921,-0.429387755826124,,0.7440626077866378,,
,5440.0,990.0,4180.0,850.0,-258.0,1395.0,3714.0,,,,-0.470221528556618,-2.84655427255855,-0.429652352145385,,0.5361411561356623,,
,5442.0,993.0,4186.0,850.0,-248.0,1388.0,3671.0,,,,-0.470045768443211,-2.84630217109282,-0.428905658446387,,0.32681340911880197,,
,5443.0,991.0,4188.0,850.0,-245.0,1381.0,3683.0,,,,-0.470284829586104,-2.84638674036607,-0.429248497778289,,0.12323779546325538,,
,5448.0,999.0,4193.0,853.0,-232.0,1392.0,3707.0,,,,-0.470079231559504,-2.84629402686618,-0.429185292531913,,-0.06864089792936481,,
,5450.0,994.0,4194.0,851.0,-250.0,1383.0,3709.0,,,,-0.470083298884865,-2.84620112472126,-0.428721111742055,,-0.2443783771680614,,
,5450.0,993.0,4198.0,852.0,-264.0,1399.0,3691.0,,,,-0.470366294155456,-2.84625179240006,-0.429083482976334,,-0.4011571188826616,,
,5454.0,995.0,4201.0,852.0,-253.0,1387.0,3679.0,,,,-0.470007478141669,-2.84624005193731,-0.428986765764186,,-0.5377518234781107,,
,5455.0,993.0,4202.0,854.0,-249.0,1397.0,3677.0,,,,-0.469988044249269,-2.84613652082093,-0.42923273316689,,-0.6543508217635166,,
,5461.0,998.0,4205.0,855.0,-246.0,1381.0,3700.0,,,,-0.469954063137375,-2.84627973597904,-0.428708707130777,,-0.7522639724851536,,
,5463.0,999.0,4212.0,857.0,-245.0,1378.0,3696.0,,,,-0.469930938741285,-2.84609082074185,-0.428436461600087,,-0.8335570488507129,,
,5463.0,998.0,4211.0,855.0,-236.0,1400.0,3672.0,,,,-0.469598968495491,-2.84614110895153,-0.428731276523194,,-0.9006572952974887,,
,5465.0,997.0,4212.0,855.0,-232.0,1401.0,3678.0,,,,-0.469390935939027,-2.84620298844787,-0.429063768928618,,-0.9559746471715076,,
,5468.0,1002.0,4218.0,855.0,-226.0,1363.0,3672.0,,,,-0.469466644204282,-2.84611188496654,-0.428660520790886,,-1.0015781354280329,,
,5469.0,1001.0,4221.0,857.0,-230.0,1374.0,3672.0,,,,-0.469403006833976,-2.84609963356536,-0.428495079098932,,-1.0389575875813988,,
,5473.0,999.0,4225.0,856.0,-263.0,1412.0,3691.0,,,,-0.469787480543813,-2.84608013134506,-0.428280514898395,,-1.068887798755101,,
,5475.0,1000.0,4226.0,856.0,-252.0,1398.0,3707.0,,,,-0.469582825611474,-2.8460489346306,-0.428338746544712,,-1.0913976377644563,,
,5478.0,1003.0,4228.0,859.0,-263.0,1385.0,3716.0,,,,-0.469563654903087,-2.84601284485095,-0.428414343580504,,-1.1058325925808778,,
,5482.0,1003.0,4232.0,860.0,-270.0,1356.0,3719.0,,,,-0.469506563559908,-2.84603483921555,-0.428638469468728,,-1.110988728387823,,
,5483.0,1004.0,4232.0,861.0,-265.0,1355.0,3710.0,,,,-0.469469359534306,-2.84602670798445,-0.428087826189135,,-1.1052907523292723,,
,5484.0,1004.0,4235.0,859.0,-248.0,1382.0,3686.0,,,,-0.469248148074533,-2.84596593556584,-0.428469225406553,,-1.0869870117919866,,
,5486.0,1003.0,4233.0,859.0,-247.0,1383.0,3690.0,,,,-0.469004112675868,-2.84605864644556,-0.427328630721563,,-1.0543384111840821,,
,5483.0,1003.0,4227.0,857.0,-255.0,1405.0,3687.0,,,,-0.469172080120764,-2.84587962969258,-0.427958291159587,,-1.0057844476391657,,
,5475.0,997.0,4216.0,855.0,-257.0,1413.0,3673.0,,,,-0.469186278496093,-2.84589980431052,-0.427059876960407,,-0.940076261557247,,
,5468.0,996.0,4207.0,852.0,-259.0,1402.0,3670.0,,,,-0.469270422663347,-2.84577333647688,-0.427810719844652,,-0.8563729035634559,,
,5459.0,989.0,4193.0,847.0,-244.0,1396.0,3674.0,,,,-0.469350533799859,-2.84583067710855,-0.427626114314314,,-0.7543025288792722,,
,5451.0,990.0,4182.0,848.0,-257.0,1371.0,3703.0,,,,-0.469013908267082,-2.84570343625286,-0.4276769514185,,-0.6339946779765174,,
,5439.0,985.0,4166.0,844.0,-258.0,1396.0,3691.0,,,,-0.469072579485691,-2.84583253468149,-0.427084334521422,,-0.49609292882069406,,
,5428.0,982.0,4154.0,843.0,-264.0,1385.0,3686.0,,,,-0.469349072993839,-2.84577396593644,-0.427360363873455,,-0.3417587100284312,,
,5416.0,977.0,4141.0,836.0,-268.0,1373.0,3719.0,,,,-0.469666362519431,-2.84590843208682,-0.428105779014659,,-0.17267651451793462,,
,5406.0,974.0,4130.0,835.0,-244.0,1372.0,3709.0,,,,-0.46949117622097,-2.84599268901471,-0.42889958866287,,0.008932377369555395,,
,5396.0,971.0,4121.0,834.0,-242.0,1367.0,3692.0,,,,-0.470268038327977,-2.8462499102738,-0.429281929804904,,0.20028646578092696,,
,5386.0,969.0,4110.0,830.0,-237.0,1382.0,3693.0,,,,-0.470487139146995,-2.84668461786938,-0.430097318925006,,0.3980175819395093,,
,5377.0,967.0,4102.0,829.0,-244.0,1391.0,3683.0,,,,-0.47098806349204,-2.84684786710701,-0.430511677641899,,0.5981558975176172,,
,5371.0,966.0,4096.0,828.0,-250.0,1375.0,3687.0,,,,-0.471532277065168,-2.84695951546279,-0.430818359800388,,0.796145800924684,,
,5366.0,963.0,4093.0,827.0,-232.0,1370.0,3699.0,,,,-0.471566373284451,-2.84721747599052,-0.430950168001602,,0.9869120988899103,,
,5362.0,965.0,4089.0,828.0,-246.0,1384.0,3719.0,,,,-0.471884009852952,-2.84745827957115,-0.431893528834718,,1.1649909048933518,,
,5360.0,963.0,4087.0,826.0,-245.0,1386.0,3702.0,,,,-0.471721445222871,-2.84729566771559,-0.43214903548966,,1.324730703877658,,
,5354.0,963.0,4083.0,822.0,-238.0,1377.0,3679.0,,,,-0.471993092387721,-2.84739742139811,-0.431974854122255,,1.4605584732825012,,
,5354.0,962.0,4079.0,825.0,-246.0,1401.0,3692.0,,,,-0.472436796968407,-2.84758723005626,-0.431867400609169,,1.5672952035192511,,
,5352.0,962.0,4081.0,827.0,-256.0,1381.0,3695.0,,,,-0.472463305141054,-2.84754930215748,-0.432578711439126,,1.6404959884994905,,
,5349.0,960.0,4078.0,826.0,-268.0,1373.0,3696.0,,,,-0.472543267307354,-2.84760759633868,-0.432590540958552,,1.676783030159342,,
,5347.0,959.0,4076.0,824.0,-257.0,1371.0,3688.0,,,,-0.472591134061443,-2.84766353148448,-0.432345571502795,,1.67413631799643,,
,5347.0,961.0,4078.0,825.0,-251.0,1376.0,3720.0,,,,-0.472711709512702,-2.84755010792568,-0.432603467382878,,1.6321071857920966,,
,5346.0,962.0,4080.0,826.0,-245.0,1391.0,3704.0,,,,-0.472708185661952,-2.84758785797889,-0.432298700385147,,1.551924936857491,,
,5345.0,961.0,4080.0,825.0,-258.0,1403.0,3680.0,,,,-0.473015952279262,-2.84769628386323,-0.432690910376289,,1.4364764193496458,,
,5343.0,962.0,4077.0,824.0,-257.0,1381.0,3679.0,,,,-0.472562024748465,-2.84765350689611,-0.432508040605597,,1.290152350370181,,
,5346.0,959.0,4078.0,825.0,-238.0,1368.0,3690.0,,,,-0.472422118821155,-2.84761904425613,-0.432453549632507,,1.1185707887089458,,
,5345.0,959.0,4077.0,828.0,-249.0,1367.0,3696.0,,,,-0.472868972011397,-2.84763234189506,-0.4322572635389,,0.9282045935432294,,
,5345.0,961.0,4081.0,828.0,-256.0,1371.0,3709.0,,,,-0.472723528596159,-2.84773305583456,-0.432341990843241,,0.7259523472011975,,
,5347.0,961.0,4083.0,828.0,-260.0,1375.0,3721.0,,,,-0.47259053425121,-2.84784696022864,-0.43256507337853,,0.5186980463892453,,
,5348.0,960.0,4084.0,825.0,-267.0,1370.0,3697.0,,,,-0.472691336609969,-2.84768283065371,-0.432099156075562,,0.3129029723834378,,
,5348.0,961.0,4084.0,827.0,-244.0,1376.0,3702.0,,,,-0.472717841301829,-2.8476810315495,-0.43259581832492,,0.1142650642591068,,
,5348.0,961.0,4089.0,826.0,-253.0,1389.0,3687.0,,,,-0.472751332488549,-2.84759530559761,-0.43286693676067,,-0.07253035710614972,,
,5350.0,962.0,4087.0,829.0,-247.0,1385.0,3678.0,,,,-0.47267899535966,-2.84773221362355,-0.432690030041331,,-0.24395695966246497,,
,5352.0,962.0,4089.0,827.0,-234.0,1395.0,3680.0,,,,-0.472706502269286,-2.84777288281718,-0.432265061632608,,-0.3976907870162664,,
,5354.0,963.0,4089.0,830.0,-264.0,1405.0,3690.0,,,,-0.472505003129522,-2.84759591359355,-0.432833238260572,,-0.532560406910405,,
,5353.0,962.0,4089.0,830.0,-245.0,1405.0,3688.0,,,,-0.472777611525887,-2.84766477101117,-0.431980710870156,,-0.6484212791408605,,
,5353.0,962.0,4090.0,831.0,-243.0,1400.0,3687.0,,,,-0.472030570917767,-2.84755989286962,-0.431678330681724,,-0.7459770291930914,,
,5352.0,960.0,4093.0,828.0,-247.0,1381.0,3696.0,,,,-0.47227277390877,-2.84775206438892,-0.431878222002668,,-0.8265726696312496,,
,5352.0,963.0,4088.0,828.0,-252.0,1379.0,3704.0,,,,-0.472457295113167,-2.84744960896999,-0.432052701085177,,-0.8919839210743662,,
,5351.0,962.0,4092.0,829.0,-249.0,1384.0,3699.0,,,,-0.472122039508484,-2.84750532932442,-0.431725837431632,,-0.9442225109215597,,
,5350.0,964.0,4091.0,829.0,-254.0,1367.0,3697.0,,,,-0.472066058714882,-2.84744774942181,-0.432007231864268,,-0.9853701502322296,,
,5351.0,963.0,4089.0,829.0,-254.0,1372.0,3703.0,,,,-0.472057288246169,-2.84760407960188,-0.431926100542812,,-1.0174452059408619,,
,5348.0,961.0,4088.0,828.0,-255.0,1372.0,3684.0,,,,-0.471942928482763,-2.84752371905166,-0.431586097563866,,-1.0422981075287572,,
,5347.0,962.0,4085.0,828.0,-238.0,1387.0,3677.0,,,,-0.472127428524114,-2.84762441993497,-0.431989669598247,,-1.0615265499389628,,
,5347.0,962.0,4086.0,830.0,-246.0,1388.0,3688.0,,,,-0.472257582707059,-2.84767113649278,-0.432523959286426,,-1.0764008681734376,,
,5348.0,959.0,4088.0,827.0,-240.0,1378.0,3670.0,,,,-0.472280110079049,-2.84757223461185,-0.432022448653171,,-1.0877931828285636,,
,5347.0,960.0,4084.0,827.0,-255.0,1393.0,3683.0,,,,-0.472381545755275,-2.8475618793865,-0.431902301696339,,-1.0961093520327425,,
,5347.0,960.0,4083.0,825.0,-240.0,1381.0,3689.0,,,,-0.472622606175498,-2.84754799748744,-0.431728762996709,,-1.1012284498721296,,
,5345.0,958.0,4084.0,828.0,-226.0,1366.0,3715.0,,,,-0.472650430684941,-2.84761504072854,-0.431862699719817,,-1.1024590230287274,,
,5344.0,960.0,4085.0,827.0,-234.0,1368.0,3706.0,,,,-0.472520899629917,-2.84748905670268,-0.432787358048883,,-1.0985240203967168,,
,5346.0,960.0,4085.0,828.0,-267.0,1382.0,3698.0,,,,-0.472580882572062,-2.84760136812748,-0.43252059274009,,-1.0875866896356483,,
,5345.0,960.0,4083.0,825.0,-255.0,1389.0,3689.0,,,,-0.472700399845188,-2.847812348582,-0.432757512279492,,-1.0673277750156256,,
,5344.0,960.0,4088.0,829.0,-270.0,1405.0,3710.0,,,,-0.472596741901368,-2.84768100540718,-0.432054642159683,,-1.0350801786048873,,
,5346.0,963.0,4087.0,828.0,-252.0,1382.0,3688.0,,,,-0.47267617742122,-2.84774044912672,-0.432669024090441,,-0.9880211941404374,,
,5346.0,961.0,4090.0,828.0,-249.0,1387.0,3691.0,,,,-0.472732510281032,-2.84764788637927,-0.432347096098437,,-0.9234149071702777,,
,5348.0,959.0,4092.0,826.0,-250.0,1410.0,3710.0,,,,-0.472714914882672,-2.84757575996728,-0.432073065938392,,-0.8388890085574323,,
,5351.0,961.0,4094.0,831.0,-251.0,1392.0,3711.0,,,,-0.472688553630315,-2.84760618518553,-0.432184350348084,,-0.7327222567004337,,
,5353.0,963.0,4098.0,830.0,-243.0,1379.0,3713.0,,,,-0.472438951516938,-2.84759805917743,-0.43270314554682,,-0.6041129729753513,,
,5353.0,962.0,4100.0,832.0,-245.0,1381.0,3725.0,,,,-0.472218566997643,-2.84751147477233,-0.432683472654246,,-0.4533972708715625,,
,5353.0,962.0,4098.0,830.0,-251.0,1382.0,3698.0,,,,-0.472666170526451,-2.84761448906606,-0.43232973258534,,-0.2821893362960825,,
,5354.0,964.0,4102.0,828.0,-246.0,1390.0,3694.0,,,,-0.47273914235644,-2.84759648637291,-0.431956232618617,,-0.09342443672191424,,
,5360.0,965.0,4105.0,832.0,-253.0,1398.0,3711.0,,,,-0.472439527725154,-2.8475976149597,-0.431751166960286,,0.10870357708793582,,
,5360.0,966.0,4110.0,835.0,-251.0,1392.0,3714.0,,,,-0.4726529515118,-2.84772354428388,-0.432262656115258,,0.31890708694611847,,
,5364.0,965.0,4112.0,833.0,-252.0,1396.0,3716.0,,,,-0.472568710630938,-2.84733098678976,-0.431879511930801,,0.5310586315688592,,
,5364.0,963.0,4112.0,832.0,-259.0,1387.0,3716.0,,,,-0.472256643741068,-2.84742229554077,-0.431918783022725,,0.7385129467092101,,
,5367.0,966.0,4118.0,834.0,-275.0,1353.0,3691.0,,,,-0.47236235797723,-2.84721441226328,-0.431643421544143,,0.9344708135304163,,
,5372.0,967.0,4120.0,836.0,-246.0,1366.0,3693.0,,,,-0.472654338511964,-2.84743173616325,-0.43186163616194,,1.1123555620233148,,
,5370.0,970.0,4124.0,836.0,-248.0,1381.0,3685.0,,,,-0.472488408729432,-2.84741532397587,-0.431693790521366,,1.2661726102862703,,
,5371.0,970.0,4124.0,835.0,-253.0,1394.0,3707.0,,,,-0.472602263153293,-2.84748936759961,-0.431508410590994,,1.3908242768085939,,
,5376.0,969.0,4128.0,837.0,-239.0,1414.0,3693.0,,,,-0.472389379393829,-2.84734864440369,-0.431390599108919,,1.4823564110750589,,
,5378.0,972.0,4130.0,838.0,-246.0,1400.0,3679.0,,,,-0.47201106737457,-2.8473184530278,-0.431245416129598,,1.5381203354364694,,
,5382.0,970.0,4137.0,836.0,-255.0,1399.0,3678.0,,,,-0.471851676344786,-2.84735912277915,-0.431589068785895,,1.5568429063997737,,
,5383.0,972.0,4137.0,840.0,-260.0,1383.0,3669.0,,,,-0.471840939705903,-2.8472825475808,-0.431628356713833,,1.5386079426687738,,
,5385.0,969.0,4140.0,840.0,-266.0,1393.0,3693.0,,,,-0.472084200007803,-2.84722342201046,-0.431892658310893,,1.484761661374366,,
,5389.0,973.0,4146.0,838.0,-246.0,1385.0,3706.0,,,,-0.47173742823974,-2.84710120367811,-0.430835282218512,,1.3977608934970356,,
,5392.0,974.0,4148.0,841.0,-250.0,1361.0,3713.0,,,,-0.471438514168104,-2.84713019884471,-0.431552435634957,,1.2809846857079057,,
,5393.0,975.0,4150.0,840.0,-248.0,1374.0,3696.0,,,,-0.471608701476906,-2.84714860071333,-0.430576617182826,,1.1385281219022627,,
,5395.0,974.0,4151.0,841.0,-245.0,1383.0,3688.0,,,,-0.471563284084464,-2.84684258031274,-0.430958879587583,,0.9749935037629207,,
,5398.0,976.0,4158.0,841.0,-239.0,1391.0,3714.0,,,,-0.47147736176729,-2.84706619133738,-0.431197249597174,,0.7952899491685134,,
,5404.0,976.0,4162.0,842.0,-246.0,1371.0,3695.0,,,,-0.471271171455927,-2.84710652876594,-0.430273651320797,,0.6044487794499471,,
,5404.0,979.0,4165.0,844.0,-243.0,1378.0,3688.0,,,,-0.471416932959323,-2.84700349688101,-0.431172921942997,,0.4074589593642042,,
,5405.0,980.0,4164.0,842.0,-258.0,1366.0,3707.0,,,,-0.471513020706589,-2.84703441729078,-0.430633697077063,,0.2091243396610067,,
,5410.0,980.0,4169.0,843.0,-259.0,1359.0,3702.0,,,,-0.471215642736387,-2.847040653616,-0.430480405053469,,0.01394256569321743,,
,5413.0,978.0,4176.0,848.0,-241.0,1389.0,3693.0,,,,-0.471461753908211,-2.84689069961586,-0.430802387872338,,-0.1739956770595036,,
,5413.0,980.0,4177.0,848.0,-249.0,1397.0,3678.0,,,,-0.471097895236376,-2.84687708889926,-0.430752660511971,,-0.3510887482219204,,
,5419.0,984.0,4180.0,846.0,-246.0,1376.0,3685.0,,,,-0.471346260277221,-2.84676562397969,-0.430502519445323,,-0.5142883484336991,,
,5419.0,981.0,4180.0,847.0,-246.0,1399.0,3716.0,,,,-0.47096684199691,-2.84675598745565,-0.430144240509955,,-0.6611448877577323,,
,5421.0,982.0,4183.0,848.0,-246.0,1380.0,3703.0,,,,-0.470972586499602,-2.84661015252138,-0.430352809336782,,-0.7898300591211666,,
,5423.0,984.0,4188.0,850.0,-256.0,1367.0,3671.0,,,,-0.47100402312183,-2.8468679745439,-0.430118570065027,,-0.8991306063885379,,
,5425.0,983.0,4192.0,850.0,-260.0,1359.0,3659.0,,,,-0.470928797744866,-2.84658400745192,-0.430377574527054,,-0.9884072966955354,,
,5431.0,983.0,4191.0,849.0,-263.0,1390.0,3693.0,,,,-0.470830176552882,-2.84669120332377,-0.429852291139054,,-1.0575161738577423,,
,5429.0,986.0,4194.0,849.0,-259.0,1391.0,3688.0,,,,-0.470698411055031,-2.84671551204298,-0.429119621246162,,-1.1066947799337368,,
,5435.0,987.0,4202.0,851.0,-258.0,1393.0,3686.0,,,,-0.470467786991041,-2.84660863044504,-0.429561909471604,,-1.1364225324741681,,
,5438.0,989.0,4203.0,853.0,-253.0,1386.0,3680.0,,,,-0.470535639582694,-2.84671204064349,-0.429952364781146,,-1.1472699914367037,,
,5438.0,988.0,4206.0,851.0,-244.0,1375.0,3691.0,,,,-0.470627412924862,-2.84661708280575,-0.42990000538966,,-1.1397551179905467,,
,5442.0,990.0,4207.0,852.0,-234.0,1387.0,3689.0,,,,-0.470478344934747,-2.84644080196823,-0.4298240947353,,-1.114225374777991,,
,5443.0,992.0,4212.0,855.0,-235.0,1396.0,3720.0,,,,-0.470324355681205,-2.84670577955746,-0.429197759899059,,-1.0707827339277856,,
,5449.0,992.0,4215.0,855.0,-250.0,1365.0,3728.0,,,,-0.470257722238767,-2.84650458292682,-0.429297390319742,,-1.0092647473508367,,
,5450.0,992.0,4218.0,853.0,-250.0,1369.0,3709.0,,,,-0.470264951115704,-2.84646996197258,-0.428324346477901,,-0.9292893961212269,,
,5450.0,991.0,4221.0,853.0,-258.0,1387.0,3691.0,,,,-0.470234963994345,-2.84647148838074,-0.429371535238611,,-0.8303650938114331,,
,5452.0,992.0,4220.0,855.0,-253.0,1378.0,3684.0,,,,-0.470026080921894,-2.84655176319687,-0.429150150995932,,-0.7120603699238678,,
2025-07-29 18:09:14,5452.0,991.0,4220.0,852.0,-245.0,1375.0,3672.0,,,2025/07/29 06:09:14 PM,-0.469989685797381,-2.84641563798316,-0.428711640562305,,-0.574220534130336,,
,5448.0,989.0,4213.0,853.0,-252.0,1382.0,3670.0,,,,-0.469784676954953,-2.8464816267913,-0.428682895873246,,-0.41721119741632257,,
,5443.0,985.0,4200.0,849.0,-244.0,1399.0,3674.0,,,,-0.469809977666969,-2.84633391344093,-0.42844894072084,,-0.24216162784355066,,
,5434.0,982.0,4192.0,845.0,-243.0,1403.0,3686.0,,,,-0.469763544019939,-2.84625845855718,-0.429072389704609,,-0.051176065108509486,,
,5427.0,980.0,4177.0,842.0,-239.0,1407.0,3688.0,,,,-0.469529699951259,-2.84628899778952,-0.428376248144291,,0.15251981965579578,,
,5414.0,976.0,4163.0,840.0,-242.0,1403.0,3687.0,,,,-0.469249146123692,-2.84605517258204,-0.428221852827429,,0.36452595372844476,,
,5402.0,971.0,4148.0,835.0,-250.0,1400.0,3701.0,,,,-0.469383596076668,-2.84613816167022,-0.427998502145557,,0.5793279909627389,,
,5392.0,968.0,4130.0,833.0,-257.0,1376.0,3703.0,,,,-0.468890838651315,-2.84606580374305,-0.427955500204596,,0.7904778679344361,,
,5377.0,963.0,4124.0,829.0,-251.0,1361.0,3717.0,,,,-0.469195825163948,-2.84606471549335,-0.42831126753117,,0.9908886326266775,,
,5365.0,962.0,4109.0,827.0,-242.0,1384.0,3722.0,,,,-0.469193806779431,-2.84610700193855,-0.428048346765594,,1.1732244223633213,,
,5357.0,960.0,4099.0,825.0,-236.0,1400.0,3715.0,,,,-0.469686109261848,-2.84619042902491,-0.428637087684037,,1.3303552279643145,,
,5345.0,956.0,4090.0,824.0,-250.0,1419.0,3684.0,,,,-0.469887836318093,-2.84645586702569,-0.429855217840574,,1.4558374591029621,,
,5336.0,953.0,4083.0,821.0,-258.0,1419.0,3694.0,,,,-0.470271271754056,-2.84672863809291,-0.42963416151077,,1.5443760490398393,,
,5332.0,955.0,4079.0,821.0,-251.0,1398.0,3681.0,,,,-0.471173103569398,-2.84678851188434,-0.430139469231441,,1.5922225315868006,,
,5324.0,952.0,4069.0,818.0,-243.0,1404.0,3701.0,,,,-0.471219396140766,-2.84696005119525,-0.430755477780255,,1.5974668214381091,,
,5319.0,949.0,4063.0,818.0,-256.0,1376.0,3695.0,,,,-0.471595514498819,-2.84719340617233,-0.430779573576508,,1.5601889685494674,,
,5315.0,949.0,4061.0,817.0,-256.0,1365.0,3698.0,,,,-0.471952315857917,-2.84743091323329,-0.431634050183432,,1.482451158901517,,
,5311.0,949.0,4059.0,819.0,-259.0,1383.0,3723.0,,,,-0.472195704706109,-2.84762258473089,-0.431922737022374,,1.3681287342255322,,
,5311.0,949.0,4059.0,817.0,-258.0,1383.0,3706.0,,,,-0.472363190127167,-2.84743644554236,-0.431775886573475,,1.2225992880878818,,
,5304.0,950.0,4057.0,818.0,-252.0,1373.0,3692.0,,,,-0.472280881081606,-2.84772070166378,-0.432630897685216,,1.05232682922998,,
,5306.0,946.0,4054.0,814.0,-256.0,1393.0,3690.0,,,,-0.47267242692186,-2.84793879768555,-0.432483702597082,,0.8643895078920998,,
,5302.0,947.0,4055.0,816.0,-263.0,1380.0,3705.0,,,,-0.472737211985222,-2.84769768731978,-0.432978085354847,,0.6660022952711371,,
,5299.0,948.0,4053.0,816.0,-245.0,1388.0,3690.0,,,,-0.473000480105022,-2.8477633944283,-0.432132957777147,,0.46408081784619226,,
,5299.0,947.0,4051.0,818.0,-231.0,1387.0,3692.0,,,,-0.472817986340664,-2.84798774338514,-0.433114761078265,,0.26488176449180245,,
,5297.0,947.0,4050.0,815.0,-241.0,1371.0,3705.0,,,,-0.473000016468688,-2.84801985180124,-0.433178840989037,,0.07374185530403798,,
,5296.0,946.0,4050.0,815.0,-242.0,1357.0,3707.0,,,,-0.472959918545491,-2.84798161754366,-0.433692470309923,,-0.10507634790822813,,
,5295.0,946.0,4050.0,817.0,-237.0,1372.0,3685.0,,,,-0.472818754438446,-2.8482343294547,-0.433118574003956,,-0.26843589632102866,,
,5296.0,947.0,4051.0,815.0,-255.0,1390.0,3685.0,,,,-0.47259223842735,-2.84801932932823,-0.43333157432918,,-0.4142882994332342,,
,5294.0,947.0,4048.0,816.0,-254.0,1391.0,3710.0,,,,-0.472783997305956,-2.84786888600057,-0.433416534295908,,-0.5415689617731172,,
,5295.0,946.0,4051.0,817.0,-250.0,1387.0,3694.0,,,,-0.472698965923443,-2.84795469808358,-0.432502831112565,,-0.6500503593394923,,
,5298.0,947.0,4053.0,815.0,-241.0,1359.0,3705.0,,,,-0.472792565720787,-2.84787190414862,-0.433073288124147,,-0.7401788266115099,,
,5297.0,946.0,4052.0,818.0,-243.0,1379.0,3722.0,,,,-0.472863367336314,-2.84803323617922,-0.432453128843746,,-0.812918101378752,,
,5297.0,946.0,4055.0,819.0,-250.0,1377.0,3724.0,,,,-0.472800849077752,-2.84783739903847,-0.433433833443861,,-0.8696165510232798,,
,5295.0,946.0,4055.0,819.0,-238.0,1375.0,3729.0,,,,-0.472848473846321,-2.84788749470846,-0.432806582352025,,-0.9119059639457577,,
,5298.0,947.0,4056.0,817.0,-248.0,1388.0,3703.0,,,,-0.472718725194155,-2.84788190847928,-0.432441189428838,,-0.9416296491273054,,
,5301.0,948.0,4057.0,820.0,-238.0,1391.0,3684.0,,,,-0.473018818744442,-2.84801765238416,-0.432834959418573,,-0.9607888165044529,,
,5301.0,950.0,4058.0,821.0,-255.0,1392.0,3685.0,,,,-0.472738645236001,-2.84791280741992,-0.432698424897592,,-0.9714912097241348,,
,5303.0,947.0,4054.0,817.0,-261.0,1391.0,3705.0,,,,-0.472991057635013,-2.84781838517605,-0.432434059287841,,-0.9758860081513361,,
,5298.0,948.0,4056.0,818.0,-234.0,1379.0,3701.0,,,,-0.472818236402922,-2.84797488086013,-0.43254576632107,,-0.9760736705087956,,
,5297.0,947.0,4057.0,818.0,-249.0,1372.0,3685.0,,,,-0.472665148040019,-2.84783372550784,-0.432615901856184,,-0.9739868762383931,,
,5297.0,947.0,4057.0,817.0,-259.0,1384.0,3691.0,,,,-0.472786159197307,-2.84768780144412,-0.432354698331494,,-0.9712469302632788,,
,5296.0,946.0,4056.0,819.0,-246.0,1383.0,3679.0,,,,-0.47226838518375,-2.84788251590223,-0.431720653344954,,-0.9690073433229558,,
,5295.0,944.0,4053.0,816.0,-233.0,1367.0,3688.0,,,,-0.47218244578351,-2.84781318576895,-0.432484282059935,,-0.9678018579422304,,
,5296.0,946.0,4051.0,816.0,-257.0,1340.0,3683.0,,,,-0.47264917038525,-2.84774930703553,-0.431949587509619,,-0.9674174329289336,,
,5294.0,946.0,4052.0,818.0,-262.0,1357.0,3712.0,,,,-0.472448374320838,-2.84772364558948,-0.432533288952093,,-0.9668133173025935,,
,5293.0,948.0,4050.0,817.0,-256.0,1379.0,3712.0,,,,-0.472611626774545,-2.84780268837429,-0.43180929001378,,-0.9641052424164233,,
,5290.0,945.0,4049.0,817.0,-243.0,1392.0,3709.0,,,,-0.472778961143338,-2.84771574589763,-0.432050792530039,,-0.956629037649239,,
,5291.0,944.0,4048.0,816.0,-247.0,1411.0,3689.0,,,,-0.472333460216159,-2.84769325170275,-0.431744644664595,,-0.9410908425888952,,
,5289.0,943.0,4048.0,817.0,-268.0,1404.0,3711.0,,,,-0.472447462434168,-2.84781007657307,-0.431934622870265,,-0.91380189048358,,
,5290.0,946.0,4048.0,816.0,-261.0,1394.0,3724.0,,,,-0.472429362881722,-2.84774292968712,-0.431906325027185,,-0.8709852391428009,,
,5288.0,944.0,4048.0,816.0,-261.0,1385.0,3705.0,,,,-0.472572028310499,-2.8476110685459,-0.431891574767635,,-0.8091310471162251,,
,5286.0,944.0,4048.0,816.0,-242.0,1391.0,3706.0,,,,-0.472351318209604,-2.84741109649197,-0.432574082428069,,-0.7253678758871761,,
,5286.0,946.0,4049.0,817.0,-252.0,1379.0,3704.0,,,,-0.472215138679408,-2.84752352732111,-0.432166977689,,-0.6178121918816082,,
,5290.0,947.0,4049.0,817.0,-252.0,1383.0,3692.0,,,,-0.472315323024882,-2.8476266977823,-0.431949951435212,,-0.48585841073552394,,
,5289.0,946.0,4053.0,815.0,-252.0,1386.0,3693.0,,,,-0.47274525339532,-2.84779398349555,-0.432263511673486,,-0.3303777277676305,,
,5289.0,945.0,4051.0,817.0,-258.0,1408.0,3685.0,,,,-0.472431339906497,-2.84765549449594,-0.431802058195593,,-0.15380418111168917,,
,5290.0,944.0,4054.0,818.0,-239.0,1395.0,3701.0,,,,-0.47258950289193,-2.847616141982,-0.432460175181097,,0.03990149987724888,,
,5291.0,948.0,4054.0,819.0,-252.0,1382.0,3690.0,,,,-0.472638961286302,-2.84770604504074,-0.432593566587693,,0.2454079182998467,,
,5291.0,948.0,4059.0,819.0,-258.0,1368.0,3689.0,,,,-0.47272409031224,-2.84785283873854,-0.432482819994565,,0.4562764299582611,,
,5292.0,946.0,4057.0,819.0,-270.0,1390.0,3703.0,,,,-0.472581805075772,-2.84763461077803,-0.432642217102354,,0.6653114838704485,,
,5295.0,945.0,4061.0,819.0,-267.0,1399.0,3686.0,,,,-0.472570523021891,-2.84770459351987,-0.43279972854497,,0.8649715087981054,,
,5298.0,947.0,4064.0,819.0,-258.0,1393.0,3692.0,,,,-0.472699222140647,-2.84774476112685,-0.432488531511307,,1.0478099564338619,,
,5300.0,948.0,4066.0,823.0,-247.0,1397.0,3718.0,,,,-0.472455801858452,-2.84762795634086,-0.432486981418615,,1.2069138224598872,,
,5304.0,950.0,4071.0,821.0,-224.0,1396.0,3721.0,,,,-0.472184040680707,-2.84755784723304,-0.432664497672049,,1.3363065735184458,,
,5302.0,949.0,4070.0,818.0,-240.0,1405.0,3701.0,,,,-0.472418906118611,-2.84787327267799,-0.432752098643311,,1.4312844933192164,,
,5305.0,949.0,4075.0,823.0,-266.0,1417.0,3696.0,,,,-0.472272458757298,-2.84758983822315,-0.432276447528895,,1.4886607300774883,,
,5305.0,953.0,4077.0,824.0,-258.0,1410.0,3695.0,,,,-0.472208738540413,-2.84760243324053,-0.432172451038177,,1.5069000516966686,,
,5309.0,951.0,4078.0,823.0,-264.0,1404.0,3693.0,,,,-0.472152686718548,-2.84732178812513,-0.432204963709461,,1.486138774267425,,
,5311.0,951.0,4081.0,822.0,-252.0,1386.0,3683.0,,,,-0.472563951528983,-2.84753804327084,-0.432255297401119,,1.4280966044084065,,
,5313.0,954.0,4086.0,825.0,-254.0,1391.0,3689.0,,,,-0.472197955419308,-2.84757026207586,-0.431835724718225,,1.3358976541926768,,
,5317.0,955.0,4091.0,826.0,-256.0,1394.0,3707.0,,,,-0.472233092456199,-2.84747545645689,-0.431431372504954,,1.2138246182509258,,
,5319.0,956.0,4092.0,827.0,-262.0,1389.0,3694.0,,,,-0.472058272613606,-2.84749996736534,-0.432066856806682,,1.0670324717090443,,
,5321.0,956.0,4096.0,825.0,-252.0,1382.0,3701.0,,,,-0.47201428060498,-2.84741880628668,-0.431471053796637,,0.901246810986761,,
,5323.0,954.0,4097.0,825.0,-249.0,1381.0,3706.0,,,,-0.472025045462129,-2.84724541368676,-0.43187678513461,,0.7224683796125874,,
,5328.0,957.0,4101.0,829.0,-249.0,1388.0,3708.0,,,,-0.471913920235797,-2.84743898808528,-0.431600647874017,,0.5367004802928879,,
,5330.0,958.0,4106.0,829.0,-251.0,1403.0,3713.0,,,,-0.471981724944231,-2.84728630414419,-0.431395736908759,,0.3497106085279123,,
,5332.0,957.0,4106.0,828.0,-251.0,1400.0,3719.0,,,,-0.471611897244207,-2.84724337565177,-0.43097284069067,,0.16683229250428902,,
,5333.0,958.0,4109.0,829.0,-254.0,1389.0,3701.0,,,,-0.471510990420498,-2.84737325513803,-0.430556747671805,,-0.007191766669322737,,
,5337.0,960.0,4112.0,831.0,-258.0,1373.0,3692.0,,,,-0.47142355583152,-2.84719570368497,-0.430473481653966,,-0.16832823061142815,,
,5339.0,962.0,4118.0,829.0,-248.0,1379.0,3692.0,,,,-0.471463207768635,-2.84711776479729,-0.430489425120915,,-0.3133391529735811,,
,5342.0,960.0,4119.0,832.0,-244.0,1372.0,3713.0,,,,-0.471460145228983,-2.84695122312658,-0.43051298128686,,-0.4398423302023421,,
,5343.0,962.0,4123.0,832.0,-264.0,1375.0,3696.0,,,,-0.471226868953358,-2.84705151330042,-0.430398361069261,,-0.5463513896311836,,
,5345.0,964.0,4123.0,831.0,-273.0,1380.0,3706.0,,,,-0.471439662569631,-2.84711521732837,-0.430547351302283,,-0.6322971662004442,,
,5349.0,963.0,4132.0,833.0,-255.0,1372.0,3700.0,,,,-0.471301276874201,-2.84693413823567,-0.431144168456268,,-0.6980265703750034,,
,5353.0,967.0,4133.0,836.0,-261.0,1387.0,3693.0,,,,-0.471229546883281,-2.84699401516777,-0.43058449455373,,-0.7447702432539265,,
,5353.0,965.0,4134.0,836.0,-262.0,1378.0,3677.0,,,,-0.470884894478209,-2.84691936711967,-0.430815563938974,,-0.7745680488289122,,
,5354.0,964.0,4137.0,833.0,-260.0,1385.0,3693.0,,,,-0.470883499542382,-2.84632008108747,-0.430684844135469,,-0.7901432687130693,,
,5360.0,969.0,4139.0,835.0,-275.0,1391.0,3688.0,,,,-0.470886395418524,-2.84629738643275,-0.429736670372746,,-0.7947220222123804,,
,5362.0,970.0,4146.0,837.0,-241.0,1370.0,3713.0,,,,-0.470872526253134,-2.8468502880339,-0.430366126514965,,-0.7918023129602106,,
,5362.0,968.0,4148.0,839.0,-247.0,1372.0,3682.0,,,,-0.470480315492012,-2.84706730884714,-0.430188090182382,,-0.7848851777435938,,
,5365.0,968.0,4150.0,836.0,-263.0,1386.0,3679.0,,,,-0.470557345426582,-2.84678244121847,-0.429756325340242,,-0.7771871583241184,,
,5369.0,970.0,4153.0,838.0,-255.0,1390.0,3694.0,,,,-0.470449056627291,-2.84667178404247,-0.430021420134013,,-0.771357954858681,,
,5373.0,971.0,4156.0,839.0,-264.0,1374.0,3698.0,,,,-0.470527603511105,-2.84666064047016,-0.429929115339643,,-0.7692293408040456,,
,5374.0,972.0,4159.0,841.0,-261.0,1373.0,3698.0,,,,-0.470511884037691,-2.84662491638003,-0.430248485122534,,-0.7716210814990756,,
,5374.0,970.0,4159.0,839.0,-260.0,1351.0,3704.0,,,,-0.470257874167207,-2.84661382972812,-0.430114924319505,,-0.7782266517140377,,
,5375.0,972.0,4163.0,841.0,-243.0,1376.0,3695.0,,,,-0.470321904457102,-2.84657574932105,-0.430083880054221,,-0.7875960272709136,,
,5382.0,974.0,4170.0,843.0,-253.0,1380.0,3710.0,,,,-0.47031410181523,-2.84673743893392,-0.4293714035991,,-0.7972248224967269,,
,5384.0,975.0,4170.0,842.0,-249.0,1374.0,3723.0,,,,-0.470060982175589,-2.84652073266476,-0.429319007947459,,-0.8037487984698575,,
,5386.0,974.0,4172.0,844.0,-251.0,1374.0,3720.0,,,,-0.469885872400912,-2.84659237472588,-0.428680900146569,,-0.8032309424762607,,
,5387.0,976.0,4175.0,844.0,-242.0,1361.0,3705.0,,,,-0.46990744706952,-2.84652122401307,-0.429161901399079,,-0.7915162920637122,,
,5392.0,976.0,4181.0,844.0,-236.0,1375.0,3711.0,,,,-0.470141426618098,-2.84648273444868,-0.429446735208988,,-0.7646195906831306,,
,5393.0,980.0,4184.0,844.0,-246.0,1357.0,3715.0,,,,-0.470058297966928,-2.84647395846636,-0.429029914509499,,-0.71910519931432,,
,5397.0,980.0,4187.0,846.0,-244.0,1359.0,3700.0,,,,-0.469987096726724,-2.84647634965958,-0.429247310677608,,-0.6524192736053648,,
,5401.0,979.0,4187.0,845.0,-262.0,1380.0,3689.0,,,,-0.469867192797119,-2.84650613975634,-0.429136510555205,,-0.5631411790038146,,
,5397.0,980.0,4187.0,843.0,-262.0,1387.0,3664.0,,,,-0.470096840413952,-2.84636296123209,-0.429228349845951,,-0.4511326954663879,,
,5399.0,980.0,4182.0,844.0,-255.0,1382.0,3678.0,,,,-0.469881202264896,-2.8463043536959,-0.42896632475672,,-0.3175769883272035,,
,5394.0,973.0,4174.0,842.0,-256.0,1387.0,3686.0,,,,-0.46971210730656,-2.84616345080277,-0.428861980175382,,-0.16491207085571788,,
,5386.0,971.0,4165.0,837.0,-256.0,1390.0,3683.0,,,,-0.469498687956294,-2.8461806295436,-0.428545207023258,,0.0033260370029177407,,
,5375.0,966.0,4152.0,835.0,-264.0,1389.0,3649.0,,,,-0.469451783543492,-2.84617589730419,-0.428482564084269,,0.18272783267944742,,
,5364.0,966.0,4137.0,831.0,-248.0,1377.0,3705.0,,,,-0.469214079302543,-2.84598250936565,-0.428387578286939,,0.36827588370501946,,
,5354.0,962.0,4127.0,828.0,-258.0,1373.0,3725.0,,,,-0.469350551768418,-2.84618574891104,-0.427999953673051,,0.5546240286812327,,
,5341.0,959.0,4113.0,825.0,-249.0,1383.0,3718.0,,,,-0.469192975581846,-2.84610229078222,-0.428184632515847,,0.736365013863603,,
,5326.0,954.0,4097.0,822.0,-257.0,1363.0,3734.0,,,,-0.469835756658382,-2.8461933752769,-0.429153524723449,,0.9082659597761003,,
,5318.0,951.0,4087.0,819.0,-256.0,1366.0,3709.0,,,,-0.469938574084971,-2.84618888790882,-0.428584156068914,,1.0654578069797331,,
,5308.0,951.0,4078.0,820.0,-244.0,1383.0,3703.0,,,,-0.470329101134746,-2.8463886869017,-0.428876899237806,,1.2035734203398365,,
,5300.0,947.0,4068.0,817.0,-238.0,1381.0,3700.0,,,,-0.47075742720027,-2.84692177252718,-0.429962153850127,,1.3188383387266303,,
,5287.0,944.0,4058.0,815.0,-221.0,1386.0,3680.0,,,,-0.471235130838284,-2.84712981195563,-0.43058666796798,,1.408126293627396,,
,5283.0,944.0,4052.0,813.0,-243.0,1406.0,3676.0,,,,-0.471752145291322,-2.84719154004103,-0.431343625711771,,1.468996152068321,,
,5276.0,943.0,4050.0,812.0,-254.0,1409.0,3686.0,,,,-0.471659427047485,-2.84717983921195,-0.43163493242186,,1.4997262409031713,,
,5270.0,941.0,4043.0,811.0,-239.0,1390.0,3681.0,,,,-0.471970036860738,-2.84750515357027,-0.431801957930906,,1.4993564020055905,,
,5265.0,939.0,4040.0,809.0,-244.0,1385.0,3691.0,,,,-0.471995129299981,-2.84767741277828,-0.43216603814648,,1.467739768358773,,
,5261.0,937.0,4036.0,808.0,-245.0,1380.0,3712.0,,,,-0.472614924135582,-2.84779033081717,-0.432500157168116,,1.405597940962151,,
,5259.0,940.0,4034.0,810.0,-243.0,1392.0,3709.0,,,,-0.473014941287363,-2.84780483548065,-0.4325922652044,,1.314567192601592,,
,5256.0,938.0,4033.0,810.0,-240.0,1369.0,3696.0,,,,-0.473112830971437,-2.84792103288865,-0.432967169842469,,1.1972205159236404,,
,5254.0,939.0,4030.0,809.0,-246.0,1376.0,3699.0,,,,-0.473096511064897,-2.84794536214776,-0.432584920959994,,1.0570506213736033,,
,5251.0,937.0,4029.0,808.0,-239.0,1397.0,3696.0,,,,-0.473310824834364,-2.84794812726395,-0.433160404359915,,0.8984016214910854,,
,5250.0,935.0,4027.0,807.0,-249.0,1400.0,3688.0,,,,-0.473321900098408,-2.84788901721858,-0.433286743790424,,0.7263413090923101,,
,5249.0,938.0,4030.0,808.0,-238.0,1403.0,3678.0,,,,-0.47332892883913,-2.84789475589903,-0.432653333297546,,0.5464711315673554,,
2025-07-29 18:09:15,5249.0,940.0,4029.0,809.0,-246.0,1376.0,3693.0,,,2025/07/29 06:09:15 PM,-0.473408307224371,-2.84792869540712,-0.433691053222727,,0.36467705699012765,,
,5250.0,938.0,4028.0,809.0,-236.0,1381.0,3694.0,,,,-0.473413225200077,-2.84799601634426,-0.433168417361625,,0.18683161530604192,,
,5247.0,937.0,4027.0,809.0,-258.0,1385.0,3706.0,,,,-0.473498957957705,-2.84812946149199,-0.433088005007925,,0.01846532577033926,,
,5248.0,939.0,4029.0,810.0,-251.0,1382.0,3710.0,,,,-0.473580683693904,-2.84798621046209,-0.433134049269691,,-0.13556643320580902,,
,5244.0,938.0,4030.0,810.0,-264.0,1368.0,3716.0,,,,-0.473247380848191,-2.84800929395274,-0.432979853944456,,-0.2713891246027783,,
,5247.0,938.0,4028.0,810.0,-272.0,1367.0,3718.0,,,,-0.473162453059358,-2.84803715600611,-0.432811488681069,,-0.3863535215416596,,
,5244.0,937.0,4028.0,810.0,-266.0,1361.0,3718.0,,,,-0.472796761645424,-2.84796286539279,-0.432545025820844,,-0.4791889388836431,,
,5247.0,937.0,4029.0,809.0,-257.0,1373.0,3717.0,,,,-0.473031700517002,-2.84789873522391,-0.432656098857085,,-0.5500444666312649,,
,5247.0,939.0,4034.0,812.0,-251.0,1395.0,3699.0,,,,-0.472712921024752,-2.84781535280733,-0.432508834237203,,-0.6004102731036778,,
,5248.0,939.0,4034.0,813.0,-250.0,1402.0,3694.0,,,,-0.472970505576068,-2.84799962219778,-0.433297167221515,,-0.6329248315594764,,
,5251.0,940.0,4033.0,813.0,-245.0,1383.0,3682.0,,,,-0.473033325882759,-2.84811020219167,-0.432703117444617,,-0.6510863619176656,,
,5252.0,939.0,4035.0,809.0,-249.0,1385.0,3676.0,,,,-0.473018327350448,-2.84810324830832,-0.43295047799638,,-0.6588964136716389,,
,5252.0,941.0,4037.0,810.0,-258.0,1393.0,3695.0,,,,-0.473229250302817,-2.84797692601828,-0.433140618699846,,-0.6604696883115634,,
,5250.0,942.0,4037.0,810.0,-255.0,1387.0,3695.0,,,,-0.473256616419843,-2.84790051805837,-0.432731456550143,,-0.659646779464274,,
,5253.0,942.0,4037.0,814.0,-247.0,1385.0,3710.0,,,,-0.473052186484038,-2.84787620628366,-0.432934923269432,,-0.6596456706563282,,
,5251.0,941.0,4036.0,809.0,-248.0,1383.0,3705.0,,,,-0.472410281300636,-2.8480074932127,-0.433080953611758,,-0.6627838846548647,,
,5252.0,941.0,4038.0,812.0,-249.0,1360.0,3705.0,,,,-0.472558214545529,-2.84780852248441,-0.43179566530808,,-0.6702964099846341,,
,5250.0,938.0,4035.0,811.0,-249.0,1388.0,3701.0,,,,-0.472357918968195,-2.84780004039709,-0.432704484303576,,-0.6822651563269018,,
,5251.0,941.0,4037.0,812.0,-261.0,1380.0,3691.0,,,,-0.472860976648215,-2.8478373889822,-0.431776620573788,,-0.6976640711228226,,
,5248.0,938.0,4035.0,809.0,-247.0,1397.0,3682.0,,,,-0.472798045763435,-2.84763966548638,-0.432289480318809,,-0.7145110668837851,,
,5247.0,938.0,4035.0,809.0,-242.0,1386.0,3699.0,,,,-0.472382900338205,-2.84779006219385,-0.432285182156899,,-0.7301052520384788,,
,5247.0,940.0,4032.0,811.0,-251.0,1398.0,3719.0,,,,-0.472689475271944,-2.84761797663653,-0.432224122001679,,-0.7413180158192654,,
,5246.0,937.0,4033.0,810.0,-250.0,1371.0,3689.0,,,,-0.472602962291941,-2.84771063399219,-0.432467730254591,,-0.7449016376391155,,
,5244.0,938.0,4033.0,811.0,-233.0,1375.0,3690.0,,,,-0.472776725677291,-2.84768098638279,-0.432159700351222,,-0.7377804361338471,,
,5241.0,936.0,4031.0,809.0,-236.0,1409.0,3665.0,,,,-0.472577115316237,-2.84770726738255,-0.432667832247803,,-0.7172963300339947,,
,5242.0,938.0,4030.0,811.0,-253.0,1403.0,3683.0,,,,-0.472587018511801,-2.84781096387271,-0.432312674479258,,-0.6813908941861481,,
,5241.0,937.0,4029.0,809.0,-253.0,1403.0,3693.0,,,,-0.47257408462855,-2.84775877117764,-0.43263180936786,,-0.6287171076280907,,
,5240.0,939.0,4030.0,809.0,-243.0,1416.0,3701.0,,,,-0.47273247724237,-2.84790949863778,-0.432668748657546,,-0.5586841458484679,,
,5242.0,937.0,4031.0,809.0,-237.0,1412.0,3687.0,,,,-0.472649097241968,-2.84777659792552,-0.432752937145939,,-0.4714466249341269,,
,5242.0,941.0,4032.0,812.0,-243.0,1399.0,3695.0,,,,-0.472692443294786,-2.84781995515757,-0.43273342593506,,-0.3678549655740822,,
,5242.0,940.0,4035.0,811.0,-251.0,1419.0,3689.0,,,,-0.472627778362635,-2.8479746876458,-0.432236574096814,,-0.24938563704974429,,
,5245.0,941.0,4035.0,809.0,-235.0,1404.0,3670.0,,,,-0.472630777142713,-2.84787545788363,-0.432599218026635,,-0.11806897644299726,,
,5244.0,941.0,4035.0,810.0,-236.0,1406.0,3693.0,,,,-0.472726125751803,-2.84779665616329,-0.432483781607787,,0.023571622042517962,,
,5244.0,939.0,4037.0,810.0,-238.0,1406.0,3694.0,,,,-0.47282525571376,-2.84801228491816,-0.432516547044683,,0.17256166303031928,,
,5248.0,942.0,4041.0,811.0,-244.0,1393.0,3686.0,,,,-0.472644311283112,-2.84789108576028,-0.433202665387586,,0.32549934212042714,,
,5247.0,940.0,4041.0,812.0,-236.0,1396.0,3687.0,,,,-0.473021567093301,-2.84781156119427,-0.432645372361972,,0.47857087727357034,,
,5251.0,943.0,4045.0,814.0,-248.0,1385.0,3691.0,,,,-0.473037154440298,-2.84768921538577,-0.432816057175538,,0.6275750629253938,,
,5251.0,943.0,4047.0,812.0,-240.0,1396.0,3685.0,,,,-0.473089508473619,-2.84788015420678,-0.432870854585826,,0.7679791601469661,,
,5251.0,943.0,4051.0,814.0,-227.0,1395.0,3693.0,,,,-0.472878271399091,-2.84797279523158,-0.432338029900548,,0.8950269291577244,,
,5259.0,945.0,4053.0,816.0,-239.0,1404.0,3721.0,,,,-0.472758230752297,-2.84777682767281,-0.432470559311221,,1.0039120073502479,,
,5259.0,943.0,4056.0,814.0,-260.0,1408.0,3718.0,,,,-0.472835862109036,-2.84768998559315,-0.432905266133137,,1.0900175233856402,,
,5260.0,943.0,4057.0,815.0,-258.0,1390.0,3710.0,,,,-0.472604693538572,-2.84780028369299,-0.43228481307962,,1.1492087885486606,,
,5263.0,945.0,4060.0,816.0,-245.0,1413.0,3709.0,,,,-0.472654436024074,-2.84773926563364,-0.431915623904766,,1.1781531860468548,,
,5265.0,948.0,4065.0,817.0,-254.0,1407.0,3685.0,,,,-0.47246914072295,-2.84754236819171,-0.432436050990588,,1.1746323148589881,,
,5266.0,948.0,4067.0,817.0,-256.0,1392.0,3680.0,,,,-0.472722900358878,-2.84764565771387,-0.432418895005302,,1.1378074567319922,,
,5271.0,949.0,4069.0,820.0,-255.0,1381.0,3695.0,,,,-0.472616513282677,-2.84761809862913,-0.432447875987663,,1.0684011100987976,,
,5271.0,947.0,4072.0,818.0,-260.0,1377.0,3693.0,,,,-0.472407844578875,-2.8477457000927,-0.431776029315008,,0.9687644201709895,,
,5277.0,950.0,4077.0,818.0,-249.0,1379.0,3696.0,,,,-0.472184044873296,-2.84747595237489,-0.431049613066168,,0.8428117642548466,,
,5277.0,952.0,4079.0,821.0,-243.0,1407.0,3691.0,,,,-0.472199150914537,-2.84759117863651,-0.432073217067264,,0.6958179624963134,,
,5279.0,951.0,4081.0,821.0,-251.0,1410.0,3706.0,,,,-0.472259301953649,-2.84743362197024,-0.431462668259362,,0.5340889887952007,,
,5282.0,953.0,4084.0,821.0,-247.0,1394.0,3708.0,,,,-0.472127216907252,-2.84750529319873,-0.431709396257361,,0.3645322219016562,,
,5284.0,954.0,4090.0,823.0,-243.0,1401.0,3701.0,,,,-0.47209872247425,-2.84749915542072,-0.431582692203015,,0.19416563799337466,,
,5288.0,952.0,4093.0,823.0,-251.0,1382.0,3708.0,,,,-0.472102391461918,-2.84737540164083,-0.431991127997167,,0.029614851139027596,,
,5290.0,955.0,4095.0,826.0,-235.0,1371.0,3692.0,,,,-0.471957366382274,-2.84750736084127,-0.431661423123283,,-0.12334973802960754,,
,5293.0,954.0,4099.0,825.0,-241.0,1348.0,3694.0,,,,-0.471690822376184,-2.84751146920012,-0.431409228130835,,-0.2601877016841222,,
,5295.0,957.0,4102.0,823.0,-253.0,1377.0,3690.0,,,,-0.471638888044065,-2.84746149557925,-0.431499748992149,,-0.3778387268665135,,
,5298.0,958.0,4104.0,825.0,-239.0,1374.0,3686.0,,,,-0.47190982019478,-2.84748974595117,-0.431186356710437,,-0.474827831476235,,
,5302.0,957.0,4108.0,828.0,-250.0,1377.0,3678.0,,,,-0.471786736015802,-2.84723027899082,-0.430686104620788,,-0.5512230510164361,,
,5302.0,958.0,4109.0,826.0,-237.0,1375.0,3688.0,,,,-0.471896350665455,-2.84721212062891,-0.431202572456281,,-0.6084593433270851,,
,5305.0,960.0,4113.0,826.0,-246.0,1407.0,3695.0,,,,-0.471536057309502,-2.84717602670271,-0.431084085447146,,-0.6490555866286484,,
,5308.0,962.0,4118.0,825.0,-238.0,1413.0,3683.0,,,,-0.471570376222022,-2.84715465460691,-0.43111426862262,,-0.6762604717480069,,
,5310.0,964.0,4121.0,827.0,-252.0,1391.0,3692.0,,,,-0.471715513408289,-2.84737148816084,-0.431099038896267,,-0.6936674737871128,,
,5314.0,963.0,4124.0,829.0,-241.0,1390.0,3679.0,,,,-0.47173246454389,-2.84714676546773,-0.430967441827237,,-0.7048390646031267,,
,5315.0,962.0,4128.0,827.0,-243.0,1415.0,3684.0,,,,-0.471772298880247,-2.84709910028569,-0.431099971879754,,-0.7129763195585268,,
,5316.0,962.0,4130.0,829.0,-244.0,1414.0,3682.0,,,,-0.471437441640369,-2.84708306335107,-0.430897791511806,,-0.7206625930457042,,
,5320.0,964.0,4133.0,832.0,-239.0,1398.0,3691.0,,,,-0.471586126087709,-2.8469546654382,-0.430937728473659,,-0.7296995550597786,,
,5326.0,966.0,4138.0,831.0,-245.0,1403.0,3687.0,,,,-0.471296111223766,-2.84709144451765,-0.431379604712741,,-0.7410414350571503,,
,5325.0,969.0,4137.0,833.0,-236.0,1398.0,3696.0,,,,-0.471309623853838,-2.84719251385161,-0.430298682364986,,-0.7548202208186368,,
,5326.0,966.0,4140.0,830.0,-229.0,1398.0,3733.0,,,,-0.471260460344387,-2.84700662645156,-0.431045857367015,,-0.7704429123934594,,
,5332.0,967.0,4144.0,833.0,-238.0,1407.0,3704.0,,,,-0.47094238123398,-2.84694365026078,-0.429803566073006,,-0.7867341820027081,,
,5335.0,972.0,4149.0,833.0,-241.0,1399.0,3713.0,,,,-0.470999207749618,-2.84697881493362,-0.430645575877193,,-0.8020957924151457,,
,5336.0,972.0,4151.0,835.0,-251.0,1407.0,3697.0,,,,-0.470640100878264,-2.84699039806689,-0.430105487933782,,-0.8146580802506708,,
,5340.0,970.0,4153.0,831.0,-245.0,1394.0,3707.0,,,,-0.470914787271508,-2.84687224645929,-0.430245950536758,,-0.8224070223793624,,
,5339.0,972.0,4158.0,835.0,-249.0,1389.0,3711.0,,,,-0.471126134139867,-2.84687297371559,-0.430066173621619,,-0.8232801890130934,,
,5345.0,972.0,4161.0,836.0,-238.0,1399.0,3713.0,,,,-0.470921377041498,-2.84683556059931,-0.430456855058937,,-0.8152338553320185,,
,5344.0,974.0,4164.0,836.0,-234.0,1400.0,3716.0,,,,-0.470911986136777,-2.84697894125918,-0.430759042032886,,-0.796290266213528,,
,5350.0,975.0,4167.0,839.0,-239.0,1400.0,3726.0,,,,-0.470564336663573,-2.84676766313239,-0.430228089710815,,-0.7645779648767979,,
,5349.0,974.0,4168.0,836.0,-252.0,1400.0,3703.0,,,,-0.470567666904373,-2.84677719569466,-0.430325532876962,,-0.7183791798976907,,
,5355.0,975.0,4172.0,840.0,-254.0,1402.0,3679.0,,,,-0.470542687889683,-2.84654707869438,-0.429824007394569,,-0.6561968055674395,,
,5352.0,977.0,4171.0,839.0,-259.0,1388.0,3670.0,,,,-0.469996679494973,-2.84662705742563,-0.429646558872272,,-0.5768498973505334,,
,5351.0,973.0,4167.0,838.0,-260.0,1391.0,3676.0,,,,-0.470049282245034,-2.84668790135286,-0.428999033009443,,-0.4796010590888405,,
,5348.0,969.0,4160.0,835.0,-257.0,1376.0,3695.0,,,,-0.47001258449471,-2.8465318833483,-0.429782593114029,,-0.3643116807885173,,
,5342.0,970.0,4149.0,832.0,-259.0,1374.0,3713.0,,,,-0.469905631191477,-2.84661249172464,-0.429537453935784,,-0.23161208731690203,,
,5331.0,966.0,4140.0,829.0,-247.0,1370.0,3700.0,,,,-0.470120634479805,-2.84671035916261,-0.429559060071128,,-0.08306463239066796,,
,5320.0,961.0,4126.0,825.0,-257.0,1380.0,3706.0,,,,-0.470296628922632,-2.8467147978375,-0.429886335965695,,0.07870897491817415,,
,5311.0,960.0,4113.0,824.0,-273.0,1387.0,3710.0,,,,-0.470695018798181,-2.84691430725041,-0.43012372859928,,0.24996669896235024,,
,5300.0,955.0,4098.0,818.0,-258.0,1394.0,3719.0,,,,-0.471134915474639,-2.84718536189365,-0.43071713076515,,0.4258778091054723,,
,5285.0,955.0,4089.0,818.0,-247.0,1359.0,3685.0,,,,-0.471847831284617,-2.84719344359851,-0.431738093419371,,0.6006635148566681,,
,5277.0,952.0,4077.0,814.0,-251.0,1398.0,3673.0,,,,-0.471872328842617,-2.84738094166996,-0.431941921852294,,0.7678498368288905,,
,5268.0,948.0,4071.0,812.0,-248.0,1404.0,3693.0,,,,-0.472453134018783,-2.84770076144802,-0.432224785732672,,0.920621871281109,,
,5257.0,943.0,4059.0,810.0,-258.0,1415.0,3687.0,,,,-0.472706713628494,-2.84797510548539,-0.432727759349778,,1.0522554821853403,,
,5250.0,947.0,4054.0,810.0,-250.0,1374.0,3681.0,,,,-0.47346698690757,-2.84797181949669,-0.433531336704544,,1.1565914964126316,,
,5242.0,944.0,4049.0,809.0,-260.0,1366.0,3686.0,,,,-0.473536198971976,-2.84813833190794,-0.43320561208391,,1.2285095036023188,,
,5236.0,941.0,4044.0,808.0,-246.0,1399.0,3676.0,,,,-0.473576511266179,-2.8482316916261,-0.434203079585643,,1.2643540808897025,,
,5232.0,941.0,4041.0,806.0,-247.0,1392.0,3660.0,,,,-0.474069215788793,-2.8484625877222,-0.434243921937706,,1.2622664617464336,,
,5228.0,943.0,4039.0,809.0,-259.0,1389.0,3667.0,,,,-0.473542807853414,-2.8485278078499,-0.433922924286569,,1.222380182789608,,
,5227.0,942.0,4035.0,808.0,-241.0,1382.0,3682.0,,,,-0.474003960520601,-2.84846503168596,-0.434327987944314,,1.146850664063441,,
,5223.0,940.0,4036.0,807.0,-244.0,1396.0,3697.0,,,,-0.474151083946753,-2.84837773128959,-0.434282371832314,,1.0397058646782786,,
,5224.0,941.0,4034.0,807.0,-253.0,1375.0,3725.0,,,,-0.474161085405701,-2.84845727475258,-0.433976138867969,,0.9065266358705797,,
,5223.0,939.0,4035.0,806.0,-225.0,1392.0,3703.0,,,,-0.474360782064806,-2.84868088202275,-0.434378529293619,,0.7539879852493905,,
,5220.0,939.0,4034.0,807.0,-251.0,1409.0,3690.0,,,,-0.474409719698131,-2.84866446095791,-0.433936191398601,,0.5893116890703237,,
,5221.0,939.0,4036.0,808.0,-239.0,1403.0,3681.0,,,,-0.474568558491654,-2.84850240807266,-0.434167210898643,,0.4196922444609703,,
,5217.0,942.0,4033.0,808.0,-235.0,1398.0,3696.0,,,,-0.474373547843597,-2.84848008778878,-0.434833659061294,,0.25175974034122195,,
,5220.0,939.0,4035.0,806.0,-248.0,1386.0,3697.0,,,,-0.474310250441666,-2.84856574334187,-0.434172193594734,,0.0911353720550127,,
,5218.0,941.0,4034.0,808.0,-257.0,1394.0,3694.0,,,,-0.47429157085216,-2.84876849821309,-0.434577910232702,,-0.057879348020488476,,
,5219.0,941.0,4036.0,810.0,-259.0,1381.0,3698.0,,,,-0.474263239329826,-2.8486455668205,-0.434209869254407,,-0.19245690857117487,,
,5221.0,942.0,4038.0,810.0,-262.0,1361.0,3684.0,,,,-0.474327081564381,-2.84865567249599,-0.434737836583705,,-0.3112379866036929,,
,5220.0,940.0,4038.0,805.0,-269.0,1370.0,3712.0,,,,-0.474305484152365,-2.84883096107639,-0.43409498602795,,-0.4141796608601109,,
,5218.0,939.0,4038.0,808.0,-237.0,1383.0,3719.0,,,,-0.474366294957356,-2.84870672654877,-0.434973851876799,,-0.5022866390269681,,
,5221.0,941.0,4043.0,809.0,-236.0,1378.0,3703.0,,,,-0.474399405009449,-2.84870023296504,-0.434114940411186,,-0.5772650894151654,,
,5223.0,941.0,4042.0,809.0,-239.0,1396.0,3707.0,,,,-0.474181075580559,-2.84862029462659,-0.434073521508945,,-0.6411443322598797,,
,5223.0,944.0,4045.0,810.0,-250.0,1392.0,3692.0,,,,-0.474171610805131,-2.84864900325949,-0.433962115935116,,-0.6959120885426358,,
,5225.0,941.0,4046.0,809.0,-242.0,1402.0,3680.0,,,,-0.474290113725393,-2.84843600597497,-0.434558474195241,,-0.7432041787580143,,
,5227.0,942.0,4047.0,812.0,-235.0,1391.0,3688.0,,,,-0.474223212213298,-2.84865472164639,-0.433424289124705,,-0.7840798274214087,,
,5227.0,944.0,4051.0,814.0,-229.0,1400.0,3701.0,,,,-0.473895123135045,-2.84834848897042,-0.435007828287136,,-0.8189000620306963,,
,5230.0,945.0,4052.0,811.0,-230.0,1392.0,3693.0,,,,-0.473686207454893,-2.84828897384792,-0.434165911123116,,-0.8473110644771773,,
,5229.0,943.0,4049.0,811.0,-243.0,1381.0,3678.0,,,,-0.473771590407609,-2.84839793538037,-0.434041672457213,,-0.8683195671815809,,
,5226.0,944.0,4051.0,812.0,-250.0,1347.0,3671.0,,,,-0.474259341052074,-2.84851623651392,-0.434016436500869,,-0.8804364541949835,,
,5227.0,944.0,4049.0,811.0,-248.0,1377.0,3686.0,,,,-0.474202259075435,-2.84843118192492,-0.434764546146999,,-0.8818595699023346,,
,5229.0,945.0,4054.0,813.0,-250.0,1385.0,3694.0,,,,-0.473916962963294,-2.84818004574472,-0.433309706201568,,-0.8706674397027032,,
,5227.0,944.0,4050.0,813.0,-239.0,1367.0,3720.0,,,,-0.474369312226367,-2.84839056430754,-0.433980763637691,,-0.8450006402775805,,
,5225.0,943.0,4049.0,811.0,-252.0,1379.0,3722.0,,,,-0.474108578802603,-2.84821495721003,-0.433410750722502,,-0.8032148569487909,,
,5223.0,944.0,4050.0,812.0,-251.0,1383.0,3707.0,,,,-0.474457420596292,-2.84821196547653,-0.434096924580926,,-0.7439975748727231,,
,5226.0,944.0,4049.0,811.0,-242.0,1367.0,3700.0,,,,-0.474593829305057,-2.84833893905334,-0.433757338042436,,-0.6664478411356243,,
,5223.0,943.0,4047.0,811.0,-246.0,1373.0,3701.0,,,,-0.474505907976804,-2.84842544422921,-0.433990118480002,,-0.5701249248398694,,
,5222.0,944.0,4048.0,810.0,-254.0,1407.0,3690.0,,,,-0.474337646213445,-2.84837224416175,-0.434251670541292,,-0.45507638015465124,,
,5222.0,942.0,4048.0,810.0,-256.0,1395.0,3689.0,,,,-0.474016775667542,-2.84848527209551,-0.433964367896442,,-0.32185838891246465,,
,5223.0,945.0,4047.0,812.0,-255.0,1407.0,3695.0,,,,-0.474126326402247,-2.84857896333457,-0.434056155414205,,-0.17156081315525354,,
2025-07-29 18:09:16,5221.0,942.0,4048.0,811.0,-256.0,1402.0,3693.0,,,2025/07/29 06:09:16 PM,-0.474080944414454,-2.84857154308786,-0.4346370993287,,-0.0058457761356010725,,
,5218.0,943.0,4048.0,810.0,-259.0,1411.0,3719.0,,,,-0.474206259039781,-2.84846019122196,-0.433722467138908,,0.17299817455582708,,
,5221.0,943.0,4049.0,810.0,-260.0,1415.0,3713.0,,,,-0.474463320353161,-2.848405793229,-0.434547914429681,,0.36199341094957976,,
,5221.0,944.0,4050.0,811.0,-262.0,1417.0,3694.0,,,,-0.474059850735863,-2.84842814001246,-0.433988301453733,,0.5574187724638324,,
,5225.0,945.0,4050.0,813.0,-257.0,1404.0,3712.0,,,,-0.474252233798569,-2.84851457024684,-0.433871842696416,,0.7547872201476511,,
,5224.0,945.0,4053.0,812.0,-256.0,1404.0,3706.0,,,,-0.474076741795094,-2.84855237722841,-0.433661270632196,,0.9488815459885441,,
,5223.0,942.0,4055.0,810.0,-243.0,1403.0,3725.0,,,,-0.474099297033942,-2.84848198739799,-0.434303674598611,,1.1338696972056048,,
,5226.0,946.0,4058.0,814.0,-233.0,1379.0,3705.0,,,,-0.473947230882619,-2.84825764453084,-0.433723982881584,,1.303511253522877,,
,5228.0,946.0,4059.0,812.0,-242.0,1378.0,3693.0,,,,-0.474211976234358,-2.84835530531479,-0.434221131290643,,1.4514531989926027,,
,5228.0,948.0,4061.0,812.0,-240.0,1377.0,3696.0,,,,-0.473846917021427,-2.84834284033684,-0.43425411678027,,1.5715989298040929,,
,5231.0,945.0,4061.0,811.0,-248.0,1379.0,3687.0,,,,-0.473892904901477,-2.84837905872194,-0.434086205668541,,1.6585215695242836,,
,5233.0,950.0,4065.0,815.0,-252.0,1377.0,3691.0,,,,-0.473841391395961,-2.84847928428363,-0.433832756319539,,1.7078827316392515,,
,5234.0,949.0,4068.0,814.0,-256.0,1382.0,3687.0,,,,-0.474109506138699,-2.84852664475183,-0.433514474379684,,1.7168121449980736,,
,5239.0,948.0,4071.0,818.0,-261.0,1376.0,3683.0,,,,-0.473933985449139,-2.84858531723907,-0.432931837303811,,1.6842030257155627,,
,5240.0,950.0,4076.0,817.0,-246.0,1383.0,3685.0,,,,-0.473821517945372,-2.84844423148312,-0.434125918546444,,1.6108833408421221,,
,5242.0,950.0,4075.0,816.0,-256.0,1388.0,3690.0,,,,-0.474021308425057,-2.84827725411628,-0.433458711412203,,1.4996342520740962,,
,5245.0,952.0,4080.0,819.0,-243.0,1384.0,3692.0,,,,-0.473728807170352,-2.84834931600234,-0.433624769927472,,1.3550434252224406,,
,5246.0,952.0,4082.0,818.0,-256.0,1387.0,3694.0,,,,-0.473951196713558,-2.84826260736198,-0.433445541789025,,1.183200897678848,,
,5249.0,952.0,4090.0,821.0,-255.0,1400.0,3701.0,,,,-0.473755470836863,-2.84807765888242,-0.434003026047584,,0.991265934052887,,
,5251.0,953.0,4088.0,820.0,-268.0,1385.0,3689.0,,,,-0.473284769773248,-2.84784083048849,-0.432819028840851,,0.7869509006584443,,
,5257.0,954.0,4092.0,821.0,-261.0,1403.0,3695.0,,,,-0.47364986398992,-2.84810445691656,-0.433024976012084,,0.5779788092772083,,
,5259.0,957.0,4097.0,822.0,-271.0,1387.0,3691.0,,,,-0.473318078484075,-2.84781635293678,-0.433111929141445,,0.3715725530941603,,
,5260.0,956.0,4099.0,823.0,-262.0,1376.0,3682.0,,,,-0.473306174286548,-2.8478952583268,-0.433300550005821,,0.17402629755285529,,
,5261.0,955.0,4101.0,823.0,-251.0,1371.0,3674.0,,,,-0.473156947111672,-2.84782333593723,-0.433256723194422,,-0.009604517510343313,,
,5266.0,959.0,4109.0,824.0,-252.0,1386.0,3692.0,,,,-0.47335150930773,-2.84773387866449,-0.432656558427096,,-0.17567526153130783,,
,5270.0,960.0,4109.0,825.0,-260.0,1396.0,3680.0,,,,-0.472989600847131,-2.8477093510274,-0.432547141062464,,-0.3219843563815711,,
,5273.0,961.0,4114.0,825.0,-257.0,1402.0,3694.0,,,,-0.47322409960419,-2.84791408844318,-0.433091910573931,,-0.4476792722212954,,
,5274.0,959.0,4114.0,824.0,-257.0,1413.0,3684.0,,,,-0.472963951548673,-2.8477519937585,-0.432570470678455,,-0.5530622059888978,,
,5276.0,959.0,4117.0,826.0,-254.0,1393.0,3705.0,,,,-0.472828116301019,-2.84771653414353,-0.432364993466011,,-0.639329716940898,,
,5281.0,962.0,4121.0,828.0,-254.0,1378.0,3719.0,,,,-0.473021369328958,-2.84769364617331,-0.432288830296887,,-0.7082845014024836,,
,5283.0,962.0,4126.0,827.0,-256.0,1382.0,3692.0,,,,-0.472752870472039,-2.84760131672451,-0.431829731038427,,-0.7620567765461466,,
,5285.0,963.0,4127.0,829.0,-247.0,1381.0,3693.0,,,,-0.472577376049455,-2.8478727513392,-0.431996053707263,,-0.8028674239050075,,
,5286.0,963.0,4131.0,830.0,-245.0,1374.0,3705.0,,,,-0.472736761653951,-2.8478776081673,-0.432265909596683,,-0.8328554718003425,,
,5289.0,965.0,4136.0,827.0,-254.0,1376.0,3692.0,,,,-0.472521907887705,-2.84772032367661,-0.432496426931486,,-0.8539797127401042,,
,5296.0,964.0,4141.0,831.0,-245.0,1384.0,3703.0,,,,-0.472580311109573,-2.84760793413855,-0.432034777296419,,-0.8679902273865043,,
,5299.0,965.0,4141.0,834.0,-246.0,1389.0,3696.0,,,,-0.472483983411161,-2.84775173807492,-0.432043061990269,,-0.8764530687613673,,
,5298.0,968.0,4144.0,831.0,-247.0,1398.0,3681.0,,,,-0.472552445809422,-2.84755190546276,-0.431733289509419,,-0.8808031599259394,,
,5302.0,968.0,4147.0,828.0,-245.0,1407.0,3682.0,,,,-0.472220734400271,-2.84760667209873,-0.432112570256895,,-0.8823983111939081,,
,5304.0,970.0,4151.0,834.0,-259.0,1387.0,3690.0,,,,-0.472069257335134,-2.8474611582665,-0.431887350002854,,-0.8825510208333492,,
,5308.0,972.0,4154.0,835.0,-263.0,1383.0,3691.0,,,,-0.471891580091343,-2.84741344824764,-0.431130067099739,,-0.8825226132081403,,
,5310.0,971.0,4158.0,836.0,-271.0,1386.0,3676.0,,,,-0.471994947281957,-2.84736908283207,-0.431664675177577,,-0.8834739649272058,,
,5312.0,971.0,4160.0,833.0,-263.0,1403.0,3682.0,,,,-0.472065942283459,-2.84738499336085,-0.431437781494061,,-0.886376653254919,,
,5317.0,971.0,4164.0,834.0,-250.0,1388.0,3704.0,,,,-0.471943554306456,-2.84728651569535,-0.431176178755613,,-0.8918966033442475,,
,5317.0,976.0,4168.0,836.0,-244.0,1389.0,3707.0,,,,-0.471646847784248,-2.84752325524636,-0.431335749269522,,-0.9002684560089017,,
,5323.0,976.0,4171.0,837.0,-238.0,1408.0,3712.0,,,,-0.471698565331038,-2.84724025601859,-0.431311264525224,,-0.9111823985864718,,
,5323.0,973.0,4173.0,835.0,-243.0,1384.0,3709.0,,,,-0.471389007401459,-2.84718651032485,-0.431115167349572,,-0.9237057289243639,,
,5325.0,976.0,4175.0,838.0,-258.0,1400.0,3714.0,,,,-0.471518365775548,-2.84721985712249,-0.431010958039726,,-0.9362587283616683,,
,5331.0,977.0,4181.0,840.0,-251.0,1389.0,3720.0,,,,-0.471450685112553,-2.84716991914079,-0.430978426742213,,-0.9466584325259952,,
,5334.0,977.0,4182.0,839.0,-258.0,1385.0,3718.0,,,,-0.471721231920553,-2.84699926097131,-0.431236687626832,,-0.9522348765181514,,
,5334.0,977.0,4187.0,841.0,-259.0,1372.0,3722.0,,,,-0.471615714227317,-2.84708847410981,-0.431223693039087,,-0.9500132798789996,,
,5337.0,977.0,4187.0,839.0,-241.0,1387.0,3692.0,,,,-0.471475307382898,-2.84715532947399,-0.431007493900092,,-0.9369442434199283,,
,5338.0,980.0,4186.0,841.0,-231.0,1361.0,3699.0,,,,-0.471301769929703,-2.8472691553545,-0.430749578270978,,-0.9101549230013224,,
,5337.0,978.0,4183.0,841.0,-238.0,1370.0,3690.0,,,,-0.471326842335054,-2.84713956195275,-0.430333032301862,,-0.8671898877248598,,
,5331.0,976.0,4178.0,837.0,-246.0,1389.0,3684.0,,,,-0.471075675605276,-2.84703098133448,-0.430204334829155,,-0.8062123253491114,,
,5323.0,972.0,4165.0,834.0,-255.0,1377.0,3666.0,,,,-0.470978875554956,-2.8468594020035,-0.430344094116268,,-0.7261438063566389,,
,5317.0,969.0,4154.0,831.0,-253.0,1414.0,3659.0,,,,-0.470807304620825,-2.8470496907463,-0.429784824944004,,-0.626731702542786,,
,5307.0,967.0,4142.0,830.0,-257.0,1402.0,3679.0,,,,-0.470806748566914,-2.84685521583021,-0.43069577544975,,-0.5085448593967448,,
,5295.0,962.0,4128.0,823.0,-264.0,1394.0,3704.0,,,,-0.470582083606705,-2.84689608897149,-0.429802783227318,,-0.3729081189900181,,
,5281.0,957.0,4117.0,824.0,-255.0,1377.0,3723.0,,,,-0.470741860255976,-2.84685638378216,-0.430281743412893,,-0.22179355550922775,,
,5271.0,956.0,4104.0,817.0,-253.0,1398.0,3717.0,,,,-0.47083025275839,-2.84708224754207,-0.430214098037239,,-0.057690247214922885,,
,5260.0,955.0,4092.0,818.0,-249.0,1397.0,3696.0,,,,-0.470876426774324,-2.84703239064195,-0.430558764875713,,0.11652510159413895,,
,5251.0,952.0,4087.0,816.0,-247.0,1410.0,3690.0,,,,-0.47149050056517,-2.84730208161719,-0.431534865510749,,0.2976972171251779,,
,5240.0,950.0,4078.0,813.0,-258.0,1397.0,3688.0,,,,-0.47201227654589,-2.84747106007854,-0.432175613713584,,0.482467361273747,,
,5234.0,948.0,4070.0,812.0,-251.0,1386.0,3707.0,,,,-0.472289133456027,-2.84779228438798,-0.431695407886677,,0.6673092565297287,,
,5223.0,947.0,4065.0,813.0,-238.0,1391.0,3694.0,,,,-0.472705662746171,-2.84780184885607,-0.432539968444738,,0.8485308043447974,,
,5219.0,946.0,4061.0,813.0,-243.0,1402.0,3685.0,,,,-0.473182227451081,-2.84808914116311,-0.433290518430225,,1.022257037004033,,
,5214.0,942.0,4056.0,811.0,-244.0,1414.0,3687.0,,,,-0.47346383352233,-2.84822192867081,-0.434547483379325,,1.1844179845241787,,
,5212.0,943.0,4052.0,806.0,-246.0,1403.0,3690.0,,,,-0.473553336394706,-2.84825465071227,-0.433918753069384,,1.33076840862357,,
,5206.0,942.0,4049.0,807.0,-256.0,1385.0,3682.0,,,,-0.473811131763265,-2.84841589747717,-0.434373324223992,,1.4569630137143035,,
,5203.0,943.0,4049.0,811.0,-249.0,1371.0,3689.0,,,,-0.47381729145533,-2.84846244055108,-0.434354642013269,,1.5587012363769004,,
,5202.0,943.0,4048.0,809.0,-235.0,1345.0,3697.0,,,,-0.474209685608523,-2.84864664299727,-0.434625242417161,,1.6319423141228568,,
,5199.0,943.0,4044.0,810.0,-247.0,1339.0,3674.0,,,,-0.474413138970294,-2.84860363361441,-0.434796312552503,,1.6731769586620824,,
,5197.0,942.0,4044.0,806.0,-259.0,1334.0,3678.0,,,,-0.47464430694334,-2.84874020074805,-0.43497041848816,,1.6797291550120337,,
,5195.0,945.0,4046.0,809.0,-254.0,1386.0,3701.0,,,,-0.474384767619922,-2.84888967778619,-0.434461898569864,,1.6500522962491606,,
,5195.0,941.0,4044.0,808.0,-242.0,1397.0,3679.0,,,,-0.474752324041147,-2.84894850738301,-0.435504069211473,,1.5839794573531587,,
,5195.0,941.0,4044.0,809.0,-243.0,1402.0,3687.0,,,,-0.474738691056532,-2.84908995124473,-0.434491854661707,,1.4828889464729667,,
,5191.0,943.0,4043.0,810.0,-257.0,1409.0,3680.0,,,,-0.474810344995274,-2.84890165614552,-0.435170657256262,,1.3497533836005613,,
,5190.0,939.0,4045.0,809.0,-260.0,1387.0,3678.0,,,,-0.474829516685451,-2.84893668692083,-0.435309992527563,,1.1890526700914887,,
,5196.0,941.0,4043.0,810.0,-249.0,1385.0,3681.0,,,,-0.474910815199538,-2.84900077992083,-0.435573017111409,,1.0065469866632806,,
,5195.0,942.0,4044.0,808.0,-263.0,1388.0,3686.0,,,,-0.47479069753353,-2.84910267307826,-0.435513944248834,,0.8089236616593458,,
,5197.0,942.0,4046.0,810.0,-265.0,1353.0,3690.0,,,,-0.474891224041406,-2.84887222713854,-0.43506795307037,,0.6033491570048009,,
,5193.0,942.0,4047.0,810.0,-252.0,1373.0,3692.0,,,,-0.475159272655974,-2.84887157377737,-0.43544824121663,,0.39697166220494934,,
,5197.0,944.0,4049.0,811.0,-255.0,1379.0,3698.0,,,,-0.474926038713038,-2.84889022880324,-0.435203336722487,,0.1964278307878536,,
,5198.0,944.0,4049.0,811.0,-249.0,1379.0,3706.0,,,,-0.475134264647034,-2.84873552405767,-0.435087580553728,,0.007407072356440823,,
,5198.0,944.0,4050.0,812.0,-236.0,1380.0,3697.0,,,,-0.474978350054764,-2.84877673691956,-0.435580497276919,,-0.16568129767659634,,
,5201.0,944.0,4051.0,808.0,-259.0,1400.0,3711.0,,,,-0.474970957519388,-2.84886968704299,-0.434848469948633,,-0.3199067067148156,,
,5201.0,946.0,4053.0,810.0,-250.0,1399.0,3680.0,,,,-0.47493874765545,-2.8490226162824,-0.435264008726854,,-0.4538673062206408,,
,5202.0,945.0,4056.0,814.0,-251.0,1406.0,3677.0,,,,-0.47498365003592,-2.84892468847752,-0.435402493484472,,-0.5675939820961885,,
,5204.0,944.0,4055.0,813.0,-253.0,1410.0,3673.0,,,,-0.474901936512443,-2.84886225080636,-0.435472097367759,,-0.6623265726527839,,
,5202.0,946.0,4057.0,812.0,-254.0,1384.0,3686.0,,,,-0.474710346265114,-2.84890888657595,-0.434627290007685,,-0.7401929043031433,,
,5200.0,943.0,4053.0,811.0,-257.0,1385.0,3706.0,,,,-0.474885317935077,-2.84886138642461,-0.43493277433566,,-0.8038297410799642,,
,5201.0,945.0,4060.0,811.0,-249.0,1378.0,3716.0,,,,-0.474569280928047,-2.84864440571953,-0.43495697100052,,-0.8559888145229851,,
,5204.0,944.0,4056.0,813.0,-252.0,1381.0,3719.0,,,,-0.474744496443267,-2.84885896360026,-0.43495021495131,,-0.8991706094084126,,
,5202.0,946.0,4054.0,814.0,-253.0,1368.0,3709.0,,,,-0.474616140685368,-2.84863546479265,-0.434706628973029,,-0.9353235640747642,,
,5199.0,944.0,4053.0,812.0,-257.0,1386.0,3701.0,,,,-0.474515962038543,-2.84856800952849,-0.434831660482551,,-0.9656370608674664,,
,5200.0,946.0,4054.0,812.0,-254.0,1350.0,3693.0,,,,-0.474752613830634,-2.8486951746756,-0.434532472512521,,-0.9904438102163863,,
,5200.0,944.0,4054.0,813.0,-255.0,1360.0,3689.0,,,,-0.474770126406175,-2.848733139383,-0.434529191199446,,-1.0092325895374785,,
,5199.0,945.0,4054.0,814.0,-254.0,1375.0,3688.0,,,,-0.474740189496395,-2.84878903835262,-0.434799415767384,,-1.020758262934553,,
,5199.0,944.0,4051.0,811.0,-276.0,1377.0,3678.0,,,,-0.474873021666517,-2.84866965434435,-0.434491381853236,,-1.0232253221835959,,
,5196.0,944.0,4054.0,814.0,-247.0,1384.0,3718.0,,,,-0.474859524741011,-2.84869127026846,-0.434591041273121,,-1.014515733513459,,
,5198.0,945.0,4051.0,813.0,-246.0,1367.0,3687.0,,,,-0.474663692852578,-2.84871228190949,-0.434251886089238,,-0.9924318117986523,,
,5200.0,944.0,4054.0,813.0,-245.0,1368.0,3686.0,,,,-0.47462188543005,-2.84864180435313,-0.43482417250151,,-0.9549288289680274,,
,5197.0,945.0,4054.0,814.0,-244.0,1359.0,3704.0,,,,-0.474464867744235,-2.84878106865458,-0.435108033018253,,-0.9003182666774059,,
,5200.0,943.0,4054.0,810.0,-238.0,1370.0,3709.0,,,,-0.474698104919331,-2.8487078074623,-0.434782410547791,,-0.8274296308413861,,
,5200.0,945.0,4054.0,812.0,-256.0,1397.0,3680.0,,,,-0.474735524362419,-2.84876973810944,-0.435019142889238,,-0.7357257464643282,,
,5198.0,944.0,4055.0,813.0,-252.0,1393.0,3672.0,,,,-0.474531753689248,-2.84860861259731,-0.434935721335403,,-0.6253728894793955,,
,5200.0,946.0,4057.0,812.0,-257.0,1388.0,3677.0,,,,-0.474688429816325,-2.84859133845871,-0.435083838778713,,-0.4972723736269222,,
,5204.0,945.0,4059.0,815.0,-260.0,1401.0,3695.0,,,,-0.474666424090209,-2.84874650551105,-0.434555427375308,,-0.35306360168038164,,
,5205.0,946.0,4061.0,814.0,-243.0,1398.0,3703.0,,,,-0.474831554335452,-2.84868362379476,-0.435221880029177,,-0.19510944470358818,,
,5206.0,949.0,4064.0,818.0,-248.0,1393.0,3696.0,,,,-0.47457238875885,-2.84872890492829,-0.434550473126888,,-0.026472625617296512,,
,5208.0,947.0,4066.0,816.0,-255.0,1399.0,3688.0,,,,-0.474839702956822,-2.84868547336922,-0.434207309436282,,0.1491134938877001,,
,5208.0,947.0,4068.0,815.0,-267.0,1389.0,3712.0,,,,-0.474536765440804,-2.84859169713763,-0.435108371318173,,0.32728384363295315,,
,5212.0,947.0,4070.0,815.0,-256.0,1400.0,3693.0,,,,-0.474698538281637,-2.8487946018963,-0.434622623008999,,0.5031021689847054,,
,5214.0,949.0,4073.0,818.0,-260.0,1400.0,3682.0,,,,-0.474598170703393,-2.84885471642375,-0.434956979551933,,0.671160182645661,,
,5219.0,949.0,4078.0,821.0,-259.0,1388.0,3683.0,,,,-0.47437102496401,-2.84872130886863,-0.434675399311905,,0.8257323664835241,,
,5219.0,948.0,4078.0,817.0,-250.0,1389.0,3681.0,,,,-0.474715569598647,-2.84867559149057,-0.43537491004975,,0.9609973053740372,,
,5219.0,949.0,4080.0,818.0,-251.0,1391.0,3675.0,,,,-0.474479986527643,-2.84868907049792,-0.434342960860292,,1.0713253618794734,,
,5226.0,953.0,4081.0,819.0,-252.0,1373.0,3691.0,,,,-0.474245214255553,-2.84853056270614,-0.434918437924329,,1.1516191439879657,,
,5225.0,954.0,4086.0,822.0,-256.0,1375.0,3677.0,,,,-0.474235431516077,-2.84837114861327,-0.433809365160959,,1.1976804793370601,,
,5233.0,956.0,4094.0,823.0,-251.0,1374.0,3666.0,,,,-0.474179104631581,-2.84843335269632,-0.4345449881728,,1.2065678591779272,,
,5232.0,953.0,4093.0,822.0,-264.0,1357.0,3675.0,,,,-0.474139054874211,-2.84855096435291,-0.433247668016972,,1.1769031990310515,,
,5234.0,956.0,4096.0,822.0,-249.0,1373.0,3682.0,,,,-0.473928625851649,-2.84849690032069,-0.433530146940539,,1.1090872225728823,,
,5236.0,958.0,4100.0,825.0,-262.0,1392.0,3680.0,,,,-0.473775649126901,-2.84846436758598,-0.433865392881473,,1.0053889984311892,,
,5240.0,956.0,4100.0,824.0,-256.0,1390.0,3689.0,,,,-0.474237870941955,-2.84852550096991,-0.433960837261492,,0.869886543154938,,
,5244.0,956.0,4107.0,828.0,-251.0,1399.0,3702.0,,,,-0.473883411943686,-2.84847172016009,-0.433435926091272,,0.7082507397559853,,
,5251.0,957.0,4109.0,825.0,-249.0,1409.0,3689.0,,,,-0.473764615148729,-2.84825948605186,-0.433990806768577,,0.5273825907521393,,
,5249.0,959.0,4113.0,823.0,-242.0,1392.0,3680.0,,,,-0.473856132901857,-2.84809032490644,-0.433704254939628,,0.33493224476579225,,
,5250.0,959.0,4115.0,825.0,-259.0,1392.0,3689.0,,,,-0.473970020494248,-2.84828286514064,-0.433181350140379,,0.1387449883470632,,
2025-07-29 18:09:17,5254.0,960.0,4121.0,829.0,-274.0,1382.0,3700.0,,,2025/07/29 06:09:17 PM,-0.473392213599794,-2.84815991249697,-0.433379747373776,,-0.053708497096322486,,
,5259.0,961.0,4122.0,829.0,-263.0,1381.0,3691.0,,,,-0.473618263659156,-2.84813730433876,-0.433402138658299,,-0.23585585100931333,,
,5260.0,960.0,4122.0,828.0,-247.0,1385.0,3699.0,,,,-0.473784850238594,-2.84818024812473,-0.433101723152583,,-0.402443825356184,,
,5265.0,964.0,4131.0,829.0,-249.0,1380.0,3701.0,,,,-0.473388709272745,-2.84807155897002,-0.433477981538441,,-0.5498127475371983,,
,5267.0,964.0,4132.0,831.0,-246.0,1375.0,3690.0,,,,-0.473769514727058,-2.8480677116722,-0.433572564835639,,-0.6760005005017147,,
,5271.0,963.0,4134.0,831.0,-265.0,1387.0,3687.0,,,,-0.473415503504511,-2.84814289826357,-0.432712184370557,,-0.7806731598495629,,
,5270.0,965.0,4136.0,829.0,-258.0,1386.0,3681.0,,,,-0.472891667061035,-2.84804319741151,-0.432873368495703,,-0.8648994969302232,,
,5276.0,968.0,4141.0,832.0,-269.0,1359.0,3694.0,,,,-0.472855502329551,-2.84783547569496,-0.432458478776533,,-0.9308031094196216,,
,5278.0,966.0,4144.0,833.0,-261.0,1373.0,3714.0,,,,-0.472685167928283,-2.84802046531547,-0.432154765909992,,-0.9811375817280588,,
,5281.0,969.0,4146.0,832.0,-259.0,1362.0,3713.0,,,,-0.472607101765584,-2.84792599155783,-0.432626460492428,,-1.018836105372494,,
,5285.0,968.0,4150.0,832.0,-264.0,1382.0,3705.0,,,,-0.472629308287286,-2.84796331348075,-0.432100807453084,,-1.0465872660189572,,
,5285.0,968.0,4154.0,835.0,-259.0,1382.0,3704.0,,,,-0.472865145852159,-2.84799565946742,-0.432289619954186,,-1.066483508744718,,
,5292.0,970.0,4160.0,836.0,-255.0,1388.0,3697.0,,,,-0.472546150507114,-2.84802152074115,-0.432089607026471,,-1.079778660875979,,
,5295.0,970.0,4161.0,833.0,-257.0,1390.0,3701.0,,,,-0.472474473477962,-2.84778692854504,-0.432023313577281,,-1.0867766182944214,,
,5297.0,972.0,4164.0,838.0,-264.0,1357.0,3703.0,,,,-0.472594264767051,-2.84771009607322,-0.432161046428816,,-1.0868561659615799,,
,5299.0,973.0,4167.0,835.0,-273.0,1391.0,3689.0,,,,-0.472412809989234,-2.8476131091041,-0.431880641883901,,-1.0786189133290691,,
,5302.0,973.0,4171.0,839.0,-253.0,1397.0,3680.0,,,,-0.472114208508244,-2.84761620057009,-0.43256760062411,,-1.060131220028069,,
,5305.0,975.0,4173.0,839.0,-254.0,1381.0,3693.0,,,,-0.472253189042505,-2.84737468013096,-0.431313438128286,,-1.0292197641995517,,
,5309.0,974.0,4175.0,839.0,-253.0,1389.0,3696.0,,,,-0.472357881452233,-2.84741468573465,-0.431580350076067,,-0.9837763187366823,,
,5312.0,975.0,4179.0,839.0,-246.0,1377.0,3716.0,,,,-0.472622038330552,-2.84748465877998,-0.432042722894462,,-0.9220308535624911,,
,5314.0,976.0,4184.0,839.0,-250.0,1359.0,3709.0,,,,-0.472489914412,-2.84720349315146,-0.432146986020327,,-0.842761841918758,,
,5320.0,980.0,4186.0,840.0,-245.0,1351.0,3714.0,,,,-0.472264142155077,-2.84758501383406,-0.431795803081149,,-0.7454260296777816,,
,5323.0,979.0,4192.0,842.0,-258.0,1342.0,3719.0,,,,-0.472104968237753,-2.84744501705968,-0.431268332467873,,-0.630204196702883,,
,5324.0,979.0,4192.0,842.0,-257.0,1357.0,3730.0,,,,-0.472228784499761,-2.8473357492592,-0.431638082052337,,-0.49797228490975887,,
,5328.0,981.0,4196.0,843.0,-252.0,1367.0,3714.0,,,,-0.472110749272638,-2.84726812886757,-0.430831882688115,,-0.3502169989968751,,
,5330.0,982.0,4198.0,844.0,-262.0,1359.0,3708.0,,,,-0.472291087178626,-2.84710479400942,-0.430818388441936,,-0.18892067627261921,,
,5335.0,981.0,4202.0,846.0,-269.0,1352.0,3705.0,,,,-0.471877545082135,-2.84708312783222,-0.43111211723706,,-0.016441691571872488,,
,5334.0,984.0,4201.0,844.0,-279.0,1384.0,3688.0,,,,-0.472085417659554,-2.84700870391979,-0.431362404761169,,0.16458585592137942,,
,5332.0,981.0,4195.0,840.0,-288.0,1393.0,3672.0,,,,-0.471920978057668,-2.84710180181337,-0.430577996679072,,0.35131565167419726,,
,5330.0,980.0,4188.0,842.0,-258.0,1412.0,3663.0,,,,-0.471216157507103,-2.84709260158658,-0.430253414371268,,0.5407078956761335,,
,5322.0,977.0,4179.0,840.0,-257.0,1422.0,3664.0,,,,-0.471280546931633,-2.84676101741183,-0.431081623653371,,0.7295072016014333,,
,5316.0,974.0,4169.0,836.0,-260.0,1427.0,3677.0,,,,-0.471328870418555,-2.84682253218688,-0.429759073809336,,0.9141959182006767,,
,5303.0,969.0,4154.0,832.0,-259.0,1387.0,3707.0,,,,-0.471270356034892,-2.8468994808943,-0.430143480786363,,1.0909488248373578,,
,5291.0,965.0,4144.0,828.0,-258.0,1370.0,3719.0,,,,-0.47114739480333,-2.84692344526302,-0.429811146760918,,1.2556192499375338,,
,5283.0,966.0,4132.0,830.0,-249.0,1373.0,3727.0,,,,-0.471039405549702,-2.84693971101929,-0.429143551796851,,1.403783623363504,,
,5271.0,962.0,4118.0,824.0,-251.0,1376.0,3707.0,,,,-0.470625673306424,-2.84670323713841,-0.429091136509413,,1.5308620234021202,,
,5260.0,956.0,4110.0,821.0,-256.0,1386.0,3695.0,,,,-0.470589598715244,-2.84659613257814,-0.429468848994266,,1.632318845465263,,
,5251.0,954.0,4096.0,820.0,-244.0,1372.0,3711.0,,,,-0.470445022511265,-2.84660752811166,-0.429665021757945,,1.7039331726554938,,
,5241.0,954.0,4090.0,817.0,-254.0,1379.0,3697.0,,,,-0.470540205073718,-2.84662693517109,-0.429125375967898,,1.7421151692931334,,
,5236.0,953.0,4086.0,818.0,-255.0,1400.0,3688.0,,,,-0.470683480310976,-2.84684683720028,-0.429665091966136,,1.7442346204165342,,
,5231.0,952.0,4081.0,818.0,-257.0,1384.0,3671.0,,,,-0.471213221332844,-2.84700949120399,-0.43094207885928,,1.7089219157681317,,
,5224.0,949.0,4073.0,816.0,-256.0,1364.0,3682.0,,,,-0.471690120169207,-2.84717104822258,-0.431317664621953,,1.6363011776431475,,
,5219.0,950.0,4070.0,816.0,-249.0,1371.0,3702.0,,,,-0.47202017304318,-2.84745509994189,-0.431644995162177,,1.528120090726618,,
,5214.0,950.0,4068.0,814.0,-243.0,1386.0,3674.0,,,,-0.472647522774402,-2.84758397692998,-0.432148291397621,,1.3877508935156262,,
,5213.0,951.0,4065.0,814.0,-242.0,1382.0,3677.0,,,,-0.472816945774958,-2.84773960254505,-0.432435862856942,,1.2200510222822536,,
,5209.0,947.0,4061.0,814.0,-247.0,1382.0,3701.0,,,,-0.473209052443469,-2.84821323635454,-0.433411511880173,,1.0310887148550105,,
,5208.0,947.0,4061.0,814.0,-250.0,1381.0,3709.0,,,,-0.473589160121079,-2.84824108476316,-0.433581936479804,,0.8277564861167495,,
,5206.0,948.0,4061.0,818.0,-251.0,1359.0,3708.0,,,,-0.473531675043922,-2.84837499351259,-0.433227717539246,,0.6173109196754487,,
,5207.0,946.0,4061.0,814.0,-274.0,1373.0,3695.0,,,,-0.473615228438972,-2.84831205801656,-0.434287491423429,,0.4068874191601933,,
,5204.0,948.0,4058.0,813.0,-273.0,1370.0,3684.0,,,,-0.473788220986047,-2.84830041262907,-0.434191267137531,,0.20304106363016527,,
,5204.0,945.0,4060.0,811.0,-245.0,1364.0,3683.0,,,,-0.474155306134702,-2.84856129861252,-0.434476534845287,,0.011359273907184381,,
,5204.0,950.0,4056.0,815.0,-243.0,1367.0,3687.0,,,,-0.474249407654278,-2.8486248462835,-0.434334845619783,,-0.16381948090367848,,
,5203.0,949.0,4057.0,815.0,-245.0,1386.0,3692.0,,,,-0.47428627907118,-2.84871726210244,-0.434443643653428,,-0.3195613644603289,,
,5203.0,946.0,4056.0,814.0,-240.0,1392.0,3695.0,,,,-0.474196394029253,-2.8485532561703,-0.434100399423728,,-0.45436291948581964,,
,5203.0,945.0,4056.0,813.0,-267.0,1416.0,3684.0,,,,-0.474461315555724,-2.84861426825591,-0.434177726811067,,-0.5680565498307709,,
,5200.0,947.0,4058.0,814.0,-255.0,1368.0,3706.0,,,,-0.474658762882337,-2.8485363845923,-0.434755330973586,,-0.6616168988909109,,
,5204.0,949.0,4061.0,816.0,-262.0,1357.0,3703.0,,,,-0.474812212722289,-2.84856094376021,-0.434690811895705,,-0.7368974447264101,,
,5203.0,949.0,4060.0,817.0,-273.0,1368.0,3715.0,,,,-0.4746922054148,-2.84879236276904,-0.434983301793802,,-0.7963310075905349,,
,5204.0,951.0,4061.0,816.0,-261.0,1369.0,3737.0,,,,-0.474348985707374,-2.84859618810607,-0.434505532764879,,-0.842628318015619,,
,5206.0,947.0,4062.0,816.0,-255.0,1367.0,3719.0,,,,-0.474192360835042,-2.84850768121183,-0.434038041048612,,-0.8785053608703224,,
,5209.0,948.0,4062.0,817.0,-243.0,1380.0,3704.0,,,,-0.474251567777934,-2.84857572154997,-0.434389418021723,,-0.9064631000833738,,
,5207.0,950.0,4066.0,819.0,-243.0,1417.0,3685.0,,,,-0.474500843957077,-2.8484922787276,-0.435108900107571,,-0.9286330482918436,,
,5210.0,951.0,4068.0,819.0,-247.0,1408.0,3683.0,,,,-0.474418554097016,-2.84872150875675,-0.434724108748161,,-0.9466904155812735,,
,5210.0,952.0,4063.0,816.0,-232.0,1400.0,3667.0,,,,-0.474468985677127,-2.84871509303551,-0.434145328631756,,-0.9618255318222892,,
,5211.0,951.0,4066.0,819.0,-243.0,1404.0,3671.0,,,,-0.474496832865229,-2.84850988902561,-0.434949551832305,,-0.9747564564435603,,
,5211.0,951.0,4069.0,820.0,-244.0,1402.0,3691.0,,,,-0.474505881986099,-2.84855793950018,-0.434204561043071,,-0.9857629532225555,,
,5214.0,950.0,4067.0,816.0,-250.0,1397.0,3695.0,,,,-0.474352318964208,-2.84868783192685,-0.434785450337555,,-0.9947244079246711,,
,5213.0,953.0,4070.0,818.0,-256.0,1373.0,3674.0,,,,-0.47421799753321,-2.84843190701332,-0.433711297180701,,-1.0011502587720158,,
,5212.0,951.0,4068.0,817.0,-262.0,1396.0,3705.0,,,,-0.474137948815217,-2.84830100305598,-0.434209384466934,,-1.0041988994373243,,
,5216.0,951.0,4068.0,818.0,-265.0,1390.0,3710.0,,,,-0.474017743898947,-2.84848288258034,-0.433918289425606,,-1.0026879643830364,,
,5214.0,952.0,4067.0,817.0,-259.0,1399.0,3710.0,,,,-0.473817769640014,-2.84824889485142,-0.433794957308827,,-0.9951042741364751,,
,5211.0,950.0,4064.0,816.0,-260.0,1400.0,3707.0,,,,-0.473787230475821,-2.84829189631241,-0.434255000360727,,-0.9796248940463628,,
,5212.0,948.0,4065.0,815.0,-255.0,1399.0,3689.0,,,,-0.473642612546643,-2.84815755537519,-0.433254128934147,,-0.9541615048560623,,
,5210.0,952.0,4063.0,818.0,-245.0,1385.0,3694.0,,,,-0.473631381164653,-2.84834329763339,-0.433922078784762,,-0.9164386893275716,,
,5209.0,951.0,4065.0,819.0,-226.0,1378.0,3685.0,,,,-0.473595475287344,-2.84830687149782,-0.43406088270019,,-0.8641131325758692,,
,5209.0,949.0,4062.0,818.0,-237.0,1371.0,3685.0,,,,-0.473757743106662,-2.84825741087494,-0.434143194765877,,-0.7949354835737571,,
,5209.0,948.0,4063.0,818.0,-246.0,1365.0,3699.0,,,,-0.473711171531739,-2.84843411354576,-0.432913300217627,,-0.706950054320065,,
,5210.0,950.0,4064.0,817.0,-239.0,1376.0,3718.0,,,,-0.473731761716857,-2.84829095157622,-0.433620719358583,,-0.598720087763102,,
,5210.0,949.0,4066.0,818.0,-255.0,1383.0,3716.0,,,,-0.473804674001251,-2.84808106375779,-0.433730113033448,,-0.4695589292283744,,
,5212.0,953.0,4067.0,818.0,-254.0,1386.0,3687.0,,,,-0.473866557446112,-2.84832559324441,-0.433429465625903,,-0.3197416832285453,,
,5211.0,951.0,4067.0,819.0,-251.0,1391.0,3692.0,,,,-0.473695001399704,-2.84811716641014,-0.433521979990045,,-0.15066968864695138,,
,5211.0,950.0,4069.0,817.0,-256.0,1403.0,3704.0,,,,-0.473777940971378,-2.84817071792555,-0.433455958912353,,0.03503744217408304,,
,5212.0,952.0,4069.0,820.0,-252.0,1408.0,3701.0,,,,-0.47399501096238,-2.84810045990215,-0.433646576648696,,0.23354069314912412,,
,5217.0,951.0,4072.0,819.0,-256.0,1398.0,3694.0,,,,-0.473966378353378,-2.84824030569665,-0.433957688384872,,0.43988027731825236,,
,5218.0,954.0,4073.0,819.0,-265.0,1403.0,3695.0,,,,-0.473958944312446,-2.84816714685452,-0.433941834429371,,0.6481723028217128,,
,5217.0,952.0,4076.0,819.0,-259.0,1390.0,3711.0,,,,-0.473907627680374,-2.84821493127881,-0.433730265816146,,0.8518916730577384,,
,5220.0,955.0,4079.0,820.0,-254.0,1405.0,3717.0,,,,-0.473523759245349,-2.84828975349072,-0.433577616548887,,1.0442208094433103,,
,5225.0,956.0,4081.0,823.0,-239.0,1385.0,3708.0,,,,-0.474076437461487,-2.84825137751208,-0.434138202266642,,1.2184371859796115,,
,5224.0,954.0,4083.0,822.0,-239.0,1389.0,3719.0,,,,-0.473784366589725,-2.84839285155378,-0.433605672988594,,1.3683084046022658,,
,5226.0,955.0,4086.0,821.0,-245.0,1371.0,3703.0,,,,-0.473834552140996,-2.84836987511115,-0.433557807863573,,1.4884618530019662,,
,5229.0,957.0,4087.0,820.0,-242.0,1387.0,3693.0,,,,-0.47399711448303,-2.84840384855378,-0.43338538097701,,1.5746971974112876,,
,5232.0,957.0,4092.0,824.0,-257.0,1369.0,3698.0,,,,-0.473732700623407,-2.84839610990312,-0.432960265698195,,1.62421455167309,,
,5235.0,959.0,4094.0,826.0,-262.0,1395.0,3698.0,,,,-0.47359783668197,-2.84824984016872,-0.433222285379261,,1.6357394886874375,,
,5237.0,958.0,4097.0,825.0,-258.0,1384.0,3698.0,,,,-0.473546322171615,-2.84825905218927,-0.433855732860102,,1.6095377403478206,,
,5238.0,961.0,4099.0,825.0,-262.0,1374.0,3724.0,,,,-0.47343076581652,-2.8484783652257,-0.43300263001389,,1.5473257633384057,,
,5242.0,962.0,4104.0,827.0,-254.0,1396.0,3719.0,,,,-0.473188561198845,-2.84818534023631,-0.433148188986213,,1.45209545294352,,
,5246.0,961.0,4107.0,827.0,-261.0,1379.0,3696.0,,,,-0.473336442501962,-2.8481709316413,-0.433468493088403,,1.3278793075762565,,
,5248.0,964.0,4110.0,827.0,-263.0,1378.0,3695.0,,,,-0.473261059882347,-2.84806431809249,-0.433199266631858,,1.1794848632208352,,
,5252.0,962.0,4111.0,827.0,-258.0,1367.0,3703.0,,,,-0.473274520859517,-2.84795311450319,-0.43335332455997,,1.0122247019156037,,
,5252.0,963.0,4114.0,829.0,-257.0,1383.0,3675.0,,,,-0.47293974339958,-2.848227471183,-0.433004302490173,,0.8316624627973412,,
,5256.0,963.0,4118.0,829.0,-244.0,1378.0,3670.0,,,,-0.473209972872235,-2.84801630740961,-0.432877004895389,,0.6433878949239122,,
,5258.0,968.0,4121.0,832.0,-253.0,1380.0,3678.0,,,,-0.473008489292068,-2.8479758834196,-0.432498329546254,,0.4528265577686151,,
,5262.0,968.0,4126.0,832.0,-256.0,1370.0,3713.0,,,,-0.472930587576978,-2.84784691023268,-0.432372081305862,,0.2650833846130222,,
,5264.0,967.0,4129.0,829.0,-260.0,1374.0,3688.0,,,,-0.472646046186332,-2.84780410897735,-0.432822154912627,,0.08481475343618,,
,5267.0,971.0,4133.0,834.0,-242.0,1357.0,3692.0,,,,-0.472670914303139,-2.84780466215266,-0.43199150119063,,-0.08387864342919954,,
,5271.0,969.0,4136.0,836.0,-255.0,1343.0,3694.0,,,,-0.472567506940671,-2.84791953117678,-0.432425469487156,,-0.23754590377908621,,
,5275.0,969.0,4140.0,834.0,-246.0,1365.0,3681.0,,,,-0.472524334107643,-2.84763917525156,-0.432282318608746,,-0.3734725539525751,,
,5275.0,970.0,4138.0,833.0,-233.0,1370.0,3692.0,,,,-0.472187778621532,-2.84774265052617,-0.431681640401905,,-0.48976088296507125,,
,5279.0,971.0,4142.0,832.0,-249.0,1369.0,3691.0,,,,-0.472220939019273,-2.84765359029175,-0.431953248778471,,-0.5853991446781058,,
,5283.0,973.0,4147.0,836.0,-247.0,1363.0,3711.0,,,,-0.472203688113515,-2.84763832612013,-0.431858043251121,,-0.6603087093013168,,
,5287.0,974.0,4152.0,836.0,-246.0,1378.0,3695.0,,,,-0.472166880556814,-2.84777057930628,-0.432297773258751,,-0.7153542299255051,,
,5289.0,974.0,4156.0,839.0,-243.0,1371.0,3697.0,,,,-0.472144963073101,-2.84770359051296,-0.430988833307088,,-0.7523018592723159,,
,5289.0,973.0,4154.0,835.0,-254.0,1378.0,3703.0,,,,-0.472015159915517,-2.84756908340019,-0.431926502851234,,-0.7737150238319046,,
,5296.0,978.0,4161.0,840.0,-278.0,1388.0,3699.0,,,,-0.471983512967757,-2.84763745283361,-0.43129949019387,,-0.7827850484275043,,
,5299.0,977.0,4164.0,837.0,-264.0,1384.0,3695.0,,,,-0.471913778457658,-2.84748704521561,-0.431448207476378,,-0.7831029317394782,,
,5302.0,979.0,4165.0,841.0,-249.0,1376.0,3704.0,,,,-0.471863614010658,-2.8474356664515,-0.43136115596278,,-0.7783869104566515,,
