TimeLabel,MEAS1_PPG1,MEAS1_PPG2,MEAS1_PPG3,MEAS1_PPG4,ACCX,ACCY,ACCZ,HR_timestamp,HR_value,radar_timestamp,phase_rx0,phase_rx1,phase_rx2,timestep,n_process,original_rate,calculated_rate
2025-07-02 21:49:33,4939.0,1104.0,4675.0,1523.0,1938.0,2466.0,2225.0,2025-07-02 21:49:33,93.0,2025/07/02 09:49:33 PM,0.0543236971947199,-1.80286426642104,0.090209484069371,2025/07/02 09:49:33 PM,-1.525918695123831,20.02670288085937,20.05952380952381
,4942.0,1103.0,4675.0,1526.0,1950.0,2476.0,2248.0,2025-07-02 21:49:34,93.0,,0.0543321060486427,-1.80329759720922,0.09021083783158,2025/07/02 09:49:43 PM,-1.706101701058735,20.59025382995605,17.750484809308336
,4942.0,1103.0,4675.0,1526.0,1945.0,2474.0,2243.0,2025-07-02 21:49:35,93.0,,0.0542843784137191,-1.80385121834251,0.090206060463236,2025/07/02 09:49:53 PM,-1.8767262020664464,19.313304901123047,19.463960447567004
,4940.0,1102.0,4675.0,1525.0,1935.0,2464.0,2229.0,2025-07-02 21:49:36,93.0,,0.0542278816458567,-1.8040689704809,0.0902002813003853,2025/07/02 09:50:03 PM,-2.037358905907234,19.09476661682129,17.766155758077883
,4943.0,1103.0,4679.0,1526.0,1935.0,2472.0,2222.0,2025-07-02 21:49:37,93.0,,0.0542965775576509,-1.80513373842692,0.0901957429981521,2025/07/02 09:50:13 PM,-2.187556302330012,18.480493545532227,16.82316118935837
,4943.0,1103.0,4679.0,1529.0,1937.0,2467.0,2236.0,2025-07-02 21:49:38,93.0,,0.054240917588405,-1.80491753756052,0.0901909020649152,2025/07/02 09:50:23 PM,-2.3267862006491997,18.04812812805176,17.04273504273505
,4946.0,1105.0,4679.0,1528.0,1939.0,2470.0,2230.0,2025-07-02 21:49:39,93.0,,0.0542334461692759,-1.80558727798499,0.0901890182098125,2025/07/02 09:50:33 PM,-2.4543210879154396,17.505470275878906,17.11566008964466
,4945.0,1101.0,4679.0,1526.0,1935.0,2467.0,2242.0,2025-07-02 21:49:40,93.0,,0.0542739497041896,-1.80531415530867,0.090183625939436,2025/07/02 09:50:43 PM,-2.5691115307451344,17.341039657592773,16.784037558685434
,4947.0,1102.0,4681.0,1530.0,1941.0,2471.0,2243.0,2025-07-02 21:49:41,93.0,,0.0542124096197377,-1.80564874983051,0.0901799791739168,2025/07/02 09:50:53 PM,-2.669655620359138,16.937191009521484,16.38284901442796
,4948.0,1104.0,4683.0,1529.0,1934.0,2468.0,2225.0,2025-07-02 21:49:42,93.0,,0.0541504098860647,-1.80623648742584,0.090176282414495,2025/07/02 09:51:03 PM,-2.753887252562124,16.86577606201172,17.263112915286822
,4949.0,1107.0,4685.0,1531.0,1934.0,2469.0,2236.0,2025-07-02 21:49:43,93.0,,0.0541736343220805,-1.80635170250444,0.0901621682868296,2025/07/02 09:51:13 PM,-2.8191099946862073,16.759777069091797,17.145189980462508
,4952.0,1104.0,4682.0,1530.0,1934.0,2469.0,2229.0,2025-07-02 21:49:44,93.0,,0.0541607175745559,-1.80661160429001,0.0901639621203687,2025/07/02 09:51:23 PM,-2.8620027313456418,17.069700241088867,17.953158419839088
,4954.0,1105.0,4685.0,1530.0,1932.0,2468.0,2227.0,2025-07-02 21:49:45,93.0,,0.0541686488760426,-1.80662341616909,0.0901698582275689,2025/07/02 09:51:33 PM,-2.878717350599004,18.012008666992188,14.476744186046492
,4954.0,1107.0,4690.0,1532.0,1932.0,2470.0,2221.0,2025-07-02 21:49:46,94.0,,0.0541499592513236,-1.80693887380546,0.0901717215495818,2025/07/02 09:51:43 PM,-2.865077994718046,16.818500518798828,16.26338716734201
,4956.0,1109.0,4688.0,1534.0,1932.0,2480.0,2219.0,2025-07-02 21:49:47,94.0,,0.0541571241933548,-1.80638026320755,0.0901698581684567,2025/07/02 09:51:53 PM,-2.8168776665163646,16.150739669799805,19.258989952406086
,4957.0,1107.0,4693.0,1534.0,1938.0,2490.0,2225.0,2025-07-02 21:49:48,94.0,,0.0541558778284962,-1.80733256074433,0.0901590106856861,2025/07/02 09:52:03 PM,-2.7302535251368383,16.5289249420166,22.056567375370275
,4956.0,1107.0,4692.0,1533.0,1942.0,2490.0,2251.0,2025-07-02 21:49:49,94.0,,0.0541454196215811,-1.80766024267712,0.0901639642554698,2025/07/02 09:52:13 PM,-2.6021090675799283,19.751279830932617,21.06537530266341
,4958.0,1107.0,4693.0,1534.0,1952.0,2492.0,2270.0,2025-07-02 21:49:50,93.0,,0.0540973241103139,-1.80750462848498,0.0901530541411463,2025/07/02 09:52:23 PM,-2.430541249743103,20.876827239990234,19.021346188854388
,4962.0,1111.0,4696.0,1539.0,1948.0,2486.0,2273.0,2025-07-02 21:49:51,92.0,,0.0540496413284865,-1.80851257070183,0.0901542080787213,,-2.2152249798341863,,
,4962.0,1110.0,4698.0,1538.0,1954.0,2486.0,2267.0,2025-07-02 21:49:52,91.0,,0.0540636072472816,-1.80841172767879,0.0901541295961913,,-1.9577076873913888,,
,4960.0,1110.0,4698.0,1538.0,1950.0,2477.0,2245.0,2025-07-02 21:49:53,90.0,,0.0541044639980028,-1.80816816250456,0.090150504656903,,-1.6615735470013178,,
,4964.0,1110.0,4698.0,1538.0,1951.0,2468.0,2236.0,2025-07-02 21:49:54,90.0,,0.0540887528714476,-1.80848128195704,0.0901562453489385,,-1.3324499417517581,,
,4963.0,1111.0,4702.0,1536.0,1951.0,2478.0,2231.0,2025-07-02 21:49:55,90.0,,0.0540639392100622,-1.80802083914275,0.090146562763425,,-0.9778461488112203,,
,4966.0,1115.0,4704.0,1539.0,1950.0,2478.0,2243.0,2025-07-02 21:49:56,91.0,,0.054130042146181,-1.80787510330429,0.0901498946923969,,-0.6068333185269779,,
,4967.0,1111.0,4701.0,1537.0,1947.0,2495.0,2245.0,2025-07-02 21:49:57,91.0,,0.0541061932517647,-1.80813726783862,0.0901513572633268,,-0.22959244326521003,,
,4967.0,1110.0,4702.0,1540.0,1947.0,2501.0,2245.0,2025-07-02 21:49:58,92.0,,0.0540649990364363,-1.80811201975356,0.0901463216164012,,0.14312962816888544,,
,4968.0,1113.0,4707.0,1541.0,1936.0,2492.0,2230.0,2025-07-02 21:49:59,93.0,,0.0540781145271576,-1.80858433633573,0.0901456626527612,,0.5006085253546599,,
,4967.0,1113.0,4704.0,1540.0,1930.0,2480.0,2244.0,2025-07-02 21:50:00,92.0,,0.0540256787288052,-1.80941458144267,0.0901469102213451,,0.8327257337929802,,
,4963.0,1110.0,4702.0,1538.0,1936.0,2468.0,2241.0,2025-07-02 21:50:01,92.0,,0.0539942222409527,-1.80947375076149,0.0901458126678299,,1.1305010503580097,,
,4963.0,1112.0,4702.0,1536.0,1923.0,2466.0,2251.0,2025-07-02 21:50:02,92.0,,0.0539769174969935,-1.80979348065175,0.0901484672397442,,1.3865356543048948,,
,4961.0,1110.0,4699.0,1537.0,1925.0,2460.0,2268.0,2025-07-02 21:50:03,92.0,,0.0539511104465335,-1.80934279887499,0.0901438825129802,,1.5953380503668704,,
,4958.0,1109.0,4699.0,1536.0,1924.0,2458.0,2252.0,2025-07-02 21:50:04,92.0,,0.0539686521965273,-1.80975315146922,0.0901436078920167,,1.7535176017867868,,
,4957.0,1107.0,4693.0,1533.0,1924.0,2455.0,2247.0,2025-07-02 21:50:05,92.0,,0.0539518292659639,-1.80972001149889,0.0901396058745121,,1.8598425696611718,,
,4954.0,1108.0,4691.0,1533.0,1927.0,2471.0,2263.0,2025-07-02 21:50:06,92.0,,0.053985525113936,-1.80974603200431,0.0901407950787734,,1.9151697730001407,,
,4953.0,1107.0,4690.0,1532.0,1924.0,2477.0,2244.0,2025-07-02 21:50:07,92.0,,0.0540255549920592,-1.80978696748609,0.0901381843523083,,1.9222605113895568,,
,4951.0,1107.0,4689.0,1532.0,1928.0,2486.0,2244.0,2025-07-02 21:50:08,92.0,,0.0540212045397888,-1.8097710005979,0.0901441298113402,,1.8855025196335333,,
,4949.0,1105.0,4685.0,1528.0,1933.0,2489.0,2255.0,2025-07-02 21:50:09,92.0,,0.0540296991534752,-1.80940984614519,0.0901395802481266,,1.810560869101287,,
,4947.0,1105.0,4686.0,1529.0,1931.0,2478.0,2216.0,2025-07-02 21:50:10,93.0,,0.0540250969214964,-1.80964213781132,0.0901341698622422,,1.7039820677322994,,
,4947.0,1106.0,4686.0,1529.0,1943.0,2479.0,2222.0,2025-07-02 21:50:11,93.0,,0.0540556843297189,-1.80988945150297,0.0901322671754987,,1.5727753850802266,,
,4945.0,1103.0,4685.0,1530.0,1943.0,2479.0,2234.0,2025-07-02 21:50:12,94.0,,0.0540185804203587,-1.80983387636854,0.0901348924814271,,1.4239942615734025,,
,4947.0,1106.0,4685.0,1530.0,1966.0,2479.0,2235.0,2025-07-02 21:50:13,94.0,,0.054080540880269,-1.80943554300473,0.0901354730381439,,1.2643393321048857,,
,4944.0,1103.0,4683.0,1528.0,1958.0,2477.0,2246.0,2025-07-02 21:50:14,94.0,,0.0540952504006,-1.8096370206266,0.090136934051332,,1.099803591366332,,
,4944.0,1105.0,4686.0,1528.0,1960.0,2481.0,2248.0,2025-07-02 21:50:15,94.0,,0.0541042444979079,-1.81042015722776,0.0901304181632566,,0.9353794874654389,,
,4945.0,1104.0,4687.0,1527.0,1969.0,2483.0,2242.0,2025-07-02 21:50:16,94.0,,0.0540883525662606,-1.81007507145286,0.0901421376706494,,0.7748465601010442,,
,4947.0,1103.0,4687.0,1528.0,1962.0,2491.0,2267.0,2025-07-02 21:50:17,94.0,,0.0540611223498191,-1.80958676436303,0.0901306252102902,,0.6206554144382316,,
,4947.0,1104.0,4685.0,1526.0,1948.0,2491.0,2258.0,2025-07-02 21:50:18,94.0,,0.0540525653257324,-1.8100064718125,0.0901328493379498,,0.47391815792768127,,
,4948.0,1104.0,4689.0,1529.0,1954.0,2491.0,2237.0,2025-07-02 21:50:19,95.0,,0.0540371545864873,-1.81011884998099,0.0901408721173574,,0.33450674974211225,,
,4948.0,1106.0,4687.0,1533.0,1942.0,2473.0,2250.0,2025-07-02 21:50:20,94.0,,0.054055375696615,-1.80998632273029,0.0901397059662711,,0.2012502661853615,,
,4949.0,1103.0,4689.0,1528.0,1938.0,2472.0,2237.0,2025-07-02 21:50:21,94.0,,0.0540439461388911,-1.8099249379534,0.0901375858185493,,0.07221187579625624,,
,4948.0,1104.0,4689.0,1529.0,1940.0,2467.0,2226.0,2025-07-02 21:50:22,94.0,,0.054030448882973,-1.80959513454757,0.0901305729558286,,-0.05498183291364492,,
,4950.0,1107.0,4691.0,1533.0,1942.0,2466.0,2252.0,2025-07-02 21:50:23,93.0,,0.0540757004916554,-1.81017146374155,0.090133411906343,,-0.1827914022234882,,
,4952.0,1109.0,4696.0,1534.0,1933.0,2471.0,2249.0,2025-07-02 21:50:24,93.0,,0.0540557647246527,-1.80966670848987,0.0901333483545065,,-0.3134282102119911,,
,4951.0,1107.0,4695.0,1531.0,1926.0,2465.0,2247.0,2025-07-02 21:50:25,93.0,,0.0541080927942805,-1.80946483370895,0.0901388783368709,,-0.4485619627703879,,
,4949.0,1103.0,4691.0,1531.0,1939.0,2462.0,2261.0,2025-07-02 21:50:26,93.0,,0.0540506174391726,-1.80961250419421,0.0901394312665422,,-0.5890969608927069,,
,4952.0,1106.0,4694.0,1533.0,1929.0,2467.0,2270.0,2025-07-02 21:50:27,93.0,,0.0540338487937299,-1.80962936465802,0.0901363301848018,,-0.7350342898908496,,
,4952.0,1107.0,4697.0,1532.0,1929.0,2476.0,2257.0,2025-07-02 21:50:28,94.0,,0.0540403443730549,-1.81023142368206,0.0901402510903022,,-0.8854276717206874,,
,4957.0,1109.0,4697.0,1533.0,1927.0,2476.0,2264.0,2025-07-02 21:50:29,94.0,,0.0539987965821479,-1.80948683751167,0.0901404003865003,,-1.0384304782254563,,
,4955.0,1108.0,4700.0,1533.0,1931.0,2469.0,2235.0,2025-07-02 21:50:30,94.0,,0.0539738386460047,-1.80946371555802,0.0901361926657557,,-1.191421581550944,,
,4955.0,1107.0,4701.0,1536.0,1928.0,2473.0,2263.0,2025-07-02 21:50:31,94.0,,0.0539536765029982,-1.81033721697731,0.090142823365322,,-1.3411898955132204,,
,4957.0,1110.0,4701.0,1537.0,1930.0,2482.0,2257.0,2025-07-02 21:50:32,94.0,,0.0539328553229173,-1.81013439448551,0.0901416467866016,,-1.4841527261141365,,
,4956.0,1107.0,4699.0,1535.0,1935.0,2481.0,2277.0,2025-07-02 21:50:33,94.0,,0.0538930604820301,-1.81070717774621,0.0901425816244355,,-1.6165816391897747,,
,4957.0,1111.0,4701.0,1536.0,1941.0,2480.0,2269.0,2025-07-02 21:50:34,94.0,,0.0538815703094226,-1.81152384852753,0.0901349778746479,,-1.734811288821706,,
,4957.0,1106.0,4701.0,1532.0,1945.0,2474.0,2260.0,2025-07-02 21:50:35,94.0,,0.0538097623007391,-1.81223639435901,0.0901377688186192,,-1.835411339895978,,
,4958.0,1109.0,4702.0,1535.0,1942.0,2476.0,2257.0,2025-07-02 21:50:36,94.0,,0.0537844054735593,-1.81234089137078,0.0901335128326082,,-1.9153089119972122,,
,4960.0,1109.0,4703.0,1535.0,1938.0,2475.0,2261.0,2025-07-02 21:50:37,94.0,,0.0537119603445558,-1.81287092660311,0.090132235221838,,-1.9718580482497785,,
,4956.0,1109.0,4702.0,1535.0,1935.0,2470.0,2248.0,2025-07-02 21:50:38,94.0,,0.0536212645276752,-1.81348767194111,0.0901320053185119,,-2.00286219927502,,
,4959.0,1107.0,4701.0,1533.0,1937.0,2480.0,2252.0,2025-07-02 21:50:39,94.0,,0.0535941143292749,-1.81433931536859,0.0901285822842517,,-2.006563786790831,,
,4958.0,1108.0,4702.0,1536.0,1943.0,2472.0,2247.0,2025-07-02 21:50:40,93.0,,0.0535279865272179,-1.81452278813963,0.0901246570669131,,-1.9816195637557867,,
,4959.0,1110.0,4702.0,1536.0,1966.0,2478.0,2250.0,2025-07-02 21:50:41,93.0,,0.0535586810512466,-1.81526416667901,0.090123774530525,,-1.927080194792643,,
,4956.0,1108.0,4702.0,1537.0,1966.0,2487.0,2251.0,2025-07-02 21:50:42,92.0,,0.0535438725366964,-1.81508979573946,0.0901214939960861,,-1.8423872364476481,,
,4956.0,1109.0,4702.0,1534.0,1960.0,2493.0,2251.0,2025-07-02 21:50:43,91.0,,0.0535484484431077,-1.81477484788305,0.0901166785824301,,-1.7273925349796955,,
,4960.0,1108.0,4704.0,1537.0,1948.0,2477.0,2250.0,2025-07-02 21:50:44,90.0,,0.0535996484918943,-1.81455642569458,0.0901181603207231,,-1.582397122745175,,
,4962.0,1111.0,4705.0,1537.0,1932.0,2479.0,2249.0,2025-07-02 21:50:45,89.0,,0.0536067787493372,-1.81436000342418,0.0901169536259707,,-1.408201370302076,,
,4961.0,1112.0,4707.0,1536.0,1930.0,2483.0,2256.0,2025-07-02 21:50:46,88.0,,0.0536310156928473,-1.81492516061461,0.0901255665242469,,-1.2061560587067979,,
,4960.0,1108.0,4707.0,1537.0,1938.0,2481.0,2240.0,2025-07-02 21:50:47,88.0,,0.0536856672493258,-1.8138856657268,0.090129048800344,,-0.9782046017302911,,
,4965.0,1109.0,4708.0,1536.0,1928.0,2473.0,2248.0,2025-07-02 21:50:48,89.0,,0.0537083023165096,-1.81350018062767,0.0901455557653254,,-0.7269090690427837,,
,4966.0,1111.0,4710.0,1541.0,1929.0,2480.0,2248.0,2025-07-02 21:50:49,89.0,,0.0537014367732794,-1.81268666978985,0.0901381117749461,,-0.4554561414587251,,
,4966.0,1113.0,4712.0,1540.0,1933.0,2481.0,2265.0,2025-07-02 21:50:50,89.0,,0.0537770659208656,-1.81255680659539,0.0901427038491,,-0.16764271903451355,,
,4968.0,1111.0,4710.0,1538.0,1951.0,2486.0,2250.0,2025-07-02 21:50:51,89.0,,0.0537641064987294,-1.81211542486012,0.0901483786815705,,0.1321564110899796,,
,4965.0,1111.0,4713.0,1538.0,1935.0,2482.0,2260.0,2025-07-02 21:50:52,89.0,,0.0538174321841149,-1.81182568554672,0.0901498841239007,,0.4390355154576005,,
,4967.0,1114.0,4715.0,1542.0,1938.0,2471.0,2246.0,2025-07-02 21:50:53,89.0,,0.0538258806435582,-1.81190944188609,0.0901498091560521,,0.7476175373388505,,
,4971.0,1113.0,4714.0,1541.0,1929.0,2469.0,2259.0,2025-07-02 21:50:54,89.0,,0.0538216572554124,-1.81144065849139,0.0901529513521112,,1.0521282056353682,,
,4972.0,1115.0,4716.0,1542.0,1927.0,2470.0,2251.0,2025-07-02 21:50:55,90.0,,0.0538520667475192,-1.81067514919953,0.0901504461820804,,1.3464913881592186,,
,4971.0,1115.0,4716.0,1541.0,1931.0,2472.0,2255.0,2025-07-02 21:50:56,90.0,,0.0539131662503814,-1.81075763665399,0.0901624599714523,,1.6244563235877685,,
,4975.0,1116.0,4719.0,1543.0,1929.0,2466.0,2261.0,2025-07-02 21:50:57,90.0,,0.0539047779624745,-1.81066136395025,0.0901559632177796,,1.879767601733283,,
,4974.0,1116.0,4721.0,1546.0,1929.0,2467.0,2257.0,2025-07-02 21:50:58,89.0,,0.0539576310253014,-1.81093783717623,0.0901630327411894,,2.1063840102609017,,
,4974.0,1118.0,4723.0,1546.0,1938.0,2466.0,2244.0,2025-07-02 21:50:59,89.0,,0.0539399895284418,-1.81078282779555,0.0901596775951208,,2.298743183656882,,
,4977.0,1117.0,4722.0,1543.0,1939.0,2474.0,2246.0,2025-07-02 21:51:00,89.0,,0.0539187210357605,-1.810715161011,0.09015500588067,,2.4520573693387777,,
,4975.0,1115.0,4724.0,1543.0,1933.0,2473.0,2232.0,2025-07-02 21:51:01,88.0,,0.0538959144599987,-1.81105202765757,0.0901567375212808,,2.5626142179765394,,
,4979.0,1119.0,4726.0,1546.0,1926.0,2467.0,2243.0,2025-07-02 21:51:02,89.0,,0.0538824613064812,-1.81084617477759,0.090152281920447,,2.628048118822314,,
,4980.0,1118.0,4725.0,1546.0,1931.0,2470.0,2234.0,2025-07-02 21:51:03,89.0,,0.0539031207098845,-1.81112404853918,0.0901630529577589,,2.647544715186169,,
,4980.0,1120.0,4727.0,1546.0,1933.0,2480.0,2233.0,2025-07-02 21:51:04,89.0,,0.0538939002608491,-1.81140947549409,0.0901554031155508,,2.621945327462936,,
,4983.0,1119.0,4728.0,1549.0,1932.0,2476.0,2226.0,2025-07-02 21:51:05,90.0,,0.0538729615893711,-1.81154890876005,0.0901605883636944,,2.5537290332458955,,
,4985.0,1120.0,4732.0,1548.0,1927.0,2471.0,2254.0,2025-07-02 21:51:06,90.0,,0.053859455106319,-1.81160129665201,0.0901515643539843,,2.446866453464026,,
,4982.0,1119.0,4731.0,1549.0,1927.0,2469.0,2260.0,2025-07-02 21:51:07,90.0,,0.0538617691535099,-1.81141383248571,0.0901605650430373,,2.3065578252003744,,
,4985.0,1120.0,4732.0,1550.0,1924.0,2468.0,2233.0,2025-07-02 21:51:08,89.0,,0.0538492795937264,-1.81137172912788,0.0901549907858297,,2.1388847192611005,,
,4987.0,1122.0,4732.0,1551.0,1927.0,2466.0,2232.0,2025-07-02 21:51:09,89.0,,0.0538298121004699,-1.81188296572359,0.0901577532770139,,1.950415933420756,,
,4991.0,1123.0,4738.0,1552.0,1930.0,2465.0,2247.0,2025-07-02 21:51:10,90.0,,0.0538233864956433,-1.8119941489663,0.0901538881700604,,1.7478114789682453,,
,4987.0,1124.0,4738.0,1549.0,1935.0,2465.0,2253.0,2025-07-02 21:51:11,90.0,,0.0538537539320814,-1.81169290738124,0.0901492662385499,,1.5374644169288347,,
,4991.0,1124.0,4738.0,1553.0,1950.0,2475.0,2244.0,2025-07-02 21:51:12,90.0,,0.0538195976567442,-1.81160395093883,0.0901554418270044,,1.3252105266638685,,
,4991.0,1124.0,4736.0,1552.0,1944.0,2478.0,2240.0,2025-07-02 21:51:13,90.0,,0.0537498380958264,-1.81199480095729,0.0901457923282382,,1.1161228185297756,,
,4993.0,1124.0,4743.0,1556.0,1948.0,2482.0,2261.0,2025-07-02 21:51:14,90.0,,0.0538300186937905,-1.81275322879741,0.0901372085527178,,0.9143941066287435,,
,4993.0,1126.0,4743.0,1555.0,1939.0,2472.0,2253.0,2025-07-02 21:51:15,90.0,,0.0538344100082921,-1.81235068777515,0.0901460942793054,,0.7232985752550688,,
,4996.0,1129.0,4745.0,1555.0,1937.0,2462.0,2264.0,2025-07-02 21:51:16,90.0,,0.0538009016637447,-1.81243100200547,0.0901577772097005,,0.5452145460844701,,
,4995.0,1125.0,4745.0,1554.0,1931.0,2476.0,2229.0,2025-07-02 21:51:17,91.0,,0.053812400319827,-1.81264269455976,0.090149575427638,,0.381686708457104,,
,4997.0,1125.0,4746.0,1557.0,1945.0,2476.0,2223.0,2025-07-02 21:51:18,90.0,,0.0538560270366234,-1.81219404928053,0.0901483999480868,,0.23350710413931164,,
,4999.0,1130.0,4749.0,1557.0,1936.0,2472.0,2238.0,2025-07-02 21:51:19,90.0,,0.0538645222073116,-1.81258202844228,0.0901443571366566,,0.10079936813443632,,
,5000.0,1129.0,4750.0,1557.0,1939.0,2471.0,2231.0,2025-07-02 21:51:20,90.0,,0.0538067709723015,-1.81228249479591,0.0901416902468671,,-0.016901701230564323,,
,4996.0,1124.0,4748.0,1557.0,1953.0,2479.0,2231.0,2025-07-02 21:51:21,90.0,,0.0538177242809478,-1.81210000197326,0.0901435970791439,,-0.12057580086752381,,
,4998.0,1124.0,4748.0,1555.0,1933.0,2472.0,2233.0,2025-07-02 21:51:22,90.0,,0.0538211103956318,-1.81277231111494,0.0901514107281361,,-0.2116436209390694,,
,4997.0,1126.0,4750.0,1559.0,1928.0,2471.0,2230.0,2025-07-02 21:51:23,90.0,,0.0537899299566856,-1.81202083458657,0.0901444835819406,,-0.29188809616565486,,
,4995.0,1129.0,4747.0,1555.0,1929.0,2475.0,2245.0,2025-07-02 21:51:24,91.0,,0.0538385906051711,-1.81246997633809,0.0901499944839414,,-0.3633654298906709,,
,4992.0,1126.0,4743.0,1553.0,1934.0,2466.0,2257.0,2025-07-02 21:51:25,91.0,,0.0538036203786938,-1.81189126249476,0.0901530368378773,,-0.42830392592764044,,
,4990.0,1125.0,4742.0,1552.0,1933.0,2466.0,2265.0,2025-07-02 21:51:26,91.0,,0.0538360825600586,-1.81191444314175,0.090154536915944,,-0.4889926768831204,,
,4987.0,1124.0,4741.0,1549.0,1929.0,2459.0,2257.0,2025-07-02 21:51:27,92.0,,0.0538022547125571,-1.81245168570372,0.0901478332860452,,-0.547666195602377,,
,4987.0,1124.0,4739.0,1551.0,1933.0,2459.0,2267.0,2025-07-02 21:51:28,93.0,,0.053830285746809,-1.81195674313966,0.0901471517587551,,-0.6063941492860352,,
,4984.0,1122.0,4734.0,1547.0,1933.0,2467.0,2266.0,2025-07-02 21:51:29,93.0,,0.0538560057221256,-1.81219098651644,0.0901474225435513,,-0.66698661517791,,
,4981.0,1122.0,4734.0,1546.0,1927.0,2465.0,2283.0,2025-07-02 21:51:30,93.0,,0.0537659942798637,-1.81235217959448,0.0901539360499295,,-0.7309240478230224,,
,4978.0,1122.0,4731.0,1547.0,1933.0,2464.0,2271.0,2025-07-02 21:51:31,93.0,,0.0538346255045552,-1.81165671436874,0.0901482347674355,,-0.7993170863249978,,
,4977.0,1121.0,4733.0,1547.0,1932.0,2467.0,2285.0,2025-07-02 21:51:32,93.0,,0.0537920985479157,-1.81196045194967,0.0901441149038189,,-0.8728949862633427,,
,4975.0,1119.0,4727.0,1545.0,1946.0,2475.0,2284.0,2025-07-02 21:51:33,93.0,,0.0538299808037041,-1.81262069372135,0.0901567577428058,,-0.9520146761337815,,
,4972.0,1118.0,4727.0,1543.0,1948.0,2479.0,2258.0,2025-07-02 21:51:34,93.0,,0.0538403388139113,-1.81245073211956,0.0901515859363058,,-1.0366776852057684,,
,4974.0,1118.0,4728.0,1544.0,1946.0,2479.0,2249.0,2025-07-02 21:51:35,93.0,,0.053800566257704,-1.81256493552292,0.0901487887789104,,-1.126541184032042,,
,4974.0,1118.0,4729.0,1544.0,1950.0,2480.0,2254.0,2025-07-02 21:51:36,94.0,,0.0537892391957219,-1.81260451609252,0.0901449402031455,,-1.2209123022557022,,
,4974.0,1118.0,4725.0,1543.0,1952.0,2491.0,2229.0,2025-07-02 21:51:37,94.0,,0.0538519171016478,-1.81235300825082,0.0901420167281221,,-1.3187207255841384,,
,4974.0,1117.0,4726.0,1543.0,1946.0,2475.0,2223.0,2025-07-02 21:51:38,95.0,,0.0537691877218985,-1.81188976034596,0.0901480008796632,,-1.4184717830746745,,
,4972.0,1116.0,4729.0,1543.0,1942.0,2469.0,2223.0,2025-07-02 21:51:39,96.0,,0.0538284510308062,-1.81259148836396,0.0901381325050259,,-1.518189147963017,,
,4975.0,1121.0,4728.0,1543.0,1945.0,2473.0,2219.0,2025-07-02 21:51:40,95.0,,0.0537789942063968,-1.81299681975774,0.0901406026641075,,-1.6153614255298723,,
2025-07-02 21:49:34,4973.0,1121.0,4729.0,1544.0,1942.0,2478.0,2235.0,2025-07-02 21:51:41,94.0,2025/07/02 09:49:34 PM,0.0538604662728314,-1.80966663802658,0.0902009863529928,,-1.7069094335940613,,
,4972.0,1116.0,4728.0,1542.0,1932.0,2474.0,2266.0,2025-07-02 21:51:42,93.0,,0.0538411738331274,-1.80958757927714,0.0902002291104234,,-1.7891907702499306,,
,4972.0,1120.0,4728.0,1544.0,1943.0,2474.0,2265.0,2025-07-02 21:51:43,91.0,,0.0537954933157235,-1.80925903300774,0.0901964883541179,,-1.8580555774402596,,
,4973.0,1119.0,4730.0,1545.0,1941.0,2479.0,2251.0,2025-07-02 21:51:44,90.0,,0.0538151278877204,-1.80989447879248,0.0901896241915835,,-1.908962521091511,,
,4974.0,1118.0,4729.0,1545.0,1938.0,2471.0,2247.0,2025-07-02 21:51:45,89.0,,0.0537744188418729,-1.8098675735911,0.090194639556803,,-1.9371572622757454,,
,4972.0,1118.0,4730.0,1544.0,1937.0,2481.0,2268.0,2025-07-02 21:51:46,89.0,,0.0537655534302115,-1.8101155658449,0.090193949173032,,-1.9379078743568061,,
,4977.0,1120.0,4731.0,1545.0,1927.0,2465.0,2246.0,2025-07-02 21:51:47,89.0,,0.0537729043261044,-1.80969984587467,0.0901924225926183,,-1.9067840035823584,,
,4978.0,1120.0,4732.0,1548.0,1935.0,2463.0,2252.0,2025-07-02 21:51:48,90.0,,0.0537404772143521,-1.81047268185813,0.0901966425126774,,-1.8399602590076707,,
,4977.0,1121.0,4733.0,1545.0,1931.0,2464.0,2246.0,2025-07-02 21:51:49,90.0,,0.0537535965708298,-1.81049913355218,0.0901933604203939,,-1.7345201252819256,,
,4976.0,1121.0,4735.0,1547.0,1928.0,2450.0,2248.0,2025-07-02 21:51:50,90.0,,0.0537164399961727,-1.81079545241829,0.0901887841216782,,-1.5887350617567206,,
,4977.0,1121.0,4734.0,1545.0,1937.0,2477.0,2250.0,2025-07-02 21:51:51,91.0,,0.0537052946278586,-1.81064759493354,0.0901964948390158,,-1.4022945335157657,,
,4980.0,1122.0,4737.0,1547.0,1935.0,2474.0,2251.0,2025-07-02 21:51:52,91.0,,0.0537438199660887,-1.80969001747424,0.0901946254058047,,-1.1764662108290884,,
,4980.0,1121.0,4738.0,1548.0,1935.0,2480.0,2263.0,2025-07-02 21:51:53,91.0,,0.0537544612463554,-1.80976606094006,0.0901964184965811,,-0.9141708452166604,,
,4978.0,1121.0,4737.0,1547.0,1944.0,2470.0,2252.0,2025-07-02 21:51:54,92.0,,0.0537989383499934,-1.80967855323522,0.0901938494814145,,-0.6199628401489432,,
,4981.0,1119.0,4738.0,1547.0,1930.0,2467.0,2235.0,2025-07-02 21:51:55,93.0,,0.0537526882073706,-1.80902968553106,0.090197744247345,,-0.29991481836852324,,
,4979.0,1123.0,4740.0,1548.0,1931.0,2468.0,2250.0,2025-07-02 21:51:56,94.0,,0.0537867803287654,-1.80945456317159,0.0902012654369659,,0.03858832132357562,,
,4978.0,1124.0,4741.0,1549.0,1932.0,2460.0,2247.0,2025-07-02 21:51:57,94.0,,0.0538009533571709,-1.80947249552317,0.090203211633206,,0.3871345548868926,,
,4982.0,1123.0,4740.0,1546.0,1930.0,2464.0,2266.0,2025-07-02 21:51:58,94.0,,0.0537999837590409,-1.80893930887622,0.0902025210201925,,0.7366341795161193,,
,4980.0,1122.0,4740.0,1547.0,1935.0,2473.0,2251.0,2025-07-02 21:51:59,93.0,,0.053798492861168,-1.80927024333267,0.0902008748867607,,1.077716757257803,,
,4979.0,1122.0,4740.0,1549.0,1933.0,2477.0,2243.0,2025-07-02 21:52:00,92.0,,0.0537398237911203,-1.80961676576561,0.0902046120502179,,1.4011571661336104,,
,4979.0,1122.0,4742.0,1549.0,1929.0,2469.0,2253.0,2025-07-02 21:52:01,91.0,,0.0536805772970996,-1.80849737226116,0.0902047212869609,,1.6983099566386304,,
,4982.0,1123.0,4743.0,1548.0,1930.0,2470.0,2256.0,2025-07-02 21:52:02,90.0,,0.0537372668921753,-1.80858117638967,0.0901989461302705,,1.9615280292308557,,
,4981.0,1125.0,4742.0,1547.0,1932.0,2459.0,2264.0,2025-07-02 21:52:03,90.0,,0.0537598765345302,-1.80922840445981,0.0902046694778461,,2.184538718156079,,
,4980.0,1122.0,4744.0,1549.0,1934.0,2463.0,2250.0,2025-07-02 21:52:04,91.0,,0.0537536473254467,-1.80909070748305,0.0902000211310789,,2.362749003671834,,
,4984.0,1124.0,4743.0,1551.0,1948.0,2464.0,2231.0,2025-07-02 21:52:05,92.0,,0.0537530015053418,-1.80926834706307,0.090202208338502,,2.4934529643347756,,
,4979.0,1123.0,4744.0,1548.0,1949.0,2465.0,2238.0,2025-07-02 21:52:06,93.0,,0.053818574766263,-1.80928764085871,0.0901975232811205,,2.5759196134753473,,
,4980.0,1123.0,4741.0,1549.0,1940.0,2452.0,2239.0,2025-07-02 21:52:07,93.0,,0.0537401182363271,-1.80913050496793,0.090196145048806,,2.611348273265762,,
,4984.0,1123.0,4744.0,1548.0,1945.0,2466.0,2241.0,2025-07-02 21:52:08,94.0,,0.0537829257403594,-1.80939707097356,0.09020793303823,,2.602691050971488,,
,4983.0,1125.0,4743.0,1549.0,1947.0,2465.0,2238.0,2025-07-02 21:52:09,94.0,,0.0537954090435284,-1.80948157099613,0.090196986440881,,2.5543562246760323,,
,4984.0,1124.0,4746.0,1548.0,1944.0,2464.0,2240.0,2025-07-02 21:52:10,94.0,,0.0537339522904595,-1.80959588390584,0.0901936747172113,,2.4718201997371825,,
,4982.0,1124.0,4743.0,1551.0,1940.0,2472.0,2237.0,2025-07-02 21:52:11,93.0,,0.0537270258945383,-1.80999081954948,0.0901857747870872,,2.361186762164059,,
,4984.0,1125.0,4746.0,1550.0,1948.0,2471.0,2239.0,2025-07-02 21:52:12,94.0,,0.0536965609361127,-1.80995908079993,0.0901900154059525,,2.2287384192176223,,
,4984.0,1125.0,4748.0,1554.0,1938.0,2468.0,2268.0,2025-07-02 21:52:13,94.0,,0.0537435196081847,-1.81018230141637,0.0901839951312306,,2.0805242158561756,,
,4989.0,1129.0,4750.0,1554.0,1939.0,2470.0,2250.0,2025-07-02 21:52:14,94.0,,0.0537684569985571,-1.81028361074468,0.090180936814265,,1.922021559437194,,
,4985.0,1126.0,4749.0,1552.0,1934.0,2481.0,2238.0,2025-07-02 21:52:15,95.0,,0.0537215728335873,-1.81053393216128,0.0901795075782442,,1.757897842595023,,
,4990.0,1125.0,4751.0,1552.0,1929.0,2475.0,2252.0,2025-07-02 21:52:16,95.0,,0.0537065555321713,-1.81059312395835,0.0901724316220159,,1.591883305294662,,
,4988.0,1128.0,4752.0,1553.0,1936.0,2478.0,2241.0,2025-07-02 21:52:17,95.0,,0.0536992441301843,-1.81118020167625,0.0901751453695517,,1.4267518075768824,,
,4990.0,1128.0,4754.0,1555.0,1934.0,2475.0,2251.0,2025-07-02 21:52:18,96.0,,0.0537059548184521,-1.81166579375204,0.0901693574330961,,1.264392979034018,,
,4991.0,1126.0,4753.0,1554.0,1934.0,2465.0,2243.0,2025-07-02 21:52:19,96.0,,0.053737523402756,-1.81115395040051,0.0901746843643387,,1.1059494049177396,,
,4991.0,1126.0,4756.0,1556.0,1939.0,2464.0,2247.0,2025-07-02 21:52:20,97.0,,0.0536688419917555,-1.81099402388382,0.0901757206668995,,0.9519874823272448,,
,4995.0,1129.0,4756.0,1555.0,1936.0,2472.0,2248.0,2025-07-02 21:52:21,97.0,,0.0537820635248898,-1.81122570173355,0.0901719218563279,,0.8026708980623861,,
,4994.0,1130.0,4758.0,1555.0,1942.0,2475.0,2218.0,2025-07-02 21:52:22,96.0,,0.0537589285308166,-1.81143412627013,0.0901756042879578,,0.6579110382533111,,
,4996.0,1130.0,4757.0,1557.0,1943.0,2468.0,2216.0,2025-07-02 21:52:23,96.0,,0.0537623468454389,-1.81079281606107,0.0901734280893279,,0.5174779293272188,,
,4995.0,1127.0,4757.0,1555.0,1930.0,2464.0,2255.0,2025-07-02 21:52:24,96.0,,0.0537682022183119,-1.81120699164015,0.0901863887146296,,0.3810665584138345,,
,4999.0,1132.0,4761.0,1558.0,1942.0,2468.0,2264.0,2025-07-02 21:52:25,96.0,,0.0537663858014892,-1.81131360850866,0.090173194010357,,0.2483239673284881,,
,5001.0,1132.0,4763.0,1558.0,1943.0,2480.0,2240.0,2025-07-02 21:52:26,97.0,,0.053743988988773,-1.81141687740219,0.0901732049663198,,0.1188498900363271,,
,4999.0,1133.0,4764.0,1558.0,1933.0,2481.0,2244.0,2025-07-02 21:52:27,97.0,,0.0536610790566462,-1.81089017468228,0.0901709455672735,,-0.007813244114968313,,
,5001.0,1132.0,4764.0,1560.0,1932.0,2468.0,2241.0,2025-07-02 21:52:28,96.0,,0.0537914983492712,-1.81166457607452,0.0901762761405238,,-0.1321860041376067,,
,5004.0,1132.0,4767.0,1561.0,1943.0,2467.0,2248.0,2025-07-02 21:52:29,96.0,,0.0537623984451467,-1.81198853425049,0.090170679287822,,-0.25484212891818914,,
,5001.0,1132.0,4767.0,1559.0,1941.0,2469.0,2250.0,2025-07-02 21:52:30,96.0,,0.053607049688474,-1.81258693763273,0.0901623264000341,,-0.37637745797266214,,
,5002.0,1133.0,4771.0,1561.0,1946.0,2477.0,2246.0,2025-07-02 21:52:31,96.0,,0.0536561797665787,-1.81337877751209,0.0901558693001016,,-0.49735821995583424,,
,5003.0,1133.0,4767.0,1561.0,1944.0,2478.0,2238.0,2025-07-02 21:52:32,96.0,,0.0535795779817876,-1.81444409408707,0.0901467650746535,,-0.6182553077850724,,
,5006.0,1133.0,4769.0,1561.0,1939.0,2476.0,2233.0,,,,0.0535142218278223,-1.81527294848914,0.0901357770241866,,-0.73937578455133,,
,5009.0,1136.0,4771.0,1563.0,1928.0,2475.0,2250.0,,,,0.053428694919523,-1.81674089236686,0.090137342102837,,-0.8608051763875222,,
,5009.0,1134.0,4774.0,1564.0,1929.0,2472.0,2250.0,,,,0.0533718454562385,-1.81733024284203,0.0901242801742585,,-0.9823735421987697,,
,5007.0,1136.0,4774.0,1565.0,1945.0,2479.0,2268.0,,,,0.0533527676607397,-1.81816507530474,0.0901125286628581,,-1.103654624055626,,
,5010.0,1135.0,4776.0,1565.0,1947.0,2470.0,2285.0,,,,0.0532563858034496,-1.81959407646081,0.0901112983996725,,-1.2240009209926248,,
,5011.0,1136.0,4776.0,1566.0,1935.0,2469.0,2283.0,,,,0.0532197749030416,-1.81972513981088,0.0901119947882704,,-1.3426095800477813,,
,5013.0,1138.0,4780.0,1566.0,1931.0,2463.0,2281.0,,,,0.0532088611213429,-1.8211537669799,0.0900901918170115,,-1.4586066827771575,,
,5013.0,1139.0,4780.0,1567.0,1936.0,2458.0,2286.0,,,,0.0532083356951754,-1.82072733746541,0.0900907542571758,,-1.571132886165114,,
,5013.0,1138.0,4779.0,1566.0,1937.0,2465.0,2288.0,,,,0.0531715638938331,-1.8214007004256,0.090084119876593,,-1.679412456839231,,
,5016.0,1140.0,4782.0,1570.0,1934.0,2464.0,2260.0,,,,0.0531528443228484,-1.82154065947791,0.0900822035248456,,-1.7827903424834532,,
,5015.0,1141.0,4783.0,1570.0,1934.0,2475.0,2243.0,,,,0.0531881927516431,-1.82115814815064,0.0900916830042353,,-1.8807273134336115,,
,5016.0,1136.0,4782.0,1569.0,1936.0,2494.0,2247.0,,,,0.0532025995804261,-1.82141579264216,0.0900928417871499,,-1.9727504565047138,,
,5010.0,1136.0,4782.0,1567.0,1933.0,2476.0,2253.0,,,,0.0532531508378915,-1.82060790973582,0.0900911986564556,,-2.0583642757882132,,
,5010.0,1138.0,4781.0,1568.0,1935.0,2483.0,2237.0,,,,0.0532323170105586,-1.82039936264748,0.0900967799040732,,-2.136935082577586,,
,5009.0,1140.0,4780.0,1566.0,1929.0,2469.0,2228.0,,,,0.0532469865928865,-1.82046042852487,0.0900916593775019,,-2.207567091136581,,
,5007.0,1136.0,4777.0,1565.0,1929.0,2476.0,2222.0,,,,0.0532581495951495,-1.8195787289529,0.0901057512358527,,-2.268991748850788,,
,5002.0,1138.0,4769.0,1559.0,1926.0,2472.0,2236.0,,,,0.0533706067242812,-1.81933607162992,0.0901065700323668,,-2.319491595991168,,
,4999.0,1134.0,4772.0,1561.0,1926.0,2469.0,2256.0,,,,0.0533184312415358,-1.81908239243605,0.0901069559342612,,-2.3568760325119964,,
,4998.0,1132.0,4769.0,1559.0,1924.0,2469.0,2281.0,,,,0.0533781114145772,-1.81878183049312,0.0901082279528623,,-2.3785191353294004,,
,4996.0,1132.0,4767.0,1560.0,1926.0,2472.0,2285.0,,,,0.0533742789586188,-1.81830568028094,0.090097277972754,,-2.381460383024551,,
,4991.0,1129.0,4764.0,1557.0,1922.0,2464.0,2279.0,,,,0.0533460930508324,-1.81856767458908,0.0901109306066283,,-2.362559780000591,,
,4990.0,1131.0,4765.0,1556.0,1925.0,2463.0,2270.0,,,,0.0533674010095648,-1.81848581119639,0.0901070331886877,,-2.3186914813708395,,
,4987.0,1131.0,4762.0,1556.0,1926.0,2459.0,2255.0,,,,0.053340839724203,-1.81917029253864,0.0901064047179436,,-2.2469559565079327,,
,4984.0,1131.0,4762.0,1556.0,1931.0,2461.0,2246.0,,,,0.053303019710892,-1.81914283007406,0.0900962828275947,,-2.144890282248122,,
,4984.0,1130.0,4760.0,1555.0,1939.0,2474.0,2257.0,,,,0.0533432157471637,-1.819143288976,0.0900987610362558,,-2.010658764943346,,
,4983.0,1131.0,4758.0,1554.0,1950.0,2482.0,2222.0,,,,0.0533329175089226,-1.81943242511677,0.0901005973612293,,-1.8432107487534801,,
,4980.0,1128.0,4759.0,1553.0,1949.0,2472.0,2222.0,,,,0.0533134717757068,-1.81964605632881,0.0900952277512763,,-1.6423979957416046,,
,4981.0,1129.0,4762.0,1553.0,1947.0,2471.0,2228.0,,,,0.0533139408479228,-1.81989243316601,0.090089180256527,,-1.4090492859351718,,
,4980.0,1127.0,4758.0,1553.0,1958.0,2478.0,2210.0,,,,0.0532974233774729,-1.81997173687333,0.0900950267102984,,-1.145004089934541,,
,4981.0,1126.0,4758.0,1553.0,1946.0,2471.0,2209.0,,,,0.0533357895911207,-1.82051983605118,0.0900891091265552,,-0.8531100034235755,,
,4978.0,1129.0,4763.0,1554.0,1957.0,2493.0,2211.0,,,,0.0533016310088089,-1.82085251462339,0.0900889091667051,,-0.5371899919932679,,
,4981.0,1128.0,4760.0,1555.0,1951.0,2490.0,2195.0,,,,0.05324361255525,-1.82094130340112,0.0900903215757836,,-0.2019850710482845,,
,4978.0,1131.0,4758.0,1554.0,1947.0,2476.0,2195.0,,,,0.0532467238810692,-1.82090749422001,0.090082849526796,,0.14692451433008602,,
,4978.0,1126.0,4758.0,1553.0,1945.0,2475.0,2230.0,,,,0.0532669825372684,-1.82105965306374,0.0900853475354184,,0.5032209016778211,,
,4980.0,1130.0,4761.0,1555.0,1939.0,2472.0,2254.0,,,,0.0532487211033134,-1.82107919327297,0.0900803630096225,,0.8599789277758207,,
,4979.0,1128.0,4763.0,1554.0,1935.0,2467.0,2248.0,,,,0.0532253548053463,-1.82141063144185,0.0900733238722982,,1.209833744841862,,
,4979.0,1130.0,4765.0,1554.0,1935.0,2462.0,2227.0,,,,0.0532352519619914,-1.82150215730746,0.0900756566251473,,1.545193433045413,,
,4978.0,1130.0,4763.0,1554.0,1943.0,2465.0,2250.0,,,,0.0532119438020913,-1.82097232397623,0.0900696425882785,,1.8584995051704674,,
,4983.0,1131.0,4762.0,1555.0,1929.0,2464.0,2228.0,,,,0.0531895243579143,-1.82128404240173,0.0900736344920783,,2.1425303235778816,,
,4979.0,1128.0,4763.0,1554.0,1926.0,2470.0,2232.0,,,,0.0532232801483879,-1.8209445153768,0.0900820211153994,,2.3907329709529335,,
,4980.0,1128.0,4763.0,1556.0,1927.0,2460.0,2230.0,,,,0.0533000784941981,-1.82091443445779,0.0900819111749907,,2.5975598852281223,,
,4981.0,1126.0,4763.0,1553.0,1931.0,2463.0,2242.0,,,,0.0533227025517437,-1.82134180382989,0.0900880117503156,,2.7587796056287415,,
,4981.0,1129.0,4767.0,1558.0,1940.0,2469.0,2260.0,,,,0.0532362491966723,-1.82074916580853,0.0900819328786214,,2.871728039632721,,
,4983.0,1132.0,4768.0,1556.0,1934.0,2493.0,2265.0,,,,0.0532542724926021,-1.8211713195878,0.0900898727974588,,2.9354687967885527,,
,4983.0,1132.0,4768.0,1557.0,1927.0,2493.0,2265.0,,,,0.0532781738114256,-1.82076865882229,0.0900802064182568,,2.9508385170172957,,
,4980.0,1128.0,4765.0,1557.0,1929.0,2494.0,2274.0,,,,0.0532228452685451,-1.82085159789598,0.0900897138715489,,2.920365106064628,,
,4981.0,1130.0,4766.0,1556.0,1933.0,2487.0,2275.0,,,,0.05324455146996,-1.82091740066263,0.090087664307806,,2.8480619129539333,,
,4980.0,1131.0,4769.0,1558.0,1928.0,2475.0,2266.0,,,,0.0532364782563336,-1.82076161150455,0.0900827573026953,,2.7391167179621614,,
,4981.0,1130.0,4769.0,1558.0,1928.0,2471.0,2255.0,,,,0.0532649397320561,-1.82080779943809,0.0900813080060842,,2.5995077580731296,,
,4979.0,1129.0,4767.0,1554.0,1920.0,2474.0,2255.0,,,,0.0532973318471576,-1.82074001486426,0.0900790220190456,,2.4355869852914283,,
,4979.0,1131.0,4768.0,1555.0,1929.0,2470.0,2256.0,,,,0.0533016057832002,-1.82059511755672,0.0900792182483144,,2.2536720609013052,,
,4981.0,1129.0,4766.0,1555.0,1925.0,2478.0,2232.0,,,,0.0533663148709286,-1.8211528656963,0.0900751478426938,,2.059684008025754,,
,4980.0,1131.0,4768.0,1557.0,1925.0,2468.0,2241.0,,,,0.0533296633032253,-1.82067274317471,0.0900871892587732,,1.8588588479246977,,
,4980.0,1129.0,4767.0,1552.0,1923.0,2460.0,2232.0,,,,0.0532940014406958,-1.82086152683663,0.0900697450908302,,1.655550767013547,,
,4979.0,1130.0,4769.0,1554.0,1932.0,2460.0,2216.0,,,,0.0533573057136906,-1.82109569323061,0.0900781743144615,,1.4531328670499368,,
,4981.0,1130.0,4768.0,1557.0,1936.0,2478.0,2225.0,,,,0.0533166109050602,-1.82151942417575,0.090069438746501,,1.253990635573511,,
,4979.0,1132.0,4767.0,1556.0,1937.0,2483.0,2207.0,,,,0.0533659002382836,-1.82158854929068,0.0900671669905792,,1.0595941420412283,,
,4978.0,1129.0,4769.0,1556.0,1932.0,2488.0,2220.0,,,,0.0532792831605882,-1.82124295666387,0.0900667999595879,,0.8706286288945898,,
,4981.0,1130.0,4770.0,1556.0,1928.0,2471.0,2219.0,,,,0.0533249935000143,-1.82218432704822,0.0900659258804545,,0.687160349780432,,
,4985.0,1132.0,4771.0,1557.0,1930.0,2471.0,2252.0,,,,0.0532837556019462,-1.82213548277927,0.090057050349866,,0.5088154841665788,,
,4983.0,1135.0,4771.0,1557.0,1933.0,2480.0,2251.0,,,,0.053277637769184,-1.82234803128317,0.0900704474627071,,0.3349542019968196,,
,4982.0,1132.0,4771.0,1558.0,1940.0,2489.0,2251.0,,,,0.0533336470910276,-1.8222084359167,0.0900626502443048,,0.16482787921748468,,
,4982.0,1131.0,4772.0,1556.0,1933.0,2490.0,2248.0,,,,0.0532940586480052,-1.82171490838265,0.0900639444631161,,-0.002287084944920038,,
,4984.0,1134.0,4773.0,1559.0,1930.0,2469.0,2238.0,,,,0.0532641296785928,-1.82214850069762,0.0900656372217584,,-0.16698193452517102,,
,4984.0,1132.0,4774.0,1560.0,1937.0,2472.0,2227.0,,,,0.0532661182445018,-1.82199528737355,0.0900558163356808,,-0.3296363786976218,,
,4984.0,1133.0,4772.0,1561.0,1946.0,2483.0,2218.0,,,,0.0532269545286961,-1.82257452360328,0.0900687707075374,,-0.490368962859763,,
,4985.0,1132.0,4776.0,1559.0,1943.0,2476.0,2235.0,,,,0.0532304089747478,-1.82238352062297,0.0900600638824039,,-0.6490182805862493,,
,4988.0,1132.0,4777.0,1559.0,1937.0,2467.0,2241.0,,,,0.0532100585997945,-1.82266169814778,0.0900629283738225,,-0.8051557082381646,,
,4989.0,1133.0,4777.0,1562.0,1939.0,2478.0,2243.0,,,,0.0532610038999799,-1.82253370918955,0.0900641522545776,,-0.9581287509033715,,
,4989.0,1136.0,4779.0,1564.0,1939.0,2481.0,2245.0,,,,0.0532264745461194,-1.82289954836093,0.0900568011868363,,-1.1071313740727022,,
,4988.0,1136.0,4777.0,1562.0,1935.0,2470.0,2259.0,,,,0.0532205261176012,-1.8229899611572,0.0900554642399258,,-1.2512942322186673,,
,4993.0,1137.0,4779.0,1561.0,1929.0,2465.0,2252.0,,,,0.0531759438981085,-1.82362341545995,0.0900488631591769,,-1.3897842099929913,,
,4992.0,1136.0,4779.0,1562.0,1943.0,2470.0,2249.0,,,,0.0531642728610119,-1.82390539010904,0.0900510472051484,,-1.5218998850665628,,
,4993.0,1137.0,4781.0,1563.0,1944.0,2474.0,2250.0,,,,0.0531356985104994,-1.82410323608751,0.0900550233473571,,-1.647148001811003,,
,4994.0,1135.0,4780.0,1564.0,1940.0,2468.0,2244.0,,,,0.0531111502103821,-1.82481648128146,0.0900474990308572,,-1.7652863905196496,,
,4995.0,1134.0,4782.0,1563.0,1932.0,2470.0,2248.0,,,,0.0530515378374265,-1.82540117405804,0.0900458580333432,,-1.8763215301154421,,
2025-07-02 21:49:35,4995.0,1138.0,4782.0,1565.0,1934.0,2473.0,2240.0,,,2025/07/02 09:49:35 PM,0.0529733451384301,-1.82590847320867,0.0900431815888007,,-1.9804543365797769,,
,4996.0,1138.0,4786.0,1568.0,1935.0,2483.0,2235.0,,,,0.052966067617365,-1.82661755228603,0.0900244920173645,,-2.077975264498557,,
,4996.0,1137.0,4785.0,1567.0,1932.0,2484.0,2225.0,,,,0.0529051788652854,-1.8278101277937,0.0900281153619517,,-2.1691182566894383,,
,4996.0,1140.0,4788.0,1565.0,1939.0,2478.0,2229.0,,,,0.0528570685979325,-1.82862418392374,0.0900202675852247,,-2.2538909311844093,,
,4998.0,1139.0,4787.0,1569.0,1944.0,2482.0,2237.0,,,,0.0528281397660845,-1.8291109178666,0.0900133750417865,,-2.3319040485173246,,
,5000.0,1139.0,4789.0,1568.0,1942.0,2482.0,2228.0,,,,0.0528161424740655,-1.82976021595559,0.0899988718372987,,-2.402225380457845,,
,5000.0,1139.0,4788.0,1567.0,1931.0,2485.0,2270.0,,,,0.0527570813947143,-1.83045583526067,0.0900061300229424,,-2.4632809961384856,,
,5001.0,1141.0,4789.0,1568.0,1934.0,2480.0,2256.0,,,,0.0527074261327127,-1.83085936951091,0.0900008286207648,,-2.5128213040280993,,
,5000.0,1141.0,4792.0,1569.0,1930.0,2470.0,2247.0,,,,0.0526472144870469,-1.83088419815595,0.0899977246671679,,-2.5479614676824176,,
,5002.0,1141.0,4793.0,1569.0,1935.0,2477.0,2246.0,,,,0.0526464504275822,-1.83109863072233,0.0899860882973767,,-2.5652974789722265,,
,5003.0,1141.0,4793.0,1569.0,1931.0,2482.0,2271.0,,,,0.0526820728953744,-1.83105310357347,0.0899865693637161,,-2.5610909003981197,,
,5003.0,1141.0,4794.0,1569.0,1955.0,2478.0,2259.0,,,,0.0526862982909767,-1.831176892735,0.0899823921328105,,-2.531507444712441,,
,5008.0,1144.0,4799.0,1571.0,1944.0,2477.0,2240.0,,,,0.0527466581615764,-1.83129885274854,0.0899886782878497,,-2.472887973009913,,
,5006.0,1143.0,4797.0,1572.0,1940.0,2475.0,2248.0,,,,0.052720632807084,-1.83053488794258,0.0899949482670286,,-2.382026410007811,,
,5007.0,1144.0,4798.0,1574.0,1942.0,2485.0,2278.0,,,,0.0527299427015072,-1.8300935852036,0.0900007728309039,,-2.2564284403381314,,
,5007.0,1144.0,4798.0,1572.0,1936.0,2473.0,2261.0,,,,0.052783340317272,-1.829510884564,0.0900006128761601,,-2.094527812063677,,
,5008.0,1143.0,4802.0,1572.0,1936.0,2463.0,2281.0,,,,0.0527819537305372,-1.82922804013815,0.0900101722070897,,-1.8958430373170587,,
,5009.0,1145.0,4800.0,1573.0,1933.0,2466.0,2253.0,,,,0.0528585871486956,-1.82910928640294,0.0900173962068231,,-1.6610651236360638,,
,5008.0,1143.0,4802.0,1577.0,1933.0,2478.0,2246.0,,,,0.0528993561841236,-1.82890126331952,0.0900171397643336,,-1.3920752831687517,,
,5009.0,1146.0,4804.0,1573.0,1935.0,2485.0,2234.0,,,,0.0528963220073578,-1.82845158087709,0.0900182200608074,,-1.0918990017862515,,
,5010.0,1145.0,4803.0,1573.0,1938.0,2482.0,2237.0,,,,0.0529307705356899,-1.8273955423665,0.0900103235693066,,-0.7646084222302092,,
,5009.0,1146.0,4804.0,1575.0,1935.0,2488.0,2234.0,,,,0.0529873640287113,-1.82800117495532,0.0900233226787931,,-0.4151880645627861,,
,5007.0,1145.0,4802.0,1572.0,1933.0,2486.0,2237.0,,,,0.0529917551034133,-1.82752474239274,0.0900176487213534,,-0.04937898957017762,,
,5001.0,1143.0,4796.0,1570.0,1931.0,2490.0,2246.0,,,,0.0529862806798893,-1.82730937917706,0.0900174773860747,,0.3264866061438344,,
,4999.0,1144.0,4798.0,1570.0,1927.0,2487.0,2243.0,,,,0.0529969299943956,-1.82781220205771,0.0900124118663764,,0.7056541122345903,,
,4996.0,1140.0,4795.0,1569.0,1922.0,2472.0,2261.0,,,,0.0529605509812192,-1.82821675061078,0.090008171865841,,1.0811188887500072,,
,4994.0,1140.0,4792.0,1567.0,1920.0,2465.0,2242.0,,,,0.0530230673829859,-1.82806109547256,0.0900085805061761,,1.4458075902465544,,
,4991.0,1138.0,4789.0,1566.0,1927.0,2460.0,2246.0,,,,0.0529955050074771,-1.82829087085013,0.0900073684829701,,1.7927749312935346,,
,4990.0,1137.0,4785.0,1565.0,1926.0,2457.0,2242.0,,,,0.052985202771124,-1.82809535222235,0.0900150023815087,,2.115419394139857,,
,4985.0,1137.0,4782.0,1564.0,1932.0,2457.0,2259.0,,,,0.052941386586984,-1.82863531911268,0.090005970150031,,2.4077151378330313,,
,4984.0,1137.0,4780.0,1562.0,1929.0,2459.0,2259.0,,,,0.0529724337326792,-1.82826033909977,0.0900046152929779,,2.664449566134314,,
,4983.0,1137.0,4777.0,1561.0,1925.0,2463.0,2252.0,,,,0.0529070546658359,-1.82876827563919,0.0900021248281681,,2.8814484588717635,,
,4979.0,1136.0,4776.0,1560.0,1929.0,2474.0,2253.0,,,,0.0529229489677313,-1.82878649414978,0.0900036320042502,,3.055765119894865,,
,4978.0,1133.0,4776.0,1561.0,1932.0,2474.0,2257.0,,,,0.052856629154638,-1.82923573070748,0.0900035001636594,,3.185808377962238,,
,4977.0,1135.0,4777.0,1560.0,1934.0,2480.0,2263.0,,,,0.0528790947854567,-1.82960846923527,0.0900056145119724,,3.27138762547494,,
,4977.0,1134.0,4772.0,1557.0,1944.0,2482.0,2245.0,,,,0.0528228361783383,-1.82961005467328,0.0900011081262338,,3.3136615076912106,,
,4975.0,1134.0,4775.0,1557.0,1939.0,2481.0,2245.0,,,,0.0527988225068145,-1.82973085093631,0.0900033982227069,,3.3149893838911955,,
,4976.0,1134.0,4774.0,1559.0,1936.0,2480.0,2242.0,,,,0.0528590733637,-1.83005537616109,0.0900057560403172,,3.2786991277808166,,
,4974.0,1133.0,4774.0,1559.0,1937.0,2488.0,2234.0,,,,0.0528606829887262,-1.82978248207095,0.0900036842171778,,3.208797996695802,,
,4975.0,1134.0,4773.0,1556.0,1958.0,2494.0,2237.0,,,,0.0528661992078691,-1.82955391782951,0.0900033292983266,,3.1096617242161897,,
,4972.0,1131.0,4774.0,1557.0,1953.0,2496.0,2210.0,,,,0.0528504667019705,-1.82903967504629,0.0900060026314261,,2.985738545718757,,
,4975.0,1130.0,4773.0,1559.0,1946.0,2494.0,2212.0,,,,0.0528411626061604,-1.82850350378503,0.0900052834106353,,2.8412996255138214,,
,4971.0,1132.0,4772.0,1557.0,1947.0,2485.0,2211.0,,,,0.0528756399333233,-1.82845789853617,0.0900054958427692,,2.680257062525399,,
,4976.0,1135.0,4773.0,1560.0,1952.0,2491.0,2216.0,,,,0.0528726031131914,-1.82864386140698,0.0900183547702066,,2.506057745754635,,
,4971.0,1131.0,4770.0,1555.0,1937.0,2476.0,2242.0,,,,0.0528666252210769,-1.82876506874279,0.090006514211117,,2.321648452160453,,
,4972.0,1135.0,4774.0,1558.0,1944.0,2478.0,2242.0,,,,0.052862144590874,-1.82836077225378,0.0900168640887616,,2.129497251628595,,
,4974.0,1136.0,4776.0,1557.0,1933.0,2466.0,2255.0,,,,0.0528687667301487,-1.8285827263487,0.090009336653102,,1.9316503607223308,,
,4978.0,1134.0,4772.0,1557.0,1928.0,2465.0,2246.0,,,,0.0528722522636033,-1.82872381429695,0.0900146013012982,,1.7298028314987803,,
,4976.0,1132.0,4774.0,1558.0,1939.0,2461.0,2267.0,,,,0.0528953502128649,-1.82899024093735,0.0900194192675252,,1.5253655276967515,,
,4976.0,1137.0,4775.0,1557.0,1934.0,2463.0,2255.0,,,,0.0528521402702078,-1.82909918807722,0.0900169812734184,,1.3195183292991655,,
,4976.0,1134.0,4775.0,1560.0,1929.0,2467.0,2244.0,,,,0.0528455256966705,-1.82930393459632,0.0900022532897484,,1.1132479749780293,,
,4974.0,1134.0,4776.0,1562.0,1933.0,2470.0,2247.0,,,,0.0527754076806161,-1.82948010677788,0.0900035700501716,,0.907375509921773,,
,4975.0,1134.0,4775.0,1559.0,1930.0,2490.0,2279.0,,,,0.0527747380401684,-1.82964399223979,0.0899992228588007,,0.7025810235377968,,
,4973.0,1133.0,4775.0,1559.0,1933.0,2468.0,2260.0,,,,0.0527597925259114,-1.830063492098,0.0899959502583791,,0.4994322780596488,,
,4976.0,1135.0,4772.0,1558.0,1932.0,2470.0,2269.0,,,,0.0527533508243115,-1.83019345272971,0.0899986606481459,,0.2984204595433963,,
,4974.0,1134.0,4775.0,1560.0,1931.0,2477.0,2270.0,,,,0.0527377098387912,-1.83029724448067,0.0899935426426134,,0.10000233185332456,,
,4975.0,1138.0,4775.0,1557.0,1933.0,2492.0,2261.0,,,,0.0527654775676686,-1.8307756127386,0.0899921646460599,,-0.09535528139310838,,
,4972.0,1133.0,4774.0,1560.0,1925.0,2477.0,2266.0,,,,0.0527549466666502,-1.8307063431996,0.0899871764963519,,-0.2871348799124114,,
,4977.0,1135.0,4776.0,1560.0,1922.0,2463.0,2252.0,,,,0.0527365039608188,-1.83132653104832,0.0899823224985458,,-0.4747383535677997,,
,4974.0,1132.0,4773.0,1559.0,1926.0,2469.0,2253.0,,,,0.0527290506590854,-1.83157127088349,0.0899843491244683,,-0.6574736825651067,,
,4977.0,1134.0,4772.0,1560.0,1921.0,2477.0,2279.0,,,,0.0528024960182775,-1.83121125626782,0.0899737615467785,,-0.8345619429623151,,
,4972.0,1134.0,4770.0,1560.0,1923.0,2479.0,2262.0,,,,0.052717709141339,-1.83149621945284,0.0899789522959835,,-1.0051647730478188,,
,4975.0,1136.0,4773.0,1560.0,1924.0,2466.0,2254.0,,,,0.052727893750858,-1.83199010347236,0.0899743088742458,,-1.1684282173753064,,
,4974.0,1135.0,4769.0,1559.0,1928.0,2468.0,2256.0,,,,0.0527051971381374,-1.83159109331574,0.0899758244509486,,-1.3235349438905493,,
,4977.0,1134.0,4770.0,1560.0,1934.0,2469.0,2245.0,,,,0.052740479468393,-1.83203753418515,0.0899690618051454,,-1.4697544151106121,,
,4972.0,1132.0,4769.0,1558.0,1939.0,2468.0,2253.0,,,,0.0527218921803083,-1.83174619612342,0.08997493157613,,-1.6064803205250369,,
,4975.0,1137.0,4771.0,1560.0,1939.0,2473.0,2257.0,,,,0.0526760163976926,-1.8320952677766,0.0899781280414837,,-1.7332462980185201,,
,4976.0,1136.0,4771.0,1561.0,1927.0,2472.0,2232.0,,,,0.0527238106112499,-1.83214495528456,0.0899691890618862,,-1.8497142100686317,,
,4976.0,1136.0,4772.0,1559.0,1932.0,2470.0,2235.0,,,,0.0526941749971845,-1.83218297449568,0.0899788151159511,,-1.9556335693619407,,
,4975.0,1133.0,4770.0,1559.0,1936.0,2472.0,2243.0,,,,0.0527558271612448,-1.83242069788704,0.0899686539041368,,-2.050775621107361,,
,4976.0,1134.0,4771.0,1562.0,1947.0,2478.0,2250.0,,,,0.0527405860736062,-1.83263541121571,0.0899638871358599,,-2.134850292050952,,
,4979.0,1136.0,4772.0,1563.0,1945.0,2476.0,2267.0,,,,0.0527483572393677,-1.83246366971721,0.0899609967852063,,-2.20741778605827,,
,4978.0,1137.0,4774.0,1562.0,1939.0,2472.0,2247.0,,,,0.0527302553099679,-1.83362892622235,0.0899606387642966,,-2.26780832546607,,
,4979.0,1133.0,4771.0,1560.0,1934.0,2472.0,2243.0,,,,0.0526577343818672,-1.83315714658307,0.089952430105457,,-2.3150630556519753,,
,4978.0,1138.0,4773.0,1561.0,1939.0,2489.0,2236.0,,,,0.0526203238562638,-1.83389963087893,0.0899526951377632,,-2.3479064653423105,,
,4982.0,1138.0,4771.0,1563.0,1939.0,2480.0,2240.0,,,,0.052602389195869,-1.83412151637471,0.0899456607782608,,-2.364756282386919,,
,4981.0,1136.0,4774.0,1563.0,1934.0,2476.0,2247.0,,,,0.0525794754270304,-1.83528617770857,0.0899438428385963,,-2.3637716553634367,,
,4982.0,1136.0,4775.0,1562.0,1942.0,2467.0,2254.0,,,,0.0525870860722721,-1.83547153708729,0.0899413083814916,,-2.3429357371200403,,
,4980.0,1135.0,4772.0,1565.0,1939.0,2471.0,2239.0,,,,0.052518600958817,-1.83594102691217,0.0899359190971259,,-2.3001654003274545,,
,4982.0,1139.0,4775.0,1565.0,1937.0,2487.0,2247.0,,,,0.0524069113417648,-1.8365558896878,0.0899358395839598,,-2.2334389425297654,,
,4984.0,1137.0,4773.0,1566.0,1936.0,2474.0,2240.0,,,,0.0523998392038111,-1.83801577268831,0.0899346555561468,,-2.1409321364350764,,
,4984.0,1139.0,4775.0,1563.0,1931.0,2483.0,2242.0,,,,0.05237157834666,-1.83869392805129,0.0899268369044717,,-2.021153708685632,,
,4985.0,1137.0,4777.0,1563.0,1933.0,2489.0,2224.0,,,,0.0523041050211596,-1.83911077314416,0.0899203198025654,,-1.873073103625405,,
,4986.0,1140.0,4776.0,1564.0,1943.0,2479.0,2220.0,,,,0.0522239692672388,-1.83964860586411,0.0899121881858624,,-1.6962357905845662,,
,4985.0,1139.0,4776.0,1566.0,1936.0,2480.0,2215.0,,,,0.0522187867284711,-1.84042578046094,0.0899096252397049,,-1.4908637411512402,,
,4989.0,1139.0,4778.0,1568.0,1940.0,2491.0,2232.0,,,,0.0521228692703083,-1.84040783450862,0.0899051444265839,,-1.2579402568788691,,
,4987.0,1138.0,4775.0,1564.0,1942.0,2477.0,2229.0,,,,0.0521346303474112,-1.841278610719,0.0899078257525914,,-0.9992783453830907,,
,4991.0,1139.0,4779.0,1567.0,1930.0,2480.0,2235.0,,,,0.0520898296490611,-1.84148943136166,0.0898976384088746,,-0.7175699750267396,,
,4990.0,1142.0,4781.0,1566.0,1929.0,2492.0,2238.0,,,,0.0521048482436345,-1.84215421657909,0.0898924451470697,,-0.41641025813830135,,
,4992.0,1142.0,4781.0,1566.0,1937.0,2491.0,2224.0,,,,0.0520869196614417,-1.84172229080226,0.0898842225198485,,-0.10028735331011343,,
,4990.0,1140.0,4781.0,1569.0,1945.0,2484.0,2236.0,,,,0.0521140253402829,-1.84142301831449,0.0898874494363901,,0.2254725953486927,,
,4994.0,1140.0,4781.0,1569.0,1946.0,2472.0,2251.0,,,,0.0520722972843775,-1.84116107308102,0.0898958217785371,,0.554814773352804,,
,4993.0,1144.0,4783.0,1568.0,1939.0,2476.0,2257.0,,,,0.0522005561697331,-1.84118898098968,0.0898889925833439,,0.8811243459516931,,
,4994.0,1143.0,4783.0,1568.0,1935.0,2471.0,2247.0,,,,0.052190997997174,-1.8414580269327,0.0899007462082495,,1.1974532340447703,,
,4997.0,1140.0,4783.0,1569.0,1931.0,2472.0,2261.0,,,,0.0521993907148736,-1.84113796586077,0.0898954294743224,,1.4967963480849178,,
,4997.0,1143.0,4782.0,1572.0,1931.0,2469.0,2253.0,,,,0.0522039398259614,-1.84054916519848,0.0898932490539145,,1.7724009643913223,,
,4996.0,1144.0,4785.0,1571.0,1936.0,2470.0,2248.0,,,,0.05227132012941,-1.84023402137739,0.0899165410416834,,2.01808620327789,,
,4997.0,1144.0,4785.0,1570.0,1934.0,2463.0,2254.0,,,,0.0522503325897573,-1.84002584371245,0.0899092193547714,,2.228544922212024,,
,4999.0,1143.0,4784.0,1569.0,1937.0,2467.0,2278.0,,,,0.0523073295497807,-1.83943099252065,0.0899080484906864,,2.399598853671532,,
,5000.0,1144.0,4789.0,1570.0,1936.0,2463.0,2255.0,,,,0.0523104452318037,-1.83921469584263,0.0899020833604273,,2.528380446087161,,
,5000.0,1145.0,4786.0,1571.0,1938.0,2461.0,2259.0,,,,0.0523184003151425,-1.83873938948405,0.0899113446703735,,2.6134221496884784,,
,5002.0,1145.0,4788.0,1573.0,1940.0,2464.0,2261.0,,,,0.0523023264660646,-1.83904019165693,0.0899053191886672,,2.6546453276464246,,
,5002.0,1146.0,4786.0,1573.0,1936.0,2479.0,2259.0,,,,0.0522771695498182,-1.83894072226641,0.0899152756902997,,2.6532545362067754,,
,5001.0,1147.0,4790.0,1572.0,1932.0,2476.0,2262.0,,,,0.0522685346412894,-1.8391420278868,0.089908619430896,,2.6115555066472,,
,5006.0,1149.0,4790.0,1578.0,1931.0,2478.0,2247.0,,,,0.0522836255935669,-1.83976111390596,0.0899089644095305,,2.5327239425271872,,
,5005.0,1147.0,4789.0,1575.0,1933.0,2480.0,2231.0,,,,0.0522939838798917,-1.83860612602149,0.0899063347057988,,2.420555701640157,,
,5005.0,1147.0,4790.0,1575.0,1932.0,2488.0,2235.0,,,,0.0523277819032103,-1.83936245323123,0.0899022423067189,,2.279226942926308,,
,5002.0,1147.0,4790.0,1576.0,1934.0,2498.0,2247.0,,,,0.0523452942508361,-1.83905543405114,0.0899031852543262,,2.1130862875399137,,
,5002.0,1146.0,4789.0,1574.0,1931.0,2479.0,2244.0,,,,0.0523441724193701,-1.83987889673621,0.0899035192112432,,1.9264916553794087,,
,5002.0,1147.0,4789.0,1574.0,1936.0,2473.0,2232.0,,,,0.0523344320830546,-1.83988090748125,0.0899004317291547,,1.7236943845304902,,
,4998.0,1144.0,4784.0,1573.0,1928.0,2460.0,2239.0,,,,0.0522945265528401,-1.84056294985068,0.0899007861073438,,1.508764676927522,,
,4996.0,1142.0,4781.0,1570.0,1927.0,2456.0,2252.0,,,,0.0522853433145076,-1.84004369814213,0.0898999804482024,,1.2855469066867167,,
,4992.0,1143.0,4781.0,1571.0,1929.0,2455.0,2254.0,,,,0.0522203559597397,-1.83972252372362,0.0899058592466283,,1.0576315926743542,,
,4989.0,1143.0,4775.0,1569.0,1922.0,2454.0,2261.0,,,,0.0522587702348177,-1.84033666576624,0.0899042515129261,,0.8283326622425479,,
,4986.0,1140.0,4772.0,1567.0,1923.0,2458.0,2260.0,,,,0.0522909751114584,-1.84035725602117,0.089906227570986,,0.6006628466752795,,
,4985.0,1139.0,4769.0,1563.0,1924.0,2467.0,2260.0,,,,0.0522533104089561,-1.84072932717459,0.0899069368387281,,0.3773048181288776,,
,4982.0,1139.0,4768.0,1563.0,1933.0,2460.0,2251.0,,,,0.0522777033826935,-1.84031712690657,0.0898946135358477,,0.16057940016622854,,
,4978.0,1137.0,4767.0,1562.0,1933.0,2463.0,2242.0,,,,0.0522631557373656,-1.83972577710012,0.089905981737324,,-0.047585691794442365,,
,4975.0,1138.0,4762.0,1561.0,1935.0,2465.0,2243.0,,,,0.0521665142709675,-1.84011023686453,0.0898925176930156,,-0.2456822581414117,,
,4975.0,1137.0,4761.0,1558.0,1940.0,2472.0,2241.0,,,,0.0522400474455994,-1.84066874095517,0.0898950046476111,,-0.4326388232014275,,
,4974.0,1134.0,4760.0,1561.0,1937.0,2474.0,2226.0,,,,0.0522389847759877,-1.84027422562642,0.0898893219206749,,-0.6078249574816754,,
,4972.0,1137.0,4758.0,1560.0,1954.0,2482.0,2242.0,,,,0.0522565952398573,-1.84090210130509,0.0898918991654748,,-0.7710401931853563,,
,4973.0,1135.0,4758.0,1561.0,1945.0,2480.0,2236.0,,,,0.0522099092862177,-1.84051514429434,0.0898847194328393,,-0.9224862996883341,,
,4973.0,1134.0,4758.0,1559.0,1939.0,2484.0,2234.0,,,,0.0522293475568385,-1.84077340837813,0.0898970260810785,,-1.062722765722516,,
,4969.0,1134.0,4757.0,1559.0,1935.0,2482.0,2236.0,,,,0.0522623938514249,-1.84047070394091,0.0898911091001007,,-1.1926061357425706,,
,4972.0,1134.0,4757.0,1560.0,1942.0,2471.0,2229.0,,,,0.0522841526712969,-1.84022798393302,0.0898904126875085,,-1.313214397861939,,
,4970.0,1137.0,4761.0,1560.0,1944.0,2473.0,2217.0,,,,0.0522575324943937,-1.84026367570678,0.0898909454107269,,-1.4257578532522412,,
,4971.0,1134.0,4758.0,1559.0,1937.0,2477.0,2201.0,,,,0.052264959649073,-1.8402513738066,0.089891294751489,,-1.5314778405106224,,
2025-07-02 21:49:36,4973.0,1136.0,4759.0,1558.0,1939.0,2470.0,2224.0,,,2025/07/02 09:49:36 PM,0.0522636786204248,-1.84058877671637,0.0898959099245802,,-1.6315347981963026,,
,4972.0,1136.0,4759.0,1561.0,1939.0,2472.0,2258.0,,,,0.0522554033975517,-1.84017931241682,0.0899010643477594,,-1.726888091336738,,
,4973.0,1137.0,4761.0,1559.0,1934.0,2472.0,2253.0,,,,0.0522496086230913,-1.84085969364959,0.0898850462733273,,-1.8181720012203815,,
,4971.0,1135.0,4761.0,1555.0,1933.0,2459.0,2244.0,,,,0.0522477915186226,-1.84117703540168,0.0898954038976058,,-1.9055748130253725,,
,4973.0,1135.0,4761.0,1557.0,1932.0,2455.0,2232.0,,,,0.052240910687755,-1.84132831765482,0.0898990893749495,,-1.9887304112103408,,
,4975.0,1138.0,4761.0,1561.0,1930.0,2455.0,2241.0,,,,0.0522175222878471,-1.84112272733277,0.0898656534221384,,-2.0666337747053314,,
,4973.0,1136.0,4761.0,1560.0,1928.0,2469.0,2245.0,,,,0.0522083708975415,-1.84102139491836,0.0898784356528124,,-2.1375927827773022,,
,4972.0,1135.0,4761.0,1559.0,1932.0,2467.0,2213.0,,,,0.0522198621583854,-1.84111545142692,0.0898747101027287,,-2.199228142363184,,
,4973.0,1136.0,4762.0,1560.0,1940.0,2474.0,2214.0,,,,0.0522277459926538,-1.84178754887739,0.089867374883844,,-2.248530466700438,,
,4974.0,1136.0,4761.0,1560.0,1943.0,2474.0,2216.0,,,,0.0522406976268025,-1.84211178218013,0.0898721397263368,,-2.2819784165037222,,
,4973.0,1136.0,4760.0,1562.0,1936.0,2471.0,2227.0,,,,0.0522822995852461,-1.84092223400579,0.0898825056742578,,-2.2957147460823557,,
,4972.0,1139.0,4764.0,1561.0,1933.0,2464.0,2228.0,,,,0.0522722573106066,-1.84102793304879,0.0898822096314839,,-2.285769192481296,,
,4973.0,1136.0,4763.0,1559.0,1928.0,2472.0,2262.0,,,,0.0522958623291165,-1.84027908109707,0.0898876561615924,,-2.248310329937289,,
,4976.0,1139.0,4764.0,1563.0,1932.0,2467.0,2260.0,,,,0.0522660539422175,-1.8402538777189,0.0898861383755033,,-2.17990490825257,,
,4975.0,1137.0,4765.0,1561.0,1932.0,2474.0,2248.0,,,,0.0523004917514287,-1.84068096574336,0.0898694795443994,,-2.0777638451337928,,
,4974.0,1136.0,4764.0,1561.0,1928.0,2462.0,2244.0,,,,0.0523115677240713,-1.84056481835126,0.0898833917317296,,-1.939958078411746,,
,4974.0,1134.0,4762.0,1556.0,1929.0,2470.0,2245.0,,,,0.0522906162639687,-1.84076309985304,0.0898750527338745,,-1.765592716380645,,
,4972.0,1137.0,4761.0,1561.0,1928.0,2473.0,2264.0,,,,0.0522667087960758,-1.84125634528465,0.0898844397367264,,-1.5549323979499943,,
,4974.0,1137.0,4763.0,1561.0,1930.0,2471.0,2239.0,,,,0.0522558505859172,-1.84060119852153,0.0898690209967851,,-1.3094738723312835,,
,4974.0,1138.0,4762.0,1559.0,1931.0,2474.0,2243.0,,,,0.0522391672542309,-1.84102398878271,0.0898562307350963,,-1.0319641114058642,,
,4972.0,1136.0,4760.0,1560.0,1938.0,2473.0,2242.0,,,,0.0522418436540813,-1.8414366366658,0.0898766119648757,,-0.7263645764502957,,
,4971.0,1138.0,4762.0,1561.0,1927.0,2467.0,2259.0,,,,0.0522394643639225,-1.84137413948733,0.0898697355742303,,-0.3977647797666452,,
,4972.0,1135.0,4762.0,1563.0,1936.0,2484.0,2258.0,,,,0.0521985445632555,-1.84136369087436,0.0898703808565519,,-0.05225053039352682,,
,4973.0,1137.0,4763.0,1560.0,1938.0,2478.0,2244.0,,,,0.0522312210821974,-1.84179750157549,0.0898802877917658,,0.3032665212685864,,
,4975.0,1135.0,4761.0,1561.0,1949.0,2495.0,2230.0,,,,0.052192426552772,-1.84212132905827,0.089868532439037,,0.6612517403296488,,
,4974.0,1138.0,4763.0,1561.0,1945.0,2487.0,2214.0,,,,0.0522333457627759,-1.84231067766081,0.0898463347897061,,1.0137781442038147,,
,4976.0,1138.0,4762.0,1559.0,1936.0,2465.0,2222.0,,,,0.0522014694772622,-1.84277537202722,0.0898457094272559,,1.3527821020560258,,
,4974.0,1137.0,4763.0,1561.0,1934.0,2457.0,2248.0,,,,0.0521275231803259,-1.84364312892851,0.0898040496575053,,1.6703417988723923,,
,4975.0,1140.0,4764.0,1560.0,1932.0,2462.0,2274.0,,,,0.0521263678764784,-1.84351551889462,0.0898184929434266,,1.9589738917019728,,
,4974.0,1138.0,4763.0,1559.0,1927.0,2471.0,2263.0,,,,0.0521329692673675,-1.8439703853609,0.0897677816603925,,2.2119389540739443,,
,4974.0,1140.0,4763.0,1563.0,1936.0,2492.0,2264.0,,,,0.0520702433672106,-1.84458719648066,0.0897890155711354,,2.423540201165567,,
,4975.0,1138.0,4763.0,1564.0,1943.0,2483.0,2283.0,,,,0.0519871906508405,-1.84578192214706,0.089796284078925,,2.5893942819912112,,
,4975.0,1138.0,4763.0,1564.0,1933.0,2485.0,2271.0,,,,0.0519609389964122,-1.84607719723558,0.0897975574513687,,2.706649204766407,,
,4976.0,1139.0,4766.0,1562.0,1937.0,2477.0,2254.0,,,,0.0518710536487966,-1.84639692726245,0.0897630119323153,,2.774124111402884,,
,4977.0,1140.0,4766.0,1563.0,1943.0,2477.0,2252.0,,,,0.0518445150975907,-1.84725659918017,0.0897356190308066,,2.792349596730155,,
,4980.0,1139.0,4767.0,1564.0,1937.0,2466.0,2230.0,,,,0.0517379905678408,-1.84811515208162,0.0897354340806519,,2.7634957634391264,,
,4979.0,1141.0,4769.0,1563.0,1936.0,2464.0,2231.0,,,,0.0517531863197104,-1.84881936462275,0.0897086321140792,,2.6911874296198603,,
,4978.0,1140.0,4768.0,1562.0,1938.0,2465.0,2235.0,,,,0.0516848978447023,-1.84959675018609,0.0897282284414686,,2.580220126831522,,
,4981.0,1140.0,4769.0,1563.0,1944.0,2468.0,2241.0,,,,0.0516790335921487,-1.85002197844619,0.0897061097480345,,2.4362041657162945,,
,4981.0,1141.0,4771.0,1564.0,1933.0,2464.0,2244.0,,,,0.0516353475101534,-1.85022082269744,0.0897049660637189,,2.2651740722623086,,
,4982.0,1140.0,4771.0,1566.0,1934.0,2466.0,2239.0,,,,0.0516080755467837,-1.85050358195775,0.0896681340258212,,2.0732046371074166,,
,4983.0,1141.0,4772.0,1563.0,1945.0,2473.0,2233.0,,,,0.0516490458204184,-1.85059196220667,0.0896758010550161,,1.8660719185152517,,
,4984.0,1143.0,4770.0,1566.0,1936.0,2468.0,2228.0,,,,0.0515827438641647,-1.85074203521322,0.0896367323183735,,1.6489889687350132,,
,4987.0,1142.0,4774.0,1567.0,1936.0,2466.0,2249.0,,,,0.051616586499371,-1.85080405921057,0.0896337108492301,,1.426433982408892,,
,4987.0,1142.0,4773.0,1569.0,1938.0,2464.0,2238.0,,,,0.0516279746077128,-1.85078899351447,0.0896238866697576,,1.2020751648991592,,
,4986.0,1141.0,4773.0,1566.0,1936.0,2467.0,2232.0,,,,0.0515930428830249,-1.85089901851739,0.0896428265783393,,0.9787837863242285,,
,4987.0,1145.0,4775.0,1566.0,1943.0,2467.0,2227.0,,,,0.0515640423805867,-1.85097741182955,0.0896519830288374,,0.7587163673287171,,
,4990.0,1144.0,4779.0,1566.0,1937.0,2472.0,2222.0,,,,0.0517314479090015,-1.85031113446275,0.0896493813189914,,0.5434402468254198,,
,4991.0,1147.0,4778.0,1570.0,1938.0,2468.0,2226.0,,,,0.0516862600852256,-1.8499470522697,0.0896425213772125,,0.3340749120894115,,
,4990.0,1146.0,4779.0,1570.0,1946.0,2484.0,2240.0,,,,0.0517349775698746,-1.84921987236307,0.089626766334232,,0.13142467325865015,,
,4990.0,1145.0,4779.0,1569.0,1934.0,2464.0,2246.0,,,,0.0517346792069242,-1.84965941722676,0.0896708105574864,,-0.06391421905195005,,
,4990.0,1146.0,4778.0,1567.0,1939.0,2459.0,2258.0,,,,0.0517651567258345,-1.84957721537254,0.0896373989446088,,-0.25147907048736834,,
,4993.0,1145.0,4780.0,1572.0,1935.0,2459.0,2253.0,,,,0.0517721624249046,-1.84944760641925,0.0896539520400677,,-0.43089667223272055,,
,4992.0,1146.0,4781.0,1569.0,1941.0,2465.0,2255.0,,,,0.0518197354644472,-1.84945656631689,0.0896980759085014,,-0.6018614899363831,,
,4996.0,1147.0,4783.0,1571.0,1938.0,2466.0,2263.0,,,,0.0518024540640149,-1.84923450042253,0.0896143436815001,,-0.7641261296691644,,
,4998.0,1147.0,4783.0,1572.0,1938.0,2474.0,2246.0,,,,0.0518732264217968,-1.84900286764298,0.0896659429079072,,-0.917495552098071,,
,4996.0,1151.0,4786.0,1573.0,1939.0,2479.0,2260.0,,,,0.0518985906097648,-1.84854045416362,0.0896474203970544,,-1.0618196362308367,,
,4998.0,1149.0,4784.0,1574.0,1949.0,2495.0,2269.0,,,,0.0518712582229483,-1.8481910637394,0.0896606010925275,,-1.1969821948914539,,
,4997.0,1148.0,4786.0,1574.0,1937.0,2494.0,2251.0,,,,0.0519783589517756,-1.84741938814734,0.0897000008678682,,-1.3228874410874412,,
,4993.0,1147.0,4786.0,1572.0,1936.0,2496.0,2229.0,,,,0.0519979714794887,-1.84607590602223,0.0897348208303391,,-1.4394465031114352,,
,4992.0,1152.0,4787.0,1571.0,1933.0,2489.0,2258.0,,,,0.0520271411514279,-1.84656463610005,0.0897443752706963,,-1.5465666736114327,,
,4994.0,1150.0,4784.0,1571.0,1936.0,2479.0,2258.0,,,,0.0520300983813127,-1.84621538864589,0.0897712359449263,,-1.644144908428974,,
,4989.0,1148.0,4780.0,1568.0,1931.0,2474.0,2243.0,,,,0.0520585166172526,-1.84596537432843,0.0897951983519332,,-1.7320650819134245,,
,4989.0,1146.0,4781.0,1568.0,1929.0,2464.0,2275.0,,,,0.0520662806777667,-1.84555226598447,0.0897835341904318,,-1.8101960891660394,,
,4986.0,1147.0,4777.0,1572.0,1924.0,2471.0,2265.0,,,,0.05195887054841,-1.84571100041403,0.0897804477371008,,-1.8783857098738976,,
,4984.0,1147.0,4774.0,1566.0,1924.0,2467.0,2262.0,,,,0.0520499154356905,-1.84597051078191,0.0898186526785095,,-1.9364442384683338,,
,4977.0,1141.0,4769.0,1564.0,1935.0,2471.0,2263.0,,,,0.0520186515264909,-1.84561539973998,0.0898043880725236,,-1.984113236689362,,
,4977.0,1143.0,4769.0,1563.0,1928.0,2472.0,2240.0,,,,0.0520501000299473,-1.84524126497396,0.0898381884000538,,-2.0210185197444495,,
,4975.0,1143.0,4767.0,1565.0,1940.0,2481.0,2251.0,,,,0.0520424961374027,-1.84487191158489,0.0898135752945393,,-2.0466116176326494,,
,4971.0,1143.0,4764.0,1562.0,1941.0,2470.0,2254.0,,,,0.0520554254891488,-1.84459006847311,0.0898432359180133,,-2.060108873090027,,
,4969.0,1139.0,4760.0,1562.0,1938.0,2476.0,2269.0,,,,0.0520164576470008,-1.84448833669052,0.0898602637025239,,-2.060440725987774,,
,4969.0,1138.0,4759.0,1557.0,1953.0,2497.0,2237.0,,,,0.0520583993783694,-1.84403256756609,0.0898578118632783,,-2.0462248355600465,,
,4967.0,1140.0,4762.0,1561.0,1953.0,2491.0,2229.0,,,,0.0520415555052714,-1.84349046795957,0.0898549234734129,,-2.0157752584067095,,
,4969.0,1140.0,4757.0,1560.0,1946.0,2492.0,2235.0,,,,0.0520650084943281,-1.84347771840176,0.0898794564334943,,-1.9671561527019987,,
,4968.0,1138.0,4758.0,1560.0,1945.0,2475.0,2236.0,,,,0.0520768022888424,-1.84336582952872,0.0898580117099162,,-1.8982830240236253,,
,4967.0,1139.0,4757.0,1561.0,1945.0,2490.0,2235.0,,,,0.0520891118399134,-1.84280033188502,0.0898660684527766,,-1.8070681209358492,,
,4966.0,1139.0,4756.0,1558.0,1935.0,2481.0,2227.0,,,,0.0521218418722553,-1.84202978432064,0.0898796704743671,,-1.6915999915624678,,
,4969.0,1140.0,4758.0,1558.0,1936.0,2482.0,2220.0,,,,0.0521285650551423,-1.84263901594377,0.0898814765335357,,-1.5503413396697874,,
,4968.0,1138.0,4756.0,1560.0,1944.0,2479.0,2239.0,,,,0.0521006101177115,-1.84196740952586,0.0898836194031375,,-1.3823253418763743,,
,4967.0,1136.0,4758.0,1558.0,1932.0,2474.0,2231.0,,,,0.0521410455581317,-1.84159527609544,0.0899004792359725,,-1.187329589031673,,
,4967.0,1141.0,4760.0,1560.0,1933.0,2464.0,2217.0,,,,0.0521659960332654,-1.84084825125671,0.0898918660262341,,-0.9660091952473435,,
,4963.0,1138.0,4759.0,1559.0,1928.0,2468.0,2234.0,,,,0.0521691672144549,-1.84107729597767,0.0899020205189174,,-0.7199758705511118,,
,4966.0,1140.0,4760.0,1557.0,1943.0,2465.0,2242.0,,,,0.0522536675467905,-1.84074600053758,0.0899035005898259,,-0.45181673678614154,,
,4966.0,1139.0,4761.0,1560.0,1945.0,2471.0,2258.0,,,,0.0522272861370257,-1.83971955506082,0.089902102722104,,-0.16505397611432363,,
,4971.0,1140.0,4763.0,1562.0,1938.0,2470.0,2279.0,,,,0.0522567854685572,-1.83930064802688,0.0899214387499698,,0.1359473513006974,,
,4970.0,1141.0,4762.0,1561.0,1942.0,2471.0,2269.0,,,,0.0522736140470425,-1.83920979555654,0.0899121410602379,,0.44611183157220297,,
,4971.0,1139.0,4759.0,1561.0,1941.0,2467.0,2270.0,,,,0.0522742690695937,-1.83935264590606,0.0899146713433361,,0.7598133958261172,,
,4969.0,1141.0,4761.0,1559.0,1941.0,2472.0,2279.0,,,,0.052270034915607,-1.83876880977761,0.0899235573794613,,1.071049614232707,,
,4971.0,1143.0,4764.0,1561.0,1946.0,2470.0,2260.0,,,,0.0522617748949942,-1.83883634581569,0.0899218764489768,,1.3736204404122747,,
,4972.0,1140.0,4763.0,1562.0,1933.0,2469.0,2253.0,,,,0.0522887270343644,-1.83890357457276,0.089924130225141,,1.6613051239068606,,
,4972.0,1145.0,4762.0,1561.0,1930.0,2470.0,2273.0,,,,0.0522667602432986,-1.83872254357209,0.089918634052007,,1.9280356648142696,,
,4971.0,1141.0,4764.0,1562.0,1927.0,2472.0,2268.0,,,,0.0522484514865662,-1.83864349082953,0.0899240034311987,,2.1680693696918274,,
,4972.0,1141.0,4764.0,1562.0,1930.0,2473.0,2259.0,,,,0.0522866226983955,-1.83881570952043,0.089921508346573,,2.3761649893677066,,
,4973.0,1144.0,4764.0,1561.0,1927.0,2477.0,2274.0,,,,0.052278367728926,-1.83840055127034,0.0899305780974516,,2.547765236731804,,
,4971.0,1140.0,4765.0,1564.0,1927.0,2480.0,2273.0,,,,0.0523080771844494,-1.83810601475565,0.0899271225435681,,2.67918332948099,,
,4971.0,1144.0,4764.0,1561.0,1930.0,2475.0,2252.0,,,,0.0522810326198257,-1.83820511703811,0.089933904694816,,2.7677841548674005,,
,4974.0,1143.0,4763.0,1560.0,1926.0,2470.0,2232.0,,,,0.0522702128849961,-1.8372194989731,0.0899353054683544,,2.8121438477995784,,
,4972.0,1144.0,4764.0,1560.0,1931.0,2462.0,2247.0,,,,0.0523179701311062,-1.83678570616136,0.0899374852323217,,2.8121669901577087,,
,4972.0,1143.0,4764.0,1561.0,1927.0,2460.0,2240.0,,,,0.0523731585174337,-1.8367417836243,0.0899479536305209,,2.7691397951114087,,
,4970.0,1143.0,4764.0,1560.0,1932.0,2465.0,2240.0,,,,0.0523571501676174,-1.83657310246384,0.0899479210327708,,2.6857012819268693,,
,4972.0,1143.0,4764.0,1561.0,1945.0,2471.0,2246.0,,,,0.0523745118097831,-1.83577864830239,0.0899546805174844,,2.5657222759613205,,
,4971.0,1145.0,4765.0,1561.0,1934.0,2482.0,2258.0,,,,0.0524157268228452,-1.8359545589796,0.0899506983554017,,2.4140929102794506,,
,4972.0,1145.0,4767.0,1562.0,1938.0,2477.0,2260.0,,,,0.0524185387250135,-1.83538794999711,0.0899479411382518,,2.2364315740190945,,
,4969.0,1142.0,4765.0,1561.0,1932.0,2460.0,2263.0,,,,0.0524249372335497,-1.83527126901002,0.0899594124220712,,2.0387401162169776,,
,4972.0,1142.0,4763.0,1559.0,1932.0,2461.0,2252.0,,,,0.0524966277784516,-1.83527921245757,0.089963207334344,,1.8270393268532477,,
,4974.0,1146.0,4765.0,1564.0,1933.0,2465.0,2242.0,,,,0.0525217815821134,-1.83505477057846,0.0899657001656971,,1.607022881885196,,
,4976.0,1145.0,4766.0,1562.0,1931.0,2470.0,2257.0,,,,0.0524985296884085,-1.83519347368243,0.0899621107429752,,1.3837655806087716,,
,4975.0,1143.0,4766.0,1561.0,1951.0,2470.0,2273.0,,,,0.0525099322900494,-1.83445948600812,0.0899517144544671,,1.1615132672583983,,
,4975.0,1145.0,4765.0,1561.0,1946.0,2483.0,2247.0,,,,0.0524756448903747,-1.83480465288751,0.0899603867167758,,0.9435694591657402,,
,4975.0,1145.0,4766.0,1562.0,1939.0,2485.0,2231.0,,,,0.0524711231047205,-1.83518592091408,0.0899593265408179,,0.7322800584253537,,
,4976.0,1146.0,4768.0,1563.0,1943.0,2494.0,2249.0,,,,0.0524817402251422,-1.83485800730841,0.0899640864584235,,0.529104878417222,,
,4976.0,1146.0,4768.0,1565.0,1945.0,2490.0,2262.0,,,,0.0524462568008047,-1.83506167462606,0.0899594329658386,,0.3347548100926349,,
,4975.0,1144.0,4768.0,1561.0,1947.0,2494.0,2252.0,,,,0.0524969172809877,-1.83503812994371,0.0899547176767721,,0.14936750126538978,,
,4978.0,1145.0,4772.0,1565.0,1948.0,2475.0,2242.0,,,,0.0524758100790743,-1.83489698588485,0.0899608518183414,,-0.02730700627007782,,
,4980.0,1148.0,4770.0,1567.0,1935.0,2477.0,2231.0,,,,0.0525565686170417,-1.83455751993805,0.0899718277247756,,-0.1957362274777472,,
,4980.0,1145.0,4772.0,1563.0,1938.0,2473.0,2240.0,,,,0.0525745359882413,-1.83456491046382,0.0899683699722205,,-0.35646947575270194,,
,4981.0,1147.0,4770.0,1565.0,1936.0,2473.0,2227.0,,,,0.0525281306700837,-1.8349995464301,0.0899743189415828,,-0.5100455922075092,,
,4982.0,1145.0,4774.0,1567.0,1927.0,2476.0,2231.0,,,,0.0524835615083397,-1.83533810288447,0.0899740032063091,,-0.6569431140220957,,
,4984.0,1149.0,4775.0,1568.0,1930.0,2461.0,2214.0,,,,0.0523934404752353,-1.83636448953316,0.089964649830929,,-0.7975632585014517,,
,4984.0,1150.0,4775.0,1565.0,1935.0,2458.0,2220.0,,,,0.0523714969802694,-1.83715307195115,0.0899681104126019,,-0.9322310999817045,,
,4984.0,1149.0,4776.0,1566.0,1934.0,2455.0,2224.0,,,,0.0523554649229354,-1.83753728519168,0.0899590855950574,,-1.0611994500719397,,
,4985.0,1150.0,4778.0,1569.0,1940.0,2473.0,2222.0,,,,0.0522556080343491,-1.83840748125846,0.0899507879715491,,-1.1846426130513892,,
,4986.0,1149.0,4780.0,1570.0,1932.0,2481.0,2265.0,,,,0.0522522365872098,-1.83860752440746,0.0899354499195625,,-1.3026323242368913,,
,4992.0,1150.0,4778.0,1570.0,1927.0,2477.0,2258.0,,,,0.052280139251392,-1.83913920706218,0.0899410427059326,,-1.415094570392614,,
,4988.0,1149.0,4776.0,1568.0,1947.0,2474.0,2257.0,,,,0.0522699688679166,-1.83911750909113,0.089937968047232,,-1.5217522392994334,,
,4989.0,1148.0,4778.0,1568.0,1930.0,2480.0,2256.0,,,,0.0522206693732895,-1.8396167050796,0.0899329339900359,,-1.6220633641023996,,
,4989.0,1152.0,4782.0,1569.0,1924.0,2476.0,2253.0,,,,0.052220603353023,-1.83914119112102,0.0899382714304843,,-1.7151673320551817,,
,4989.0,1153.0,4783.0,1570.0,1926.0,2477.0,2261.0,,,,0.0521946309485342,-1.84026003080017,0.0899326534163919,,-1.7998515232588113,,
2025-07-02 21:49:37,4992.0,1151.0,4785.0,1572.0,1930.0,2474.0,2272.0,,,2025/07/02 09:49:37 PM,0.052219102433775,-1.83919269252689,0.0899339573501894,,-1.8745484179937866,,
,4993.0,1152.0,4785.0,1570.0,1935.0,2479.0,2255.0,,,,0.0522269041933263,-1.8399025471242,0.0899331728947657,,-1.9373685972744052,,
,4993.0,1151.0,4787.0,1572.0,1942.0,2480.0,2260.0,,,,0.0522303377331067,-1.83901890283547,0.0899395465299583,,-1.986169230886496,,
,4994.0,1152.0,4788.0,1573.0,1941.0,2489.0,2254.0,,,,0.0522440855971493,-1.83927640783875,0.0899349214744809,,-2.0186521386515164,,
,4996.0,1153.0,4787.0,1572.0,1946.0,2471.0,2215.0,,,,0.0522493638170815,-1.83829368107554,0.0899490844554244,,-2.0324817493374816,,
,4994.0,1150.0,4787.0,1574.0,1946.0,2469.0,2229.0,,,,0.0522705888107903,-1.83766123526013,0.0899471940750013,,-2.0254118299417554,,
,4995.0,1154.0,4789.0,1574.0,1953.0,2472.0,2238.0,,,,0.0523248405653493,-1.83815864335212,0.0899511058289324,,-1.9954103594051862,,
,4997.0,1155.0,4792.0,1577.0,1955.0,2464.0,2254.0,,,,0.0523094942785966,-1.83710825797428,0.0899558567935188,,-1.9407736696390883,,
,4997.0,1156.0,4790.0,1573.0,1953.0,2456.0,2248.0,,,,0.052304065128389,-1.83642897731797,0.0899552645798774,,-1.860223397221857,,
,4997.0,1155.0,4792.0,1574.0,1944.0,2469.0,2259.0,,,,0.0523054494544575,-1.83734043894767,0.0899622505559723,,-1.7529825192268254,,
,4998.0,1156.0,4794.0,1577.0,1935.0,2472.0,2259.0,,,,0.0523038173897688,-1.83612621033257,0.0899706486908768,,-1.6188295422998817,,
,5002.0,1159.0,4796.0,1575.0,1935.0,2480.0,2269.0,,,,0.0523199324665137,-1.83591235991636,0.0899643159259602,,-1.4581324957205362,,
,4999.0,1158.0,4794.0,1577.0,1935.0,2488.0,2269.0,,,,0.0523434276691799,-1.83637753655049,0.0899760385536569,,-1.2718662644541432,,
,5000.0,1156.0,4794.0,1573.0,1949.0,2485.0,2244.0,,,,0.0523549243808523,-1.8359732442602,0.0899749517657312,,-1.061617353973569,,
,5000.0,1159.0,4795.0,1576.0,1941.0,2491.0,2254.0,,,,0.0523434606618466,-1.83557289576609,0.0899720308145879,,-0.8295790453883019,,
,4998.0,1158.0,4796.0,1577.0,1941.0,2484.0,2248.0,,,,0.0524735004745653,-1.83569552078159,0.089974857424598,,-0.578537491451994,,
,4996.0,1155.0,4793.0,1576.0,1941.0,2481.0,2236.0,,,,0.0524165975788505,-1.83551850777634,0.0899722695842615,,-0.3118467845202998,,
,4993.0,1155.0,4791.0,1572.0,1948.0,2471.0,2250.0,,,,0.0524087612232298,-1.83534196269899,0.0899809154638215,,-0.03338955031988755,,
,4988.0,1154.0,4789.0,1571.0,1933.0,2467.0,2245.0,,,,0.0523654035867681,-1.83569094243381,0.0899754227742842,,0.25248046355414494,,
,4988.0,1154.0,4787.0,1570.0,1935.0,2475.0,2241.0,,,,0.0523686967667564,-1.83540631226323,0.089975924288831,,0.5410164496294202,,
,4985.0,1152.0,4781.0,1569.0,1938.0,2472.0,2228.0,,,,0.0523698834684957,-1.83546319257324,0.0899723274578729,,0.8271785557838179,,
,4981.0,1150.0,4777.0,1566.0,1930.0,2461.0,2250.0,,,,0.052378692183533,-1.83571855129143,0.089974498673291,,1.105755528811796,,
,4980.0,1150.0,4773.0,1565.0,1938.0,2454.0,2247.0,,,,0.0523010066882864,-1.83520484504703,0.0899673509943923,,1.3715056917126722,,
,4976.0,1149.0,4771.0,1564.0,1933.0,2462.0,2258.0,,,,0.0522960424856806,-1.83590117516142,0.089966269232656,,1.6193126408496286,,
,4974.0,1149.0,4771.0,1563.0,1930.0,2469.0,2264.0,,,,0.052288167862794,-1.83620721155022,0.0899659822443209,,1.8443485961020882,,
,4972.0,1148.0,4768.0,1561.0,1927.0,2471.0,2241.0,,,,0.0522863848573809,-1.83593744715086,0.0899657689807592,,2.0422362907742633,,
,4970.0,1147.0,4766.0,1562.0,1944.0,2469.0,2255.0,,,,0.0522747039285464,-1.83615767196332,0.0899666051701152,,2.2091994571155227,,
,4969.0,1146.0,4768.0,1564.0,1944.0,2481.0,2266.0,,,,0.0523154395690827,-1.83669712023025,0.0899734241254578,,2.3421929873697547,,
,4970.0,1144.0,4766.0,1562.0,1940.0,2485.0,2262.0,,,,0.0523081934802948,-1.83593387357011,0.0899647829568904,,2.439006536123466,,
,4967.0,1149.0,4764.0,1562.0,1935.0,2486.0,2237.0,,,,0.0523352547184832,-1.8356695550303,0.0899691264553233,,2.4983384880768638,,
,4968.0,1146.0,4764.0,1558.0,1930.0,2473.0,2248.0,,,,0.0522688801073251,-1.83566212654852,0.0899712359573231,,2.5198394620242532,,
,4966.0,1146.0,4764.0,1561.0,1955.0,2491.0,2263.0,,,,0.0522904639681067,-1.83539900296321,0.0899701838997332,,2.5041253073395446,,
,4966.0,1146.0,4764.0,1560.0,1955.0,2491.0,2252.0,,,,0.0522963150090972,-1.83512293692996,0.0899732553082754,,2.4527592544026553,,
,4967.0,1144.0,4764.0,1561.0,1956.0,2484.0,2246.0,,,,0.0522769517252438,-1.83505718756016,0.0899736356950443,,2.368202103755644,,
,4967.0,1146.0,4762.0,1559.0,1954.0,2479.0,2240.0,,,,0.0523392713221998,-1.83499191883134,0.0899775795820984,,2.253728515578443,,
,4969.0,1148.0,4764.0,1562.0,1949.0,2468.0,2234.0,,,,0.0523580933140391,-1.83481733700752,0.0899749429470173,,2.113307101368092,,
,4968.0,1148.0,4766.0,1559.0,1944.0,2471.0,2242.0,,,,0.0523128957859423,-1.83491380007486,0.0899789083604249,,1.9514428271753588,,
,4968.0,1147.0,4764.0,1560.0,1939.0,2475.0,2233.0,,,,0.052328924419765,-1.83516221045168,0.0899806984884924,,1.77298280352331,,
,4965.0,1146.0,4762.0,1560.0,1936.0,2474.0,2231.0,,,,0.0523310927458826,-1.83454418005444,0.0899943694993788,,1.5828910401509413,,
,4968.0,1148.0,4764.0,1561.0,1937.0,2463.0,2244.0,,,,0.0523396217284455,-1.83458132371418,0.0899787117065297,,1.3860038439531561,,
,4971.0,1147.0,4765.0,1562.0,1943.0,2459.0,2255.0,,,,0.0523571486413108,-1.83498983052202,0.0899819765208559,,1.186784181102167,,
,4967.0,1148.0,4766.0,1561.0,1943.0,2459.0,2253.0,,,,0.0523018332542316,-1.83485788306469,0.089976194215186,,0.9890985559850451,,
,4971.0,1146.0,4765.0,1561.0,1938.0,2449.0,2254.0,,,,0.0523515750816956,-1.83409673073524,0.0899841697516342,,0.7960414571440546,,
,4971.0,1150.0,4766.0,1562.0,1944.0,2463.0,2244.0,,,,0.0523331621425961,-1.83446189620683,0.0899870169476318,,0.6098288020664885,,
,4970.0,1148.0,4768.0,1562.0,1935.0,2463.0,2236.0,,,,0.0523547170707357,-1.83481079581091,0.0899772283967895,,0.43177352887119735,,
,4973.0,1151.0,4767.0,1563.0,1933.0,2472.0,2225.0,,,,0.0523182365809187,-1.83412563384574,0.089984553499468,,0.26234540691588276,,
,4970.0,1146.0,4765.0,1561.0,1927.0,2465.0,2235.0,,,,0.0523634643573898,-1.83428882977134,0.0899748024578274,,0.10130556635269508,,
,4973.0,1148.0,4768.0,1563.0,1934.0,2469.0,2264.0,,,,0.0523612377200956,-1.83421880099555,0.0899866530604128,,-0.052103705848009725,,
,4973.0,1148.0,4770.0,1561.0,1935.0,2470.0,2260.0,,,,0.0523935240671362,-1.8341738148423,0.0899795780575895,,-0.1989400249170446,,
,4974.0,1151.0,4770.0,1561.0,1935.0,2480.0,2256.0,,,,0.0524140452628046,-1.83397127070485,0.0899847093058798,,-0.34034140437415866,,
,4971.0,1147.0,4765.0,1560.0,1938.0,2485.0,2255.0,,,,0.0523696391445028,-1.83431171239039,0.0899757799057767,,-0.4773329443627627,,
,4971.0,1151.0,4770.0,1561.0,1940.0,2479.0,2249.0,,,,0.0523743403250584,-1.83423169566135,0.0899787819502093,,-0.6106808709340775,,
,4971.0,1150.0,4766.0,1561.0,1933.0,2475.0,2255.0,,,,0.0523815909164009,-1.83421458029937,0.0899734532272014,,-0.7408066030259982,,
,4971.0,1149.0,4766.0,1560.0,1932.0,2470.0,2265.0,,,,0.0523752289419375,-1.8348772214468,0.0899733886121994,,-0.8677635363573094,,
,4970.0,1148.0,4767.0,1562.0,1952.0,2466.0,2269.0,,,,0.0523835445933371,-1.83453892814539,0.0899614659656762,,-0.9912697049383616,,
,4968.0,1147.0,4765.0,1561.0,1947.0,2473.0,2261.0,,,,0.0523581192148911,-1.83479043549604,0.0899691983658677,,-1.1107823827765697,,
,4971.0,1151.0,4768.0,1560.0,1955.0,2461.0,2255.0,,,,0.0523514604234497,-1.83514323365621,0.0899674191159791,,-1.2255970661368387,,
,4968.0,1150.0,4766.0,1561.0,1945.0,2459.0,2263.0,,,,0.0523372322150309,-1.83481931871802,0.089963943482925,,-1.3349529693879052,,
,4971.0,1148.0,4765.0,1564.0,1940.0,2464.0,2261.0,,,,0.052365467678793,-1.834673913538,0.0899658838022668,,-1.4381293488166467,,
,4970.0,1149.0,4765.0,1558.0,1938.0,2460.0,2268.0,,,,0.0523558957298546,-1.8343615294918,0.0899675265953865,,-1.5345206925655637,,
,4970.0,1149.0,4766.0,1562.0,1930.0,2460.0,2248.0,,,,0.0523905516145314,-1.83472402455672,0.0899589753150134,,-1.6236831694114222,,
,4971.0,1149.0,4764.0,1561.0,1941.0,2464.0,2254.0,,,,0.0523770430622563,-1.83479721837383,0.0899662805504017,,-1.705348964386601,,
,4972.0,1150.0,4765.0,1564.0,1946.0,2473.0,2250.0,,,,0.0524077637468344,-1.83457300610498,0.0899625202616758,,-1.7794088714407466,,
,4972.0,1150.0,4763.0,1562.0,1952.0,2469.0,2251.0,,,,0.0524129886889066,-1.83441426992153,0.0899667103467032,,-1.8458667135262268,,
,4973.0,1151.0,4766.0,1559.0,1940.0,2470.0,2252.0,,,,0.0524448490723449,-1.83444274670697,0.0899662372892042,,-1.904771740993526,,
,4972.0,1153.0,4768.0,1564.0,1933.0,2467.0,2247.0,,,,0.0524047587467821,-1.83435029070029,0.0899671692776588,,-1.956136854467157,,
,4972.0,1152.0,4765.0,1563.0,1930.0,2469.0,2254.0,,,,0.0524103840094601,-1.83512293849273,0.0899669663403968,,-1.9998511804792032,,
,4973.0,1149.0,4769.0,1563.0,1927.0,2473.0,2248.0,,,,0.0524560926385303,-1.83516034803993,0.0899631687221096,,-2.035595556410019,,
,4976.0,1149.0,4770.0,1564.0,1936.0,2465.0,2259.0,,,,0.052418336932575,-1.83495847146093,0.0899626371870625,,-2.062769452414449,,
,4977.0,1154.0,4770.0,1564.0,1947.0,2469.0,2233.0,,,,0.0523466757755311,-1.8360191384686,0.0899691338971838,,-2.0804379775392388,,
,4978.0,1153.0,4771.0,1566.0,1939.0,2465.0,2237.0,,,,0.0522989655508914,-1.83601471058983,0.0899579793156619,,-2.0873075000988064,,
,4977.0,1150.0,4770.0,1565.0,1937.0,2467.0,2245.0,,,,0.0523080526359653,-1.83667753167986,0.0899537692818727,,-2.0817374596393057,,
,4977.0,1152.0,4772.0,1563.0,1939.0,2462.0,2247.0,,,,0.0522745397054856,-1.83758270872905,0.0899502252437568,,-2.0617937141589158,,
,4979.0,1155.0,4774.0,1568.0,1934.0,2462.0,2246.0,,,,0.0521809477734883,-1.83911560191922,0.0899409183315821,,-2.0253450803260304,,
,4979.0,1153.0,4773.0,1570.0,1937.0,2466.0,2245.0,,,,0.0521300394053645,-1.8400326191272,0.0899397637533887,,-1.9701998322622094,,
,4980.0,1155.0,4774.0,1565.0,1949.0,2483.0,2254.0,,,,0.0520377416424167,-1.84153837232356,0.0899251529565249,,-1.894273631018718,,
,4981.0,1154.0,4773.0,1566.0,1942.0,2471.0,2265.0,,,,0.0520605152258607,-1.84259759464356,0.0899235357132342,,-1.795775761641488,,
,4984.0,1154.0,4778.0,1568.0,1935.0,2466.0,2234.0,,,,0.0520289145054302,-1.84186735436823,0.0899184193380445,,-1.6733974052902734,,
,4983.0,1156.0,4781.0,1569.0,1934.0,2469.0,2236.0,,,,0.0519642152622731,-1.84209749782352,0.0899182120980464,,-1.5264840777134059,,
,4985.0,1155.0,4776.0,1568.0,1936.0,2468.0,2230.0,,,,0.0519322452060364,-1.84297017754724,0.0899126415506313,,-1.355174322039206,,
,4985.0,1154.0,4777.0,1569.0,1942.0,2468.0,2234.0,,,,0.0519359020303137,-1.84323688350304,0.089908264565393,,-1.1604887261134904,,
,4986.0,1157.0,4779.0,1569.0,1936.0,2479.0,2238.0,,,,0.0519332179557279,-1.843122801275,0.0899057854723664,,-0.9443578914217652,,
,4988.0,1157.0,4781.0,1570.0,1944.0,2487.0,2230.0,,,,0.0518561843887806,-1.84291892354894,0.0899079548346358,,-0.7095848158944134,,
,4986.0,1159.0,4782.0,1570.0,1945.0,2490.0,2229.0,,,,0.0519012562861217,-1.84304179290679,0.0899067361542693,,-0.45974499047796236,,
,4988.0,1156.0,4781.0,1570.0,1938.0,2485.0,2243.0,,,,0.0519680890765786,-1.84229628582649,0.089916987433648,,-0.19903483495363308,,
,4990.0,1158.0,4783.0,1572.0,1933.0,2471.0,2246.0,,,,0.0520186825318976,-1.84184274943479,0.0899215440022269,,0.06791524231651125,,
,4990.0,1160.0,4784.0,1571.0,1938.0,2474.0,2252.0,,,,0.052025346666102,-1.84100825009941,0.0899271709041933,,0.33624363495481746,,
,4992.0,1159.0,4787.0,1572.0,1942.0,2471.0,2249.0,,,,0.0520298038910513,-1.84026465237002,0.0899314665113621,,0.6010562668113094,,
,4990.0,1160.0,4787.0,1568.0,1940.0,2475.0,2272.0,,,,0.0521155176579162,-1.84007179572096,0.0899370741459273,,0.8576039001090483,,
,4990.0,1159.0,4787.0,1573.0,1942.0,2472.0,2279.0,,,,0.052104501050628,-1.84006756914846,0.0899331865610999,,1.1014258826592043,,
,4995.0,1159.0,4787.0,1574.0,1953.0,2475.0,2274.0,,,,0.0521180014378676,-1.83954851867212,0.0899400936781772,,1.328455406819245,,
,4995.0,1160.0,4790.0,1573.0,1948.0,2467.0,2258.0,,,,0.0521644935520601,-1.83954865068193,0.0899503364248573,,1.5350893224608322,,
,4996.0,1161.0,4790.0,1573.0,1949.0,2464.0,2243.0,,,,0.0521775576276827,-1.83900788165993,0.08993894339674,,1.7182323242174378,,
,4998.0,1160.0,4790.0,1576.0,1959.0,2464.0,2276.0,,,,0.052207459366356,-1.8386933160678,0.0899389620983458,,1.8753287764968753,,
,4999.0,1161.0,4796.0,1573.0,1952.0,2471.0,2273.0,,,,0.0521911854685377,-1.83908403631544,0.0899396422354827,,2.00439436340242,,
,4998.0,1163.0,4795.0,1574.0,1951.0,2479.0,2257.0,,,,0.0521998352429687,-1.83889466610663,0.0899370393598821,,2.10405471910151,,
,4996.0,1162.0,4793.0,1576.0,1945.0,2502.0,2224.0,,,,0.0521827835177936,-1.83882241400571,0.0899257351299302,,2.1735910975100188,,
,4996.0,1162.0,4797.0,1578.0,1934.0,2488.0,2228.0,,,,0.0522009884757305,-1.83898300216551,0.0899386086496057,,2.212986062038457,,
,4998.0,1163.0,4794.0,1574.0,1937.0,2475.0,2245.0,,,,0.0521856039046763,-1.83894187915929,0.089934858207271,,2.2229567121545406,,
,4992.0,1161.0,4791.0,1572.0,1930.0,2473.0,2263.0,,,,0.0522065655377042,-1.83927185382955,0.089935229000845,,2.2049602588538475,,
,4993.0,1157.0,4787.0,1572.0,1933.0,2478.0,2276.0,,,,0.0521650942538924,-1.83910631865629,0.0899331808098134,,2.1611576161248385,,
,4990.0,1157.0,4784.0,1568.0,1928.0,2480.0,2252.0,,,,0.0521787895867173,-1.83935834965376,0.0899330771504985,,2.094325350107623,,
,4987.0,1159.0,4784.0,1570.0,1926.0,2481.0,2267.0,,,,0.0521770392394969,-1.83881563425014,0.0899326790366025,,2.007714317522138,,
,4983.0,1158.0,4780.0,1568.0,1927.0,2481.0,2263.0,,,,0.0521969054156698,-1.83863298585621,0.0899395368299833,,1.9048633112812692,,
,4980.0,1156.0,4776.0,1567.0,1922.0,2479.0,2257.0,,,,0.0521703388532977,-1.83914515350511,0.0899283695703962,,1.789385885663309,,
,4976.0,1153.0,4771.0,1565.0,1931.0,2466.0,2286.0,,,,0.0521634808223191,-1.83982991696189,0.0899293127900558,,1.6647555616733782,,
,4973.0,1154.0,4770.0,1565.0,1941.0,2467.0,2271.0,,,,0.0520485754531814,-1.83978177030294,0.0899316407651273,,1.5341165274304114,,
,4972.0,1155.0,4770.0,1563.0,1932.0,2462.0,2257.0,,,,0.0520668222633022,-1.84110635010382,0.0899282287099039,,1.400143169505568,,
,4969.0,1154.0,4767.0,1564.0,1939.0,2467.0,2248.0,,,,0.0520553365841264,-1.84028082530407,0.0899284228799936,,1.264963671561733,,
,4967.0,1155.0,4766.0,1560.0,1931.0,2469.0,2255.0,,,,0.0521201187448529,-1.84028471929073,0.0899214551237252,,1.130152659373903,,
,4968.0,1153.0,4767.0,1563.0,1941.0,2466.0,2249.0,,,,0.0521080718912198,-1.84074442139897,0.0899259379681607,,0.996787287908457,,
,4965.0,1151.0,4763.0,1561.0,1963.0,2478.0,2238.0,,,,0.0521144027413544,-1.84033694021899,0.0899308562609556,,0.8655517005035426,,
,4965.0,1152.0,4766.0,1560.0,1973.0,2477.0,2240.0,,,,0.0521375896568076,-1.84025344477129,0.0899261170117714,,0.7368678372345703,,
,4962.0,1149.0,4762.0,1557.0,1959.0,2472.0,2215.0,,,,0.0521412305672921,-1.84040125247947,0.089928177663301,,0.6110273790171936,,
,4962.0,1150.0,4763.0,1559.0,1951.0,2459.0,2214.0,,,,0.0521021148709525,-1.83993184264483,0.0899292282852691,,0.48830093381642686,,
,4963.0,1152.0,4763.0,1559.0,1953.0,2491.0,2230.0,,,,0.0520819438575928,-1.83963904109777,0.0899321346590415,,0.36900641206977813,,
,4964.0,1152.0,4761.0,1560.0,1953.0,2495.0,2244.0,,,,0.0521291547110776,-1.83947915764159,0.0899391212589043,,0.25352795906984166,,
,4964.0,1151.0,4763.0,1560.0,1951.0,2484.0,2266.0,,,,0.0521248404280921,-1.8396634803101,0.0899275988455866,,0.14228772017643052,,
,4963.0,1150.0,4763.0,1560.0,1951.0,2479.0,2233.0,,,,0.0521617729808722,-1.83978808042369,0.0899328447708322,,0.03568225105241996,,
,4964.0,1150.0,4765.0,1559.0,1955.0,2474.0,2242.0,,,,0.0521672992798067,-1.83989594388404,0.0899354067322717,,-0.06599883443800585,,
,4962.0,1153.0,4761.0,1560.0,1946.0,2475.0,2246.0,,,,0.0521946492338558,-1.84107334182527,0.0899291856035773,,-0.16265312132141316,,
,4965.0,1152.0,4761.0,1559.0,1945.0,2491.0,2264.0,,,,0.0521100913187489,-1.84060362566582,0.0899306809891046,,-0.2544281437887712,,
,4964.0,1150.0,4762.0,1560.0,1935.0,2472.0,2265.0,,,,0.0520740614151951,-1.84081872369112,0.0899282236044611,,-0.341754956715531,,
,4964.0,1152.0,4767.0,1563.0,1942.0,2469.0,2266.0,,,,0.0520926962273398,-1.84063541481092,0.0899323266518021,,-0.42534659382030443,,
,4964.0,1151.0,4765.0,1559.0,1937.0,2465.0,2257.0,,,,0.0521522181867623,-1.8408679236564,0.0899255829992142,,-0.5061611925593391,,
,4968.0,1153.0,4765.0,1561.0,1933.0,2485.0,2243.0,,,,0.0520974943988322,-1.84131696779258,0.0899213054496552,,-0.585334495998886,,
,4965.0,1152.0,4765.0,1562.0,1936.0,2468.0,2253.0,,,,0.0521193024268915,-1.84119819842649,0.089918129696451,,-0.6640900733948019,,
,4967.0,1155.0,4769.0,1562.0,1931.0,2474.0,2251.0,,,,0.0521238970903623,-1.8411174058654,0.0899148613461434,,-0.7436375678056398,,
2025-07-02 21:49:38,4967.0,1153.0,4767.0,1560.0,1934.0,2479.0,2249.0,,,2025/07/02 09:49:38 PM,0.0520472922438286,-1.84132502595612,0.089906463148183,,-0.8250692889585491,,
,4970.0,1153.0,4768.0,1561.0,1933.0,2472.0,2274.0,,,,0.052078350634968,-1.84181251773707,0.0899029536659433,,-0.9092635183474301,,
,4966.0,1152.0,4768.0,1560.0,1940.0,2465.0,2261.0,,,,0.0520863497326012,-1.84173177054874,0.0899063490622035,,-0.9967996445538646,,
,4969.0,1154.0,4769.0,1562.0,1934.0,2472.0,2256.0,,,,0.0521048263003941,-1.84194983915392,0.0899114672288867,,-1.0878870187131413,,
,4969.0,1153.0,4770.0,1564.0,1931.0,2475.0,2254.0,,,,0.0520998087546141,-1.841825987925,0.0899102836921114,,-1.1823074952011001,,
,4967.0,1153.0,4769.0,1564.0,1934.0,2476.0,2257.0,,,,0.0521487973269575,-1.84184206908662,0.0899048511038068,,-1.2793714723753968,,
,4966.0,1152.0,4766.0,1563.0,1932.0,2473.0,2283.0,,,,0.0521627103001733,-1.84182145468767,0.0898998463208812,,-1.377888485133512,,
,4969.0,1154.0,4768.0,1564.0,1936.0,2462.0,2266.0,,,,0.0521376456762064,-1.84182006756555,0.0899041824617896,,-1.476155311339666,,
,4968.0,1154.0,4769.0,1562.0,1937.0,2469.0,2248.0,,,,0.0521565279518607,-1.84254282132589,0.0899019267413914,,-1.571966422431033,,
,4967.0,1153.0,4767.0,1563.0,1931.0,2466.0,2255.0,,,,0.0521332916360645,-1.84245963604264,0.0898955719520186,,-1.6626526770702819,,
,4967.0,1151.0,4768.0,1560.0,1935.0,2469.0,2259.0,,,,0.0521003285897976,-1.84289543295053,0.0898901636432309,,-1.7451537046573151,,
,4967.0,1152.0,4769.0,1562.0,1944.0,2471.0,2251.0,,,,0.0521081888279036,-1.84306359645676,0.0898921721529728,,-1.816127081467783,,
,4967.0,1153.0,4767.0,1562.0,1945.0,2472.0,2244.0,,,,0.0521207463268084,-1.84285617836714,0.0898979881001284,,-1.872093294005058,,
,4969.0,1154.0,4768.0,1561.0,1936.0,2468.0,2240.0,,,,0.052118009220649,-1.84265957439001,0.0898941360466719,,-1.9096101025927512,,
,4966.0,1152.0,4766.0,1561.0,1939.0,2474.0,2240.0,,,,0.0520937784637814,-1.84297329527226,0.089888436242411,,-1.9254640788370239,,
,4967.0,1153.0,4765.0,1559.0,1939.0,2480.0,2242.0,,,,0.0520793655478851,-1.84291415104365,0.0898831605272123,,-1.9168621404275654,,
,4967.0,1153.0,4770.0,1562.0,1938.0,2476.0,2254.0,,,,0.0520394592049336,-1.8436796628509,0.0898871922812843,,-1.8816035980923635,,
,4969.0,1155.0,4766.0,1563.0,1937.0,2480.0,2249.0,,,,0.052065989682917,-1.84395554252408,0.0898912348104346,,-1.8182148217416467,,
,4968.0,1153.0,4768.0,1565.0,1940.0,2480.0,2238.0,,,,0.0520868565750533,-1.84414702411281,0.0898877399847184,,-1.7260339334183292,,
,4970.0,1153.0,4769.0,1564.0,1941.0,2482.0,2242.0,,,,0.0520416921721919,-1.84371872429488,0.0898867006958332,,-1.6052403405485733,,
,4972.0,1154.0,4768.0,1564.0,1944.0,2472.0,2242.0,,,,0.0520530096338683,-1.84388462437527,0.0898881351784512,,-1.456831390446641,,
,4971.0,1154.0,4769.0,1565.0,1948.0,2464.0,2237.0,,,,0.0520048103572118,-1.84405134160288,0.0898789641309755,,-1.2825544119583818,,
,4973.0,1153.0,4770.0,1567.0,1958.0,2482.0,2291.0,,,,0.0520396031271305,-1.84407726800543,0.0898867008290396,,-1.0848062138712946,,
,4972.0,1155.0,4769.0,1564.0,1952.0,2477.0,2281.0,,,,0.052016378902095,-1.84508934769047,0.0898702166862292,,-0.8665137552815254,,
,4975.0,1155.0,4772.0,1564.0,1938.0,2470.0,2251.0,,,,0.0520108929712583,-1.84511467448477,0.0898790734650736,,-0.6310095779438005,,
,4977.0,1155.0,4773.0,1568.0,1944.0,2464.0,2255.0,,,,0.0519726053249334,-1.84452742429049,0.0898742474168056,,-0.3819139886652632,,
,4978.0,1157.0,4773.0,1567.0,1950.0,2465.0,2253.0,,,,0.0519306052507284,-1.84576231675482,0.0898773998177677,,-0.12303284463353144,,
,4976.0,1156.0,4774.0,1566.0,1940.0,2463.0,2265.0,,,,0.0519278051467066,-1.84551680573861,0.0898729205022755,,0.14172496219625907,,
,4978.0,1157.0,4774.0,1568.0,1947.0,2457.0,2247.0,,,,0.0518964148662876,-1.84699021187028,0.0898675279558578,,0.4084119750710268,,
,4978.0,1158.0,4774.0,1570.0,1939.0,2456.0,2258.0,,,,0.0517827520802001,-1.84755206836096,0.0898403306331033,,0.673095316620462,,
,4977.0,1157.0,4779.0,1569.0,1935.0,2458.0,2251.0,,,,0.0517054730390677,-1.84840025514659,0.0898510440102599,,0.9319076894431187,,
,4981.0,1158.0,4775.0,1569.0,1942.0,2458.0,2255.0,,,,0.0516476344830099,-1.84927474049942,0.0898246659659907,,1.1811044581039878,,
,4981.0,1158.0,4776.0,1571.0,1934.0,2462.0,2242.0,,,,0.0516340246845998,-1.8498982942542,0.0898338399390306,,1.417131390572126,,
,4981.0,1160.0,4778.0,1568.0,1932.0,2468.0,2246.0,,,,0.0515620641892031,-1.84995890774119,0.0897950455155752,,1.6367027393660836,,
,4983.0,1159.0,4775.0,1570.0,1929.0,2469.0,2246.0,,,,0.051593656748308,-1.85082813794951,0.0897973124014223,,1.8368844150469237,,
,4982.0,1157.0,4779.0,1570.0,1930.0,2476.0,2240.0,,,,0.0515583068153809,-1.85111783276915,0.0897912557171645,,2.0151729185303826,,
,4986.0,1160.0,4779.0,1570.0,1945.0,2480.0,2253.0,,,,0.0515533974040294,-1.85098007665892,0.0897719691809053,,2.169558259237237,,
,4986.0,1162.0,4780.0,1573.0,1938.0,2480.0,2248.0,,,,0.0515481179066036,-1.85110880962281,0.0897770943683365,,2.29855910666487,,
,4986.0,1160.0,4782.0,1574.0,1935.0,2480.0,2251.0,,,,0.0515283717620231,-1.85151804500982,0.0897410724674607,,2.401221523566632,,
,4987.0,1160.0,4780.0,1572.0,1928.0,2468.0,2250.0,,,,0.0515151938095359,-1.8515315640116,0.0897645266708078,,2.477078891534659,,
,4988.0,1161.0,4782.0,1572.0,1924.0,2465.0,2260.0,,,,0.0515511846189519,-1.85179865778223,0.0897684804891172,,2.5260791141965817,,
,4990.0,1163.0,4787.0,1574.0,1934.0,2473.0,2271.0,,,,0.0515876066206609,-1.85052697115081,0.0897672845191942,,2.548493535190855,,
,4990.0,1163.0,4786.0,1578.0,1935.0,2475.0,2267.0,,,,0.0516076114157455,-1.85033310412877,0.0897541163208688,,2.544827124697763,,
,4993.0,1163.0,4785.0,1575.0,1931.0,2465.0,2249.0,,,,0.0516394993809009,-1.85023015596403,0.0897698873160149,,2.515749182477396,,
,4990.0,1165.0,4786.0,1576.0,1935.0,2468.0,2252.0,,,,0.0516541552193348,-1.8500968625201,0.0897913655859424,,2.462058156358031,,
,4996.0,1164.0,4787.0,1577.0,1941.0,2462.0,2269.0,,,,0.0516723035905335,-1.849993272195,0.0898356342611588,,2.3846851742972968,,
,4995.0,1164.0,4787.0,1577.0,1938.0,2462.0,2270.0,,,,0.0517224068021364,-1.84922473213464,0.0898430030898544,,2.2847310999375483,,
,4995.0,1166.0,4790.0,1577.0,1943.0,2475.0,2269.0,,,,0.0517207908778078,-1.84971808097795,0.0898003155854165,,2.1635236096881933,,
,4996.0,1165.0,4790.0,1576.0,1961.0,2467.0,2258.0,,,,0.0517399275089481,-1.8491066962611,0.0898066296410316,,2.022675672622172,,
,4998.0,1164.0,4791.0,1577.0,1965.0,2478.0,2249.0,,,,0.0517127418838099,-1.84819913930568,0.0897945618962723,,1.864125863103409,,
,4999.0,1165.0,4792.0,1578.0,1958.0,2484.0,2263.0,,,,0.0517173005065892,-1.84862407211385,0.0898366596744596,,1.6901442014841084,,
,5000.0,1166.0,4795.0,1579.0,1949.0,2498.0,2267.0,,,,0.0517387089457664,-1.84865235954705,0.0898104595292912,,1.5032940000807267,,
,4998.0,1164.0,4790.0,1577.0,1942.0,2491.0,2253.0,,,,0.0517922648564208,-1.8489215841864,0.089803690002449,,1.3063493128756067,,
,4999.0,1166.0,4792.0,1576.0,1955.0,2498.0,2248.0,,,,0.0517243850192148,-1.84887327205005,0.0897677477053614,,1.1021773165233575,,
,4998.0,1164.0,4792.0,1579.0,1949.0,2485.0,2250.0,,,,0.0517564158173799,-1.84866107447266,0.0898089594695553,,0.8936028535882601,,
,4997.0,1165.0,4792.0,1577.0,1938.0,2475.0,2252.0,,,,0.0517760144945274,-1.8485297987259,0.0897921100964484,,0.6832760095042484,,
,4993.0,1162.0,4786.0,1575.0,1932.0,2460.0,2271.0,,,,0.0517785544369032,-1.84859324526167,0.0898216748854179,,0.473562005084031,,
,4989.0,1166.0,4787.0,1576.0,1927.0,2459.0,2266.0,,,,0.051757299738101,-1.84821609097082,0.0898046001718012,,0.26646701450238075,,
,4989.0,1163.0,4780.0,1571.0,1928.0,2448.0,2275.0,,,,0.0517655485550961,-1.84870202986614,0.0898220285203717,,0.06360599531821724,,
,4986.0,1160.0,4778.0,1572.0,1925.0,2445.0,2266.0,,,,0.0517476891471937,-1.8485475680805,0.0897804871486473,,-0.13378884046768325,,
,4984.0,1158.0,4773.0,1570.0,1920.0,2456.0,2251.0,,,,0.0517538121975929,-1.84897200843318,0.0898086367701912,,-0.3248264723555216,,
,4980.0,1161.0,4773.0,1569.0,1918.0,2462.0,2267.0,,,,0.0517447487149265,-1.84864442059871,0.0897982311827639,,-0.5088941574332724,,
,4978.0,1159.0,4770.0,1569.0,1927.0,2465.0,2244.0,,,,0.0518173282253171,-1.84884364982862,0.089801468369486,,-0.6855866046134674,,
,4977.0,1159.0,4770.0,1569.0,1926.0,2463.0,2237.0,,,,0.0517678031772472,-1.84836922607745,0.089785941746094,,-0.8546398990172207,,
,4973.0,1156.0,4764.0,1562.0,1929.0,2472.0,2252.0,,,,0.0517555045625495,-1.84879658045992,0.0897848108002341,,-1.0158797331445764,,
,4970.0,1155.0,4765.0,1565.0,1938.0,2470.0,2227.0,,,,0.0517502132890304,-1.84838140205325,0.089823497386874,,-1.1691885511930558,,
,4971.0,1157.0,4765.0,1565.0,1958.0,2490.0,2242.0,,,,0.0517388621088549,-1.8488415402462,0.0897875516854164,,-1.3144904405275997,,
,4968.0,1155.0,4765.0,1565.0,1973.0,2502.0,2241.0,,,,0.05176265082759,-1.84854077087119,0.0898413434159188,,-1.4517475550811105,,
,4968.0,1154.0,4761.0,1564.0,1964.0,2503.0,2242.0,,,,0.0517675376433152,-1.84884944007158,0.0897801023172028,,-1.5809588725077994,,
,4967.0,1154.0,4763.0,1564.0,1956.0,2500.0,2235.0,,,,0.0518309777790318,-1.84845796666673,0.0898112873109759,,-1.7021516217606623,,
,4968.0,1156.0,4762.0,1566.0,1968.0,2490.0,2251.0,,,,0.0518289559254104,-1.84864799737116,0.0898122896793613,,-1.8153574985657968,,
,4969.0,1155.0,4763.0,1565.0,1978.0,2482.0,2224.0,,,,0.0517949310114717,-1.84819038841049,0.0898255484338737,,-1.9205693359740468,,
,4966.0,1155.0,4761.0,1564.0,1954.0,2478.0,2228.0,,,,0.0518570910014559,-1.84800524905211,0.0897993024594301,,-2.0176785823872083,,
,4969.0,1154.0,4762.0,1563.0,1952.0,2478.0,2240.0,,,,0.0518516566862079,-1.84840910049939,0.0897837095804408,,-2.106398839097344,,
,4967.0,1156.0,4760.0,1563.0,1954.0,2467.0,2242.0,,,,0.051820961569016,-1.84809000342177,0.0898040836094489,,-2.186184855454293,,
,4968.0,1156.0,4763.0,1565.0,1966.0,2467.0,2242.0,,,,0.0518107863545108,-1.84840024367765,0.0897911330358643,,-2.256159069864115,,
,4967.0,1157.0,4764.0,1566.0,1956.0,2467.0,2245.0,,,,0.0518209345428035,-1.84886589358539,0.0897987034331711,,-2.3150585388497285,,
,4970.0,1153.0,4765.0,1564.0,1944.0,2475.0,2269.0,,,,0.0518372620395426,-1.84831466369614,0.0897876341972204,,-2.361213576839809,,
,4970.0,1154.0,4764.0,1566.0,1942.0,2471.0,2265.0,,,,0.0518278835624066,-1.84856119528173,0.0898017292757597,,-2.3925657444225257,,
,4970.0,1156.0,4763.0,1565.0,1938.0,2468.0,2242.0,,,,0.0517886825219526,-1.84840167949992,0.0898018174806556,,-2.406727859401448,,
,4971.0,1155.0,4766.0,1566.0,1935.0,2464.0,2241.0,,,,0.0518547977422335,-1.8486947819724,0.0897874584702836,,-2.401083840994597,,
,4971.0,1155.0,4762.0,1567.0,1932.0,2477.0,2219.0,,,,0.0518416139771646,-1.84843720888876,0.0897828567446203,,-2.372922504001327,,
,4973.0,1156.0,4765.0,1566.0,1929.0,2478.0,2238.0,,,,0.0517403988523403,-1.84879620220624,0.0897872409232094,,-2.3195971524945325,,
,4973.0,1158.0,4767.0,1569.0,1925.0,2474.0,2238.0,,,,0.0517479102581942,-1.84851278951052,0.0897989848485174,,-2.238701610018307,,
,4972.0,1156.0,4765.0,1566.0,1925.0,2472.0,2248.0,,,,0.0517557996771328,-1.84861183975803,0.0897958741544729,,-2.1282526640757267,,
,4973.0,1155.0,4764.0,1567.0,1929.0,2466.0,2251.0,,,,0.0517491879073449,-1.84904163416773,0.0897683958039572,,-1.9868684859586425,,
,4973.0,1156.0,4767.0,1569.0,1923.0,2465.0,2240.0,,,,0.0517870570570265,-1.84923557703401,0.0897584258295194,,-1.8139323495981032,,
,4971.0,1154.0,4763.0,1569.0,1924.0,2463.0,2259.0,,,,0.0517495140010075,-1.8486110106621,0.0897786215013183,,-1.6097309981334107,,
,4973.0,1157.0,4766.0,1566.0,1926.0,2459.0,2279.0,,,,0.0517308069928271,-1.849602931168,0.0897725107710812,,-1.3755573760921125,,
,4970.0,1156.0,4763.0,1567.0,1933.0,2468.0,2255.0,,,,0.0517402525213675,-1.84979458718954,0.0897423265627874,,-1.1137682042070038,,
,4972.0,1155.0,4765.0,1565.0,1935.0,2466.0,2257.0,,,,0.0517567485313159,-1.84943464608532,0.0897499110015954,,-0.8277881631828362,,
,4971.0,1158.0,4764.0,1568.0,1927.0,2469.0,2243.0,,,,0.0518109128085908,-1.85011152810286,0.0897415690494577,,-0.5220546292485077,,
,4971.0,1158.0,4764.0,1568.0,1924.0,2466.0,2233.0,,,,0.0518366599648927,-1.85010154895657,0.0897389192375422,,-0.20190041254904803,,
,4971.0,1154.0,4764.0,1565.0,1938.0,2464.0,2255.0,,,,0.0518040422077866,-1.84988958932435,0.0897122923244436,,0.12662311014593622,,
,4971.0,1156.0,4763.0,1566.0,1941.0,2476.0,2254.0,,,,0.0517755796237346,-1.84955398248267,0.0897062963715985,,0.4569742987102258,,
,4970.0,1155.0,4763.0,1568.0,1944.0,2472.0,2229.0,,,,0.0518179092049776,-1.84973089646306,0.0897419658464915,,0.7823872592846023,,
,4972.0,1157.0,4765.0,1569.0,1950.0,2474.0,2225.0,,,,0.0517921928605464,-1.84937637156573,0.0897327766289183,,1.0961573891706464,,
,4973.0,1156.0,4762.0,1566.0,1951.0,2480.0,2221.0,,,,0.0517924818202729,-1.85023856878326,0.089729355056757,,1.3919254562869314,,
,4971.0,1157.0,4762.0,1566.0,1938.0,2474.0,2229.0,,,,0.0518734237514124,-1.84924046749706,0.0897335658262335,,1.6639383289666871,,
,4971.0,1156.0,4762.0,1566.0,1933.0,2486.0,2243.0,,,,0.0518480587613532,-1.8500556169947,0.0897178600150041,,1.9072658665147484,,
,4973.0,1157.0,4765.0,1569.0,1932.0,2481.0,2234.0,,,,0.0517773046480584,-1.84970042782538,0.0896768723090239,,2.117957323779832,,
,4971.0,1158.0,4762.0,1568.0,1955.0,2485.0,2238.0,,,,0.0517367897417322,-1.84955770317555,0.0897042541281569,,2.293126803347227,,
,4973.0,1155.0,4764.0,1566.0,1941.0,2470.0,2239.0,,,,0.0518050217652232,-1.8500666869225,0.0897247483090971,,2.4309654292067924,,
,4975.0,1158.0,4767.0,1569.0,1936.0,2467.0,2220.0,,,,0.051794899338551,-1.84961932950676,0.0897443879962883,,2.530687139569637,,
,4975.0,1157.0,4763.0,1570.0,1941.0,2471.0,2221.0,,,,0.0517778098267033,-1.84979020101033,0.0897303842534026,,2.592423537461111,,
,4976.0,1158.0,4764.0,1569.0,1943.0,2475.0,2242.0,,,,0.0517675164673754,-1.84998909479574,0.089700723317338,,2.6170887830457485,,
,4976.0,1158.0,4766.0,1568.0,1937.0,2465.0,2227.0,,,,0.0517549458178613,-1.85061041504307,0.089660197594264,,2.6062365246912123,,
,4977.0,1157.0,4767.0,1572.0,1944.0,2470.0,2251.0,,,,0.0517181310968464,-1.85123806553064,0.0896372193588357,,2.5619275402903314,,
,4980.0,1159.0,4767.0,1571.0,1944.0,2477.0,2260.0,,,,0.0517374553273236,-1.85127611350706,0.089666677510634,,2.4866205359397937,,
,4980.0,1158.0,4767.0,1570.0,1939.0,2480.0,2253.0,,,,0.0517650085633095,-1.85139309574939,0.0896445072785345,,2.383091047236092,,
,4978.0,1157.0,4767.0,1572.0,1935.0,2467.0,2230.0,,,,0.0517245979170865,-1.85153708575636,0.0896279922310626,,2.2543759935315344,,
,4979.0,1158.0,4769.0,1572.0,1941.0,2476.0,2228.0,,,,0.0516683708666089,-1.85267559770157,0.0896107442971448,,2.103735379457924,,
,4982.0,1160.0,4770.0,1574.0,1937.0,2474.0,2243.0,,,,0.0516132159301587,-1.85348789350607,0.0895949732738316,,1.934618955554486,,
,4983.0,1159.0,4771.0,1573.0,1939.0,2467.0,2236.0,,,,0.0516370678513051,-1.85387195293524,0.0895925862852344,,1.7506250128370344,,
,4983.0,1157.0,4772.0,1571.0,1944.0,2477.0,2226.0,,,,0.0516213156919157,-1.85422817942677,0.089613233096449,,1.5554411093224039,,
,4983.0,1160.0,4772.0,1571.0,1939.0,2464.0,2241.0,,,,0.0515583701641472,-1.85459580618815,0.0895781683795237,,1.3527619673296818,,
,4987.0,1163.0,4773.0,1572.0,1945.0,2468.0,2249.0,,,,0.0515069253380634,-1.85494619402826,0.0895596013252525,,1.146186629128795,,
,4985.0,1161.0,4773.0,1573.0,1942.0,2464.0,2234.0,,,,0.0514517891976151,-1.85589521215845,0.0894949993475704,,0.9391030694458998,,
,4986.0,1160.0,4770.0,1573.0,1939.0,2463.0,2240.0,,,,0.0514325242275056,-1.85685874541994,0.0895103791247668,,0.734572063481587,,
,4987.0,1162.0,4772.0,1575.0,1938.0,2469.0,2236.0,,,,0.051343117037184,-1.85759053418388,0.0895318995095294,,0.535222772383856,,
,4988.0,1163.0,4775.0,1574.0,1949.0,2480.0,2229.0,,,,0.0513245023986582,-1.85791456400722,0.0895341670288272,,0.3431708866354807,,
,4988.0,1163.0,4775.0,1576.0,1945.0,2483.0,2236.0,,,,0.051286891506648,-1.85807645589771,0.0894750598537425,,0.15996703916931423,,
,4988.0,1161.0,4776.0,1576.0,1950.0,2457.0,2243.0,,,,0.0512356902481949,-1.85926445876889,0.0894591745048682,,-0.01342089202586541,,
,4990.0,1162.0,4781.0,1579.0,1946.0,2469.0,2253.0,,,,0.0511668836999558,-1.85952361009297,0.0894474039575776,,-0.17659241116326943,,
,4992.0,1163.0,4779.0,1578.0,1930.0,2467.0,2251.0,,,,0.0512081193637128,-1.86056016851908,0.089442095891196,,-0.32967070556205175,,
,4992.0,1166.0,4781.0,1577.0,1938.0,2483.0,2263.0,,,,0.0511626158697631,-1.86023752017089,0.0894271767200659,,-0.47323788708423103,,
,4992.0,1164.0,4783.0,1577.0,1946.0,2485.0,2265.0,,,,0.0511530272847865,-1.86053002318143,0.0894385256345665,,-0.6082569367134629,,
,4993.0,1163.0,4782.0,1579.0,1947.0,2472.0,2247.0,,,,0.0511268911247165,-1.8605190540043,0.0893751125603673,,-0.7359864307071272,,
2025-07-02 21:49:39,4994.0,1166.0,4783.0,1580.0,1938.0,2473.0,2263.0,,,2025/07/02 09:49:39 PM,0.051197811217668,-1.86169857060975,0.0893678766485133,,-0.8578908325608786,,
,4995.0,1165.0,4783.0,1580.0,1947.0,2474.0,2242.0,,,,0.051167586376097,-1.86109023492543,0.089372278828128,,-0.975545607008504,,
,4996.0,1165.0,4782.0,1578.0,1945.0,2464.0,2240.0,,,,0.0512506315510336,-1.8618685986659,0.089397284894947,,-1.0905342992522014,,
,4994.0,1165.0,4785.0,1578.0,1949.0,2469.0,2241.0,,,,0.0512286202077938,-1.86129489815805,0.0894344435518029,,-1.204334977157727,,
,4995.0,1165.0,4784.0,1579.0,1948.0,2467.0,2228.0,,,,0.0512417680234622,-1.86085114406984,0.0894107062492196,,-1.3181958597126284,,
,4994.0,1166.0,4784.0,1580.0,1936.0,2464.0,2232.0,,,,0.0512321379231997,-1.86078887243062,0.0894160245176887,,-1.4330036868988227,,
,4990.0,1167.0,4781.0,1577.0,1932.0,2464.0,2239.0,,,,0.0512901910673207,-1.86039486094094,0.0894623254711304,,-1.5491525526835226,,
,4987.0,1162.0,4778.0,1576.0,1929.0,2459.0,2272.0,,,,0.0512783092819695,-1.85998464110398,0.089484448116518,,-1.6664247691068792,,
,4987.0,1162.0,4778.0,1577.0,1920.0,2455.0,2250.0,,,,0.051290825097314,-1.85978113666908,0.0894677886949459,,-1.7838980547197363,,
,4983.0,1162.0,4778.0,1576.0,1923.0,2460.0,2257.0,,,,0.0512859034392117,-1.85953737944416,0.0894520421005851,,-1.8998941533429785,,
,4980.0,1161.0,4775.0,1575.0,1929.0,2463.0,2247.0,,,,0.051301494723883,-1.85966577149208,0.0894434117189971,,-2.011982332660356,,
,4978.0,1161.0,4769.0,1571.0,1932.0,2472.0,2250.0,,,,0.0513105574492447,-1.85843214557203,0.0894819964135056,,-2.117046883433173,,
,4974.0,1161.0,4768.0,1573.0,1931.0,2472.0,2259.0,,,,0.051294522159067,-1.85889873300528,0.0895069571283676,,-2.2114209374941582,,
,4974.0,1161.0,4765.0,1573.0,1925.0,2465.0,2251.0,,,,0.0513116432485354,-1.85889930702785,0.0894631395104606,,-2.291080439346441,,
,4971.0,1159.0,4766.0,1573.0,1922.0,2461.0,2236.0,,,,0.051303394623172,-1.85922234144927,0.0895225179916337,,-2.351883526505437,,
,4968.0,1158.0,4764.0,1568.0,1945.0,2477.0,2237.0,,,,0.0512898734106169,-1.85866685582401,0.0895049047184732,,-2.3898339358571863,,
,4967.0,1157.0,4760.0,1567.0,1952.0,2485.0,2256.0,,,,0.0513467968596397,-1.85824009796986,0.0895432207707201,,-2.4013439239148786,,
,4969.0,1157.0,4763.0,1566.0,1949.0,2491.0,2242.0,,,,0.0512960733603178,-1.85786064253871,0.0894925267012217,,-2.3834729949780913,,
,4967.0,1156.0,4761.0,1568.0,1946.0,2483.0,2241.0,,,,0.051339887981242,-1.85783243438191,0.0895034913517372,,-2.3341229094993494,,
,4967.0,1156.0,4760.0,1565.0,1934.0,2486.0,2234.0,,,,0.0513544164537301,-1.85705533480119,0.0895333407680015,,-2.25217588480306,,
,4964.0,1156.0,4757.0,1565.0,1939.0,2477.0,2213.0,,,,0.05137918026084,-1.85703305964711,0.0895173476317469,,-2.13757017520598,,
,4968.0,1155.0,4759.0,1567.0,1955.0,2480.0,2232.0,,,,0.051360544237191,-1.85660462202878,0.0895550821361185,,-1.9913138619866952,,
,4964.0,1157.0,4759.0,1567.0,1963.0,2472.0,2213.0,,,,0.0513836834311153,-1.85643145958078,0.0895662839198623,,-1.815442637635751,,
,4965.0,1154.0,4763.0,1569.0,1955.0,2475.0,2226.0,,,,0.0514023742108289,-1.85660067996648,0.0895544345199572,,-1.6129301842613506,,
,4965.0,1154.0,4760.0,1566.0,1957.0,2474.0,2255.0,,,,0.0513896989987611,-1.85677810965479,0.0895615254885911,,-1.387560401882016,,
,4965.0,1158.0,4764.0,1567.0,1953.0,2477.0,2244.0,,,,0.0514228196589174,-1.8563692460856,0.0895779498781592,,-1.1437695212739085,,
,4966.0,1158.0,4759.0,1568.0,1953.0,2470.0,2245.0,,,,0.0514495065753366,-1.85662462860732,0.0895822244828795,,-0.886463781852834,,
,4967.0,1155.0,4762.0,1569.0,1951.0,2473.0,2254.0,,,,0.0514457941291847,-1.85643913994031,0.0896023728793129,,-0.6208161832223245,,
,4966.0,1157.0,4761.0,1566.0,1940.0,2465.0,2249.0,,,,0.0514010572304746,-1.85603832654087,0.0896048452501189,,-0.3520453729880094,,
,4971.0,1158.0,4765.0,1569.0,1937.0,2461.0,2232.0,,,,0.0514576681535105,-1.85682599016487,0.0895578632408971,,-0.08518196903669772,,
,4969.0,1159.0,4764.0,1572.0,1945.0,2469.0,2231.0,,,,0.0514687603772909,-1.85651407669975,0.089598328992929,,0.17516781044845448,,
,4973.0,1159.0,4768.0,1571.0,1951.0,2471.0,2224.0,,,,0.0514326909414648,-1.85629539709323,0.0895741362048068,,0.4250459274730659,,
,4970.0,1156.0,4764.0,1569.0,1948.0,2463.0,2239.0,,,,0.0514196119159756,-1.85661615265702,0.0895567400301678,,0.66133400397856,,
,4971.0,1157.0,4764.0,1570.0,1932.0,2463.0,2246.0,,,,0.051438857808622,-1.85656440374724,0.0895438226332367,,0.8818907811953091,,
,4972.0,1159.0,4768.0,1572.0,1936.0,2467.0,2238.0,,,,0.0513941650572508,-1.85656501455933,0.0895493002781709,,1.0856151877493871,,
,4971.0,1160.0,4766.0,1570.0,1938.0,2472.0,2245.0,,,,0.051332152658241,-1.85624398043144,0.0895809800915331,,1.2724197564418347,,
,4970.0,1156.0,4765.0,1570.0,1934.0,2481.0,2271.0,,,,0.051352142045165,-1.85671797836739,0.0895830878505337,,1.443107761948694,,
,4971.0,1155.0,4767.0,1570.0,1934.0,2482.0,2246.0,,,,0.0514022521736842,-1.8567122238933,0.0895848578155281,,1.5991587664449904,,
,4974.0,1159.0,4770.0,1571.0,1940.0,2477.0,2224.0,,,,0.0514484194924395,-1.85688451394101,0.089591645840066,,1.742440026303228,,
,4974.0,1159.0,4770.0,1573.0,1944.0,2475.0,2237.0,,,,0.0513960011714015,-1.85610139994561,0.0895923882111598,,1.8748738103199607,,
,4972.0,1157.0,4767.0,1570.0,1944.0,2475.0,2251.0,,,,0.0513309740934779,-1.85681358099245,0.0896127607103648,,1.9981008246622747,,
,4970.0,1157.0,4769.0,1570.0,1937.0,2468.0,2256.0,,,,0.0513428703316294,-1.85698401337826,0.0896119040191369,,2.113184767128324,,
,4972.0,1158.0,4768.0,1572.0,1943.0,2463.0,2244.0,,,,0.0512919554287182,-1.85786835940437,0.0895894619920816,,2.2204001672620888,,
,4971.0,1160.0,4770.0,1571.0,1935.0,2459.0,2237.0,,,,0.0512461234690361,-1.85801442732625,0.0895850908013276,,2.3191346944496103,,
,4973.0,1160.0,4769.0,1572.0,1948.0,2468.0,2254.0,,,,0.0512086993101312,-1.85840040067085,0.0895906900826409,,2.4079200163951775,,
,4971.0,1158.0,4769.0,1572.0,1935.0,2473.0,2225.0,,,,0.0511549165681202,-1.85956673014707,0.089573971454677,,2.484585472401197,,
,4972.0,1161.0,4769.0,1571.0,1936.0,2470.0,2238.0,,,,0.0511476734293645,-1.8597093387983,0.0895701583111718,,2.5465098961079726,,
,4973.0,1160.0,4769.0,1571.0,1944.0,2476.0,2248.0,,,,0.0511027621679047,-1.85945878803998,0.0895432333477078,,2.590932121029027,,
,4972.0,1160.0,4770.0,1572.0,1953.0,2481.0,2237.0,,,,0.051099287365853,-1.86023896922451,0.0895539794341079,,2.615272641421482,,
,4974.0,1157.0,4768.0,1570.0,1941.0,2473.0,2242.0,,,,0.0510695049884964,-1.86015201676687,0.0895721572319039,,2.6174191132247158,,
,4973.0,1162.0,4771.0,1571.0,1937.0,2468.0,2248.0,,,,0.0510543039182247,-1.86033551946741,0.0895278223887421,,2.595936931452379,,
,4973.0,1158.0,4770.0,1573.0,1944.0,2463.0,2242.0,,,,0.0510582897252579,-1.86052630687266,0.0895136342026705,,2.55018157638278,,
,4974.0,1159.0,4771.0,1570.0,1955.0,2471.0,2240.0,,,,0.0510659301540093,-1.8602110749036,0.0895455338003131,,2.480308904474587,,
,4975.0,1161.0,4771.0,1569.0,1943.0,2469.0,2255.0,,,,0.051113026636191,-1.86012458243302,0.0895694119128139,,2.3871988424311636,,
,4976.0,1161.0,4771.0,1573.0,1933.0,2468.0,2224.0,,,,0.0510664017298597,-1.85980325872076,0.0895574819978742,,2.272322235167357,,
,4975.0,1159.0,4773.0,1573.0,1933.0,2465.0,2240.0,,,,0.0511005803063743,-1.85966939538346,0.0895403793210561,,2.137586385837687,,
,4979.0,1159.0,4773.0,1575.0,1930.0,2468.0,2228.0,,,,0.0510859587095695,-1.85907042659403,0.0895661151712483,,1.985191547275108,,
,4977.0,1161.0,4772.0,1574.0,1935.0,2469.0,2238.0,,,,0.0510926636208905,-1.85869881967578,0.089592361565976,,1.8175205912483596,,
,4978.0,1160.0,4774.0,1574.0,1943.0,2462.0,2219.0,,,,0.0511460730491092,-1.85862439680633,0.0896367789019613,,1.6370708606938864,,
,4978.0,1165.0,4775.0,1575.0,1937.0,2472.0,2249.0,,,,0.0511633716871183,-1.85795588644148,0.0896288698298588,,1.4464241666200035,,
,4979.0,1165.0,4774.0,1575.0,1936.0,2474.0,2240.0,,,,0.0511338316126214,-1.85711165524227,0.0896333334934853,,1.248240720087008,,
,4979.0,1161.0,4778.0,1575.0,1942.0,2464.0,2224.0,,,,0.0511867124141345,-1.8568798118157,0.0896664925725834,,1.0452574149327465,,
,4985.0,1162.0,4779.0,1577.0,1934.0,2467.0,2221.0,,,,0.0512167279101389,-1.8557940319296,0.0896869298443247,,0.8402711904069406,,
,4981.0,1167.0,4781.0,1579.0,1942.0,2465.0,2222.0,,,,0.0512242370080836,-1.85636722430049,0.0896690771044405,,0.6360938012184806,,
,4984.0,1164.0,4779.0,1580.0,1943.0,2467.0,2226.0,,,,0.0512880141311712,-1.85551177405065,0.0896789358123535,,0.43547350750374564,,
,4984.0,1165.0,4780.0,1577.0,1929.0,2474.0,2237.0,,,,0.0512814272824409,-1.85588433272813,0.0896709045406919,,0.24098930626415477,,
,4984.0,1165.0,4782.0,1578.0,1924.0,2468.0,2244.0,,,,0.051294716799035,-1.855366500765,0.0896661810889258,,0.05493146246637415,,
,4987.0,1165.0,4784.0,1579.0,1934.0,2461.0,2238.0,,,,0.0513304798820172,-1.85510527211294,0.0896997197791129,,-0.1208137903817839,,
,4987.0,1165.0,4783.0,1579.0,1937.0,2463.0,2241.0,,,,0.0513342383367399,-1.85521689865257,0.0896928881558545,,-0.28485778913845067,,
,4987.0,1165.0,4784.0,1580.0,1948.0,2452.0,2252.0,,,,0.0513044110920185,-1.85512203514689,0.0896953050165511,,-0.4363671806763619,,
,4990.0,1165.0,4785.0,1578.0,1935.0,2466.0,2231.0,,,,0.0512835494035269,-1.85529630858235,0.0897013919256544,,-0.5750772046267569,,
,4989.0,1166.0,4786.0,1582.0,1932.0,2473.0,2244.0,,,,0.0513239938764307,-1.85580374937792,0.0897127714578285,,-0.701258165827097,,
,4992.0,1167.0,4787.0,1581.0,1934.0,2475.0,2246.0,,,,0.05123623770863,-1.85627489522239,0.0896829787497305,,-0.8156393975877664,,
,4991.0,1166.0,4787.0,1583.0,1950.0,2471.0,2274.0,,,,0.0512514843803408,-1.85608248735914,0.0896866839875119,,-0.9193011878807311,,
,4991.0,1167.0,4789.0,1581.0,1952.0,2463.0,2292.0,,,,0.0511778520626589,-1.85628263103144,0.089637495647339,,-1.0135497041150852,,
,4995.0,1169.0,4791.0,1583.0,1942.0,2463.0,2277.0,,,,0.0512072491198294,-1.85651711993056,0.0896546682483205,,-1.0997919471758997,,
,4994.0,1169.0,4790.0,1584.0,1940.0,2463.0,2258.0,,,,0.0512015023903048,-1.85642965231432,0.0896574027968773,,-1.1794267009224537,,
,4995.0,1168.0,4793.0,1585.0,1934.0,2463.0,2253.0,,,,0.0512114217978474,-1.85708428896573,0.0896570882505884,,-1.2537633244226878,,
,4996.0,1169.0,4791.0,1585.0,1932.0,2461.0,2258.0,,,,0.0511442983470221,-1.85695274348095,0.089644216697546,,-1.323973658650802,,
,4995.0,1169.0,4792.0,1583.0,1941.0,2469.0,2254.0,,,,0.0511529135594367,-1.85682366844793,0.0896680893086575,,-1.3910746916629793,,
,4998.0,1172.0,4795.0,1586.0,1949.0,2492.0,2243.0,,,,0.0511679524557143,-1.85673592494445,0.0896831890636596,,-1.4559329685824998,,
,4997.0,1171.0,4794.0,1585.0,1948.0,2497.0,2245.0,,,,0.0511767554652131,-1.85677101040666,0.0896616242861273,,-1.5192778658612087,,
,4994.0,1171.0,4795.0,1584.0,1944.0,2485.0,2225.0,,,,0.051156754513625,-1.85643404732762,0.0896509093740114,,-1.5817105934197948,,
,4996.0,1169.0,4794.0,1584.0,1940.0,2476.0,2247.0,,,,0.0511498409967644,-1.85673127855153,0.0896646189374779,,-1.6436988228917586,,
,4991.0,1168.0,4794.0,1584.0,1933.0,2468.0,2256.0,,,,0.0511680113917163,-1.85683092952114,0.0896541366431826,,-1.7055520297187816,,
,4989.0,1169.0,4789.0,1580.0,1928.0,2467.0,2258.0,,,,0.0511748902041649,-1.85665593979053,0.0896720954683873,,-1.76737843144816,,
,4987.0,1165.0,4788.0,1578.0,1928.0,2462.0,2272.0,,,,0.0511512959419542,-1.85617353767502,0.0896729763345179,,-1.829029327916421,,
,4983.0,1169.0,4786.0,1578.0,1920.0,2456.0,2261.0,,,,0.0511025354270471,-1.8559269417347,0.0896968584893892,,-1.890039804471175,,
,4985.0,1167.0,4783.0,1580.0,1923.0,2455.0,2268.0,,,,0.051212300024335,-1.85586985941867,0.0896920313082388,,-1.9495759789606617,,
,4981.0,1165.0,4781.0,1577.0,1924.0,2458.0,2261.0,,,,0.0511883091403703,-1.85568915875784,0.0896830392130152,,-2.006398488841941,,
,4975.0,1165.0,4776.0,1574.0,1930.0,2463.0,2255.0,,,,0.0511710612299562,-1.85603620965834,0.0897111762417298,,-2.058849951558334,,
,4975.0,1162.0,4775.0,1573.0,1927.0,2459.0,2262.0,,,,0.051200038268184,-1.85580824955584,0.0897178766295442,,-2.1048709103196135,,
,4973.0,1160.0,4774.0,1574.0,1937.0,2461.0,2255.0,,,,0.0512211789485869,-1.85588757008483,0.0897461099030146,,-2.14204489119394,,
,4972.0,1163.0,4770.0,1574.0,1936.0,2467.0,2251.0,,,,0.0511881578534814,-1.85616752418316,0.089707876988947,,-2.167669703558283,,
,4969.0,1160.0,4769.0,1571.0,1935.0,2468.0,2251.0,,,,0.051214296543003,-1.85605295496614,0.0897239635818753,,-2.1788499713499263,,
,4968.0,1158.0,4766.0,1570.0,1956.0,2479.0,2245.0,,,,0.0512488084038916,-1.85607886514244,0.0897235053724353,,-2.172605334512641,,
,4969.0,1161.0,4768.0,1572.0,1961.0,2502.0,2260.0,,,,0.0511836408289403,-1.85643483027603,0.0897004540523432,,-2.145989391187963,,
,4965.0,1162.0,4769.0,1572.0,1961.0,2481.0,2247.0,,,,0.0512035237670606,-1.8560600141899,0.0897183982479871,,-2.096215627630951,,
,4966.0,1160.0,4766.0,1573.0,1964.0,2484.0,2252.0,,,,0.0511916940513271,-1.85602594686472,0.0896698875932502,,-2.020787734896284,,
,4964.0,1160.0,4765.0,1571.0,1956.0,2493.0,2235.0,,,,0.0512010261953126,-1.85611943190535,0.0897082706880201,,-1.9176323986092407,,
,4965.0,1162.0,4768.0,1572.0,1950.0,2487.0,2207.0,,,,0.0512199056532464,-1.8563193345746,0.089707925221724,,-1.7852325722826021,,
,4967.0,1159.0,4769.0,1571.0,1949.0,2478.0,2222.0,,,,0.0512144301090731,-1.85665547809673,0.0897079213985946,,-1.6227582097093949,,
,4966.0,1159.0,4767.0,1569.0,1959.0,2483.0,2225.0,,,,0.0512505067187504,-1.85621226280895,0.0896569155240848,,-1.430189323203178,,
,4966.0,1159.0,4766.0,1570.0,1946.0,2488.0,2247.0,,,,0.0512050244905202,-1.85602640952943,0.0897028215801683,,-1.208423204514545,,
