TimeLabel,MEAS1_PPG1,MEAS1_PPG2,MEAS1_PPG3,MEAS1_PPG4,ACCX,ACCY,ACCZ,HR_timestamp,HR_value,radar_timestamp,phase_rx0,phase_rx1,phase_rx2,timestep,n_process,original_rate,calculated_rate
2025-07-02 19:51:48,2273.0,744.0,1978.0,571.0,2028.0,2468.0,2226.0,2025-07-02 19:51:48,94.0,2025/07/02 07:51:48 PM,-0.153666100151144,-2.53751385825847,-0.399877713025539,2025/07/02 07:51:48 PM,-3.6365164062163817,21.582733154296875,22.993006993006993
,2267.0,740.0,1978.0,570.0,2013.0,2469.0,2220.0,2025-07-02 19:51:49,93.0,,-0.153497875980042,-2.53749888687766,-0.399848447608289,2025/07/02 07:51:58 PM,-3.3702686683449405,22.192333221435547,23.901583710407248
,2263.0,738.0,1973.0,566.0,1993.0,2466.0,2178.0,2025-07-02 19:51:50,94.0,,-0.153606506609678,-2.53719005291292,-0.399567774355569,2025/07/02 07:52:08 PM,-3.0567706083253463,23.125436782836918,23.774032689999075
,2262.0,737.0,1967.0,568.0,2002.0,2463.0,2198.0,2025-07-02 19:51:51,94.0,,-0.153432162850978,-2.53675323888334,-0.400015316847193,2025/07/02 07:52:18 PM,-2.69713123912117,23.723939895629883,23.434410048489642
,2258.0,735.0,1967.0,567.0,1991.0,2459.0,2217.0,2025-07-02 19:51:52,94.0,,-0.153475880043658,-2.53712389300336,-0.399940076712913,2025/07/02 07:52:28 PM,-2.2932377000830066,24.016010284423828,23.00660256185863
,2258.0,735.0,1967.0,564.0,1992.0,2462.0,2211.0,2025-07-02 19:51:53,94.0,,-0.153415055306083,-2.53708203729979,-0.398928899088359,2025/07/02 07:52:38 PM,-1.847655654776144,23.521026611328125,21.08225108225105
,2255.0,735.0,1967.0,566.0,1992.0,2471.0,2213.0,2025-07-02 19:51:54,94.0,,-0.153199497965124,-2.53660329778407,-0.39984704579593,2025/07/02 07:52:48 PM,-1.3635477656360422,22.587268829345703,21.581945880601655
,2254.0,733.0,1965.0,565.0,2003.0,2469.0,2227.0,2025-07-02 19:51:55,94.0,,-0.153386203984786,-2.53667422474107,-0.399387909267837,2025/07/02 07:52:58 PM,-0.8446401707375379,22.177419662475582,23.82088722013626
,2256.0,735.0,1964.0,565.0,2024.0,2488.0,2223.0,2025-07-02 19:51:56,94.0,,-0.153204170834027,-2.53660623291097,-0.399091312294643,2025/07/02 07:53:08 PM,-0.2952574713712025,22.57181930541992,22.45182120875797
,2258.0,738.0,1965.0,567.0,2016.0,2487.0,2191.0,2025-07-02 19:51:57,94.0,,-0.153270794899216,-2.53619917507498,-0.399308498619199,2025/07/02 07:53:18 PM,0.2795673754603523,22.84844017028809,22.985994397759075
,2252.0,734.0,1964.0,565.0,2019.0,2493.0,2194.0,2025-07-02 19:51:58,94.0,,-0.153098193603967,-2.53639569693745,-0.399074027354844,2025/07/02 07:53:28 PM,0.8739183228824217,23.060796737670895,23.429608127721366
,2254.0,732.0,1963.0,565.0,2038.0,2490.0,2189.0,2025-07-02 19:51:59,94.0,,-0.152984222052657,-2.53591523762255,-0.399324424837214,2025/07/02 07:53:38 PM,1.480782960798118,22.916667938232425,22.87631027253669
,2254.0,734.0,1963.0,568.0,2034.0,2494.0,2183.0,2025-07-02 19:52:00,93.0,,-0.152946830971809,-2.53588177922801,-0.398850732344861,2025/07/02 07:53:48 PM,2.091840868911134,23.109243392944336,22.12502382313698
,2258.0,735.0,1965.0,568.0,2039.0,2487.0,2168.0,2025-07-02 19:52:01,92.0,,-0.152826582938428,-2.53565507248272,-0.39940558901021,2025/07/02 07:53:58 PM,2.6973033815064955,23.32155418395996,21.952861952861983
,2256.0,736.0,1964.0,566.0,2036.0,2480.0,2168.0,2025-07-02 19:52:02,91.0,,-0.152743112433606,-2.53558876444378,-0.399224157345929,2025/07/02 07:54:08 PM,3.285857853198263,22.388059616088867,22.560674619498133
,2253.0,732.0,1962.0,565.0,2041.0,2476.0,2169.0,2025-07-02 19:52:03,91.0,,-0.152776439389418,-2.53519768192877,-0.398812484185955,2025/07/02 07:54:18 PM,3.8447645755689326,22.41847801208496,23.207139265962805
,2253.0,734.0,1961.0,564.0,2031.0,2472.0,2192.0,2025-07-02 19:52:04,89.0,,-0.152691430121868,-2.53506055743411,-0.399147434177951,2025/07/02 07:54:28 PM,4.360140728403381,22.602739334106445,21.539657660347306
,2253.0,731.0,1963.0,566.0,2015.0,2473.0,2189.0,2025-07-02 19:52:05,88.0,,-0.152685356537338,-2.53506558146643,-0.399103280968622,2025/07/02 07:54:38 PM,4.817444471255771,22.40478134155273,24.69949300474907
,2256.0,736.0,1964.0,568.0,2026.0,2465.0,2172.0,2025-07-02 19:52:06,88.0,,-0.152722515065638,-2.5348468998942,-0.39887681352228,,5.20214617114658,,
,2256.0,733.0,1965.0,568.0,2033.0,2472.0,2180.0,2025-07-02 19:52:07,87.0,,-0.152595621413978,-2.53467043277932,-0.399267001851646,,5.500546244526194,,
,2254.0,734.0,1962.0,566.0,2024.0,2468.0,2194.0,2025-07-02 19:52:08,87.0,,-0.152526245545845,-2.53448526052703,-0.399469101651235,,5.700674022832166,,
,2257.0,736.0,1963.0,565.0,2022.0,2466.0,2193.0,2025-07-02 19:52:09,86.0,,-0.152644179222903,-2.53449804770756,-0.399137461343025,,5.793183258081851,,
,2258.0,735.0,1966.0,567.0,2007.0,2469.0,2201.0,2025-07-02 19:52:10,87.0,,-0.152404748895723,-2.53424661683676,-0.398903382845314,,5.772150493315843,,
,2257.0,734.0,1966.0,568.0,2012.0,2478.0,2211.0,2025-07-02 19:52:11,87.0,,-0.152382467835691,-2.53415359211714,-0.399061298714351,,5.635684493985723,,
,2256.0,731.0,1964.0,564.0,2009.0,2477.0,2203.0,2025-07-02 19:52:12,87.0,,-0.152532669542988,-2.53413987599144,-0.399033935648688,,5.386268983787361,,
,2255.0,735.0,1964.0,566.0,2000.0,2463.0,2208.0,2025-07-02 19:52:13,87.0,,-0.152498731521752,-2.53411353778247,-0.399014644785174,,5.030786449490344,,
,2260.0,735.0,1966.0,569.0,2018.0,2468.0,2197.0,2025-07-02 19:52:14,87.0,,-0.152679672961877,-2.53442350465446,-0.399228800062478,,4.580205446927403,,
,2259.0,737.0,1967.0,567.0,2033.0,2473.0,2203.0,2025-07-02 19:52:15,87.0,,-0.152778712216133,-2.53457159107506,-0.399211902923964,,4.048953197881376,,
,2258.0,734.0,1965.0,566.0,2030.0,2468.0,2217.0,2025-07-02 19:52:16,87.0,,-0.152925501965644,-2.53507126763839,-0.399036701713114,,3.45403310477542,,
,2256.0,734.0,1964.0,565.0,2031.0,2464.0,2204.0,2025-07-02 19:52:17,87.0,,-0.152921587690662,-2.53508410249941,-0.398069642381947,,2.8139765148182967,,
,2260.0,734.0,1966.0,566.0,2013.0,2469.0,2206.0,2025-07-02 19:52:18,87.0,,-0.153039791426881,-2.53511263538657,-0.398765639750043,,2.14773440344027,,
,2259.0,736.0,1962.0,565.0,2003.0,2477.0,2222.0,2025-07-02 19:52:19,87.0,,-0.153163465433632,-2.53549656811509,-0.398817661091273,,1.4736152988315394,,
,2260.0,734.0,1967.0,567.0,2000.0,2468.0,2231.0,2025-07-02 19:52:20,87.0,,-0.153302287938781,-2.53580231182485,-0.399337516400365,,0.8083619851216216,,
,2258.0,734.0,1964.0,564.0,1994.0,2463.0,2212.0,2025-07-02 19:52:21,87.0,,-0.153337961697494,-2.53596051578076,-0.39992018608639,,0.16643543811518985,,
,2259.0,737.0,1963.0,567.0,1991.0,2472.0,2221.0,2025-07-02 19:52:22,87.0,,-0.15375615086406,-2.5362820775276,-0.40065155647496,,-0.44045461208484704,,
,2260.0,735.0,1966.0,568.0,2025.0,2470.0,2211.0,2025-07-02 19:52:23,87.0,,-0.153867758359024,-2.53639474090906,-0.401627672392268,,-1.003562294893896,,
,2260.0,735.0,1966.0,567.0,2019.0,2468.0,2205.0,2025-07-02 19:52:24,87.0,,-0.153878913813277,-2.53654311992985,-0.401459836382731,,-1.5170769222105163,,
,2259.0,734.0,1966.0,567.0,2010.0,2464.0,2201.0,2025-07-02 19:52:25,87.0,,-0.154142773573326,-2.53686155063206,-0.402271168973013,,-1.9778883172296144,,
,2260.0,735.0,1965.0,568.0,2003.0,2469.0,2212.0,2025-07-02 19:52:26,87.0,,-0.154190464712034,-2.53634424679724,-0.402489375190025,,-2.3851937820727653,,
,2261.0,735.0,1967.0,567.0,2023.0,2473.0,2213.0,2025-07-02 19:52:27,87.0,,-0.153976612855393,-2.53667778021375,-0.402496726187717,,-2.7399992673098925,,
,2261.0,734.0,1968.0,568.0,2028.0,2479.0,2201.0,2025-07-02 19:52:28,87.0,,-0.154000722893786,-2.53641669599832,-0.402601971185261,,-3.044566495859012,,
,2262.0,736.0,1969.0,567.0,2013.0,2477.0,2192.0,2025-07-02 19:52:29,87.0,,-0.153895490386377,-2.53617229880518,-0.401378743294315,,-3.301853626449248,,
,2260.0,738.0,1967.0,568.0,2010.0,2468.0,2215.0,2025-07-02 19:52:30,88.0,,-0.15391685156624,-2.53549847889869,-0.402388319714564,,-3.5149913028517723,,
,2265.0,735.0,1970.0,567.0,2007.0,2492.0,2193.0,2025-07-02 19:52:31,88.0,,-0.153506407731934,-2.53538827251902,-0.401710578650998,,-3.686829329717186,,
,2268.0,736.0,1970.0,569.0,2000.0,2495.0,2204.0,2025-07-02 19:52:32,87.0,,-0.15352392966025,-2.53516520696668,-0.401512552539037,,-3.8195818118132214,,
,2268.0,739.0,1972.0,570.0,2006.0,2485.0,2206.0,2025-07-02 19:52:33,87.0,,-0.153264983718137,-2.53478208111443,-0.401290393267465,,-3.91459036735172,,
,2266.0,736.0,1972.0,567.0,2006.0,2479.0,2213.0,2025-07-02 19:52:34,87.0,,-0.153160781095678,-2.53452597401302,-0.401800581713278,,-3.972216021217003,,
,2266.0,736.0,1973.0,571.0,2011.0,2483.0,2222.0,2025-07-02 19:52:35,87.0,,-0.153048039099226,-2.53431427374138,-0.400967689185249,,-3.991860658860055,,
,2268.0,739.0,1977.0,570.0,2011.0,2468.0,2203.0,2025-07-02 19:52:36,87.0,,-0.152977651227349,-2.53408402197558,-0.401505718843392,,-3.972108630950621,,
,2269.0,740.0,1976.0,571.0,2006.0,2470.0,2214.0,2025-07-02 19:52:37,87.0,,-0.153062557599691,-2.53382995749197,-0.402467602952915,,-3.9109687042752523,,
,2271.0,739.0,1978.0,570.0,2007.0,2477.0,2195.0,2025-07-02 19:52:38,87.0,,-0.152869880469683,-2.53381233044263,-0.401653025739389,,-3.806186917034631,,
,2272.0,736.0,1977.0,570.0,2015.0,2484.0,2206.0,2025-07-02 19:52:39,87.0,,-0.152785415582259,-2.53370562116366,-0.402410297340136,,-3.655593253082185,,
,2273.0,740.0,1980.0,571.0,2020.0,2495.0,2208.0,2025-07-02 19:52:40,86.0,,-0.152907278625022,-2.53329941199845,-0.401410196372648,,-3.4574410602872088,,
,2274.0,741.0,1981.0,572.0,2022.0,2476.0,2216.0,2025-07-02 19:52:41,86.0,,-0.152588265297312,-2.53328992153871,-0.40195675766643,,-3.210699742930611,,
,2278.0,742.0,1984.0,572.0,2004.0,2478.0,2207.0,2025-07-02 19:52:42,86.0,,-0.152489371003914,-2.53305817953276,-0.401709143068889,,-2.9152698032749886,,
,2274.0,741.0,1981.0,571.0,2021.0,2484.0,2203.0,2025-07-02 19:52:43,86.0,,-0.152276414004943,-2.53298836186312,-0.401713098453531,,-2.5721042604706943,,
,2278.0,740.0,1985.0,571.0,2016.0,2483.0,2206.0,2025-07-02 19:52:44,86.0,,-0.152257938830005,-2.53312920576566,-0.402116587960564,,-2.183238926819166,,
,2279.0,744.0,1987.0,572.0,1996.0,2473.0,2219.0,2025-07-02 19:52:45,86.0,,-0.15217625256896,-2.53310754264712,-0.40158149469505,,-1.7517515737409934,,
,2281.0,745.0,1988.0,573.0,1995.0,2467.0,2225.0,2025-07-02 19:52:46,85.0,,-0.152076429196987,-2.53275263074945,-0.401597219200855,,-1.2816823593577622,,
,2282.0,742.0,1989.0,572.0,1986.0,2466.0,2208.0,2025-07-02 19:52:47,85.0,,-0.152080692005878,-2.53226962771363,-0.401700563492585,,-0.7779521014451025,,
,2283.0,746.0,1991.0,575.0,2008.0,2469.0,2205.0,2025-07-02 19:52:48,85.0,,-0.152088735467225,-2.5324418641395,-0.402289081277263,,-0.24631024760171347,,
,2284.0,745.0,1991.0,574.0,2016.0,2479.0,2206.0,2025-07-02 19:52:49,85.0,,-0.151885404838006,-2.53169002650812,-0.401473742073758,,0.30666793051809327,,
,2286.0,744.0,1993.0,575.0,2016.0,2478.0,2213.0,2025-07-02 19:52:50,85.0,,-0.151773807064429,-2.53176397430748,-0.401156632665021,,0.873532386208327,,
,2289.0,746.0,1994.0,577.0,2017.0,2474.0,2202.0,2025-07-02 19:52:51,85.0,,-0.151747271515988,-2.53146214992496,-0.401493773660785,,1.445873257846766,,
,2285.0,744.0,1994.0,574.0,2035.0,2475.0,2182.0,2025-07-02 19:52:52,85.0,,-0.151658323450937,-2.53167420074679,-0.401379319938596,,2.0142316092470245,,
,2292.0,747.0,1996.0,576.0,2034.0,2466.0,2205.0,2025-07-02 19:52:53,84.0,,-0.151546655083735,-2.53095715015319,-0.40174378140454,,2.5680492020309957,,
,2290.0,749.0,2001.0,577.0,2019.0,2468.0,2207.0,2025-07-02 19:52:54,84.0,,-0.151545602786419,-2.53071933477741,-0.401659457322719,,3.095704695432497,,
,2291.0,749.0,2001.0,577.0,2018.0,2459.0,2197.0,2025-07-02 19:52:55,84.0,,-0.151477734703257,-2.53083368568236,-0.40104866366115,,3.5846790776527966,,
,2289.0,748.0,2003.0,577.0,2011.0,2460.0,2198.0,2025-07-02 19:52:56,84.0,,-0.151304090475234,-2.53001215693893,-0.402051004684416,,4.021879850468757,,
,2297.0,747.0,2003.0,579.0,2018.0,2461.0,2202.0,2025-07-02 19:52:57,83.0,,-0.151247151214421,-2.53017424371659,-0.401368517887796,,4.394133097161882,,
,2296.0,750.0,2006.0,577.0,2013.0,2476.0,2201.0,2025-07-02 19:52:58,83.0,,-0.15126207199934,-2.52964883312368,-0.400943423819087,,4.688827745428019,,
,2297.0,750.0,2008.0,578.0,1992.0,2479.0,2204.0,2025-07-02 19:52:59,83.0,,-0.15100035417097,-2.52921008613547,-0.400826880873139,,4.894670507263239,,
,2297.0,749.0,2007.0,577.0,1992.0,2487.0,2191.0,2025-07-02 19:53:00,83.0,,-0.150876823797457,-2.5291487702408,-0.40091650564561,,5.002486946137902,,
,2297.0,747.0,2003.0,576.0,1993.0,2479.0,2193.0,2025-07-02 19:53:01,83.0,,-0.150502646493127,-2.52864149650285,-0.40040428725776,,5.005987546270645,,
,2299.0,747.0,2005.0,577.0,2011.0,2477.0,2194.0,2025-07-02 19:53:02,84.0,,-0.150341019835906,-2.52860301857304,-0.400891015093451,,4.902410454548265,,
,2296.0,749.0,2003.0,577.0,2012.0,2478.0,2175.0,2025-07-02 19:53:03,84.0,,-0.150230863554437,-2.52840158739626,-0.400329433121527,,4.692956602068991,,
,2289.0,748.0,1998.0,575.0,2005.0,2481.0,2186.0,2025-07-02 19:53:04,85.0,,-0.150264593640292,-2.52817586316973,-0.400303842308339,,4.382949003154882,,
,2286.0,744.0,1995.0,573.0,2012.0,2489.0,2186.0,2025-07-02 19:53:05,86.0,,-0.150104703080976,-2.52788558456444,-0.40075493029272,,3.9816757777777996,,
,2281.0,745.0,1991.0,571.0,2012.0,2487.0,2200.0,2025-07-02 19:53:06,87.0,,-0.150025136761122,-2.52782970435008,-0.400198355154549,,3.5019135346656176,,
,2277.0,742.0,1986.0,572.0,2025.0,2476.0,2183.0,2025-07-02 19:53:07,87.0,,-0.149971890639162,-2.52782290175534,-0.400007843859644,,2.9591690962859256,,
,2269.0,739.0,1980.0,567.0,2024.0,2474.0,2203.0,2025-07-02 19:53:08,87.0,,-0.149777088068901,-2.52751053264545,-0.400823407382481,,2.3707154982478214,,
,2268.0,738.0,1974.0,567.0,2012.0,2465.0,2209.0,2025-07-02 19:53:09,87.0,,-0.149682961749503,-2.52773955564817,-0.400009788464672,,1.7545246057747592,,
,2260.0,736.0,1970.0,565.0,2001.0,2462.0,2210.0,2025-07-02 19:53:10,86.0,,-0.149706696575708,-2.52764956743532,-0.399865626601949,,1.1282079382305672,,
,2258.0,737.0,1969.0,564.0,2016.0,2465.0,2227.0,2025-07-02 19:53:11,86.0,,-0.149447197192108,-2.52740696713336,-0.398999544415578,,0.5080684776713056,,
,2255.0,735.0,1966.0,563.0,2009.0,2470.0,2212.0,2025-07-02 19:53:12,86.0,,-0.149441479004259,-2.52708898648571,-0.40042230638946,,-0.09165682987611648,,
,2255.0,733.0,1965.0,564.0,1985.0,2464.0,2209.0,2025-07-02 19:53:13,87.0,,-0.14938881275349,-2.52697876192521,-0.399709586197507,,-0.6593150320876248,,
,2250.0,732.0,1963.0,565.0,1977.0,2467.0,2220.0,2025-07-02 19:53:14,88.0,,-0.149220200325245,-2.52680125712656,-0.399419913310861,,-1.1860988925716758,,
,2248.0,733.0,1963.0,562.0,1982.0,2466.0,2225.0,2025-07-02 19:53:15,88.0,,-0.149290947256827,-2.52626873728378,-0.39992242487703,,-1.6660642703356288,,
,2245.0,732.0,1962.0,561.0,1989.0,2464.0,2208.0,2025-07-02 19:53:16,89.0,,-0.149226163540172,-2.52608227466617,-0.399391315980776,,-2.095937223415396,,
,2250.0,733.0,1962.0,565.0,1992.0,2463.0,2187.0,2025-07-02 19:53:17,91.0,,-0.149093799514672,-2.52570686157496,-0.399538478103302,,-2.4747593641118417,,
,2246.0,730.0,1957.0,560.0,2014.0,2479.0,2171.0,2025-07-02 19:53:18,91.0,,-0.149081013796393,-2.52595295601653,-0.399198978107383,,-2.8034264279585974,,
,2245.0,730.0,1958.0,562.0,2034.0,2496.0,2177.0,2025-07-02 19:53:19,91.0,,-0.148899754190837,-2.52576954584518,-0.399239189819392,,-3.084174034060597,,
,2246.0,733.0,1961.0,563.0,2049.0,2478.0,2178.0,2025-07-02 19:53:20,91.0,,-0.148758429544498,-2.52564953126988,-0.399124274792993,,-3.320057978774356,,
,2247.0,733.0,1960.0,564.0,2052.0,2482.0,2197.0,2025-07-02 19:53:21,90.0,,-0.148725750977286,-2.52624859818464,-0.398864364815207,,-3.514466818345287,,
,2248.0,730.0,1960.0,561.0,2050.0,2487.0,2172.0,2025-07-02 19:53:22,90.0,,-0.148861692465794,-2.52570830062417,-0.398625658181822,,-3.6706945869801686,,
,2248.0,729.0,1958.0,560.0,2054.0,2487.0,2176.0,2025-07-02 19:53:23,90.0,,-0.148751936113534,-2.52582866827764,-0.39871544475585,,-3.79159281427561,,
,2247.0,730.0,1963.0,564.0,2068.0,2479.0,2157.0,2025-07-02 19:53:24,90.0,,-0.148878312671395,-2.52575204689489,-0.398668531624903,,-3.8793138846356636,,
,2249.0,732.0,1962.0,562.0,2058.0,2478.0,2155.0,2025-07-02 19:53:25,90.0,,-0.14877381042978,-2.52564785427588,-0.398866453238527,,-3.935151897852176,,
,2251.0,732.0,1961.0,564.0,2055.0,2479.0,2169.0,2025-07-02 19:53:26,90.0,,-0.148535075340671,-2.52544173065645,-0.398948970016783,,-3.9594820395982864,,
,2249.0,731.0,1960.0,562.0,2026.0,2466.0,2189.0,2025-07-02 19:53:27,90.0,,-0.148369182117283,-2.52530313182126,-0.398919605211685,,-3.951794516621344,,
,2249.0,732.0,1963.0,562.0,2016.0,2465.0,2196.0,2025-07-02 19:53:28,90.0,,-0.148225950006965,-2.52475277204115,-0.399062510626501,,-3.910813928585205,,
,2251.0,734.0,1965.0,564.0,2016.0,2464.0,2199.0,2025-07-02 19:53:29,90.0,,-0.148421411098663,-2.52480678750421,-0.399204447479995,,-3.8346895098686318,,
,2253.0,734.0,1964.0,564.0,1999.0,2465.0,2197.0,2025-07-02 19:53:30,89.0,,-0.148245462730312,-2.52480671391444,-0.398719243886865,,-3.721236521356927,,
,2252.0,732.0,1961.0,564.0,2002.0,2469.0,2209.0,2025-07-02 19:53:31,89.0,,-0.148273624362393,-2.52474922603296,-0.398847287053257,,-3.5682051334498093,,
,2253.0,732.0,1965.0,563.0,2002.0,2465.0,2213.0,2025-07-02 19:53:32,89.0,,-0.148436281857443,-2.5248968068808,-0.398592943601177,,-3.3735513658426854,,
,2255.0,731.0,1964.0,564.0,2007.0,2462.0,2221.0,2025-07-02 19:53:33,89.0,,-0.148389699034104,-2.52509773194598,-0.399043946138187,,-3.1356857978524952,,
,2253.0,735.0,1965.0,563.0,2007.0,2467.0,2203.0,2025-07-02 19:53:34,89.0,,-0.148408369717413,-2.52555658828837,-0.398561243274572,,-2.853680370054045,,
,2253.0,731.0,1965.0,563.0,2030.0,2470.0,2211.0,2025-07-02 19:53:35,90.0,,-0.148562894112295,-2.52512009188081,-0.398924226322418,,-2.5274216942435035,,
,2251.0,731.0,1963.0,563.0,2010.0,2474.0,2207.0,2025-07-02 19:53:36,90.0,,-0.148711665806874,-2.52572122088045,-0.398416531237853,,-2.1577097982270077,,
,2254.0,732.0,1964.0,564.0,2008.0,2466.0,2225.0,2025-07-02 19:53:37,90.0,,-0.149041919301989,-2.52562762502975,-0.397573572583893,,-1.7463117665949957,,
,2253.0,733.0,1966.0,562.0,2017.0,2468.0,2221.0,2025-07-02 19:53:38,90.0,,-0.148759860803915,-2.52612675930737,-0.396670189121043,,-1.2959873993918531,,
,2254.0,732.0,1966.0,566.0,2013.0,2469.0,2215.0,2025-07-02 19:53:39,91.0,,-0.148847751526502,-2.52586686964855,-0.396939472698173,,-0.8105066754649557,,
,2253.0,732.0,1965.0,565.0,1999.0,2470.0,2200.0,2025-07-02 19:53:40,91.0,,-0.149117247370321,-2.52647178111558,-0.397110995875042,,-0.29467586822090697,,
,2252.0,733.0,1966.0,565.0,2022.0,2465.0,2213.0,2025-07-02 19:53:41,93.0,,-0.14930932521079,-2.52672398796228,-0.396854477331362,,0.2456185846601674,,
,2255.0,734.0,1967.0,565.0,1999.0,2461.0,2217.0,2025-07-02 19:53:42,93.0,,-0.149486651818932,-2.52704916402935,-0.398104545146827,,0.8033501823991064,,
,2255.0,732.0,1968.0,564.0,2018.0,2466.0,2212.0,2025-07-02 19:53:43,93.0,,-0.149638095072645,-2.52761341748376,-0.398283112963142,,1.3702898499090042,,
,2254.0,731.0,1965.0,564.0,2031.0,2473.0,2216.0,2025-07-02 19:53:44,94.0,,-0.150001021560645,-2.52798550311846,-0.399352364234141,,1.9369645051599804,,
,2254.0,734.0,1964.0,563.0,2016.0,2477.0,2210.0,2025-07-02 19:53:45,95.0,,-0.150080397437424,-2.528203786451,-0.399870280428704,,2.492667369647813,,
,2256.0,737.0,1968.0,565.0,2021.0,2485.0,2207.0,2025-07-02 19:53:46,95.0,,-0.150333597216232,-2.52835174264062,-0.399510067406832,,3.0255531964320306,,
,2255.0,734.0,1968.0,565.0,2020.0,2474.0,2186.0,2025-07-02 19:53:47,95.0,,-0.15033337461319,-2.52861865920114,-0.40064552972978,,3.5228490693179366,,
,2259.0,736.0,1969.0,566.0,2023.0,2474.0,2205.0,2025-07-02 19:53:48,95.0,,-0.15044104601329,-2.52884252779883,-0.399887981756102,,3.9712035024852463,,
,2255.0,735.0,1968.0,563.0,2017.0,2477.0,2211.0,2025-07-02 19:53:49,96.0,,-0.150151910434309,-2.52853833164815,-0.400160685083288,,4.3571830097739905,,
,2255.0,733.0,1969.0,564.0,2033.0,2484.0,2197.0,2025-07-02 19:53:50,96.0,,-0.149991867916355,-2.52847661353595,-0.399690767944352,,4.6679065358220155,,
,2259.0,736.0,1972.0,568.0,2038.0,2474.0,2189.0,2025-07-02 19:53:51,96.0,,-0.149996919346561,-2.52815890930546,-0.399258611458862,,4.8917857827693965,,
,2260.0,736.0,1972.0,568.0,2032.0,2477.0,2194.0,2025-07-02 19:53:52,95.0,,-0.149884570665995,-2.5281636962841,-0.399316695172458,,5.0193165111330345,,
,2259.0,734.0,1968.0,565.0,2023.0,2468.0,2215.0,2025-07-02 19:53:53,95.0,,-0.14968913087495,-2.52807898328244,-0.398726983978182,,5.043846351420028,,
,2261.0,736.0,1974.0,565.0,2030.0,2478.0,2192.0,2025-07-02 19:53:54,95.0,,-0.149510299294706,-2.52767025977964,-0.398268071017083,,4.962232888700235,,
,2263.0,738.0,1977.0,566.0,2015.0,2472.0,2190.0,2025-07-02 19:53:55,94.0,,-0.149495972048091,-2.52775294220863,-0.398331542956226,,4.775305530965352,,
2025-07-02 19:51:49,2264.0,738.0,1978.0,565.0,2017.0,2467.0,2188.0,2025-07-02 19:53:56,94.0,2025/07/02 07:51:49 PM,-0.149543765496176,-2.52777741607343,-0.398329979174689,,4.488058074114372,,
,2264.0,738.0,1977.0,570.0,2030.0,2467.0,2214.0,2025-07-02 19:53:57,94.0,,-0.149420205683933,-2.52789969807707,-0.398318236620384,,4.109525552306112,,
,2266.0,737.0,1979.0,568.0,2036.0,2461.0,2192.0,2025-07-02 19:53:58,94.0,,-0.14931934637775,-2.52769026995761,-0.397993533675124,,3.6523355793299244,,
,2267.0,737.0,1982.0,569.0,2033.0,2466.0,2198.0,2025-07-02 19:53:59,94.0,,-0.149404336356956,-2.52789394687793,-0.398216752181971,,3.131965056332113,,
,2268.0,738.0,1983.0,571.0,2014.0,2463.0,2202.0,2025-07-02 19:54:00,94.0,,-0.149386455544886,-2.52783664265488,-0.398330279581286,,2.565770760087726,,
,2269.0,741.0,1982.0,567.0,2027.0,2466.0,2210.0,2025-07-02 19:54:01,94.0,,-0.149376832095479,-2.52745289978145,-0.398509019105829,,1.9718904443768948,,
,2270.0,737.0,1983.0,568.0,2038.0,2481.0,2195.0,2025-07-02 19:54:02,93.0,,-0.149031378663474,-2.52760130343574,-0.398246796131532,,1.368125209282789,,
,2271.0,739.0,1984.0,571.0,2010.0,2475.0,2191.0,2025-07-02 19:54:03,92.0,,-0.149145682670011,-2.52771071339723,-0.398311581664247,,0.7709123221217862,,
,2273.0,742.0,1987.0,571.0,2028.0,2474.0,2183.0,2025-07-02 19:54:04,91.0,,-0.14920649133221,-2.52715041243428,-0.397769918953139,,0.19448169294217,,
,2276.0,744.0,1989.0,572.0,2031.0,2474.0,2179.0,2025-07-02 19:54:05,91.0,,-0.149061932515993,-2.52699974319653,-0.397968258208841,,-0.34973740885615334,,
,2274.0,740.0,1991.0,570.0,2017.0,2466.0,2193.0,2025-07-02 19:54:06,90.0,,-0.149030617403915,-2.52709210329404,-0.397488162212925,,-0.8534249933590424,,
,2275.0,741.0,1988.0,570.0,2027.0,2479.0,2180.0,2025-07-02 19:54:07,90.0,,-0.148976482062226,-2.52734259637112,-0.397901983510358,,-1.3113926506649054,,
,2277.0,742.0,1991.0,573.0,2022.0,2469.0,2162.0,2025-07-02 19:54:08,90.0,,-0.149092789726899,-2.52705777919744,-0.397898340495833,,-1.7213468965775638,,
,2280.0,742.0,1995.0,573.0,2030.0,2464.0,2197.0,2025-07-02 19:54:09,91.0,,-0.148718385658775,-2.5272856669995,-0.397914412809672,,-2.083443469384068,,
,2280.0,743.0,1996.0,572.0,2030.0,2468.0,2204.0,2025-07-02 19:54:10,92.0,,-0.148823468939798,-2.52725187386575,-0.397357095399954,,-2.3996968867630684,,
,2280.0,741.0,1995.0,571.0,2022.0,2474.0,2178.0,2025-07-02 19:54:11,92.0,,-0.148728886194527,-2.52730075039806,-0.396848607832073,,-2.673315616453111,,
,2283.0,745.0,1997.0,571.0,2041.0,2478.0,2188.0,2025-07-02 19:54:12,92.0,,-0.148878481954135,-2.52724323674374,-0.397150447903594,,-2.9080317127458337,,
,2285.0,745.0,1998.0,574.0,2027.0,2476.0,2216.0,2025-07-02 19:54:13,92.0,,-0.148806193826381,-2.52703131130696,-0.397523356435768,,-3.107486105567687,,
,2288.0,745.0,2000.0,575.0,2025.0,2482.0,2214.0,2025-07-02 19:54:14,91.0,,-0.148817129760969,-2.52722050812884,-0.397708202000635,,-3.2747184237898135,,
,2286.0,746.0,2003.0,572.0,2032.0,2473.0,2201.0,2025-07-02 19:54:15,91.0,,-0.148880500153217,-2.52758913696262,-0.397165698425594,,-3.4117948573396513,,
,2288.0,745.0,2003.0,576.0,2027.0,2483.0,2204.0,2025-07-02 19:54:16,91.0,,-0.148772402182048,-2.52756244093188,-0.397101977803269,,-3.5195908994210656,,
,2286.0,748.0,2006.0,575.0,2045.0,2489.0,2205.0,2025-07-02 19:54:17,90.0,,-0.148737020287612,-2.52752510405323,-0.397596493985195,,-3.5977298498034145,,
,2291.0,748.0,2006.0,578.0,2047.0,2479.0,2191.0,2025-07-02 19:54:18,90.0,,-0.148727432707443,-2.52741056449864,-0.396833157720839,,-3.644664392133911,,
,2291.0,749.0,2007.0,575.0,2051.0,2480.0,2181.0,2025-07-02 19:54:19,90.0,,-0.148714841448947,-2.52772584342591,-0.397078883250201,,-3.657878216637278,,
,2290.0,748.0,2006.0,575.0,2059.0,2471.0,2198.0,2025-07-02 19:54:20,90.0,,-0.148872633581444,-2.52773100555863,-0.397123316634698,,-3.6341776007497875,,
,2293.0,749.0,2011.0,576.0,2035.0,2483.0,2204.0,2025-07-02 19:54:21,90.0,,-0.148815670646721,-2.52756899364512,-0.396866726014328,,-3.5700389750324577,,
,2295.0,750.0,2015.0,578.0,2012.0,2473.0,2191.0,2025-07-02 19:54:22,89.0,,-0.148758793702561,-2.52766631353142,-0.397044352967399,,-3.4619778968120194,,
,2295.0,750.0,2014.0,578.0,2014.0,2470.0,2191.0,2025-07-02 19:54:23,89.0,,-0.148630050577703,-2.52781453559659,-0.396431289414294,,-3.3069076630083325,,
,2296.0,752.0,2011.0,578.0,2036.0,2473.0,2199.0,2025-07-02 19:54:24,89.0,,-0.148827433717028,-2.52785990379232,-0.397278920818442,,-3.102461793244775,,
,2294.0,750.0,2011.0,577.0,2039.0,2476.0,2194.0,2025-07-02 19:54:25,90.0,,-0.148793625200538,-2.52781937157645,-0.396648088880527,,-2.8472630365413454,,
,2295.0,750.0,2012.0,576.0,2044.0,2481.0,2193.0,2025-07-02 19:54:26,90.0,,-0.148792392495655,-2.52790954033172,-0.397202176894726,,-2.5411311048087164,,
,2291.0,749.0,2007.0,576.0,2045.0,2485.0,2201.0,2025-07-02 19:54:27,90.0,,-0.148753493226623,-2.52759399262261,-0.397161235872739,,-2.1852303032661706,,
,2286.0,746.0,2003.0,572.0,2057.0,2489.0,2198.0,2025-07-02 19:54:28,90.0,,-0.148991128013713,-2.52805089284138,-0.396896893116211,,-1.7821647404656802,,
,2283.0,745.0,1996.0,571.0,2039.0,2498.0,2189.0,2025-07-02 19:54:29,90.0,,-0.148907557740996,-2.52798678330717,-0.396942245059036,,-1.336031378854062,,
,2280.0,746.0,1994.0,573.0,2038.0,2489.0,2190.0,2025-07-02 19:54:30,90.0,,-0.148803771636411,-2.5285478292845,-0.396466339445827,,-0.8524394705333362,,
,2273.0,747.0,1991.0,573.0,2051.0,2475.0,2185.0,2025-07-02 19:54:31,90.0,,-0.148986260481571,-2.52823372263945,-0.397141850928424,,-0.338499979756475,,
,2269.0,740.0,1984.0,568.0,2023.0,2466.0,2182.0,2025-07-02 19:54:32,90.0,,-0.14909014258839,-2.52818572621314,-0.396500630820341,,0.19721766242404348,,
,2264.0,738.0,1978.0,565.0,2012.0,2470.0,2191.0,2025-07-02 19:54:33,90.0,,-0.148973568752384,-2.52816200313332,-0.396514270681578,,0.7447699260472743,,
,2260.0,738.0,1974.0,564.0,2018.0,2467.0,2198.0,2025-07-02 19:54:34,91.0,,-0.14904543805013,-2.52817852431315,-0.396288327389548,,1.292977298427787,,
,2256.0,738.0,1975.0,563.0,2020.0,2460.0,2205.0,2025-07-02 19:54:35,91.0,,-0.149086801620947,-2.52866350928433,-0.396393424044263,,1.8296305256859162,,
,2254.0,735.0,1973.0,564.0,2022.0,2461.0,2207.0,2025-07-02 19:54:36,91.0,,-0.149088457613516,-2.52870518592392,-0.396700325157874,,2.341778065182233,,
,2251.0,734.0,1968.0,563.0,2019.0,2464.0,2219.0,2025-07-02 19:54:37,91.0,,-0.149026185522743,-2.52855434667541,-0.396208117599962,,2.8161031501846496,,
,2249.0,735.0,1969.0,563.0,2034.0,2464.0,2212.0,2025-07-02 19:54:38,92.0,,-0.148977669316935,-2.52877520155609,-0.396245503748693,,3.2393908816043053,,
,2251.0,734.0,1968.0,563.0,2015.0,2470.0,2203.0,2025-07-02 19:54:39,92.0,,-0.148989154461419,-2.52906875459361,-0.396155648856763,,3.5990750294564475,,
,2249.0,736.0,1967.0,562.0,2027.0,2482.0,2189.0,2025-07-02 19:54:40,92.0,,-0.149143246408279,-2.52884386262446,-0.395810613429701,,3.8838417353780037,,
,2248.0,734.0,1965.0,562.0,2046.0,2489.0,2188.0,2025-07-02 19:54:41,92.0,,-0.149084675768835,-2.5290436493969,-0.395821240772311,,4.084254479601136,,
,2248.0,734.0,1966.0,559.0,2057.0,2483.0,2190.0,2025-07-02 19:54:42,92.0,,-0.148996762954287,-2.52900071903093,-0.395684077224001,,4.193353347322606,,
,2250.0,735.0,1966.0,563.0,2078.0,2492.0,2157.0,2025-07-02 19:54:43,92.0,,-0.148997142610639,-2.52900381878463,-0.395633603360605,,4.207173832103542,,
,2249.0,734.0,1964.0,561.0,2080.0,2482.0,2157.0,2025-07-02 19:54:44,92.0,,-0.149177689259408,-2.52939709684451,-0.395877658079859,,4.125128025934684,,
,2249.0,735.0,1968.0,563.0,2080.0,2475.0,2153.0,2025-07-02 19:54:45,92.0,,-0.149058994982498,-2.52983500005294,-0.395597031159498,,3.9501956280908814,,
,2247.0,733.0,1969.0,561.0,2083.0,2483.0,2161.0,2025-07-02 19:54:46,92.0,,-0.148964365550926,-2.52949224799566,-0.395085243064427,,3.688884939809299,,
,2249.0,736.0,1968.0,564.0,2065.0,2489.0,2174.0,2025-07-02 19:54:47,92.0,,-0.149068514474294,-2.52967874397088,-0.395201405724466,,3.3509451223334423,,
,2251.0,735.0,1970.0,565.0,2068.0,2475.0,2175.0,,,,-0.149064340368849,-2.52978030071458,-0.395339739070138,,2.948838635589375,,
,2251.0,735.0,1968.0,564.0,2077.0,2482.0,2184.0,,,,-0.149067080934235,-2.52973665492556,-0.395375441689935,,2.49701252456636,,
,2251.0,736.0,1968.0,563.0,2060.0,2484.0,2185.0,,,,-0.14924432629168,-2.52974789718715,-0.395496725253319,,2.0110331650114506,,
,2250.0,736.0,1969.0,564.0,2065.0,2475.0,2183.0,,,,-0.149155043813595,-2.53002471337374,-0.395293640447416,,1.5066659254483536,,
,2253.0,734.0,1970.0,564.0,2049.0,2474.0,2190.0,,,,-0.149057203244962,-2.52978400521778,-0.395143296556968,,0.9989859707229791,,
,2253.0,737.0,1972.0,564.0,2057.0,2472.0,2186.0,,,,-0.149245178002969,-2.5302637437356,-0.395042338577027,,0.5015989516791832,,
,2255.0,738.0,1973.0,565.0,2040.0,2467.0,2182.0,,,,-0.149345711001442,-2.53046253506012,-0.395268397939912,,0.02603284788817748,,
,2254.0,735.0,1970.0,562.0,2042.0,2470.0,2176.0,,,,-0.149425523472459,-2.53066586681175,-0.39575144497623,,-0.41866129819936193,,
,2256.0,736.0,1972.0,565.0,2051.0,2472.0,2190.0,,,,-0.149670508649482,-2.53069809953976,-0.395468404050003,,-0.826086935581187,,
,2257.0,736.0,1972.0,564.0,2047.0,2458.0,2208.0,,,,-0.149575100862533,-2.53090306947155,-0.39481381348186,,-1.19246723808614,,
,2257.0,738.0,1972.0,564.0,2049.0,2460.0,2207.0,,,,-0.149863694228921,-2.53117606456869,-0.395774081850115,,-1.5164245597333388,,
,2255.0,736.0,1970.0,562.0,2032.0,2469.0,2191.0,,,,-0.150058111260121,-2.5316163181541,-0.394977528532623,,-1.7986124151265337,,
,2257.0,737.0,1974.0,564.0,2033.0,2454.0,2181.0,,,,-0.150272825404877,-2.53189679980398,-0.395331761442659,,-2.0412454027556404,,
,2255.0,736.0,1970.0,564.0,2045.0,2470.0,2199.0,,,,-0.150387107355455,-2.53305113345896,-0.394912542823525,,-2.24757555032598,,
,2260.0,736.0,1973.0,565.0,2040.0,2470.0,2195.0,,,,-0.150546512342488,-2.53249527280811,-0.394149610877918,,-2.421362661363461,,
,2256.0,737.0,1973.0,563.0,2039.0,2469.0,2181.0,,,,-0.150734021518194,-2.53304553374257,-0.394921878487181,,-2.566381536643378,,
,2255.0,736.0,1972.0,562.0,2033.0,2476.0,2176.0,,,,-0.150947667477102,-2.53386513452348,-0.395592650886113,,-2.6860011335128497,,
,2257.0,738.0,1973.0,564.0,2035.0,2464.0,2197.0,,,,-0.151278310843932,-2.53401481799091,-0.396257688435728,,-2.7828609184220254,,
,2258.0,739.0,1972.0,563.0,2027.0,2465.0,2221.0,,,,-0.151640330227475,-2.5346051062568,-0.396789526908649,,-2.8586589830164586,,
,2257.0,737.0,1972.0,564.0,2027.0,2458.0,2212.0,,,,-0.151860833042957,-2.5350067606782,-0.397129099852627,,-2.914055877892664,,
,2254.0,736.0,1972.0,563.0,2024.0,2466.0,2201.0,,,,-0.152122639739377,-2.53584270714478,-0.397978561290841,,-2.9486883491131595,,
,2256.0,737.0,1973.0,565.0,2067.0,2465.0,2198.0,,,,-0.152429452646944,-2.53622756627568,-0.398235436595521,,-2.9612788355210182,,
,2258.0,738.0,1973.0,565.0,2046.0,2462.0,2186.0,,,,-0.152520716007989,-2.53628091023417,-0.398723376233834,,-2.9498200387817484,,
,2258.0,739.0,1972.0,566.0,2038.0,2467.0,2187.0,,,,-0.152521235342267,-2.53653614828097,-0.398571628323268,,-2.911809234406934,,
,2256.0,739.0,1974.0,562.0,2036.0,2471.0,2197.0,,,,-0.152798884474716,-2.53609487008039,-0.39830588554496,,-2.844504455968006,,
,2261.0,738.0,1974.0,563.0,2028.0,2476.0,2180.0,,,,-0.152499763195481,-2.53640335973488,-0.398198088478618,,-2.745174897043224,,
,2261.0,740.0,1976.0,567.0,2052.0,2469.0,2178.0,,,,-0.152787115295045,-2.53616400374022,-0.398154666536041,,-2.611321701355465,,
,2261.0,741.0,1977.0,565.0,2044.0,2474.0,2186.0,,,,-0.152613017641515,-2.5362067721962,-0.397818500024045,,-2.440852951926192,,
,2261.0,739.0,1974.0,564.0,2057.0,2472.0,2194.0,,,,-0.15245392754496,-2.53621191253325,-0.39733127560721,,-2.23220703141327,,
,2261.0,739.0,1978.0,564.0,2027.0,2466.0,2174.0,,,,-0.152524635218829,-2.53669898991147,-0.397116341190733,,-1.9844295899099251,,
,2264.0,743.0,1980.0,566.0,2055.0,2470.0,2186.0,,,,-0.152515074773016,-2.53653957157718,-0.396986409237926,,-1.6972189936434596,,
,2264.0,743.0,1980.0,567.0,2061.0,2482.0,2183.0,,,,-0.152368872152895,-2.53623164260137,-0.397084149146524,,-1.370961517845718,,
,2268.0,742.0,1983.0,566.0,2069.0,2482.0,2189.0,,,,-0.152480802498246,-2.5364103684735,-0.397185524760432,,-1.0067792916218006,,
,2264.0,743.0,1981.0,566.0,2053.0,2482.0,2188.0,,,,-0.152269421451227,-2.53655742684138,-0.397178420042442,,-0.6066103967726678,,
,2267.0,744.0,1983.0,568.0,2060.0,2473.0,2169.0,,,,-0.152267395157342,-2.53655530241145,-0.397715918311928,,-0.1733319036294763,,
,2270.0,742.0,1983.0,569.0,2058.0,2472.0,2166.0,,,,-0.152301934899262,-2.53668503175622,-0.39717045359246,,0.2890756093552403,,
,2270.0,743.0,1985.0,567.0,2057.0,2472.0,2167.0,,,,-0.152197773886966,-2.53647367754808,-0.396907228498199,,0.7753373040574617,,
,2269.0,744.0,1986.0,568.0,2055.0,2465.0,2192.0,,,,-0.152292473657784,-2.53649908108314,-0.396937789322777,,1.2786954610432766,,
,2270.0,745.0,1988.0,568.0,2057.0,2460.0,2185.0,,,,-0.152205463869672,-2.53628985412307,-0.397314215547965,,1.7907615350661772,,
,2274.0,745.0,1991.0,569.0,2057.0,2471.0,2160.0,,,,-0.152237488713607,-2.53649625505701,-0.397454259513736,,2.3014525934119057,,
,2275.0,747.0,1992.0,568.0,2060.0,2468.0,2166.0,,,,-0.152125044734379,-2.5366291995492,-0.396848682016292,,2.799054421975253,,
,2278.0,746.0,1993.0,572.0,2053.0,2475.0,2170.0,,,,-0.152091646696694,-2.5364285973815,-0.397984995316479,,3.2704451082353914,,
,2273.0,747.0,1993.0,570.0,2042.0,2472.0,2179.0,,,,-0.15202246256473,-2.53638148884979,-0.397703043111443,,3.7014980216501683,,
,2275.0,749.0,1996.0,569.0,2052.0,2466.0,2162.0,,,,-0.151854928911543,-2.5366408904258,-0.397346512609132,,4.0776631775106775,,
,2279.0,749.0,1997.0,573.0,2062.0,2470.0,2177.0,,,,-0.151879472334249,-2.53617797831888,-0.397569777925645,,4.384702903323481,,
,2280.0,749.0,1999.0,572.0,2059.0,2467.0,2177.0,,,,-0.152025680920986,-2.53593357127098,-0.397615745960339,,4.609534136056744,,
,2283.0,749.0,2001.0,571.0,2066.0,2478.0,2173.0,,,,-0.151891603313341,-2.53608609501775,-0.397812733411464,,4.741108814458711,,
,2283.0,749.0,1999.0,569.0,2056.0,2468.0,2182.0,,,,-0.152110615435685,-2.53615442409687,-0.397810438776384,,4.771249071724838,,
,2283.0,750.0,2003.0,572.0,2052.0,2456.0,2196.0,,,,-0.151880578700233,-2.53599599143809,-0.397705346840316,,4.695348161173084,,
,2285.0,748.0,2003.0,573.0,2061.0,2462.0,2192.0,,,,-0.151800849383398,-2.53611765007917,-0.397343448156559,,4.512853302875673,,
,2286.0,749.0,2004.0,570.0,2065.0,2465.0,2184.0,,,,-0.151793439919398,-2.53679484843316,-0.397874714456495,,4.227463989933228,,
,2286.0,750.0,2004.0,572.0,2071.0,2478.0,2151.0,,,,-0.151804884878324,-2.53608227323145,-0.397837652250208,,3.8470084303426084,,
,2289.0,752.0,2006.0,574.0,2048.0,2477.0,2178.0,,,,-0.151856653558616,-2.53584810369113,-0.398056628399301,,3.382999075989213,,
,2292.0,751.0,2007.0,574.0,2054.0,2487.0,2173.0,,,,-0.151736855639746,-2.53586267734151,-0.397764627231467,,2.8499097256594976,,
,2291.0,751.0,2009.0,574.0,2040.0,2493.0,2173.0,,,,-0.151853504529571,-2.53578594904584,-0.398110131253974,,2.2642530436687256,,
,2292.0,753.0,2013.0,573.0,2055.0,2474.0,2172.0,,,,-0.151550912718381,-2.53548690342253,-0.397944104584025,,1.6435603822246727,,
,2292.0,754.0,2011.0,574.0,2030.0,2458.0,2193.0,,,,-0.151675089505917,-2.53532445281272,-0.397718601313001,,1.0053711672216705,,
,2294.0,755.0,2015.0,575.0,2025.0,2465.0,2215.0,,,,-0.151790462133277,-2.53540114892457,-0.398053996771526,,0.366327680440055,,
,2293.0,754.0,2013.0,576.0,2045.0,2470.0,2218.0,,,,-0.15169143518696,-2.53527937276712,-0.398225023243298,,-0.2585523417291859,,
,2295.0,753.0,2014.0,574.0,2085.0,2473.0,2212.0,,,,-0.151644611568412,-2.53507552984946,-0.398069926327433,,-0.8563821822531476,,
,2294.0,753.0,2011.0,575.0,2070.0,2484.0,2198.0,,,,-0.151389092894271,-2.53499950550902,-0.398188629437383,,-1.4166784415125904,,
,2293.0,753.0,2010.0,573.0,2077.0,2478.0,2186.0,,,,-0.151440421246403,-2.53488275423894,-0.397862248243431,,-1.9314124054317974,,
,2289.0,753.0,2006.0,573.0,2075.0,2488.0,2182.0,,,,-0.151381384343947,-2.53484261253046,-0.397281930019907,,-2.394874295930019,,
,2284.0,751.0,2000.0,573.0,2067.0,2486.0,2181.0,,,,-0.151275348125932,-2.53493070260191,-0.397400929288025,,-2.8033975016181274,,
,2280.0,747.0,1993.0,567.0,2045.0,2480.0,2173.0,,,,-0.151281838200925,-2.53470381704923,-0.398438876503479,,-3.154995605246615,,
,2277.0,748.0,1989.0,570.0,2053.0,2473.0,2160.0,,,,-0.1510467635421,-2.53490829215863,-0.397287776719756,,-3.4489637897025123,,
,2268.0,747.0,1987.0,568.0,2068.0,2469.0,2191.0,,,,-0.151215072236146,-2.53434191212486,-0.396866333664078,,-3.6854894216859284,,
,2263.0,741.0,1981.0,565.0,2062.0,2474.0,2202.0,,,,-0.150915692945743,-2.53479129288828,-0.396889286067954,,-3.8653062998978496,,
,2258.0,740.0,1976.0,563.0,2034.0,2464.0,2199.0,,,,-0.151124785817809,-2.53466436789414,-0.39772078899108,,-3.9894153217231785,,
,2255.0,739.0,1974.0,563.0,2012.0,2464.0,2207.0,,,,-0.151097433406625,-2.53458428521332,-0.397176562530718,,-4.0588827254889654,,
,2255.0,738.0,1971.0,563.0,2019.0,2470.0,2194.0,,,,-0.151094572243064,-2.53459794551014,-0.397014673623974,,-4.074716484070566,,
,2252.0,741.0,1968.0,561.0,2017.0,2463.0,2193.0,,,,-0.151113599344388,-2.53455000500109,-0.396974575126394,,-4.037812514395057,,
,2251.0,739.0,1964.0,560.0,2017.0,2461.0,2179.0,,,,-0.150874798867476,-2.53446317575767,-0.396650081970634,,-3.9489559168840827,,
,2247.0,737.0,1963.0,559.0,2010.0,2473.0,2177.0,,,,-0.150934787142443,-2.53452055740536,-0.39742839516544,,-3.808859286442093,,
,2247.0,736.0,1963.0,559.0,2022.0,2477.0,2177.0,,,,-0.151060548970289,-2.53449135512841,-0.396723653373943,,-3.618220774159548,,
,2247.0,737.0,1963.0,562.0,2047.0,2481.0,2152.0,,,,-0.151055231057242,-2.53466571887482,-0.396580844152399,,-3.3777890224728853,,
2025-07-02 19:51:50,2248.0,738.0,1962.0,559.0,2044.0,2480.0,2156.0,,,2025/07/02 07:51:50 PM,-0.150974290420725,-2.53449495321633,-0.396965156473669,,-3.08842955283878,,
,2245.0,734.0,1962.0,559.0,2069.0,2470.0,2158.0,,,,-0.151099155795292,-2.5345447341827,-0.396735634915819,,-2.75119584364326,,
,2246.0,736.0,1960.0,561.0,2089.0,2475.0,2174.0,,,,-0.151210490590893,-2.53467209623986,-0.396677377065501,,-2.367415574084677,,
,2247.0,737.0,1962.0,562.0,2079.0,2474.0,2156.0,,,,-0.151398577631652,-2.53464537430114,-0.396648155162265,,-1.9388058198396776,,
,2249.0,735.0,1959.0,560.0,2098.0,2478.0,2155.0,,,,-0.151457381663512,-2.53475132366798,-0.396622561131852,,-1.4676291323171362,,
,2247.0,736.0,1960.0,561.0,2091.0,2485.0,2160.0,,,,-0.15101272207476,-2.53491083973889,-0.396787148646055,,-0.9568958445586299,,
,2245.0,736.0,1958.0,560.0,2091.0,2478.0,2147.0,,,,-0.150983468395217,-2.53464670323452,-0.397074236588533,,-0.4106080470992257,,
,2247.0,734.0,1960.0,560.0,2070.0,2474.0,2160.0,,,,-0.150921229681189,-2.5351285267443,-0.396677362854933,,0.1659709660934141,,
,2247.0,737.0,1959.0,562.0,2081.0,2469.0,2171.0,,,,-0.150717086716363,-2.53495015067663,-0.397005957786331,,0.7660497252401536,,
,2247.0,735.0,1958.0,561.0,2066.0,2462.0,2175.0,,,,-0.151052344299927,-2.53510945566544,-0.396602198848665,,1.3810818066555433,,
,2248.0,736.0,1958.0,559.0,2042.0,2459.0,2167.0,,,,-0.150966188972684,-2.5351284285908,-0.396826723030563,,2.0006226284288977,,
,2247.0,736.0,1959.0,558.0,2057.0,2464.0,2186.0,,,,-0.151107147058002,-2.53525853436037,-0.396639903875178,,2.6123133998830323,,
,2249.0,738.0,1963.0,563.0,2031.0,2468.0,2214.0,,,,-0.151152680972204,-2.53581783258353,-0.396784293657534,,3.202030239822105,,
,2248.0,737.0,1962.0,562.0,2028.0,2465.0,2219.0,,,,-0.151070159776908,-2.53533237158762,-0.396237850378342,,3.7542252794853517,,
,2250.0,734.0,1960.0,560.0,2027.0,2456.0,2209.0,,,,-0.151224170160263,-2.53599975162767,-0.397202387617873,,4.252469965242253,,
,2247.0,736.0,1961.0,560.0,2040.0,2465.0,2219.0,,,,-0.151241038198769,-2.53588272628042,-0.39735390802744,,4.680189480173466,,
,2249.0,738.0,1960.0,562.0,2025.0,2466.0,2193.0,,,,-0.151575771987681,-2.53611977145705,-0.397176493300475,,5.021552929262361,,
,2252.0,737.0,1959.0,562.0,2033.0,2468.0,2198.0,,,,-0.151682674441355,-2.53646824856861,-0.397024544836248,,5.262459464422409,,
,2252.0,736.0,1960.0,563.0,2039.0,2469.0,2196.0,,,,-0.151726331456602,-2.53727054218073,-0.397085419439938,,5.391539252185409,,
,2249.0,737.0,1958.0,561.0,2030.0,2466.0,2192.0,,,,-0.151959373970396,-2.53750709907085,-0.396736828932658,,5.40107366164208,,
,2251.0,736.0,1958.0,563.0,2028.0,2473.0,2168.0,,,,-0.152163985453449,-2.53752251487614,-0.396563353538348,,5.287734785941033,,
,2253.0,737.0,1961.0,563.0,2030.0,2475.0,2192.0,,,,-0.152388990545326,-2.53769414364784,-0.39634140382912,,5.053053309708744,,
,2252.0,736.0,1960.0,563.0,2040.0,2469.0,2203.0,,,,-0.152638217042983,-2.53840237227004,-0.397127586839807,,4.703546815261212,,
,2250.0,735.0,1959.0,560.0,2037.0,2470.0,2195.0,,,,-0.153024857312602,-2.53889793354133,-0.397919348844017,,4.250475789769355,,
,2251.0,736.0,1958.0,561.0,2042.0,2469.0,2194.0,,,,-0.153314781936936,-2.53955787343689,-0.398821642395617,,3.709236521856407,,
,2254.0,737.0,1960.0,564.0,2023.0,2468.0,2180.0,,,,-0.153799562841238,-2.54015109651065,-0.400105300095336,,3.0984415294343486,,
,2253.0,735.0,1956.0,563.0,2014.0,2464.0,2191.0,,,,-0.154061481726588,-2.54034725726604,-0.401041401562968,,2.4387722559487583,,
,2251.0,736.0,1958.0,561.0,2012.0,2462.0,2212.0,,,,-0.154226126562977,-2.54083546824087,-0.400312883561083,,1.7517108439444484,,
,2252.0,735.0,1957.0,563.0,2025.0,2460.0,2196.0,,,,-0.154433557948791,-2.54127418496695,-0.400902768247209,,1.058265938478189,,
,2254.0,738.0,1958.0,563.0,2017.0,2471.0,2190.0,,,,-0.154554819429797,-2.54133089784338,-0.401684198183461,,0.3778020825300938,,
,2255.0,738.0,1957.0,563.0,2006.0,2473.0,2182.0,,,,-0.154493315306125,-2.54144815194426,-0.401402009442977,,-0.27293449560252325,,
,2255.0,737.0,1961.0,561.0,2021.0,2476.0,2171.0,,,,-0.15467862019269,-2.5416090975515,-0.401548225814763,,-0.880525576380843,,
,2255.0,736.0,1958.0,563.0,2021.0,2479.0,2195.0,,,,-0.154612603979631,-2.54131741637027,-0.400671757487971,,-1.4352866612554909,,
,2259.0,737.0,1959.0,565.0,2021.0,2475.0,2182.0,,,,-0.154539002877824,-2.54141140449155,-0.400309069751771,,-1.9313584519231175,,
,2259.0,740.0,1962.0,565.0,2014.0,2476.0,2192.0,,,,-0.154385934599862,-2.54139474134715,-0.400170987076484,,-2.366501029730679,,
,2261.0,739.0,1962.0,564.0,2014.0,2477.0,2191.0,,,,-0.154491244436101,-2.54134086494845,-0.400516277782929,,-2.74163098109341,,
,2260.0,736.0,1962.0,563.0,2008.0,2470.0,2168.0,,,,-0.154624026862206,-2.54165861696081,-0.400863751903538,,-3.060159861731122,,
,2260.0,739.0,1965.0,565.0,2024.0,2460.0,2172.0,,,,-0.154608662376153,-2.54164956496532,-0.400245762573497,,-3.327204520915701,,
,2263.0,738.0,1963.0,566.0,2031.0,2473.0,2165.0,,,,-0.154794886991176,-2.54171216197123,-0.400539646106358,,-3.548745456154802,,
,2265.0,740.0,1967.0,566.0,2037.0,2471.0,2189.0,,,,-0.154813892267301,-2.54196798827737,-0.401296585420194,,-3.7308085277168366,,
,2264.0,740.0,1967.0,566.0,2037.0,2472.0,2201.0,,,,-0.155090937738975,-2.54205540330513,-0.401442414480435,,-3.8787385338361786,,
,2266.0,738.0,1968.0,566.0,2036.0,2479.0,2205.0,,,,-0.154989325930854,-2.54209827714769,-0.401437397188397,,-3.996621238364817,,
,2267.0,741.0,1967.0,566.0,2047.0,2481.0,2197.0,,,,-0.154971677234164,-2.54260115402586,-0.401976264814044,,-4.086894530828378,,
,2267.0,742.0,1971.0,567.0,2035.0,2488.0,2187.0,,,,-0.154982285721742,-2.54231817444014,-0.401694287657058,,-4.150170617390447,,
,2270.0,740.0,1970.0,568.0,2030.0,2484.0,2166.0,,,,-0.154920029115411,-2.54255491895384,-0.40163791136958,,-4.185270791326508,,
,2271.0,742.0,1971.0,567.0,2023.0,2475.0,2191.0,,,,-0.155135357127655,-2.54238695392137,-0.401896016255748,,-4.18945408912654,,
,2272.0,743.0,1973.0,567.0,2043.0,2472.0,2194.0,,,,-0.155274547870396,-2.54255083643635,-0.402081673179421,,-4.158803098451745,,
,2275.0,743.0,1977.0,569.0,2041.0,2477.0,2201.0,,,,-0.154995093878304,-2.54307002867738,-0.40234572090181,,-4.088716532020163,,
,2275.0,745.0,1977.0,570.0,2039.0,2474.0,2192.0,,,,-0.155180617782368,-2.54247461521442,-0.402423828147423,,-3.97445062501556,,
,2278.0,741.0,1975.0,569.0,2047.0,2479.0,2180.0,,,,-0.155065381261098,-2.5427211497655,-0.402009709999444,,-3.8116508665616897,,
,2277.0,742.0,1978.0,568.0,2033.0,2485.0,2168.0,,,,-0.155228945430038,-2.54265270120582,-0.402258807899733,,-3.5968222234146654,,
,2279.0,746.0,1981.0,570.0,2056.0,2472.0,2195.0,,,,-0.154912467328561,-2.54239743189724,-0.401890242110857,,-3.327699262305944,,
,2283.0,746.0,1982.0,572.0,2047.0,2465.0,2200.0,,,,-0.154780798679596,-2.54219132143982,-0.401732869923383,,-3.0034956539154782,,
,2284.0,746.0,1981.0,571.0,2050.0,2474.0,2198.0,,,,-0.155001261619853,-2.54234574171908,-0.402104856136135,,-2.6250323262325703,,
,2282.0,745.0,1982.0,568.0,2049.0,2472.0,2178.0,,,,-0.154989633120692,-2.54223112355508,-0.4024445160027,,-2.1947611840813774,,
,2285.0,747.0,1985.0,572.0,2061.0,2470.0,2187.0,,,,-0.155090860836688,-2.542627871759,-0.402224994700273,,-1.7167134073226529,,
,2288.0,747.0,1987.0,574.0,2038.0,2479.0,2193.0,,,,-0.1550201913918,-2.54222217159679,-0.402291939893914,,-1.1964058351327096,,
,2288.0,748.0,1986.0,574.0,2037.0,2476.0,2191.0,,,,-0.155010603519375,-2.54219028529622,-0.401954282860681,,-0.6407355110724791,,
,2287.0,748.0,1989.0,572.0,2017.0,2478.0,2174.0,,,,-0.155009716131157,-2.54206362310599,-0.402833264709239,,-0.057882435595596145,,
,2290.0,746.0,1988.0,573.0,2030.0,2470.0,2191.0,,,,-0.154894389560449,-2.54203418482602,-0.402043531362547,,0.5427733329839765,,
,2293.0,749.0,1990.0,573.0,2034.0,2467.0,2183.0,,,,-0.154814657791855,-2.54183283261929,-0.402126538477295,,1.1507284345483648,,
,2292.0,748.0,1993.0,575.0,2018.0,2473.0,2201.0,,,,-0.154790762617748,-2.54134447657479,-0.40273692651954,,1.7544467120415366,,
,2292.0,751.0,1993.0,574.0,2001.0,2466.0,2212.0,,,,-0.154826291827812,-2.54131337747577,-0.402329689525823,,2.3414903962245712,,
,2295.0,747.0,1994.0,574.0,1995.0,2459.0,2189.0,,,,-0.154749145303264,-2.54115411258168,-0.402672386398535,,2.898720412419276,,
,2294.0,748.0,1994.0,577.0,2020.0,2465.0,2206.0,,,,-0.154498896014606,-2.54076903458989,-0.402626253954797,,3.4125900520623538,,
,2296.0,749.0,1993.0,574.0,2033.0,2467.0,2197.0,,,,-0.154586562795455,-2.5409543383242,-0.402821794656639,,3.8695466895128976,,
,2290.0,747.0,1990.0,575.0,2028.0,2473.0,2195.0,,,,-0.154632548423653,-2.54042850183419,-0.402679018599279,,4.256542246007978,,
,2286.0,746.0,1981.0,571.0,2036.0,2474.0,2199.0,,,,-0.154584894354438,-2.54059336673142,-0.402658012155465,,4.561636193570589,,
,2283.0,743.0,1978.0,572.0,2029.0,2491.0,2190.0,,,,-0.154665449190137,-2.54040977785217,-0.402598409865739,,4.7746568535781675,,
,2281.0,744.0,1976.0,571.0,2029.0,2490.0,2219.0,,,,-0.154673371732516,-2.54062712888313,-0.403016719691001,,4.8878696471814775,,
,2276.0,741.0,1972.0,569.0,2036.0,2487.0,2212.0,,,,-0.154360263422663,-2.5403086664959,-0.402286675040264,,4.896587363987279,,
,2270.0,737.0,1965.0,566.0,2039.0,2490.0,2213.0,,,,-0.154498042691382,-2.54045194280212,-0.402048443303643,,4.799650547090862,,
,2263.0,737.0,1960.0,564.0,2001.0,2471.0,2209.0,,,,-0.154609326064498,-2.54032928989094,-0.402142003675298,,4.599708783358204,,
,2261.0,734.0,1957.0,565.0,1999.0,2465.0,2200.0,,,,-0.154193017399825,-2.54047668036518,-0.402693255778046,,4.303247867922374,,
,2257.0,735.0,1955.0,566.0,2020.0,2470.0,2215.0,,,,-0.154323968702576,-2.5403258028175,-0.402125084203539,,3.920333186092276,,
,2257.0,733.0,1952.0,563.0,2029.0,2465.0,2215.0,,,,-0.154314840594647,-2.54013286533946,-0.402482567180994,,3.4640733972865254,,
,2254.0,731.0,1948.0,562.0,2004.0,2466.0,2212.0,,,,-0.154365971187718,-2.54030125551827,-0.402355092597423,,2.949845246509227,,
,2251.0,730.0,1945.0,562.0,1983.0,2465.0,2201.0,,,,-0.154328682417944,-2.54001462031442,-0.402217738889934,,2.3943529370273846,,
,2250.0,732.0,1945.0,560.0,2010.0,2465.0,2208.0,,,,-0.154253870360201,-2.54015985676187,-0.402952509723914,,1.8146171074403514,,
,2252.0,730.0,1945.0,564.0,2026.0,2469.0,2219.0,,,,-0.154265175319341,-2.54023123553535,-0.402359222753836,,1.2269949093380401,,
,2248.0,729.0,1943.0,563.0,2025.0,2470.0,2212.0,,,,-0.154255632932462,-2.54056288678025,-0.40255225379843,,0.6463237324318866,,
,2249.0,728.0,1943.0,562.0,2034.0,2489.0,2195.0,,,,-0.154290799302988,-2.5405931755369,-0.401607688327244,,0.08525984015322093,,
,2249.0,729.0,1944.0,562.0,2028.0,2492.0,2179.0,,,,-0.154235831403366,-2.54039185310673,-0.402101998702232,,-0.44614556532529226,,
,2250.0,732.0,1944.0,564.0,2036.0,2480.0,2190.0,,,,-0.154383780155946,-2.54042900832865,-0.402147927860953,,-0.9406211504038129,,
,2249.0,729.0,1943.0,564.0,2038.0,2482.0,2184.0,,,,-0.154199034917082,-2.54028585358831,-0.401918652691415,,-1.3936172106148426,,
,2249.0,728.0,1940.0,562.0,2056.0,2484.0,2191.0,,,,-0.15425063178624,-2.54025105297531,-0.402595747519527,,-1.803051070512078,,
,2248.0,729.0,1942.0,562.0,2051.0,2476.0,2181.0,,,,-0.154305252419275,-2.53991980212879,-0.403199442207402,,-2.168904150156438,,
,2248.0,730.0,1941.0,564.0,2052.0,2468.0,2179.0,,,,-0.154235812125802,-2.53992897748382,-0.402318510228969,,-2.492721534555918,,
,2249.0,729.0,1942.0,563.0,2050.0,2466.0,2187.0,,,,-0.154353786851917,-2.53946641144744,-0.40299813747845,,-2.777062093812031,,
,2251.0,728.0,1941.0,562.0,2034.0,2467.0,2211.0,,,,-0.154273786333654,-2.53941565325595,-0.402622915655762,,-3.0249420819717194,,
,2249.0,728.0,1941.0,562.0,2023.0,2472.0,2194.0,,,,-0.154163467636775,-2.53983103403978,-0.40284611069708,,-3.239309760700777,,
,2249.0,729.0,1938.0,563.0,2037.0,2477.0,2204.0,,,,-0.154083121984197,-2.53959322580648,-0.403267234810072,,-3.422583613865933,,
,2252.0,730.0,1943.0,564.0,2035.0,2481.0,2196.0,,,,-0.15402507703103,-2.5393427815064,-0.40339907888798,,-3.5762819408658397,,
,2251.0,729.0,1942.0,564.0,2030.0,2475.0,2200.0,,,,-0.15394061387797,-2.53922356099327,-0.403913129966918,,-3.7007664360857833,,
,2248.0,729.0,1938.0,561.0,2023.0,2484.0,2223.0,,,,-0.154110146888276,-2.53916202927905,-0.403153647215918,,-3.7951160568636433,,
,2252.0,729.0,1940.0,564.0,2038.0,2487.0,2223.0,,,,-0.153977092015323,-2.53922173921142,-0.403317710883535,,-3.8571395237050505,,
,2251.0,730.0,1944.0,567.0,2030.0,2474.0,2225.0,,,,-0.153986812301916,-2.5393045428531,-0.403871319663051,,-3.8835251330509566,,
,2255.0,730.0,1939.0,566.0,2020.0,2468.0,2221.0,,,,-0.154045513575001,-2.53903067913638,-0.403881075796907,,-3.87011568440529,,
,2254.0,727.0,1939.0,563.0,2027.0,2467.0,2221.0,,,,-0.154154510129288,-2.53926271787739,-0.403498795811288,,-3.8122851011360313,,
,2253.0,728.0,1940.0,565.0,2019.0,2467.0,2198.0,,,,-0.154212095311277,-2.53991474486944,-0.403122881373213,,-3.705382902439821,,
,2254.0,731.0,1942.0,566.0,2009.0,2475.0,2202.0,,,,-0.154374164742841,-2.53980402502059,-0.401926471869341,,-3.5452046229043264,,
,2254.0,729.0,1941.0,565.0,2007.0,2469.0,2206.0,,,,-0.154304390383188,-2.53989016245279,-0.402647385348052,,-3.3284426271770466,,
,2254.0,730.0,1939.0,565.0,1995.0,2460.0,2199.0,,,,-0.154619500609839,-2.54016812008688,-0.40361349584539,,-3.053074497573121,,
,2255.0,729.0,1941.0,563.0,2009.0,2459.0,2208.0,,,,-0.154830126696124,-2.54040088363943,-0.403624746683631,,-2.7186559698176858,,
,2255.0,728.0,1941.0,567.0,2012.0,2467.0,2216.0,,,,-0.154987762818362,-2.54044672882062,-0.404148147432775,,-2.32650075916738,,
,2257.0,730.0,1943.0,565.0,2013.0,2474.0,2209.0,,,,-0.155227777814172,-2.54088111660467,-0.404893927006118,,-1.8797471076588055,,
,2256.0,730.0,1942.0,566.0,2021.0,2477.0,2199.0,,,,-0.155534251696314,-2.54131938937165,-0.405338764529385,,-1.3833263529378368,,
,2256.0,729.0,1943.0,567.0,2015.0,2470.0,2234.0,,,,-0.155600084438329,-2.5411697025746,-0.405862981977159,,-0.8438588907270955,,
,2259.0,729.0,1944.0,564.0,2005.0,2462.0,2224.0,,,,-0.155777150859814,-2.54169571481334,-0.406298959971789,,-0.2695058994279354,,
,2260.0,731.0,1945.0,567.0,1995.0,2467.0,2195.0,,,,-0.155791657422307,-2.5413553316453,-0.405777222145079,,0.33019865264779386,,
,2258.0,731.0,1946.0,565.0,1996.0,2472.0,2204.0,,,,-0.155703533425109,-2.54221061159069,-0.406694861232367,,0.9445201565825349,,
,2261.0,730.0,1945.0,567.0,2000.0,2485.0,2216.0,,,,-0.155627373061309,-2.54146265895954,-0.405695420038066,,1.5616956916193623,,
,2258.0,730.0,1945.0,566.0,1990.0,2479.0,2211.0,,,,-0.155729928400556,-2.540954081241,-0.406307315631516,,2.1691142810733854,,
,2263.0,734.0,1947.0,569.0,1985.0,2485.0,2209.0,,,,-0.155215185130529,-2.54143174044973,-0.405465967069977,,2.753522563765898,,
,2263.0,731.0,1945.0,566.0,2008.0,2486.0,2209.0,,,,-0.155297857099694,-2.54098816630385,-0.405342622425361,,3.3012791816061524,,
,2262.0,732.0,1948.0,570.0,2008.0,2479.0,2202.0,,,,-0.155211310317184,-2.54053560357422,-0.405652883348512,,3.798681232191671,,
,2266.0,731.0,1948.0,566.0,2011.0,2466.0,2220.0,,,,-0.155103156455744,-2.54023760771486,-0.404868227899328,,4.232379317696872,,
,2264.0,731.0,1946.0,567.0,2000.0,2468.0,2201.0,,,,-0.155044968836234,-2.54033150451972,-0.404957111587686,,4.58988442860248,,
,2264.0,732.0,1950.0,567.0,2008.0,2466.0,2185.0,,,,-0.154927069548433,-2.54058959063999,-0.405229531797533,,4.860152006864078,,
,2268.0,734.0,1951.0,570.0,2013.0,2469.0,2194.0,,,,-0.154879009243801,-2.53968318351351,-0.405483009895966,,5.034208776558912,,
,2266.0,733.0,1953.0,568.0,2019.0,2467.0,2190.0,,,,-0.15492330739701,-2.53992601408665,-0.405347920842092,,5.105769445624604,,
,2269.0,733.0,1954.0,571.0,2035.0,2469.0,2208.0,,,,-0.154822030655442,-2.53947491557396,-0.405258583768964,,5.071776553816568,,
,2270.0,734.0,1953.0,572.0,2013.0,2469.0,2207.0,,,,-0.154742037939322,-2.53955080431286,-0.404664281346254,,4.932790990906489,,
,2272.0,736.0,1960.0,573.0,2007.0,2460.0,2193.0,,,,-0.154684672573327,-2.53941205093641,-0.405090080007147,,4.6931659460405495,,
,2272.0,736.0,1956.0,572.0,2004.0,2464.0,2203.0,,,,-0.154744519064611,-2.53916015147515,-0.404660572094185,,4.360954832837748,,
,2275.0,737.0,1958.0,575.0,2019.0,2481.0,2202.0,,,,-0.154493961258881,-2.53914844658968,-0.404980753032159,,3.9475333233276055,,
,2271.0,735.0,1959.0,571.0,1997.0,2470.0,2208.0,,,,-0.154384176345054,-2.53900880350261,-0.404822577486653,,3.466953207073981,,
,2275.0,738.0,1961.0,573.0,2006.0,2485.0,2204.0,,,,-0.154362610590166,-2.53902882141526,-0.405195307255879,,2.9350844739591944,,
2025-07-02 19:51:51,2277.0,737.0,1964.0,574.0,2024.0,2475.0,2205.0,,,2025/07/02 07:51:51 PM,-0.154120154379866,-2.5386377213556,-0.40556671984074,,2.368633259904089,,
,2280.0,737.0,1964.0,571.0,2018.0,2472.0,2191.0,,,,-0.154240870197791,-2.53827715325673,-0.405233581487404,,1.784139830924149,,
,2281.0,737.0,1965.0,574.0,1994.0,2472.0,2181.0,,,,-0.154106141535742,-2.53824683899372,-0.405433693829412,,1.1970595552588152,,
,2279.0,738.0,1965.0,574.0,2011.0,2467.0,2185.0,,,,-0.153977241310052,-2.53774972753716,-0.404906810810113,,0.6210127997308104,,
,2284.0,738.0,1968.0,574.0,2037.0,2463.0,2186.0,,,,-0.15392259075359,-2.53747390149429,-0.404848227374127,,0.06726220536512134,,
,2285.0,739.0,1970.0,573.0,2025.0,2471.0,2186.0,,,,-0.153539972784606,-2.53713298838683,-0.404917610074816,,-0.455555924944805,,
,2281.0,738.0,1969.0,573.0,2019.0,2469.0,2181.0,,,,-0.153485553016564,-2.53667189233718,-0.404514770345937,,-0.9414498880799735,,
,2285.0,741.0,1970.0,576.0,2011.0,2476.0,2193.0,,,,-0.153544176520163,-2.53651605151497,-0.403958724180475,,-1.386869633805869,,
,2287.0,740.0,1974.0,575.0,2024.0,2470.0,2190.0,,,,-0.153308562552321,-2.53651555802916,-0.404937547127454,,-1.790329992838437,,
,2288.0,741.0,1977.0,575.0,2040.0,2464.0,2204.0,,,,-0.153175911425199,-2.5360711163715,-0.404151397672773,,-2.1519181136341063,,
,2288.0,741.0,1976.0,576.0,2031.0,2488.0,2187.0,,,,-0.152990949613499,-2.53562250047344,-0.403998363511438,,-2.4727466698169063,,
,2290.0,742.0,1978.0,577.0,2006.0,2477.0,2203.0,,,,-0.152902364190759,-2.53523980507903,-0.404283237508585,,-2.7544116206444187,,
,2292.0,742.0,1980.0,577.0,2000.0,2479.0,2204.0,,,,-0.152718711334275,-2.535076255399,-0.403784161723054,,-2.9985051752785967,,
,2292.0,743.0,1981.0,577.0,2017.0,2468.0,2209.0,,,,-0.152699318777898,-2.534904295486,-0.40388687888753,,-3.2062224077588364,,
,2296.0,743.0,1983.0,578.0,2023.0,2464.0,2204.0,,,,-0.152632547882209,-2.53465142275102,-0.404330158322917,,-3.378085562693466,,
,2297.0,744.0,1984.0,580.0,2030.0,2469.0,2235.0,,,,-0.152329070403675,-2.53412443093856,-0.403705811633565,,-3.51379569873965,,
,2298.0,745.0,1987.0,579.0,2008.0,2474.0,2224.0,,,,-0.152323122741278,-2.53418962928691,-0.403769610928986,,-3.6122086820434522,,
,2299.0,746.0,1989.0,579.0,2003.0,2481.0,2236.0,,,,-0.152162378484683,-2.53365820131061,-0.403677011027021,,-3.671422405862705,,
,2300.0,746.0,1988.0,581.0,2001.0,2477.0,2245.0,,,,-0.152047536566872,-2.5338688119019,-0.403813552593079,,-3.6889545489589843,,
,2299.0,746.0,1987.0,578.0,2018.0,2476.0,2183.0,,,,-0.151875602282163,-2.53316233753088,-0.403124162767511,,-3.6619851956688674,,
,2298.0,744.0,1984.0,579.0,2015.0,2486.0,2199.0,,,,-0.151779903826005,-2.53339328503375,-0.403835886011737,,-3.587636310670529,,
,2294.0,744.0,1981.0,576.0,2013.0,2481.0,2202.0,,,,-0.151906566371385,-2.53308624250783,-0.403374947594941,,-3.46326043756879,,
,2293.0,741.0,1979.0,578.0,2010.0,2487.0,2199.0,,,,-0.151698679198861,-2.532942582653,-0.40367738244247,,-3.28671406070667,,
,2286.0,740.0,1973.0,578.0,2009.0,2486.0,2205.0,,,,-0.151766548538024,-2.53254310591116,-0.403624728788511,,-3.056596762946727,,
,2281.0,737.0,1966.0,573.0,2012.0,2485.0,2184.0,,,,-0.151590021651453,-2.53270316042047,-0.402560992281611,,-2.772445235566727,,
,2280.0,735.0,1963.0,573.0,1999.0,2492.0,2184.0,,,,-0.151377723327474,-2.53225723793325,-0.403218989666736,,-2.4348801913215685,,
,2275.0,735.0,1959.0,573.0,2002.0,2482.0,2197.0,,,,-0.151466181874938,-2.53249080567822,-0.403114200884859,,-2.0457122831416474,,
,2271.0,733.0,1956.0,571.0,1994.0,2474.0,2200.0,,,,-0.151191956993368,-2.53215139541336,-0.402936674712326,,-1.608018073253602,,
,2267.0,730.0,1950.0,570.0,2004.0,2468.0,2203.0,,,,-0.15098420874393,-2.53180208906099,-0.402618250644975,,-1.1261977003463366,,
,2263.0,729.0,1948.0,571.0,1999.0,2466.0,2219.0,,,,-0.150917559953174,-2.53175779674427,-0.402009900374487,,-0.6060223074065418,,
,2263.0,730.0,1948.0,572.0,1980.0,2464.0,2233.0,,,,-0.151106015020767,-2.53180088011144,-0.40229919701234,,-0.05467260740818742,,
,2260.0,731.0,1946.0,571.0,1986.0,2468.0,2214.0,,,,-0.150772028661841,-2.53179612459149,-0.402213175599012,,0.5192383430927141,,
,2259.0,729.0,1946.0,570.0,1989.0,2469.0,2203.0,,,,-0.150929534265402,-2.53170717355116,-0.401902375434321,,1.1056733114751887,,
,2257.0,727.0,1942.0,567.0,1993.0,2463.0,2218.0,,,,-0.150833015581506,-2.53167594407869,-0.401574046266554,,1.6932314802327533,,
,2258.0,728.0,1941.0,569.0,2010.0,2477.0,2215.0,,,,-0.150949348011371,-2.53146180241564,-0.401450671710696,,2.269285880199766,,
,2256.0,728.0,1942.0,569.0,2035.0,2489.0,2212.0,,,,-0.150932482365255,-2.53149886101315,-0.401378873490562,,2.8202206826670513,,
,2259.0,727.0,1942.0,569.0,2021.0,2480.0,2199.0,,,,-0.150836408328547,-2.53134218877411,-0.401552935257475,,3.331785224709592,,
,2257.0,728.0,1941.0,568.0,2029.0,2478.0,2191.0,,,,-0.150670415686072,-2.53104873684091,-0.401137177455917,,3.789570781658927,,
,2258.0,729.0,1941.0,570.0,2042.0,2491.0,2181.0,,,,-0.150652536157332,-2.53109044361974,-0.401043843852688,,4.179601146982537,,
,2257.0,727.0,1942.0,571.0,2050.0,2482.0,2177.0,,,,-0.150650682376262,-2.5306695393788,-0.400754632661577,,4.489010608560602,,
,2258.0,727.0,1941.0,568.0,2033.0,2476.0,2174.0,,,,-0.150796964223632,-2.53060430583914,-0.400969761136509,,4.706765438518244,,
,2259.0,728.0,1942.0,571.0,2033.0,2476.0,2174.0,,,,-0.150556722945915,-2.53078301854184,-0.400937400934251,,4.824370441728938,,
,2258.0,729.0,1941.0,569.0,2024.0,2479.0,2175.0,,,,-0.1505802935013,-2.53081619335359,-0.400573144587918,,4.836493129331426,,
,2259.0,728.0,1941.0,572.0,2015.0,2477.0,2169.0,,,,-0.150384157880952,-2.53004339978853,-0.4012450930193,,4.741436933709179,,
,2262.0,729.0,1944.0,572.0,2021.0,2497.0,2202.0,,,,-0.150186471044231,-2.53006407085712,-0.400663112294613,,4.5414030567743815,,
,2260.0,729.0,1942.0,573.0,2025.0,2488.0,2192.0,,,,-0.150325863245439,-2.52967062376764,-0.401000188998143,,4.242498214808981,,
,2260.0,727.0,1943.0,572.0,2024.0,2470.0,2206.0,,,,-0.150084441551649,-2.52963290957174,-0.400696711027294,,3.854471066245682,,
,2262.0,727.0,1944.0,571.0,2035.0,2466.0,2186.0,,,,-0.15015091066,-2.52944626602432,-0.401009044888364,,3.390190007408934,,
,2263.0,727.0,1944.0,572.0,2029.0,2478.0,2180.0,,,,-0.150215605558658,-2.52938245544327,-0.400881322488572,,2.8649044781719004,,
,2263.0,729.0,1944.0,573.0,2030.0,2473.0,2214.0,,,,-0.150191229070214,-2.52973840119841,-0.400410744582163,,2.2953559071755913,,
,2264.0,727.0,1945.0,572.0,2030.0,2472.0,2236.0,,,,-0.150318152110193,-2.52947446291933,-0.400488312293237,,1.6988192226284067,,
,2265.0,727.0,1947.0,573.0,2019.0,2467.0,2220.0,,,,-0.150371281586279,-2.52983860029277,-0.400569891293119,,1.0921598853226986,,
,2265.0,729.0,1947.0,570.0,2009.0,2484.0,2207.0,,,,-0.150339249050417,-2.53027723863498,-0.4002850467933,,0.4909850656374828,,
,2267.0,728.0,1948.0,574.0,2004.0,2467.0,2206.0,,,,-0.15037905519337,-2.53045613041663,-0.400644585426225,,-0.09104706394477073,,
,2266.0,732.0,1945.0,572.0,2025.0,2463.0,2213.0,,,,-0.150718101299391,-2.53076336197559,-0.399894656171514,,-0.642715652364556,,
,2266.0,727.0,1947.0,572.0,2020.0,2460.0,2182.0,,,,-0.150740264027757,-2.5306473874348,-0.399768097005312,,-1.1555002903895346,,
,2268.0,729.0,1949.0,573.0,2023.0,2472.0,2214.0,,,,-0.150973417810836,-2.53105678855218,-0.399597309044231,,-1.6236170374043386,,
,2267.0,732.0,1946.0,573.0,2037.0,2471.0,2222.0,,,,-0.151138783407746,-2.53114510750589,-0.400207985572658,,-2.043844520955072,,
,2265.0,732.0,1946.0,572.0,2024.0,2475.0,2225.0,,,,-0.151349803592575,-2.53139191214088,-0.400451932866533,,-2.4151733439917766,,
,2266.0,730.0,1948.0,574.0,2009.0,2482.0,2219.0,,,,-0.151613032608294,-2.53178105726444,-0.400775774267789,,-2.7383241375440197,,
,2265.0,729.0,1947.0,574.0,1989.0,2485.0,2224.0,,,,-0.151885953237446,-2.53240739318881,-0.402155046840786,,-3.015187210518542,,
,2268.0,731.0,1946.0,569.0,1992.0,2479.0,2215.0,,,,-0.151893433467673,-2.53243518825662,-0.402414669129174,,-3.2482398226006586,,
,2269.0,729.0,1948.0,573.0,1998.0,2477.0,2212.0,,,,-0.152132928431904,-2.53256083610945,-0.403141083456253,,-3.439995785550714,,
,2269.0,731.0,1948.0,574.0,2012.0,2474.0,2206.0,,,,-0.151999663477424,-2.5326872990863,-0.403563922403358,,-3.5925365677491485,,
,2269.0,731.0,1951.0,573.0,2006.0,2475.0,2200.0,,,,-0.152000289290472,-2.53266017487384,-0.403455787323908,,-3.707163632043842,,
,2268.0,731.0,1949.0,572.0,2015.0,2480.0,2195.0,,,,-0.152031006826915,-2.53254776306577,-0.403329021913357,,-3.784198891484195,,
,2270.0,730.0,1951.0,573.0,2014.0,2476.0,2211.0,,,,-0.152012774377596,-2.53222118416625,-0.402852229875811,,-3.8229446943624583,,
,2271.0,730.0,1951.0,576.0,2017.0,2473.0,2200.0,,,,-0.151849869733435,-2.53205041980385,-0.402694556497677,,-3.8217977398390026,,
,2272.0,731.0,1952.0,576.0,2024.0,2483.0,2199.0,,,,-0.151580353863438,-2.53244926732288,-0.402247183966419,,-3.778494373566839,,
,2271.0,730.0,1951.0,574.0,2013.0,2488.0,2212.0,,,,-0.15139333162351,-2.5315791484077,-0.401851487657794,,-3.690450079307222,,
,2272.0,732.0,1952.0,573.0,2013.0,2476.0,2217.0,,,,-0.151220224869694,-2.53170741346268,-0.402125761708969,,-3.5551462782369536,,
,2275.0,734.0,1958.0,578.0,2026.0,2470.0,2209.0,,,,-0.151126692177019,-2.53123097712981,-0.401981504164344,,-3.3705148464331662,,
,2278.0,734.0,1958.0,575.0,2026.0,2471.0,2210.0,,,,-0.151291246134436,-2.53123002209851,-0.401855258755598,,-3.135275799567899,,
,2276.0,735.0,1957.0,577.0,2048.0,2465.0,2213.0,,,,-0.15139344368964,-2.53126481089142,-0.402238822688271,,-2.84919560539139,,
,2277.0,734.0,1959.0,577.0,2015.0,2462.0,2204.0,,,,-0.151164596170258,-2.53148195851291,-0.401447665129728,,-2.513250456008321,,
,2282.0,736.0,1960.0,577.0,2004.0,2471.0,2210.0,,,,-0.151240212564378,-2.53169759021147,-0.40194358605271,,-2.1296972310553226,,
,2282.0,737.0,1961.0,580.0,2037.0,2463.0,2204.0,,,,-0.151014507322457,-2.53120134408025,-0.401699413657421,,-1.7020707365474672,,
,2285.0,736.0,1965.0,578.0,2032.0,2467.0,2211.0,,,,-0.15093563143278,-2.53137105886452,-0.402463371901658,,-1.2351354664252228,,
,2284.0,735.0,1966.0,578.0,2022.0,2467.0,2202.0,,,,-0.150904831872183,-2.53102407524791,-0.402136289525593,,-0.7348216792997352,,
,2285.0,736.0,1967.0,580.0,2028.0,2469.0,2215.0,,,,-0.150822001117426,-2.53069063642933,-0.401930520899404,,-0.2081693138304482,,
,2286.0,739.0,1967.0,578.0,2021.0,2473.0,2192.0,,,,-0.150841394022208,-2.53083347486965,-0.402306165291419,,0.33670878896759515,,
,2289.0,736.0,1969.0,579.0,2010.0,2467.0,2180.0,,,,-0.150962481711928,-2.5308650587232,-0.401793205026559,,0.8906478668614618,,
,2289.0,739.0,1970.0,581.0,2032.0,2465.0,2179.0,,,,-0.150919287819171,-2.53081656404089,-0.402069366691434,,1.4434547058861102,,
,2291.0,737.0,1970.0,581.0,2009.0,2477.0,2187.0,,,,-0.150862749806094,-2.53034238154962,-0.402190172950833,,1.9839633104745547,,
,2289.0,736.0,1972.0,581.0,2020.0,2476.0,2212.0,,,,-0.15045425663021,-2.5299624917753,-0.401965112082961,,2.500157880093435,,
,2291.0,741.0,1975.0,580.0,2023.0,2473.0,2199.0,,,,-0.150378841384531,-2.53032782838032,-0.402042935213512,,2.9793960379483098,,
,2293.0,741.0,1976.0,583.0,2028.0,2469.0,2205.0,,,,-0.150292669901635,-2.52990072190034,-0.401945075297464,,3.4087555003625734,,
,2295.0,739.0,1977.0,583.0,2027.0,2468.0,2182.0,,,,-0.150166365601087,-2.52967595284867,-0.400922202283294,,3.775511182917518,,
,2297.0,741.0,1980.0,582.0,2033.0,2479.0,2181.0,,,,-0.150047788793787,-2.52947947784354,-0.400858997325181,,4.067729143621192,,
,2298.0,742.0,1981.0,585.0,2048.0,2474.0,2150.0,,,,-0.150006163300463,-2.5298914928019,-0.401055054254711,,4.2749415494099665,,
,2302.0,741.0,1982.0,582.0,2053.0,2470.0,2164.0,,,,-0.150081979842151,-2.52969017920579,-0.40128791140574,,4.388846393844937,,
,2300.0,744.0,1984.0,585.0,2040.0,2462.0,2200.0,,,,-0.14996318813733,-2.52947988055405,-0.401207284030462,,4.403960562683543,,
,2302.0,743.0,1984.0,584.0,2060.0,2477.0,2183.0,,,,-0.149921936614802,-2.52949019378466,-0.401365480043288,,4.3181483114716475,,
,2303.0,743.0,1987.0,583.0,2072.0,2473.0,2198.0,,,,-0.149853473886117,-2.52969012877209,-0.400987320935231,,4.132951758590443,,
,2304.0,747.0,1989.0,587.0,2050.0,2483.0,2187.0,,,,-0.150040237743935,-2.52919266034521,-0.400908263085152,,3.8536667239502758,,
,2305.0,746.0,1990.0,586.0,2040.0,2490.0,2204.0,,,,-0.149985629252147,-2.52952734942222,-0.401181224814461,,3.489135205414737,,
,2306.0,742.0,1991.0,586.0,2041.0,2478.0,2204.0,,,,-0.149956352979366,-2.52910668378228,-0.401186064797335,,3.05126128450355,,
,2308.0,749.0,1993.0,587.0,2030.0,2471.0,2207.0,,,,-0.149981028682326,-2.52943872165886,-0.401103485491273,,2.554293903960979,,
,2309.0,751.0,1995.0,587.0,2018.0,2473.0,2180.0,,,,-0.149855128071781,-2.52910286620599,-0.400771722914112,,2.013950263180867,,
,2312.0,748.0,1998.0,588.0,2009.0,2477.0,2175.0,,,,-0.149744051006672,-2.52958748162294,-0.400677161682513,,1.446471634342243,,
,2314.0,748.0,1997.0,590.0,2012.0,2471.0,2165.0,,,,-0.149773168122397,-2.52970949198979,-0.400277495662934,,0.8677069373600528,,
,2314.0,747.0,1995.0,586.0,1993.0,2479.0,2176.0,,,,-0.149613303019829,-2.5295005147434,-0.400581509163106,,0.29230971866425337,,
,2317.0,749.0,1999.0,589.0,2002.0,2469.0,2183.0,,,,-0.149705759673993,-2.52930942056636,-0.401137142970321,,-0.26688541255134557,,
,2318.0,751.0,2001.0,588.0,2017.0,2477.0,2200.0,,,,-0.149714141679341,-2.52929078160656,-0.400359321157133,,-0.7992664119827634,,
,2315.0,750.0,2000.0,591.0,2034.0,2477.0,2194.0,,,,-0.149843080254584,-2.52977707940995,-0.400489061421978,,-1.2966147302305537,,
,2314.0,748.0,1996.0,588.0,2056.0,2481.0,2191.0,,,,-0.149607488260985,-2.52985393076802,-0.400889618366518,,-1.7530571024626858,,
,2312.0,745.0,1995.0,588.0,2050.0,2481.0,2192.0,,,,-0.149719008658685,-2.52978888429785,-0.399656480450708,,-2.1648337160117173,,
,2310.0,746.0,1994.0,586.0,2037.0,2480.0,2163.0,,,,-0.149716025892394,-2.52978134213217,-0.400402567943653,,-2.5299337860924838,,
,2306.0,746.0,1990.0,586.0,2042.0,2482.0,2174.0,,,,-0.149882163775076,-2.52976688204193,-0.400164286479985,,-2.847657478908368,,
,2302.0,743.0,1983.0,584.0,2045.0,2488.0,2199.0,,,,-0.149844992202926,-2.53008016732594,-0.400223031926466,,-3.1181631897737607,,
,2298.0,743.0,1980.0,585.0,2048.0,2486.0,2202.0,,,,-0.149941046745886,-2.53056060550288,-0.400691882630195,,-3.342052233269994,,
,2295.0,740.0,1973.0,582.0,2033.0,2469.0,2200.0,,,,-0.149846501240949,-2.53008914474363,-0.400076913532957,,-3.5200309843961763,,
,2291.0,739.0,1970.0,581.0,2028.0,2469.0,2197.0,,,,-0.149808302016458,-2.5303423561532,-0.400221561038468,,-3.652675967793687,,
,2288.0,736.0,1963.0,579.0,2024.0,2468.0,2196.0,,,,-0.149770783545248,-2.53024542049802,-0.399307976210302,,-3.7403124929057507,,
,2283.0,736.0,1963.0,580.0,2003.0,2461.0,2198.0,,,,-0.149899800601929,-2.53050755928754,-0.39964519616161,,-3.783003482995429,,
,2282.0,737.0,1960.0,580.0,2016.0,2453.0,2190.0,,,,-0.149913475816602,-2.53055462346052,-0.399888322871826,,-3.780632932723195,,
,2279.0,736.0,1961.0,581.0,2015.0,2462.0,2204.0,,,,-0.149945681723697,-2.53085154125873,-0.399338878538919,,-3.733058702147042,,
,2282.0,734.0,1957.0,581.0,2021.0,2465.0,2195.0,,,,-0.14970437738433,-2.5309802877088,-0.399353810382638,,-3.640302897073523,,
,2278.0,734.0,1960.0,581.0,2006.0,2472.0,2198.0,,,,-0.149996214214999,-2.53079741423721,-0.399805795258647,,-3.5027455674461865,,
,2277.0,733.0,1957.0,578.0,2018.0,2474.0,2168.0,,,,-0.149908376474238,-2.53120379683158,-0.399480627735639,,-3.321289345498819,,
,2280.0,736.0,1959.0,579.0,2026.0,2484.0,2179.0,,,,-0.14994871214977,-2.53147053941806,-0.39923398699373,,-3.097469048490392,,
,2279.0,734.0,1957.0,579.0,2051.0,2488.0,2173.0,,,,-0.14995163828755,-2.53113345266066,-0.398815630406054,,-2.833490561631238,,
,2279.0,734.0,1958.0,580.0,2065.0,2493.0,2170.0,,,,-0.150051673800875,-2.53164176589468,-0.399175636423741,,-2.532195858021064,,
,2279.0,733.0,1957.0,579.0,2064.0,2476.0,2180.0,,,,-0.150064062313726,-2.53135256190645,-0.398643371117541,,-2.1969634458336276,,
,2281.0,735.0,1960.0,580.0,2055.0,2479.0,2156.0,,,,-0.150082251399773,-2.53194651214996,-0.398832275506807,,-1.8315636566652773,,
,2283.0,737.0,1960.0,581.0,2064.0,2475.0,2139.0,,,,-0.150302497385109,-2.53193637224058,-0.398660497335904,,-1.4399947194711469,,
,2281.0,734.0,1961.0,581.0,2059.0,2475.0,2134.0,,,,-0.15043266549245,-2.53198747933638,-0.398230981127686,,-1.0263281403256377,,
,2281.0,734.0,1961.0,580.0,2062.0,2492.0,2173.0,,,,-0.150104900258377,-2.5320161504393,-0.398894262311605,,-0.5945906104890913,,
2025-07-02 19:51:52,2281.0,733.0,1959.0,580.0,2062.0,2491.0,2186.0,,,2025/07/02 07:51:52 PM,-0.150200935252627,-2.53203457327728,-0.398680247738543,,-0.14870476833893487,,
,2282.0,737.0,1960.0,580.0,2042.0,2480.0,2188.0,,,,-0.150205257466582,-2.5323633153717,-0.398595978874166,,0.30749682978180903,,
,2285.0,737.0,1961.0,582.0,2034.0,2477.0,2182.0,,,,-0.150409780005944,-2.53205813203194,-0.398334369530174,,0.7701804579636788,,
,2283.0,736.0,1963.0,584.0,2042.0,2473.0,2189.0,,,,-0.150123460873636,-2.532731561121,-0.397918265553322,,1.23535031984117,,
,2285.0,735.0,1964.0,582.0,2055.0,2469.0,2209.0,,,,-0.150395732945257,-2.53275021213097,-0.398821561313864,,1.6986376653801523,,
,2286.0,737.0,1962.0,580.0,2036.0,2472.0,2194.0,,,,-0.150585990970554,-2.53255432854562,-0.398830177499826,,2.1550704905303295,,
,2285.0,739.0,1962.0,583.0,2049.0,2484.0,2197.0,,,,-0.150360079047708,-2.53290268323001,-0.398088721732999,,2.598862336748976,,
,2287.0,738.0,1963.0,583.0,2053.0,2482.0,2205.0,,,,-0.150540110476288,-2.53300072814648,-0.398484280463263,,3.023262047696741,,
,2289.0,735.0,1962.0,580.0,2045.0,2471.0,2208.0,,,,-0.150905766323218,-2.53351238090698,-0.3981731625022,,3.420504167158489,,
,2287.0,738.0,1963.0,583.0,2048.0,2471.0,2193.0,,,,-0.1507621161862,-2.53369158584228,-0.398631307876596,,3.7818919758925316,,
,2290.0,736.0,1966.0,584.0,2059.0,2473.0,2190.0,,,,-0.15119098233336,-2.53413441927141,-0.397985278712641,,4.098032461255788,,
,2292.0,739.0,1966.0,583.0,2050.0,2471.0,2203.0,,,,-0.151229878762726,-2.53444103964383,-0.397530343471315,,4.359225557225731,,
,2288.0,738.0,1964.0,583.0,2053.0,2472.0,2208.0,,,,-0.151408653949044,-2.53447975632378,-0.397400544769999,,4.555990172415224,,
,2290.0,737.0,1963.0,583.0,2040.0,2463.0,2197.0,,,,-0.151657500893837,-2.53537012479733,-0.398112935750449,,4.679689155253704,,
,2290.0,739.0,1967.0,584.0,2023.0,2466.0,2189.0,,,,-0.151904007174019,-2.53576529015363,-0.398538390118687,,4.7231973265856775,,
,2292.0,739.0,1966.0,583.0,2035.0,2468.0,2166.0,,,,-0.152233871254529,-2.53646477928221,-0.39908358854491,,4.681543867100344,,
,2291.0,737.0,1965.0,583.0,2047.0,2467.0,2182.0,,,,-0.152677499950215,-2.5366071508891,-0.400556237465035,,4.55245504285607,,
,2290.0,735.0,1965.0,584.0,2058.0,2470.0,2194.0,,,,-0.152609967017094,-2.53732985442557,-0.400239150390262,,4.3367272328515165,,
,2291.0,738.0,1963.0,585.0,2053.0,2466.0,2207.0,,,,-0.153092555006489,-2.53717287445573,-0.40112284778712,,4.038374326836986,,
,2288.0,739.0,1966.0,585.0,2024.0,2462.0,2198.0,,,,-0.153111116853568,-2.53803378564785,-0.401533764420993,,3.664517169965076,,
,2292.0,739.0,1968.0,584.0,2040.0,2469.0,2195.0,,,,-0.153478853421226,-2.53805887623636,-0.401742298089858,,3.225013299884294,,
,2289.0,738.0,1967.0,585.0,2042.0,2473.0,2192.0,,,,-0.153669131774159,-2.53786884993983,-0.402122114993102,,2.7318583951832034,,
,2292.0,738.0,1968.0,583.0,2036.0,2472.0,2181.0,,,,-0.15360173101391,-2.53806881028592,-0.401258749674832,,2.1984212734808772,,
,2294.0,738.0,1967.0,584.0,2028.0,2465.0,2209.0,,,,-0.153437583511437,-2.53784216529123,-0.40136506114763,,1.6385966851402276,,
,2295.0,739.0,1969.0,586.0,2029.0,2468.0,2211.0,,,,-0.153438833114115,-2.5378432163607,-0.401321270016724,,1.0659703728486378,,
,2294.0,740.0,1970.0,586.0,2032.0,2471.0,2193.0,,,,-0.153130366275031,-2.53779831341955,-0.400639142287871,,0.49308676256587536,,
,2297.0,740.0,1968.0,586.0,2028.0,2470.0,2160.0,,,,-0.153067595565625,-2.53763592385751,-0.400648563641455,,-0.06910801909193924,,
,2295.0,741.0,1971.0,583.0,2047.0,2465.0,2176.0,,,,-0.152908367244172,-2.53764386718558,-0.400879446607551,,-0.6116025461545086,,
,2297.0,741.0,1972.0,585.0,2049.0,2467.0,2174.0,,,,-0.15287499833235,-2.53774002072533,-0.400536577648024,,-1.1274222567887993,,
,2300.0,742.0,1972.0,587.0,2053.0,2469.0,2189.0,,,,-0.152764733184155,-2.53786711489666,-0.400994160685383,,-1.6115139962370575,,
,2299.0,743.0,1975.0,587.0,2040.0,2466.0,2190.0,,,,-0.152850242640733,-2.53783176490631,-0.400560351688599,,-2.060454498612165,,
,2299.0,742.0,1976.0,587.0,2042.0,2475.0,2197.0,,,,-0.152871678939005,-2.53768327935724,-0.400406433122359,,-2.4720416017161067,,
,2302.0,742.0,1980.0,588.0,2048.0,2466.0,2196.0,,,,-0.152676076477391,-2.53768595049247,-0.400105813149432,,-2.8448353422203594,,
,2302.0,746.0,1981.0,589.0,2039.0,2463.0,2191.0,,,,-0.15279585833761,-2.53766731172675,-0.400317250053618,,-3.177715385485364,,
,2304.0,743.0,1980.0,586.0,2048.0,2462.0,2182.0,,,,-0.152825552110143,-2.53791009402907,-0.400823452228392,,-3.469512446488623,,
,2306.0,743.0,1981.0,589.0,2070.0,2462.0,2194.0,,,,-0.152689974045946,-2.53786359215442,-0.40084811354026,,-3.7187563864748387,,
,2305.0,746.0,1982.0,588.0,2063.0,2477.0,2168.0,,,,-0.152829512692888,-2.53761066720867,-0.400806551672967,,-3.9235649219671753,,
,2308.0,748.0,1984.0,591.0,2042.0,2469.0,2182.0,,,,-0.152660901598569,-2.53771189679879,-0.401335239084663,,-4.081676708098651,,
,2307.0,747.0,1985.0,591.0,2063.0,2467.0,2171.0,,,,-0.152704878639351,-2.53797794828058,-0.401591095087256,,-4.190613157491211,,
,2309.0,745.0,1989.0,589.0,2053.0,2464.0,2175.0,,,,-0.152832370896665,-2.53739992980068,-0.401010988364304,,-4.247936865655685,,
,2308.0,748.0,1986.0,591.0,2033.0,2482.0,2177.0,,,,-0.152735295611827,-2.53741281845401,-0.401415129729814,,-4.251562781611457,,
,2311.0,745.0,1986.0,589.0,2043.0,2475.0,2178.0,,,,-0.152493013033312,-2.53749676561977,-0.401001532320197,,-4.200072444856564,,
,2312.0,747.0,1990.0,590.0,2053.0,2482.0,2186.0,,,,-0.152670282704547,-2.53752749528048,-0.401812662322907,,-4.092982162426769,,
,2314.0,748.0,1991.0,592.0,2054.0,2484.0,2182.0,,,,-0.152556497066919,-2.53749053668,-0.401205246990785,,-3.930923020267803,,
,2316.0,750.0,1992.0,591.0,2054.0,2466.0,2182.0,,,,-0.152663063339155,-2.5376431994626,-0.401686317892775,,-3.715703888964561,,
,2317.0,749.0,1994.0,591.0,2056.0,2474.0,2198.0,,,,-0.152601156771338,-2.53719735727322,-0.401818420632975,,-3.4502470477105702,,
,2317.0,752.0,1996.0,592.0,2043.0,2471.0,2194.0,,,,-0.152483763619535,-2.5371106462422,-0.401091399146462,,-3.1384073241968076,,
,2317.0,750.0,1998.0,592.0,2048.0,2475.0,2166.0,,,,-0.15264246695232,-2.53708272689738,-0.401726953527204,,-2.7847060716424608,,
,2319.0,750.0,1997.0,593.0,2044.0,2475.0,2157.0,,,,-0.152470406608386,-2.5369997632085,-0.40127513675859,,-2.394026737403763,,
,2322.0,748.0,1998.0,593.0,2046.0,2476.0,2191.0,,,,-0.152600725381634,-2.53689112020527,-0.401552134701558,,-1.9713258208144737,,
,2320.0,752.0,2001.0,594.0,2054.0,2479.0,2185.0,,,,-0.152321595325638,-2.53682981823519,-0.401977384068318,,-1.5214101056415448,,
,2324.0,755.0,2004.0,595.0,2043.0,2484.0,2186.0,,,,-0.152274753041887,-2.53713698269112,-0.401952444410146,,-1.048818941190852,,
,2324.0,752.0,2003.0,595.0,2049.0,2474.0,2193.0,,,,-0.152389012407045,-2.53665685479623,-0.401815493180455,,-0.5578318254488598,,
,2323.0,751.0,2003.0,593.0,2035.0,2472.0,2195.0,,,,-0.152303563148003,-2.5367993506252,-0.401688888366927,,-0.05260045485590317,,
,2324.0,753.0,2004.0,595.0,2043.0,2473.0,2170.0,,,,-0.15214621002196,-2.53617138354161,-0.401190165355433,,0.462615608126809,,
,2328.0,755.0,2007.0,597.0,2038.0,2468.0,2170.0,,,,-0.1520120528196,-2.53584257432024,-0.401708090121771,,0.9831467944406688,,
,2327.0,756.0,2007.0,597.0,2059.0,2465.0,2161.0,,,,-0.151943614247208,-2.5359809826847,-0.401700653544867,,1.5035930417882495,,
,2331.0,755.0,2009.0,596.0,2061.0,2469.0,2171.0,,,,-0.151907342711936,-2.53625283509173,-0.401244589058161,,2.017537924661669,,
,2331.0,755.0,2012.0,597.0,2038.0,2466.0,2182.0,,,,-0.151943348756818,-2.53581152832654,-0.40134925366279,,2.5173488728818767,,
,2330.0,757.0,2012.0,595.0,2039.0,2457.0,2163.0,,,,-0.151922403817448,-2.53576773415983,-0.40133084380522,,2.9941076121387504,,
,2333.0,757.0,2014.0,599.0,2021.0,2456.0,2187.0,,,,-0.151882924378802,-2.53584254453417,-0.401730974490168,,3.4377027562100766,,
,2333.0,759.0,2016.0,599.0,2040.0,2456.0,2198.0,,,,-0.151798551268056,-2.5357216783072,-0.401082202294058,,3.8371005927281066,,
,2332.0,756.0,2012.0,595.0,2049.0,2465.0,2189.0,,,,-0.151787938594957,-2.5356924399991,-0.401323833554916,,4.18079174346585,,
,2334.0,755.0,2010.0,597.0,2067.0,2471.0,2198.0,,,,-0.151630256542564,-2.53588203832433,-0.400521852151166,,4.45739188366135,,
,2330.0,757.0,2010.0,597.0,2087.0,2488.0,2208.0,,,,-0.151574281353705,-2.53541469142861,-0.401112561887237,,4.656355666725993,,
,2327.0,754.0,2006.0,595.0,2076.0,2492.0,2193.0,,,,-0.151455695214107,-2.53547196791857,-0.400713096630509,,4.768746136159128,,
,2324.0,752.0,2001.0,594.0,2058.0,2488.0,2176.0,,,,-0.15160083870122,-2.53563513509354,-0.400234599461151,,4.7879888404047986,,
,2321.0,751.0,1996.0,591.0,2050.0,2485.0,2191.0,,,,-0.151493391440182,-2.535457626548,-0.400639640826843,,4.710532304457316,,
,2316.0,750.0,1991.0,593.0,2036.0,2471.0,2160.0,,,,-0.151523003054899,-2.53559544451969,-0.400807099740418,,4.536336572451284,,
,2312.0,749.0,1990.0,591.0,2033.0,2468.0,2162.0,,,,-0.151569806705012,-2.5354511184432,-0.400844132038707,,4.269121391604227,,
,2310.0,746.0,1982.0,592.0,2026.0,2466.0,2186.0,,,,-0.151503049973016,-2.53558405036237,-0.400817438863932,,3.916326308485223,,
,2307.0,745.0,1977.0,591.0,2025.0,2460.0,2193.0,,,,-0.151314137168501,-2.53549931798011,-0.400264085083174,,3.488765334527835,,
,2304.0,743.0,1974.0,589.0,2025.0,2439.0,2185.0,,,,-0.151345262046509,-2.53552448740945,-0.399982674153858,,2.999995293255949,,
,2301.0,744.0,1975.0,592.0,2040.0,2456.0,2197.0,,,,-0.151407689550221,-2.53539118857848,-0.400361583575745,,2.465453898994112,,
,2299.0,742.0,1971.0,590.0,2035.0,2458.0,2190.0,,,,-0.151423010771604,-2.53534670834102,-0.400141238573995,,1.901454460576782,,
,2297.0,741.0,1968.0,590.0,2025.0,2456.0,2198.0,,,,-0.151406437464844,-2.53567597867075,-0.399728278197357,,1.3241428540786606,,
,2298.0,739.0,1967.0,588.0,2034.0,2461.0,2194.0,,,,-0.15138225008196,-2.53553106355,-0.399880506434079,,0.7485255328271361,,
,2294.0,741.0,1965.0,589.0,2044.0,2485.0,2187.0,,,,-0.151470606390891,-2.53544491954703,-0.399506826431912,,0.18766500249092696,,
,2296.0,741.0,1967.0,589.0,2067.0,2480.0,2166.0,,,,-0.151592663897344,-2.53578241870008,-0.400347348604029,,-0.34788514237418877,,
,2297.0,742.0,1964.0,590.0,2084.0,2483.0,2154.0,,,,-0.15168104151932,-2.53600287369844,-0.399753520930261,,-0.8503648291519665,,
,2293.0,739.0,1963.0,589.0,2058.0,2494.0,2164.0,,,,-0.151632580977166,-2.53599942588696,-0.400000482836847,,-1.3148044665471394,,
,2294.0,741.0,1965.0,588.0,2082.0,2479.0,2168.0,,,,-0.151521752222436,-2.53572977861815,-0.400032144184487,,-1.7387587478147142,,
,2297.0,741.0,1964.0,588.0,2098.0,2481.0,2150.0,,,,-0.151555093669252,-2.53590582655308,-0.400398495666135,,-2.121828738874159,,
,2295.0,741.0,1965.0,590.0,2106.0,2472.0,2136.0,,,,-0.151656082473561,-2.53587746184295,-0.400496177718551,,-2.4650432755239367,,
,2295.0,740.0,1963.0,590.0,2115.0,2475.0,2150.0,,,,-0.151602910739098,-2.53600969751728,-0.400142768217967,,-2.7701812331711864,,
,2294.0,741.0,1964.0,588.0,2069.0,2468.0,2148.0,,,,-0.151755280882728,-2.535943913701,-0.400388783499863,,-3.039117024388542,,
,2299.0,741.0,1964.0,589.0,2076.0,2481.0,2163.0,,,,-0.151687535097648,-2.53608114654274,-0.400171880826874,,-3.2732630407052308,,
,2299.0,737.0,1964.0,589.0,2071.0,2480.0,2155.0,,,,-0.151787701556398,-2.53580422296451,-0.399842751673301,,-3.473166124877473,,
,2299.0,740.0,1966.0,589.0,2063.0,2476.0,2170.0,,,,-0.151770822610895,-2.53590827868739,-0.4000730917379,,-3.638293068670237,,
,2299.0,739.0,1963.0,589.0,2044.0,2482.0,2167.0,,,,-0.151863894863196,-2.53646234651435,-0.400171893078582,,-3.767015712351984,,
,2297.0,738.0,1964.0,589.0,2035.0,2476.0,2168.0,,,,-0.151976841863753,-2.53668748370369,-0.399662055386458,,-3.8567824094308247,,
,2297.0,740.0,1965.0,591.0,2007.0,2463.0,2183.0,,,,-0.151935359492121,-2.53708800033639,-0.399814083907143,,-3.904441568939386,,
,2300.0,741.0,1967.0,589.0,2012.0,2462.0,2188.0,,,,-0.152036366161852,-2.53699201632606,-0.399803771900948,,-3.906666162122287,,
,2299.0,743.0,1966.0,590.0,2020.0,2464.0,2202.0,,,,-0.152359735857405,-2.53742090703054,-0.400168566861892,,-3.860416893897253,,
,2299.0,740.0,1964.0,591.0,2019.0,2460.0,2193.0,,,,-0.152462268301677,-2.53803010004319,-0.400305565616983,,-3.7633779932783393,,
,2298.0,738.0,1962.0,591.0,2017.0,2459.0,2189.0,,,,-0.15264951446078,-2.53868756075276,-0.399877161898849,,-3.614304968905917,,
,2302.0,742.0,1965.0,590.0,2007.0,2457.0,2177.0,,,,-0.152743825323283,-2.53842292584708,-0.399753794944081,,-3.413238587445374,,
,2299.0,741.0,1966.0,592.0,2011.0,2457.0,2187.0,,,,-0.152888150590334,-2.53872505330775,-0.399275033351581,,-3.1615619556421715,,
,2302.0,742.0,1966.0,589.0,2022.0,2462.0,2207.0,,,,-0.153201010503431,-2.53894199256053,-0.399199315991626,,-2.8619041075274496,,
,2301.0,741.0,1964.0,591.0,2015.0,2474.0,2201.0,,,,-0.153668004615906,-2.53983210359132,-0.399424235790361,,-2.517919079811516,,
,2303.0,740.0,1965.0,592.0,2013.0,2479.0,2196.0,,,,-0.153978731412956,-2.54027872169604,-0.400901307136827,,-2.133989417792926,,
,2302.0,741.0,1965.0,591.0,2017.0,2482.0,2205.0,,,,-0.154482505581077,-2.5409712750468,-0.401174021235576,,-1.714913876592953,,
,2302.0,740.0,1965.0,593.0,2037.0,2473.0,2209.0,,,,-0.154833972531397,-2.54136691920952,-0.402260911582263,,-1.2656391013734036,,
,2303.0,741.0,1964.0,591.0,2033.0,2466.0,2219.0,,,,-0.155101933661493,-2.5420487517635,-0.403355798250925,,-0.7910846952480218,,
,2303.0,742.0,1966.0,593.0,2035.0,2466.0,2223.0,,,,-0.155423636455986,-2.542883642583,-0.404327789172809,,-0.29609252785388995,,
,2301.0,743.0,1965.0,592.0,2038.0,2469.0,2220.0,,,,-0.155675431392453,-2.54324668025501,-0.404411742417267,,0.21449224416852297,,
,2305.0,741.0,1965.0,591.0,2021.0,2477.0,2221.0,,,,-0.155964715618511,-2.54373848606006,-0.404594475267634,,0.7356253760489921,,
,2302.0,739.0,1963.0,593.0,2007.0,2467.0,2211.0,,,,-0.15602521925231,-2.54380626081351,-0.40436170514878,,1.2617915157826216,,
,2305.0,741.0,1968.0,593.0,2023.0,2474.0,2188.0,,,,-0.155995057917191,-2.54407521451327,-0.404755457539966,,1.7867100572032455,,
,2305.0,741.0,1967.0,591.0,2048.0,2474.0,2175.0,,,,-0.155970403223888,-2.54420540122096,-0.403812797288207,,2.303080146960337,,
,2307.0,742.0,1966.0,592.0,2031.0,2473.0,2167.0,,,,-0.155985850771594,-2.54420389064473,-0.403321056967826,,2.8024243003189913,,
,2306.0,741.0,1965.0,592.0,2027.0,2472.0,2197.0,,,,-0.156010226402795,-2.54440055258101,-0.403580151236467,,3.2750798920866027,,
,2307.0,742.0,1966.0,593.0,2034.0,2481.0,2196.0,,,,-0.15636969917209,-2.54435853949989,-0.403625119463427,,3.7103706455262815,,
,2309.0,740.0,1969.0,594.0,2036.0,2474.0,2182.0,,,,-0.156381997914704,-2.54433907201591,-0.403911544692473,,4.096967997719062,,
,2309.0,741.0,1969.0,594.0,2027.0,2467.0,2185.0,,,,-0.156297886370317,-2.54468369530207,-0.403876336857063,,4.423427269174352,,
,2309.0,743.0,1969.0,595.0,2016.0,2467.0,2187.0,,,,-0.156639152233792,-2.5449727549383,-0.40433851835707,,4.678858857014189,,
,2310.0,741.0,1971.0,595.0,2028.0,2466.0,2183.0,,,,-0.156693444746699,-2.54509183971319,-0.404247389254877,,4.8536733356905994,,
,2312.0,745.0,1974.0,596.0,2043.0,2472.0,2200.0,,,,-0.156839714411894,-2.54558610864746,-0.404129505668779,,4.940324217833419,,
,2315.0,744.0,1972.0,596.0,2048.0,2470.0,2207.0,,,,-0.15678528475894,-2.5459496105945,-0.403530848820906,,4.933965522069595,,
,2316.0,745.0,1973.0,596.0,2046.0,2476.0,2199.0,,,,-0.157024806812222,-2.54626690095293,-0.404220710092883,,4.832944949476802,,
,2316.0,742.0,1976.0,597.0,2020.0,2474.0,2201.0,,,,-0.157001986551773,-2.54619848636088,-0.404697164196878,,4.639068104486475,,
,2316.0,747.0,1976.0,596.0,2029.0,2471.0,2188.0,,,,-0.157233108631389,-2.54676348004024,-0.404323698723628,,4.35759378476136,,
,2320.0,745.0,1977.0,598.0,2014.0,2467.0,2177.0,,,,-0.15708421754983,-2.54667529138566,-0.404682110042948,,3.996951851043319,,
,2320.0,748.0,1980.0,596.0,2016.0,2467.0,2180.0,,,,-0.157325514412302,-2.54670514820193,-0.405758320052722,,3.568208997220561,,
,2320.0,747.0,1981.0,600.0,2012.0,2475.0,2176.0,,,,-0.15752319832808,-2.54746211503726,-0.405373236570941,,3.0843386406958264,,
,2319.0,745.0,1980.0,595.0,2018.0,2477.0,2179.0,,,,-0.157448148697588,-2.54679888636658,-0.406030446363138,,2.5593741369135325,,
,2324.0,747.0,1983.0,597.0,2011.0,2478.0,2186.0,,,,-0.157492603500215,-2.54716510628889,-0.405709446075435,,2.0075358715656164,,
,2322.0,749.0,1984.0,600.0,2031.0,2480.0,2205.0,,,,-0.157456540553265,-2.54706270003916,-0.405806170905532,,1.4424211113879999,,
2025-07-02 19:51:53,2325.0,749.0,1986.0,599.0,2034.0,2479.0,2199.0,,,2025/07/02 07:51:53 PM,-0.157387489460878,-2.54699671422517,-0.406209191628762,,0.876332082910132,,
,2325.0,746.0,1983.0,597.0,2032.0,2474.0,2189.0,,,,-0.157396092857253,-2.54690968785017,-0.405408082630156,,0.3197958924027437,,
,2326.0,749.0,1984.0,599.0,2034.0,2472.0,2178.0,,,,-0.157254493809255,-2.54640518757933,-0.405751432998863,,-0.21869631158482533,,
,2329.0,749.0,1990.0,603.0,2028.0,2478.0,2175.0,,,,-0.157131323603456,-2.54628472561352,-0.40547464951933,,-0.7327302046959658,,
,2333.0,749.0,1988.0,601.0,2030.0,2476.0,2192.0,,,,-0.157169182692114,-2.54615602165678,-0.406015460794644,,-1.2178122634261117,,
,2332.0,750.0,1991.0,600.0,2030.0,2483.0,2185.0,,,,-0.157282435431916,-2.54621962186576,-0.405374035649163,,-1.6710582728347636,,
,2333.0,747.0,1990.0,599.0,2051.0,2478.0,2185.0,,,,-0.157044883295368,-2.54606583973307,-0.405705091540005,,-2.0907791488904115,,
,2333.0,751.0,1991.0,600.0,2030.0,2485.0,2178.0,,,,-0.157019512599564,-2.5452324331839,-0.406307732120484,,-2.4760211332641635,,
,2335.0,752.0,1995.0,601.0,2034.0,2477.0,2193.0,,,,-0.156891182998436,-2.54536623716648,-0.406393638570193,,-2.8261155499033075,,
,2336.0,750.0,1995.0,602.0,2027.0,2480.0,2181.0,,,,-0.157027419730436,-2.54515025846054,-0.40623785995128,,-3.1402866098300306,,
,2336.0,750.0,1996.0,600.0,2038.0,2477.0,2197.0,,,,-0.156897309029068,-2.54481591747611,-0.406433920886397,,-3.4173555137139866,,
,2338.0,750.0,1997.0,603.0,2029.0,2492.0,2200.0,,,,-0.156826331573816,-2.54498715573217,-0.406563086298885,,-3.6555666062985193,,
,2340.0,752.0,1998.0,603.0,2010.0,2484.0,2198.0,,,,-0.156691728690532,-2.54468165456186,-0.406697632609987,,-3.852547776275636,,
,2341.0,753.0,1999.0,602.0,2011.0,2478.0,2185.0,,,,-0.15657584074648,-2.54423873818327,-0.406434077631567,,-4.0054036435737945,,
,2340.0,753.0,2002.0,602.0,2018.0,2471.0,2207.0,,,,-0.156606523323688,-2.5441046234716,-0.40639193537671,,-4.110927078503075,,
,2341.0,755.0,2000.0,603.0,2014.0,2487.0,2204.0,,,,-0.156528042479238,-2.54422185071576,-0.407121489231984,,-4.165902898992811,,
,2344.0,753.0,2006.0,605.0,2020.0,2473.0,2210.0,,,,-0.156495648252503,-2.5441556073167,-0.40658064082854,,-4.167467859464918,,
,2348.0,755.0,2008.0,605.0,2015.0,2470.0,2195.0,,,,-0.156484911088119,-2.54372314616173,-0.406117131342755,,-4.113484017878405,,
,2346.0,756.0,2006.0,604.0,2013.0,2466.0,2204.0,,,,-0.156323156605319,-2.54357103954386,-0.406777603614395,,-4.002879090940969,,
,2344.0,754.0,2009.0,604.0,2013.0,2473.0,2217.0,,,,-0.156374292356268,-2.54342235231367,-0.406710226248608,,-3.835908498674035,,
,2346.0,756.0,2009.0,605.0,2016.0,2471.0,2205.0,,,,-0.156228973877969,-2.5439180585767,-0.405808186365736,,-3.6143006241453066,,
,2347.0,757.0,2005.0,604.0,2031.0,2478.0,2199.0,,,,-0.156413540943998,-2.54367365682438,-0.406190959481797,,-3.341260163774118,,
,2342.0,754.0,2003.0,606.0,2028.0,2481.0,2212.0,,,,-0.156152783107366,-2.54349815317753,-0.406119035643869,,-3.021323658018333,,
,2342.0,750.0,1998.0,604.0,2033.0,2475.0,2203.0,,,,-0.156123965211167,-2.54306672931836,-0.405951421967728,,-2.660083537436388,,
,2337.0,752.0,1994.0,601.0,2022.0,2491.0,2203.0,,,,-0.156177972939312,-2.54342288904951,-0.405646054779258,,-2.2638179018787454,,
,2334.0,751.0,1990.0,602.0,2031.0,2507.0,2209.0,,,,-0.156058581393702,-2.54342429383618,-0.40595396756486,,-1.8390784668278892,,
,2329.0,750.0,1986.0,601.0,2027.0,2496.0,2213.0,,,,-0.156091623385979,-2.54326027633276,-0.405462319254025,,-1.3922958894393314,,
,2327.0,745.0,1982.0,599.0,2022.0,2491.0,2208.0,,,,-0.155942877584673,-2.54344575266311,-0.405219222589586,,-0.9294592511181632,,
,2320.0,743.0,1975.0,598.0,2003.0,2477.0,2174.0,,,,-0.155780100111946,-2.54312845928627,-0.405521103585665,,-0.45591570441309076,,
,2322.0,743.0,1973.0,599.0,2014.0,2459.0,2200.0,,,,-0.155860035037997,-2.54274783203159,-0.405406660006888,,0.0236808519516576,,
,2315.0,742.0,1970.0,598.0,2005.0,2456.0,2201.0,,,,-0.155775794716254,-2.54271495904199,-0.404937165847181,,0.5052642182062121,,
,2316.0,741.0,1968.0,596.0,1994.0,2458.0,2208.0,,,,-0.155658198033259,-2.54266766604543,-0.404825371406143,,0.9851078828293459,,
,2310.0,738.0,1963.0,596.0,2009.0,2469.0,2209.0,,,,-0.155712648995963,-2.54237337751678,-0.40474046496605,,1.459470078313206,,
,2309.0,740.0,1963.0,597.0,1993.0,2471.0,2208.0,,,,-0.155774225340148,-2.54205840178809,-0.404941727916958,,1.9241850064682324,,
,2311.0,738.0,1962.0,597.0,1992.0,2469.0,2204.0,,,,-0.155658543327864,-2.5425508102442,-0.4055281590149,,2.3742650658973306,,
,2313.0,739.0,1963.0,599.0,1980.0,2468.0,2215.0,,,,-0.155801331359227,-2.54185489917115,-0.405081481306358,,2.803582836705575,,
,2309.0,739.0,1961.0,599.0,1984.0,2465.0,2203.0,,,,-0.15560583418064,-2.54167411953672,-0.404917698364811,,3.204696719892604,,
,2310.0,736.0,1959.0,598.0,2009.0,2488.0,2207.0,,,,-0.155602639790275,-2.54197319145908,-0.404867170472577,,3.56887059456012,,
,2310.0,738.0,1964.0,597.0,2028.0,2483.0,2191.0,,,,-0.155597268820475,-2.54147266003536,-0.405452552885061,,3.8863165007692286,,
,2311.0,738.0,1962.0,599.0,2016.0,2464.0,2189.0,,,,-0.155530191602058,-2.54146447936327,-0.405153857081102,,4.146661845196434,,
,2311.0,739.0,1962.0,600.0,2031.0,2462.0,2183.0,,,,-0.15537685760626,-2.54135454434516,-0.405611225905005,,4.339611852027247,,
,2310.0,736.0,1961.0,598.0,2046.0,2477.0,2174.0,,,,-0.155241905321429,-2.54133981723506,-0.40512771794469,,4.455747983276701,,
,2309.0,738.0,1960.0,596.0,2042.0,2473.0,2188.0,,,,-0.155253239831064,-2.54096285064882,-0.405054551971887,,4.4873782462554646,,
,2311.0,738.0,1960.0,599.0,2013.0,2470.0,2196.0,,,,-0.155183785004265,-2.54119471952237,-0.405440497031839,,4.429339727302033,,
,2311.0,738.0,1959.0,598.0,2000.0,2469.0,2198.0,,,,-0.155156963731619,-2.5410931135547,-0.405662193280254,,4.279650672087709,,
,2309.0,737.0,1961.0,598.0,2006.0,2487.0,2203.0,,,,-0.154987269450353,-2.54096436764208,-0.405547967957629,,4.039921226854102,,
,2310.0,737.0,1960.0,598.0,2019.0,2489.0,2210.0,,,,-0.154910603613414,-2.54038704373891,-0.405957105848776,,3.715458833071906,,
,2313.0,736.0,1961.0,598.0,2018.0,2485.0,2197.0,,,,-0.155125775986385,-2.54024102197287,-0.406091604843046,,3.315043460045115,,
,2313.0,737.0,1962.0,599.0,2010.0,2477.0,2207.0,,,,-0.155077232248046,-2.54029385859299,-0.405625755444075,,2.8503932340442555,,
,2312.0,736.0,1961.0,600.0,2010.0,2473.0,2202.0,,,,-0.155077057442063,-2.53995574476125,-0.405958385883162,,2.3353840954083616,,
,2311.0,738.0,1960.0,598.0,2008.0,2473.0,2195.0,,,,-0.154982379882489,-2.54015797276309,-0.405826297754096,,1.7851192672454834,,
,2314.0,738.0,1964.0,599.0,1998.0,2472.0,2194.0,,,,-0.155135845429571,-2.54059222682373,-0.405927009826724,,1.2149594383038573,,
,2315.0,738.0,1966.0,598.0,2003.0,2477.0,2227.0,,,,-0.155387675644822,-2.54099870110321,-0.405762258065476,,0.6396209585972935,,
,2315.0,738.0,1965.0,598.0,1997.0,2471.0,2218.0,,,,-0.155435934477863,-2.54089076969365,-0.40574572527027,,0.07242990305197751,,
,2315.0,739.0,1964.0,601.0,2012.0,2470.0,2212.0,,,,-0.155599750641599,-2.540775349364,-0.40524230466398,,-0.4752096307530533,,
,2315.0,735.0,1962.0,600.0,2018.0,2477.0,2219.0,,,,-0.155798442779921,-2.54125799321165,-0.40552113269172,,-0.9941077254587801,,
,2314.0,739.0,1963.0,600.0,2029.0,2474.0,2222.0,,,,-0.155750206732848,-2.54126072221897,-0.404945275080154,,-1.4773473242402726,,
,2318.0,739.0,1963.0,599.0,2014.0,2464.0,2194.0,,,,-0.155880276641256,-2.54161241541529,-0.405729942765061,,-1.9201408967167979,,
,2316.0,740.0,1965.0,601.0,2005.0,2464.0,2210.0,,,,-0.156052495827795,-2.54202022101294,-0.406430391587611,,-2.319534209953155,,
,2316.0,737.0,1962.0,600.0,2014.0,2477.0,2219.0,,,,-0.156215828459578,-2.54195299954461,-0.406967770074119,,-2.6740151998166195,,
,2318.0,739.0,1966.0,599.0,1996.0,2477.0,2219.0,,,,-0.156536824317975,-2.54236267642386,-0.407354338571922,,-2.9830864660695133,,
,2319.0,740.0,1966.0,600.0,2005.0,2465.0,2208.0,,,,-0.156788485038089,-2.54291672981786,-0.409055800588787,,-3.246853635502239,,
,2318.0,741.0,1968.0,603.0,2003.0,2461.0,2215.0,,,,-0.156775159875114,-2.54311650521294,-0.408709036992305,,-3.4656711286962945,,
,2317.0,738.0,1964.0,602.0,2004.0,2476.0,2232.0,,,,-0.156934057061599,-2.5432062918747,-0.409799183376708,,-3.6398741012408906,,
,2318.0,736.0,1964.0,601.0,2000.0,2472.0,2210.0,,,,-0.156976946879434,-2.54293989897133,-0.409212046229386,,-3.7696120986147688,,
,2318.0,738.0,1966.0,600.0,2018.0,2468.0,2223.0,,,,-0.156702804228113,-2.54259888385161,-0.409556573931902,,-3.8547871016430912,,
,2322.0,739.0,1967.0,604.0,2005.0,2472.0,2186.0,,,,-0.15682530083465,-2.54243134991782,-0.409357463261634,,-3.895086840013336,,
,2322.0,739.0,1967.0,602.0,1994.0,2472.0,2191.0,,,,-0.156556299199071,-2.54225601959451,-0.409061204445332,,-3.890094396986589,,
,2319.0,739.0,1967.0,600.0,2003.0,2475.0,2204.0,,,,-0.156475015099312,-2.54207354256304,-0.4086368034984,,-3.8394480955246344,,
,2324.0,739.0,1969.0,601.0,1993.0,2464.0,2201.0,,,,-0.156331315709836,-2.542061451402,-0.408417908451014,,-3.7430220624574657,,
,2324.0,739.0,1968.0,602.0,2002.0,2472.0,2202.0,,,,-0.156210900024563,-2.5416956860118,-0.408413515734622,,-3.601098043237692,,
,2325.0,740.0,1969.0,603.0,2003.0,2468.0,2193.0,,,,-0.15616530930201,-2.54110866562523,-0.407757715549876,,-3.4145030031592953,,
,2325.0,737.0,1969.0,603.0,1995.0,2468.0,2210.0,,,,-0.156120200750627,-2.54129004960862,-0.407887593411532,,-3.1846942942011522,,
,2325.0,740.0,1972.0,605.0,1994.0,2484.0,2205.0,,,,-0.15599091797987,-2.54111297724344,-0.408049081740391,,-2.9137834797050544,,
,2327.0,742.0,1974.0,605.0,2002.0,2475.0,2220.0,,,,-0.155943340234549,-2.54092617384992,-0.407878040591078,,-2.6044996337860535,,
,2329.0,741.0,1975.0,603.0,2015.0,2480.0,2230.0,,,,-0.156054675880521,-2.54143302774579,-0.407978912494158,,-2.260101636075286,,
,2330.0,743.0,1975.0,606.0,2020.0,2464.0,2203.0,,,,-0.155799053217753,-2.54122758189368,-0.40768105324837,,-1.8842559237402337,,
,2329.0,742.0,1978.0,605.0,2005.0,2474.0,2196.0,,,,-0.155994191961808,-2.54098175614196,-0.40806788957392,,-1.4809010431352914,,
,2332.0,741.0,1977.0,604.0,2011.0,2464.0,2213.0,,,,-0.155716688678712,-2.54106700417035,-0.407561872938285,,-1.054122768853246,,
,2331.0,743.0,1982.0,606.0,2013.0,2467.0,2195.0,,,,-0.155597788278594,-2.54046831663426,-0.408224109085683,,-0.6080629874802136,,
,2332.0,742.0,1981.0,607.0,2006.0,2470.0,2201.0,,,,-0.15566814960207,-2.54066526998023,-0.407617794484923,,-0.1468816879903225,,
,2331.0,742.0,1980.0,604.0,1987.0,2478.0,2191.0,,,,-0.155483563032155,-2.54032800910718,-0.407616135760391,,0.32521554649166595,,
,2334.0,743.0,1984.0,607.0,2007.0,2469.0,2188.0,,,,-0.155499138067697,-2.5403133596018,-0.408339234587262,,0.8038816047452904,,
,2338.0,743.0,1983.0,607.0,1996.0,2469.0,2191.0,,,,-0.155382408198359,-2.53988259988004,-0.407558153971414,,1.2844716024206948,,
,2341.0,745.0,1986.0,607.0,1998.0,2467.0,2200.0,,,,-0.155333409062635,-2.5398271936926,-0.408140873842658,,1.7618459428510391,,
,2339.0,745.0,1986.0,607.0,2017.0,2469.0,2244.0,,,,-0.15520398395377,-2.53971468842106,-0.407522986848768,,2.2301627532461414,,
,2341.0,744.0,1988.0,607.0,2012.0,2468.0,2223.0,,,,-0.155200537202486,-2.53964268264913,-0.40791442969797,,2.682697700537464,,
,2343.0,746.0,1989.0,609.0,2040.0,2471.0,2207.0,,,,-0.155159796798434,-2.53920845238363,-0.407439409641732,,3.111733236558422,,
,2345.0,748.0,1991.0,608.0,2022.0,2487.0,2199.0,,,,-0.155025263376279,-2.53912249046138,-0.407374615152209,,3.508558196291907,,
,2347.0,748.0,1993.0,611.0,2009.0,2479.0,2201.0,,,,-0.154921166351324,-2.53898646070225,-0.407160991672506,,3.8636112637561824,,
,2344.0,746.0,1992.0,606.0,2002.0,2477.0,2193.0,,,,-0.154825684187678,-2.53930631715933,-0.40752362071174,,4.166787734276361,,
,2345.0,748.0,1995.0,610.0,2006.0,2480.0,2185.0,,,,-0.154763769000656,-2.53908664788133,-0.407265965998741,,4.407909218282272,,
,2348.0,749.0,1996.0,611.0,2011.0,2474.0,2211.0,,,,-0.154777740351588,-2.53909971623964,-0.407121374079663,,4.5773327636224534,,
,2349.0,748.0,1997.0,610.0,2002.0,2473.0,2217.0,,,,-0.154788626517666,-2.53870154981513,-0.407008989160386,,4.666652322791456,,
,2349.0,749.0,1998.0,608.0,2018.0,2477.0,2194.0,,,,-0.154776788300371,-2.53862704714764,-0.407237141373411,,4.6694248583364795,,
,2350.0,748.0,1999.0,610.0,2004.0,2481.0,2205.0,,,,-0.154544448249442,-2.53832125951295,-0.407383399225346,,4.581839276712898,,
,2353.0,749.0,2002.0,611.0,2010.0,2475.0,2205.0,,,,-0.154470044020339,-2.5381092055455,-0.406143213659046,,4.403242428965744,,
,2355.0,752.0,2001.0,609.0,2005.0,2477.0,2202.0,,,,-0.154322105782072,-2.53781712009189,-0.406779003126803,,4.136445260868231,,
,2357.0,750.0,2007.0,613.0,2010.0,2478.0,2195.0,,,,-0.154276385521909,-2.53746498234767,-0.406560280678027,,3.7877543112240617,,
,2355.0,752.0,2006.0,610.0,2009.0,2486.0,2199.0,,,,-0.154311895638207,-2.5374101851907,-0.406687826209909,,3.366706731107526,,
,2357.0,753.0,2006.0,613.0,2002.0,2484.0,2203.0,,,,-0.154447407854796,-2.53787222455913,-0.406830467454239,,2.8855256883396256,,
,2362.0,752.0,2010.0,613.0,2009.0,2474.0,2188.0,,,,-0.154512462781725,-2.537198596219,-0.406193453444783,,2.358350666557228,,
,2359.0,753.0,2011.0,614.0,1997.0,2474.0,2188.0,,,,-0.154427358616971,-2.53737061110191,-0.406041624471541,,1.800327036614629,,
,2362.0,753.0,2011.0,616.0,1989.0,2470.0,2214.0,,,,-0.153970742609867,-2.53713594578632,-0.406062173125539,,1.2266562192023776,,
,2361.0,753.0,2014.0,614.0,1998.0,2468.0,2231.0,,,,-0.15407776768674,-2.53694035641075,-0.405855255812467,,0.651709224548263,,
,2363.0,756.0,2014.0,616.0,2004.0,2463.0,2197.0,,,,-0.153952381801891,-2.5372952424093,-0.405375822565095,,0.08829281899620084,,
,2366.0,757.0,2017.0,617.0,2004.0,2471.0,2215.0,,,,-0.153875627291796,-2.53756300823491,-0.405386994788798,,-0.4528677442218762,,
,2365.0,755.0,2018.0,615.0,2004.0,2467.0,2221.0,,,,-0.153849646079027,-2.53730089544965,-0.40479470318477,,-0.9633974808077385,,
,2366.0,753.0,2017.0,616.0,2004.0,2469.0,2210.0,,,,-0.153778957393468,-2.53703746268856,-0.404996332502808,,-1.437292883835568,,
,2365.0,755.0,2017.0,615.0,2011.0,2476.0,2205.0,,,,-0.153741475958212,-2.53705736243128,-0.404537282811213,,-1.8707252899606073,,
,2364.0,754.0,2015.0,618.0,2013.0,2488.0,2203.0,,,,-0.153453871610611,-2.53674850575023,-0.404478390785089,,-2.261677248732004,,
,2362.0,752.0,2014.0,614.0,2012.0,2490.0,2204.0,,,,-0.153503256447429,-2.5367742216009,-0.405240378332228,,-2.609474895246568,,
,2357.0,753.0,2004.0,613.0,2022.0,2502.0,2216.0,,,,-0.153552976514308,-2.53660640767083,-0.404798978903155,,-2.9142827208734765,,
,2355.0,749.0,2000.0,613.0,2032.0,2489.0,2186.0,,,,-0.153709916299441,-2.53649232050333,-0.404981890802253,,-3.176622853470019,,
,2352.0,749.0,1999.0,611.0,2023.0,2483.0,2200.0,,,,-0.153552856619769,-2.53669065203264,-0.404855326453871,,-3.3969704070141176,,
,2349.0,747.0,1993.0,612.0,2026.0,2492.0,2218.0,,,,-0.153518313093903,-2.53666799113556,-0.404568787536412,,-3.5754612728614275,,
,2346.0,747.0,1993.0,612.0,2020.0,2475.0,2188.0,,,,-0.153386601171769,-2.53647035329695,-0.404779729057377,,-3.711730938934096,,
,2343.0,745.0,1985.0,606.0,2013.0,2474.0,2189.0,,,,-0.153502191712199,-2.53618751847585,-0.403384058537426,,-3.8048850362066053,,
,2339.0,745.0,1982.0,608.0,1972.0,2466.0,2211.0,,,,-0.153363953355201,-2.53632960093391,-0.404151972358245,,-3.853586786032061,,
,2338.0,741.0,1980.0,612.0,1975.0,2465.0,2207.0,,,,-0.153132621946141,-2.53618963212168,-0.403877539256161,,-3.8562349899025463,,
,2336.0,742.0,1977.0,610.0,1988.0,2459.0,2203.0,,,,-0.153088590532501,-2.53572918132858,-0.403311200292113,,-3.8111991889594132,,
,2336.0,742.0,1976.0,607.0,1985.0,2457.0,2237.0,,,,-0.153221004370682,-2.53600040629115,-0.403831918530614,,-3.717076037431864,,
,2332.0,740.0,1975.0,608.0,1988.0,2461.0,2229.0,,,,-0.153019768151384,-2.53571923353061,-0.403713595738746,,-3.572932685702765,,
,2335.0,741.0,1977.0,608.0,2004.0,2475.0,2229.0,,,,-0.153016256126186,-2.53587545864023,-0.403150464658195,,-3.378508987884851,,
,2332.0,739.0,1978.0,607.0,2003.0,2476.0,2207.0,,,,-0.152819736817011,-2.53569426636058,-0.404119467288566,,-3.134360154556218,,
,2333.0,740.0,1977.0,609.0,2026.0,2486.0,2217.0,,,,-0.152927253677037,-2.53573319729702,-0.40365595095893,,-2.8419337432718934,,
,2333.0,741.0,1978.0,609.0,2043.0,2498.0,2204.0,,,,-0.15286181360461,-2.53576903303064,-0.403460979855383,,-2.503587419888286,,
,2333.0,741.0,1980.0,611.0,2052.0,2481.0,2182.0,,,,-0.152871192837834,-2.53545034155457,-0.403575238853715,,-2.12256409105888,,
2025-07-02 19:51:54,2335.0,744.0,1979.0,611.0,2054.0,2479.0,2182.0,,,2025/07/02 07:51:54 PM,-0.152729886040757,-2.53490517850648,-0.403584116055616,,-1.7029464866497122,,
,2335.0,740.0,1978.0,609.0,2055.0,2475.0,2195.0,,,,-0.152698975142678,-2.53511672612493,-0.402945943228133,,-1.2496128891124454,,
,2333.0,740.0,1976.0,608.0,2038.0,2476.0,2174.0,,,,-0.152653241982946,-2.53534623692106,-0.403524431700063,,-0.7682099268648285,,
,2335.0,741.0,1979.0,609.0,2027.0,2464.0,2196.0,,,,-0.152718294954175,-2.53517675087405,-0.40354244504231,,-0.2651490386973787,,
,2338.0,742.0,1981.0,611.0,2031.0,2463.0,2182.0,,,,-0.152623838240904,-2.53461026697463,-0.403761116824711,,0.2523772661405313,,
,2339.0,741.0,1980.0,611.0,2024.0,2464.0,2184.0,,,,-0.152599490058591,-2.53489805681114,-0.403241288761576,,0.7763729045441076,,
,2338.0,741.0,1982.0,611.0,2024.0,2480.0,2201.0,,,,-0.152538370342111,-2.53501041364648,-0.403786313683608,,1.298030450108951,,
,2337.0,738.0,1983.0,612.0,1998.0,2463.0,2210.0,,,,-0.15254308197369,-2.53496519452299,-0.403111033581978,,1.8077630805260871,,
,2338.0,741.0,1984.0,612.0,1984.0,2462.0,2195.0,,,,-0.152315950304731,-2.53510363053383,-0.403466915137146,,2.2953009748863735,,
,2340.0,741.0,1982.0,613.0,2007.0,2461.0,2196.0,,,,-0.152415193883142,-2.5350332935722,-0.403132827964499,,2.749872214611749,,
,2338.0,743.0,1983.0,610.0,2017.0,2470.0,2192.0,,,,-0.152310656094764,-2.53498198970854,-0.403132806655713,,3.1604796979016543,,
,2339.0,740.0,1983.0,610.0,2017.0,2469.0,2212.0,,,,-0.152494699699877,-2.53470981431755,-0.40251847956899,,3.5162741821000902,,
,2340.0,741.0,1987.0,611.0,2002.0,2467.0,2194.0,,,,-0.152245930589944,-2.53533757149229,-0.402508178206292,,3.807010513648547,,
,2341.0,743.0,1987.0,612.0,2011.0,2463.0,2188.0,,,,-0.152689230333575,-2.53544491879834,-0.40257286235342,,4.023560779072404,,
,2342.0,742.0,1986.0,610.0,2010.0,2456.0,2200.0,,,,-0.152667261903991,-2.53535626622238,-0.401998309722877,,4.158446194541777,,
,2340.0,742.0,1984.0,611.0,2015.0,2467.0,2199.0,,,,-0.152719560651085,-2.53598963319107,-0.401753468758661,,4.206340840628481,,
,2340.0,741.0,1986.0,612.0,2029.0,2467.0,2219.0,,,,-0.153092227549891,-2.53570441503056,-0.401980623397536,,4.164496334441495,,
,2344.0,745.0,1987.0,612.0,2010.0,2475.0,2229.0,,,,-0.15322679257468,-2.53633502779021,-0.402279239447326,,4.033038245315028,,
,2343.0,742.0,1986.0,613.0,2017.0,2473.0,2224.0,,,,-0.153437255710532,-2.53630998090558,-0.403308619217983,,3.8150932563852358,,
,2343.0,743.0,1988.0,614.0,2016.0,2472.0,2212.0,,,,-0.153672593272883,-2.53673603658555,-0.403874944851229,,3.516721032747171,,
,2342.0,740.0,1986.0,610.0,2013.0,2468.0,2212.0,,,,-0.153764580348936,-2.5374355017877,-0.404331060745446,,3.1466454197616787,,
,2342.0,742.0,1986.0,612.0,2006.0,2458.0,2211.0,,,,-0.153892544498832,-2.53775861432865,-0.405534949662685,,2.715802973491615,,
,2341.0,743.0,1986.0,612.0,2003.0,2463.0,2213.0,,,,-0.154091291137388,-2.53785600818349,-0.405752885883153,,2.236748599504382,,
,2343.0,744.0,1989.0,613.0,2000.0,2470.0,2222.0,,,,-0.154210634249774,-2.53839490224001,-0.40579259731901,,1.7229740818640291,,
,2343.0,744.0,1988.0,613.0,1997.0,2466.0,2196.0,,,,-0.154157868365771,-2.53793238795594,-0.406720297880506,,1.1882028835254759,,
,2342.0,744.0,1988.0,613.0,1996.0,2469.0,2205.0,,,,-0.154114947025768,-2.53788707079147,-0.406608289668709,,0.645723264671246,,
,2346.0,743.0,1989.0,613.0,1999.0,2456.0,2182.0,,,,-0.153948841703389,-2.53815135763266,-0.406118527484101,,0.10781285460007922,,
,2343.0,744.0,1989.0,611.0,2014.0,2465.0,2189.0,,,,-0.153904919850377,-2.53754488229617,-0.405617755825729,,-0.41470607675203663,,
,2347.0,745.0,1992.0,613.0,2031.0,2473.0,2195.0,,,,-0.153724900134341,-2.5372406013846,-0.405366138684365,,-0.9127572575963686,,
,2346.0,744.0,1992.0,613.0,2018.0,2474.0,2189.0,,,,-0.153595277466055,-2.53729856839243,-0.405353381703594,,-1.379138953703999,,
,2346.0,746.0,1992.0,612.0,2008.0,2465.0,2179.0,,,,-0.153642633055499,-2.53723085018654,-0.405361722298208,,-1.8084961751832809,,
,2347.0,747.0,1994.0,614.0,2002.0,2474.0,2180.0,,,,-0.153362738721107,-2.53678686162,-0.404910049974105,,-2.1971544551058315,,
,2350.0,748.0,1996.0,615.0,2006.0,2471.0,2182.0,,,,-0.153503190489895,-2.53678314926693,-0.404921762655496,,-2.5428436173681708,,
,2349.0,745.0,1997.0,615.0,2021.0,2482.0,2209.0,,,,-0.153520489709701,-2.53717214244117,-0.404643372729293,,-2.844348229474284,,
,2348.0,747.0,1998.0,614.0,2018.0,2468.0,2210.0,,,,-0.153479383236111,-2.53698692478007,-0.405077678586298,,-3.1011265518941866,,
,2352.0,746.0,1997.0,616.0,2033.0,2469.0,2209.0,,,,-0.153422440607263,-2.53707259208878,-0.405813870336818,,-3.3129410705516085,,
,2353.0,746.0,2000.0,616.0,2031.0,2470.0,2211.0,,,,-0.153445214724513,-2.53726241626626,-0.40565654947364,,-3.4795408555294807,,
,2355.0,748.0,2002.0,616.0,2011.0,2475.0,2180.0,,,,-0.153455489250704,-2.53719283228539,-0.405251398003666,,-3.6004290900467564,,
,2354.0,746.0,2002.0,616.0,2032.0,2472.0,2178.0,,,,-0.153569616090855,-2.53647391638464,-0.405368651243505,,-3.674738624377595,,
,2356.0,749.0,2004.0,618.0,2039.0,2480.0,2190.0,,,,-0.15349700134715,-2.53702220718731,-0.405503364886189,,-3.701225301027752,,
,2357.0,749.0,2007.0,615.0,2040.0,2472.0,2194.0,,,,-0.153528225163269,-2.53692124365831,-0.404982567052004,,-3.678374491620498,,
,2356.0,748.0,2007.0,618.0,2039.0,2475.0,2185.0,,,,-0.153377023576184,-2.53647552288367,-0.405512130768056,,-3.6046024201820304,,
,2359.0,749.0,2008.0,616.0,2031.0,2481.0,2177.0,,,,-0.153438899962269,-2.5369040394036,-0.405825251203389,,-3.4785220133572174,,
,2360.0,749.0,2011.0,617.0,2010.0,2479.0,2167.0,,,,-0.153835439653606,-2.53660019053718,-0.40520445077108,,-3.2992346889042454,,
,2362.0,752.0,2010.0,618.0,2044.0,2477.0,2168.0,,,,-0.153738476092337,-2.53633601370468,-0.405323547980209,,-3.0666061489774963,,
,2365.0,751.0,2014.0,619.0,2060.0,2480.0,2190.0,,,,-0.153447830263187,-2.53642595646991,-0.405525911673536,,-2.781487254038545,,
,2362.0,752.0,2013.0,621.0,2052.0,2489.0,2203.0,,,,-0.15326823189442,-2.53657032045666,-0.405459462350721,,-2.445850985534085,,
,2364.0,751.0,2014.0,617.0,2017.0,2474.0,2191.0,,,,-0.153285069126867,-2.53665003187841,-0.405311828676406,,-2.0628322962754884,,
,2369.0,753.0,2019.0,619.0,2036.0,2475.0,2187.0,,,,-0.153347385465473,-2.53642659084166,-0.404432756952552,,-1.6366763644577962,,
,2367.0,755.0,2019.0,620.0,2018.0,2477.0,2195.0,,,,-0.153256036312399,-2.53642260129461,-0.404734978201919,,-1.1726182089948907,,
,2370.0,754.0,2020.0,619.0,2023.0,2483.0,2208.0,,,,-0.153231612433192,-2.53682534334747,-0.405356153255071,,-0.676728533999664,,
,2369.0,754.0,2020.0,620.0,2044.0,2484.0,2197.0,,,,-0.153113727758749,-2.5367655011312,-0.405194124506707,,-0.15576414464329572,,
,2369.0,752.0,2022.0,620.0,2018.0,2470.0,2190.0,,,,-0.153279248984325,-2.5366981043722,-0.405136256247773,,0.38294427912865936,,
,2371.0,755.0,2025.0,624.0,2065.0,2490.0,2190.0,,,,-0.153205748196201,-2.53665174853586,-0.404694995677986,,0.9315471602058727,,
,2373.0,755.0,2024.0,620.0,2064.0,2491.0,2181.0,,,,-0.153324924940685,-2.53698139831153,-0.405342259880981,,1.4816710253763006,,
,2376.0,756.0,2027.0,622.0,2049.0,2497.0,2187.0,,,,-0.153043875267524,-2.53707926937946,-0.405069487714467,,2.0243688942150224,,
,2375.0,754.0,2027.0,622.0,2032.0,2481.0,2180.0,,,,-0.153149426583441,-2.53727611963434,-0.404634995785839,,2.5500575156393244,,
,2376.0,757.0,2030.0,622.0,2033.0,2492.0,2183.0,,,,-0.153117515388049,-2.53698053059813,-0.404859881340577,,3.0484844749208397,,
,2377.0,759.0,2032.0,624.0,2038.0,2480.0,2197.0,,,,-0.153035333861033,-2.53720410888063,-0.404525041974273,,3.5087727791102816,,
,2377.0,760.0,2033.0,625.0,2037.0,2484.0,2196.0,,,,-0.152893727842429,-2.53704197733114,-0.40478596688456,,3.919586100651408,,
,2377.0,759.0,2034.0,623.0,2034.0,2480.0,2199.0,,,,-0.152959166756608,-2.53692468109096,-0.404559946711579,,4.269443846693602,,
,2380.0,759.0,2035.0,622.0,2030.0,2476.0,2203.0,,,,-0.152960445730397,-2.53696294962863,-0.404427065983378,,4.547193193493755,,
,2384.0,761.0,2037.0,627.0,2039.0,2489.0,2218.0,,,,-0.153008365484032,-2.53723606098357,-0.404724201889796,,4.7426184770288256,,
,2382.0,762.0,2041.0,626.0,2035.0,2486.0,2206.0,,,,-0.152839706523804,-2.53716580919823,-0.403626967862943,,4.847141046828212,,
,2382.0,759.0,2041.0,625.0,2031.0,2466.0,2202.0,,,,-0.153059279163748,-2.53732597190366,-0.404157786935463,,4.854539365095334,,
,2386.0,759.0,2040.0,623.0,2028.0,2478.0,2187.0,,,,-0.152931434024162,-2.53734637269808,-0.404065128014552,,4.761604058738342,,
,2385.0,760.0,2045.0,627.0,2031.0,2474.0,2193.0,,,,-0.153199691154504,-2.53743595250748,-0.403995023642019,,4.568639173395186,,
,2387.0,760.0,2045.0,627.0,2038.0,2476.0,2196.0,,,,-0.153219619376463,-2.53770927149275,-0.403742562234266,,4.27973080297363,,
,2390.0,763.0,2046.0,627.0,2040.0,2476.0,2190.0,,,,-0.153031845923654,-2.53743750736682,-0.404184248784228,,3.902727398879778,,
,2389.0,762.0,2048.0,627.0,2041.0,2475.0,2210.0,,,,-0.15307293380891,-2.53742069169154,-0.404101338298249,,3.448910106089945,,
,2388.0,764.0,2051.0,626.0,2037.0,2476.0,2198.0,,,,-0.152976281140803,-2.5376938144562,-0.40345401307897,,2.9323718117900532,,
,2392.0,766.0,2049.0,629.0,2038.0,2477.0,2198.0,,,,-0.152975580559839,-2.53807430865116,-0.403184126921121,,2.369163385608346,,
,2392.0,767.0,2052.0,628.0,2044.0,2475.0,2200.0,,,,-0.153052889922689,-2.53787679226831,-0.403850978577034,,1.7762969371397002,,
,2390.0,765.0,2048.0,626.0,2051.0,2496.0,2200.0,,,,-0.152969382446188,-2.53780631223587,-0.402782361712951,,1.1707123375344695,,
,2387.0,763.0,2044.0,625.0,2059.0,2497.0,2185.0,,,,-0.15310859807735,-2.53780862129298,-0.403162686399995,,0.5683123115965372,,
,2387.0,763.0,2043.0,625.0,2056.0,2504.0,2204.0,,,,-0.153112428428513,-2.53789808716966,-0.403178275248407,,-0.016844562552173238,,
,2383.0,762.0,2040.0,623.0,2057.0,2489.0,2179.0,,,,-0.153140402892756,-2.53839369844851,-0.402753146136998,,-0.5731293094412007,,
,2379.0,761.0,2035.0,625.0,2051.0,2477.0,2181.0,,,,-0.153453493600285,-2.53804429823509,-0.403424944029801,,-1.0916726501509124,,
,2376.0,758.0,2029.0,623.0,2053.0,2480.0,2185.0,,,,-0.153298420033905,-2.53836216501452,-0.403032836130274,,-1.566435483595003,,
,2372.0,758.0,2027.0,621.0,2025.0,2470.0,2172.0,,,,-0.153107812279335,-2.53828819227548,-0.402244835380014,,-1.9940418174624013,,
,2365.0,758.0,2023.0,622.0,2027.0,2465.0,2166.0,,,,-0.153315687595056,-2.53844324140616,-0.402502061181424,,-2.3734171808450877,,
,2366.0,755.0,2019.0,621.0,2017.0,2463.0,2182.0,,,,-0.153315647142681,-2.53887259563567,-0.402505719927532,,-2.7052897542158743,,
,2363.0,754.0,2017.0,620.0,2014.0,2464.0,2191.0,,,,-0.153116152764244,-2.53915094850132,-0.402494270732337,,-2.991618227622874,,
,2361.0,752.0,2016.0,618.0,2003.0,2463.0,2201.0,,,,-0.153169321764787,-2.53878469412435,-0.402584049788268,,-3.2350099379065327,,
,2361.0,755.0,2017.0,621.0,2010.0,2472.0,2186.0,,,,-0.153160524000626,-2.53863173903306,-0.402318546376573,,-3.4381860618202134,,
,2358.0,755.0,2013.0,620.0,2018.0,2476.0,2194.0,,,,-0.153128496456544,-2.53908667348063,-0.402222488170711,,-3.6035390341237044,,
,2360.0,754.0,2013.0,620.0,2033.0,2472.0,2194.0,,,,-0.153454039006524,-2.53855176791232,-0.402253179799067,,-3.7328128722395966,,
,2358.0,750.0,2011.0,618.0,2043.0,2478.0,2197.0,,,,-0.153416775217312,-2.53889642036025,-0.402152104716492,,-3.8269218388827215,,
,2359.0,751.0,2012.0,619.0,2042.0,2488.0,2196.0,,,,-0.153213832114435,-2.53899905362004,-0.402272727866596,,-3.885908474854113,,
,2358.0,754.0,2015.0,623.0,2061.0,2491.0,2196.0,,,,-0.153184629350583,-2.53905662601335,-0.401873963925872,,-3.909029224375977,,
,2360.0,752.0,2020.0,623.0,2062.0,2485.0,2185.0,,,,-0.15349273153183,-2.53905764812439,-0.402069990840013,,-3.894944962603561,,
,2361.0,752.0,2015.0,620.0,2084.0,2474.0,2192.0,,,,-0.153361324620706,-2.53868108897164,-0.402038023938234,,-3.8419852997318436,,
,2360.0,750.0,2015.0,617.0,2076.0,2480.0,2192.0,,,,-0.153294188035817,-2.53901190019529,-0.402803566847334,,-3.7484505254618683,,
,2362.0,753.0,2018.0,621.0,2074.0,2472.0,2180.0,,,,-0.153265665791443,-2.53910574234406,-0.402188655084494,,-3.6129142432051635,,
,2361.0,753.0,2020.0,623.0,2078.0,2490.0,2177.0,,,,-0.153312973552861,-2.53893875450497,-0.401863381956412,,-3.434493213705863,,
,2363.0,754.0,2017.0,622.0,2072.0,2498.0,2183.0,,,,-0.153409073677058,-2.53951164382246,-0.402355951904215,,-3.2130580450528847,,
,2363.0,755.0,2018.0,620.0,2073.0,2487.0,2187.0,,,,-0.153551674473945,-2.53938675120768,-0.403236093078777,,-2.9493679860703037,,
,2364.0,755.0,2021.0,622.0,2068.0,2481.0,2189.0,,,,-0.153465835714227,-2.53894122392349,-0.402942702804184,,-2.645123723692532,,
,2367.0,756.0,2021.0,624.0,2034.0,2467.0,2182.0,,,,-0.153511381596826,-2.53950677801421,-0.402700984147282,,-2.302942157757906,,
,2366.0,756.0,2025.0,622.0,2025.0,2460.0,2188.0,,,,-0.153462599598691,-2.53924398478542,-0.402519963631418,,-1.9262653825111025,,
,2365.0,756.0,2024.0,623.0,2040.0,2467.0,2198.0,,,,-0.153420309496126,-2.53939857734056,-0.402873787336938,,-1.5192220982217524,,
,2367.0,756.0,2022.0,623.0,2024.0,2467.0,2188.0,,,,-0.153632338534495,-2.53993040096361,-0.403066024641373,,-1.0864636531589624,,
,2368.0,757.0,2023.0,621.0,2031.0,2464.0,2175.0,,,,-0.153877594854343,-2.5400260530956,-0.402522436332862,,-0.6329990680377054,,
,2369.0,758.0,2024.0,623.0,2012.0,2461.0,2179.0,,,,-0.15366177692816,-2.54031449759462,-0.402734176902577,,-0.1640532635118944,,
,2367.0,755.0,2025.0,623.0,2004.0,2461.0,2180.0,,,,-0.154044912581649,-2.54052429889145,-0.402798748094805,,0.31503054712579454,,
,2368.0,755.0,2025.0,620.0,2005.0,2468.0,2182.0,,,,-0.154035855962967,-2.54057311620972,-0.403292308232824,,0.7988301551359793,,
,2368.0,757.0,2026.0,622.0,2015.0,2465.0,2205.0,,,,-0.154034604454005,-2.54086779284101,-0.402358349873482,,1.2818211347759714,,
,2368.0,758.0,2027.0,625.0,2030.0,2465.0,2193.0,,,,-0.154250557584659,-2.54134263713301,-0.403042025643905,,1.7582987227369835,,
,2369.0,758.0,2027.0,623.0,2027.0,2464.0,2189.0,,,,-0.154553737848454,-2.54154781890017,-0.403153629901932,,2.2222643638632054,,
,2369.0,757.0,2027.0,623.0,2026.0,2462.0,2218.0,,,,-0.154837741242596,-2.5421822876454,-0.403642708643916,,2.667306447681746,,
,2369.0,758.0,2029.0,625.0,2026.0,2471.0,2190.0,,,,-0.154995960095611,-2.54243272395954,-0.404196964036181,,3.0865106595383236,,
,2369.0,760.0,2028.0,624.0,2040.0,2469.0,2187.0,,,,-0.155267160752805,-2.54277260483507,-0.405330237176744,,3.472435711773208,,
,2368.0,759.0,2026.0,624.0,2020.0,2462.0,2180.0,,,,-0.15550917663242,-2.54338076512495,-0.406215268550456,,3.817184556180301,,
,2370.0,756.0,2026.0,622.0,2026.0,2461.0,2187.0,,,,-0.155488493177992,-2.54360226879567,-0.405995542813126,,4.112590168676839,,
,2368.0,758.0,2030.0,623.0,2036.0,2465.0,2193.0,,,,-0.155795564936945,-2.54321609792391,-0.406136003713682,,4.350520043211345,,
,2368.0,756.0,2026.0,622.0,2038.0,2461.0,2204.0,,,,-0.155750291110099,-2.54347071219046,-0.406345475754454,,4.523286420780247,,
,2370.0,760.0,2027.0,625.0,2015.0,2471.0,2201.0,,,,-0.1557183284566,-2.54385076401329,-0.406342539717758,,4.62413214293568,,
,2371.0,758.0,2031.0,624.0,2024.0,2472.0,2190.0,,,,-0.155751291952766,-2.54352030417354,-0.405952497160117,,4.647747311005258,,
,2369.0,759.0,2029.0,623.0,2049.0,2469.0,2167.0,,,,-0.155577379504433,-2.54330561214089,-0.406427074158423,,4.590762029677979,,
,2371.0,757.0,2030.0,623.0,2040.0,2471.0,2195.0,,,,-0.155491461712172,-2.54331528178288,-0.405693591432829,,4.452157203137123,,
