TimeLabel,MEAS1_PPG1,MEAS1_PPG2,MEAS1_PPG3,MEAS1_PPG4,ACCX,ACCY,ACCZ,HR_timestamp,HR_value,radar_timestamp,phase_rx0,phase_rx1,phase_rx2,timestep,n_process,original_rate,calculated_rate
2025-07-17 15:57:48,5591.0,1207.0,5185.0,1798.0,2769.0,2967.0,239.0,2025-07-17 15:57:48,89.0,2025/07/17 03:57:48 PM,-0.0877162151317176,-2.55609509975041,-0.371884784251521,2025/07/17 03:57:48 PM,-4.7613398567024845,11.194029808044434,11.48562007693717
,5591.0,1207.0,5188.0,1801.0,2760.0,2962.0,228.0,2025-07-17 15:57:49,89.0,,-0.0877133150175838,-2.55600714122043,-0.372530593608563,2025/07/17 03:57:58 PM,-4.878905603969898,11.93317413330078,11.576994434137292
,5595.0,1208.0,5193.0,1801.0,2740.0,2967.0,222.0,2025-07-17 15:57:50,89.0,,-0.0878754564284579,-2.55621727201467,-0.372111297426998,2025/07/17 03:58:08 PM,-4.984937822509503,11.295180320739746,10.283454185893206
,5597.0,1210.0,5194.0,1802.0,2737.0,2973.0,220.0,2025-07-17 15:57:51,90.0,,-0.0877549925605285,-2.55605151563906,-0.373004660283369,2025/07/17 03:58:18 PM,-5.079775915974513,11.28668212890625,9.838709677419352
,5596.0,1208.0,5198.0,1802.0,2738.0,2972.0,201.0,2025-07-17 15:57:52,91.0,,-0.0877355030263935,-2.55612154849992,-0.372310904328843,2025/07/17 03:58:28 PM,-5.163580494074035,10.628875732421877,10.714285714285726
,5600.0,1207.0,5202.0,1805.0,2741.0,2954.0,213.0,2025-07-17 15:57:53,93.0,,-0.0877532481920175,-2.55617224298376,-0.371539775428966,2025/07/17 03:58:38 PM,-5.236368866356696,10.563380241394045,10.275761973875184
,5602.0,1211.0,5202.0,1806.0,2752.0,2958.0,247.0,2025-07-17 15:57:54,93.0,,-0.0875869234983958,-2.55599010586949,-0.372604445225848,2025/07/17 03:58:48 PM,-5.298054419295289,10.281014442443848,10.649493442236697
,5601.0,1211.0,5206.0,1808.0,2741.0,2974.0,252.0,2025-07-17 15:57:55,95.0,,-0.0877636117417549,-2.55594175650345,-0.372691370323544,2025/07/17 03:58:58 PM,-5.348481572941594,10.462075233459473,10.526315789473704
,5604.0,1212.0,5209.0,1808.0,2735.0,2977.0,249.0,2025-07-17 15:57:56,96.0,,-0.0876524080219381,-2.55565492304942,-0.372608937562953,2025/07/17 03:59:08 PM,-5.387448241988834,10.771992683410645,11.010101010101003
,5605.0,1211.0,5212.0,1810.0,2726.0,2966.0,243.0,2025-07-17 15:57:57,96.0,,-0.0876952176381838,-2.55614841918143,-0.371682944449475,2025/07/17 03:59:18 PM,-5.414710381294807,10.760401725769045,11.239495798319323
,5608.0,1214.0,5216.0,1811.0,2718.0,2991.0,244.0,2025-07-17 15:57:58,96.0,,-0.087743204295776,-2.55563279156948,-0.3732945055806,2025/07/17 03:59:28 PM,-5.42996778937832,11.029411315917969,10.692222398225898
,5610.0,1214.0,5219.0,1815.0,2719.0,2979.0,249.0,2025-07-17 15:57:59,97.0,,-0.0876596073535549,-2.55564646716344,-0.373635267536085,2025/07/17 03:59:38 PM,-5.432835471273788,10.96491241455078,11.192087454450803
,5614.0,1216.0,5224.0,1812.0,2710.0,2984.0,255.0,2025-07-17 15:58:00,97.0,,-0.0878151645179706,-2.55568611992862,-0.373632049516181,2025/07/17 03:59:48 PM,-5.422808985051598,11.485451698303224,9.7560975609756
,5611.0,1216.0,5224.0,1813.0,2725.0,2998.0,260.0,2025-07-17 15:58:01,97.0,,-0.0875892258971626,-2.55547496873971,-0.373099761250827,2025/07/17 03:59:58 PM,-5.399234350186164,10.830325126647947,9.449404761904749
,5615.0,1216.0,5227.0,1814.0,2742.0,2984.0,258.0,2025-07-17 15:58:02,97.0,,-0.0875826821991032,-2.55565733816798,-0.372901308221729,2025/07/17 04:00:08 PM,-5.361293028914244,10.141987800598145,9.914320685434536
,5618.0,1216.0,5229.0,1817.0,2739.0,2963.0,254.0,2025-07-17 15:58:03,96.0,,-0.0876113342751591,-2.55570509856344,-0.372463154941534,2025/07/17 04:00:18 PM,-5.308010432174667,9.828009605407715,9.6
,5619.0,1218.0,5235.0,1820.0,2734.0,2950.0,256.0,2025-07-17 15:58:04,96.0,,-0.0875055453637025,-2.55560474322287,-0.372466118886727,2025/07/17 04:00:28 PM,-5.238292823213385,9.740259170532225,10.257159555815297
,5624.0,1220.0,5239.0,1821.0,2733.0,2962.0,251.0,2025-07-17 15:58:05,96.0,,-0.0875774795623897,-2.55571720729291,-0.372937623938222,2025/07/17 04:00:38 PM,-5.1509929448525895,10.026738166809082,10.08474576271186
,5622.0,1220.0,5242.0,1820.0,2751.0,2970.0,240.0,2025-07-17 15:58:06,96.0,,-0.0875753194053288,-2.55571832840755,-0.372468646793217,,-5.044999692228999,,
,5625.0,1220.0,5246.0,1824.0,2748.0,2982.0,237.0,2025-07-17 15:58:07,97.0,,-0.0876450314131651,-2.55580125358223,-0.372293091238262,,-4.91934223046532,,
,5628.0,1222.0,5250.0,1822.0,2736.0,2983.0,220.0,2025-07-17 15:58:08,97.0,,-0.0876299061189097,-2.55570361173078,-0.372416804714593,,-4.773294954246954,,
,5632.0,1223.0,5254.0,1826.0,2742.0,2983.0,215.0,2025-07-17 15:58:09,96.0,,-0.0878196236903734,-2.55601825466453,-0.373764730304315,,-4.6064678318508046,,
,5630.0,1222.0,5253.0,1827.0,2765.0,2974.0,217.0,2025-07-17 15:58:10,95.0,,-0.088019158857075,-2.55612887672874,-0.373801067869563,,-4.418868066189457,,
,5632.0,1225.0,5260.0,1829.0,2737.0,2974.0,229.0,2025-07-17 15:58:11,94.0,,-0.0880320500991131,-2.55611206823733,-0.372686192438924,,-4.210923741313436,,
,5637.0,1226.0,5263.0,1832.0,2756.0,2958.0,245.0,2025-07-17 15:58:12,93.0,,-0.0880695777864949,-2.55612236363591,-0.374732801092441,,-3.9834669952571358,,
,5641.0,1225.0,5267.0,1835.0,2765.0,2940.0,245.0,2025-07-17 15:58:13,92.0,,-0.0880710519826466,-2.55632836081288,-0.37584285882135,,-3.7376813913280427,,
,5639.0,1223.0,5268.0,1833.0,2752.0,2969.0,250.0,2025-07-17 15:58:14,91.0,,-0.0881630493164469,-2.55694253834029,-0.373827817776355,,-3.4750239664797293,,
,5642.0,1225.0,5273.0,1833.0,2748.0,2973.0,245.0,2025-07-17 15:58:15,90.0,,-0.0882759906169376,-2.5570951374474,-0.374851137905769,,-3.197136047005348,,
,5647.0,1227.0,5277.0,1835.0,2751.0,2959.0,253.0,2025-07-17 15:58:16,90.0,,-0.0882981833169566,-2.55725352056938,-0.37535378204707,,-2.9057579737682198,,
,5647.0,1229.0,5281.0,1839.0,2748.0,2968.0,235.0,2025-07-17 15:58:17,91.0,,-0.0883153642676507,-2.55748460587297,-0.375050665425065,,-2.6026612179669475,,
,5647.0,1229.0,5283.0,1842.0,2764.0,2962.0,232.0,2025-07-17 15:58:18,91.0,,-0.0885059259136098,-2.55762945985609,-0.376387191817934,,-2.2896070353849947,,
,5651.0,1229.0,5287.0,1840.0,2758.0,2989.0,233.0,2025-07-17 15:58:19,92.0,,-0.0884165395830808,-2.55786292061928,-0.377591495667604,,-1.9683342770183698,,
,5651.0,1228.0,5287.0,1842.0,2753.0,2998.0,257.0,2025-07-17 15:58:20,93.0,,-0.0885046817704325,-2.55809869340325,-0.376989281441792,,-1.6405714524845685,,
,5651.0,1228.0,5286.0,1841.0,2752.0,2979.0,230.0,2025-07-17 15:58:21,94.0,,-0.0887481519103564,-2.55806439381772,-0.376504673350707,,-1.308061599283049,,
,5649.0,1229.0,5286.0,1839.0,2745.0,2977.0,214.0,2025-07-17 15:58:22,95.0,,-0.0885769205496457,-2.55806063691491,-0.377242490696579,,-0.9725851277454598,,
,5645.0,1226.0,5279.0,1835.0,2744.0,2971.0,228.0,2025-07-17 15:58:23,95.0,,-0.0885428295224184,-2.55841095669804,-0.377209997262934,,-0.6359669165712474,,
,5647.0,1227.0,5279.0,1836.0,2740.0,2964.0,230.0,2025-07-17 15:58:24,95.0,,-0.0884738873673658,-2.55820530820243,-0.376188667579454,,-0.300059108676154,,
,5642.0,1224.0,5277.0,1832.0,2743.0,2952.0,239.0,2025-07-17 15:58:25,95.0,,-0.0886362526868233,-2.55795164946,-0.376823016269277,,0.03330171465607811,,
,5638.0,1223.0,5271.0,1826.0,2734.0,2965.0,249.0,2025-07-17 15:58:26,94.0,,-0.08857122787908,-2.55811534980701,-0.376091506779272,,0.36235742523500625,,
,5630.0,1220.0,5266.0,1821.0,2752.0,2992.0,251.0,2025-07-17 15:58:27,94.0,,-0.0883554336511776,-2.55809161099484,-0.37630344831533,,0.6855008333665156,,
,5626.0,1219.0,5263.0,1818.0,2742.0,2974.0,260.0,2025-07-17 15:58:28,94.0,,-0.0887344228035609,-2.55833051389902,-0.376540846300847,,1.001344930683977,,
,5624.0,1217.0,5258.0,1814.0,2746.0,2970.0,256.0,2025-07-17 15:58:29,94.0,,-0.0884743511327495,-2.55806521801156,-0.376421529600953,,1.3087762400430514,,
,5619.0,1216.0,5255.0,1812.0,2743.0,2964.0,244.0,2025-07-17 15:58:30,94.0,,-0.0886668937674401,-2.55832342577616,-0.376390609304351,,1.6069821371116353,,
,5616.0,1214.0,5252.0,1808.0,2757.0,2943.0,258.0,2025-07-17 15:58:31,93.0,,-0.0886003666374622,-2.55857608099105,-0.376105264769263,,1.8954464988570778,,
,5609.0,1214.0,5247.0,1805.0,2728.0,2944.0,261.0,2025-07-17 15:58:32,93.0,,-0.0887459888689921,-2.55840808108741,-0.375948086145606,,2.1739139918966655,,
,5608.0,1215.0,5247.0,1803.0,2730.0,2980.0,248.0,2025-07-17 15:58:33,93.0,,-0.0885521747889345,-2.55842113806238,-0.374999330771853,,2.442329914752016,,
,5607.0,1215.0,5247.0,1801.0,2749.0,2978.0,240.0,2025-07-17 15:58:34,92.0,,-0.0886171331263827,-2.55834756635624,-0.376016604941046,,2.7007683439889316,,
,5603.0,1211.0,5246.0,1802.0,2749.0,2974.0,233.0,2025-07-17 15:58:35,92.0,,-0.0886582968783614,-2.55843843023901,-0.376654100489527,,2.949364551174234,,
,5603.0,1213.0,5244.0,1799.0,2758.0,2983.0,240.0,2025-07-17 15:58:36,91.0,,-0.0886693995944319,-2.55830165646175,-0.377223597667003,,3.1882668851414038,,
,5600.0,1214.0,5246.0,1798.0,2752.0,2990.0,223.0,2025-07-17 15:58:37,92.0,,-0.0887643298434194,-2.55835310212855,-0.377022675300112,,3.4176186719355357,,
,5600.0,1213.0,5247.0,1800.0,2752.0,2988.0,230.0,2025-07-17 15:58:38,92.0,,-0.0886382706894386,-2.5583054326531,-0.376046196175519,,3.6375737389005938,,
,5602.0,1212.0,5249.0,1801.0,2751.0,2989.0,226.0,2025-07-17 15:58:39,92.0,,-0.0886494296081878,-2.55843482169016,-0.375467872211496,,3.848341862670289,,
,5599.0,1212.0,5251.0,1800.0,2742.0,2977.0,224.0,2025-07-17 15:58:40,93.0,,-0.0888153924964732,-2.55834841347084,-0.37731467146218,,4.050254115371206,,
,5600.0,1214.0,5254.0,1798.0,2739.0,2987.0,247.0,2025-07-17 15:58:41,92.0,,-0.0887328166198538,-2.5583017941373,-0.376642535445812,,4.243833329370875,,
,5600.0,1213.0,5256.0,1800.0,2740.0,2979.0,233.0,2025-07-17 15:58:42,92.0,,-0.0888396405492793,-2.55848628193711,-0.377162173465929,,4.429851968824178,,
,5602.0,1214.0,5258.0,1801.0,2740.0,2989.0,207.0,2025-07-17 15:58:43,92.0,,-0.0888912732169504,-2.5586819315182,-0.376663940513086,,4.609358917850465,,
,5603.0,1215.0,5260.0,1802.0,2741.0,2992.0,190.0,2025-07-17 15:58:44,92.0,,-0.0889981779460771,-2.55868589515275,-0.377501618841595,,4.783658674105891,,
,5604.0,1214.0,5262.0,1803.0,2725.0,3002.0,222.0,2025-07-17 15:58:45,92.0,,-0.089119078995633,-2.55864598345807,-0.377846874780947,,4.954231853554442,,
,5605.0,1215.0,5268.0,1805.0,2734.0,3000.0,244.0,2025-07-17 15:58:46,92.0,,-0.0890363548832773,-2.55889924389842,-0.37839858180087,,5.1225947928559386,,
,5605.0,1216.0,5270.0,1804.0,2749.0,2983.0,242.0,2025-07-17 15:58:47,92.0,,-0.0891367080883906,-2.55885833495201,-0.377300763936531,,5.2901069154046825,,
,5606.0,1215.0,5269.0,1807.0,2733.0,2980.0,247.0,2025-07-17 15:58:48,92.0,,-0.0891282389301429,-2.55898557226271,-0.377233372701811,,5.457744534694112,,
,5610.0,1218.0,5272.0,1808.0,2743.0,2987.0,234.0,2025-07-17 15:58:49,92.0,,-0.0891766821223249,-2.55892710462649,-0.378086738621066,,5.625866007462095,,
,5610.0,1216.0,5275.0,1808.0,2732.0,2972.0,252.0,2025-07-17 15:58:50,92.0,,-0.0892534832624242,-2.55905719169083,-0.377827441248028,,5.793994307908996,,
,5612.0,1218.0,5279.0,1813.0,2725.0,2980.0,266.0,2025-07-17 15:58:51,92.0,,-0.0892977364998015,-2.55929374522756,-0.37762068155221,,5.960639886295874,,
,5614.0,1219.0,5282.0,1811.0,2720.0,2980.0,282.0,2025-07-17 15:58:52,91.0,,-0.0892079140592053,-2.55919601321916,-0.378536836757333,,6.123180987768657,,
,5615.0,1219.0,5282.0,1812.0,2734.0,2976.0,252.0,2025-07-17 15:58:53,91.0,,-0.0893898219157089,-2.55938200994706,-0.378238752776449,,6.2778124094855,,
,5615.0,1218.0,5286.0,1814.0,2734.0,2980.0,254.0,2025-07-17 15:58:54,91.0,,-0.0893805155641451,-2.55936674150913,-0.378262239819468,,6.419568439355724,,
,5618.0,1222.0,5286.0,1816.0,2727.0,2990.0,256.0,2025-07-17 15:58:55,91.0,,-0.0892403448515763,-2.55905491650651,-0.379242797607953,,6.542422251080115,,
,5621.0,1221.0,5289.0,1815.0,2739.0,2981.0,225.0,2025-07-17 15:58:56,91.0,,-0.0892854527417995,-2.55908728669242,-0.377568775210424,,6.6394623880062476,,
,5623.0,1221.0,5291.0,1818.0,2732.0,2991.0,239.0,2025-07-17 15:58:57,91.0,,-0.0892405312885239,-2.55904844212128,-0.378164029949724,,6.703146471161442,,
,5621.0,1219.0,5293.0,1816.0,2735.0,2980.0,257.0,2025-07-17 15:58:58,91.0,,-0.0892966563878694,-2.5592524884541,-0.379412462757268,,6.725631562125104,,
,5622.0,1219.0,5294.0,1817.0,2746.0,2979.0,265.0,2025-07-17 15:58:59,92.0,,-0.0892984541370542,-2.55918710658632,-0.3765385646797,,6.699177801174281,,
,5622.0,1222.0,5296.0,1818.0,2747.0,2986.0,249.0,2025-07-17 15:59:00,93.0,,-0.0892143031220348,-2.55917041910011,-0.378276922259703,,6.6166150746763215,,
,5622.0,1221.0,5298.0,1821.0,2744.0,2983.0,250.0,2025-07-17 15:59:01,93.0,,-0.0893114311859226,-2.5590439781613,-0.377209222471771,,6.4718507572475445,,
,5624.0,1219.0,5295.0,1819.0,2755.0,2967.0,230.0,2025-07-17 15:59:02,94.0,,-0.0892908401277567,-2.55900412156685,-0.378265321085188,,6.26038183962494,,
,5622.0,1221.0,5298.0,1820.0,2766.0,2997.0,227.0,2025-07-17 15:59:03,93.0,,-0.0893095537953062,-2.55913937466704,-0.377792479014098,,5.979761619343614,,
,5623.0,1222.0,5300.0,1818.0,2750.0,3003.0,221.0,2025-07-17 15:59:04,93.0,,-0.089244740901593,-2.55904948536657,-0.377504276383418,,5.629965106508795,,
,5623.0,1220.0,5301.0,1819.0,2750.0,2982.0,210.0,2025-07-17 15:59:05,93.0,,-0.0891252915747833,-2.55888451788217,-0.376079432661365,,5.21360181138011,,
,5624.0,1221.0,5303.0,1818.0,2746.0,2965.0,213.0,2025-07-17 15:59:06,94.0,,-0.0891723693644922,-2.55905666051436,-0.377098442339996,,4.735939353825464,,
,5625.0,1219.0,5304.0,1819.0,2753.0,2987.0,209.0,2025-07-17 15:59:07,95.0,,-0.0890957681946742,-2.55877630515686,-0.377622851934111,,4.204723095207982,,
,5625.0,1222.0,5307.0,1818.0,2762.0,2975.0,222.0,2025-07-17 15:59:08,95.0,,-0.0890705829986125,-2.55899694043121,-0.37689725649759,,3.629801314101132,,
,5627.0,1222.0,5308.0,1820.0,2759.0,2974.0,228.0,2025-07-17 15:59:09,95.0,,-0.0891001657999358,-2.55900499580088,-0.376845230167775,,3.022588101052829,,
,5628.0,1222.0,5309.0,1821.0,2758.0,2977.0,225.0,2025-07-17 15:59:10,95.0,,-0.089157803318137,-2.55898733005357,-0.377384574014488,,2.3954137539882945,,
,5626.0,1221.0,5312.0,1819.0,2747.0,2989.0,210.0,2025-07-17 15:59:11,95.0,,-0.0891116015554937,-2.55924819141645,-0.376929879242312,,1.760822999725554,,
,5629.0,1221.0,5314.0,1823.0,2745.0,2982.0,236.0,2025-07-17 15:59:12,95.0,,-0.0892029349556838,-2.55922497557278,-0.378432638228163,,1.1308844215801384,,
,5629.0,1219.0,5317.0,1823.0,2737.0,2975.0,231.0,2025-07-17 15:59:13,95.0,,-0.0890752010802454,-2.55914350658196,-0.377438129076202,,0.5165705557466341,,
,5631.0,1222.0,5319.0,1823.0,2738.0,2982.0,233.0,2025-07-17 15:59:14,95.0,,-0.0892243434232967,-2.55917214881719,-0.378199994796044,,-0.07274209203196545,,
,5630.0,1224.0,5320.0,1826.0,2756.0,2957.0,240.0,2025-07-17 15:59:15,95.0,,-0.0892644487922458,-2.55924210881995,-0.377401985001953,,-0.6296192788765018,,
,5631.0,1221.0,5323.0,1824.0,2747.0,2954.0,255.0,2025-07-17 15:59:16,95.0,,-0.0892465769319042,-2.55935591672466,-0.37773249986098,,-1.1487461293238952,,
,5634.0,1221.0,5327.0,1827.0,2747.0,2964.0,248.0,2025-07-17 15:59:17,96.0,,-0.0891647316646848,-2.55958971639189,-0.377193892282299,,-1.6269382200634477,,
,5638.0,1223.0,5328.0,1828.0,2758.0,2964.0,223.0,2025-07-17 15:59:18,96.0,,-0.0892733631391912,-2.55979073446725,-0.377585955615958,,-2.0630055707088424,,
,5640.0,1223.0,5332.0,1830.0,2758.0,2956.0,235.0,2025-07-17 15:59:19,97.0,,-0.0893126946200248,-2.55983929900689,-0.378761510347227,,-2.4575000160780527,,
,5639.0,1222.0,5334.0,1831.0,2744.0,2960.0,249.0,2025-07-17 15:59:20,98.0,,-0.0893727879032011,-2.5596050763775,-0.378287650757993,,-2.8123831798178234,,
,5643.0,1223.0,5336.0,1833.0,2756.0,2973.0,236.0,2025-07-17 15:59:21,98.0,,-0.0893322532935603,-2.55975791039346,-0.378286670920994,,-3.1306543406715988,,
,5643.0,1226.0,5338.0,1834.0,2753.0,2974.0,262.0,2025-07-17 15:59:22,98.0,,-0.0893910658759502,-2.55978677065825,-0.377929285542874,,-3.415975370363543,,
,5646.0,1225.0,5342.0,1835.0,2748.0,2973.0,262.0,2025-07-17 15:59:23,99.0,,-0.0894042789859633,-2.55971425169321,-0.378441406897926,,-3.6723242755332453,,
,5648.0,1224.0,5344.0,1837.0,2761.0,2965.0,238.0,2025-07-17 15:59:24,99.0,,-0.0893190459635274,-2.55971865925891,-0.37801565773131,,-3.903700450727528,,
,5649.0,1227.0,5350.0,1838.0,2758.0,2977.0,229.0,2025-07-17 15:59:25,99.0,,-0.0893481724313688,-2.55983218800684,-0.377488669500879,,-4.113894616243805,,
,5651.0,1227.0,5349.0,1841.0,2751.0,2963.0,218.0,2025-07-17 15:59:26,98.0,,-0.0894114324736923,-2.559832395558,-0.377818695769294,,-4.306326254241361,,
,5653.0,1225.0,5355.0,1841.0,2749.0,2965.0,222.0,2025-07-17 15:59:27,97.0,,-0.0894601933831779,-2.55970342813814,-0.376354522331925,,-4.483943250288337,,
,5654.0,1226.0,5355.0,1842.0,2759.0,2972.0,243.0,2025-07-17 15:59:28,96.0,,-0.0894547878808183,-2.56007167704123,-0.378069910464583,,-4.649173920685171,,
,5659.0,1224.0,5360.0,1842.0,2755.0,2988.0,247.0,2025-07-17 15:59:29,95.0,,-0.0894448878237562,-2.55994610963525,-0.378219703846045,,-4.803920696511724,,
,5660.0,1226.0,5359.0,1847.0,2747.0,2996.0,245.0,2025-07-17 15:59:30,94.0,,-0.0895448589644594,-2.56013811964808,-0.378332004343831,,-4.949586100318562,,
,5661.0,1227.0,5368.0,1848.0,2749.0,2997.0,253.0,2025-07-17 15:59:31,94.0,,-0.0894847000469388,-2.56015937603958,-0.378756631024453,,-5.087123603551171,,
,5663.0,1230.0,5370.0,1849.0,2740.0,2989.0,267.0,2025-07-17 15:59:32,93.0,,-0.0898169504105612,-2.56019916090557,-0.378223209537594,,-5.217107388671056,,
,5666.0,1228.0,5371.0,1851.0,2735.0,2971.0,256.0,2025-07-17 15:59:33,94.0,,-0.0897610581556872,-2.56019568000104,-0.378179408552807,,-5.339815624789276,,
,5669.0,1229.0,5374.0,1852.0,2732.0,2961.0,238.0,2025-07-17 15:59:34,95.0,,-0.0897632117413681,-2.56028187600675,-0.379416782325974,,-5.455321720254215,,
,5670.0,1231.0,5377.0,1853.0,2738.0,2976.0,243.0,2025-07-17 15:59:35,96.0,,-0.0899048101022249,-2.56013258880019,-0.377419417774235,,-5.563587380593798,,
,5673.0,1231.0,5382.0,1856.0,2741.0,2975.0,244.0,2025-07-17 15:59:36,97.0,,-0.0898282323748489,-2.56013870649638,-0.380085039504077,,-5.664550360794949,,
,5676.0,1231.0,5385.0,1857.0,2743.0,2964.0,259.0,2025-07-17 15:59:37,97.0,,-0.0898878354196972,-2.56046289419062,-0.379088271939115,,-5.758198670019856,,
,5677.0,1230.0,5386.0,1857.0,2725.0,2981.0,233.0,2025-07-17 15:59:38,97.0,,-0.0899419638754053,-2.56054623738352,-0.379832340770402,,-5.844621857974535,,
,5681.0,1234.0,5391.0,1861.0,2730.0,2995.0,239.0,2025-07-17 15:59:39,97.0,,-0.08987394746013,-2.56076846471853,-0.379787163047059,,-5.9240294302429914,,
,5683.0,1234.0,5392.0,1863.0,2742.0,2979.0,242.0,2025-07-17 15:59:40,98.0,,-0.0898487612286859,-2.56087481488161,-0.379832132289247,,-5.996727418479295,,
,5686.0,1234.0,5395.0,1862.0,2739.0,2978.0,249.0,2025-07-17 15:59:41,98.0,,-0.0899688166017874,-2.56103206829175,-0.380388802721288,,-6.063047747568617,,
,5687.0,1233.0,5400.0,1863.0,2740.0,2992.0,253.0,2025-07-17 15:59:42,98.0,,-0.089731422932032,-2.56116032060184,-0.380614991798223,,-6.123231589249965,,
,5689.0,1236.0,5399.0,1865.0,2743.0,2983.0,244.0,2025-07-17 15:59:43,98.0,,-0.0898182855738754,-2.56103042793398,-0.381090035546971,,-6.177276350165402,,
,5690.0,1235.0,5402.0,1870.0,2729.0,2989.0,237.0,2025-07-17 15:59:44,98.0,,-0.08982447147481,-2.56112721920612,-0.380089252377172,,-6.224764355372431,,
,5688.0,1237.0,5402.0,1867.0,2730.0,2993.0,234.0,2025-07-17 15:59:45,98.0,,-0.0899672262142919,-2.56098845080826,-0.381066200867267,,-6.264697662611084,,
,5692.0,1234.0,5400.0,1865.0,2736.0,2994.0,254.0,2025-07-17 15:59:46,99.0,,-0.089778017285543,-2.56115969078757,-0.380187226182172,,-6.295366391207604,,
,5690.0,1234.0,5399.0,1866.0,2753.0,2984.0,263.0,2025-07-17 15:59:47,99.0,,-0.0898435276935764,-2.56101447646819,-0.378972770234591,,-6.314276839180533,,
,5690.0,1233.0,5399.0,1862.0,2734.0,2980.0,259.0,2025-07-17 15:59:48,99.0,,-0.0899208926464424,-2.56131133581599,-0.380451334218881,,-6.318160509913267,,
,5687.0,1232.0,5392.0,1857.0,2734.0,2983.0,261.0,2025-07-17 15:59:49,98.0,,-0.0899079900602407,-2.56126779481691,-0.380399808748429,,-6.303076506331485,,
,5683.0,1229.0,5387.0,1852.0,2736.0,2980.0,268.0,2025-07-17 15:59:50,97.0,,-0.090130113505771,-2.5611595989348,-0.38076986313743,,-6.264608499321201,,
,5679.0,1228.0,5381.0,1850.0,2728.0,2952.0,285.0,2025-07-17 15:59:51,97.0,,-0.0900669108867313,-2.56111269608554,-0.379727899802005,,-6.198144866517783,,
,5676.0,1228.0,5379.0,1848.0,2725.0,2936.0,261.0,2025-07-17 15:59:52,96.0,,-0.0899956356726532,-2.5607563122498,-0.38015205772025,,-6.0992181434238475,,
,5672.0,1226.0,5375.0,1846.0,2713.0,2952.0,253.0,2025-07-17 15:59:53,95.0,,-0.0899836694939648,-2.56090841510311,-0.379262190115746,,-5.96386948269804,,
,5668.0,1222.0,5369.0,1838.0,2724.0,2937.0,250.0,2025-07-17 15:59:54,95.0,,-0.0899055395499272,-2.56047049737178,-0.380867337969773,,-5.788997512171504,,
,5662.0,1221.0,5365.0,1835.0,2736.0,2929.0,263.0,2025-07-17 15:59:55,95.0,,-0.0899002764525603,-2.56048417495066,-0.379403499574922,,-5.572650744372468,,
2025-07-17 15:57:49,5662.0,1222.0,5365.0,1834.0,2738.0,2962.0,252.0,2025-07-17 15:59:56,95.0,2025/07/17 03:57:49 PM,-0.0898488040892781,-2.56032324651306,-0.378645337594486,,-5.314229299496883,,
,5658.0,1221.0,5363.0,1830.0,2753.0,2971.0,251.0,2025-07-17 15:59:57,95.0,,-0.0898351322596285,-2.56027222759258,-0.379767633760179,,-5.014574064569405,,
,5658.0,1220.0,5363.0,1832.0,2759.0,2973.0,251.0,2025-07-17 15:59:58,95.0,,-0.0897091293337556,-2.56030366664855,-0.378619244484147,,-4.675936767095259,,
,5654.0,1218.0,5359.0,1828.0,2752.0,2981.0,227.0,2025-07-17 15:59:59,95.0,,-0.0895591767366998,-2.56017664153988,-0.377118498532554,,-4.301839463260875,,
,5651.0,1218.0,5359.0,1828.0,2746.0,2989.0,237.0,2025-07-17 16:00:00,95.0,,-0.0895560742307797,-2.56019218707819,-0.379114998575306,,-3.8968439787446916,,
,5653.0,1219.0,5361.0,1827.0,2754.0,2994.0,233.0,2025-07-17 16:00:01,95.0,,-0.0895303492167364,-2.55979386983389,-0.377569595387327,,-3.466259609145672,,
,5652.0,1219.0,5360.0,1829.0,2760.0,2987.0,238.0,2025-07-17 16:00:02,95.0,,-0.0893925910989981,-2.55990735699539,-0.378978223917105,,-3.0158208099484365,,
,5651.0,1219.0,5363.0,1827.0,2757.0,2987.0,245.0,2025-07-17 16:00:03,96.0,,-0.0894477036609765,-2.55965293497663,-0.37847110036752,,-2.551366157278488,,
,5653.0,1216.0,5363.0,1825.0,2769.0,2984.0,223.0,2025-07-17 16:00:04,96.0,,-0.0895367396814061,-2.55964742798812,-0.377016580297283,,-2.078546046774745,,
,5652.0,1218.0,5364.0,1828.0,2757.0,2993.0,220.0,2025-07-17 16:00:05,96.0,,-0.0894145900302457,-2.55937057410603,-0.378038128934051,,-1.6025799476199865,,
,5653.0,1218.0,5365.0,1828.0,2749.0,2979.0,192.0,2025-07-17 16:00:06,96.0,,-0.0894523954975464,-2.55922143444511,-0.377824222318629,,-1.1280754869319247,,
,5652.0,1219.0,5368.0,1831.0,2743.0,2978.0,207.0,2025-07-17 16:00:07,95.0,,-0.0892747601181163,-2.55946225406411,-0.377912528571982,,-0.6589128588156745,,
,5652.0,1216.0,5367.0,1827.0,2757.0,2970.0,235.0,2025-07-17 16:00:08,95.0,,-0.0894598841223639,-2.55949716218832,-0.377662763826913,,-0.19819100805561893,,
,5653.0,1219.0,5369.0,1828.0,2755.0,2969.0,237.0,2025-07-17 16:00:09,95.0,,-0.0894519384940956,-2.55965323000698,-0.378055909317,,0.25177200585882464,,
,5656.0,1219.0,5373.0,1830.0,2731.0,2964.0,230.0,2025-07-17 16:00:10,95.0,,-0.0894696675165793,-2.55981450235608,-0.378094713964303,,0.6893933354440667,,
,5661.0,1220.0,5378.0,1831.0,2735.0,2963.0,222.0,2025-07-17 16:00:11,96.0,,-0.0893910012912716,-2.55933021750372,-0.37822365186158,,1.1137431339037045,,
,5661.0,1218.0,5377.0,1831.0,2743.0,2946.0,232.0,2025-07-17 16:00:12,96.0,,-0.0894056114318731,-2.55944580003683,-0.377656961954849,,1.5244344899032214,,
,5661.0,1221.0,5378.0,1833.0,2744.0,2950.0,238.0,2025-07-17 16:00:13,97.0,,-0.0893307524474505,-2.55936131912974,-0.377531482818873,,1.921494657371795,,
,5663.0,1221.0,5383.0,1834.0,2758.0,2966.0,220.0,2025-07-17 16:00:14,98.0,,-0.0893794571083573,-2.55938655219752,-0.377852224508498,,2.3052274529220114,,
,5668.0,1224.0,5384.0,1837.0,2766.0,2972.0,228.0,2025-07-17 16:00:15,97.0,,-0.0892076726112918,-2.55925692722988,-0.377282747483164,,2.6760770229071533,,
,5667.0,1223.0,5387.0,1836.0,2756.0,2978.0,255.0,2025-07-17 16:00:16,97.0,,-0.0893513708711525,-2.55922491872147,-0.37722226761192,,3.034502626002817,,
,5665.0,1222.0,5386.0,1837.0,2736.0,2980.0,264.0,2025-07-17 16:00:17,96.0,,-0.0893968923765729,-2.55925676681852,-0.377322123489837,,3.3808728140996225,,
,5671.0,1224.0,5390.0,1837.0,2725.0,2994.0,259.0,2025-07-17 16:00:18,96.0,,-0.089268972473393,-2.55917645255874,-0.377810641562427,,3.715386280581377,,
,5672.0,1224.0,5393.0,1840.0,2719.0,2978.0,238.0,2025-07-17 16:00:19,95.0,,-0.0892844984005045,-2.55881793369942,-0.377025201318134,,4.0380262137598555,,
,5673.0,1223.0,5393.0,1840.0,2725.0,2979.0,258.0,2025-07-17 16:00:20,95.0,,-0.0892612295795425,-2.55866555655043,-0.376968596401392,,4.348554380958318,,
,5675.0,1223.0,5396.0,1840.0,2731.0,2977.0,270.0,2025-07-17 16:00:21,95.0,,-0.0892312147840794,-2.55869314110715,-0.376474717287008,,4.646548562313732,,
,5674.0,1222.0,5397.0,1840.0,2732.0,2972.0,266.0,2025-07-17 16:00:22,95.0,,-0.0891456620509107,-2.55846838208132,-0.37568338884946,,4.931481355952207,,
,5679.0,1221.0,5395.0,1842.0,2731.0,2944.0,254.0,2025-07-17 16:00:23,95.0,,-0.0891130155973568,-2.55817628213984,-0.376204363734813,,5.2028307722464096,,
,5678.0,1224.0,5399.0,1842.0,2735.0,2968.0,249.0,2025-07-17 16:00:24,95.0,,-0.0890167554996044,-2.55820123337083,-0.376077935046317,,5.460205787205627,,
,5678.0,1223.0,5398.0,1843.0,2735.0,2971.0,240.0,2025-07-17 16:00:25,94.0,,-0.0889717696378196,-2.55797526647786,-0.375344663747183,,5.703465318436372,,
,5680.0,1220.0,5398.0,1839.0,2722.0,2964.0,251.0,2025-07-17 16:00:26,94.0,,-0.0889552786616134,-2.55764530051715,-0.376307761166639,,5.932807972950265,,
,5681.0,1225.0,5402.0,1840.0,2726.0,2973.0,240.0,2025-07-17 16:00:27,94.0,,-0.089043598218316,-2.5576418760239,-0.376474969847787,,6.148812463938007,,
,5683.0,1222.0,5402.0,1841.0,2745.0,2977.0,213.0,2025-07-17 16:00:28,93.0,,-0.088907992148157,-2.55780016811371,-0.373844282139866,,6.352414431159228,,
,5682.0,1225.0,5405.0,1840.0,2750.0,2986.0,222.0,2025-07-17 16:00:29,93.0,,-0.0888175370166888,-2.55753279029732,-0.375246417129787,,6.544813936962403,,
,5683.0,1224.0,5403.0,1841.0,2755.0,2977.0,237.0,2025-07-17 16:00:30,93.0,,-0.088832666909773,-2.55751647373482,-0.374402921976331,,6.727318252828782,,
,5684.0,1224.0,5401.0,1843.0,2752.0,2984.0,236.0,2025-07-17 16:00:31,92.0,,-0.0886842327454402,-2.55743751610139,-0.375304840182055,,6.901135341289672,,
,5683.0,1226.0,5404.0,1840.0,2737.0,2980.0,228.0,2025-07-17 16:00:32,91.0,,-0.0887644430482935,-2.55731986080983,-0.374666203047938,,7.067142697072114,,
,5687.0,1225.0,5410.0,1843.0,2736.0,2989.0,229.0,2025-07-17 16:00:33,90.0,,-0.0886369046862436,-2.55733876504988,-0.37578205665694,,7.225661493802498,,
,5686.0,1226.0,5410.0,1844.0,2740.0,2981.0,245.0,2025-07-17 16:00:34,89.0,,-0.0887327159509628,-2.55744912776639,-0.374603899317901,,7.376265379721681,,
,5685.0,1224.0,5409.0,1843.0,2754.0,2978.0,250.0,2025-07-17 16:00:35,89.0,,-0.088861779269425,-2.55751088645572,-0.373855319586911,,7.517646865713781,,
,5687.0,1224.0,5410.0,1842.0,2745.0,2972.0,246.0,2025-07-17 16:00:36,88.0,,-0.0888401932254402,-2.55753266546417,-0.374423126283369,,7.647554452550812,,
,5691.0,1226.0,5416.0,1847.0,2738.0,2971.0,251.0,2025-07-17 16:00:37,89.0,,-0.0886516820089328,-2.55748944945841,-0.375442868748391,,7.762803694940186,,
,5693.0,1226.0,5418.0,1846.0,2746.0,2979.0,259.0,2025-07-17 16:00:38,89.0,,-0.0887617872614678,-2.55751979201783,-0.375113340387813,,7.859357630887327,,
,5695.0,1227.0,5417.0,1846.0,2740.0,2977.0,247.0,2025-07-17 16:00:39,89.0,,-0.0887334169631294,-2.55730000020856,-0.374079514249277,,7.932467306096864,,
,5697.0,1229.0,5421.0,1848.0,2735.0,2987.0,253.0,2025-07-17 16:00:40,89.0,,-0.0888138024910923,-2.55718260076246,-0.375113850524691,,7.9768613402055255,,
,5698.0,1229.0,5423.0,1847.0,2735.0,2971.0,243.0,2025-07-17 16:00:41,89.0,,-0.0886970265621954,-2.55734707191675,-0.374885356637998,,7.986973843538845,,
,5700.0,1230.0,5425.0,1848.0,2730.0,2975.0,246.0,2025-07-17 16:00:42,89.0,,-0.0887981405302646,-2.55719369569856,-0.373775807290167,,7.957201407172373,,
,5704.0,1229.0,5427.0,1850.0,2742.0,2963.0,254.0,2025-07-17 16:00:43,89.0,,-0.088703718277832,-2.55724902288747,-0.373222444240295,,7.8821812381820004,,
,5704.0,1232.0,5427.0,1850.0,2735.0,2950.0,251.0,2025-07-17 16:00:44,89.0,,-0.0888213160142216,-2.55721463162002,-0.374353757919322,,7.757082796599523,,
,5708.0,1232.0,5431.0,1851.0,2735.0,2967.0,259.0,2025-07-17 16:00:45,89.0,,-0.0886963489766487,-2.55709231512019,-0.373895328067234,,7.577903657473443,,
,5710.0,1234.0,5436.0,1853.0,2745.0,2965.0,269.0,2025-07-17 16:00:46,89.0,,-0.0886316451135929,-2.55703048579025,-0.375032862881303,,7.341756493543356,,
,5713.0,1233.0,5438.0,1856.0,2753.0,2974.0,262.0,2025-07-17 16:00:47,90.0,,-0.0885028756093577,-2.55716698000122,-0.374619657469059,,7.0471291132821,,
,5712.0,1236.0,5440.0,1853.0,2747.0,2979.0,254.0,,,,-0.0886414432489405,-2.55691742727027,-0.37321275333132,,6.6940956951386985,,
,5718.0,1236.0,5443.0,1856.0,2737.0,2975.0,240.0,,,,-0.0886170131515672,-2.55694051549278,-0.373695231657983,,6.2844568032511,,
,5719.0,1237.0,5448.0,1859.0,2754.0,2981.0,225.0,,,,-0.0884668280563677,-2.55657030423138,-0.373751335621422,,5.821788984719349,,
,5723.0,1239.0,5449.0,1859.0,2752.0,2985.0,231.0,,,,-0.0884566179959378,-2.5567660016226,-0.374049457867907,,5.311390980411665,,
,5726.0,1239.0,5451.0,1860.0,2742.0,2980.0,242.0,,,,-0.0884867119024421,-2.55652389083658,-0.372289239057149,,4.760121830004621,,
,5729.0,1240.0,5454.0,1861.0,2739.0,2968.0,243.0,,,,-0.0885456717013844,-2.55632788166066,-0.373515437087412,,4.176135585398322,,
,5734.0,1241.0,5457.0,1860.0,2764.0,2970.0,235.0,,,,-0.0885290818757644,-2.55616830478301,-0.371746429852134,,3.568527124276894,,
,5732.0,1242.0,5460.0,1866.0,2759.0,2972.0,244.0,,,,-0.0885625747674531,-2.55624149594281,-0.371368210707916,,2.9469127799372337,,
,5737.0,1245.0,5464.0,1866.0,2756.0,2971.0,231.0,,,,-0.0884185260556536,-2.5562665551068,-0.370932380355077,,2.3209772690933184,,
,5738.0,1242.0,5466.0,1864.0,2752.0,2968.0,220.0,,,,-0.0884741077453408,-2.55613762807886,-0.372574593842773,,1.7000235533122483,,
,5740.0,1245.0,5467.0,1869.0,2737.0,2963.0,209.0,,,,-0.0881908183184345,-2.55604005881227,-0.370525666263357,,1.0925632372496323,,
,5745.0,1247.0,5474.0,1870.0,2746.0,2964.0,200.0,,,,-0.0882229219874098,-2.55588126606946,-0.371556316438082,,0.5059805729881861,,
,5747.0,1248.0,5477.0,1872.0,2747.0,2958.0,204.0,,,,-0.0881161202910936,-2.55568109897637,-0.370645303372197,,-0.053706650819801645,,
,5752.0,1250.0,5479.0,1871.0,2758.0,2969.0,215.0,,,,-0.087982384569317,-2.55594216132873,-0.371489940997223,,-0.5819788411001284,,
,5755.0,1250.0,5483.0,1873.0,2740.0,2968.0,253.0,,,,-0.0879204490849092,-2.55541325899924,-0.371267454298753,,-1.0758410981134412,,
,5755.0,1254.0,5489.0,1877.0,2753.0,2966.0,247.0,,,,-0.0879721334740502,-2.55540576854682,-0.370211509335302,,-1.5337567271232058,,
,5760.0,1253.0,5491.0,1878.0,2758.0,2956.0,246.0,,,,-0.0879346748683403,-2.5552746140454,-0.369959613947751,,-1.9555066097546894,,
,5766.0,1256.0,5495.0,1879.0,2744.0,2974.0,256.0,,,,-0.0878976804464746,-2.55541287088928,-0.370699913960579,,-2.341996424920606,,
,5766.0,1254.0,5497.0,1878.0,2753.0,2978.0,256.0,,,,-0.0880051393525394,-2.55525000125672,-0.371045588046841,,-2.6950338836146206,,
,5768.0,1258.0,5503.0,1883.0,2751.0,2980.0,242.0,,,,-0.0879345978150916,-2.5553215963657,-0.370345367211958,,-3.017095931595147,,
,5771.0,1257.0,5505.0,1883.0,2749.0,2993.0,223.0,,,,-0.0878497799929893,-2.55514119234551,-0.369043986958106,,-3.311101849088286,,
,5772.0,1258.0,5506.0,1883.0,2741.0,2992.0,214.0,,,,-0.0878023253544678,-2.55514280454419,-0.370372175382068,,-3.580202970902019,,
,5773.0,1260.0,5506.0,1881.0,2730.0,2991.0,219.0,,,,-0.0877390497738259,-2.55498768797876,-0.370714741698813,,-3.827594330335137,,
,5774.0,1259.0,5508.0,1882.0,2722.0,2977.0,245.0,,,,-0.0878401041513074,-2.55509208387764,-0.370437469085016,,-4.056349290825398,,
,5774.0,1260.0,5509.0,1881.0,2739.0,2974.0,247.0,,,,-0.087941986694821,-2.55473510579037,-0.369367659889702,,-4.269276439115202,,
,5776.0,1261.0,5504.0,1881.0,2735.0,2978.0,258.0,,,,-0.0875871014588763,-2.55475723076841,-0.369805922065456,,-4.468798873384666,,
,5774.0,1259.0,5500.0,1878.0,2741.0,2982.0,249.0,,,,-0.0877049564840983,-2.5544902330041,-0.37026041451667,,-4.656858371861202,,
,5769.0,1258.0,5497.0,1874.0,2720.0,2969.0,264.0,,,,-0.0877678327143992,-2.55472522647205,-0.368162310723262,,-4.8348490729601945,,
,5768.0,1257.0,5495.0,1872.0,2723.0,2961.0,256.0,,,,-0.0876076548592475,-2.55445514728059,-0.369831760219299,,-5.003586063091341,,
,5763.0,1255.0,5489.0,1867.0,2723.0,2974.0,265.0,,,,-0.0876831752354227,-2.55450023653677,-0.367937418694235,,-5.163313362404346,,
,5760.0,1254.0,5486.0,1862.0,2734.0,2975.0,262.0,,,,-0.0876645382900999,-2.55432361370658,-0.368110498167923,,-5.313753509154869,,
,5755.0,1251.0,5482.0,1858.0,2742.0,2977.0,245.0,,,,-0.0875109786558118,-2.55433133152514,-0.367288381058964,,-5.454197721423911,,
,5753.0,1252.0,5483.0,1855.0,2741.0,2953.0,234.0,,,,-0.0874409741421402,-2.55435714503953,-0.366478070586007,,-5.583631852672179,,
,5749.0,1251.0,5479.0,1853.0,2733.0,2969.0,231.0,,,,-0.0874525482480944,-2.55408521223749,-0.367354446903828,,-5.7008893706175465,,
,5745.0,1251.0,5476.0,1848.0,2732.0,2962.0,222.0,,,,-0.08741612063076,-2.55394476987168,-0.367542917012418,,-5.804818758563662,,
,5744.0,1249.0,5476.0,1847.0,2733.0,2971.0,221.0,,,,-0.0873864659578257,-2.55393288246638,-0.3676227911625,,-5.894449703581922,,
,5741.0,1246.0,5474.0,1846.0,2748.0,2967.0,206.0,,,,-0.0872881356620701,-2.55397382679593,-0.366263068878326,,-5.969141101033533,,
,5744.0,1249.0,5476.0,1846.0,2748.0,2981.0,234.0,,,,-0.0872121711493759,-2.55371329808914,-0.366932683505379,,-6.028695061036323,,
,5743.0,1249.0,5478.0,1843.0,2744.0,2984.0,233.0,,,,-0.0871875699161146,-2.5533400874436,-0.36681956198041,,-6.073424835371681,,
,5742.0,1249.0,5476.0,1843.0,2751.0,2999.0,218.0,,,,-0.0871195312833795,-2.55380052459643,-0.367119183038682,,-6.104170026152745,,
,5738.0,1246.0,5476.0,1842.0,2746.0,2996.0,229.0,,,,-0.0870388171633894,-2.55362941336618,-0.365657370037362,,-6.122258213589952,,
,5738.0,1248.0,5481.0,1843.0,2740.0,3004.0,202.0,,,,-0.0869705540948403,-2.55357050043395,-0.368237914103752,,-6.129417121179641,,
,5741.0,1250.0,5480.0,1843.0,2737.0,2990.0,221.0,,,,-0.0869583919671906,-2.55369118054902,-0.367193938887911,,-6.12764514461637,,
,5741.0,1250.0,5484.0,1844.0,2736.0,2986.0,215.0,,,,-0.0870378333243849,-2.553444432353,-0.367032115795837,,-6.119050546635627,,
,5741.0,1249.0,5484.0,1842.0,2742.0,3001.0,222.0,,,,-0.0869571833599576,-2.55353287255482,-0.366754093969341,,-6.105671110673453,,
,5743.0,1249.0,5489.0,1843.0,2744.0,3001.0,217.0,,,,-0.0869324505907975,-2.5532745643511,-0.366310744824334,,-6.089286793792382,,
,5744.0,1252.0,5493.0,1847.0,2740.0,2982.0,237.0,,,,-0.0869911668247976,-2.55339376418995,-0.36667263500318,,-6.071238052872949,,
,5746.0,1252.0,5492.0,1847.0,2741.0,2975.0,251.0,,,,-0.0869670564941575,-2.55346861802818,-0.366881197667352,,-6.052262034578174,,
,5747.0,1253.0,5494.0,1846.0,2741.0,2970.0,230.0,,,,-0.0871716597549495,-2.55362427893106,-0.366892535767603,,-6.032357728134107,,
,5747.0,1252.0,5498.0,1847.0,2739.0,2980.0,234.0,,,,-0.0871813821408323,-2.55347126542382,-0.366448267010696,,-6.010689734065141,,
,5751.0,1253.0,5500.0,1850.0,2744.0,2974.0,224.0,,,,-0.087287329033698,-2.55404284745118,-0.367818177570065,,-5.98553899355322,,
,5752.0,1253.0,5506.0,1849.0,2744.0,2972.0,227.0,,,,-0.0870759973291425,-2.55384620949897,-0.366958034828503,,-5.954307948404379,,
,5754.0,1255.0,5505.0,1853.0,2737.0,2957.0,240.0,,,,-0.0871228150989555,-2.55388883214995,-0.367471911710655,,-5.913586773793105,,
,5752.0,1256.0,5506.0,1852.0,2743.0,2959.0,262.0,,,,-0.0870740691106029,-2.55428431230675,-0.366906897480082,,-5.859285532541779,,
,5756.0,1256.0,5511.0,1853.0,2734.0,2990.0,250.0,,,,-0.0871231663416258,-2.55451472839562,-0.366228238412747,,-5.786833347175473,,
,5757.0,1259.0,5511.0,1856.0,2727.0,2963.0,277.0,,,,-0.0873096126296523,-2.55467134815089,-0.367832932662421,,-5.6914396558730225,,
,5758.0,1256.0,5514.0,1856.0,2728.0,2960.0,286.0,,,,-0.0873451086084144,-2.55471938535807,-0.36735520961697,,-5.568404869214137,,
,5757.0,1254.0,5513.0,1853.0,2728.0,2980.0,275.0,,,,-0.0872914568662461,-2.55481415303071,-0.367373361176539,,-5.41345951042598,,
,5761.0,1257.0,5517.0,1857.0,2730.0,2972.0,264.0,,,,-0.0872661950998942,-2.55475827156667,-0.368627107244967,,-5.223103753266215,,
,5761.0,1258.0,5519.0,1858.0,2726.0,2951.0,247.0,,,,-0.0873412997341991,-2.55494276471408,-0.367480643339585,,-4.9949146568817,,
,5763.0,1256.0,5522.0,1857.0,2730.0,2957.0,245.0,,,,-0.0874657216287375,-2.55504661913391,-0.36919687706926,,-4.727787492300228,,
,5765.0,1257.0,5521.0,1856.0,2720.0,2979.0,244.0,,,,-0.08742315636371,-2.55524906648175,-0.368638580101015,,-4.42208112307288,,
,5763.0,1255.0,5521.0,1854.0,2727.0,2990.0,248.0,,,,-0.0874751941237442,-2.55513810839839,-0.367899066151155,,-4.079645794835605,,
,5765.0,1256.0,5522.0,1857.0,2733.0,2975.0,245.0,,,,-0.0874327138677371,-2.55545108038443,-0.368307600486764,,-3.7037245736570537,,
,5763.0,1258.0,5523.0,1857.0,2748.0,2962.0,230.0,,,,-0.087592600364371,-2.55582248735434,-0.368534586250568,,-3.298735525143485,,
,5765.0,1257.0,5521.0,1859.0,2742.0,2961.0,248.0,,,,-0.0876182248627889,-2.55556655915418,-0.36892980413063,,-2.8699576604132697,,
,5767.0,1256.0,5523.0,1857.0,2732.0,2971.0,234.0,,,,-0.0875293245719086,-2.55562573216556,-0.368346512459662,,-2.423156272330452,,
,5767.0,1257.0,5525.0,1858.0,2740.0,2986.0,227.0,,,,-0.0874891761920885,-2.5554855507765,-0.368415923329898,,-1.9641900729270245,,
,5767.0,1258.0,5526.0,1859.0,2749.0,2976.0,225.0,,,,-0.0875680880480136,-2.5558012641942,-0.368312225396758,,-1.4986428634935236,,
,5768.0,1256.0,5524.0,1859.0,2751.0,2984.0,221.0,,,,-0.0873796211340422,-2.55547771293849,-0.368550229926516,,-1.0315171345296053,,
,5769.0,1257.0,5528.0,1858.0,2750.0,2995.0,212.0,,,,-0.0875182173764117,-2.55558145606545,-0.368184276184823,,-0.5670174468814861,,
,5768.0,1258.0,5527.0,1857.0,2744.0,2997.0,234.0,,,,-0.0874856810734093,-2.55550481856996,-0.367740005054229,,-0.10843923329809593,,
,5770.0,1258.0,5531.0,1859.0,2748.0,2983.0,253.0,,,,-0.0876090723199848,-2.55552886858346,-0.368750041434922,,0.3418347638782445,,
,5774.0,1259.0,5533.0,1858.0,2742.0,2983.0,264.0,,,,-0.0875679575020246,-2.55531853391043,-0.36832668591402,,0.7822415349774756,,
,5775.0,1260.0,5536.0,1860.0,2728.0,2966.0,257.0,,,,-0.0874950180499329,-2.55518507341371,-0.36910244324591,,1.2118714116210083,,
,5772.0,1258.0,5535.0,1860.0,2740.0,2970.0,251.0,,,,-0.0874837455201691,-2.55499085266468,-0.369136235443489,,1.630260400033105,,
2025-07-17 15:57:50,5775.0,1260.0,5535.0,1859.0,2728.0,2951.0,256.0,,,2025/07/17 03:57:50 PM,-0.0874850750685001,-2.5551426328287,-0.368361408886851,,2.0371777260670747,,
,5776.0,1260.0,5539.0,1862.0,2728.0,2967.0,240.0,,,,-0.0874884299111131,-2.55531662110787,-0.368168562772496,,2.4324432243723075,,
,5778.0,1261.0,5538.0,1864.0,2724.0,2966.0,233.0,,,,-0.0875080889374432,-2.5553320127269,-0.3695287582815,,2.815801225655939,,
,5778.0,1260.0,5540.0,1864.0,2729.0,2979.0,253.0,,,,-0.0874228000672318,-2.55537468628743,-0.367957265912398,,3.186865407220819,,
,5779.0,1262.0,5542.0,1866.0,2740.0,2956.0,240.0,,,,-0.087498768382977,-2.55516379968132,-0.367779110605428,,3.5451355614285482,,
,5787.0,1262.0,5546.0,1868.0,2708.0,2955.0,233.0,,,,-0.0874654136821219,-2.55503614620577,-0.368510688958368,,3.890074960234921,,
,5784.0,1260.0,5548.0,1868.0,2725.0,2959.0,230.0,,,,-0.0872955572994699,-2.55510948082671,-0.367883965890464,,4.22122754999362,,
,5784.0,1261.0,5548.0,1867.0,2740.0,2950.0,240.0,,,,-0.0873841443161219,-2.55493353611006,-0.367810844221062,,4.538348489616337,,
,5790.0,1263.0,5554.0,1869.0,2734.0,2965.0,286.0,,,,-0.0872433773835363,-2.55486613116396,-0.367525499820641,,4.841520166136457,,
,5790.0,1263.0,5556.0,1872.0,2736.0,2969.0,278.0,,,,-0.0871232229339219,-2.55462526734815,-0.367822433902878,,5.131229155393615,,
,5794.0,1265.0,5556.0,1871.0,2737.0,2973.0,260.0,,,,-0.0871323541070191,-2.55449701647461,-0.367580013913736,,5.40838736801136,,
,5796.0,1266.0,5560.0,1872.0,2731.0,2974.0,265.0,,,,-0.0871453963783541,-2.5545983965224,-0.366148120938752,,5.674291450799757,,
,5798.0,1263.0,5559.0,1873.0,2728.0,3000.0,270.0,,,,-0.0870323703134057,-2.55446734227689,-0.366303575337967,,5.93052579798644,,
,5800.0,1266.0,5561.0,1873.0,2734.0,2980.0,265.0,,,,-0.0870087409384349,-2.55458673576342,-0.366257473020398,,6.1788230747499195,,
,5803.0,1267.0,5565.0,1874.0,2735.0,2992.0,237.0,,,,-0.0870650642527454,-2.55486199188958,-0.366769156095056,,6.420899645450881,,
,5805.0,1269.0,5567.0,1877.0,2734.0,2989.0,222.0,,,,-0.0870279121081967,-2.55467839375122,-0.366701409032631,,6.65828169931159,,
,5805.0,1265.0,5569.0,1879.0,2752.0,2999.0,227.0,,,,-0.0869901783672373,-2.55471413056684,-0.367402999241587,,6.892133406801938,,
,5806.0,1267.0,5571.0,1881.0,2751.0,2999.0,245.0,,,,-0.0870376707607031,-2.55451669111852,-0.366367388489507,,7.123093933013488,,
,5811.0,1269.0,5575.0,1881.0,2742.0,2994.0,228.0,,,,-0.0869001140985872,-2.55470153925556,-0.367404815206659,,7.351127269226236,,
,5812.0,1267.0,5577.0,1882.0,2744.0,3004.0,219.0,,,,-0.0868750647120798,-2.55456666551407,-0.367874420597323,,7.575387868812973,,
,5814.0,1269.0,5582.0,1883.0,2729.0,2974.0,243.0,,,,-0.087060956118874,-2.55472572054795,-0.36587771327019,,7.794105544793877,,
,5816.0,1269.0,5582.0,1883.0,2730.0,2955.0,247.0,,,,-0.0869848990858395,-2.55477200780154,-0.365607263435296,,8.004494632150884,,
,5818.0,1271.0,5587.0,1884.0,2760.0,2959.0,272.0,,,,-0.0870145086842471,-2.5549724074287,-0.36673089911775,,8.202694985705847,,
,5821.0,1269.0,5589.0,1886.0,2751.0,2970.0,279.0,,,,-0.0869543130028478,-2.55495654243891,-0.365617041044022,,8.383755911354212,,
,5824.0,1269.0,5592.0,1887.0,2746.0,2988.0,250.0,,,,-0.0870910702495195,-2.55511268331424,-0.366763647382792,,8.541677803999562,,
,5824.0,1267.0,5593.0,1888.0,2757.0,2996.0,237.0,,,,-0.087159158512718,-2.55545784766818,-0.365971113834302,,8.66952805468228,,
,5826.0,1270.0,5598.0,1890.0,2753.0,2997.0,241.0,,,,-0.0871443509408401,-2.55546151161412,-0.367450326997834,,8.759645207292381,,
,5829.0,1266.0,5598.0,1889.0,2747.0,2997.0,224.0,,,,-0.0871752336409513,-2.55556001856534,-0.36618620849596,,8.80393731730123,,
,5828.0,1268.0,5602.0,1891.0,2740.0,2994.0,235.0,,,,-0.0872122988965804,-2.55580484540529,-0.366249868892754,,8.794268387752567,,
,5828.0,1269.0,5600.0,1890.0,2732.0,3002.0,235.0,,,,-0.0872229774912898,-2.55605997535494,-0.367323514956251,,8.722913531836772,,
,5828.0,1269.0,5605.0,1891.0,2746.0,2997.0,256.0,,,,-0.0874077002990393,-2.55622274163771,-0.366421835546898,,8.583051830817455,,
,5829.0,1270.0,5602.0,1895.0,2741.0,2980.0,252.0,,,,-0.0874344447354578,-2.5559356633785,-0.36607851840209,,8.369257514733706,,
,5830.0,1268.0,5604.0,1893.0,2741.0,2976.0,263.0,,,,-0.0873010073661432,-2.55616126902322,-0.366270668030008,,8.077946184861876,,
,5826.0,1267.0,5602.0,1892.0,2742.0,2973.0,255.0,,,,-0.0871102191153483,-2.5560219027014,-0.367192767346566,,7.7077338520656955,,
,5824.0,1265.0,5599.0,1887.0,2730.0,2985.0,264.0,,,,-0.0871353744111803,-2.55594508575066,-0.364828105578266,,7.259672607073763,,
,5823.0,1265.0,5593.0,1887.0,2717.0,2974.0,244.0,,,,-0.0872076260442148,-2.55616694302987,-0.366357988114204,,6.737337535396543,,
,5820.0,1265.0,5589.0,1887.0,2729.0,2955.0,258.0,,,,-0.0871413175509195,-2.55572292221263,-0.364965558060306,,6.146754445843303,,
,5816.0,1261.0,5584.0,1882.0,2720.0,2946.0,270.0,,,,-0.0870986856703772,-2.55562128358579,-0.364188686932059,,5.496175283655715,,
,5812.0,1260.0,5578.0,1876.0,2727.0,2947.0,285.0,,,,-0.0870980695260886,-2.55564345594358,-0.36424908237614,,4.795724239602778,,
,5809.0,1259.0,5574.0,1872.0,2732.0,2945.0,303.0,,,,-0.0872156379096671,-2.55536055660276,-0.364355429070202,,4.0569486189549195,,
,5801.0,1260.0,5569.0,1871.0,2735.0,2971.0,278.0,,,,-0.0869365296870483,-2.55513172037399,-0.363013296776467,,3.2923124815813334,,
,5798.0,1258.0,5562.0,1865.0,2727.0,2980.0,271.0,,,,-0.0869054370422961,-2.55488627156089,-0.362793006825312,,2.51466890226778,,
,5795.0,1258.0,5560.0,1862.0,2730.0,2993.0,242.0,,,,-0.0866834695956297,-2.55491034995421,-0.363543226085613,,1.736741313699409,,
,5792.0,1256.0,5554.0,1859.0,2736.0,2982.0,235.0,,,,-0.0867008329581967,-2.55493307317813,-0.362476056880529,,0.970638534425949,,
,5790.0,1258.0,5555.0,1858.0,2756.0,2943.0,230.0,,,,-0.0866362188441043,-2.55486845709443,-0.362206808060482,,0.22742318259181302,,
,5787.0,1257.0,5550.0,1856.0,2761.0,2945.0,216.0,,,,-0.0866355418829267,-2.55474987388663,-0.362309949696014,,-0.4832506704834225,,
,5783.0,1255.0,5549.0,1855.0,2760.0,2951.0,216.0,,,,-0.0866245868630268,-2.55476678522944,-0.36306923652173,,-1.153418222805762,,
,5782.0,1255.0,5547.0,1852.0,2756.0,2964.0,254.0,,,,-0.0865465603779409,-2.55473179487975,-0.361667831229907,,-1.7769944703714684,,
,5780.0,1256.0,5548.0,1851.0,2754.0,2972.0,259.0,,,,-0.0865291056322144,-2.55485007119877,-0.362532820306655,,-2.3498702852339206,,
,5781.0,1256.0,5547.0,1852.0,2755.0,2981.0,243.0,,,,-0.086486180325728,-2.55482704695022,-0.362521813557464,,-2.8699141203231338,,
,5779.0,1256.0,5546.0,1851.0,2753.0,2981.0,234.0,,,,-0.0865429938330992,-2.55464116657818,-0.361233887994174,,-3.336883240681173,,
,5778.0,1254.0,5547.0,1852.0,2747.0,2990.0,193.0,,,,-0.0866035150597306,-2.55468003886463,-0.363571467023179,,-3.752251788536685,,
,5778.0,1256.0,5550.0,1851.0,2752.0,3009.0,202.0,,,,-0.0865705433223249,-2.55482555841204,-0.362079021030154,,-4.118966686559482,,
,5778.0,1257.0,5551.0,1852.0,2746.0,3015.0,223.0,,,,-0.086616466069064,-2.55489252157729,-0.363893720049072,,-4.441146809796638,,
,5781.0,1255.0,5552.0,1853.0,2747.0,3004.0,234.0,,,,-0.0865934848872688,-2.55465310092921,-0.361977914038947,,-4.72374543692946,,
,5783.0,1257.0,5555.0,1852.0,2764.0,2984.0,232.0,,,,-0.0864438152001393,-2.55458875620292,-0.362554828876997,,-4.9721993852584205,,
,5782.0,1257.0,5556.0,1853.0,2757.0,2961.0,252.0,,,,-0.0865207545933056,-2.5546546889397,-0.362147033144809,,-5.19208922497305,,
,5782.0,1257.0,5556.0,1855.0,2747.0,2969.0,253.0,,,,-0.0864945328730329,-2.55458779479961,-0.363042169227566,,-5.388833090078831,,
,5786.0,1258.0,5558.0,1857.0,2740.0,2970.0,250.0,,,,-0.0863726819653588,-2.55457827963801,-0.362619229225371,,-5.567432192103966,,
,5788.0,1259.0,5560.0,1859.0,2739.0,2982.0,247.0,,,,-0.0863560243665663,-2.5543871177391,-0.362702674007959,,-5.7322800463292145,,
,5789.0,1260.0,5560.0,1858.0,2725.0,2982.0,252.0,,,,-0.0863945025072045,-2.55458552822644,-0.363550261034449,,-5.88704060391512,,
,5787.0,1259.0,5562.0,1858.0,2720.0,2990.0,226.0,,,,-0.0863615990589179,-2.55453244506937,-0.362192120216324,,-6.034593686955267,,
,5791.0,1257.0,5565.0,1861.0,2732.0,2977.0,244.0,,,,-0.086279212358007,-2.55429779419789,-0.361359966688284,,-6.177039772333461,,
,5791.0,1260.0,5568.0,1863.0,2729.0,2974.0,248.0,,,,-0.0863523234079894,-2.55406410221978,-0.361883917363654,,-6.3157506591963,,
,5791.0,1256.0,5565.0,1861.0,2724.0,2981.0,256.0,,,,-0.0861350391699802,-2.55390305058259,-0.362391259876495,,-6.451448649747973,,
,5793.0,1257.0,5568.0,1860.0,2716.0,2993.0,268.0,,,,-0.0861615103055779,-2.5535290548299,-0.362010946663775,,-6.58429569373939,,
,5794.0,1257.0,5567.0,1862.0,2729.0,2957.0,268.0,,,,-0.0860176936505978,-2.55356955424854,-0.361731842494008,,-6.713976282586127,,
,5795.0,1256.0,5570.0,1860.0,2723.0,2957.0,271.0,,,,-0.0859634954058802,-2.55350739369637,-0.361724305406527,,-6.8397633353047524,,
,5790.0,1256.0,5567.0,1864.0,2716.0,2955.0,259.0,,,,-0.0859701728627865,-2.55363589247067,-0.36133723510411,,-6.960563229457386,,
,5792.0,1255.0,5568.0,1860.0,2739.0,2964.0,272.0,,,,-0.0859082910160323,-2.55338631151627,-0.361313478998304,,-7.074942479038232,,
,5791.0,1255.0,5567.0,1865.0,2738.0,2972.0,256.0,,,,-0.0859996214352527,-2.55321437202115,-0.361420242426261,,-7.181143021421466,,
,5793.0,1253.0,5564.0,1864.0,2738.0,2987.0,237.0,,,,-0.0858899156666834,-2.55330717076702,-0.361599566363358,,-7.277095292997142,,
,5792.0,1253.0,5564.0,1863.0,2739.0,2986.0,245.0,,,,-0.0858817058785055,-2.55291228782132,-0.35986993963994,,-7.360438500423663,,
,5788.0,1250.0,5561.0,1862.0,2735.0,2972.0,250.0,,,,-0.0858082030702975,-2.5531362502055,-0.360192218059657,,-7.4285561519459264,,
,5788.0,1252.0,5558.0,1861.0,2733.0,2987.0,217.0,,,,-0.0857461899689786,-2.55283011036302,-0.360630620218023,,-7.478632343044346,,
,5789.0,1253.0,5558.0,1860.0,2743.0,2964.0,234.0,,,,-0.0856990550028569,-2.55277992411499,-0.361952406580636,,-7.5077307175854955,,
,5788.0,1250.0,5553.0,1859.0,2744.0,2976.0,240.0,,,,-0.085614944186632,-2.55271144619752,-0.361228978457814,,-7.512893708180544,,
,5784.0,1248.0,5548.0,1857.0,2744.0,2979.0,259.0,,,,-0.0856670125376871,-2.55242377643488,-0.360984441743696,,-7.491255146918191,,
,5786.0,1247.0,5546.0,1857.0,2757.0,2965.0,262.0,,,,-0.0856098769740836,-2.55225636217515,-0.359541221858881,,-7.44015563719176,,
,5784.0,1251.0,5545.0,1862.0,2737.0,2965.0,248.0,,,,-0.0855804523772433,-2.55212138641232,-0.360549431623036,,-7.3572484436234085,,
,5783.0,1247.0,5543.0,1858.0,2730.0,2972.0,245.0,,,,-0.0856266643949614,-2.5524203220767,-0.360515260076117,,-7.240584919705924,,
,5780.0,1248.0,5539.0,1857.0,2737.0,2964.0,251.0,,,,-0.085615282545881,-2.55241371419122,-0.361129087532118,,-7.088672402368638,,
,5780.0,1245.0,5535.0,1855.0,2725.0,2974.0,242.0,,,,-0.0855366654015125,-2.55242940116838,-0.361052846648633,,-6.900502752035867,,
,5779.0,1245.0,5534.0,1857.0,2733.0,2997.0,241.0,,,,-0.0854829399687099,-2.55221409070148,-0.361523263443423,,-6.675554664320707,,
,5781.0,1243.0,5531.0,1857.0,2724.0,2996.0,249.0,,,,-0.0855280324104658,-2.55181125110423,-0.359720571290278,,-6.413776353683662,,
,5779.0,1245.0,5531.0,1858.0,2730.0,3005.0,249.0,,,,-0.0854255407496287,-2.5521254156053,-0.360695526039794,,-6.1155568302165495,,
,5775.0,1243.0,5527.0,1854.0,2729.0,2999.0,260.0,,,,-0.0854139854467166,-2.55146315605789,-0.359100612205566,,-5.781693964535142,,
,5780.0,1245.0,5527.0,1855.0,2717.0,2994.0,269.0,,,,-0.0855495872939556,-2.55126080037058,-0.360135507073302,,-5.413366245603452,,
,5777.0,1247.0,5527.0,1856.0,2726.0,2993.0,253.0,,,,-0.0854254196597461,-2.55135824349243,-0.359805988296728,,-5.012112850489148,,
,5778.0,1244.0,5524.0,1858.0,2730.0,2982.0,269.0,,,,-0.0854577625379287,-2.55111052744734,-0.358511430961841,,-4.579823527060986,,
,5778.0,1245.0,5523.0,1857.0,2733.0,2978.0,279.0,,,,-0.0853255145358072,-2.55096015662007,-0.358817757726157,,-4.118736221025378,,
,5779.0,1244.0,5522.0,1857.0,2730.0,2974.0,268.0,,,,-0.0852488995558965,-2.55079612833757,-0.359048665774267,,-3.631437281652698,,
,5779.0,1244.0,5521.0,1857.0,2723.0,2975.0,246.0,,,,-0.0850481078834191,-2.55047455864701,-0.359505173500107,,-3.1208577224785867,,
,5786.0,1246.0,5523.0,1857.0,2739.0,2993.0,237.0,,,,-0.0850428772419104,-2.55046131533307,-0.359956795203431,,-2.5902601323110086,,
,5779.0,1246.0,5518.0,1857.0,2748.0,2995.0,249.0,,,,-0.0848980876893755,-2.55035720051642,-0.359295243638028,,-2.0432138283298573,,
,5782.0,1243.0,5514.0,1856.0,2735.0,2983.0,247.0,,,,-0.0849576618300462,-2.55045378602741,-0.358474384714672,,-1.483559004841698,,
,5779.0,1246.0,5518.0,1858.0,2723.0,2996.0,251.0,,,,-0.0849472455304266,-2.55034865619631,-0.358757298639846,,-0.9153623419937217,,
,5781.0,1246.0,5518.0,1857.0,2747.0,2973.0,250.0,,,,-0.0850066636389346,-2.55037426407334,-0.358875963022982,,-0.34286630838749294,,
,5781.0,1245.0,5514.0,1859.0,2752.0,2968.0,266.0,,,,-0.0848682994503002,-2.55021368528764,-0.357322641175146,,0.22956714463236225,,
,5781.0,1245.0,5515.0,1857.0,2739.0,2968.0,292.0,,,,-0.0849324815110732,-2.54982412562799,-0.358299569484933,,0.7975196083760216,,
,5784.0,1243.0,5513.0,1858.0,2736.0,2974.0,266.0,,,,-0.0849882868609154,-2.54972921685419,-0.358174619719734,,1.3565883982339366,,
,5786.0,1246.0,5515.0,1859.0,2726.0,2969.0,238.0,,,,-0.0849317164690763,-2.54962869884567,-0.357194775698801,,1.9024708867153215,,
,5788.0,1248.0,5516.0,1862.0,2716.0,2972.0,232.0,,,,-0.0848814587907235,-2.54947813517979,-0.356439732535508,,2.4310637281633856,,
,5786.0,1246.0,5512.0,1863.0,2735.0,2972.0,218.0,,,,-0.0849187298766894,-2.54915681674911,-0.357426797926911,,2.9385784177557004,,
,5787.0,1246.0,5511.0,1861.0,2754.0,2977.0,234.0,,,,-0.0848411871402819,-2.54950824524078,-0.357388494947779,,3.4216717417875513,,
,5790.0,1247.0,5510.0,1865.0,2733.0,2983.0,234.0,,,,-0.0847896941038741,-2.54953988882322,-0.35765032338062,,3.877584859216442,,
,5790.0,1245.0,5509.0,1864.0,2752.0,2999.0,236.0,,,,-0.0848431205448426,-2.54953767714276,-0.357641788754598,,4.304278762469768,,
,5788.0,1247.0,5510.0,1865.0,2751.0,2997.0,233.0,,,,-0.0849465552006677,-2.54934645218411,-0.356512709781627,,4.700548731530685,,
,5789.0,1245.0,5511.0,1865.0,2753.0,3019.0,227.0,,,,-0.0848793264772414,-2.54930074143499,-0.356720164173536,,5.066098328699806,,
,5793.0,1249.0,5512.0,1864.0,2760.0,3022.0,242.0,,,,-0.0846976147006132,-2.54950729251503,-0.357410986204778,,5.401555470133548,,
,5794.0,1249.0,5509.0,1867.0,2753.0,2986.0,243.0,,,,-0.0847928045932398,-2.54919778946949,-0.355725927832709,,5.708418537870068,,
,5794.0,1248.0,5509.0,1866.0,2743.0,2980.0,243.0,,,,-0.0847039861222626,-2.54900616406993,-0.356344335442331,,5.988927881733502,,
,5792.0,1249.0,5509.0,1869.0,2712.0,2986.0,249.0,,,,-0.0846463870071437,-2.54892440094597,-0.3563584296439,,6.2458660655505565,,
,5792.0,1250.0,5503.0,1866.0,2731.0,2992.0,246.0,,,,-0.0846096931574146,-2.54864314030738,-0.356802856333556,,6.482298154157425,,
,5793.0,1250.0,5506.0,1869.0,2726.0,2989.0,248.0,,,,-0.0845604116333899,-2.54911319788531,-0.35515076924969,,6.701270999296648,,
,5794.0,1251.0,5502.0,1868.0,2735.0,2975.0,262.0,,,,-0.0845907873103975,-2.54873052252551,-0.354997650361183,,6.905497433764034,,
,5792.0,1249.0,5499.0,1865.0,2720.0,2973.0,256.0,,,,-0.0843075376286554,-2.54839634435548,-0.354864982561317,,7.097056243623177,,
,5790.0,1248.0,5494.0,1863.0,2715.0,2987.0,256.0,,,,-0.0843582172153774,-2.54839671984545,-0.355195840686319,,7.277139771638843,,
,5789.0,1248.0,5488.0,1864.0,2724.0,2984.0,262.0,,,,-0.0842864252746476,-2.54837959655857,-0.355292569361096,,7.445876576695267,,
,5787.0,1246.0,5486.0,1862.0,2710.0,2993.0,237.0,,,,-0.0841957080044794,-2.54790116966285,-0.354823378092205,,7.602247280138811,,
,5784.0,1247.0,5478.0,1858.0,2719.0,3002.0,246.0,,,,-0.084152088589013,-2.54739534738654,-0.354319302954111,,7.744100146624765,,
,5780.0,1243.0,5468.0,1852.0,2714.0,2993.0,254.0,,,,-0.0840900162874011,-2.54708937064702,-0.354807579118991,,7.868262123406088,,
,5776.0,1244.0,5463.0,1848.0,2715.0,2969.0,234.0,,,,-0.0841080712200837,-2.54689319600383,-0.353178968990358,,7.97073282773483,,
,5776.0,1242.0,5458.0,1848.0,2714.0,2972.0,236.0,,,,-0.0840257012441954,-2.54693194469343,-0.352945035752459,,8.046943494254876,,
,5771.0,1241.0,5452.0,1845.0,2719.0,2957.0,243.0,,,,-0.0838827102514148,-2.54668872744769,-0.352772198991087,,8.092059457964636,,
,5767.0,1242.0,5447.0,1840.0,2727.0,2976.0,230.0,,,,-0.0838776472493181,-2.54633214072249,-0.352766380519931,,8.101302833545265,,
,5764.0,1241.0,5440.0,1838.0,2731.0,2992.0,219.0,,,,-0.0839693457786993,-2.54672373153107,-0.352096720358886,,8.070271927818691,,
,5763.0,1242.0,5438.0,1834.0,2736.0,3001.0,229.0,,,,-0.0838895000687877,-2.5460658607661,-0.352630628078608,,7.995236380020169,,
2025-07-17 15:57:51,5758.0,1242.0,5437.0,1835.0,2752.0,3002.0,234.0,,,2025/07/17 03:57:51 PM,-0.0837404394350819,-2.54669211040195,-0.352372898824444,,7.87339232186674,,
,5758.0,1241.0,5432.0,1832.0,2762.0,3003.0,232.0,,,,-0.0837255410202839,-2.54610318373707,-0.351318010320966,,7.7030687475198985,,
,5755.0,1239.0,5426.0,1829.0,2756.0,3002.0,207.0,,,,-0.0836980802830288,-2.54616510453013,-0.352489450341599,,7.483882369641894,,
,5755.0,1241.0,5425.0,1833.0,2737.0,2999.0,223.0,,,,-0.083685799062078,-2.54622589238584,-0.351899771188664,,7.216841507874936,,
,5757.0,1240.0,5427.0,1831.0,2737.0,2998.0,226.0,,,,-0.0836940250480905,-2.54652343205339,-0.352455746182638,,6.904399690286056,,
,5753.0,1242.0,5422.0,1831.0,2744.0,2993.0,227.0,,,,-0.0836582963046668,-2.54637805156126,-0.352730728305564,,6.550457746063013,,
,5755.0,1241.0,5419.0,1831.0,2729.0,2972.0,267.0,,,,-0.0837316713453201,-2.54633671358203,-0.352218674967411,,6.160310616753117,,
,5753.0,1241.0,5421.0,1830.0,2734.0,2989.0,248.0,,,,-0.0839308486124389,-2.54665081662723,-0.352550151692933,,5.740533009982666,,
,5755.0,1244.0,5424.0,1831.0,2733.0,2995.0,217.0,,,,-0.0839575532351711,-2.54647318394944,-0.352365163449173,,5.298797322442122,,
,5758.0,1243.0,5423.0,1832.0,2732.0,2994.0,212.0,,,,-0.0838785406363354,-2.54690601782744,-0.351891194785874,,4.843618879115903,,
,5759.0,1244.0,5425.0,1834.0,2751.0,2980.0,231.0,,,,-0.0838185338014011,-2.54600764017373,-0.351663855651662,,4.384028087378537,,
,5757.0,1240.0,5423.0,1834.0,2736.0,2972.0,258.0,,,,-0.0836878096691123,-2.54602834027203,-0.351835032112097,,3.929176631017562,,
,5762.0,1245.0,5423.0,1833.0,2735.0,2961.0,255.0,,,,-0.083905746475509,-2.5458032243135,-0.351506767230941,,3.48789455992429,,
,5762.0,1246.0,5423.0,1839.0,2743.0,2962.0,266.0,,,,-0.0837703635180801,-2.54620205724244,-0.351258575169256,,3.0682251800500224,,
,5762.0,1246.0,5424.0,1840.0,2737.0,2953.0,265.0,,,,-0.0837334918827594,-2.54586100806453,-0.35234070555211,,2.6769721186715403,,
,5768.0,1247.0,5425.0,1838.0,2729.0,2962.0,262.0,,,,-0.0835950293859767,-2.54572003410925,-0.350925075197329,,2.3192951028362354,,
,5768.0,1246.0,5426.0,1839.0,2729.0,2979.0,246.0,,,,-0.0835394174503176,-2.54551692402504,-0.351415750117919,,1.9983870457197732,,
,5770.0,1248.0,5428.0,1842.0,2737.0,3000.0,250.0,,,,-0.0835073018834715,-2.54531352069467,-0.351588472569635,,1.7152567390238909,,
,5771.0,1250.0,5428.0,1842.0,2724.0,2995.0,265.0,,,,-0.0834842435023534,-2.54547826801522,-0.350698106225151,,1.468631787025458,,
,5771.0,1248.0,5426.0,1844.0,2701.0,2978.0,244.0,,,,-0.0834154002935393,-2.5448768976328,-0.349104123369825,,1.2549877391960116,,
,5770.0,1248.0,5426.0,1844.0,2702.0,2967.0,255.0,,,,-0.0832601902466656,-2.54473296426577,-0.350739728792813,,1.068702592022387,,
,5772.0,1251.0,5425.0,1845.0,2719.0,2976.0,265.0,,,,-0.0831985087055935,-2.54453652516725,-0.349871906710342,,0.9023306982102368,,
,5773.0,1252.0,5427.0,1846.0,2735.0,2980.0,273.0,,,,-0.0833579898028785,-2.54463011650611,-0.34931912313624,,0.7469858432265677,,
,5774.0,1251.0,5430.0,1845.0,2724.0,2989.0,259.0,,,,-0.0832958490259297,-2.5443846264306,-0.348910674065597,,0.5928189762402098,,
,5775.0,1251.0,5427.0,1844.0,2736.0,2991.0,227.0,,,,-0.0832354242824031,-2.54398789967931,-0.34879309334755,,0.429571331499409,,
,5776.0,1253.0,5426.0,1848.0,2739.0,2976.0,238.0,,,,-0.0832557765757428,-2.54399251841473,-0.349200151866855,,0.24717844486406898,,
,5777.0,1251.0,5426.0,1846.0,2743.0,2964.0,243.0,,,,-0.0831740467413014,-2.54367174425445,-0.349167374844208,,0.036395006045364185,,
,5778.0,1252.0,5426.0,1846.0,2747.0,2976.0,233.0,,,,-0.0831079604602651,-2.5440867653533,-0.348211913037818,,-0.21059544086961554,,
,5778.0,1249.0,5421.0,1849.0,2745.0,2985.0,228.0,,,,-0.0829761044193571,-2.54352242803901,-0.347678439902236,,-0.4996280163109266,,
,5778.0,1251.0,5419.0,1848.0,2740.0,2994.0,229.0,,,,-0.0830379110957736,-2.54354449132331,-0.347894051180521,,-0.8341080078936758,,
,5779.0,1253.0,5423.0,1846.0,2745.0,2993.0,225.0,,,,-0.0830478632018784,-2.54337535291131,-0.348136939209726,,-1.2147131877149753,,
,5777.0,1251.0,5422.0,1848.0,2751.0,2999.0,239.0,,,,-0.0831367158557167,-2.54317767071389,-0.347499783932014,,-1.6392857979952187,,
,5777.0,1254.0,5421.0,1848.0,2743.0,2988.0,263.0,,,,-0.0832854786243183,-2.54315947593271,-0.349441963952962,,-2.102936092452854,,
,5777.0,1253.0,5418.0,1848.0,2767.0,2991.0,248.0,,,,-0.0832651724751107,-2.54291410416808,-0.34713610460983,,-2.598356148489567,,
,5778.0,1254.0,5417.0,1849.0,2747.0,2988.0,241.0,,,,-0.0833111210512,-2.54286368961018,-0.347859094874813,,-3.116318500697019,,
,5782.0,1256.0,5421.0,1851.0,2739.0,2983.0,211.0,,,,-0.0831185932873095,-2.54279273597066,-0.348284750073604,,-3.6463140736559643,,
,5783.0,1256.0,5420.0,1850.0,2730.0,2982.0,217.0,,,,-0.0831183840609847,-2.54312124185095,-0.346155411418691,,-4.177270886955696,,
,5783.0,1253.0,5418.0,1850.0,2730.0,2992.0,227.0,,,,-0.083213772011877,-2.54301226458002,-0.347482043526397,,-4.698289406592624,,
,5786.0,1255.0,5416.0,1851.0,2739.0,2978.0,223.0,,,,-0.0830993508649106,-2.54236609114846,-0.347536518053498,,-5.1993308802336635,,
,5785.0,1256.0,5419.0,1853.0,2742.0,2966.0,233.0,,,,-0.0830289170044908,-2.54199875896467,-0.346754739189809,,-5.671800172068138,,
,5787.0,1256.0,5418.0,1853.0,2745.0,2970.0,232.0,,,,-0.0830808681069813,-2.54246347682006,-0.346697810349127,,-6.108974271598071,,
,5788.0,1257.0,5420.0,1855.0,2737.0,2959.0,243.0,,,,-0.0827991310875977,-2.54242293984389,-0.345681849674924,,-6.506242371943534,,
,5790.0,1256.0,5419.0,1851.0,2731.0,2971.0,248.0,,,,-0.0826880487284207,-2.54204854794709,-0.346506683476818,,-6.861143180883536,,
,5794.0,1259.0,5422.0,1856.0,2729.0,2978.0,220.0,,,,-0.0825975004794155,-2.54160449486437,-0.34509547033005,,-7.173208042850832,,
,5795.0,1259.0,5420.0,1860.0,2711.0,2972.0,229.0,,,,-0.0826397306206869,-2.54131346487545,-0.345558076179671,,-7.443640783724337,,
,5794.0,1258.0,5425.0,1860.0,2712.0,2962.0,219.0,,,,-0.0824850296294209,-2.54136562001006,-0.344758547546998,,-7.674882812047187,,
,5794.0,1258.0,5423.0,1859.0,2721.0,2972.0,240.0,,,,-0.0824729167109707,-2.54124018202297,-0.345162423003373,,-7.870122044415856,,
,5799.0,1260.0,5424.0,1862.0,2734.0,2963.0,250.0,,,,-0.0824236475502815,-2.5410581889975,-0.344877001205641,,-8.032805792103185,,
,5801.0,1259.0,5423.0,1862.0,2738.0,2954.0,241.0,,,,-0.0822785768232227,-2.54078167014094,-0.344797419493179,,-8.166211665186143,,
,5803.0,1260.0,5425.0,1861.0,2740.0,2960.0,246.0,,,,-0.0822839394690615,-2.54085850406439,-0.345019704247928,,-8.273118592610961,,
,5803.0,1259.0,5427.0,1863.0,2751.0,2981.0,252.0,,,,-0.082351717288443,-2.54078684820333,-0.34416046843503,,-8.355604326662096,,
,5804.0,1259.0,5424.0,1865.0,2739.0,2995.0,250.0,,,,-0.0823060611579506,-2.54040609519578,-0.343710786304719,,-8.41497836129072,,
,5807.0,1264.0,5426.0,1867.0,2742.0,2974.0,233.0,,,,-0.082272903108969,-2.54023500758211,-0.344937116004917,,-8.451841927261878,,
,5808.0,1261.0,5429.0,1869.0,2747.0,2983.0,233.0,,,,-0.0822179109353532,-2.54071574187861,-0.343433504652945,,-8.466251376638429,,
,5810.0,1262.0,5429.0,1870.0,2749.0,2979.0,218.0,,,,-0.0823766497276158,-2.54084102124249,-0.343136286986723,,-8.457949549109808,,
,5809.0,1259.0,5428.0,1869.0,2744.0,2977.0,213.0,,,,-0.0823887583107232,-2.54079854886103,-0.343930362873766,,-8.426623233848105,,
,5811.0,1262.0,5430.0,1871.0,2756.0,2965.0,233.0,,,,-0.0823684016139303,-2.54059324519247,-0.343958160196329,,-8.372144636047723,,
,5816.0,1264.0,5430.0,1875.0,2747.0,2961.0,231.0,,,,-0.0823445133945414,-2.54080086876892,-0.342676376725391,,-8.294760639169775,,
,5817.0,1267.0,5434.0,1873.0,2758.0,2958.0,235.0,,,,-0.0823777014184917,-2.54034911753061,-0.343793895805251,,-8.195204033459767,,
,5819.0,1262.0,5432.0,1874.0,2753.0,2948.0,233.0,,,,-0.0822519419911463,-2.54058388642234,-0.343570561088793,,-8.07471336977266,,
,5819.0,1264.0,5431.0,1875.0,2734.0,2970.0,248.0,,,,-0.0822906112205168,-2.5402432784171,-0.34292974584304,,-7.934960476243883,,
,5823.0,1266.0,5435.0,1878.0,2754.0,2977.0,233.0,,,,-0.0823563861369547,-2.54060816648339,-0.343157713180678,,-7.7778955545937025,,
,5825.0,1266.0,5435.0,1880.0,2760.0,2988.0,227.0,,,,-0.082239166446648,-2.54054503521583,-0.343037294483789,,-7.60552863790853,,
,5825.0,1265.0,5436.0,1878.0,2762.0,2997.0,233.0,,,,-0.0822857985271202,-2.54037441313575,-0.344260183941636,,-7.419672991937793,,
,5827.0,1266.0,5438.0,1882.0,2771.0,2999.0,256.0,,,,-0.0821641084775317,-2.53980462072178,-0.34257022732598,,-7.221680660521557,,
,5829.0,1268.0,5436.0,1884.0,2745.0,2993.0,248.0,,,,-0.0822108723669761,-2.54044448536841,-0.343140230624328,,-7.012202279071115,,
,5830.0,1269.0,5440.0,1886.0,2740.0,2982.0,249.0,,,,-0.0820494348001003,-2.54015386743021,-0.343055558871447,,-6.791001688952914,,
,5830.0,1268.0,5438.0,1886.0,2727.0,2984.0,239.0,,,,-0.0819743075599818,-2.53996822220489,-0.342998819529932,,-6.556850202946109,,
,5831.0,1270.0,5437.0,1884.0,2753.0,2975.0,238.0,,,,-0.0820259481462962,-2.53989303090446,-0.341834057584512,,-6.307516015059099,,
,5829.0,1269.0,5436.0,1885.0,2744.0,2964.0,254.0,,,,-0.0820019666721326,-2.53981435481969,-0.342730590422335,,-6.039852990415653,,
,5829.0,1267.0,5432.0,1884.0,2737.0,2955.0,265.0,,,,-0.0819475861466686,-2.53974816271859,-0.341719634326075,,-5.749982413073653,,
,5828.0,1267.0,5430.0,1883.0,2720.0,2962.0,275.0,,,,-0.0818761965092363,-2.53926656489351,-0.341629831799084,,-5.43355302569645,,
,5821.0,1265.0,5424.0,1879.0,2704.0,2947.0,259.0,,,,-0.0819583330770974,-2.53920137784398,-0.341379522735462,,-5.08605904120058,,
,5824.0,1266.0,5417.0,1881.0,2713.0,2958.0,257.0,,,,-0.0817363574776827,-2.53889287756438,-0.341380478366367,,-4.703191870603135,,
,5818.0,1265.0,5411.0,1873.0,2716.0,2957.0,254.0,,,,-0.0817184399303539,-2.5388755427704,-0.340891023026801,,-4.281198704652413,,
,5816.0,1264.0,5410.0,1869.0,2714.0,2963.0,258.0,,,,-0.081734623414018,-2.53854022276967,-0.339930780100779,,-3.8172205780201782,,
,5813.0,1262.0,5401.0,1866.0,2720.0,2977.0,246.0,,,,-0.0816758729635157,-2.53821213503897,-0.340438941452081,,-3.309585141467832,,
,5808.0,1262.0,5394.0,1865.0,2734.0,2964.0,234.0,,,,-0.0818028198797836,-2.53817776391976,-0.339567393816699,,-2.7580349672879176,,
,5805.0,1263.0,5388.0,1864.0,2745.0,2968.0,229.0,,,,-0.0815846899864895,-2.53819087771759,-0.339067230812931,,-2.163879234411383,,
,5802.0,1261.0,5385.0,1859.0,2736.0,2962.0,239.0,,,,-0.0814681390891378,-2.53783810494484,-0.339839139728792,,-1.530062852440028,,
,5798.0,1259.0,5377.0,1859.0,2731.0,2970.0,251.0,,,,-0.0814387820532723,-2.53792549585254,-0.338757576229748,,-0.8611509117262345,,
,5793.0,1260.0,5372.0,1853.0,2748.0,2976.0,249.0,,,,-0.0816239773364008,-2.53801047730957,-0.339088185435973,,-0.1632277792220704,,
,5793.0,1261.0,5372.0,1851.0,2752.0,2980.0,237.0,,,,-0.0815019152630019,-2.53793659326587,-0.338802988478064,,0.5562892194871302,,
,5792.0,1259.0,5368.0,1850.0,2751.0,2981.0,237.0,,,,-0.0815594462480755,-2.53772344919674,-0.338355162557268,,1.2889195908624684,,
,5791.0,1259.0,5365.0,1851.0,2748.0,2987.0,240.0,,,,-0.0815511668445703,-2.53780221889834,-0.339868526853038,,2.0254663253764744,,
,5787.0,1258.0,5361.0,1846.0,2746.0,2995.0,185.0,,,,-0.0814896027767828,-2.53759041458117,-0.339271466779862,,2.7564258834802664,,
,5787.0,1258.0,5359.0,1848.0,2738.0,2972.0,203.0,,,,-0.0814340023321018,-2.53758381779417,-0.338684959422086,,3.4724403343147374,,
,5785.0,1260.0,5359.0,1848.0,2741.0,2988.0,221.0,,,,-0.0815544205782808,-2.5377816291549,-0.34035888772818,,4.164763446832787,,
,5786.0,1258.0,5359.0,1848.0,2739.0,3001.0,218.0,,,,-0.0816286476667368,-2.53759599634888,-0.339067179526712,,4.825706917909161,,
,5788.0,1260.0,5359.0,1849.0,2729.0,2992.0,224.0,,,,-0.0816904432441207,-2.53791812242049,-0.340477672401106,,5.449029372734819,,
,5787.0,1259.0,5354.0,1847.0,2748.0,2991.0,230.0,,,,-0.0815816937345531,-2.53762114330608,-0.339846316417613,,6.030230504496698,,
,5788.0,1258.0,5356.0,1850.0,2754.0,2966.0,213.0,,,,-0.0814979836783127,-2.53757572958087,-0.338496854427879,,6.566717463184366,,
,5789.0,1260.0,5357.0,1849.0,2743.0,2974.0,255.0,,,,-0.0815722465040137,-2.53755754336345,-0.3403078957718,,7.057821645856022,,
,5789.0,1259.0,5355.0,1850.0,2745.0,2971.0,238.0,,,,-0.08162636973437,-2.5373722042157,-0.338707374607998,,7.504660920554734,,
,5787.0,1261.0,5356.0,1851.0,2740.0,2974.0,214.0,,,,-0.081678132505759,-2.53746980211015,-0.339089488630422,,7.909862040615548,,
,5791.0,1262.0,5357.0,1852.0,2757.0,2985.0,244.0,,,,-0.081774443300125,-2.53734007112555,-0.339146536880083,,8.277175592463703,,
,5794.0,1263.0,5356.0,1856.0,2735.0,2984.0,233.0,,,,-0.0817196841597741,-2.53721215302402,-0.34057135345632,,8.611026409169057,,
,5798.0,1263.0,5358.0,1856.0,2727.0,2998.0,248.0,,,,-0.0816868457021222,-2.53762346406671,-0.339043298841494,,8.916043793996689,,
,5797.0,1261.0,5355.0,1854.0,2730.0,2994.0,265.0,,,,-0.0816065665210682,-2.5374138457776,-0.34003282863626,,9.196609586940475,,
,5797.0,1264.0,5357.0,1857.0,2723.0,2967.0,269.0,,,,-0.0815200645527217,-2.53698159998279,-0.338352758207191,,9.45645181279485,,
,5801.0,1268.0,5360.0,1856.0,2717.0,2978.0,290.0,,,,-0.0814595432289769,-2.53715566412094,-0.338727742303008,,9.698301204997364,,
,5801.0,1268.0,5358.0,1859.0,2716.0,2974.0,278.0,,,,-0.0814099974899651,-2.53604212004066,-0.338705184862377,,9.92361989802939,,
,5801.0,1265.0,5361.0,1858.0,2721.0,2976.0,285.0,,,,-0.0812368153852501,-2.536688553386,-0.337609148500355,,10.132407178497102,,
,5801.0,1267.0,5359.0,1863.0,2721.0,2956.0,272.0,,,,-0.0811685251370958,-2.53679658518097,-0.339079559497065,,10.323086428062954,,
,5802.0,1265.0,5355.0,1861.0,2733.0,2961.0,244.0,,,,-0.0812541678207078,-2.53689500987822,-0.339083825520274,,10.492479564239913,,
,5800.0,1264.0,5353.0,1860.0,2751.0,2960.0,248.0,,,,-0.0812415648919671,-2.53727433841986,-0.33825639753855,,10.63587894831903,,
,5804.0,1265.0,5357.0,1859.0,2762.0,2968.0,266.0,,,,-0.0813524807009696,-2.53697448328866,-0.338198264853131,,10.747229467695975,,
,5803.0,1269.0,5355.0,1861.0,2761.0,2976.0,262.0,,,,-0.0813124984667639,-2.53712156719285,-0.33761516765492,,10.819432073213203,,
,5798.0,1265.0,5352.0,1862.0,2745.0,2990.0,254.0,,,,-0.0813764011421249,-2.53693428613726,-0.337167786865206,,10.844771672185555,,
,5801.0,1267.0,5348.0,1862.0,2744.0,2968.0,254.0,,,,-0.0812497679261505,-2.5363957765004,-0.337678782478802,,10.815456581824327,,
,5803.0,1267.0,5351.0,1862.0,2750.0,2977.0,266.0,,,,-0.0811748517903816,-2.53688942624843,-0.336958719741546,,10.72423686201662,,
,5802.0,1267.0,5350.0,1860.0,2746.0,2979.0,242.0,,,,-0.0812915212743973,-2.5364453797023,-0.339394313194341,,10.565050200643155,,
,5801.0,1268.0,5346.0,1860.0,2745.0,2982.0,225.0,,,,-0.081256445663369,-2.53670542785576,-0.33771363656427,,10.333631635443604,,
,5803.0,1267.0,5348.0,1862.0,2751.0,2994.0,210.0,,,,-0.0813318274018662,-2.53667321234002,-0.336828494949406,,10.02801999259727,,
,5805.0,1267.0,5345.0,1862.0,2756.0,2979.0,201.0,,,,-0.0811850029772053,-2.53656218484071,-0.337785449683113,,9.64890011266337,,
,5804.0,1269.0,5341.0,1862.0,2756.0,2977.0,214.0,,,,-0.0812479091286338,-2.5370675498781,-0.338741861327107,,9.19973517074409,,
,5804.0,1267.0,5341.0,1860.0,2750.0,2968.0,229.0,,,,-0.0813367582537018,-2.53698341874578,-0.338087214534824,,8.686666221042781,,
,5805.0,1269.0,5342.0,1862.0,2746.0,2974.0,214.0,,,,-0.0812617556355604,-2.53702825960269,-0.339444681988438,,8.118183811891805,,
,5805.0,1268.0,5341.0,1864.0,2735.0,2972.0,226.0,,,,-0.0812527849986419,-2.53675435767262,-0.338789172612792,,7.50460515177274,,
,5805.0,1268.0,5338.0,1864.0,2740.0,2975.0,231.0,,,,-0.0812198606942059,-2.53678743512283,-0.338297333895099,,6.85741503753148,,
,5806.0,1270.0,5342.0,1863.0,2742.0,2959.0,255.0,,,,-0.0811326927511866,-2.53661325570546,-0.338207309175236,,6.188544712948908,,
,5806.0,1269.0,5338.0,1861.0,2727.0,2955.0,251.0,,,,-0.0811720994750851,-2.53646544858338,-0.337550478060359,,5.509666471298718,,
,5807.0,1269.0,5338.0,1865.0,2730.0,2963.0,242.0,,,,-0.0809753911933565,-2.53593162183587,-0.338599722666541,,4.8315726383682565,,
,5809.0,1271.0,5338.0,1862.0,2740.0,2982.0,255.0,,,,-0.0809571959374173,-2.53610721360861,-0.338440563117001,,4.163688780772642,,
,5807.0,1270.0,5337.0,1864.0,2736.0,2980.0,249.0,,,,-0.0809687670662346,-2.53596860922913,-0.337202158580292,,3.5137481483463557,,
,5810.0,1269.0,5336.0,1867.0,2738.0,2961.0,222.0,,,,-0.0809829960382117,-2.53558359526406,-0.338560569724667,,2.887632705312045,,
,5810.0,1271.0,5338.0,1866.0,2731.0,2952.0,234.0,,,,-0.0809394835813408,-2.53572653480137,-0.336950345950326,,2.2893685212304167,,
,5812.0,1272.0,5336.0,1867.0,2733.0,2951.0,255.0,,,,-0.0810172751821333,-2.53585694165657,-0.338562493693907,,1.7212504510257287,,
2025-07-17 15:57:52,5815.0,1271.0,5339.0,1868.0,2728.0,2948.0,261.0,,,2025/07/17 03:57:52 PM,-0.0810538091798538,-2.53562045563212,-0.336825742057323,,1.1840628242588538,,
,5815.0,1271.0,5337.0,1868.0,2723.0,2949.0,245.0,,,,-0.0810186145002603,-2.53563083662909,-0.338423250538119,,0.6773593663050911,,
,5814.0,1272.0,5338.0,1870.0,2747.0,2967.0,237.0,,,,-0.0809995348236876,-2.53532591072875,-0.336943378611824,,0.19976700853799756,,
,5817.0,1273.0,5340.0,1872.0,2755.0,2969.0,235.0,,,,-0.0809919972298839,-2.53559972925996,-0.338455539037059,,-0.25071559505059354,,
,5818.0,1273.0,5340.0,1873.0,2740.0,2976.0,239.0,,,,-0.0809168507787076,-2.53587375021843,-0.337099949544116,,-0.6764444589069394,,
,5818.0,1275.0,5341.0,1872.0,2739.0,2974.0,239.0,,,,-0.0809086097367797,-2.53594910542717,-0.337144610010572,,-1.079890927514438,,
,5821.0,1276.0,5340.0,1873.0,2757.0,2966.0,257.0,,,,-0.0809861461859251,-2.53599160631459,-0.337668520429989,,-1.4634383234654207,,
,5823.0,1275.0,5338.0,1874.0,2743.0,2969.0,253.0,,,,-0.080902746223273,-2.53574713413217,-0.337312767264051,,-1.8292132539079695,,
,5824.0,1277.0,5342.0,1876.0,2748.0,2970.0,235.0,,,,-0.0809321287117781,-2.53584295845035,-0.337253050835294,,-2.1789512645715647,,
,5827.0,1279.0,5343.0,1876.0,2753.0,2968.0,240.0,,,,-0.0809698449546371,-2.5359773960404,-0.337944908328683,,-2.5138992013610406,,
,5828.0,1275.0,5341.0,1877.0,2731.0,2960.0,230.0,,,,-0.0810808044596715,-2.53633923347327,-0.338316235109915,,-2.8347585477414983,,
,5829.0,1279.0,5342.0,1879.0,2734.0,2967.0,213.0,,,,-0.0810344122928327,-2.53677151252188,-0.336912818032635,,-3.1416739844423076,,
,5833.0,1279.0,5348.0,1881.0,2741.0,2961.0,225.0,,,,-0.0810338436525877,-2.53668788462324,-0.337640306741813,,-3.434269487838472,,
,5834.0,1280.0,5345.0,1882.0,2744.0,2960.0,242.0,,,,-0.0811837561787895,-2.53668448869295,-0.3380822104212,,-3.7117309426856853,,
,5836.0,1281.0,5347.0,1883.0,2745.0,2971.0,244.0,,,,-0.0812229274073347,-2.53690478913034,-0.33955560138668,,-3.9729299829586835,,
,5836.0,1280.0,5346.0,1883.0,2745.0,2989.0,241.0,,,,-0.0812510887861793,-2.53668859852986,-0.339058895674821,,-4.216579042737688,,
,5839.0,1280.0,5348.0,1886.0,2762.0,2994.0,241.0,,,,-0.0812165087871031,-2.53709305079682,-0.338564653178286,,-4.441402972812756,,
,5840.0,1283.0,5348.0,1888.0,2748.0,3013.0,236.0,,,,-0.0813124853936921,-2.5373209180246,-0.338201753856629,,-4.646308896928292,,
,5842.0,1283.0,5347.0,1885.0,2749.0,3011.0,254.0,,,,-0.0813591808958747,-2.53706707473797,-0.338582475490575,,-4.83053438431548,,
,5841.0,1279.0,5346.0,1887.0,2755.0,2996.0,254.0,,,,-0.0813329777867685,-2.53758156840414,-0.339709397482046,,-4.993755686409163,,
,5844.0,1284.0,5349.0,1890.0,2750.0,2988.0,254.0,,,,-0.0812795025000019,-2.53767236676011,-0.339958832655521,,-5.136143240468643,,
,5841.0,1281.0,5348.0,1890.0,2738.0,2973.0,255.0,,,,-0.0812860677060536,-2.53786715802616,-0.340690892000038,,-5.258359990367946,,
,5845.0,1284.0,5346.0,1890.0,2736.0,2967.0,248.0,,,,-0.081332260891269,-2.53802005529977,-0.339727257495729,,-5.361507146411733,,
,5843.0,1283.0,5346.0,1889.0,2735.0,2959.0,265.0,,,,-0.0812984084587319,-2.53773324677285,-0.341692216769978,,-5.447029475081339,,
,5844.0,1284.0,5342.0,1888.0,2731.0,2921.0,255.0,,,,-0.081254824251683,-2.53750267932786,-0.340746193885483,,-5.516596679701504,,
,5841.0,1283.0,5342.0,1886.0,2722.0,2909.0,242.0,,,,-0.0812323094408099,-2.53727765705559,-0.340229782976428,,-5.57197865580197,,
,5840.0,1284.0,5334.0,1884.0,2711.0,2928.0,263.0,,,,-0.0812369836658873,-2.53734803585105,-0.340812713266632,,-5.614930854690443,,
,5836.0,1281.0,5328.0,1883.0,2718.0,2922.0,256.0,,,,-0.0812836485532012,-2.53723699538576,-0.340148800613898,,-5.647102392245955,,
,5833.0,1279.0,5319.0,1876.0,2732.0,2964.0,247.0,,,,-0.0812804561585322,-2.5372705553351,-0.339538539611397,,-5.6699746156015625,,
,5827.0,1277.0,5315.0,1875.0,2730.0,2949.0,236.0,,,,-0.0812077816450904,-2.53768147766069,-0.340368138237184,,-5.684832230369231,,
,5828.0,1276.0,5308.0,1871.0,2720.0,2958.0,247.0,,,,-0.0812833310741492,-2.53733994109531,-0.340135510603704,,-5.692763450515815,,
,5822.0,1278.0,5302.0,1869.0,2726.0,2974.0,255.0,,,,-0.0813044831450718,-2.53707107166258,-0.339990820725607,,-5.694680824051298,,
,5814.0,1277.0,5297.0,1861.0,2742.0,3007.0,247.0,,,,-0.0813075141984045,-2.53794472752024,-0.339560492129805,,-5.691351535259391,,
,5812.0,1276.0,5291.0,1857.0,2764.0,2985.0,241.0,,,,-0.081456771792844,-2.5380286646693,-0.340026043615755,,-5.683426072023094,,
,5812.0,1277.0,5285.0,1856.0,2766.0,2977.0,234.0,,,,-0.0815126467754911,-2.53842118246917,-0.34146235727877,,-5.671457293618429,,
,5805.0,1278.0,5282.0,1856.0,2773.0,2973.0,228.0,,,,-0.0816087498894615,-2.53865257823424,-0.341688351652397,,-5.655907048230197,,
,5803.0,1275.0,5277.0,1854.0,2758.0,2971.0,225.0,,,,-0.081622335976668,-2.53878466915509,-0.342907460120855,,-5.637142760402969,,
,5804.0,1274.0,5273.0,1850.0,2761.0,2989.0,224.0,,,,-0.0817602850800925,-2.53946056539088,-0.343531069013621,,-5.615430243722642,,
,5801.0,1275.0,5272.0,1848.0,2756.0,2986.0,201.0,,,,-0.0818437646220211,-2.53978216136129,-0.343274343385717,,-5.590930616732622,,
,5801.0,1275.0,5271.0,1851.0,2757.0,2991.0,212.0,,,,-0.0819117459119242,-2.54016265398434,-0.342816382113255,,-5.5637086242001645,,
,5797.0,1277.0,5269.0,1849.0,2756.0,2988.0,205.0,,,,-0.081866844685779,-2.54036114511202,-0.344427504751019,,-5.533757354528966,,
,5797.0,1276.0,5267.0,1846.0,2752.0,2973.0,200.0,,,,-0.0820102583202212,-2.54006904863991,-0.344744366383329,,-5.501040904771579,,
,5800.0,1275.0,5269.0,1850.0,2752.0,2973.0,241.0,,,,-0.082056330442429,-2.54033545896198,-0.344241762186164,,-5.465552540898168,,
,5800.0,1277.0,5269.0,1847.0,2747.0,2967.0,220.0,,,,-0.0820178305352209,-2.54066005272899,-0.345585718448366,,-5.427381788865977,,
,5799.0,1277.0,5266.0,1849.0,2747.0,2970.0,229.0,,,,-0.0819650659195043,-2.5408648399981,-0.344583958296277,,-5.386780161727792,,
,5800.0,1277.0,5265.0,1848.0,2749.0,2980.0,244.0,,,,-0.0820136487811611,-2.54080135268564,-0.345460076041411,,-5.344212671291564,,
,5799.0,1279.0,5265.0,1850.0,2752.0,2963.0,244.0,,,,-0.0820389349432882,-2.54081105153808,-0.344642366096473,,-5.300381964927606,,
,5804.0,1277.0,5265.0,1849.0,2755.0,2958.0,253.0,,,,-0.0819678842320543,-2.54086904397927,-0.346469032137511,,-5.256214638182409,,
,5803.0,1278.0,5264.0,1849.0,2742.0,2960.0,260.0,,,,-0.0819462750660715,-2.54079187219872,-0.345806974242901,,-5.21280473371258,,
,5803.0,1278.0,5265.0,1853.0,2741.0,2964.0,260.0,,,,-0.0820806388894655,-2.54075193868649,-0.346971640684175,,-5.171316248486752,,
,5803.0,1278.0,5265.0,1849.0,2756.0,2987.0,248.0,,,,-0.0820595330834722,-2.54142098275307,-0.346318640809451,,-5.132852814879867,,
,5807.0,1279.0,5266.0,1853.0,2762.0,2959.0,240.0,,,,-0.0823232896898174,-2.54149576822532,-0.346578091697474,,-5.098307235740012,,
,5808.0,1282.0,5267.0,1855.0,2741.0,2969.0,228.0,,,,-0.0822097152440578,-2.54188809383631,-0.346436889153007,,-5.068205737993878,,
,5810.0,1280.0,5267.0,1857.0,2745.0,2964.0,228.0,,,,-0.0822535808362614,-2.54202831124737,-0.34696977290807,,-5.042561885171579,,
,5809.0,1281.0,5268.0,1856.0,2739.0,2954.0,243.0,,,,-0.0823460753185398,-2.54191246464016,-0.346471209725625,,-5.020753621066985,,
,5809.0,1282.0,5265.0,1856.0,2748.0,2954.0,259.0,,,,-0.0822429385729335,-2.54189018282877,-0.346974107455612,,-5.001434441833971,,
,5809.0,1283.0,5266.0,1854.0,2752.0,2953.0,247.0,,,,-0.0822421588428365,-2.54154259170329,-0.347147049530482,,-4.982486534082091,,
,5813.0,1283.0,5267.0,1858.0,2745.0,2968.0,240.0,,,,-0.0822033140490115,-2.54149911428588,-0.347053954519229,,-4.961020110768039,,
,5814.0,1284.0,5266.0,1858.0,2735.0,2992.0,242.0,,,,-0.0822533751174088,-2.54193494282601,-0.346561273286403,,-4.933419610824835,,
,5808.0,1282.0,5263.0,1855.0,2742.0,2995.0,237.0,,,,-0.0822580171374946,-2.54213687422939,-0.346683346666985,,-4.895434724849745,,
,5809.0,1282.0,5265.0,1861.0,2732.0,2980.0,246.0,,,,-0.0824837909850027,-2.54202601105922,-0.34741996736025,,-4.842313037466114,,
,5810.0,1283.0,5264.0,1860.0,2738.0,2952.0,229.0,,,,-0.0825212018375119,-2.5421838959664,-0.34817159205735,,-4.768971216464767,,
,5809.0,1283.0,5262.0,1857.0,2744.0,2954.0,240.0,,,,-0.0824591428322542,-2.54211278644539,-0.347432633017956,,-4.670201882461781,,
,5809.0,1283.0,5259.0,1856.0,2764.0,2952.0,225.0,,,,-0.0823666602202065,-2.54283695660913,-0.348429845738768,,-4.540912067109663,,
,5809.0,1281.0,5259.0,1857.0,2758.0,2962.0,213.0,,,,-0.0824078801356566,-2.54302617913297,-0.348765194422107,,-4.376385760315591,,
,5809.0,1285.0,5259.0,1855.0,2764.0,2976.0,223.0,,,,-0.0824935571255059,-2.54285926547193,-0.348645179465569,,-4.1725578541346575,,
,5807.0,1285.0,5256.0,1855.0,2769.0,2981.0,217.0,,,,-0.0825507253058103,-2.5431406347301,-0.347305518107112,,-3.9262811371269866,,
,5806.0,1284.0,5256.0,1855.0,2775.0,2962.0,205.0,,,,-0.0827895136131847,-2.54322325651605,-0.348541881545594,,-3.6355636083057625,,
,5806.0,1282.0,5252.0,1854.0,2769.0,2973.0,216.0,,,,-0.0829971112351579,-2.54365658588766,-0.348129149998648,,-3.2997518057384108,,
,5806.0,1284.0,5253.0,1853.0,2756.0,2985.0,216.0,,,,-0.0830529409712784,-2.54371153916617,-0.348766495607492,,-2.9196379432132247,,
,5808.0,1286.0,5253.0,1855.0,2763.0,2988.0,219.0,,,,-0.0830998649512308,-2.54405125461775,-0.348884721582682,,-2.497474442533845,,
,5808.0,1284.0,5252.0,1857.0,2755.0,2979.0,226.0,,,,-0.0832045086722351,-2.54390565958977,-0.350223806328684,,-2.036888318378951,,
,5803.0,1282.0,5248.0,1854.0,2734.0,2961.0,235.0,,,,-0.0831984507088725,-2.54440501589587,-0.35076339976597,,-1.542698741404096,,
,5806.0,1284.0,5248.0,1857.0,2727.0,2969.0,238.0,,,,-0.0831773752644295,-2.54444405543064,-0.350316350505176,,-1.0206523814893844,,
,5807.0,1284.0,5247.0,1856.0,2744.0,2972.0,255.0,,,,-0.0832117328802827,-2.54456936510104,-0.35003963637202,,-0.47710078085016927,,
,5808.0,1286.0,5249.0,1856.0,2734.0,2964.0,242.0,,,,-0.0832762066786889,-2.54459045885301,-0.351900985806329,,0.08134983719432796,,
,5805.0,1286.0,5249.0,1857.0,2738.0,2972.0,258.0,,,,-0.0832731053416272,-2.54468468753994,-0.351122638160252,,0.6481841769108938,,
,5807.0,1283.0,5248.0,1855.0,2735.0,2979.0,254.0,,,,-0.0833523205464719,-2.54464951548589,-0.351670799084122,,1.217289202291794,,
,5810.0,1285.0,5250.0,1857.0,2754.0,2979.0,221.0,,,,-0.0831378098609468,-2.5446974848768,-0.350729335913513,,1.7832072017009573,,
,5809.0,1288.0,5250.0,1859.0,2729.0,2979.0,225.0,,,,-0.0832400665162765,-2.54456538651407,-0.350892482159671,,2.3413144383005693,,
,5810.0,1286.0,5250.0,1859.0,2724.0,2989.0,227.0,,,,-0.0831520128387519,-2.544599673239,-0.350923925210882,,2.8879182737551297,,
,5808.0,1284.0,5247.0,1856.0,2744.0,2991.0,242.0,,,,-0.083153655204254,-2.54451774164539,-0.351869000236067,,3.4202750954400956,,
,5811.0,1286.0,5251.0,1860.0,2737.0,2973.0,246.0,,,,-0.0830976732171549,-2.54478951015716,-0.350505770691757,,3.93654034508524,,
,5810.0,1287.0,5251.0,1861.0,2742.0,2952.0,229.0,,,,-0.0831496221751297,-2.54468194281503,-0.350892193145287,,4.4356690724087,,
,5812.0,1284.0,5250.0,1860.0,2743.0,2943.0,223.0,,,,-0.0831397550749339,-2.54476954726032,-0.35160657318452,,4.917288902946128,,
,5812.0,1285.0,5253.0,1862.0,2754.0,2958.0,233.0,,,,-0.0831770540860646,-2.54459128146152,-0.350546945173078,,5.381565740633141,,
,5812.0,1289.0,5253.0,1863.0,2733.0,2978.0,235.0,,,,-0.0832585660649855,-2.54490360574562,-0.351233932157479,,5.82907619593644,,
,5814.0,1290.0,5251.0,1863.0,2735.0,2983.0,242.0,,,,-0.0833449113890439,-2.54506306562349,-0.351608338145055,,6.2606918025559235,,
,5817.0,1289.0,5255.0,1864.0,2742.0,2973.0,231.0,,,,-0.083330283870262,-2.54504868962413,-0.351276270556409,,6.677471508428681,,
,5816.0,1290.0,5252.0,1864.0,2758.0,3002.0,228.0,,,,-0.0833037615507592,-2.54537316284926,-0.352348200412948,,7.080553014566582,,
,5815.0,1289.0,5254.0,1865.0,2759.0,3000.0,237.0,,,,-0.0832788345952708,-2.54534024804412,-0.350389855095621,,7.471031357122144,,
,5815.0,1290.0,5256.0,1867.0,2745.0,2982.0,244.0,,,,-0.083262668146501,-2.54527013342182,-0.351210532923667,,7.849814769651949,,
,5816.0,1290.0,5257.0,1870.0,2739.0,2976.0,239.0,,,,-0.0834508603191844,-2.54561864274861,-0.351565597120013,,8.217452930862553,,
,5816.0,1289.0,5255.0,1866.0,2740.0,2968.0,241.0,,,,-0.0833363510511057,-2.54536338266798,-0.350880535013066,,8.573940590622328,,
,5817.0,1290.0,5257.0,1867.0,2741.0,2969.0,226.0,,,,-0.0833516046626564,-2.54557996831235,-0.351615550818867,,8.918509316943297,,
,5818.0,1290.0,5258.0,1870.0,2745.0,2954.0,220.0,,,,-0.0833673588388625,-2.54591735833767,-0.352169080673294,,9.249429967477695,,
,5819.0,1292.0,5260.0,1873.0,2753.0,2965.0,230.0,,,,-0.0834914781246679,-2.54609970179444,-0.352035658240654,,9.563855707971788,,
,5822.0,1294.0,5260.0,1871.0,2749.0,2965.0,240.0,,,,-0.0837386995994962,-2.54637909764376,-0.352097402511219,,9.857737006820349,,
,5822.0,1290.0,5262.0,1871.0,2749.0,2956.0,228.0,,,,-0.0836416790067628,-2.54648965128274,-0.351991757109036,,10.125834486383646,,
,5822.0,1292.0,5262.0,1873.0,2733.0,2968.0,258.0,,,,-0.0836905924638336,-2.54663069889972,-0.353463015618516,,10.361843842402612,,
,5824.0,1293.0,5263.0,1875.0,2759.0,2998.0,250.0,,,,-0.0836643414966666,-2.54683160504265,-0.352634227571364,,10.55863236162218,,
,5824.0,1295.0,5264.0,1875.0,2751.0,3003.0,235.0,,,,-0.0837222467591241,-2.54718936763649,-0.353611323815451,,10.708572366772001,,
,5826.0,1295.0,5266.0,1876.0,2756.0,2992.0,228.0,,,,-0.083815340961848,-2.54715737595441,-0.354385865614389,,10.803945665287877,,
,5823.0,1292.0,5265.0,1875.0,2758.0,2992.0,241.0,,,,-0.083993959930464,-2.54743399323019,-0.353502228541429,,10.837385912334069,,
,5824.0,1292.0,5264.0,1877.0,2740.0,2983.0,254.0,,,,-0.0840905058402704,-2.54772510160513,-0.354688815267464,,10.802323040597281,,
,5821.0,1292.0,5262.0,1876.0,2754.0,2981.0,249.0,,,,-0.08419124705169,-2.54795319711276,-0.355074197875233,,10.693395655040781,,
,5819.0,1293.0,5261.0,1875.0,2747.0,2967.0,259.0,,,,-0.0842786327963415,-2.54827144035107,-0.355563067958279,,10.506803376380999,,
,5818.0,1291.0,5258.0,1875.0,2710.0,2972.0,285.0,,,,-0.0843284010499845,-2.54846219131792,-0.356180120625156,,10.240580309574964,,
,5814.0,1289.0,5250.0,1873.0,2717.0,2970.0,266.0,,,,-0.084375730055158,-2.54857278394492,-0.355623865595279,,9.894780287438484,,
,5814.0,1290.0,5249.0,1868.0,2712.0,2961.0,277.0,,,,-0.0842885526742212,-2.54877105441108,-0.354882253774873,,9.471571009792271,,
,5807.0,1291.0,5244.0,1865.0,2704.0,2956.0,289.0,,,,-0.0843747519037851,-2.54820437981681,-0.354229110225923,,8.975236261709501,,
,5803.0,1288.0,5236.0,1862.0,2714.0,2961.0,281.0,,,,-0.0843777020820619,-2.54840210119348,-0.355779485600029,,8.412084708166955,,
,5798.0,1285.0,5229.0,1857.0,2723.0,2963.0,262.0,,,,-0.0844377146310173,-2.54832643195359,-0.355862830106687,,7.790263636789238,,
,5793.0,1285.0,5225.0,1853.0,2724.0,2983.0,239.0,,,,-0.0844248159669551,-2.54871195926117,-0.355786346561137,,7.119478860583012,,
,5788.0,1285.0,5218.0,1849.0,2731.0,2972.0,253.0,,,,-0.0847736992633106,-2.54920430992126,-0.355322062412257,,6.410628033602754,,
,5782.0,1283.0,5213.0,1846.0,2743.0,2961.0,252.0,,,,-0.0847442013144232,-2.54920680252796,-0.356354729007755,,5.6753625329345825,,
,5779.0,1280.0,5206.0,1841.0,2743.0,2974.0,266.0,,,,-0.0847740735621807,-2.5496038431809,-0.357040416025257,,4.92560108914021,,
,5775.0,1280.0,5203.0,1836.0,2741.0,2975.0,245.0,,,,-0.0847532698375116,-2.5494412737048,-0.35575661498313,,4.173025086035785,,
,5771.0,1281.0,5201.0,1835.0,2757.0,2991.0,228.0,,,,-0.0848318519094177,-2.55024293590556,-0.356349350094442,,3.4285899380654645,,
,5771.0,1283.0,5199.0,1837.0,2753.0,2989.0,215.0,,,,-0.0852706491219352,-2.55140772806168,-0.35747336975933,,2.702088551755264,,
,5766.0,1280.0,5195.0,1833.0,2738.0,2985.0,241.0,,,,-0.0854437206481841,-2.55229359192473,-0.358853000990614,,2.001800993375405,,
,5763.0,1280.0,5192.0,1832.0,2745.0,2985.0,254.0,,,,-0.085547586278773,-2.55265050142766,-0.358530771696585,,1.3342583904146907,,
,5760.0,1281.0,5194.0,1834.0,2737.0,2981.0,232.0,,,,-0.0857286427642518,-2.5530109657152,-0.359159317463192,,0.7041383867090895,,
,5761.0,1281.0,5193.0,1830.0,2739.0,2992.0,244.0,,,,-0.0858040722788385,-2.55295586191323,-0.359964722278256,,0.1142950861864652,,
,5758.0,1281.0,5192.0,1831.0,2738.0,2997.0,249.0,,,,-0.0858661870435652,-2.55335803723097,-0.358711578256334,,-0.43408903453755576,,
,5757.0,1280.0,5189.0,1830.0,2753.0,3002.0,240.0,,,,-0.0860001870106914,-2.55352755089619,-0.362185595007303,,-0.9412550935606429,,
,5757.0,1281.0,5194.0,1830.0,2741.0,2998.0,247.0,,,,-0.0862191780111345,-2.5535470898625,-0.36012712358193,,-1.4085583422502324,,
,5757.0,1280.0,5195.0,1830.0,2736.0,2989.0,248.0,,,,-0.0861609542401732,-2.55406196868975,-0.361850555879652,,-1.8381352991636855,,
2025-07-17 15:57:53,5755.0,1281.0,5192.0,1832.0,2737.0,2969.0,228.0,,,2025/07/17 03:57:53 PM,-0.0862437739533344,-2.55444725139696,-0.361928067249831,,-2.2325833935760664,,
,5756.0,1282.0,5194.0,1830.0,2752.0,2961.0,235.0,,,,-0.0864139070468654,-2.55451339966878,-0.362284912041643,,-2.594682334184622,,
,5753.0,1282.0,5191.0,1831.0,2744.0,2967.0,251.0,,,,-0.0863657666033271,-2.55478401049333,-0.36121834754968,,-2.9271765513113617,,
,5757.0,1283.0,5195.0,1833.0,2742.0,2963.0,237.0,,,,-0.0864725609557665,-2.55482706525108,-0.362429353643764,,-3.2326267358188003,,
,5755.0,1284.0,5193.0,1833.0,2753.0,2963.0,251.0,,,,-0.0865454348261757,-2.55504271753158,-0.361042474812815,,-3.5133274941966373,,
,5755.0,1283.0,5195.0,1833.0,2751.0,2957.0,270.0,,,,-0.0865512758920864,-2.55505850084515,-0.36127353374643,,-3.7712792440882943,,
,5756.0,1284.0,5194.0,1831.0,2720.0,2973.0,257.0,,,,-0.0867906794862892,-2.55506755706805,-0.362959051141977,,-4.00819731333858,,
,5755.0,1283.0,5196.0,1835.0,2730.0,2972.0,257.0,,,,-0.0869293021040691,-2.55527614147806,-0.363185913037226,,-4.225540640500894,,
,5758.0,1285.0,5199.0,1835.0,2742.0,2974.0,274.0,,,,-0.0868065013989921,-2.55541114171755,-0.362982753934828,,-4.424545954020624,,
,5759.0,1284.0,5203.0,1835.0,2745.0,2970.0,259.0,,,,-0.0870430249915088,-2.55536973785674,-0.362570205894709,,-4.606259006822274,,
,5758.0,1280.0,5200.0,1835.0,2730.0,2977.0,226.0,,,,-0.0870816375929923,-2.55560283874149,-0.363549062969628,,-4.771560257394962,,
,5757.0,1285.0,5200.0,1835.0,2721.0,2976.0,229.0,,,,-0.0869432155556189,-2.55543759395622,-0.361933274444464,,-4.921186859253109,,
,5756.0,1287.0,5202.0,1836.0,2711.0,2968.0,258.0,,,,-0.0868156643491664,-2.55543405335245,-0.363316456760522,,-5.055755336858884,,
,5758.0,1287.0,5201.0,1839.0,2713.0,2969.0,269.0,,,,-0.086865216479791,-2.55543810632519,-0.36346309340931,,-5.175789841094017,,
,5759.0,1286.0,5202.0,1838.0,2728.0,2990.0,256.0,,,,-0.0869024245688277,-2.55550769756834,-0.361698771184318,,-5.281759648260896,,
,5756.0,1285.0,5199.0,1835.0,2747.0,2974.0,250.0,,,,-0.0868145857014925,-2.55560945493115,-0.363920670920073,,-5.374127026750423,,
,5755.0,1285.0,5201.0,1839.0,2743.0,2988.0,235.0,,,,-0.0869053752815275,-2.5560151921869,-0.362503915638548,,-5.453403251358113,,
,5755.0,1286.0,5202.0,1839.0,2744.0,2975.0,255.0,,,,-0.0868895691297544,-2.55607990578858,-0.363399922358448,,-5.520206949249709,,
,5754.0,1286.0,5203.0,1840.0,2746.0,2976.0,250.0,,,,-0.0868521468359966,-2.55590982181632,-0.362610202027543,,-5.575315863648591,,
,5753.0,1284.0,5199.0,1834.0,2752.0,2964.0,238.0,,,,-0.0869950590480767,-2.55621034487976,-0.363234566720267,,-5.619701595397534,,
,5751.0,1286.0,5201.0,1833.0,2751.0,2974.0,255.0,,,,-0.0870119140185725,-2.55634385513946,-0.364335655167461,,-5.654537989977871,,
,5754.0,1286.0,5203.0,1836.0,2762.0,2977.0,241.0,,,,-0.0872427703173884,-2.55643289081959,-0.364853427586277,,-5.681177834620473,,
,5752.0,1288.0,5200.0,1837.0,2768.0,2968.0,237.0,,,,-0.0871798757599646,-2.55652624133098,-0.364718580988403,,-5.701098404929885,,
,5753.0,1285.0,5200.0,1839.0,2771.0,2970.0,224.0,,,,-0.0872503960743343,-2.55671152751417,-0.364346000865394,,-5.715822367678414,,
,5748.0,1285.0,5198.0,1837.0,2756.0,2970.0,253.0,,,,-0.0873896807634271,-2.55717540735057,-0.365362586026804,,-5.726825039792556,,
,5750.0,1287.0,5201.0,1835.0,2740.0,2979.0,238.0,,,,-0.0876497109692763,-2.55729114028176,-0.364380690672972,,-5.735441254848981,,
,5751.0,1286.0,5201.0,1835.0,2750.0,2991.0,226.0,,,,-0.0875851388226958,-2.557117791405,-0.365037940707603,,-5.7427850478727835,,
,5751.0,1286.0,5202.0,1838.0,2744.0,2985.0,232.0,,,,-0.0877391863588507,-2.55727316333141,-0.365947201453822,,-5.749693363698891,,
,5752.0,1287.0,5202.0,1836.0,2735.0,2993.0,231.0,,,,-0.0876545868484762,-2.55744455002614,-0.365952225451394,,-5.756701472692478,,
,5750.0,1287.0,5205.0,1838.0,2749.0,2981.0,227.0,,,,-0.0877751700796892,-2.55756857706798,-0.365015061902959,,-5.764053188280268,,
,5752.0,1291.0,5207.0,1838.0,2751.0,2968.0,240.0,,,,-0.0877878948385669,-2.55783751371589,-0.366210017747227,,-5.771743740451133,,
,5752.0,1290.0,5207.0,1838.0,2756.0,2967.0,244.0,,,,-0.0876687600871752,-2.55755095441197,-0.36745681840955,,-5.779587763431841,,
,5754.0,1288.0,5207.0,1837.0,2752.0,2972.0,236.0,,,,-0.0876416658363985,-2.55769855605201,-0.366509095471267,,-5.787300118189625,,
,5752.0,1288.0,5207.0,1840.0,2741.0,2965.0,229.0,,,,-0.0877790896182503,-2.55761969791921,-0.366312513500867,,-5.794574415055643,,
,5753.0,1289.0,5211.0,1840.0,2744.0,2960.0,239.0,,,,-0.0876758785160033,-2.55774278221006,-0.366745814987805,,-5.801144305421431,,
,5756.0,1289.0,5211.0,1838.0,2749.0,2947.0,247.0,,,,-0.0878009914846627,-2.55787126127233,-0.36704787567362,,-5.806816142756831,,
,5756.0,1290.0,5214.0,1840.0,2737.0,2939.0,242.0,,,,-0.0877439589458624,-2.55760267307455,-0.365236288927379,,-5.811467434606849,,
,5756.0,1290.0,5216.0,1842.0,2746.0,2960.0,226.0,,,,-0.0876787848373555,-2.55782406775196,-0.365723668321071,,-5.815011859017261,,
,5760.0,1293.0,5218.0,1842.0,2752.0,2957.0,242.0,,,,-0.0877312826588522,-2.55783289156461,-0.366636630208115,,-5.817336975867215,,
,5761.0,1294.0,5220.0,1846.0,2749.0,2946.0,237.0,,,,-0.0879726697606758,-2.55781494237998,-0.366678769332058,,-5.818224323826948,,
,5763.0,1291.0,5227.0,1845.0,2754.0,2953.0,246.0,,,,-0.0877906422721396,-2.55826686622841,-0.367702181769377,,-5.817263211063822,,
,5763.0,1290.0,5223.0,1845.0,2752.0,2968.0,239.0,,,,-0.0877765735322731,-2.55812396057211,-0.369037660433937,,-5.813769416854216,,
,5768.0,1292.0,5226.0,1846.0,2742.0,2972.0,239.0,,,,-0.0878616882100978,-2.55835528789085,-0.367694210514651,,-5.806718559415413,,
,5769.0,1294.0,5231.0,1849.0,2750.0,2976.0,223.0,,,,-0.0878355217104843,-2.55805498374939,-0.3671627254564,,-5.794701314740076,,
,5773.0,1292.0,5232.0,1852.0,2758.0,2983.0,240.0,,,,-0.0879013810890542,-2.55846149240962,-0.365410932200603,,-5.7759042504427764,,
,5772.0,1293.0,5232.0,1853.0,2737.0,2981.0,253.0,,,,-0.0878483753647313,-2.55837662474988,-0.367987224348781,,-5.748116362636128,,
,5775.0,1292.0,5234.0,1851.0,2742.0,2966.0,227.0,,,,-0.0878688673340016,-2.55857283223053,-0.366685823517312,,-5.708758617878946,,
,5777.0,1296.0,5237.0,1856.0,2763.0,2963.0,238.0,,,,-0.088090270723636,-2.55825514948874,-0.366771598780958,,-5.654933142188855,,
,5777.0,1296.0,5239.0,1858.0,2763.0,2981.0,231.0,,,,-0.0878305810169537,-2.55834704126172,-0.36603798940747,,-5.583490485182527,,
,5779.0,1293.0,5242.0,1856.0,2756.0,2958.0,241.0,,,,-0.0879061253350095,-2.55840125304231,-0.365525434212721,,-5.491116445769271,,
,5777.0,1296.0,5243.0,1856.0,2753.0,2961.0,216.0,,,,-0.087878857214693,-2.55858016780032,-0.367564452820066,,-5.374442188890009,,
,5782.0,1296.0,5244.0,1860.0,2750.0,2979.0,228.0,,,,-0.0879845318119201,-2.55842703036922,-0.367445342077871,,-5.230181080159944,,
,5784.0,1297.0,5250.0,1860.0,2753.0,2956.0,236.0,,,,-0.0880292864977399,-2.55850186929557,-0.36667636516492,,-5.055292326359654,,
,5785.0,1298.0,5251.0,1864.0,2745.0,2962.0,236.0,,,,-0.0880488124493667,-2.55885067385624,-0.367796272671055,,-4.847165915191693,,
,5787.0,1296.0,5249.0,1863.0,2758.0,2985.0,230.0,,,,-0.0881183355055038,-2.55937292630568,-0.368296043334497,,-4.603817036396414,,
,5787.0,1296.0,5253.0,1864.0,2748.0,2966.0,254.0,,,,-0.0881641954373072,-2.5591954519387,-0.369342274615619,,-4.324072778725606,,
,5791.0,1299.0,5257.0,1866.0,2744.0,2966.0,240.0,,,,-0.0881834555262696,-2.55913316390417,-0.368772592180495,,-4.007730638519353,,
,5790.0,1300.0,5258.0,1867.0,2751.0,2968.0,243.0,,,,-0.0882910705849243,-2.5591983851413,-0.368228662798385,,-3.655667846592693,,
,5791.0,1300.0,5258.0,1866.0,2764.0,2994.0,221.0,,,,-0.0882754464302736,-2.55941139452128,-0.370827555206337,,-3.269882975261968,,
,5794.0,1298.0,5261.0,1868.0,2751.0,2978.0,224.0,,,,-0.0882261756632896,-2.55951809245697,-0.36901418231709,,-2.8534569200163675,,
,5797.0,1300.0,5265.0,1871.0,2747.0,2976.0,225.0,,,,-0.0883490995111987,-2.55969970628086,-0.368422468624966,,-2.410429040537277,,
,5795.0,1301.0,5267.0,1875.0,2728.0,2985.0,247.0,,,,-0.0883946739769766,-2.55958657157075,-0.368810763336202,,-1.9455949070356917,,
,5795.0,1301.0,5266.0,1872.0,2736.0,2988.0,248.0,,,,-0.0882538971522555,-2.5596849892493,-0.369703602934031,,-1.4642425969531496,,
,5794.0,1300.0,5266.0,1871.0,2735.0,2995.0,242.0,,,,-0.0882865457414719,-2.5595240369771,-0.368969176899072,,-0.9718525821343105,,
,5794.0,1298.0,5264.0,1873.0,2734.0,2991.0,225.0,,,,-0.0882359486976983,-2.55944371863921,-0.368445022455935,,-0.4737906400100282,,
,5795.0,1300.0,5266.0,1869.0,2741.0,2984.0,241.0,,,,-0.0881013247589144,-2.55945332186433,-0.369200001395813,,0.024976270407777,,
,5791.0,1298.0,5262.0,1868.0,2742.0,2981.0,240.0,,,,-0.0881698975378442,-2.55947405080888,-0.368593564701748,,0.5201142509678192,,
,5790.0,1298.0,5254.0,1863.0,2748.0,2975.0,255.0,,,,-0.0881271700545669,-2.55915556753178,-0.367639332133042,,1.0080861131104575,,
,5784.0,1296.0,5256.0,1861.0,2723.0,2965.0,267.0,,,,-0.0880277123504293,-2.55928070026493,-0.368238613855015,,1.4862327965461521,,
,5780.0,1296.0,5249.0,1857.0,2740.0,2967.0,260.0,,,,-0.088070126614372,-2.55908047663119,-0.367948150636056,,1.9527721652439063,,
,5778.0,1295.0,5245.0,1854.0,2748.0,2967.0,279.0,,,,-0.0879863786634662,-2.55941527247682,-0.368352733652577,,2.4067265772651947,,
,5776.0,1292.0,5235.0,1849.0,2744.0,2952.0,274.0,,,,-0.0879965066956859,-2.55932553416224,-0.367711327297186,,2.847800360324571,,
,5768.0,1291.0,5234.0,1845.0,2762.0,2967.0,245.0,,,,-0.0882054584513098,-2.55931087332279,-0.369301022521084,,3.276233298860037,,
,5765.0,1291.0,5230.0,1844.0,2760.0,2938.0,247.0,,,,-0.088171944060869,-2.55923508548523,-0.367751430493015,,3.6926551364214584,,
,5760.0,1292.0,5227.0,1840.0,2753.0,2947.0,259.0,,,,-0.0882363591581623,-2.55934268780004,-0.367508533781757,,4.097959845857495,,
,5757.0,1291.0,5223.0,1840.0,2742.0,2959.0,247.0,,,,-0.0882485288826505,-2.55929052234684,-0.368784276215702,,4.493209462393849,,
,5755.0,1287.0,5220.0,1833.0,2750.0,2947.0,251.0,,,,-0.0883024738600144,-2.55924126280123,-0.368409086151298,,4.879568037017998,,
,5754.0,1288.0,5220.0,1836.0,2771.0,2944.0,246.0,,,,-0.0882875042833935,-2.55941008495517,-0.367907736037026,,5.258258273075588,,
,5752.0,1289.0,5221.0,1833.0,2778.0,2938.0,229.0,,,,-0.0884097983370822,-2.55957239360977,-0.369011952489134,,5.630527500138297,,
,5750.0,1290.0,5219.0,1834.0,2775.0,2936.0,241.0,,,,-0.088452827998003,-2.55953530555782,-0.367784700561214,,5.997606627427544,,
,5746.0,1290.0,5217.0,1831.0,2761.0,2969.0,247.0,,,,-0.088482653767732,-2.55955987914122,-0.368671486224879,,6.360646568224531,,
,5747.0,1287.0,5220.0,1832.0,2763.0,2992.0,214.0,,,,-0.0883965806374135,-2.55999140801954,-0.367642331393174,,6.720621850241783,,
,5748.0,1289.0,5219.0,1833.0,2762.0,2997.0,208.0,,,,-0.0884005633572079,-2.55972185746598,-0.369165620908546,,7.0781998821185885,,
,5746.0,1291.0,5222.0,1833.0,2755.0,3002.0,212.0,,,,-0.0884241970038977,-2.55982166622676,-0.370007070794621,,7.433584116062894,,
,5745.0,1288.0,5222.0,1833.0,2746.0,2980.0,208.0,,,,-0.0884568223634845,-2.55998420541505,-0.370036960625522,,7.786346863312108,,
,5745.0,1288.0,5223.0,1830.0,2768.0,2995.0,232.0,,,,-0.0884123527080574,-2.56008554693812,-0.369514766453313,,8.135270606631464,,
,5745.0,1290.0,5225.0,1834.0,2756.0,2979.0,233.0,,,,-0.088783658528641,-2.55992129161295,-0.371668890764307,,8.478215465648214,,
,5748.0,1289.0,5227.0,1834.0,2750.0,2976.0,230.0,,,,-0.0886749970066629,-2.56036238471745,-0.372202022274749,,8.812026876687801,,
,5746.0,1289.0,5228.0,1834.0,2750.0,2960.0,237.0,,,,-0.0888277363834486,-2.56042797051244,-0.370924150873672,,9.132493449735914,,
,5747.0,1289.0,5227.0,1835.0,2739.0,2940.0,257.0,,,,-0.088750701945519,-2.56072869292411,-0.371523248511861,,9.434361371074154,,
,5749.0,1288.0,5229.0,1837.0,2746.0,2934.0,256.0,,,,-0.0889163765057958,-2.56060380879212,-0.373227272844869,,9.711409094239727,,
,5749.0,1291.0,5231.0,1838.0,2750.0,2978.0,232.0,,,,-0.0887828428213744,-2.56034020068096,-0.37137019367858,,9.956584817231011,,
,5750.0,1290.0,5231.0,1842.0,2751.0,2982.0,233.0,,,,-0.0886002442995792,-2.56040375064923,-0.371149475572539,,10.16220949330317,,
,5751.0,1290.0,5233.0,1841.0,2751.0,2971.0,245.0,,,,-0.0885803461015102,-2.56019670967579,-0.372442205126953,,10.320249060982848,,
,5749.0,1291.0,5234.0,1838.0,2735.0,2959.0,254.0,,,,-0.0885250214069426,-2.56046190195061,-0.371087480916697,,10.422659308875401,,
,5751.0,1295.0,5239.0,1844.0,2739.0,2962.0,247.0,,,,-0.0885366835044666,-2.56053821300898,-0.371681326258306,,10.461802837643342,,
,5756.0,1291.0,5238.0,1842.0,2734.0,2965.0,243.0,,,,-0.0885114444750135,-2.56065947641447,-0.371566367675626,,10.430928033332222,,
,5754.0,1294.0,5241.0,1843.0,2733.0,2967.0,237.0,,,,-0.0885747698798183,-2.5607628815755,-0.370694766462289,,10.324685040131474,,
,5751.0,1294.0,5237.0,1843.0,2730.0,2959.0,235.0,,,,-0.088527529762813,-2.56073557188951,-0.37135442095088,,10.139636658388765,,
,5754.0,1291.0,5242.0,1844.0,2737.0,2966.0,243.0,,,,-0.0884970993273378,-2.56070922298128,-0.372451783153328,,9.874708092150014,,
,5753.0,1294.0,5241.0,1843.0,2738.0,2959.0,241.0,,,,-0.0884298725527604,-2.56061286109678,-0.370140366143222,,9.53151326657593,,
,5754.0,1292.0,5243.0,1845.0,2740.0,2947.0,254.0,,,,-0.0884057002138489,-2.56052072309692,-0.372127929347687,,9.114499642915288,,
,5750.0,1292.0,5245.0,1843.0,2734.0,2934.0,262.0,,,,-0.0883733577695814,-2.56018807753486,-0.370856079240753,,8.630868489018232,,
,5750.0,1291.0,5243.0,1845.0,2752.0,2957.0,270.0,,,,-0.0884168023260496,-2.56046994904606,-0.37213905135714,,8.090252107316926,,
,5752.0,1291.0,5244.0,1844.0,2750.0,2977.0,253.0,,,,-0.088498563116745,-2.56044394228074,-0.370601426902955,,7.504160634162026,,
,5752.0,1292.0,5245.0,1843.0,2757.0,2983.0,243.0,,,,-0.0885614152619952,-2.56066388888766,-0.371209879032737,,6.885244045031733,,
,5750.0,1292.0,5243.0,1846.0,2760.0,2992.0,240.0,,,,-0.0883907106811185,-2.56073794525278,-0.374252281811042,,6.246444002894858,,
,5751.0,1292.0,5246.0,1844.0,2756.0,2992.0,238.0,,,,-0.0884375704821808,-2.56042745489471,-0.371759864774908,,5.6001291191327205,,
,5751.0,1291.0,5243.0,1844.0,2746.0,2994.0,225.0,,,,-0.0884709070513533,-2.56060568918367,-0.373213908065122,,4.957311427126985,,
,5751.0,1293.0,5243.0,1843.0,2743.0,2980.0,254.0,,,,-0.0884580345358585,-2.56057000659627,-0.372729861290973,,4.327029829583705,,
,5746.0,1291.0,5242.0,1845.0,2737.0,2976.0,255.0,,,,-0.0887072760669961,-2.56090154129941,-0.372410188205629,,3.7159605449257156,,
,5746.0,1290.0,5239.0,1841.0,2750.0,2983.0,244.0,,,,-0.0884807219308175,-2.56091626773574,-0.370649069765983,,3.128281300263056,,
,5746.0,1290.0,5246.0,1843.0,2732.0,2976.0,227.0,,,,-0.0884271891214576,-2.56110878879038,-0.372009356828112,,2.5657825084419144,,
,5748.0,1290.0,5245.0,1845.0,2744.0,2980.0,248.0,,,,-0.0885852544915971,-2.56113679365865,-0.372230340957389,,2.028190591026765,,
,5746.0,1290.0,5243.0,1845.0,2749.0,2981.0,249.0,,,,-0.0884929521987522,-2.56125246162363,-0.371620212473709,,1.513648730100314,,
,5749.0,1289.0,5243.0,1845.0,2743.0,2957.0,268.0,,,,-0.0886157220183479,-2.56121293113474,-0.373645150909736,,1.019289141402541,,
,5746.0,1290.0,5244.0,1841.0,2754.0,2960.0,247.0,,,,-0.0888062534263178,-2.56161692438703,-0.373981577376793,,0.5418279622120877,,
,5747.0,1292.0,5244.0,1845.0,2750.0,2958.0,256.0,,,,-0.0888221990383748,-2.56148826683574,-0.374062906571557,,0.07811830628454165,,
,5745.0,1289.0,5245.0,1846.0,2738.0,2977.0,261.0,,,,-0.0888402165965597,-2.5618088548216,-0.373619652775207,,-0.37439194399509396,,
,5747.0,1289.0,5246.0,1847.0,2743.0,2966.0,269.0,,,,-0.0888897019200317,-2.56194858644755,-0.376465786414219,,-0.8173348171370278,,
,5746.0,1290.0,5248.0,1847.0,2733.0,2973.0,252.0,,,,-0.0887207483227488,-2.56203684349616,-0.374824508741923,,-1.2512473843640033,,
,5749.0,1290.0,5247.0,1846.0,2742.0,2974.0,225.0,,,,-0.0888956809170989,-2.56200627552985,-0.375732429265616,,-1.6755461854156697,,
,5751.0,1292.0,5249.0,1846.0,2743.0,2971.0,240.0,,,,-0.0889471859019069,-2.56231640661228,-0.375535391779605,,-2.0886339620967473,,
,5750.0,1290.0,5254.0,1850.0,2744.0,2970.0,245.0,,,,-0.0887414734671493,-2.56234349886254,-0.375600490040027,,-2.4881111835271725,,
,5749.0,1292.0,5252.0,1849.0,2750.0,2969.0,228.0,,,,-0.0889325315973523,-2.56239660779656,-0.376198571167706,,-2.8710596243689572,,
,5751.0,1290.0,5256.0,1850.0,2749.0,2959.0,234.0,,,,-0.0891162517117231,-2.56247776107645,-0.375492590054589,,-3.2343639829530613,,
,5752.0,1292.0,5257.0,1852.0,2749.0,2951.0,237.0,,,,-0.08924359543823,-2.56265478525171,-0.376149803398069,,-3.575038783253656,,
,5754.0,1294.0,5259.0,1852.0,2743.0,2944.0,229.0,,,,-0.0894132030486202,-2.56266611600904,-0.377012751818728,,-3.890530906760181,,
2025-07-17 15:57:54,5755.0,1293.0,5257.0,1854.0,2748.0,2945.0,269.0,,,2025/07/17 03:57:54 PM,-0.0894872449395475,-2.56283135094531,-0.375958821225669,,-4.178972861679264,,
,5754.0,1290.0,5259.0,1851.0,2751.0,2963.0,271.0,,,,-0.0892450871330067,-2.56271593904213,-0.376137456621001,,-4.439367995430786,,
,5754.0,1291.0,5265.0,1857.0,2757.0,2969.0,259.0,,,,-0.0893606239086288,-2.56306866497518,-0.37615480119515,,-4.671695613976109,,
,5756.0,1294.0,5264.0,1857.0,2749.0,2967.0,255.0,,,,-0.0894157327349567,-2.56302916623969,-0.377054488392842,,-4.876930627257678,,
,5760.0,1294.0,5266.0,1859.0,2756.0,2967.0,255.0,,,,-0.0894441388505414,-2.563170454232,-0.376286890292859,,-5.056978441136549,,
,5757.0,1292.0,5265.0,1857.0,2770.0,2966.0,247.0,,,,-0.0896325171116603,-2.56342451614535,-0.379047407428694,,-5.214531446936033,,
,5760.0,1293.0,5269.0,1861.0,2749.0,2986.0,243.0,,,,-0.0896249000048229,-2.56334361481384,-0.377600025127776,,-5.352859077228275,,
,5762.0,1295.0,5270.0,1860.0,2758.0,2984.0,243.0,,,,-0.0896194788493148,-2.56334731331587,-0.377923986934536,,-5.475549220033066,,
,5760.0,1294.0,5272.0,1860.0,2763.0,2978.0,245.0,,,,-0.0895820514868199,-2.56371477835787,-0.37780859273857,,-5.586224196348235,,
,5760.0,1294.0,5272.0,1864.0,2746.0,2964.0,250.0,,,,-0.0897359737729135,-2.563699853018,-0.377840445389071,,-5.688258139617398,,
,5761.0,1295.0,5274.0,1862.0,2751.0,2967.0,255.0,,,,-0.0896073823738759,-2.56382397361575,-0.376510539997608,,-5.784523151921229,,
,5764.0,1293.0,5276.0,1864.0,2750.0,2984.0,232.0,,,,-0.0896256878905384,-2.56427352323376,-0.378368090368733,,-5.877188547948984,,
,5765.0,1296.0,5276.0,1866.0,2745.0,2991.0,231.0,,,,-0.0897717740836229,-2.5640361610967,-0.37805841792069,,-5.967591269314224,,
,5767.0,1297.0,5278.0,1866.0,2748.0,2980.0,231.0,,,,-0.0897715713908492,-2.56389593922742,-0.378380971433048,,-6.056187178590217,,
,5762.0,1295.0,5277.0,1865.0,2741.0,2966.0,240.0,,,,-0.0896981018505789,-2.56382045105963,-0.378375225586575,,-6.142583668194116,,
,5768.0,1296.0,5282.0,1867.0,2752.0,2961.0,271.0,,,,-0.0897669540753064,-2.56426101465073,-0.378067671193276,,-6.225645084790216,,
,5770.0,1295.0,5283.0,1871.0,2748.0,2956.0,265.0,,,,-0.0898257310855638,-2.5639789574138,-0.379126756195225,,-6.303654957109531,,
,5767.0,1297.0,5287.0,1870.0,2743.0,2957.0,242.0,,,,-0.0898504679389593,-2.56420725073398,-0.378637635905694,,-6.374513802591244,,
,5768.0,1295.0,5287.0,1871.0,2732.0,2962.0,249.0,,,,-0.0897594159416663,-2.56408579205436,-0.378939268000273,,-6.435949099442437,,
,5770.0,1295.0,5286.0,1873.0,2733.0,2981.0,245.0,,,,-0.0899873712692734,-2.56448488271982,-0.377101806541115,,-6.485715269984922,,
,5772.0,1294.0,5287.0,1872.0,2736.0,2987.0,255.0,,,,-0.0899104357038231,-2.56425183829877,-0.379074356721457,,-6.521765933580971,,
,5771.0,1297.0,5290.0,1874.0,2750.0,2989.0,249.0,,,,-0.0899148935578515,-2.56441903057797,-0.378432102397042,,-6.5423870561589865,,
,5769.0,1297.0,5288.0,1876.0,2740.0,2999.0,257.0,,,,-0.0898754673743689,-2.5642149382634,-0.377360499795286,,-6.546286323736506,,
,5768.0,1295.0,5289.0,1873.0,2741.0,2999.0,245.0,,,,-0.0899994400430476,-2.56442307182565,-0.378349764539403,,-6.532639770899048,,
,5770.0,1297.0,5286.0,1871.0,2721.0,2994.0,230.0,,,,-0.0899176406661821,-2.56429657779413,-0.378339617769178,,-6.501100699835533,,
,5766.0,1295.0,5284.0,1870.0,2712.0,2982.0,229.0,,,,-0.0899717020825493,-2.56433391890349,-0.380985640403358,,-6.451778052715756,,
,5762.0,1294.0,5279.0,1868.0,2724.0,2971.0,235.0,,,,-0.089851172248885,-2.56444387360202,-0.378917829238048,,-6.385191800968664,,
,5758.0,1290.0,5274.0,1866.0,2731.0,2989.0,259.0,,,,-0.0897605786770847,-2.5642347154867,-0.37900696667047,,-6.302211939845621,,
,5753.0,1291.0,5271.0,1863.0,2722.0,2976.0,268.0,,,,-0.0897727785441867,-2.56407522104284,-0.377923159544309,,-6.203985786435436,,
,5751.0,1291.0,5264.0,1858.0,2714.0,2988.0,274.0,,,,-0.0897422538894237,-2.56412858029591,-0.376940070061803,,-6.091856044558096,,
,5744.0,1288.0,5258.0,1854.0,2712.0,2985.0,275.0,,,,-0.0897001926471393,-2.56418702762596,-0.376969566097681,,-5.967270308697544,,
,5737.0,1287.0,5251.0,1851.0,2713.0,2966.0,255.0,,,,-0.089796076990573,-2.56405188366132,-0.378047754240038,,-5.8316822907820764,,
,5734.0,1287.0,5246.0,1844.0,2712.0,2972.0,256.0,,,,-0.0896065233860793,-2.56395538205855,-0.376021788976282,,-5.686446709323531,,
,5731.0,1286.0,5240.0,1840.0,2736.0,2957.0,245.0,,,,-0.0897594261204516,-2.56398562506758,-0.377751768597834,,-5.532713162710086,,
,5726.0,1288.0,5236.0,1837.0,2742.0,2965.0,256.0,,,,-0.0897086421238972,-2.56389645028103,-0.375487959326701,,-5.371328072060917,,
,5720.0,1283.0,5234.0,1835.0,2750.0,2964.0,238.0,,,,-0.0896999144989993,-2.56389606478019,-0.376993085225018,,-5.202756262077007,,
,5717.0,1283.0,5229.0,1831.0,2731.0,2978.0,242.0,,,,-0.0896769398589916,-2.56367133613091,-0.376010798038184,,-5.027033848209615,,
,5717.0,1285.0,5228.0,1832.0,2752.0,2971.0,227.0,,,,-0.08953868993946,-2.56352701068539,-0.376898997228625,,-4.843761634397189,,
,5713.0,1283.0,5226.0,1833.0,2745.0,2956.0,227.0,,,,-0.0896600970438689,-2.56343606907475,-0.375408070330078,,-4.652143724769911,,
,5710.0,1284.0,5227.0,1829.0,2740.0,2949.0,232.0,,,,-0.0895660898286531,-2.56370048237641,-0.375488940617453,,-4.451070334446877,,
,5709.0,1284.0,5227.0,1826.0,2747.0,2975.0,245.0,,,,-0.0896045655802952,-2.56400242450175,-0.37592975799827,,-4.239237670992244,,
,5706.0,1283.0,5226.0,1828.0,2750.0,2975.0,265.0,,,,-0.0896370725193507,-2.56378014000551,-0.375199365312349,,-4.015292062165648,,
,5708.0,1284.0,5226.0,1827.0,2762.0,2978.0,230.0,,,,-0.08949865725661,-2.56402118592513,-0.375590432734315,,-3.777981246299534,,
,5706.0,1281.0,5226.0,1828.0,2751.0,2971.0,230.0,,,,-0.0897124218944885,-2.5636827613197,-0.375724984452075,,-3.526294194382637,,
,5705.0,1282.0,5224.0,1828.0,2751.0,2983.0,260.0,,,,-0.0896098480038858,-2.56397971730913,-0.375239188638213,,-3.2595729765210786,,
,5705.0,1281.0,5224.0,1830.0,2755.0,3000.0,250.0,,,,-0.0896297480659438,-2.56367066074007,-0.376157454748666,,-2.9775858262570463,,
,5704.0,1282.0,5229.0,1828.0,2741.0,3009.0,238.0,,,,-0.0896056986358231,-2.56381160026548,-0.377043798164035,,-2.6805580887476057,,
,5703.0,1285.0,5228.0,1829.0,2746.0,3000.0,238.0,,,,-0.0896724635751186,-2.56398247467502,-0.376506744944256,,-2.369164963243616,,
,5702.0,1282.0,5230.0,1828.0,2733.0,2983.0,226.0,,,,-0.0897109084477028,-2.56357831301079,-0.374599356946293,,-2.0444951918981427,,
,5703.0,1280.0,5227.0,1828.0,2733.0,2948.0,243.0,,,,-0.0896054832399852,-2.56367780200128,-0.375813888919941,,-1.707997423411269,,
,5705.0,1283.0,5234.0,1832.0,2735.0,2971.0,239.0,,,,-0.0896210693461891,-2.56370559528422,-0.376213356116297,,-1.361420952318397,,
,5705.0,1287.0,5234.0,1833.0,2742.0,2982.0,251.0,,,,-0.0896191748417707,-2.56378790991898,-0.375174517904446,,-1.0067602962377953,,
,5705.0,1285.0,5235.0,1834.0,2742.0,2981.0,252.0,,,,-0.0896491675035475,-2.56387405436607,-0.37585518891042,,-0.6462091252138625,,
,5707.0,1283.0,5234.0,1833.0,2728.0,2994.0,251.0,,,,-0.089649867250781,-2.56374888094961,-0.375308675405532,,-0.2821240025156809,,
,5705.0,1283.0,5238.0,1836.0,2732.0,2983.0,257.0,,,,-0.0895742447764125,-2.56403751317802,-0.376373569319813,,0.08300685588388362,,
,5709.0,1285.0,5237.0,1836.0,2740.0,2991.0,253.0,,,,-0.089526075036461,-2.5638122148483,-0.375770522031002,,0.446598609545778,,
,5707.0,1283.0,5238.0,1838.0,2736.0,2987.0,252.0,,,,-0.0895349869767763,-2.56367681514662,-0.376527407577598,,0.8060185075380658,,
,5704.0,1283.0,5236.0,1835.0,2733.0,2985.0,287.0,,,,-0.0896111449684794,-2.56369699931825,-0.37624413025825,,1.158655429196445,,
,5708.0,1283.0,5241.0,1836.0,2731.0,2976.0,277.0,,,,-0.0894640753566954,-2.5634099830869,-0.375012992040207,,1.5020115613293692,,
,5705.0,1284.0,5239.0,1835.0,2726.0,2971.0,271.0,,,,-0.0893832179808555,-2.563273864533,-0.373660992287969,,1.833810826810208,,
,5706.0,1283.0,5239.0,1838.0,2727.0,2966.0,286.0,,,,-0.0893800647044732,-2.56341611462528,-0.374576824116642,,2.1521133771526655,,
,5705.0,1284.0,5238.0,1838.0,2740.0,2974.0,295.0,,,,-0.0892945235263451,-2.56327422545601,-0.374281228312895,,2.455422690973947,,
,5702.0,1281.0,5238.0,1837.0,2739.0,2976.0,293.0,,,,-0.0894367903830964,-2.56327025104267,-0.3741771362409,,2.742771573380753,,
,5703.0,1283.0,5236.0,1836.0,2740.0,2966.0,302.0,,,,-0.0894537387319733,-2.56315230850347,-0.374675307035552,,3.0137751625022746,,
,5705.0,1284.0,5239.0,1838.0,2744.0,2983.0,257.0,,,,-0.0893949568874306,-2.56311123170259,-0.373663268651472,,3.2686425833641746,,
,5705.0,1285.0,5238.0,1835.0,2740.0,2979.0,255.0,,,,-0.0895472442975511,-2.56323960510555,-0.373090407067595,,3.5081440264347505,,
,5701.0,1282.0,5239.0,1835.0,2741.0,2957.0,251.0,,,,-0.089536799276344,-2.56320780006249,-0.373466058129748,,3.733536461171563,,
,5703.0,1281.0,5237.0,1836.0,2737.0,2971.0,249.0,,,,-0.0894976123343584,-2.56335221388263,-0.372855383168134,,3.9464578446877874,,
,5702.0,1284.0,5238.0,1837.0,2744.0,2981.0,251.0,,,,-0.0896070506847012,-2.56339333591112,-0.37413791625243,,4.148804563632133,,
,5703.0,1284.0,5239.0,1838.0,2737.0,2967.0,245.0,,,,-0.0895520501386057,-2.56367287552162,-0.373454187469775,,4.342607949429545,,
,5702.0,1284.0,5239.0,1836.0,2743.0,2980.0,243.0,,,,-0.0894633609815421,-2.56380054673087,-0.374310377374473,,4.52992249449016,,
,5697.0,1280.0,5238.0,1836.0,2755.0,2983.0,246.0,,,,-0.0895470564504029,-2.56368244472461,-0.374419032323146,,4.712732344741996,,
,5701.0,1283.0,5240.0,1839.0,2750.0,2991.0,227.0,,,,-0.089648807527732,-2.56388724113339,-0.37411663395333,,4.89287618332002,,
,5699.0,1284.0,5240.0,1838.0,2760.0,2988.0,256.0,,,,-0.0897794954792414,-2.56405761593573,-0.374586599110366,,5.071985704187255,,
,5699.0,1282.0,5239.0,1838.0,2758.0,2984.0,273.0,,,,-0.0898546265481711,-2.56394456143463,-0.375224046953807,,5.251430475734332,,
,5699.0,1282.0,5235.0,1835.0,2742.0,2976.0,261.0,,,,-0.0898227806212525,-2.56386906467927,-0.375250025487615,,5.4322623537506765,,
,5698.0,1284.0,5238.0,1837.0,2735.0,2975.0,272.0,,,,-0.0897770666720123,-2.5640030991169,-0.375134909393547,,5.615155471221957,,
,5697.0,1283.0,5239.0,1837.0,2745.0,2950.0,256.0,,,,-0.0897926650214666,-2.56399098053924,-0.375039524431126,,5.80034255498192,,
,5702.0,1284.0,5238.0,1839.0,2750.0,2949.0,256.0,,,,-0.0898254601546927,-2.56399633355326,-0.373844155819826,,5.987553873412216,,
,5701.0,1282.0,5238.0,1838.0,2744.0,2962.0,278.0,,,,-0.0897213542983575,-2.5640195069579,-0.374416874596714,,6.175970000264561,,
,5701.0,1284.0,5241.0,1838.0,2729.0,2962.0,291.0,,,,-0.0896770938135127,-2.56357307697851,-0.374742902012611,,6.364201765291952,,
,5701.0,1285.0,5239.0,1842.0,2734.0,2951.0,257.0,,,,-0.0896449337496312,-2.56360676160612,-0.374222108541539,,6.5503084719128735,,
,5703.0,1285.0,5242.0,1843.0,2732.0,2959.0,277.0,,,,-0.089681902747496,-2.56355596610946,-0.374430013658471,,6.731858605606977,,
,5703.0,1285.0,5244.0,1844.0,2721.0,2968.0,266.0,,,,-0.0895504896018302,-2.56342046986566,-0.373300207189601,,6.906028047432291,,
,5703.0,1285.0,5242.0,1842.0,2752.0,2980.0,251.0,,,,-0.0895869153124018,-2.56323782973552,-0.373210078932841,,7.069722532193071,,
,5704.0,1285.0,5246.0,1845.0,2753.0,2987.0,275.0,,,,-0.0895042382352245,-2.56303843027003,-0.372132841079927,,7.219706184675166,,
,5705.0,1284.0,5246.0,1844.0,2742.0,2985.0,258.0,,,,-0.0895946341326661,-2.56345413015697,-0.373091189832687,,7.352717158192834,,
,5709.0,1285.0,5244.0,1847.0,2745.0,2969.0,258.0,,,,-0.0896997304142307,-2.56342788219524,-0.37461010455893,,7.465554206980349,,
,5707.0,1284.0,5248.0,1845.0,2724.0,2981.0,272.0,,,,-0.0895696162737938,-2.56326412165027,-0.373088192343236,,7.555123633794501,,
,5706.0,1283.0,5246.0,1847.0,2732.0,2981.0,258.0,,,,-0.0896842169667488,-2.56332782418176,-0.372574298284137,,7.618443767439676,,
,5708.0,1285.0,5253.0,1849.0,2726.0,2976.0,245.0,,,,-0.08954318005204,-2.56320632386837,-0.372677599946668,,7.6526132458574505,,
,5708.0,1285.0,5251.0,1848.0,2728.0,2986.0,236.0,,,,-0.0895359620795112,-2.56330625418985,-0.371182397173114,,7.6547587286854695,,
,5708.0,1288.0,5251.0,1848.0,2750.0,2992.0,235.0,,,,-0.0895856666521821,-2.5631515618223,-0.372628493034377,,7.621985129930927,,
,5708.0,1286.0,5251.0,1847.0,2753.0,2999.0,269.0,,,,-0.0897472515565194,-2.56303076128097,-0.36997730679751,,7.551354391110142,,
,5712.0,1286.0,5253.0,1852.0,2751.0,2983.0,264.0,,,,-0.0897153005673671,-2.56313237897461,-0.369850123685665,,7.4399154984220175,,
,5712.0,1287.0,5255.0,1855.0,2745.0,2986.0,269.0,,,,-0.0897573195191729,-2.56309825037545,-0.370550818269201,,7.284799451721303,,
,5715.0,1287.0,5255.0,1853.0,2751.0,2984.0,258.0,,,,-0.0897004043896185,-2.56300045303576,-0.36936272801514,,7.083380665052782,,
,5715.0,1286.0,5255.0,1852.0,2760.0,2969.0,263.0,,,,-0.089476855823219,-2.56280737085464,-0.370303008150118,,6.833493503346731,,
,5716.0,1288.0,5260.0,1856.0,2749.0,2974.0,236.0,,,,-0.0895033208019833,-2.56280952077388,-0.370118102490553,,6.5336813038492245,,
,5716.0,1287.0,5261.0,1855.0,2752.0,2956.0,244.0,,,,-0.0894966622808427,-2.56278442650157,-0.370370294665535,,6.18344686758045,,
,5717.0,1285.0,5262.0,1856.0,2749.0,2958.0,253.0,,,,-0.0894290886554274,-2.56247053734117,-0.36912744633438,,5.7834696417484395,,
,5718.0,1286.0,5263.0,1855.0,2746.0,2956.0,253.0,,,,-0.0890713159931049,-2.56183715918386,-0.367779153259149,,5.335756935725419,,
,5717.0,1287.0,5264.0,1859.0,2755.0,2959.0,266.0,,,,-0.0887782509376205,-2.56090640614798,-0.365923446788653,,4.843704785165186,,
,5719.0,1288.0,5266.0,1859.0,2755.0,2980.0,254.0,,,,-0.0888348184774103,-2.56067778790874,-0.367629164644671,,4.312057312319325,,
,5721.0,1288.0,5266.0,1862.0,2743.0,2988.0,261.0,,,,-0.0887925993600493,-2.56056527374482,-0.366902917810942,,3.7467688934142123,,
,5722.0,1289.0,5266.0,1863.0,2748.0,2971.0,272.0,,,,-0.088878000144496,-2.56096260076341,-0.367041012909659,,3.1547872376901673,,
,5720.0,1288.0,5268.0,1860.0,2742.0,2972.0,268.0,,,,-0.0888482870852014,-2.56066265593982,-0.367361280055686,,2.5437838077892603,,
,5723.0,1289.0,5269.0,1866.0,2747.0,3000.0,265.0,,,,-0.0886706133966977,-2.56078259816901,-0.366898758306473,,1.9218590466751888,,
