TimeLabel,MEAS1_PPG1,MEAS1_PPG2,MEAS1_PPG3,MEAS1_PPG4,ACCX,ACCY,ACCZ,HR_timestamp,HR_value,radar_timestamp,phase_rx0,phase_rx1,phase_rx2,timestep,n_process,original_rate,calculated_rate
2025-08-05 16:46:09,8749.0,1397.0,6285.0,979.0,1424.0,2327.0,2898.0,2025-08-05 16:46:45,62.0,2025/08/05 04:46:09 PM,0.0918083590631629,-0.558190890597098,0.68582188670571,2025/08/05 04:46:09 PM,-5.2441017247327935,17.736486434936523,13.359722909450767
,8755.0,1400.0,6288.0,981.0,1421.0,2293.0,2912.0,2025-08-05 16:46:46,62.0,,0.0918079894299717,-0.558108707666008,0.686378577331369,2025/08/05 04:46:19 PM,-4.9526066901314145,12.362637519836426,11.52785438499724
,8757.0,1401.0,6293.0,981.0,1437.0,2308.0,2911.0,2025-08-05 16:46:47,63.0,,0.0918065602862786,-0.558238498384469,0.685763613722862,2025/08/05 04:46:29 PM,-4.56725444684806,13.99253749847412,11.822947000582413
,8762.0,1400.0,6292.0,981.0,1440.0,2304.0,2920.0,2025-08-05 16:46:48,65.0,,0.0918065145609176,-0.558923547983814,0.685029992686627,2025/08/05 04:46:39 PM,-4.082098363405936,12.254901885986328,14.55026455026455
,8766.0,1401.0,6296.0,980.0,1428.0,2314.0,2936.0,2025-08-05 16:46:49,66.0,,0.0918082657959692,-0.558573562089019,0.685199665220956,2025/08/05 04:46:49 PM,-3.4947372050135983,12.47401237487793,12.976744186046513
,8767.0,1401.0,6302.0,983.0,1421.0,2306.0,2939.0,2025-08-05 16:46:50,68.0,,0.0918084453872688,-0.558189496060435,0.68583060267296,2025/08/05 04:46:59 PM,-2.8065076262232282,12.996389389038086,13.858748430529609
,8770.0,1401.0,6304.0,982.0,1422.0,2307.0,2916.0,2025-08-05 16:46:51,69.0,,0.0918094646792355,-0.558029689966432,0.685704127636157,2025/08/05 04:47:09 PM,-2.022383435087316,13.77199649810791,12.837528604119
,8771.0,1401.0,6304.0,985.0,1423.0,2324.0,2897.0,2025-08-05 16:46:52,70.0,,0.0918081738571002,-0.558029185426129,0.685936680779723,2025/08/05 04:47:19 PM,-1.1506272844357637,13.215859413146973,11.938534278959816
,8776.0,1401.0,6308.0,985.0,1422.0,2332.0,2886.0,2025-08-05 16:46:53,71.0,,0.0918091436352625,-0.557903789047033,0.686605315374847,2025/08/05 04:47:29 PM,-0.20227373060927276,13.35707950592041,14.225589225589221
,8782.0,1403.0,6309.0,984.0,1427.0,2294.0,2896.0,2025-08-05 16:46:54,70.0,,0.091809491155008,-0.557781295100803,0.686646566682035,2025/08/05 04:47:39 PM,0.80946265993981,12.903225898742676,14.496675965635454
,8782.0,1400.0,6311.0,987.0,1431.0,2282.0,2883.0,2025-08-05 16:46:55,69.0,,0.0918091993460866,-0.557672336485056,0.686768428309917,2025/08/05 04:47:49 PM,1.8697654615536288,13.402829170227053,13.037350246652569
,8786.0,1406.0,6318.0,988.0,1418.0,2297.0,2877.0,2025-08-05 16:46:56,69.0,,0.0918094893167758,-0.557595160215424,0.6865777935253,2025/08/05 04:47:59 PM,2.9627132300417984,14.240506172180176,14.976744186046492
,8789.0,1407.0,6319.0,988.0,1401.0,2295.0,2883.0,2025-08-05 16:46:57,68.0,,0.0918094800486824,-0.557583575578884,0.686741028392354,2025/08/05 04:48:09 PM,4.0716582551463985,13.709063529968262,16.024252100201466
,8791.0,1405.0,6321.0,986.0,1400.0,2288.0,2886.0,2025-08-05 16:46:58,68.0,,0.0918092241642002,-0.557787369632804,0.686183695721886,2025/08/05 04:48:19 PM,5.179483621898581,14.967926025390623,15.337023770758726
,8794.0,1405.0,6324.0,988.0,1419.0,2302.0,2906.0,2025-08-05 16:46:59,68.0,,0.0918093857320861,-0.557541154549641,0.68603655513936,2025/08/05 04:48:29 PM,6.268764133604658,15.49815559387207,14.727898630337647
,8799.0,1406.0,6329.0,990.0,1412.0,2299.0,2908.0,2025-08-05 16:47:00,69.0,,0.0918091657883822,-0.557551655210745,0.686126959376436,2025/08/05 04:48:39 PM,7.321877292316648,15.463916778564451,14.375896700143482
,8806.0,1406.0,6332.0,992.0,1417.0,2285.0,2911.0,2025-08-05 16:47:01,69.0,,0.0918100493727975,-0.557194203613915,0.686918645473152,2025/08/05 04:48:49 PM,8.321120521260159,14.757554054260254,14.350036310820647
,8807.0,1405.0,6332.0,991.0,1428.0,2294.0,2915.0,2025-08-05 16:47:02,71.0,,0.0918092348475935,-0.557330829097807,0.686636563895532,2025/08/05 04:48:59 PM,9.248890182202228,14.308425903320312,16.433823529411715
,8811.0,1407.0,6337.0,991.0,1425.0,2284.0,2902.0,2025-08-05 16:47:03,72.0,,0.0918100719493211,-0.556983735510909,0.687667452806262,,10.087968151068127,,
,8813.0,1407.0,6341.0,993.0,1421.0,2306.0,2920.0,2025-08-05 16:47:04,72.0,,0.0918109615280711,-0.556688877737241,0.687563291681624,,10.821944692417278,,
,8816.0,1407.0,6342.0,994.0,1423.0,2315.0,2915.0,2025-08-05 16:47:05,71.0,,0.0918104802737334,-0.556551495203371,0.687854222562753,,11.435783878994654,,
,8821.0,1408.0,6347.0,994.0,1438.0,2332.0,2902.0,2025-08-05 16:47:06,70.0,,0.0918096893937981,-0.556720201744331,0.687683834712259,,11.916511545135753,,
,8824.0,1408.0,6346.0,993.0,1432.0,2314.0,2924.0,2025-08-05 16:47:07,69.0,,0.0918094556948946,-0.556684115512774,0.688045049747356,,12.253978146600554,,
,8827.0,1411.0,6353.0,996.0,1427.0,2302.0,2888.0,2025-08-05 16:47:08,69.0,,0.0918098782029661,-0.557350807389031,0.687712845824222,,12.441623639142442,,
,8828.0,1413.0,6355.0,995.0,1418.0,2291.0,2893.0,2025-08-05 16:47:09,68.0,,0.0918097446930498,-0.557158002549226,0.688166433235572,,12.477153289106825,,
,8834.0,1410.0,6358.0,994.0,1423.0,2293.0,2906.0,2025-08-05 16:47:10,68.0,,0.0918110624474664,-0.557223466415602,0.687729165214916,,12.363026730340112,,
,8839.0,1410.0,6359.0,997.0,1430.0,2284.0,2899.0,2025-08-05 16:47:11,68.0,,0.0918101073507996,-0.556864880296365,0.688268089903367,,12.106670746978129,,
,8843.0,1413.0,6363.0,1000.0,1428.0,2308.0,2910.0,2025-08-05 16:47:12,67.0,,0.0918119103477913,-0.556393415347913,0.688222976090543,,11.72035017495037,,
,8844.0,1412.0,6365.0,1000.0,1435.0,2309.0,2892.0,2025-08-05 16:47:13,67.0,,0.0918123562980691,-0.556445645617609,0.689574188901319,,11.220669176955422,,
,8849.0,1414.0,6369.0,1000.0,1425.0,2275.0,2878.0,2025-08-05 16:47:14,66.0,,0.0918127803118204,-0.556137482346042,0.68920167228944,,10.627721836018388,,
,8853.0,1412.0,6373.0,1001.0,1414.0,2274.0,2902.0,2025-08-05 16:47:15,65.0,,0.0918124039724363,-0.556056144634916,0.689356635878962,,9.963958252076168,,
,8855.0,1415.0,6375.0,1003.0,1427.0,2337.0,2923.0,2025-08-05 16:47:16,64.0,,0.0918124092885239,-0.556196008220181,0.690155085368625,,9.252870506777699,,
,8862.0,1413.0,6378.0,1002.0,1418.0,2333.0,2907.0,2025-08-05 16:47:17,63.0,,0.0918120278172273,-0.55680122396375,0.689205894461153,,8.517624303262494,,
,8865.0,1415.0,6382.0,1004.0,1419.0,2315.0,2889.0,2025-08-05 16:47:18,63.0,,0.0918119715988197,-0.556621750203817,0.688906889972384,,7.779763730722251,,
,8868.0,1415.0,6385.0,1003.0,1442.0,2316.0,2891.0,2025-08-05 16:47:19,62.0,,0.0918113657799473,-0.556694192481808,0.688586607653769,,7.058100372229272,,
,8870.0,1417.0,6389.0,1006.0,1423.0,2289.0,2914.0,2025-08-05 16:47:20,62.0,,0.0918109580545998,-0.556698982218758,0.688545677584504,,6.367869115744961,,
,8878.0,1420.0,6394.0,1008.0,1409.0,2293.0,2904.0,2025-08-05 16:47:21,62.0,,0.091811044776203,-0.557352507507032,0.687745524478844,,5.720197993274951,,
,8882.0,1420.0,6400.0,1006.0,1415.0,2300.0,2907.0,2025-08-05 16:47:22,62.0,,0.0918108016286922,-0.557531673274495,0.687292592908578,,5.121904265168645,,
,8884.0,1418.0,6398.0,1005.0,1424.0,2307.0,2920.0,2025-08-05 16:47:23,61.0,,0.0918095717620675,-0.557699148243593,0.687425517064534,,4.57559859658871,,
,8889.0,1421.0,6405.0,1009.0,1431.0,2322.0,2895.0,2025-08-05 16:47:24,61.0,,0.0918106015382654,-0.557283908253644,0.687682926549124,,4.080056407114313,,
,8894.0,1420.0,6407.0,1008.0,1404.0,2306.0,2891.0,2025-08-05 16:47:25,61.0,,0.0918096942233162,-0.557785828370673,0.686801096115296,,3.630800925952545,,
,8896.0,1423.0,6409.0,1010.0,1407.0,2297.0,2896.0,2025-08-05 16:47:26,61.0,,0.091810180004672,-0.557449307845282,0.688070102841573,,3.220835009654133,,
,8896.0,1421.0,6410.0,1009.0,1406.0,2295.0,2892.0,2025-08-05 16:47:27,60.0,,0.0918108930969763,-0.557066179176802,0.687524991463925,,2.8414567207142345,,
,8904.0,1424.0,6417.0,1012.0,1420.0,2312.0,2894.0,2025-08-05 16:47:28,61.0,,0.0918114898967097,-0.556986346245584,0.688159925269834,,2.483095863492631,,
,8909.0,1423.0,6421.0,1013.0,1421.0,2303.0,2869.0,2025-08-05 16:47:29,61.0,,0.0918118835346919,-0.556785836225903,0.688082153011457,,2.136114470670509,,
,8912.0,1426.0,6424.0,1016.0,1408.0,2284.0,2895.0,2025-08-05 16:47:30,61.0,,0.0918124198587286,-0.556450607236107,0.688923967742933,,1.79152296805181,,
,8915.0,1424.0,6425.0,1011.0,1408.0,2320.0,2932.0,2025-08-05 16:47:31,61.0,,0.0918119543831578,-0.556287388390692,0.688888176369402,,1.4415745830777813,,
,8925.0,1427.0,6431.0,1017.0,1411.0,2313.0,2901.0,2025-08-05 16:47:32,61.0,,0.0918120504624326,-0.556100409912088,0.688870176151064,,1.080212701438743,,
,8925.0,1428.0,6436.0,1016.0,1428.0,2295.0,2903.0,2025-08-05 16:47:33,61.0,,0.0918124801965167,-0.556030192359011,0.689732504722139,,0.703358656309628,,
,8928.0,1426.0,6441.0,1018.0,1422.0,2293.0,2903.0,2025-08-05 16:47:34,61.0,,0.0918117920713166,-0.556296186567805,0.688504783904036,,0.30904015155209913,,
,8930.0,1428.0,6441.0,1018.0,1430.0,2307.0,2925.0,2025-08-05 16:47:35,62.0,,0.0918112229246752,-0.555992759341007,0.688939706833838,,-0.10262787656488502,,
,8934.0,1431.0,6443.0,1017.0,1426.0,2317.0,2901.0,2025-08-05 16:47:36,63.0,,0.0918120575576248,-0.556357517075084,0.689039967272367,,-0.5295891779844636,,
,8943.0,1432.0,6450.0,1019.0,1413.0,2314.0,2905.0,2025-08-05 16:47:37,64.0,,0.0918126909557348,-0.555963990082504,0.689938538334021,,-0.9680933115853556,,
,8945.0,1431.0,6454.0,1019.0,1405.0,2311.0,2907.0,2025-08-05 16:47:38,65.0,,0.0918135258524477,-0.555822038509374,0.689251036434159,,-1.4130183546557065,,
,8949.0,1432.0,6456.0,1021.0,1408.0,2297.0,2910.0,2025-08-05 16:47:39,65.0,,0.0918137945162638,-0.555813094734744,0.690078577519183,,-1.8582469947242097,,
,8950.0,1432.0,6457.0,1021.0,1423.0,2317.0,2896.0,2025-08-05 16:47:40,64.0,,0.0918131910594462,-0.556318194652384,0.689930549399203,,-2.297077791175034,,
,8958.0,1433.0,6462.0,1023.0,1416.0,2315.0,2912.0,2025-08-05 16:47:41,64.0,,0.0918128241194207,-0.555949370429482,0.689854896029037,,-2.7226550302358237,,
,8961.0,1431.0,6468.0,1022.0,1409.0,2314.0,2928.0,2025-08-05 16:47:42,63.0,,0.0918133463242861,-0.556122327835718,0.689837677508336,,-3.128398539610281,,
,8964.0,1432.0,6470.0,1025.0,1415.0,2300.0,2900.0,2025-08-05 16:47:43,63.0,,0.0918126040775082,-0.556718963586789,0.688947708269951,,-3.5084101855048866,,
,8970.0,1436.0,6478.0,1026.0,1428.0,2302.0,2895.0,2025-08-05 16:47:44,63.0,,0.0918120672458215,-0.556654375110955,0.688563924116426,,-3.8578296944519623,,
,8975.0,1438.0,6481.0,1028.0,1438.0,2307.0,2919.0,2025-08-05 16:47:45,63.0,,0.0918115323889091,-0.556454587554191,0.689117245331893,,-4.173112361555295,,
,8982.0,1436.0,6482.0,1028.0,1435.0,2302.0,2919.0,2025-08-05 16:47:46,63.0,,0.0918119058020095,-0.55672539594196,0.688269653441642,,-4.452206649221704,,
,8978.0,1436.0,6485.0,1028.0,1438.0,2332.0,2910.0,2025-08-05 16:47:47,62.0,,0.091811850835212,-0.55652062258903,0.688224013475199,,-4.694619368220092,,
,8981.0,1437.0,6486.0,1028.0,1427.0,2359.0,2924.0,2025-08-05 16:47:48,62.0,,0.0918122359449928,-0.556412783303956,0.688604875898219,,-4.901367169881557,,
,8978.0,1437.0,6485.0,1029.0,1438.0,2325.0,2941.0,2025-08-05 16:47:49,62.0,,0.0918119890935638,-0.5565917219224,0.688950178673515,,-5.07482296080265,,
,8973.0,1437.0,6483.0,1027.0,1423.0,2321.0,2915.0,2025-08-05 16:47:50,62.0,,0.091812065327347,-0.556476075111992,0.688175098595238,,-5.218473501958114,,
,8963.0,1434.0,6481.0,1025.0,1423.0,2310.0,2907.0,2025-08-05 16:47:51,62.0,,0.0918112006875385,-0.556940542020564,0.688508474417382,,-5.3366098877681045,,
,8951.0,1433.0,6471.0,1023.0,1427.0,2318.0,2895.0,2025-08-05 16:47:52,62.0,,0.0918115435387015,-0.556652066788108,0.689086071996347,,-5.433976159829626,,
,8940.0,1431.0,6464.0,1021.0,1417.0,2279.0,2914.0,2025-08-05 16:47:53,62.0,,0.0918115261785482,-0.557071364716815,0.688496750354295,,-5.51540323404735,,
,8936.0,1432.0,6458.0,1022.0,1410.0,2294.0,2907.0,2025-08-05 16:47:54,62.0,,0.0918111709115586,-0.557184658116157,0.688288266884009,,-5.585455683103969,,
,8922.0,1427.0,6452.0,1017.0,1414.0,2302.0,2902.0,2025-08-05 16:47:55,62.0,,0.0918104792570196,-0.557172425256529,0.687821410742319,,-5.648117703500492,,
,8908.0,1422.0,6438.0,1012.0,1422.0,2310.0,2924.0,2025-08-05 16:47:56,62.0,,0.0918114789205194,-0.556869818661262,0.688115613591078,,-5.706541797839355,,
,8898.0,1424.0,6430.0,1011.0,1420.0,2285.0,2900.0,2025-08-05 16:47:57,62.0,,0.0918112957525565,-0.556513617891221,0.688081838821508,,-5.7628794093433715,,
,8888.0,1423.0,6423.0,1011.0,1410.0,2277.0,2918.0,2025-08-05 16:47:58,62.0,,0.0918111122985797,-0.556520539092432,0.688247192878261,,-5.81820718370278,,
,8875.0,1422.0,6412.0,1007.0,1415.0,2272.0,2920.0,2025-08-05 16:47:59,61.0,,0.0918110206749732,-0.556981928808998,0.688145547817902,,-5.872555975392628,,
,8863.0,1421.0,6404.0,1006.0,1415.0,2275.0,2917.0,2025-08-05 16:48:00,61.0,,0.091810732571563,-0.557613541696103,0.688590064932093,,-5.925042324901649,,
,8857.0,1418.0,6398.0,1003.0,1421.0,2273.0,2924.0,2025-08-05 16:48:01,61.0,,0.0918108611170414,-0.557074745545901,0.687983540989989,,-5.974093872776892,,
,8851.0,1416.0,6392.0,1005.0,1427.0,2296.0,2904.0,2025-08-05 16:48:02,60.0,,0.0918112934668429,-0.55649612834255,0.688470733146054,,-6.017750890471246,,
,8848.0,1416.0,6384.0,1003.0,1434.0,2317.0,2910.0,2025-08-05 16:48:03,60.0,,0.0918119611695943,-0.556644841235908,0.688081801742725,,-6.054015959232137,,
,8839.0,1415.0,6382.0,998.0,1433.0,2311.0,2902.0,2025-08-05 16:48:04,60.0,,0.0918104797585431,-0.556587494327989,0.688027755560377,,-6.081214027368816,,
,8836.0,1413.0,6377.0,999.0,1427.0,2314.0,2908.0,2025-08-05 16:48:05,59.0,,0.091810836896872,-0.556437048479613,0.688788396468692,,-6.0983180830979,,
,8830.0,1414.0,6373.0,999.0,1420.0,2310.0,2919.0,2025-08-05 16:48:06,59.0,,0.0918119453082661,-0.556113032060858,0.688846472644598,,-6.10519412418092,,
,8828.0,1414.0,6374.0,1002.0,1418.0,2307.0,2897.0,2025-08-05 16:48:07,59.0,,0.0918122130767776,-0.556352681519185,0.688407163852725,,-6.102724232583371,,
,8825.0,1414.0,6369.0,1000.0,1430.0,2319.0,2893.0,2025-08-05 16:48:08,60.0,,0.0918125604734139,-0.555950337968324,0.688646331886276,,-6.092777787853359,,
,8825.0,1414.0,6368.0,999.0,1424.0,2334.0,2888.0,2025-08-05 16:48:09,60.0,,0.0918116107686602,-0.556086223080978,0.687739655537386,,-6.078016588188966,,
,8824.0,1414.0,6369.0,1002.0,1409.0,2332.0,2899.0,2025-08-05 16:48:10,60.0,,0.0918122094732556,-0.556576082974855,0.68849165060763,,-6.061538190219793,,
,8821.0,1412.0,6365.0,998.0,1406.0,2327.0,2886.0,2025-08-05 16:48:11,60.0,,0.0918108075645126,-0.556697943079941,0.68826800140729,,-6.046381477743053,,
,8819.0,1413.0,6364.0,999.0,1403.0,2320.0,2864.0,2025-08-05 16:48:12,61.0,,0.0918120676272426,-0.556415521406698,0.688336664430678,,-6.034937458950455,,
,8820.0,1413.0,6363.0,999.0,1400.0,2323.0,2855.0,2025-08-05 16:48:13,61.0,,0.0918115760772308,-0.556827765453349,0.6881630603013,,-6.028324356552378,,
,8817.0,1413.0,6365.0,998.0,1424.0,2309.0,2859.0,2025-08-05 16:48:14,61.0,,0.0918111417919561,-0.556642843739456,0.688338020643383,,-6.025796828255326,,
,8817.0,1413.0,6367.0,998.0,1418.0,2330.0,2876.0,2025-08-05 16:48:15,62.0,,0.0918108265684152,-0.556664613175843,0.688499025051171,,-6.024262515947537,,
,8816.0,1415.0,6366.0,996.0,1417.0,2341.0,2894.0,2025-08-05 16:48:16,62.0,,0.0918117896609968,-0.556731152448393,0.688173092226351,,-6.017973737582165,,
,8814.0,1409.0,6358.0,997.0,1412.0,2346.0,2880.0,2025-08-05 16:48:17,62.0,,0.0918122750470704,-0.556826500723868,0.688140017958887,,-5.998448012452892,,
,8817.0,1411.0,6364.0,998.0,1397.0,2349.0,2879.0,2025-08-05 16:48:18,62.0,,0.0918119140375722,-0.556837964013168,0.68773791408136,,-5.954649764244677,,
,8814.0,1413.0,6363.0,997.0,1410.0,2313.0,2880.0,2025-08-05 16:48:19,61.0,,0.0918116202251835,-0.557126906942794,0.688048082936761,,-5.873439525449509,,
,8817.0,1415.0,6366.0,1002.0,1404.0,2300.0,2914.0,2025-08-05 16:48:20,61.0,,0.091811872513842,-0.556982733428243,0.687847714562488,,-5.740269073382642,,
,8814.0,1411.0,6364.0,998.0,1394.0,2300.0,2933.0,2025-08-05 16:48:21,61.0,,0.0918112519635473,-0.556854798990962,0.687441899221506,,-5.540073803371869,,
,8815.0,1414.0,6369.0,1000.0,1409.0,2286.0,2933.0,2025-08-05 16:48:22,61.0,,0.0918117715914163,-0.556990817017873,0.687679370795422,,-5.258289943994507,,
,8815.0,1411.0,6363.0,997.0,1428.0,2287.0,2946.0,2025-08-05 16:48:23,61.0,,0.0918110876594718,-0.556869201092917,0.687298981794123,,-4.881907002284077,,
,8815.0,1413.0,6365.0,1001.0,1428.0,2287.0,2945.0,2025-08-05 16:48:24,61.0,,0.091811634510956,-0.556729042970736,0.688169458175737,,-4.400458642910493,,
,8815.0,1411.0,6365.0,1000.0,1424.0,2282.0,2909.0,2025-08-05 16:48:25,61.0,,0.0918120167828194,-0.556579161726824,0.687270770882184,,-3.8068612985676733,,
,8815.0,1411.0,6366.0,1000.0,1415.0,2303.0,2925.0,2025-08-05 16:48:26,61.0,,0.091812186137284,-0.556423969254557,0.688058615943751,,-3.0980301917561026,,
,8816.0,1413.0,6366.0,1000.0,1421.0,2279.0,2902.0,2025-08-05 16:48:27,61.0,,0.0918123507510084,-0.556439862313526,0.688462509051272,,-2.275233983900271,,
,8813.0,1413.0,6368.0,999.0,1423.0,2273.0,2893.0,2025-08-05 16:48:28,61.0,,0.0918120118384701,-0.556771424769059,0.688168347824641,,-1.3441848089785415,,
,8815.0,1412.0,6365.0,998.0,1423.0,2302.0,2914.0,2025-08-05 16:48:29,61.0,,0.0918112887591353,-0.556659604463863,0.688609199213744,,-0.3148916096401107,,
,8815.0,1409.0,6365.0,1000.0,1426.0,2293.0,2919.0,2025-08-05 16:48:30,61.0,,0.0918114379141118,-0.556755905425915,0.688419009678864,,0.7986746397052293,,
,8813.0,1411.0,6365.0,999.0,1430.0,2278.0,2918.0,2025-08-05 16:48:31,61.0,,0.0918113714571924,-0.557018830736372,0.687781766075028,,1.9790471758092996,,
,8814.0,1411.0,6365.0,997.0,1428.0,2281.0,2906.0,2025-08-05 16:48:32,61.0,,0.0918102887152159,-0.557048695966479,0.687993596865144,,3.205807862924501,,
,8811.0,1412.0,6365.0,1000.0,1435.0,2307.0,2919.0,2025-08-05 16:48:33,60.0,,0.0918110463004315,-0.557260603347594,0.687849045464681,,4.456168434022747,,
,8808.0,1410.0,6362.0,997.0,1441.0,2282.0,2912.0,2025-08-05 16:48:34,60.0,,0.0918115489467432,-0.557136623225595,0.68739784124349,,5.7055642849858375,,
,8808.0,1410.0,6364.0,1002.0,1439.0,2306.0,2908.0,2025-08-05 16:48:35,60.0,,0.0918102928794736,-0.556927092008588,0.688040809920263,,6.928254901587588,,
,8810.0,1411.0,6364.0,998.0,1434.0,2308.0,2923.0,2025-08-05 16:48:36,60.0,,0.0918104551821707,-0.556275456656058,0.687721114876974,,8.097940567745006,,
,8809.0,1408.0,6363.0,998.0,1431.0,2308.0,2912.0,2025-08-05 16:48:37,60.0,,0.091811445313853,-0.556455948945191,0.688686817256549,,9.188414134381471,,
,8807.0,1408.0,6361.0,996.0,1440.0,2308.0,2901.0,2025-08-05 16:48:38,60.0,,0.0918109796211349,-0.556447349339532,0.687954449767527,,10.174266930345187,,
,8808.0,1411.0,6363.0,998.0,1438.0,2277.0,2896.0,2025-08-05 16:48:39,59.0,,0.0918107403828995,-0.55619324079231,0.688558995447476,,11.031659001326554,,
,8809.0,1411.0,6365.0,998.0,1445.0,2260.0,2907.0,2025-08-05 16:48:40,59.0,,0.0918112662097362,-0.556351939622457,0.688989269138841,,11.73914769437365,,
,8809.0,1410.0,6365.0,1000.0,1442.0,2274.0,2920.0,2025-08-05 16:48:41,59.0,,0.0918116942615377,-0.557289118090868,0.688547944877707,,12.27854882046996,,
,8807.0,1407.0,6361.0,998.0,1435.0,2285.0,2905.0,2025-08-05 16:48:42,59.0,,0.0918107637511102,-0.556575016747158,0.688332500466592,,12.635785301726223,,
,8809.0,1411.0,6363.0,999.0,1445.0,2293.0,2915.0,2025-08-05 16:48:43,59.0,,0.0918113809391221,-0.556566136892813,0.688203685533637,,12.801662510055618,,
,8808.0,1410.0,6362.0,999.0,1439.0,2298.0,2898.0,2025-08-05 16:48:44,60.0,,0.0918107046824987,-0.556934700230554,0.687980945355921,,12.772499199589301,,
,8812.0,1409.0,6362.0,1000.0,1438.0,2305.0,2887.0,2025-08-05 16:48:45,60.0,,0.0918109565115782,-0.557081250864066,0.687406510009744,,12.55053912832901,,
,8811.0,1406.0,6365.0,998.0,1445.0,2299.0,2899.0,2025-08-05 16:48:46,60.0,,0.0918112390902986,-0.556967893280836,0.688268081120427,,12.144073037444294,,
,8811.0,1409.0,6367.0,1000.0,1447.0,2286.0,2883.0,2025-08-05 16:48:47,60.0,,0.0918113971656935,-0.557230802779043,0.687392936187643,,11.567216802793862,,
,8817.0,1410.0,6369.0,1002.0,1447.0,2284.0,2900.0,2025-08-05 16:48:48,60.0,,0.0918114798411305,-0.556929690838513,0.688428388670818,,10.839321881760796,,
,8818.0,1409.0,6367.0,1002.0,1448.0,2290.0,2901.0,2025-08-05 16:48:49,60.0,,0.0918115629133834,-0.556571571428103,0.687442987050773,,9.984037030060774,,
,8820.0,1408.0,6369.0,1002.0,1444.0,2316.0,2901.0,2025-08-05 16:48:50,60.0,,0.0918117549909612,-0.556518553083471,0.688156957951211,,9.028087780471155,,
,8822.0,1411.0,6373.0,1002.0,1431.0,2295.0,2900.0,2025-08-05 16:48:51,61.0,,0.0918113437144966,-0.556543907384683,0.688919154331631,,7.99988048898253,,
,8826.0,1411.0,6374.0,1003.0,1440.0,2316.0,2877.0,2025-08-05 16:48:52,60.0,,0.091812062195493,-0.55643000911094,0.688351976762159,,6.928060513280069,,
2025-08-05 16:46:10,8826.0,1413.0,6379.0,1002.0,1440.0,2313.0,2882.0,2025-08-05 16:48:53,60.0,2025/08/05 04:46:10 PM,0.0918118781287026,-0.556561303641091,0.688461398851753,,5.840154915586018,,
,8829.0,1411.0,6378.0,1004.0,1431.0,2308.0,2887.0,2025-08-05 16:48:54,60.0,,0.0918122398683402,-0.556538197759422,0.688007999839759,,4.761411082921089,,
,8832.0,1414.0,6378.0,1003.0,1431.0,2324.0,2875.0,2025-08-05 16:48:55,59.0,,0.0918118210985908,-0.557109513006604,0.688149164135707,,3.713910004920591,,
,8834.0,1413.0,6381.0,1006.0,1439.0,2301.0,2879.0,2025-08-05 16:48:56,59.0,,0.0918119552826572,-0.556615676761995,0.688294318419358,,2.7159939907886663,,
,8840.0,1415.0,6384.0,1005.0,1440.0,2298.0,2889.0,2025-08-05 16:48:57,60.0,,0.0918121055011481,-0.556383851905816,0.689192242867063,,1.7820098704995793,,
,8842.0,1414.0,6384.0,1007.0,1437.0,2308.0,2892.0,2025-08-05 16:48:58,60.0,,0.0918121125924156,-0.556321461791025,0.688722739404823,,0.9223351131299332,,
,8844.0,1416.0,6387.0,1004.0,1427.0,2310.0,2881.0,2025-08-05 16:48:59,60.0,,0.0918127225891384,-0.556418379161651,0.689042813118114,,0.1436292241088231,,
,8846.0,1415.0,6392.0,1008.0,1446.0,2317.0,2888.0,2025-08-05 16:49:00,60.0,,0.0918129825603746,-0.556220742522668,0.68927079758637,,-0.5507614453127043,,
,8850.0,1417.0,6391.0,1008.0,1434.0,2323.0,2902.0,2025-08-05 16:49:01,59.0,,0.0918127918918265,-0.555709689761699,0.689069742023175,,-1.1603196369163495,,
,8854.0,1416.0,6395.0,1009.0,1428.0,2308.0,2875.0,2025-08-05 16:49:02,59.0,,0.0918130322921676,-0.555567209129174,0.689449513404196,,-1.6868590186345938,,
,8857.0,1416.0,6399.0,1010.0,1435.0,2335.0,2874.0,2025-08-05 16:49:03,59.0,,0.0918130230711436,-0.556439459682792,0.689080104485928,,-2.134059435324454,,
,8859.0,1417.0,6400.0,1009.0,1425.0,2320.0,2875.0,2025-08-05 16:49:04,59.0,,0.0918122824327132,-0.555783546153653,0.688998963202361,,-2.507061465693837,,
,8862.0,1418.0,6402.0,1009.0,1442.0,2298.0,2880.0,2025-08-05 16:49:05,59.0,,0.0918130442671938,-0.556004894132808,0.688907947165575,,-2.812125990432171,,
,8867.0,1417.0,6406.0,1014.0,1444.0,2289.0,2881.0,2025-08-05 16:49:06,59.0,,0.0918126791109876,-0.55590778013187,0.689530253056095,,-3.0563501321341016,,
,8867.0,1418.0,6406.0,1009.0,1427.0,2294.0,2889.0,2025-08-05 16:49:07,59.0,,0.0918128414268557,-0.556049574941302,0.689049883586042,,-3.247423968578517,,
,8873.0,1421.0,6413.0,1011.0,1427.0,2297.0,2867.0,2025-08-05 16:49:08,59.0,,0.0918127580686821,-0.556408386245055,0.689375768516265,,-3.393411490511704,,
,8878.0,1420.0,6413.0,1011.0,1431.0,2314.0,2894.0,2025-08-05 16:49:09,59.0,,0.0918120128917348,-0.556252580512757,0.688885260017779,,-3.502541736892554,,
,8879.0,1420.0,6418.0,1016.0,1434.0,2317.0,2902.0,2025-08-05 16:49:10,59.0,,0.0918126329570295,-0.556105598895761,0.688681532310182,,-3.582999783312855,,
,8881.0,1418.0,6419.0,1013.0,1423.0,2327.0,2916.0,2025-08-05 16:49:11,59.0,,0.0918114679313094,-0.55677042485779,0.68878413980485,,-3.6427114222720136,,
,8886.0,1422.0,6423.0,1015.0,1425.0,2310.0,2878.0,2025-08-05 16:49:12,59.0,,0.0918120401557906,-0.556419790035135,0.688406637405649,,-3.6891199275973183,,
,8889.0,1423.0,6426.0,1018.0,1417.0,2321.0,2879.0,2025-08-05 16:49:13,59.0,,0.0918116225745425,-0.556602403484357,0.688389024074299,,-3.728958263233431,,
,8892.0,1423.0,6427.0,1019.0,1416.0,2333.0,2883.0,2025-08-05 16:49:14,59.0,,0.0918123970914065,-0.556359211725612,0.689568155543576,,-3.7680251521519725,,
,8897.0,1421.0,6429.0,1017.0,1427.0,2327.0,2883.0,2025-08-05 16:49:15,60.0,,0.0918114339948764,-0.556716904403455,0.688376473235335,,-3.8109779743058767,,
,8900.0,1423.0,6434.0,1022.0,1418.0,2306.0,2895.0,2025-08-05 16:49:16,60.0,,0.0918111148521143,-0.556172267649427,0.688469368417228,,-3.8611589258015355,,
,8902.0,1425.0,6435.0,1020.0,1435.0,2283.0,2895.0,2025-08-05 16:49:17,61.0,,0.0918120085551737,-0.556321487617398,0.688726899350767,,-3.9204728000069133,,
,8907.0,1421.0,6440.0,1020.0,1441.0,2289.0,2896.0,2025-08-05 16:49:18,61.0,,0.0918113837452088,-0.556275306655726,0.688504369109046,,-3.9893347949850537,,
,8908.0,1423.0,6440.0,1018.0,1429.0,2287.0,2916.0,2025-08-05 16:49:19,61.0,,0.0918114989640275,-0.556304853889591,0.688100176171743,,-4.066704563574759,,
,8912.0,1424.0,6442.0,1020.0,1429.0,2304.0,2911.0,2025-08-05 16:49:20,61.0,,0.0918108388601081,-0.55616591074935,0.688407982192022,,-4.1502179705583995,,
,8916.0,1426.0,6446.0,1023.0,1440.0,2304.0,2908.0,2025-08-05 16:49:21,61.0,,0.0918112904585547,-0.556383902241267,0.687850954815419,,-4.236420509894011,,
,8921.0,1428.0,6454.0,1024.0,1438.0,2298.0,2903.0,2025-08-05 16:49:22,61.0,,0.0918109884626446,-0.556510022441831,0.688378583848733,,-4.3210961801912795,,
,8921.0,1426.0,6450.0,1021.0,1440.0,2275.0,2889.0,2025-08-05 16:49:23,62.0,,0.0918116795277562,-0.556675254508487,0.688293038374585,,-4.399673537760214,,
,8924.0,1425.0,6450.0,1023.0,1431.0,2302.0,2878.0,2025-08-05 16:49:24,62.0,,0.0918120640108687,-0.556631369494826,0.688709282067002,,-4.467678425324385,,
,8926.0,1428.0,6456.0,1026.0,1425.0,2337.0,2892.0,2025-08-05 16:49:25,63.0,,0.091811334560888,-0.556388174035791,0.687985921215641,,-4.521193452104726,,
,8930.0,1428.0,6459.0,1026.0,1426.0,2330.0,2869.0,2025-08-05 16:49:26,63.0,,0.0918125248982376,-0.556384121288425,0.688729237405854,,-4.55728063617302,,
,8936.0,1430.0,6462.0,1027.0,1433.0,2303.0,2897.0,2025-08-05 16:49:27,63.0,,0.0918121427174082,-0.556401197148382,0.689082134966787,,-4.574326739784971,,
,8937.0,1429.0,6466.0,1024.0,1444.0,2307.0,2899.0,2025-08-05 16:49:28,63.0,,0.0918126497773489,-0.556350555740098,0.688839995251246,,-4.572279080911601,,
,8940.0,1432.0,6469.0,1028.0,1439.0,2293.0,2896.0,2025-08-05 16:49:29,63.0,,0.0918118260594763,-0.556547267602338,0.689149089221306,,-4.552750056550438,,
,8947.0,1431.0,6474.0,1028.0,1427.0,2326.0,2906.0,2025-08-05 16:49:30,63.0,,0.0918123216831645,-0.5558763231478,0.689398765769972,,-4.518979023033505,,
,8948.0,1433.0,6474.0,1028.0,1437.0,2321.0,2899.0,2025-08-05 16:49:31,63.0,,0.0918119957561252,-0.556124849717706,0.689143590609541,,-4.475649713888263,,
,8952.0,1430.0,6476.0,1025.0,1437.0,2312.0,2893.0,2025-08-05 16:49:32,63.0,,0.0918118347740145,-0.55620364408591,0.68868659291745,,-4.428570099561708,,
,8958.0,1432.0,6481.0,1030.0,1431.0,2295.0,2879.0,2025-08-05 16:49:33,63.0,,0.0918115034454395,-0.556465940267098,0.688486330325192,,-4.384229760571684,,
,8959.0,1434.0,6486.0,1033.0,1428.0,2301.0,2904.0,2025-08-05 16:49:34,62.0,,0.091812601993026,-0.55656414185039,0.688256262685475,,-4.3492576139685,,
,8962.0,1436.0,6488.0,1032.0,1433.0,2312.0,2903.0,2025-08-05 16:49:35,62.0,,0.0918126961614478,-0.556332513051479,0.688376612619527,,-4.329810244156316,,
,8964.0,1433.0,6491.0,1030.0,1437.0,2317.0,2912.0,2025-08-05 16:49:36,62.0,,0.0918121180838146,-0.556840947831265,0.689683837988499,,-4.330928011757732,,
,8971.0,1433.0,6493.0,1032.0,1442.0,2308.0,2892.0,2025-08-05 16:49:37,62.0,,0.0918125669169935,-0.556388704400472,0.68967291806858,,-4.355902145984918,,
,8974.0,1435.0,6496.0,1034.0,1451.0,2334.0,2890.0,2025-08-05 16:49:38,62.0,,0.0918126619053204,-0.556069226297759,0.689044105080611,,-4.405700503563784,,
,8980.0,1436.0,6500.0,1036.0,1454.0,2356.0,2891.0,2025-08-05 16:49:39,62.0,,0.0918131724553988,-0.555836829259097,0.689028254886527,,-4.478501743254614,,
,8979.0,1436.0,6503.0,1033.0,1478.0,2333.0,2865.0,2025-08-05 16:49:40,62.0,,0.0918128789795152,-0.556163927395494,0.689380503561425,,-4.56938628312242,,
,8986.0,1438.0,6508.0,1036.0,1458.0,2314.0,2868.0,2025-08-05 16:49:41,62.0,,0.0918128965566501,-0.555987506228847,0.68908015720809,,-4.670226421763326,,
,8987.0,1439.0,6510.0,1036.0,1437.0,2288.0,2865.0,2025-08-05 16:49:42,61.0,,0.0918134520923518,-0.555931421262415,0.689392093190735,,-4.769806413799624,,
,8993.0,1439.0,6513.0,1041.0,1431.0,2292.0,2868.0,2025-08-05 16:49:43,60.0,,0.0918122645684945,-0.555820342684523,0.689899492479656,,-4.854185800812729,,
,8995.0,1439.0,6516.0,1037.0,1425.0,2302.0,2888.0,2025-08-05 16:49:44,59.0,,0.0918133905771194,-0.555811277149816,0.689369610551614,,-4.907297061428779,,
,9000.0,1438.0,6519.0,1038.0,1441.0,2309.0,2873.0,,,,0.0918130301548287,-0.556079833171283,0.689621192061509,,-4.911744725316323,,
,9003.0,1442.0,6523.0,1042.0,1446.0,2295.0,2880.0,,,,0.0918127663355452,-0.555723788085168,0.690064004169608,,-4.849751916868629,,
,9011.0,1443.0,6528.0,1041.0,1442.0,2295.0,2893.0,,,,0.0918126556651928,-0.555853429578185,0.689885673053819,,-4.704185840889915,,
,9012.0,1444.0,6530.0,1042.0,1440.0,2277.0,2885.0,,,,0.0918125560864598,-0.555974765689608,0.689312436948268,,-4.4595877531939605,,
,9015.0,1441.0,6534.0,1040.0,1435.0,2278.0,2902.0,,,,0.0918121805348903,-0.555821832022776,0.689524148961089,,-4.103134841376569,,
,9021.0,1444.0,6537.0,1043.0,1431.0,2294.0,2915.0,,,,0.0918134835891782,-0.55576328790397,0.690098277165681,,-3.625469581009945,,
,9023.0,1441.0,6539.0,1045.0,1440.0,2310.0,2905.0,,,,0.091814750948703,-0.555258080322026,0.691492974800777,,-3.0213452593155004,,
,9027.0,1444.0,6545.0,1045.0,1439.0,2302.0,2899.0,,,,0.0918171988583746,-0.554510518619722,0.69252744178684,,-2.290053472478049,,
,9029.0,1442.0,6545.0,1043.0,1435.0,2314.0,2916.0,,,,0.0918179567295973,-0.554017951220942,0.693813172505666,,-1.4356189866193265,,
,9030.0,1444.0,6547.0,1043.0,1450.0,2297.0,2927.0,,,,0.0918187641553713,-0.553063155787374,0.694484319913838,,-0.4667670651661758,,
,9029.0,1442.0,6549.0,1046.0,1447.0,2273.0,2908.0,,,,0.0918209554650804,-0.551889782177908,0.696059323578547,,0.6033144405970612,,
,9023.0,1444.0,6549.0,1045.0,1447.0,2278.0,2916.0,,,,0.0918229477045355,-0.551170225843011,0.696850732277655,,1.7573834709786715,,
,9013.0,1443.0,6543.0,1044.0,1440.0,2285.0,2925.0,,,,0.0918252743629311,-0.550310390649232,0.698974433411901,,2.9746814441198883,,
,9006.0,1442.0,6539.0,1040.0,1439.0,2291.0,2919.0,,,,0.0918265396454139,-0.549465321498152,0.700827647675195,,4.231559150450714,,
,9002.0,1440.0,6535.0,1041.0,1434.0,2286.0,2926.0,,,,0.0918292214690973,-0.548078392631547,0.700678947079092,,5.502155665049152,,
,8987.0,1437.0,6528.0,1040.0,1428.0,2270.0,2923.0,,,,0.0918304375203907,-0.547524872527248,0.702766831130145,,6.759105269564041,,
,8977.0,1436.0,6519.0,1032.0,1427.0,2283.0,2889.0,,,,0.091831937143671,-0.547041656977913,0.703903404235109,,7.974259544577442,,
,8966.0,1433.0,6510.0,1032.0,1428.0,2261.0,2897.0,,,,0.0918333418785263,-0.546302135008785,0.705162671364064,,9.119423255468485,,
,8954.0,1433.0,6503.0,1030.0,1433.0,2252.0,2901.0,,,,0.0918343034640565,-0.545819298331924,0.705704081502715,,10.167110657229074,,
,8945.0,1431.0,6493.0,1030.0,1436.0,2256.0,2902.0,,,,0.0918362619816585,-0.544848697636704,0.707359831205094,,11.091331084140931,,
,8936.0,1428.0,6482.0,1025.0,1411.0,2285.0,2892.0,,,,0.0918380071014739,-0.544406106067228,0.708088703368695,,11.86840792281061,,
,8921.0,1428.0,6477.0,1022.0,1431.0,2295.0,2910.0,,,,0.0918394252765947,-0.543993687787541,0.708974576467239,,12.477823532975975,,
,8913.0,1424.0,6469.0,1024.0,1442.0,2299.0,2885.0,,,,0.0918394746659444,-0.543335572214083,0.70930422889207,,12.90306616010799,,
,8906.0,1424.0,6466.0,1024.0,1447.0,2305.0,2900.0,,,,0.0918400883610127,-0.543190179058732,0.709612610336024,,13.13243635293087,,
,8900.0,1424.0,6457.0,1021.0,1458.0,2333.0,2907.0,,,,0.0918407649788205,-0.542859469277505,0.710449773172696,,13.15975344423203,,
,8895.0,1419.0,6453.0,1019.0,1443.0,2302.0,2912.0,,,,0.0918416935257885,-0.542613480590416,0.710992407353879,,12.984890937100388,,
,8890.0,1422.0,6449.0,1020.0,1448.0,2311.0,2906.0,,,,0.0918413883923324,-0.542548146189697,0.710526336843632,,12.614066618786952,,
,8885.0,1420.0,6443.0,1019.0,1448.0,2321.0,2907.0,,,,0.0918401256471751,-0.542713553315786,0.710303213121096,,12.059821864806315,,
,8883.0,1421.0,6440.0,1017.0,1448.0,2321.0,2890.0,,,,0.0918414330810069,-0.542571879377774,0.710104112597361,,11.340646479520345,,
,8877.0,1420.0,6441.0,1016.0,1453.0,2302.0,2887.0,,,,0.0918409635444511,-0.542236091394296,0.711304583702824,,10.48023927076598,,
,8875.0,1421.0,6441.0,1017.0,1453.0,2324.0,2856.0,,,,0.0918411004391033,-0.542357592787899,0.711047696354889,,9.506435256127652,,
,8875.0,1421.0,6438.0,1016.0,1456.0,2317.0,2876.0,,,,0.0918419060428784,-0.541764582627264,0.711500244611675,,8.449869779917009,,
,8874.0,1419.0,6437.0,1018.0,1452.0,2314.0,2882.0,,,,0.0918422471994088,-0.541586329295551,0.711175031295216,,7.342479469958938,,
,8874.0,1419.0,6438.0,1013.0,1440.0,2289.0,2857.0,,,,0.0918421772492172,-0.541862350858619,0.711286881379554,,6.2159546132316015,,
,8874.0,1418.0,6435.0,1017.0,1443.0,2317.0,2860.0,,,,0.0918424879053901,-0.542096624303664,0.711758689711817,,5.10025672385051,,
,8871.0,1419.0,6436.0,1015.0,1449.0,2319.0,2864.0,,,,0.0918412773280441,-0.542266554098614,0.711606514752921,,4.022302122425929,,
,8870.0,1421.0,6434.0,1018.0,1450.0,2322.0,2871.0,,,,0.0918419871309095,-0.541809838972118,0.711564748320082,,3.0048919021795655,,
,8870.0,1421.0,6436.0,1018.0,1437.0,2315.0,2859.0,,,,0.0918429813660381,-0.541991946791926,0.71218328481335,,2.0659447789307426,,
,8871.0,1421.0,6434.0,1017.0,1453.0,2303.0,2864.0,,,,0.0918423627164283,-0.54137043063771,0.712504399052937,,1.2180644931558127,,
,8872.0,1418.0,6433.0,1018.0,1454.0,2293.0,2874.0,,,,0.0918425456495238,-0.541340924766558,0.712889412442862,,0.468448598896445,,
,8867.0,1419.0,6434.0,1016.0,1453.0,2308.0,2881.0,,,,0.0918436932823643,-0.541000050392333,0.713315688241933,,-0.18087889838337456,,
,8870.0,1418.0,6433.0,1018.0,1445.0,2324.0,2900.0,,,,0.091845167754809,-0.540758769142911,0.714004811507272,,-0.7325512046479487,,
,8870.0,1417.0,6432.0,1017.0,1448.0,2302.0,2883.0,,,,0.0918449275146487,-0.54061313176789,0.714140758332127,,-1.1931173372976134,,
,8869.0,1417.0,6435.0,1015.0,1445.0,2297.0,2872.0,,,,0.0918463016163651,-0.540658409315759,0.713411035183927,,-1.5721463402428955,,
,8871.0,1417.0,6436.0,1017.0,1444.0,2313.0,2898.0,,,,0.0918462971184706,-0.540491084760161,0.714666230113461,,-1.8812523295139472,,
,8871.0,1419.0,6437.0,1018.0,1437.0,2289.0,2921.0,,,,0.0918465143560421,-0.540052172774554,0.715240244317128,,-2.133113075147765,,
,8869.0,1417.0,6436.0,1017.0,1434.0,2330.0,2928.0,,,,0.0918475609765191,-0.53969654118499,0.715468875462475,,-2.3405466838373736,,
,8871.0,1419.0,6437.0,1018.0,1435.0,2321.0,2905.0,,,,0.091846775263054,-0.539846220880821,0.715035877282375,,-2.51569892808187,,
,8871.0,1420.0,6436.0,1019.0,1441.0,2310.0,2907.0,,,,0.091847923674203,-0.540129140721052,0.715050122255026,,-2.6693796651261312,,
,8868.0,1419.0,6437.0,1019.0,1438.0,2297.0,2922.0,,,,0.0918479762509385,-0.540061714307118,0.715184873398156,,-2.8105723221679364,,
,8866.0,1417.0,6433.0,1018.0,1435.0,2321.0,2893.0,,,,0.0918482225789501,-0.539884545431131,0.71498181004109,,-2.94612705894986,,
,8867.0,1420.0,6437.0,1020.0,1437.0,2324.0,2901.0,,,,0.0918489285304517,-0.539482967920173,0.715427679774068,,-3.080636904253123,,
,8864.0,1417.0,6433.0,1018.0,1435.0,2289.0,2880.0,,,,0.0918490666883512,-0.539218926117924,0.715834279472678,,-3.216487110613215,,
,8863.0,1416.0,6434.0,1016.0,1442.0,2279.0,2862.0,,,,0.0918484983813469,-0.539857331454029,0.715582718080328,,-3.354060597751312,,
,8860.0,1415.0,6430.0,1017.0,1443.0,2292.0,2870.0,,,,0.0918485525055193,-0.539722424068269,0.716156649395429,,-3.4920755401459087,,
,8860.0,1415.0,6429.0,1017.0,1438.0,2303.0,2883.0,,,,0.091849109098403,-0.539466918036283,0.715533468940973,,-3.6280239013486013,,
,8855.0,1416.0,6425.0,1015.0,1436.0,2308.0,2867.0,,,,0.0918481362502488,-0.539350349897781,0.715897469590888,,-3.758672040508325,,
,8853.0,1416.0,6424.0,1017.0,1447.0,2311.0,2864.0,,,,0.0918488941901163,-0.539158581273708,0.716353664816904,,-3.8805780585834566,,
,8851.0,1413.0,6421.0,1012.0,1452.0,2299.0,2890.0,,,,0.0918478339795743,-0.539271388760735,0.715677249815482,,-3.990578129376267,,
,8852.0,1416.0,6421.0,1016.0,1446.0,2292.0,2881.0,,,,0.0918485278322867,-0.539218266409382,0.715473400839466,,-4.086197883265442,,
,8849.0,1414.0,6420.0,1016.0,1435.0,2329.0,2878.0,,,,0.0918478490907304,-0.539538574624735,0.715207185580214,,-4.165954862955379,,
,8846.0,1414.0,6420.0,1016.0,1441.0,2322.0,2886.0,,,,0.091847144134346,-0.53977318825941,0.715255030272129,,-4.229531775140126,,
,8849.0,1414.0,6418.0,1015.0,1443.0,2310.0,2907.0,,,,0.091848287463732,-0.539665218832076,0.71499662412438,,-4.277814702543067,,
,8849.0,1414.0,6421.0,1016.0,1441.0,2323.0,2884.0,,,,0.0918474285706909,-0.539430448518038,0.715430936011314,,-4.312803417143474,,
,8846.0,1414.0,6418.0,1016.0,1459.0,2324.0,2884.0,,,,0.0918479836519375,-0.539245055868264,0.715367269363187,,-4.337411390987599,,
,8848.0,1415.0,6416.0,1017.0,1459.0,2325.0,2897.0,,,,0.091848732171818,-0.538937612423956,0.716388820534289,,-4.35518069995618,,
,8847.0,1413.0,6417.0,1012.0,1451.0,2294.0,2878.0,,,,0.0918483890566066,-0.538659074770916,0.716786174172803,,-4.36994175783053,,
,8844.0,1414.0,6416.0,1013.0,1444.0,2300.0,2861.0,,,,0.0918486747974648,-0.538623127395083,0.717551129103241,,-4.385449988506268,,
,8850.0,1416.0,6419.0,1013.0,1447.0,2305.0,2886.0,,,,0.0918492876533625,-0.538948532901746,0.717459093926507,,-4.405031699695124,,
,8850.0,1415.0,6421.0,1016.0,1451.0,2308.0,2895.0,,,,0.0918496670175091,-0.538431472348948,0.717477699264935,,-4.431270106625498,,
,8852.0,1415.0,6423.0,1017.0,1455.0,2280.0,2867.0,,,,0.0918489416916197,-0.538194705607153,0.717090995533612,,-4.465759843894314,,
,8853.0,1414.0,6421.0,1017.0,1441.0,2306.0,2860.0,,,,0.0918499045297766,-0.538284954469725,0.717781822828844,,-4.508954152178884,,
,8854.0,1415.0,6425.0,1017.0,1453.0,2308.0,2863.0,,,,0.0918494767463103,-0.53798678094294,0.718230172027927,,-4.56012282468796,,
,8857.0,1415.0,6423.0,1017.0,1448.0,2321.0,2863.0,,,,0.0918493796790403,-0.538089412201815,0.718117472710181,,-4.617430623384343,,
,8861.0,1416.0,6423.0,1018.0,1438.0,2334.0,2869.0,,,,0.0918490988039892,-0.538545600526223,0.717410564978415,,-4.6781351160117195,,
,8863.0,1417.0,6428.0,1018.0,1443.0,2298.0,2889.0,,,,0.0918489951355164,-0.53838129126361,0.718086637742928,,-4.738890031094813,,
2025-08-05 16:46:11,8864.0,1419.0,6429.0,1019.0,1444.0,2311.0,2868.0,,,2025/08/05 04:46:11 PM,0.0918493701548992,-0.538449705446424,0.718318859291964,,-4.7961264076797185,,
,8867.0,1419.0,6430.0,1020.0,1446.0,2317.0,2849.0,,,,0.0918495448254718,-0.538088485614734,0.718464238572494,,-4.846471432544854,,
,8867.0,1419.0,6432.0,1019.0,1451.0,2323.0,2859.0,,,,0.0918500191035515,-0.537571585631503,0.717888122531424,,-4.887157166205525,,
,8869.0,1415.0,6433.0,1019.0,1436.0,2297.0,2855.0,,,,0.0918509502826373,-0.537522650452484,0.719030985526154,,-4.916370793939686,,
,8874.0,1418.0,6436.0,1020.0,1453.0,2333.0,2869.0,,,,0.0918505889786796,-0.537126428883237,0.720415705486219,,-4.933504603256818,,
,8875.0,1418.0,6436.0,1023.0,1454.0,2347.0,2904.0,,,,0.0918517177419483,-0.536622123435423,0.719819703255061,,-4.939275363356165,,
,8882.0,1418.0,6442.0,1023.0,1453.0,2338.0,2911.0,,,,0.0918521323945142,-0.536776818824264,0.720433302697334,,-4.935696448062643,,
,8883.0,1417.0,6438.0,1023.0,1441.0,2307.0,2887.0,,,,0.0918521164961965,-0.536707853869358,0.720475518676148,,-4.925900086083302,,
,8886.0,1421.0,6445.0,1024.0,1445.0,2321.0,2880.0,,,,0.0918532715257346,-0.536113736202099,0.721737320093618,,-4.913820692074778,,
,8888.0,1419.0,6445.0,1022.0,1447.0,2350.0,2852.0,,,,0.0918549670510714,-0.535969439553562,0.721747891043743,,-4.903762756680545,,
,8890.0,1422.0,6449.0,1024.0,1453.0,2334.0,2859.0,,,,0.0918542591889481,-0.535725090024148,0.721767527380252,,-4.899887503061211,,
,8893.0,1419.0,6451.0,1022.0,1443.0,2313.0,2891.0,,,,0.0918548471889357,-0.535959154430606,0.722439757305903,,-4.905660639448113,,
,8897.0,1420.0,6451.0,1026.0,1446.0,2318.0,2888.0,,,,0.0918555343212856,-0.535790750309352,0.722352662095178,,-4.923308511559775,,
,8902.0,1424.0,6457.0,1027.0,1439.0,2315.0,2880.0,,,,0.0918551820577578,-0.535563390944089,0.722170903670148,,-4.9533316208214675,,
,8900.0,1421.0,6458.0,1028.0,1435.0,2319.0,2894.0,,,,0.0918559852476213,-0.535291721048099,0.723448904016915,,-4.994122834064853,,
,8905.0,1424.0,6461.0,1027.0,1431.0,2319.0,2901.0,,,,0.09185623653292,-0.535120098415703,0.723996280359234,,-5.041732597402058,,
,8909.0,1425.0,6463.0,1028.0,1443.0,2313.0,2895.0,,,,0.0918565488126919,-0.534914845554741,0.724602429756443,,-5.089814862938894,,
,8910.0,1426.0,6466.0,1030.0,1427.0,2301.0,2882.0,,,,0.0918570322479631,-0.534579302283543,0.724465858983569,,-5.129774995273283,,
,8914.0,1424.0,6469.0,1030.0,1436.0,2299.0,2885.0,,,,0.0918575892765846,-0.534520358795986,0.724134482944919,,-5.151124551789625,,
,8914.0,1425.0,6469.0,1027.0,1449.0,2263.0,2869.0,,,,0.0918579134083328,-0.534085312255864,0.724646267943906,,-5.142027832013456,,
,8919.0,1424.0,6471.0,1029.0,1451.0,2286.0,2864.0,,,,0.091858361117915,-0.533484610096262,0.725800914995364,,-5.09000265746882,,
,8922.0,1424.0,6472.0,1030.0,1439.0,2307.0,2871.0,,,,0.0918590298637898,-0.533415847293601,0.725780051627861,,-4.982715748128815,,
,8923.0,1425.0,6474.0,1029.0,1435.0,2313.0,2874.0,,,,0.0918590977139157,-0.533164791523707,0.726010797577602,,-4.808795844066767,,
,8926.0,1426.0,6476.0,1033.0,1430.0,2328.0,2878.0,,,,0.0918591395792009,-0.533528148692726,0.725578122663319,,-4.558580448949549,,
,8929.0,1425.0,6481.0,1032.0,1430.0,2317.0,2872.0,,,,0.0918600160084787,-0.533072449593358,0.725464845534363,,-4.224718053337484,,
,8933.0,1425.0,6481.0,1032.0,1444.0,2317.0,2865.0,,,,0.091859833837263,-0.532790924677791,0.725863311516691,,-3.8025668767619463,,
,8934.0,1427.0,6484.0,1035.0,1448.0,2322.0,2842.0,,,,0.0918601356630359,-0.532614711074911,0.726099508601777,,-3.2903603538865385,,
,8940.0,1429.0,6486.0,1035.0,1449.0,2321.0,2866.0,,,,0.0918601244769683,-0.532777536458217,0.726277513927262,,-2.6891437805888616,,
,8942.0,1429.0,6488.0,1033.0,1441.0,2326.0,2898.0,,,,0.0918607050499167,-0.532187701843519,0.726065438501665,,-2.002520041269598,,
,8946.0,1429.0,6494.0,1037.0,1449.0,2297.0,2898.0,,,,0.0918613144149373,-0.532525609190582,0.72760630431306,,-1.236269419149429,,
,8949.0,1431.0,6497.0,1036.0,1443.0,2291.0,2895.0,,,,0.0918616374238282,-0.532210502884329,0.727387527926526,,-0.39792415394770797,,
,8950.0,1431.0,6496.0,1037.0,1440.0,2302.0,2890.0,,,,0.0918628264834557,-0.531475084700228,0.728558498566455,,0.503620422937202,,
,8952.0,1430.0,6500.0,1036.0,1446.0,2344.0,2902.0,,,,0.0918632431236268,-0.53134803449596,0.728470836355969,,1.458389939078515,,
,8957.0,1432.0,6503.0,1040.0,1435.0,2335.0,2901.0,,,,0.0918640042924036,-0.530836329607986,0.729247238156881,,2.4554677012724064,,
,8963.0,1433.0,6506.0,1039.0,1449.0,2343.0,2910.0,,,,0.0918638973769269,-0.530567427007957,0.729335331895678,,3.482974544126766,,
,8965.0,1433.0,6508.0,1041.0,1446.0,2327.0,2893.0,,,,0.0918640418366725,-0.530491653753487,0.730360934641219,,4.52791648419169,,
,8966.0,1432.0,6508.0,1039.0,1443.0,2277.0,2905.0,,,,0.0918649810768384,-0.530564157985124,0.729705571894831,,5.575954565169576,,
,8970.0,1431.0,6511.0,1038.0,1443.0,2303.0,2897.0,,,,0.0918653779780876,-0.529865710448696,0.730961379664765,,6.611172263158404,,
,8974.0,1435.0,6513.0,1040.0,1445.0,2329.0,2876.0,,,,0.091865938470824,-0.529630073672028,0.731993868436249,,7.6159258507658825,,
,8976.0,1435.0,6517.0,1042.0,1440.0,2323.0,2874.0,,,,0.091868443574915,-0.528920135902186,0.732985928950785,,8.570861400992925,,
,8980.0,1434.0,6520.0,1041.0,1432.0,2303.0,2876.0,,,,0.0918687349203661,-0.528661533679249,0.733721281588104,,9.455168566120063,,
,8982.0,1435.0,6523.0,1044.0,1437.0,2308.0,2881.0,,,,0.0918692713204252,-0.528112458609307,0.733766318655835,,10.247116426124618,,
,8987.0,1437.0,6526.0,1045.0,1447.0,2313.0,2862.0,,,,0.0918696472715684,-0.527684853936963,0.736034956331621,,10.924882117903405,,
,8992.0,1439.0,6530.0,1044.0,1447.0,2338.0,2862.0,,,,0.0918700781302717,-0.527654409245879,0.73539208638743,,11.467641702355095,,
,8995.0,1437.0,6531.0,1045.0,1445.0,2334.0,2895.0,,,,0.0918709331858521,-0.527368148526779,0.735948345472067,,11.85684971066281,,
,8997.0,1435.0,6535.0,1045.0,1446.0,2327.0,2883.0,,,,0.0918717366970496,-0.527127172496834,0.735610068760988,,12.077595485893474,,
,9003.0,1437.0,6539.0,1046.0,1452.0,2334.0,2886.0,,,,0.0918705497392747,-0.527449715143455,0.734345831086413,,12.119897576318905,,
,9007.0,1439.0,6541.0,1048.0,1453.0,2342.0,2896.0,,,,0.0918687271623235,-0.527712660743189,0.734349146046551,,11.979787515272863,,
,9010.0,1439.0,6540.0,1048.0,1458.0,2324.0,2884.0,,,,0.0918693855931619,-0.528191378934331,0.734045061657503,,11.660044442287472,,
,9010.0,1440.0,6543.0,1048.0,1447.0,2333.0,2897.0,,,,0.091869879764919,-0.52837243880153,0.733972341757056,,11.17047259052737,,
,9014.0,1440.0,6545.0,1051.0,1452.0,2355.0,2925.0,,,,0.0918694517666797,-0.528254580087128,0.733732742365028,,10.527662050331305,,
,9015.0,1441.0,6548.0,1050.0,1449.0,2312.0,2919.0,,,,0.0918686531300728,-0.528619309433507,0.733565063818853,,9.75423306814792,,
,9010.0,1441.0,6545.0,1051.0,1439.0,2304.0,2906.0,,,,0.0918693189977188,-0.528561220080475,0.734386409585034,,8.877625531733692,,
,9004.0,1437.0,6544.0,1044.0,1448.0,2306.0,2893.0,,,,0.0918697509574443,-0.528513420449999,0.733866042774275,,7.928546930888993,,
,8996.0,1437.0,6538.0,1046.0,1442.0,2319.0,2891.0,,,,0.0918693362844232,-0.528935117750295,0.733835382709687,,6.939224923741578,,
,8985.0,1436.0,6532.0,1043.0,1437.0,2303.0,2894.0,,,,0.0918685108869024,-0.52819272813417,0.733462453001636,,5.941620689515338,,
,8975.0,1435.0,6525.0,1042.0,1435.0,2299.0,2889.0,,,,0.0918684806773581,-0.528078519481946,0.733636779416195,,4.9657480284144135,,
,8962.0,1431.0,6513.0,1038.0,1430.0,2273.0,2883.0,,,,0.0918687065591262,-0.528402840581953,0.734537962144393,,4.038216298698466,,
,8952.0,1430.0,6508.0,1036.0,1432.0,2285.0,2871.0,,,,0.0918681394498609,-0.528373533574924,0.733543557485208,,3.1810804644784554,,
,8940.0,1431.0,6499.0,1036.0,1430.0,2289.0,2877.0,,,,0.0918681022816839,-0.528609017293489,0.734020197840405,,2.4110464087538346,,
,8928.0,1428.0,6489.0,1033.0,1437.0,2280.0,2887.0,,,,0.0918672994140092,-0.528546848945492,0.733559076207687,,1.7390496067310754,,
,8915.0,1424.0,6479.0,1031.0,1434.0,2278.0,2877.0,,,,0.0918676741076299,-0.528197506530157,0.73381291399667,,1.1702018049835448,,
,8904.0,1423.0,6468.0,1027.0,1441.0,2302.0,2867.0,,,,0.0918673600115014,-0.52834507415281,0.733325363498155,,0.7040816899867564,,
,8894.0,1422.0,6461.0,1026.0,1432.0,2297.0,2870.0,,,,0.091868467116923,-0.528354897516821,0.733144562559865,,0.3353289376808517,,
,8888.0,1422.0,6454.0,1022.0,1438.0,2300.0,2873.0,,,,0.0918680359898048,-0.528419069717241,0.733221115584763,,0.05448547403682442,,
,8875.0,1418.0,6445.0,1022.0,1453.0,2305.0,2894.0,,,,0.0918677160916054,-0.528937986901977,0.733168008693306,,-0.15098549713469558,,
,8868.0,1417.0,6436.0,1022.0,1440.0,2291.0,2893.0,,,,0.0918679104392818,-0.528978446663874,0.733255926359933,,-0.29558086484145873,,
,8861.0,1418.0,6435.0,1021.0,1446.0,2291.0,2879.0,,,,0.0918675724168878,-0.52936262717659,0.732821402783012,,-0.39462005065295225,,
,8858.0,1413.0,6426.0,1020.0,1441.0,2306.0,2878.0,,,,0.0918671854037422,-0.52917597547226,0.732369364344593,,-0.4631651060101882,,
,8855.0,1414.0,6427.0,1018.0,1452.0,2301.0,2878.0,,,,0.0918669541218446,-0.528872177826559,0.732447273567998,,-0.5150651222083988,,
,8849.0,1415.0,6424.0,1018.0,1447.0,2291.0,2858.0,,,,0.0918667486066354,-0.529414484376799,0.732560587520731,,-0.5621772717376669,,
,8849.0,1416.0,6420.0,1019.0,1439.0,2320.0,2880.0,,,,0.0918672658033086,-0.528762251910495,0.732929121130817,,-0.6137999724168358,,
,8846.0,1414.0,6416.0,1018.0,1436.0,2325.0,2890.0,,,,0.0918674441767964,-0.528968575089563,0.732646839551971,,-0.6763364343894792,,
,8841.0,1412.0,6414.0,1017.0,1431.0,2305.0,2876.0,,,,0.0918687888639928,-0.528522031302646,0.732653478531824,,-0.7531910077613818,,
,8838.0,1414.0,6414.0,1016.0,1433.0,2316.0,2867.0,,,,0.0918674117522215,-0.52846800058815,0.732169054157427,,-0.8448873614656752,,
,8840.0,1413.0,6409.0,1016.0,1440.0,2316.0,2888.0,,,,0.0918683919387925,-0.529023419377831,0.733275702846034,,-0.949386772597051,,
,8836.0,1412.0,6410.0,1015.0,1445.0,2318.0,2884.0,,,,0.0918682040422135,-0.52903403623952,0.732905400202688,,-1.0625761164629741,,
,8835.0,1410.0,6407.0,1015.0,1446.0,2316.0,2872.0,,,,0.0918678080883954,-0.528905637223156,0.732909782973714,,-1.178887514847689,,
,8833.0,1409.0,6406.0,1013.0,1452.0,2322.0,2911.0,,,,0.0918674233421907,-0.529025611708554,0.73229709322601,,-1.2920040209744998,,
,8833.0,1413.0,6408.0,1016.0,1446.0,2341.0,2920.0,,,,0.0918672228217283,-0.529495283052141,0.731924440254004,,-1.3955977775255937,,
,8832.0,1414.0,6406.0,1016.0,1450.0,2322.0,2907.0,,,,0.091867088601428,-0.529035480166465,0.731265108962474,,-1.484039746210484,,
,8830.0,1413.0,6406.0,1017.0,1443.0,2319.0,2900.0,,,,0.091866466023827,-0.529269282494009,0.731628031701723,,-1.5530162315522116,,
,8827.0,1411.0,6404.0,1013.0,1437.0,2280.0,2885.0,,,,0.0918663425693595,-0.529486922408423,0.73217215896917,,-1.5999907872005803,,
,8829.0,1411.0,6406.0,1016.0,1437.0,2294.0,2856.0,,,,0.0918667803496031,-0.529477695216256,0.731909103347217,,-1.624462938039116,,
,8831.0,1411.0,6408.0,1017.0,1439.0,2305.0,2903.0,,,,0.0918663446853489,-0.529629155437194,0.732464552878653,,-1.627996450400811,,
,8831.0,1410.0,6406.0,1016.0,1450.0,2313.0,2917.0,,,,0.0918665679119053,-0.529505885049958,0.731718288098134,,-1.614016154744125,,
,8829.0,1410.0,6405.0,1015.0,1441.0,2303.0,2879.0,,,,0.0918662329898705,-0.529427633039617,0.731792392361919,,-1.5873997293732904,,
,8829.0,1410.0,6406.0,1016.0,1447.0,2276.0,2882.0,,,,0.0918658502798242,-0.529424443173856,0.732050539679541,,-1.553916236214073,,
,8828.0,1412.0,6404.0,1018.0,1428.0,2307.0,2897.0,,,,0.0918673771413694,-0.528990255059732,0.732793442812477,,-1.5195836064016806,,
,8825.0,1413.0,6407.0,1016.0,1429.0,2304.0,2893.0,,,,0.0918668601103641,-0.528569969480129,0.733360408380218,,-1.4900292377478013,,
,8826.0,1410.0,6406.0,1015.0,1451.0,2323.0,2893.0,,,,0.0918687944852589,-0.528341836263444,0.733660811667923,,-1.4699378615782834,,
,8827.0,1412.0,6406.0,1016.0,1441.0,2318.0,2884.0,,,,0.0918689148988177,-0.528247004352276,0.733868669320359,,-1.4626570018215754,,
,8825.0,1412.0,6402.0,1015.0,1445.0,2301.0,2900.0,,,,0.0918694423223382,-0.528012667542899,0.7335918450013,,-1.4700041375479458,,
,8823.0,1412.0,6404.0,1016.0,1442.0,2303.0,2899.0,,,,0.0918693377357852,-0.527966349840698,0.733665511184944,,-1.492286091957238,,
,8823.0,1412.0,6401.0,1013.0,1423.0,2311.0,2904.0,,,,0.091868921478783,-0.528103579390891,0.733360009273594,,-1.5285074642878136,,
,8820.0,1409.0,6399.0,1016.0,1427.0,2307.0,2882.0,,,,0.0918696392366288,-0.528229120762858,0.733687146835587,,-1.5767184068985869,,
,8816.0,1410.0,6401.0,1016.0,1428.0,2311.0,2899.0,,,,0.0918695464068393,-0.528352836722807,0.733178872499417,,-1.6344376239010843,,
,8815.0,1410.0,6400.0,1015.0,1430.0,2304.0,2915.0,,,,0.0918686290670414,-0.528396611282917,0.732712562915267,,-1.699084876509269,,
,8811.0,1407.0,6395.0,1015.0,1422.0,2287.0,2887.0,,,,0.091868447213516,-0.528713121979451,0.732419667245306,,-1.7683654114461833,,
,8811.0,1409.0,6394.0,1013.0,1431.0,2311.0,2891.0,,,,0.091868498967771,-0.528573279340682,0.732582486099444,,-1.8405621264338474,,
,8810.0,1411.0,6394.0,1012.0,1427.0,2306.0,2892.0,,,,0.0918675958925562,-0.528957889733697,0.731976996691843,,-1.9147069411113928,,
,8809.0,1410.0,6394.0,1014.0,1429.0,2298.0,2895.0,,,,0.0918680460176947,-0.529106758054506,0.733033610191815,,-1.9906198137995819,,
,8806.0,1408.0,6392.0,1012.0,1431.0,2304.0,2892.0,,,,0.0918683073789968,-0.528926703476131,0.732992775489083,,-2.0688215772490595,,
,8804.0,1408.0,6390.0,1014.0,1429.0,2265.0,2868.0,,,,0.0918679977227377,-0.528666120552206,0.732712799794933,,-2.150343331545651,,
,8803.0,1407.0,6392.0,1013.0,1435.0,2270.0,2877.0,,,,0.0918670426527794,-0.528845734111061,0.732590787379105,,-2.2364673993953477,,
,8804.0,1410.0,6392.0,1016.0,1435.0,2276.0,2891.0,,,,0.0918673632100506,-0.528859964886238,0.732374451029258,,-2.3284402721856123,,
,8804.0,1409.0,6393.0,1013.0,1442.0,2271.0,2890.0,,,,0.091867670395033,-0.5291744314314,0.732257740600462,,-2.4271961628922774,,
,8801.0,1406.0,6389.0,1013.0,1430.0,2300.0,2890.0,,,,0.0918669183652854,-0.529125855809422,0.732399081595671,,-2.5331226072118875,,
,8804.0,1407.0,6390.0,1013.0,1437.0,2293.0,2895.0,,,,0.0918672168680226,-0.5293117891621,0.732116627044439,,-2.645890037192418,,
,8805.0,1407.0,6391.0,1013.0,1443.0,2309.0,2897.0,,,,0.0918661194350445,-0.529388850145786,0.732163554006544,,-2.764358191548763,,
,8808.0,1407.0,6394.0,1013.0,1451.0,2299.0,2898.0,,,,0.0918676649004866,-0.528872915462933,0.732272908861499,,-2.8865653075350792,,
,8808.0,1405.0,6393.0,1013.0,1450.0,2298.0,2887.0,,,,0.0918669459022564,-0.528915416473407,0.732617429148711,,-3.009801515895655,,
,8810.0,1407.0,6394.0,1012.0,1445.0,2312.0,2872.0,,,,0.0918682094799333,-0.528994238663151,0.73240914958082,,-3.1307646972517604,,
,8812.0,1407.0,6397.0,1014.0,1443.0,2314.0,2879.0,,,,0.0918678851442861,-0.529041293939798,0.732207615975561,,-3.2457934932462544,,
,8813.0,1409.0,6397.0,1014.0,1449.0,2315.0,2872.0,,,,0.0918677889218512,-0.529214568997187,0.732559603676189,,-3.3511665883647757,,
,8813.0,1408.0,6397.0,1014.0,1452.0,2316.0,2880.0,,,,0.0918677442478906,-0.529212621806316,0.732117600538904,,-3.4434491737712496,,
,8817.0,1407.0,6398.0,1015.0,1436.0,2313.0,2870.0,,,,0.0918676046303982,-0.529548689931215,0.731966962099729,,-3.519857600761721,,
,8820.0,1410.0,6403.0,1018.0,1435.0,2306.0,2892.0,,,,0.0918669980731638,-0.529979021127141,0.730995251744846,,-3.578604191019298,,
,8821.0,1411.0,6405.0,1017.0,1441.0,2308.0,2894.0,,,,0.0918666688323586,-0.529496397019832,0.731080886973202,,-3.6191793846947857,,
,8822.0,1410.0,6406.0,1017.0,1435.0,2318.0,2877.0,,,,0.0918680113801054,-0.529301656828339,0.732034879289975,,-3.64253028463143,,
,8826.0,1409.0,6405.0,1016.0,1427.0,2308.0,2872.0,,,,0.0918669356962604,-0.529346813345429,0.731808272444381,,-3.6511031241252065,,
,8829.0,1411.0,6409.0,1019.0,1433.0,2304.0,2859.0,,,,0.0918679458909174,-0.529075641229215,0.73089280681258,,-3.6487300470813513,,
,8833.0,1411.0,6410.0,1017.0,1445.0,2307.0,2864.0,,,,0.0918676717465416,-0.5292603263777,0.7314601428938,,-3.6403552580519927,,
,8833.0,1412.0,6411.0,1017.0,1437.0,2323.0,2879.0,,,,0.0918669658847349,-0.529269078711656,0.731735037994072,,-3.631610392495441,,
,8836.0,1413.0,6415.0,1019.0,1451.0,2320.0,2907.0,,,,0.0918670641014796,-0.529348766034824,0.731316089191576,,-3.6282630855100626,,
,8843.0,1413.0,6417.0,1019.0,1434.0,2309.0,2899.0,,,,0.0918670307542104,-0.529665122978356,0.731506953645171,,-3.6355756344886934,,
,8846.0,1413.0,6420.0,1021.0,1429.0,2317.0,2895.0,,,,0.09186696939974,-0.529910689298028,0.732119988066792,,-3.6576216469775433,,
,8845.0,1413.0,6423.0,1024.0,1436.0,2306.0,2906.0,,,,0.0918658040232834,-0.529691706258596,0.731386478794152,,-3.6966168103312698,,
2025-08-05 16:46:12,8848.0,1414.0,6423.0,1018.0,1438.0,2319.0,2895.0,,,2025/08/05 04:46:12 PM,0.0918660829511724,-0.529793473808201,0.730662340501812,,-3.752324649032327,,
,8855.0,1417.0,6427.0,1022.0,1435.0,2299.0,2916.0,,,,0.0918658760974532,-0.529835236473406,0.731002624364638,,-3.821598665010273,,
,8853.0,1416.0,6430.0,1023.0,1429.0,2290.0,2910.0,,,,0.0918670308633721,-0.529702832824688,0.731249636275041,,-3.8981178532535594,,
,8856.0,1415.0,6430.0,1023.0,1429.0,2276.0,2891.0,,,,0.0918658783999556,-0.529745810394055,0.731395066264046,,-3.972362423760967,,
,8860.0,1415.0,6432.0,1021.0,1417.0,2280.0,2867.0,,,,0.0918669619269692,-0.529630695850167,0.730997883494023,,-4.031859992427007,,
,8861.0,1417.0,6435.0,1026.0,1445.0,2297.0,2915.0,,,,0.0918664737657844,-0.529455122907482,0.730394798321157,,-4.0617097183228195,,
,8867.0,1419.0,6438.0,1025.0,1436.0,2282.0,2922.0,,,,0.0918670547484289,-0.529596320632968,0.730866172645473,,-4.045364695961627,,
,8867.0,1416.0,6437.0,1026.0,1428.0,2282.0,2903.0,,,,0.0918673607040081,-0.52960383262802,0.73104762032275,,-3.965625043013664,,
,8871.0,1414.0,6438.0,1024.0,1435.0,2288.0,2887.0,,,,0.0918683056143874,-0.52918138442462,0.730488047625542,,-3.805770062550102,,
,8874.0,1418.0,6442.0,1027.0,1440.0,2306.0,2897.0,,,,0.0918667108114588,-0.52928515110018,0.730985994338759,,-3.5507411632933836,,
,8877.0,1418.0,6444.0,1028.0,1432.0,2325.0,2878.0,,,,0.0918669639688846,-0.529609684993962,0.731249395134172,,-3.188279520796866,,
,8882.0,1417.0,6447.0,1028.0,1437.0,2309.0,2890.0,,,,0.0918667953351793,-0.529603669106089,0.73094571942049,,-2.709924072759041,,
,8884.0,1418.0,6450.0,1027.0,1441.0,2291.0,2874.0,,,,0.0918664666045599,-0.529738056521135,0.730649435803746,,-2.1117865153960738,,
,8886.0,1421.0,6454.0,1029.0,1434.0,2303.0,2890.0,,,,0.0918672140929002,-0.529705787956213,0.731161760051744,,-1.3950404871818725,,
,8891.0,1421.0,6453.0,1032.0,1438.0,2291.0,2884.0,,,,0.0918672581688123,-0.52952895380608,0.730249668579583,,-0.5660906484571259,,
,8893.0,1421.0,6458.0,1030.0,1430.0,2283.0,2879.0,,,,0.0918664388860209,-0.529813664989848,0.730945948822716,,0.36357984745525973,,
,8894.0,1421.0,6460.0,1029.0,1430.0,2292.0,2878.0,,,,0.0918682449209288,-0.529753102605466,0.730106868711154,,1.377853274446673,,
,8894.0,1423.0,6462.0,1030.0,1431.0,2290.0,2865.0,,,,0.0918673389623376,-0.529333699338192,0.731136936276017,,2.456656988771926,,
,8901.0,1424.0,6465.0,1033.0,1439.0,2296.0,2866.0,,,,0.0918678212799582,-0.52945179919188,0.730709725717671,,3.5768076657654015,,
,8904.0,1424.0,6468.0,1034.0,1434.0,2301.0,2865.0,,,,0.0918674780046182,-0.529474681247507,0.731172287974378,,4.712944895789793,,
,8905.0,1422.0,6469.0,1032.0,1434.0,2313.0,2875.0,,,,0.0918676183048354,-0.52950506499573,0.731470070015485,,5.838485605295871,,
,8909.0,1424.0,6469.0,1034.0,1430.0,2310.0,2881.0,,,,0.0918678203004937,-0.529758934132893,0.731630939849114,,6.926545759053224,,
,8916.0,1425.0,6474.0,1034.0,1434.0,2283.0,2898.0,,,,0.0918674332910813,-0.529417800697549,0.730857578492923,,7.950795487830851,,
,8918.0,1426.0,6477.0,1034.0,1433.0,2293.0,2896.0,,,,0.0918670609519509,-0.529717818700234,0.730422521774055,,8.886234162187497,,
,8920.0,1424.0,6480.0,1036.0,1431.0,2276.0,2887.0,,,,0.0918665009039509,-0.530061969599821,0.729914047431936,,9.709889148636272,,
,8925.0,1426.0,6481.0,1036.0,1429.0,2310.0,2880.0,,,,0.0918664706766511,-0.53005022568384,0.729987578819451,,10.401452725921501,,
,8928.0,1427.0,6485.0,1038.0,1440.0,2293.0,2893.0,,,,0.0918661777384872,-0.530366113604783,0.729946371204023,,10.943873647788822,,
,8931.0,1428.0,6489.0,1039.0,1433.0,2275.0,2887.0,,,,0.0918659184514642,-0.53016603974257,0.730004322971719,,11.323912652058425,,
,8932.0,1426.0,6490.0,1039.0,1422.0,2284.0,2873.0,,,,0.0918662305325235,-0.530011051789558,0.729924347268843,,11.532656595866543,,
,8937.0,1427.0,6492.0,1038.0,1435.0,2285.0,2888.0,,,,0.0918676298123037,-0.529728431312425,0.729705279943425,,11.565967425504395,,
,8941.0,1428.0,6497.0,1039.0,1443.0,2296.0,2902.0,,,,0.0918666535455782,-0.53004754159503,0.730318713474121,,11.424824292422645,,
,8945.0,1432.0,6500.0,1042.0,1444.0,2292.0,2900.0,,,,0.0918662730513004,-0.529676325554503,0.729870127957632,,11.115504267587113,,
,8950.0,1430.0,6502.0,1041.0,1433.0,2286.0,2884.0,,,,0.0918663965293056,-0.529949321844369,0.730355944363978,,10.649543374994137,,
,8949.0,1429.0,6504.0,1043.0,1439.0,2268.0,2879.0,,,,0.0918676416296935,-0.529625891521543,0.730408633321231,,10.043428243886957,,
,8955.0,1431.0,6508.0,1044.0,1440.0,2285.0,2885.0,,,,0.0918672362985694,-0.529940815576091,0.730479842850707,,9.317990714122868,,
,8958.0,1431.0,6511.0,1041.0,1431.0,2292.0,2896.0,,,,0.091867792512879,-0.529762773216374,0.730824537916047,,8.497510947790357,,
,8965.0,1434.0,6515.0,1045.0,1432.0,2301.0,2898.0,,,,0.091867077040221,-0.529670084000126,0.730068020247108,,7.608572790911995,,
,8966.0,1432.0,6517.0,1044.0,1434.0,2301.0,2905.0,,,,0.0918669073452505,-0.530649159229917,0.73024995450016,,6.678749642438353,,
,8971.0,1432.0,6521.0,1046.0,1441.0,2284.0,2925.0,,,,0.0918672669873856,-0.529913747593963,0.730338510032566,,5.735222171431734,,
,8975.0,1433.0,6524.0,1045.0,1442.0,2295.0,2910.0,,,,0.0918666471952611,-0.529804493766124,0.730683636001302,,4.803437119795801,,
,8979.0,1437.0,6527.0,1047.0,1446.0,2295.0,2900.0,,,,0.0918667645978682,-0.529861189684291,0.730098198046362,,3.905910136379386,,
,8979.0,1433.0,6529.0,1047.0,1443.0,2302.0,2904.0,,,,0.0918665713151961,-0.529695552487155,0.73063152922383,,3.0612591070665336,,
,8984.0,1435.0,6530.0,1049.0,1437.0,2287.0,2887.0,,,,0.0918668720400525,-0.529836018232144,0.730091461922426,,2.283531966153473,,
,8983.0,1438.0,6530.0,1048.0,1442.0,2294.0,2882.0,,,,0.0918663340914559,-0.530129890498062,0.731305656949572,,1.5818670346154382,,
,8983.0,1435.0,6533.0,1049.0,1442.0,2286.0,2884.0,,,,0.0918674630907616,-0.530238916262581,0.730406708497525,,0.9604957449077204,,
,8978.0,1434.0,6532.0,1044.0,1441.0,2311.0,2896.0,,,,0.0918665400352736,-0.530196510602397,0.730749369750496,,0.41906873955362467,,
,8968.0,1431.0,6524.0,1041.0,1446.0,2296.0,2882.0,,,,0.0918667949980694,-0.529749705292775,0.730072907172552,,-0.04674038168891842,,
,8960.0,1431.0,6522.0,1044.0,1433.0,2296.0,2909.0,,,,0.0918660406422794,-0.52987185065112,0.729883676035205,,-0.4444205224348147,,
,8948.0,1430.0,6514.0,1041.0,1427.0,2322.0,2908.0,,,,0.0918651473279731,-0.530383934821771,0.729352577982166,,-0.7836776139884073,,
,8936.0,1429.0,6504.0,1035.0,1445.0,2311.0,2899.0,,,,0.0918650455509823,-0.530666070788496,0.729180939977156,,-1.075442102992996,,
,8923.0,1425.0,6496.0,1036.0,1439.0,2290.0,2902.0,,,,0.0918651100517666,-0.530897975727189,0.729297448792917,,-1.3309091535425,,
,8910.0,1425.0,6485.0,1034.0,1408.0,2292.0,2898.0,,,,0.0918650801727911,-0.530537454472868,0.729680541130818,,-1.5606806699280282,,
,8897.0,1424.0,6475.0,1031.0,1413.0,2290.0,2893.0,,,,0.0918655236713933,-0.530358206627288,0.729506535981376,,-1.7740631116546888,,
,8882.0,1418.0,6461.0,1028.0,1420.0,2299.0,2892.0,,,,0.0918647941780108,-0.530322106109923,0.729301802765234,,-1.9785573971161636,,
,8868.0,1415.0,6450.0,1023.0,1434.0,2306.0,2914.0,,,,0.0918642120031772,-0.530536003890389,0.728949133220974,,-2.179558736952245,,
,8854.0,1415.0,6443.0,1025.0,1416.0,2287.0,2904.0,,,,0.0918647323833606,-0.530514012791534,0.729246289510263,,-2.3802665548195963,,
,8845.0,1416.0,6431.0,1022.0,1416.0,2289.0,2914.0,,,,0.0918641839078136,-0.53045272496599,0.728977021452614,,-2.5817890122053813,,
,8831.0,1412.0,6425.0,1017.0,1430.0,2259.0,2909.0,,,,0.0918645400953192,-0.53080812183239,0.728667549634182,,-2.7834139040002928,,
,8825.0,1412.0,6416.0,1014.0,1426.0,2280.0,2890.0,,,,0.0918642800912818,-0.531233458623826,0.728266766421132,,-2.9830081852553545,,
,8819.0,1412.0,6410.0,1015.0,1429.0,2281.0,2892.0,,,,0.0918639984284271,-0.531175191712234,0.729173816574781,,-3.1775020237252236,,
,8813.0,1407.0,6406.0,1015.0,1414.0,2288.0,2900.0,,,,0.0918642889018388,-0.531014969764681,0.728526712922165,,-3.363409707287513,,
,8807.0,1411.0,6402.0,1013.0,1403.0,2315.0,2903.0,,,,0.0918645720235911,-0.530910004458689,0.729178996150581,,-3.537338950215546,,
,8800.0,1409.0,6394.0,1009.0,1412.0,2309.0,2898.0,,,,0.0918637392123832,-0.531443950204054,0.728414848537562,,-3.6964429655900655,,
,8797.0,1409.0,6391.0,1012.0,1420.0,2307.0,2893.0,,,,0.0918629290042982,-0.531573163753435,0.727280012916159,,-3.838777239493666,,
,8796.0,1407.0,6386.0,1012.0,1423.0,2297.0,2902.0,,,,0.0918622846151478,-0.53180744611677,0.72644921097661,,-3.9635351025818935,,
,8791.0,1406.0,6384.0,1010.0,1420.0,2297.0,2907.0,,,,0.0918619071286005,-0.532319708716349,0.726604511259354,,-4.071150718144833,,
,8786.0,1404.0,6381.0,1007.0,1444.0,2312.0,2909.0,,,,0.0918614483522043,-0.531655380091678,0.726792208924321,,-4.163271905734099,,
,8787.0,1406.0,6379.0,1009.0,1446.0,2295.0,2899.0,,,,0.0918624090177308,-0.531880448182604,0.72647240103703,,-4.2426161848062085,,
,8785.0,1407.0,6380.0,1011.0,1442.0,2288.0,2900.0,,,,0.0918616055375787,-0.532067281841235,0.726134734063696,,-4.3127310540203565,,
,8784.0,1407.0,6379.0,1008.0,1434.0,2290.0,2890.0,,,,0.0918614286543806,-0.532155130583558,0.726401122970419,,-4.377684315601699,,
,8783.0,1405.0,6376.0,1009.0,1430.0,2325.0,2864.0,,,,0.0918612893377464,-0.532103079748552,0.726698056456171,,-4.441712848762295,,
,8779.0,1405.0,6374.0,1008.0,1435.0,2350.0,2866.0,,,,0.0918615291764012,-0.532265248271474,0.726253481430579,,-4.508859028096407,,
,8779.0,1405.0,6373.0,1008.0,1436.0,2362.0,2895.0,,,,0.0918611164128235,-0.532311406924719,0.725918499524396,,-4.582623245032359,,
,8775.0,1405.0,6374.0,1009.0,1442.0,2341.0,2909.0,,,,0.0918611720234467,-0.532083117511378,0.726185386674778,,-4.665659059607468,,
,8774.0,1404.0,6370.0,1006.0,1436.0,2286.0,2900.0,,,,0.0918612583593169,-0.531935966094614,0.726789642640247,,-4.759534722674246,,
,8774.0,1405.0,6367.0,1007.0,1438.0,2312.0,2907.0,,,,0.0918608976649617,-0.53192933447382,0.725875848160978,,-4.864581312541369,,
,8776.0,1405.0,6369.0,1008.0,1423.0,2294.0,2919.0,,,,0.0918607410227293,-0.532294516748005,0.724429454276363,,-4.979843411783536,,
,8772.0,1405.0,6369.0,1008.0,1427.0,2307.0,2915.0,,,,0.0918608722542439,-0.532455978567781,0.724942603609612,,-5.103142774116872,,
,8771.0,1406.0,6368.0,1007.0,1439.0,2323.0,2913.0,,,,0.0918616202015989,-0.532426831847347,0.724944994334881,,-5.231258288985081,,
,8769.0,1402.0,6365.0,1005.0,1439.0,2291.0,2916.0,,,,0.09186072275433,-0.532590332567746,0.725165588833148,,-5.360216204045686,,
,8770.0,1404.0,6368.0,1007.0,1438.0,2292.0,2923.0,,,,0.0918613240099632,-0.532279260866226,0.726282438017168,,-5.48567287081284,,
,8767.0,1404.0,6362.0,1007.0,1436.0,2296.0,2907.0,,,,0.091860808438499,-0.532510208230816,0.725298863517605,,-5.603359221401927,,
,8764.0,1404.0,6360.0,1006.0,1440.0,2275.0,2903.0,,,,0.0918607032881185,-0.532508135197394,0.72561861998865,,-5.709544407967843,,
,8764.0,1403.0,6360.0,1004.0,1434.0,2292.0,2907.0,,,,0.0918617916949034,-0.532406798565844,0.725274373763491,,-5.801469153829223,,
,8763.0,1403.0,6361.0,1007.0,1437.0,2277.0,2916.0,,,,0.0918611124645212,-0.532780605944401,0.725175390398017,,-5.87769988327801,,
,8761.0,1402.0,6360.0,1005.0,1434.0,2271.0,2917.0,,,,0.0918608749062523,-0.532978980826909,0.725767138496787,,-5.93836233950544,,
,8758.0,1403.0,6354.0,1005.0,1431.0,2300.0,2938.0,,,,0.0918606591912799,-0.532812054155764,0.725591790850233,,-5.985225614228443,,
,8758.0,1401.0,6355.0,1006.0,1410.0,2306.0,2947.0,,,,0.0918607784134096,-0.533259522756843,0.725009407713313,,-6.021621455871761,,
,8755.0,1403.0,6353.0,1004.0,1421.0,2299.0,2915.0,,,,0.0918597344353853,-0.533406701727663,0.724552798639524,,-6.052197643461466,,
,8755.0,1404.0,6353.0,1006.0,1426.0,2295.0,2911.0,,,,0.091859587763232,-0.533336918691399,0.723202820489991,,-6.082517398390532,,
,8752.0,1402.0,6350.0,1006.0,1432.0,2287.0,2909.0,,,,0.0918598437112601,-0.533381572843405,0.724658063764781,,-6.118528888792449,,
,8747.0,1400.0,6346.0,1002.0,1431.0,2291.0,2893.0,,,,0.0918593457367,-0.533578678097689,0.724197661228071,,-6.165939472371836,,
,8750.0,1404.0,6349.0,1005.0,1417.0,2294.0,2896.0,,,,0.0918591737300612,-0.533951482088123,0.723348431104239,,-6.229538117192644,,
,8747.0,1400.0,6344.0,1003.0,1420.0,2294.0,2907.0,,,,0.0918574935513562,-0.53433082356078,0.722455792062973,,-6.31251630454258,,
,8745.0,1400.0,6343.0,1002.0,1429.0,2292.0,2908.0,,,,0.0918564712441761,-0.53494777000872,0.721634110983976,,-6.4158424822051,,
,8739.0,1399.0,6341.0,999.0,1425.0,2314.0,2907.0,,,,0.091856488406334,-0.535087296083449,0.72185410291089,,-6.5377472869373365,,
,8742.0,1399.0,6338.0,1003.0,1422.0,2302.0,2897.0,,,,0.0918553333705751,-0.535266283314327,0.720675765057682,,-6.67337534974565,,
,8739.0,1401.0,6341.0,1002.0,1432.0,2286.0,2875.0,,,,0.0918553444564912,-0.535612105069481,0.720448589593458,,-6.8146533507149085,,
,8739.0,1401.0,6339.0,1003.0,1438.0,2294.0,2880.0,,,,0.0918552398366779,-0.535828745289451,0.720080877993497,,-6.950412025098185,,
,8736.0,1400.0,6337.0,998.0,1432.0,2303.0,2915.0,,,,0.0918546966755412,-0.536275180305867,0.719390202256107,,-7.066781460590081,,
,8738.0,1401.0,6335.0,1001.0,1435.0,2321.0,2922.0,,,,0.0918534240305851,-0.535945676904585,0.720106309220858,,-7.147854570157799,,
,8740.0,1399.0,6336.0,1002.0,1446.0,2295.0,2896.0,,,,0.0918540241144217,-0.536224503498346,0.719939938514637,,-7.17658478332075,,
,8739.0,1400.0,6336.0,1002.0,1447.0,2289.0,2909.0,,,,0.0918546353687937,-0.536232696151977,0.719821366220631,,-7.13585438812707,,
,8743.0,1401.0,6340.0,1001.0,1434.0,2302.0,2880.0,,,,0.0918541196905274,-0.536073906126064,0.719629792157488,,-7.0096246641241216,,
,8739.0,1399.0,6337.0,1001.0,1435.0,2299.0,2869.0,,,,0.0918549009473271,-0.535873555466814,0.719716035724755,,-6.78406269694715,,
,8745.0,1399.0,6339.0,1004.0,1436.0,2305.0,2896.0,,,,0.0918548631994974,-0.535707824356412,0.720073524207861,,-6.4485351284968875,,
,8746.0,1400.0,6340.0,1001.0,1444.0,2313.0,2908.0,,,,0.0918535383821722,-0.536485073546025,0.719163331417683,,-5.9963665039119265,,
,8749.0,1399.0,6343.0,1001.0,1443.0,2303.0,2875.0,,,,0.0918524139104302,-0.536344327396341,0.718961073910786,,-5.425278940042997,,
,8750.0,1401.0,6344.0,1002.0,1428.0,2303.0,2896.0,,,,0.0918527774618717,-0.53744378969663,0.71863783819959,,-4.73746001495604,,
,8753.0,1402.0,6345.0,1006.0,1424.0,2318.0,2909.0,,,,0.0918518196331263,-0.537767923495679,0.718079293051893,,-3.939245557394897,,
,8753.0,1403.0,6347.0,1005.0,1429.0,2300.0,2924.0,,,,0.0918523507389581,-0.537445119410393,0.717057964235846,,-3.0404496891046993,,
,8756.0,1402.0,6346.0,1006.0,1432.0,2294.0,2918.0,,,,0.0918514391368754,-0.537501223143264,0.717292020668317,,-2.053419907352934,,
,8759.0,1400.0,6347.0,1003.0,1428.0,2278.0,2909.0,,,,0.0918512000425645,-0.537488196290192,0.717320304135715,,-0.9919328571507229,,
,8760.0,1402.0,6353.0,1006.0,1440.0,2281.0,2909.0,,,,0.0918507091465694,-0.53744493188224,0.717230615647368,,0.12992986723112684,,
,8766.0,1402.0,6354.0,1007.0,1433.0,2285.0,2912.0,,,,0.0918512233497572,-0.537416898069648,0.717378560473976,,1.2987812525792566,,
,8768.0,1403.0,6353.0,1006.0,1432.0,2292.0,2897.0,,,,0.0918506262529785,-0.537609626258792,0.71754036226111,,2.502673270615189,,
,8771.0,1404.0,6357.0,1007.0,1434.0,2289.0,2917.0,,,,0.0918507404252708,-0.537519869107535,0.717665132122406,,3.731487562197335,,
,8772.0,1405.0,6358.0,1008.0,1437.0,2291.0,2903.0,,,,0.0918517630879161,-0.537780848291325,0.717941393526052,,4.976919427196572,,
,8775.0,1405.0,6360.0,1008.0,1442.0,2280.0,2897.0,,,,0.0918503038944177,-0.537553637205211,0.717789684234898,,6.2320560851026885,,
,8779.0,1406.0,6365.0,1010.0,1449.0,2294.0,2907.0,,,,0.091851489849585,-0.537518335217491,0.717249579642178,,7.490605956451519,,
,8782.0,1404.0,6362.0,1008.0,1446.0,2290.0,2908.0,,,,0.0918497267503646,-0.537883710518278,0.716228652251756,,8.745886427023269,,
,8784.0,1407.0,6367.0,1011.0,1438.0,2306.0,2902.0,,,,0.0918511190336165,-0.537754223371548,0.716589896707556,,9.989716556365535,,
,8786.0,1407.0,6367.0,1011.0,1425.0,2318.0,2882.0,,,,0.09184933591289,-0.537870316606639,0.716864966231805,,11.211382785721533,,
,8791.0,1408.0,6370.0,1010.0,1425.0,2305.0,2897.0,,,,0.0918505449136802,-0.538048480327184,0.71613980794193,,12.396846107982316,,
,8792.0,1406.0,6372.0,1012.0,1442.0,2310.0,2907.0,,,,0.0918503897949776,-0.538511189515139,0.716432551064201,,13.528337954208578,,
,8795.0,1407.0,6373.0,1010.0,1443.0,2295.0,2887.0,,,,0.0918499295409788,-0.538531502997902,0.716528118790622,,14.5844527268598,,
,8797.0,1411.0,6378.0,1013.0,1438.0,2311.0,2897.0,,,,0.091850490775983,-0.538247343876322,0.715944175708694,,15.540793063584607,,
,8801.0,1409.0,6379.0,1013.0,1432.0,2293.0,2889.0,,,,0.0918504593457092,-0.5387779592172,0.716103248387571,,16.371163959953314,,
2025-08-05 16:46:13,8803.0,1409.0,6379.0,1013.0,1439.0,2283.0,2892.0,,,2025/08/05 04:46:13 PM,0.0918503626936198,-0.538613756385952,0.716282903073165,,17.04924566017738,,
,8806.0,1408.0,6381.0,1013.0,1440.0,2291.0,2899.0,,,,0.0918502826614255,-0.538516744310467,0.716544306483258,,17.55060487262839,,
,8809.0,1409.0,6386.0,1016.0,1430.0,2284.0,2887.0,,,,0.0918502176388197,-0.538962885127997,0.716144935898912,,17.854837080999573,,
,8815.0,1411.0,6387.0,1015.0,1429.0,2285.0,2899.0,,,,0.0918508104685449,-0.538683013350318,0.716245546343605,,17.947584838200587,,
,8811.0,1412.0,6390.0,1016.0,1423.0,2293.0,2933.0,,,,0.0918500598222361,-0.53855680410748,0.71569624509606,,17.822165759743825,,
,8819.0,1410.0,6389.0,1014.0,1426.0,2300.0,2910.0,,,,0.0918501141617648,-0.538501006268876,0.715657047310661,,17.480580235513074,,
,8821.0,1411.0,6394.0,1016.0,1430.0,2303.0,2915.0,,,,0.0918493303355852,-0.538333137146921,0.715252491235916,,16.93374958352617,,
,8821.0,1411.0,6394.0,1018.0,1437.0,2309.0,2906.0,,,,0.0918500323680611,-0.538459465954079,0.716054874510554,,16.20094386456608,,
,8825.0,1412.0,6397.0,1018.0,1430.0,2281.0,2905.0,,,,0.0918496447492743,-0.538699218775633,0.715419028010498,,15.308471000535048,,
,8827.0,1412.0,6399.0,1017.0,1431.0,2286.0,2901.0,,,,0.0918497728769881,-0.538688658162685,0.714953041670141,,14.287792484954656,,
,8832.0,1415.0,6403.0,1019.0,1442.0,2283.0,2908.0,,,,0.0918502194683337,-0.538638993058668,0.715184806134786,,13.17329090686879,,
,8837.0,1416.0,6405.0,1021.0,1450.0,2283.0,2917.0,,,,0.0918502537829237,-0.538856971713472,0.715683437316786,,11.999935951401202,,
,8838.0,1416.0,6409.0,1020.0,1440.0,2276.0,2909.0,,,,0.0918509594328647,-0.538974501000473,0.71503245063203,,10.80108212829765,,
,8841.0,1414.0,6411.0,1022.0,1422.0,2305.0,2913.0,,,,0.0918498682590021,-0.53912689788541,0.714901106560621,,9.606591770247311,,
,8846.0,1417.0,6413.0,1021.0,1408.0,2295.0,2898.0,,,,0.0918495439848711,-0.539028924903918,0.714952910841316,,8.44142121227662,,
,8846.0,1419.0,6416.0,1021.0,1431.0,2275.0,2902.0,,,,0.0918464410922779,-0.539673080044086,0.713102717074413,,7.324746425283591,,
,8852.0,1419.0,6419.0,1025.0,1432.0,2277.0,2903.0,,,,0.0918468753087194,-0.540738619379508,0.712792682451631,,6.269644552806525,,
,8854.0,1415.0,6419.0,1022.0,1427.0,2293.0,2893.0,,,,0.0918462877490391,-0.540601621517456,0.712896694557207,,5.283294953049998,,
,8856.0,1416.0,6422.0,1024.0,1420.0,2284.0,2926.0,,,,0.0918458168302487,-0.54121510413822,0.712320885721833,,4.367620629807336,,
,8861.0,1418.0,6425.0,1026.0,1413.0,2291.0,2925.0,,,,0.0918459244747604,-0.541038962883007,0.712208444275923,,3.5202603851766234,,
,8864.0,1421.0,6429.0,1027.0,1421.0,2294.0,2928.0,,,,0.0918465059431159,-0.540908905510102,0.711929003833573,,2.735744744925794,,
,8868.0,1419.0,6428.0,1026.0,1427.0,2321.0,2901.0,,,,0.0918462275066662,-0.540874882333832,0.712301209709756,,2.0067445982286025,,
,8874.0,1419.0,6434.0,1026.0,1439.0,2301.0,2930.0,,,,0.0918462049989148,-0.540908451008374,0.711940095360132,,1.3252693450071023,,
,8874.0,1419.0,6437.0,1025.0,1425.0,2294.0,2909.0,,,,0.0918457916848086,-0.540866954245646,0.712646530348788,,0.6837092787089206,,
,8879.0,1421.0,6438.0,1029.0,1430.0,2301.0,2912.0,,,,0.0918459140693836,-0.540737151997466,0.71253861721447,,0.07564272835841886,,
,8882.0,1421.0,6439.0,1026.0,1439.0,2325.0,2893.0,,,,0.091845190949448,-0.540426044354583,0.71284277002793,,-0.5036404252782961,,
,8885.0,1423.0,6445.0,1027.0,1419.0,2288.0,2917.0,,,,0.0918447673733538,-0.540569705202799,0.712371822279206,,-1.0569138043891868,,
,8890.0,1422.0,6446.0,1031.0,1419.0,2291.0,2900.0,,,,0.0918451849119359,-0.540474182334257,0.712321674253251,,-1.5850704776676552,,
,8893.0,1423.0,6452.0,1028.0,1417.0,2317.0,2892.0,,,,0.0918451871475637,-0.541215852381444,0.711483287463237,,-2.087413517511229,,
,8897.0,1424.0,6452.0,1030.0,1436.0,2294.0,2914.0,,,,0.0918452231649465,-0.540978909141335,0.711914449129798,,-2.5621136070168014,,
,8901.0,1425.0,6457.0,1031.0,1432.0,2315.0,2919.0,,,,0.0918449332211052,-0.5409533392676,0.71161146591777,,-3.006755092223916,,
,8906.0,1427.0,6458.0,1033.0,1435.0,2316.0,2904.0,,,,0.091845086481378,-0.541228275213887,0.711532510715668,,-3.418892485088986,,
,8908.0,1427.0,6461.0,1032.0,1432.0,2324.0,2895.0,,,,0.0918445380141613,-0.54143904027984,0.711849743039569,,-3.7965503526941005,,
,8912.0,1425.0,6466.0,1033.0,1410.0,2331.0,2875.0,,,,0.0918448188685104,-0.541312301560409,0.711988606810889,,-4.138617022804411,,
,8920.0,1428.0,6470.0,1034.0,1411.0,2303.0,2867.0,,,,0.0918456887696864,-0.541367888273957,0.711523677643836,,-4.445102211674611,,
,8922.0,1431.0,6474.0,1038.0,1437.0,2302.0,2883.0,,,,0.0918450546626772,-0.541134570759869,0.711381192993949,,-4.717247218223266,,
,8927.0,1429.0,6479.0,1038.0,1438.0,2297.0,2884.0,,,,0.0918450992470479,-0.54156403903795,0.711195617301687,,-4.9574919885692665,,
,8932.0,1429.0,6477.0,1037.0,1426.0,2302.0,2892.0,,,,0.0918447991391412,-0.542146048054656,0.7105822755952,,-5.169315613330906,,
,8936.0,1432.0,6484.0,1035.0,1435.0,2307.0,2901.0,,,,0.0918439484675248,-0.541898328191846,0.710538255495395,,-5.3569758052520475,,
,8940.0,1431.0,6486.0,1038.0,1434.0,2318.0,2888.0,,,,0.0918446113676977,-0.541543687389663,0.711020292847577,,-5.525178937648646,,
,8943.0,1432.0,6489.0,1038.0,1435.0,2321.0,2900.0,,,,0.0918444815616771,-0.541688332657001,0.71193526948046,,-5.678715559667426,,
,8950.0,1435.0,6492.0,1041.0,1430.0,2325.0,2874.0,,,,0.0918458464543012,-0.541260273994647,0.711519866917422,,-5.822097085638977,,
,8950.0,1430.0,6492.0,1040.0,1442.0,2335.0,2887.0,,,,0.0918457479571284,-0.541586846293898,0.711403201155074,,-5.959227695290855,,
,8949.0,1432.0,6494.0,1041.0,1444.0,2320.0,2879.0,,,,0.091845163282908,-0.541266734981337,0.710815648710857,,-6.0931415126866755,,
,8951.0,1432.0,6497.0,1043.0,1422.0,2343.0,2895.0,,,,0.0918450782046725,-0.541393884241821,0.711251623261868,,-6.225828957455174,,
,8947.0,1434.0,6498.0,1041.0,1429.0,2347.0,2908.0,,,,0.0918462107327182,-0.541059401061481,0.71129588323249,,-6.358167782887591,,
,8939.0,1431.0,6494.0,1038.0,1420.0,2332.0,2905.0,,,,0.0918456062986765,-0.541410598106152,0.711617529456855,,-6.489963714832722,,
,8928.0,1432.0,6489.0,1038.0,1431.0,2296.0,2902.0,,,,0.0918464716767026,-0.541076820386625,0.711764298679452,,-6.620093202231746,,
,8921.0,1431.0,6482.0,1033.0,1436.0,2290.0,2891.0,,,,0.0918451357911645,-0.541221803264605,0.711173690470415,,-6.746728167864112,,
,8903.0,1428.0,6471.0,1032.0,1441.0,2285.0,2910.0,,,,0.0918442561446696,-0.541458563797944,0.711559091641579,,-6.867612680086255,,
,8889.0,1426.0,6462.0,1028.0,1433.0,2290.0,2930.0,,,,0.0918429289814903,-0.541702049786168,0.710586961507961,,-6.9803570094632095,,
,8878.0,1423.0,6453.0,1026.0,1420.0,2297.0,2904.0,,,,0.0918429815992127,-0.541937942033995,0.710258344077701,,-7.082716514243112,,
,8865.0,1422.0,6442.0,1024.0,1431.0,2302.0,2907.0,,,,0.0918425032042089,-0.54183291912426,0.710778320073645,,-7.172829618360199,,
,8846.0,1416.0,6428.0,1019.0,1420.0,2309.0,2915.0,,,,0.0918412227082498,-0.542487724937505,0.709512018081099,,-7.249397969918688,,
,8833.0,1413.0,6413.0,1015.0,1416.0,2327.0,2928.0,,,,0.0918404063776501,-0.542744124365431,0.709217581940544,,-7.3118003753674605,,
,8817.0,1415.0,6404.0,1012.0,1430.0,2288.0,2909.0,,,,0.0918408017458022,-0.542684020454617,0.708020571557616,,-7.360139222446446,,
,8808.0,1413.0,6395.0,1011.0,1424.0,2304.0,2906.0,,,,0.0918413939656113,-0.542399295127516,0.709559873721691,,-7.395223627169064,,
,8800.0,1411.0,6386.0,1009.0,1413.0,2290.0,2916.0,,,,0.0918410543215621,-0.542754471687324,0.708253416347215,,-7.4184974640147985,,
,8784.0,1409.0,6379.0,1006.0,1410.0,2302.0,2940.0,,,,0.0918411126559561,-0.542773815896109,0.708512849578317,,-7.431922700475326,,
,8779.0,1408.0,6371.0,1005.0,1426.0,2299.0,2931.0,,,,0.0918406589262324,-0.543075293833753,0.708825578938362,,-7.437829092452964,,
,8773.0,1410.0,6365.0,1007.0,1415.0,2340.0,2915.0,,,,0.0918402503975818,-0.543114897355008,0.707859593023873,,-7.438740635099551,,
,8765.0,1409.0,6359.0,1005.0,1424.0,2350.0,2908.0,,,,0.0918402972805404,-0.542974158761659,0.70810467205077,,-7.437187769225668,,
,8762.0,1407.0,6355.0,1002.0,1426.0,2320.0,2913.0,,,,0.0918405302431127,-0.543404832229912,0.708143471601729,,-7.435512792805624,,
,8755.0,1406.0,6350.0,1002.0,1417.0,2303.0,2911.0,,,,0.0918403181174555,-0.543070886174288,0.708387909161432,,-7.435674638285839,,
,8750.0,1403.0,6347.0,1000.0,1434.0,2324.0,2905.0,,,,0.0918399793600754,-0.543500060282682,0.708503105141261,,-7.439058339268052,,
,8748.0,1405.0,6341.0,999.0,1435.0,2325.0,2905.0,,,,0.0918400900544211,-0.543332779168225,0.708093590303829,,-7.446294099459439,,
,8744.0,1405.0,6340.0,999.0,1447.0,2329.0,2899.0,,,,0.0918401152545102,-0.542978106215743,0.708184851850796,,-7.457090813146315,,
,8741.0,1402.0,6336.0,997.0,1434.0,2295.0,2882.0,,,,0.0918408337428992,-0.542835669598794,0.708178234461762,,-7.470089359701041,,
,8743.0,1405.0,6336.0,1001.0,1433.0,2308.0,2879.0,,,,0.0918407648327608,-0.542703336567309,0.709118972401434,,-7.482742707021369,,
,8740.0,1405.0,6334.0,998.0,1436.0,2313.0,2883.0,,,,0.0918421074917194,-0.542819121298932,0.708064897574896,,-7.491233680723444,,
,8739.0,1406.0,6333.0,1000.0,1444.0,2304.0,2897.0,,,,0.0918409524367905,-0.542467131629211,0.708422536195158,,-7.4904470875910825,,
,8735.0,1402.0,6329.0,997.0,1434.0,2341.0,2876.0,,,,0.0918409280446699,-0.542989402018524,0.707945497564654,,-7.474018576854476,,
,8732.0,1400.0,6325.0,996.0,1431.0,2339.0,2899.0,,,,0.0918406548618649,-0.543264651436673,0.707842896866433,,-7.4344843405334595,,
,8730.0,1401.0,6326.0,996.0,1438.0,2314.0,2908.0,,,,0.0918396842897124,-0.543061639456278,0.707747793447713,,-7.363549930668837,,
,8729.0,1403.0,6322.0,997.0,1432.0,2324.0,2904.0,,,,0.0918403394305886,-0.543178239497007,0.707168798981352,,-7.252481994049935,,
,8725.0,1400.0,6321.0,996.0,1438.0,2324.0,2897.0,,,,0.0918389019744703,-0.543280379207723,0.707661333398903,,-7.092605746415841,,
,8725.0,1402.0,6321.0,995.0,1438.0,2313.0,2924.0,,,,0.0918395215626264,-0.543263730647801,0.707896000153837,,-6.875868097323573,,
,8726.0,1405.0,6321.0,996.0,1446.0,2306.0,2932.0,,,,0.0918397871782991,-0.543173652378347,0.707747781544569,,-6.595406845002721,,
,8722.0,1401.0,6320.0,994.0,1441.0,2308.0,2930.0,,,,0.0918398415536499,-0.543136124412535,0.708077094618482,,-6.246055006072454,,
,8721.0,1399.0,6316.0,992.0,1433.0,2291.0,2903.0,,,,0.0918401335768979,-0.543006083287967,0.70748735688431,,-5.824709386808545,,
,8718.0,1402.0,6315.0,993.0,1433.0,2294.0,2923.0,,,,0.0918414745508095,-0.542926319724466,0.708016066258888,,-5.330505279719585,,
,8721.0,1403.0,6314.0,995.0,1431.0,2295.0,2915.0,,,,0.0918402093536366,-0.543091858301809,0.708682949860081,,-4.764763766289245,,
,8718.0,1401.0,6315.0,993.0,1434.0,2303.0,2910.0,,,,0.0918406237903517,-0.542833277267015,0.708387604164955,,-4.130711250930116,,
,8714.0,1401.0,6309.0,992.0,1431.0,2325.0,2913.0,,,,0.0918408358947421,-0.543028382510943,0.708761325689006,,-3.4330072689490057,,
,8716.0,1400.0,6312.0,994.0,1429.0,2308.0,2914.0,,,,0.0918407843195969,-0.543008422734795,0.708138759358905,,-2.6771498587976437,,
,8712.0,1401.0,6310.0,994.0,1417.0,2287.0,2923.0,,,,0.091841258910616,-0.543007753195314,0.708157495138673,,-1.8688514483621892,,
,8710.0,1399.0,6309.0,993.0,1424.0,2289.0,2922.0,,,,0.091840667743888,-0.542786842233435,0.708466116412875,,-1.0134873377088203,,
,8712.0,1401.0,6306.0,992.0,1435.0,2298.0,2919.0,,,,0.0918411224849695,-0.542903372111333,0.708815242710071,,-0.11571133640924644,,
,8706.0,1399.0,6305.0,990.0,1427.0,2282.0,2908.0,,,,0.0918415378179333,-0.542742162609456,0.709170399614834,,0.8206898062123628,,
,8707.0,1400.0,6304.0,993.0,1427.0,2277.0,2911.0,,,,0.091841797295356,-0.542607667880366,0.709126998519776,,1.7926657261010668,,
,8708.0,1402.0,6306.0,992.0,1426.0,2279.0,2906.0,,,,0.0918423296219913,-0.542232401753218,0.709068183846202,,2.797497904226696,,
,8704.0,1398.0,6304.0,992.0,1414.0,2312.0,2909.0,,,,0.0918421749868562,-0.541893687345994,0.70891679807844,,3.832163365962855,,
,8700.0,1400.0,6297.0,989.0,1388.0,2315.0,2902.0,,,,0.0918418670299389,-0.542372261866159,0.709175937669183,,4.892543175916229,,
,8701.0,1400.0,6299.0,992.0,1415.0,2315.0,2920.0,,,,0.0918426554804278,-0.542447376627694,0.708930730869289,,5.972577338754236,,
,8697.0,1399.0,6294.0,990.0,1425.0,2321.0,2931.0,,,,0.0918428682566447,-0.542643517770746,0.709158699341464,,7.063480890056993,,
,8696.0,1399.0,6294.0,991.0,1429.0,2280.0,2943.0,,,,0.0918418757739444,-0.542431397125164,0.709303946706082,,8.153136480869133,,
,8692.0,1394.0,6292.0,989.0,1410.0,2265.0,2922.0,,,,0.0918417866985428,-0.542604798545453,0.708986563362021,,9.225766962335845,,
,8694.0,1399.0,6294.0,989.0,1421.0,2297.0,2919.0,,,,0.0918420906374662,-0.542632905034672,0.709326986068699,,10.261968356789307,,
,8691.0,1395.0,6290.0,989.0,1428.0,2315.0,2921.0,,,,0.0918417003501198,-0.542939703491161,0.70885829738242,,11.239150789954321,,
,8693.0,1397.0,6290.0,991.0,1434.0,2295.0,2938.0,,,,0.091839944840331,-0.5435707736147,0.707841947775042,,12.132394773386476,,
,8692.0,1396.0,6291.0,989.0,1421.0,2287.0,2927.0,,,,0.0918397197333891,-0.543527074324425,0.706759056773588,,12.915685744527629,,
,8692.0,1398.0,6290.0,993.0,1431.0,2289.0,2918.0,,,,0.091839604353944,-0.543686453124249,0.70719211804834,,13.563445007393385,,
,8692.0,1396.0,6286.0,988.0,1428.0,2297.0,2901.0,,,,0.0918389930849409,-0.543749082691467,0.706437265989712,,14.05223514539889,,
,8695.0,1400.0,6291.0,993.0,1430.0,2303.0,2898.0,,,,0.0918382281956132,-0.543815574092589,0.706187744821734,,14.362488000985875,,
,8694.0,1396.0,6290.0,988.0,1404.0,2311.0,2876.0,,,,0.091837947186557,-0.543907038135653,0.706309004370518,,14.48008810088188,,
,8697.0,1400.0,6291.0,988.0,1408.0,2294.0,2899.0,,,,0.0918388034206135,-0.544176187880704,0.706907999829426,,14.397646804790636,,
,8698.0,1399.0,6289.0,992.0,1393.0,2288.0,2885.0,,,,0.0918382919117939,-0.544222055798323,0.706254003284588,,14.115323475585917,,
,8698.0,1396.0,6291.0,992.0,1394.0,2266.0,2892.0,,,,0.0918384075329944,-0.543935818375757,0.706419196614778,,13.641089473128508,,
,8700.0,1395.0,6287.0,990.0,1377.0,2276.0,2883.0,,,,0.0918389479773409,-0.544059349096286,0.706752134077888,,12.99038718456513,,
,8703.0,1398.0,6294.0,991.0,1375.0,2306.0,2886.0,,,,0.0918397799531943,-0.543896696558709,0.706981917415703,,12.185204598300961,,
,8707.0,1396.0,6295.0,992.0,1391.0,2326.0,2892.0,,,,0.0918389944205412,-0.543848112884941,0.707009488411737,,11.252656010704733,,
,8706.0,1397.0,6296.0,992.0,1387.0,2316.0,2899.0,,,,0.0918391681718999,-0.54364045926083,0.707722531213196,,10.223217717114522,,
,8712.0,1399.0,6297.0,991.0,1412.0,2321.0,2914.0,,,,0.0918389590923344,-0.543435701640941,0.706561925792644,,9.128801792377525,,
,8711.0,1399.0,6298.0,993.0,1405.0,2304.0,2921.0,,,,0.0918391289709804,-0.543470918824874,0.707660843920052,,8.000855800852047,,
,8713.0,1402.0,6302.0,994.0,1414.0,2314.0,2908.0,,,,0.0918389849551099,-0.543630526986367,0.707499853718807,,6.868654531903157,,
,8716.0,1400.0,6301.0,994.0,1404.0,2315.0,2909.0,,,,0.0918392721695888,-0.543411355627127,0.70805770897345,,5.75791065164867,,
,8723.0,1399.0,6301.0,994.0,1396.0,2329.0,2908.0,,,,0.0918394583029943,-0.5435306100563,0.707409139332441,,4.689784834764855,,
,8724.0,1401.0,6307.0,993.0,1400.0,2319.0,2906.0,,,,0.0918388001608304,-0.543274157494886,0.707249522427765,,3.6803304527513125,,
,8727.0,1401.0,6307.0,994.0,1415.0,2339.0,2915.0,,,,0.0918387935476213,-0.543425919005811,0.707733693796629,,2.7403674319064306,,
,8728.0,1403.0,6310.0,997.0,1422.0,2336.0,2913.0,,,,0.0918396120983298,-0.54298052786697,0.707772779815409,,1.8757456042909877,,
,8733.0,1402.0,6311.0,995.0,1429.0,2311.0,2908.0,,,,0.091840061555965,-0.543106648637437,0.707182502768782,,1.0879298138655904,,
,8736.0,1401.0,6311.0,997.0,1428.0,2306.0,2902.0,,,,0.0918400422300995,-0.543068542596014,0.707458770600099,,0.3748178989586384,,
,8743.0,1403.0,6316.0,999.0,1438.0,2298.0,2887.0,,,,0.0918406132499624,-0.54303253067994,0.707525120411095,,-0.26830990786269476,,
,8744.0,1406.0,6320.0,998.0,1441.0,2296.0,2883.0,,,,0.0918418495664028,-0.543156787219426,0.707639635587413,,-0.8478140421408684,,
,8747.0,1405.0,6317.0,997.0,1442.0,2270.0,2904.0,,,,0.0918403608581868,-0.54350488575183,0.707567758911931,,-1.3707867370150568,,
,8750.0,1405.0,6322.0,997.0,1449.0,2274.0,2898.0,,,,0.0918410889386472,-0.543187908893053,0.707402893825368,,-1.8442886357769903,,
,8754.0,1406.0,6324.0,1000.0,1450.0,2285.0,2898.0,,,,0.0918400341764285,-0.543094051762754,0.707804902718643,,-2.27478223941584,,
,8757.0,1404.0,6327.0,1000.0,1444.0,2296.0,2877.0,,,,0.0918405621018469,-0.542782084191593,0.707651196330764,,-2.6677830680955177,,
2025-08-05 16:46:14,8760.0,1406.0,6327.0,1000.0,1448.0,2296.0,2894.0,,,2025/08/05 04:46:14 PM,0.0918418313373857,-0.543120800491912,0.708123944681464,,-3.0277193753258183,,
,8765.0,1406.0,6329.0,999.0,1452.0,2278.0,2896.0,,,,0.0918413904542203,-0.542835933683367,0.707532645566281,,-3.3579667809764464,,
,8768.0,1406.0,6333.0,1003.0,1455.0,2304.0,2911.0,,,,0.0918416224908324,-0.542774506299186,0.707620168201884,,-3.661008869775068,,
,8769.0,1407.0,6335.0,1000.0,1442.0,2290.0,2909.0,,,,0.0918405401043407,-0.542797396626403,0.707882790044234,,-3.9386694908783437,,
,8775.0,1409.0,6337.0,1004.0,1449.0,2285.0,2917.0,,,,0.0918423559833143,-0.543082022686069,0.708115076335248,,-4.192365688716331,,
,8777.0,1408.0,6338.0,1002.0,1447.0,2283.0,2909.0,,,,0.091841980305324,-0.542845919562594,0.708524313921897,,-4.423339301869229,,
,8782.0,1410.0,6341.0,1006.0,1437.0,2284.0,2900.0,,,,0.0918412735239242,-0.542626722507106,0.708332625803386,,-4.632837613878179,,
,8783.0,1407.0,6343.0,1005.0,1450.0,2289.0,2888.0,,,,0.0918405675163722,-0.542976688192085,0.708778613224346,,-4.8222267195124715,,
,8787.0,1408.0,6346.0,1005.0,1452.0,2293.0,2893.0,,,,0.091839870177727,-0.542808654316382,0.708798392283738,,-4.993033724328918,,
,8791.0,1410.0,6346.0,1005.0,1437.0,2280.0,2887.0,,,,0.0918411480495026,-0.542838894835608,0.707798250977094,,-5.146924407420215,,
,8797.0,1410.0,6352.0,1007.0,1440.0,2277.0,2917.0,,,,0.0918408776364683,-0.543010618838214,0.70845393465251,,-5.285630990424801,,
,8798.0,1413.0,6353.0,1007.0,1439.0,2297.0,2880.0,,,,0.0918409178822835,-0.543312611349485,0.707749854927658,,-5.410849956697753,,
,8800.0,1411.0,6357.0,1008.0,1432.0,2291.0,2894.0,,,,0.0918405408449759,-0.543290709565794,0.707768072498034,,-5.524132397810798,,
,8805.0,1412.0,6359.0,1007.0,1415.0,2272.0,2898.0,,,,0.0918410335439636,-0.543337210471918,0.707372434177784,,-5.626789159020885,,
,8805.0,1414.0,6362.0,1007.0,1423.0,2297.0,2925.0,,,,0.0918400451095388,-0.543104691583578,0.708484873431654,,-5.719830191683712,,
,8810.0,1413.0,6365.0,1009.0,1419.0,2265.0,2928.0,,,,0.0918404460832374,-0.54337997411318,0.707133678463856,,-5.80395209211504,,
,8814.0,1413.0,6367.0,1011.0,1418.0,2272.0,2928.0,,,,0.0918402125027981,-0.543460227683007,0.707517245339226,,-5.879579936157765,,
,8815.0,1414.0,6369.0,1009.0,1435.0,2272.0,2937.0,,,,0.0918397870253927,-0.543484702206553,0.707617222778693,,-5.946959521144838,,
,8821.0,1414.0,6371.0,1008.0,1407.0,2281.0,2936.0,,,,0.0918396711356433,-0.543135920307198,0.708036729536949,,-6.006284859432853,,
,8824.0,1416.0,6375.0,1013.0,1410.0,2266.0,2949.0,,,,0.0918403880740306,-0.54363426674829,0.707183071685852,,-6.057835090980647,,
,8829.0,1418.0,6380.0,1012.0,1416.0,2278.0,2939.0,,,,0.0918388217361489,-0.543494325669919,0.70689301254495,,-6.102087844212003,,
,8830.0,1416.0,6381.0,1012.0,1420.0,2291.0,2911.0,,,,0.0918401029101406,-0.543737123553952,0.707187675904778,,-6.139775512978654,,
,8835.0,1417.0,6381.0,1013.0,1424.0,2308.0,2927.0,,,,0.0918395545463907,-0.54348078270664,0.706836169227304,,-6.171858192333233,,
,8840.0,1420.0,6389.0,1013.0,1414.0,2313.0,2926.0,,,,0.0918397091526939,-0.543585142542565,0.707218485319481,,-6.199400440312899,,
,8842.0,1421.0,6393.0,1015.0,1406.0,2307.0,2916.0,,,,0.0918401311996295,-0.543481677198086,0.708047001611002,,-6.223354842515596,,
,8845.0,1420.0,6394.0,1015.0,1405.0,2289.0,2917.0,,,,0.0918414493234522,-0.542980461813653,0.708130841666723,,-6.244269908251031,,
,8852.0,1418.0,6396.0,1017.0,1408.0,2296.0,2901.0,,,,0.0918416517963512,-0.542714828132127,0.707771555875786,,-6.261951120207428,,
,8853.0,1421.0,6397.0,1017.0,1401.0,2274.0,2887.0,,,,0.0918416732911593,-0.542462051406459,0.708780202953652,,-6.27511151238392,,
,8858.0,1424.0,6404.0,1018.0,1403.0,2279.0,2895.0,,,,0.0918409569251668,-0.542094375850734,0.708501468610907,,-6.281052045041115,,
,8863.0,1421.0,6405.0,1020.0,1407.0,2297.0,2909.0,,,,0.0918413395853608,-0.542177317772361,0.708411035131963,,-6.275412282172335,,
,8866.0,1423.0,6406.0,1018.0,1401.0,2314.0,2923.0,,,,0.0918416782007407,-0.54256114038516,0.708797357259261,,-6.252028355876902,,
,8869.0,1426.0,6413.0,1021.0,1377.0,2304.0,2898.0,,,,0.0918418892478265,-0.542196056542152,0.708644093353365,,-6.202927966367895,,
,8873.0,1424.0,6413.0,1018.0,1385.0,2339.0,2915.0,,,,0.0918421123891233,-0.54239480599684,0.708482579553923,,-6.1184815928273855,,
,8879.0,1425.0,6419.0,1019.0,1402.0,2336.0,2924.0,,,,0.0918420529268682,-0.542315579499249,0.709163295288385,,-5.987715994129514,,
,8881.0,1423.0,6420.0,1018.0,1419.0,2340.0,2909.0,,,,0.0918411294834122,-0.54280305707075,0.708608621666862,,-5.798781740408911,,
,8885.0,1426.0,6425.0,1022.0,1412.0,2343.0,2878.0,,,,0.0918408204351596,-0.542839780605965,0.708149830345905,,-5.539552506890876,,
,8889.0,1427.0,6428.0,1024.0,1411.0,2338.0,2906.0,,,,0.0918419747008086,-0.543065486328989,0.708278512766232,,-5.198321663560865,,
,8894.0,1425.0,6429.0,1023.0,1415.0,2333.0,2909.0,,,,0.0918418212981021,-0.542757508407722,0.708290374484026,,-4.764552393075216,,
,8898.0,1427.0,6433.0,1024.0,1402.0,2320.0,2910.0,,,,0.0918408258693519,-0.542273648251193,0.708363605624461,,-4.229631897418429,,
,8900.0,1428.0,6437.0,1024.0,1400.0,2342.0,2895.0,,,,0.0918417502071749,-0.540725394535634,0.708942255012117,,-3.5875789528688924,,
,8904.0,1429.0,6439.0,1027.0,1410.0,2363.0,2895.0,,,,0.0918420500184996,-0.541988509110209,0.707912421632385,,-2.835657950507988,,
,8912.0,1431.0,6446.0,1028.0,1401.0,2347.0,2900.0,,,,0.0918412616030608,-0.543172571327631,0.708147738363431,,-1.9748616404812709,,
,8918.0,1430.0,6448.0,1028.0,1403.0,2318.0,2890.0,,,,0.0918413408303987,-0.543502319905786,0.708009050733888,,-1.0102372279919611,,
,8920.0,1431.0,6452.0,1028.0,1414.0,2326.0,2894.0,,,,0.0918406172270606,-0.543374256434117,0.707393045371537,,0.048957239947323726,,
,8926.0,1435.0,6458.0,1029.0,1408.0,2318.0,2893.0,,,,0.0918413107066475,-0.54343508290358,0.707870370794516,,1.1892702695605972,,
,8930.0,1435.0,6463.0,1030.0,1411.0,2321.0,2899.0,,,,0.091841535140451,-0.542794995050137,0.708271076644522,,2.39324733236738,,
,8932.0,1435.0,6460.0,1031.0,1426.0,2339.0,2905.0,,,,0.0918411671071493,-0.542749758419568,0.707716740565717,,3.6397912042266074,,
,8935.0,1436.0,6464.0,1034.0,1417.0,2337.0,2914.0,,,,0.0918412823009937,-0.542636467592929,0.707905948454753,,4.904686801549641,,
,8933.0,1437.0,6464.0,1029.0,1418.0,2305.0,2924.0,,,,0.0918418107013658,-0.542567894911788,0.708367347672579,,6.16128103220614,,
,8927.0,1433.0,6465.0,1030.0,1436.0,2290.0,2908.0,,,,0.091841035356774,-0.542707379250863,0.70749677297142,,7.381302202193848,,
,8921.0,1436.0,6461.0,1029.0,1436.0,2298.0,2891.0,,,,0.0918409622218838,-0.543286716490779,0.707598006066073,,8.535796677575249,,
,8907.0,1430.0,6452.0,1025.0,1430.0,2297.0,2906.0,,,,0.0918410616454706,-0.540784988236464,0.707660097196685,,9.596154400448594,,
,8899.0,1433.0,6448.0,1027.0,1420.0,2305.0,2925.0,,,,0.0918398161551264,-0.54304917939986,0.707675166260483,,10.535190412242793,,
,8885.0,1428.0,6438.0,1023.0,1420.0,2289.0,2905.0,,,,0.0918405256142484,-0.543093278424489,0.707388000270021,,11.328245856611556,,
,8870.0,1424.0,6427.0,1018.0,1427.0,2295.0,2921.0,,,,0.0918400792765914,-0.543131725629655,0.706789019465348,,11.954266733033156,,
,8860.0,1424.0,6420.0,1014.0,1437.0,2291.0,2884.0,,,,0.0918404074415145,-0.543241326017725,0.707621875055772,,12.396810392054043,,
,8846.0,1423.0,6411.0,1015.0,1422.0,2293.0,2891.0,,,,0.0918395817191995,-0.543615956400309,0.707464606717738,,12.644919481181649,,
,8836.0,1421.0,6399.0,1010.0,1411.0,2291.0,2902.0,,,,0.0918384075417172,-0.54392513425125,0.705941848291739,,12.693794388684697,,
,8819.0,1418.0,6388.0,1009.0,1385.0,2290.0,2910.0,,,,0.0918358315602211,-0.544908966554055,0.705012598945739,,12.545192668056037,,
,8807.0,1413.0,6377.0,1003.0,1365.0,2283.0,2907.0,,,,0.0918360387748028,-0.544866632286959,0.704485117790658,,12.207491168341175,,
,8795.0,1415.0,6372.0,1003.0,1397.0,2306.0,2910.0,,,,0.0918370447400135,-0.544670398893005,0.705840299452215,,11.695365901234714,,
,8790.0,1414.0,6360.0,1000.0,1414.0,2290.0,2916.0,,,,0.0918367336886437,-0.544775124340913,0.705083366244143,,11.029076507010881,,
,8779.0,1413.0,6355.0,999.0,1406.0,2279.0,2922.0,,,,0.0918344698999408,-0.545105394333051,0.704247339005978,,10.233384202902595,,
,8772.0,1410.0,6345.0,994.0,1396.0,2294.0,2913.0,,,,0.0918347611379181,-0.545574607028799,0.7043148774984,,9.3361779113943,,
,8767.0,1411.0,6343.0,998.0,1404.0,2269.0,2908.0,,,,0.091832848118854,-0.545797712151535,0.703334736863798,,8.366923003613781,,
,8765.0,1410.0,6339.0,997.0,1424.0,2287.0,2935.0,,,,0.0918322520979863,-0.546289407078901,0.703298401782317,,7.355070952534108,,
,8757.0,1408.0,6334.0,995.0,1428.0,2276.0,2948.0,,,,0.0918324342233406,-0.546133363427994,0.702293049253502,,6.328570697261917,,
,8756.0,1409.0,6330.0,992.0,1416.0,2267.0,2936.0,,,,0.091832568683717,-0.546371955592211,0.702627832879414,,5.312604298711487,,
,8754.0,1410.0,6329.0,996.0,1428.0,2291.0,2919.0,,,,0.0918321341613577,-0.546749636633937,0.702086600032087,,4.3286358719492295,,
,8750.0,1408.0,6327.0,993.0,1430.0,2287.0,2930.0,,,,0.0918306356423718,-0.547468423132353,0.701312524130095,,3.3938211425689233,,
,8749.0,1408.0,6325.0,994.0,1422.0,2292.0,2928.0,,,,0.09182998909653,-0.547300151370756,0.701123454680803,,2.5207823328713577,,
,8746.0,1407.0,6324.0,991.0,1427.0,2285.0,2940.0,,,,0.0918288353649419,-0.548071284922629,0.699455609240256,,1.7177150842967763,,
,8743.0,1406.0,6318.0,990.0,1443.0,2294.0,2921.0,,,,0.0918286066510281,-0.548690067275754,0.700085780494923,,0.9887648131668035,,
,8742.0,1408.0,6322.0,994.0,1435.0,2270.0,2914.0,,,,0.0918276965448354,-0.548789352632326,0.699608507265823,,0.3345918753520663,,
,8742.0,1407.0,6323.0,993.0,1447.0,2274.0,2912.0,,,,0.0918269420399008,-0.549253877377286,0.698328955680799,,-0.2469605937508552,,
,8740.0,1404.0,6317.0,990.0,1443.0,2272.0,2890.0,,,,0.0918264965944468,-0.549379419257582,0.697495955778726,,-0.760175635650077,,
,8740.0,1407.0,6316.0,991.0,1438.0,2291.0,2902.0,,,,0.0918249500813253,-0.549638639215786,0.69745577695501,,-1.210811143923292,,
,8738.0,1406.0,6316.0,989.0,1435.0,2289.0,2905.0,,,,0.0918261938650182,-0.549642684536315,0.697749277640881,,-1.6055290948749599,,
,8738.0,1407.0,6315.0,991.0,1429.0,2301.0,2890.0,,,,0.0918257360121755,-0.549735062098674,0.697622756046246,,-1.951424070427418,,
,8736.0,1406.0,6311.0,990.0,1416.0,2307.0,2865.0,,,,0.0918262723913401,-0.549799394282887,0.698181627193803,,-2.2556523100866444,,
,8735.0,1405.0,6312.0,988.0,1423.0,2308.0,2880.0,,,,0.0918259196364217,-0.549567245872977,0.697694631102052,,-2.5251514960498715,,
,8735.0,1405.0,6312.0,990.0,1423.0,2302.0,2874.0,,,,0.0918255850321393,-0.549518783905269,0.697926719571849,,-2.766436051367977,,
,8734.0,1407.0,6311.0,989.0,1423.0,2318.0,2875.0,,,,0.0918258548382564,-0.549932163175271,0.698011087125588,,-2.985450941037605,,
,8736.0,1407.0,6313.0,992.0,1430.0,2303.0,2883.0,,,,0.0918271621196005,-0.549607908660038,0.699043636303806,,-3.1874672863432556,,
,8732.0,1407.0,6310.0,989.0,1431.0,2314.0,2885.0,,,,0.0918278273047408,-0.549098136011258,0.698872061914906,,-3.3770049544134686,,
,8734.0,1404.0,6310.0,987.0,1435.0,2289.0,2898.0,,,,0.0918281079873048,-0.548560159570796,0.699468582451258,,-3.5577706079415496,,
,8730.0,1404.0,6309.0,990.0,1410.0,2291.0,2899.0,,,,0.0918288373278241,-0.547579364492005,0.701195002000481,,-3.732604337509867,,
,8732.0,1405.0,6310.0,991.0,1414.0,2289.0,2891.0,,,,0.0918312723444523,-0.54696228350238,0.701201292911308,,-3.9034334485785975,,
,8728.0,1402.0,6305.0,987.0,1427.0,2287.0,2929.0,,,,0.0918318612563509,-0.546645162455159,0.702606885460932,,-4.071237525770443,,
,8730.0,1405.0,6306.0,987.0,1411.0,2302.0,2918.0,,,,0.0918328572134242,-0.546584665111924,0.702638271076125,,-4.236033836329248,,
,8727.0,1402.0,6305.0,990.0,1415.0,2288.0,2898.0,,,,0.0918351626816931,-0.545817822517396,0.704483075559086,,-4.396895807348302,,
,8726.0,1405.0,6305.0,986.0,1418.0,2290.0,2913.0,,,,0.0918351457004366,-0.545554751458093,0.704326092628891,,-4.552019046035837,,
,8724.0,1402.0,6299.0,985.0,1424.0,2302.0,2914.0,,,,0.0918359152125958,-0.545262717432209,0.704518962435065,,-4.698848424339282,,
,8722.0,1404.0,6301.0,986.0,1418.0,2308.0,2910.0,,,,0.0918360743722243,-0.544847539529256,0.705671447929819,,-4.834275395518378,,
,8722.0,1405.0,6298.0,988.0,1396.0,2302.0,2912.0,,,,0.0918369806139267,-0.544799849390998,0.705386212055777,,-4.954906567561291,,
,8719.0,1402.0,6299.0,985.0,1400.0,2307.0,2905.0,,,,0.0918372443977562,-0.544295540326157,0.706061495162185,,-5.057393147824399,,
,8716.0,1399.0,6296.0,985.0,1392.0,2290.0,2901.0,,,,0.0918369447038915,-0.544741322278394,0.706337569873715,,-5.138798179805978,,
,8713.0,1404.0,6296.0,985.0,1406.0,2285.0,2907.0,,,,0.0918367542669355,-0.544325006662695,0.705830536071302,,-5.196967778102118,,
,8713.0,1404.0,6294.0,987.0,1421.0,2305.0,2900.0,,,,0.091837658527668,-0.544141299216193,0.706948848490708,,-5.230866928300425,,
,8714.0,1404.0,6296.0,987.0,1416.0,2297.0,2907.0,,,,0.0918375265493298,-0.544006083698779,0.70635775842411,,-5.24084100887015,,
,8709.0,1400.0,6292.0,985.0,1411.0,2301.0,2916.0,,,,0.091837445689362,-0.544416760409043,0.706552462550717,,-5.228769860762315,,
,8712.0,1402.0,6292.0,985.0,1424.0,2282.0,2889.0,,,,0.0918371148608022,-0.544581023653819,0.70569673720898,,-5.198089911473047,,
,8711.0,1403.0,6291.0,987.0,1433.0,2260.0,2896.0,,,,0.0918370072183665,-0.544930028152172,0.706054835407458,,-5.153670146317931,,
,8709.0,1405.0,6291.0,984.0,1434.0,2258.0,2895.0,,,,0.0918363210641879,-0.545462611645809,0.704661067737233,,-5.101539213946722,,
,8710.0,1399.0,6288.0,986.0,1432.0,2280.0,2886.0,,,,0.0918344096107144,-0.545920358417116,0.703843947991635,,-5.048473533865844,,
,8711.0,1401.0,6290.0,983.0,1433.0,2293.0,2914.0,,,,0.0918328594931674,-0.546463657423762,0.703274149331373,,-5.001469251534075,,
,8714.0,1404.0,6293.0,988.0,1432.0,2286.0,2918.0,,,,0.0918323269984677,-0.546593767459177,0.703535449707935,,-4.967132848057624,,
,8716.0,1402.0,6293.0,986.0,1432.0,2311.0,2921.0,,,,0.091832199051841,-0.546980271783972,0.703019858186062,,-4.951034632038906,,
,8719.0,1402.0,6293.0,985.0,1424.0,2305.0,2878.0,,,,0.0918322979586823,-0.546978992965823,0.703398717150188,,-4.957075315890644,,
,8719.0,1400.0,6291.0,982.0,1415.0,2303.0,2889.0,,,,0.0918317357293447,-0.546700529379359,0.702031812114563,,-4.986918262728358,,
,8719.0,1401.0,6294.0,987.0,1417.0,2292.0,2894.0,,,,0.0918320863086708,-0.546686261426985,0.703174761075564,,-5.039538919930377,,
,8724.0,1403.0,6296.0,987.0,1412.0,2291.0,2901.0,,,,0.0918324907491227,-0.54684371590878,0.702972809742385,,-5.110938316237236,,
,8725.0,1404.0,6299.0,986.0,1416.0,2292.0,2885.0,,,,0.0918327597538305,-0.546338354747351,0.702971997206464,,-5.1940588201237,,
,8724.0,1402.0,6297.0,989.0,1427.0,2298.0,2878.0,,,,0.0918325751107913,-0.546237032403617,0.703410622304472,,-5.278927148982672,,
,8728.0,1404.0,6300.0,987.0,1432.0,2302.0,2897.0,,,,0.0918326108107659,-0.54652801213061,0.703510439014841,,-5.35303187838154,,
,8736.0,1401.0,6301.0,987.0,1414.0,2296.0,2900.0,,,,0.0918333041636533,-0.546318221277569,0.703044893863885,,-5.401921458853114,,
,8734.0,1402.0,6303.0,989.0,1411.0,2298.0,2897.0,,,,0.0918318432657315,-0.546383103424901,0.702371239678047,,-5.409986493594624,,
,8734.0,1404.0,6303.0,988.0,1410.0,2287.0,2888.0,,,,0.0918326827301527,-0.546565252863987,0.702560786171471,,-5.361370380144464,,
,8740.0,1406.0,6306.0,988.0,1416.0,2286.0,2890.0,,,,0.0918322375337636,-0.546749967715615,0.702455693147524,,-5.240938663462868,,
,8742.0,1403.0,6309.0,988.0,1421.0,2294.0,2883.0,,,,0.0918323186712924,-0.546925740738794,0.701958076245914,,-5.035231054364213,,
,8746.0,1404.0,6311.0,991.0,1425.0,2317.0,2909.0,,,,0.0918315644836516,-0.546876838844301,0.702741467395712,,-4.733320761124963,,
,8750.0,1406.0,6314.0,991.0,1429.0,2302.0,2894.0,,,,0.0918323619992046,-0.547128921640867,0.702464887286573,,-4.327513071276451,,
,8752.0,1404.0,6317.0,992.0,1435.0,2290.0,2905.0,,,,0.0918307147154963,-0.546557316032783,0.703336005015095,,-3.813829283388652,,
,8755.0,1407.0,6316.0,990.0,1425.0,2274.0,2899.0,,,,0.0918312969321449,-0.54673430821596,0.702605020146048,,-3.1922433806184762,,
,8756.0,1409.0,6319.0,992.0,1435.0,2263.0,2907.0,,,,0.0918309090170186,-0.546858271153467,0.70247175349987,,-2.4666658613113692,,
,8762.0,1406.0,6323.0,995.0,1450.0,2290.0,2907.0,,,,0.0918311576930203,-0.546536231214306,0.703405742485334,,-1.6446981183098606,,
,8763.0,1405.0,6323.0,993.0,1440.0,2297.0,2930.0,,,,0.0918311247391271,-0.546421960895785,0.703114709330236,,-0.7372064103670881,,
,8768.0,1408.0,6324.0,992.0,1422.0,2294.0,2907.0,,,,0.0918326413630129,-0.546303347519377,0.702962731302928,,0.24221816171524965,,
2025-08-05 16:46:15,8770.0,1410.0,6326.0,994.0,1428.0,2283.0,2892.0,,,2025/08/05 04:46:15 PM,0.0918306305661211,-0.5467630314039,0.702578680157542,,1.2778412805513637,,
,8773.0,1410.0,6331.0,994.0,1436.0,2271.0,2896.0,,,,0.0918310741102851,-0.546990281629414,0.702354219511447,,2.352342335798493,,
,8777.0,1408.0,6334.0,996.0,1425.0,2287.0,2896.0,,,,0.0918318705330071,-0.546777589967773,0.702613608331018,,3.44729695934011,,
,8778.0,1411.0,6334.0,995.0,1435.0,2261.0,2880.0,,,,0.0918316683824497,-0.546265406481713,0.702255265716769,,4.543559383157554,,
,8783.0,1410.0,6337.0,995.0,1428.0,2275.0,2887.0,,,,0.0918317696561275,-0.546463738124385,0.703066881651798,,5.6215457717808155,,
,8787.0,1410.0,6341.0,999.0,1431.0,2282.0,2913.0,,,,0.0918326350274196,-0.546170942230481,0.703321256072987,,6.661445214686657,,
,8790.0,1410.0,6342.0,996.0,1429.0,2291.0,2898.0,,,,0.0918323259020706,-0.546152418015184,0.703379499848206,,7.643405069649141,,
,8792.0,1410.0,6344.0,998.0,1427.0,2272.0,2903.0,,,,0.091833769812405,-0.545778425714384,0.70342454489296,,8.547748255565983,,
,8797.0,1413.0,6350.0,997.0,1435.0,2262.0,2915.0,,,,0.0918341821188713,-0.545662748568883,0.703856814695769,,9.355279215206762,,
,8798.0,1410.0,6347.0,999.0,1424.0,2282.0,2900.0,,,,0.0918341288585064,-0.545817896187793,0.704322137484921,,10.047721580122618,,
,8801.0,1413.0,6349.0,999.0,1422.0,2292.0,2919.0,,,,0.0918341702782309,-0.545774750046452,0.703581670974407,,10.608305547442335,,
,8805.0,1413.0,6354.0,1001.0,1428.0,2269.0,2926.0,,,,0.0918349102328783,-0.54538695384895,0.704750306910396,,11.022490737914545,,
,8808.0,1413.0,6355.0,999.0,1440.0,2271.0,2905.0,,,,0.0918347342635667,-0.545851560992837,0.704720623568169,,11.278776689506907,,
,8810.0,1411.0,6357.0,1001.0,1429.0,2260.0,2924.0,,,,0.0918345081425681,-0.545448536299335,0.705119220494887,,11.369524153502278,,
,8810.0,1412.0,6360.0,1000.0,1424.0,2283.0,2937.0,,,,0.0918350009932105,-0.545371255687536,0.704394977920976,,11.291690907529853,,
,8817.0,1414.0,6362.0,1000.0,1421.0,2306.0,2903.0,,,,0.0918348125028121,-0.545404301214655,0.705161572897922,,11.047379402429506,,
,8818.0,1410.0,6365.0,1002.0,1404.0,2287.0,2904.0,,,,0.0918347811293439,-0.545341490506418,0.705640390329291,,10.64410256142472,,
,8824.0,1412.0,6365.0,1002.0,1406.0,2274.0,2910.0,,,,0.0918352754265171,-0.545194232006619,0.704787258897053,,10.09469929960127,,
,8824.0,1414.0,6367.0,1002.0,1430.0,2267.0,2908.0,,,,0.0918352760904196,-0.545587888268091,0.705036161895805,,9.416870937897823,,
,8829.0,1416.0,6373.0,1004.0,1429.0,2278.0,2926.0,,,,0.0918351691208916,-0.545461011858399,0.705167482993248,,8.632357701549545,,
,8832.0,1417.0,6375.0,1004.0,1430.0,2277.0,2903.0,,,,0.0918343479783337,-0.545564355893294,0.704719670835232,,7.765821298024626,,
,8834.0,1413.0,6377.0,1006.0,1428.0,2277.0,2898.0,,,,0.0918346813746624,-0.545051903415518,0.705088670777343,,6.8435349464406405,,
,8836.0,1416.0,6378.0,1003.0,1431.0,2287.0,2886.0,,,,0.0918350858952012,-0.545419479273543,0.705736803017314,,5.891999583083197,,
,8841.0,1418.0,6384.0,1004.0,1430.0,2308.0,2901.0,,,,0.0918348082101418,-0.545376374789637,0.705361617890004,,4.936603668024638,,
,8847.0,1420.0,6386.0,1007.0,1443.0,2309.0,2907.0,,,,0.0918351299252999,-0.545354499500597,0.70605344733945,,4.000428466258386,,
,8848.0,1418.0,6391.0,1009.0,1440.0,2290.0,2909.0,,,,0.0918355182367091,-0.545226604161674,0.704922797193635,,3.1032772879174204,,
,8848.0,1417.0,6389.0,1010.0,1428.0,2304.0,2919.0,,,,0.0918351602826819,-0.54503386157146,0.705778354723599,,2.2609813749269256,,
,8855.0,1421.0,6393.0,1008.0,1431.0,2308.0,2921.0,,,,0.0918363225603843,-0.544933322189068,0.706074300390703,,1.4850097447048278,,
,8860.0,1419.0,6396.0,1012.0,1421.0,2322.0,2919.0,,,,0.09183681038302,-0.544990847892604,0.705852167384115,,0.7823859111577591,,
,8858.0,1419.0,6400.0,1010.0,1421.0,2320.0,2909.0,,,,0.0918362994960546,-0.544612354723125,0.706237470291939,,0.15589110825285424,,
,8865.0,1421.0,6402.0,1012.0,1424.0,2304.0,2900.0,,,,0.0918363226596166,-0.544126526233592,0.706234537415036,,-0.3954873530449881,,
,8867.0,1419.0,6403.0,1009.0,1401.0,2313.0,2896.0,,,,0.0918373748790197,-0.543835289069778,0.706260192005117,,-0.8759204007728757,,
,8871.0,1423.0,6410.0,1012.0,1409.0,2320.0,2903.0,,,,0.0918374178930302,-0.543940603571015,0.707200732964844,,-1.2919817305878176,,
,8875.0,1423.0,6413.0,1014.0,1429.0,2293.0,2908.0,,,,0.0918371051572083,-0.543673328705297,0.707337924079419,,-1.6518421094919074,,
,8875.0,1422.0,6415.0,1015.0,1425.0,2292.0,2909.0,,,,0.0918374255485074,-0.544113546755862,0.707375038808651,,-1.9644777955400021,,
,8879.0,1424.0,6417.0,1013.0,1440.0,2282.0,2926.0,,,,0.091838356761568,-0.543468759097404,0.707505424652984,,-2.238946625845413,,
,8887.0,1424.0,6421.0,1016.0,1434.0,2304.0,2931.0,,,,0.0918383345246987,-0.543207298427333,0.7077801902552,,-2.483771279876521,,
,8889.0,1426.0,6426.0,1015.0,1442.0,2285.0,2913.0,,,,0.0918389449986503,-0.543381223408222,0.708444958516772,,-2.7064542878036884,,
,8892.0,1425.0,6424.0,1017.0,1448.0,2288.0,2907.0,,,,0.0918393441072252,-0.543433255267567,0.708796471895085,,-2.913135582827478,,
,8895.0,1427.0,6428.0,1015.0,1445.0,2270.0,2918.0,,,,0.09183988807589,-0.543283488337245,0.708230676791101,,-3.1083923347811853,,
,8897.0,1426.0,6432.0,1019.0,1424.0,2260.0,2933.0,,,,0.0918400059956677,-0.543016705156459,0.708884187506417,,-3.295173209937745,,
,8903.0,1427.0,6436.0,1020.0,1424.0,2274.0,2924.0,,,,0.091839596821772,-0.542614881110697,0.708546418267864,,-3.474854774399295,,
,8908.0,1427.0,6440.0,1018.0,1423.0,2270.0,2918.0,,,,0.0918394954192097,-0.542913204095838,0.709226441613225,,-3.647405202682346,,
,8912.0,1429.0,6441.0,1021.0,1419.0,2289.0,2901.0,,,,0.0918391506978457,-0.542923274783061,0.709390251490246,,-3.8116380947621478,,
,8913.0,1431.0,6446.0,1021.0,1430.0,2281.0,2869.0,,,,0.091839021522871,-0.542935857165047,0.708595367828404,,-3.965535780667209,,
,8920.0,1430.0,6447.0,1021.0,1438.0,2291.0,2910.0,,,,0.0918394924556468,-0.542530857515129,0.709383254656296,,-4.1066167844343795,,
,8923.0,1430.0,6451.0,1021.0,1439.0,2289.0,2908.0,,,,0.0918395304458082,-0.542863025840024,0.708590087171181,,-4.2323173686846,,
,8926.0,1432.0,6456.0,1020.0,1433.0,2274.0,2918.0,,,,0.0918398159208167,-0.542827908708538,0.70964372228339,,-4.340354750710396,,
,8929.0,1433.0,6460.0,1024.0,1431.0,2310.0,2895.0,,,,0.0918391989585646,-0.543068633382573,0.709334647350594,,-4.429041896102654,,
,8934.0,1434.0,6461.0,1022.0,1438.0,2320.0,2909.0,,,,0.0918398820612793,-0.542824137481369,0.710326385976436,,-4.49753084975366,,
,8934.0,1435.0,6462.0,1022.0,1436.0,2320.0,2909.0,,,,0.0918401816074775,-0.542853789681783,0.710218862654214,,-4.545971021431542,,
,8930.0,1431.0,6461.0,1023.0,1425.0,2336.0,2898.0,,,,0.0918398674663888,-0.542622125791496,0.709572571068284,,-4.575577748309203,,
,8928.0,1432.0,6460.0,1022.0,1415.0,2313.0,2880.0,,,,0.0918392212319054,-0.542670989950813,0.709794831415259,,-4.5886131733942275,,
,8920.0,1436.0,6460.0,1022.0,1423.0,2311.0,2879.0,,,,0.0918405094162569,-0.542927473172868,0.709569626092718,,-4.588286016318096,,
,8908.0,1430.0,6454.0,1019.0,1436.0,2284.0,2890.0,,,,0.091839010573953,-0.5424966856958,0.709322548061995,,-4.578579916922912,,
,8900.0,1427.0,6441.0,1015.0,1433.0,2297.0,2881.0,,,,0.0918397245676672,-0.543016647736748,0.709316946569901,,-4.564022317233026,,
,8886.0,1426.0,6433.0,1013.0,1445.0,2287.0,2884.0,,,,0.0918389623163046,-0.542650979450653,0.709186078195234,,-4.549407591358542,,
,8877.0,1424.0,6430.0,1013.0,1430.0,2277.0,2902.0,,,,0.0918394003479062,-0.542561493806773,0.709372397578537,,-4.539489495976295,,
,8862.0,1422.0,6418.0,1009.0,1426.0,2263.0,2898.0,,,,0.0918389547134751,-0.542644017757397,0.708840216114488,,-4.53865917942629,,
,8849.0,1420.0,6409.0,1007.0,1425.0,2258.0,2915.0,,,,0.0918393667903147,-0.542569807309774,0.71036491710154,,-4.550626060256866,,
,8834.0,1416.0,6399.0,1001.0,1441.0,2266.0,2902.0,,,,0.0918399724436611,-0.54251658343531,0.71060139984983,,-4.578119771092448,,
,8828.0,1419.0,6390.0,1002.0,1441.0,2292.0,2899.0,,,,0.0918402711765758,-0.542349818742592,0.710347734542455,,-4.622631771546055,,
,8814.0,1415.0,6378.0,1000.0,1444.0,2289.0,2911.0,,,,0.0918404632417367,-0.542014087407036,0.710223202145042,,-4.684214726336228,,
,8807.0,1413.0,6374.0,996.0,1451.0,2290.0,2913.0,,,,0.0918408688630231,-0.542315671201365,0.710649445254999,,-4.761355739383576,,
,8796.0,1411.0,6366.0,994.0,1452.0,2285.0,2913.0,,,,0.0918414350461381,-0.542110873689642,0.710616481804179,,-4.850935387977999,,
,8791.0,1410.0,6361.0,994.0,1450.0,2303.0,2885.0,,,,0.0918422631693847,-0.541903197758273,0.710225219640483,,-4.948277903971531,,
,8782.0,1411.0,6354.0,993.0,1439.0,2312.0,2881.0,,,,0.0918417548320612,-0.542325684260276,0.710187502234481,,-5.047289537078016,,
,8777.0,1409.0,6349.0,991.0,1435.0,2319.0,2887.0,,,,0.0918418145431466,-0.54184394241571,0.710931043066866,,-5.140674265282131,,
,8774.0,1407.0,6345.0,989.0,1434.0,2280.0,2903.0,,,,0.0918429507702234,-0.541849273346183,0.710893715393855,,-5.220211242119843,,
,8768.0,1409.0,6341.0,989.0,1430.0,2325.0,2896.0,,,,0.0918422965951539,-0.542102123654666,0.711021069885863,,-5.2770778617873315,,
,8766.0,1407.0,6342.0,991.0,1441.0,2324.0,2867.0,,,,0.0918421511664284,-0.54159474764084,0.711180302064602,,-5.302204682268839,,
,8763.0,1408.0,6336.0,988.0,1451.0,2340.0,2880.0,,,,0.09184160040219,-0.541525060330116,0.711232187386279,,-5.28665078575388,,
,8759.0,1407.0,6336.0,989.0,1441.0,2327.0,2887.0,,,,0.0918412347750171,-0.541445457923399,0.710815689830942,,-5.221988159103359,,
,8759.0,1406.0,6334.0,989.0,1446.0,2326.0,2874.0,,,,0.0918418650351838,-0.541944116195874,0.71132485122968,,-5.10068076505714,,
,8761.0,1407.0,6333.0,990.0,1438.0,2342.0,2867.0,,,,0.0918428640365625,-0.541661282898806,0.710949503753511,,-4.916439149085447,,
,8762.0,1406.0,6332.0,988.0,1428.0,2341.0,2860.0,,,,0.0918422569413788,-0.541467191421087,0.711569406977482,,-4.6645265311124575,,
,8759.0,1405.0,6331.0,988.0,1408.0,2312.0,2845.0,,,,0.0918427138713991,-0.541171785426761,0.711514117787938,,-4.3419894353017146,,
,8754.0,1405.0,6328.0,983.0,1434.0,2311.0,2863.0,,,,0.0918429598945517,-0.541451075835647,0.712091191447081,,-3.947786978994005,,
,8757.0,1408.0,6332.0,990.0,1419.0,2311.0,2860.0,,,,0.0918435060199296,-0.541248570216775,0.711958468642635,,-3.482799468812099,,
,8759.0,1407.0,6330.0,989.0,1419.0,2305.0,2873.0,,,,0.0918440293599523,-0.540982977129309,0.712256570771913,,-2.9497093555084057,,
,8757.0,1408.0,6327.0,987.0,1426.0,2302.0,2890.0,,,,0.0918442734311,-0.541133477385332,0.711874788006759,,-2.3527646784184224,,
,8755.0,1406.0,6327.0,985.0,1438.0,2268.0,2888.0,,,,0.0918432877028681,-0.541154236997438,0.711667457289,,-1.6974540436833927,,
,8758.0,1405.0,6326.0,988.0,1443.0,2285.0,2909.0,,,,0.0918442278296197,-0.541282559722253,0.711884518943638,,-0.9901390343195932,,
,8758.0,1407.0,6326.0,987.0,1436.0,2277.0,2895.0,,,,0.0918429559451591,-0.541472530555423,0.71220888081274,,-0.23770074537655878,,
,8757.0,1405.0,6328.0,986.0,1438.0,2269.0,2905.0,,,,0.0918432970057336,-0.541226511229351,0.712249274869092,,0.5527412980852398,,
,8756.0,1404.0,6326.0,988.0,1440.0,2289.0,2937.0,,,,0.0918436417099086,-0.541207348725685,0.712635372038686,,1.3739888701012668,,
,8756.0,1407.0,6328.0,987.0,1444.0,2290.0,2930.0,,,,0.0918437308997624,-0.540930265749977,0.712964228699232,,2.218774020290083,,
,8756.0,1408.0,6329.0,989.0,1455.0,2293.0,2943.0,,,,0.0918440926628349,-0.540111159131809,0.7139709454138,,3.0796145153360475,,
,8758.0,1406.0,6326.0,989.0,1452.0,2302.0,2937.0,,,,0.0918450152719802,-0.54037493439436,0.712998127215551,,3.948541232380616,,
,8755.0,1406.0,6329.0,987.0,1457.0,2266.0,2907.0,,,,0.091844556824326,-0.539941621786091,0.713902672017404,,4.816747307708539,,
,8756.0,1408.0,6327.0,987.0,1445.0,2295.0,2932.0,,,,0.0918457368486456,-0.539754457782959,0.713566109409599,,5.674225506175094,,
,8752.0,1407.0,6325.0,989.0,1430.0,2267.0,2904.0,,,,0.0918473212889776,-0.53904807343613,0.71516858298263,,6.509467994555347,,
,8750.0,1403.0,6323.0,987.0,1431.0,2263.0,2904.0,,,,0.0918475772082842,-0.539016975267945,0.715017359059629,,7.309301512419555,,
,8748.0,1404.0,6320.0,986.0,1437.0,2279.0,2905.0,,,,0.0918478740552321,-0.538717709198879,0.715957169219962,,8.05892105894099,,
,8747.0,1403.0,6319.0,985.0,1432.0,2292.0,2906.0,,,,0.0918469362986394,-0.538668862232209,0.715805868872839,,8.74216695360233,,
,8745.0,1402.0,6318.0,986.0,1428.0,2289.0,2899.0,,,,0.091847934087773,-0.537938283902043,0.716478827785627,,9.342064515919922,,
,8741.0,1405.0,6317.0,985.0,1427.0,2295.0,2913.0,,,,0.0918494107238063,-0.537660407827605,0.717328108260598,,9.841614854690139,,
,8742.0,1405.0,6313.0,987.0,1429.0,2285.0,2910.0,,,,0.0918491633343766,-0.537429158226714,0.717434981502459,,10.224792520914026,,
,8739.0,1401.0,6315.0,984.0,1427.0,2276.0,2925.0,,,,0.0918498783577976,-0.537530410740058,0.718323483203037,,10.477674621264757,,
,8737.0,1403.0,6313.0,984.0,1419.0,2279.0,2928.0,,,,0.0918487340986016,-0.53734821588178,0.717241384006038,,10.589599965823183,,
,8737.0,1403.0,6310.0,985.0,1431.0,2288.0,2904.0,,,,0.0918483660549631,-0.537300214687288,0.717081851803305,,10.554239311165391,,
,8734.0,1403.0,6309.0,983.0,1434.0,2283.0,2901.0,,,,0.0918489934477574,-0.537140867529945,0.717472685161414,,10.370451903013167,,
,8731.0,1401.0,6308.0,982.0,1429.0,2308.0,2940.0,,,,0.0918493695227093,-0.537476543288273,0.718393823842945,,10.04281211550402,,
,8735.0,1402.0,6308.0,984.0,1453.0,2329.0,2919.0,,,,0.0918491591340171,-0.537514659600123,0.718346906430601,,9.581714986037685,,
,8730.0,1403.0,6311.0,983.0,1431.0,2316.0,2907.0,,,,0.0918502128158914,-0.537494791235837,0.717845940797898,,9.00301088867216,,
,8729.0,1401.0,6304.0,982.0,1430.0,2307.0,2909.0,,,,0.0918506138393575,-0.537144588725628,0.716904680294343,,8.327174071495358,,
,8731.0,1401.0,6305.0,980.0,1412.0,2276.0,2902.0,,,,0.0918502691862103,-0.537497719632108,0.717981908024845,,7.578069481435663,,
,8732.0,1401.0,6303.0,982.0,1417.0,2274.0,2919.0,,,,0.0918508405236148,-0.537838648964094,0.718208254797724,,6.781435895885093,,
