TimeLabel,MEAS1_PPG1,MEAS1_PPG2,MEAS1_PPG3,MEAS1_PPG4,ACCX,ACCY,ACCZ,HR_timestamp,HR_value,radar_timestamp,phase_rx0,phase_rx1,phase_rx2,timestep,n_process,original_rate,calculated_rate
2025-08-01 18:53:51,6088.0,615.0,2949.0,524.0,-113.0,1089.0,3790.0,2025-08-01 18:54:23,83.0,2025/08/01 06:53:51 PM,-1.2095793221795,-2.98609705111694,-1.1835319670914,2025/08/01 06:53:51 PM,0.36117795157476545,20.59025382995605,20.567713143212455
,6091.0,615.0,2950.0,523.0,-104.0,1112.0,3809.0,2025-08-01 18:54:24,83.0,,-1.20971572073787,-2.98595422131507,-1.18302550079752,2025/08/01 06:54:01 PM,0.15684733979099746,21.216407775878903,21.83288409703503
,6094.0,616.0,2952.0,524.0,-110.0,1085.0,3812.0,2025-08-01 18:54:25,83.0,,-1.20816494362442,-2.98579789983334,-1.18245860534496,2025/08/01 06:54:11 PM,-0.032807835716112475,21.06741714477539,22.132443028669456
,6098.0,617.0,2952.0,527.0,-118.0,1095.0,3809.0,2025-08-01 18:54:26,83.0,,-1.20723373966995,-2.98569538121502,-1.18272896539386,2025/08/01 06:54:21 PM,-0.20580353749127817,21.978021621704105,22.502653693056164
,6100.0,616.0,2955.0,524.0,-115.0,1070.0,3803.0,2025-08-01 18:54:27,82.0,,-1.20731893266636,-2.98566787007398,-1.18295398131349,2025/08/01 06:54:31 PM,-0.36112921019598276,22.25519180297852,22.79771447363011
,6104.0,615.0,2954.0,525.0,-119.0,1079.0,3795.0,2025-08-01 18:54:28,81.0,,-1.20657023942899,-2.98570484992857,-1.18251739108099,2025/08/01 06:54:41 PM,-0.49857474645934846,22.727272033691406,24.090743771594834
,6104.0,618.0,2954.0,524.0,-104.0,1085.0,3823.0,2025-08-01 18:54:29,80.0,,-1.20656900776706,-2.98584325277532,-1.18277538064596,2025/08/01 06:54:51 PM,-0.618527956275188,23.09307289123535,23.150312756681636
,6107.0,617.0,2956.0,526.0,-110.0,1093.0,3797.0,2025-08-01 18:54:30,80.0,,-1.20681968416725,-2.98578652133775,-1.18257891267764,2025/08/01 06:55:01 PM,-0.721772154496142,23.338048934936523,23.37644277569185
,6109.0,619.0,2957.0,527.0,-113.0,1092.0,3781.0,2025-08-01 18:54:31,79.0,,-1.20808605011522,-2.98579805925812,-1.18275248980246,2025/08/01 06:55:11 PM,-0.80931026235178,23.60515022277832,23.248822605965444
,6112.0,616.0,2956.0,524.0,-115.0,1076.0,3787.0,2025-08-01 18:54:32,78.0,,-1.20942543536725,-2.98600191733598,-1.18331462255229,2025/08/01 06:55:21 PM,-0.8822353810800793,23.38766860961914,24.43525226439962
,6111.0,615.0,2955.0,525.0,-114.0,1083.0,3797.0,2025-08-01 18:54:33,78.0,,-1.20956261058514,-2.98602104911362,-1.18324040555971,2025/08/01 06:55:31 PM,-0.9416585783949137,23.67288398742676,23.198838896952115
,6114.0,618.0,2957.0,524.0,-107.0,1117.0,3822.0,2025-08-01 18:54:34,78.0,,-1.20842770428969,-2.98584373357621,-1.18356195206486,2025/08/01 06:55:41 PM,-0.9886936842847072,23.622047424316406,21.433128275233525
,6116.0,618.0,2957.0,528.0,-111.0,1114.0,3807.0,2025-08-01 18:54:35,78.0,,-1.20893699628314,-2.98600541307768,-1.18326571075619,2025/08/01 06:55:51 PM,-1.024488091198132,23.060796737670895,21.273258904837828
,6116.0,619.0,2960.0,527.0,-117.0,1117.0,3791.0,2025-08-01 18:54:36,78.0,,-1.20800153033703,-2.98578347909121,-1.18341373564499,2025/08/01 06:56:01 PM,-1.0502802420051598,22.029373168945312,21.681384418174055
,6120.0,616.0,2960.0,527.0,-137.0,1112.0,3814.0,2025-08-01 18:54:37,77.0,,-1.20714902085623,-2.98584232648385,-1.18300083570984,2025/08/01 06:56:11 PM,-1.067460582616109,21.171487808227536,22.097434361585286
,6123.0,618.0,2960.0,525.0,-127.0,1097.0,3808.0,2025-08-01 18:54:38,77.0,,-1.20674462730438,-2.98579100291637,-1.18294961384733,2025/08/01 06:56:21 PM,-1.0776138084759614,21.645021438598636,23.089985486211887
,6126.0,619.0,2965.0,529.0,-115.0,1115.0,3811.0,2025-08-01 18:54:39,77.0,,-1.20681704470615,-2.98573872080416,-1.1818038656037,2025/08/01 06:56:31 PM,-1.082525275429749,22.448978424072266,21.64123860250972
,6126.0,620.0,2965.0,529.0,-108.0,1115.0,3845.0,2025-08-01 18:54:40,76.0,,-1.20547409091246,-2.98579180578241,-1.18156364844499,2025/08/01 06:56:41 PM,-1.084141722971075,22.371364593505856,22.552831309768038
,6129.0,620.0,2967.0,529.0,-116.0,1105.0,3823.0,2025-08-01 18:54:41,76.0,,-1.20558793383743,-2.98571027359792,-1.18211182153467,,-1.0844843719681532,,
,6128.0,620.0,2967.0,526.0,-121.0,1084.0,3818.0,2025-08-01 18:54:42,76.0,,-1.20649003782639,-2.98591953021272,-1.18201755204394,,-1.0855199680408032,,
,6129.0,619.0,2968.0,528.0,-120.0,1114.0,3789.0,2025-08-01 18:54:43,77.0,,-1.20688651041912,-2.98568286196385,-1.18151059885772,,-1.0890018012032772,,
,6135.0,622.0,2972.0,530.0,-119.0,1121.0,3801.0,2025-08-01 18:54:44,77.0,,-1.2071722680535,-2.98585323949581,-1.1821557199142,,-1.096297649784957,,
,6137.0,621.0,2971.0,531.0,-123.0,1107.0,3794.0,2025-08-01 18:54:45,77.0,,-1.20739410991436,-2.98597774063415,-1.18276739016232,,-1.1082246082751088,,
,6138.0,622.0,2972.0,528.0,-122.0,1112.0,3781.0,2025-08-01 18:54:46,78.0,,-1.208394827775,-2.98597253656059,-1.18216262633823,,-1.1249116690687266,,
,6141.0,622.0,2973.0,530.0,-118.0,1103.0,3777.0,2025-08-01 18:54:47,78.0,,-1.21021621257147,-2.98602302582837,-1.18301718706663,,-1.1457096105395204,,
,6143.0,623.0,2973.0,531.0,-113.0,1122.0,3806.0,2025-08-01 18:54:48,78.0,,-1.21087048339149,-2.98621385261868,-1.18344363792616,,-1.1691640238561618,,
,6146.0,622.0,2976.0,535.0,-106.0,1127.0,3829.0,2025-08-01 18:54:49,77.0,,-1.21186977269101,-2.98617632063673,-1.18406341127096,,-1.1930610602738934,,
,6150.0,626.0,2976.0,533.0,-115.0,1119.0,3820.0,2025-08-01 18:54:50,77.0,,-1.21128357462678,-2.98611630330835,-1.18327487554126,,-1.2145469382219476,,
,6151.0,621.0,2977.0,529.0,-114.0,1097.0,3782.0,2025-08-01 18:54:51,77.0,,-1.20926864501093,-2.98612659651739,-1.18290665764115,,-1.2303123904527342,,
,6153.0,623.0,2976.0,531.0,-107.0,1084.0,3799.0,2025-08-01 18:54:52,77.0,,-1.20994494496541,-2.98604797456673,-1.18270146561763,,-1.236823889311035,,
,6158.0,625.0,2981.0,533.0,-101.0,1080.0,3806.0,2025-08-01 18:54:53,77.0,,-1.209411927686,-2.98594719835969,-1.1833434224212,,-1.2305768882702488,,
,6159.0,624.0,2979.0,532.0,-101.0,1091.0,3803.0,2025-08-01 18:54:54,77.0,,-1.20818358180923,-2.98578371628025,-1.18228303566144,,-1.2083440690024108,,
,6161.0,625.0,2981.0,534.0,-104.0,1092.0,3821.0,2025-08-01 18:54:55,77.0,,-1.20714331118358,-2.98583832573003,-1.18257391113672,,-1.1673938663975054,,
,6163.0,625.0,2981.0,532.0,-101.0,1104.0,3808.0,2025-08-01 18:54:56,77.0,,-1.2076470194487,-2.98583942565544,-1.18196849477161,,-1.1056602508352873,,
,6164.0,626.0,2985.0,534.0,-115.0,1119.0,3818.0,2025-08-01 18:54:57,77.0,,-1.20771377821725,-2.98577879302435,-1.18172634725104,,-1.0218523647923143,,
,6167.0,630.0,2985.0,532.0,-116.0,1109.0,3806.0,2025-08-01 18:54:58,77.0,,-1.20757647085229,-2.98580446499458,-1.18284859051912,,-0.9155009210830282,,
,6165.0,625.0,2985.0,533.0,-114.0,1106.0,3810.0,2025-08-01 18:54:59,77.0,,-1.20799488269154,-2.98589954324945,-1.18239860226565,,-0.786946371687757,,
,6159.0,624.0,2984.0,531.0,-118.0,1101.0,3821.0,2025-08-01 18:55:00,76.0,,-1.20879915496853,-2.98583770798706,-1.18197529999266,,-0.6372808908089325,,
,6154.0,623.0,2980.0,534.0,-115.0,1101.0,3820.0,2025-08-01 18:55:01,75.0,,-1.20832150436231,-2.98592107771086,-1.1821835789589,,-0.4682613014548324,,
,6149.0,621.0,2981.0,531.0,-120.0,1073.0,3804.0,2025-08-01 18:55:02,75.0,,-1.20765649870643,-2.98565828907063,-1.18205925476932,,-0.28221246675760914,,
,6143.0,622.0,2978.0,530.0,-118.0,1060.0,3818.0,2025-08-01 18:55:03,75.0,,-1.20696783481416,-2.98564349675783,-1.18176176227701,,-0.08193990255679494,,
,6131.0,620.0,2975.0,528.0,-108.0,1067.0,3854.0,2025-08-01 18:55:04,75.0,,-1.206102058265,-2.98558357871867,-1.18121162530504,,0.129333686091868,,
,6125.0,620.0,2969.0,526.0,-104.0,1081.0,3828.0,2025-08-01 18:55:05,76.0,,-1.20584290263001,-2.98563250203354,-1.18206363806726,,0.34800033175849077,,
,6119.0,618.0,2966.0,527.0,-131.0,1097.0,3802.0,2025-08-01 18:55:06,76.0,,-1.20570788308513,-2.98572576533713,-1.18130521465216,,0.5700689455134089,,
,6114.0,618.0,2967.0,527.0,-121.0,1091.0,3812.0,2025-08-01 18:55:07,77.0,,-1.20490325026019,-2.98553784211821,-1.18146832197003,,0.7911496532387902,,
,6107.0,617.0,2964.0,524.0,-119.0,1090.0,3818.0,2025-08-01 18:55:08,77.0,,-1.20410842483646,-2.98554124518123,-1.18084085214346,,1.0064413255902007,,
,6100.0,615.0,2961.0,524.0,-109.0,1119.0,3819.0,2025-08-01 18:55:09,78.0,,-1.20429685630727,-2.98558101926265,-1.18112745964609,,1.2107486346223235,,
,6094.0,613.0,2960.0,523.0,-108.0,1123.0,3831.0,2025-08-01 18:55:10,78.0,,-1.20457388909022,-2.98562587278769,-1.18099171269533,,1.398554586180383,,
,6094.0,615.0,2957.0,525.0,-113.0,1113.0,3837.0,2025-08-01 18:55:11,78.0,,-1.20614813456367,-2.98564973387349,-1.18080469740623,,1.5641677874127997,,
,6090.0,613.0,2955.0,527.0,-116.0,1114.0,3830.0,2025-08-01 18:55:12,79.0,,-1.20690927633051,-2.98561294348028,-1.1820646230669,,1.7019519326270343,,
,6087.0,612.0,2953.0,523.0,-126.0,1094.0,3833.0,2025-08-01 18:55:13,79.0,,-1.2079618009972,-2.98574117874055,-1.18206658715228,,1.8066305127499112,,
,6086.0,614.0,2951.0,521.0,-120.0,1096.0,3845.0,2025-08-01 18:55:14,79.0,,-1.20839045310971,-2.98570870736236,-1.18223825145126,,1.8736451474739755,,
,6083.0,613.0,2951.0,523.0,-113.0,1084.0,3811.0,2025-08-01 18:55:15,80.0,,-1.20765177238605,-2.9857771530908,-1.1817665899122,,1.8995334097681305,,
,6083.0,614.0,2952.0,523.0,-112.0,1065.0,3805.0,2025-08-01 18:55:16,80.0,,-1.20850644899731,-2.98580278595201,-1.18121346184131,,1.8822833486653983,,
,6083.0,613.0,2950.0,524.0,-114.0,1072.0,3796.0,2025-08-01 18:55:17,80.0,,-1.20940528826123,-2.98580345192466,-1.18279098753806,,1.8216185935997982,,
,6083.0,610.0,2948.0,522.0,-125.0,1065.0,3809.0,2025-08-01 18:55:18,80.0,,-1.20954169715018,-2.98586715234311,-1.1830986112183,,1.7191710001951939,,
,6083.0,612.0,2946.0,522.0,-125.0,1070.0,3829.0,2025-08-01 18:55:19,80.0,,-1.21093036758155,-2.98591710719093,-1.18451344061367,,1.5785075555278028,,
,6084.0,612.0,2951.0,526.0,-123.0,1055.0,3807.0,2025-08-01 18:55:20,80.0,,-1.21201605704114,-2.98587415765298,-1.18391815176435,,1.4049938741702872,,
,6085.0,613.0,2949.0,524.0,-120.0,1051.0,3805.0,2025-08-01 18:55:21,80.0,,-1.21287395124853,-2.9861390861985,-1.1848787458003,,1.2054961211106974,,
,6084.0,615.0,2948.0,524.0,-114.0,1122.0,3825.0,2025-08-01 18:55:22,80.0,,-1.21473699314436,-2.98619442136494,-1.18613919147045,,0.9879437889044582,,
,6088.0,612.0,2952.0,524.0,-107.0,1119.0,3809.0,2025-08-01 18:55:23,80.0,,-1.21539614955998,-2.98618466527751,-1.18644044862718,,0.7607942435715369,,
,6086.0,612.0,2950.0,525.0,-110.0,1127.0,3788.0,2025-08-01 18:55:24,80.0,,-1.21662463970569,-2.98640885558597,-1.18692138993881,,0.5324532334841866,,
,6089.0,614.0,2951.0,526.0,-111.0,1098.0,3806.0,2025-08-01 18:55:25,80.0,,-1.21724005237434,-2.98638435069244,-1.18736104798452,,0.31071116362102424,,
,6089.0,612.0,2949.0,524.0,-111.0,1084.0,3799.0,2025-08-01 18:55:26,80.0,,-1.2160505341642,-2.98632256189057,-1.18585856462471,,0.10225178866119301,,
,6090.0,614.0,2948.0,524.0,-104.0,1086.0,3806.0,2025-08-01 18:55:27,80.0,,-1.21497996872055,-2.98622824810411,-1.18629300045726,,-0.08772104086133067,,
,6091.0,614.0,2950.0,524.0,-118.0,1066.0,3816.0,2025-08-01 18:55:28,80.0,,-1.21381902751544,-2.98615002682729,-1.18587202959482,,-0.2557091882604298,,
,6096.0,612.0,2952.0,525.0,-117.0,1087.0,3836.0,2025-08-01 18:55:29,80.0,,-1.21311558585356,-2.98605127792467,-1.18553789339933,,-0.3999873434657717,,
,6095.0,616.0,2950.0,525.0,-114.0,1102.0,3824.0,2025-08-01 18:55:30,80.0,,-1.21292318032857,-2.98614816897278,-1.18527762810193,,-0.5205173612255621,,
,6096.0,614.0,2952.0,524.0,-117.0,1111.0,3826.0,2025-08-01 18:55:31,80.0,,-1.21342568882811,-2.98604099080444,-1.18518301625762,,-0.6187300989880994,,
,6099.0,615.0,2952.0,523.0,-107.0,1111.0,3807.0,2025-08-01 18:55:32,81.0,,-1.21327716367582,-2.98609909523846,-1.18511564297237,,-0.6972056236097866,,
,6101.0,617.0,2952.0,526.0,-115.0,1121.0,3799.0,2025-08-01 18:55:33,80.0,,-1.21224717648807,-2.98608023769899,-1.18514338872842,,-0.7592891978941292,,
,6101.0,615.0,2956.0,528.0,-112.0,1118.0,3817.0,2025-08-01 18:55:34,80.0,,-1.21347761463845,-2.98611470797898,-1.18525860877569,,-0.8086830147907781,,
,6099.0,614.0,2954.0,526.0,-110.0,1110.0,3825.0,2025-08-01 18:55:35,80.0,,-1.21367109306681,-2.98610756605822,-1.18544866202325,,-0.8490524330029002,,
,6102.0,613.0,2955.0,526.0,-120.0,1085.0,3800.0,2025-08-01 18:55:36,80.0,,-1.21461083111174,-2.98618155967569,-1.18546297946866,,-0.8836807294043182,,
,6100.0,615.0,2954.0,526.0,-117.0,1078.0,3804.0,2025-08-01 18:55:37,80.0,,-1.21604318782872,-2.98626302799372,-1.18645396031365,,-0.9151984656228146,,
,6101.0,616.0,2953.0,527.0,-121.0,1084.0,3791.0,2025-08-01 18:55:38,81.0,,-1.21702951286321,-2.98643441553235,-1.18622758968209,,-0.9454031149553362,,
,6102.0,614.0,2956.0,524.0,-120.0,1084.0,3791.0,2025-08-01 18:55:39,81.0,,-1.21594354092729,-2.98631737118375,-1.18622019103314,,-0.9751727890026036,,
,6101.0,615.0,2954.0,526.0,-126.0,1088.0,3829.0,2025-08-01 18:55:40,81.0,,-1.21520516507803,-2.9863053579702,-1.18575424036878,,-1.0044665691443107,,
,6100.0,614.0,2955.0,526.0,-117.0,1073.0,3821.0,2025-08-01 18:55:41,81.0,,-1.21525670489891,-2.98627415793427,-1.18567988547428,,-1.0323952898312545,,
,6101.0,613.0,2954.0,527.0,-116.0,1090.0,3826.0,2025-08-01 18:55:42,81.0,,-1.21466168165056,-2.98627664540934,-1.18471595641566,,-1.0573423492669163,,
,6103.0,617.0,2955.0,528.0,-112.0,1105.0,3827.0,2025-08-01 18:55:43,81.0,,-1.21378274663194,-2.98608951686896,-1.18501682038347,,-1.0771144968788524,,
,6104.0,614.0,2954.0,526.0,-117.0,1119.0,3814.0,2025-08-01 18:55:44,81.0,,-1.21343724031872,-2.98613354485587,-1.18474985132451,,-1.0891062684512112,,
,6101.0,614.0,2955.0,525.0,-103.0,1093.0,3813.0,2025-08-01 18:55:45,81.0,,-1.21353864173889,-2.9862299476774,-1.18473259720847,,-1.0904668571369256,,
,6102.0,616.0,2954.0,527.0,-111.0,1100.0,3816.0,2025-08-01 18:55:46,81.0,,-1.21457499583284,-2.98613397438539,-1.18478114233006,,-1.0782631185869913,,
,6103.0,613.0,2954.0,526.0,-123.0,1104.0,3810.0,2025-08-01 18:55:47,80.0,,-1.21468673371721,-2.98620043217793,-1.18518559419249,,-1.0496362115547877,,
,6105.0,614.0,2953.0,527.0,-113.0,1101.0,3812.0,2025-08-01 18:55:48,80.0,,-1.21467696180854,-2.98625966485627,-1.18600630390189,,-1.0019517203133117,,
,6104.0,614.0,2955.0,528.0,-130.0,1109.0,3824.0,2025-08-01 18:55:49,80.0,,-1.21603308529373,-2.98628642001504,-1.18588532811193,,-0.9329440055963393,,
,6104.0,617.0,2955.0,528.0,-123.0,1096.0,3821.0,2025-08-01 18:55:50,80.0,,-1.21603621770869,-2.98636289746693,-1.18545673546697,,-0.8408553060296194,,
,6108.0,616.0,2956.0,528.0,-119.0,1082.0,3806.0,2025-08-01 18:55:51,79.0,,-1.21433311168395,-2.98628924896206,-1.18441845304179,,-0.724569247492295,,
,6109.0,615.0,2956.0,528.0,-121.0,1087.0,3793.0,2025-08-01 18:55:52,79.0,,-1.21337164725727,-2.98602088533727,-1.18386244369329,,-0.5837372204498756,,
,6112.0,615.0,2957.0,528.0,-117.0,1078.0,3808.0,2025-08-01 18:55:53,79.0,,-1.21208241096556,-2.98583355673773,-1.18525220708403,,-0.4188944025548358,,
,6112.0,612.0,2956.0,528.0,-109.0,1114.0,3786.0,2025-08-01 18:55:54,79.0,,-1.21276728954528,-2.98605605100076,-1.18440519745975,,-0.23155961335121342,,
,6115.0,617.0,2959.0,529.0,-108.0,1103.0,3811.0,2025-08-01 18:55:55,79.0,,-1.21334267248546,-2.98598489217103,-1.18510886446261,,-0.02430966813594868,,
,6120.0,618.0,2959.0,531.0,-116.0,1123.0,3813.0,2025-08-01 18:55:56,80.0,,-1.2139007562781,-2.98612289624318,-1.18465317186989,,0.19918460757280748,,
,6119.0,613.0,2960.0,529.0,-120.0,1115.0,3817.0,2025-08-01 18:55:57,80.0,,-1.21436543600723,-2.98626572283641,-1.18458843718615,,0.43417536105071536,,
,6120.0,616.0,2963.0,528.0,-108.0,1106.0,3798.0,2025-08-01 18:55:58,79.0,,-1.21564916495048,-2.98636509124608,-1.18595253594767,,0.6749210953572007,,
,6125.0,616.0,2961.0,529.0,-121.0,1105.0,3806.0,2025-08-01 18:55:59,79.0,,-1.21719111744749,-2.98650705069895,-1.1860112945986,,0.9148453086906099,,
,6130.0,619.0,2965.0,530.0,-123.0,1092.0,3809.0,2025-08-01 18:56:00,78.0,,-1.21753021957853,-2.98644957022369,-1.1870947987124,,1.1467723316703524,,
,6133.0,617.0,2965.0,531.0,-112.0,1108.0,3794.0,2025-08-01 18:56:01,77.0,,-1.21707561954523,-2.98643508021672,-1.18686572636463,,1.3632343115383365,,
,6136.0,619.0,2966.0,530.0,-113.0,1106.0,3788.0,2025-08-01 18:56:02,77.0,,-1.21600634128439,-2.98636738622576,-1.18603790959616,,1.5568352276095443,,
,6137.0,619.0,2969.0,533.0,-106.0,1098.0,3816.0,2025-08-01 18:56:03,77.0,,-1.21395039761305,-2.98621647060036,-1.18511383175437,,1.720650326370343,,
,6139.0,620.0,2970.0,531.0,-114.0,1101.0,3820.0,2025-08-01 18:56:04,77.0,,-1.21360381026876,-2.98589457995206,-1.18450816064968,,1.8486329759788316,,
,6142.0,620.0,2969.0,531.0,-117.0,1090.0,3812.0,2025-08-01 18:56:05,78.0,,-1.21237706958055,-2.98599431641307,-1.18425043408576,,1.9359962955851777,,
,6146.0,620.0,2973.0,536.0,-120.0,1090.0,3812.0,2025-08-01 18:56:06,78.0,,-1.21254478364012,-2.98592179308865,-1.18404248454937,,1.979534785771721,,
,6147.0,620.0,2971.0,530.0,-114.0,1098.0,3788.0,2025-08-01 18:56:07,78.0,,-1.2126606200332,-2.98594926203122,-1.18416932477819,,1.9778524584836108,,
,6150.0,621.0,2974.0,532.0,-115.0,1111.0,3790.0,2025-08-01 18:56:08,78.0,,-1.21298853229958,-2.98588958107148,-1.18442976041522,,1.9314695525862746,,
,6152.0,621.0,2973.0,533.0,-126.0,1099.0,3797.0,2025-08-01 18:56:09,77.0,,-1.21271613342098,-2.98606993517565,-1.18497182977919,,1.842790429926033,,
,6159.0,623.0,2977.0,537.0,-117.0,1106.0,3803.0,2025-08-01 18:56:10,77.0,,-1.21348786744588,-2.98610856126308,-1.18503536037239,,1.71593029897075,,
,6159.0,623.0,2976.0,535.0,-110.0,1092.0,3820.0,2025-08-01 18:56:11,77.0,,-1.2143455501334,-2.98613301660854,-1.18453145299552,,1.5564159701556637,,
,6161.0,621.0,2977.0,533.0,-109.0,1084.0,3822.0,2025-08-01 18:56:12,76.0,,-1.21466867182175,-2.98620588431546,-1.18518858439656,,1.370792297603701,,
,6165.0,623.0,2980.0,534.0,-110.0,1089.0,3825.0,2025-08-01 18:56:13,77.0,,-1.21532772389411,-2.98613461203357,-1.18526048417078,,1.1661774062618186,,
,6165.0,623.0,2982.0,537.0,-113.0,1073.0,3807.0,2025-08-01 18:56:14,77.0,,-1.21492222831116,-2.98634638788373,-1.18541887037146,,0.9498137782954422,,
,6168.0,623.0,2981.0,535.0,-119.0,1075.0,3799.0,2025-08-01 18:56:15,77.0,,-1.21406624528841,-2.98609594822616,-1.1841622963861,,0.7286586190874772,,
,6173.0,622.0,2982.0,536.0,-119.0,1114.0,3791.0,2025-08-01 18:56:16,77.0,,-1.2126537560826,-2.98616059269982,-1.18465116801974,,0.5090473607113697,,
,6176.0,623.0,2984.0,539.0,-117.0,1098.0,3799.0,2025-08-01 18:56:17,77.0,,-1.21165826850945,-2.98599702160626,-1.18426492593088,,0.296451211409491,,
,6180.0,624.0,2983.0,537.0,-117.0,1087.0,3807.0,2025-08-01 18:56:18,77.0,,-1.21153552639034,-2.98595331255139,-1.18411006453383,,0.0953357742200606,,
,6178.0,624.0,2986.0,539.0,-112.0,1080.0,3821.0,2025-08-01 18:56:19,77.0,,-1.20993487659994,-2.98600079875991,-1.18347674938137,,-0.09088505626412739,,
,6183.0,625.0,2985.0,538.0,-114.0,1074.0,3810.0,2025-08-01 18:56:20,77.0,,-1.21003420726281,-2.98590559705721,-1.18364805041288,,-0.2598159778725594,,
,6185.0,622.0,2986.0,536.0,-118.0,1099.0,3811.0,2025-08-01 18:56:21,76.0,,-1.20968393515737,-2.9857709839787,-1.18350103347044,,-0.40999079034422026,,
,6189.0,625.0,2987.0,541.0,-116.0,1089.0,3813.0,2025-08-01 18:56:22,76.0,,-1.20974227039497,-2.98597580355531,-1.18307691361295,,-0.5407521895533854,,
,6192.0,625.0,2991.0,542.0,-116.0,1080.0,3813.0,2025-08-01 18:56:23,76.0,,-1.21044816778984,-2.98610393678032,-1.18293568584677,,-0.6521251727273654,,
,6194.0,628.0,2990.0,541.0,-114.0,1102.0,3805.0,2025-08-01 18:56:24,76.0,,-1.21147665221253,-2.98608363102814,-1.18371879040081,,-0.744703097686072,,
,6193.0,625.0,2991.0,539.0,-125.0,1100.0,3785.0,2025-08-01 18:56:25,76.0,,-1.21358658709896,-2.98620966942527,-1.18389534666125,,-0.8195570773918918,,
,6197.0,627.0,2992.0,539.0,-125.0,1110.0,3815.0,2025-08-01 18:56:26,76.0,,-1.21298801917847,-2.98610162889266,-1.18366477748779,,-0.8781697278542402,,
,6203.0,625.0,2996.0,541.0,-114.0,1115.0,3823.0,2025-08-01 18:56:27,76.0,,-1.21269882629167,-2.98607829115837,-1.18469219485668,,-0.9223857442558182,,
,6205.0,626.0,2997.0,541.0,-114.0,1103.0,3841.0,2025-08-01 18:56:28,75.0,,-1.21153459507804,-2.98602515671108,-1.18340392878142,,-0.9543665416225804,,
,6206.0,630.0,2996.0,543.0,-126.0,1082.0,3835.0,2025-08-01 18:56:29,75.0,,-1.20987723774287,-2.98599161425349,-1.18318228956408,,-0.9765352026406808,,
,6208.0,627.0,2997.0,541.0,-119.0,1094.0,3819.0,2025-08-01 18:56:30,75.0,,-1.20931512667751,-2.9858118721731,-1.18283609538642,,-0.9915006497651085,,
2025-08-01 18:53:52,6212.0,627.0,2998.0,542.0,-125.0,1086.0,3804.0,2025-08-01 18:56:31,74.0,2025/08/01 06:53:52 PM,-1.20770490045678,-2.98572066454879,-1.18230775667538,,-1.001954891326958,,
,6216.0,630.0,3002.0,545.0,-120.0,1086.0,3800.0,2025-08-01 18:56:32,74.0,,-1.20820297720511,-2.98580498684383,-1.18227394586081,,-1.0105430202125831,,
,6216.0,627.0,3001.0,542.0,-112.0,1084.0,3789.0,2025-08-01 18:56:33,74.0,,-1.20807663067905,-2.9858297605151,-1.18258299806529,,-1.0197114151329245,,
,6219.0,628.0,3004.0,543.0,-115.0,1097.0,3800.0,2025-08-01 18:56:34,74.0,,-1.20876603708428,-2.98588479860104,-1.18200309078752,,-1.0315446582140113,,
,6223.0,630.0,3004.0,544.0,-112.0,1097.0,3830.0,2025-08-01 18:56:35,74.0,,-1.21018809472263,-2.98604756209375,-1.18354748330799,,-1.047605537188207,,
,6227.0,630.0,3006.0,544.0,-116.0,1095.0,3838.0,2025-08-01 18:56:36,74.0,,-1.21205713089646,-2.98595744175212,-1.18395256141212,,-1.0687947587389048,,
,6232.0,630.0,3008.0,545.0,-118.0,1076.0,3828.0,2025-08-01 18:56:37,74.0,,-1.21227652498419,-2.98588493818292,-1.18381915158618,,-1.0952473708341872,,
,6230.0,630.0,3008.0,545.0,-109.0,1074.0,3810.0,2025-08-01 18:56:38,74.0,,-1.21136393951972,-2.98592450336384,-1.18366244459646,,-1.1262811122595642,,
,6231.0,630.0,3008.0,542.0,-109.0,1085.0,3819.0,2025-08-01 18:56:39,74.0,,-1.20976380842303,-2.98571779493372,-1.18363761252937,,-1.1604077377266944,,
,6233.0,630.0,3008.0,543.0,-123.0,1085.0,3792.0,2025-08-01 18:56:40,74.0,,-1.20790232871375,-2.98567661815578,-1.18198950263725,,-1.1954117903239838,,
,6232.0,633.0,3008.0,543.0,-112.0,1124.0,3813.0,2025-08-01 18:56:41,74.0,,-1.20640879014281,-2.98558130548355,-1.18179334962618,,-1.2284928654774023,,
,6226.0,629.0,3007.0,543.0,-110.0,1127.0,3802.0,2025-08-01 18:56:42,74.0,,-1.20593115793581,-2.98554045343893,-1.18145500747814,,-1.2564585270279254,,
,6219.0,626.0,3006.0,540.0,-114.0,1138.0,3798.0,2025-08-01 18:56:43,75.0,,-1.20452792231538,-2.98547229237274,-1.18079121411168,,-1.2759477653232392,,
,6214.0,626.0,3005.0,543.0,-106.0,1089.0,3810.0,2025-08-01 18:56:44,75.0,,-1.20425010328666,-2.98541482895985,-1.18086435553289,,-1.2836611611807518,,
,6206.0,627.0,3001.0,541.0,-121.0,1069.0,3819.0,2025-08-01 18:56:45,75.0,,-1.20496565638005,-2.98539117316562,-1.1815399917786,,-1.2765744905714853,,
,6199.0,624.0,3001.0,543.0,-122.0,1084.0,3809.0,2025-08-01 18:56:46,75.0,,-1.20554073177216,-2.98566706030216,-1.18083483858326,,-1.2521166030685267,,
,6190.0,624.0,2993.0,539.0,-117.0,1076.0,3796.0,2025-08-01 18:56:47,75.0,,-1.20600379817389,-2.98547649652508,-1.18146994546716,,-1.208298456612824,,
,6181.0,620.0,2990.0,537.0,-123.0,1073.0,3789.0,2025-08-01 18:56:48,75.0,,-1.20577532477661,-2.98561972202114,-1.18108293088141,,-1.1437868345250661,,
,6175.0,621.0,2987.0,537.0,-130.0,1066.0,3817.0,2025-08-01 18:56:49,75.0,,-1.20697282036344,-2.9857211748485,-1.18217512308779,,-1.0579228023551617,,
,6167.0,620.0,2984.0,537.0,-115.0,1085.0,3822.0,2025-08-01 18:56:50,74.0,,-1.20761253773597,-2.98567433372374,-1.18178013678332,,-0.9506910972359027,,
,6163.0,620.0,2982.0,538.0,-116.0,1094.0,3833.0,2025-08-01 18:56:51,74.0,,-1.20548541660509,-2.98567624679081,-1.18155382375906,,-0.822652131368494,,
,6155.0,615.0,2978.0,534.0,-123.0,1125.0,3832.0,2025-08-01 18:56:52,74.0,,-1.20445061986209,-2.98550593045409,-1.18144577307176,,-0.6748527180317936,,
,6151.0,617.0,2977.0,536.0,-111.0,1105.0,3811.0,2025-08-01 18:56:53,74.0,,-1.20223739508232,-2.98554229968423,-1.18012503220293,,-0.5087343446959128,,
,6153.0,617.0,2978.0,535.0,-113.0,1104.0,3796.0,2025-08-01 18:56:54,75.0,,-1.20158044659057,-2.98528220818901,-1.18059922182749,,-0.32605796184121444,,
,6146.0,617.0,2977.0,534.0,-111.0,1099.0,3804.0,2025-08-01 18:56:55,75.0,,-1.20203476102584,-2.9853417790765,-1.18006618562055,,-0.1288610004565544,,
,6145.0,617.0,2971.0,534.0,-117.0,1090.0,3818.0,2025-08-01 18:56:56,75.0,,-1.2024868600644,-2.9855657624506,-1.18088480389878,,0.08054458966882168,,
,6143.0,616.0,2972.0,534.0,-113.0,1098.0,3809.0,2025-08-01 18:56:57,75.0,,-1.2055600408032,-2.98558168476889,-1.18154595225215,,0.29953422617207615,,
,6143.0,615.0,2970.0,535.0,-111.0,1079.0,3827.0,2025-08-01 18:56:58,75.0,,-1.20686939050225,-2.98564861200239,-1.18207730724732,,0.5251039185766505,,
,6141.0,619.0,2972.0,534.0,-119.0,1079.0,3830.0,2025-08-01 18:56:59,75.0,,-1.20899366666499,-2.98588756490381,-1.18309370949412,,0.7537947660752975,,
,6143.0,617.0,2971.0,533.0,-115.0,1079.0,3830.0,2025-08-01 18:57:00,75.0,,-1.21183840624265,-2.98617531928744,-1.18435252654766,,0.9816331391306976,,
,6139.0,613.0,2969.0,533.0,-113.0,1095.0,3813.0,2025-08-01 18:57:01,76.0,,-1.21382559564985,-2.98634145045345,-1.18578844779794,,1.204110710806901,,
,6140.0,614.0,2969.0,533.0,-112.0,1100.0,3800.0,2025-08-01 18:57:02,76.0,,-1.21485587282781,-2.98645734619131,-1.18613771637407,,1.416224171438908,,
,6141.0,616.0,2970.0,533.0,-135.0,1078.0,3791.0,2025-08-01 18:57:03,76.0,,-1.21365036434694,-2.98633346528723,-1.18603745355054,,1.6125871953692337,,
,6140.0,619.0,2971.0,535.0,-129.0,1080.0,3801.0,2025-08-01 18:57:04,76.0,,-1.21270049956265,-2.986363063976,-1.18575271423101,,1.7876180798145824,,
,6139.0,617.0,2970.0,535.0,-115.0,1119.0,3814.0,2025-08-01 18:57:05,76.0,,-1.21199057640938,-2.98620353369134,-1.18517940961719,,1.935796310601577,,
,6138.0,615.0,2967.0,532.0,-115.0,1118.0,3826.0,2025-08-01 18:57:06,76.0,,-1.2120600436991,-2.98610176951054,-1.18569089851571,,2.0519710370004853,,
,6138.0,616.0,2968.0,534.0,-118.0,1104.0,3791.0,2025-08-01 18:57:07,76.0,,-1.21198571867304,-2.98595503943645,-1.18489580009795,,2.131695151730079,,
,6140.0,616.0,2969.0,533.0,-118.0,1103.0,3814.0,2025-08-01 18:57:08,76.0,,-1.21074487523007,-2.98598025378438,-1.18511478815974,,2.1715516442961227,,
,6140.0,617.0,2970.0,535.0,-118.0,1103.0,3818.0,2025-08-01 18:57:09,76.0,,-1.21149992075405,-2.98595858254365,-1.18483875965769,,2.169435524010941,,
,6140.0,615.0,2969.0,533.0,-119.0,1078.0,3819.0,2025-08-01 18:57:10,76.0,,-1.21274867064937,-2.98599909600301,-1.1854422946787,,2.124756246819145,,
,6142.0,615.0,2967.0,535.0,-118.0,1072.0,3812.0,2025-08-01 18:57:11,76.0,,-1.21402772541499,-2.98627365334813,-1.18570188234158,,2.0385330747743025,,
,6142.0,617.0,2970.0,536.0,-118.0,1072.0,3806.0,2025-08-01 18:57:12,76.0,,-1.21481919239286,-2.98627449488106,-1.18548840181328,,1.913368774911158,,
,6146.0,617.0,2971.0,535.0,-118.0,1071.0,3799.0,2025-08-01 18:57:13,76.0,,-1.21548391143556,-2.9863036650365,-1.18548959034715,,1.7533033939929261,,
,6143.0,616.0,2969.0,534.0,-115.0,1080.0,3798.0,2025-08-01 18:57:14,76.0,,-1.21585876451318,-2.98637738734461,-1.18558254144857,,1.5635659592947975,,
,6148.0,615.0,2971.0,533.0,-115.0,1105.0,3839.0,2025-08-01 18:57:15,77.0,,-1.21536049062186,-2.98644606619138,-1.18595095747776,,1.3502541978255875,,
,6146.0,617.0,2969.0,534.0,-109.0,1125.0,3810.0,2025-08-01 18:57:16,77.0,,-1.2154697883957,-2.98665389314098,-1.18596661721851,,1.119978482624965,,
,6146.0,616.0,2970.0,534.0,-114.0,1110.0,3797.0,2025-08-01 18:57:17,77.0,,-1.21528245103462,-2.98654107816039,-1.1866431041076,,0.8795059059266155,,
,6147.0,617.0,2972.0,534.0,-117.0,1103.0,3790.0,2025-08-01 18:57:18,77.0,,-1.21457565699711,-2.98626036952641,-1.18505276296858,,0.6354348333070262,,
,6146.0,617.0,2971.0,533.0,-122.0,1082.0,3795.0,2025-08-01 18:57:19,77.0,,-1.21193454552502,-2.9860766863518,-1.18359601424957,,0.3939213846223518,,
,6148.0,618.0,2969.0,533.0,-110.0,1090.0,3820.0,2025-08-01 18:57:20,77.0,,-1.21177202463874,-2.98606083370398,-1.18411504455687,,0.16046900538715905,,
,6147.0,618.0,2972.0,535.0,-104.0,1090.0,3811.0,2025-08-01 18:57:21,76.0,,-1.20952084153102,-2.98600977372712,-1.18362249546372,,-0.06021754651326257,,
,6148.0,615.0,2971.0,534.0,-110.0,1092.0,3810.0,2025-08-01 18:57:22,76.0,,-1.20857987685938,-2.98582900180128,-1.18278872460247,,-0.26432041493399616,,
,6146.0,616.0,2969.0,532.0,-122.0,1071.0,3803.0,,,,-1.20837492253168,-2.98578001526265,-1.18290267274811,,-0.4489507567994408,,
,6144.0,617.0,2969.0,533.0,-116.0,1077.0,3800.0,,,,-1.20837318789742,-2.98584543719502,-1.18372391684121,,-0.612158176495273,,
,6146.0,617.0,2972.0,536.0,-115.0,1100.0,3827.0,,,,-1.20887275147298,-2.98572160924249,-1.1834974548898,,-0.7529192101969963,,
,6147.0,615.0,2970.0,535.0,-116.0,1117.0,3829.0,,,,-1.20846728070364,-2.98571963692455,-1.18278552427192,,-0.8711118986426775,,
,6145.0,615.0,2971.0,534.0,-119.0,1106.0,3822.0,,,,-1.20590369348663,-2.98569446437307,-1.18188537708319,,-0.9674770099278893,,
,6144.0,616.0,2970.0,534.0,-113.0,1084.0,3777.0,,,,-1.20375161245142,-2.98539863593009,-1.18205774582716,,-1.043560208881674,,
,6146.0,617.0,2973.0,536.0,-118.0,1084.0,3806.0,,,,-1.20191099471803,-2.98532488874587,-1.18121892033244,,-1.101625657259928,,
,6144.0,617.0,2967.0,535.0,-116.0,1107.0,3808.0,,,,-1.20124952512103,-2.98523309871654,-1.1801756862741,,-1.1445316175050664,,
,6147.0,618.0,2972.0,535.0,-115.0,1107.0,3819.0,,,,-1.20030836302735,-2.98523128011096,-1.18057490478343,,-1.1755625667100496,,
,6145.0,617.0,2972.0,534.0,-114.0,1099.0,3809.0,,,,-1.2007845091138,-2.98513058427477,-1.18065413959501,,-1.1982187959707642,,
,6149.0,617.0,2971.0,534.0,-116.0,1099.0,3818.0,,,,-1.20111070283098,-2.98523868966844,-1.18076970530942,,-1.2159717846189697,,
,6150.0,618.0,2972.0,535.0,-124.0,1108.0,3830.0,,,,-1.20205611802269,-2.98532993662649,-1.18102306730985,,-1.2320004078221147,,
,6152.0,618.0,2975.0,536.0,-118.0,1106.0,3815.0,,,,-1.20346212845357,-2.98543944786778,-1.18134832274054,,-1.2489283028623728,,
,6151.0,618.0,2974.0,537.0,-121.0,1113.0,3818.0,,,,-1.20478665172077,-2.98542696599772,-1.18223866529328,,-1.2685858439982418,,
,6153.0,616.0,2973.0,534.0,-120.0,1118.0,3825.0,,,,-1.20650330062778,-2.98566955349248,-1.18263548157209,,-1.29182078351347,,
,6155.0,617.0,2975.0,534.0,-118.0,1101.0,3819.0,,,,-1.2079549264925,-2.98576618287317,-1.18345078707643,,-1.3183795901938322,,
,6159.0,618.0,2978.0,537.0,-108.0,1102.0,3823.0,,,,-1.20839622555059,-2.98598605043779,-1.18421764922471,,-1.3468768860753633,,
,6160.0,617.0,2979.0,537.0,-103.0,1104.0,3831.0,,,,-1.20832538857109,-2.98587575377619,-1.18304984989442,,-1.3748632073253724,,
,6161.0,619.0,2978.0,538.0,-111.0,1108.0,3826.0,,,,-1.20612762929808,-2.98567466584037,-1.18208967748368,,-1.3989917797640794,,
,6163.0,618.0,2979.0,536.0,-120.0,1108.0,3810.0,,,,-1.20499066203476,-2.9856921080471,-1.1824886463583,,-1.4152737350135787,,
,6164.0,618.0,2981.0,537.0,-108.0,1080.0,3825.0,,,,-1.2037998553104,-2.98557427757209,-1.18160579555937,,-1.419399617390732,,
,6168.0,620.0,2983.0,538.0,-113.0,1089.0,3819.0,,,,-1.20307434071331,-2.98546698103019,-1.18146505573785,,-1.4070953512613358,,
,6170.0,619.0,2981.0,539.0,-106.0,1099.0,3804.0,,,,-1.20280998072864,-2.98545648778765,-1.18198603938758,,-1.3744753959088858,,
,6174.0,618.0,2982.0,537.0,-112.0,1110.0,3793.0,,,,-1.20274734562021,-2.98537655673683,-1.1810347391107,,-1.3183560221247497,,
,6175.0,621.0,2984.0,538.0,-114.0,1100.0,3807.0,,,,-1.2030704434881,-2.98538417570879,-1.18086645463261,,-1.2364973617711776,,
,6179.0,620.0,2984.0,540.0,-110.0,1087.0,3819.0,,,,-1.20306904529245,-2.98536628298028,-1.18192199631168,,-1.1277527720437956,,
,6182.0,621.0,2985.0,538.0,-111.0,1081.0,3825.0,,,,-1.20277539243977,-2.98533581591983,-1.18134351105525,,-0.9921164422936269,,
,6182.0,620.0,2987.0,538.0,-114.0,1099.0,3825.0,,,,-1.20244784567938,-2.98545467753345,-1.18069825261682,,-0.8306734907300588,,
,6185.0,620.0,2987.0,540.0,-120.0,1094.0,3817.0,,,,-1.20154569491235,-2.98534054772546,-1.18062962417089,,-0.6454694399052827,,
,6187.0,624.0,2992.0,541.0,-129.0,1076.0,3794.0,,,,-1.19977589113724,-2.98517773141205,-1.17942575091347,,-0.43932608704607584,,
,6192.0,623.0,2991.0,541.0,-129.0,1085.0,3803.0,,,,-1.19709298912596,-2.98520918228953,-1.17941786187679,,-0.21563664020954135,,
,6194.0,623.0,2991.0,541.0,-122.0,1103.0,3816.0,,,,-1.19678190952086,-2.98486096392653,-1.1799154938535,,0.021826575465091334,,
,6194.0,622.0,2993.0,539.0,-123.0,1098.0,3799.0,,,,-1.19509542283694,-2.98474852535637,-1.17879462138968,,0.26906377121461783,,
,6199.0,623.0,2995.0,542.0,-120.0,1080.0,3810.0,,,,-1.19500445746937,-2.98480064623231,-1.17745416762179,,0.5219408358445624,,
,6201.0,622.0,2994.0,543.0,-127.0,1066.0,3801.0,,,,-1.19456651878892,-2.98496227946646,-1.17770120869046,,0.7762196440596827,,
,6202.0,627.0,2997.0,543.0,-117.0,1076.0,3821.0,,,,-1.19448849628387,-2.98467056284969,-1.17798954457006,,1.027535787371665,,
,6204.0,622.0,2997.0,539.0,-119.0,1101.0,3832.0,,,,-1.19519595382857,-2.98466301191295,-1.17835850467457,,1.2713468825395933,,
,6208.0,626.0,3000.0,542.0,-112.0,1104.0,3800.0,,,,-1.19443787614888,-2.98466197943244,-1.178724465016,,1.5028831524078505,,
,6208.0,625.0,2999.0,543.0,-126.0,1098.0,3822.0,,,,-1.19419576872912,-2.98475296067717,-1.17783912767577,,1.7171340951589253,,
,6213.0,625.0,3001.0,542.0,-136.0,1078.0,3816.0,,,,-1.19327038132826,-2.98448600790654,-1.17786911920838,,1.9089001297125756,,
,6214.0,627.0,3003.0,543.0,-125.0,1072.0,3794.0,,,,-1.19234552296875,-2.98445797111252,-1.17744834754455,,2.0729272284410203,,
,6216.0,624.0,3003.0,544.0,-115.0,1080.0,3810.0,,,,-1.19180072539823,-2.98448215732847,-1.17678964757103,,2.2041279567723437,,
,6217.0,629.0,3003.0,545.0,-114.0,1103.0,3810.0,,,,-1.19193670891793,-2.98437684627149,-1.1766196185959,,2.2978765074900753,,
,6221.0,629.0,3005.0,545.0,-127.0,1090.0,3821.0,,,,-1.19101538739538,-2.98449656107594,-1.17737726150564,,2.35035049918217,,
,6224.0,627.0,3009.0,546.0,-121.0,1097.0,3817.0,,,,-1.19166618465185,-2.98450795415602,-1.17663307803921,,2.358880521051653,,
,6224.0,627.0,3006.0,542.0,-116.0,1100.0,3822.0,,,,-1.19160392715189,-2.98461886409834,-1.1762060247552,,2.322261491991426,,
,6228.0,629.0,3009.0,545.0,-115.0,1101.0,3813.0,,,,-1.19163619378462,-2.98463403569995,-1.17716130338961,,2.2409794040583626,,
,6229.0,627.0,3010.0,546.0,-118.0,1082.0,3824.0,,,,-1.19339745633689,-2.9847123067745,-1.17691903301374,,2.117313870003662,,
,6234.0,630.0,3012.0,548.0,-118.0,1082.0,3815.0,,,,-1.19293197180498,-2.98481375370272,-1.17763657933537,,1.9552910045456307,,
,6238.0,630.0,3013.0,548.0,-129.0,1078.0,3790.0,,,,-1.19252703967035,-2.98451673571066,-1.17766031248181,,1.7604810424256547,,
,6238.0,631.0,3013.0,547.0,-127.0,1081.0,3813.0,,,,-1.19139675570364,-2.98439627167015,-1.17635099064732,,1.53965761080013,,
,6241.0,630.0,3016.0,549.0,-125.0,1100.0,3817.0,,,,-1.1911967039881,-2.98437818247618,-1.1767693817878,,1.300356269444375,,
,6247.0,632.0,3016.0,548.0,-114.0,1113.0,3803.0,,,,-1.19106291223921,-2.98449377900914,-1.17678726817331,,1.0503841331415569,,
,6247.0,633.0,3018.0,550.0,-115.0,1120.0,3797.0,,,,-1.19028980117228,-2.98449551454601,-1.17585850123812,,0.7973369428991186,,
,6248.0,629.0,3017.0,548.0,-114.0,1109.0,3819.0,,,,-1.18983208018355,-2.98446473611909,-1.17538720505537,,0.5481745159480423,,
,6251.0,631.0,3019.0,551.0,-121.0,1101.0,3811.0,,,,-1.18965864820756,-2.98428875596018,-1.1756978372764,,0.30889240784823657,,
,6254.0,630.0,3024.0,548.0,-129.0,1086.0,3820.0,,,,-1.18976040395482,-2.98453724545896,-1.1756155753836,,0.08431053752161663,,
,6256.0,631.0,3025.0,551.0,-117.0,1096.0,3820.0,,,,-1.18872988933624,-2.98437252404894,-1.17636813052371,,-0.12201793629695105,,
,6257.0,632.0,3023.0,550.0,-108.0,1085.0,3840.0,,,,-1.18793728292228,-2.98422374829869,-1.17539241895568,,-0.3077892825269728,,
,6261.0,632.0,3025.0,551.0,-117.0,1099.0,3821.0,,,,-1.18624022987703,-2.98409115933346,-1.17449466340546,,-0.4718461755798851,,
,6262.0,634.0,3028.0,548.0,-118.0,1095.0,3815.0,,,,-1.18586051408738,-2.98404646390505,-1.17395312140724,,-0.6140178255720897,,
,6264.0,634.0,3029.0,550.0,-103.0,1098.0,3811.0,,,,-1.18509237552365,-2.98407091030001,-1.17446686567888,,-0.7349333128299467,,
,6266.0,631.0,3029.0,549.0,-105.0,1097.0,3802.0,,,,-1.18419693196039,-2.98370828483769,-1.17376580643811,,-0.8358351143391588,,
,6257.0,631.0,3025.0,550.0,-115.0,1105.0,3804.0,,,,-1.18317600526918,-2.98393509199935,-1.1734366116068,,-0.9184133144719097,,
,6253.0,630.0,3028.0,549.0,-119.0,1112.0,3794.0,,,,-1.18341687193405,-2.98393073424653,-1.17347256284125,,-0.9846720441784609,,
,6248.0,630.0,3026.0,549.0,-115.0,1104.0,3815.0,,,,-1.18400476621596,-2.98393807299914,-1.1739987541172,,-1.0368295875744074,,
,6241.0,629.0,3023.0,549.0,-114.0,1099.0,3823.0,,,,-1.18367172982512,-2.98396052627269,-1.17411254940661,,-1.0772441635527694,,
,6234.0,626.0,3021.0,546.0,-129.0,1089.0,3826.0,,,,-1.18556811009625,-2.9841093459896,-1.17419962882504,,-1.1083508108857247,,
,6225.0,626.0,3016.0,545.0,-118.0,1084.0,3824.0,,,,-1.18562639447919,-2.98410849442977,-1.17446472630476,,-1.1325928097125342,,
,6216.0,622.0,3015.0,545.0,-125.0,1066.0,3814.0,,,,-1.18428874569251,-2.98392592444705,-1.17358529242985,,-1.1523340071861263,,
,6210.0,622.0,3011.0,545.0,-121.0,1077.0,3802.0,,,,-1.18354177307326,-2.98383177132679,-1.17310450182613,,-1.1697450440144133,,
,6204.0,625.0,3010.0,543.0,-120.0,1088.0,3792.0,,,,-1.18212576687551,-2.98396966073322,-1.17233441242268,,-1.1866647661273584,,
,6194.0,622.0,3008.0,542.0,-127.0,1090.0,3809.0,,,,-1.18200631143759,-2.98397544089526,-1.172945950499,,-1.2044461978411523,,
,6190.0,621.0,3005.0,542.0,-112.0,1103.0,3838.0,,,,-1.18300445526337,-2.98386135813839,-1.1727540375384,,-1.2238030704907417,,
,6185.0,622.0,3003.0,541.0,-110.0,1119.0,3845.0,,,,-1.18430723411991,-2.98389930197711,-1.17348863799677,,-1.2446772084498168,,
,6181.0,618.0,3004.0,542.0,-107.0,1125.0,3849.0,,,,-1.18466732580097,-2.9839298912808,-1.17391644198327,,-1.2661485250879208,,
2025-08-01 18:53:53,6179.0,621.0,3000.0,541.0,-112.0,1113.0,3812.0,,,2025/08/01 06:53:53 PM,-1.18619189825202,-2.98411221586876,-1.1752653396305,,-1.2864077206162357,,
,6173.0,619.0,2999.0,540.0,-113.0,1102.0,3815.0,,,,-1.18704739248982,-2.98409946844696,-1.17545151961575,,-1.3028070373931337,,
,6172.0,617.0,2999.0,538.0,-118.0,1089.0,3817.0,,,,-1.18963295391528,-2.98435381506836,-1.17683075384006,,-1.3119968449667865,,
,6173.0,619.0,3002.0,540.0,-127.0,1092.0,3791.0,,,,-1.19082296000833,-2.98447858080503,-1.17666960939874,,-1.3101458229524336,,
,6170.0,619.0,2999.0,540.0,-112.0,1106.0,3792.0,,,,-1.1919116387674,-2.98461523340775,-1.17758036780541,,-1.293230969860308,,
,6169.0,619.0,2999.0,539.0,-108.0,1075.0,3794.0,,,,-1.19288771844997,-2.98472630905455,-1.17839602441581,,-1.2573722921182116,,
,6169.0,620.0,2997.0,539.0,-117.0,1072.0,3833.0,,,,-1.19370233111357,-2.98477071493232,-1.17895660291867,,-1.1991783206919888,,
,6171.0,619.0,2998.0,539.0,-116.0,1088.0,3843.0,,,,-1.19436351994534,-2.98488458980688,-1.17877606804896,,-1.1160650662046947,,
,6170.0,619.0,2999.0,540.0,-115.0,1086.0,3838.0,,,,-1.19457713177,-2.98479831282133,-1.17923161635007,,-1.0065139176254307,,
,6167.0,617.0,2997.0,537.0,-133.0,1108.0,3815.0,,,,-1.19456091235925,-2.9847227871865,-1.17886174457052,,-0.8702426678513703,,
,6169.0,619.0,2996.0,539.0,-126.0,1129.0,3793.0,,,,-1.1933452601892,-2.98472135706498,-1.17893788613849,,-0.7082762108572916,,
,6171.0,620.0,2998.0,541.0,-119.0,1118.0,3804.0,,,,-1.19325842247225,-2.9847762712787,-1.17909197123787,,-0.5229169134993918,,
,6169.0,618.0,2999.0,540.0,-113.0,1110.0,3786.0,,,,-1.19350640922903,-2.98494116290428,-1.17907562252537,,-0.3176268416051437,,
,6170.0,621.0,2999.0,541.0,-117.0,1106.0,3795.0,,,,-1.19525301178635,-2.98493088793306,-1.17862077258562,,-0.09684305841605498,,
,6169.0,618.0,3000.0,541.0,-125.0,1088.0,3828.0,,,,-1.19701458185266,-2.98509679745283,-1.18008280619108,,0.1342480093338176,,
,6173.0,618.0,2999.0,539.0,-118.0,1072.0,3825.0,,,,-1.19761922049922,-2.98503119906194,-1.18035311592304,,0.36995088376872687,,
,6173.0,621.0,2997.0,541.0,-115.0,1079.0,3820.0,,,,-1.19594478904103,-2.98476115390257,-1.17830104517549,,0.6042935385544783,,
,6173.0,622.0,3002.0,540.0,-117.0,1059.0,3818.0,,,,-1.19633452787609,-2.98494039779187,-1.17835215896152,,0.831236460288521,,
,6174.0,621.0,3001.0,541.0,-112.0,1084.0,3805.0,,,,-1.19525583766227,-2.98489607496213,-1.17832994936291,,1.0448514176838353,,
,6175.0,620.0,3000.0,538.0,-116.0,1088.0,3798.0,,,,-1.19523262702801,-2.98477042417953,-1.17914095147807,,1.2394723134974208,,
,6176.0,622.0,3002.0,541.0,-117.0,1100.0,3789.0,,,,-1.1948308196581,-2.98489548339916,-1.17868698838927,,1.4098282094917873,,
,6175.0,618.0,3002.0,542.0,-110.0,1121.0,3792.0,,,,-1.19517696762503,-2.98467096538627,-1.17834999413915,,1.5511726291302492,,
,6176.0,622.0,3002.0,541.0,-112.0,1120.0,3799.0,,,,-1.19533297666756,-2.98484285167196,-1.17876921008761,,1.6594220065983007,,
,6179.0,620.0,3003.0,540.0,-123.0,1095.0,3810.0,,,,-1.19510467325853,-2.98483129990552,-1.17924720084316,,1.7313097194304954,,
,6176.0,619.0,3004.0,539.0,-121.0,1092.0,3829.0,,,,-1.19535608350878,-2.98494194852579,-1.1786660181618,,1.764552362219346,,
,6176.0,622.0,3004.0,541.0,-114.0,1076.0,3827.0,,,,-1.1953065601506,-2.98498693834343,-1.17849089613652,,1.7580146499598777,,
,6178.0,620.0,3005.0,542.0,-112.0,1088.0,3818.0,,,,-1.19673171534451,-2.98488830255531,-1.1788664133881,,1.7118513441109278,,
,6175.0,621.0,3001.0,541.0,-110.0,1084.0,3833.0,,,,-1.19817838945718,-2.985143818468,-1.17948339536954,,1.6276008016939325,,
,6177.0,622.0,3001.0,539.0,-115.0,1082.0,3842.0,,,,-1.19905982918638,-2.9850272984774,-1.18019682261098,,1.5082060441949647,,
,6177.0,622.0,3003.0,540.0,-116.0,1092.0,3814.0,,,,-1.19931285584443,-2.98495033412764,-1.17980719024316,,1.3579454778047522,,
,6178.0,622.0,3003.0,541.0,-116.0,1116.0,3825.0,,,,-1.19823630947259,-2.98506366886082,-1.1795878287347,,1.1822654181590242,,
,6172.0,621.0,3004.0,542.0,-117.0,1107.0,3836.0,,,,-1.19768069472802,-2.98489215049522,-1.17962314150359,,0.9875185093471595,,
,6176.0,619.0,3002.0,539.0,-111.0,1093.0,3822.0,,,,-1.19701535668855,-2.98495951805601,-1.17931098483309,,0.7806240042815793,,
,6172.0,620.0,3003.0,539.0,-107.0,1120.0,3787.0,,,,-1.19655548331969,-2.98500016403209,-1.17860611068308,,0.568676147114858,,
,6173.0,623.0,3005.0,541.0,-114.0,1087.0,3788.0,,,,-1.19572652832461,-2.98486481629149,-1.17965675074231,,0.35853445251334914,,
,6175.0,623.0,3006.0,543.0,-118.0,1081.0,3810.0,,,,-1.1952250351523,-2.98489520950881,-1.1790199896687,,0.1564334717386519,,
,6175.0,619.0,3007.0,540.0,-119.0,1079.0,3813.0,,,,-1.19539258312014,-2.98497083618584,-1.17785767565415,,-0.03235133915601467,,
,6174.0,622.0,3002.0,538.0,-110.0,1085.0,3827.0,,,,-1.19526111565038,-2.98503120997206,-1.17931087078325,,-0.20375118023662817,,
,6178.0,620.0,3006.0,541.0,-119.0,1093.0,3849.0,,,,-1.19732918907765,-2.98515826343716,-1.1795334138373,,-0.3550448779413474,,
,6179.0,620.0,3006.0,539.0,-115.0,1095.0,3821.0,,,,-1.19898790251791,-2.9850847832975,-1.17930986231529,,-0.4848859609130396,,
,6179.0,622.0,3004.0,541.0,-113.0,1077.0,3806.0,,,,-1.19976598346352,-2.98526826662359,-1.18077661487019,,-0.5932212143391452,,
,6183.0,621.0,3005.0,541.0,-122.0,1081.0,3785.0,,,,-1.2004798954768,-2.98542578584911,-1.18074193756611,,-0.6811169732279385,,
,6183.0,619.0,3007.0,540.0,-118.0,1086.0,3806.0,,,,-1.19984898148946,-2.98528381531293,-1.17961689348168,,-0.7505174963768443,,
,6187.0,624.0,3010.0,542.0,-126.0,1090.0,3818.0,,,,-1.19920752229933,-2.98515468736406,-1.17969698698631,,-0.8039645352006637,,
,6185.0,622.0,3012.0,544.0,-122.0,1090.0,3808.0,,,,-1.19860413358536,-2.98520856392204,-1.17952632774653,,-0.844308525885158,,
,6188.0,622.0,3008.0,543.0,-120.0,1083.0,3814.0,,,,-1.19990614505947,-2.98508349217729,-1.17997329857765,,-0.8744398441727279,,
,6189.0,622.0,3013.0,542.0,-107.0,1099.0,3817.0,,,,-1.20101772014965,-2.98524324871345,-1.18011195525037,,-0.8970636302098787,,
,6192.0,622.0,3012.0,545.0,-105.0,1078.0,3816.0,,,,-1.20215731536085,-2.98534638257119,-1.18031919150182,,-0.9145342680753676,,
,6196.0,626.0,3013.0,545.0,-112.0,1095.0,3819.0,,,,-1.20269726773895,-2.98536475039737,-1.1807593933928,,-0.9287562885668572,,
,6199.0,624.0,3014.0,544.0,-125.0,1095.0,3820.0,,,,-1.2032897218784,-2.98534679577757,-1.1811152851707,,-0.9411482655314053,,
,6199.0,624.0,3014.0,542.0,-125.0,1095.0,3791.0,,,,-1.20417631901223,-2.98547537591001,-1.1812321985586,,-0.9526568651982765,,
,6199.0,624.0,3017.0,545.0,-126.0,1106.0,3802.0,,,,-1.20458702661838,-2.98548905604499,-1.18174619129994,,-0.9638017083877868,,
,6201.0,624.0,3018.0,544.0,-121.0,1077.0,3824.0,,,,-1.20543439141707,-2.9854668913178,-1.18132632458789,,-0.9747298318186045,,
,6206.0,624.0,3016.0,546.0,-115.0,1070.0,3815.0,,,,-1.20556551278686,-2.98553588564377,-1.18148759850055,,-0.9852616122086812,,
,6207.0,625.0,3018.0,543.0,-123.0,1085.0,3796.0,,,,-1.20431255596148,-2.98558193210733,-1.1817144376986,,-0.9949167940758907,,
,6211.0,624.0,3019.0,545.0,-119.0,1086.0,3812.0,,,,-1.20239784695015,-2.98535706027082,-1.18062393988273,,-1.0029176764331826,,
,6212.0,625.0,3020.0,545.0,-119.0,1100.0,3805.0,,,,-1.20002803752037,-2.98524409597576,-1.17973251001858,,-1.0081746350306795,,
,6217.0,627.0,3022.0,546.0,-127.0,1101.0,3808.0,,,,-1.19862318699984,-2.98520497610522,-1.1792848354284,,-1.0092656006455456,,
,6217.0,627.0,3022.0,547.0,-126.0,1098.0,3811.0,,,,-1.19805907715229,-2.98498351700728,-1.17831114583182,,-1.0044249730071007,,
,6219.0,627.0,3022.0,546.0,-114.0,1103.0,3810.0,,,,-1.19733743411694,-2.98506886517838,-1.17821797874569,,-0.9915582182573961,,
,6221.0,628.0,3026.0,546.0,-113.0,1105.0,3806.0,,,,-1.19725149235132,-2.98486186641715,-1.17802543992163,,-0.9682960469260984,,
,6224.0,628.0,3025.0,547.0,-114.0,1104.0,3804.0,,,,-1.19726170949756,-2.98490201180022,-1.17916082399368,,-0.9320970276991382,,
,6225.0,630.0,3028.0,547.0,-115.0,1105.0,3797.0,,,,-1.19710597986327,-2.98503099777793,-1.17838231741447,,-0.8804004331897842,,
,6225.0,628.0,3029.0,547.0,-107.0,1082.0,3787.0,,,,-1.19727811311262,-2.9848145492465,-1.17944626882654,,-0.8108228249309603,,
,6229.0,628.0,3028.0,547.0,-118.0,1098.0,3797.0,,,,-1.1963082850328,-2.98490304136468,-1.17825379390152,,-0.721383402071892,,
,6234.0,630.0,3031.0,546.0,-118.0,1096.0,3827.0,,,,-1.19547111211583,-2.98478539986125,-1.17759326140674,,-0.6107359532621175,,
,6233.0,629.0,3030.0,549.0,-110.0,1103.0,3817.0,,,,-1.19395463848848,-2.9847564294026,-1.17810916528492,,-0.4783811741529162,,
,6236.0,631.0,3034.0,547.0,-109.0,1090.0,3806.0,,,,-1.19277583346618,-2.98459381750978,-1.17694178950407,,-0.3248335457808444,,
,6240.0,629.0,3033.0,547.0,-115.0,1090.0,3820.0,,,,-1.19186793835218,-2.98448633069988,-1.1765625338709,,-0.15172199806749243,,
,6239.0,628.0,3034.0,548.0,-116.0,1085.0,3801.0,,,,-1.19172996289727,-2.98451474592557,-1.17658146238506,,0.038188230100595195,,
,6243.0,633.0,3037.0,552.0,-128.0,1086.0,3807.0,,,,-1.1921935304943,-2.98459272841352,-1.17769598083346,,0.2410559447035252,,
,6245.0,632.0,3037.0,550.0,-128.0,1080.0,3816.0,,,,-1.19322868532581,-2.98458097708511,-1.17633883276078,,0.45210161335567167,,
,6246.0,631.0,3036.0,549.0,-111.0,1098.0,3825.0,,,,-1.19400375761219,-2.98458750193894,-1.17678202208318,,0.6658106772515063,,
,6247.0,630.0,3040.0,550.0,-105.0,1073.0,3831.0,,,,-1.1949394684521,-2.98469337759373,-1.17781333728449,,0.8761863389770507,,
,6252.0,631.0,3041.0,552.0,-114.0,1095.0,3842.0,,,,-1.19544794261724,-2.98490195447911,-1.17789411365841,,1.0770328127261763,,
,6255.0,635.0,3043.0,550.0,-112.0,1087.0,3830.0,,,,-1.19544331062445,-2.98488186242734,-1.17784310606399,,1.2622488910926493,,
,6255.0,634.0,3043.0,552.0,-115.0,1078.0,3826.0,,,,-1.19489875993101,-2.98478120639267,-1.17767830155174,,1.4261120763605417,,
,6257.0,631.0,3041.0,548.0,-123.0,1064.0,3813.0,,,,-1.19245692564121,-2.98471060537048,-1.17617727494559,,1.5635354778242745,,
,6260.0,634.0,3045.0,550.0,-122.0,1071.0,3793.0,,,,-1.1917000144383,-2.98460639258892,-1.17650525425855,,1.6702833056002064,,
,6264.0,635.0,3047.0,552.0,-126.0,1086.0,3787.0,,,,-1.19150786833693,-2.98463021481411,-1.17593538690852,,1.743135920262007,,
,6263.0,636.0,3048.0,554.0,-124.0,1088.0,3798.0,,,,-1.19178316288113,-2.98447835111822,-1.17637073466853,,1.7800011683061232,,
,6266.0,637.0,3050.0,554.0,-112.0,1096.0,3792.0,,,,-1.19186898916268,-2.98456130965555,-1.17695528590501,,1.7799736812838487,,
,6269.0,637.0,3051.0,552.0,-115.0,1113.0,3809.0,,,,-1.19238535051655,-2.98454975316271,-1.17592515199,,1.7433466389719043,,
,6272.0,636.0,3051.0,552.0,-120.0,1087.0,3803.0,,,,-1.1933979210687,-2.98466093123554,-1.17619489000204,,1.671580983228256,,
,6274.0,636.0,3051.0,554.0,-135.0,1076.0,3799.0,,,,-1.1935671906439,-2.98464000674805,-1.17626050652996,,1.5672362116118488,,
,6279.0,635.0,3056.0,552.0,-129.0,1064.0,3800.0,,,,-1.19460814804678,-2.98461673565961,-1.1776597686704,,1.4338659680520063,,
,6277.0,636.0,3055.0,554.0,-116.0,1083.0,3802.0,,,,-1.19475238212327,-2.98487977459001,-1.1777475472035,,1.275881315786067,,
,6279.0,636.0,3055.0,554.0,-122.0,1071.0,3791.0,,,,-1.19492385817827,-2.98492343103739,-1.17751692393567,,1.0983846923501286,,
,6283.0,640.0,3058.0,556.0,-119.0,1074.0,3797.0,,,,-1.19309319037496,-2.98473229192581,-1.17646928702786,,0.9069777593819122,,
,6287.0,638.0,3059.0,556.0,-121.0,1095.0,3807.0,,,,-1.19191450431935,-2.98445409481326,-1.17603196302708,,0.7075466099665946,,
,6289.0,639.0,3062.0,556.0,-119.0,1107.0,3804.0,,,,-1.19081322041684,-2.98442583110152,-1.1761816083046,,0.5060283949379973,,
,6291.0,638.0,3061.0,557.0,-119.0,1100.0,3818.0,,,,-1.19000337259666,-2.9843902505437,-1.1756440811254,,0.3081648586138862,,
,6297.0,639.0,3060.0,557.0,-111.0,1100.0,3821.0,,,,-1.18917537860303,-2.98440982564987,-1.17511326738773,,0.11925092049082954,,
,6296.0,639.0,3065.0,556.0,-116.0,1080.0,3820.0,,,,-1.18922247821657,-2.984300058713,-1.17572304569642,,-0.05610968608922929,,
,6296.0,641.0,3066.0,557.0,-122.0,1073.0,3816.0,,,,-1.18843803354978,-2.98445148361513,-1.17493451232806,,-0.21422528817281897,,
,6298.0,639.0,3068.0,556.0,-117.0,1104.0,3801.0,,,,-1.18966305593808,-2.98433676170305,-1.17488104291243,,-0.35249380327275237,,
,6295.0,639.0,3065.0,556.0,-117.0,1106.0,3805.0,,,,-1.19046820081817,-2.9845078176493,-1.17522541616172,,-0.4695165708421039,,
,6291.0,640.0,3065.0,556.0,-109.0,1113.0,3818.0,,,,-1.19132979991076,-2.98447864571341,-1.1759104870965,,-0.5651318007894105,,
,6282.0,638.0,3064.0,554.0,-116.0,1105.0,3835.0,,,,-1.19024113241004,-2.98446817199697,-1.17563917672448,,-0.6403584576482882,,
,6276.0,636.0,3062.0,553.0,-117.0,1117.0,3829.0,,,,-1.18998673312399,-2.9843980015548,-1.17587334225691,,-0.6972510517029469,,
,6266.0,635.0,3062.0,552.0,-114.0,1101.0,3811.0,,,,-1.18837041235194,-2.9843460359251,-1.17443651137296,,-0.7386756007060973,,
,6261.0,634.0,3059.0,552.0,-110.0,1062.0,3801.0,,,,-1.18817250563824,-2.98425602906663,-1.17518394257858,,-0.7680254485917009,,
,6251.0,633.0,3057.0,549.0,-111.0,1054.0,3827.0,,,,-1.18769174881267,-2.98429159752003,-1.17493393598981,,-0.7889018263367819,,
,6240.0,631.0,3054.0,552.0,-115.0,1075.0,3824.0,,,,-1.18820280793629,-2.98422852447077,-1.17477273858982,,-0.8047875692501321,,
,6236.0,632.0,3050.0,548.0,-117.0,1114.0,3816.0,,,,-1.18917713112974,-2.984422997693,-1.17554098452879,,-0.8187430360974738,,
,6228.0,629.0,3048.0,548.0,-115.0,1114.0,3818.0,,,,-1.19177268903834,-2.98466525194775,-1.17654889621312,,-0.8331509819746505,,
,6223.0,631.0,3047.0,546.0,-115.0,1122.0,3813.0,,,,-1.19312786398256,-2.98462223773414,-1.17797470356233,,-0.8495320900800606,,
,6215.0,628.0,3048.0,544.0,-113.0,1112.0,3828.0,,,,-1.19532013465373,-2.98488364590667,-1.17860150630569,,-0.8684453913989786,,
,6212.0,629.0,3046.0,548.0,-114.0,1104.0,3810.0,,,,-1.19769386648826,-2.98502970622453,-1.17825403728568,,-0.889478442589519,,
,6205.0,627.0,3043.0,544.0,-116.0,1082.0,3791.0,,,,-1.19842562226028,-2.98524865645374,-1.17986625885149,,-0.9113219231660323,,
,6205.0,626.0,3044.0,546.0,-114.0,1092.0,3808.0,,,,-1.19937034605399,-2.98522288165314,-1.18053245973451,,-0.9319139592783513,,
,6200.0,627.0,3045.0,545.0,-115.0,1078.0,3845.0,,,,-1.19957137637112,-2.98519759561273,-1.18013276854822,,-0.9486330087550162,,
,6202.0,627.0,3042.0,547.0,-109.0,1085.0,3822.0,,,,-1.19936484366771,-2.98527236595783,-1.18097481309356,,-0.9585159384529287,,
,6201.0,628.0,3044.0,545.0,-113.0,1121.0,3818.0,,,,-1.19891520108907,-2.98509581747385,-1.18060287699437,,-0.9584799079627843,,
,6198.0,627.0,3043.0,546.0,-124.0,1108.0,3824.0,,,,-1.19767998096745,-2.98505159974303,-1.17948784327793,,-0.9455314223292832,,
,6198.0,629.0,3043.0,545.0,-125.0,1084.0,3813.0,,,,-1.19700431985829,-2.985102984456,-1.17976515156494,,-0.9169516428519704,,
,6199.0,627.0,3044.0,543.0,-130.0,1073.0,3817.0,,,,-1.19688032947811,-2.98503816816334,-1.17871863673028,,-0.8704524515440202,,
,6198.0,628.0,3044.0,545.0,-123.0,1084.0,3824.0,,,,-1.19777743794374,-2.98498980578391,-1.17991071488286,,-0.804302202501994,,
,6195.0,626.0,3043.0,544.0,-115.0,1085.0,3821.0,,,,-1.19860993987329,-2.98507963893538,-1.17977775542517,,-0.7174233166761665,,
,6199.0,628.0,3042.0,545.0,-120.0,1086.0,3795.0,,,,-1.19996349559573,-2.98535347453847,-1.18018646803559,,-0.6094658476051306,,
,6197.0,629.0,3042.0,545.0,-116.0,1102.0,3786.0,,,,-1.20156991820762,-2.98530716985706,-1.18114614934088,,-0.48086190028448517,,
,6198.0,629.0,3044.0,544.0,-115.0,1108.0,3796.0,,,,-1.20354755791485,-2.98550911494482,-1.18109130464372,,-0.33286523975690624,,
,6199.0,628.0,3044.0,542.0,-121.0,1111.0,3818.0,,,,-1.20464340602,-2.98544477419273,-1.18139235723586,,-0.16757830170628585,,
,6199.0,628.0,3043.0,544.0,-122.0,1088.0,3827.0,,,,-1.20474965151313,-2.98555461356606,-1.18061351068071,,0.012035071539520695,,
,6200.0,629.0,3046.0,545.0,-121.0,1081.0,3824.0,,,,-1.20249636152649,-2.98551520168556,-1.18087360916321,,0.20215803497902837,,
,6199.0,630.0,3046.0,546.0,-119.0,1073.0,3808.0,,,,-1.20138495027973,-2.98533702087563,-1.17975045670835,,0.39816214927677285,,
,6201.0,630.0,3047.0,545.0,-122.0,1073.0,3806.0,,,,-1.19937275870425,-2.98513210767706,-1.17933509516017,,0.594696296725528,,
,6202.0,629.0,3046.0,544.0,-127.0,1082.0,3815.0,,,,-1.19870525449207,-2.98496353501158,-1.17901449587746,,0.7858361346512294,,
2025-08-01 18:53:54,6203.0,627.0,3045.0,544.0,-123.0,1101.0,3827.0,,,2025/08/01 06:53:54 PM,-1.19819472599241,-2.98505480155077,-1.17934585332079,,0.9653012212050177,,
,6206.0,630.0,3049.0,546.0,-123.0,1109.0,3836.0,,,,-1.1984073414411,-2.98511584066138,-1.17882640251726,,1.126737826732146,,
,6204.0,628.0,3048.0,545.0,-125.0,1103.0,3836.0,,,,-1.19821651749034,-2.9851680574992,-1.17898872196997,,1.2640550057080475,,
,6206.0,631.0,3048.0,545.0,-122.0,1111.0,3809.0,,,,-1.19927199777102,-2.98512791570472,-1.17950459262263,,1.3717915656168205,,
,6204.0,628.0,3046.0,543.0,-112.0,1101.0,3828.0,,,,-1.20003580407029,-2.98510032603366,-1.17938684422215,,1.4454835422188426,,
,6203.0,632.0,3049.0,547.0,-122.0,1108.0,3822.0,,,,-1.20036317277391,-2.98532686818855,-1.18009318767008,,1.481996769955595,,
,6202.0,630.0,3050.0,545.0,-116.0,1086.0,3818.0,,,,-1.20041429476956,-2.98513700104958,-1.18084123954957,,1.4797880218017,,
,6203.0,630.0,3049.0,546.0,-120.0,1088.0,3809.0,,,,-1.19929024446065,-2.9850862639359,-1.17894898342539,,1.4390616640856848,,
,6199.0,627.0,3050.0,543.0,-131.0,1084.0,3816.0,,,,-1.1985138247584,-2.98501328243053,-1.17916401712447,,1.3617971521476948,,
,6199.0,630.0,3049.0,543.0,-128.0,1075.0,3783.0,,,,-1.19773211501226,-2.98493301319657,-1.17883076210136,,1.251635737359622,,
,6200.0,630.0,3047.0,544.0,-122.0,1072.0,3793.0,,,,-1.19632944099072,-2.98502158323785,-1.17825703898235,,1.1136313294531481,,
,6199.0,631.0,3052.0,547.0,-116.0,1087.0,3831.0,,,,-1.19662076164906,-2.98496316997387,-1.17840515728537,,0.9538882241137331,,
,6199.0,631.0,3049.0,544.0,-111.0,1100.0,3830.0,,,,-1.1959996466998,-2.98488817618123,-1.17832496624274,,0.7791239335287208,,
,6196.0,627.0,3048.0,543.0,-107.0,1096.0,3821.0,,,,-1.19732804610159,-2.9849994026242,-1.17931270736385,,0.5962050276759873,,
,6199.0,629.0,3050.0,543.0,-114.0,1095.0,3805.0,,,,-1.19840435121243,-2.98508926874187,-1.17914330382415,,0.4117053896436103,,
,6200.0,630.0,3049.0,544.0,-103.0,1093.0,3797.0,,,,-1.19916341478886,-2.98518118040026,-1.17967332091541,,0.2315296981310296,,
,6197.0,633.0,3051.0,545.0,-103.0,1104.0,3796.0,,,,-1.19954299972291,-2.98525831106746,-1.18042525401908,,0.06063257017259729,,
,6196.0,629.0,3050.0,545.0,-102.0,1104.0,3813.0,,,,-1.19956561154325,-2.98517710768078,-1.18010562709533,,-0.09715117435796904,,
,6196.0,626.0,3047.0,543.0,-115.0,1095.0,3796.0,,,,-1.19844932502414,-2.98503736198889,-1.17910322932537,,-0.23916441207758873,,
,6198.0,630.0,3051.0,543.0,-115.0,1078.0,3801.0,,,,-1.19772110905134,-2.98511274277148,-1.17907196246635,,-0.36388566677532047,,
,6197.0,630.0,3055.0,543.0,-107.0,1077.0,3835.0,,,,-1.19808403745397,-2.98500545123073,-1.17902660949357,,-0.470808347738426,,
,6200.0,630.0,3053.0,545.0,-110.0,1093.0,3825.0,,,,-1.19784431221822,-2.98495072141335,-1.17873687314927,,-0.5602681133116915,,
,6199.0,629.0,3050.0,544.0,-124.0,1056.0,3797.0,,,,-1.19813511817482,-2.98511866453499,-1.1798062200986,,-0.633246996485676,,
,6197.0,629.0,3050.0,544.0,-108.0,1081.0,3814.0,,,,-1.1984943722563,-2.98504685146914,-1.1787547926669,,-0.6911810902618434,,
,6200.0,630.0,3053.0,545.0,-115.0,1108.0,3801.0,,,,-1.19853513264678,-2.98514755392633,-1.17935651924122,,-0.735793336739888,,
,6204.0,632.0,3055.0,544.0,-115.0,1109.0,3798.0,,,,-1.19903285629943,-2.9851814809752,-1.17887205381483,,-0.7689647205641497,,
,6203.0,634.0,3055.0,546.0,-114.0,1096.0,3799.0,,,,-1.19872496206278,-2.98524782393359,-1.17961429342281,,-0.7926469722802165,,
,6206.0,631.0,3057.0,543.0,-110.0,1079.0,3819.0,,,,-1.19872847106562,-2.98512664963311,-1.17998301278504,,-0.8088096764273691,,
,6208.0,632.0,3056.0,545.0,-113.0,1089.0,3827.0,,,,-1.19721322738926,-2.98516509342416,-1.178870026494,,-0.8194069572700998,,
,6210.0,633.0,3057.0,545.0,-113.0,1092.0,3817.0,,,,-1.19575214047617,-2.98492009867233,-1.17780000434609,,-0.8263457199243756,,
,6212.0,632.0,3059.0,544.0,-107.0,1087.0,3811.0,,,,-1.19444673871024,-2.98474948767109,-1.17769702561774,,-0.8314392940903987,,
,6212.0,634.0,3063.0,544.0,-105.0,1087.0,3828.0,,,,-1.19518132454207,-2.98482568284816,-1.17744878851725,,-0.8363361695139857,,
,6215.0,633.0,3062.0,546.0,-107.0,1095.0,3807.0,,,,-1.19463233945578,-2.98467504020241,-1.17696306601199,,-0.8424214061673418,,
,6216.0,636.0,3063.0,545.0,-127.0,1099.0,3795.0,,,,-1.19402888119102,-2.98464023452006,-1.17704866193228,,-0.8506964294346055,,
,6220.0,635.0,3064.0,545.0,-128.0,1098.0,3809.0,,,,-1.19380377430797,-2.98469551359204,-1.17626395765697,,-0.8616499681719559,,
,6222.0,634.0,3063.0,546.0,-109.0,1097.0,3802.0,,,,-1.19360452830606,-2.98460606724511,-1.177190341993,,-0.875137967200182,,
,6223.0,635.0,3067.0,546.0,-106.0,1123.0,3799.0,,,,-1.19358168631325,-2.98475488521203,-1.17664408597177,,-0.8902927808342208,,
,6225.0,633.0,3067.0,547.0,-104.0,1106.0,3831.0,,,,-1.19304153557918,-2.98466447882925,-1.17667320484624,,-0.9054814771631919,,
,6228.0,635.0,3070.0,549.0,-122.0,1078.0,3819.0,,,,-1.19339322569272,-2.98461013557309,-1.17617954401846,,-0.9183295868862775,,
,6231.0,637.0,3072.0,549.0,-128.0,1071.0,3821.0,,,,-1.19389229329963,-2.98455345391096,-1.17772492410291,,-0.9258202672506458,,
,6231.0,636.0,3073.0,546.0,-108.0,1086.0,3821.0,,,,-1.19230128289078,-2.98462150073744,-1.17690296821032,,-0.9244699896985313,,
,6236.0,638.0,3075.0,547.0,-110.0,1087.0,3807.0,,,,-1.19232414343366,-2.98463097289493,-1.17632090307767,,-0.9105712822476617,,
,6240.0,638.0,3075.0,548.0,-108.0,1098.0,3812.0,,,,-1.19251880790543,-2.98453026678287,-1.17637569540116,,-0.8804822713817052,,
,6241.0,639.0,3074.0,549.0,-108.0,1080.0,3791.0,,,,-1.19272155439162,-2.98456746853911,-1.17677363921006,,-0.8309340850637704,,
,6240.0,639.0,3075.0,551.0,-111.0,1071.0,3788.0,,,,-1.19287015010523,-2.98471203826543,-1.17650034883795,,-0.7593230938967191,,
,6241.0,637.0,3077.0,550.0,-116.0,1094.0,3822.0,,,,-1.19404440999651,-2.98452584540219,-1.17661926652065,,-0.6639569015799873,,
,6246.0,636.0,3080.0,551.0,-119.0,1106.0,3832.0,,,,-1.19387432639761,-2.98479467882094,-1.17673567779936,,-0.544230406375471,,
,6249.0,641.0,3081.0,550.0,-127.0,1097.0,3815.0,,,,-1.19478005990539,-2.9848232714088,-1.17583123677825,,-0.4007189804851102,,
,6248.0,639.0,3082.0,551.0,-122.0,1081.0,3802.0,,,,-1.19635232216742,-2.98482025470739,-1.1774966956851,,-0.23518721433493656,,
,6252.0,638.0,3084.0,549.0,-117.0,1075.0,3785.0,,,,-1.19732591435573,-2.98515164206799,-1.17747614058206,,-0.05052155938806829,,
,6250.0,638.0,3082.0,553.0,-116.0,1079.0,3786.0,,,,-1.19789538445039,-2.98499499436182,-1.1781823934735,,0.14939781538116476,,
,6255.0,641.0,3087.0,552.0,-105.0,1087.0,3799.0,,,,-1.19790010269632,-2.98495352431372,-1.17860453253931,,0.3598671471034425,,
,6256.0,640.0,3086.0,551.0,-112.0,1096.0,3819.0,,,,-1.19667170990824,-2.98495784332253,-1.17904033762088,,0.5755522696706058,,
,6260.0,642.0,3091.0,552.0,-110.0,1102.0,3821.0,,,,-1.19519992307932,-2.98480723302073,-1.1774333275035,,0.7906886780892858,,
,6260.0,642.0,3088.0,553.0,-115.0,1085.0,3804.0,,,,-1.19433700019121,-2.98472777490793,-1.17671003333605,,0.9992771019093344,,
,6266.0,643.0,3091.0,550.0,-119.0,1094.0,3788.0,,,,-1.19345439928977,-2.98475598453018,-1.17647616286642,,1.1952693956106928,,
,6266.0,644.0,3089.0,555.0,-122.0,1104.0,3797.0,,,,-1.19303233641352,-2.98460759702915,-1.17662430228897,,1.3727460647629404,,
,6267.0,643.0,3096.0,554.0,-123.0,1091.0,3783.0,,,,-1.19406858774563,-2.98478740020758,-1.17668325502743,,1.526092076483779,,
,6271.0,643.0,3095.0,552.0,-137.0,1071.0,3801.0,,,,-1.19487400980367,-2.98479173171575,-1.17641943532483,,1.6501798603880755,,
,6272.0,644.0,3095.0,552.0,-117.0,1091.0,3821.0,,,,-1.19645028319905,-2.9848454320252,-1.17785888018744,,1.740566156747536,,
,6274.0,644.0,3098.0,555.0,-109.0,1086.0,3800.0,,,,-1.19686042594944,-2.9848955435168,-1.1774982533178,,1.7937026354928063,,
,6277.0,644.0,3101.0,556.0,-116.0,1080.0,3811.0,,,,-1.1976512167918,-2.98489414754144,-1.17748044085333,,1.80715075152242,,
,6278.0,642.0,3100.0,555.0,-118.0,1098.0,3807.0,,,,-1.19689052522497,-2.98498176352255,-1.1779466015495,,1.779781901674061,,
,6281.0,645.0,3101.0,553.0,-112.0,1104.0,3799.0,,,,-1.19546622738553,-2.98487968884685,-1.17741532764595,,1.7119373257020938,,
,6284.0,644.0,3101.0,555.0,-112.0,1081.0,3785.0,,,,-1.19381217364925,-2.98473757206447,-1.17715333159427,,1.6055202284202046,,
,6289.0,647.0,3106.0,557.0,-118.0,1089.0,3804.0,,,,-1.19300732746513,-2.98463892998696,-1.1757030218596,,1.4639960303878494,,
,6288.0,644.0,3106.0,556.0,-119.0,1084.0,3816.0,,,,-1.19191796094567,-2.98455479942672,-1.17554748166147,,1.2922850241376629,,
,6291.0,646.0,3106.0,556.0,-114.0,1090.0,3814.0,,,,-1.19121540684305,-2.98453267601113,-1.17547989360768,,1.0965434993826753,,
,6292.0,645.0,3108.0,556.0,-119.0,1103.0,3835.0,,,,-1.19242325548035,-2.98469431389135,-1.17639905458607,,0.8838424747380099,,
,6294.0,648.0,3107.0,555.0,-122.0,1113.0,3826.0,,,,-1.1931350463265,-2.98463975635132,-1.17577444400758,,0.6617655301840978,,
,6291.0,649.0,3109.0,557.0,-119.0,1122.0,3816.0,,,,-1.19255292843099,-2.98458797088785,-1.17573803502403,,0.4379574799178195,,
,6288.0,645.0,3109.0,556.0,-116.0,1120.0,3820.0,,,,-1.19247014945262,-2.98454899418617,-1.17643795408183,,0.21966281002348892,,
,6285.0,643.0,3108.0,554.0,-109.0,1104.0,3809.0,,,,-1.19325499184865,-2.98464764156951,-1.17561050134169,,0.013295942055120972,,
,6276.0,644.0,3105.0,553.0,-114.0,1085.0,3798.0,,,,-1.19247569714667,-2.98453357997242,-1.17623511079401,,-0.17591656541411885,,
,6271.0,645.0,3107.0,553.0,-115.0,1063.0,3786.0,,,,-1.19184367270878,-2.98451620475898,-1.1757656807015,,-0.34418918634330775,,
,6262.0,642.0,3102.0,555.0,-118.0,1061.0,3793.0,,,,-1.18991829373899,-2.98451877530571,-1.17489191413746,,-0.4893052089165929,,
,6254.0,640.0,3102.0,551.0,-128.0,1061.0,3796.0,,,,-1.18908860293707,-2.98424919697169,-1.17479191762986,,-0.6106126616061253,,
,6242.0,639.0,3098.0,550.0,-125.0,1083.0,3815.0,,,,-1.18965896935999,-2.98423020818208,-1.17451858500894,,-0.7088961374248844,,
,6237.0,640.0,3098.0,552.0,-114.0,1085.0,3822.0,,,,-1.18997200120455,-2.98414090686201,-1.174297205274,,-0.7861445205921418,,
,6229.0,638.0,3097.0,550.0,-119.0,1102.0,3819.0,,,,-1.19002131926839,-2.98424657963454,-1.1751636954594,,-0.8452437130570668,,
,6223.0,636.0,3094.0,548.0,-122.0,1092.0,3822.0,,,,-1.19031176715293,-2.98427378993798,-1.17514768164041,,-0.8896287555002272,,
,6216.0,635.0,3092.0,549.0,-120.0,1074.0,3817.0,,,,-1.19013809753282,-2.98434059730635,-1.17542055882342,,-0.9229310238365985,,
,6210.0,634.0,3091.0,546.0,-116.0,1091.0,3791.0,,,,-1.19199636106277,-2.98436859939609,-1.17497110782361,,-0.9486536308228926,,
,6211.0,637.0,3090.0,547.0,-103.0,1104.0,3804.0,,,,-1.19251217600367,-2.98443797651167,-1.17637326841358,,-0.9699022395067846,,
,6205.0,637.0,3089.0,545.0,-104.0,1092.0,3823.0,,,,-1.19313629704633,-2.98447387799083,-1.17623863615207,,-0.9891898269077041,,
,6200.0,634.0,3089.0,546.0,-117.0,1111.0,3804.0,,,,-1.19368731156801,-2.98449573439205,-1.17645098006712,,-1.008323318100399,,
,6200.0,634.0,3088.0,545.0,-107.0,1096.0,3798.0,,,,-1.19420242739965,-2.98477686125247,-1.17727348991847,,-1.0283686551590427,,
,6197.0,635.0,3090.0,547.0,-117.0,1074.0,3792.0,,,,-1.19552788080895,-2.98472922599325,-1.17760143419727,,-1.0496806461906905,,
,6197.0,635.0,3089.0,545.0,-124.0,1066.0,3783.0,,,,-1.1969719914273,-2.9849917828949,-1.17803697741461,,-1.0719770970115545,,
,6199.0,636.0,3090.0,545.0,-122.0,1056.0,3799.0,,,,-1.19915265469287,-2.98492639694648,-1.17999296091709,,-1.0944348523121175,,
,6199.0,634.0,3088.0,543.0,-130.0,1053.0,3791.0,,,,-1.20050686076261,-2.98520127366242,-1.17999503484833,,-1.1157884452834095,,
,6197.0,635.0,3088.0,545.0,-122.0,1067.0,3815.0,,,,-1.20216610139485,-2.98534524940486,-1.1810642617173,,-1.1344185035624508,,
,6197.0,637.0,3091.0,547.0,-111.0,1098.0,3801.0,,,,-1.20389929372771,-2.98547665038517,-1.18146877220981,,-1.1484247284336848,,
,6199.0,637.0,3089.0,548.0,-111.0,1116.0,3805.0,,,,-1.20280318119861,-2.98549917971981,-1.1808508084313,,-1.1556853374014977,,
,6196.0,636.0,3089.0,547.0,-118.0,1115.0,3814.0,,,,-1.20148019797269,-2.98510034396119,-1.18119591753558,,-1.1539101643018235,,
,6200.0,637.0,3088.0,547.0,-126.0,1111.0,3809.0,,,,-1.20004107962117,-2.98508601452592,-1.18007876028006,,-1.1406975019319603,,
,6199.0,636.0,3090.0,546.0,-123.0,1056.0,3801.0,,,,-1.19886656497297,-2.98510801542813,-1.17938880604463,,-1.1136050389998864,,
,6204.0,635.0,3092.0,548.0,-118.0,1072.0,3792.0,,,,-1.19881250852633,-2.98500390575264,-1.17956864637293,,-1.0702431087580797,,
,6204.0,637.0,3089.0,547.0,-117.0,1073.0,3785.0,,,,-1.19861558873771,-2.98512204675885,-1.17965066013983,,-1.0083944871913133,,
,6203.0,637.0,3090.0,547.0,-106.0,1043.0,3828.0,,,,-1.1992093851679,-2.98517436741986,-1.17957687430501,,-0.9261598167936392,,
,6205.0,639.0,3091.0,548.0,-107.0,1069.0,3841.0,,,,-1.20020199812746,-2.9852087940237,-1.18018692063118,,-0.8221220101658392,,
,6208.0,636.0,3091.0,548.0,-111.0,1085.0,3817.0,,,,-1.2004094884667,-2.98523154357281,-1.1800652884328,,-0.6955173687945072,,
,6208.0,638.0,3093.0,547.0,-121.0,1093.0,3802.0,,,,-1.20068165256136,-2.98517589621566,-1.17990381346588,,-0.5463965674645084,,
,6211.0,639.0,3091.0,548.0,-126.0,1077.0,3813.0,,,,-1.20077291661273,-2.98521512079223,-1.18026781377973,,-0.3757563424441089,,
,6208.0,636.0,3090.0,544.0,-130.0,1094.0,3786.0,,,,-1.20060789290458,-2.9852524144269,-1.17973847197942,,-0.1856237225698513,,
,6209.0,637.0,3095.0,546.0,-120.0,1084.0,3799.0,,,,-1.199919822011,-2.98524908887254,-1.17917126559918,,0.020920999307002357,,
,6210.0,640.0,3093.0,548.0,-118.0,1089.0,3810.0,,,,-1.19875233665735,-2.9851421959069,-1.17926407703956,,0.23978981702336555,,
,6210.0,640.0,3097.0,550.0,-120.0,1093.0,3814.0,,,,-1.19881308788189,-2.9850465058928,-1.17856536519162,,0.4660013217955167,,
,6211.0,635.0,3093.0,546.0,-115.0,1082.0,3805.0,,,,-1.19856412209676,-2.98506939392016,-1.17891624304105,,0.6938578065767976,,
,6207.0,638.0,3092.0,546.0,-124.0,1082.0,3824.0,,,,-1.19878024790685,-2.98514290157462,-1.17890294627666,,0.917174365522474,,
,6207.0,637.0,3093.0,546.0,-126.0,1073.0,3806.0,,,,-1.19822179078444,-2.98520453771116,-1.17861151301629,,1.129545728608565,,
,6208.0,638.0,3094.0,547.0,-132.0,1058.0,3816.0,,,,-1.19877746524445,-2.98514586249173,-1.17925148660394,,1.3246342799620001,,
,6205.0,636.0,3093.0,546.0,-135.0,1063.0,3809.0,,,,-1.19971558230396,-2.98518042246598,-1.17939565679303,,1.496461430968892,,
,6206.0,637.0,3092.0,546.0,-125.0,1075.0,3809.0,,,,-1.19996649170033,-2.98512371499458,-1.17959952786244,,1.6396842818394073,,
,6205.0,638.0,3095.0,547.0,-128.0,1091.0,3798.0,,,,-1.20008581995556,-2.9852234639734,-1.17976512722621,,1.74984056173649,,
,6203.0,639.0,3096.0,547.0,-114.0,1102.0,3814.0,,,,-1.20136909829133,-2.98541701067943,-1.18007731264485,,1.8235475165203565,,
,6206.0,639.0,3095.0,547.0,-116.0,1114.0,3825.0,,,,-1.20181106716615,-2.98546336960855,-1.18025123804655,,1.8586447090465457,,
,6205.0,635.0,3092.0,548.0,-126.0,1106.0,3830.0,,,,-1.20198042943212,-2.98521239181634,-1.18054872923202,,1.854275863713947,,
,6201.0,635.0,3092.0,546.0,-123.0,1095.0,3833.0,,,,-1.2011965136456,-2.98515834979768,-1.17989566077688,,1.8109095809249478,,
,6205.0,638.0,3094.0,549.0,-116.0,1091.0,3826.0,,,,-1.19995301440519,-2.98517170267149,-1.17993224081279,,1.7303018867856845,,
,6206.0,638.0,3095.0,546.0,-120.0,1069.0,3832.0,,,,-1.19950413140315,-2.98535371213288,-1.1797920564628,,1.6154051571646626,,
,6205.0,639.0,3093.0,547.0,-119.0,1076.0,3837.0,,,,-1.19987170391765,-2.98527797619498,-1.17906047139693,,1.4702288689720813,,
,6207.0,636.0,3095.0,548.0,-117.0,1077.0,3822.0,,,,-1.20064782622085,-2.98520175491164,-1.17889201486639,,1.2996587762125222,,
,6209.0,637.0,3098.0,547.0,-116.0,1083.0,3805.0,,,,-1.20174446479934,-2.98533882771088,-1.17950862769047,,1.1092426450378778,,
,6211.0,640.0,3098.0,548.0,-118.0,1092.0,3824.0,,,,-1.20204684312431,-2.98522771802181,-1.18046728624645,,0.904952118092663,,
,6213.0,641.0,3098.0,551.0,-125.0,1093.0,3829.0,,,,-1.20172165622084,-2.98544396059142,-1.18018730134401,,0.6929310354519131,,
,6214.0,637.0,3098.0,550.0,-122.0,1101.0,3807.0,,,,-1.20141335504694,-2.98512261733579,-1.17945962392504,,0.4792404030441574,,
,6213.0,638.0,3098.0,550.0,-121.0,1080.0,3816.0,,,,-1.20005373367888,-2.98513988065245,-1.17986296289988,,0.26960941011754297,,
2025-08-01 18:53:55,6216.0,642.0,3101.0,550.0,-114.0,1095.0,3813.0,,,2025/08/01 06:53:55 PM,-1.19920580342349,-2.98515230485984,-1.17839685298811,,0.06920104358868946,,
,6219.0,640.0,3101.0,547.0,-116.0,1089.0,3821.0,,,,-1.19815493788995,-2.98515484623053,-1.17805123388385,,-0.11759932715809433,,
,6220.0,639.0,3103.0,547.0,-111.0,1081.0,3806.0,,,,-1.19924695955895,-2.98496212326975,-1.1790247782981,,-0.28736298609016203,,
,6223.0,639.0,3103.0,549.0,-115.0,1078.0,3810.0,,,,-1.19910518572028,-2.98487872394417,-1.17867702804903,,-0.4377530740477172,,
,6226.0,640.0,3103.0,550.0,-120.0,1091.0,3807.0,,,,-1.19912054305342,-2.98512288451869,-1.17877387338443,,-0.5676026710285244,,
,6229.0,642.0,3107.0,551.0,-122.0,1090.0,3815.0,,,,-1.20004212941876,-2.98508982272784,-1.17881854008118,,-0.6769226478379482,,
,6232.0,641.0,3107.0,549.0,-120.0,1079.0,3824.0,,,,-1.2018356623181,-2.9851963770183,-1.17953235301894,,-0.7668296978622603,,
,6230.0,644.0,3109.0,552.0,-121.0,1069.0,3800.0,,,,-1.2026578363647,-2.98542921337576,-1.17960291987355,,-0.8393917655361314,,
,6229.0,642.0,3108.0,549.0,-120.0,1075.0,3787.0,,,,-1.20402593147579,-2.98538614955865,-1.18139012709422,,-0.8973968265416756,,
,6235.0,644.0,3109.0,553.0,-123.0,1098.0,3813.0,,,,-1.20361571305371,-2.9854159057851,-1.18071877793043,,-0.9440598784417873,,
,6237.0,642.0,3108.0,550.0,-128.0,1103.0,3828.0,,,,-1.20221226882097,-2.98530347959799,-1.17950656126881,,-0.9826906712154158,,
,6240.0,644.0,3112.0,552.0,-120.0,1116.0,3821.0,,,,-1.20054994655627,-2.98534326969405,-1.17982651913108,,-1.0163502795065624,,
,6244.0,643.0,3111.0,550.0,-126.0,1097.0,3830.0,,,,-1.19998755847374,-2.98513614095283,-1.17898702436936,,-1.0475275539240279,,
,6247.0,645.0,3114.0,552.0,-115.0,1087.0,3797.0,,,,-1.1991369083064,-2.98525928974256,-1.17904623113346,,-1.0778664394363955,,
,6248.0,644.0,3115.0,551.0,-113.0,1082.0,3802.0,,,,-1.19847518412481,-2.9851967188886,-1.17809691036856,,-1.107971972809158,,
,6250.0,648.0,3114.0,555.0,-116.0,1078.0,3806.0,,,,-1.19798935018925,-2.98502557500746,-1.17796433209377,,-1.1373165340248748,,
,6249.0,646.0,3117.0,554.0,-123.0,1103.0,3816.0,,,,-1.19855485189372,-2.98505276242404,-1.17824594212018,,-1.1642588577775237,,
,6252.0,645.0,3115.0,551.0,-121.0,1100.0,3812.0,,,,-1.19966287059108,-2.98507675311422,-1.17758588516218,,-1.1861768715194974,,
,6257.0,646.0,3119.0,554.0,-115.0,1095.0,3822.0,,,,-1.19936674681931,-2.98530200518972,-1.17832445197164,,-1.1997025691525642,,
,6260.0,646.0,3118.0,554.0,-123.0,1102.0,3826.0,,,,-1.19933475923466,-2.98520025726873,-1.17834426146028,,-1.2010345720143818,,
,6260.0,646.0,3122.0,557.0,-133.0,1089.0,3814.0,,,,-1.19908495810017,-2.98506552954204,-1.17835921222009,,-1.1862941579102952,,
,6260.0,645.0,3120.0,555.0,-118.0,1054.0,3794.0,,,,-1.19944377955476,-2.98511895911819,-1.17833114937064,,-1.1518856410009006,,
,6262.0,645.0,3123.0,555.0,-118.0,1071.0,3815.0,,,,-1.1985941585626,-2.98508562584049,-1.17862434660707,,-1.0948231386378746,,
,6266.0,649.0,3123.0,554.0,-125.0,1087.0,3821.0,,,,-1.19773134737234,-2.98477782623724,-1.17743518260296,,-1.0129923579138256,,
,6269.0,647.0,3122.0,557.0,-123.0,1080.0,3816.0,,,,-1.1967222426108,-2.98500637324479,-1.17712499196486,,-0.9053263734038637,,
,6270.0,651.0,3128.0,558.0,-122.0,1097.0,3811.0,,,,-1.19675987222377,-2.98485382340037,-1.1775797542061,,-0.771886571522216,,
,6272.0,647.0,3124.0,554.0,-111.0,1105.0,3797.0,,,,-1.19571939115153,-2.9847857692418,-1.17706525499168,,-0.6138523330810713,,
,6275.0,648.0,3127.0,558.0,-123.0,1093.0,3809.0,,,,-1.19550605363002,-2.98481080700022,-1.17723402272108,,-0.4334340433961428,,
,6276.0,651.0,3129.0,555.0,-125.0,1101.0,3823.0,,,,-1.19515627319869,-2.98466798081602,-1.17747032393604,,-0.23373216124201573,,
,6280.0,649.0,3131.0,557.0,-125.0,1087.0,3821.0,,,,-1.19458366759941,-2.98469317041275,-1.17671527839319,,-0.018569148160041026,,
,6281.0,647.0,3129.0,557.0,-130.0,1084.0,3783.0,,,,-1.19452701378725,-2.98474431614926,-1.17710862454993,,0.20767959291262575,,
,6282.0,647.0,3129.0,558.0,-126.0,1092.0,3812.0,,,,-1.19439314590741,-2.98469703764304,-1.17632312024439,,0.44023499462733373,,
,6283.0,653.0,3134.0,560.0,-118.0,1086.0,3836.0,,,,-1.1924731738517,-2.98449563712613,-1.17611713900136,,0.6740323923648199,,
,6287.0,650.0,3134.0,556.0,-109.0,1101.0,3819.0,,,,-1.19163143238653,-2.98444878317339,-1.1756845318872,,0.9038086362063242,,
,6289.0,651.0,3134.0,559.0,-112.0,1108.0,3795.0,,,,-1.19069230611244,-2.98436591594414,-1.17502474125837,,1.1241699439023292,,
,6292.0,654.0,3132.0,557.0,-118.0,1091.0,3790.0,,,,-1.18957659954791,-2.98424885246983,-1.1747601857159,,1.329660370443175,,
,6295.0,653.0,3138.0,559.0,-121.0,1081.0,3808.0,,,,-1.19011069647203,-2.98433306522617,-1.17551485179142,,1.5148532703126847,,
,6296.0,652.0,3138.0,561.0,-109.0,1084.0,3830.0,,,,-1.18993602112674,-2.98431486776142,-1.1746934033892,,1.674484197207552,,
,6299.0,651.0,3139.0,561.0,-114.0,1085.0,3832.0,,,,-1.18976394897587,-2.98432618661248,-1.17497034880601,,1.8036344591508648,,
,6299.0,652.0,3137.0,558.0,-117.0,1105.0,3834.0,,,,-1.18920825039275,-2.98435055970072,-1.17504051773256,,1.8979623464846678,,
,6300.0,653.0,3141.0,561.0,-116.0,1067.0,3819.0,,,,-1.19017374855302,-2.98442335320031,-1.17526461806768,,1.9539664302121793,,
,6302.0,653.0,3141.0,560.0,-122.0,1091.0,3823.0,,,,-1.19018847143339,-2.9844029142453,-1.17509083193531,,1.9692545100603016,,
,6301.0,655.0,3142.0,562.0,-127.0,1097.0,3813.0,,,,-1.18991872087831,-2.98436297662352,-1.17509982076271,,1.9427845669489099,,
,6297.0,653.0,3141.0,561.0,-129.0,1104.0,3783.0,,,,-1.1891541503925,-2.98447379314395,-1.1742237208247,,1.8750418225490788,,
,6292.0,650.0,3137.0,557.0,-126.0,1104.0,3780.0,,,,-1.1880273054432,-2.98437971175443,-1.17499719730555,,1.7681195446927698,,
,6285.0,649.0,3137.0,556.0,-108.0,1100.0,3818.0,,,,-1.18804446038371,-2.98428129195217,-1.17418634866854,,1.6256805661541938,,
,6276.0,649.0,3136.0,555.0,-112.0,1092.0,3828.0,,,,-1.18764661539008,-2.98420120579169,-1.17453714702954,,1.4527906545319205,,
,6266.0,649.0,3136.0,559.0,-108.0,1089.0,3827.0,,,,-1.18780479637849,-2.98413877781671,-1.17372756082498,,1.255631956798376,,
,6254.0,644.0,3130.0,552.0,-113.0,1061.0,3824.0,,,,-1.18721606153079,-2.98410950710486,-1.1736025658892,,1.0411219106999274,,
,6246.0,643.0,3124.0,552.0,-112.0,1066.0,3796.0,,,,-1.18618102440789,-2.98417457117498,-1.17385954458102,,0.8164768594625545,,
,6238.0,642.0,3124.0,553.0,-118.0,1084.0,3801.0,,,,-1.1860506856695,-2.98410801748066,-1.17376948172664,,0.5887670252758094,,
,6230.0,642.0,3125.0,552.0,-123.0,1089.0,3804.0,,,,-1.18628534802184,-2.98417796071457,-1.17301547162692,,0.36450891774001043,,
,6219.0,640.0,3118.0,550.0,-118.0,1094.0,3806.0,,,,-1.18595372994677,-2.98404152669077,-1.17281144153534,,0.14933333969163154,,
,6211.0,640.0,3118.0,549.0,-121.0,1103.0,3816.0,,,,-1.18616305476226,-2.98408176652815,-1.17334462723582,,-0.052245633500477694,,
,6206.0,638.0,3115.0,548.0,-123.0,1125.0,3830.0,,,,-1.18611645596465,-2.98404234651766,-1.17352379812965,,-0.23694993335866688,,
,6203.0,639.0,3113.0,548.0,-112.0,1094.0,3829.0,,,,-1.18529291660381,-2.98412108621007,-1.1729345544263,,-0.40274810584814513,,
,6198.0,640.0,3112.0,548.0,-110.0,1092.0,3817.0,,,,-1.18519454291901,-2.98405266722799,-1.17362595662089,,-0.5487716460325067,,
,6195.0,638.0,3109.0,544.0,-109.0,1068.0,3809.0,,,,-1.18479391028303,-2.98403700952779,-1.17326461308283,,-0.6751593452272336,,
,6188.0,638.0,3107.0,546.0,-110.0,1070.0,3811.0,,,,-1.18440761154697,-2.98403107221597,-1.17304508462147,,-0.7828560766390629,,
,6189.0,638.0,3106.0,547.0,-118.0,1090.0,3807.0,,,,-1.18561620306212,-2.98400449674568,-1.17334486578279,,-0.8733929754983178,,
,6186.0,637.0,3107.0,546.0,-119.0,1100.0,3799.0,,,,-1.18695371756695,-2.98409149712382,-1.17456763482012,,-0.9486732152566828,,
,6184.0,639.0,3105.0,546.0,-122.0,1097.0,3826.0,,,,-1.18924248983978,-2.98426501738938,-1.17559158266524,,-1.0107819233462043,,
,6182.0,635.0,3102.0,544.0,-123.0,1077.0,3827.0,,,,-1.19013570438193,-2.98441985271416,-1.17608648077247,,-1.0618308356275197,,
,6183.0,638.0,3105.0,545.0,-121.0,1086.0,3827.0,,,,-1.19288569187877,-2.98477757857998,-1.17727566832471,,-1.1038392993172434,,
,6182.0,638.0,3104.0,547.0,-125.0,1075.0,3817.0,,,,-1.19471716588324,-2.98494145998868,-1.17781623337619,,-1.1386452096281596,,
,6180.0,637.0,3100.0,546.0,-115.0,1080.0,3820.0,,,,-1.19592925585791,-2.98484636431304,-1.17948042558688,,-1.1678346253220224,,
,6182.0,641.0,3100.0,544.0,-114.0,1088.0,3830.0,,,,-1.19613173097441,-2.98486719097084,-1.17867961397552,,-1.192678447169916,,
,6181.0,638.0,3101.0,545.0,-108.0,1083.0,3789.0,,,,-1.19695161640349,-2.98495036923973,-1.17922300836441,,-1.214068263812739,,
,6179.0,639.0,3099.0,545.0,-119.0,1076.0,3791.0,,,,-1.1959157905864,-2.98481965074283,-1.17907877200803,,-1.232449541823376,,
,6180.0,638.0,3101.0,546.0,-116.0,1092.0,3805.0,,,,-1.19480167437879,-2.98492816326989,-1.17911238234607,,-1.2477567508502625,,
,6182.0,640.0,3100.0,545.0,-125.0,1094.0,3817.0,,,,-1.19417007191813,-2.98475349671799,-1.17780672648654,,-1.2593602572268945,,
,6179.0,638.0,3099.0,546.0,-114.0,1077.0,3844.0,,,,-1.19305456285451,-2.98468293316285,-1.17729222992651,,-1.2660380058746865,,
,6180.0,638.0,3096.0,544.0,-118.0,1062.0,3822.0,,,,-1.19221394550694,-2.98465175014829,-1.17669967487053,,-1.2659856951531532,,
,6178.0,638.0,3098.0,546.0,-125.0,1056.0,3820.0,,,,-1.19280603357056,-2.98445007892452,-1.17672313103485,,-1.2568772072128287,,
,6182.0,639.0,3100.0,546.0,-122.0,1065.0,3814.0,,,,-1.1929858297009,-2.98454268625534,-1.17706228804523,,-1.2359826679267107,,
,6180.0,639.0,3099.0,547.0,-113.0,1073.0,3806.0,,,,-1.1942492159886,-2.98460112427805,-1.17734283643431,,-1.200345100393825,,
,6179.0,639.0,3099.0,545.0,-106.0,1088.0,3800.0,,,,-1.19639180838639,-2.98483654533687,-1.17756492692312,,-1.1470088073882245,,
,6182.0,639.0,3100.0,546.0,-110.0,1115.0,3835.0,,,,-1.19628118565891,-2.98489540105891,-1.17821840832166,,-1.0732842456446747,,
,6184.0,638.0,3100.0,547.0,-124.0,1105.0,3815.0,,,,-1.19523072726124,-2.9849251051462,-1.1783657263296,,-0.9770265903117099,,
,6183.0,637.0,3100.0,545.0,-125.0,1116.0,3813.0,,,,-1.19478049498047,-2.98485082103605,-1.17751382523777,,-0.8569002402907339,,
,6181.0,636.0,3097.0,544.0,-121.0,1113.0,3810.0,,,,-1.19331643114719,-2.98468880857413,-1.17732274081029,,-0.7126008664997048,,
,6180.0,639.0,3097.0,545.0,-125.0,1066.0,3796.0,,,,-1.19217092863578,-2.98464025611461,-1.17625552957915,,-0.5450108444731906,,
,6182.0,639.0,3096.0,546.0,-122.0,1063.0,3805.0,,,,-1.1919466050841,-2.98454628909527,-1.17692616103399,,-0.35627199552025407,,
,6180.0,639.0,3096.0,546.0,-121.0,1063.0,3824.0,,,,-1.19186202377473,-2.98451365973653,-1.17639094399019,,-0.1497693053084597,,
,6179.0,640.0,3095.0,544.0,-124.0,1058.0,3816.0,,,,-1.19238104463311,-2.98452282595144,-1.17681997215233,,0.06997147801636666,,
,6177.0,638.0,3093.0,545.0,-124.0,1065.0,3822.0,,,,-1.19224372626869,-2.98454914240708,-1.17665708664991,,0.29746208749614583,,
,6176.0,636.0,3093.0,543.0,-110.0,1095.0,3847.0,,,,-1.19348864539452,-2.98459070729406,-1.17637082044021,,0.5264904868019947,,
,6176.0,639.0,3093.0,545.0,-116.0,1092.0,3828.0,,,,-1.19450473968747,-2.98473475043987,-1.1774887316654,,0.7504019627316662,,
,6175.0,637.0,3095.0,545.0,-111.0,1091.0,3816.0,,,,-1.19523704110674,-2.9848917397645,-1.17703925587695,,0.962403432986287,,
,6171.0,635.0,3093.0,544.0,-115.0,1087.0,3830.0,,,,-1.19432277548778,-2.98461053635748,-1.17653378325768,,1.1558722893282922,,
,6174.0,637.0,3092.0,545.0,-124.0,1062.0,3789.0,,,,-1.19187956651972,-2.98459237318528,-1.17532941006397,,1.3246526517753743,,
,6173.0,637.0,3093.0,545.0,-116.0,1075.0,3790.0,,,,-1.19106310785236,-2.98452882723593,-1.17598211641284,,1.4633244905438534,,
,6173.0,640.0,3093.0,545.0,-115.0,1073.0,3824.0,,,,-1.19013785496521,-2.98445419707174,-1.17515521079131,,1.5674345783333714,,
,6175.0,639.0,3091.0,546.0,-109.0,1088.0,3842.0,,,,-1.18980554914241,-2.98449457730379,-1.17531867066759,,1.6336821468917595,,
,6173.0,636.0,3090.0,544.0,-126.0,1106.0,3836.0,,,,-1.19002119418022,-2.98435931993159,-1.17559282146108,,1.6600553841274235,,
,6175.0,637.0,3092.0,543.0,-126.0,1097.0,3833.0,,,,-1.19088656966679,-2.98434363846603,-1.17584483095332,,1.6459164613871984,,
,6169.0,638.0,3090.0,543.0,-135.0,1069.0,3813.0,,,,-1.19162583887577,-2.98440949521737,-1.17622516602075,,1.5920324883628074,,
,6175.0,640.0,3091.0,545.0,-129.0,1058.0,3799.0,,,,-1.19329526251159,-2.98474863796232,-1.17614735515457,,1.500548838599976,,
,6175.0,639.0,3094.0,545.0,-117.0,1097.0,3770.0,,,,-1.19417831848651,-2.98486028659189,-1.17727839730574,,1.374901450522633,,
,6175.0,641.0,3094.0,546.0,-112.0,1097.0,3779.0,,,,-1.19485478586,-2.98479985138276,-1.17802103248612,,1.2196671120589277,,
,6180.0,639.0,3090.0,545.0,-115.0,1094.0,3780.0,,,,-1.19524059126768,-2.9849606172346,-1.17666572127899,,1.040355150673086,,
,6180.0,639.0,3092.0,545.0,-119.0,1081.0,3785.0,,,,-1.19361273167639,-2.98481446350123,-1.17671031321694,,0.8431490841744264,,
,6181.0,639.0,3093.0,545.0,-123.0,1093.0,3803.0,,,,-1.19255250002575,-2.98460058754216,-1.1770921996803,,0.6346111944295699,,
,6180.0,638.0,3094.0,544.0,-128.0,1090.0,3816.0,,,,-1.19114090523838,-2.98444347391079,-1.17612929677113,,0.4213658373882876,,
,6185.0,638.0,3095.0,545.0,-121.0,1054.0,3816.0,,,,-1.18979617766965,-2.98457077171807,-1.17626993545464,,0.20977860921213493,,
,6186.0,636.0,3094.0,545.0,-131.0,1068.0,3829.0,,,,-1.18928030846344,-2.98440897536536,-1.17551301159075,,0.005648868041845643,,
,6191.0,642.0,3093.0,547.0,-126.0,1078.0,3836.0,,,,-1.18932336460349,-2.98451339048649,-1.17511410183828,,-0.18606666591658927,,
,6189.0,640.0,3098.0,548.0,-115.0,1079.0,3818.0,,,,-1.18959832338298,-2.98434456518629,-1.17540294259626,,-0.36148109553939156,,
,6190.0,639.0,3096.0,546.0,-127.0,1095.0,3803.0,,,,-1.18925841674089,-2.98438739797535,-1.17511370680447,,-0.5179371298087533,,
,6193.0,642.0,3098.0,547.0,-123.0,1071.0,3781.0,,,,-1.18995737211746,-2.98447035964368,-1.17463999942595,,-0.6540829488397267,,
,6198.0,641.0,3097.0,549.0,-124.0,1077.0,3796.0,,,,-1.19044756944224,-2.98432596101718,-1.17554134553762,,-0.769852312767756,,
,6200.0,644.0,3098.0,548.0,-119.0,1090.0,3809.0,,,,-1.19111331729993,-2.98432733901678,-1.17573461314368,,-0.8663449448165903,,
,6199.0,640.0,3096.0,545.0,-113.0,1088.0,3824.0,,,,-1.19069258319742,-2.98441442002449,-1.17526066539734,,-0.945613134326488,,
,6202.0,642.0,3101.0,547.0,-119.0,1080.0,3842.0,,,,-1.18908687991663,-2.98426087558681,-1.17510788386595,,-1.0103706620307291,,
,6202.0,644.0,3102.0,547.0,-120.0,1075.0,3813.0,,,,-1.18756114310824,-2.98422923056351,-1.17503146033778,,-1.063648914291537,,
,6208.0,644.0,3100.0,550.0,-114.0,1076.0,3811.0,,,,-1.18571619363521,-2.98410676526248,-1.17362874013784,,-1.108431348629577,,
,6208.0,641.0,3100.0,550.0,-110.0,1093.0,3797.0,,,,-1.18447566903044,-2.9840388276502,-1.1736434293846,,-1.147300702086028,,
,6212.0,641.0,3101.0,547.0,-118.0,1083.0,3825.0,,,,-1.18401716476945,-2.98399861581317,-1.17253975295551,,-1.1821331978501712,,
,6215.0,645.0,3102.0,551.0,-124.0,1080.0,3821.0,,,,-1.18325122583105,-2.98403540024032,-1.17296324805123,,-1.2138704468321173,,
,6216.0,645.0,3105.0,552.0,-129.0,1074.0,3812.0,,,,-1.18373900615065,-2.98400048818256,-1.17289644459571,,-1.242392934873845,,
,6218.0,644.0,3102.0,547.0,-130.0,1081.0,3825.0,,,,-1.18438003313091,-2.98422774481679,-1.17331616448917,,-1.2665092951055004,,
,6219.0,644.0,3106.0,550.0,-111.0,1072.0,3809.0,,,,-1.18571485003009,-2.98410023075149,-1.17397866926826,,-1.2840635592929626,,
,6221.0,643.0,3106.0,548.0,-112.0,1080.0,3798.0,,,,-1.18705182919148,-2.98423804663891,-1.1745950488913,,-1.2921492383306121,,
,6225.0,646.0,3108.0,552.0,-122.0,1098.0,3803.0,,,,-1.18783443072896,-2.98451614687902,-1.17394959544728,,-1.287406047298723,,
,6226.0,646.0,3109.0,554.0,-122.0,1094.0,3798.0,,,,-1.18911490366133,-2.98431365862541,-1.17480379692659,,-1.2663646668597794,,
,6228.0,645.0,3108.0,552.0,-125.0,1069.0,3783.0,,,,-1.18941377057967,-2.98433268211095,-1.17445855178646,,-1.2257994284337441,,
,6228.0,645.0,3108.0,551.0,-120.0,1098.0,3805.0,,,,-1.18730017260739,-2.98433913652028,-1.17375385706248,,-1.1630494868770278,,
,6229.0,646.0,3111.0,553.0,-109.0,1091.0,3805.0,,,,-1.18490190979224,-2.98403624799213,-1.17238995705985,,-1.0762755458016176,,
2025-08-01 18:53:56,6230.0,647.0,3110.0,553.0,-113.0,1102.0,3812.0,,,2025/08/01 06:53:56 PM,-1.18307696648893,-2.98403264335193,-1.17230296921591,,-0.9646299478935663,,
,6236.0,647.0,3114.0,553.0,-111.0,1110.0,3812.0,,,,-1.18285957740755,-2.98394747381345,-1.17198706002153,,-0.8283309204875483,,
,6237.0,643.0,3109.0,553.0,-111.0,1093.0,3797.0,,,,-1.18309009431277,-2.98393155367752,-1.17211349748908,,-0.6686449806096634,,
,6238.0,648.0,3112.0,552.0,-109.0,1100.0,3830.0,,,,-1.1837538188494,-2.98382727229634,-1.17253170533929,,-0.4877930913535439,,
,6241.0,645.0,3111.0,552.0,-120.0,1089.0,3813.0,,,,-1.1842987774416,-2.98392891864899,-1.17266173840967,,-0.2888045259283933,,
,6243.0,649.0,3115.0,554.0,-124.0,1077.0,3807.0,,,,-1.18543415962625,-2.98410538430131,-1.17376223686534,,-0.07534644297528115,,
,6246.0,647.0,3115.0,553.0,-124.0,1083.0,3800.0,,,,-1.18757792756168,-2.98427061984747,-1.17366874448345,,0.14844355665910425,,
,6247.0,649.0,3114.0,550.0,-121.0,1082.0,3817.0,,,,-1.18794134124918,-2.98435187670117,-1.17423948660491,,0.3781000177144586,,
,6247.0,650.0,3118.0,557.0,-126.0,1094.0,3812.0,,,,-1.18676318946335,-2.98435885272333,-1.17409430358352,,0.6089348627787918,,
,6249.0,650.0,3119.0,554.0,-126.0,1083.0,3813.0,,,,-1.18605033738589,-2.9841399382999,-1.17357204493708,,0.8361046977958083,,
,6254.0,649.0,3120.0,557.0,-122.0,1083.0,3820.0,,,,-1.18418277708371,-2.98405949197958,-1.1731686518936,,1.0546517783230651,,
,6256.0,651.0,3117.0,552.0,-112.0,1088.0,3815.0,,,,-1.18281793539018,-2.98391189578793,-1.17293072610516,,1.2595396538909933,,
,6257.0,650.0,3121.0,556.0,-109.0,1104.0,3809.0,,,,-1.18259552349249,-2.98394889629508,-1.17291524049479,,1.4457085424324605,,
,6259.0,649.0,3121.0,554.0,-109.0,1076.0,3810.0,,,,-1.18223357013897,-2.98383658599604,-1.17189673921151,,1.6081728851804042,,
,6261.0,650.0,3124.0,557.0,-107.0,1084.0,3820.0,,,,-1.18240140243514,-2.98389410712665,-1.17164571005102,,1.742174967226274,,
,6261.0,648.0,3122.0,556.0,-113.0,1105.0,3811.0,,,,-1.18289145416795,-2.98391022514599,-1.17244263063985,,1.8433960598374959,,
,6256.0,647.0,3120.0,555.0,-111.0,1115.0,3802.0,,,,-1.18360772784926,-2.98403996838538,-1.17219210081422,,1.908212832433729,,
,6251.0,650.0,3120.0,555.0,-108.0,1103.0,3816.0,,,,-1.18421467274168,-2.98412235815008,-1.17289758907635,,1.9339741940374788,,
,6244.0,646.0,3119.0,553.0,-118.0,1097.0,3816.0,,,,-1.18476833010235,-2.98404884153021,-1.17349128010607,,1.9192643034271946,,
,6236.0,646.0,3116.0,553.0,-117.0,1097.0,3818.0,,,,-1.18399531459181,-2.98411869018269,-1.17230891108316,,1.8641129513872425,,
,6225.0,644.0,3111.0,551.0,-118.0,1085.0,3819.0,,,,-1.18295343796469,-2.98395210666709,-1.17268865220787,,1.7701161067802793,,
,6216.0,642.0,3107.0,550.0,-117.0,1089.0,3835.0,,,,-1.18167468806176,-2.98396041015177,-1.1723091276961,,1.6404375765087644,,
,6204.0,641.0,3103.0,550.0,-117.0,1062.0,3809.0,,,,-1.18033606549091,-2.9838205155255,-1.17117128982284,,1.4796768352713359,,
,6195.0,641.0,3100.0,549.0,-113.0,1082.0,3804.0,,,,-1.17982176510324,-2.98364732864091,-1.1711493419621,,1.2936063097531438,,
,6186.0,638.0,3097.0,546.0,-101.0,1098.0,3801.0,,,,-1.18000489727897,-2.98368453301164,-1.17123813214019,,1.0888007491846354,,
,6175.0,636.0,3090.0,542.0,-98.0,1121.0,3832.0,,,,-1.17983960678967,-2.98375391951749,-1.17068412169128,,0.8721979510140839,,
,6170.0,637.0,3087.0,543.0,-105.0,1131.0,3828.0,,,,-1.18035924290859,-2.98384272919977,-1.17137950192195,,0.6506403374302299,,
,6164.0,637.0,3086.0,543.0,-106.0,1124.0,3842.0,,,,-1.18086953057441,-2.98376300839948,-1.17147885885911,,0.4304484903292574,,
,6158.0,636.0,3083.0,544.0,-112.0,1113.0,3835.0,,,,-1.18127789027447,-2.98388727264357,-1.17130806508058,,0.2170709471351929,,
,6152.0,635.0,3080.0,540.0,-113.0,1084.0,3779.0,,,,-1.18187100851788,-2.98394919201136,-1.17299816031235,,0.014841645678761442,,
,6147.0,635.0,3078.0,542.0,-121.0,1088.0,3807.0,,,,-1.18171417677155,-2.9839487721917,-1.17126740630492,,-0.17313941809243039,,
,6145.0,636.0,3075.0,539.0,-114.0,1088.0,3811.0,,,,-1.18135366036048,-2.9839682053826,-1.17235018676546,,-0.3450025701201709,,
,6143.0,634.0,3075.0,539.0,-115.0,1087.0,3824.0,,,,-1.18199731383419,-2.98403236029265,-1.1733040723242,,-0.4999958195324105,,
,6136.0,632.0,3072.0,540.0,-112.0,1092.0,3818.0,,,,-1.18307707373663,-2.98394138018697,-1.173550880125,,-0.6382874388223544,,
,6134.0,634.0,3068.0,538.0,-113.0,1101.0,3815.0,,,,-1.18410868959355,-2.98411254643653,-1.17440071562476,,-0.7607143115639137,,
,6134.0,633.0,3068.0,537.0,-118.0,1099.0,3812.0,,,,-1.18591618888443,-2.98415447423933,-1.17481093864494,,-0.8685088605732434,,
,6135.0,634.0,3068.0,540.0,-122.0,1087.0,3801.0,,,,-1.18676850932287,-2.98438828992788,-1.17568659632666,,-0.9630358129202156,,
,6137.0,635.0,3066.0,537.0,-119.0,1075.0,3799.0,,,,-1.18718237982121,-2.98437428129504,-1.17602756595173,,-1.0455650172985804,,
,6132.0,634.0,3065.0,540.0,-131.0,1083.0,3811.0,,,,-1.18936607297247,-2.98456761388336,-1.17679433841224,,-1.1170985345210218,,
,6131.0,632.0,3062.0,536.0,-120.0,1101.0,3801.0,,,,-1.19139071600787,-2.98450787327966,-1.1777511283932,,-1.1782603301518606,,
,6132.0,634.0,3064.0,539.0,-114.0,1115.0,3809.0,,,,-1.19188195948802,-2.9846401355116,-1.17752105830721,,-1.2292469149642495,,
,6130.0,634.0,3064.0,539.0,-110.0,1110.0,3823.0,,,,-1.19102640886857,-2.98457164536413,-1.17691039293435,,-1.2698294053214731,,
,6127.0,633.0,3062.0,539.0,-110.0,1124.0,3821.0,,,,-1.18954025099359,-2.9846616125149,-1.17658430644763,,-1.2993933390957828,,
,6129.0,633.0,3060.0,538.0,-111.0,1103.0,3820.0,,,,-1.18896810306534,-2.98437695580481,-1.17560215371668,,-1.3170023864937346,,
,6130.0,631.0,3061.0,537.0,-117.0,1077.0,3803.0,,,,-1.18874586453432,-2.98429494249502,-1.17602289337652,,-1.3214746942360376,,
,6129.0,634.0,3060.0,537.0,-120.0,1084.0,3822.0,,,,-1.18860836612821,-2.98423858471866,-1.17521420124056,,-1.3114643680701874,,
,6129.0,632.0,3060.0,538.0,-117.0,1087.0,3834.0,,,,-1.18866549926665,-2.98426975252048,-1.17588512179869,,-1.2855442538240462,,
,6131.0,633.0,3057.0,537.0,-124.0,1088.0,3818.0,,,,-1.18876863223748,-2.98427611709954,-1.1763174843047,,-1.2422890705201821,,
,6130.0,632.0,3057.0,538.0,-122.0,1105.0,3812.0,,,,-1.18887939787887,-2.98438472558237,-1.17531617612454,,-1.1803598990400859,,
,6131.0,632.0,3059.0,539.0,-126.0,1110.0,3829.0,,,,-1.18973150842067,-2.98441695304908,-1.17489626572741,,-1.098592097293186,,
,6131.0,633.0,3057.0,537.0,-109.0,1118.0,3794.0,,,,-1.18903355517842,-2.9844636731656,-1.1754875579577,,-0.9960890471651047,,
,6129.0,634.0,3057.0,539.0,-109.0,1106.0,3806.0,,,,-1.1879469729424,-2.98421654735952,-1.17567282435337,,-0.8723237785098461,,
,6130.0,631.0,3054.0,535.0,-114.0,1098.0,3798.0,,,,-1.18646302485499,-2.98427781446784,-1.17465601318725,,-0.7272491800326711,,
,6129.0,633.0,3056.0,537.0,-120.0,1072.0,3824.0,,,,-1.1874200905363,-2.98418937347759,-1.17491753129412,,-0.5614146928786777,,
,6130.0,634.0,3054.0,538.0,-117.0,1073.0,3818.0,,,,-1.18625801971001,-2.98425514379152,-1.17404511506886,,-0.37608292631940066,,
,6129.0,632.0,3056.0,537.0,-118.0,1071.0,3816.0,,,,-1.18546113520269,-2.98426536335283,-1.17439203465229,,-0.1733343526123398,,
,6126.0,632.0,3055.0,538.0,-117.0,1077.0,3818.0,,,,-1.18531686694754,-2.9841777566619,-1.17407846600998,,0.04385605661058925,,
,6124.0,630.0,3051.0,533.0,-118.0,1098.0,3806.0,,,,-1.18551487867379,-2.9840881177048,-1.17425733655923,,0.2715878024604943,,
,6123.0,633.0,3052.0,537.0,-116.0,1085.0,3811.0,,,,-1.18610482127021,-2.98418393104474,-1.17500674975532,,0.5050647313632373,,
,6121.0,632.0,3049.0,537.0,-112.0,1079.0,3809.0,,,,-1.18766772227309,-2.98416808269272,-1.17532317396657,,0.7386958258415693,,
,6122.0,632.0,3048.0,536.0,-114.0,1081.0,3817.0,,,,-1.18779166747328,-2.98430268599848,-1.17521338087099,,0.9662699857320892,,
,6121.0,631.0,3049.0,535.0,-109.0,1087.0,3792.0,,,,-1.18942499116845,-2.98439448815837,-1.17597945732281,,1.1812003793736208,,
,6119.0,632.0,3047.0,536.0,-112.0,1096.0,3780.0,,,,-1.19020782377427,-2.98445638117993,-1.17536268030484,,1.3768265513459665,,
,6119.0,632.0,3049.0,535.0,-108.0,1074.0,3814.0,,,,-1.18904243111448,-2.98449827524392,-1.17576939429753,,1.5467556128614794,,
,6119.0,632.0,3046.0,536.0,-106.0,1080.0,3797.0,,,,-1.18810942778843,-2.98441216024517,-1.17416318377696,,1.685217996476002,,
,6117.0,633.0,3045.0,534.0,-118.0,1095.0,3810.0,,,,-1.18782132239418,-2.98423490754466,-1.17434034720038,,1.7874090513831569,,
,6116.0,631.0,3047.0,534.0,-113.0,1093.0,3823.0,,,,-1.18650653479237,-2.98405257444494,-1.17478595352987,,1.849785981016813,,
,6116.0,635.0,3044.0,534.0,-115.0,1099.0,3822.0,,,,-1.18655359053183,-2.98406324884924,-1.17395218571047,,1.8702912079522434,,
,6118.0,634.0,3046.0,535.0,-109.0,1078.0,3813.0,,,,-1.18628753670012,-2.98414743981222,-1.17429363002806,,1.8484789627572629,,
,6116.0,632.0,3046.0,535.0,-113.0,1087.0,3803.0,,,,-1.18713621146785,-2.9842400121534,-1.17481739325023,,1.7855317442154988,,
,6119.0,632.0,3045.0,532.0,-130.0,1091.0,3788.0,,,,-1.18799374815688,-2.98422048155536,-1.17459327131678,,1.684165985061697,,
,6119.0,631.0,3045.0,536.0,-120.0,1113.0,3799.0,,,,-1.18844264489761,-2.98437054617393,-1.17545121369576,,1.5484392719671438,,
,6123.0,635.0,3045.0,537.0,-121.0,1077.0,3807.0,,,,-1.18999689510953,-2.98441558440181,-1.17535846558155,,1.3834820496683267,,
,6123.0,635.0,3047.0,536.0,-116.0,1090.0,3805.0,,,,-1.18935466894337,-2.98447371814304,-1.17525473651955,,1.1951829972903296,,
,6125.0,633.0,3048.0,536.0,-113.0,1096.0,3822.0,,,,-1.18899496668077,-2.98427598658986,-1.17500691161325,,0.989858661999918,,
,6125.0,631.0,3046.0,536.0,-113.0,1106.0,3819.0,,,,-1.18834182903254,-2.98431772890218,-1.1752092270111,,0.773935029510074,,
,6129.0,631.0,3048.0,534.0,-115.0,1099.0,3804.0,,,,-1.18751431143191,-2.9842776881257,-1.17461975129732,,0.5536626454675745,,
,6128.0,635.0,3049.0,535.0,-120.0,1092.0,3816.0,,,,-1.18656277480711,-2.98413852466384,-1.17466808963554,,0.33487903393390395,,
,6129.0,631.0,3048.0,536.0,-121.0,1084.0,3815.0,,,,-1.18691559036965,-2.98416829463931,-1.17422833375959,,0.12282389245586858,,
,6132.0,633.0,3048.0,535.0,-105.0,1102.0,3813.0,,,,-1.18638758742068,-2.98408948086626,-1.17439354581935,,-0.07799479344899024,,
,6131.0,633.0,3045.0,535.0,-100.0,1107.0,3795.0,,,,-1.18608690982003,-2.98422510840753,-1.17372169337689,,-0.26389087622131674,,
,6136.0,635.0,3051.0,537.0,-110.0,1089.0,3801.0,,,,-1.18618871540935,-2.98422414587176,-1.17445938176876,,-0.43205606635548494,,
,6139.0,634.0,3051.0,538.0,-109.0,1089.0,3817.0,,,,-1.18649405498551,-2.98407515141902,-1.17420152286413,,-0.5805908101337163,,
,6138.0,636.0,3051.0,538.0,-102.0,1104.0,3817.0,,,,-1.1873028153352,-2.98421790602844,-1.17520362683137,,-0.7085153372568824,,
,6140.0,636.0,3050.0,535.0,-110.0,1099.0,3828.0,,,,-1.18674607353588,-2.98428655243107,-1.17401521950926,,-0.815760694865441,,
,6143.0,634.0,3054.0,537.0,-114.0,1097.0,3801.0,,,,-1.18577242886895,-2.98421825173115,-1.17384416459967,,-0.903134211875896,,
,6145.0,639.0,3053.0,539.0,-111.0,1100.0,3797.0,,,,-1.18467062561065,-2.98407842391155,-1.17310379379832,,-0.9722506917858799,,
,6148.0,638.0,3057.0,539.0,-110.0,1098.0,3811.0,,,,-1.18448876144852,-2.98399093761956,-1.17349289479636,,-1.025420963552169,,
,6147.0,638.0,3054.0,540.0,-116.0,1106.0,3841.0,,,,-1.18407741133954,-2.98401367739464,-1.17352845477717,,-1.065493160613283,,
,6150.0,637.0,3056.0,536.0,-118.0,1116.0,3836.0,,,,-1.18313450013405,-2.98402583492438,-1.17229136818274,,-1.0956481585221174,,
,6151.0,638.0,3058.0,537.0,-117.0,1107.0,3819.0,,,,-1.1830197654563,-2.9840435510147,-1.17191504936211,,-1.1191575269067886,,
,6155.0,638.0,3057.0,541.0,-104.0,1102.0,3816.0,,,,-1.18234917389646,-2.98404110765165,-1.17220758604712,,-1.1391188670337142,,
,6157.0,638.0,3055.0,537.0,-109.0,1092.0,3814.0,,,,-1.1827873508764,-2.98421442541987,-1.17262110008976,,-1.1581886118202476,,
,6157.0,637.0,3055.0,540.0,-114.0,1089.0,3831.0,,,,-1.18452936575303,-2.9840843821812,-1.17324587883746,,-1.178335639241932,,
,6156.0,637.0,3057.0,538.0,-119.0,1089.0,3810.0,,,,-1.18554163656429,-2.98421726317845,-1.17341549448826,,-1.2006399447277512,,
,6162.0,637.0,3059.0,540.0,-114.0,1072.0,3823.0,,,,-1.18583350380999,-2.98417756582345,-1.17397968969945,,-1.2251588592723375,,
,6164.0,640.0,3061.0,542.0,-116.0,1069.0,3824.0,,,,-1.18504669014346,-2.98423469020722,-1.17316738597571,,-1.2508787788528366,,
,6166.0,640.0,3061.0,541.0,-110.0,1073.0,3820.0,,,,-1.18423109771197,-2.9840342691659,-1.17304334192626,,-1.2757631172603539,,
,6166.0,638.0,3058.0,538.0,-110.0,1064.0,3817.0,,,,-1.18385609598684,-2.98384734881099,-1.17268743708087,,-1.2968974919879122,,
,6170.0,639.0,3060.0,541.0,-123.0,1080.0,3818.0,,,,-1.18333963093315,-2.98398759722245,-1.17274859268291,,-1.3107218430180139,,
,6169.0,641.0,3062.0,541.0,-106.0,1096.0,3824.0,,,,-1.18296148046692,-2.9839025934229,-1.17212643853246,,-1.3133279339125399,,
,6171.0,639.0,3063.0,541.0,-101.0,1097.0,3834.0,,,,-1.18298443057905,-2.98395114763216,-1.1720280856665,,-1.3007917973756984,,
,6173.0,641.0,3063.0,541.0,-102.0,1067.0,3794.0,,,,-1.18255323176701,-2.98388437232983,-1.1725068060823,,-1.2695062527665386,,
,6174.0,642.0,3065.0,541.0,-109.0,1089.0,3806.0,,,,-1.18249952060985,-2.98389362524558,-1.17233818589634,,-1.2164795017041639,,
,6176.0,641.0,3064.0,541.0,-102.0,1100.0,3804.0,,,,-1.18229902925569,-2.98375202166361,-1.17182970783534,,-1.1395713828757752,,
,6180.0,641.0,3067.0,544.0,-113.0,1085.0,3793.0,,,,-1.18202932840568,-2.98381493704514,-1.17196366737708,,-1.0376477522358483,,
,6182.0,642.0,3068.0,540.0,-113.0,1084.0,3799.0,,,,-1.18251494633083,-2.98377357950782,-1.17198138002236,,-0.9106442879776064,,
,6182.0,641.0,3066.0,539.0,-115.0,1086.0,3804.0,,,,-1.18259034224277,-2.98379275334853,-1.17190401653733,,-0.7595425899740704,,
,6182.0,643.0,3071.0,543.0,-112.0,1100.0,3822.0,,,,-1.18124140571292,-2.98382925821509,-1.17135577388431,,-0.5862724004829643,,
,6188.0,644.0,3070.0,542.0,-108.0,1108.0,3824.0,,,,-1.18047033269039,-2.98359912773294,-1.1707997854532,,-0.39356255105592164,,
,6188.0,644.0,3070.0,543.0,-113.0,1102.0,3815.0,,,,-1.17982555059607,-2.98354254684987,-1.17191273565001,,-0.18476834070938622,,
,6192.0,644.0,3069.0,543.0,-119.0,1090.0,3809.0,,,,-1.17895778525362,-2.98363376961193,-1.17074394300504,,0.036296599606265474,,
,6192.0,641.0,3069.0,543.0,-112.0,1086.0,3820.0,,,,-1.17849460140564,-2.9834535559446,-1.17074130347273,,0.265500693836882,,
,6196.0,644.0,3073.0,545.0,-108.0,1082.0,3812.0,,,,-1.17909612019094,-2.9836605464108,-1.17111331573493,,0.49849323883688895,,
,6191.0,643.0,3073.0,545.0,-117.0,1119.0,3821.0,,,,-1.17879419667729,-2.98374934991224,-1.1708423972207,,0.7307603197524696,,
,6189.0,643.0,3075.0,543.0,-119.0,1131.0,3813.0,,,,-1.17852641749753,-2.98361326899168,-1.17149596357905,,0.957649261168565,,
,6183.0,640.0,3068.0,541.0,-118.0,1119.0,3802.0,,,,-1.17918671113838,-2.98372300677597,-1.17004995511821,,1.1743827914751765,,
,6177.0,638.0,3067.0,538.0,-101.0,1115.0,3821.0,,,,-1.17953923373736,-2.98365452312585,-1.17034893702696,,1.376088191930053,,
,6170.0,637.0,3063.0,540.0,-114.0,1091.0,3826.0,,,,-1.17999907741509,-2.98362915554357,-1.17101252316395,,1.5578643673866164,,
,6160.0,638.0,3063.0,541.0,-113.0,1082.0,3818.0,,,,-1.17947235386642,-2.98357920816098,-1.17056575757762,,1.7149021236418418,,
,6151.0,634.0,3058.0,538.0,-110.0,1061.0,3814.0,,,,-1.17877000712187,-2.98359458584232,-1.1709813075142,,1.842662083518832,,
,6140.0,634.0,3053.0,534.0,-106.0,1060.0,3811.0,,,,-1.17884656863313,-2.98355432317558,-1.1700335512854,,1.937102771230994,,
,6134.0,634.0,3050.0,536.0,-113.0,1081.0,3791.0,,,,-1.17863825350685,-2.98338803546236,-1.17014653756432,,1.9949402001484402,,
,6123.0,633.0,3046.0,534.0,-114.0,1077.0,3810.0,,,,-1.17828871145749,-2.98347493995126,-1.16997300644167,,2.013911237145596,,
,6115.0,630.0,3044.0,535.0,-118.0,1086.0,3826.0,,,,-1.17689525233201,-2.98367715491897,-1.16974200598778,,1.9930073219638962,,
,6105.0,631.0,3041.0,531.0,-115.0,1109.0,3809.0,,,,-1.17666901326536,-2.98348596808222,-1.17017319442208,,1.9326438491575413,,
,6101.0,628.0,3035.0,532.0,-111.0,1094.0,3802.0,,,,-1.17642087198775,-2.98352570466921,-1.16936617297037,,1.8347344890652628,,
,6096.0,629.0,3035.0,530.0,-108.0,1107.0,3809.0,,,,-1.17755706509059,-2.9835122212361,-1.16930673687468,,1.7026493439249746,,
2025-08-01 18:53:57,6096.0,629.0,3035.0,532.0,-109.0,1100.0,3806.0,,,2025/08/01 06:53:57 PM,-1.17846132719775,-2.98360586580803,-1.17035020309448,,1.5410506401009185,,
,6092.0,629.0,3031.0,530.0,-112.0,1105.0,3801.0,,,,-1.17826576492593,-2.98357068839075,-1.17068493855798,,1.355617613574147,,
,6086.0,627.0,3028.0,529.0,-107.0,1087.0,3796.0,,,,-1.1793007328536,-2.98360353956951,-1.17049321248861,,1.1526895776897754,,
,6086.0,626.0,3025.0,527.0,-118.0,1086.0,3831.0,,,,-1.17989345812548,-2.98362685503468,-1.1717544283797,,0.9388684404287995,,
,6087.0,628.0,3028.0,529.0,-116.0,1078.0,3809.0,,,,-1.17936158616572,-2.98376064079891,-1.17084601346591,,0.7206260523504278,,
,6083.0,629.0,3024.0,530.0,-117.0,1093.0,3798.0,,,,-1.18139912534124,-2.98381133855401,-1.17204762465564,,0.5039573373508939,,
,6085.0,627.0,3024.0,526.0,-120.0,1077.0,3787.0,,,,-1.18241469771336,-2.98382928464894,-1.17241212684132,,0.2941093496897217,,
,6083.0,626.0,3023.0,528.0,-119.0,1082.0,3808.0,,,,-1.18422700490898,-2.98397406554071,-1.17337487718793,,0.09540251274537488,,
,6082.0,629.0,3023.0,529.0,-115.0,1069.0,3809.0,,,,-1.18662310473697,-2.98415315543362,-1.17486074320712,,-0.08885363024191116,,
,6084.0,629.0,3023.0,532.0,-114.0,1079.0,3817.0,,,,-1.18861666204016,-2.98440915329788,-1.17547791811717,,-0.2563596421789445,,
,6084.0,629.0,3023.0,527.0,-125.0,1087.0,3814.0,,,,-1.19082355326004,-2.98459696921459,-1.17644660794572,,-0.4057583756575057,,
,6081.0,628.0,3021.0,528.0,-126.0,1100.0,3812.0,,,,-1.19224508295028,-2.98469568030838,-1.17736139825071,,-0.5365227843671132,,
,6084.0,627.0,3022.0,528.0,-115.0,1082.0,3827.0,,,,-1.19264600230576,-2.9846835339267,-1.17686795691137,,-0.6488229584370563,,
,6083.0,627.0,3020.0,530.0,-104.0,1097.0,3827.0,,,,-1.19210456089148,-2.98463840858408,-1.17645272002763,,-0.7433934222247781,,
,6086.0,629.0,3023.0,529.0,-117.0,1080.0,3819.0,,,,-1.19149146771603,-2.98458802867548,-1.17622656895715,,-0.8214160921819905,,
,6084.0,627.0,3022.0,529.0,-131.0,1043.0,3838.0,,,,-1.19089350652924,-2.98443199484926,-1.17620947492631,,-0.8844262981680378,,
,6087.0,626.0,3020.0,530.0,-122.0,1045.0,3849.0,,,,-1.19069383332637,-2.98451240807468,-1.17599315519158,,-0.934240341700362,,
,6088.0,627.0,3022.0,529.0,-121.0,1080.0,3814.0,,,,-1.1911596377069,-2.98453746673199,-1.17638719400518,,-0.9728953235570931,,
,6091.0,629.0,3022.0,531.0,-116.0,1089.0,3793.0,,,,-1.19139310233904,-2.98447235663521,-1.17658453796913,,-1.0025875796257204,,
,6089.0,630.0,3021.0,530.0,-110.0,1094.0,3800.0,,,,-1.192188819888,-2.98464768135626,-1.17623290205592,,-1.0255961511339233,,
,6089.0,627.0,3020.0,529.0,-121.0,1101.0,3800.0,,,,-1.19308299253717,-2.9846608816542,-1.17643389766977,,-1.044181858152732,,
,6091.0,628.0,3023.0,529.0,-114.0,1119.0,3823.0,,,,-1.19393276387258,-2.98487523613114,-1.17706475410255,,-1.0604592302943252,,
,6091.0,629.0,3022.0,529.0,-105.0,1118.0,3791.0,,,,-1.19559452306136,-2.98489087408866,-1.17804681848763,,-1.0762460631625665,,
,6090.0,627.0,3022.0,527.0,-97.0,1103.0,3784.0,,,,-1.19618729859393,-2.98505953243124,-1.17819060461698,,-1.0929023217690659,,
,6094.0,628.0,3021.0,532.0,-111.0,1091.0,3781.0,,,,-1.19754913968654,-2.98504738901359,-1.17832728043599,,-1.1111754798433329,,
,6087.0,627.0,3020.0,528.0,-113.0,1077.0,3802.0,,,,-1.19782653858236,-2.98495813714723,-1.17815058633675,,-1.131072429853179,,
,6090.0,629.0,3020.0,529.0,-117.0,1084.0,3832.0,,,,-1.19700547740988,-2.98495390001274,-1.17840647108255,,-1.151778361924501,,
,6088.0,628.0,3018.0,528.0,-112.0,1085.0,3820.0,,,,-1.19624800260351,-2.98489772436849,-1.17769753083642,,-1.171640300416922,,
,6087.0,629.0,3019.0,528.0,-110.0,1079.0,3811.0,,,,-1.19481981726986,-2.98481662837314,-1.17792205954372,,-1.1882273270031387,,
,6087.0,625.0,3016.0,526.0,-127.0,1100.0,3809.0,,,,-1.19543890093618,-2.98474321076848,-1.17787276407315,,-1.1984711569945983,,
,6084.0,626.0,3017.0,529.0,-133.0,1110.0,3815.0,,,,-1.19515384910239,-2.98480609768622,-1.17694897613419,,-1.198880348809923,,
,6086.0,627.0,3019.0,529.0,-111.0,1089.0,3787.0,,,,-1.19593563835877,-2.98482426379989,-1.17757510122677,,-1.1858104262922773,,
,6085.0,627.0,3016.0,530.0,-105.0,1082.0,3806.0,,,,-1.19722114228728,-2.9849467334514,-1.1779163841462,,-1.1557627873968963,,
,6084.0,627.0,3019.0,529.0,-127.0,1099.0,3825.0,,,,-1.19789240681494,-2.98492470231734,-1.17800259297761,,-1.1056798972376105,,
,6082.0,625.0,3015.0,527.0,-120.0,1098.0,3844.0,,,,-1.19838103917676,-2.98501841357162,-1.17904337982785,,-1.033204515857167,,
,6084.0,626.0,3016.0,529.0,-116.0,1103.0,3823.0,,,,-1.19891400786861,-2.98503507199555,-1.17815079405749,,-0.9368765664314019,,
,6084.0,626.0,3016.0,530.0,-117.0,1098.0,3806.0,,,,-1.19690982510812,-2.98501069376608,-1.17775763585987,,-0.8162511993287948,,
,6082.0,625.0,3013.0,529.0,-119.0,1104.0,3806.0,,,,-1.19490132084814,-2.98486047965804,-1.1769255500247,,-0.6719334554389694,,
,6085.0,626.0,3014.0,530.0,-106.0,1099.0,3800.0,,,,-1.19454592268204,-2.98469886931866,-1.1767551461527,,-0.5055365012571333,,
,6085.0,628.0,3016.0,528.0,-115.0,1104.0,3783.0,,,,-1.19407466095693,-2.98460449499086,-1.17647534292906,,-0.319579842569824,,
,6088.0,627.0,3016.0,529.0,-114.0,1106.0,3826.0,,,,-1.19418362779604,-2.98467000400201,-1.17679056910678,,-0.11734983932815879,,
,6086.0,627.0,3016.0,530.0,-125.0,1101.0,3811.0,,,,-1.19427212205515,-2.98480947876815,-1.1767878532219,,0.0972534811321025,,
,6089.0,625.0,3016.0,529.0,-126.0,1108.0,3810.0,,,,-1.19529598101635,-2.98472700769623,-1.17725827092901,,0.3198618869671156,,
,6089.0,628.0,3017.0,530.0,-115.0,1108.0,3793.0,,,,-1.19596199260237,-2.98484171102556,-1.17660678225189,,0.5457615451178456,,
,6094.0,625.0,3018.0,531.0,-109.0,1078.0,3805.0,,,,-1.19550067576323,-2.98483920954559,-1.17753606275125,,0.7699867373900027,,
,6096.0,629.0,3019.0,531.0,-116.0,1082.0,3788.0,,,,-1.19577311169467,-2.98485059393069,-1.17734154148638,,0.9873892088450381,,
,6097.0,631.0,3020.0,530.0,-121.0,1084.0,3792.0,,,,-1.19404053474469,-2.98463851262285,-1.17701673942635,,1.1926975939179774,,
,6096.0,627.0,3019.0,531.0,-131.0,1088.0,3784.0,,,,-1.19340103322407,-2.98452405838389,-1.17659043731009,,1.380588069288758,,
,6099.0,626.0,3019.0,532.0,-128.0,1083.0,3785.0,,,,-1.19299502913894,-2.9845575054739,-1.17606463319341,,1.5457885145645525,,
,6103.0,628.0,3020.0,530.0,-120.0,1097.0,3816.0,,,,-1.19229142373884,-2.98458297404352,-1.17596961889017,,1.6832330732136578,,
,6105.0,629.0,3022.0,533.0,-123.0,1113.0,3835.0,,,,-1.19144537216758,-2.98455405372504,-1.17625789417698,,1.7882731407333081,,
,6107.0,629.0,3023.0,532.0,-116.0,1100.0,3840.0,,,,-1.19130509052376,-2.98453913728449,-1.17606746711177,,1.8569370058652086,,
,6108.0,629.0,3022.0,530.0,-118.0,1072.0,3819.0,,,,-1.19243608600076,-2.98447093156052,-1.17621786961026,,1.8862166225339148,,
,6110.0,628.0,3022.0,532.0,-103.0,1083.0,3802.0,,,,-1.19223232641495,-2.98464453946444,-1.17653259576559,,1.874348957525814,,
,6116.0,632.0,3022.0,532.0,-115.0,1086.0,3799.0,,,,-1.19304379810232,-2.98472516994966,-1.17625100965237,,1.821053099147678,,
,6112.0,628.0,3024.0,533.0,-118.0,1074.0,3811.0,,,,-1.19352094447124,-2.98473828942035,-1.17708996165354,,1.7276842012028024,,
,6118.0,630.0,3025.0,533.0,-119.0,1085.0,3848.0,,,,-1.19395066992659,-2.98475276386601,-1.17683481412851,,1.5972719013759777,,
,6119.0,629.0,3022.0,532.0,-111.0,1089.0,3810.0,,,,-1.19330510131394,-2.98449526227375,-1.176527280756,,1.4344235200140463,,
,6124.0,631.0,3028.0,537.0,-117.0,1098.0,3800.0,,,,-1.19221644340253,-2.984527238442,-1.1755711511933,,1.2450893674573413,,
,6124.0,634.0,3026.0,536.0,-119.0,1091.0,3810.0,,,,-1.19136862016887,-2.9844385696198,-1.17567533493133,,1.0362062050674432,,
,6126.0,632.0,3029.0,536.0,-126.0,1101.0,3816.0,,,,-1.19038857742841,-2.98430779762489,-1.17454133607618,,0.8152521790282997,,
,6126.0,629.0,3027.0,535.0,-126.0,1099.0,3811.0,,,,-1.19010995386785,-2.98437631273545,-1.17497922377797,,0.5897592216775334,,
,6131.0,633.0,3027.0,537.0,-119.0,1080.0,3804.0,,,,-1.18919881979291,-2.98451909777571,-1.17456577414056,,0.36683446198597736,,
,6134.0,633.0,3031.0,537.0,-126.0,1099.0,3841.0,,,,-1.19008421045332,-2.98432819083759,-1.17529830915404,,0.15273957005853459,,
,6134.0,631.0,3030.0,538.0,-127.0,1077.0,3819.0,,,,-1.19022955043209,-2.98429064301896,-1.17500144257013,,-0.047432830242798985,,
,6134.0,632.0,3033.0,537.0,-128.0,1072.0,3816.0,,,,-1.19109592735099,-2.98449904813186,-1.17450378011437,,-0.22996092536410184,,
,6137.0,633.0,3032.0,535.0,-123.0,1059.0,3792.0,,,,-1.19205540654446,-2.98449306663443,-1.17584447743882,,-0.3925648136962178,,
,6141.0,635.0,3033.0,537.0,-128.0,1060.0,3801.0,,,,-1.19163401924058,-2.98455299353561,-1.17522348634374,,-0.5343530318846353,,
,6143.0,634.0,3030.0,537.0,-122.0,1082.0,3786.0,,,,-1.19166641781589,-2.98468094088714,-1.17465502311073,,-0.6556628792334555,,
,6146.0,634.0,3034.0,537.0,-120.0,1083.0,3799.0,,,,-1.19120101319868,-2.98455944162505,-1.17518116097075,,-0.7578216621742188,,
,6145.0,633.0,3036.0,536.0,-115.0,1098.0,3809.0,,,,-1.19044652800547,-2.98459365434903,-1.1749531727825,,-0.8428608361462026,,
,6145.0,632.0,3038.0,537.0,-122.0,1100.0,3806.0,,,,-1.18966238704521,-2.98442272569558,-1.17541615073587,,-0.9132160228095448,,
,6150.0,636.0,3037.0,539.0,-125.0,1072.0,3831.0,,,,-1.1897028351917,-2.98435679084008,-1.17510252593288,,-0.9714432849831782,,
,6152.0,635.0,3038.0,540.0,-108.0,1083.0,3798.0,,,,-1.19001287009392,-2.98442005982641,-1.17463775254003,,-1.0199761866856314,,
,6154.0,634.0,3039.0,539.0,-106.0,1094.0,3794.0,,,,-1.19065364822975,-2.98446269476923,-1.17481802892711,,-1.0609395785284859,,
,6157.0,636.0,3038.0,538.0,-110.0,1089.0,3814.0,,,,-1.19145550337683,-2.98431579038138,-1.17505868049957,,-1.0960258208067455,,
,6159.0,634.0,3040.0,541.0,-116.0,1092.0,3803.0,,,,-1.19138253844361,-2.9843861149871,-1.17528940581056,,-1.1264291795878192,,
,6162.0,635.0,3042.0,541.0,-117.0,1092.0,3812.0,,,,-1.19212382568051,-2.98461374550187,-1.17512775614137,,-1.152826705630774,,
,6164.0,636.0,3044.0,540.0,-108.0,1093.0,3818.0,,,,-1.19206716975452,-2.98456026851988,-1.17542287960382,,-1.1753907142765165,,
,6165.0,636.0,3042.0,541.0,-113.0,1096.0,3821.0,,,,-1.19167874408722,-2.98456734396596,-1.17575173069238,,-1.1938191703337306,,
,6166.0,633.0,3041.0,537.0,-118.0,1107.0,3828.0,,,,-1.19184015141419,-2.98457035836446,-1.17500696273839,,-1.2073744917982043,,
,6169.0,638.0,3044.0,542.0,-112.0,1087.0,3787.0,,,,-1.19127565282732,-2.98456269843076,-1.17470920483711,,-1.2149266020993696,,
,6165.0,634.0,3044.0,540.0,-129.0,1080.0,3808.0,,,,-1.19020328272154,-2.98454326407722,-1.1747515337398,,-1.2150009113558515,,
,6165.0,635.0,3044.0,542.0,-121.0,1082.0,3822.0,,,,-1.19013151952081,-2.98435579284246,-1.174396500205,,-1.2058353489580576,,
,6157.0,632.0,3041.0,540.0,-112.0,1093.0,3817.0,,,,-1.18987641248263,-2.98438282585277,-1.17391590324883,,-1.1854521485616718,,
,6150.0,633.0,3038.0,537.0,-115.0,1103.0,3805.0,,,,-1.18996470387827,-2.98432944953041,-1.17438998251794,,-1.1517497121398508,,
,6144.0,632.0,3036.0,537.0,-110.0,1098.0,3789.0,,,,-1.19027900657532,-2.9843333844336,-1.17465011662332,,-1.102617788747287,,
,6133.0,631.0,3032.0,537.0,-110.0,1092.0,3800.0,,,,-1.19048887541843,-2.98434191555366,-1.17485363656928,,-1.036075853116229,,
,6126.0,628.0,3028.0,536.0,-116.0,1067.0,3823.0,,,,-1.19067825692984,-2.9843838759948,-1.17406195527801,,-0.9504304458020373,,
,6112.0,626.0,3023.0,531.0,-120.0,1065.0,3795.0,,,,-1.19110794503311,-2.98444043521621,-1.17523597890856,,-0.8444427788562751,,
,6104.0,627.0,3019.0,533.0,-120.0,1075.0,3805.0,,,,-1.19079334676154,-2.98436598306468,-1.17433912717271,,-0.7174936956896873,,
,6095.0,626.0,3015.0,532.0,-128.0,1083.0,3807.0,,,,-1.18962633791788,-2.98436249027923,-1.17483563630078,,-0.569730079043406,,
,6086.0,623.0,3009.0,529.0,-125.0,1080.0,3816.0,,,,-1.18874021669136,-2.98429380558441,-1.17506256051582,,-0.40217623956494414,,
,6078.0,620.0,3004.0,526.0,-115.0,1087.0,3819.0,,,,-1.18795194386163,-2.98441124099076,-1.17263994720009,,-0.2167963698583105,,
,6070.0,621.0,3000.0,529.0,-113.0,1101.0,3822.0,,,,-1.18743046252131,-2.98429360288814,-1.17330708993229,,-0.01649930019700061,,
,6067.0,619.0,3000.0,530.0,-107.0,1096.0,3800.0,,,,-1.1870482881036,-2.98409506895555,-1.17354625519747,,0.19491694036903934,,
,6061.0,622.0,2997.0,529.0,-109.0,1094.0,3798.0,,,,-1.18703647740363,-2.98420961576887,-1.17275925851239,,0.41287742364185914,,
,6057.0,619.0,2994.0,526.0,-106.0,1091.0,3790.0,,,,-1.18726814112559,-2.98419159994995,-1.17281670569411,,0.6321916670169097,,
,6054.0,617.0,2990.0,528.0,-121.0,1094.0,3803.0,,,,-1.18820292884378,-2.9842878818987,-1.17244254651895,,0.8472532522159936,,
,6052.0,615.0,2987.0,526.0,-113.0,1060.0,3803.0,,,,-1.18923241245214,-2.9843799397487,-1.17332929434872,,1.0522652885576922,,
,6047.0,619.0,2989.0,526.0,-114.0,1074.0,3817.0,,,,-1.1889342296636,-2.98433429698255,-1.1742161561594,,1.2414786210242652,,
,6048.0,619.0,2988.0,528.0,-123.0,1080.0,3819.0,,,,-1.19029225964514,-2.98442363278469,-1.17456618847992,,1.4094297641042142,,
,6047.0,615.0,2986.0,524.0,-116.0,1109.0,3817.0,,,,-1.19029529977015,-2.98442800692977,-1.17499120447599,,1.5511662949791107,,
,6044.0,615.0,2983.0,522.0,-121.0,1111.0,3821.0,,,,-1.19069970543979,-2.9843372985186,-1.17475337525491,,1.6624489908269648,,
,6043.0,616.0,2983.0,524.0,-131.0,1085.0,3806.0,,,,-1.19092615090495,-2.98449004787638,-1.1755390101855,,1.7399224912378348,,
,6042.0,617.0,2983.0,525.0,-120.0,1074.0,3821.0,,,,-1.19128316917101,-2.98445454149301,-1.17618302204635,,1.7812494241358199,,
,6040.0,617.0,2981.0,523.0,-117.0,1075.0,3823.0,,,,-1.19291917008356,-2.98459138791915,-1.17641061168345,,1.7852057885425014,,
,6040.0,613.0,2978.0,521.0,-127.0,1065.0,3801.0,,,,-1.19482136962943,-2.98486751273367,-1.17703148054457,,1.7517367754328637,,
,6037.0,615.0,2980.0,525.0,-118.0,1091.0,3812.0,,,,-1.19697668918643,-2.98487126979027,-1.17884241962631,,1.681971745329534,,
,6039.0,618.0,2977.0,525.0,-116.0,1098.0,3821.0,,,,-1.19820116666464,-2.98508392772781,-1.1789482198238,,1.5781956884517518,,
,6038.0,615.0,2978.0,524.0,-115.0,1097.0,3817.0,,,,-1.19895089532828,-2.98510515401042,-1.17883838742923,,1.4437738244423686,,
,6038.0,615.0,2975.0,525.0,-122.0,1053.0,3807.0,,,,-1.19933476412454,-2.98527243333642,-1.17972689326157,,1.2830272496336113,,
,6038.0,617.0,2974.0,525.0,-123.0,1071.0,3839.0,,,,-1.20009842713888,-2.98514834095921,-1.1796613903014,,1.1010606998334445,,
,6040.0,614.0,2975.0,523.0,-127.0,1068.0,3838.0,,,,-1.19893678462258,-2.98511632661321,-1.17916412416024,,0.9035475755082026,,
,6040.0,617.0,2973.0,524.0,-114.0,1067.0,3833.0,,,,-1.1975263325153,-2.98503976374572,-1.17790601593088,,0.6964811886664222,,
,6041.0,616.0,2976.0,524.0,-113.0,1080.0,3826.0,,,,-1.19653853820617,-2.98502619753362,-1.17762854171772,,0.4859039925350653,,
,6041.0,615.0,2972.0,523.0,-119.0,1093.0,3828.0,,,,-1.19591348249978,-2.98476332239821,-1.17789589814053,,0.27762825144052183,,
,6041.0,616.0,2973.0,525.0,-106.0,1133.0,3817.0,,,,-1.19558399617814,-2.98472299338103,-1.1772060508357,,0.07696264121940234,,
,6043.0,616.0,2974.0,524.0,-113.0,1102.0,3831.0,,,,-1.19476723503247,-2.98467742260253,-1.17721711949636,,-0.11153972084140996,,
,6042.0,617.0,2973.0,523.0,-115.0,1092.0,3827.0,,,,-1.19459552701537,-2.9846559441346,-1.17742660023017,,-0.28429503084250457,,
,6041.0,615.0,2973.0,523.0,-118.0,1091.0,3812.0,,,,-1.19538125161838,-2.98472865243543,-1.17770134787257,,-0.4388465142508891,,
,6039.0,615.0,2971.0,522.0,-120.0,1080.0,3793.0,,,,-1.19514877338837,-2.98488892139953,-1.1775239900158,,-0.5739488355305671,,
,6037.0,614.0,2971.0,523.0,-121.0,1070.0,3805.0,,,,-1.1962196986573,-2.98463463099748,-1.17763468565167,,-0.689565484320194,,
,6037.0,616.0,2971.0,525.0,-125.0,1073.0,3836.0,,,,-1.19507196848701,-2.98482739817435,-1.17728674871847,,-0.7867723777190568,,
,6036.0,614.0,2970.0,526.0,-125.0,1079.0,3838.0,,,,-1.19441633934811,-2.98447930255291,-1.17651628668637,,-0.8675703254605154,,
,6033.0,613.0,2969.0,522.0,-126.0,1093.0,3810.0,,,,-1.19264261770341,-2.98448752822792,-1.1762393332787,,-0.9346191253999605,,
,6035.0,612.0,2966.0,525.0,-116.0,1113.0,3805.0,,,,-1.19173310931379,-2.98462382829939,-1.17503858077212,,-0.9909152159631086,,
,6032.0,613.0,2969.0,523.0,-118.0,1120.0,3802.0,,,,-1.19178424340723,-2.98445255640499,-1.17583068287063,,-1.0394417907520221,,
2025-08-01 18:53:58,6033.0,612.0,2966.0,523.0,-122.0,1105.0,3810.0,,,2025/08/01 06:53:58 PM,-1.19174969537004,-2.98439894239511,-1.17544873361056,,-1.0828242927792708,,
,6032.0,613.0,2967.0,525.0,-121.0,1096.0,3812.0,,,,-1.19130514030053,-2.98450241756531,-1.17587913264966,,-1.123024824551696,,
