TimeLabel,MEAS1_PPG1,MEAS1_PPG2,MEAS1_PPG3,MEAS1_PPG4,ACCX,ACCY,ACCZ,HR_timestamp,HR_value,radar_timestamp,phase_rx0,phase_rx1,phase_rx2,timestep,n_process,original_rate,calculated_rate
2025-07-15 19:28:29,6039.0,1255.0,7823.0,1827.0,1843.0,2841.0,2049.0,2025-07-15 19:28:31,79.0,2025/07/15 07:28:29 PM,-1.91402988919698,-2.97929727439518,-1.69194691281816,2025/07/15 07:28:29 PM,-4.295142173240625,17.398509979248047,17.615834457939727
,6039.0,1254.0,7822.0,1829.0,1845.0,2836.0,2048.0,2025-07-15 19:28:32,80.0,,-1.91555840303801,-2.97941191245246,-1.69319863666453,2025/07/15 07:28:39 PM,-4.391564748147673,17.857141494750977,17.91443850267379
,6036.0,1254.0,7823.0,1829.0,1839.0,2849.0,2048.0,2025-07-15 19:28:33,80.0,,-1.91790956657368,-2.97936421652963,-1.6934037255746,2025/07/15 07:28:49 PM,-4.485194331063849,16.894609451293945,15.416414599717685
,6035.0,1253.0,7823.0,1829.0,1840.0,2848.0,2041.0,2025-07-15 19:28:33,80.0,,-1.91888130810017,-2.97945385767907,-1.69361021144531,2025/07/15 07:28:59 PM,-4.580835314471556,16.5289249420166,16.764237599510103
,6032.0,1253.0,7820.0,1827.0,1823.0,2847.0,2039.0,2025-07-15 19:28:34,80.0,,-1.92108752320716,-2.97947392733319,-1.6929135382217,2025/07/15 07:29:09 PM,-4.681358661739428,16.50943374633789,16.04938271604938
,6031.0,1254.0,7821.0,1831.0,1848.0,2837.0,2043.0,2025-07-15 19:28:35,80.0,,-1.92329886469637,-2.97949933147163,-1.69500129517305,2025/07/15 07:29:19 PM,-4.788050143140485,16.191211700439453,20.502635398365296
,6034.0,1255.0,7823.0,1831.0,1851.0,2836.0,2046.0,2025-07-15 19:28:37,79.0,,-1.92457871926312,-2.97950187621936,-1.69613131789089,2025/07/15 07:29:29 PM,-4.901009735471762,16.86577606201172,18.239261873973355
,6032.0,1254.0,7823.0,1832.0,1832.0,2841.0,2038.0,2025-07-15 19:28:38,79.0,,-1.92716312965347,-2.97956594678229,-1.69640505468632,2025/07/15 07:29:39 PM,-5.019537942734893,17.897090911865234,18.703684847662057
,6029.0,1255.0,7824.0,1832.0,1840.0,2830.0,2045.0,2025-07-15 19:28:38,78.0,,-1.9285543404757,-2.97956402603552,-1.69692712305792,2025/07/15 07:29:49 PM,-5.1424503999375935,19.382627487182617,20.50400119290221
,6031.0,1254.0,7821.0,1829.0,1837.0,2847.0,2064.0,2025-07-15 19:28:40,77.0,,-1.92977465414341,-2.97948398940963,-1.69683098481806,2025/07/15 07:29:59 PM,-5.26827628742264,19.027484893798828,18.47988505747128
,6032.0,1254.0,7823.0,1833.0,1849.0,2833.0,2055.0,2025-07-15 19:28:40,76.0,,-1.93113965953678,-2.97967292780898,-1.69746768671443,2025/07/15 07:30:09 PM,-5.395317034400093,19.08127212524414,20.282222212456922
,6031.0,1254.0,7822.0,1832.0,1853.0,2829.0,2044.0,2025-07-15 19:28:41,76.0,,-1.9317417492227,-2.97964967140859,-1.69830989484084,2025/07/15 07:30:19 PM,-5.521565731602856,19.59361457824707,18.214285714285705
,6038.0,1257.0,7827.0,1834.0,1845.0,2830.0,2063.0,2025-07-15 19:28:43,75.0,,-1.93344120213715,-2.9798280105497,-1.69913529679096,2025/07/15 07:30:29 PM,-5.64451040435866,19.720623016357425,16.73076923076923
,6036.0,1252.0,7823.0,1834.0,1827.0,2815.0,2074.0,2025-07-15 19:28:43,75.0,,-1.9349193296902,-2.9798121518309,-1.69860924169541,2025/07/15 07:30:39 PM,-5.7608625934083415,18.362661361694336,16.218190793533267
,6039.0,1259.0,7825.0,1836.0,1837.0,2818.0,2075.0,2025-07-15 19:28:45,75.0,,-1.93477485146866,-2.97982182933711,-1.69859206120576,2025/07/15 07:30:49 PM,-5.866264735042391,17.021276473999023,16.105648737227664
,6041.0,1261.0,7824.0,1837.0,1842.0,2825.0,2054.0,2025-07-15 19:28:45,75.0,,-1.93581134123399,-2.97985200204132,-1.69976671431863,2025/07/15 07:30:59 PM,-5.955034882957468,16.393444061279297,18.274756852343042
,6044.0,1257.0,7826.0,1839.0,1844.0,2825.0,2042.0,2025-07-15 19:28:46,74.0,,-1.93532227881142,-2.9798938747907,-1.69863951151328,2025/07/15 07:31:09 PM,-6.02000521822378,16.548463821411133,19.174658110414097
,6046.0,1258.0,7823.0,1837.0,1823.0,2812.0,2061.0,2025-07-15 19:28:47,74.0,,-1.9365959737153,-2.97993838005655,-1.69998189583607,2025/07/15 07:31:19 PM,-6.052501869272749,17.751480102539062,15.86694386694387
,6045.0,1262.0,7823.0,1837.0,1819.0,2827.0,2067.0,2025-07-15 19:28:49,73.0,,-1.93590649418741,-2.97992753451521,-1.69823595570982,,-6.042498791067079,,
,6050.0,1259.0,7821.0,1837.0,1838.0,2824.0,2033.0,2025-07-15 19:28:49,73.0,,-1.93682990571085,-2.97990479381401,-1.69909378132814,,-5.978959519212822,,
,6051.0,1261.0,7823.0,1840.0,1842.0,2812.0,2056.0,2025-07-15 19:28:50,72.0,,-1.93563577932357,-2.97987294591939,-1.69941767914054,,-5.850359646406125,,
,6052.0,1261.0,7824.0,1840.0,1839.0,2815.0,2053.0,2025-07-15 19:28:51,71.0,,-1.9364310153974,-2.97998876148635,-1.69965187252469,,-5.645362082562004,,
,6050.0,1259.0,7821.0,1837.0,1838.0,2829.0,2059.0,2025-07-15 19:28:53,71.0,,-1.93665104468675,-2.97982400910928,-1.69879319646196,,-5.353598629812761,,
,6052.0,1262.0,7822.0,1839.0,1840.0,2819.0,2057.0,2025-07-15 19:28:53,70.0,,-1.93632340432614,-2.97991515924625,-1.69839366343898,,-4.966496928029975,,
,6051.0,1263.0,7826.0,1839.0,1827.0,2833.0,2055.0,2025-07-15 19:28:55,70.0,,-1.9360395694898,-2.97982971072367,-1.69798191720121,,-4.47808297499376,,
,6051.0,1261.0,7824.0,1839.0,1820.0,2838.0,2066.0,2025-07-15 19:28:55,70.0,,-1.93542030655845,-2.97993273623831,-1.69846821340059,,-3.8856877816385325,,
,6052.0,1260.0,7825.0,1841.0,1815.0,2823.0,2086.0,2025-07-15 19:28:56,71.0,,-1.93535349691872,-2.9796623502281,-1.69889128190303,,-3.190493791232938,,
,6046.0,1259.0,7823.0,1837.0,1817.0,2831.0,2060.0,2025-07-15 19:28:58,71.0,,-1.93509174381254,-2.97984959258623,-1.69831627669021,,-2.39787275971411,,
,6049.0,1260.0,7823.0,1839.0,1828.0,2834.0,2043.0,2025-07-15 19:28:59,71.0,,-1.93458641996422,-2.97957096751894,-1.69795303372996,,-1.5174893911455365,,
,6048.0,1262.0,7826.0,1840.0,1845.0,2821.0,2050.0,2025-07-15 19:28:59,72.0,,-1.93475629709103,-2.97969267919513,-1.69733555099921,,-0.5631690088962584,,
,6048.0,1261.0,7824.0,1840.0,1837.0,2843.0,2058.0,2025-07-15 19:29:00,70.0,,-1.93484676691619,-2.9797760381129,-1.69687003743345,,0.447452484411017,,
,6047.0,1259.0,7821.0,1839.0,1812.0,2862.0,2067.0,2025-07-15 19:29:02,70.0,,-1.93429762947824,-2.97956326885163,-1.69783763225931,,1.493465236772866,,
,6043.0,1257.0,7824.0,1838.0,1808.0,2841.0,2053.0,2025-07-15 19:29:02,68.0,,-1.93458514931242,-2.97976034088624,-1.69736876986638,,2.551371934004635,,
,6047.0,1258.0,7826.0,1840.0,1829.0,2821.0,2047.0,2025-07-15 19:29:03,67.0,,-1.93531366323378,-2.97969398092109,-1.69826756955261,,3.595887324973357,,
,6048.0,1260.0,7824.0,1841.0,1830.0,2821.0,2047.0,2025-07-15 19:29:04,66.0,,-1.93580683475548,-2.97981241524014,-1.69689386167436,,4.600817081741773,,
,6048.0,1259.0,7823.0,1838.0,1845.0,2825.0,2046.0,2025-07-15 19:29:06,66.0,,-1.93617512938199,-2.97962844544531,-1.69757283383777,,5.539986457785665,,
,6050.0,1258.0,7824.0,1840.0,1825.0,2832.0,2063.0,2025-07-15 19:29:07,66.0,,-1.93617955649444,-2.97971553612866,-1.69843656221804,,6.3881926444252715,,
,6050.0,1262.0,7825.0,1840.0,1825.0,2848.0,2058.0,2025-07-15 19:29:08,65.0,,-1.9361250733527,-2.97971217791512,-1.69789912088535,,7.12215604983474,,
,6052.0,1260.0,7826.0,1842.0,1828.0,2844.0,2050.0,2025-07-15 19:29:09,65.0,,-1.93750171993944,-2.97971248305633,-1.69837425177141,,7.721444111343178,,
,6052.0,1263.0,7824.0,1843.0,1830.0,2853.0,2034.0,2025-07-15 19:29:10,66.0,,-1.93570298504994,-2.97969468927608,-1.69874666247118,,8.169336693080465,,
,6055.0,1259.0,7825.0,1840.0,1835.0,2847.0,2051.0,2025-07-15 19:29:10,65.0,,-1.93672650132303,-2.97972742924953,-1.69835402489417,,8.453595532966832,,
,6055.0,1261.0,7825.0,1843.0,1838.0,2833.0,2061.0,2025-07-15 19:29:11,65.0,,-1.93654528427265,-2.97962478470404,-1.69734143737717,,8.567093260394074,,
,6062.0,1265.0,7825.0,1842.0,1853.0,2819.0,2043.0,2025-07-15 19:29:12,64.0,,-1.93666710305007,-2.97965805391887,-1.69720867031743,,8.50825234327891,,
,6066.0,1264.0,7828.0,1844.0,1846.0,2820.0,2053.0,2025-07-15 19:29:14,64.0,,-1.93610820673662,-2.97976970825775,-1.69686996104329,,8.281243328379349,,
,6065.0,1265.0,7827.0,1843.0,1825.0,2829.0,2045.0,2025-07-15 19:29:14,65.0,,-1.93618637801337,-2.97961989785033,-1.69691253417983,,7.895897512482675,,
,6069.0,1267.0,7826.0,1845.0,1814.0,2827.0,2060.0,2025-07-15 19:29:15,65.0,,-1.93622702237694,-2.97962693356968,-1.69765470962878,,7.36730433891109,,
,6073.0,1266.0,7825.0,1845.0,1831.0,2838.0,2068.0,2025-07-15 19:29:16,67.0,,-1.9360503319083,-2.97973685925179,-1.69724631995612,,6.715089930591864,,
,6079.0,1268.0,7830.0,1847.0,1820.0,2848.0,2049.0,2025-07-15 19:29:17,68.0,,-1.936995620797,-2.97973710954904,-1.69804652470349,,5.962408657310736,,
,6082.0,1270.0,7827.0,1849.0,1817.0,2849.0,2057.0,2025-07-15 19:29:18,69.0,,-1.93640875622437,-2.97980835603528,-1.69743729885226,,5.134718052090594,,
,6083.0,1267.0,7827.0,1846.0,1820.0,2863.0,2054.0,2025-07-15 19:29:19,70.0,,-1.93717571350216,-2.97968625272287,-1.69740487430331,,4.258438802633014,,
,6088.0,1270.0,7828.0,1850.0,1826.0,2838.0,2060.0,2025-07-15 19:29:20,70.0,,-1.93724604984087,-2.97971338502414,-1.69797020461603,,3.3596170941662273,,
,6092.0,1272.0,7827.0,1849.0,1845.0,2853.0,2059.0,2025-07-15 19:29:22,70.0,,-1.93804777157474,-2.979720857469,-1.69729209746504,,2.462702792404014,,
,6097.0,1273.0,7827.0,1853.0,1842.0,2854.0,2044.0,2025-07-15 19:29:23,69.0,,-1.93781799117028,-2.97974764036673,-1.69809677058334,,1.5895364177376061,,
,6102.0,1272.0,7828.0,1853.0,1835.0,2834.0,2068.0,2025-07-15 19:29:23,68.0,,-1.93847093287019,-2.97970911984225,-1.69860846839519,,0.7586067418845376,,
,6105.0,1274.0,7826.0,1852.0,1821.0,2834.0,2057.0,2025-07-15 19:29:24,68.0,,-1.94009937143361,-2.97975148938441,-1.69821388740898,,-0.015394156761257544,,
,6110.0,1279.0,7827.0,1855.0,1815.0,2842.0,2066.0,2025-07-15 19:29:26,67.0,,-1.94000704010629,-2.97972395341897,-1.69880510354293,,-0.721724987762981,,
,6113.0,1275.0,7828.0,1853.0,1815.0,2843.0,2068.0,2025-07-15 19:29:26,66.0,,-1.94054824350697,-2.9797205492621,-1.6991922017754,,-1.3534933072062896,,
,6118.0,1277.0,7831.0,1854.0,1826.0,2862.0,2053.0,2025-07-15 19:29:28,66.0,,-1.94118822038066,-2.97985104859056,-1.69905069713305,,-1.9073530712668294,,
,6120.0,1278.0,7830.0,1855.0,1838.0,2833.0,2054.0,2025-07-15 19:29:28,66.0,,-1.94171644006132,-2.97982003798782,-1.69999261260885,,-2.3830691190751203,,
,6124.0,1281.0,7828.0,1856.0,1837.0,2839.0,2054.0,2025-07-15 19:29:30,66.0,,-1.94253546520193,-2.97998283871869,-1.69997529387218,,-2.783018278854559,,
,6128.0,1279.0,7828.0,1858.0,1829.0,2854.0,2072.0,2025-07-15 19:29:30,66.0,,-1.94328843665785,-2.97990482842694,-1.70027855745223,,-3.111689085161091,,
,6133.0,1281.0,7831.0,1857.0,1827.0,2851.0,2076.0,2025-07-15 19:29:31,65.0,,-1.94377388474932,-2.9798951911009,-1.69958182974275,,-3.3752252924761037,,
,6136.0,1282.0,7832.0,1862.0,1827.0,2837.0,2056.0,2025-07-15 19:29:33,65.0,,-1.94287393015472,-2.97994155654222,-1.69981905894169,,-3.581035453647094,,
,6140.0,1284.0,7829.0,1862.0,1826.0,2822.0,2076.0,2025-07-15 19:29:34,64.0,,-1.94230662368787,-2.97987173649131,-1.69955452327549,,-3.7374668085639327,,
,6145.0,1286.0,7830.0,1862.0,1835.0,2821.0,2074.0,2025-07-15 19:29:34,64.0,,-1.9432943870594,-2.97985957311619,-1.69953769304695,,-3.853521894076488,,
,6150.0,1287.0,7829.0,1864.0,1829.0,2841.0,2079.0,2025-07-15 19:29:35,64.0,,-1.9444888099497,-2.98002355961379,-1.70075757266892,,-3.938584165964048,,
,6153.0,1286.0,7826.0,1865.0,1828.0,2850.0,2069.0,2025-07-15 19:29:37,64.0,,-1.94441266267442,-2.97993952113757,-1.69999957807237,,-4.002115664720833,,
,6154.0,1288.0,7829.0,1864.0,1837.0,2829.0,2054.0,2025-07-15 19:29:37,64.0,,-1.94359762171068,-2.979867040356,-1.69984619940107,,-4.05329484859392,,
,6160.0,1290.0,7829.0,1864.0,1838.0,2843.0,2052.0,2025-07-15 19:29:38,65.0,,-1.94400716294645,-2.97988010007512,-1.69967770955617,,-4.100574779783108,,
,6165.0,1290.0,7832.0,1866.0,1843.0,2861.0,2056.0,2025-07-15 19:29:39,65.0,,-1.94333869113918,-2.98005797690801,-1.70038414516566,,-4.15115899137859,,
,6170.0,1289.0,7831.0,1865.0,1842.0,2887.0,2055.0,2025-07-15 19:29:40,65.0,,-1.94270093370522,-2.97994235022144,-1.70029380235077,,-4.210412334708317,,
,6173.0,1293.0,7828.0,1865.0,1821.0,2841.0,2049.0,2025-07-15 19:29:41,65.0,,-1.94188201320883,-2.97998776999135,-1.69952752736557,,-4.281244407764459,,
,6174.0,1292.0,7828.0,1867.0,1842.0,2825.0,2083.0,2025-07-15 19:29:43,65.0,,-1.94141514544594,-2.97995152063815,-1.70022990835994,,-4.363521159944365,,
,6178.0,1297.0,7829.0,1870.0,1850.0,2843.0,2067.0,2025-07-15 19:29:43,64.0,,-1.94233003635804,-2.97995763176844,-1.70114000349266,,-4.453573412058085,,
,6184.0,1294.0,7831.0,1870.0,1851.0,2847.0,2078.0,2025-07-15 19:29:44,63.0,,-1.94180141716606,-2.9798894958215,-1.70074215366387,,-4.543877194155934,,
,6185.0,1297.0,7829.0,1869.0,1829.0,2823.0,2075.0,2025-07-15 19:29:45,63.0,,-1.94197318966967,-2.97984369497472,-1.70012271002597,,-4.622978552892586,,
,6190.0,1296.0,7826.0,1872.0,1830.0,2802.0,2065.0,2025-07-15 19:29:47,62.0,,-1.94218167306337,-2.97989099831164,-1.70041709485565,,-4.675724140633687,,
,6197.0,1297.0,7831.0,1873.0,1813.0,2845.0,2033.0,2025-07-15 19:29:47,62.0,,-1.94145928785068,-2.98006314292365,-1.69992741860448,,-4.683838435499808,,
,6200.0,1299.0,7829.0,1874.0,1812.0,2835.0,2066.0,2025-07-15 19:29:48,61.0,,-1.94142954206126,-2.98016499459341,-1.69997018622511,,-4.626859440267557,,
,6202.0,1300.0,7830.0,1873.0,1811.0,2815.0,2092.0,2025-07-15 19:29:50,61.0,,-1.94274587085672,-2.98002772427279,-1.69972164011947,,-4.483408659889339,,
,6207.0,1299.0,7828.0,1872.0,1851.0,2829.0,2099.0,2025-07-15 19:29:51,61.0,,-1.94347359290718,-2.98012260089161,-1.7011693898594,,-4.232730940831504,,
,6211.0,1303.0,7828.0,1876.0,1827.0,2811.0,2076.0,2025-07-15 19:29:51,61.0,,-1.94256616027516,-2.98018172899908,-1.70054720049196,,-3.856400063688659,,
,6214.0,1304.0,7831.0,1877.0,1832.0,2849.0,2064.0,2025-07-15 19:29:53,61.0,,-1.94361780419246,-2.98009088920355,-1.70007472674673,,-3.3400532435670818,,
,6221.0,1306.0,7830.0,1876.0,1831.0,2840.0,2053.0,2025-07-15 19:29:53,61.0,,-1.94420420147173,-2.98028449958283,-1.70111637232103,,-2.6749988115954797,,
,6223.0,1307.0,7828.0,1876.0,1835.0,2825.0,2056.0,2025-07-15 19:29:55,61.0,,-1.94516546962995,-2.98023650253511,-1.70213685925369,,-1.8595413738654512,,
,6225.0,1306.0,7830.0,1875.0,1821.0,2814.0,2052.0,2025-07-15 19:29:56,60.0,,-1.94550169962991,-2.98030200640776,-1.70163523347939,,-0.8998889230916804,,
,6233.0,1309.0,7832.0,1880.0,1823.0,2823.0,2055.0,2025-07-15 19:29:57,60.0,,-1.94610088335555,-2.98030558168604,-1.70270095126821,,0.18945626225170842,,
,6238.0,1311.0,7831.0,1881.0,1831.0,2819.0,2056.0,2025-07-15 19:29:58,59.0,,-1.94681501987043,-2.98039280720369,-1.70080466388703,,1.3858728471272372,,
,6242.0,1312.0,7831.0,1881.0,1824.0,2829.0,2067.0,2025-07-15 19:29:59,59.0,,-1.94675358121628,-2.98016442258852,-1.70214291715273,,2.6593604038331273,,
,6246.0,1311.0,7828.0,1882.0,1819.0,2838.0,2067.0,2025-07-15 19:29:59,59.0,,-1.94765642598585,-2.98012862926613,-1.701983494068,,3.97379556640657,,
,6252.0,1313.0,7831.0,1885.0,1820.0,2825.0,2065.0,2025-07-15 19:30:01,59.0,,-1.94716153960665,-2.98006948069588,-1.70251455106614,,5.288617830179934,,
,6256.0,1315.0,7833.0,1884.0,1829.0,2824.0,2073.0,2025-07-15 19:30:02,60.0,,-1.94629836890565,-2.98008755270111,-1.70222506405992,,6.5608319022731685,,
,6263.0,1317.0,7833.0,1885.0,1830.0,2826.0,2078.0,2025-07-15 19:30:02,60.0,,-1.94551107198249,-2.98019869931062,-1.70169677765779,,7.747198395640148,,
,6262.0,1315.0,7833.0,1886.0,1841.0,2832.0,2050.0,2025-07-15 19:30:04,60.0,,-1.94545562472768,-2.98021073039684,-1.70150051835673,,8.806479243067107,,
,6268.0,1316.0,7830.0,1886.0,1842.0,2825.0,2057.0,2025-07-15 19:30:04,60.0,,-1.94467457535256,-2.98018024654444,-1.70133189991261,,9.70160581204941,,
,6275.0,1319.0,7832.0,1891.0,1819.0,2837.0,2061.0,2025-07-15 19:30:06,60.0,,-1.94469635841731,-2.98004505927246,-1.70146378802004,,10.401643867845657,,
,6277.0,1319.0,7830.0,1889.0,1823.0,2840.0,2059.0,2025-07-15 19:30:06,60.0,,-1.94329181776352,-2.98018126719758,-1.70145643696437,,10.883439124526628,,
,6277.0,1321.0,7830.0,1888.0,1834.0,2860.0,2058.0,2025-07-15 19:30:07,60.0,,-1.94200495037373,-2.98006271028941,-1.70078351724481,,11.13284057411745,,
,6272.0,1318.0,7828.0,1885.0,1839.0,2859.0,2092.0,2025-07-15 19:30:08,59.0,,-1.94091868643653,-2.98013678110075,-1.70027207084815,,11.145417401696744,,
,6267.0,1317.0,7829.0,1886.0,1827.0,2856.0,2085.0,2025-07-15 19:30:09,59.0,,-1.93998573668828,-2.98014972798525,-1.69992367236849,,10.926610476181962,,
,6255.0,1314.0,7830.0,1882.0,1833.0,2843.0,2084.0,2025-07-15 19:30:10,60.0,,-1.93940891387507,-2.98004630519305,-1.69998883501793,,10.49129226407433,,
,6237.0,1313.0,7830.0,1879.0,1838.0,2838.0,2079.0,2025-07-15 19:30:11,60.0,,-1.93808312676739,-2.97998088924848,-1.69958637211209,,9.862749998776156,,
,6218.0,1304.0,7828.0,1871.0,1816.0,2829.0,2085.0,2025-07-15 19:30:12,60.0,,-1.93670296489709,-2.98001358335797,-1.69934769137613,,9.071154788146552,,
,6196.0,1300.0,7825.0,1868.0,1817.0,2842.0,2075.0,2025-07-15 19:30:14,60.0,,-1.93642479167883,-2.98002187460635,-1.69915181703601,,8.151629409070841,,
,6172.0,1293.0,7827.0,1862.0,1823.0,2841.0,2070.0,2025-07-15 19:30:14,60.0,,-1.93570387124998,-2.97996390623564,-1.698735365247,,7.142071052622977,,
,6154.0,1286.0,7825.0,1856.0,1824.0,2833.0,2073.0,2025-07-15 19:30:16,60.0,,-1.93569931169461,-2.97996494658286,-1.69902253599951,,6.080911709364763,,
,6131.0,1279.0,7824.0,1851.0,1834.0,2836.0,2089.0,2025-07-15 19:30:17,60.0,,-1.93604554272246,-2.97975614810708,-1.69954952389115,,5.005000893939134,,
,6110.0,1275.0,7825.0,1847.0,1805.0,2846.0,2066.0,2025-07-15 19:30:18,59.0,,-1.93599585307007,-2.97999021695516,-1.69991783020556,,3.947772599760112,,
,6093.0,1272.0,7822.0,1842.0,1816.0,2844.0,2056.0,2025-07-15 19:30:18,59.0,,-1.93617115645182,-2.98001022085606,-1.69951373322651,,2.937816833105324,,
,6079.0,1269.0,7824.0,1843.0,1815.0,2846.0,2054.0,2025-07-15 19:30:20,59.0,,-1.93671782517525,-2.98002354582918,-1.69911955972365,,1.9979250471921821,,
,6067.0,1265.0,7824.0,1836.0,1807.0,2853.0,2057.0,2025-07-15 19:30:21,58.0,,-1.93645779115076,-2.98001987306274,-1.69983820910043,,1.1446272938550877,,
,6055.0,1260.0,7822.0,1834.0,1807.0,2837.0,2069.0,2025-07-15 19:30:22,58.0,,-1.93697272243392,-2.98004709975899,-1.69992051385879,,0.38819365985041077,,
,6046.0,1258.0,7821.0,1832.0,1813.0,2833.0,2058.0,2025-07-15 19:30:23,58.0,,-1.936008724846,-2.9800793932297,-1.69919132271868,,-0.2669626018708808,,
,6038.0,1259.0,7821.0,1833.0,1818.0,2825.0,2066.0,2025-07-15 19:30:23,57.0,,-1.93657302736293,-2.9799679540553,-1.69996938445595,,-0.8215665234007034,,
,6033.0,1256.0,7824.0,1830.0,1811.0,2845.0,2068.0,2025-07-15 19:30:24,57.0,,-1.93624929529627,-2.97999910023291,-1.69943701656259,,-1.280546233125285,,
,6028.0,1254.0,7822.0,1830.0,1829.0,2851.0,2070.0,2025-07-15 19:30:26,57.0,,-1.9351061032086,-2.97997083465146,-1.6982141613648,,-1.651982378691473,,
,6023.0,1252.0,7819.0,1829.0,1827.0,2828.0,2046.0,2025-07-15 19:30:27,58.0,,-1.93550631009548,-2.97994302509937,-1.69906778520441,,-1.9460373333073204,,
,6021.0,1256.0,7821.0,1829.0,1842.0,2836.0,2039.0,2025-07-15 19:30:27,58.0,,-1.93473674862301,-2.97997203783809,-1.69890710023453,,-2.1739462301838026,,
,6020.0,1255.0,7822.0,1829.0,1835.0,2855.0,2073.0,2025-07-15 19:30:29,58.0,,-1.93401340787129,-2.97986418478723,-1.69893425382748,,-2.3471333532580587,,
,6019.0,1255.0,7824.0,1827.0,1831.0,2858.0,2074.0,2025-07-15 19:30:29,59.0,,-1.93262357463655,-2.97974754038659,-1.69897842599589,,-2.476495732460635,,
,6017.0,1255.0,7821.0,1828.0,1834.0,2859.0,2074.0,2025-07-15 19:30:30,59.0,,-1.93246078767906,-2.97984112739154,-1.69809025168189,,-2.5718739198573024,,
,6016.0,1256.0,7825.0,1833.0,1805.0,2841.0,2052.0,2025-07-15 19:30:31,60.0,,-1.93181619005062,-2.97972135106713,-1.69820574793505,,-2.641710854455179,,
,6015.0,1257.0,7822.0,1833.0,1816.0,2816.0,2062.0,2025-07-15 19:30:32,60.0,,-1.93159827689136,-2.97975698570175,-1.69769003106277,,-2.6928852490574133,,
,6016.0,1255.0,7822.0,1830.0,1824.0,2828.0,2056.0,2025-07-15 19:30:34,60.0,,-1.93004135648656,-2.97971144352128,-1.6970333348069,,-2.73069618501578,,
,6014.0,1256.0,7824.0,1834.0,1840.0,2854.0,2059.0,2025-07-15 19:30:34,62.0,,-1.92947162110022,-2.9797580471722,-1.69651851604559,,-2.7589697863464133,,
,6014.0,1255.0,7823.0,1831.0,1837.0,2852.0,2055.0,2025-07-15 19:30:35,62.0,,-1.92990641282021,-2.97962471149928,-1.69630893861503,,-2.7802561908333603,,
,6016.0,1257.0,7824.0,1833.0,1815.0,2836.0,2055.0,2025-07-15 19:30:37,64.0,,-1.92814946950163,-2.97949416758684,-1.69601731195483,,-2.796085085199285,,
,6015.0,1257.0,7825.0,1833.0,1810.0,2848.0,2061.0,2025-07-15 19:30:38,65.0,,-1.92811116107205,-2.97964845879391,-1.6957725903338,,-2.8072504103323697,,
2025-07-15 19:28:30,6014.0,1256.0,7825.0,1835.0,1818.0,2854.0,2076.0,2025-07-15 19:30:39,66.0,2025/07/15 07:28:30 PM,-1.92751194973136,-2.97960576362212,-1.69578570425161,,-2.814098766970563,,
,6014.0,1255.0,7823.0,1834.0,1841.0,2836.0,2060.0,2025-07-15 19:30:40,66.0,,-1.92717674256347,-2.97950910496989,-1.69453005272154,,-2.81680051967644,,
,6016.0,1255.0,7823.0,1834.0,1829.0,2835.0,2078.0,2025-07-15 19:30:41,67.0,,-1.92656650199319,-2.97942523122111,-1.69454051039432,,-2.8155865464970855,,
,6016.0,1260.0,7826.0,1835.0,1828.0,2848.0,2092.0,2025-07-15 19:30:41,67.0,,-1.92564611031861,-2.97955509174105,-1.6941990455636,,-2.810936497941571,,
,6021.0,1259.0,7825.0,1838.0,1824.0,2842.0,2085.0,2025-07-15 19:30:42,67.0,,-1.92487759357753,-2.97957931832411,-1.69412550912695,,-2.803706778814648,,
,6019.0,1259.0,7824.0,1837.0,1819.0,2838.0,2082.0,2025-07-15 19:30:43,67.0,,-1.92359795731394,-2.97942973494003,-1.69366947869614,,-2.7951894988830888,,
,6023.0,1258.0,7825.0,1837.0,1826.0,2830.0,2070.0,2025-07-15 19:30:45,67.0,,-1.92225169910336,-2.97941021140819,-1.69435040926961,,-2.78709850584198,,
,6021.0,1259.0,7824.0,1837.0,1824.0,2840.0,2079.0,2025-07-15 19:30:45,66.0,,-1.92171784521332,-2.97936156023427,-1.69269333263418,,-2.7814854906452893,,
,6025.0,1259.0,7823.0,1840.0,1827.0,2852.0,2070.0,2025-07-15 19:30:47,67.0,,-1.9206808640871,-2.97927117025559,-1.69342015303139,,-2.7805969164648454,,
,6027.0,1262.0,7828.0,1839.0,1834.0,2842.0,2072.0,2025-07-15 19:30:48,67.0,,-1.92001312535349,-2.97925030688922,-1.69226174502769,,-2.7866890005220584,,
,6026.0,1258.0,7825.0,1837.0,1832.0,2850.0,2058.0,2025-07-15 19:30:49,67.0,,-1.91881736384103,-2.97922439520956,-1.6915462927291,,-2.8018208756390814,,
,6026.0,1261.0,7824.0,1838.0,1826.0,2842.0,2069.0,2025-07-15 19:30:50,67.0,,-1.91768118857228,-2.97925144417125,-1.69188433603188,,-2.827644540109238,,
,6026.0,1261.0,7822.0,1837.0,1833.0,2838.0,2073.0,2025-07-15 19:30:50,66.0,,-1.91724197549418,-2.97910487847456,-1.69079374960113,,-2.8652060380962747,,
,6027.0,1261.0,7825.0,1839.0,1842.0,2830.0,2078.0,2025-07-15 19:30:51,66.0,,-1.91511202887453,-2.97914296947439,-1.69100126230141,,-2.9147689956960314,,
,6025.0,1262.0,7823.0,1837.0,1851.0,2839.0,2099.0,2025-07-15 19:30:53,66.0,,-1.91405632075928,-2.97887402166092,-1.69029951419191,,-2.975671884567767,,
,6026.0,1262.0,7826.0,1838.0,1855.0,2838.0,2082.0,2025-07-15 19:30:53,66.0,,-1.91263813480057,-2.97904420834895,-1.68898535049451,,-3.046234220238839,,
,6025.0,1263.0,7829.0,1840.0,1830.0,2832.0,2097.0,2025-07-15 19:30:55,66.0,,-1.91086800119141,-2.97907728263701,-1.68904449283549,,-3.1237317018152275,,
,6024.0,1263.0,7826.0,1837.0,1835.0,2835.0,2093.0,2025-07-15 19:30:56,66.0,,-1.90975758630693,-2.97888713067928,-1.68865284390913,,-3.2044622637237676,,
,6024.0,1260.0,7827.0,1838.0,1840.0,2820.0,2076.0,2025-07-15 19:30:56,66.0,,-1.90796945437106,-2.97874685338636,-1.6875657745493,,-3.283921043317379,,
,6023.0,1260.0,7826.0,1839.0,1834.0,2821.0,2051.0,2025-07-15 19:30:58,65.0,,-1.90486880867441,-2.97891112328558,-1.68713363486015,,-3.357091430582163,,
,6024.0,1261.0,7827.0,1840.0,1839.0,2836.0,2065.0,2025-07-15 19:30:59,65.0,,-1.90438123073109,-2.97873499464854,-1.68682215564032,,-3.41884328607021,,
,6024.0,1262.0,7826.0,1837.0,1836.0,2833.0,2064.0,2025-07-15 19:30:59,65.0,,-1.90334787397721,-2.9786913525653,-1.68622072508948,,-3.464411614915971,,
,6025.0,1263.0,7828.0,1839.0,1823.0,2830.0,2051.0,2025-07-15 19:31:00,64.0,,-1.90249570107791,-2.97873382995635,-1.6858571633497,,-3.489913573701581,,
,6026.0,1262.0,7826.0,1839.0,1824.0,2837.0,2076.0,2025-07-15 19:31:02,63.0,,-1.90241690729078,-2.97864140358566,-1.68507860922989,,-3.492851941793332,,
,6025.0,1259.0,7827.0,1838.0,1838.0,2844.0,2067.0,2025-07-15 19:31:02,63.0,,-1.9008798233774,-2.97857108587065,-1.68564266806683,,-3.4725505253945324,,
,6027.0,1262.0,7827.0,1838.0,1845.0,2839.0,2050.0,2025-07-15 19:31:03,63.0,,-1.90017010625786,-2.97861460560578,-1.68506527641732,,-3.430470608479449,,
,6028.0,1262.0,7827.0,1842.0,1846.0,2822.0,2048.0,2025-07-15 19:31:05,63.0,,-1.89980649508921,-2.97861228088405,-1.68494544359958,,-3.370365125294944,,
,6031.0,1263.0,7826.0,1843.0,1839.0,2819.0,2075.0,2025-07-15 19:31:05,63.0,,-1.89862158186598,-2.97856381332586,-1.68381159521718,,-3.298236077021739,,
,6032.0,1261.0,7826.0,1839.0,1817.0,2822.0,2052.0,2025-07-15 19:31:06,64.0,,-1.89805080441208,-2.97841685126715,-1.6842369061434,,-3.222069770515072,,
,6036.0,1265.0,7827.0,1840.0,1826.0,2836.0,2077.0,2025-07-15 19:31:07,64.0,,-1.89665437796083,-2.97839453896683,-1.6837813821506,,-3.1513353955681795,,
,6040.0,1266.0,7827.0,1845.0,1830.0,2848.0,2089.0,2025-07-15 19:31:09,66.0,,-1.8963114606015,-2.97856801042453,-1.68314759970848,,-3.096248997630147,,
,6042.0,1265.0,7826.0,1844.0,1841.0,2841.0,2075.0,2025-07-15 19:31:10,67.0,,-1.89641319750999,-2.97845039792221,-1.68299726761648,,-3.0668296470856946,,
,6045.0,1267.0,7830.0,1845.0,1835.0,2827.0,2084.0,2025-07-15 19:31:10,68.0,,-1.89681043575223,-2.97836006440043,-1.68271560531471,,-3.071805471995878,,
,6047.0,1267.0,7826.0,1845.0,1838.0,2834.0,2069.0,2025-07-15 19:31:11,69.0,,-1.89614331955423,-2.9783760117431,-1.68340717194135,,-3.117457177899811,,
,6052.0,1269.0,7830.0,1845.0,1823.0,2832.0,2072.0,2025-07-15 19:31:12,69.0,,-1.89594897138311,-2.9785525940791,-1.68324644619092,,-3.2065076990619326,,
,6055.0,1270.0,7830.0,1849.0,1814.0,2827.0,2087.0,2025-07-15 19:31:14,68.0,,-1.89544157254211,-2.97842236049612,-1.68264331706328,,-3.3371741520395397,,
,6059.0,1270.0,7830.0,1848.0,1814.0,2831.0,2105.0,2025-07-15 19:31:14,68.0,,-1.89460479594015,-2.97846054702963,-1.68282478525057,,-3.502492390566514,,
,6062.0,1268.0,7828.0,1846.0,1825.0,2839.0,2089.0,2025-07-15 19:31:16,67.0,,-1.89273637826701,-2.97836006445399,-1.68199542073106,,-3.6900080070002685,,
,6065.0,1273.0,7829.0,1849.0,1834.0,2853.0,2083.0,2025-07-15 19:31:17,67.0,,-1.89359376304427,-2.97847419864239,-1.68179466147309,,-3.881903587551795,,
,6070.0,1274.0,7833.0,1851.0,1832.0,2841.0,2088.0,2025-07-15 19:31:18,67.0,,-1.89259792993354,-2.97839792437376,-1.68156636364504,,-4.055602253151372,,
,6074.0,1276.0,7831.0,1850.0,1836.0,2831.0,2092.0,2025-07-15 19:31:18,67.0,,-1.89182589988656,-2.97836730037305,-1.6816482446145,,-4.18485281677261,,
,6078.0,1274.0,7828.0,1850.0,1822.0,2829.0,2072.0,2025-07-15 19:31:20,66.0,,-1.89077060202801,-2.97838594643002,-1.6813730739536,,-4.24126285454752,,
,6081.0,1275.0,7831.0,1855.0,1822.0,2846.0,2073.0,2025-07-15 19:31:21,66.0,,-1.89039813385059,-2.97829491826502,-1.68148791831956,,-4.196203785711337,,
,6086.0,1278.0,7832.0,1855.0,1821.0,2842.0,2056.0,2025-07-15 19:31:22,66.0,,-1.89023544628736,-2.9783096763713,-1.68147907608141,,-4.02296900974347,,
,6091.0,1279.0,7830.0,1854.0,1814.0,2838.0,2085.0,2025-07-15 19:31:23,65.0,,-1.88909750366413,-2.97818507126339,-1.68041932296995,,-3.6990262215208545,,
,6094.0,1278.0,7831.0,1856.0,1821.0,2833.0,2093.0,2025-07-15 19:31:23,65.0,,-1.88939015346022,-2.97825643528904,-1.68118310619526,,-3.2081741206846734,,
,6098.0,1278.0,7830.0,1853.0,1814.0,2840.0,2077.0,2025-07-15 19:31:25,64.0,,-1.88914751219837,-2.97815608733584,-1.68177768084731,,-2.5423993999126226,,
,6101.0,1282.0,7833.0,1859.0,1840.0,2848.0,2066.0,2025-07-15 19:31:25,64.0,,-1.88800464624683,-2.97815768607031,-1.68165491979103,,-1.7032396314404272,,
,6105.0,1283.0,7832.0,1858.0,1824.0,2840.0,2076.0,2025-07-15 19:31:27,65.0,,-1.88862333651355,-2.97830841990122,-1.68129208946332,,-0.7024955176338427,,
,6109.0,1284.0,7833.0,1860.0,1813.0,2834.0,2082.0,2025-07-15 19:31:27,65.0,,-1.88838480104297,-2.97829621771655,-1.68187674239767,,0.4378009799875545,,
,6110.0,1284.0,7831.0,1858.0,1820.0,2842.0,2082.0,2025-07-15 19:31:29,65.0,,-1.8877520065846,-2.97834062340761,-1.68195409902963,,1.6861786233580787,,
,6119.0,1285.0,7833.0,1861.0,1818.0,2860.0,2058.0,2025-07-15 19:31:29,65.0,,-1.88748231904422,-2.97841879700168,-1.68096305302782,,3.0032183718556804,,
,6123.0,1286.0,7835.0,1860.0,1826.0,2839.0,2065.0,,,,-1.88774461075333,-2.9783451612464,-1.6813468318315,,4.343621816177998,,
,6124.0,1286.0,7835.0,1863.0,1831.0,2825.0,2057.0,,,,-1.88646247907264,-2.97827693457159,-1.68030084480103,,5.658693973064082,,
,6129.0,1290.0,7834.0,1864.0,1831.0,2821.0,2066.0,,,,-1.88632834793444,-2.97832210913114,-1.68148862858511,,6.899059095966248,,
,6131.0,1290.0,7834.0,1864.0,1820.0,2822.0,2094.0,,,,-1.8864779488113,-2.97835872331711,-1.68076543224382,,8.017425493553205,,
,6138.0,1293.0,7837.0,1865.0,1818.0,2839.0,2052.0,,,,-1.88702155365314,-2.97829686636624,-1.68123323982647,,8.971222866287905,,
,6138.0,1294.0,7833.0,1865.0,1828.0,2843.0,2093.0,,,,-1.88540893536304,-2.97839341847055,-1.68162755000145,,9.724949443852974,,
,6146.0,1292.0,7837.0,1868.0,1838.0,2835.0,2091.0,,,,-1.88535772074018,-2.97830637533091,-1.68019415364012,,10.252084850696834,,
,6146.0,1293.0,7835.0,1864.0,1838.0,2828.0,2064.0,,,,-1.88469239774286,-2.97840637040158,-1.68065073115319,,10.536448551237866,,
,6151.0,1293.0,7836.0,1867.0,1842.0,2836.0,2061.0,,,,-1.88411222927783,-2.97826411687074,-1.6801735920362,,10.572914065839711,,
,6156.0,1296.0,7834.0,1867.0,1830.0,2857.0,2040.0,,,,-1.88330300869753,-2.978202346122,-1.67956397849,,10.367427027579094,,
,6160.0,1295.0,7834.0,1871.0,1829.0,2848.0,2042.0,,,,-1.88055771026162,-2.97824876200436,-1.67876866142076,,9.936321225886218,,
,6161.0,1298.0,7833.0,1868.0,1826.0,2829.0,2073.0,,,,-1.88065762582114,-2.97821589465056,-1.67935684790951,,9.304980516268635,,
,6164.0,1297.0,7838.0,1870.0,1827.0,2834.0,2062.0,,,,-1.87889906209516,-2.97815693492283,-1.67845456935032,,8.505952658129306,,
,6170.0,1302.0,7835.0,1871.0,1831.0,2831.0,2051.0,,,,-1.87809803719297,-2.97812987193436,-1.6790031490807,,7.576676221865809,,
,6173.0,1298.0,7837.0,1874.0,1842.0,2834.0,2064.0,,,,-1.87629787270112,-2.97816024310006,-1.67833080257038,,6.557022026453406,,
,6177.0,1300.0,7835.0,1874.0,1824.0,2852.0,2058.0,,,,-1.87567458122205,-2.97811236408741,-1.67720285928232,,5.486864674251919,,
,6182.0,1303.0,7833.0,1871.0,1816.0,2851.0,2068.0,,,,-1.87492328740806,-2.97813198307743,-1.67721998922991,,4.403882965584594,,
,6183.0,1303.0,7836.0,1874.0,1819.0,2836.0,2074.0,,,,-1.8733193953903,-2.97800729577795,-1.67886790584805,,3.341745473188603,,
,6190.0,1304.0,7836.0,1874.0,1813.0,2851.0,2065.0,,,,-1.87236739417579,-2.97803305211499,-1.6771862432217,,2.328780899817619,,
,6190.0,1303.0,7838.0,1876.0,1826.0,2839.0,2057.0,,,,-1.87087312530742,-2.97800195584044,-1.67655339334795,,1.3871737930365429,,
,6195.0,1304.0,7834.0,1874.0,1836.0,2839.0,2073.0,,,,-1.86968459473617,-2.97810706656271,-1.67618067316478,,0.5326730082458238,,
,6201.0,1306.0,7837.0,1877.0,1857.0,2840.0,2077.0,,,,-1.86910366351917,-2.97791704295313,-1.67654698700132,,-0.22524243677764266,,
,6203.0,1308.0,7838.0,1878.0,1848.0,2848.0,2091.0,,,,-1.86815708596343,-2.97804744804761,-1.67576336417454,,-0.8828256090070007,,
,6205.0,1311.0,7840.0,1880.0,1844.0,2861.0,2092.0,,,,-1.86740961083664,-2.97791934633504,-1.67581231829204,,-1.4412542280381593,,
,6214.0,1310.0,7838.0,1878.0,1837.0,2843.0,2071.0,,,,-1.86621224361655,-2.97796428587973,-1.67540408823745,,-1.905659402969246,,
,6218.0,1309.0,7836.0,1881.0,1831.0,2819.0,2066.0,,,,-1.86643945829453,-2.97778789743552,-1.6750718841494,,-2.28408860956138,,
,6222.0,1312.0,7836.0,1883.0,1823.0,2835.0,2045.0,,,,-1.86691370087075,-2.97783920309411,-1.67546767804552,,-2.586485197009305,,
,6224.0,1313.0,7839.0,1882.0,1818.0,2839.0,2052.0,,,,-1.8665007447813,-2.97798181325431,-1.67556800881215,,-2.823747630181316,,
,6227.0,1311.0,7838.0,1882.0,1824.0,2833.0,2059.0,,,,-1.86645118755213,-2.9778990626448,-1.67522820904076,,-3.0069136148456654,,
,6231.0,1314.0,7836.0,1882.0,1821.0,2826.0,2079.0,,,,-1.86676234184127,-2.97780936863307,-1.67604007780901,,-3.1464992616465177,,
,6237.0,1316.0,7841.0,1884.0,1835.0,2827.0,2044.0,,,,-1.86566126036354,-2.97793399249355,-1.67513782598013,,-3.2520109571806968,,
,6241.0,1317.0,7839.0,1886.0,1839.0,2836.0,2035.0,,,,-1.86683759093984,-2.97785224023243,-1.67614901930678,,-3.331635962797105,,
,6245.0,1319.0,7842.0,1888.0,1835.0,2826.0,2045.0,,,,-1.86618272089157,-2.97786482088125,-1.67510657416784,,-3.392105950462364,,
,6251.0,1318.0,7837.0,1887.0,1828.0,2833.0,2057.0,,,,-1.86673035313944,-2.97794279363298,-1.67481265949311,,-3.438716046959926,,
,6253.0,1320.0,7838.0,1886.0,1848.0,2849.0,2063.0,,,,-1.86590570916368,-2.97806447287379,-1.67433901813401,,-3.475471716031872,,
,6260.0,1322.0,7837.0,1890.0,1848.0,2852.0,2067.0,,,,-1.86528267440311,-2.97785875329178,-1.67499206965797,,-3.505328200045141,,
,6264.0,1322.0,7839.0,1890.0,1854.0,2849.0,2066.0,,,,-1.86513872383608,-2.97779378347351,-1.67457082211485,,-3.530482912976118,,
,6265.0,1320.0,7839.0,1890.0,1844.0,2853.0,2065.0,,,,-1.86461744085852,-2.9778116349923,-1.67492255398617,,-3.5526801224655804,,
,6263.0,1323.0,7838.0,1889.0,1825.0,2854.0,2070.0,,,,-1.86261746377378,-2.97771097204728,-1.67400954987612,,-3.573489135989454,,
,6261.0,1322.0,7840.0,1889.0,1827.0,2860.0,2062.0,,,,-1.86248053546214,-2.97775113878442,-1.67355584648985,,-3.594521581027788,,
,6252.0,1318.0,7838.0,1887.0,1833.0,2849.0,2063.0,,,,-1.86180982526361,-2.97779688778076,-1.67324471846039,,-3.6175597562811914,,
,6238.0,1320.0,7840.0,1883.0,1835.0,2847.0,2062.0,,,,-1.86141177538814,-2.97780638420729,-1.67325372614022,,-3.644575924579244,,
,6226.0,1312.0,7839.0,1878.0,1823.0,2845.0,2070.0,,,,-1.85959110957158,-2.97761916888114,-1.67272300754406,,-3.6776315520934464,,
,6203.0,1305.0,7835.0,1874.0,1822.0,2851.0,2105.0,,,,-1.86059897119498,-2.97772001529232,-1.67338851957756,,-3.7186561880782913,,
,6180.0,1300.0,7834.0,1869.0,1822.0,2836.0,2068.0,,,,-1.85930739062916,-2.97767911892313,-1.6729392043474,,-3.7691186156964527,,
,6157.0,1294.0,7833.0,1862.0,1824.0,2820.0,2062.0,,,,-1.85956298012503,-2.97758676830134,-1.67351878062991,,-3.8296180376058304,,
,6136.0,1287.0,7833.0,1860.0,1825.0,2800.0,2058.0,,,,-1.85958804246895,-2.97760644582392,-1.67319022860925,,-3.899438463918017,,
,6115.0,1280.0,7832.0,1849.0,1831.0,2833.0,2047.0,,,,-1.85963941589685,-2.97759829389698,-1.67321237996286,,-3.9761216502511774,,
,6097.0,1277.0,7831.0,1846.0,1833.0,2830.0,2050.0,,,,-1.86012068096561,-2.97762426518219,-1.67424456664204,,-4.055119568784303,,
,6080.0,1270.0,7835.0,1844.0,1827.0,2818.0,2051.0,,,,-1.85956847782232,-2.97770326649895,-1.67297015780807,,-4.129584863510616,,
,6064.0,1266.0,7830.0,1840.0,1823.0,2825.0,2069.0,,,,-1.85854327138613,-2.97770197719906,-1.67260315312397,,-4.190347282268132,,
,6051.0,1264.0,7833.0,1838.0,1836.0,2837.0,2072.0,,,,-1.8581607520582,-2.97765547845124,-1.67275911047732,,-4.226107088331942,,
,6038.0,1262.0,7830.0,1832.0,1814.0,2862.0,2068.0,,,,-1.85904964361567,-2.9775927228389,-1.6729161286531,,-4.22385492010234,,
,6031.0,1261.0,7831.0,1835.0,1813.0,2845.0,2071.0,,,,-1.85939452339444,-2.9776402630523,-1.67208187064015,,-4.169503928897409,,
,6025.0,1259.0,7830.0,1831.0,1812.0,2831.0,2071.0,,,,-1.85841747804954,-2.97760109525119,-1.67359421206264,,-4.048697079480351,,
,6018.0,1260.0,7831.0,1833.0,1822.0,2831.0,2064.0,,,,-1.85870900991576,-2.97762583855461,-1.67283598732228,,-3.847733036178758,,
,6009.0,1255.0,7828.0,1828.0,1824.0,2849.0,2077.0,,,,-1.85781940376564,-2.97765671447532,-1.67324881387623,,-3.554540374482864,,
,6012.0,1257.0,7829.0,1829.0,1823.0,2859.0,2067.0,,,,-1.85810073583074,-2.97763806401081,-1.67259186713944,,-3.1596234389005695,,
,6006.0,1258.0,7834.0,1831.0,1839.0,2836.0,2049.0,,,,-1.8587761725579,-2.97771959841077,-1.67142807709785,,-2.6569046690294487,,
,6005.0,1258.0,7830.0,1831.0,1836.0,2827.0,2055.0,,,,-1.85887216607389,-2.97760949621379,-1.67145217260024,,-2.044397663822228,,
,6002.0,1256.0,7832.0,1828.0,1839.0,2830.0,2041.0,,,,-1.85901473381988,-2.97759276301479,-1.67235156329067,,-1.3246620428662992,,
,6001.0,1256.0,7831.0,1830.0,1836.0,2864.0,2045.0,,,,-1.85907289853604,-2.97755288234368,-1.67082785945047,,-0.5050133533077313,,
,6001.0,1257.0,7832.0,1832.0,1841.0,2868.0,2047.0,,,,-1.85904931860394,-2.97756657251661,-1.67083155133291,,0.4025151810309147,,
,5998.0,1257.0,7831.0,1830.0,1832.0,2851.0,2057.0,,,,-1.86042821197843,-2.97737078896516,-1.67237019407681,,1.3814426485106825,,
,5995.0,1256.0,7835.0,1833.0,1827.0,2857.0,2065.0,,,,-1.85965507090467,-2.97744992873826,-1.67152934364472,,2.411313927146404,,
,5993.0,1255.0,7834.0,1831.0,1837.0,2824.0,2043.0,,,,-1.86017092588792,-2.97740237164584,-1.67218957786201,,3.4683447722736696,,
,5993.0,1257.0,7832.0,1831.0,1838.0,2853.0,2055.0,,,,-1.86171685140992,-2.97737545037307,-1.67237547134199,,4.526208606211157,,
,5993.0,1257.0,7832.0,1832.0,1833.0,2859.0,2064.0,,,,-1.86118926224248,-2.9775972295305,-1.67127889529891,,5.556939143136941,,
,5992.0,1256.0,7831.0,1834.0,1825.0,2859.0,2068.0,,,,-1.86240233066944,-2.97740705907953,-1.67250798936401,,6.531926289229225,,
,5994.0,1255.0,7832.0,1833.0,1841.0,2828.0,2086.0,,,,-1.86314213760202,-2.97754703149187,-1.67223672106279,,7.422983452377242,,
,5995.0,1259.0,7834.0,1833.0,1831.0,2846.0,2073.0,,,,-1.8642366787615,-2.97746653508831,-1.67215505501447,,8.20346100875577,,
,5993.0,1258.0,7835.0,1837.0,1836.0,2832.0,2078.0,,,,-1.8645820211805,-2.97742700232683,-1.67301895728778,,8.84937243024862,,
,5997.0,1259.0,7835.0,1837.0,1831.0,2835.0,2085.0,,,,-1.86484183231174,-2.97759582846967,-1.67361325401595,,9.34048749044739,,
,5996.0,1258.0,7832.0,1836.0,1831.0,2847.0,2079.0,,,,-1.86439928242152,-2.97747582669315,-1.67299821879048,,9.661334020471996,,
,5997.0,1256.0,7835.0,1835.0,1841.0,2844.0,2075.0,,,,-1.86407540688679,-2.97768072367086,-1.67299794052087,,9.802039601494833,,
,5997.0,1258.0,7834.0,1836.0,1843.0,2844.0,2068.0,,,,-1.86537892302821,-2.97749560517763,-1.67426600225809,,9.758940538299415,,
2025-07-15 19:28:31,6001.0,1262.0,7835.0,1838.0,1846.0,2833.0,2054.0,,,2025/07/15 07:28:31 PM,-1.86486253174502,-2.97738253712581,-1.67347972450082,,9.534889658714722,,
,6004.0,1261.0,7836.0,1837.0,1837.0,2827.0,2047.0,,,,-1.8653688618922,-2.97752378541979,-1.67345664967723,,9.139208425925856,,
,5999.0,1258.0,7834.0,1836.0,1842.0,2831.0,2075.0,,,,-1.86503255522189,-2.97753359019208,-1.67475490634165,,8.587253675248265,,
,6000.0,1256.0,7836.0,1836.0,1837.0,2841.0,2073.0,,,,-1.86521366870091,-2.97766772036035,-1.67398492474499,,7.899605026342809,,
,6003.0,1258.0,7837.0,1838.0,1827.0,2832.0,2067.0,,,,-1.86431027843258,-2.9776609343269,-1.67350544194724,,7.100922354298583,,
,6003.0,1260.0,7835.0,1838.0,1830.0,2836.0,2088.0,,,,-1.86500468947725,-2.9774355095523,-1.67383251197475,,6.218565307135153,,
,6000.0,1260.0,7837.0,1837.0,1821.0,2829.0,2086.0,,,,-1.86430744770692,-2.97754508165504,-1.67328967505415,,5.281097499114237,,
,5999.0,1257.0,7835.0,1837.0,1808.0,2829.0,2082.0,,,,-1.86410182895851,-2.97763480724589,-1.67318896142672,,4.3168081507354525,,
,6000.0,1258.0,7835.0,1836.0,1813.0,2819.0,2083.0,,,,-1.86316883084351,-2.97756077647087,-1.67310285441603,,3.35237221680846,,
,5997.0,1261.0,7838.0,1836.0,1827.0,2819.0,2080.0,,,,-1.86456146728914,-2.97752129129555,-1.67357539168847,,2.411741803920305,,
,5999.0,1260.0,7836.0,1838.0,1829.0,2828.0,2066.0,,,,-1.86403526498746,-2.97753605299188,-1.67287554917138,,1.5153251357158088,,
,5997.0,1257.0,7836.0,1834.0,1830.0,2831.0,2072.0,,,,-1.86462819315747,-2.97746852788445,-1.67236609987169,,0.6794720701162804,,
,5994.0,1259.0,7836.0,1836.0,1822.0,2826.0,2045.0,,,,-1.8632842410076,-2.97746079779712,-1.67224691785795,,-0.08374715696215454,,
,5996.0,1261.0,7838.0,1839.0,1828.0,2843.0,2060.0,,,,-1.86470171863519,-2.97758040011521,-1.67202116777363,,-0.7665070258787298,,
,5995.0,1258.0,7834.0,1835.0,1833.0,2843.0,2062.0,,,,-1.86480227772838,-2.97763993408489,-1.67330271954837,,-1.364986056161297,,
,5992.0,1258.0,7836.0,1837.0,1830.0,2844.0,2063.0,,,,-1.86495504664438,-2.97757285440048,-1.67371190482503,,-1.8789737821274264,,
,5994.0,1256.0,7834.0,1835.0,1825.0,2844.0,2051.0,,,,-1.86586902468919,-2.97758096895415,-1.6729786825023,,-2.311373729123225,,
,5995.0,1260.0,7837.0,1838.0,1823.0,2828.0,2065.0,,,,-1.8648432697269,-2.97762867324834,-1.67396008207819,,-2.667641520750802,,
,5995.0,1259.0,7841.0,1838.0,1814.0,2831.0,2056.0,,,,-1.86574393227015,-2.97749810630944,-1.67374787729309,,-2.955188402528336,,
,5997.0,1258.0,7837.0,1839.0,1816.0,2834.0,2053.0,,,,-1.86539373846804,-2.97756911916619,-1.67327462960776,,-3.182775011670365,,
,5998.0,1261.0,7837.0,1838.0,1826.0,2838.0,2043.0,,,,-1.86617476534818,-2.97763252029191,-1.67365230410216,,-3.3599183833242665,,
,5999.0,1260.0,7839.0,1840.0,1830.0,2822.0,2055.0,,,,-1.86573724188394,-2.97766669990635,-1.67328400545222,,-3.496335080773202,,
,6003.0,1261.0,7840.0,1841.0,1838.0,2854.0,2061.0,,,,-1.86516400112982,-2.97766030092792,-1.67335537025219,,-3.6014427626556147,,
,6003.0,1262.0,7837.0,1839.0,1846.0,2849.0,2056.0,,,,-1.86629854090604,-2.97775011044886,-1.67368959073301,,-3.6839401343340175,,
,6007.0,1260.0,7838.0,1839.0,1831.0,2852.0,2080.0,,,,-1.86642518298106,-2.97773153534238,-1.67362222902201,,-3.751480802893571,,
,6010.0,1262.0,7839.0,1839.0,1830.0,2849.0,2063.0,,,,-1.86702143665224,-2.97774217915802,-1.67536732367327,,-3.81045046411108,,
,6011.0,1264.0,7840.0,1842.0,1831.0,2849.0,2056.0,,,,-1.86828618724488,-2.97781663778753,-1.67443366554585,,-3.86584980449419,,
,6014.0,1264.0,7841.0,1844.0,1826.0,2835.0,2052.0,,,,-1.86876957867814,-2.97768710714828,-1.67443649205394,,-3.9212783568380893,,
,6020.0,1268.0,7842.0,1845.0,1833.0,2834.0,2058.0,,,,-1.86917579574819,-2.97778656632624,-1.67523380696156,,-3.9790081482601627,,
,6019.0,1263.0,7840.0,1842.0,1826.0,2837.0,2056.0,,,,-1.86985930911745,-2.97787669439299,-1.67554469701746,,-4.040130911296795,,
,6025.0,1267.0,7842.0,1845.0,1829.0,2846.0,2046.0,,,,-1.87122825139565,-2.97793045113312,-1.67628225128138,,-4.104759038069074,,
,6029.0,1269.0,7842.0,1847.0,1816.0,2848.0,2044.0,,,,-1.87253367405275,-2.97778360659879,-1.67705032018005,,-4.172258080001319,,
,6031.0,1269.0,7842.0,1847.0,1833.0,2843.0,2047.0,,,,-1.87226570576874,-2.9778002752215,-1.6768734363079,,-4.2414869473132715,,
,6033.0,1269.0,7839.0,1846.0,1839.0,2838.0,2030.0,,,,-1.8727312946038,-2.97793088669255,-1.67591825521961,,-4.311020625982863,,
,6036.0,1270.0,7843.0,1846.0,1843.0,2839.0,2040.0,,,,-1.87281884297809,-2.97809717510432,-1.67733896979399,,-4.3793292977069775,,
,6040.0,1272.0,7843.0,1847.0,1839.0,2853.0,2036.0,,,,-1.873504607362,-2.97817800106372,-1.67656271052642,,-4.44488835472501,,
,6041.0,1272.0,7843.0,1849.0,1846.0,2841.0,2041.0,,,,-1.87428915273308,-2.97809808898904,-1.67749105970149,,-4.5061980522064005,,
,6046.0,1273.0,7845.0,1850.0,1838.0,2835.0,2059.0,,,,-1.87473115277859,-2.97814290846815,-1.67783391546777,,-4.561701237956595,,
,6050.0,1274.0,7840.0,1848.0,1843.0,2823.0,2062.0,,,,-1.87504266657658,-2.97814423979766,-1.67825061121766,,-4.6096025837157715,,
,6054.0,1275.0,7846.0,1852.0,1838.0,2819.0,2047.0,,,,-1.87569252838785,-2.97824166768353,-1.6791731152392,,-4.647610449373109,,
,6057.0,1278.0,7842.0,1851.0,1829.0,2827.0,2075.0,,,,-1.87607496479595,-2.97817480900006,-1.67824995434431,,-4.672639100333309,,
,6060.0,1277.0,7843.0,1854.0,1838.0,2834.0,2058.0,,,,-1.87570439274749,-2.97821879000444,-1.67784513933451,,-4.680520968951789,,
,6061.0,1277.0,7844.0,1851.0,1849.0,2829.0,2036.0,,,,-1.87585362423155,-2.97823202978728,-1.67890792453798,,-4.665783790483932,,
,6063.0,1278.0,7844.0,1852.0,1852.0,2840.0,2040.0,,,,-1.87590270848002,-2.97823139087289,-1.67881439860477,,-4.621544881197124,,
,6067.0,1280.0,7845.0,1856.0,1839.0,2833.0,2037.0,,,,-1.87743530571753,-2.97842199094441,-1.67927444024541,,-4.539564761736201,,
,6075.0,1283.0,7845.0,1855.0,1843.0,2841.0,2043.0,,,,-1.8764853360067,-2.97832635667056,-1.6789064002828,,-4.4104859108825725,,
,6077.0,1281.0,7844.0,1855.0,1855.0,2845.0,2050.0,,,,-1.8765619080817,-2.97830875939106,-1.67896860386863,,-4.224261679272595,,
,6074.0,1283.0,7845.0,1855.0,1852.0,2838.0,2050.0,,,,-1.87670953632365,-2.97832253584261,-1.67986011434498,,-3.970757926742169,,
,6081.0,1281.0,7847.0,1855.0,1847.0,2860.0,2060.0,,,,-1.87667942756932,-2.97843010251418,-1.68006670528707,,-3.6404886491102353,,
,6084.0,1282.0,7847.0,1858.0,1867.0,2832.0,2060.0,,,,-1.87606744861699,-2.97840843469509,-1.67897095362499,,-3.2254295098402674,,
,6088.0,1286.0,7845.0,1859.0,1865.0,2840.0,2053.0,,,,-1.87695760497548,-2.9783291027822,-1.67958788630663,,-2.7198420474644713,,
,6089.0,1284.0,7845.0,1856.0,1859.0,2843.0,2046.0,,,,-1.87600322892587,-2.9784229011134,-1.67965952319448,,-2.1210376051277997,,
,6091.0,1285.0,7845.0,1858.0,1854.0,2840.0,2058.0,,,,-1.87756788518394,-2.97835805526874,-1.6799777173286,,-1.4300136372695929,,
,6097.0,1287.0,7846.0,1861.0,1824.0,2853.0,2068.0,,,,-1.87618756526629,-2.97846379560178,-1.67989246324653,,-0.6519050104097351,,
,6102.0,1288.0,7847.0,1859.0,1825.0,2841.0,2054.0,,,,-1.87686670214497,-2.97858887846235,-1.6807361420468,,0.20379201711902092,,
,6102.0,1287.0,7847.0,1861.0,1840.0,2833.0,2042.0,,,,-1.87714104974755,-2.97860659273193,-1.67981598821612,,1.1232468895887275,,
,6103.0,1287.0,7846.0,1861.0,1840.0,2850.0,2053.0,,,,-1.87751840658355,-2.97854820062486,-1.68061189878867,,2.0885771719955617,,
,6110.0,1288.0,7845.0,1862.0,1841.0,2836.0,2052.0,,,,-1.87692102107201,-2.97861528030767,-1.68006495259932,,3.0783732506272785,,
,6110.0,1294.0,7846.0,1864.0,1842.0,2837.0,2050.0,,,,-1.8770076183425,-2.97841057313324,-1.6805702431736,,4.068439406848576,,
,6114.0,1290.0,7846.0,1864.0,1846.0,2846.0,2055.0,,,,-1.87664619347798,-2.97838565598734,-1.68048790424669,,5.0327169317092,,
,6117.0,1289.0,7846.0,1864.0,1834.0,2828.0,2060.0,,,,-1.87706524744729,-2.97864868222919,-1.68070341232896,,5.944349162961376,,
,6121.0,1291.0,7848.0,1866.0,1828.0,2848.0,2055.0,,,,-1.87777960805026,-2.97851011527673,-1.68066199557289,,6.776843067665255,,
,6125.0,1294.0,7850.0,1865.0,1829.0,2854.0,2052.0,,,,-1.87688031222047,-2.97856234115113,-1.68103572292058,,7.505276118646374,,
,6128.0,1295.0,7849.0,1866.0,1838.0,2852.0,2047.0,,,,-1.87659294492904,-2.9784900123899,-1.68067148346478,,8.1074907869817,,
,6132.0,1294.0,7848.0,1867.0,1836.0,2867.0,2051.0,,,,-1.87624618504778,-2.97847573541311,-1.67986545290743,,8.565212912078568,,
,6131.0,1297.0,7848.0,1865.0,1840.0,2849.0,2063.0,,,,-1.87560908321247,-2.97846937273568,-1.67955586582073,,8.865025933374337,,
,6140.0,1298.0,7851.0,1868.0,1843.0,2838.0,2063.0,,,,-1.87467126614891,-2.97830859489726,-1.67969248887253,,8.999132110093377,,
,6139.0,1298.0,7848.0,1868.0,1845.0,2846.0,2059.0,,,,-1.87396529579481,-2.97848259953363,-1.67920960979394,,8.965835988934538,,
,6143.0,1299.0,7850.0,1870.0,1844.0,2852.0,2058.0,,,,-1.87287572113858,-2.97847237681821,-1.67994550906255,,8.76969586747446,,
,6144.0,1298.0,7851.0,1868.0,1846.0,2834.0,2055.0,,,,-1.87260836395004,-2.97847672797247,-1.67926505296261,,8.421306997161489,,
,6149.0,1300.0,7851.0,1871.0,1843.0,2826.0,2044.0,,,,-1.87179325609938,-2.97847664288362,-1.67929685179105,,7.936706451449836,,
,6152.0,1302.0,7848.0,1872.0,1845.0,2822.0,2058.0,,,,-1.87174627973711,-2.97833911069018,-1.67881794933823,,7.336423271304011,,
,6156.0,1303.0,7849.0,1871.0,1840.0,2833.0,2063.0,,,,-1.87131714177496,-2.97823282677092,-1.67876566662956,,6.644235456382873,,
,6160.0,1302.0,7850.0,1871.0,1834.0,2841.0,2074.0,,,,-1.87233826431432,-2.97840944103551,-1.67900277637579,,5.885731287860588,,
,6166.0,1305.0,7849.0,1872.0,1846.0,2841.0,2064.0,,,,-1.87099996241326,-2.97837829034033,-1.67950566382581,,5.086798284616798,,
,6168.0,1306.0,7854.0,1873.0,1847.0,2834.0,2071.0,,,,-1.87142869547202,-2.9783731226248,-1.67869265467437,,4.272172206859152,,
,6173.0,1306.0,7851.0,1874.0,1845.0,2821.0,2064.0,,,,-1.87032783086968,-2.97840842142572,-1.67850873713071,,3.464168898792167,,
,6177.0,1307.0,7851.0,1874.0,1842.0,2851.0,2051.0,,,,-1.86867025224607,-2.97848815794644,-1.67828499061399,,2.6816964516978588,,
,6179.0,1307.0,7849.0,1874.0,1845.0,2858.0,2048.0,,,,-1.86890710540712,-2.97845638630135,-1.67837531387241,,1.9396101081789114,,
,6184.0,1310.0,7852.0,1875.0,1847.0,2834.0,2042.0,,,,-1.86862436227195,-2.9783079145369,-1.67725182899096,,1.2484336764905588,,
,6188.0,1312.0,7854.0,1879.0,1839.0,2852.0,2070.0,,,,-1.86845710297486,-2.97839532511072,-1.6777729605497,,0.6144339847748826,,
,6187.0,1308.0,7849.0,1878.0,1831.0,2859.0,2073.0,,,,-1.86834876434186,-2.97840489019638,-1.67861498469953,,0.04000276470790548,,
,6188.0,1308.0,7852.0,1876.0,1836.0,2842.0,2066.0,,,,-1.86874969775393,-2.9782199792142,-1.67868714324676,,-0.47572414227925724,,
,6189.0,1311.0,7850.0,1874.0,1825.0,2852.0,2058.0,,,,-1.86900827396592,-2.97828033433137,-1.6788279186825,,-0.9360956945456331,,
,6183.0,1309.0,7852.0,1878.0,1823.0,2857.0,2050.0,,,,-1.86934089351838,-2.97836548655153,-1.67817934579369,,-1.3461136570892673,,
,6171.0,1306.0,7847.0,1873.0,1834.0,2856.0,2039.0,,,,-1.86841531312791,-2.97849609113122,-1.67777548675016,,-1.7116265628009402,,
,6157.0,1302.0,7846.0,1869.0,1841.0,2850.0,2042.0,,,,-1.86929477315781,-2.97847533227975,-1.67791200372893,,-2.038623477908778,,
,6137.0,1296.0,7846.0,1863.0,1830.0,2841.0,2044.0,,,,-1.86954958329039,-2.97848649991436,-1.67896703132381,,-2.3326810391075243,,
,6118.0,1294.0,7847.0,1859.0,1822.0,2822.0,2039.0,,,,-1.86936803043836,-2.97836279908236,-1.67778701330206,,-2.598591974575661,,
,6098.0,1285.0,7847.0,1854.0,1840.0,2811.0,2036.0,,,,-1.86834325326531,-2.97840227265356,-1.67740503210026,,-2.8401769856603667,,
,6079.0,1279.0,7846.0,1849.0,1846.0,2802.0,2037.0,,,,-1.86781267322655,-2.97829779360332,-1.67692001760484,,-3.0602590511556524,,
,6060.0,1272.0,7843.0,1842.0,1838.0,2823.0,2058.0,,,,-1.86827180205758,-2.9784190867317,-1.67791249356352,,-3.2607636631066512,,
,6043.0,1270.0,7845.0,1840.0,1847.0,2825.0,2077.0,,,,-1.86793741445934,-2.97842851008489,-1.67769862155708,,-3.442901505410861,,
,6026.0,1265.0,7845.0,1833.0,1831.0,2840.0,2065.0,,,,-1.8687091596052,-2.97838649411255,-1.67794035238958,,-3.6073905223493186,,
,6012.0,1261.0,7840.0,1832.0,1836.0,2833.0,2062.0,,,,-1.86876854974706,-2.97846036223233,-1.67779868960485,,-3.7546799765554497,,
,6000.0,1256.0,7842.0,1830.0,1849.0,2840.0,2055.0,,,,-1.86956309002636,-2.97845228595207,-1.677945332008,,-3.8851478096310244,,
,5989.0,1256.0,7843.0,1828.0,1837.0,2839.0,2055.0,,,,-1.86982687575051,-2.97854421724877,-1.6788739110604,,-3.9992526776276573,,
,5980.0,1254.0,7843.0,1825.0,1853.0,2827.0,2043.0,,,,-1.87129626094202,-2.97858051296495,-1.67924800918323,,-4.097632102774932,,
,5977.0,1253.0,7840.0,1822.0,1839.0,2841.0,2043.0,,,,-1.87170599362221,-2.97854458892358,-1.67794651587282,,-4.181147236100086,,
,5971.0,1252.0,7840.0,1824.0,1837.0,2845.0,2046.0,,,,-1.87347473266668,-2.97851273737978,-1.68039846500009,,-4.250882065817596,,
,5964.0,1250.0,7841.0,1821.0,1844.0,2857.0,2043.0,,,,-1.87532996651005,-2.97856033978983,-1.67983625259177,,-4.308110150462137,,
,5965.0,1250.0,7842.0,1821.0,1864.0,2870.0,2062.0,,,,-1.87597420770188,-2.97869943847998,-1.68076854944394,,-4.354244904027227,,
,5962.0,1254.0,7842.0,1823.0,1854.0,2837.0,2060.0,,,,-1.87730750018778,-2.97868988875671,-1.68103446349798,,-4.390789950700881,,
,5961.0,1252.0,7844.0,1822.0,1855.0,2834.0,2066.0,,,,-1.8791491841323,-2.97869701469245,-1.68174340852398,,-4.419303918463152,,
,5960.0,1250.0,7841.0,1822.0,1866.0,2824.0,2063.0,,,,-1.88147673526343,-2.97876067959861,-1.68129808245505,,-4.441389092279156,,
,5959.0,1252.0,7841.0,1823.0,1867.0,2858.0,2053.0,,,,-1.88261286403557,-2.9788005887713,-1.68302486132883,,-4.45870561922261,,
,5957.0,1255.0,7843.0,1821.0,1852.0,2859.0,2044.0,,,,-1.88358011581439,-2.97892869496062,-1.68300954065626,,-4.473003027129391,,
,5955.0,1251.0,7840.0,1823.0,1848.0,2829.0,2052.0,,,,-1.88543218121656,-2.97886305500845,-1.68417417953502,,-4.486150338763475,,
,5955.0,1253.0,7841.0,1825.0,1844.0,2831.0,2043.0,,,,-1.88708196558191,-2.97881290739798,-1.68385906775572,,-4.5001379567855695,,
,5952.0,1251.0,7839.0,1822.0,1848.0,2836.0,2049.0,,,,-1.88751663656736,-2.97890466494555,-1.68452820982868,,-4.517022168537006,,
,5955.0,1249.0,7842.0,1824.0,1850.0,2842.0,2024.0,,,,-1.88813513723631,-2.97898743506538,-1.68554260313428,,-4.53878875576656,,
,5957.0,1255.0,7843.0,1828.0,1851.0,2830.0,2056.0,,,,-1.88990807912258,-2.97890264349161,-1.6856779358242,,-4.567125301411924,,
,5957.0,1255.0,7845.0,1827.0,1840.0,2832.0,2048.0,,,,-1.89106306327694,-2.97904500366312,-1.68563150034818,,-4.6031092907964375,,
,5959.0,1255.0,7844.0,1827.0,1829.0,2808.0,2054.0,,,,-1.89228973566475,-2.97900307540299,-1.68575855537039,,-4.646836888656289,,
,5959.0,1255.0,7843.0,1825.0,1846.0,2833.0,2043.0,,,,-1.8926412462691,-2.97907310056821,-1.68523620625505,,-4.697031839750073,,
,5964.0,1256.0,7843.0,1829.0,1837.0,2818.0,2043.0,,,,-1.89375831754384,-2.97915796253519,-1.68606460292965,,-4.750683193082741,,
,5964.0,1254.0,7843.0,1831.0,1841.0,2826.0,2064.0,,,,-1.89394253972937,-2.97913973952584,-1.68678188577005,,-4.802763685389611,,
,5966.0,1257.0,7841.0,1828.0,1848.0,2826.0,2057.0,,,,-1.89357184914412,-2.97927112336419,-1.68568192400491,,-4.8460776989220395,,
,5965.0,1255.0,7840.0,1827.0,1849.0,2824.0,2078.0,,,,-1.8928548440232,-2.97911556223722,-1.68658596867562,,-4.871279304932726,,
,5969.0,1258.0,7843.0,1829.0,1840.0,2821.0,2072.0,,,,-1.89372946636969,-2.97905985449427,-1.68705255235556,,-4.867087880235292,,
,5969.0,1258.0,7842.0,1831.0,1836.0,2835.0,2072.0,,,,-1.89396761727948,-2.97899208646162,-1.6863722844303,,-4.820712155793562,,
,5970.0,1259.0,7842.0,1830.0,1837.0,2835.0,2077.0,,,,-1.89370499722565,-2.97909842371202,-1.68682753970204,,-4.718474486002402,,
,5969.0,1257.0,7841.0,1828.0,1839.0,2816.0,2083.0,,,,-1.8935119788975,-2.97904244351026,-1.68638370485047,,-4.546606991485812,,
,5969.0,1257.0,7841.0,1831.0,1850.0,2827.0,2071.0,,,,-1.89290032196297,-2.97916973305795,-1.68562246210587,,-4.292171605562474,,
,5970.0,1257.0,7845.0,1831.0,1834.0,2835.0,2065.0,,,,-1.89295026724232,-2.97904249909367,-1.68583569517931,,-3.9440386834031913,,
,5971.0,1257.0,7842.0,1831.0,1840.0,2834.0,2055.0,,,,-1.8928018574019,-2.97905029806532,-1.68527746923808,,-3.493845775685919,,
,5968.0,1259.0,7842.0,1833.0,1843.0,2840.0,2060.0,,,,-1.89331339099619,-2.97909628079911,-1.68560109863853,,-2.93685214086771,,
,5965.0,1257.0,7842.0,1831.0,1836.0,2838.0,2052.0,,,,-1.8931238768889,-2.9791398741448,-1.68621263896678,,-2.272608721000906,,
2025-07-15 19:28:32,5967.0,1254.0,7842.0,1831.0,1826.0,2844.0,2048.0,,,2025/07/15 07:28:32 PM,-1.89364042091636,-2.97906320415062,-1.68622695199723,,-1.5053795892009216,,
,5965.0,1256.0,7843.0,1830.0,1843.0,2868.0,2049.0,,,,-1.89463326239117,-2.9791222857609,-1.68613991677534,,-0.6442776584538883,,
,5964.0,1255.0,7843.0,1829.0,1847.0,2859.0,2049.0,,,,-1.89470179010732,-2.97922692859783,-1.68623887263232,,0.2968911605081851,,
,5961.0,1254.0,7841.0,1829.0,1835.0,2839.0,2053.0,,,,-1.89478445047867,-2.97911500661121,-1.68668197765389,,1.3000527870983127,,
,5965.0,1255.0,7841.0,1830.0,1830.0,2854.0,2050.0,,,,-1.89424367239615,-2.97918045106248,-1.68574085945845,,2.3435165069095105,,
,5961.0,1255.0,7844.0,1829.0,1838.0,2844.0,2066.0,,,,-1.8945963021451,-2.97932716028834,-1.68614517598168,,3.402801504278985,,
,5962.0,1255.0,7842.0,1828.0,1819.0,2840.0,2054.0,,,,-1.89496661253613,-2.9790664627274,-1.68718310903446,,4.45158569886515,,
,5960.0,1255.0,7844.0,1829.0,1851.0,2845.0,2050.0,,,,-1.89608160472539,-2.97916825686756,-1.68634889209691,,5.4627283756746845,,
,5964.0,1255.0,7843.0,1827.0,1845.0,2837.0,2041.0,,,,-1.89522937210891,-2.9791660394683,-1.6867044900052,,6.409324308836855,,
,5966.0,1256.0,7845.0,1828.0,1856.0,2842.0,2037.0,,,,-1.89497130614319,-2.97914287609226,-1.68687424734464,,7.265752916703732,,
,5965.0,1257.0,7843.0,1832.0,1853.0,2822.0,2053.0,,,,-1.89570784587219,-2.97920796922874,-1.68659609558838,,8.008689810327235,,
,5967.0,1257.0,7844.0,1829.0,1835.0,2826.0,2051.0,,,,-1.89640397492202,-2.97924267596337,-1.68602589901615,,8.618049107101003,,
,5968.0,1257.0,7843.0,1832.0,1826.0,2824.0,2047.0,,,,-1.89543706844833,-2.97919602864109,-1.68655311395188,,9.077823270796214,,
,5970.0,1259.0,7844.0,1831.0,1831.0,2833.0,2033.0,,,,-1.89660132967435,-2.97914602642264,-1.68612142316923,,9.376784213346621,,
,5975.0,1262.0,7846.0,1835.0,1824.0,2836.0,2050.0,,,,-1.89526057772539,-2.97922876262813,-1.68621257488166,,9.509006819607023,,
,5976.0,1258.0,7847.0,1834.0,1832.0,2833.0,2051.0,,,,-1.89544409417605,-2.9790119329194,-1.68573507155614,,9.474175803983018,,
,5980.0,1259.0,7843.0,1834.0,1839.0,2828.0,2032.0,,,,-1.89506274678831,-2.97900760026709,-1.68586777796563,,9.277640251945263,,
,5983.0,1261.0,7844.0,1835.0,1830.0,2857.0,2049.0,,,,-1.89495439190251,-2.97911464443264,-1.68559412369595,,8.930188351341032,,
,5987.0,1260.0,7844.0,1836.0,1829.0,2855.0,2040.0,,,,-1.89424995771993,-2.97898160951122,-1.68623234384341,,8.447528876717369,,
,5989.0,1264.0,7846.0,1837.0,1834.0,2849.0,2055.0,,,,-1.89461438066196,-2.97908213422967,-1.68604997849366,,7.849487275160913,,
,5992.0,1266.0,7845.0,1837.0,1845.0,2839.0,2071.0,,,,-1.89469808852671,-2.97911408533205,-1.68669941551871,,7.158952584297078,,
,5996.0,1264.0,7849.0,1839.0,1840.0,2856.0,2067.0,,,,-1.89502302215976,-2.97902472342851,-1.68548388627077,,6.400643114544294,,
,6000.0,1268.0,7842.0,1839.0,1829.0,2844.0,2057.0,,,,-1.89511371821811,-2.97919133067246,-1.6857051294838,,5.599786231343626,,
,6004.0,1269.0,7844.0,1840.0,1838.0,2869.0,2056.0,,,,-1.89552330357367,-2.97931492915707,-1.68630520122955,,4.780822396998555,,
,6007.0,1269.0,7846.0,1840.0,1841.0,2851.0,2045.0,,,,-1.89671748697559,-2.97917931650507,-1.68636354319088,,3.9662412847708373,,
,6009.0,1268.0,7845.0,1840.0,1839.0,2852.0,2062.0,,,,-1.89716588604324,-2.97909475962557,-1.68634045155885,,3.1756393741113236,,
,6014.0,1270.0,7845.0,1842.0,1830.0,2859.0,2059.0,,,,-1.89718421335848,-2.97921015158608,-1.6863357119681,,2.425059312998605,,
,6022.0,1272.0,7847.0,1843.0,1840.0,2855.0,2048.0,,,,-1.89765510452407,-2.97930507353938,-1.6872873773891,,1.7266378760635601,,
,6024.0,1272.0,7847.0,1844.0,1845.0,2841.0,2043.0,,,,-1.8977878733027,-2.97927971367323,-1.68796963063574,,1.088556665375618,,
,6026.0,1275.0,7848.0,1845.0,1831.0,2841.0,2038.0,,,,-1.89827564159465,-2.97918744363262,-1.68713124452656,,0.5152611939600454,,
,6029.0,1274.0,7846.0,1843.0,1844.0,2828.0,2043.0,,,,-1.89742038181778,-2.97922580785514,-1.68703432858719,,0.007891991594860452,,
,6032.0,1276.0,7846.0,1845.0,1844.0,2822.0,2072.0,,,,-1.8980907745231,-2.97924244907983,-1.68680910678063,,-0.435142334260151,,
,6040.0,1274.0,7845.0,1845.0,1822.0,2837.0,2059.0,,,,-1.89667961039867,-2.97940268322519,-1.68746966512347,,-0.8175243583738863,,
,6040.0,1279.0,7846.0,1846.0,1824.0,2835.0,2057.0,,,,-1.89706043498151,-2.97921132863988,-1.68717789429551,,-1.1443882487922508,,
,6043.0,1276.0,7849.0,1848.0,1824.0,2853.0,2052.0,,,,-1.89660991411958,-2.97934875988685,-1.68661965335106,,-1.4217365389499692,,
,6047.0,1280.0,7848.0,1847.0,1838.0,2827.0,2064.0,,,,-1.89658021969275,-2.97931667186246,-1.68735502486544,,-1.6559499575111443,,
,6048.0,1280.0,7847.0,1850.0,1835.0,2845.0,2074.0,,,,-1.89556538520072,-2.97919280267907,-1.68675629895456,,-1.8534078110040937,,
,6058.0,1284.0,7849.0,1851.0,1836.0,2840.0,2075.0,,,,-1.8951258088141,-2.97910210554769,-1.68658089907488,,-2.0202200269176926,,
,6059.0,1285.0,7848.0,1850.0,1837.0,2842.0,2070.0,,,,-1.89433727388461,-2.97911828419475,-1.68617279227211,,-2.162060134363041,,
,6063.0,1283.0,7850.0,1850.0,1820.0,2827.0,2046.0,,,,-1.89383162172488,-2.97911983290809,-1.68681455711419,,-2.284081367886996,,
,6066.0,1285.0,7847.0,1852.0,1835.0,2841.0,2042.0,,,,-1.89342540263877,-2.9792320666454,-1.68625118180352,,-2.3908951178345363,,
,6071.0,1287.0,7847.0,1852.0,1834.0,2858.0,2049.0,,,,-1.89274376986958,-2.97931356232078,-1.68592333726475,,-2.4865912258670866,,
,6073.0,1285.0,7851.0,1854.0,1836.0,2860.0,2051.0,,,,-1.89313835946176,-2.97915259563213,-1.68574996929715,,-2.5747821328756038,,
,6076.0,1287.0,7848.0,1852.0,1825.0,2846.0,2051.0,,,,-1.89218410559325,-2.9791877999861,-1.68565146313306,,-2.658656604865452,,
,6078.0,1286.0,7847.0,1855.0,1834.0,2830.0,2053.0,,,,-1.89249398188501,-2.97921303445013,-1.68540527330874,,-2.7410327840292945,,
,6082.0,1290.0,7850.0,1857.0,1826.0,2843.0,2042.0,,,,-1.89284310084081,-2.97930669588689,-1.68615156585907,,-2.824403962532116,,
,6087.0,1291.0,7852.0,1859.0,1825.0,2844.0,2049.0,,,,-1.89246528921563,-2.97920978413583,-1.68601692446283,,-2.910973338062202,,
,6091.0,1292.0,7850.0,1857.0,1829.0,2832.0,2061.0,,,,-1.89316168245087,-2.97929267765574,-1.68631080177195,,-3.002675914008061,,
,6095.0,1293.0,7848.0,1859.0,1818.0,2860.0,2045.0,,,,-1.89428176181098,-2.97921228565832,-1.68637660860523,,-3.1011866970971353,,
,6098.0,1295.0,7849.0,1859.0,1835.0,2848.0,2041.0,,,,-1.89480647372336,-2.97924216267379,-1.68681344480914,,-3.2079145208540796,,
,6101.0,1296.0,7852.0,1860.0,1837.0,2816.0,2065.0,,,,-1.89407483125766,-2.97920302066245,-1.68647947960112,,-3.3239801213864126,,
,6106.0,1296.0,7852.0,1860.0,1848.0,2817.0,2072.0,,,,-1.8951981316739,-2.97929205567671,-1.68695753313331,,-3.450175305544792,,
,6106.0,1295.0,7847.0,1860.0,1841.0,2847.0,2066.0,,,,-1.89603292338527,-2.97923280064803,-1.6867556087058,,-3.5868973322312487,,
,6113.0,1297.0,7853.0,1862.0,1831.0,2842.0,2062.0,,,,-1.89497655724119,-2.97937374869945,-1.68683787700864,,-3.7340502106191757,,
,6117.0,1299.0,7853.0,1865.0,1830.0,2835.0,2052.0,,,,-1.89582166150725,-2.97932801902697,-1.68644124237142,,-3.890904846267997,,
,6118.0,1297.0,7850.0,1864.0,1829.0,2836.0,2050.0,,,,-1.89652419149552,-2.97943804429566,-1.68805657550901,,-4.055915021136785,,
,6124.0,1297.0,7852.0,1864.0,1813.0,2846.0,2054.0,,,,-1.89534278524311,-2.97924497013483,-1.6879750916741,,-4.226496398736323,,
,6128.0,1297.0,7850.0,1864.0,1827.0,2847.0,2061.0,,,,-1.89567847110218,-2.97937760040143,-1.68812751823831,,-4.398788929795419,,
,6132.0,1302.0,7851.0,1867.0,1829.0,2837.0,2070.0,,,,-1.89606770661648,-2.97941405889956,-1.68781517909813,,-4.567435488897177,,
,6135.0,1302.0,7854.0,1867.0,1837.0,2819.0,2074.0,,,,-1.89581342786155,-2.97932507987558,-1.68762203084325,,-4.725417819857722,,
,6140.0,1303.0,7853.0,1865.0,1833.0,2811.0,2077.0,,,,-1.89566003352038,-2.97925066537912,-1.68785870349657,,-4.863992932563679,,
,6143.0,1304.0,7853.0,1866.0,1840.0,2841.0,2085.0,,,,-1.89556468193971,-2.97924945832862,-1.68769227741099,,-4.972768555230067,,
,6146.0,1305.0,7852.0,1869.0,1826.0,2847.0,2054.0,,,,-1.89503860723255,-2.97939277564142,-1.68785890180651,,-5.039945577817907,,
,6150.0,1305.0,7855.0,1870.0,1834.0,2834.0,2064.0,,,,-1.8953732035321,-2.97922156569897,-1.68770653730493,,-5.052739603002281,,
,6155.0,1307.0,7853.0,1870.0,1829.0,2834.0,2071.0,,,,-1.89288650889624,-2.97930273075373,-1.68696471744283,,-4.997974287257619,,
,6160.0,1307.0,7851.0,1870.0,1830.0,2839.0,2062.0,,,,-1.89266816094404,-2.97945226337139,-1.68669603852263,,-4.862818283098634,,
,6163.0,1310.0,7850.0,1869.0,1838.0,2854.0,2055.0,,,,-1.89236383538654,-2.97933317567231,-1.68637012666892,,-4.635617974320575,,
,6166.0,1311.0,7851.0,1872.0,1841.0,2846.0,2071.0,,,,-1.89259670591238,-2.97942360959489,-1.68712586433729,,-4.306762658115226,,
,6165.0,1311.0,7854.0,1873.0,1829.0,2853.0,2070.0,,,,-1.89209125116574,-2.97937054148312,-1.68646481588656,,-3.8695097862512693,,
,6164.0,1308.0,7852.0,1871.0,1827.0,2857.0,2073.0,,,,-1.89186326339426,-2.97941357447537,-1.68670339848665,,-3.3206968735598914,,
,6158.0,1307.0,7851.0,1869.0,1845.0,2848.0,2058.0,,,,-1.89185724910791,-2.97928335107826,-1.68607244945279,,-2.6612742000776457,,
,6150.0,1305.0,7851.0,1868.0,1839.0,2822.0,2060.0,,,,-1.89220109074302,-2.97925168941176,-1.68676049104094,,-1.8966078928595438,,
,6132.0,1304.0,7849.0,1863.0,1838.0,2833.0,2073.0,,,,-1.8926333290732,-2.97926778087678,-1.68671236081073,,-1.036524779511088,,
,6117.0,1298.0,7849.0,1862.0,1833.0,2848.0,2072.0,,,,-1.89180968615929,-2.97926103970393,-1.68673390321622,,-0.0950959495169979,,
,6096.0,1292.0,7848.0,1855.0,1818.0,2854.0,2064.0,,,,-1.89161785160728,-2.97943418488269,-1.68693688817124,,0.9098184920069285,,
,6075.0,1284.0,7845.0,1848.0,1837.0,2840.0,2062.0,,,,-1.89139330909437,-2.97937604641135,-1.68680545655223,,1.9572200142274985,,
,6054.0,1278.0,7847.0,1846.0,1836.0,2834.0,2062.0,,,,-1.89186597334771,-2.97909397537837,-1.68634352838515,,3.0237617325373023,,
,6038.0,1275.0,7846.0,1840.0,1830.0,2828.0,2049.0,,,,-1.89162714053473,-2.97936765071545,-1.68690972247884,,4.084619825119682,,
,6021.0,1269.0,7847.0,1835.0,1828.0,2836.0,2043.0,,,,-1.89110483215762,-2.97919896890082,-1.6865324163091,,5.114394439510591,,
,6003.0,1263.0,7846.0,1831.0,1831.0,2843.0,2051.0,,,,-1.89171312542636,-2.97905952158409,-1.68708850984169,,6.087999635813853,,
,5990.0,1261.0,7846.0,1828.0,1837.0,2842.0,2045.0,,,,-1.89215447413504,-2.9792855976224,-1.68750035696921,,6.981514781400252,,
,5979.0,1256.0,7844.0,1825.0,1832.0,2833.0,2048.0,,,,-1.8912310359154,-2.97917435218599,-1.68622488322141,,7.772981068732726,,
,5971.0,1255.0,7845.0,1824.0,1821.0,2838.0,2039.0,,,,-1.89231170029012,-2.97925473448517,-1.6866243574829,,8.443134113217948,,
,5959.0,1253.0,7843.0,1820.0,1833.0,2838.0,2055.0,,,,-1.89185752070603,-2.97932357956464,-1.68703205712014,,8.976065489772624,,
,5954.0,1253.0,7842.0,1818.0,1839.0,2853.0,2066.0,,,,-1.89113876479666,-2.97926860904189,-1.68659800105033,,9.35980243117235,,
,5949.0,1252.0,7843.0,1819.0,1828.0,2837.0,2047.0,,,,-1.89053761749936,-2.97920186482482,-1.68699192036596,,9.586786913533496,,
,5945.0,1251.0,7844.0,1818.0,1830.0,2833.0,2048.0,,,,-1.89106015433003,-2.97923729964292,-1.68647373220303,,9.654225367098087,,
,5942.0,1251.0,7844.0,1818.0,1827.0,2836.0,2046.0,,,,-1.88984010709955,-2.97919194232409,-1.68656394080315,,9.56427159463555,,
,5939.0,1250.0,7843.0,1817.0,1834.0,2855.0,2052.0,,,,-1.88959830168516,-2.97916504376068,-1.68671999498575,,9.324001917500238,,
,5940.0,1250.0,7845.0,1818.0,1832.0,2846.0,2064.0,,,,-1.8896512767956,-2.97938810647259,-1.68578419849506,,8.945146515084073,,
,5937.0,1250.0,7843.0,1818.0,1818.0,2846.0,2051.0,,,,-1.8887060873168,-2.97913544637729,-1.68620617460651,,8.44355656669393,,
,5938.0,1251.0,7842.0,1820.0,1812.0,2859.0,2055.0,,,,-1.88954494114108,-2.97917231975579,-1.68677015158705,,7.838413174328236,,
,5935.0,1251.0,7843.0,1820.0,1829.0,2846.0,2054.0,,,,-1.89089089920127,-2.9791026955336,-1.68570346808465,,7.151217894798772,,
,5935.0,1250.0,7842.0,1818.0,1841.0,2837.0,2055.0,,,,-1.89099343167357,-2.97904450926347,-1.68615565333935,,6.404638942770773,,
,5933.0,1251.0,7845.0,1819.0,1850.0,2834.0,2047.0,,,,-1.89147307312279,-2.97917131066216,-1.68581393264161,,5.621312477583301,,
,5935.0,1249.0,7845.0,1821.0,1844.0,2840.0,2059.0,,,,-1.8917395719569,-2.97914857558213,-1.68617238724417,,4.8227075496813505,,
,5933.0,1249.0,7845.0,1822.0,1830.0,2845.0,2057.0,,,,-1.89327922394146,-2.97928682501172,-1.68571028866971,,4.028154401942643,,
,5931.0,1250.0,7839.0,1821.0,1846.0,2848.0,2068.0,,,,-1.89306154583904,-2.97908538516507,-1.68635125640215,,3.2541124246600943,,
,5937.0,1251.0,7847.0,1820.0,1844.0,2843.0,2076.0,,,,-1.89519714285127,-2.97917062393031,-1.68618561555356,,2.513722284618761,,
,5937.0,1251.0,7844.0,1823.0,1822.0,2829.0,2070.0,,,,-1.89526361689426,-2.97904037713417,-1.68625621190609,,1.816652651714083,,
,5939.0,1253.0,7845.0,1825.0,1817.0,2829.0,2053.0,,,,-1.89642590968318,-2.97923155622812,-1.68623307841071,,1.1692203030750954,,
,5939.0,1251.0,7843.0,1823.0,1794.0,2830.0,2059.0,,,,-1.89770960496204,-2.97919785970092,-1.68691997828147,,0.5747365404585201,,
,5942.0,1251.0,7846.0,1825.0,1815.0,2844.0,2041.0,,,,-1.8975794280749,-2.9792243532484,-1.68703370460201,,0.03401492925480185,,
,5942.0,1253.0,7845.0,1826.0,1825.0,2842.0,2042.0,,,,-1.89891738020798,-2.97923275950085,-1.68855307769607,,-0.4540335882763584,,
,5946.0,1254.0,7846.0,1825.0,1825.0,2842.0,2045.0,,,,-1.89992487182702,-2.97925338856971,-1.68731219848761,,-0.891792000538694,,
,5947.0,1256.0,7848.0,1829.0,1818.0,2839.0,2057.0,,,,-1.9005292637661,-2.97908799426817,-1.68770994797298,,-1.2823801063194495,,
,5948.0,1252.0,7845.0,1824.0,1819.0,2834.0,2062.0,,,,-1.90022815171464,-2.97945165986338,-1.68758261329782,,-1.6291983051659882,,
,5952.0,1255.0,7845.0,1827.0,1816.0,2836.0,2052.0,,,,-1.90136060546232,-2.97915946567542,-1.68804439677672,,-1.9356009087210957,,
,5952.0,1254.0,7847.0,1828.0,1810.0,2849.0,2051.0,,,,-1.90150094269544,-2.9792204823446,-1.68730420171952,,-2.2047053805723826,,
,5955.0,1255.0,7844.0,1829.0,1807.0,2843.0,2061.0,,,,-1.90182250811981,-2.97922572472788,-1.68864956660313,,-2.4393243966145324,,
,5958.0,1256.0,7845.0,1829.0,1814.0,2837.0,2057.0,,,,-1.90139152138866,-2.97924018082632,-1.68760216673344,,-2.641994175461968,,
,5956.0,1256.0,7845.0,1826.0,1819.0,2815.0,2062.0,,,,-1.90204801800186,-2.97924861479297,-1.68746979140547,,-2.815066291770778,,
,5956.0,1257.0,7845.0,1828.0,1829.0,2831.0,2066.0,,,,-1.90217982300115,-2.97924556370148,-1.6880968245828,,-2.9608299844963177,,
,5957.0,1257.0,7847.0,1830.0,1825.0,2828.0,2061.0,,,,-1.9011656863579,-2.97930856650532,-1.68700970084962,,-3.081635612216969,,
,5956.0,1258.0,7847.0,1827.0,1836.0,2834.0,2051.0,,,,-1.90061149100733,-2.97921383125863,-1.68812217756289,,-3.1799954425417143,,
,5953.0,1254.0,7846.0,1826.0,1827.0,2831.0,2074.0,,,,-1.90088498470773,-2.9790915050535,-1.68774447779775,,-3.2586441976765905,,
,5957.0,1256.0,7847.0,1829.0,1829.0,2841.0,2075.0,,,,-1.90008329321934,-2.97920452007896,-1.68747416828174,,-3.3205481956480414,,
,5955.0,1254.0,7847.0,1830.0,1805.0,2851.0,2066.0,,,,-1.89903602423889,-2.97918463218473,-1.68698278464212,,-3.3688583936781207,,
,5957.0,1256.0,7847.0,1831.0,1812.0,2844.0,2064.0,,,,-1.89876436309188,-2.97905702304538,-1.68622494037867,,-3.406809133295118,,
,5958.0,1256.0,7845.0,1827.0,1820.0,2846.0,2076.0,,,,-1.89659249987706,-2.97901124226472,-1.68579355919677,,-3.437570860937768,,
,5957.0,1256.0,7845.0,1828.0,1833.0,2853.0,2072.0,,,,-1.89587348560134,-2.97880347789646,-1.68420098459828,,-3.464071424062542,,
,5958.0,1256.0,7850.0,1830.0,1839.0,2825.0,2062.0,,,,-1.89423837972913,-2.9788574697829,-1.68464356864693,,-3.488806356558156,,
,5959.0,1256.0,7848.0,1831.0,1847.0,2828.0,2070.0,,,,-1.8924621001516,-2.97877408856752,-1.68348220720952,,-3.513663075235412,,
,5959.0,1256.0,7849.0,1830.0,1821.0,2829.0,2060.0,,,,-1.89152682424501,-2.97884131482125,-1.68321080997292,,-3.539785896662861,,
,5960.0,1255.0,7847.0,1831.0,1827.0,2841.0,2046.0,,,,-1.89079409027772,-2.97868843794882,-1.68258138865481,,-3.567506949102233,,
,5965.0,1258.0,7848.0,1830.0,1828.0,2838.0,2056.0,,,,-1.89005401513825,-2.97864499477385,-1.68241158319387,,-3.5963615388295165,,
,5966.0,1260.0,7847.0,1836.0,1834.0,2853.0,2075.0,,,,-1.88870390947887,-2.97862804773781,-1.68136612955524,,-3.625195482929794,,
,5971.0,1259.0,7845.0,1831.0,1832.0,2864.0,2058.0,,,,-1.88753918167591,-2.97866785664362,-1.68136391388986,,-3.6523579665993466,,
2025-07-15 19:28:33,5970.0,1259.0,7848.0,1832.0,1824.0,2854.0,2046.0,,,2025/07/15 07:28:33 PM,-1.88733192133749,-2.97862989832926,-1.68111833745959,,-3.6759596587603127,,
,5972.0,1260.0,7845.0,1832.0,1828.0,2825.0,2041.0,,,,-1.88706337035909,-2.97849157198389,-1.68002281492949,,-3.69416551860762,,
,5977.0,1262.0,7850.0,1836.0,1821.0,2827.0,2042.0,,,,-1.88752537214628,-2.9784348797496,-1.68003868250729,,-3.7054870987831565,,
,5981.0,1262.0,7849.0,1835.0,1823.0,2828.0,2053.0,,,,-1.88565652150233,-2.97827098416816,-1.67992569914919,,-3.709040215778446,,
,5982.0,1263.0,7850.0,1837.0,1816.0,2826.0,2068.0,,,,-1.88447343439642,-2.97847106895671,-1.67915814848732,,-3.704738993364875,,
,5990.0,1263.0,7848.0,1835.0,1806.0,2841.0,2067.0,,,,-1.88488460295697,-2.97824780244853,-1.67849864165306,,-3.693404516951986,,
,5992.0,1263.0,7849.0,1837.0,1813.0,2852.0,2068.0,,,,-1.88332872093711,-2.97834464102089,-1.67872452468056,,-3.6767743107396376,,
,5998.0,1268.0,7852.0,1839.0,1814.0,2841.0,2065.0,,,,-1.882301311095,-2.9782679122053,-1.6778822196987,,-3.6574069493181547,,
,5999.0,1268.0,7850.0,1838.0,1808.0,2848.0,2064.0,,,,-1.8814991580737,-2.97825124844882,-1.6771679063705,,-3.638484083087751,,
,6006.0,1267.0,7853.0,1840.0,1812.0,2831.0,2064.0,,,,-1.88055417050313,-2.97804116093302,-1.67635825702909,,-3.6235198267912727,,
,6009.0,1268.0,7852.0,1840.0,1811.0,2849.0,2054.0,,,,-1.87934266894323,-2.97810839067015,-1.6763212931809,,-3.6159947675124204,,
,6012.0,1272.0,7851.0,1844.0,1808.0,2842.0,2065.0,,,,-1.87808827024766,-2.9781633061935,-1.67634167643934,,-3.6189388219232566,,
,6016.0,1272.0,7853.0,1843.0,1823.0,2833.0,2078.0,,,,-1.87927066176175,-2.97815784695188,-1.67604027480117,,-3.634493731216054,,
,6019.0,1271.0,7851.0,1843.0,1834.0,2826.0,2068.0,,,,-1.87809915016119,-2.9780165471003,-1.67580686523991,,-3.663491692853229,,
,6024.0,1274.0,7851.0,1843.0,1816.0,2860.0,2060.0,,,,-1.87905964166717,-2.97808827398312,-1.67516182634093,,-3.7050906282155935,,
,6028.0,1275.0,7852.0,1847.0,1814.0,2845.0,2048.0,,,,-1.87755084711642,-2.97796071564625,-1.67586309223448,,-3.756507655002814,,
,6034.0,1277.0,7853.0,1846.0,1822.0,2839.0,2055.0,,,,-1.87791746875648,-2.97798778206699,-1.67666136375196,,-3.8128890670350772,,
,6039.0,1277.0,7852.0,1845.0,1817.0,2851.0,2052.0,,,,-1.87786531748084,-2.9779594813487,-1.67514320008135,,-3.867346305963205,,
,6042.0,1278.0,7850.0,1845.0,1828.0,2841.0,2052.0,,,,-1.8779651776463,-2.97795600973391,-1.67469702641205,,-3.9111727187009206,,
,6046.0,1277.0,7852.0,1849.0,1832.0,2835.0,2060.0,,,,-1.87869313443695,-2.97793884437301,-1.67557194886492,,-3.93423672658953,,
,6050.0,1279.0,7854.0,1850.0,1822.0,2836.0,2051.0,,,,-1.87766321879008,-2.97786143057301,-1.67583790002811,,-3.925526680731058,,
,6055.0,1282.0,7855.0,1853.0,1821.0,2836.0,2045.0,,,,-1.87800000512082,-2.978027185989,-1.67551146144003,,-3.8738051881945057,,
,6058.0,1283.0,7851.0,1850.0,1829.0,2835.0,2043.0,,,,-1.87770102311018,-2.97786665390945,-1.67533355032384,,-3.7683189452205017,,
,6063.0,1283.0,7854.0,1854.0,1821.0,2827.0,2046.0,,,,-1.87731689246264,-2.97792756490719,-1.67584347642419,,-3.5995047639825426,,
,6068.0,1286.0,7855.0,1854.0,1833.0,2832.0,2061.0,,,,-1.87653441824229,-2.97787387695398,-1.67459747043336,,-3.35963267626012,,
,6072.0,1285.0,7854.0,1853.0,1832.0,2841.0,2061.0,,,,-1.8751635149375,-2.97787524328332,-1.67406267141091,,-3.0433319865224324,,
,6075.0,1287.0,7856.0,1856.0,1813.0,2843.0,2054.0,,,,-1.87424922223004,-2.97780765466416,-1.67442795655666,,-2.6479561486220593,,
,6078.0,1286.0,7854.0,1855.0,1818.0,2841.0,2053.0,,,,-1.87240985003237,-2.97775752999874,-1.67375368639552,,-2.173757953690546,,
,6084.0,1287.0,7855.0,1855.0,1813.0,2843.0,2062.0,,,,-1.87200585343386,-2.97773363076112,-1.6737964892935,,-1.623867345650143,,
,6087.0,1290.0,7856.0,1858.0,1824.0,2839.0,2067.0,,,,-1.87012921278146,-2.97765278870029,-1.6731409047702,,-1.0040879167103736,,
,6091.0,1291.0,7858.0,1857.0,1818.0,2842.0,2052.0,,,,-1.86848529403974,-2.97759460836131,-1.67234074387769,,-0.3225507826909978,,
,6093.0,1286.0,7856.0,1857.0,1827.0,2823.0,2043.0,,,,-1.86825039994508,-2.97751953707053,-1.67258876668486,,0.41071840179335667,,
,6099.0,1288.0,7851.0,1859.0,1802.0,2865.0,2049.0,,,,-1.86752608331047,-2.97748980699814,-1.67214252754707,,1.1842556286585109,,
,6102.0,1294.0,7855.0,1861.0,1815.0,2856.0,2071.0,,,,-1.86659713588549,-2.97758522389321,-1.67182917325759,,1.9855772149498347,,
,6109.0,1294.0,7857.0,1862.0,1814.0,2847.0,2069.0,,,,-1.86590492925209,-2.97756170429108,-1.67132166817789,,2.801513692924033,,
,6112.0,1295.0,7859.0,1861.0,1817.0,2842.0,2051.0,,,,-1.86559598403585,-2.97750072072817,-1.67191506125718,,3.6184334290644635,,
,6115.0,1293.0,7853.0,1863.0,1812.0,2850.0,2050.0,,,,-1.86562261474078,-2.97753790705929,-1.67156030406365,,4.422357265021718,,
,6118.0,1297.0,7859.0,1865.0,1821.0,2850.0,2054.0,,,,-1.86577419527266,-2.9774267345655,-1.67094650258885,,5.198992803680989,,
,6122.0,1298.0,7856.0,1865.0,1829.0,2835.0,2060.0,,,,-1.86446391541923,-2.97750355507164,-1.67075839790176,,5.93373972749565,,
,6127.0,1301.0,7858.0,1866.0,1832.0,2835.0,2062.0,,,,-1.86483099970442,-2.9773750762984,-1.67099262628486,,6.611730685595288,,
,6130.0,1299.0,7856.0,1866.0,1822.0,2830.0,2063.0,,,,-1.86395152220417,-2.9774587974134,-1.67035544917611,,7.217972282196588,,
,6133.0,1299.0,7858.0,1867.0,1826.0,2848.0,2075.0,,,,-1.86376671742142,-2.97761116165862,-1.67096018569855,,7.737637036104953,,
,6141.0,1303.0,7857.0,1870.0,1825.0,2852.0,2078.0,,,,-1.86247114105034,-2.97752679066166,-1.670706847052,,8.156532648942711,,
,6141.0,1304.0,7859.0,1870.0,1808.0,2837.0,2084.0,,,,-1.86272917875449,-2.97738996804152,-1.67025709976686,,8.461744131753077,,
,6146.0,1303.0,7857.0,1871.0,1808.0,2827.0,2074.0,,,,-1.86215707151053,-2.97739193381835,-1.67001179995311,,8.642411927842769,,
,6150.0,1303.0,7857.0,1870.0,1828.0,2833.0,2062.0,,,,-1.86287945429328,-2.97748431765497,-1.67019887297179,,8.690579120478876,,
,6155.0,1305.0,7861.0,1872.0,1838.0,2843.0,2093.0,,,,-1.86194590737513,-2.97737155145436,-1.67031658653434,,8.602016809835195,,
,6162.0,1306.0,7859.0,1873.0,1831.0,2830.0,2081.0,,,,-1.8609704686201,-2.97736024107421,-1.67060627746057,,8.376922565518106,,
,6165.0,1309.0,7859.0,1876.0,1823.0,2834.0,2074.0,,,,-1.86128210569884,-2.97743710380564,-1.67029571637004,,8.020386260172673,,
,6167.0,1309.0,7857.0,1875.0,1832.0,2834.0,2072.0,,,,-1.86052623927517,-2.97748044963037,-1.67046428165504,,7.542533385033283,,
,6172.0,1311.0,7859.0,1874.0,1840.0,2844.0,2079.0,,,,-1.86066203035089,-2.97742684307102,-1.66955884196974,,6.958288381234205,,
,6179.0,1310.0,7862.0,1877.0,1837.0,2848.0,2074.0,,,,-1.86108627245087,-2.9773746086875,-1.66921011602571,,6.2867456376709825,,
,6183.0,1311.0,7860.0,1875.0,1834.0,2848.0,2077.0,,,,-1.86103932086898,-2.97734973251186,-1.66968645405258,,5.550185450781436,,
,6184.0,1312.0,7859.0,1877.0,1833.0,2831.0,2057.0,,,,-1.86016924303176,-2.97755581741686,-1.67042896187859,,4.772816587385228,,
,6190.0,1310.0,7855.0,1877.0,1821.0,2830.0,2043.0,,,,-1.86087518960251,-2.97747902551095,-1.66952987121075,,3.9793583982824265,,
,6197.0,1314.0,7860.0,1878.0,1820.0,2855.0,2042.0,,,,-1.86054632285929,-2.97727163304003,-1.6698045066427,,3.1935904029555457,,
,6202.0,1316.0,7861.0,1881.0,1811.0,2849.0,2056.0,,,,-1.86174492098307,-2.97742896151616,-1.67027947730767,,2.436996649517867,,
,6206.0,1317.0,7861.0,1883.0,1823.0,2848.0,2066.0,,,,-1.86209831770535,-2.9774123363523,-1.67072898880382,,1.7276185411607075,,
,6210.0,1318.0,7860.0,1882.0,1826.0,2839.0,2074.0,,,,-1.86174647023257,-2.97734368660511,-1.67020258344184,,1.0792058824150554,,
,6214.0,1319.0,7861.0,1884.0,1819.0,2844.0,2074.0,,,,-1.86250834518265,-2.97753612639874,-1.67011214373261,,0.5007243004867383,,
,6218.0,1322.0,7862.0,1883.0,1834.0,2843.0,2069.0,,,,-1.86346004293161,-2.97755691100899,-1.67085657808845,,-0.003758628766353957,,
,6225.0,1322.0,7863.0,1888.0,1846.0,2847.0,2078.0,,,,-1.86348583669286,-2.97754325980253,-1.67109827570812,,-0.43482197366884723,,
,6227.0,1321.0,7861.0,1886.0,1846.0,2834.0,2083.0,,,,-1.86235597073294,-2.97743257124935,-1.6722068190132,,-0.7971196113651864,,
,6234.0,1322.0,7861.0,1885.0,1849.0,2836.0,2052.0,,,,-1.86301169131479,-2.97764951320008,-1.67111490883746,,-1.0985568403099097,,
,6234.0,1323.0,7859.0,1888.0,1842.0,2845.0,2054.0,,,,-1.86337127945797,-2.97756223738945,-1.67051297258425,,-1.3492995543768458,,
,6235.0,1325.0,7860.0,1886.0,1830.0,2845.0,2052.0,,,,-1.86239727844833,-2.97746425551545,-1.67035393146236,,-1.5607066542914156,,
,6233.0,1325.0,7860.0,1883.0,1829.0,2835.0,2066.0,,,,-1.86219752843916,-2.97740310641135,-1.6713596027841,,-1.7442752110444233,,
,6224.0,1322.0,7858.0,1884.0,1845.0,2840.0,2073.0,,,,-1.86263231338593,-2.9774469842928,-1.67145316375911,,-1.9106802418044166,,
,6209.0,1319.0,7858.0,1881.0,1825.0,2845.0,2056.0,,,,-1.86121601969819,-2.97737390860571,-1.6708988079091,,-2.0689781295454384,,
,6195.0,1315.0,7858.0,1877.0,1823.0,2829.0,2066.0,,,,-1.85951757698521,-2.97741314898195,-1.66971815029884,,-2.226026144183032,,
,6175.0,1307.0,7857.0,1873.0,1823.0,2843.0,2065.0,,,,-1.85841248426818,-2.9774554987286,-1.6701110120685,,-2.3861516331871226,,
,6152.0,1303.0,7855.0,1865.0,1825.0,2846.0,2076.0,,,,-1.858272161439,-2.97740657799199,-1.66965886010738,,-2.5510843719119065,,
,6128.0,1295.0,7855.0,1860.0,1801.0,2841.0,2060.0,,,,-1.85839008804017,-2.97731660785093,-1.66904685334119,,-2.720144968892827,,
,6109.0,1289.0,7855.0,1854.0,1822.0,2824.0,2071.0,,,,-1.85778044825764,-2.97722655979182,-1.67013195404746,,-2.890661525212429,,
,6086.0,1283.0,7853.0,1848.0,1815.0,2822.0,2076.0,,,,-1.85748722634879,-2.97733613902226,-1.6699697576973,,-3.058566610863065,,
,6070.0,1275.0,7855.0,1843.0,1810.0,2854.0,2073.0,,,,-1.85769740974495,-2.97729688892572,-1.67021074718347,,-3.219108570043528,,
,6052.0,1270.0,7851.0,1837.0,1811.0,2863.0,2067.0,,,,-1.85676683637541,-2.97731680729999,-1.66901035646096,,-3.3675979487634007,,
,6035.0,1267.0,7852.0,1837.0,1831.0,2849.0,2074.0,,,,-1.85687269487453,-2.97737508526947,-1.66994401427447,,-3.500104844855354,,
,6026.0,1265.0,7853.0,1833.0,1828.0,2870.0,2082.0,,,,-1.85643794179332,-2.97736672665785,-1.66980335190114,,-3.614028595041461,,
,6013.0,1261.0,7851.0,1830.0,1823.0,2873.0,2070.0,,,,-1.8556101212343,-2.97733673921634,-1.66912526847146,,-3.7084772315246948,,
,6004.0,1258.0,7850.0,1829.0,1814.0,2843.0,2057.0,,,,-1.85560698219319,-2.97735037823618,-1.66984545741234,,-3.7844176820536837,,
,5999.0,1258.0,7852.0,1828.0,1804.0,2829.0,2061.0,,,,-1.85416281058255,-2.9772553004591,-1.66868083636483,,-3.844584536291348,,
,5995.0,1257.0,7851.0,1828.0,1814.0,2854.0,2034.0,,,,-1.85328329979711,-2.97731697486138,-1.66881846528561,,-3.893161329250495,,
,5988.0,1259.0,7852.0,1828.0,1822.0,2857.0,2033.0,,,,-1.85215441896859,-2.97738151199621,-1.66881629660288,,-3.935270741582495,,
,5984.0,1257.0,7850.0,1828.0,1823.0,2854.0,2060.0,,,,-1.8519235455887,-2.97725982355403,-1.66784105363456,,-3.9763272035397583,,
,5982.0,1256.0,7849.0,1827.0,1816.0,2865.0,2045.0,,,,-1.85132586147875,-2.97728466544888,-1.66785056064301,,-4.021316461096087,,
,5983.0,1255.0,7853.0,1827.0,1831.0,2866.0,2058.0,,,,-1.85053283485592,-2.97714708180264,-1.66753618735508,,-4.074071700713904,,
,5982.0,1256.0,7852.0,1829.0,1834.0,2849.0,2045.0,,,,-1.8506510112308,-2.97717706776434,-1.66675496925195,,-4.136615162096346,,
,5981.0,1256.0,7851.0,1831.0,1836.0,2846.0,2045.0,,,,-1.84916145957269,-2.9771729857735,-1.66655419852693,,-4.208628347234795,,
,5980.0,1257.0,7850.0,1830.0,1843.0,2830.0,2043.0,,,,-1.84847875082709,-2.97716408208907,-1.66679805149999,,-4.287103675918762,,
,5981.0,1257.0,7848.0,1830.0,1842.0,2842.0,2047.0,,,,-1.84798747700466,-2.97698624642653,-1.6656318360673,,-4.366216496443222,,
,5980.0,1257.0,7855.0,1831.0,1839.0,2833.0,2061.0,,,,-1.84847013894125,-2.97703964692096,-1.66579839898649,,-4.43743933537438,,
,5979.0,1257.0,7851.0,1829.0,1830.0,2838.0,2064.0,,,,-1.84835075047978,-2.97708216868219,-1.6656415270312,,-4.489900603837912,,
,5982.0,1257.0,7852.0,1831.0,1834.0,2861.0,2068.0,,,,-1.84988048895687,-2.97707386386481,-1.66496388732492,,-4.510968366099608,,
,5980.0,1255.0,7852.0,1829.0,1824.0,2839.0,2067.0,,,,-1.8496841270112,-2.97722766128046,-1.66623825001192,,-4.48701786892239,,
,5978.0,1256.0,7852.0,1831.0,1825.0,2837.0,2071.0,,,,-1.85144882991793,-2.97713433032778,-1.66687195285068,,-4.404322304697624,,
,5977.0,1257.0,7853.0,1830.0,1833.0,2833.0,2076.0,,,,-1.85239808375349,-2.97717942498696,-1.6665046953472,,-4.249993315828576,,
,5980.0,1256.0,7852.0,1832.0,1821.0,2828.0,2073.0,,,,-1.8520435408351,-2.9772683208846,-1.66792803081539,,-4.012893519279972,,
,5981.0,1256.0,7851.0,1830.0,1822.0,2840.0,2059.0,,,,-1.85314547161984,-2.9771939627636,-1.66806349735839,,-3.6844480387774725,,
,5984.0,1257.0,7854.0,1831.0,1816.0,2828.0,2088.0,,,,-1.85312262667404,-2.97720630433415,-1.66813042062326,,-3.2592941524520946,,
,5988.0,1258.0,7853.0,1834.0,1823.0,2818.0,2069.0,,,,-1.85467899561009,-2.97719560074641,-1.66876517827963,,-2.7357259375481937,,
,5987.0,1259.0,7855.0,1835.0,1824.0,2822.0,2064.0,,,,-1.8555217758197,-2.97722695138258,-1.66774201930295,,-2.115912833461395,,
,5990.0,1261.0,7853.0,1833.0,1832.0,2824.0,2068.0,,,,-1.85501920680401,-2.97751096193642,-1.66945097897215,,-1.405895398332804,,
,5992.0,1260.0,7855.0,1834.0,1841.0,2830.0,2071.0,,,,-1.85708662082836,-2.97752908444801,-1.6700445518369,,-0.6153845897279763,,
,5993.0,1259.0,7855.0,1836.0,1825.0,2839.0,2077.0,,,,-1.8582302995648,-2.97749411710108,-1.67087673732003,,0.24259210807408657,,
,5995.0,1263.0,7855.0,1837.0,1826.0,2846.0,2074.0,,,,-1.85830840968255,-2.97748501116439,-1.67144566261664,,1.1521473408311405,,
,5996.0,1260.0,7855.0,1835.0,1827.0,2838.0,2066.0,,,,-1.8589723222826,-2.97753622871686,-1.67135703252151,,2.095046935488289,,
,5997.0,1262.0,7851.0,1835.0,1815.0,2850.0,2057.0,,,,-1.85983737847452,-2.9774623410245,-1.67185407011774,,3.051245662370272,,
,5998.0,1259.0,7854.0,1835.0,1819.0,2848.0,2048.0,,,,-1.85930530339885,-2.97763934691812,-1.6722215172774,,3.9994287302051115,,
,6000.0,1261.0,7854.0,1837.0,1829.0,2814.0,2054.0,,,,-1.86016843922328,-2.97750421055276,-1.67112001692405,,4.917557638197019,,
,6000.0,1263.0,7855.0,1837.0,1822.0,2827.0,2075.0,,,,-1.85997348439368,-2.97748345581978,-1.67123808887907,,5.78343003748043,,
,5999.0,1261.0,7854.0,1836.0,1812.0,2820.0,2058.0,,,,-1.859816423948,-2.97763351179724,-1.6713945650605,,6.575268394171362,,
,5999.0,1260.0,7854.0,1837.0,1809.0,2839.0,2054.0,,,,-1.85940797691261,-2.97757602880151,-1.67017163262853,,7.272351265345571,,
,5999.0,1260.0,7854.0,1835.0,1819.0,2832.0,2062.0,,,,-1.85950585834377,-2.97768359651264,-1.67046307480689,,7.855693664887331,,
,6001.0,1262.0,7853.0,1837.0,1833.0,2825.0,2066.0,,,,-1.85845844828514,-2.97767171189792,-1.6701273044958,,8.308769346995158,,
,5998.0,1261.0,7854.0,1838.0,1831.0,2830.0,2060.0,,,,-1.85770537670671,-2.97757740076473,-1.67041771672991,,8.618249285673489,,
,5999.0,1261.0,7855.0,1836.0,1822.0,2852.0,2068.0,,,,-1.85822180831106,-2.97759522761517,-1.67053342907238,,8.774710463527105,,
,6001.0,1260.0,7853.0,1837.0,1846.0,2839.0,2061.0,,,,-1.85733220058248,-2.97756079304881,-1.66976562422798,,8.773251851529201,,
,6005.0,1261.0,7858.0,1839.0,1831.0,2842.0,2073.0,,,,-1.85722081790927,-2.97758375104979,-1.67012961551811,,8.613944918795188,,
,6003.0,1262.0,7855.0,1838.0,1826.0,2844.0,2053.0,,,,-1.85805473741339,-2.97759947544274,-1.66941115020223,,8.302048141082903,,
,6001.0,1260.0,7857.0,1838.0,1838.0,2829.0,2049.0,,,,-1.85772215527662,-2.97770732424871,-1.66987574473919,,7.847930959257483,,
,6004.0,1261.0,7855.0,1837.0,1840.0,2833.0,2061.0,,,,-1.8584855735007,-2.97750123320283,-1.67018043807924,,7.266681629056496,,
,6007.0,1261.0,7858.0,1840.0,1835.0,2837.0,2049.0,,,,-1.85868090603008,-2.97757705818345,-1.67059757765231,,6.577410627919246,,
,6008.0,1264.0,7859.0,1840.0,1841.0,2849.0,2055.0,,,,-1.85975761614562,-2.97772776953995,-1.6712701067407,,5.802298657226755,,
,6011.0,1265.0,7855.0,1841.0,1847.0,2842.0,2064.0,,,,-1.85961651926452,-2.97764204484637,-1.67114652082804,,4.965467220492813,,
,6015.0,1264.0,7857.0,1839.0,1863.0,2835.0,2043.0,,,,-1.86088969707637,-2.97779517075125,-1.67124525291984,,4.091764839275784,,
,6015.0,1265.0,7858.0,1843.0,1847.0,2835.0,2044.0,,,,-1.86154542058476,-2.97756824091418,-1.67143728423045,,3.2055627551596673,,
,6020.0,1266.0,7859.0,1843.0,1848.0,2858.0,2060.0,,,,-1.86252674429077,-2.97768015534568,-1.67210882510517,,2.3296439962794215,,
2025-07-15 19:28:34,6024.0,1268.0,7858.0,1843.0,1847.0,2866.0,2064.0,,,2025/07/15 07:28:34 PM,-1.86313097303898,-2.9778715413909,-1.67136424292674,,1.4842538535873415,,
,6025.0,1267.0,7857.0,1843.0,1826.0,2851.0,2049.0,,,,-1.86469945252783,-2.97780570996367,-1.67215653999196,,0.6863620167891701,,
,6029.0,1268.0,7860.0,1844.0,1830.0,2845.0,2062.0,,,,-1.86396132660637,-2.97774870749782,-1.67294773858708,,-0.050831344412491146,,
,6031.0,1270.0,7860.0,1846.0,1831.0,2838.0,2053.0,,,,-1.864828257452,-2.9779597508743,-1.67231201103944,,-0.7181313541087534,,
,6038.0,1272.0,7862.0,1850.0,1826.0,2842.0,2080.0,,,,-1.86600998902328,-2.97791219567575,-1.67214741697846,,-1.3103302690579892,,
,6040.0,1270.0,7860.0,1847.0,1810.0,2845.0,2069.0,,,,-1.86557787622072,-2.97785826866956,-1.67304667617675,,-1.8259574617737806,,
,6043.0,1271.0,7858.0,1848.0,1828.0,2846.0,2061.0,,,,-1.86448485949429,-2.97788359452542,-1.67315019657978,,-2.266835088142075,,
,6049.0,1273.0,7859.0,1848.0,1827.0,2848.0,2057.0,,,,-1.86417717428184,-2.97782714206588,-1.67276609730845,,-2.637488218566029,,
,6050.0,1275.0,7861.0,1849.0,1832.0,2820.0,2056.0,,,,-1.86346006024574,-2.97783856411592,-1.67190909499452,,-2.9444643054601984,,
,6058.0,1275.0,7860.0,1851.0,1831.0,2833.0,2048.0,,,,-1.86341905498778,-2.97766483873713,-1.67161167060223,,-3.195617916201848,,
,6063.0,1277.0,7859.0,1853.0,1842.0,2830.0,2057.0,,,,-1.86201408889269,-2.97773440940846,-1.67141578046732,,-3.399413487295232,,
,6064.0,1275.0,7859.0,1850.0,1833.0,2828.0,2060.0,,,,-1.85994472876561,-2.97784044594105,-1.67071312850444,,-3.564292496240472,,
,6068.0,1279.0,7859.0,1852.0,1834.0,2846.0,2039.0,,,,-1.85972338199256,-2.97782758606441,-1.67146475607342,,-3.6981428631033193,,
,6073.0,1281.0,7862.0,1858.0,1817.0,2846.0,2057.0,,,,-1.8586677559666,-2.97768922791945,-1.67057315212992,,-3.8078984110242367,,
,6076.0,1282.0,7861.0,1856.0,1832.0,2839.0,2079.0,,,,-1.85850554662207,-2.97768012160108,-1.67058885956379,,-3.8992855755440425,,
,6082.0,1282.0,7861.0,1856.0,1836.0,2851.0,2053.0,,,,-1.85826881332381,-2.97760341209261,-1.67034063870316,,-3.976723807202003,,
,6086.0,1281.0,7861.0,1856.0,1842.0,2848.0,2054.0,,,,-1.85714467248524,-2.97756852673897,-1.67039441000939,,-4.04337534372985,,
,6091.0,1286.0,7864.0,1861.0,1838.0,2846.0,2055.0,,,,-1.85679486312154,-2.97776822319922,-1.67032745887652,,-4.101328725239602,,
,6096.0,1283.0,7859.0,1861.0,1830.0,2850.0,2062.0,,,,-1.85667399950378,-2.97760280075997,-1.67036672346495,,-4.1518879300650395,,
,6096.0,1285.0,7862.0,1859.0,1830.0,2839.0,2067.0,,,,-1.85710609695453,-2.97767135551387,-1.67043598216824,,-4.19592560215956,,
,6098.0,1286.0,7860.0,1858.0,1827.0,2840.0,2038.0,,,,-1.85741031257626,-2.97766621490823,-1.6709395662088,,-4.234246782177344,,
,6104.0,1287.0,7862.0,1860.0,1842.0,2848.0,2045.0,,,,-1.8588489752369,-2.97775023098072,-1.67039665984822,,-4.267902917465232,,
,6107.0,1290.0,7865.0,1863.0,1836.0,2852.0,2054.0,,,,-1.85854131355652,-2.97774054090869,-1.67165852356729,,-4.298398738056421,,
,6112.0,1290.0,7864.0,1863.0,1840.0,2861.0,2061.0,,,,-1.85958733778903,-2.97768514743149,-1.67158410089509,,-4.327748360917443,,
,6115.0,1290.0,7861.0,1861.0,1844.0,2839.0,2074.0,,,,-1.86050922300644,-2.97779997547971,-1.67067702955111,,-4.358359554362729,,
,6119.0,1287.0,7864.0,1863.0,1831.0,2834.0,2081.0,,,,-1.86218337327003,-2.97787644664731,-1.67184508104929,,-4.3927515483913,,
,6123.0,1293.0,7865.0,1864.0,1844.0,2839.0,2079.0,,,,-1.86236825573114,-2.9779668620704,-1.67313029981036,,-4.433136665377929,,
,6126.0,1294.0,7864.0,1865.0,1848.0,2845.0,2069.0,,,,-1.8627215454717,-2.97799950873151,-1.67332974190787,,-4.480915384337061,,
,6129.0,1294.0,7864.0,1865.0,1833.0,2852.0,2066.0,,,,-1.86278089243222,-2.97807941614082,-1.67333526572779,,-4.536146522826718,,
,6134.0,1295.0,7864.0,1867.0,1826.0,2846.0,2040.0,,,,-1.86308635153877,-2.97802166867371,-1.67247702132646,,-4.597059025907721,,
,6140.0,1295.0,7863.0,1868.0,1827.0,2846.0,2063.0,,,,-1.86274867838305,-2.97801218198881,-1.67300742880127,,-4.659669997164358,,
,6143.0,1297.0,7864.0,1868.0,1827.0,2864.0,2065.0,,,,-1.8628620015752,-2.97800712888295,-1.67299353938387,,-4.717565687598853,,
,6145.0,1300.0,7869.0,1870.0,1820.0,2853.0,2085.0,,,,-1.86213686241896,-2.97794672329985,-1.67334468555303,,-4.761888886139001,,
,6149.0,1296.0,7865.0,1867.0,1826.0,2848.0,2073.0,,,,-1.86112994522419,-2.97796899848695,-1.67240890655777,,-4.7815585862329675,,
,6152.0,1297.0,7864.0,1871.0,1814.0,2850.0,2066.0,,,,-1.86003151918458,-2.97793007963075,-1.67222334436203,,-4.763727236447603,,
,6157.0,1301.0,7865.0,1870.0,1817.0,2873.0,2052.0,,,,-1.85937009356459,-2.97798241681955,-1.67101926062127,,-4.69445865405099,,
,6162.0,1301.0,7865.0,1871.0,1807.0,2874.0,2055.0,,,,-1.85909034668029,-2.97785528246732,-1.67140920981011,,-4.559587152267246,,
,6166.0,1301.0,7864.0,1870.0,1807.0,2856.0,2064.0,,,,-1.85900275669478,-2.97780131913645,-1.67194724071456,,-4.345697235781002,,
,6168.0,1303.0,7867.0,1874.0,1826.0,2853.0,2073.0,,,,-1.85843216175992,-2.97792386851084,-1.67120855471226,,-4.041145597869586,,
,6172.0,1305.0,7867.0,1874.0,1835.0,2852.0,2066.0,,,,-1.85920937403099,-2.97813717872651,-1.67063804586623,,-3.63703618658471,,
,6175.0,1305.0,7864.0,1877.0,1824.0,2846.0,2049.0,,,,-1.85989437359803,-2.9779743067202,-1.67143412378247,,-3.128058417110142,,
,6180.0,1305.0,7866.0,1877.0,1825.0,2833.0,2050.0,,,,-1.85942877710468,-2.97813020225045,-1.67118903854814,,-2.5131109064305095,,
,6181.0,1305.0,7863.0,1874.0,1837.0,2853.0,2048.0,,,,-1.85985534640003,-2.97790361631885,-1.67207377308363,,-1.7956578686492137,,
,6188.0,1309.0,7866.0,1878.0,1841.0,2848.0,2047.0,,,,-1.86032518522867,-2.97791104312913,-1.67169401945254,,-0.983797612474482,,
,6190.0,1309.0,7868.0,1880.0,1842.0,2853.0,2051.0,,,,-1.86048572619609,-2.97817468918455,-1.67166124452294,,-0.09005484579189471,,
,6194.0,1308.0,7865.0,1878.0,1844.0,2836.0,2058.0,,,,-1.8604420269982,-2.9782053273248,-1.67310598048313,,0.8690661094844211,,
,6196.0,1310.0,7866.0,1879.0,1834.0,2825.0,2069.0,,,,-1.86301389308375,-2.97810559049901,-1.67215432152843,,1.8737152224916738,,
,6204.0,1311.0,7867.0,1881.0,1825.0,2825.0,2057.0,,,,-1.86414599221486,-2.97832792543712,-1.67336824264354,,2.9014617326404815,,
,6207.0,1314.0,7867.0,1882.0,1829.0,2845.0,2056.0,,,,-1.86512602251384,-2.9782991547445,-1.67486094640609,,3.928138836618517,,
,6211.0,1314.0,7867.0,1882.0,1822.0,2854.0,2054.0,,,,-1.86590540978844,-2.97836191658728,-1.67405764076891,,4.9287269692643045,,
,6215.0,1314.0,7869.0,1883.0,1808.0,2859.0,2061.0,,,,-1.86688645976106,-2.9783944299374,-1.67463849858851,,5.878246617778266,,
,6218.0,1313.0,7868.0,1882.0,1843.0,2864.0,2038.0,,,,-1.86858477287607,-2.97848064219156,-1.67600679388732,,6.75264149407055,,
,6222.0,1316.0,7867.0,1886.0,1836.0,2835.0,2055.0,,,,-1.86958413897235,-2.97837356224578,-1.67589693541123,,7.529637320843307,,
,6227.0,1318.0,7869.0,1886.0,1842.0,2856.0,2059.0,,,,-1.87041265059759,-2.97832956157787,-1.676745939189,,8.189559155366286,,
,6230.0,1318.0,7870.0,1884.0,1847.0,2848.0,2075.0,,,,-1.8711551781496,-2.97840328098337,-1.67660943195348,,8.716082660798154,,
,6235.0,1318.0,7870.0,1885.0,1840.0,2833.0,2068.0,,,,-1.87190570087795,-2.97846725422175,-1.67720517607277,,9.096886072348742,,
,6237.0,1321.0,7868.0,1889.0,1818.0,2819.0,2057.0,,,,-1.87272697487142,-2.97869407558785,-1.67816208807894,,9.32416428718538,,
,6241.0,1322.0,7870.0,1890.0,1817.0,2828.0,2065.0,,,,-1.87345393650146,-2.97862500865144,-1.67791041671004,,9.394967142465932,,
,6247.0,1320.0,7869.0,1891.0,1826.0,2833.0,2056.0,,,,-1.87437028313779,-2.97856626548423,-1.67758359335602,,9.311330382546325,,
,6251.0,1321.0,7871.0,1891.0,1829.0,2847.0,2048.0,,,,-1.87498980410261,-2.97855159886729,-1.67812471481647,,9.080178311738301,,
,6253.0,1322.0,7868.0,1890.0,1830.0,2847.0,2064.0,,,,-1.87401080830497,-2.97858865555431,-1.67761030898709,,8.712990308771,,
,6257.0,1326.0,7869.0,1891.0,1833.0,2838.0,2053.0,,,,-1.87480745302415,-2.97860262615897,-1.67791821104515,,8.22523896324399,,
,6255.0,1324.0,7870.0,1891.0,1811.0,2852.0,2051.0,,,,-1.8752305579466,-2.97848545256153,-1.67803857324603,,7.635625169735802,,
,6248.0,1321.0,7868.0,1887.0,1809.0,2838.0,2048.0,,,,-1.87644811750398,-2.9784889258786,-1.67837091655787,,6.965153036637059,,
,6238.0,1321.0,7865.0,1889.0,1818.0,2839.0,2052.0,,,,-1.87658822900559,-2.97846924045962,-1.67909630925452,,6.23610169386972,,
,6225.0,1318.0,7868.0,1882.0,1833.0,2856.0,2080.0,,,,-1.87631814853444,-2.97853014172551,-1.67840650442567,,5.470959645926047,,
,6210.0,1312.0,7865.0,1879.0,1821.0,2834.0,2078.0,,,,-1.87680230836584,-2.97851079601423,-1.67821259649701,,4.691389893112998,,
,6186.0,1306.0,7866.0,1872.0,1816.0,2822.0,2057.0,,,,-1.8761954323884,-2.97863040450489,-1.67869066697229,,3.9172914719026335,,
,6166.0,1301.0,7866.0,1869.0,1808.0,2835.0,2068.0,,,,-1.8767531985027,-2.97864009703288,-1.67965230256386,,3.166015905538245,,
,6143.0,1293.0,7861.0,1860.0,1829.0,2821.0,2063.0,,,,-1.87614938862871,-2.9785955730023,-1.6784152249405,,2.4517853155965565,,
,6125.0,1288.0,7862.0,1860.0,1834.0,2819.0,2068.0,,,,-1.87659903073133,-2.97841653569394,-1.67887049316981,,1.7853427988333315,,
,6107.0,1282.0,7863.0,1852.0,1839.0,2829.0,2058.0,,,,-1.87623548903677,-2.97850843282987,-1.67849641257075,,1.173846108390502,,
,6087.0,1277.0,7862.0,1849.0,1831.0,2836.0,2063.0,,,,-1.87541705116961,-2.97858241986743,-1.67849777283981,,0.6209945469815156,,
,6073.0,1273.0,7860.0,1844.0,1827.0,2844.0,2077.0,,,,-1.87597007508401,-2.97855371192883,-1.67871868201398,,0.1273586787235273,,
,6063.0,1269.0,7861.0,1843.0,1842.0,2856.0,2061.0,,,,-1.87660306661554,-2.97858173237579,-1.67894985016115,,-0.30913433950273095,,
,6052.0,1267.0,7861.0,1839.0,1823.0,2866.0,2060.0,,,,-1.87752995791772,-2.97854677504821,-1.67911590652129,,-0.6926176057934673,,
,6043.0,1264.0,7861.0,1839.0,1823.0,2872.0,2067.0,,,,-1.8780852999578,-2.97856426071785,-1.67870649408348,,-1.0286636324036678,,
,6036.0,1263.0,7864.0,1835.0,1839.0,2850.0,2058.0,,,,-1.87898562712042,-2.97867323261382,-1.67925597280084,,-1.3236798656872644,,
,6029.0,1261.0,7859.0,1835.0,1841.0,2847.0,2051.0,,,,-1.87971009331072,-2.97858946058349,-1.67924329353894,,-1.5843625073781868,,
,6026.0,1261.0,7859.0,1835.0,1849.0,2855.0,2045.0,,,,-1.87969687148829,-2.97865479986796,-1.67856506890682,,-1.8172362780374687,,
,6023.0,1262.0,7863.0,1838.0,1837.0,2853.0,2044.0,,,,-1.88115389114609,-2.97850465807747,-1.67881680439089,,-2.028294538478094,,
,6023.0,1262.0,7860.0,1834.0,1842.0,2855.0,2038.0,,,,-1.88115235811844,-2.97843834706228,-1.67854819244662,,-2.222743615727499,,
,6020.0,1258.0,7860.0,1834.0,1836.0,2882.0,2049.0,,,,-1.88042167612306,-2.97860890911303,-1.67944553353796,,-2.4048474290238726,,
,6020.0,1259.0,7858.0,1834.0,1834.0,2864.0,2050.0,,,,-1.88211169044051,-2.97848112743876,-1.67898525930004,,-2.5778631025240584,,
,6021.0,1260.0,7859.0,1837.0,1828.0,2867.0,2044.0,,,,-1.88216356332545,-2.97843217552104,-1.67916164513407,,-2.7440546436132034,,
,6021.0,1264.0,7860.0,1837.0,1835.0,2865.0,2043.0,,,,-1.88270133983904,-2.97850027580634,-1.6783446901818,,-2.904769575814155,,
,6021.0,1260.0,7860.0,1837.0,1824.0,2871.0,2047.0,,,,-1.88354027203407,-2.97850765168891,-1.67918282164393,,-3.060562408507894,,
,6020.0,1259.0,7860.0,1838.0,1828.0,2860.0,2053.0,,,,-1.88173615547812,-2.97829542804625,-1.67939418005527,,-3.2113488747978116,,
,6023.0,1259.0,7861.0,1836.0,1836.0,2844.0,2041.0,,,,-1.88330268821111,-2.97842932482119,-1.67887214998464,,-3.356575960185043,,
,6025.0,1263.0,7862.0,1841.0,1827.0,2840.0,2049.0,,,,-1.88266042176585,-2.97848777432054,-1.67988134030374,,-3.495394924661981,,
,6025.0,1263.0,7861.0,1838.0,1819.0,2844.0,2058.0,,,,-1.88402990363004,-2.97847028679603,-1.67914296229472,,-3.6268277169678154,,
,6026.0,1261.0,7861.0,1838.0,1802.0,2846.0,2069.0,,,,-1.88452316658578,-2.97846087794058,-1.68068571292575,,-3.7499209714951993,,
,6028.0,1260.0,7859.0,1840.0,1813.0,2821.0,2072.0,,,,-1.88502518588887,-2.97845086179775,-1.67937961144872,,-3.8638852571466678,,
,6032.0,1264.0,7863.0,1844.0,1802.0,2837.0,2061.0,,,,-1.88543893496995,-2.9785987799223,-1.6794592912585,,-3.968219131158745,,
,6033.0,1264.0,7862.0,1841.0,1823.0,2833.0,2060.0,,,,-1.88519349662447,-2.97834955211663,-1.68035171740428,,-4.062816650111825,,
,6037.0,1264.0,7861.0,1841.0,1832.0,2824.0,2070.0,,,,-1.88418037638582,-2.9784827794974,-1.67996270883016,,-4.148052918080082,,
,6038.0,1265.0,7862.0,1846.0,1822.0,2824.0,2062.0,,,,-1.88384542032474,-2.97841905623699,-1.67937444933842,,-4.224836060189324,,
,6039.0,1265.0,7861.0,1845.0,1820.0,2821.0,2075.0,,,,-1.88480445299079,-2.97829607089523,-1.67954250118927,,-4.294608282413598,,
,6046.0,1268.0,7864.0,1845.0,1812.0,2833.0,2064.0,,,,-1.88388685044683,-2.97833669657918,-1.67858596907321,,-4.359276653883307,,
,6045.0,1268.0,7863.0,1845.0,1823.0,2857.0,2061.0,,,,-1.88302311668773,-2.97847089424253,-1.67921747425746,,-4.421058179819349,,
,6045.0,1268.0,7863.0,1846.0,1829.0,2844.0,2057.0,,,,-1.88287622899288,-2.97843376436413,-1.67886375679979,,-4.482233591544058,,
,6046.0,1267.0,7861.0,1845.0,1819.0,2851.0,2065.0,,,,-1.88242637492502,-2.97839535355022,-1.67896955416399,,-4.544817851169401,,
,6050.0,1269.0,7862.0,1844.0,1816.0,2851.0,2039.0,,,,-1.88313402216931,-2.97826044380718,-1.67833533310629,,-4.610169551881631,,
,6047.0,1269.0,7862.0,1848.0,1822.0,2847.0,2043.0,,,,-1.88171336463364,-2.97833662322178,-1.67844548342321,,-4.6785735299144875,,
,6048.0,1268.0,7862.0,1846.0,1815.0,2840.0,2070.0,,,,-1.88187335857492,-2.97837430588143,-1.6789259743686,,-4.7488394193063295,,
,6051.0,1268.0,7857.0,1845.0,1799.0,2850.0,2058.0,,,,-1.88198168751778,-2.97822633236776,-1.67853526583993,,-4.817962745088088,,
,6050.0,1267.0,7862.0,1846.0,1814.0,2847.0,2059.0,,,,-1.88175370430865,-2.9783996250557,-1.6783464956083,,-4.880894167200261,,
,6049.0,1267.0,7862.0,1845.0,1810.0,2846.0,2056.0,,,,-1.88173342898519,-2.97837970184404,-1.67867469994833,,-4.930456779519613,,
,6049.0,1271.0,7863.0,1847.0,1819.0,2843.0,2074.0,,,,-1.88285009946266,-2.97839267593689,-1.67891076110399,,-4.957441459470311,,
,6048.0,1265.0,7861.0,1844.0,1818.0,2857.0,2053.0,,,,-1.88361857694591,-2.97845346650817,-1.67812455165747,,-4.9508969283692,,
,6047.0,1268.0,7861.0,1846.0,1815.0,2862.0,2050.0,,,,-1.88430231230833,-2.97850789526006,-1.67842127124611,,-4.898615283959251,,
,6044.0,1265.0,7860.0,1847.0,1835.0,2847.0,2046.0,,,,-1.88484972057467,-2.97836591006288,-1.67852739002243,,-4.787796292847542,,
,6049.0,1267.0,7864.0,1846.0,1832.0,2838.0,2048.0,,,,-1.8851847980924,-2.97841568134145,-1.67877942218979,,-4.605855928103589,,
,6046.0,1265.0,7864.0,1846.0,1828.0,2842.0,2053.0,,,,-1.88640173325911,-2.97858413402106,-1.67882888917872,,-4.3413280003013694,,
,6045.0,1267.0,7860.0,1845.0,1822.0,2835.0,2068.0,,,,-1.88740838278055,-2.97848697912167,-1.6793145846397,,-3.984793862585007,,
,6050.0,1268.0,7861.0,1847.0,1813.0,2844.0,2071.0,,,,-1.88853574728486,-2.97847021054978,-1.68060434115891,,-3.529765754290097,,
,6052.0,1269.0,7864.0,1846.0,1822.0,2835.0,2066.0,,,,-1.88955073394218,-2.9785155783257,-1.68091015724126,,-2.973446304714384,,
,6050.0,1267.0,7865.0,1849.0,1831.0,2829.0,2067.0,,,,-1.89036380868408,-2.97864032533825,-1.68123868999978,,-2.3172921824065664,,
,6048.0,1268.0,7863.0,1846.0,1826.0,2820.0,2066.0,,,,-1.89188890840511,-2.97868640353878,-1.6804329476642,,-1.5673253273804952,,
,6056.0,1272.0,7864.0,1848.0,1814.0,2826.0,2047.0,,,,-1.89216320034014,-2.97867939306156,-1.6809343117511,,-0.7341598064695865,,
,6056.0,1270.0,7861.0,1849.0,1808.0,2832.0,2063.0,,,,-1.89184139169737,-2.97868388549787,-1.68138568460122,,0.16725811302260205,,
,6059.0,1271.0,7866.0,1850.0,1815.0,2828.0,2075.0,,,,-1.89218380277651,-2.978698499983,-1.68114454880123,,1.118170966789134,,
,6061.0,1271.0,7862.0,1849.0,1819.0,2817.0,2067.0,,,,-1.89342599305005,-2.9786966197961,-1.68082847263387,,2.0967455027202564,,
,6067.0,1269.0,7863.0,1852.0,1803.0,2836.0,2068.0,,,,-1.89383890854095,-2.9786834365551,-1.68215084677926,,3.0789646389469802,,
,6071.0,1274.0,7863.0,1851.0,1817.0,2834.0,2061.0,,,,-1.89360933014924,-2.97864256449332,-1.68113089549003,,4.03961599504046,,
,6075.0,1273.0,7863.0,1851.0,1810.0,2828.0,2057.0,,,,-1.89372745133081,-2.97858692521473,-1.68197346347283,,4.953321269491841,,
,6076.0,1275.0,7864.0,1854.0,1812.0,2838.0,2061.0,,,,-1.89390874863494,-2.97858552459673,-1.68166760989068,,5.795558377199348,,
,6079.0,1273.0,7866.0,1855.0,1808.0,2846.0,2042.0,,,,-1.89417344777847,-2.97856463265755,-1.68153417690085,,6.54363696435847,,
2025-07-15 19:28:35,6085.0,1280.0,7865.0,1856.0,1832.0,2823.0,2045.0,,,2025/07/15 07:28:35 PM,-1.89459287374122,-2.97860929798486,-1.68162800222101,,7.177595936148135,,
,6088.0,1278.0,7868.0,1855.0,1822.0,2823.0,2052.0,,,,-1.89414175464591,-2.97864063964359,-1.68177756971253,,7.6809974845688735,,
,6092.0,1277.0,7866.0,1857.0,1821.0,2835.0,2043.0,,,,-1.89355359621843,-2.97870438909064,-1.68132392968909,,8.041594727634125,,
,6097.0,1279.0,7862.0,1857.0,1831.0,2842.0,2045.0,,,,-1.89365862213457,-2.97854484583875,-1.68072166327376,,8.251849350478722,,
,6099.0,1283.0,7864.0,1857.0,1819.0,2841.0,2037.0,,,,-1.89219669109456,-2.97874201137714,-1.68056398826163,,8.309272796818068,,
,6105.0,1285.0,7864.0,1862.0,1825.0,2841.0,2050.0,,,,-1.89182544412966,-2.97858380419033,-1.67983375731612,,8.216562061619538,,
,6111.0,1284.0,7865.0,1862.0,1814.0,2841.0,2052.0,,,,-1.89194836455985,-2.97861145286818,-1.68053974397966,,7.981502058801152,,
,6112.0,1285.0,7865.0,1861.0,1803.0,2829.0,2046.0,,,,-1.89170469799326,-2.97842408146205,-1.67997704712856,,7.616613636630826,,
,6115.0,1284.0,7866.0,1861.0,1824.0,2834.0,2049.0,,,,-1.89089418930118,-2.978479517424,-1.68021083132772,,7.138541179031892,,
,6122.0,1286.0,7866.0,1864.0,1831.0,2846.0,2051.0,,,,-1.89208716480061,-2.97842333722558,-1.68044886434102,,6.567196162461725,,
,6126.0,1286.0,7866.0,1865.0,1818.0,2840.0,2053.0,,,,-1.89197373392394,-2.97844081381199,-1.68001993685157,,5.924700456412399,,
,6132.0,1290.0,7867.0,1865.0,1823.0,2831.0,2052.0,,,,-1.89244128305538,-2.97851461560959,-1.68057636329003,,5.234200389506103,,
,6134.0,1289.0,7866.0,1866.0,1817.0,2832.0,2056.0,,,,-1.89244400702488,-2.97854505635584,-1.67992979799204,,4.518643089291431,,
,6140.0,1291.0,7868.0,1867.0,1823.0,2852.0,2067.0,,,,-1.89253011459726,-2.97852209791377,-1.68091679543928,,3.7996150574544885,,
,6141.0,1293.0,7868.0,1869.0,1824.0,2832.0,2063.0,,,,-1.89246522246177,-2.97842190356854,-1.68037741004974,,3.0963375651477483,,
,6148.0,1294.0,7869.0,1872.0,1819.0,2838.0,2056.0,,,,-1.8925533925535,-2.97857420856094,-1.67984116742178,,2.4248959355298463,,
,6153.0,1293.0,7865.0,1870.0,1798.0,2841.0,2078.0,,,,-1.8921879789159,-2.97856722796082,-1.68018679202774,,1.7977537647434627,,
,6155.0,1293.0,7869.0,1869.0,1807.0,2834.0,2082.0,,,,-1.89258482810398,-2.97856374683349,-1.68153721009319,,1.2235728129026346,,
,6159.0,1296.0,7867.0,1871.0,1805.0,2833.0,2073.0,,,,-1.89220840388707,-2.97862085257987,-1.68200077161491,,0.7073285612529198,,
,6165.0,1299.0,7870.0,1873.0,1794.0,2841.0,2059.0,,,,-1.89194381240139,-2.97855655120864,-1.68125753736266,,0.25068330632589947,,
,6167.0,1300.0,7870.0,1874.0,1799.0,2833.0,2058.0,,,,-1.89165270169051,-2.97857950844265,-1.68119666254194,,-0.14744463811082964,,
,6172.0,1299.0,7869.0,1875.0,1793.0,2824.0,2060.0,,,,-1.88909481037786,-2.97858043174131,-1.67960897184185,,-0.49019347316977413,,
,6177.0,1302.0,7870.0,1875.0,1816.0,2823.0,2066.0,,,,-1.88841192332806,-2.97839260349444,-1.6800598292985,,-0.7820373123209857,,
,6179.0,1305.0,7869.0,1877.0,1806.0,2810.0,2071.0,,,,-1.88667512802773,-2.97856254772931,-1.67937487192832,,-1.0281140322300142,,
,6185.0,1304.0,7870.0,1879.0,1803.0,2810.0,2066.0,,,,-1.88411323361419,-2.97853739291429,-1.67952785855929,,-1.233668775607365,,
,6185.0,1304.0,7871.0,1878.0,1809.0,2837.0,2049.0,,,,-1.88305484268849,-2.97858135916873,-1.67873135635202,,-1.4036572748327245,,
,6191.0,1302.0,7868.0,1878.0,1809.0,2856.0,2064.0,,,,-1.88071082645987,-2.97847084341796,-1.67808208403264,,-1.5425254890616578,,
,6196.0,1307.0,7871.0,1882.0,1818.0,2845.0,2063.0,,,,-1.87947136307793,-2.97849279147222,-1.6773416611513,,-1.65415465382546,,
,6201.0,1307.0,7870.0,1881.0,1818.0,2850.0,2076.0,,,,-1.87862986175773,-2.97837576016045,-1.67706242849532,,-1.7419385456539729,,
,6202.0,1306.0,7869.0,1881.0,1809.0,2845.0,2064.0,,,,-1.87806887279321,-2.97836741922498,-1.67745829932223,,-1.8089459520137985,,
,6204.0,1307.0,7870.0,1881.0,1804.0,2847.0,2073.0,,,,-1.87584288639718,-2.97850985684697,-1.67704900645853,,-1.858116972856945,,
,6213.0,1308.0,7873.0,1882.0,1811.0,2863.0,2085.0,,,,-1.87676051716447,-2.97838708223321,-1.67715253269682,,-1.8924455638935895,,
,6210.0,1312.0,7871.0,1884.0,1799.0,2878.0,2071.0,,,,-1.87745915656161,-2.97856785117562,-1.67796792793567,,-1.9151102187420275,,
,6222.0,1310.0,7871.0,1886.0,1804.0,2872.0,2076.0,,,,-1.87792973927098,-2.97859740568531,-1.67755098595013,,-1.9295273907049828,,
,6226.0,1312.0,7874.0,1887.0,1812.0,2866.0,2063.0,,,,-1.87846915253349,-2.9785344976222,-1.67862679358275,,-1.9393161806482753,,
,6228.0,1313.0,7871.0,1885.0,1831.0,2865.0,2066.0,,,,-1.87933761197453,-2.97846546685204,-1.67845098845251,,-1.9481765103429773,,
,6235.0,1313.0,7872.0,1886.0,1818.0,2849.0,2072.0,,,,-1.87991321972103,-2.97849211664557,-1.67971811115724,,-1.9596953325874293,,
,6237.0,1316.0,7872.0,1886.0,1829.0,2838.0,2077.0,,,,-1.88124578770452,-2.97866041647009,-1.67947380974195,,-1.9771053786146306,,
,6240.0,1318.0,7873.0,1889.0,1833.0,2832.0,2073.0,,,,-1.88250947590311,-2.97881617372218,-1.68118453186083,,-2.0030275929143295,,
,6245.0,1318.0,7873.0,1890.0,1827.0,2832.0,2056.0,,,,-1.88452518325976,-2.97880260537737,-1.68091144030245,,-2.0392311874044817,,
,6251.0,1318.0,7872.0,1891.0,1808.0,2847.0,2054.0,,,,-1.88584416958286,-2.97870222927876,-1.68143485903235,,-2.0864442178081917,,
,6255.0,1320.0,7875.0,1895.0,1808.0,2854.0,2059.0,,,,-1.88667735027849,-2.97890694569343,-1.68167336270118,,-2.1442434023825685,,
,6261.0,1320.0,7874.0,1893.0,1816.0,2853.0,2056.0,,,,-1.88748996129728,-2.97895276177176,-1.68186601579321,,-2.2110453450036616,,
,6264.0,1321.0,7872.0,1892.0,1817.0,2867.0,2072.0,,,,-1.88797385923465,-2.97896023675655,-1.68319389996294,,-2.2842127079893615,,
,6268.0,1322.0,7871.0,1895.0,1815.0,2840.0,2086.0,,,,-1.89020921002492,-2.97897094305128,-1.68287024315785,,-2.3602779770059183,,
,6272.0,1324.0,7876.0,1897.0,1809.0,2840.0,2076.0,,,,-1.89091797298822,-2.9791077586266,-1.68314214300079,,-2.4352740807100104,,
,6277.0,1326.0,7874.0,1898.0,1817.0,2842.0,2064.0,,,,-1.89083617813988,-2.97916842450148,-1.68381535481687,,-2.505145954175378,,
,6282.0,1325.0,7874.0,1898.0,1807.0,2849.0,2055.0,,,,-1.88951452738434,-2.9791278756217,-1.68317892766002,,-2.5662022986498356,,
,6287.0,1327.0,7871.0,1899.0,1798.0,2863.0,2072.0,,,,-1.88925024795663,-2.97902833991719,-1.68403064637308,,-2.615555758838155,,
,6290.0,1328.0,7874.0,1899.0,1806.0,2852.0,2071.0,,,,-1.888388891721,-2.97913975716738,-1.68344036267586,,-2.651496146532193,,
,6294.0,1329.0,7874.0,1901.0,1825.0,2854.0,2078.0,,,,-1.88830992357636,-2.97897612944571,-1.68355921655755,,-2.673747096653254,,
,6294.0,1328.0,7874.0,1900.0,1827.0,2849.0,2068.0,,,,-1.88728296545579,-2.97904494961784,-1.68354983266459,,-2.683570601752788,,
,6293.0,1330.0,7872.0,1901.0,1830.0,2840.0,2056.0,,,,-1.88753406266416,-2.97908106038567,-1.68305807123008,,-2.6837026811794997,,
,6283.0,1327.0,7871.0,1897.0,1820.0,2885.0,2064.0,,,,-1.88667538871115,-2.97902292980759,-1.68340512045017,,-2.678122662285112,,
,6276.0,1323.0,7872.0,1896.0,1826.0,2849.0,2069.0,,,,-1.88575059768985,-2.97917874440435,-1.68295040340287,,-2.671674872203762,,
,6262.0,1322.0,7871.0,1893.0,1802.0,2837.0,2077.0,,,,-1.88670767691583,-2.97914641620285,-1.68329715990473,,-2.6695736109285964,,
,6245.0,1317.0,7870.0,1887.0,1797.0,2843.0,2077.0,,,,-1.88550340928531,-2.97908269337767,-1.68389701226708,,-2.6768304381685564,,
,6222.0,1311.0,7868.0,1879.0,1806.0,2832.0,2080.0,,,,-1.88592010572587,-2.9791961589095,-1.68314941578821,,-2.697648105283519,,
,6201.0,1304.0,7870.0,1876.0,1818.0,2845.0,2078.0,,,,-1.88560140790903,-2.97902749991713,-1.68315931450727,,-2.7348287485951848,,
,6180.0,1299.0,7867.0,1871.0,1815.0,2851.0,2060.0,,,,-1.88657807291127,-2.97913114139527,-1.6829191914958,,-2.7892454070633943,,
,6159.0,1294.0,7866.0,1866.0,1806.0,2845.0,2057.0,,,,-1.8879325867117,-2.97904054606523,-1.68393857853977,,-2.8594250158537435,,
,6143.0,1286.0,7868.0,1861.0,1798.0,2855.0,2057.0,,,,-1.88877232212995,-2.97928656707766,-1.68429458820216,,-2.941286918605336,,
,6122.0,1280.0,7866.0,1856.0,1805.0,2841.0,2071.0,,,,-1.88911620659533,-2.97921817006241,-1.68440182385117,,-3.0280730135196694,,
,6110.0,1278.0,7868.0,1855.0,1808.0,2833.0,2067.0,,,,-1.89037434397848,-2.97911940954302,-1.68552359622162,,-3.1104937674974718,,
,6099.0,1275.0,7869.0,1855.0,1792.0,2828.0,2040.0,,,,-1.89169136801384,-2.97925360891558,-1.68419546491743,,-3.1770987076199924,,
,6088.0,1271.0,7865.0,1853.0,1799.0,2834.0,2054.0,,,,-1.89042345026554,-2.97930866978826,-1.68498620494878,,-3.214861024389633,,
,6077.0,1269.0,7866.0,1846.0,1810.0,2850.0,2078.0,,,,-1.89038832178062,-2.97927122655216,-1.68454346470362,,-3.209944428276663,,
,6071.0,1269.0,7865.0,1845.0,1810.0,2857.0,2056.0,,,,-1.88968195420282,-2.97919056684405,-1.68499902754692,,-3.1485982829575643,,
,6067.0,1269.0,7865.0,1846.0,1811.0,2831.0,2045.0,,,,-1.88979633851919,-2.97924458397371,-1.68558708117398,,-3.0181077906332243,,
,6063.0,1266.0,7867.0,1844.0,1808.0,2829.0,2038.0,,,,-1.89047893449815,-2.97914372785666,-1.6857018930774,,-2.807714408335998,,
,6061.0,1265.0,7865.0,1843.0,1772.0,2820.0,2027.0,,,,-1.89073553789808,-2.97918054661733,-1.68440861147085,,-2.509422076394083,,
,6060.0,1265.0,7865.0,1847.0,1813.0,2835.0,2058.0,,,,-1.89165063825302,-2.97914303665004,-1.68540165344172,,-2.118618828957716,,
,6062.0,1265.0,7867.0,1847.0,1817.0,2862.0,2068.0,,,,-1.891967373469,-2.97920475717612,-1.68501647897749,,-1.63446859707594,,
,6062.0,1266.0,7865.0,1847.0,1809.0,2841.0,2064.0,,,,-1.89290477758238,-2.97917035695766,-1.68489256044754,,-1.0600590465123811,,
,6059.0,1266.0,7868.0,1847.0,1812.0,2842.0,2068.0,,,,-1.89397898815384,-2.97922619811381,-1.68649672808624,,-0.40232145874936404,,
,6061.0,1265.0,7864.0,1845.0,1815.0,2842.0,2078.0,,,,-1.89452155019388,-2.97934538040389,-1.68641451729402,,0.32823797673537713,,
,6062.0,1267.0,7865.0,1847.0,1804.0,2848.0,2059.0,,,,-1.89579171523717,-2.97929668900009,-1.68563907925153,,1.1179433879418343,,
,6064.0,1269.0,7868.0,1850.0,1808.0,2839.0,2067.0,,,,-1.89724943798598,-2.97938373179466,-1.68603893199857,,1.950437922589331,,
,6068.0,1271.0,7866.0,1853.0,1809.0,2834.0,2059.0,,,,-1.89751698579243,-2.97927259935022,-1.68577449670812,,2.8072120598001575,,
,6065.0,1266.0,7865.0,1849.0,1816.0,2818.0,2056.0,,,,-1.89783362524761,-2.97943768076886,-1.68641863463172,,3.668143485938192,,
,6067.0,1266.0,7866.0,1849.0,1808.0,2837.0,2055.0,,,,-1.89871021434864,-2.97933158885164,-1.68714602332925,,4.512038545462122,,
,6071.0,1271.0,7864.0,1851.0,1818.0,2857.0,2077.0,,,,-1.89976945615102,-2.97938999225676,-1.68630533290229,,5.317181050128355,,
,6073.0,1271.0,7870.0,1853.0,1815.0,2821.0,2060.0,,,,-1.90036364508257,-2.97930921074926,-1.68632427279786,,6.061903823648412,,
,6074.0,1273.0,7867.0,1855.0,1812.0,2818.0,2062.0,,,,-1.9014903482908,-2.97937771196589,-1.68708059839287,,6.725199532108519,,
,6077.0,1270.0,7865.0,1853.0,1807.0,2833.0,2067.0,,,,-1.90160618540363,-2.97941642986832,-1.68782212908196,,7.287380434036303,,
,6078.0,1272.0,7866.0,1854.0,1813.0,2833.0,2068.0,,,,-1.90372720498452,-2.97932617064066,-1.68783798007206,,7.73078425585627,,
,6084.0,1273.0,7869.0,1857.0,1800.0,2864.0,2070.0,,,,-1.90431701698239,-2.97942907016017,-1.68894735682255,,8.040508684863283,,
,6087.0,1273.0,7869.0,1859.0,1787.0,2851.0,2088.0,,,,-1.9042395416012,-2.97953167398925,-1.6882198734463,,8.205142301938698,,
,6087.0,1275.0,7868.0,1858.0,1796.0,2846.0,2066.0,,,,-1.90587826139482,-2.97946406616296,-1.68847328394788,,8.217446163131322,,
,6092.0,1275.0,7867.0,1857.0,1814.0,2859.0,2070.0,,,,-1.90679072793481,-2.97948359961092,-1.6894719666393,,8.074928257663244,,
,6092.0,1277.0,7870.0,1860.0,1792.0,2851.0,2050.0,,,,-1.90877343069593,-2.97968008512774,-1.68840222289284,,7.7802444169423834,,
,6094.0,1276.0,7867.0,1860.0,1793.0,2838.0,2039.0,,,,-1.91015779946221,-2.97964041583514,-1.69009352404706,,7.341357619398112,,
,6096.0,1277.0,7867.0,1861.0,1790.0,2830.0,2046.0,,,,-1.91125592736928,-2.97952819129201,-1.68982760816861,,6.771397683265632,,
,6099.0,1275.0,7866.0,1858.0,1797.0,2825.0,2070.0,,,,-1.91249817226795,-2.97945027824777,-1.69031232080276,,6.088187979461549,,
,6102.0,1276.0,7867.0,1860.0,1793.0,2834.0,2085.0,,,,-1.91309579599972,-2.97972555283009,-1.6905607988996,,5.313443490175906,,
,6103.0,1278.0,7869.0,1862.0,1809.0,2841.0,2064.0,,,,-1.91279659361177,-2.97975059979751,-1.69110499063689,,4.471688338935791,,
,6103.0,1275.0,7866.0,1863.0,1810.0,2834.0,2048.0,,,,-1.91369673899297,-2.97979456249866,-1.69025073309326,,3.5889804141947823,,
,6100.0,1277.0,7867.0,1859.0,1807.0,2843.0,2059.0,,,,-1.91336649800394,-2.97964754531977,-1.69051639630753,,2.6915563328558716,,
,6104.0,1277.0,7868.0,1862.0,1810.0,2845.0,2061.0,,,,-1.91336181743168,-2.97958392049203,-1.6904539138084,,1.8045168779891236,,
,6103.0,1279.0,7869.0,1862.0,1795.0,2842.0,2058.0,,,,-1.91287473017429,-2.97963951599932,-1.68985979617046,,0.9506618610432437,,
,6104.0,1276.0,7868.0,1860.0,1783.0,2834.0,2064.0,,,,-1.91122662975056,-2.97956892319369,-1.69021051155305,,0.1495585097772202,,
,6106.0,1278.0,7868.0,1865.0,1771.0,2833.0,2061.0,,,,-1.91018811167921,-2.97963810249234,-1.68963560938381,,-0.5831051388066552,,
,6103.0,1276.0,7869.0,1861.0,1790.0,2832.0,2064.0,,,,-1.90823552463483,-2.97954275048536,-1.68820707115472,,-1.2358648922213429,,
,6103.0,1276.0,7869.0,1862.0,1786.0,2830.0,2052.0,,,,-1.90750451096722,-2.97958718349521,-1.68823809526968,,-1.80153752669252,,
,6105.0,1278.0,7869.0,1863.0,1786.0,2836.0,2068.0,,,,-1.90563660563977,-2.97935522920288,-1.68711411776939,,-2.2770291338621145,,
,6110.0,1279.0,7869.0,1864.0,1789.0,2843.0,2067.0,,,,-1.9041609820939,-2.97925370079062,-1.68711244362588,,-2.6629483572240145,,
,6109.0,1278.0,7869.0,1864.0,1798.0,2830.0,2066.0,,,,-1.9031885624229,-2.97919729171062,-1.68655030976482,,-2.9630831792310364,,
,6112.0,1279.0,7868.0,1862.0,1806.0,2848.0,2073.0,,,,-1.90192630382154,-2.97926850551276,-1.68543535476507,,-3.183796540586507,,
,6115.0,1278.0,7870.0,1864.0,1807.0,2840.0,2063.0,,,,-1.90066600523444,-2.97905183195455,-1.68542656884677,,-3.3333876783087675,,
,6120.0,1281.0,7866.0,1867.0,1812.0,2839.0,2078.0,,,,-1.89954174532077,-2.97913807639716,-1.68475108615031,,-3.4214567410579653,,
,6121.0,1281.0,7873.0,1865.0,1806.0,2851.0,2076.0,,,,-1.89781487292647,-2.97913436294098,-1.6845201223532,,-3.45830296765649,,
,6123.0,1279.0,7867.0,1866.0,1810.0,2861.0,2085.0,,,,-1.89726811138864,-2.97903697578404,-1.68471179311174,,-3.454381999760773,,
,6126.0,1280.0,7868.0,1868.0,1813.0,2874.0,2092.0,,,,-1.89655165212289,-2.97903847244686,-1.68383319118487,,-3.4198440033038224,,
,6130.0,1283.0,7871.0,1869.0,1816.0,2848.0,2071.0,,,,-1.89446356472026,-2.9788870870317,-1.68260327667159,,-3.364168873308723,,
,6132.0,1285.0,7875.0,1870.0,1808.0,2841.0,2080.0,,,,-1.89400519475895,-2.97908453115283,-1.6827269342095,,-3.295906665015601,,
,6139.0,1284.0,7869.0,1870.0,1805.0,2855.0,2099.0,,,,-1.89412137381919,-2.97907610641048,-1.6821788764548,,-3.2225210337833543,,
,6143.0,1285.0,7871.0,1871.0,1819.0,2859.0,2091.0,,,,-1.89345675115115,-2.97896907122175,-1.68172225127634,,-3.1503226615046067,,
,6151.0,1287.0,7871.0,1872.0,1814.0,2837.0,2063.0,,,,-1.89336803210473,-2.97891359633045,-1.68240255977803,,-3.084470556693813,,
,6151.0,1289.0,7873.0,1875.0,1817.0,2852.0,2073.0,,,,-1.89286814121508,-2.97908606748264,-1.68218357974661,,-3.0290135587219806,,
,6158.0,1288.0,7875.0,1874.0,1832.0,2864.0,2077.0,,,,-1.89345460804406,-2.97887538503572,-1.68240998345156,,-2.9869434697140838,,
