TimeLabel,MEAS1_PPG1,MEAS1_PPG2,MEAS1_PPG3,MEAS1_PPG4,ACCX,ACCY,ACCZ,HR_timestamp,HR_value,radar_timestamp,phase_rx0,phase_rx1,phase_rx2,timestep,n_process,original_rate,calculated_rate
2025-08-19 23:10:14,5922.0,1098.0,2487.0,913.0,1187.0,2849.0,2479.0,2025-08-19 23:10:14,60.0,2025/08/19 11:10:14 PM,-0.369676071050955,-2.71788808696868,-0.4349576630496,2025/08/19 11:10:14 PM,-4.104600564422621,13.856813430786133,14.479452054794521
,5923.0,1097.0,2488.0,914.0,1190.0,2846.0,2471.0,2025-08-19 23:10:15,59.0,,-0.369487774042276,-2.71779746081366,-0.434959289029685,2025/08/19 11:10:24 PM,-4.131270927059661,14.009339332580566,13.333333333333334
,5923.0,1094.0,2488.0,913.0,1173.0,2826.0,2464.0,2025-08-19 23:10:16,58.0,,-0.369629251984069,-2.71763169337694,-0.434383065535934,2025/08/19 11:10:34 PM,-4.1634650272896705,13.61573314666748,13.201160541586072
,5921.0,1095.0,2487.0,913.0,1174.0,2831.0,2480.0,2025-08-19 23:10:17,58.0,,-0.369528861559641,-2.71790897778927,-0.434264039739504,2025/08/19 11:10:44 PM,-4.201094799083093,14.007781982421877,13.046594982078856
,5924.0,1096.0,2488.0,912.0,1174.0,2827.0,2476.0,2025-08-19 23:10:18,58.0,,-0.369503560379421,-2.71761387059872,-0.434836120230136,2025/08/19 11:10:54 PM,-4.243770520259968,13.215859413146973,13.800396563119627
,5928.0,1095.0,2489.0,912.0,1181.0,2832.0,2484.0,2025-08-19 23:10:19,57.0,,-0.369638008352292,-2.71738051174373,-0.433758092703235,2025/08/19 11:11:04 PM,-4.290885693728081,13.646702766418455,13.570150779453114
,5928.0,1096.0,2489.0,913.0,1183.0,2834.0,2475.0,2025-08-19 23:10:20,57.0,,-0.369424116264769,-2.71772254728791,-0.43425372254663,2025/08/19 11:11:14 PM,-4.341693190534475,13.503375053405762,14.135254988913523
,5929.0,1097.0,2491.0,914.0,1201.0,2815.0,2489.0,2025-08-19 23:10:21,57.0,,-0.369548698477565,-2.71757637999043,-0.434251308116647,2025/08/19 11:11:24 PM,-4.395361366249421,13.835511207580566,13.200846385317975
,5932.0,1098.0,2490.0,915.0,1198.0,2809.0,2484.0,2025-08-19 23:10:22,57.0,,-0.369557086729571,-2.71749503824938,-0.435171152567756,2025/08/19 11:11:34 PM,-4.450998737827945,13.523666381835938,14.741573033707862
,5928.0,1098.0,2491.0,915.0,1179.0,2829.0,2479.0,2025-08-19 23:10:23,57.0,,-0.369669646510177,-2.7175745604456,-0.434355810574985,2025/08/19 11:11:44 PM,-4.507636712467788,14.009339332580566,12.582345191040847
,5930.0,1100.0,2490.0,914.0,1178.0,2829.0,2476.0,2025-08-19 23:10:24,58.0,,-0.36967269597009,-2.71771719487547,-0.434276667621422,2025/08/19 11:11:54 PM,-4.564163348817575,13.452914237976074,12.56681575215448
,5936.0,1100.0,2494.0,915.0,1179.0,2850.0,2480.0,2025-08-19 23:10:25,58.0,,-0.369762340653437,-2.7175225426398,-0.433468989731577,2025/08/19 11:12:04 PM,-4.619208351375703,13.177160263061523,15.358439672165147
,5933.0,1100.0,2493.0,915.0,1182.0,2857.0,2479.0,2025-08-19 23:10:26,58.0,,-0.369865579537423,-2.71776755561881,-0.434795489235915,2025/08/19 11:12:14 PM,-4.670989868141358,13.090909004211426,11.356306229842145
,5934.0,1099.0,2493.0,914.0,1195.0,2856.0,2483.0,2025-08-19 23:10:27,58.0,,-0.369776206574035,-2.71758158690231,-0.433368721178186,2025/08/19 11:12:24 PM,-4.717144638068369,14.229249954223633,10.169491525423767
,5935.0,1099.0,2493.0,915.0,1175.0,2835.0,2472.0,2025-08-19 23:10:28,58.0,,-0.369560688967268,-2.71792502419246,-0.433672638283481,2025/08/19 11:12:34 PM,-4.754571448817767,12.234910011291504,12.632978723404257
,5936.0,1100.0,2490.0,916.0,1180.0,2842.0,2489.0,2025-08-19 23:10:29,58.0,,-0.369499662984335,-2.71778011120492,-0.432592232339412,2025/08/19 11:12:44 PM,-4.779321523337354,11.363636016845703,13.514041514041514
,5938.0,1099.0,2496.0,914.0,1172.0,2832.0,2501.0,2025-08-19 23:10:30,58.0,,-0.36968304915005,-2.71740857560899,-0.432922547880893,2025/08/19 11:12:54 PM,-4.786567646614007,11.829652786254885,15.5
,5939.0,1099.0,2493.0,914.0,1177.0,2828.0,2496.0,2025-08-19 23:10:31,57.0,,-0.369388991006847,-2.71767182243722,-0.433256106533862,2025/08/19 11:13:04 PM,-4.770676847153129,13.729976654052734,15.049559363284857
,5939.0,1100.0,2493.0,915.0,1180.0,2827.0,2474.0,2025-08-19 23:10:32,57.0,,-0.369572478153425,-2.71749572636866,-0.43297454357785,,-4.72539998515326,,
,5942.0,1099.0,2494.0,916.0,1191.0,2851.0,2495.0,2025-08-19 23:10:33,56.0,,-0.36943105193812,-2.71773932466183,-0.432145144683909,,-4.644176799027347,,
,5943.0,1101.0,2495.0,916.0,1170.0,2846.0,2503.0,2025-08-19 23:10:34,56.0,,-0.369356160212904,-2.71777639639033,-0.432657630106918,,-4.52053854908097,,
,5942.0,1101.0,2496.0,916.0,1196.0,2848.0,2496.0,2025-08-19 23:10:35,56.0,,-0.369239352898885,-2.71783466344714,-0.432118454341548,,-4.348574645687401,,
,5945.0,1101.0,2496.0,914.0,1181.0,2832.0,2489.0,2025-08-19 23:10:36,57.0,,-0.369432401912256,-2.7176645570647,-0.432190796558298,,-4.123417007838612,,
,5947.0,1104.0,2498.0,918.0,1206.0,2826.0,2487.0,2025-08-19 23:10:37,57.0,,-0.369413129609057,-2.71750888383091,-0.432576723907348,,-3.8416885916562946,,
,5948.0,1102.0,2497.0,917.0,1182.0,2842.0,2483.0,2025-08-19 23:10:38,57.0,,-0.369283524646435,-2.7176288255638,-0.432394580484814,,-3.5018623056771574,,
,5949.0,1101.0,2497.0,916.0,1175.0,2848.0,2480.0,2025-08-19 23:10:39,57.0,,-0.369571890953429,-2.71744560960869,-0.432247631508294,,-3.1044843725023865,,
,5950.0,1101.0,2499.0,915.0,1186.0,2863.0,2478.0,2025-08-19 23:10:40,56.0,,-0.369403224481578,-2.71729858946846,-0.432062684739446,,-2.652231815741553,,
,5952.0,1104.0,2502.0,920.0,1195.0,2844.0,2480.0,2025-08-19 23:10:41,56.0,,-0.369417252975725,-2.71754355311333,-0.432117577434011,,-2.1497950395626098,,
,5955.0,1106.0,2502.0,915.0,1185.0,2833.0,2464.0,2025-08-19 23:10:42,55.0,,-0.369112791864363,-2.71710376462095,-0.43179422492262,,-1.603599436049873,,
,5954.0,1106.0,2501.0,919.0,1192.0,2832.0,2477.0,2025-08-19 23:10:43,55.0,,-0.369310604610823,-2.7170352956834,-0.431302888534658,,-1.0213997023739225,,
,5954.0,1105.0,2498.0,916.0,1183.0,2830.0,2479.0,2025-08-19 23:10:44,55.0,,-0.369272404439118,-2.7169806549649,-0.4318427310936,,-0.41179316444747893,,
,5957.0,1105.0,2499.0,919.0,1171.0,2840.0,2475.0,2025-08-19 23:10:45,55.0,,-0.369147754041382,-2.71748538437533,-0.431715121565383,,0.21629732090247417,,
,5960.0,1105.0,2502.0,919.0,1176.0,2843.0,2468.0,2025-08-19 23:10:46,55.0,,-0.369268840011447,-2.71698625936325,-0.431841919209839,,0.8541226915257067,,
,5960.0,1109.0,2501.0,918.0,1177.0,2839.0,2467.0,2025-08-19 23:10:47,56.0,,-0.369421154060955,-2.71711233913725,-0.431085570570544,,1.4935470784756748,,
,5960.0,1105.0,2502.0,915.0,1168.0,2836.0,2481.0,2025-08-19 23:10:48,56.0,,-0.369187945204421,-2.71717567076324,-0.431106930272624,,2.1273926022677117,,
,5963.0,1107.0,2504.0,919.0,1161.0,2853.0,2486.0,2025-08-19 23:10:49,56.0,,-0.36920560019831,-2.71723032954311,-0.430482211444392,,2.749663253468571,,
,5963.0,1107.0,2505.0,919.0,1187.0,2850.0,2482.0,2025-08-19 23:10:50,57.0,,-0.36935751334526,-2.71705853273605,-0.431496155717681,,3.3556312134616615,,
,5967.0,1106.0,2506.0,918.0,1185.0,2844.0,2488.0,2025-08-19 23:10:51,57.0,,-0.369262568875334,-2.71704853651632,-0.431005703709951,,3.9417802110479587,,
,5969.0,1108.0,2503.0,920.0,1178.0,2826.0,2485.0,2025-08-19 23:10:52,57.0,,-0.369047749739142,-2.7168395033228,-0.43108188916103,,4.505612866267754,,
,5969.0,1109.0,2507.0,917.0,1210.0,2849.0,2472.0,2025-08-19 23:10:53,57.0,,-0.368977429934022,-2.7172565445211,-0.431001843713007,,5.045341445542572,,
,5971.0,1111.0,2505.0,919.0,1180.0,2833.0,2467.0,2025-08-19 23:10:54,58.0,,-0.368796879131122,-2.71722656807946,-0.430726323698232,,5.559492974569645,,
,5972.0,1112.0,2509.0,921.0,1183.0,2828.0,2472.0,2025-08-19 23:10:55,58.0,,-0.368868762048186,-2.71667714426804,-0.430336094651108,,6.046469375134908,,
,5973.0,1111.0,2510.0,921.0,1179.0,2838.0,2472.0,2025-08-19 23:10:56,58.0,,-0.368773283663201,-2.71655477900167,-0.429579279857129,,6.504110461543748,,
,5974.0,1108.0,2508.0,920.0,1174.0,2823.0,2472.0,2025-08-19 23:10:57,57.0,,-0.368870516676015,-2.71660398303837,-0.429827930600834,,6.929311351855017,,
,5979.0,1111.0,2507.0,922.0,1162.0,2837.0,2470.0,2025-08-19 23:10:58,57.0,,-0.368963312681817,-2.71695652253949,-0.430189956550473,,7.317745051949195,,
,5978.0,1110.0,2510.0,921.0,1180.0,2847.0,2468.0,2025-08-19 23:10:59,56.0,,-0.368966219772865,-2.71717506575001,-0.430239876825786,,7.663734753278751,,
,5982.0,1114.0,2510.0,919.0,1189.0,2863.0,2475.0,2025-08-19 23:11:00,55.0,,-0.368981522947357,-2.71677467972453,-0.430740446072536,,7.960308448990536,,
,5980.0,1111.0,2510.0,918.0,1184.0,2848.0,2485.0,2025-08-19 23:11:01,55.0,,-0.368896982190778,-2.71707045709145,-0.431612655750774,,8.199451397310074,,
,5982.0,1113.0,2511.0,921.0,1171.0,2836.0,2486.0,2025-08-19 23:11:02,55.0,,-0.369683269710521,-2.71749130496157,-0.43132479932956,,8.372551205644179,,
,5986.0,1113.0,2513.0,923.0,1173.0,2847.0,2489.0,2025-08-19 23:11:03,55.0,,-0.369321295759797,-2.71781885007388,-0.432010683935606,,8.471007962302933,,
,5987.0,1115.0,2514.0,922.0,1172.0,2863.0,2483.0,2025-08-19 23:11:04,55.0,,-0.369817475280656,-2.71815821237593,-0.43303506662632,,8.486960224380013,,
,5989.0,1113.0,2513.0,920.0,1179.0,2836.0,2489.0,2025-08-19 23:11:05,55.0,,-0.370308232823136,-2.71878370092287,-0.433046092192385,,8.41405907117543,,
,5990.0,1115.0,2513.0,921.0,1170.0,2843.0,2489.0,2025-08-19 23:11:06,55.0,,-0.371012364208842,-2.71893223081368,-0.433361176601682,,8.248209216882179,,
,5994.0,1116.0,2514.0,922.0,1177.0,2831.0,2487.0,2025-08-19 23:11:07,55.0,,-0.371293479485245,-2.71962712129287,-0.43477152841762,,7.988191001117966,,
,5996.0,1116.0,2516.0,923.0,1182.0,2832.0,2494.0,2025-08-19 23:11:08,56.0,,-0.371817138981404,-2.71965440787209,-0.435977443962297,,7.636082659698525,,
,5998.0,1116.0,2515.0,922.0,1179.0,2819.0,2497.0,2025-08-19 23:11:09,56.0,,-0.3721382501067,-2.72009584992499,-0.436086182018098,,7.197420399704682,,
,5997.0,1118.0,2516.0,922.0,1186.0,2848.0,2490.0,2025-08-19 23:11:10,56.0,,-0.372622588663415,-2.72063987912544,-0.43633412578988,,6.681063835594516,,
,6002.0,1119.0,2517.0,924.0,1189.0,2848.0,2480.0,2025-08-19 23:11:11,56.0,,-0.372839472437659,-2.72077052070115,-0.437641256931407,,6.09877222324365,,
,6003.0,1118.0,2518.0,923.0,1178.0,2847.0,2484.0,2025-08-19 23:11:12,56.0,,-0.373055858595402,-2.72110573534381,-0.437475800102277,,5.464535584079926,,
,6004.0,1117.0,2519.0,924.0,1186.0,2838.0,2479.0,2025-08-19 23:11:13,55.0,,-0.373163235215945,-2.72195108440127,-0.437751583424738,,4.7937363270658695,,
,6007.0,1117.0,2521.0,925.0,1193.0,2845.0,2493.0,2025-08-19 23:11:14,55.0,,-0.373729913970304,-2.72225376961446,-0.437510654407016,,4.102235422742047,,
,6007.0,1119.0,2520.0,926.0,1203.0,2837.0,2486.0,2025-08-19 23:11:15,56.0,,-0.374389609179739,-2.72180070210024,-0.438873329008472,,3.405480336720581,,
,6010.0,1120.0,2522.0,928.0,1185.0,2827.0,2486.0,2025-08-19 23:11:16,56.0,,-0.374353017800401,-2.72208780642904,-0.438717784857141,,2.717721073106733,,
,6013.0,1122.0,2524.0,927.0,1188.0,2822.0,2483.0,2025-08-19 23:11:17,56.0,,-0.374314021692611,-2.72209204339097,-0.43872041775185,,2.0513992374932295,,
,6012.0,1120.0,2524.0,926.0,1175.0,2833.0,2473.0,2025-08-19 23:11:18,56.0,,-0.374552082896857,-2.7222045359133,-0.438851270578981,,1.4167472329950432,,
,6017.0,1119.0,2522.0,926.0,1165.0,2832.0,2456.0,2025-08-19 23:11:19,56.0,,-0.374646007539156,-2.72227328786757,-0.437536201901163,,0.8216048584728451,,
,6018.0,1122.0,2524.0,929.0,1164.0,2860.0,2457.0,2025-08-19 23:11:20,56.0,,-0.374539087855619,-2.72199050778196,-0.438116804486529,,0.27143290260112113,,
,6024.0,1123.0,2526.0,925.0,1165.0,2876.0,2458.0,2025-08-19 23:11:21,56.0,,-0.374327693745656,-2.72219079368816,-0.438363322567986,,-0.23051812781451866,,
,6020.0,1122.0,2525.0,926.0,1186.0,2869.0,2472.0,2025-08-19 23:11:22,56.0,,-0.374557149968428,-2.72206139595694,-0.437813512155816,,-0.6829378598583411,,
,6027.0,1123.0,2527.0,927.0,1170.0,2872.0,2481.0,2025-08-19 23:11:23,57.0,,-0.37443278927572,-2.72218604595406,-0.437911544844912,,-1.0861387935959963,,
,6025.0,1123.0,2529.0,928.0,1176.0,2859.0,2470.0,2025-08-19 23:11:24,57.0,,-0.374356581321251,-2.72201265809816,-0.437767380892919,,-1.4417366884449954,,
,6028.0,1125.0,2528.0,929.0,1170.0,2846.0,2478.0,2025-08-19 23:11:25,57.0,,-0.374404104648749,-2.72191014961643,-0.437311027413073,,-1.752357686885349,,
,6031.0,1127.0,2530.0,927.0,1171.0,2841.0,2494.0,2025-08-19 23:11:26,57.0,,-0.374310900667843,-2.72207620811172,-0.437390985435581,,-2.0213849845397394,,
,6029.0,1126.0,2529.0,929.0,1160.0,2841.0,2492.0,2025-08-19 23:11:27,57.0,,-0.374065935146603,-2.72219776762711,-0.437141570570727,,-2.252745587678335,,
,6033.0,1127.0,2530.0,929.0,1166.0,2813.0,2494.0,2025-08-19 23:11:28,57.0,,-0.373960723256278,-2.72212279361765,-0.436436299819169,,-2.450731287507047,,
,6035.0,1128.0,2532.0,930.0,1160.0,2810.0,2496.0,2025-08-19 23:11:29,57.0,,-0.374084084224607,-2.72210761338116,-0.436137958926087,,-2.6198464328133437,,
,6033.0,1127.0,2530.0,928.0,1169.0,2844.0,2477.0,2025-08-19 23:11:30,57.0,,-0.373779711412173,-2.72209790974591,-0.43657630848664,,-2.764676165408623,,
,6033.0,1128.0,2531.0,931.0,1181.0,2844.0,2482.0,2025-08-19 23:11:31,56.0,,-0.373709542658354,-2.72182621414151,-0.435554330615799,,-2.889770676974482,,
,6032.0,1128.0,2532.0,927.0,1201.0,2842.0,2472.0,2025-08-19 23:11:32,56.0,,-0.373346487238793,-2.72173148628446,-0.43555029160824,,-2.999542884483434,,
,6028.0,1125.0,2531.0,929.0,1197.0,2807.0,2472.0,2025-08-19 23:11:33,55.0,,-0.37345353187178,-2.7215715951973,-0.434918251860076,,-3.098178429821945,,
,6020.0,1123.0,2528.0,928.0,1193.0,2803.0,2475.0,2025-08-19 23:11:34,55.0,,-0.373357927669195,-2.72139142749976,-0.434977243666405,,-3.1895579346458702,,
,6012.0,1121.0,2524.0,924.0,1175.0,2830.0,2473.0,2025-08-19 23:11:35,56.0,,-0.373127870551647,-2.72132894562903,-0.434836451963304,,-3.277191800286649,,
,6011.0,1122.0,2523.0,925.0,1171.0,2844.0,2459.0,2025-08-19 23:11:36,56.0,,-0.372798386071599,-2.72097832120336,-0.434867549064636,,-3.3641674424983563,,
,6002.0,1119.0,2522.0,922.0,1163.0,2847.0,2468.0,2025-08-19 23:11:37,57.0,,-0.372602522859372,-2.72118638013597,-0.434409904545005,,-3.45310785118804,,
,5998.0,1115.0,2519.0,925.0,1165.0,2839.0,2465.0,2025-08-19 23:11:38,57.0,,-0.372668848286293,-2.72084555546074,-0.434793217954231,,-3.5461392085936922,,
,5994.0,1114.0,2514.0,919.0,1166.0,2852.0,2474.0,2025-08-19 23:11:39,59.0,,-0.372506568301305,-2.72069012130255,-0.434140749765565,,-3.644864570385985,,
,5989.0,1113.0,2512.0,919.0,1166.0,2846.0,2479.0,2025-08-19 23:11:40,59.0,,-0.372182384501554,-2.72030010178294,-0.434115968676911,,-3.7503407592688243,,
,5981.0,1112.0,2511.0,919.0,1179.0,2824.0,2478.0,2025-08-19 23:11:41,59.0,,-0.372188851377072,-2.720350577928,-0.434369540066523,,-3.863056656051572,,
,5976.0,1112.0,2511.0,921.0,1184.0,2831.0,2479.0,2025-08-19 23:11:42,59.0,,-0.372399474005731,-2.72047786259783,-0.434281974649682,,-3.98291248086106,,
,5970.0,1109.0,2507.0,918.0,1174.0,2841.0,2490.0,2025-08-19 23:11:43,59.0,,-0.372467703362662,-2.72033949236425,-0.433573060758262,,-4.109200606140074,,
,5966.0,1109.0,2506.0,918.0,1163.0,2822.0,2479.0,2025-08-19 23:11:44,58.0,,-0.3724645395946,-2.72059894374294,-0.434178634581514,,-4.24058828969696,,
,5961.0,1107.0,2504.0,920.0,1171.0,2834.0,2479.0,2025-08-19 23:11:45,58.0,,-0.372465337790266,-2.72085474638446,-0.433817048290081,,-4.375101598901017,,
,5959.0,1107.0,2505.0,917.0,1179.0,2835.0,2473.0,2025-08-19 23:11:46,58.0,,-0.372614649931718,-2.72090938631875,-0.434228866099204,,-4.5101089735960125,,
,5955.0,1106.0,2500.0,914.0,1169.0,2850.0,2473.0,2025-08-19 23:11:47,58.0,,-0.372648588493488,-2.72051029334469,-0.433982084346989,,-4.642304201862173,,
,5953.0,1105.0,2502.0,918.0,1170.0,2825.0,2467.0,2025-08-19 23:11:48,58.0,,-0.372571289281938,-2.72062935172972,-0.434448269738428,,-4.767693039941307,,
,5951.0,1105.0,2498.0,916.0,1174.0,2850.0,2474.0,2025-08-19 23:11:49,59.0,,-0.372347964183698,-2.72082247411503,-0.433967292018761,,-4.881594198697224,,
,5948.0,1104.0,2496.0,916.0,1179.0,2848.0,2486.0,2025-08-19 23:11:50,60.0,,-0.372556307406927,-2.72103402430817,-0.434749853526432,,-4.978671198497875,,
,5947.0,1104.0,2497.0,916.0,1163.0,2859.0,2498.0,2025-08-19 23:11:51,61.0,,-0.372900204993613,-2.72088354273204,-0.433890943631643,,-5.053013955828309,,
,5942.0,1103.0,2497.0,913.0,1173.0,2844.0,2493.0,2025-08-19 23:11:52,61.0,,-0.372621477949729,-2.72114473072057,-0.434827039504421,,-5.098286610475063,,
,5942.0,1106.0,2496.0,916.0,1172.0,2842.0,2491.0,2025-08-19 23:11:53,60.0,,-0.372671711932583,-2.72118238257644,-0.434201501739623,,-5.107951286049328,,
,5941.0,1104.0,2495.0,915.0,1169.0,2833.0,2495.0,2025-08-19 23:11:54,59.0,,-0.372627056521636,-2.72097161170967,-0.434271557693155,,-5.075567300658631,,
,5939.0,1101.0,2496.0,914.0,1180.0,2851.0,2487.0,2025-08-19 23:11:55,59.0,,-0.372422962189964,-2.72088927551162,-0.43410138312601,,-4.995153144073218,,
,5937.0,1100.0,2492.0,913.0,1184.0,2842.0,2474.0,2025-08-19 23:11:56,58.0,,-0.372435006541092,-2.72090573500851,-0.43324215715469,,-4.861585833310356,,
,5936.0,1103.0,2494.0,916.0,1169.0,2830.0,2481.0,2025-08-19 23:11:57,58.0,,-0.372294288795667,-2.72071492835413,-0.434235026054432,,-4.671000918688449,,
,5934.0,1100.0,2495.0,913.0,1181.0,2827.0,2482.0,2025-08-19 23:11:58,57.0,,-0.371866762174815,-2.72058348879313,-0.433611139511315,,-4.4211485451815875,,
,5933.0,1102.0,2492.0,914.0,1179.0,2833.0,2484.0,2025-08-19 23:11:59,58.0,,-0.371805833697609,-2.72004563728198,-0.433631459118887,,-4.1116586027297535,,
,5931.0,1102.0,2493.0,913.0,1160.0,2831.0,2480.0,2025-08-19 23:12:00,58.0,,-0.37192605098401,-2.72023150024839,-0.433523377365167,,-3.744172742318574,,
,5930.0,1101.0,2494.0,913.0,1174.0,2837.0,2471.0,2025-08-19 23:12:01,58.0,,-0.371519397976241,-2.71974711968563,-0.432297483636033,,-3.322313665706822,,
,5930.0,1099.0,2493.0,915.0,1182.0,2832.0,2478.0,2025-08-19 23:12:02,58.0,,-0.371421133555846,-2.7198957452073,-0.432520031693637,,-2.8514818819374037,,
,5928.0,1100.0,2492.0,913.0,1177.0,2840.0,2467.0,2025-08-19 23:12:03,58.0,,-0.371318687599453,-2.72006336634423,-0.432803629298654,,-2.338494322273872,,
,5928.0,1099.0,2488.0,912.0,1168.0,2825.0,2473.0,2025-08-19 23:12:04,57.0,,-0.371339476275334,-2.71991193194753,-0.431700316077727,,-1.7911032900001693,,
,5927.0,1100.0,2491.0,914.0,1169.0,2836.0,2486.0,2025-08-19 23:12:05,57.0,,-0.371218098056433,-2.71993044187146,-0.432161215887865,,-1.217453022363415,,
,5928.0,1099.0,2490.0,914.0,1181.0,2842.0,2485.0,2025-08-19 23:12:06,57.0,,-0.371208764222684,-2.71995251945632,-0.43179390228236,,-0.6255406047126147,,
,5927.0,1099.0,2491.0,912.0,1173.0,2847.0,2477.0,2025-08-19 23:12:07,57.0,,-0.371198877407114,-2.71974259853585,-0.431398853572707,,-0.022746692476458736,,
,5926.0,1099.0,2491.0,911.0,1180.0,2843.0,2481.0,2025-08-19 23:12:08,57.0,,-0.37139832968881,-2.71980343403005,-0.4318561292499,,0.5845090902428013,,
,5927.0,1099.0,2489.0,912.0,1188.0,2830.0,2463.0,2025-08-19 23:12:09,58.0,,-0.371332363189561,-2.72007743593716,-0.431273802248116,,1.1909501642314695,,
,5926.0,1099.0,2488.0,914.0,1170.0,2835.0,2460.0,2025-08-19 23:12:10,58.0,,-0.371563388016446,-2.7202503403233,-0.431503817837198,,1.7924450872133288,,
,5926.0,1098.0,2488.0,911.0,1173.0,2843.0,2471.0,2025-08-19 23:12:11,59.0,,-0.372071207241602,-2.72003024778289,-0.432029672815634,,2.3858344341592703,,
,5922.0,1099.0,2485.0,910.0,1186.0,2834.0,2466.0,2025-08-19 23:12:12,59.0,,-0.372261380009262,-2.7201311942591,-0.431411081459377,,2.9686084160747743,,
,5924.0,1099.0,2488.0,911.0,1164.0,2842.0,2481.0,2025-08-19 23:12:13,59.0,,-0.372336521821326,-2.72027423084496,-0.431158035958695,,3.538478924865849,,
,5921.0,1099.0,2489.0,914.0,1174.0,2857.0,2490.0,2025-08-19 23:12:14,59.0,,-0.372303365879989,-2.72016068585456,-0.431789317191497,,4.092901581927903,,
,5921.0,1100.0,2488.0,912.0,1170.0,2854.0,2490.0,2025-08-19 23:12:15,59.0,,-0.37200751714905,-2.72039367631948,-0.431677309319089,,4.628608415118911,,
,5922.0,1098.0,2487.0,912.0,1175.0,2850.0,2480.0,2025-08-19 23:12:16,59.0,,-0.372044811575359,-2.72038675098388,-0.43169389040531,,5.141210457090019,,
,5919.0,1096.0,2486.0,911.0,1183.0,2834.0,2486.0,2025-08-19 23:12:17,59.0,,-0.372169164470385,-2.72037029060035,-0.431864435405722,,5.624922967439408,,
,5917.0,1098.0,2488.0,911.0,1187.0,2853.0,2474.0,2025-08-19 23:12:18,59.0,,-0.37200589863871,-2.72030282340535,-0.432080829330932,,6.072455011203146,,
,5918.0,1098.0,2485.0,910.0,1168.0,2830.0,2480.0,2025-08-19 23:12:19,60.0,,-0.371799604128135,-2.72013793087382,-0.43245746930411,,6.475090236705084,,
,5917.0,1096.0,2487.0,912.0,1163.0,2820.0,2462.0,2025-08-19 23:12:20,60.0,,-0.371796370173517,-2.72018307669959,-0.431214643680295,,6.822967512985539,,
,5917.0,1097.0,2489.0,911.0,1172.0,2808.0,2468.0,2025-08-19 23:12:21,61.0,,-0.37160629498652,-2.71981095953164,-0.431662289225833,,7.105550015952808,,
2025-08-19 23:10:15,5916.0,1099.0,2484.0,912.0,1168.0,2827.0,2469.0,2025-08-19 23:12:22,63.0,2025/08/19 11:10:15 PM,-0.371626133704898,-2.71978086617941,-0.431589443259919,,7.312251537656391,,
,5912.0,1099.0,2485.0,911.0,1173.0,2828.0,2461.0,2025-08-19 23:12:23,64.0,,-0.371747064077186,-2.71968182231794,-0.431163148406245,,7.433171507819261,,
,5912.0,1097.0,2485.0,910.0,1179.0,2844.0,2455.0,2025-08-19 23:12:24,66.0,,-0.37163697490518,-2.71970249996617,-0.431670424936715,,7.459877242529374,,
,5911.0,1096.0,2485.0,909.0,1182.0,2868.0,2477.0,2025-08-19 23:12:25,66.0,,-0.371289616943635,-2.71969054595333,-0.430914743535748,,7.386164299757421,,
,5910.0,1100.0,2484.0,911.0,1181.0,2870.0,2480.0,2025-08-19 23:12:26,66.0,,-0.371553509225534,-2.71930194383517,-0.431001700821597,,7.208723860476368,,
,5913.0,1094.0,2484.0,911.0,1175.0,2876.0,2480.0,2025-08-19 23:12:27,65.0,,-0.371452883114763,-2.71936040495444,-0.431243815846697,,6.9276496973354655,,
,5912.0,1097.0,2484.0,913.0,1180.0,2872.0,2480.0,2025-08-19 23:12:28,63.0,,-0.371316916820798,-2.71960908009427,-0.43122065658146,,6.546726597890758,,
,5908.0,1096.0,2480.0,909.0,1164.0,2865.0,2493.0,2025-08-19 23:12:29,61.0,,-0.371319723755239,-2.71942123564427,-0.430710963392046,,6.073457755925273,,
,5912.0,1096.0,2485.0,911.0,1182.0,2852.0,2482.0,2025-08-19 23:12:30,60.0,,-0.37145869068897,-2.71934977438849,-0.431508696245447,,5.518811597995324,,
,5912.0,1099.0,2487.0,913.0,1170.0,2868.0,2485.0,2025-08-19 23:12:31,59.0,,-0.371456421384143,-2.7194460000083,-0.43066137893505,,4.896698410554804,,
,5912.0,1097.0,2485.0,912.0,1170.0,2871.0,2485.0,2025-08-19 23:12:32,58.0,,-0.371485295926597,-2.7195475992149,-0.431418934361134,,4.223220396226068,,
,5911.0,1096.0,2486.0,911.0,1164.0,2862.0,2497.0,2025-08-19 23:12:33,58.0,,-0.371229348831283,-2.7197081741847,-0.431045802443431,,3.515768546308997,,
,5910.0,1096.0,2483.0,911.0,1167.0,2839.0,2482.0,2025-08-19 23:12:34,58.0,,-0.371690106286994,-2.71978718996062,-0.43105902928002,,2.7920584606186445,,
,5913.0,1097.0,2483.0,910.0,1158.0,2835.0,2491.0,2025-08-19 23:12:35,57.0,,-0.371665301306876,-2.71970222125676,-0.431042603937611,,2.0692004540796507,,
,5913.0,1097.0,2486.0,912.0,1173.0,2834.0,2464.0,2025-08-19 23:12:36,57.0,,-0.371633185919933,-2.71973133772636,-0.429903889062057,,1.3628873432899589,,
,5916.0,1097.0,2485.0,910.0,1182.0,2840.0,2470.0,2025-08-19 23:12:37,56.0,,-0.371695335465659,-2.71974596159332,-0.429937420953741,,0.6867606360457935,,
,5913.0,1098.0,2484.0,910.0,1194.0,2821.0,2478.0,2025-08-19 23:12:38,55.0,,-0.371306383771456,-2.719471041305,-0.430146032827061,,0.051988398265769654,,
,5916.0,1100.0,2485.0,913.0,1192.0,2826.0,2475.0,2025-08-19 23:12:39,55.0,,-0.371396109810195,-2.71942506452227,-0.429685873359144,,-0.5329390083794999,,
,5918.0,1096.0,2485.0,911.0,1188.0,2840.0,2476.0,2025-08-19 23:12:40,55.0,,-0.371354980944968,-2.71914571727225,-0.430122158293673,,-1.0622124601921457,,
,5920.0,1101.0,2487.0,912.0,1177.0,2832.0,2474.0,2025-08-19 23:12:41,55.0,,-0.370914075303837,-2.71929062990846,-0.429312693815303,,-1.5325418083613904,,
,5918.0,1099.0,2485.0,911.0,1199.0,2846.0,2478.0,2025-08-19 23:12:42,55.0,,-0.371030999836552,-2.7194097496257,-0.429089581359804,,-1.942874176001285,,
,5920.0,1098.0,2486.0,913.0,1174.0,2849.0,2485.0,2025-08-19 23:12:43,55.0,,-0.370939057726514,-2.71873032788717,-0.428612536205532,,-2.2940438654070645,,
,5920.0,1100.0,2487.0,913.0,1185.0,2846.0,2487.0,2025-08-19 23:12:44,55.0,,-0.370717781544129,-2.71880161427003,-0.429091420583163,,-2.5884027196363957,,
,5922.0,1099.0,2487.0,912.0,1193.0,2841.0,2492.0,2025-08-19 23:12:45,56.0,,-0.370720266054331,-2.71865538597327,-0.428155370377307,,-2.829470973010669,,
,5920.0,1100.0,2486.0,912.0,1190.0,2864.0,2488.0,2025-08-19 23:12:46,56.0,,-0.370493502002923,-2.7183326707268,-0.428151231831753,,-3.021634737027714,,
,5923.0,1101.0,2490.0,913.0,1184.0,2840.0,2484.0,2025-08-19 23:12:47,56.0,,-0.370591684249607,-2.71820451555281,-0.427570753520777,,-3.169900535369372,,
,5925.0,1103.0,2492.0,914.0,1172.0,2820.0,2484.0,2025-08-19 23:12:48,56.0,,-0.370455973022864,-2.71800328246286,-0.426983431912776,,-3.2797038309504214,,
,5924.0,1103.0,2490.0,914.0,1171.0,2823.0,2474.0,2025-08-19 23:12:49,55.0,,-0.369852493538588,-2.717671437301,-0.42689761604791,,-3.3567602729653987,,
,5927.0,1100.0,2491.0,913.0,1176.0,2825.0,2475.0,2025-08-19 23:12:50,55.0,,-0.370025726953266,-2.71761621747674,-0.426424283177327,,-3.406945804313524,,
,5927.0,1101.0,2490.0,914.0,1172.0,2824.0,2475.0,2025-08-19 23:12:51,54.0,,-0.369745478220115,-2.71759789439881,-0.42637217809655,,-3.4361929116832157,,
,5930.0,1102.0,2493.0,914.0,1176.0,2849.0,2486.0,2025-08-19 23:12:52,53.0,,-0.369845914637559,-2.71755843619243,-0.426099635774831,,-3.4503927347122305,,
,5929.0,1103.0,2493.0,914.0,1180.0,2859.0,2488.0,2025-08-19 23:12:53,53.0,,-0.369909910775899,-2.7177920406771,-0.425489568322427,,-3.45529494680691,,
,5933.0,1103.0,2493.0,915.0,1194.0,2823.0,2459.0,2025-08-19 23:12:54,54.0,,-0.369631292441073,-2.71805675210991,-0.426032866033394,,-3.456398929717322,,
,5931.0,1101.0,2489.0,910.0,1167.0,2828.0,2485.0,2025-08-19 23:12:55,55.0,,-0.369875917320376,-2.7179264574825,-0.426205417401572,,-3.4588311114420844,,
,5934.0,1103.0,2492.0,912.0,1175.0,2828.0,2468.0,2025-08-19 23:12:56,56.0,,-0.370149992924145,-2.71778060340944,-0.42600941107997,,-3.4672048511917053,,
,5937.0,1104.0,2491.0,913.0,1185.0,2820.0,2485.0,2025-08-19 23:12:57,57.0,,-0.370170147513701,-2.71770818482733,-0.425524402188977,,-3.4854612286179756,,
,5934.0,1103.0,2493.0,915.0,1175.0,2838.0,2482.0,2025-08-19 23:12:58,58.0,,-0.370183985834522,-2.71802403119459,-0.425450331620613,,-3.516691741019042,,
,5938.0,1102.0,2492.0,914.0,1184.0,2830.0,2475.0,2025-08-19 23:12:59,58.0,,-0.369922228967399,-2.71793090847654,-0.425154774019183,,-3.5629474300131156,,
,5941.0,1103.0,2495.0,917.0,1182.0,2831.0,2466.0,2025-08-19 23:13:00,59.0,,-0.369811054516385,-2.71797255649714,-0.425617933500509,,-3.625043435454876,,
,5942.0,1107.0,2496.0,916.0,1160.0,2831.0,2479.0,2025-08-19 23:13:01,59.0,,-0.370206106207153,-2.71783146482281,-0.4253606009114,,-3.7023732431960195,,
,5940.0,1104.0,2494.0,914.0,1161.0,2836.0,2475.0,2025-08-19 23:13:02,58.0,,-0.369953373774742,-2.71814566234915,-0.425670693497512,,-3.792752443548024,,
,5941.0,1102.0,2492.0,915.0,1169.0,2829.0,2478.0,2025-08-19 23:13:03,58.0,,-0.370240845580674,-2.7181276266932,-0.42506476209761,,-3.892316703272301,,
,5942.0,1104.0,2495.0,917.0,1181.0,2840.0,2484.0,2025-08-19 23:13:04,58.0,,-0.369913929491199,-2.71775758790406,-0.424927806077166,,-3.995501455751191,,
,5944.0,1108.0,2496.0,916.0,1164.0,2816.0,2484.0,2025-08-19 23:13:05,58.0,,-0.370276226001522,-2.71771560583731,-0.424568406478682,,-4.095129824925718,,
,5947.0,1107.0,2497.0,917.0,1160.0,2835.0,2486.0,2025-08-19 23:13:06,59.0,,-0.369842409668763,-2.71736725889304,-0.424921072471673,,-4.182629042366625,,
,5946.0,1107.0,2497.0,915.0,1160.0,2849.0,2478.0,2025-08-19 23:13:07,60.0,,-0.369724970237314,-2.71767030212631,-0.424401465928045,,-4.248383652437266,,
,5945.0,1105.0,2498.0,915.0,1156.0,2832.0,2488.0,2025-08-19 23:13:08,60.0,,-0.369758065848975,-2.71737003134917,-0.424742982638707,,-4.282217482029381,,
,5949.0,1107.0,2498.0,916.0,1170.0,2836.0,2497.0,2025-08-19 23:13:09,60.0,,-0.369765937299996,-2.71720187086146,-0.424725857043454,,-4.273978794023208,,
,5951.0,1106.0,2500.0,918.0,1171.0,2819.0,2481.0,2025-08-19 23:13:10,59.0,,-0.369501876739674,-2.71719740164197,-0.424384957433445,,-4.214187807669401,,
,5952.0,1106.0,2498.0,917.0,1176.0,2826.0,2475.0,2025-08-19 23:13:11,58.0,,-0.369560716221425,-2.71700902881525,-0.425089065050461,,-4.094695118219921,,
,5950.0,1104.0,2499.0,916.0,1172.0,2841.0,2476.0,2025-08-19 23:13:12,57.0,,-0.369619514421379,-2.71724376404359,-0.423828437891983,,-3.9092939618029203,,
,5957.0,1108.0,2503.0,920.0,1179.0,2850.0,2483.0,2025-08-19 23:13:13,57.0,,-0.369682660888372,-2.71726832511667,-0.424181899711161,,-3.654228581509348,,
,5956.0,1107.0,2501.0,920.0,1168.0,2845.0,2484.0,,,,-0.369117039383722,-2.71709782307423,-0.423263487663618,,-3.328545591512418,,
,5956.0,1108.0,2504.0,918.0,1174.0,2850.0,2472.0,,,,-0.369273542417743,-2.71690088034457,-0.423285374618876,,-2.9342461844329115,,
,5960.0,1110.0,2501.0,917.0,1173.0,2838.0,2475.0,,,,-0.369022977506353,-2.7167955848226,-0.422878837748481,,-2.4762145933939377,,
,5962.0,1110.0,2505.0,919.0,1168.0,2841.0,2490.0,,,,-0.369111761586195,-2.71653916554581,-0.422925880589858,,-1.9619209355847953,,
,5962.0,1111.0,2503.0,919.0,1170.0,2844.0,2482.0,,,,-0.369144405673223,-2.71659289518127,-0.423216404470483,,-1.400921240189216,,
,5963.0,1111.0,2506.0,919.0,1167.0,2835.0,2475.0,,,,-0.369052231468275,-2.71671532105133,-0.423510755446377,,-0.8042003721447087,,
,5965.0,1110.0,2506.0,917.0,1167.0,2829.0,2491.0,,,,-0.369393684667787,-2.71663698470889,-0.423350053756749,,-0.1834216541749673,,
,5969.0,1109.0,2504.0,919.0,1181.0,2829.0,2490.0,,,,-0.368913248164769,-2.71663006396031,-0.423640494192163,,0.44984168624911347,,
,5971.0,1113.0,2506.0,919.0,1173.0,2839.0,2468.0,,,,-0.369278330111797,-2.71739500878522,-0.424553021378748,,1.0848146084091024,,
,5971.0,1111.0,2506.0,921.0,1175.0,2832.0,2464.0,,,,-0.369560215276274,-2.71752636156434,-0.424127919639874,,1.7120939923039722,,
,5971.0,1113.0,2508.0,920.0,1177.0,2842.0,2480.0,,,,-0.370053520999767,-2.71770708362429,-0.424345232908744,,2.3240270556560123,,
,5975.0,1111.0,2508.0,921.0,1183.0,2833.0,2481.0,,,,-0.370643864424881,-2.71842053952138,-0.42567203748116,,2.914853991571377,,
,5973.0,1113.0,2509.0,920.0,1179.0,2823.0,2466.0,,,,-0.371250145383471,-2.71840723699891,-0.426959013949543,,3.480600990191705,,
,5978.0,1111.0,2510.0,919.0,1177.0,2827.0,2467.0,,,,-0.371469587550768,-2.719389488149,-0.427312601077573,,4.018740127975658,,
,5978.0,1113.0,2509.0,921.0,1190.0,2820.0,2472.0,,,,-0.37219216276408,-2.72013679990733,-0.428518624235036,,4.527663054776638,,
,5982.0,1115.0,2511.0,922.0,1189.0,2826.0,2478.0,,,,-0.372259625417395,-2.71991668982864,-0.428980106542044,,5.00604141775906,,
,5984.0,1114.0,2512.0,922.0,1160.0,2844.0,2493.0,,,,-0.372642230877125,-2.7206040082512,-0.429060967826525,,5.452163843406021,,
,5986.0,1116.0,2512.0,922.0,1152.0,2846.0,2496.0,,,,-0.373121087365363,-2.72097707230144,-0.42950194393366,,5.863343835631343,,
,5989.0,1114.0,2513.0,925.0,1194.0,2832.0,2479.0,,,,-0.373330857734385,-2.72126712530482,-0.429948245410509,,6.2354846366381524,,
,5987.0,1117.0,2513.0,923.0,1177.0,2838.0,2491.0,,,,-0.373612212782449,-2.72146059760521,-0.430615141399674,,6.562867988784231,,
,5994.0,1116.0,2513.0,924.0,1182.0,2836.0,2491.0,,,,-0.373972174658271,-2.72163779941604,-0.430183950981685,,6.838207188846987,,
,5993.0,1118.0,2514.0,924.0,1188.0,2842.0,2476.0,,,,-0.374048066554116,-2.72164033043986,-0.431144619253829,,7.052974324737647,,
,5994.0,1118.0,2517.0,924.0,1171.0,2834.0,2492.0,,,,-0.37450852224312,-2.72182948512349,-0.430734404910952,,7.19798022002934,,
,5994.0,1118.0,2515.0,924.0,1171.0,2838.0,2486.0,,,,-0.374401025949724,-2.72197315421636,-0.431328221057445,,7.2641560909877025,,
,6000.0,1118.0,2519.0,924.0,1176.0,2829.0,2480.0,,,,-0.37404420425957,-2.72172150726932,-0.43166128143055,,7.243460770251633,,
,6000.0,1118.0,2520.0,925.0,1189.0,2821.0,2499.0,,,,-0.37375895195598,-2.72171277659086,-0.430968906459881,,7.129819016958781,,
,6002.0,1119.0,2516.0,926.0,1189.0,2824.0,2503.0,,,,-0.373963169221097,-2.72186328321891,-0.43090803674203,,6.919987173176336,,
,6005.0,1118.0,2518.0,925.0,1187.0,2820.0,2480.0,,,,-0.374061991029131,-2.72165320261696,-0.43038149548102,,6.614244129495761,,
,6008.0,1123.0,2522.0,925.0,1188.0,2831.0,2466.0,,,,-0.373763904018212,-2.72177190385137,-0.430861910215071,,6.216819466129179,,
,6010.0,1123.0,2522.0,925.0,1186.0,2842.0,2474.0,,,,-0.374089534620652,-2.72170211915194,-0.430570889402868,,5.735996642010379,,
,6012.0,1122.0,2523.0,926.0,1197.0,2862.0,2472.0,,,,-0.374272642028527,-2.72176028600759,-0.430697876948037,,5.183864807609785,,
,6010.0,1120.0,2521.0,925.0,1178.0,2870.0,2482.0,,,,-0.374182657557752,-2.72181804401979,-0.42962318779383,,4.57573314594622,,
,6015.0,1124.0,2525.0,925.0,1186.0,2885.0,2488.0,,,,-0.374333917316539,-2.72183675244624,-0.42982894100121,,3.929259986212374,,
,6018.0,1123.0,2525.0,927.0,1198.0,2871.0,2481.0,,,,-0.374238968175353,-2.72195347748051,-0.430135111095208,,3.2633793720966753,,
,6020.0,1123.0,2526.0,928.0,1196.0,2859.0,2480.0,,,,-0.374107189293309,-2.7218916329827,-0.428956746745158,,2.5971268561025975,,
,6019.0,1125.0,2527.0,927.0,1181.0,2875.0,2492.0,,,,-0.374076668025089,-2.72176688659868,-0.429422329258921,,1.9484731140143936,,
,6017.0,1122.0,2526.0,927.0,1183.0,2856.0,2487.0,,,,-0.374119989485514,-2.72162806254162,-0.428653899077078,,1.3332690170395667,,
,6021.0,1126.0,2530.0,927.0,1171.0,2852.0,2496.0,,,,-0.373792510634803,-2.72145541275004,-0.428666930496594,,0.7643901735506349,,
,6026.0,1128.0,2528.0,930.0,1187.0,2835.0,2495.0,,,,-0.373325645932193,-2.72121436161672,-0.428361084682884,,0.25114462013524386,,
,6027.0,1126.0,2528.0,927.0,1220.0,2830.0,2504.0,,,,-0.373085236647919,-2.72114783309334,-0.427380413502594,,-0.20102242510870297,,
,6025.0,1123.0,2528.0,929.0,1196.0,2825.0,2506.0,,,,-0.372850102331883,-2.7202791341727,-0.427822518500976,,-0.590523766883572,,
,6025.0,1125.0,2527.0,927.0,1199.0,2843.0,2496.0,,,,-0.372697427412626,-2.72043400890721,-0.427720667595812,,-0.9193503202753007,,
,6020.0,1124.0,2527.0,929.0,1189.0,2831.0,2481.0,,,,-0.372239639504659,-2.72010737255589,-0.427143360852188,,-1.192562832178895,,
,6016.0,1121.0,2527.0,928.0,1187.0,2824.0,2486.0,,,,-0.372270220119518,-2.72011126470399,-0.427287830486252,,-1.4176162814282158,,
,6011.0,1119.0,2521.0,925.0,1181.0,2847.0,2490.0,,,,-0.372473751195659,-2.7199913929835,-0.427169020619585,,-1.603584708071182,,
,6006.0,1118.0,2522.0,925.0,1190.0,2809.0,2488.0,,,,-0.372397523976368,-2.71991739709429,-0.426528768822388,,-1.76035409800599,,
,6002.0,1119.0,2518.0,924.0,1178.0,2818.0,2475.0,,,,-0.372068005978106,-2.72000307002609,-0.426970109912706,,-1.8978451168843602,,
,5996.0,1117.0,2517.0,924.0,1177.0,2821.0,2477.0,,,,-0.371989957976601,-2.72008483769139,-0.426833165195459,,-2.025317313596815,,
,5985.0,1112.0,2514.0,922.0,1163.0,2835.0,2460.0,,,,-0.372049529215897,-2.71998554882895,-0.427311808087648,,-2.150793509053141,,
,5985.0,1116.0,2512.0,920.0,1183.0,2850.0,2476.0,,,,-0.371933390692363,-2.72002320994749,-0.426977571251282,,-2.28062916657942,,
,5976.0,1113.0,2514.0,920.0,1178.0,2837.0,2457.0,,,,-0.372108228169734,-2.72005451473805,-0.427286841675001,,-2.4192381914926586,,
,5972.0,1111.0,2509.0,920.0,1182.0,2835.0,2441.0,,,,-0.37232849857999,-2.72020941923043,-0.427631298813426,,-2.5689750736413934,,
,5965.0,1108.0,2505.0,920.0,1194.0,2851.0,2456.0,,,,-0.372780906358991,-2.71994760045258,-0.428336106747164,,-2.7301642760588987,,
,5963.0,1109.0,2502.0,918.0,1203.0,2844.0,2443.0,,,,-0.372789381311538,-2.71999459389117,-0.426980950151635,,-2.9012612842764707,,
,5957.0,1109.0,2503.0,918.0,1205.0,2849.0,2448.0,,,,-0.372665162921859,-2.72030066715277,-0.427583295693279,,-3.079125086322744,,
,5956.0,1106.0,2502.0,919.0,1211.0,2847.0,2453.0,,,,-0.372798648501903,-2.72029472513894,-0.427669532650976,,-3.259378075305423,,
,5953.0,1105.0,2501.0,915.0,1185.0,2836.0,2478.0,,,,-0.372719111884229,-2.72065159680881,-0.428061335420772,,-3.4368257798392534,,
,5950.0,1107.0,2500.0,914.0,1181.0,2853.0,2478.0,,,,-0.372654118618856,-2.72080740665381,-0.427581005433669,,-3.605905619293987,,
,5949.0,1105.0,2499.0,915.0,1194.0,2868.0,2467.0,,,,-0.372726380070225,-2.72047477557805,-0.427398344874534,,-3.7611322693500604,,
,5947.0,1104.0,2497.0,916.0,1205.0,2868.0,2477.0,,,,-0.372507694272718,-2.72057118342935,-0.427796760258227,,-3.8975088719858375,,
,5942.0,1103.0,2495.0,917.0,1195.0,2855.0,2470.0,,,,-0.372443399359172,-2.72063938796697,-0.426662470291173,,-4.010879087965815,,
,5940.0,1102.0,2496.0,914.0,1194.0,2837.0,2497.0,,,,-0.37230782059196,-2.71984438337427,-0.427218791112049,,-4.09820391353425,,
,5940.0,1103.0,2497.0,914.0,1189.0,2863.0,2494.0,,,,-0.372025113695741,-2.72004474920408,-0.426776732673379,,-4.157756758482183,,
,5940.0,1101.0,2493.0,916.0,1175.0,2822.0,2489.0,,,,-0.371868976191642,-2.71979945129513,-0.426966008355151,,-4.189237846985968,,
,5939.0,1100.0,2496.0,915.0,1178.0,2829.0,2486.0,,,,-0.371726110474417,-2.71976941728326,-0.426832854426573,,-4.193813063130949,,
,5936.0,1101.0,2493.0,914.0,1175.0,2824.0,2482.0,,,,-0.371447552087041,-2.71935234868843,-0.426235716025968,,-4.174082925994278,,
,5932.0,1103.0,2493.0,914.0,1174.0,2838.0,2488.0,,,,-0.371403262610045,-2.71929061715601,-0.42613783787169,,-4.133985439980263,,
,5934.0,1101.0,2491.0,916.0,1194.0,2836.0,2491.0,,,,-0.371228411289703,-2.7195831047547,-0.4251103301882,,-4.078633495616117,,
,5932.0,1102.0,2495.0,913.0,1194.0,2832.0,2489.0,,,,-0.371213417897206,-2.71920409897186,-0.425649951593018,,-4.014084788172928,,
,5931.0,1098.0,2490.0,912.0,1183.0,2823.0,2473.0,,,,-0.371085174765369,-2.71931299400606,-0.426064263119072,,-3.947041458145675,,
,5930.0,1099.0,2491.0,913.0,1182.0,2814.0,2461.0,,,,-0.371281996035165,-2.71907699719234,-0.425301933854649,,-3.8844792579889504,,
,5929.0,1098.0,2493.0,913.0,1181.0,2813.0,2465.0,,,,-0.371504351867935,-2.71909974354238,-0.425474627591899,,-3.8332126897720373,,
,5930.0,1099.0,2492.0,914.0,1177.0,2813.0,2467.0,,,,-0.371718543592641,-2.71930094155431,-0.426179573903848,,-3.799412609811067,,
,5927.0,1098.0,2489.0,912.0,1193.0,2828.0,2489.0,,,,-0.371511541648747,-2.71955493018549,-0.425295942918579,,-3.7881042307623574,,
,5929.0,1098.0,2490.0,913.0,1189.0,2832.0,2478.0,,,,-0.371931542902306,-2.71964282098553,-0.42606792352744,,-3.8026834503857607,,
,5928.0,1101.0,2490.0,912.0,1205.0,2825.0,2484.0,,,,-0.371693252705462,-2.71934666243475,-0.426065713836569,,-3.844495474410698,,
2025-08-19 23:10:16,5928.0,1100.0,2487.0,914.0,1203.0,2823.0,2479.0,,,2025/08/19 11:10:16 PM,-0.372389144305629,-2.72024730245073,-0.425995611176227,,-3.9125203814847525,,
,5926.0,1097.0,2491.0,911.0,1188.0,2842.0,2465.0,,,,-0.372275882777567,-2.7200647173477,-0.426697099555502,,-4.003205360385048,,
,5924.0,1099.0,2487.0,911.0,1183.0,2827.0,2461.0,,,,-0.372476511962098,-2.72012338310235,-0.426157931142837,,-4.110473232111388,,
,5927.0,1099.0,2488.0,913.0,1190.0,2839.0,2466.0,,,,-0.372474480574834,-2.72021752736266,-0.426486132149758,,-4.2259222253242195,,
,5926.0,1098.0,2487.0,914.0,1188.0,2846.0,2460.0,,,,-0.372419986691132,-2.72019046020078,-0.426158333346503,,-4.339213963846673,,
,5927.0,1097.0,2489.0,912.0,1191.0,2823.0,2453.0,,,,-0.372465505978875,-2.72008121159418,-0.426002613497809,,-4.438627454689375,,
,5922.0,1097.0,2484.0,909.0,1185.0,2820.0,2484.0,,,,-0.372418149001825,-2.71995847837929,-0.426685056114803,,-4.51173976233616,,
,5923.0,1097.0,2487.0,912.0,1200.0,2833.0,2487.0,,,,-0.3723280242462,-2.71980023888385,-0.426681548223344,,-4.546182035277619,,
,5921.0,1096.0,2486.0,913.0,1191.0,2847.0,2482.0,,,,-0.371757107142466,-2.71983543340855,-0.425884474982164,,-4.530413835237478,,
,5921.0,1098.0,2486.0,911.0,1188.0,2846.0,2486.0,,,,-0.37164784201575,-2.71956365845308,-0.426410940964688,,-4.45445841133255,,
,5919.0,1095.0,2486.0,910.0,1196.0,2809.0,2471.0,,,,-0.371557517204916,-2.71945163332412,-0.427177549524755,,-4.310544884099073,,
,5919.0,1099.0,2485.0,913.0,1191.0,2830.0,2465.0,,,,-0.371419761807208,-2.71898365579947,-0.426105136135658,,-4.093609123724984,,
,5916.0,1096.0,2485.0,912.0,1200.0,2841.0,2462.0,,,,-0.371162455731633,-2.71907668579121,-0.425802620630242,,-3.8016134651273545,,
,5917.0,1096.0,2484.0,911.0,1201.0,2843.0,2477.0,,,,-0.370993533782499,-2.7193733803294,-0.426131493519359,,-3.435656974253834,,
,5913.0,1095.0,2482.0,912.0,1215.0,2836.0,2468.0,,,,-0.370962082176526,-2.71911395156401,-0.425812882427725,,-2.999863210505254,,
,5913.0,1095.0,2483.0,913.0,1193.0,2845.0,2462.0,,,,-0.371151272660943,-2.71889485180158,-0.4255386830161,,-2.501050960362731,,
,5913.0,1095.0,2482.0,912.0,1195.0,2834.0,2476.0,,,,-0.370893473811961,-2.71884956994624,-0.426000298672525,,-1.948213841198475,,
,5912.0,1095.0,2483.0,911.0,1192.0,2841.0,2480.0,,,,-0.370949300806995,-2.71876326532904,-0.425610900449499,,-1.3518545507441233,,
,5911.0,1091.0,2483.0,911.0,1192.0,2861.0,2480.0,,,,-0.370930285098209,-2.71875070337893,-0.424939622318613,,-0.7232358121218253,,
,5911.0,1094.0,2481.0,908.0,1178.0,2827.0,2472.0,,,,-0.371167967186959,-2.71918597677449,-0.425600686611544,,-0.07361994487277025,,
,5910.0,1094.0,2483.0,910.0,1180.0,2822.0,2467.0,,,,-0.371043624566057,-2.71910078338535,-0.425424262314816,,0.586429182110815,,
,5912.0,1095.0,2484.0,911.0,1180.0,2826.0,2464.0,,,,-0.371103174422183,-2.71904852869153,-0.425779690111703,,1.24761452404411,,
,5909.0,1093.0,2482.0,912.0,1188.0,2838.0,2473.0,,,,-0.371284211144013,-2.71921372883595,-0.425820651475137,,1.9022911287183473,,
,5908.0,1093.0,2481.0,908.0,1190.0,2836.0,2472.0,,,,-0.37137689909594,-2.7190203339107,-0.425710755485339,,2.544634558439996,,
,5909.0,1093.0,2483.0,910.0,1173.0,2855.0,2473.0,,,,-0.371319116739577,-2.71878701187079,-0.425503898514802,,3.1705822547902893,,
,5910.0,1094.0,2481.0,911.0,1192.0,2856.0,2471.0,,,,-0.371126647189428,-2.71878791978236,-0.425206628522593,,3.777562615996437,,
,5910.0,1093.0,2480.0,909.0,1207.0,2840.0,2471.0,,,,-0.371237678576075,-2.71865509471449,-0.424583972906514,,4.36405013667024,,
,5910.0,1092.0,2483.0,910.0,1201.0,2844.0,2469.0,,,,-0.370784926613789,-2.71858138372055,-0.424712372377945,,4.929003958134721,,
,5909.0,1094.0,2481.0,910.0,1216.0,2826.0,2477.0,,,,-0.370815119702809,-2.71848296268689,-0.423803076661505,,5.471258749291981,,
,5913.0,1094.0,2481.0,910.0,1186.0,2828.0,2477.0,,,,-0.370311799433339,-2.71861570512486,-0.423689052624995,,5.988939594234326,,
,5912.0,1096.0,2482.0,911.0,1180.0,2827.0,2472.0,,,,-0.370159743250086,-2.71804562568879,-0.423330545334587,,6.478967232311872,,
,5911.0,1092.0,2479.0,910.0,1170.0,2832.0,2467.0,,,,-0.369867988952294,-2.71775640139912,-0.42296379589849,,6.9367089051116935,,
,5914.0,1094.0,2482.0,910.0,1180.0,2833.0,2464.0,,,,-0.369822196741471,-2.71783062629577,-0.423464365210794,,7.355815878502532,,
,5914.0,1096.0,2483.0,911.0,1181.0,2834.0,2461.0,,,,-0.369594117285334,-2.71767872042598,-0.422858803918137,,7.728273342685719,,
,5915.0,1093.0,2483.0,911.0,1174.0,2833.0,2472.0,,,,-0.369353201795218,-2.71780817342714,-0.423707266810886,,8.044672574012763,,
,5914.0,1094.0,2483.0,913.0,1200.0,2825.0,2459.0,,,,-0.369470651931655,-2.71723745918434,-0.422241134681972,,8.294698795401823,,
,5917.0,1095.0,2484.0,914.0,1205.0,2833.0,2483.0,,,,-0.369598074874187,-2.71717005439463,-0.422422772296061,,8.46781078953302,,
,5917.0,1097.0,2486.0,913.0,1203.0,2857.0,2481.0,,,,-0.369239651469428,-2.71722016792746,-0.422612712344291,,8.554070220015594,,
,5918.0,1099.0,2484.0,913.0,1195.0,2843.0,2489.0,,,,-0.36930967369537,-2.7171266805707,-0.423064035104697,,8.545060727670453,,
,5920.0,1094.0,2484.0,912.0,1191.0,2835.0,2473.0,,,,-0.369165850557801,-2.71705559142221,-0.422985217214372,,8.434820691859207,,
,5917.0,1094.0,2483.0,912.0,1193.0,2840.0,2481.0,,,,-0.369179764411979,-2.71698533716315,-0.422780852588642,,8.220701070338526,,
,5923.0,1097.0,2484.0,913.0,1210.0,2839.0,2486.0,,,,-0.369168853259563,-2.71702137155493,-0.422893342629681,,7.904053493337919,,
,5925.0,1096.0,2487.0,913.0,1206.0,2856.0,2463.0,,,,-0.368770279733888,-2.7168186821105,-0.42310188082849,,7.490656808801718,,
,5923.0,1098.0,2487.0,912.0,1183.0,2855.0,2468.0,,,,-0.368984781331376,-2.71733949785673,-0.422763021344481,,6.990805465092205,,
,5920.0,1095.0,2484.0,911.0,1191.0,2844.0,2469.0,,,,-0.368846970487121,-2.71692310880468,-0.423473769713211,,6.419011930329613,,
,5926.0,1096.0,2485.0,912.0,1189.0,2821.0,2469.0,,,,-0.368856862087595,-2.71703994490571,-0.422982047552189,,5.793316132673167,,
,5925.0,1097.0,2487.0,911.0,1194.0,2838.0,2471.0,,,,-0.369160816172305,-2.71694241862109,-0.424113001602931,,5.134242114507802,,
,5928.0,1098.0,2487.0,915.0,1192.0,2838.0,2466.0,,,,-0.368735656051754,-2.7170503572259,-0.423357717368337,,4.46348734640123,,
,5925.0,1098.0,2487.0,911.0,1199.0,2839.0,2488.0,,,,-0.368764383699217,-2.71666381680417,-0.423842402181538,,3.8024649467405855,,
,5928.0,1099.0,2489.0,913.0,1197.0,2822.0,2486.0,,,,-0.368646181154584,-2.7163285491203,-0.423297555351299,,3.170837702889417,,
,5931.0,1099.0,2489.0,913.0,1219.0,2826.0,2487.0,,,,-0.368808120970476,-2.71643739143281,-0.424344226429781,,2.5851838074780176,,
,5931.0,1099.0,2489.0,914.0,1226.0,2829.0,2474.0,,,,-0.368529585840286,-2.71644916324224,-0.423261232180125,,2.0579196556410793,,
,5930.0,1098.0,2486.0,914.0,1227.0,2829.0,2473.0,,,,-0.368427982088392,-2.71649027452098,-0.423452004212225,,1.5965786263853123,,
,5934.0,1098.0,2489.0,914.0,1210.0,2812.0,2459.0,,,,-0.368892541995988,-2.71673955876935,-0.424326976912218,,1.2035102503037896,,
,5937.0,1098.0,2490.0,913.0,1204.0,2807.0,2472.0,,,,-0.368534291392534,-2.71667888254634,-0.42459837302615,,0.8760245283340636,,
,5937.0,1099.0,2488.0,915.0,1203.0,2816.0,2466.0,,,,-0.368545235073613,-2.71671184123216,-0.424619560449181,,0.6069637482822099,,
,5936.0,1099.0,2488.0,914.0,1201.0,2819.0,2444.0,,,,-0.368598185753245,-2.71671252687605,-0.424322397013371,,0.3856415383629767,,
,5938.0,1099.0,2489.0,914.0,1195.0,2812.0,2460.0,,,,-0.368791456359486,-2.71668943604214,-0.424714947383887,,0.1990501305906955,,
,5939.0,1100.0,2491.0,915.0,1219.0,2833.0,2479.0,,,,-0.368594924365553,-2.71654064533613,-0.425639397204664,,0.03320772082129909,,
,5939.0,1101.0,2491.0,916.0,1222.0,2822.0,2468.0,,,,-0.368554801549558,-2.71665062419689,-0.425829705749462,,-0.1254954647204918,,
,5944.0,1101.0,2491.0,916.0,1207.0,2810.0,2463.0,,,,-0.368531730271881,-2.7164297603746,-0.425568302188325,,-0.28908780643653986,,
,5943.0,1099.0,2490.0,915.0,1201.0,2827.0,2469.0,,,,-0.368543825577305,-2.71648196680225,-0.425928626111461,,-0.46705523540578914,,
,5944.0,1100.0,2492.0,916.0,1202.0,2827.0,2468.0,,,,-0.368580910834997,-2.71616695165017,-0.426144651444017,,-0.6657041637960681,,
,5947.0,1100.0,2491.0,918.0,1192.0,2832.0,2487.0,,,,-0.368341061865865,-2.71636237355326,-0.42618255330485,,-0.8878831056808114,,
,5946.0,1103.0,2490.0,915.0,1198.0,2838.0,2496.0,,,,-0.36829042133706,-2.71563410917155,-0.42588844461865,,-1.1330574490596936,,
,5945.0,1100.0,2490.0,914.0,1205.0,2843.0,2465.0,,,,-0.368126400591096,-2.71568815394813,-0.426560483702178,,-1.3976962127990844,,
,5947.0,1100.0,2493.0,915.0,1187.0,2853.0,2473.0,,,,-0.368073712562283,-2.71548440133204,-0.425676738307015,,-1.675901406008771,,
,5949.0,1101.0,2496.0,917.0,1197.0,2859.0,2482.0,,,,-0.367785982948728,-2.71546855708605,-0.426538263127561,,-1.9601922368091937,,
,5952.0,1101.0,2495.0,917.0,1192.0,2847.0,2484.0,,,,-0.367322421284068,-2.71521130917165,-0.42579082835048,,-2.242349749894496,,
,5952.0,1103.0,2496.0,918.0,1196.0,2839.0,2481.0,,,,-0.367302923634226,-2.71522761216493,-0.42702633581054,,-2.5142327899802117,,
,5955.0,1104.0,2494.0,914.0,1189.0,2837.0,2464.0,,,,-0.367236754995973,-2.7149894091658,-0.426952430325945,,-2.768491491705156,,
,5958.0,1104.0,2494.0,915.0,1206.0,2849.0,2473.0,,,,-0.367034048791895,-2.71539322379455,-0.426460620198748,,-2.9991260049305217,,
,5959.0,1103.0,2496.0,918.0,1190.0,2841.0,2469.0,,,,-0.367118339893858,-2.71516740906196,-0.427347104181495,,-3.2018616889318965,,
,5958.0,1105.0,2496.0,917.0,1196.0,2822.0,2475.0,,,,-0.367305857210386,-2.71519186229863,-0.427157761760812,,-3.3743341613338056,,
,5962.0,1105.0,2496.0,917.0,1197.0,2823.0,2485.0,,,,-0.367271697907404,-2.71527682975077,-0.427896240618579,,-3.5160962148591057,,
,5962.0,1104.0,2499.0,917.0,1191.0,2840.0,2460.0,,,,-0.367587926557811,-2.71533693986772,-0.427983129733047,,-3.6284725553462214,,
,5965.0,1106.0,2497.0,919.0,1199.0,2821.0,2478.0,,,,-0.367563256274436,-2.71543603116444,-0.428357761055288,,-3.714297017427462,,
,5967.0,1107.0,2498.0,919.0,1197.0,2820.0,2477.0,,,,-0.367718231612216,-2.71596812139888,-0.429120497184828,,-3.777570398582821,,
,5964.0,1103.0,2497.0,918.0,1193.0,2834.0,2469.0,,,,-0.368329530315756,-2.71637334095907,-0.430035875436411,,-3.8230760718722783,,
,5969.0,1105.0,2500.0,919.0,1198.0,2827.0,2482.0,,,,-0.368557268929966,-2.71679255594738,-0.430374048243535,,-3.855986472221525,,
,5973.0,1105.0,2499.0,918.0,1194.0,2827.0,2471.0,,,,-0.369029842522943,-2.71741133006371,-0.432415438441946,,-3.881487914347708,,
,5973.0,1109.0,2503.0,920.0,1194.0,2819.0,2465.0,,,,-0.369221160115243,-2.71760743878425,-0.432510281036371,,-3.904445133123178,,
,5975.0,1108.0,2500.0,919.0,1194.0,2802.0,2478.0,,,,-0.369578551844784,-2.71801562494309,-0.433213932132886,,-3.9291210230669678,,
,5976.0,1109.0,2501.0,922.0,1202.0,2817.0,2484.0,,,,-0.369630457271835,-2.71778599183201,-0.433184630742782,,-3.9589614210425683,,
,5978.0,1109.0,2504.0,921.0,1199.0,2824.0,2479.0,,,,-0.369887327500573,-2.71831822808454,-0.433781361780305,,-3.996449262416272,,
,5981.0,1110.0,2502.0,918.0,1189.0,2837.0,2483.0,,,,-0.370110578443893,-2.71842032068331,-0.435048845317565,,-4.043026767432262,,
,5979.0,1109.0,2502.0,920.0,1191.0,2818.0,2465.0,,,,-0.370291568264513,-2.7183717956675,-0.434730813001686,,-4.099078357416928,,
,5980.0,1109.0,2504.0,921.0,1197.0,2844.0,2473.0,,,,-0.370238899513824,-2.7188273102532,-0.43611323893217,,-4.163961163783544,,
,5985.0,1110.0,2505.0,921.0,1206.0,2847.0,2465.0,,,,-0.370525791826045,-2.7187582108009,-0.435632381869268,,-4.236065541040764,,
,5985.0,1111.0,2507.0,920.0,1203.0,2842.0,2475.0,,,,-0.370674406313555,-2.71873033602031,-0.435962720667103,,-4.312886875119926,,
,5990.0,1110.0,2505.0,923.0,1194.0,2823.0,2495.0,,,,-0.370642948699957,-2.71861341160198,-0.435914187359094,,-4.391093720154297,,
,5989.0,1111.0,2504.0,921.0,1212.0,2835.0,2481.0,,,,-0.370406360770745,-2.71895699656154,-0.436096845061759,,-4.4665856407342694,,
,5990.0,1110.0,2504.0,922.0,1218.0,2836.0,2491.0,,,,-0.370424497298713,-2.71855559860131,-0.436264392282307,,-4.534544758038565,,
,5990.0,1113.0,2507.0,924.0,1219.0,2839.0,2485.0,,,,-0.370325640231113,-2.71852155816297,-0.436149597829962,,-4.58949468646985,,
,5996.0,1112.0,2506.0,925.0,1209.0,2822.0,2482.0,,,,-0.37027859782004,-2.71830783691453,-0.435398135549077,,-4.625386740190603,,
,5995.0,1113.0,2506.0,922.0,1227.0,2799.0,2478.0,,,,-0.370192598704091,-2.71866556893278,-0.436101931602659,,-4.635734750586737,,
,5994.0,1114.0,2508.0,923.0,1217.0,2799.0,2482.0,,,,-0.370023836419583,-2.71826522044764,-0.435294337104289,,-4.613816329202828,,
,5993.0,1113.0,2506.0,924.0,1215.0,2789.0,2474.0,,,,-0.370063038393723,-2.71819734649384,-0.436295970704861,,-4.552950158545956,,
,5992.0,1111.0,2508.0,922.0,1202.0,2786.0,2486.0,,,,-0.370329195072339,-2.71857064142297,-0.435919995810357,,-4.44684654357869,,
,5988.0,1111.0,2505.0,922.0,1203.0,2820.0,2484.0,,,,-0.370166827175166,-2.71857321217383,-0.435308463238947,,-4.290013451448493,,
,5984.0,1109.0,2503.0,922.0,1198.0,2834.0,2465.0,,,,-0.370143956947361,-2.71854170368644,-0.435634091387424,,-4.078185020312007,,
,5980.0,1109.0,2502.0,920.0,1193.0,2827.0,2468.0,,,,-0.370275569028056,-2.71784357124804,-0.435677832391296,,-3.808727106486155,,
,5974.0,1108.0,2498.0,919.0,1189.0,2824.0,2476.0,,,,-0.370157315713811,-2.71786357549447,-0.435804892843274,,-3.480967975562812,,
,5968.0,1103.0,2497.0,918.0,1195.0,2822.0,2464.0,,,,-0.369939314043641,-2.71764835659827,-0.435367853273893,,-3.0964041765748798,,
,5964.0,1103.0,2496.0,918.0,1189.0,2822.0,2457.0,,,,-0.369532229290272,-2.71756439803117,-0.434705010152397,,-2.658743012120482,,
,5961.0,1104.0,2495.0,916.0,1197.0,2818.0,2447.0,,,,-0.369363799051861,-2.71746368218258,-0.434547899593,,-2.1737627532145263,,
,5952.0,1102.0,2492.0,917.0,1203.0,2826.0,2447.0,,,,-0.369034195627648,-2.71710903543554,-0.434412356953347,,-1.6489963771807028,,
,5950.0,1101.0,2491.0,915.0,1206.0,2841.0,2461.0,,,,-0.368686952783846,-2.71681123122254,-0.434900953460868,,-1.0932689939228286,,
,5942.0,1097.0,2488.0,913.0,1204.0,2839.0,2473.0,,,,-0.368207054452645,-2.71656247592053,-0.43426554931844,,-0.5161381521278423,,
,5939.0,1098.0,2488.0,912.0,1215.0,2827.0,2472.0,,,,-0.367938584607131,-2.71642676165519,-0.433235980547128,,0.07270338903668616,,
,5936.0,1098.0,2486.0,914.0,1228.0,2824.0,2467.0,,,,-0.367840144635105,-2.71576334135203,-0.433280472947462,,0.6640015319581366,,
,5934.0,1097.0,2482.0,912.0,1216.0,2812.0,2463.0,,,,-0.367398856181068,-2.7156909144248,-0.433735969135304,,1.249436349337581,,
,5932.0,1096.0,2483.0,911.0,1220.0,2821.0,2467.0,,,,-0.367238745763897,-2.71530931305299,-0.432883713153365,,1.821994664810451,,
,5928.0,1095.0,2484.0,913.0,1210.0,2823.0,2466.0,,,,-0.367303371037832,-2.71553807165765,-0.433496635113395,,2.3761883420911616,,
,5929.0,1094.0,2480.0,914.0,1201.0,2830.0,2457.0,,,,-0.367734179879482,-2.71557886188721,-0.433970515153358,,2.9081021785081296,,
,5922.0,1096.0,2480.0,913.0,1203.0,2826.0,2444.0,,,,-0.367296130471475,-2.71516956565371,-0.433583143391315,,3.4152720906222647,,
,5924.0,1090.0,2479.0,910.0,1211.0,2815.0,2487.0,,,,-0.367640615579394,-2.71540710016064,-0.434085899865489,,3.896411327399869,,
,5921.0,1092.0,2477.0,910.0,1225.0,2832.0,2488.0,,,,-0.367792976195735,-2.715539709135,-0.434663890691134,,4.351017680608858,,
,5922.0,1092.0,2477.0,913.0,1211.0,2825.0,2489.0,,,,-0.367722149616762,-2.71594418395801,-0.434356248111859,,4.778906036123531,,
,5917.0,1093.0,2477.0,912.0,1205.0,2814.0,2478.0,,,,-0.367823958004908,-2.71581800959812,-0.435048328085581,,5.179717039569394,,
,5917.0,1091.0,2475.0,909.0,1203.0,2833.0,2484.0,,,,-0.367810474201519,-2.71571041379588,-0.435535462881447,,5.552454265772116,,
,5920.0,1092.0,2478.0,912.0,1213.0,2828.0,2464.0,,,,-0.368014955884321,-2.71577716323264,-0.435214128882578,,5.895099843554241,,
,5917.0,1092.0,2475.0,910.0,1192.0,2850.0,2461.0,,,,-0.36767750908633,-2.71595579475364,-0.436007831389815,,6.204352617528043,,
,5918.0,1092.0,2478.0,912.0,1195.0,2854.0,2469.0,,,,-0.367643427044379,-2.71571757917904,-0.435798906866194,,6.475523862392728,,
,5915.0,1092.0,2472.0,912.0,1198.0,2848.0,2476.0,,,,-0.36779781600825,-2.7155648813908,-0.435903863382641,,6.702613423054295,,
,5915.0,1087.0,2474.0,909.0,1198.0,2829.0,2452.0,,,,-0.367603946610577,-2.71583763119433,-0.435505228800899,,6.878574254483078,,
,5917.0,1091.0,2475.0,912.0,1207.0,2837.0,2441.0,,,,-0.367561481181546,-2.71554717183819,-0.435347935645405,,6.995756299901272,,
,5916.0,1093.0,2475.0,910.0,1215.0,2848.0,2455.0,,,,-0.367604484181461,-2.71562501764661,-0.435331657020042,,7.046502421530076,,
2025-08-19 23:10:17,5916.0,1090.0,2475.0,910.0,1212.0,2866.0,2464.0,,,2025/08/19 11:10:17 PM,-0.367228595070228,-2.71537428865194,-0.435152164023121,,7.023851051771252,,
,5911.0,1090.0,2471.0,911.0,1189.0,2838.0,2478.0,,,,-0.367096064605707,-2.71520685718047,-0.434535545892319,,6.922284224770372,,
,5917.0,1090.0,2473.0,910.0,1208.0,2822.0,2477.0,,,,-0.366797352606479,-2.71487076375461,-0.434681772918952,,6.738447865315294,,
,5918.0,1093.0,2476.0,912.0,1215.0,2846.0,2485.0,,,,-0.366632192555413,-2.71481333987694,-0.434937076822452,,6.471765766319761,,
,5919.0,1093.0,2475.0,911.0,1210.0,2850.0,2474.0,,,,-0.366331614823248,-2.71463109359066,-0.435132277859801,,6.12487130685686,,
,5916.0,1089.0,2473.0,912.0,1229.0,2843.0,2483.0,,,,-0.366146048030816,-2.71448250180475,-0.433812339119615,,5.7037929358903385,,
,5915.0,1091.0,2473.0,911.0,1219.0,2837.0,2471.0,,,,-0.36614338359929,-2.7141927121596,-0.433672176590991,,5.217851355394664,,
,5918.0,1093.0,2474.0,911.0,1222.0,2826.0,2474.0,,,,-0.366288862751259,-2.7141409152301,-0.434168734871978,,4.679257119014701,,
,5917.0,1091.0,2474.0,910.0,1221.0,2819.0,2480.0,,,,-0.36594040523487,-2.71411107613377,-0.433917956517635,,4.10243329579007,,
,5914.0,1089.0,2471.0,910.0,1232.0,2820.0,2486.0,,,,-0.365429239781959,-2.71394670803187,-0.432923113855417,,3.5031228620140493,,
,5915.0,1092.0,2470.0,908.0,1223.0,2832.0,2487.0,,,,-0.36594083336456,-2.71377130672853,-0.433571175449144,,2.8973681361506904,,
,5915.0,1088.0,2470.0,911.0,1215.0,2822.0,2477.0,,,,-0.36585841744145,-2.71361561376815,-0.434014628436173,,2.3004652645352976,,
,5912.0,1090.0,2472.0,912.0,1197.0,2806.0,2465.0,,,,-0.366005156878913,-2.71340004088012,-0.433254296297421,,1.725998739859472,,
,5913.0,1091.0,2470.0,909.0,1205.0,2815.0,2466.0,,,,-0.365992807059545,-2.71368512675965,-0.433504918514825,,1.18504995711886,,
,5912.0,1090.0,2468.0,912.0,1201.0,2819.0,2465.0,,,,-0.365993461770564,-2.71375740013382,-0.432964392851234,,0.6856523107908137,,
,5907.0,1088.0,2470.0,909.0,1205.0,2842.0,2490.0,,,,-0.366077760028891,-2.7137605459776,-0.433484840194432,,0.23253658926424717,,
,5910.0,1089.0,2469.0,910.0,1215.0,2822.0,2481.0,,,,-0.365988451125352,-2.71400384749756,-0.433873961344997,,-0.17282200003800774,,
,5909.0,1088.0,2468.0,910.0,1214.0,2817.0,2487.0,,,,-0.365872532430544,-2.71407909821435,-0.434177083337947,,-0.5318763871872375,,
,5905.0,1085.0,2468.0,909.0,1209.0,2833.0,2469.0,,,,-0.365663330455366,-2.71355694858497,-0.433876954742045,,-0.848450271599305,,
,5906.0,1088.0,2468.0,908.0,1215.0,2836.0,2480.0,,,,-0.36579661144865,-2.71379679580167,-0.434150732483044,,-1.1280241890167502,,
,5906.0,1088.0,2469.0,912.0,1206.0,2828.0,2471.0,,,,-0.365792285149302,-2.71368420573549,-0.434464999488537,,-1.376952081262464,,
,5906.0,1086.0,2468.0,911.0,1205.0,2818.0,2463.0,,,,-0.365701085235363,-2.71393246170808,-0.433791152033883,,-1.6016980477818192,,
,5905.0,1088.0,2466.0,907.0,1194.0,2829.0,2457.0,,,,-0.365776442758943,-2.7141447829733,-0.434614212025762,,-1.8081738972556984,,
,5906.0,1088.0,2468.0,909.0,1189.0,2838.0,2466.0,,,,-0.365798454076186,-2.71360748799315,-0.4348033542844,,-2.001238662319989,,
,5907.0,1088.0,2466.0,910.0,1197.0,2832.0,2474.0,,,,-0.366036374820255,-2.71367093485292,-0.435008268814521,,-2.1843947083726603,,
,5905.0,1088.0,2467.0,909.0,1197.0,2818.0,2477.0,,,,-0.366056818587618,-2.7135994513267,-0.43504191249812,,-2.359686393221124,,
,5907.0,1088.0,2465.0,909.0,1193.0,2824.0,2465.0,,,,-0.366125891230986,-2.7136587051502,-0.435041494517401,,-2.527781684207486,,
,5907.0,1087.0,2468.0,910.0,1193.0,2821.0,2475.0,,,,-0.365981905605905,-2.71393301707124,-0.434481609444095,,-2.688198590249029,,
,5907.0,1088.0,2468.0,912.0,1200.0,2832.0,2484.0,,,,-0.36575072049231,-2.71366161133159,-0.434934423180481,,-2.8396281618988706,,
,5906.0,1086.0,2467.0,911.0,1202.0,2821.0,2484.0,,,,-0.365726939599891,-2.71353757445563,-0.435050436711111,,-2.980303464295132,,
,5910.0,1089.0,2463.0,910.0,1213.0,2833.0,2481.0,,,,-0.365597188222067,-2.71347981100873,-0.435197543641433,,-3.108367634808671,,
,5905.0,1086.0,2464.0,910.0,1204.0,2832.0,2476.0,,,,-0.365407898906167,-2.71365300755193,-0.434843642569022,,-3.2222021110563923,,
,5909.0,1087.0,2469.0,909.0,1208.0,2823.0,2476.0,,,,-0.365468485438934,-2.71371636693299,-0.434597294602233,,-3.320686743752087,,
,5910.0,1088.0,2467.0,912.0,1237.0,2835.0,2476.0,,,,-0.365521351779359,-2.71342000733881,-0.435091160281108,,-3.4033752176267615,,
,5911.0,1088.0,2469.0,911.0,1230.0,2832.0,2477.0,,,,-0.365324010571495,-2.71351160979986,-0.434499754392457,,-3.470580411996191,,
,5910.0,1087.0,2466.0,909.0,1210.0,2825.0,2482.0,,,,-0.365311713962522,-2.71368462921693,-0.435237573147098,,-3.5233737440071016,,
,5913.0,1086.0,2468.0,911.0,1215.0,2817.0,2484.0,,,,-0.365464337435756,-2.71340452242239,-0.435273612215572,,-3.5635095157500123,,
,5913.0,1091.0,2470.0,915.0,1196.0,2830.0,2477.0,,,,-0.365487357494477,-2.71380670670814,-0.435196537517101,,-3.593289914198612,,
,5915.0,1089.0,2469.0,909.0,1208.0,2839.0,2471.0,,,,-0.36550561271205,-2.71377407665234,-0.434852969563941,,-3.6153890764637002,,
,5915.0,1087.0,2469.0,910.0,1243.0,2836.0,2462.0,,,,-0.365491394886252,-2.7135601100876,-0.434413989947631,,-3.6326560014560276,,
,5916.0,1088.0,2469.0,909.0,1220.0,2839.0,2472.0,,,,-0.365473609082968,-2.71327570894146,-0.434621060993978,,-3.6479162359370387,,
,5918.0,1090.0,2473.0,913.0,1204.0,2831.0,2460.0,,,,-0.365139346670075,-2.71339573268237,-0.435171914797373,,-3.6637910328292964,,
,5918.0,1090.0,2471.0,913.0,1202.0,2848.0,2468.0,,,,-0.365333148272957,-2.71324883434082,-0.434171573756157,,-3.6825497796478097,,
,5918.0,1089.0,2470.0,911.0,1207.0,2857.0,2456.0,,,,-0.365239201572328,-2.7134106915285,-0.434841578282106,,-3.7060067316348224,,
,5919.0,1089.0,2473.0,911.0,1217.0,2848.0,2466.0,,,,-0.365111285797513,-2.71322944401511,-0.434316534946163,,-3.735466494891535,,
,5920.0,1092.0,2476.0,914.0,1225.0,2847.0,2464.0,,,,-0.365030641190469,-2.71319329296387,-0.434379265068315,,-3.7717146519921556,,
,5922.0,1091.0,2472.0,915.0,1209.0,2847.0,2468.0,,,,-0.364978948784923,-2.71318204777417,-0.434391206164887,,-3.815041322853508,,
,5925.0,1090.0,2473.0,912.0,1206.0,2851.0,2484.0,,,,-0.364905854992809,-2.71298777557886,-0.433866474619953,,-3.8652780804446976,,
,5923.0,1091.0,2472.0,912.0,1200.0,2837.0,2485.0,,,,-0.364746803276657,-2.71261745202284,-0.433628175770371,,-3.921825001684774,,
,5926.0,1091.0,2473.0,913.0,1194.0,2827.0,2470.0,,,,-0.364537011777995,-2.71268111798023,-0.433337420619526,,-3.9836469144747513,,
,5926.0,1091.0,2473.0,913.0,1195.0,2834.0,2473.0,,,,-0.364311484224416,-2.71255027456523,-0.433035149749808,,-4.049226453997616,,
,5930.0,1093.0,2474.0,913.0,1204.0,2829.0,2487.0,,,,-0.36453295247513,-2.71250131460577,-0.43266397101475,,-4.116474323301924,,
,5928.0,1090.0,2475.0,913.0,1206.0,2839.0,2486.0,,,,-0.363947926371588,-2.71225928498533,-0.432330263252594,,-4.1826107633909055,,
,5932.0,1093.0,2475.0,916.0,1223.0,2846.0,2476.0,,,,-0.363794921642165,-2.71205845674974,-0.432145907346137,,-4.244043533067382,,
,5932.0,1094.0,2475.0,912.0,1208.0,2840.0,2472.0,,,,-0.363700907632475,-2.71186735505151,-0.431777901097618,,-4.296274677372214,,
,5932.0,1092.0,2475.0,914.0,1208.0,2842.0,2485.0,,,,-0.363826222601208,-2.71146098292975,-0.432318480780714,,-4.333870049283158,,
,5934.0,1092.0,2477.0,914.0,1202.0,2847.0,2474.0,,,,-0.363439458657248,-2.71184775386978,-0.43200105955912,,-4.350521510293364,,
,5935.0,1092.0,2479.0,913.0,1202.0,2823.0,2494.0,,,,-0.363491519782735,-2.71190637190606,-0.431043301487622,,-4.339221985987211,,
,5939.0,1097.0,2481.0,916.0,1196.0,2818.0,2495.0,,,,-0.363516333615023,-2.71167182023487,-0.432471935633962,,-4.292558951209881,,
,5939.0,1093.0,2480.0,917.0,1198.0,2822.0,2480.0,,,,-0.363642177657942,-2.71161989762362,-0.432355225360935,,-4.203114445525678,,
,5939.0,1094.0,2478.0,916.0,1189.0,2849.0,2471.0,,,,-0.363815738151155,-2.7116117323556,-0.432867470883627,,-4.063942145195881,,
,5939.0,1092.0,2478.0,912.0,1197.0,2838.0,2475.0,,,,-0.363842186844302,-2.7115477969284,-0.432154645548364,,-3.8690772321706994,,
,5944.0,1098.0,2480.0,916.0,1215.0,2820.0,2480.0,,,,-0.364074230585616,-2.71151099703166,-0.432192034356578,,-3.614025300305103,,
,5945.0,1096.0,2482.0,918.0,1194.0,2829.0,2472.0,,,,-0.364120895608323,-2.71149910825368,-0.431625384881171,,-3.296174201518146,,
,5942.0,1096.0,2482.0,916.0,1203.0,2847.0,2472.0,,,,-0.363776719420632,-2.71166878244652,-0.432142870460867,,-2.9150786529382926,,
,5944.0,1096.0,2481.0,915.0,1212.0,2847.0,2487.0,,,,-0.363593648097263,-2.71143812632621,-0.432245220720698,,-2.472581567651252,,
,5950.0,1094.0,2480.0,915.0,1204.0,2849.0,2481.0,,,,-0.363331180211597,-2.7113201735895,-0.43106802279155,,-1.9727567576213365,,
,5949.0,1096.0,2484.0,916.0,1207.0,2846.0,2473.0,,,,-0.363399105534511,-2.71186450653269,-0.431666648886472,,-1.42168128285714,,
,5950.0,1097.0,2483.0,915.0,1214.0,2845.0,2483.0,,,,-0.363316937447706,-2.71132809186988,-0.431517910152331,,-0.8270673690501014,,
,5949.0,1097.0,2484.0,915.0,1202.0,2848.0,2474.0,,,,-0.36343634327765,-2.71125729372003,-0.431403366127969,,-0.19779898924503125,,
,5952.0,1096.0,2483.0,916.0,1199.0,2839.0,2464.0,,,,-0.36338982600074,-2.71102669315557,-0.431567893284005,,0.45657515734577525,,
,5954.0,1097.0,2484.0,920.0,1191.0,2827.0,2486.0,,,,-0.363212080415171,-2.71090220653916,-0.431667884127048,,1.1263413882834132,,
,5953.0,1097.0,2486.0,917.0,1194.0,2829.0,2484.0,,,,-0.363301556593203,-2.71065797778138,-0.431316835944259,,1.8020682686147538,,
,5955.0,1096.0,2484.0,917.0,1211.0,2839.0,2499.0,,,,-0.363239027630461,-2.71108297450827,-0.431321007264371,,2.4749644317231914,,
,5959.0,1099.0,2486.0,917.0,1222.0,2842.0,2482.0,,,,-0.363452902448181,-2.71099823412478,-0.431548923037879,,3.137120519783666,,
,5960.0,1098.0,2488.0,917.0,1226.0,2838.0,2459.0,,,,-0.363314780938385,-2.7113238183486,-0.432164372031659,,3.781621351148971,,
,5962.0,1101.0,2489.0,919.0,1211.0,2838.0,2464.0,,,,-0.363139781742118,-2.71135044908082,-0.432024063037746,,4.4025285836588886,,
,5965.0,1102.0,2488.0,918.0,1218.0,2848.0,2494.0,,,,-0.363195060858894,-2.71119010197642,-0.431626188942964,,4.99474832139481,,
,5964.0,1099.0,2488.0,918.0,1213.0,2839.0,2475.0,,,,-0.363281820647639,-2.71151295469705,-0.4323782044066,,5.553810406106999,,
,5969.0,1102.0,2490.0,920.0,1226.0,2840.0,2479.0,,,,-0.363288912433517,-2.71155921495946,-0.432279067452242,,6.075595170139546,,
,5970.0,1104.0,2491.0,921.0,1203.0,2823.0,2467.0,,,,-0.363668537989702,-2.71195997810224,-0.433369869249073,,6.556048659258919,,
,5970.0,1101.0,2493.0,920.0,1217.0,2822.0,2452.0,,,,-0.363910191088533,-2.71217854890029,-0.43395226404401,,6.990928734380718,,
,5974.0,1103.0,2493.0,920.0,1198.0,2823.0,2462.0,,,,-0.364116945420152,-2.71243744933125,-0.433884778103907,,7.375622075866601,,
,5973.0,1103.0,2493.0,920.0,1179.0,2829.0,2484.0,,,,-0.364439052986258,-2.71275137123294,-0.434688443115785,,7.705065887427227,,
,5976.0,1101.0,2494.0,923.0,1184.0,2835.0,2478.0,,,,-0.364687710355208,-2.71332292284696,-0.435351370019776,,7.973798020839737,,
,5976.0,1104.0,2494.0,920.0,1176.0,2837.0,2477.0,,,,-0.364931585349249,-2.71333001961038,-0.436143675354817,,8.17614564157126,,
,5979.0,1103.0,2497.0,920.0,1202.0,2859.0,2463.0,,,,-0.365346040726645,-2.71379470154703,-0.437331173374797,,8.306546336913838,,
,5984.0,1105.0,2497.0,923.0,1223.0,2850.0,2485.0,,,,-0.365533160232967,-2.71366016213529,-0.437385994572132,,8.359978327539075,,
,5985.0,1104.0,2498.0,921.0,1228.0,2874.0,2475.0,,,,-0.366100780172076,-2.71416153944316,-0.438302796140329,,8.332460321203337,,
,5984.0,1107.0,2500.0,922.0,1231.0,2866.0,2484.0,,,,-0.366149231040432,-2.71457461611192,-0.437470158450805,,8.221568818267428,,
,5987.0,1107.0,2498.0,921.0,1244.0,2845.0,2501.0,,,,-0.366358089627049,-2.71486974529171,-0.439379854526836,,8.026913195300372,,
,5987.0,1109.0,2499.0,923.0,1212.0,2837.0,2479.0,,,,-0.366928661314297,-2.71514604633772,-0.439040356421891,,7.750507731354176,,
,5987.0,1108.0,2497.0,923.0,1202.0,2828.0,2467.0,,,,-0.367199377255211,-2.71535641306804,-0.43941825890086,,7.396985390843694,,
,5987.0,1107.0,2499.0,925.0,1204.0,2837.0,2473.0,,,,-0.367248259743316,-2.71561170082145,-0.439796231904433,,6.973611029311829,,
,5984.0,1106.0,2499.0,920.0,1193.0,2826.0,2487.0,,,,-0.367599912342498,-2.71579879932651,-0.439892570014602,,6.49007191766433,,
,5980.0,1103.0,2495.0,918.0,1195.0,2846.0,2482.0,,,,-0.367468121125405,-2.715578792188,-0.44065721455914,,5.958049840566698,,
,5975.0,1103.0,2496.0,921.0,1197.0,2845.0,2479.0,,,,-0.367863669756638,-2.71593407438332,-0.440448268482309,,5.390607649172903,,
,5970.0,1101.0,2495.0,920.0,1192.0,2834.0,2486.0,,,,-0.367330528435447,-2.7157589935188,-0.439988771849401,,4.8014481553403225,,
,5969.0,1102.0,2491.0,920.0,1185.0,2829.0,2483.0,,,,-0.367453046266066,-2.71541159863573,-0.440315663143461,,4.204119309198978,,
,5961.0,1099.0,2487.0,917.0,1199.0,2838.0,2480.0,,,,-0.367396624842957,-2.71547417089966,-0.439634239481261,,3.6112443210454006,,
,5959.0,1098.0,2486.0,916.0,1210.0,2823.0,2475.0,,,,-0.367366040719075,-2.71538114986714,-0.439976792209349,,3.03384964133224,,
,5950.0,1099.0,2484.0,916.0,1206.0,2822.0,2477.0,,,,-0.367268833162676,-2.71559775849851,-0.439967621857697,,2.480850135629652,,
,5946.0,1096.0,2483.0,917.0,1203.0,2824.0,2468.0,,,,-0.366919499432501,-2.71523143416558,-0.439518661898749,,1.9587321778273774,,
,5941.0,1094.0,2479.0,914.0,1198.0,2815.0,2473.0,,,,-0.36694669999117,-2.71505984415865,-0.439711937208478,,1.471453990885355,,
,5937.0,1090.0,2480.0,915.0,1206.0,2815.0,2475.0,,,,-0.366750739672206,-2.71528005057913,-0.439779562817318,,1.0205602277108325,,
,5931.0,1090.0,2476.0,913.0,1193.0,2825.0,2469.0,,,,-0.3666516042368,-2.71476421287417,-0.439251706754276,,0.6054862764154448,,
,5928.0,1090.0,2475.0,913.0,1204.0,2832.0,2469.0,,,,-0.36652685427171,-2.71462756066647,-0.438995117089436,,0.22400900393367246,,
,5922.0,1090.0,2476.0,910.0,1216.0,2841.0,2459.0,,,,-0.36630938922534,-2.71414552707649,-0.437406740950505,,-0.12721334706098944,,
,5919.0,1089.0,2474.0,912.0,1196.0,2820.0,2455.0,,,,-0.36603636908071,-2.71400063954172,-0.438150000983117,,-0.4520766801565241,,
,5917.0,1087.0,2471.0,910.0,1197.0,2825.0,2448.0,,,,-0.365808144358748,-2.71401604361946,-0.437874663314464,,-0.7545057052508531,,
,5914.0,1089.0,2471.0,911.0,1197.0,2831.0,2446.0,,,,-0.36591021830773,-2.71414611527961,-0.437351922388181,,-1.0380220834840546,,
,5909.0,1088.0,2471.0,911.0,1181.0,2851.0,2464.0,,,,-0.365943064253556,-2.71382550167261,-0.437160785497648,,-1.3054436539715697,,
,5905.0,1084.0,2467.0,911.0,1212.0,2840.0,2480.0,,,,-0.365616697266042,-2.71407959159341,-0.437575864632189,,-1.5587310874841003,,
,5906.0,1086.0,2471.0,910.0,1199.0,2842.0,2483.0,,,,-0.365544297623244,-2.71378602052725,-0.437412117083882,,-1.7989767742022407,,
,5906.0,1085.0,2464.0,911.0,1199.0,2847.0,2491.0,,,,-0.365596752104117,-2.71351090537248,-0.437787182154826,,-2.0265131751565715,,
,5904.0,1085.0,2464.0,910.0,1203.0,2841.0,2488.0,,,,-0.366129570889939,-2.71365608020107,-0.43792198944031,,-2.241106855703152,,
,5901.0,1082.0,2464.0,909.0,1194.0,2842.0,2489.0,,,,-0.366181173439415,-2.71394617608804,-0.437670962141735,,-2.442200184906681,,
,5900.0,1082.0,2465.0,909.0,1186.0,2822.0,2490.0,,,,-0.366094733483572,-2.71407444334833,-0.437605958963772,,-2.6291637702037427,,
,5897.0,1082.0,2464.0,909.0,1205.0,2824.0,2479.0,,,,-0.366090512269694,-2.71419488508138,-0.437986853626237,,-2.801527341510898,,
,5896.0,1083.0,2466.0,911.0,1205.0,2835.0,2477.0,,,,-0.366345609071485,-2.71452125765297,-0.437338369794575,,-2.959163707405556,,
,5893.0,1080.0,2463.0,908.0,1203.0,2836.0,2488.0,,,,-0.366344326634096,-2.7147101430322,-0.438025372523384,,-3.1024086223945684,,
,5895.0,1083.0,2464.0,910.0,1200.0,2836.0,2488.0,,,,-0.366502487666878,-2.71505661778387,-0.437812974946453,,-3.2321079743480547,,
,5896.0,1082.0,2463.0,909.0,1189.0,2830.0,2484.0,,,,-0.366591375271395,-2.71475436959936,-0.437790894183672,,-3.349591713784887,,
,5893.0,1081.0,2460.0,909.0,1190.0,2832.0,2476.0,,,,-0.366888039014558,-2.71516664078469,-0.438291681683426,,-3.4565808248690155,,
,5890.0,1082.0,2462.0,908.0,1208.0,2838.0,2474.0,,,,-0.366806309165899,-2.71517626151364,-0.43832267490163,,-3.5550392839530307,,
,5893.0,1082.0,2465.0,910.0,1198.0,2840.0,2479.0,,,,-0.367028401834499,-2.71532981233764,-0.43828450362657,,-3.6469875985814593,,
,5894.0,1083.0,2464.0,910.0,1188.0,2837.0,2480.0,,,,-0.3673178142887,-2.71555787359961,-0.438376524860666,,-3.734298382527634,,
,5892.0,1079.0,2463.0,908.0,1188.0,2819.0,2487.0,,,,-0.367456970887606,-2.71537484629875,-0.439386937401741,,-3.8184973695769244,,
2025-08-19 23:10:18,5892.0,1080.0,2462.0,910.0,1174.0,2822.0,2465.0,,,2025/08/19 11:10:18 PM,-0.367366254583222,-2.71525023913408,-0.437869170155813,,-3.9005947408241375,,
,5891.0,1080.0,2460.0,907.0,1182.0,2811.0,2487.0,,,,-0.367259957477705,-2.71548558859728,-0.438258740702228,,-3.9809708378663657,,
,5893.0,1081.0,2459.0,909.0,1174.0,2833.0,2482.0,,,,-0.367232385073667,-2.71529031605765,-0.43800248566291,,-4.0593365309085385,,
,5892.0,1083.0,2463.0,911.0,1176.0,2836.0,2484.0,,,,-0.367499199705522,-2.71526535341679,-0.437549444167955,,-4.134781326134277,,
,5888.0,1079.0,2461.0,909.0,1185.0,2832.0,2483.0,,,,-0.367426587646825,-2.71528334838019,-0.438169456928871,,-4.205911856526458,,
,5889.0,1077.0,2460.0,905.0,1198.0,2846.0,2488.0,,,,-0.367274453819569,-2.71512233489479,-0.438142864753088,,-4.271070467821251,,
,5889.0,1080.0,2462.0,906.0,1212.0,2836.0,2477.0,,,,-0.367400679488279,-2.71525610369746,-0.43819784113767,,-4.328609842678845,,
,5890.0,1081.0,2462.0,909.0,1209.0,2826.0,2472.0,,,,-0.367362047589638,-2.71527659406163,-0.437636977713447,,-4.377187721987379,,
,5890.0,1081.0,2461.0,909.0,1201.0,2832.0,2467.0,,,,-0.367345943379104,-2.71541041417755,-0.437671148503444,,-4.416038968775128,,
,5884.0,1078.0,2458.0,906.0,1188.0,2825.0,2473.0,,,,-0.367642242588451,-2.71524762612352,-0.437829735066715,,-4.445182621854044,,
,5886.0,1078.0,2462.0,908.0,1199.0,2832.0,2493.0,,,,-0.367597612623461,-2.71535905288615,-0.438915458998774,,-4.465529086360304,,
,5887.0,1079.0,2459.0,908.0,1202.0,2861.0,2489.0,,,,-0.367510304152513,-2.71586477003615,-0.437286724385659,,-4.478865117639056,,
,5883.0,1081.0,2460.0,907.0,1188.0,2857.0,2480.0,,,,-0.367803961126687,-2.71568803521844,-0.438436688562204,,-4.487709116214915,,
,5881.0,1079.0,2457.0,905.0,1211.0,2833.0,2467.0,,,,-0.367962561831672,-2.71594330303222,-0.437791025248788,,-4.495044387857113,,
,5879.0,1077.0,2458.0,907.0,1218.0,2824.0,2466.0,,,,-0.368019582473541,-2.71580729439455,-0.437801145759905,,-4.5039520884199975,,
,5882.0,1079.0,2456.0,905.0,1233.0,2815.0,2480.0,,,,-0.36806782971367,-2.71573223461209,-0.437301443254237,,-4.5171774638835815,,
,5878.0,1079.0,2457.0,906.0,1214.0,2816.0,2480.0,,,,-0.368471530588027,-2.71599164113658,-0.438477398827283,,-4.536671557321727,,
,5879.0,1080.0,2458.0,906.0,1217.0,2848.0,2475.0,,,,-0.36837248726197,-2.71612954684358,-0.438350142021178,,-4.563154871513941,,
,5880.0,1078.0,2457.0,907.0,1212.0,2836.0,2480.0,,,,-0.36812963065943,-2.71575558157585,-0.43759761918266,,-4.595749296479331,,
,5879.0,1081.0,2459.0,907.0,1202.0,2841.0,2478.0,,,,-0.367843032528724,-2.71611554357419,-0.438182994232742,,-4.631720346573694,,
,5880.0,1078.0,2458.0,907.0,1188.0,2831.0,2471.0,,,,-0.367579304727073,-2.71575361274983,-0.438433427819144,,-4.666364106153041,,
,5878.0,1080.0,2461.0,909.0,1187.0,2820.0,2464.0,,,,-0.367720322437895,-2.71547069314403,-0.438162108323047,,-4.693062889904194,,
,5877.0,1076.0,2457.0,905.0,1186.0,2826.0,2460.0,,,,-0.367499251617421,-2.71570673862968,-0.438142936561021,,-4.703520895523295,,
,5879.0,1079.0,2458.0,907.0,1187.0,2810.0,2476.0,,,,-0.367566297395849,-2.71553619700218,-0.437574399253114,,-4.688176346791822,,
,5882.0,1077.0,2458.0,908.0,1196.0,2814.0,2478.0,,,,-0.367352297379012,-2.71566019714261,-0.437394563948239,,-4.636770237764708,,
,5878.0,1080.0,2458.0,906.0,1201.0,2825.0,2483.0,,,,-0.367465047450959,-2.71555940445155,-0.438467183599336,,-4.539034682515674,,
,5879.0,1080.0,2456.0,906.0,1204.0,2821.0,2482.0,,,,-0.36743908879959,-2.71558797434474,-0.438181602748798,,-4.3854474852813965,,
,5883.0,1076.0,2456.0,907.0,1201.0,2834.0,2482.0,,,,-0.367210640998856,-2.71546160860973,-0.437860035605107,,-4.1679858774871725,,
,5882.0,1080.0,2459.0,908.0,1196.0,2829.0,2480.0,,,,-0.36743708976041,-2.71523670458667,-0.437504476124773,,-3.8808041715364543,,
,5882.0,1079.0,2458.0,906.0,1194.0,2821.0,2488.0,,,,-0.36722572856824,-2.71542216283378,-0.437688443982762,,-3.5207608383926146,,
,5882.0,1079.0,2458.0,904.0,1211.0,2805.0,2473.0,,,,-0.367187997733092,-2.71533194852093,-0.437403717108179,,-3.087733257015963,,
,5884.0,1078.0,2458.0,906.0,1215.0,2822.0,2474.0,,,,-0.367592307894515,-2.71570253891538,-0.437599135162358,,-2.5846833227063946,,
,5886.0,1081.0,2458.0,906.0,1195.0,2819.0,2487.0,,,,-0.367585351260559,-2.71540428978264,-0.437684827460379,,-2.0174700831162418,,
,5884.0,1080.0,2462.0,907.0,1199.0,2815.0,2487.0,,,,-0.367724990568325,-2.71570880451356,-0.437032455485651,,-1.3944392267305195,,
,5884.0,1079.0,2460.0,909.0,1206.0,2820.0,2504.0,,,,-0.367507107258845,-2.71579973825083,-0.437059753146965,,-0.7258461782326086,,
,5885.0,1079.0,2460.0,904.0,1208.0,2826.0,2472.0,,,,-0.367647625637144,-2.71577491630143,-0.437142761562192,,-0.02318514228483922,,
,5887.0,1083.0,2461.0,910.0,1195.0,2826.0,2475.0,,,,-0.367673718290862,-2.71587565973662,-0.437435875652874,,0.7015002966287887,,
,5889.0,1080.0,2462.0,908.0,1199.0,2836.0,2481.0,,,,-0.367803315572676,-2.71584845081857,-0.437294617047082,,1.4362567248000988,,
,5889.0,1082.0,2462.0,909.0,1200.0,2838.0,2483.0,,,,-0.367865257244564,-2.71593628680112,-0.437195995894399,,2.1697571562368427,,
,5891.0,1082.0,2462.0,909.0,1193.0,2826.0,2467.0,,,,-0.368127328694099,-2.71620586319,-0.436927048492055,,2.891699512947902,,
,5894.0,1083.0,2461.0,908.0,1206.0,2819.0,2464.0,,,,-0.36842204465888,-2.71653262520099,-0.437724394235416,,3.5930525331679184,,
,5893.0,1081.0,2462.0,909.0,1189.0,2818.0,2488.0,,,,-0.368664101923985,-2.71638367071421,-0.437349983397377,,4.266151725920844,,
,5893.0,1084.0,2466.0,907.0,1200.0,2818.0,2493.0,,,,-0.368725144456975,-2.71656196348419,-0.437186728361419,,4.904661026994863,,
,5893.0,1082.0,2462.0,907.0,1200.0,2818.0,2468.0,,,,-0.369303847956821,-2.716903964552,-0.438167648862636,,5.503423829846276,,
,5896.0,1081.0,2464.0,907.0,1195.0,2822.0,2468.0,,,,-0.369414135920363,-2.71700687574985,-0.43786574638398,,6.0582311194769,,
,5898.0,1082.0,2464.0,908.0,1199.0,2825.0,2465.0,,,,-0.369216564211485,-2.71690656264469,-0.437702622803116,,6.565536727648471,,
,5900.0,1084.0,2465.0,911.0,1209.0,2833.0,2462.0,,,,-0.369415170114903,-2.71715004717499,-0.438305141316386,,7.022152241611352,,
,5900.0,1082.0,2463.0,909.0,1206.0,2848.0,2469.0,,,,-0.369511823546659,-2.7172034339549,-0.437809515753435,,7.4249572237888355,,
,5902.0,1083.0,2466.0,910.0,1192.0,2841.0,2486.0,,,,-0.369556267623586,-2.71721831210381,-0.439526584672437,,7.770662571710417,,
,5905.0,1085.0,2466.0,910.0,1187.0,2831.0,2487.0,,,,-0.369498872962738,-2.71745883947981,-0.438524064185349,,8.055663487243786,,
,5905.0,1085.0,2467.0,910.0,1199.0,2825.0,2481.0,,,,-0.369512274626994,-2.71758426258577,-0.438516176665104,,8.276011552194747,,
,5905.0,1084.0,2468.0,912.0,1183.0,2837.0,2448.0,,,,-0.369443437493031,-2.71763812039439,-0.438497470773969,,8.427522450341261,,
,5904.0,1085.0,2469.0,911.0,1190.0,2831.0,2478.0,,,,-0.369233203804887,-2.71759674630497,-0.438614317985743,,8.506018561226204,,
,5908.0,1087.0,2471.0,911.0,1204.0,2834.0,2484.0,,,,-0.36925116071261,-2.71772554250908,-0.439286026753773,,8.507686863468882,,
,5908.0,1087.0,2470.0,911.0,1192.0,2834.0,2485.0,,,,-0.36941293615636,-2.71731130598849,-0.438737835026092,,8.429515344817784,,
,5910.0,1086.0,2468.0,910.0,1198.0,2820.0,2457.0,,,,-0.369422377299949,-2.71726441356943,-0.43770367450405,,8.269757944533593,,
,5909.0,1088.0,2471.0,911.0,1197.0,2837.0,2460.0,,,,-0.369460770278725,-2.71738214504973,-0.438342094559946,,8.028370979238606,,
,5912.0,1087.0,2471.0,911.0,1177.0,2828.0,2472.0,,,,-0.369458433712615,-2.71738364262432,-0.439495476576637,,7.707364646812639,,
,5913.0,1088.0,2472.0,911.0,1172.0,2829.0,2478.0,,,,-0.369632046213649,-2.71779266059709,-0.438678344585611,,7.3110223202200615,,
,5915.0,1089.0,2471.0,914.0,1182.0,2821.0,2489.0,,,,-0.369719866025253,-2.71724045435398,-0.439169183886827,,6.845956837008083,,
,5916.0,1087.0,2470.0,912.0,1188.0,2829.0,2486.0,,,,-0.369593395241006,-2.71715088688129,-0.439235577598094,,6.320993447942791,,
,5918.0,1088.0,2474.0,914.0,1183.0,2827.0,2480.0,,,,-0.369674694836834,-2.71679782130437,-0.439439692185115,,5.746888913566748,,
,5918.0,1088.0,2473.0,911.0,1191.0,2827.0,2458.0,,,,-0.36949837595418,-2.71753829492451,-0.438820038675398,,5.1359117755902215,,
,5921.0,1087.0,2474.0,914.0,1186.0,2831.0,2466.0,,,,-0.36936266133839,-2.71749705627304,-0.439291089711735,,4.501318685862485,,
,5919.0,1087.0,2475.0,912.0,1188.0,2833.0,2459.0,,,,-0.369509620148553,-2.71717295875052,-0.439609765647822,,3.8567663955412637,,
,5922.0,1090.0,2476.0,912.0,1189.0,2812.0,2480.0,,,,-0.369598364249945,-2.7171161630358,-0.439475706648382,,3.2156999386276106,,
,5926.0,1091.0,2474.0,915.0,1194.0,2807.0,2478.0,,,,-0.369668958861917,-2.71724644360893,-0.438811483041296,,2.590756007393445,,
,5927.0,1091.0,2477.0,916.0,1195.0,2824.0,2481.0,,,,-0.369264461393224,-2.71690280985342,-0.438645757224561,,1.9932175454874863,,
,5927.0,1089.0,2476.0,913.0,1187.0,2810.0,2497.0,,,,-0.369013105821078,-2.71689058122942,-0.437546977545752,,1.432551754652921,,
,5929.0,1090.0,2474.0,912.0,1190.0,2836.0,2496.0,,,,-0.369147520544681,-2.71693726646724,-0.437578458049067,,0.9160588285344332,,
,5930.0,1092.0,2480.0,915.0,1183.0,2811.0,2479.0,,,,-0.368875917266001,-2.71681460212409,-0.437334370566858,,0.4486518970254676,,
,5932.0,1092.0,2478.0,915.0,1178.0,2818.0,2478.0,,,,-0.369257504696002,-2.71700475133638,-0.437838418341837,,0.0327792013147589,,
,5936.0,1092.0,2479.0,917.0,1186.0,2820.0,2471.0,,,,-0.369156712099985,-2.71669504405194,-0.437869298547446,,-0.33151198835412105,,
,5934.0,1093.0,2480.0,912.0,1188.0,2817.0,2466.0,,,,-0.369333855929058,-2.71691642558119,-0.436974672507269,,-0.6463818074225627,,
,5939.0,1094.0,2481.0,915.0,1179.0,2828.0,2466.0,,,,-0.369399744636004,-2.71724920119519,-0.437534900074493,,-0.91589609937426,,
,5937.0,1095.0,2483.0,917.0,1198.0,2829.0,2479.0,,,,-0.369353003667313,-2.7170717163542,-0.437529670092297,,-1.1456438922432226,,
,5943.0,1097.0,2484.0,917.0,1207.0,2821.0,2487.0,,,,-0.369674363468162,-2.71737673115831,-0.43797685068289,,-1.342303384723049,,
,5940.0,1094.0,2483.0,915.0,1181.0,2838.0,2479.0,,,,-0.370347957002829,-2.71805426898999,-0.438557643528613,,-1.5131848310839937,,
,5942.0,1095.0,2483.0,913.0,1195.0,2851.0,2476.0,,,,-0.370374874740743,-2.7186266944,-0.438377033592106,,-1.665775829401418,,
,5948.0,1097.0,2485.0,916.0,1197.0,2842.0,2486.0,,,,-0.370785515991263,-2.71904383528605,-0.439384021963413,,-1.807310603280796,,
,5951.0,1097.0,2485.0,916.0,1209.0,2836.0,2487.0,,,,-0.371595342581657,-2.7192534514351,-0.440356071910717,,-1.94438069425114,,
,5950.0,1097.0,2485.0,917.0,1209.0,2840.0,2468.0,,,,-0.371720814496818,-2.71968515368343,-0.440836398222894,,-2.0826007565501743,,
,5952.0,1098.0,2484.0,916.0,1194.0,2841.0,2469.0,,,,-0.372138914577236,-2.72029823842446,-0.441552548211,,-2.2263404483446343,,
,5954.0,1100.0,2490.0,916.0,1203.0,2821.0,2489.0,,,,-0.372591498985214,-2.72042178968708,-0.441869874783251,,-2.3785319763531856,,
,5958.0,1100.0,2488.0,918.0,1211.0,2816.0,2485.0,,,,-0.372570554251596,-2.72040745599744,-0.44217139227941,,-2.5405622881772296,,
,5958.0,1100.0,2490.0,916.0,1189.0,2804.0,2470.0,,,,-0.372953052644519,-2.72075046176761,-0.4425465300594,,-2.71225814048666,,
,5961.0,1101.0,2491.0,918.0,1192.0,2824.0,2469.0,,,,-0.373083788429473,-2.72121252277254,-0.442398339005753,,-2.8919698996841885,,
,5962.0,1101.0,2489.0,919.0,1191.0,2828.0,2470.0,,,,-0.373334162430389,-2.7213835894894,-0.443069103047719,,-3.076754910074929,,
,5965.0,1102.0,2492.0,919.0,1191.0,2848.0,2480.0,,,,-0.373438684240962,-2.72126661132962,-0.442625273378339,,-3.262653438301327,,
,5965.0,1101.0,2491.0,920.0,1201.0,2835.0,2477.0,,,,-0.373312682631056,-2.72144218405204,-0.44267958033585,,-3.445040468697925,,
,5967.0,1101.0,2493.0,919.0,1192.0,2834.0,2481.0,,,,-0.373284985462389,-2.72136155997713,-0.442160473669912,,-3.6190268786164226,,
,5969.0,1103.0,2494.0,916.0,1195.0,2827.0,2477.0,,,,-0.373441889072779,-2.72141020048409,-0.441905063374457,,-3.7798763419633357,,
,5975.0,1104.0,2495.0,921.0,1188.0,2848.0,2479.0,,,,-0.373310987239386,-2.72115026190563,-0.441846039830196,,-3.923402011536847,,
,5972.0,1104.0,2494.0,921.0,1184.0,2838.0,2478.0,,,,-0.373430672889931,-2.72124292863658,-0.442387848430324,,-4.046310391417566,,
,5976.0,1103.0,2492.0,919.0,1188.0,2807.0,2486.0,,,,-0.373356940610255,-2.72152102423662,-0.440957064674485,,-4.1464675408005425,,
,5974.0,1103.0,2496.0,921.0,1193.0,2818.0,2491.0,,,,-0.373338322788228,-2.72111715349146,-0.441771607267421,,-4.223072330594969,,
,5977.0,1104.0,2495.0,923.0,1217.0,2829.0,2474.0,,,,-0.37353176827791,-2.72087979037252,-0.441718942343608,,-4.276730574193009,,
,5978.0,1104.0,2497.0,920.0,1222.0,2830.0,2467.0,,,,-0.373626953264702,-2.72159271581289,-0.442197093397365,,-4.309431216960409,,
,5972.0,1103.0,2495.0,919.0,1225.0,2830.0,2478.0,,,,-0.373627516192058,-2.72154329723632,-0.441825499152414,,-4.324431156042644,,
,5968.0,1101.0,2492.0,920.0,1204.0,2829.0,2492.0,,,,-0.373727895207743,-2.72148714140426,-0.442284551968649,,-4.326058852072803,,
,5964.0,1103.0,2491.0,918.0,1193.0,2836.0,2485.0,,,,-0.373677247210777,-2.72140083877844,-0.441504067696956,,-4.319448876238021,,
,5961.0,1098.0,2490.0,918.0,1194.0,2828.0,2488.0,,,,-0.373757295198836,-2.72170351562091,-0.441449466418383,,-4.310220232616248,,
,5952.0,1096.0,2486.0,915.0,1192.0,2843.0,2485.0,,,,-0.373844387793429,-2.72149668751848,-0.440653019566451,,-4.304111407159296,,
,5947.0,1096.0,2485.0,916.0,1188.0,2834.0,2478.0,,,,-0.373417328324749,-2.72107817915916,-0.440244269079174,,-4.3065855681154135,,
,5943.0,1096.0,2484.0,914.0,1183.0,2851.0,2474.0,,,,-0.373658987278882,-2.72096948336467,-0.44109895231848,,-4.322420944120946,,
,5937.0,1092.0,2481.0,914.0,1184.0,2827.0,2477.0,,,,-0.373583617439991,-2.72102815623429,-0.440435670966522,,-4.355304367753291,,
,5934.0,1093.0,2479.0,914.0,1177.0,2812.0,2491.0,,,,-0.373138723463647,-2.72071440438434,-0.440751507634415,,-4.407449889972663,,
,5925.0,1088.0,2474.0,911.0,1196.0,2843.0,2484.0,,,,-0.373027650298056,-2.72043142839769,-0.439385199426041,,-4.479268314360118,,
,5921.0,1090.0,2476.0,912.0,1195.0,2833.0,2469.0,,,,-0.372395959593572,-2.72021703762305,-0.439900250880736,,-4.569116236308621,,
,5914.0,1089.0,2473.0,911.0,1202.0,2822.0,2456.0,,,,-0.372228158585687,-2.72014441785137,-0.439415463159912,,-4.673153410732055,,
,5911.0,1088.0,2472.0,911.0,1210.0,2827.0,2461.0,,,,-0.3720487190367,-2.71969908977649,-0.439053954008621,,-4.785333902839232,,
,5905.0,1085.0,2468.0,909.0,1204.0,2836.0,2459.0,,,,-0.371575003675021,-2.71975093426326,-0.438394247453584,,-4.897548903728295,,
,5901.0,1087.0,2470.0,910.0,1199.0,2823.0,2460.0,,,,-0.371791067086882,-2.7195156698344,-0.438734169240892,,-4.999927724416311,,
,5900.0,1086.0,2468.0,911.0,1188.0,2849.0,2468.0,,,,-0.371512374121173,-2.72015612498059,-0.438647318702237,,-5.081289989347416,,
,5894.0,1083.0,2465.0,906.0,1184.0,2845.0,2464.0,,,,-0.371615944546871,-2.71926922029676,-0.438681315167393,,-5.129728724076926,,
,5891.0,1081.0,2462.0,904.0,1191.0,2857.0,2455.0,,,,-0.372109796330527,-2.71952792863001,-0.438880566674413,,-5.1332924547975045,,
,5889.0,1081.0,2462.0,909.0,1183.0,2853.0,2474.0,,,,-0.372125268689924,-2.71974114069772,-0.43860725811459,,-5.08072482431983,,
,5885.0,1082.0,2463.0,906.0,1175.0,2835.0,2482.0,,,,-0.372240025707056,-2.72003051199529,-0.439297616170385,,-4.962212183867833,,
,5886.0,1082.0,2462.0,905.0,1175.0,2837.0,2495.0,,,,-0.371863175327124,-2.71970921291283,-0.438900332274062,,-4.77008337451715,,
,5882.0,1080.0,2457.0,907.0,1176.0,2824.0,2483.0,,,,-0.371899528833625,-2.71982594082087,-0.438676612549047,,-4.499402761465346,,
,5881.0,1081.0,2459.0,905.0,1190.0,2831.0,2477.0,,,,-0.372050653181714,-2.71995913428398,-0.439467982973895,,-4.1483993304477345,,
,5880.0,1081.0,2458.0,906.0,1198.0,2819.0,2486.0,,,,-0.372354129426598,-2.72010775620216,-0.439076275466455,,-3.7186827409459142,,
,5880.0,1080.0,2459.0,906.0,1196.0,2810.0,2488.0,,,,-0.372467570433516,-2.72032761443362,-0.439581766745424,,-3.215212217224605,,
,5875.0,1080.0,2457.0,904.0,1179.0,2822.0,2490.0,,,,-0.372359024196917,-2.72033298744829,-0.440171831279651,,-2.6460055840122263,,
,5873.0,1077.0,2455.0,904.0,1188.0,2832.0,2462.0,,,,-0.372553498510163,-2.72067617002836,-0.439845692113609,,-2.0216019300888437,,
,5874.0,1077.0,2457.0,905.0,1182.0,2835.0,2476.0,,,,-0.372646416507285,-2.72071639800263,-0.440868661464946,,-1.3543191228100395,,
,5873.0,1077.0,2457.0,905.0,1174.0,2834.0,2490.0,,,,-0.372795089133462,-2.72047713042923,-0.440716226186999,,-0.6573723795763589,,
,5870.0,1075.0,2456.0,906.0,1169.0,2830.0,2495.0,,,,-0.372749018970806,-2.72056441573449,-0.440816382582844,,0.056061842623271255,,
2025-08-19 23:10:19,5867.0,1075.0,2455.0,903.0,1181.0,2831.0,2479.0,,,2025/08/19 11:10:19 PM,-0.372609723286311,-2.72091808767789,-0.440656626713241,,0.7737439568929017,,
,5868.0,1075.0,2454.0,903.0,1175.0,2823.0,2479.0,,,,-0.372616478156439,-2.72062152558933,-0.440798350570271,,1.4851407454545547,,
,5866.0,1079.0,2454.0,905.0,1167.0,2812.0,2478.0,,,,-0.372456965468456,-2.72054827771592,-0.440324291498588,,2.181987704256627,,
,5867.0,1074.0,2454.0,903.0,1166.0,2825.0,2474.0,,,,-0.372258523574898,-2.72036321335306,-0.440284750070543,,2.858586477391502,,
,5865.0,1077.0,2452.0,902.0,1177.0,2844.0,2479.0,,,,-0.372354783494237,-2.71994193609157,-0.440063766876446,,3.5118072289665663,,
,5865.0,1075.0,2452.0,903.0,1190.0,2837.0,2472.0,,,,-0.372135492614385,-2.72027717509834,-0.440334833224023,,4.140797372290773,,
,5862.0,1075.0,2453.0,904.0,1185.0,2826.0,2476.0,,,,-0.372116752106246,-2.7199881311941,-0.439680606838346,,4.746429720313231,,
,5865.0,1077.0,2452.0,903.0,1190.0,2832.0,2484.0,,,,-0.371922793276167,-2.7196463280446,-0.439135947951024,,5.330550657181574,,
,5862.0,1076.0,2451.0,902.0,1189.0,2843.0,2484.0,,,,-0.372000713654535,-2.71996706185494,-0.439271516116548,,5.895109260718281,,
,5863.0,1077.0,2453.0,903.0,1186.0,2819.0,2476.0,,,,-0.372099215149201,-2.72025556345818,-0.439304488153184,,6.441260197047402,,
,5861.0,1077.0,2454.0,906.0,1215.0,2844.0,2464.0,,,,-0.372110535288326,-2.71979455445724,-0.439655622297855,,6.9685368275488875,,
,5861.0,1076.0,2452.0,903.0,1206.0,2844.0,2462.0,,,,-0.371987643300436,-2.71963153282339,-0.439059689691871,,7.474186791929604,,
,5860.0,1075.0,2449.0,902.0,1198.0,2842.0,2492.0,,,,-0.371837748850527,-2.72027930994307,-0.439051259973508,,7.952750505318003,,
,5863.0,1074.0,2450.0,901.0,1188.0,2838.0,2494.0,,,,-0.372225830999245,-2.7199761547968,-0.438870700643805,,8.39594354210518,,
,5860.0,1077.0,2449.0,905.0,1195.0,2829.0,2494.0,,,,-0.371910943331877,-2.72013812715722,-0.438742094090212,,8.792877326887456,,
,5862.0,1074.0,2452.0,903.0,1181.0,2824.0,2479.0,,,,-0.37195589925275,-2.72002579127742,-0.438646244401916,,9.13062056128719,,
,5856.0,1074.0,2449.0,902.0,1194.0,2824.0,2468.0,,,,-0.372104427364731,-2.72035739987821,-0.438958239637122,,9.395069104545021,,
,5857.0,1074.0,2448.0,902.0,1178.0,2814.0,2479.0,,,,-0.371980426461798,-2.72005114672226,-0.439616123106538,,9.572057840687178,,
,5855.0,1075.0,2450.0,904.0,1175.0,2813.0,2499.0,,,,-0.372108461479422,-2.71997597540202,-0.438772867404916,,9.648617679064582,,
,5856.0,1075.0,2448.0,901.0,1180.0,2820.0,2502.0,,,,-0.371948945895312,-2.71973225666293,-0.438969462658536,,9.614257501060353,,
,5852.0,1076.0,2447.0,900.0,1179.0,2801.0,2476.0,,,,-0.371933865428133,-2.72034361794828,-0.438901053904273,,9.462137935051027,,
,5852.0,1073.0,2447.0,899.0,1192.0,2821.0,2460.0,,,,-0.372107115135859,-2.72017908063069,-0.4383510825754,,9.190004537019856,,
,5852.0,1075.0,2447.0,902.0,1179.0,2820.0,2460.0,,,,-0.372180501672557,-2.71993981082837,-0.438770263663153,,8.800764676723436,,
,5850.0,1074.0,2447.0,903.0,1181.0,2841.0,2460.0,,,,-0.371839541147048,-2.72003023390865,-0.438255009218584,,8.302625800554205,,
,5851.0,1074.0,2447.0,901.0,1185.0,2850.0,2449.0,,,,-0.371772656913498,-2.72017786198359,-0.438590635144096,,7.708760531707327,,
,5850.0,1071.0,2446.0,899.0,1194.0,2827.0,2476.0,,,,-0.371876660652613,-2.71990588093448,-0.437561875063299,,7.036520350457053,,
,5850.0,1074.0,2448.0,901.0,1200.0,2841.0,2474.0,,,,-0.371697996154841,-2.71990618139708,-0.438640009173929,,6.3062751695924275,,
,5850.0,1074.0,2447.0,902.0,1189.0,2844.0,2489.0,,,,-0.371990109774106,-2.71998482143877,-0.439096960719795,,5.5400009778271615,,
,5851.0,1075.0,2448.0,901.0,1189.0,2830.0,2493.0,,,,-0.371755370696371,-2.71947074817541,-0.43797019035298,,4.75976449691709,,
,5850.0,1074.0,2447.0,900.0,1191.0,2830.0,2465.0,,,,-0.371709046416826,-2.72002314358205,-0.437756867093721,,3.986259793931783,,
,5852.0,1073.0,2448.0,900.0,1195.0,2847.0,2471.0,,,,-0.371484332602993,-2.71963700582698,-0.437801828472977,,3.2375385483975077,,
,5850.0,1074.0,2448.0,901.0,1189.0,2842.0,2476.0,,,,-0.371895439882749,-2.71943204476659,-0.437614535184869,,2.5280470685611416,,
,5853.0,1076.0,2447.0,900.0,1184.0,2839.0,2478.0,,,,-0.371446260429658,-2.71943264266837,-0.437878522882589,,1.86804377205897,,
,5853.0,1072.0,2447.0,901.0,1168.0,2819.0,2469.0,,,,-0.371470187138409,-2.71962415332024,-0.437305240526873,,1.2634255178371567,,
,5854.0,1074.0,2449.0,899.0,1192.0,2806.0,2475.0,,,,-0.371633372847956,-2.71965715234876,-0.437589441518053,,0.7159452464447814,,
,5855.0,1076.0,2449.0,903.0,1192.0,2827.0,2483.0,,,,-0.371458046012051,-2.7196411664994,-0.436538496489169,,0.22376275072017257,,
,5855.0,1076.0,2446.0,901.0,1189.0,2816.0,2478.0,,,,-0.371545948006309,-2.71970166412421,-0.436848857893912,,-0.21775957733881682,,
,5855.0,1073.0,2448.0,901.0,1208.0,2814.0,2485.0,,,,-0.371631831315715,-2.71947762032727,-0.436805321406505,,-0.6151204358231248,,
,5858.0,1075.0,2450.0,903.0,1179.0,2831.0,2486.0,,,,-0.371591892007042,-2.71945954553093,-0.4367224391702,,-0.9757097978178355,,
,5858.0,1076.0,2451.0,904.0,1187.0,2823.0,2489.0,,,,-0.371381711192288,-2.71938530113945,-0.437146910950801,,-1.3069040146716948,,
,5858.0,1077.0,2451.0,902.0,1176.0,2822.0,2492.0,,,,-0.371528545183862,-2.71908880320427,-0.436878290132479,,-1.6153071861359496,,
,5857.0,1076.0,2449.0,902.0,1177.0,2816.0,2483.0,,,,-0.371368388051241,-2.71923242708207,-0.436126502413349,,-1.9061970856513875,,
,5858.0,1074.0,2449.0,899.0,1174.0,2835.0,2475.0,,,,-0.371250661163271,-2.71928489617082,-0.435172100923163,,-2.1832070517264466,,
,5864.0,1076.0,2449.0,902.0,1182.0,2832.0,2476.0,,,,-0.371400424484076,-2.71920680051712,-0.435852061341016,,-2.448246909327514,,
,5864.0,1077.0,2452.0,903.0,1170.0,2836.0,2471.0,,,,-0.371188376495399,-2.71936027310484,-0.435844012983068,,-2.701639043762237,,
,5864.0,1078.0,2452.0,902.0,1167.0,2823.0,2474.0,,,,-0.371238169835339,-2.71932288679999,-0.435493013548059,,-2.9424236333253444,,
,5865.0,1076.0,2449.0,900.0,1176.0,2840.0,2479.0,,,,-0.370965663304901,-2.71924002548829,-0.434871889140079,,-3.168773011885585,,
,5866.0,1079.0,2455.0,903.0,1199.0,2832.0,2478.0,,,,-0.371212121829269,-2.71901753702322,-0.435070293263235,,-3.378450910418658,,
,5866.0,1081.0,2453.0,903.0,1190.0,2845.0,2466.0,,,,-0.371235495527394,-2.71910570452933,-0.435013487638784,,-3.569257225592733,,
,5868.0,1077.0,2456.0,902.0,1180.0,2853.0,2479.0,,,,-0.371022349397294,-2.71877732476446,-0.435011432721759,,-3.7394103550841615,,
,5867.0,1078.0,2453.0,902.0,1185.0,2873.0,2485.0,,,,-0.371093788044071,-2.71904442323391,-0.434193998454944,,-3.887833829312727,,
,5870.0,1077.0,2454.0,902.0,1206.0,2855.0,2494.0,,,,-0.370876364604947,-2.71870705033198,-0.434444386421711,,-4.014329332716217,,
,5871.0,1079.0,2458.0,903.0,1196.0,2843.0,2482.0,,,,-0.370789629878259,-2.7185186054625,-0.434146662218137,,-4.1196325379861705,,
,5873.0,1081.0,2458.0,906.0,1198.0,2853.0,2479.0,,,,-0.37061744483539,-2.71849702475922,-0.433724208129294,,-4.205360415384315,,
,5875.0,1081.0,2456.0,901.0,1189.0,2836.0,2472.0,,,,-0.370784909034816,-2.71824236414603,-0.433859697833411,,-4.273868093038536,,
,5874.0,1081.0,2455.0,903.0,1185.0,2834.0,2477.0,,,,-0.370632642430689,-2.71808520884841,-0.43384244621804,,-4.328039562625366,,
,5875.0,1080.0,2458.0,904.0,1179.0,2842.0,2478.0,,,,-0.370528753198355,-2.71828174769464,-0.43376265195831,,-4.371039713774773,,
,5875.0,1081.0,2459.0,906.0,1178.0,2830.0,2475.0,,,,-0.370480083106232,-2.71819876521958,-0.433920991483058,,-4.406055905829487,,
,5876.0,1081.0,2458.0,904.0,1195.0,2826.0,2461.0,,,,-0.370528660258012,-2.71815707786395,-0.433723548244084,,-4.4360561125845805,,
,5877.0,1081.0,2457.0,904.0,1181.0,2820.0,2449.0,,,,-0.370483775020822,-2.71791542570663,-0.433292479711086,,-4.4635878825891036,,
,5882.0,1082.0,2459.0,906.0,1208.0,2823.0,2467.0,,,,-0.370397160499853,-2.71812616221201,-0.433216557013354,,-4.490637919382729,,
,5880.0,1082.0,2460.0,906.0,1196.0,2825.0,2458.0,,,,-0.37042784594039,-2.71815812563947,-0.433383629435347,,-4.518565810742392,,
,5882.0,1083.0,2460.0,906.0,1202.0,2831.0,2475.0,,,,-0.370307827685031,-2.71790164276601,-0.433085317572315,,-4.548117147293187,,
,5881.0,1081.0,2458.0,905.0,1198.0,2827.0,2475.0,,,,-0.370212561922646,-2.71812408604078,-0.432478871095854,,-4.579511038034664,,
,5883.0,1082.0,2458.0,903.0,1185.0,2841.0,2447.0,,,,-0.370431752030226,-2.71798691524817,-0.432625919481664,,-4.612585489643567,,
,5888.0,1084.0,2463.0,906.0,1194.0,2831.0,2444.0,,,,-0.370259107543966,-2.71791566822059,-0.432674906005243,,-4.646972852881269,,
,5886.0,1082.0,2462.0,907.0,1197.0,2830.0,2447.0,,,,-0.370302207320695,-2.71808464663108,-0.433106285208394,,-4.682269213905765,,
,5887.0,1081.0,2463.0,906.0,1191.0,2835.0,2462.0,,,,-0.370237688827263,-2.71829779694559,-0.4332605648107,,-4.718159285006939,,
,5887.0,1087.0,2463.0,908.0,1190.0,2827.0,2475.0,,,,-0.370440721525843,-2.71836240193594,-0.433306379013177,,-4.754463985295231,,
,5891.0,1086.0,2462.0,907.0,1212.0,2844.0,2461.0,,,,-0.370651878356353,-2.71835998422768,-0.432184776719627,,-4.791091024437452,,
,5894.0,1086.0,2462.0,906.0,1211.0,2849.0,2460.0,,,,-0.37048770171464,-2.7181300372761,-0.432843813324048,,-4.827886584230674,,
,5891.0,1085.0,2464.0,904.0,1210.0,2827.0,2473.0,,,,-0.369996870049983,-2.71806084061769,-0.431785763221741,,-4.864404825579688,,
,5897.0,1085.0,2464.0,908.0,1221.0,2826.0,2469.0,,,,-0.370088777404764,-2.71786044380964,-0.431804019140109,,-4.899628039419832,,
,5899.0,1088.0,2464.0,907.0,1215.0,2845.0,2459.0,,,,-0.370185535516779,-2.71768124760569,-0.431526462678683,,-4.931681382894201,,
,5902.0,1088.0,2466.0,907.0,1212.0,2840.0,2456.0,,,,-0.370036941380484,-2.71788015304251,-0.43192853138117,,-4.9575907812578235,,
,5902.0,1085.0,2466.0,907.0,1204.0,2846.0,2474.0,,,,-0.369944765597279,-2.71811009051942,-0.432213093038464,,-4.973130084104357,,
,5902.0,1086.0,2465.0,910.0,1194.0,2831.0,2480.0,,,,-0.369937646130266,-2.7179528889687,-0.432059624545617,,-4.972794340121217,,
,5905.0,1089.0,2468.0,911.0,1213.0,2824.0,2487.0,,,,-0.369857972205226,-2.71777671999362,-0.431772476753547,,-4.94992160442098,,
,5904.0,1087.0,2468.0,908.0,1219.0,2825.0,2487.0,,,,-0.370324962164208,-2.71777296392419,-0.432191529008622,,-4.8969682163915245,,
,5909.0,1088.0,2469.0,909.0,1203.0,2827.0,2480.0,,,,-0.370299619427262,-2.71801522535811,-0.43253556294511,,-4.8059241958939545,,
,5907.0,1087.0,2468.0,909.0,1202.0,2835.0,2487.0,,,,-0.370565487733792,-2.71871421222749,-0.432477621961464,,-4.668838153804505,,
,5910.0,1089.0,2473.0,909.0,1194.0,2822.0,2461.0,,,,-0.370848401104752,-2.71893111488927,-0.432890476731424,,-4.478406511020226,,
,5912.0,1090.0,2472.0,910.0,1191.0,2813.0,2469.0,,,,-0.371358341998359,-2.71936160585075,-0.433954666485221,,-4.22857146697927,,
,5914.0,1092.0,2472.0,910.0,1179.0,2825.0,2472.0,,,,-0.371743752797266,-2.72002399528955,-0.434266890430903,,-3.915067589638893,,
,5915.0,1090.0,2472.0,910.0,1172.0,2830.0,2468.0,,,,-0.372205424970994,-2.72017516023998,-0.435368948579886,,-3.5358592441219208,,
,5919.0,1090.0,2473.0,910.0,1185.0,2838.0,2478.0,,,,-0.372595617845271,-2.72076855562198,-0.435014904649851,,-3.0914206140737175,,
,5920.0,1092.0,2474.0,911.0,1173.0,2820.0,2478.0,,,,-0.372606667267739,-2.72100216671276,-0.436006816884369,,-2.584825875063746,,
,5921.0,1093.0,2475.0,912.0,1168.0,2812.0,2486.0,,,,-0.373010748967617,-2.7213404359476,-0.436233468342979,,-2.0216371113723204,,
,5921.0,1092.0,2476.0,911.0,1190.0,2831.0,2481.0,,,,-0.373360242967079,-2.72151628199305,-0.436175089453995,,-1.4095993077346516,,
,5925.0,1095.0,2476.0,912.0,1182.0,2825.0,2466.0,,,,-0.373628914309118,-2.72152471307165,-0.436744878614214,,-0.7581728129421575,,
,5927.0,1093.0,2476.0,910.0,1186.0,2829.0,2469.0,,,,-0.373696424599334,-2.72173354290369,-0.436744644929325,,-0.07795174469737844,,
,5927.0,1093.0,2479.0,912.0,1193.0,2831.0,2472.0,,,,-0.373868113100768,-2.72208112948519,-0.437533539533365,,0.6199706438749876,,
,5929.0,1092.0,2477.0,912.0,1204.0,2828.0,2448.0,,,,-0.374619719131611,-2.72222118904392,-0.437235688873436,,1.3246238370937253,,
,5929.0,1094.0,2478.0,912.0,1189.0,2830.0,2455.0,,,,-0.374439827363643,-2.72197250309106,-0.437001642870979,,2.0257072638469684,,
,5935.0,1097.0,2480.0,915.0,1196.0,2825.0,2464.0,,,,-0.374203003210625,-2.72168834203719,-0.437219192795452,,2.7140125272523346,,
,5936.0,1096.0,2482.0,913.0,1194.0,2828.0,2464.0,,,,-0.374370481672892,-2.72206390295204,-0.436802209300739,,3.3816873423649008,,
,5936.0,1100.0,2483.0,913.0,1205.0,2818.0,2478.0,,,,-0.374147144984872,-2.72180317789877,-0.435760368160982,,4.022327655306141,,
,5940.0,1098.0,2482.0,915.0,1208.0,2823.0,2468.0,,,,-0.374115213329197,-2.72168301667968,-0.436406894109463,,4.63090462275207,,
,5945.0,1101.0,2484.0,915.0,1196.0,2846.0,2486.0,,,,-0.374214689872669,-2.72190473820305,-0.436029107117558,,5.203551529103183,,
,5946.0,1100.0,2487.0,916.0,1195.0,2837.0,2490.0,,,,-0.374156309090455,-2.72156509601139,-0.436284051339232,,5.737250120602481,,
,5944.0,1098.0,2486.0,916.0,1190.0,2832.0,2483.0,,,,-0.374329520392544,-2.72192516009276,-0.436265070688007,,6.229464522729202,,
,5946.0,1099.0,2483.0,914.0,1197.0,2815.0,2487.0,,,,-0.374237474088958,-2.72185189338851,-0.435507996163872,,6.67777328785311,,
,5951.0,1102.0,2488.0,917.0,1201.0,2839.0,2487.0,,,,-0.374338662432219,-2.72202210807806,-0.4359217437627,,7.079546833464761,,
,5952.0,1100.0,2487.0,917.0,1202.0,2814.0,2480.0,,,,-0.374327819447772,-2.72204611730162,-0.435532095132836,,7.43170987948319,,
,5952.0,1101.0,2489.0,916.0,1213.0,2812.0,2480.0,,,,-0.374581252256336,-2.72191411698247,-0.435832228267882,,7.73061784983646,,
,5949.0,1099.0,2486.0,914.0,1199.0,2832.0,2477.0,,,,-0.374250433611649,-2.72185707121387,-0.43509939112211,,7.972063855576034,,
,5946.0,1098.0,2486.0,917.0,1190.0,2815.0,2487.0,,,,-0.374006214678577,-2.72173209709048,-0.434344842171822,,8.15142004803724,,
,5946.0,1097.0,2484.0,912.0,1205.0,2799.0,2472.0,,,,-0.373965689198969,-2.72175497968381,-0.43452380911975,,8.263904769072646,,
,5942.0,1097.0,2484.0,913.0,1210.0,2808.0,2475.0,,,,-0.373722267128714,-2.72170231507388,-0.434300445543056,,8.304955327320046,,
,5936.0,1098.0,2480.0,914.0,1196.0,2817.0,2481.0,,,,-0.373654302390791,-2.72160963733554,-0.434418448826438,,8.270675045129193,,
,5929.0,1091.0,2479.0,910.0,1187.0,2808.0,2478.0,,,,-0.373379070422856,-2.72130620856328,-0.433403514428113,,8.158312249417031,,
,5926.0,1090.0,2478.0,910.0,1193.0,2825.0,2495.0,,,,-0.373271983726083,-2.7213514639183,-0.43296045693302,,7.966719198642653,,
,5920.0,1091.0,2476.0,910.0,1198.0,2841.0,2489.0,,,,-0.37326540106616,-2.721012849214,-0.433698830350407,,7.696733226556377,,
,5911.0,1088.0,2472.0,907.0,1189.0,2833.0,2482.0,,,,-0.373265726848421,-2.72099240984747,-0.433913314647635,,7.35142394988567,,
,5908.0,1089.0,2469.0,909.0,1197.0,2829.0,2474.0,,,,-0.373167716045603,-2.72089497156818,-0.434029868516211,,6.936161625233358,,
,5901.0,1087.0,2469.0,908.0,1212.0,2863.0,2473.0,,,,-0.372959599963595,-2.72088671116967,-0.433215008489073,,6.458482856187277,,
,5895.0,1087.0,2467.0,906.0,1203.0,2855.0,2470.0,,,,-0.372949884360157,-2.72080235065345,-0.43334809843139,,5.927758148017388,,
,5892.0,1085.0,2466.0,907.0,1207.0,2823.0,2460.0,,,,-0.37333192487056,-2.72084835021676,-0.433647914681096,,5.354695841409635,,
,5884.0,1081.0,2459.0,903.0,1220.0,2843.0,2478.0,,,,-0.373215733014024,-2.72105644185958,-0.433675534390171,,4.75074198204927,,
,5880.0,1081.0,2458.0,903.0,1211.0,2846.0,2472.0,,,,-0.373565626063869,-2.72118347148464,-0.43348180070924,,4.1274499777711435,,
,5878.0,1082.0,2459.0,905.0,1211.0,2833.0,2455.0,,,,-0.373710470545091,-2.72110152033701,-0.433886167230897,,3.4958946599453617,,
,5875.0,1080.0,2461.0,904.0,1203.0,2829.0,2460.0,,,,-0.373871655747949,-2.72133820423442,-0.434167343998452,,2.866193246358194,,
,5868.0,1079.0,2456.0,901.0,1205.0,2845.0,2466.0,,,,-0.373584517542735,-2.72118204913751,-0.43415657252745,,2.247174113665142,,
,5866.0,1077.0,2455.0,902.0,1202.0,2857.0,2472.0,,,,-0.373898435632206,-2.72122300952453,-0.433597045826642,,1.646208191902594,,
,5864.0,1078.0,2452.0,902.0,1198.0,2834.0,2476.0,,,,-0.374216763772181,-2.72167371058324,-0.433865444524526,,1.0691924479614352,,
,5862.0,1076.0,2453.0,903.0,1199.0,2831.0,2473.0,,,,-0.374160165412335,-2.72180915375573,-0.433188165281349,,0.5206548059819096,,
,5860.0,1075.0,2451.0,900.0,1209.0,2834.0,2484.0,,,,-0.374139086002078,-2.72166549255354,-0.434025877646802,,0.003937776748715215,,
,5857.0,1077.0,2449.0,901.0,1218.0,2833.0,2496.0,,,,-0.374012592607552,-2.72171169893127,-0.433526350521244,,-0.4785852177613297,,
2025-08-19 23:10:20,5855.0,1076.0,2450.0,902.0,1204.0,2827.0,2480.0,,,2025/08/19 11:10:20 PM,-0.37438548539552,-2.72158927559296,-0.434709079646611,,-0.9253022313005083,,
,5853.0,1077.0,2449.0,901.0,1196.0,2816.0,2495.0,,,,-0.373813730236681,-2.72157776424021,-0.433768627641371,,-1.3351945991926941,,
,5850.0,1075.0,2447.0,905.0,1181.0,2804.0,2504.0,,,,-0.373917511647651,-2.72138349706089,-0.433984762478852,,-1.707724582612296,,
,5851.0,1075.0,2450.0,902.0,1197.0,2806.0,2482.0,,,,-0.373795550053676,-2.72122475939161,-0.433900100563461,,-2.042780602088993,,
,5850.0,1073.0,2444.0,899.0,1201.0,2797.0,2465.0,,,,-0.37354136125751,-2.72128244551173,-0.433182884652994,,-2.340669975303073,,
,5847.0,1074.0,2446.0,897.0,1206.0,2800.0,2461.0,,,,-0.373701780361293,-2.72088363229883,-0.432881741090151,,-2.6021420810707716,,
,5846.0,1072.0,2445.0,900.0,1217.0,2825.0,2478.0,,,,-0.373404669197477,-2.72071735429771,-0.433406920297606,,-2.828422872242528,,
,5846.0,1071.0,2444.0,898.0,1214.0,2809.0,2484.0,,,,-0.373157333912527,-2.7207899831535,-0.432945061840578,,-3.021243375139217,,
,5846.0,1072.0,2443.0,899.0,1232.0,2829.0,2437.0,,,,-0.373098761939204,-2.72053547252938,-0.432359866021979,,-3.1828485661078436,,
,5844.0,1072.0,2441.0,901.0,1222.0,2827.0,2453.0,,,,-0.373072874563283,-2.72058410965613,-0.433003569511907,,-3.315977545015105,,
,5841.0,1071.0,2443.0,899.0,1213.0,2831.0,2465.0,,,,-0.372926569262828,-2.72048540840543,-0.432912473809273,,-3.4238105215521144,,
,5842.0,1073.0,2439.0,898.0,1211.0,2825.0,2482.0,,,,-0.373186966256742,-2.72060412611724,-0.433028136828637,,-3.509882330240815,,
,5845.0,1073.0,2443.0,900.0,1198.0,2829.0,2473.0,,,,-0.372945617501826,-2.72076002158886,-0.432844146231377,,-3.5779655882427006,,
,5841.0,1070.0,2441.0,899.0,1215.0,2829.0,2471.0,,,,-0.373067168742213,-2.7204600729137,-0.431958265801236,,-3.6319290131917663,,
,5840.0,1071.0,2443.0,900.0,1210.0,2819.0,2470.0,,,,-0.373218217067864,-2.72027665053228,-0.432217684232892,,-3.6755780561183906,,
,5839.0,1069.0,2441.0,898.0,1200.0,2813.0,2454.0,,,,-0.37313864226073,-2.72035084266505,-0.431545341319322,,-3.712486454767027,,
,5840.0,1069.0,2442.0,898.0,1207.0,2824.0,2465.0,,,,-0.373266814476637,-2.72044058327173,-0.431170068512842,,-3.7458291413745695,,
,5839.0,1072.0,2442.0,900.0,1221.0,2828.0,2472.0,,,,-0.372689725028648,-2.72013132248678,-0.431504039606953,,-3.778229301520859,,
,5839.0,1070.0,2440.0,901.0,1218.0,2822.0,2476.0,,,,-0.372888197073366,-2.71974319178664,-0.430761286409137,,-3.811634799901618,,
,5834.0,1067.0,2435.0,896.0,1215.0,2820.0,2487.0,,,,-0.372866903157358,-2.72014498843461,-0.42884148561832,,-3.847240609203331,,
,5836.0,1070.0,2439.0,898.0,1218.0,2836.0,2486.0,,,,-0.372552617689399,-2.71986310819899,-0.430126424737706,,-3.885473001739465,,
,5838.0,1068.0,2438.0,899.0,1216.0,2827.0,2493.0,,,,-0.372505562551981,-2.71949585171085,-0.42896145510116,,-3.926047063346231,,
,5836.0,1070.0,2438.0,898.0,1212.0,2835.0,2485.0,,,,-0.372240788872351,-2.71941122576258,-0.429103391935603,,-3.968101256625749,,
,5834.0,1069.0,2438.0,899.0,1200.0,2835.0,2484.0,,,,-0.372287364299799,-2.71943804416888,-0.428137311568799,,-4.010401864041859,,
,5834.0,1067.0,2435.0,897.0,1226.0,2817.0,2490.0,,,,-0.372021042369705,-2.71925902940949,-0.42866102423634,,-4.051597574227592,,
,5834.0,1069.0,2435.0,898.0,1220.0,2816.0,2499.0,,,,-0.371619427035647,-2.71892287967435,-0.427390708362539,,-4.0904924755135275,,
,5835.0,1068.0,2435.0,898.0,1224.0,2812.0,2493.0,,,,-0.371655342731,-2.71886936997566,-0.428612477368634,,-4.1262973079075795,,
,5833.0,1069.0,2436.0,897.0,1224.0,2802.0,2490.0,,,,-0.371476139670214,-2.71898416501817,-0.428694739560314,,-4.158816979432077,,
,5829.0,1065.0,2433.0,896.0,1207.0,2806.0,2475.0,,,,-0.371497789902922,-2.71861242098595,-0.428787608370826,,-4.188538469344787,,
,5831.0,1069.0,2435.0,900.0,1216.0,2807.0,2477.0,,,,-0.371526435656758,-2.7181740697028,-0.4291129872644,,-4.216596178017657,,
,5830.0,1066.0,2436.0,894.0,1210.0,2803.0,2481.0,,,,-0.371018887977664,-2.71830491850229,-0.42835834264858,,-4.244608537646343,,
,5828.0,1068.0,2434.0,896.0,1199.0,2803.0,2477.0,,,,-0.371346363782376,-2.71841334765366,-0.428655729530876,,-4.274397009061991,,
,5829.0,1065.0,2432.0,898.0,1213.0,2819.0,2468.0,,,,-0.371217234456262,-2.7184770473002,-0.429813322040494,,-4.307614090899775,,
,5827.0,1066.0,2435.0,898.0,1205.0,2836.0,2473.0,,,,-0.37087452574053,-2.7186076598869,-0.429251032343679,,-4.3453193027783295,,
,5825.0,1067.0,2432.0,896.0,1204.0,2855.0,2477.0,,,,-0.371108816013899,-2.71838918888256,-0.429878541799544,,-4.387550409319722,,
,5827.0,1065.0,2433.0,897.0,1211.0,2848.0,2476.0,,,,-0.371186990074634,-2.71849709784025,-0.430281818403946,,-4.43294068268782,,
,5827.0,1067.0,2430.0,897.0,1189.0,2848.0,2472.0,,,,-0.371279249826046,-2.7185274255334,-0.430424979220165,,-4.4784313061863745,,
,5827.0,1065.0,2433.0,896.0,1197.0,2825.0,2471.0,,,,-0.371631198738197,-2.71851999383357,-0.431256467004267,,-4.519121265788516,,
,5827.0,1066.0,2433.0,897.0,1196.0,2828.0,2479.0,,,,-0.371330441111261,-2.71906556741163,-0.431053847448092,,-4.548286010021372,,
,5828.0,1065.0,2431.0,896.0,1195.0,2826.0,2473.0,,,,-0.371289824518923,-2.71859671711923,-0.430403535730069,,-4.557581801611203,,
,5828.0,1066.0,2431.0,895.0,1220.0,2816.0,2478.0,,,,-0.371014059625018,-2.71840049274184,-0.431802779761526,,-4.537436101049002,,
,5830.0,1067.0,2435.0,895.0,1198.0,2797.0,2479.0,,,,-0.371327227195745,-2.71825500031053,-0.431719200084736,,-4.477606604496583,,
,5833.0,1067.0,2435.0,897.0,1210.0,2808.0,2479.0,,,,-0.371324736190673,-2.71847171340386,-0.432169568368514,,-4.36787391723988,,
,5829.0,1071.0,2436.0,899.0,1222.0,2807.0,2471.0,,,,-0.37114375915023,-2.71893993071878,-0.431623314702416,,-4.198816700765565,,
,5831.0,1068.0,2434.0,896.0,1221.0,2827.0,2478.0,,,,-0.371048112251658,-2.71866671809088,-0.431142654004909,,-3.962605140551892,,
,5832.0,1066.0,2430.0,895.0,1215.0,2823.0,2493.0,,,,-0.370975888964063,-2.71846569815965,-0.431273659960194,,-3.6537405475308016,,
,5831.0,1066.0,2431.0,897.0,1218.0,2824.0,2464.0,,,,-0.370861119522449,-2.71830903935289,-0.430711870296615,,-3.2696675618012296,,
,5833.0,1068.0,2432.0,896.0,1208.0,2814.0,2441.0,,,,-0.370899621136595,-2.71809583900804,-0.431374668940082,,-2.8111920267699073,,
,5834.0,1069.0,2433.0,898.0,1198.0,2827.0,2438.0,,,,-0.370746570436799,-2.7178608375039,-0.431326469194672,,-2.282652456054002,,
,5835.0,1068.0,2433.0,896.0,1220.0,2832.0,2455.0,,,,-0.370727352390756,-2.71771086264001,-0.430918642609709,,-1.6918152518004665,,
,5836.0,1070.0,2434.0,899.0,1227.0,2827.0,2450.0,,,,-0.370698778702294,-2.7178998082193,-0.430968088750753,,-1.0494913710609384,,
,5838.0,1069.0,2435.0,898.0,1208.0,2827.0,2454.0,,,,-0.370438155306069,-2.71764963034891,-0.430396342109739,,-0.3689016321972237,,
,5842.0,1071.0,2435.0,899.0,1213.0,2839.0,2444.0,,,,-0.370514780597276,-2.71777042705777,-0.430830104626411,,0.33515508881664907,,
,5839.0,1067.0,2433.0,896.0,1206.0,2828.0,2459.0,,,,-0.370842020214259,-2.71785135238718,-0.430410483297961,,1.0472562356239374,,
,5839.0,1068.0,2434.0,897.0,1200.0,2830.0,2467.0,,,,-0.370670250072181,-2.7173755512051,-0.430097035864829,,1.7523470944854078,,
,5843.0,1068.0,2436.0,899.0,1227.0,2807.0,2459.0,,,,-0.370139301604575,-2.71758547385395,-0.42997662122094,,2.436682648648938,,
,5844.0,1071.0,2438.0,898.0,1214.0,2811.0,2471.0,,,,-0.370152196744481,-2.71761339995229,-0.430122003204227,,3.0886394231858896,,
,5845.0,1070.0,2436.0,899.0,1218.0,2802.0,2479.0,,,,-0.36991025586209,-2.7172915533344,-0.430272432959864,,3.699329434796734,,
,5847.0,1070.0,2438.0,897.0,1231.0,2795.0,2476.0,,,,-0.369635414606514,-2.7169782483819,-0.429515283453103,,4.262965597172452,,
,5847.0,1069.0,2439.0,900.0,1213.0,2816.0,2471.0,,,,-0.369476503676401,-2.71721188297924,-0.428961945434608,,4.776949172924696,,
,5846.0,1070.0,2438.0,900.0,1224.0,2815.0,2474.0,,,,-0.36961091854655,-2.71707056434216,-0.430444869953486,,5.241673974303161,,
,5847.0,1071.0,2437.0,898.0,1217.0,2800.0,2495.0,,,,-0.369360168029415,-2.7169023137449,-0.429644303981548,,5.660067155490648,,
,5847.0,1069.0,2437.0,898.0,1227.0,2808.0,2476.0,,,,-0.368883116156992,-2.71675762697494,-0.428989971336753,,6.036910337567686,,
,5851.0,1073.0,2437.0,899.0,1235.0,2827.0,2493.0,,,,-0.368776294520611,-2.71651225754463,-0.429127336070842,,6.3780051814456735,,
,5853.0,1072.0,2437.0,899.0,1240.0,2829.0,2473.0,,,,-0.368638658475052,-2.71634355740405,-0.429143616952127,,6.689262342777843,,
,5854.0,1072.0,2438.0,901.0,1225.0,2832.0,2472.0,,,,-0.368255149994168,-2.7158159431978,-0.429117973744164,,6.975800430762871,,
,5854.0,1071.0,2439.0,900.0,1197.0,2818.0,2480.0,,,,-0.368213908866811,-2.71557715021042,-0.428717324641356,,7.24114130130154,,
,5860.0,1076.0,2443.0,901.0,1191.0,2834.0,2484.0,,,,-0.368011764830061,-2.71556021019725,-0.428513341543428,,7.486579881700239,,
,5859.0,1074.0,2441.0,901.0,1219.0,2820.0,2475.0,,,,-0.367822890681007,-2.71542327101783,-0.428467282107845,,7.710791885294196,,
,5859.0,1072.0,2442.0,902.0,1202.0,2821.0,2468.0,,,,-0.367433678691102,-2.715087235931,-0.428438695077055,,7.909722878733569,,
,5861.0,1073.0,2440.0,899.0,1215.0,2827.0,2474.0,,,,-0.367405790575805,-2.71511058564937,-0.428457547678772,,8.07677852326979,,
,5861.0,1072.0,2439.0,899.0,1217.0,2830.0,2468.0,,,,-0.367221160976536,-2.71492784289895,-0.428375893042534,,8.203308997035702,,
,5863.0,1075.0,2443.0,901.0,1204.0,2824.0,2479.0,,,,-0.366921088748821,-2.71475270729558,-0.428469343923525,,8.27935121575413,,
,5863.0,1074.0,2442.0,901.0,1203.0,2825.0,2480.0,,,,-0.367345725532536,-2.71457743791113,-0.428130445971489,,8.294562494335215,,
,5865.0,1075.0,2443.0,901.0,1209.0,2821.0,2468.0,,,,-0.366793734325875,-2.71456660910404,-0.428443500591147,,8.239252729947102,,
,5866.0,1075.0,2443.0,900.0,1205.0,2838.0,2471.0,,,,-0.366391250717733,-2.71428883020112,-0.429060361504025,,8.105404343139359,,
,5869.0,1076.0,2445.0,901.0,1197.0,2826.0,2477.0,,,,-0.366495499548989,-2.71440369719578,-0.428530047926342,,7.88756513175772,,
,5872.0,1075.0,2443.0,900.0,1200.0,2824.0,2485.0,,,,-0.366281287892226,-2.71408000494165,-0.428794395470549,,7.5835118412354765,,
,5869.0,1075.0,2446.0,901.0,1239.0,2840.0,2471.0,,,,-0.366237566683667,-2.71416857408953,-0.429827754264394,,7.1946110751692895,,
,5873.0,1075.0,2445.0,902.0,1205.0,2818.0,2478.0,,,,-0.365802869192479,-2.71373179343411,-0.428740997010456,,6.7258447097561875,,
,5875.0,1076.0,2445.0,902.0,1207.0,2819.0,2488.0,,,,-0.36550471025559,-2.71332911617937,-0.428752560994368,,6.185511899850677,,
,5875.0,1079.0,2445.0,902.0,1200.0,2824.0,2492.0,,,,-0.365253427585281,-2.71351707264853,-0.428708000458205,,5.584660792989472,,
,5878.0,1079.0,2447.0,904.0,1199.0,2826.0,2487.0,,,,-0.365075363465943,-2.71289180983895,-0.428905266060186,,4.936333086556837,,
,5877.0,1078.0,2448.0,905.0,1198.0,2845.0,2479.0,,,,-0.365346255855568,-2.71327282931493,-0.428821445590249,,4.254719219008311,,
,5881.0,1080.0,2448.0,904.0,1215.0,2816.0,2462.0,,,,-0.365180517117815,-2.71319905915478,-0.429787186988697,,3.5543203463628315,,
,5883.0,1079.0,2448.0,903.0,1217.0,2809.0,2475.0,,,,-0.364990671125008,-2.71305078722644,-0.429951229405447,,2.8491975565696763,,
,5883.0,1079.0,2447.0,902.0,1222.0,2804.0,2467.0,,,,-0.36543136722206,-2.71328348026235,-0.42995160567946,,2.152363566708244,,
,5884.0,1078.0,2445.0,901.0,1218.0,2824.0,2467.0,,,,-0.365408750803519,-2.71377839568448,-0.43040354496039,,1.475343148292617,,
,5890.0,1079.0,2449.0,904.0,1204.0,2815.0,2480.0,,,,-0.365864648988788,-2.71375575508613,-0.431834476693522,,0.8279014118902247,,
,5888.0,1080.0,2450.0,905.0,1220.0,2818.0,2474.0,,,,-0.366011028554662,-2.71404205161497,-0.431383932451611,,0.21791842515266655,,
,5890.0,1081.0,2450.0,904.0,1218.0,2825.0,2472.0,,,,-0.366313967516211,-2.71437139451377,-0.432591068806081,,-0.34862286707058177,,
,5892.0,1081.0,2450.0,904.0,1227.0,2829.0,2480.0,,,,-0.366964617697662,-2.71475326217622,-0.433546306431233,,-0.8675704430375831,,
,5896.0,1081.0,2449.0,903.0,1212.0,2823.0,2483.0,,,,-0.367092989964361,-2.71517520604051,-0.43455513792589,,-1.33648827908583,,
,5894.0,1082.0,2454.0,906.0,1201.0,2801.0,2489.0,,,,-0.367492310565564,-2.71530958756542,-0.434227479175088,,-1.7545131301509524,,
,5898.0,1081.0,2451.0,906.0,1207.0,2813.0,2487.0,,,,-0.367596715589725,-2.71568326221123,-0.436029880720777,,-2.1221946088011454,,
,5897.0,1083.0,2453.0,906.0,1224.0,2820.0,2463.0,,,,-0.367886975984822,-2.71590944264713,-0.435728133885472,,-2.441323970758008,,
,5900.0,1083.0,2451.0,905.0,1229.0,2806.0,2475.0,,,,-0.36816963809954,-2.71632873940428,-0.43706147370508,,-2.7147537550909093,,
,5903.0,1083.0,2455.0,906.0,1224.0,2818.0,2474.0,,,,-0.368000925980165,-2.71626034441926,-0.436825143084224,,-2.9462091329615094,,
,5904.0,1084.0,2453.0,906.0,1233.0,2814.0,2477.0,,,,-0.368053666186039,-2.71609189216281,-0.436945093863277,,-3.1400915237153617,,
,5906.0,1084.0,2455.0,906.0,1221.0,2854.0,2465.0,,,,-0.368170160284908,-2.71640012103898,-0.437721994853058,,-3.301275347001816,,
,5905.0,1083.0,2452.0,908.0,1235.0,2840.0,2482.0,,,,-0.368605869729282,-2.71628355343154,-0.4380221059326,,-3.4348996692102394,,
,5913.0,1084.0,2458.0,909.0,1220.0,2838.0,2476.0,,,,-0.368535474457872,-2.71641165769566,-0.437840308167747,,-3.546157885570191,,
,5913.0,1087.0,2458.0,908.0,1229.0,2833.0,2457.0,,,,-0.368460118015415,-2.71609670602191,-0.437822609462174,,-3.640090174850863,,
,5914.0,1086.0,2458.0,908.0,1226.0,2829.0,2458.0,,,,-0.368476112830115,-2.71620584926494,-0.437596042982323,,-3.7213849837696937,,
,5914.0,1084.0,2459.0,906.0,1197.0,2818.0,2474.0,,,,-0.368172359232007,-2.7159001711547,-0.437094136158181,,-3.7941971362516504,,
,5920.0,1087.0,2458.0,908.0,1194.0,2829.0,2471.0,,,,-0.368032454637473,-2.71589554743538,-0.437340343248023,,-3.861991357762481,,
,5921.0,1088.0,2459.0,910.0,1203.0,2825.0,2487.0,,,,-0.367690184309362,-2.71596353557572,-0.4376302611073,,-3.927421047284144,,
,5921.0,1088.0,2461.0,912.0,1230.0,2812.0,2494.0,,,,-0.367715051222866,-2.71568829591112,-0.43723042639039,,-3.9922527892572064,,
,5921.0,1087.0,2460.0,908.0,1222.0,2795.0,2489.0,,,,-0.367680423538012,-2.71561721895749,-0.436315829854009,,-4.0573468847522465,,
,5922.0,1088.0,2459.0,908.0,1217.0,2806.0,2471.0,,,,-0.36736510972548,-2.71537247778497,-0.436877300408238,,-4.122702454061188,,
,5920.0,1088.0,2462.0,910.0,1191.0,2817.0,2485.0,,,,-0.36730962204288,-2.71526389702838,-0.436740148276855,,-4.187571847234162,,
,5921.0,1087.0,2462.0,911.0,1191.0,2812.0,2482.0,,,,-0.367361157612278,-2.71552286269123,-0.436220412934946,,-4.250642913366881,,
,5913.0,1085.0,2460.0,907.0,1202.0,2832.0,2459.0,,,,-0.367337564698267,-2.71553964010506,-0.436562048381534,,-4.31027930050783,,
,5911.0,1081.0,2456.0,906.0,1196.0,2831.0,2470.0,,,,-0.367492311127649,-2.71562613895517,-0.436782389125364,,-4.3647991818870935,,
