TimeLabel,MEAS1_PPG1,MEAS1_PPG2,MEAS1_PPG3,MEAS1_PPG4,ACCX,ACCY,ACCZ,HR_timestamp,HR_value,radar_timestamp,phase_rx0,phase_rx1,phase_rx2,timestep,n_process,original_rate,calculated_rate
2025-08-19 23:02:58,5963.0,1140.0,2458.0,926.0,1916.0,2255.0,2545.0,2025-08-19 23:02:58,61.0,2025/08/19 11:02:58 PM,-0.47502729000725,-2.77826820814879,-0.496952798779597,2025/08/19 11:02:58 PM,0.6144349937122736,14.50443172454834,13.142857142857139
,5955.0,1137.0,2455.0,923.0,1914.0,2246.0,2539.0,2025-08-19 23:02:59,60.0,,-0.474967933114853,-2.77817409507375,-0.497064437334105,2025/08/19 11:03:08 PM,0.3329927289808859,13.824885368347168,11.80555555555556
,5951.0,1135.0,2452.0,923.0,1906.0,2245.0,2543.0,2025-08-19 23:03:00,60.0,,-0.475126085056531,-2.77801271799229,-0.497239003134457,2025/08/19 11:03:18 PM,0.10363329517741153,12.61387538909912,13.790386130811662
,5945.0,1136.0,2450.0,925.0,1903.0,2231.0,2543.0,2025-08-19 23:03:01,60.0,,-0.474990788170712,-2.77829296194281,-0.497385476163245,2025/08/19 11:03:28 PM,-0.08141645588931024,13.009539604187012,11.53635866593767
,5940.0,1133.0,2450.0,923.0,1903.0,2237.0,2542.0,2025-08-19 23:03:02,60.0,,-0.475491662996901,-2.77835623898097,-0.497496601385844,2025/08/19 11:03:38 PM,-0.23134650919197575,12.1359224319458,12.881473451889176
,5936.0,1134.0,2449.0,924.0,1908.0,2243.0,2544.0,2025-08-19 23:03:03,60.0,,-0.475410711720458,-2.77833206044423,-0.497998312960735,2025/08/19 11:03:48 PM,-0.3559351991101979,11.980830192565918,14.642857142857139
,5933.0,1132.0,2445.0,921.0,1907.0,2263.0,2547.0,2025-08-19 23:03:04,61.0,,-0.475050253222463,-2.7781492726673,-0.49774853108756,2025/08/19 11:03:58 PM,-0.4647564174190094,13.442868232727053,15.094936708860782
,5932.0,1131.0,2447.0,921.0,1909.0,2279.0,2546.0,2025-08-19 23:03:05,61.0,,-0.474966246186747,-2.77805735095282,-0.497839530096354,2025/08/19 11:04:08 PM,-0.5664783913234648,13.867488861083984,14.977611824675009
,5926.0,1131.0,2445.0,922.0,1913.0,2271.0,2551.0,2025-08-19 23:03:06,60.0,,-0.474992754329,-2.7783507957258,-0.497034651922525,2025/08/19 11:04:18 PM,-0.6682999550025501,15.064562797546388,14.039408866995078
,5924.0,1130.0,2443.0,920.0,1913.0,2254.0,2549.0,2025-08-19 23:03:07,60.0,,-0.475043355728348,-2.77814833959963,-0.49712502116072,2025/08/19 11:04:28 PM,-0.7755580489245322,14.767931938171388,13.650793650793647
,5923.0,1130.0,2442.0,920.0,1914.0,2226.0,2599.0,2025-08-19 23:03:08,59.0,,-0.475265760259183,-2.77821677250928,-0.497133977285417,2025/08/19 11:04:38 PM,-0.891526318649576,14.17322826385498,13.142857142857162
,5922.0,1129.0,2441.0,920.0,1902.0,2240.0,2589.0,2025-08-19 23:03:09,59.0,,-0.475315104335017,-2.77832691208643,-0.497293081545845,2025/08/19 11:04:48 PM,-1.0174096281545646,13.493253707885742,14.54598883338231
,5918.0,1128.0,2443.0,919.0,1905.0,2262.0,2574.0,2025-08-19 23:03:10,59.0,,-0.475196566085052,-2.77804572938489,-0.497638299005837,2025/08/19 11:04:58 PM,-1.1525234635750379,13.824885368347168,10.546603962685989
,5918.0,1130.0,2443.0,918.0,1903.0,2247.0,2569.0,2025-08-19 23:03:11,59.0,,-0.475271146626083,-2.77819284023331,-0.497557004319371,2025/08/19 11:05:08 PM,-1.2946311869081861,12.820513725280762,11.650485436893192
,5917.0,1127.0,2440.0,920.0,1902.0,2233.0,2588.0,2025-08-19 23:03:12,59.0,,-0.4751488043951,-2.77854095609762,-0.497326941168025,2025/08/19 11:05:18 PM,-1.4403972716358713,12.116315841674805,11.432719353960621
,5916.0,1128.0,2440.0,918.0,1895.0,2238.0,2554.0,2025-08-19 23:03:13,60.0,,-0.475275021878522,-2.77833796693648,-0.497463756860007,2025/08/19 11:05:28 PM,-1.5859035105805275,11.337867736816406,11.882352941176478
,5913.0,1129.0,2442.0,921.0,1905.0,2224.0,2571.0,2025-08-19 23:03:14,61.0,,-0.475354328749379,-2.778078904528,-0.497270228158304,2025/08/19 11:05:38 PM,-1.727170611806706,11.655012130737305,13.03735024665258
,5916.0,1128.0,2443.0,919.0,1906.0,2241.0,2574.0,2025-08-19 23:03:15,61.0,,-0.475208851065469,-2.77779427542009,-0.497351043630897,2025/08/19 11:05:48 PM,-1.8606310577958753,12.07729434967041,12.97638531681085
,5912.0,1128.0,2438.0,919.0,1908.0,2248.0,2589.0,2025-08-19 23:03:16,61.0,,-0.475305732102731,-2.77813805365941,-0.497776858453157,,-1.983509477696219,,
,5914.0,1126.0,2439.0,918.0,1909.0,2308.0,2561.0,2025-08-19 23:03:17,61.0,,-0.474945457899658,-2.77805545096158,-0.497580941500618,,-2.094081096992446,,
,5913.0,1127.0,2440.0,918.0,1910.0,2294.0,2544.0,2025-08-19 23:03:18,60.0,,-0.475214599286362,-2.77820328967287,-0.49732145146423,,-2.19179404341781,,
,5910.0,1127.0,2439.0,916.0,1913.0,2264.0,2549.0,2025-08-19 23:03:19,59.0,,-0.474555799427078,-2.77806897782383,-0.497407187448352,,-2.2772554974407333,,
,5912.0,1126.0,2439.0,917.0,1916.0,2235.0,2557.0,2025-08-19 23:03:20,59.0,,-0.474578815212675,-2.77775070934906,-0.498024532653902,,-2.3520940802110197,,
,5909.0,1126.0,2438.0,917.0,1912.0,2246.0,2560.0,2025-08-19 23:03:21,58.0,,-0.473939203281451,-2.77750076112698,-0.497358862374205,,-2.418721042291833,,
,5913.0,1126.0,2438.0,919.0,1906.0,2246.0,2565.0,2025-08-19 23:03:22,58.0,,-0.473708113990938,-2.77732855737934,-0.497041085187736,,-2.4800201947399745,,
,5911.0,1127.0,2441.0,918.0,1909.0,2221.0,2544.0,2025-08-19 23:03:23,59.0,,-0.473869496904392,-2.77766636574972,-0.497413537552465,,-2.5390006049066143,,
,5913.0,1128.0,2442.0,920.0,1910.0,2232.0,2560.0,2025-08-19 23:03:24,59.0,,-0.473578474948819,-2.7774789569114,-0.496566185855278,,-2.5984468541197776,,
,5911.0,1124.0,2440.0,917.0,1914.0,2223.0,2563.0,2025-08-19 23:03:25,60.0,,-0.474004622704681,-2.77740545547501,-0.496972672902163,,-2.6605997096313607,,
,5910.0,1125.0,2438.0,920.0,1909.0,2236.0,2548.0,2025-08-19 23:03:26,61.0,,-0.473998993551142,-2.77785723920976,-0.497355364280256,,-2.72689626043863,,
,5910.0,1126.0,2440.0,919.0,1912.0,2232.0,2555.0,2025-08-19 23:03:27,61.0,,-0.474175985549559,-2.77788335522694,-0.497715190789782,,-2.7977936147116087,,
,5911.0,1127.0,2440.0,919.0,1914.0,2246.0,2546.0,2025-08-19 23:03:28,61.0,,-0.474153851117329,-2.77754048913104,-0.498286599722939,,-2.8726944195525803,,
,5911.0,1128.0,2437.0,917.0,1918.0,2242.0,2547.0,2025-08-19 23:03:29,61.0,,-0.47446869397085,-2.77802824497454,-0.498127160053269,,-2.949985482452729,,
,5911.0,1127.0,2439.0,918.0,1913.0,2235.0,2566.0,2025-08-19 23:03:30,61.0,,-0.474554916008201,-2.77814175576485,-0.49812949288275,,-3.027192036915749,,
,5909.0,1128.0,2437.0,919.0,1917.0,2254.0,2576.0,2025-08-19 23:03:31,60.0,,-0.475019562582622,-2.77853553484418,-0.499009888810042,,-3.1012391865974176,,
,5909.0,1130.0,2439.0,920.0,1914.0,2252.0,2567.0,2025-08-19 23:03:32,60.0,,-0.475893040371206,-2.77871748861903,-0.499379674394223,,-3.16879904575353,,
,5907.0,1126.0,2435.0,918.0,1914.0,2265.0,2561.0,2025-08-19 23:03:33,61.0,,-0.476316776962856,-2.77896868836906,-0.499952932604768,,-3.226688772159322,,
,5906.0,1125.0,2439.0,917.0,1914.0,2242.0,2555.0,2025-08-19 23:03:34,61.0,,-0.476597749121942,-2.77926234465006,-0.500396578075655,,-3.272274196275947,,
,5906.0,1126.0,2437.0,919.0,1911.0,2235.0,2549.0,2025-08-19 23:03:35,62.0,,-0.477012854050101,-2.77947461171003,-0.501460904381888,,-3.303829410775405,,
,5907.0,1126.0,2436.0,917.0,1910.0,2233.0,2558.0,2025-08-19 23:03:36,63.0,,-0.47776733950639,-2.77989488074023,-0.501677869817057,,-3.3208061269790523,,
,5907.0,1124.0,2436.0,915.0,1910.0,2248.0,2563.0,2025-08-19 23:03:37,63.0,,-0.478178779076395,-2.78043687184833,-0.501891026611896,,-3.323976838254049,,
,5904.0,1125.0,2437.0,918.0,1912.0,2250.0,2550.0,2025-08-19 23:03:38,65.0,,-0.478768631795669,-2.78059095297823,-0.502442839577782,,-3.3154301354241063,,
,5905.0,1128.0,2435.0,919.0,1909.0,2245.0,2546.0,2025-08-19 23:03:39,67.0,,-0.478730520522046,-2.78088228678924,-0.503295289215736,,-3.2984122185703,,
,5904.0,1126.0,2435.0,919.0,1908.0,2238.0,2542.0,2025-08-19 23:03:40,68.0,,-0.478352406552286,-2.78057935239845,-0.503140336857027,,-3.277024117294231,,
,5902.0,1125.0,2433.0,917.0,1911.0,2239.0,2548.0,2025-08-19 23:03:41,66.0,,-0.478420562997726,-2.78061502807515,-0.503078893737432,,-3.2557985018940094,,
,5902.0,1122.0,2431.0,916.0,1913.0,2251.0,2550.0,2025-08-19 23:03:42,65.0,,-0.478830879330097,-2.78105500030908,-0.502569922385527,,-3.239192376057719,,
,5904.0,1126.0,2436.0,918.0,1913.0,2269.0,2543.0,2025-08-19 23:03:43,64.0,,-0.478755713494411,-2.78082895977517,-0.502825744498659,,-3.231041256000534,,
,5900.0,1128.0,2435.0,918.0,1911.0,2272.0,2554.0,2025-08-19 23:03:44,64.0,,-0.478451387912957,-2.78061396453808,-0.502994402855007,,-3.2340256404602847,,
,5903.0,1125.0,2436.0,919.0,1911.0,2254.0,2560.0,2025-08-19 23:03:45,63.0,,-0.479070992044169,-2.78081146290502,-0.503540063319455,,-3.249201254979344,,
,5898.0,1124.0,2433.0,915.0,1914.0,2242.0,2559.0,2025-08-19 23:03:46,63.0,,-0.479023485058549,-2.78057039433254,-0.503146964414933,,-3.2756410127811133,,
,5902.0,1124.0,2432.0,916.0,1916.0,2238.0,2550.0,2025-08-19 23:03:47,62.0,,-0.479499606577097,-2.78096758740867,-0.50290384318249,,-3.310229518549746,,
,5900.0,1126.0,2434.0,918.0,1917.0,2237.0,2546.0,2025-08-19 23:03:48,61.0,,-0.479490801079571,-2.78118345760979,-0.50280990822524,,-3.347640812145332,,
,5901.0,1124.0,2434.0,916.0,1906.0,2237.0,2556.0,2025-08-19 23:03:49,61.0,,-0.479703292516994,-2.78142436671994,-0.503826140665885,,-3.380517187252817,,
,5903.0,1124.0,2435.0,916.0,1912.0,2251.0,2551.0,2025-08-19 23:03:50,60.0,,-0.47997099997986,-2.7814831816058,-0.503364562485137,,-3.3998514133733613,,
,5904.0,1123.0,2435.0,919.0,1912.0,2261.0,2558.0,2025-08-19 23:03:51,59.0,,-0.480176759661475,-2.781427495337,-0.503682893730693,,-3.3955567493192187,,
,5905.0,1128.0,2436.0,919.0,1915.0,2242.0,2561.0,2025-08-19 23:03:52,58.0,,-0.479854029695604,-2.78161903886016,-0.503890159682238,,-3.357189457382988,,
,5905.0,1125.0,2435.0,918.0,1912.0,2249.0,2569.0,2025-08-19 23:03:53,58.0,,-0.479787021968807,-2.78144511731643,-0.502991358354808,,-3.2747685602833236,,
,5905.0,1124.0,2436.0,917.0,1910.0,2238.0,2557.0,2025-08-19 23:03:54,58.0,,-0.479766742745753,-2.78124355707595,-0.503445743553025,,-3.1396198233429007,,
,5911.0,1127.0,2435.0,919.0,1904.0,2242.0,2560.0,2025-08-19 23:03:55,59.0,,-0.479840483016997,-2.78119258850731,-0.503681135406265,,-2.9451591213493526,,
,5909.0,1128.0,2436.0,918.0,1905.0,2235.0,2557.0,2025-08-19 23:03:56,59.0,,-0.479858207745873,-2.78164186328997,-0.503909630470408,,-2.6875287540393717,,
,5910.0,1126.0,2439.0,919.0,1912.0,2234.0,2542.0,2025-08-19 23:03:57,59.0,,-0.479368794277489,-2.78122081448962,-0.502954528770973,,-2.3660118493332774,,
,5909.0,1127.0,2438.0,918.0,1909.0,2217.0,2542.0,2025-08-19 23:03:58,60.0,,-0.479042655161619,-2.78096927478693,-0.502225713670929,,-1.9831743685561078,,
,5914.0,1127.0,2441.0,919.0,1905.0,2239.0,2551.0,2025-08-19 23:03:59,60.0,,-0.479276648761071,-2.78093447071036,-0.503487015426299,,-1.544717348284731,,
,5912.0,1129.0,2442.0,918.0,1909.0,2252.0,2543.0,2025-08-19 23:04:00,59.0,,-0.479523577004777,-2.78119674230341,-0.503474054374856,,-1.0590575926514965,,
,5917.0,1130.0,2441.0,919.0,1908.0,2257.0,2539.0,2025-08-19 23:04:01,59.0,,-0.479521525543637,-2.78126797165959,-0.503307997058797,,-0.5366866944028323,,
,5915.0,1126.0,2440.0,919.0,1909.0,2261.0,2538.0,2025-08-19 23:04:02,59.0,,-0.479907469640554,-2.78132623626692,-0.503043216633131,,0.010618768781370998,,
,5918.0,1127.0,2439.0,918.0,1911.0,2241.0,2541.0,2025-08-19 23:04:03,59.0,,-0.479478282617703,-2.78138893820366,-0.503054481583451,,0.570651181179331,,
,5920.0,1129.0,2442.0,921.0,1911.0,2244.0,2556.0,2025-08-19 23:04:04,59.0,,-0.479587769463823,-2.7810646079372,-0.503166721565685,,1.1316046926385563,,
,5918.0,1127.0,2440.0,920.0,1912.0,2257.0,2559.0,2025-08-19 23:04:05,60.0,,-0.479295044128394,-2.78126312440503,-0.503334800305197,,1.68281042175073,,
,5918.0,1129.0,2437.0,919.0,1911.0,2245.0,2541.0,2025-08-19 23:04:06,60.0,,-0.479550148348712,-2.78116395782187,-0.503673668034377,,2.2153129535281284,,
,5922.0,1129.0,2441.0,922.0,1915.0,2222.0,2560.0,2025-08-19 23:04:07,61.0,,-0.479465764714269,-2.78107293631231,-0.503705390532399,,2.7222458383254926,,
,5923.0,1128.0,2443.0,922.0,1908.0,2232.0,2546.0,2025-08-19 23:04:08,61.0,,-0.479308321818994,-2.78144419988756,-0.50335252454218,,3.198983612121616,,
,5926.0,1131.0,2445.0,923.0,1907.0,2242.0,2540.0,2025-08-19 23:04:09,61.0,,-0.479195212681527,-2.78111878333609,-0.503710657569093,,3.6430670986244413,,
,5925.0,1130.0,2442.0,921.0,1907.0,2230.0,2544.0,2025-08-19 23:04:10,61.0,,-0.47907827877536,-2.78120529362571,-0.503258373303599,,4.05391666776475,,
,5928.0,1132.0,2443.0,919.0,1910.0,2218.0,2540.0,2025-08-19 23:04:11,61.0,,-0.479421968112236,-2.78136391318808,-0.503986929644746,,4.432364547752797,,
,5930.0,1131.0,2444.0,921.0,1909.0,2229.0,2543.0,2025-08-19 23:04:12,60.0,,-0.479349916967532,-2.78154159368444,-0.503790419808181,,4.780052190011871,,
,5930.0,1133.0,2446.0,920.0,1911.0,2218.0,2550.0,2025-08-19 23:04:13,60.0,,-0.479242620988249,-2.78117374376071,-0.503688409866468,,5.098751651618498,,
,5933.0,1132.0,2443.0,918.0,1921.0,2236.0,2545.0,2025-08-19 23:04:14,60.0,,-0.479630541837043,-2.78150355712604,-0.503963163183664,,5.3896800228868,,
,5932.0,1133.0,2445.0,922.0,1912.0,2215.0,2551.0,2025-08-19 23:04:15,60.0,,-0.479978841852955,-2.78168387725324,-0.504007622075661,,5.652881684746389,,
,5933.0,1133.0,2446.0,922.0,1908.0,2225.0,2539.0,2025-08-19 23:04:16,61.0,,-0.479979659681186,-2.78179543859854,-0.503897761770512,,5.886752703440505,,
,5935.0,1131.0,2446.0,921.0,1909.0,2212.0,2547.0,2025-08-19 23:04:17,61.0,,-0.479987397474784,-2.78197972687524,-0.504039316214787,,6.0877727399423405,,
,5937.0,1132.0,2446.0,921.0,1912.0,2204.0,2548.0,2025-08-19 23:04:18,61.0,,-0.479978651496887,-2.78216613800742,-0.504133815985001,,6.250491286427515,,
,5935.0,1131.0,2446.0,921.0,1918.0,2222.0,2551.0,2025-08-19 23:04:19,61.0,,-0.480202764549636,-2.78196311371977,-0.504864458425722,,6.36778813709437,,
,5941.0,1134.0,2448.0,921.0,1917.0,2212.0,2558.0,2025-08-19 23:04:20,61.0,,-0.480182791811107,-2.78195019541851,-0.504565068322111,,6.4313964432606285,,
,5941.0,1135.0,2450.0,925.0,1915.0,2217.0,2549.0,2025-08-19 23:04:21,61.0,,-0.480252496628407,-2.78193644826865,-0.504003563559015,,6.432645084861505,,
,5940.0,1134.0,2446.0,924.0,1907.0,2239.0,2546.0,2025-08-19 23:04:22,61.0,,-0.480016274514341,-2.78182552965009,-0.504657196685891,,6.363349456762287,,
,5944.0,1133.0,2446.0,923.0,1906.0,2238.0,2560.0,2025-08-19 23:04:23,61.0,,-0.480087349429245,-2.78199574478736,-0.504491229732469,,6.216759159798974,,
,5944.0,1136.0,2452.0,923.0,1907.0,2230.0,2577.0,2025-08-19 23:04:24,61.0,,-0.480311143215747,-2.78204338886228,-0.504961689715181,,5.988459949382654,,
,5947.0,1137.0,2451.0,922.0,1911.0,2242.0,2550.0,2025-08-19 23:04:25,60.0,,-0.480172244340405,-2.78215516289562,-0.50469378828415,,5.677127878828523,,
,5945.0,1136.0,2450.0,923.0,1914.0,2234.0,2549.0,2025-08-19 23:04:26,60.0,,-0.480346105224739,-2.78208527040011,-0.505929611591427,,5.285047448245413,,
,5945.0,1134.0,2449.0,924.0,1910.0,2237.0,2555.0,2025-08-19 23:04:27,60.0,,-0.480410766974429,-2.7821833528329,-0.504395597996059,,4.8183321916705415,,
,5951.0,1137.0,2451.0,926.0,1903.0,2244.0,2558.0,2025-08-19 23:04:28,61.0,,-0.480576030534374,-2.78222508569585,-0.505380684135194,,4.28682158055036,,
,5952.0,1139.0,2451.0,924.0,1906.0,2244.0,2539.0,2025-08-19 23:04:29,61.0,,-0.480621588218332,-2.78228295690535,-0.504815946010432,,3.703665547054814,,
,5954.0,1138.0,2454.0,926.0,1910.0,2252.0,2552.0,2025-08-19 23:04:30,61.0,,-0.48088384419658,-2.78255131084937,-0.504774096755142,,3.0846401360071365,,
,5950.0,1135.0,2450.0,924.0,1913.0,2259.0,2551.0,2025-08-19 23:04:31,61.0,,-0.480935062147498,-2.78223708276943,-0.505142304867669,,2.4472601331531414,,
,5958.0,1139.0,2453.0,924.0,1912.0,2244.0,2549.0,2025-08-19 23:04:32,61.0,,-0.481015213584225,-2.78238321613863,-0.50516068623615,,1.809766068205684,,
,5956.0,1138.0,2453.0,923.0,1910.0,2227.0,2557.0,2025-08-19 23:04:33,61.0,,-0.481099022693462,-2.78221739991055,-0.505754699135507,,1.1900656946265387,,
,5959.0,1137.0,2452.0,925.0,1910.0,2222.0,2559.0,2025-08-19 23:04:34,61.0,,-0.480905816227387,-2.78201521986536,-0.505281465116352,,0.6047069379651296,,
,5960.0,1139.0,2454.0,925.0,1911.0,2228.0,2553.0,2025-08-19 23:04:35,61.0,,-0.480876207814443,-2.78213531535156,-0.505285718075574,,0.06795281323355243,,
,5962.0,1140.0,2456.0,925.0,1909.0,2230.0,2555.0,2025-08-19 23:04:36,60.0,,-0.480717300426874,-2.78208849756597,-0.50485704611743,,-0.40898026987762687,,
,5965.0,1139.0,2456.0,925.0,1911.0,2224.0,2568.0,2025-08-19 23:04:37,60.0,,-0.480447212930243,-2.7823880105882,-0.505569990582021,,-0.8184716579148172,,
,5965.0,1140.0,2456.0,928.0,1909.0,2226.0,2569.0,2025-08-19 23:04:38,60.0,,-0.480553783143657,-2.78230983892641,-0.505381085237393,,-1.156799753478794,,
,5965.0,1141.0,2457.0,926.0,1909.0,2235.0,2553.0,2025-08-19 23:04:39,60.0,,-0.480494018106457,-2.78215666218978,-0.50482134809513,,-1.4241844469106268,,
,5967.0,1141.0,2456.0,927.0,1912.0,2254.0,2560.0,2025-08-19 23:04:40,60.0,,-0.480344340482583,-2.78210895160754,-0.504999111899406,,-1.6245720602094973,,
,5973.0,1144.0,2457.0,928.0,1911.0,2227.0,2567.0,2025-08-19 23:04:41,60.0,,-0.480623780932203,-2.78239222362498,-0.505791011563063,,-1.765182751237072,,
,5973.0,1142.0,2458.0,927.0,1910.0,2232.0,2565.0,2025-08-19 23:04:42,60.0,,-0.480633516532836,-2.78260218488527,-0.506247463660792,,-1.8558546003723848,,
,5973.0,1142.0,2459.0,926.0,1904.0,2256.0,2552.0,2025-08-19 23:04:43,60.0,,-0.481146611232242,-2.78219634151087,-0.505802897030236,,-1.908231230192841,,
,5974.0,1142.0,2459.0,927.0,1904.0,2256.0,2565.0,2025-08-19 23:04:44,60.0,,-0.481261170771212,-2.78246185818083,-0.506064537461954,,-1.9348512302713454,,
,5978.0,1143.0,2462.0,929.0,1904.0,2247.0,2561.0,2025-08-19 23:04:45,60.0,,-0.481639423557584,-2.78263639890166,-0.506261610528384,,-1.9482069819975134,,
,5982.0,1143.0,2462.0,930.0,1907.0,2244.0,2569.0,2025-08-19 23:04:46,60.0,,-0.481650772899529,-2.78284895032337,-0.506354119654299,,-1.9598454356755952,,
,5980.0,1143.0,2460.0,929.0,1909.0,2262.0,2559.0,2025-08-19 23:04:47,60.0,,-0.482049117451321,-2.78287099055812,-0.506328267899373,,-1.9795814787664896,,
,5981.0,1146.0,2462.0,928.0,1904.0,2263.0,2555.0,2025-08-19 23:04:48,60.0,,-0.481982819456526,-2.78266607300072,-0.506721229804873,,-2.0148846336522768,,
,5981.0,1142.0,2460.0,928.0,1907.0,2254.0,2563.0,2025-08-19 23:04:49,59.0,,-0.481893009210464,-2.78278117499983,-0.506101716703169,,-2.0704831164896036,,
,5979.0,1144.0,2462.0,930.0,1908.0,2262.0,2571.0,2025-08-19 23:04:50,59.0,,-0.482049383065098,-2.78278374679789,-0.50733685769961,,-2.148208706254198,,
,5975.0,1141.0,2461.0,928.0,1907.0,2232.0,2557.0,2025-08-19 23:04:51,59.0,,-0.482047987021342,-2.78284815476341,-0.505771884743142,,-2.247084652356132,,
,5970.0,1142.0,2456.0,928.0,1906.0,2234.0,2539.0,2025-08-19 23:04:52,60.0,,-0.481578072436361,-2.78274731942108,-0.50652881437766,,-2.363639332718489,,
,5968.0,1142.0,2457.0,925.0,1905.0,2229.0,2528.0,2025-08-19 23:04:53,60.0,,-0.481635786356425,-2.78283878294362,-0.506865944347989,,-2.492411641100132,,
,5960.0,1140.0,2454.0,924.0,1903.0,2231.0,2530.0,2025-08-19 23:04:54,60.0,,-0.481583735223717,-2.78279163297404,-0.506549974530131,,-2.6266003354838947,,
,5955.0,1136.0,2453.0,923.0,1905.0,2221.0,2521.0,2025-08-19 23:04:55,60.0,,-0.481800445420522,-2.78293382692934,-0.506158011785343,,-2.758798934869181,,
,5948.0,1136.0,2449.0,923.0,1909.0,2219.0,2539.0,2025-08-19 23:04:56,60.0,,-0.482128919911537,-2.782955836612,-0.505942370687969,,-2.8817510014168293,,
,5942.0,1135.0,2449.0,924.0,1909.0,2241.0,2533.0,2025-08-19 23:04:57,60.0,,-0.481792757940013,-2.78281890108429,-0.506688314141808,,-2.9890593909406062,,
,5938.0,1134.0,2448.0,923.0,1914.0,2253.0,2546.0,2025-08-19 23:04:58,60.0,,-0.482210682759421,-2.78268826630489,-0.507104073940841,,-3.075788745798467,,
,5932.0,1131.0,2444.0,921.0,1917.0,2240.0,2548.0,2025-08-19 23:04:59,60.0,,-0.482032429204914,-2.78293640681348,-0.506541322720777,,-3.1389129334626844,,
,5924.0,1130.0,2443.0,920.0,1915.0,2229.0,2551.0,2025-08-19 23:05:00,60.0,,-0.482046674297801,-2.78282940579959,-0.506763853658932,,-3.1775759078660237,,
,5923.0,1131.0,2443.0,919.0,1911.0,2233.0,2545.0,2025-08-19 23:05:01,61.0,,-0.482187171456097,-2.78275920948046,-0.506806983174924,,-3.1931521796753826,,
,5917.0,1129.0,2442.0,918.0,1910.0,2220.0,2563.0,2025-08-19 23:05:02,61.0,,-0.481991985874214,-2.78277433962891,-0.506798061877266,,-3.1891091294649683,,
,5914.0,1128.0,2437.0,918.0,1911.0,2216.0,2553.0,2025-08-19 23:05:03,61.0,,-0.481867040881688,-2.78290799918191,-0.506886732700722,,-3.1706868852351366,,
,5908.0,1126.0,2437.0,916.0,1909.0,2235.0,2550.0,2025-08-19 23:05:04,62.0,,-0.4819684136483,-2.78292447796739,-0.507040309117437,,-3.144422705088101,,
,5904.0,1127.0,2435.0,917.0,1906.0,2237.0,2546.0,2025-08-19 23:05:05,61.0,,-0.481835956690107,-2.78256036362199,-0.506215509650841,,-3.1175561849956637,,
2025-08-19 23:02:59,5903.0,1127.0,2435.0,917.0,1911.0,2243.0,2563.0,2025-08-19 23:05:06,61.0,2025/08/19 11:02:59 PM,-0.482041015426577,-2.78274568372228,-0.506857170348958,,-3.097359093050102,,
,5901.0,1126.0,2433.0,916.0,1914.0,2253.0,2554.0,2025-08-19 23:05:07,60.0,,-0.482175949334784,-2.78307122067099,-0.506295513688688,,-3.0904387793851154,,
,5899.0,1123.0,2436.0,915.0,1911.0,2234.0,2558.0,2025-08-19 23:05:08,59.0,,-0.481613666558026,-2.78260020812146,-0.506582021795696,,-3.1020665666002247,,
,5898.0,1124.0,2435.0,915.0,1909.0,2236.0,2570.0,2025-08-19 23:05:09,59.0,,-0.481528354455542,-2.78285324091273,-0.506014238882395,,-3.135582244008686,,
,5896.0,1123.0,2434.0,915.0,1909.0,2234.0,2557.0,2025-08-19 23:05:10,59.0,,-0.481429473586215,-2.78288869927081,-0.506590224266756,,-3.1919228453425754,,
,5895.0,1124.0,2435.0,917.0,1911.0,2236.0,2562.0,2025-08-19 23:05:11,59.0,,-0.481277832342328,-2.78292921235521,-0.506591491830922,,-3.2693181525594537,,
,5893.0,1123.0,2430.0,915.0,1908.0,2248.0,2568.0,2025-08-19 23:05:12,59.0,,-0.481141350747252,-2.78292097143473,-0.506050801986432,,-3.3631864237127203,,
,5894.0,1123.0,2430.0,917.0,1911.0,2218.0,2555.0,2025-08-19 23:05:13,60.0,,-0.481454078945594,-2.78275028425874,-0.506762889527178,,-3.466251227008101,,
,5890.0,1123.0,2432.0,916.0,1914.0,2214.0,2555.0,2025-08-19 23:05:14,60.0,,-0.481332397540258,-2.78292666047064,-0.506073628533532,,-3.568883841892987,,
,5889.0,1125.0,2433.0,916.0,1908.0,2219.0,2566.0,2025-08-19 23:05:15,60.0,,-0.48133275930859,-2.78256914436664,-0.506434367408033,,-3.659656093087302,,
,5889.0,1121.0,2430.0,916.0,1895.0,2243.0,2542.0,2025-08-19 23:05:16,59.0,,-0.481363823691011,-2.782731977139,-0.506567173373703,,-3.726067556007946,,
,5887.0,1120.0,2432.0,915.0,1900.0,2255.0,2535.0,2025-08-19 23:05:17,59.0,,-0.481404341530961,-2.78280822324065,-0.506380034940078,,-3.755391911211729,,
,5886.0,1122.0,2431.0,916.0,1903.0,2264.0,2552.0,2025-08-19 23:05:18,59.0,,-0.481268810798566,-2.7827201375749,-0.50571669266294,,-3.735573303785317,,
,5890.0,1121.0,2434.0,914.0,1900.0,2256.0,2556.0,2025-08-19 23:05:19,59.0,,-0.481087098103078,-2.78248054041306,-0.506076201943737,,-3.656097192267049,,
,5888.0,1119.0,2428.0,914.0,1912.0,2240.0,2549.0,2025-08-19 23:05:20,59.0,,-0.480989312988468,-2.78259988094862,-0.506008762835025,,-3.5087615777054806,,
,5884.0,1120.0,2433.0,912.0,1911.0,2245.0,2554.0,2025-08-19 23:05:21,59.0,,-0.480833180060454,-2.78248695336905,-0.505413767577663,,-3.288282418826435,,
,5886.0,1121.0,2431.0,914.0,1905.0,2243.0,2561.0,2025-08-19 23:05:22,59.0,,-0.480793352692037,-2.78223999399318,-0.505458019133393,,-2.992680181695151,,
,5887.0,1121.0,2432.0,914.0,1905.0,2232.0,2554.0,2025-08-19 23:05:23,60.0,,-0.480922697151798,-2.78233796810455,-0.505629200828241,,-2.6234123842137556,,
,5887.0,1121.0,2431.0,915.0,1900.0,2250.0,2540.0,2025-08-19 23:05:24,60.0,,-0.481045708307723,-2.78246712133999,-0.506186998038418,,-2.1852394732650233,,
,5887.0,1122.0,2429.0,914.0,1912.0,2215.0,2541.0,2025-08-19 23:05:25,59.0,,-0.48075356532576,-2.78263962245776,-0.505988250262923,,-1.6858372117791107,,
,5886.0,1124.0,2430.0,916.0,1913.0,2226.0,2556.0,2025-08-19 23:05:26,59.0,,-0.480976771265907,-2.7824573917487,-0.505865530164407,,-1.1351951159709024,,
,5887.0,1122.0,2430.0,917.0,1911.0,2224.0,2550.0,2025-08-19 23:05:27,59.0,,-0.480835400537113,-2.78250140463683,-0.505840503739324,,-0.5448634620286673,,
,5886.0,1121.0,2433.0,916.0,1921.0,2267.0,2554.0,2025-08-19 23:05:28,59.0,,-0.481061724445349,-2.7825796213349,-0.505692563020518,,0.07287270491500146,,
,5889.0,1121.0,2429.0,912.0,1916.0,2269.0,2562.0,2025-08-19 23:05:29,59.0,,-0.481124575902856,-2.78235807811939,-0.506028882490569,,0.7058076086464015,,
,5888.0,1122.0,2431.0,913.0,1917.0,2247.0,2555.0,2025-08-19 23:05:30,58.0,,-0.481370241686505,-2.78271432061874,-0.506791087818644,,1.3425353023023467,,
,5886.0,1121.0,2431.0,915.0,1915.0,2255.0,2552.0,2025-08-19 23:05:31,58.0,,-0.481919099178402,-2.78348900289726,-0.507563878776115,,1.973007616743693,,
,5884.0,1122.0,2431.0,915.0,1913.0,2240.0,2544.0,2025-08-19 23:05:32,58.0,,-0.482861726306236,-2.78365016554794,-0.508236734828488,,2.5888798463733984,,
,5882.0,1120.0,2429.0,914.0,1903.0,2254.0,2558.0,2025-08-19 23:05:33,58.0,,-0.483553890326588,-2.78420166034115,-0.508746115072248,,3.1836189850716976,,
,5883.0,1122.0,2427.0,914.0,1906.0,2258.0,2550.0,2025-08-19 23:05:34,58.0,,-0.483777638394195,-2.784234781101,-0.509059341582005,,3.752376654781884,,
,5884.0,1122.0,2429.0,914.0,1907.0,2269.0,2558.0,2025-08-19 23:05:35,59.0,,-0.484040439795212,-2.78469578177748,-0.509389072380055,,4.291656654776545,,
,5883.0,1121.0,2429.0,915.0,1908.0,2264.0,2557.0,2025-08-19 23:05:36,59.0,,-0.484354384826676,-2.78483004550911,-0.510571452361025,,4.798832066563471,,
,5880.0,1121.0,2429.0,915.0,1906.0,2260.0,2559.0,2025-08-19 23:05:37,59.0,,-0.484612148471163,-2.78489145006205,-0.510557867717458,,5.271585174472413,,
,5881.0,1121.0,2430.0,914.0,1894.0,2265.0,2566.0,2025-08-19 23:05:38,60.0,,-0.484874733678318,-2.78474281650745,-0.510313787788034,,5.7073519060264255,,
,5880.0,1119.0,2427.0,913.0,1907.0,2270.0,2577.0,2025-08-19 23:05:39,60.0,,-0.485024770787411,-2.78506705734836,-0.510194789731128,,6.10285017238938,,
,5882.0,1122.0,2429.0,914.0,1908.0,2257.0,2561.0,2025-08-19 23:05:40,60.0,,-0.485098884898324,-2.78517009158808,-0.511016428490432,,6.453760034814982,,
,5878.0,1118.0,2429.0,912.0,1912.0,2256.0,2550.0,2025-08-19 23:05:41,59.0,,-0.484805210089811,-2.78507507085459,-0.510192511697166,,6.754605776200809,,
,5881.0,1120.0,2430.0,914.0,1908.0,2239.0,2548.0,2025-08-19 23:05:42,59.0,,-0.484769347402333,-2.78471992784019,-0.510690982048702,,6.998867880647277,,
,5880.0,1121.0,2429.0,915.0,1908.0,2237.0,2554.0,2025-08-19 23:05:43,59.0,,-0.484725575734776,-2.78503262728362,-0.510709400396058,,7.179327733086498,,
,5881.0,1121.0,2429.0,914.0,1905.0,2241.0,2548.0,2025-08-19 23:05:44,58.0,,-0.484717841715417,-2.78516723230885,-0.510702586742057,,7.288620527026835,,
,5877.0,1120.0,2428.0,911.0,1902.0,2247.0,2532.0,2025-08-19 23:05:45,58.0,,-0.484843742157502,-2.78504141710584,-0.510269418621331,,7.319944444227078,,
,5878.0,1120.0,2429.0,914.0,1905.0,2234.0,2554.0,2025-08-19 23:05:46,58.0,,-0.484855170492911,-2.78488341109594,-0.510631968527497,,7.267849981979534,,
,5882.0,1123.0,2430.0,917.0,1906.0,2221.0,2555.0,2025-08-19 23:05:47,58.0,,-0.484972696866011,-2.78503514232573,-0.510910389159748,,7.129016185356202,,
,5878.0,1120.0,2431.0,915.0,1903.0,2223.0,2558.0,2025-08-19 23:05:48,58.0,,-0.48490214065166,-2.78511527444596,-0.511091017951405,,6.902913789595852,,
,5880.0,1123.0,2429.0,915.0,1905.0,2259.0,2589.0,2025-08-19 23:05:49,59.0,,-0.485112035632448,-2.78558474777736,-0.511020198199823,,6.592261139296959,,
,5880.0,1123.0,2431.0,915.0,1911.0,2241.0,2579.0,2025-08-19 23:05:50,59.0,,-0.484989209720689,-2.78549956962233,-0.511488544439699,,6.203198314615979,,
,5882.0,1122.0,2431.0,915.0,1912.0,2227.0,2565.0,2025-08-19 23:05:51,59.0,,-0.485413629486691,-2.78551225232046,-0.511208764472656,,5.745137619862195,,
,5884.0,1122.0,2429.0,915.0,1909.0,2232.0,2571.0,2025-08-19 23:05:52,59.0,,-0.485287828607685,-2.78512456735283,-0.51096197284627,,5.230291220481115,,
,5884.0,1120.0,2428.0,914.0,1917.0,2250.0,2558.0,2025-08-19 23:05:53,59.0,,-0.485229591712541,-2.78550291550416,-0.510230355172887,,4.6729225151648235,,
,5886.0,1120.0,2432.0,915.0,1906.0,2227.0,2576.0,2025-08-19 23:05:54,59.0,,-0.485556838568487,-2.78542608001368,-0.510834706770274,,4.0884075071724615,,
,5885.0,1122.0,2433.0,915.0,1910.0,2234.0,2556.0,2025-08-19 23:05:55,59.0,,-0.485300921572824,-2.78545338141886,-0.510516642228085,,3.492217093877075,,
,5889.0,1124.0,2432.0,918.0,1911.0,2237.0,2565.0,2025-08-19 23:05:56,59.0,,-0.485220365278893,-2.78573171064058,-0.51079656902709,,2.8989359264350925,,
,5890.0,1122.0,2433.0,914.0,1901.0,2247.0,2562.0,2025-08-19 23:05:57,59.0,,-0.485463943877727,-2.7854175747237,-0.510477841433533,,2.3214192899229595,,
,5889.0,1124.0,2431.0,916.0,1912.0,2235.0,2547.0,,,,-0.485330676178405,-2.78521866016871,-0.511334351689537,,1.7701620961381284,,
,5892.0,1125.0,2435.0,915.0,1915.0,2246.0,2556.0,,,,-0.48541093152734,-2.78568657288361,-0.511128850507108,,1.2529211188011384,,
,5895.0,1126.0,2434.0,918.0,1918.0,2242.0,2560.0,,,,-0.485584082320828,-2.78559921324741,-0.510988307061795,,0.7745995183119053,,
,5897.0,1124.0,2435.0,918.0,1918.0,2244.0,2553.0,,,,-0.485495820916596,-2.78559705228896,-0.510690332863447,,0.3373755170601823,,
,5898.0,1123.0,2434.0,914.0,1910.0,2243.0,2567.0,,,,-0.485885011973764,-2.7856844715438,-0.512124924667732,,-0.058963571246107564,,
,5898.0,1125.0,2436.0,916.0,1911.0,2241.0,2544.0,,,,-0.486092281961061,-2.78571729567955,-0.511637826224056,,-0.416534754792737,,
,5903.0,1127.0,2435.0,916.0,1911.0,2246.0,2562.0,,,,-0.486132972365965,-2.78580856174867,-0.512076918033259,,-0.7387808267307437,,
,5904.0,1127.0,2438.0,919.0,1911.0,2252.0,2554.0,,,,-0.485969566655054,-2.78583207545804,-0.511702148059085,,-1.0298626679021938,,
,5904.0,1126.0,2437.0,918.0,1908.0,2260.0,2568.0,,,,-0.485965518991305,-2.78568678866783,-0.511016122617904,,-1.2940822849296378,,
,5906.0,1128.0,2438.0,919.0,1910.0,2266.0,2563.0,,,,-0.486335728985471,-2.78604442678653,-0.512181388849538,,-1.5353891026610975,,
,5905.0,1126.0,2438.0,918.0,1908.0,2238.0,2565.0,,,,-0.486259719223331,-2.78614464370537,-0.511585529597963,,-1.7570108085263214,,
,5910.0,1130.0,2441.0,919.0,1909.0,2239.0,2562.0,,,,-0.486850016205877,-2.78623880590896,-0.5117726154107,,-1.961235620443782,,
,5909.0,1125.0,2435.0,917.0,1911.0,2235.0,2549.0,,,,-0.486930378453781,-2.78639828545416,-0.512048043703139,,-2.14935590044914,,
,5911.0,1130.0,2442.0,919.0,1910.0,2242.0,2546.0,,,,-0.487078225006525,-2.78628284706422,-0.512577439535503,,-2.3217645244366194,,
,5915.0,1130.0,2441.0,920.0,1917.0,2250.0,2529.0,,,,-0.487309561785473,-2.78641688624627,-0.512243348493701,,-2.47817705082653,,
,5916.0,1129.0,2442.0,919.0,1914.0,2248.0,2541.0,,,,-0.487401870100552,-2.78683805592848,-0.511831208288264,,-2.6179373134986412,,
,5916.0,1129.0,2440.0,919.0,1915.0,2222.0,2553.0,,,,-0.487328898823708,-2.78640858337893,-0.51280412825475,,-2.7403550132991747,,
,5919.0,1132.0,2442.0,920.0,1913.0,2255.0,2550.0,,,,-0.487180394488506,-2.78678778453077,-0.513446546348934,,-2.8450236146822268,,
,5922.0,1131.0,2442.0,919.0,1909.0,2245.0,2557.0,,,,-0.487531545701735,-2.78666741010565,-0.513210586188102,,-2.9320751531491647,,
,5921.0,1132.0,2445.0,920.0,1908.0,2235.0,2570.0,,,,-0.487250082070957,-2.78634416701931,-0.5123241539041,,-3.0023425450064583,,
,5924.0,1130.0,2443.0,920.0,1910.0,2245.0,2569.0,,,,-0.4873258430558,-2.78646657453318,-0.513121785491789,,-3.0574157860866946,,
,5926.0,1129.0,2443.0,919.0,1908.0,2239.0,2547.0,,,,-0.487332681217208,-2.78664642412648,-0.512514451667172,,-3.0995929190726064,,
,5930.0,1132.0,2445.0,923.0,1910.0,2238.0,2558.0,,,,-0.487355532935275,-2.78675116494122,-0.513335961614762,,-3.131738169433116,,
,5927.0,1132.0,2448.0,923.0,1912.0,2236.0,2546.0,,,,-0.487475904256251,-2.78676075878142,-0.512383731959253,,-3.1570677590833096,,
,5932.0,1132.0,2446.0,920.0,1916.0,2251.0,2533.0,,,,-0.487341191628262,-2.78721331699324,-0.512544587589035,,-3.1788888804023947,,
,5931.0,1132.0,2442.0,919.0,1911.0,2248.0,2544.0,,,,-0.487379604140757,-2.78656418192821,-0.51292727061583,,-3.2003196358020456,,
,5934.0,1133.0,2447.0,923.0,1903.0,2260.0,2548.0,,,,-0.487458132888047,-2.78679618339461,-0.513522564566471,,-3.224017868169115,,
,5938.0,1133.0,2447.0,922.0,1907.0,2256.0,2556.0,,,,-0.487834046976421,-2.78695702100033,-0.512439508920963,,-3.2519451755538995,,
,5938.0,1132.0,2447.0,920.0,1911.0,2245.0,2550.0,,,,-0.487826068084626,-2.78707250490093,-0.513012868239358,,-3.2851894781043223,,
,5940.0,1135.0,2449.0,920.0,1908.0,2249.0,2548.0,,,,-0.487715399380191,-2.78697010878315,-0.512745174180875,,-3.323865544860082,,
,5942.0,1135.0,2448.0,923.0,1908.0,2247.0,2566.0,,,,-0.487792240493826,-2.78680378597933,-0.513625782933675,,-3.3671077511609657,,
,5946.0,1137.0,2451.0,922.0,1907.0,2243.0,2565.0,,,,-0.487759176315052,-2.78729277105869,-0.512756621799115,,-3.4131625563665104,,
,5947.0,1138.0,2452.0,923.0,1909.0,2224.0,2582.0,,,,-0.487719095214796,-2.78707512744584,-0.512845564542441,,-3.459579290423158,,
,5947.0,1138.0,2451.0,921.0,1908.0,2246.0,2568.0,,,,-0.487795909683379,-2.78668960738888,-0.512819879467838,,-3.5034867412808026,,
,5949.0,1137.0,2451.0,925.0,1913.0,2240.0,2561.0,,,,-0.487665525808523,-2.7868964546501,-0.512995495310373,,-3.5419305564524075,,
,5952.0,1140.0,2456.0,924.0,1914.0,2250.0,2556.0,,,,-0.487879205243192,-2.78695319035499,-0.512653849310816,,-3.572234760199875,,
,5955.0,1138.0,2452.0,926.0,1914.0,2244.0,2543.0,,,,-0.48778385729107,-2.78670005757984,-0.513597434527035,,-3.5923429637855753,,
,5953.0,1138.0,2454.0,924.0,1911.0,2265.0,2555.0,,,,-0.487947837662652,-2.7868155510067,-0.512971382821865,,-3.60109392430996,,
,5960.0,1139.0,2458.0,927.0,1910.0,2271.0,2558.0,,,,-0.487935610225977,-2.78674039411955,-0.512340369326178,,-3.598392676711693,,
,5959.0,1140.0,2457.0,926.0,1915.0,2246.0,2559.0,,,,-0.488204696152799,-2.78669413575121,-0.512335766428776,,-3.5852508167917527,,
,5963.0,1142.0,2455.0,925.0,1910.0,2228.0,2552.0,,,,-0.487881068281283,-2.7868793489541,-0.512388803002045,,-3.563684923984076,,
,5962.0,1141.0,2456.0,926.0,1900.0,2221.0,2558.0,,,,-0.487720297007529,-2.78679904326412,-0.512702465357943,,-3.5364783455662345,,
,5967.0,1143.0,2457.0,928.0,1904.0,2221.0,2548.0,,,,-0.487705825272451,-2.78666546114032,-0.512058671424719,,-3.5068272066839072,,
,5967.0,1144.0,2460.0,925.0,1901.0,2228.0,2537.0,,,,-0.487638009966038,-2.78682836116712,-0.511840702750076,,-3.477905310765078,,
,5969.0,1141.0,2460.0,928.0,1902.0,2238.0,2543.0,,,,-0.487716173844973,-2.78676752152784,-0.512748361377982,,-3.4523929648348166,,
,5972.0,1141.0,2462.0,924.0,1908.0,2249.0,2545.0,,,,-0.487472438764244,-2.78673674312777,-0.512737483386121,,-3.4320201506058776,,
,5976.0,1144.0,2463.0,929.0,1901.0,2262.0,2527.0,,,,-0.487605508575605,-2.78660202061775,-0.512271146053595,,-3.4171741376971196,,
,5978.0,1145.0,2464.0,929.0,1903.0,2265.0,2556.0,,,,-0.487471243077028,-2.78675407895891,-0.512087213477531,,-3.4066160469425273,,
,5982.0,1143.0,2463.0,927.0,1908.0,2263.0,2558.0,,,,-0.487630511532987,-2.78657928828086,-0.512165377372962,,-3.3973412505239997,,
,5978.0,1145.0,2463.0,928.0,1907.0,2243.0,2548.0,,,,-0.48738472645151,-2.78663859687036,-0.512351079762101,,-3.384606141680766,,
,5984.0,1145.0,2463.0,928.0,1907.0,2247.0,2541.0,,,,-0.487274379109841,-2.78679833995301,-0.512057470626096,,-3.3621296318707214,,
,5986.0,1146.0,2466.0,930.0,1911.0,2242.0,2558.0,,,,-0.487357896395829,-2.78660364142126,-0.512140588671672,,-3.3224622873178986,,
,5990.0,1150.0,2465.0,929.0,1909.0,2236.0,2562.0,,,,-0.487546761517093,-2.78661845954732,-0.512466693871194,,-3.2574998105290223,,
,5989.0,1146.0,2463.0,928.0,1914.0,2224.0,2553.0,,,,-0.487410338384635,-2.78661659440161,-0.511832499186773,,-3.159101428646774,,
,5992.0,1147.0,2464.0,930.0,1907.0,2241.0,2557.0,,,,-0.487867746752202,-2.78640371257991,-0.512645082515781,,-3.0197591338056635,,
,5994.0,1148.0,2466.0,928.0,1904.0,2233.0,2558.0,,,,-0.487353795526443,-2.78624473661016,-0.512177697753356,,-2.8332530415299955,,
,5994.0,1148.0,2469.0,932.0,1905.0,2244.0,2550.0,,,,-0.487436226666102,-2.78635160673091,-0.512459453131014,,-2.5952245682345483,,
,5991.0,1146.0,2467.0,928.0,1904.0,2245.0,2561.0,,,,-0.487455126503243,-2.78633437213266,-0.512035203891281,,-2.303605342734146,,
,5989.0,1146.0,2467.0,929.0,1910.0,2267.0,2554.0,,,,-0.487769824647892,-2.7865742448062,-0.512776366307174,,-1.958856022356576,,
,5986.0,1147.0,2466.0,930.0,1902.0,2274.0,2552.0,,,,-0.487609269483277,-2.78666766650769,-0.512307165177993,,-1.5639924788248702,,
,5977.0,1145.0,2462.0,925.0,1907.0,2277.0,2551.0,,,,-0.487742665633254,-2.7866084916387,-0.512460654215449,,-1.1244020493154014,,
,5971.0,1142.0,2462.0,928.0,1914.0,2258.0,2541.0,,,,-0.487537152728391,-2.78663267530419,-0.512245349435133,,-0.6474748487615423,,
,5964.0,1139.0,2459.0,922.0,1912.0,2277.0,2552.0,,,,-0.487156519152897,-2.78652721982793,-0.513271641152614,,-0.14209159119108822,,
,5961.0,1139.0,2459.0,927.0,1904.0,2269.0,2543.0,,,,-0.48710499223558,-2.78624979135019,-0.512608580250178,,0.38198082887466944,,
,5955.0,1139.0,2454.0,925.0,1905.0,2263.0,2554.0,,,,-0.487073328401591,-2.78640318908399,-0.511896910554086,,0.9147310456898754,,
,5949.0,1137.0,2454.0,923.0,1907.0,2243.0,2535.0,,,,-0.486968866054308,-2.78640381984346,-0.512578523254497,,1.4465285537113133,,
,5942.0,1135.0,2451.0,923.0,1908.0,2222.0,2539.0,,,,-0.487058738218031,-2.78630574613135,-0.512545276683278,,1.968683986528079,,
,5935.0,1135.0,2448.0,922.0,1912.0,2214.0,2523.0,,,,-0.486875314286834,-2.78638505188817,-0.512031178295391,,2.4739032436908186,,
,5928.0,1134.0,2446.0,923.0,1912.0,2219.0,2521.0,,,,-0.486914529043059,-2.78603021248695,-0.512304258522633,,2.956603640429352,,
,5924.0,1132.0,2446.0,922.0,1907.0,2223.0,2527.0,,,,-0.486774750420987,-2.78633817651699,-0.512148570112383,,3.413070536824348,,
,5920.0,1130.0,2443.0,918.0,1902.0,2244.0,2527.0,,,,-0.487304117579505,-2.78636648603272,-0.51232511238398,,3.8414436753764862,,
,5915.0,1131.0,2442.0,919.0,1900.0,2260.0,2539.0,,,,-0.486994519569242,-2.78634776297609,-0.512361480698657,,4.241533542462036,,
,5914.0,1128.0,2442.0,918.0,1902.0,2258.0,2551.0,,,,-0.487572405698926,-2.78650580867078,-0.51243269624776,,4.614479672087192,,
,5909.0,1127.0,2440.0,918.0,1905.0,2257.0,2561.0,,,,-0.487213305638302,-2.78662148846894,-0.51239311670737,,4.962275162753537,,
,5904.0,1127.0,2439.0,916.0,1904.0,2252.0,2571.0,,,,-0.487259518203236,-2.78643277230613,-0.511638119839088,,5.287194587910442,,
,5902.0,1127.0,2438.0,919.0,1901.0,2259.0,2566.0,,,,-0.487225260699446,-2.7864971664078,-0.511920797153034,,5.591175119543836,,
2025-08-19 23:03:00,5899.0,1128.0,2440.0,917.0,1901.0,2262.0,2575.0,,,2025/08/19 11:03:00 PM,-0.48731191114146,-2.78674555056792,-0.512421837332835,,5.875211459977471,,
,5899.0,1128.0,2437.0,917.0,1888.0,2261.0,2553.0,,,,-0.487423195018138,-2.78650119632641,-0.511795955616631,,6.1388316280460025,,
,5894.0,1125.0,2435.0,914.0,1900.0,2268.0,2560.0,,,,-0.487158287081364,-2.78635817247928,-0.512069423752208,,6.379720002714881,,
,5893.0,1126.0,2438.0,916.0,1903.0,2277.0,2554.0,,,,-0.48769608907723,-2.78644149873399,-0.512432444164238,,6.59354456407575,,
,5893.0,1123.0,2435.0,914.0,1901.0,2259.0,2560.0,,,,-0.487923850122151,-2.78655996884653,-0.512706170803733,,6.774027260919521,,
,5888.0,1121.0,2433.0,916.0,1899.0,2265.0,2555.0,,,,-0.487641915216253,-2.78656925109709,-0.512071586995641,,6.913271820454276,,
,5889.0,1124.0,2432.0,912.0,1901.0,2252.0,2561.0,,,,-0.487919137513906,-2.78669805533628,-0.512178391949387,,7.002334801412181,,
,5885.0,1122.0,2433.0,916.0,1908.0,2241.0,2551.0,,,,-0.487588292537533,-2.78653912814283,-0.512407711299084,,7.031996264656615,,
,5888.0,1123.0,2433.0,914.0,1900.0,2263.0,2556.0,,,,-0.487484766366652,-2.78648306198779,-0.512193781516681,,6.99365944332669,,
,5882.0,1122.0,2432.0,914.0,1905.0,2254.0,2567.0,,,,-0.486987145980413,-2.78628810240498,-0.511626719228561,,6.880288039233634,,
,5880.0,1121.0,2430.0,912.0,1906.0,2264.0,2562.0,,,,-0.487225000474335,-2.7862728679444,-0.511930554745099,,6.687279123190783,,
,5882.0,1122.0,2434.0,914.0,1904.0,2256.0,2562.0,,,,-0.486479974971986,-2.78607645013762,-0.511627048094751,,6.4131720475810035,,
,5878.0,1122.0,2429.0,913.0,1904.0,2267.0,2553.0,,,,-0.486364972539793,-2.78585623413092,-0.511475735704305,,6.060110204052064,,
,5879.0,1123.0,2432.0,915.0,1904.0,2275.0,2549.0,,,,-0.486075909693866,-2.78591160405812,-0.510988804816766,,5.634000914116186,,
,5877.0,1120.0,2429.0,913.0,1900.0,2237.0,2541.0,,,,-0.486012586083804,-2.7856816873934,-0.512351664829631,,5.144354379662878,,
,5875.0,1121.0,2432.0,915.0,1907.0,2244.0,2547.0,,,,-0.486411989211802,-2.78581159986943,-0.512297803917442,,4.603818871121667,,
,5880.0,1120.0,2431.0,914.0,1896.0,2239.0,2554.0,,,,-0.486710207831781,-2.78607656522848,-0.512007666424516,,4.027460054385858,,
,5874.0,1123.0,2432.0,914.0,1904.0,2251.0,2561.0,,,,-0.486629061580486,-2.78576477968078,-0.511851046006817,,3.431853958055562,,
,5873.0,1121.0,2428.0,911.0,1905.0,2247.0,2560.0,,,,-0.486504590651783,-2.78611071882372,-0.512184134960002,,2.8340751541201588,,
,5875.0,1120.0,2429.0,912.0,1912.0,2245.0,2551.0,,,,-0.48675120441554,-2.78609500087899,-0.512197089700982,,2.250665834435319,,
,5875.0,1122.0,2432.0,912.0,1907.0,2271.0,2540.0,,,,-0.486836326581777,-2.78620937650485,-0.512531379347964,,1.696669158631197,,
,5873.0,1119.0,2426.0,913.0,1902.0,2270.0,2546.0,,,,-0.48739751287735,-2.78634755491585,-0.512951188695584,,1.184801861865101,,
,5873.0,1119.0,2427.0,910.0,1905.0,2243.0,2541.0,,,,-0.487539007976545,-2.78667331941119,-0.512541106793038,,0.724826264653644,,
,5873.0,1118.0,2427.0,915.0,1908.0,2267.0,2556.0,,,,-0.487928705493404,-2.78694909540249,-0.513358505940822,,0.32316107049396203,,
,5873.0,1121.0,2430.0,914.0,1905.0,2265.0,2556.0,,,,-0.488276659221272,-2.78707221077781,-0.514504490276833,,-0.01725380650744755,,
,5873.0,1119.0,2427.0,911.0,1907.0,2255.0,2554.0,,,,-0.488520991676723,-2.78736282321543,-0.514548905253188,,-0.2968468609267447,,
,5871.0,1118.0,2427.0,913.0,1903.0,2283.0,2547.0,,,,-0.489094777894669,-2.78757432180521,-0.515523300079291,,-0.519087427160726,,
,5868.0,1120.0,2425.0,912.0,1904.0,2261.0,2569.0,,,,-0.48926069379181,-2.78792912189063,-0.515319378240186,,-0.6899835281235909,,
,5870.0,1120.0,2428.0,915.0,1896.0,2241.0,2566.0,,,,-0.489843275575406,-2.78801813475516,-0.515945693820422,,-0.8174561221739612,,
,5869.0,1119.0,2428.0,912.0,1886.0,2235.0,2555.0,,,,-0.490030466743508,-2.78823810187239,-0.516513503189485,,-0.9106438809285847,,
,5867.0,1119.0,2426.0,912.0,1894.0,2241.0,2551.0,,,,-0.490157100896598,-2.78826550789969,-0.516261660613986,,-0.9791914107409035,,
,5865.0,1118.0,2423.0,910.0,1899.0,2259.0,2551.0,,,,-0.49040086579898,-2.78840313368991,-0.5165009714536,,-1.0325691145613445,,
,5865.0,1118.0,2427.0,910.0,1900.0,2261.0,2541.0,,,,-0.490726190960868,-2.78831956702639,-0.516453415987374,,-1.0794656515328287,,
,5868.0,1119.0,2429.0,912.0,1901.0,2255.0,2541.0,,,,-0.49062841576881,-2.78862229026447,-0.516383290651295,,-1.1272852784700487,,
,5865.0,1119.0,2428.0,913.0,1911.0,2273.0,2544.0,,,,-0.490456011808472,-2.78862957820766,-0.516513822886127,,-1.1817733243863655,,
,5863.0,1118.0,2425.0,912.0,1897.0,2267.0,2557.0,,,,-0.490424220477875,-2.78860793996538,-0.516408021483299,,-1.2467844631176903,,
,5867.0,1120.0,2428.0,912.0,1893.0,2280.0,2541.0,,,,-0.49071097318527,-2.78859236025214,-0.516152242565529,,-1.3242005859440533,,
,5865.0,1118.0,2424.0,914.0,1895.0,2287.0,2545.0,,,,-0.490588383209711,-2.78848568774484,-0.516379700302632,,-1.4139975761104973,,
,5865.0,1117.0,2425.0,912.0,1906.0,2289.0,2557.0,,,,-0.49057413766233,-2.78861128521923,-0.516350487092885,,-1.5144523371257061,,
,5865.0,1120.0,2425.0,912.0,1904.0,2274.0,2554.0,,,,-0.490978700770371,-2.78855534638663,-0.517019176102664,,-1.622472253345904,,
,5866.0,1121.0,2429.0,913.0,1901.0,2260.0,2565.0,,,,-0.491109283755814,-2.78883311708759,-0.517484950049067,,-1.7340188643537648,,
,5866.0,1121.0,2429.0,912.0,1896.0,2259.0,2554.0,,,,-0.491010376072636,-2.78877469820037,-0.516505792272738,,-1.8445873702118263,,
,5869.0,1121.0,2428.0,912.0,1906.0,2256.0,2554.0,,,,-0.491073106557431,-2.78865255541142,-0.51643293566406,,-1.9496964979552351,,
,5868.0,1120.0,2427.0,911.0,1904.0,2272.0,2568.0,,,,-0.490981934351337,-2.78872554530171,-0.516762463721122,,-2.045342134316154,,
,5868.0,1120.0,2426.0,913.0,1908.0,2270.0,2552.0,,,,-0.491103750352638,-2.78855644288676,-0.517410287029712,,-2.128373985780596,,
,5868.0,1120.0,2426.0,913.0,1906.0,2268.0,2549.0,,,,-0.491108106981584,-2.78890051241276,-0.516527808927127,,-2.196765736370037,,
,5871.0,1120.0,2429.0,913.0,1909.0,2256.0,2542.0,,,,-0.491406508413758,-2.78865804258307,-0.516857832562625,,-2.2497625631582734,,
,5870.0,1118.0,2428.0,911.0,1904.0,2238.0,2532.0,,,,-0.491410964425599,-2.78890544227557,-0.516444246685974,,-2.2879026666763496,,
,5871.0,1120.0,2427.0,914.0,1905.0,2243.0,2552.0,,,,-0.491327709283095,-2.78899946945151,-0.516890678957309,,-2.312920380482144,,
,5873.0,1121.0,2428.0,913.0,1908.0,2247.0,2564.0,,,,-0.491396397969052,-2.78892564288701,-0.516579426920447,,-2.327547235637116,,
,5875.0,1121.0,2431.0,914.0,1906.0,2266.0,2556.0,,,,-0.491877465283755,-2.78893202197093,-0.517488094000118,,-2.3352340134394733,,
,5873.0,1121.0,2428.0,911.0,1909.0,2268.0,2562.0,,,,-0.491936268629816,-2.78919057293477,-0.516790147342263,,-2.339821026256694,,
,5877.0,1121.0,2429.0,912.0,1906.0,2269.0,2554.0,,,,-0.492154544512589,-2.7890731520596,-0.517489600685632,,-2.345185429652282,,
,5879.0,1123.0,2432.0,916.0,1897.0,2267.0,2554.0,,,,-0.492114815979521,-2.78917145085758,-0.516721500268623,,-2.35489363501016,,
,5877.0,1123.0,2432.0,912.0,1892.0,2284.0,2553.0,,,,-0.492304680575157,-2.78970275829706,-0.517019446203019,,-2.3718846958459268,,
,5881.0,1121.0,2428.0,912.0,1897.0,2277.0,2556.0,,,,-0.491832189049944,-2.78943557434428,-0.517888374857852,,-2.398207735618607,,
,5880.0,1122.0,2430.0,914.0,1906.0,2256.0,2557.0,,,,-0.491764401044021,-2.78935738634995,-0.516839584445413,,-2.4348334815674733,,
,5885.0,1123.0,2432.0,917.0,1904.0,2258.0,2546.0,,,,-0.491699749518089,-2.78939008836819,-0.517204485533791,,-2.4815565706639675,,
,5881.0,1123.0,2433.0,914.0,1904.0,2252.0,2542.0,,,,-0.491881673631882,-2.789407837494,-0.517235756184696,,-2.5370008238258523,,
,5883.0,1124.0,2432.0,912.0,1906.0,2251.0,2556.0,,,,-0.491534931315414,-2.78925585078786,-0.517191765519854,,-2.5987333288163232,,
,5887.0,1124.0,2435.0,916.0,1901.0,2271.0,2543.0,,,,-0.492065789203282,-2.78927813431517,-0.517157103720445,,-2.6634844005317366,,
,5889.0,1126.0,2435.0,916.0,1903.0,2292.0,2544.0,,,,-0.491814629363624,-2.78918450294015,-0.516831570274399,,-2.727459455210165,,
,5890.0,1125.0,2435.0,915.0,1900.0,2282.0,2547.0,,,,-0.492046437499975,-2.78920629413051,-0.51698758034467,,-2.7867167760306697,,
,5890.0,1124.0,2435.0,913.0,1905.0,2278.0,2555.0,,,,-0.492062132011313,-2.7891626824993,-0.516956926824282,,-2.8375745373439596,,
,5892.0,1127.0,2436.0,915.0,1904.0,2271.0,2564.0,,,,-0.491788573916202,-2.78922172217248,-0.516893765771336,,-2.8770043170138724,,
,5894.0,1126.0,2436.0,916.0,1901.0,2267.0,2553.0,,,,-0.491837654886338,-2.78938913943763,-0.51794153200135,,-2.9029686273158424,,
,5893.0,1126.0,2438.0,915.0,1904.0,2273.0,2543.0,,,,-0.492159632810912,-2.78945903515561,-0.517336188830486,,-2.914666428341899,,
,5895.0,1126.0,2435.0,915.0,1898.0,2256.0,2552.0,,,,-0.492233372665781,-2.78929671722718,-0.517258575568095,,-2.9126609856258563,,
,5896.0,1128.0,2437.0,916.0,1903.0,2264.0,2561.0,,,,-0.492340858312553,-2.78962694641784,-0.517535470103528,,-2.8988763046725463,,
,5900.0,1128.0,2437.0,916.0,1898.0,2266.0,2567.0,,,,-0.49247027130155,-2.78933826992641,-0.516720516162048,,-2.8764600989182805,,
,5902.0,1127.0,2439.0,918.0,1899.0,2266.0,2557.0,,,,-0.49249714482258,-2.78974226253919,-0.517147709469777,,-2.8495221580472645,,
,5901.0,1128.0,2440.0,918.0,1909.0,2251.0,2551.0,,,,-0.492695066861869,-2.78957948805574,-0.517304550942402,,-2.8227667345350187,,
,5903.0,1129.0,2439.0,917.0,1910.0,2274.0,2541.0,,,,-0.492815224809551,-2.78960803386782,-0.517721807325651,,-2.80104569231106,,
,5906.0,1131.0,2440.0,918.0,1909.0,2244.0,2565.0,,,,-0.492641789959323,-2.78962305754378,-0.517538798232886,,-2.788865264195835,,
,5906.0,1130.0,2442.0,917.0,1907.0,2230.0,2564.0,,,,-0.492772362822747,-2.78951231235212,-0.51756234673141,,-2.789883365891747,,
,5905.0,1131.0,2442.0,918.0,1895.0,2250.0,2534.0,,,,-0.492650977983285,-2.78950347030428,-0.517335219095167,,-2.8064368715498595,,
,5908.0,1128.0,2441.0,917.0,1898.0,2282.0,2561.0,,,,-0.492841249480397,-2.78956239696989,-0.517647282304493,,-2.8391392917674296,,
,5910.0,1130.0,2442.0,920.0,1898.0,2265.0,2569.0,,,,-0.493054809729702,-2.78950934232839,-0.517560531308019,,-2.8865886047975513,,
,5911.0,1129.0,2443.0,919.0,1902.0,2277.0,2563.0,,,,-0.492927467393796,-2.78946702849464,-0.517321325857239,,-2.945221712424503,,
,5914.0,1133.0,2442.0,917.0,1907.0,2263.0,2551.0,,,,-0.493421424241658,-2.78951687561795,-0.517576595286504,,-3.0093449953796356,,
,5916.0,1131.0,2443.0,918.0,1902.0,2247.0,2550.0,,,,-0.493031789367545,-2.78954738209512,-0.516856683148695,,-3.07135880181838,,
,5919.0,1132.0,2445.0,918.0,1895.0,2253.0,2553.0,,,,-0.492980689786318,-2.78966709870551,-0.516794772305858,,-3.1221771721287483,,
,5922.0,1133.0,2447.0,921.0,1904.0,2257.0,2566.0,,,,-0.49319581076154,-2.78935222730993,-0.517413447537714,,-3.1518235444363905,,
,5920.0,1133.0,2450.0,919.0,1908.0,2253.0,2555.0,,,,-0.493225760592949,-2.78960848311027,-0.51703777197369,,-3.150160899512787,,
,5925.0,1133.0,2447.0,922.0,1902.0,2260.0,2551.0,,,,-0.492739003291781,-2.7895771492098,-0.51724134353785,,-3.1076945160117373,,
,5926.0,1135.0,2448.0,921.0,1893.0,2260.0,2553.0,,,,-0.49285154780192,-2.78949274525215,-0.517328933728209,,-3.016371451847986,,
,5929.0,1136.0,2448.0,923.0,1893.0,2263.0,2552.0,,,,-0.492810058637805,-2.78933828182279,-0.516874061231818,,-2.8702960989517234,,
,5928.0,1136.0,2448.0,923.0,1891.0,2275.0,2560.0,,,,-0.492535869962741,-2.78919101376841,-0.516960508047835,,-2.6662863640658907,,
,5931.0,1134.0,2449.0,920.0,1890.0,2298.0,2577.0,,,,-0.492361672275869,-2.78911642651049,-0.517370298428536,,-2.404208959494116,,
,5932.0,1136.0,2449.0,919.0,1894.0,2276.0,2554.0,,,,-0.492134054236219,-2.7892603638515,-0.516411456626497,,-2.0870531528767122,,
,5937.0,1138.0,2452.0,923.0,1894.0,2285.0,2573.0,,,,-0.492019928816107,-2.78913916127675,-0.516929109315019,,-1.7207284394027522,,
,5939.0,1139.0,2453.0,924.0,1898.0,2276.0,2570.0,,,,-0.491858581101658,-2.78925901515058,-0.516921393312352,,-1.3136007612693748,,
,5938.0,1137.0,2451.0,922.0,1906.0,2264.0,2556.0,,,,-0.491925477035306,-2.78936407896907,-0.516782301342039,,-0.8758106833319934,,
,5941.0,1137.0,2454.0,922.0,1893.0,2285.0,2552.0,,,,-0.491822834678541,-2.789060733396,-0.515953382548808,,-0.41844111509700704,,
,5945.0,1139.0,2455.0,924.0,1896.0,2288.0,2554.0,,,,-0.491948332754817,-2.78907953019235,-0.517026251913622,,0.04738191337002772,,
,5946.0,1141.0,2456.0,924.0,1891.0,2273.0,2553.0,,,,-0.491819163801019,-2.78916372316435,-0.516927361456391,,0.511366138029405,,
,5948.0,1139.0,2454.0,923.0,1890.0,2286.0,2560.0,,,,-0.492178686117543,-2.78907429587231,-0.516339289607246,,0.9648225099706434,,
,5951.0,1139.0,2457.0,924.0,1903.0,2277.0,2569.0,,,,-0.491791970379905,-2.78922637990711,-0.516618676155991,,1.4012546001756694,,
,5952.0,1143.0,2457.0,925.0,1907.0,2268.0,2556.0,,,,-0.491893693143491,-2.78945641384369,-0.517290574509983,,1.8167138909235998,,
,5956.0,1142.0,2457.0,924.0,1908.0,2260.0,2561.0,,,,-0.492595789287884,-2.78905990911602,-0.516282723443499,,2.209889255096599,,
,5957.0,1142.0,2456.0,922.0,1901.0,2264.0,2549.0,,,,-0.491899917200408,-2.78918677420381,-0.516064172699903,,2.581923331741285,,
,5960.0,1143.0,2458.0,926.0,1902.0,2264.0,2559.0,,,,-0.491860098860245,-2.78890450898051,-0.51619517902795,,2.935973578718069,,
,5963.0,1142.0,2459.0,926.0,1901.0,2258.0,2551.0,,,,-0.491704061231422,-2.7889690505411,-0.516731189833396,,3.2765601872997587,,
,5965.0,1143.0,2463.0,926.0,1894.0,2255.0,2550.0,,,,-0.491765702651813,-2.78908863796584,-0.516467532665648,,3.6087648775898353,,
,5968.0,1145.0,2462.0,927.0,1894.0,2283.0,2546.0,,,,-0.492065075677503,-2.78902373401287,-0.516172159880815,,3.9373610654446676,,
,5971.0,1145.0,2463.0,924.0,1896.0,2284.0,2565.0,,,,-0.49165858580846,-2.78895079154642,-0.516142264367689,,4.265963903929806,,
,5973.0,1146.0,2463.0,927.0,1900.0,2289.0,2560.0,,,,-0.491860775189237,-2.78898338067584,-0.516164831063994,,4.596286395573544,,
,5977.0,1145.0,2463.0,928.0,1907.0,2275.0,2550.0,,,,-0.491755312485983,-2.78895991893922,-0.516630062012466,,4.9275758932612295,,
,5976.0,1147.0,2465.0,926.0,1902.0,2264.0,2550.0,,,,-0.491846183360726,-2.78895964379245,-0.516775069551295,,5.256286924684512,,
,5980.0,1145.0,2462.0,929.0,1903.0,2257.0,2552.0,,,,-0.491857465767805,-2.78902261219951,-0.516380467047756,,5.576024874101166,,
,5982.0,1148.0,2468.0,931.0,1905.0,2254.0,2552.0,,,,-0.492362243178258,-2.78924841224251,-0.516575040555506,,5.877772806797896,,
,5986.0,1148.0,2467.0,930.0,1902.0,2267.0,2558.0,,,,-0.492299938280101,-2.78887453512559,-0.516719020278196,,6.150391301312606,,
,5985.0,1148.0,2466.0,929.0,1900.0,2284.0,2571.0,,,,-0.492373165887519,-2.78902002930032,-0.516141779185298,,6.3813587550106226,,
,5984.0,1147.0,2467.0,929.0,1897.0,2274.0,2554.0,,,,-0.492399957746038,-2.78887067091841,-0.516289985203457,,6.557697997597779,,
,5985.0,1146.0,2467.0,929.0,1904.0,2261.0,2565.0,,,,-0.491734988730749,-2.788841864983,-0.516630557758933,,6.667015811248427,,
,5981.0,1146.0,2466.0,927.0,1907.0,2265.0,2572.0,,,,-0.491682926390438,-2.78897833936853,-0.515983928755762,,6.698567221218977,,
,5974.0,1146.0,2465.0,928.0,1894.0,2271.0,2568.0,,,,-0.491763323055343,-2.78898123412765,-0.516566302015897,,6.644248167170441,,
,5969.0,1146.0,2464.0,927.0,1903.0,2256.0,2549.0,,,,-0.491456617471642,-2.78909994078128,-0.515682715078593,,6.499419991353189,,
,5966.0,1141.0,2460.0,925.0,1893.0,2274.0,2547.0,,,,-0.491301926321971,-2.78873409094566,-0.515591553576193,,6.263478411088073,,
,5960.0,1140.0,2458.0,927.0,1893.0,2259.0,2546.0,,,,-0.49136864866116,-2.7888407804458,-0.515394595038468,,5.94009928603543,,
,5951.0,1141.0,2458.0,923.0,1890.0,2281.0,2558.0,,,,-0.491344265142589,-2.78882440469606,-0.516011801898342,,5.537123580120804,,
,5944.0,1138.0,2453.0,921.0,1889.0,2298.0,2553.0,,,,-0.49147284552512,-2.78902550360412,-0.51535805122393,,5.066082420567142,,
,5938.0,1139.0,2451.0,921.0,1900.0,2278.0,2569.0,,,,-0.49164179860125,-2.78895572945559,-0.515985548033459,,4.541405217619885,,
,5934.0,1136.0,2452.0,921.0,1904.0,2288.0,2548.0,,,,-0.491228807148319,-2.78885970626091,-0.515209873264163,,3.979392237369238,,
,5923.0,1134.0,2447.0,920.0,1903.0,2270.0,2525.0,,,,-0.491457018117995,-2.78895728781271,-0.515197764475153,,3.397060329892358,,
,5919.0,1133.0,2445.0,918.0,1897.0,2257.0,2506.0,,,,-0.491638783929765,-2.78888687563627,-0.515314247980972,,2.8109816787065673,,
,5921.0,1130.0,2443.0,919.0,1906.0,2252.0,2519.0,,,,-0.491514778775561,-2.78903389732085,-0.515662443798485,,2.2362296005410727,,
,5913.0,1129.0,2442.0,919.0,1909.0,2248.0,2522.0,,,,-0.491308304834878,-2.78868088842809,-0.51449527210588,,1.685525487498191,,
2025-08-19 23:03:01,5907.0,1129.0,2442.0,919.0,1911.0,2265.0,2533.0,,,2025/08/19 11:03:01 PM,-0.491018884701394,-2.78877173026973,-0.515180537589184,,1.1686517890020411,,
,5905.0,1127.0,2439.0,917.0,1903.0,2263.0,2544.0,,,,-0.491166350339132,-2.78871051113059,-0.514950263271745,,0.6921625656957696,,
,5902.0,1128.0,2440.0,916.0,1902.0,2277.0,2533.0,,,,-0.491124310372401,-2.78851970369509,-0.5149241404287,,0.25939012003521883,,
,5898.0,1128.0,2440.0,916.0,1886.0,2271.0,2544.0,,,,-0.490963701013554,-2.78846201060014,-0.515179881418885,,-0.1292827682644075,,
,5896.0,1127.0,2439.0,914.0,1885.0,2262.0,2559.0,,,,-0.491102827133648,-2.78834603471299,-0.515122777131247,,-0.4759377212831578,,
,5892.0,1125.0,2435.0,914.0,1879.0,2268.0,2565.0,,,,-0.491069523371066,-2.78866181179007,-0.515306398898581,,-0.7844897029007024,,
,5893.0,1125.0,2436.0,916.0,1892.0,2301.0,2572.0,,,,-0.491243143244413,-2.78844166355339,-0.514106731428156,,-1.0599832258613322,,
,5889.0,1127.0,2438.0,914.0,1898.0,2293.0,2573.0,,,,-0.491067588796561,-2.78847233779959,-0.515010768097325,,-1.3078881951987706,,
,5886.0,1124.0,2435.0,915.0,1903.0,2298.0,2565.0,,,,-0.49098719811933,-2.78839640415169,-0.5150427630067,,-1.5334610083436317,,
,5886.0,1123.0,2435.0,913.0,1891.0,2279.0,2559.0,,,,-0.491541884835548,-2.7886927256838,-0.515569337773356,,-1.7412251064871647,,
,5886.0,1125.0,2432.0,914.0,1893.0,2281.0,2560.0,,,,-0.491257494119746,-2.78885688265623,-0.515080232197251,,-1.934610185850947,,
,5884.0,1125.0,2433.0,916.0,1898.0,2267.0,2557.0,,,,-0.491375411442713,-2.78888243911598,-0.515092812613377,,-2.1157716559959905,,
,5881.0,1123.0,2437.0,914.0,1900.0,2272.0,2547.0,,,,-0.491179233558781,-2.78862136669334,-0.514941796962855,,-2.285592579693106,,
,5878.0,1122.0,2432.0,912.0,1897.0,2269.0,2536.0,,,,-0.491543682544208,-2.78861094806368,-0.514991061245702,,-2.443850590782518,,
,5880.0,1121.0,2430.0,914.0,1895.0,2269.0,2541.0,,,,-0.491843362233021,-2.78836007924805,-0.514794486528649,,-2.5895144441306988,,
,5880.0,1124.0,2432.0,913.0,1895.0,2284.0,2556.0,,,,-0.491471903677885,-2.78851490034842,-0.514908091368008,,-2.7211219649018896,,
,5878.0,1122.0,2432.0,911.0,1893.0,2274.0,2557.0,,,,-0.491192082209162,-2.78855573832824,-0.514795608229986,,-2.837185810892041,,
,5875.0,1122.0,2429.0,912.0,1895.0,2264.0,2539.0,,,,-0.491307710686874,-2.78822638272033,-0.514747967534965,,-2.936576178549306,,
,5876.0,1123.0,2432.0,912.0,1896.0,2241.0,2543.0,,,,-0.491101286778122,-2.78814548553874,-0.513875346890307,,-3.018838492752375,,
,5874.0,1123.0,2430.0,912.0,1895.0,2270.0,2553.0,,,,-0.491250395631271,-2.7881301141239,-0.514701956827857,,-3.084416136690086,,
,5872.0,1123.0,2432.0,914.0,1897.0,2261.0,2550.0,,,,-0.491111844167955,-2.78848122274967,-0.514065125110554,,-3.1347607763800465,,
,5871.0,1122.0,2430.0,912.0,1892.0,2262.0,2550.0,,,,-0.490881153783594,-2.78849448423577,-0.513997443501613,,-3.172324450659472,,
,5875.0,1121.0,2429.0,912.0,1899.0,2261.0,2535.0,,,,-0.490971132656727,-2.78833164321262,-0.514427033744064,,-3.2004378872983312,,
,5871.0,1122.0,2431.0,912.0,1905.0,2256.0,2536.0,,,,-0.490628795528518,-2.78840265874534,-0.514699286400344,,-3.2230882486371577,,
,5872.0,1121.0,2431.0,913.0,1908.0,2257.0,2530.0,,,,-0.490456694816406,-2.78825889792546,-0.514646374278322,,-3.244616451958576,,
,5868.0,1123.0,2430.0,913.0,1917.0,2266.0,2541.0,,,,-0.490747642018474,-2.78864120701398,-0.514717455476485,,-3.2693592482737364,,
,5868.0,1120.0,2430.0,913.0,1900.0,2231.0,2568.0,,,,-0.491251807756215,-2.78876995175011,-0.514894041845809,,-3.30126457910201,,
,5871.0,1121.0,2428.0,911.0,1896.0,2267.0,2575.0,,,,-0.49184603029734,-2.78926499345823,-0.516052255574798,,-3.3435107222173404,,
,5870.0,1122.0,2431.0,913.0,1894.0,2285.0,2577.0,,,,-0.49279910000295,-2.78930519060146,-0.516028568195756,,-3.3981605701208593,,
,5866.0,1123.0,2429.0,910.0,1886.0,2264.0,2596.0,,,,-0.493264455481045,-2.78978176701037,-0.517376483193717,,-3.4658817874247516,,
,5866.0,1121.0,2426.0,913.0,1901.0,2277.0,2596.0,,,,-0.493334094798092,-2.7900704936355,-0.516633332650119,,-3.545760773812721,,
,5866.0,1120.0,2428.0,913.0,1888.0,2288.0,2576.0,,,,-0.493084943172459,-2.79015921289509,-0.517725333898608,,-3.6352323217003537,,
,5868.0,1120.0,2428.0,912.0,1901.0,2287.0,2554.0,,,,-0.493697646519475,-2.79039919620959,-0.517796068713311,,-3.7301371225782076,,
,5865.0,1121.0,2430.0,911.0,1906.0,2277.0,2549.0,,,,-0.493933675443521,-2.79090291543513,-0.518677621399369,,-3.824906686989549,,
,5864.0,1116.0,2428.0,910.0,1901.0,2292.0,2536.0,,,,-0.494092097237432,-2.79104340659596,-0.518368892135255,,-3.9128621686031466,,
,5866.0,1119.0,2427.0,910.0,1900.0,2302.0,2537.0,,,,-0.4945407126633,-2.79093191488422,-0.519353668065846,,-3.9866029284367936,,
,5864.0,1121.0,2427.0,911.0,1885.0,2293.0,2536.0,,,,-0.494555069582649,-2.79088665999092,-0.519238566945478,,-4.038454168420871,,
,5862.0,1120.0,2427.0,911.0,1880.0,2291.0,2535.0,,,,-0.494575763691793,-2.79091898501607,-0.519163981611354,,-4.060940258980699,,
,5863.0,1119.0,2430.0,910.0,1889.0,2288.0,2547.0,,,,-0.494427815213724,-2.79100433641013,-0.519268505220156,,-4.047249879566935,,
,5862.0,1119.0,2429.0,912.0,1888.0,2264.0,2535.0,,,,-0.494413718716758,-2.79075612767157,-0.518603664876403,,-3.9916595101679047,,
,5862.0,1118.0,2426.0,912.0,1892.0,2260.0,2536.0,,,,-0.494485749767049,-2.79069731379051,-0.518734249949742,,-3.889883092216025,,
,5864.0,1124.0,2429.0,911.0,1899.0,2263.0,2523.0,,,,-0.494517564701269,-2.7907007008534,-0.519179474236651,,-3.7393186825964224,,
,5863.0,1119.0,2429.0,911.0,1891.0,2260.0,2550.0,,,,-0.494968286632124,-2.79104564313706,-0.518834345511081,,-3.539168607038231,,
,5864.0,1120.0,2429.0,910.0,1892.0,2270.0,2544.0,,,,-0.494511431100259,-2.79092547500089,-0.518328360719413,,-3.2904184847095226,,
,5865.0,1122.0,2429.0,911.0,1894.0,2256.0,2545.0,,,,-0.494543251482048,-2.7908817458981,-0.519008403526085,,-2.995672597551026,,
,5862.0,1120.0,2429.0,912.0,1890.0,2251.0,2542.0,,,,-0.494812300010842,-2.79112988066768,-0.519103937581027,,-2.6588579845594076,,
,5863.0,1118.0,2429.0,909.0,1895.0,2259.0,2548.0,,,,-0.494995924158533,-2.79103686564539,-0.518697571758014,,-2.284826021984604,,
,5864.0,1120.0,2429.0,914.0,1899.0,2264.0,2557.0,,,,-0.494893698262814,-2.79129834634812,-0.51910631388576,,-1.8788955831990448,,
,5866.0,1119.0,2427.0,912.0,1895.0,2265.0,2551.0,,,,-0.494884618410568,-2.79138880334289,-0.519106207728524,,-1.446392876994751,,
,5865.0,1120.0,2429.0,911.0,1892.0,2265.0,2539.0,,,,-0.495003243271145,-2.79128828484917,-0.518290470513671,,-0.9922466943378756,,
,5865.0,1119.0,2427.0,912.0,1900.0,2273.0,2537.0,,,,-0.494987297625581,-2.79110975351691,-0.518829855997238,,-0.5206922034100122,,
,5870.0,1123.0,2428.0,912.0,1899.0,2275.0,2534.0,,,,-0.49507087193833,-2.79129238569699,-0.518824317895263,,-0.03512163140911166,,
,5871.0,1122.0,2431.0,912.0,1899.0,2278.0,2551.0,,,,-0.4953026515394,-2.79138937721562,-0.519128675443473,,0.4619015824093778,,
,5870.0,1122.0,2429.0,912.0,1901.0,2275.0,2549.0,,,,-0.495219203603125,-2.7911092893236,-0.518357243886876,,0.9684728641422521,,
,5870.0,1121.0,2429.0,912.0,1902.0,2281.0,2559.0,,,,-0.495297757972255,-2.79143743850152,-0.518924494170676,,1.4830498752266246,,
,5872.0,1123.0,2430.0,911.0,1898.0,2274.0,2546.0,,,,-0.495135595754354,-2.79114787691626,-0.518560726830959,,2.00407235197154,,
,5874.0,1122.0,2431.0,913.0,1908.0,2282.0,2556.0,,,,-0.495481210489,-2.79139363534306,-0.519605501336266,,2.5295471850508755,,
,5876.0,1121.0,2431.0,914.0,1906.0,2276.0,2564.0,,,,-0.49581997094543,-2.79156010634941,-0.518719159082233,,3.0566463601134335,,
,5875.0,1122.0,2430.0,912.0,1909.0,2256.0,2543.0,,,,-0.496234328982021,-2.79176554010236,-0.519592064991318,,3.5813604963337458,,
,5877.0,1123.0,2430.0,911.0,1908.0,2273.0,2564.0,,,,-0.49647067146072,-2.79211279445176,-0.519868724961684,,4.098244449586705,,
,5879.0,1125.0,2433.0,915.0,1899.0,2258.0,2549.0,,,,-0.496624197930856,-2.79211192322913,-0.52003976056859,,4.600284848646381,,
,5882.0,1124.0,2436.0,914.0,1897.0,2263.0,2559.0,,,,-0.496772006711272,-2.79182255316532,-0.520019590338249,,5.078912585268108,,
,5881.0,1126.0,2433.0,913.0,1896.0,2264.0,2573.0,,,,-0.496584528232909,-2.79192867016254,-0.519943348336323,,5.524175692259197,,
,5884.0,1124.0,2433.0,913.0,1890.0,2288.0,2565.0,,,,-0.496321113367672,-2.79186226951247,-0.519742748891705,,5.925078913892591,,
,5887.0,1126.0,2434.0,915.0,1893.0,2280.0,2542.0,,,,-0.496201377485654,-2.79181475928497,-0.519519540009796,,6.2700847647596945,,
,5887.0,1127.0,2435.0,915.0,1898.0,2280.0,2540.0,,,,-0.496112643913411,-2.7917814436496,-0.519463179328684,,6.5477565152926775,,
,5887.0,1125.0,2434.0,916.0,1896.0,2278.0,2564.0,,,,-0.496599883002093,-2.79149260059781,-0.520005542806327,,6.747506672377402,,
,5888.0,1124.0,2435.0,914.0,1884.0,2276.0,2558.0,,,,-0.496536549006416,-2.79173128854212,-0.519201004611613,,6.860396679495375,,
,5891.0,1125.0,2437.0,919.0,1898.0,2252.0,2563.0,,,,-0.496442598925784,-2.79177728366307,-0.519762670540489,,6.8799176259436345,,
,5892.0,1126.0,2437.0,915.0,1899.0,2256.0,2565.0,,,,-0.496458536472818,-2.79162782671084,-0.520136855668305,,6.802671552461138,,
,5893.0,1128.0,2438.0,917.0,1896.0,2259.0,2550.0,,,,-0.497171163728664,-2.79205172181469,-0.519685358714626,,6.628872150368579,,
,5894.0,1128.0,2439.0,917.0,1903.0,2255.0,2551.0,,,,-0.497080763119999,-2.79205828257925,-0.519850522432502,,6.362594437784341,,
,5898.0,1129.0,2439.0,918.0,1905.0,2283.0,2535.0,,,,-0.497572100450503,-2.79228182282814,-0.520224438150941,,6.011725164316778,,
,5897.0,1128.0,2439.0,918.0,1901.0,2270.0,2543.0,,,,-0.497427004398141,-2.79235589021984,-0.520120299951263,,5.587596922587488,,
,5900.0,1129.0,2438.0,917.0,1899.0,2277.0,2548.0,,,,-0.496704967422917,-2.79230119539878,-0.520179157333409,,5.104325594719018,,
,5900.0,1129.0,2437.0,915.0,1896.0,2283.0,2540.0,,,,-0.496678287159705,-2.79228320212893,-0.5204896565829,,4.577908117741557,,
,5903.0,1130.0,2440.0,917.0,1904.0,2271.0,2542.0,,,,-0.497023807810518,-2.79205429646597,-0.520261687161036,,4.0251695594743735,,
,5905.0,1129.0,2442.0,915.0,1893.0,2273.0,2546.0,,,,-0.496992099315739,-2.79231754946549,-0.520781915998301,,3.46266868382207,,
,5906.0,1132.0,2440.0,918.0,1895.0,2289.0,2539.0,,,,-0.496800949467745,-2.79201829191334,-0.520673357408569,,2.905675163421468,,
,5905.0,1131.0,2441.0,916.0,1905.0,2273.0,2555.0,,,,-0.496674018423859,-2.7922071598488,-0.521059812521524,,2.3673189985117697,,
,5908.0,1133.0,2444.0,919.0,1901.0,2294.0,2558.0,,,,-0.496662215358619,-2.79224778858349,-0.52027157882832,,1.8579868423563177,,
,5913.0,1131.0,2445.0,920.0,1898.0,2298.0,2554.0,,,,-0.496601912856335,-2.79242091674949,-0.520341124497325,,1.385006097917124,,
,5913.0,1134.0,2446.0,917.0,1901.0,2287.0,2543.0,,,,-0.496886405602638,-2.79214738562076,-0.519956833445773,,0.9526215285433818,,
,5914.0,1133.0,2444.0,919.0,1903.0,2296.0,2538.0,,,,-0.496889180112625,-2.79227513050293,-0.520695898472189,,0.5622358369481645,,
,5915.0,1132.0,2445.0,918.0,1896.0,2301.0,2555.0,,,,-0.496854886196325,-2.79239269550843,-0.520217947160391,,0.21285912870368723,,
,5919.0,1133.0,2447.0,919.0,1904.0,2297.0,2542.0,,,,-0.496857060211956,-2.79249927940108,-0.52087717770504,,-0.09830523672300816,,
,5920.0,1134.0,2446.0,920.0,1907.0,2286.0,2542.0,,,,-0.497024729938805,-2.79250640755379,-0.521073645477556,,-0.37521831581323345,,
,5920.0,1134.0,2444.0,919.0,1906.0,2269.0,2550.0,,,,-0.497302209140734,-2.7924185046313,-0.520680181719252,,-0.6223842898966561,,
,5921.0,1134.0,2447.0,920.0,1905.0,2245.0,2551.0,,,,-0.497582103138943,-2.79211017973891,-0.520846334339169,,-0.8443163185540429,,
,5923.0,1137.0,2449.0,921.0,1910.0,2244.0,2548.0,,,,-0.497622610543281,-2.79254263130407,-0.520001720569237,,-1.045136509268409,,
,5928.0,1136.0,2451.0,921.0,1908.0,2249.0,2544.0,,,,-0.497713811996976,-2.79257414067604,-0.520835082304153,,-1.2283325087182744,,
,5927.0,1137.0,2449.0,920.0,1900.0,2235.0,2555.0,,,,-0.49753500894677,-2.79251379671005,-0.52108690147999,,-1.3966674286799012,,
,5930.0,1134.0,2452.0,922.0,1900.0,2249.0,2550.0,,,,-0.496736348662704,-2.79246087776542,-0.520282719983876,,-1.552217777881142,,
,5932.0,1138.0,2452.0,922.0,1896.0,2274.0,2544.0,,,,-0.496428978744645,-2.792491738299,-0.51986671941157,,-1.696500056810367,,
,5933.0,1141.0,2453.0,922.0,1900.0,2271.0,2542.0,,,,-0.496587914715344,-2.792410777956,-0.52026055548718,,-1.8306422112878626,,
,5936.0,1138.0,2452.0,922.0,1887.0,2266.0,2553.0,,,,-0.496587993077483,-2.79219679638387,-0.520478936737482,,-1.9555596965936837,,
,5937.0,1139.0,2452.0,920.0,1890.0,2254.0,2546.0,,,,-0.496551584761031,-2.79204163689526,-0.519981029774856,,-2.0721044195532334,,
,5940.0,1140.0,2453.0,923.0,1896.0,2277.0,2552.0,,,,-0.496607178006,-2.79229690817516,-0.520005003343904,,-2.1811655406672714,,
,5942.0,1141.0,2454.0,924.0,1901.0,2291.0,2557.0,,,,-0.496185443863016,-2.79229935306509,-0.519527048132376,,-2.2837122586385172,,
,5943.0,1139.0,2455.0,923.0,1898.0,2287.0,2568.0,,,,-0.496043456644027,-2.79238350917377,-0.520700427453305,,-2.3807791182991163,,
,5943.0,1141.0,2456.0,923.0,1896.0,2291.0,2563.0,,,,-0.49608391973751,-2.79218178969791,-0.519787668523224,,-2.473403052647013,,
,5948.0,1140.0,2458.0,926.0,1897.0,2264.0,2564.0,,,,-0.496300611653599,-2.79197512075996,-0.520203114362814,,-2.5625273678937948,,
,5950.0,1143.0,2458.0,927.0,1893.0,2269.0,2568.0,,,,-0.496185791617961,-2.79204696249159,-0.520490932472481,,-2.6488907890213635,,
,5952.0,1142.0,2459.0,926.0,1892.0,2272.0,2575.0,,,,-0.496209989212312,-2.79202859656023,-0.519845584332246,,-2.732919857448372,,
,5954.0,1140.0,2458.0,923.0,1894.0,2276.0,2558.0,,,,-0.496211676095164,-2.7920892191215,-0.519954994945845,,-2.814641322255538,,
,5956.0,1143.0,2462.0,926.0,1897.0,2261.0,2544.0,,,,-0.496157996689599,-2.79200419870136,-0.519134311282979,,-2.8936286153532365,,
,5960.0,1144.0,2461.0,927.0,1896.0,2265.0,2541.0,,,,-0.495737231577766,-2.7918668925642,-0.520254092646036,,-2.968993510703047,,
,5960.0,1146.0,2460.0,928.0,1904.0,2282.0,2545.0,,,,-0.49586727482424,-2.79188775642677,-0.51983456904235,,-3.039430501695672,,
,5962.0,1144.0,2461.0,925.0,1900.0,2254.0,2554.0,,,,-0.495691545533196,-2.79183320775785,-0.519760505454993,,-3.103316801308834,,
,5967.0,1147.0,2463.0,926.0,1906.0,2261.0,2555.0,,,,-0.495862641319825,-2.79185048282096,-0.519839923463477,,-3.158864806963748,,
,5970.0,1146.0,2465.0,927.0,1899.0,2287.0,2538.0,,,,-0.495478444566148,-2.79193660063324,-0.52011602341324,,-3.204316581077066,,
,5969.0,1146.0,2465.0,928.0,1889.0,2280.0,2534.0,,,,-0.495635041225759,-2.79189004169974,-0.520045691210387,,-3.238162430766791,,
,5971.0,1145.0,2465.0,926.0,1894.0,2281.0,2539.0,,,,-0.495689885446538,-2.79176730054204,-0.519467876391871,,-3.2593598167579136,,
,5975.0,1147.0,2466.0,929.0,1893.0,2251.0,2537.0,,,,-0.495328540111956,-2.79188026331662,-0.518868568839901,,-3.2675264075358155,,
,5977.0,1149.0,2467.0,928.0,1894.0,2250.0,2571.0,,,,-0.495692520173277,-2.79198588383591,-0.519327268004033,,-3.263082926465465,,
,5977.0,1148.0,2466.0,927.0,1898.0,2247.0,2567.0,,,,-0.495521983947072,-2.79160480497486,-0.519831853374467,,-3.247326798563268,,
,5980.0,1149.0,2465.0,927.0,1890.0,2264.0,2547.0,,,,-0.495633748763167,-2.79180552686623,-0.519366333090022,,-3.222424848671419,,
,5985.0,1151.0,2470.0,930.0,1894.0,2270.0,2560.0,,,,-0.495412814787699,-2.79149149719589,-0.519456202897571,,-3.191320965213127,,
,5988.0,1150.0,2470.0,930.0,1889.0,2275.0,2581.0,,,,-0.495242295274909,-2.79152768533404,-0.519028557550533,,-3.1575619728206634,,
,5989.0,1152.0,2471.0,932.0,1895.0,2295.0,2577.0,,,,-0.495163623477136,-2.79161497435495,-0.519495254449683,,-3.125051642661727,,
,5990.0,1152.0,2470.0,930.0,1895.0,2293.0,2565.0,,,,-0.495045480147102,-2.79151269492789,-0.518872754466906,,-3.097748456248863,,
,5994.0,1154.0,2472.0,930.0,1900.0,2270.0,2546.0,,,,-0.494934984756057,-2.79150839516923,-0.518632229141703,,-3.0793270125457486,,
,5994.0,1154.0,2475.0,932.0,1898.0,2274.0,2554.0,,,,-0.495243877567802,-2.79136745517029,-0.518572721026731,,-3.0728257558720116,,
,5993.0,1154.0,2474.0,931.0,1900.0,2277.0,2552.0,,,,-0.49493229259709,-2.79146677640577,-0.51924970670201,,-3.080305432438835,,
,5995.0,1152.0,2472.0,929.0,1903.0,2279.0,2537.0,,,,-0.495170023838223,-2.7912746109877,-0.519223334981549,,-3.102543891350864,,
,5988.0,1152.0,2473.0,932.0,1899.0,2285.0,2549.0,,,,-0.494678227050917,-2.79156415482961,-0.518831457467605,,-3.1387936311529883,,
,5986.0,1149.0,2470.0,931.0,1898.0,2300.0,2535.0,,,,-0.494806571872709,-2.79149580246353,-0.518837516664231,,-3.1866283324775297,,
,5981.0,1151.0,2466.0,927.0,1903.0,2308.0,2555.0,,,,-0.494849350885972,-2.7912952129321,-0.518920245340179,,-3.241902553226309,,
2025-08-19 23:03:02,5974.0,1145.0,2464.0,927.0,1892.0,2289.0,2550.0,,,2025/08/19 11:03:02 PM,-0.495448415682677,-2.79152424994149,-0.519383509381974,,-3.298843716715301,,
,5970.0,1144.0,2461.0,925.0,1894.0,2300.0,2551.0,,,,-0.495266780543297,-2.7916070016275,-0.519332174038543,,-3.3502866174821992,,
,5962.0,1142.0,2461.0,925.0,1896.0,2305.0,2562.0,,,,-0.495369791276806,-2.79166728441139,-0.519204793220735,,-3.3880476074685157,,
,5957.0,1142.0,2460.0,925.0,1895.0,2285.0,2552.0,,,,-0.495571346880836,-2.79152297568735,-0.519622025062663,,-3.4034191828831903,,
,5949.0,1138.0,2458.0,922.0,1905.0,2258.0,2545.0,,,,-0.49560129554842,-2.79158858325943,-0.519414218303315,,-3.3877481643233747,,
,5944.0,1138.0,2455.0,923.0,1903.0,2258.0,2543.0,,,,-0.495777179683614,-2.79113450736845,-0.519121148714494,,-3.3330457638477657,,
,5938.0,1139.0,2453.0,921.0,1894.0,2250.0,2518.0,,,,-0.495655501426644,-2.79141767667931,-0.519244169164468,,-3.232569547387741,,
,5932.0,1138.0,2452.0,921.0,1900.0,2257.0,2520.0,,,,-0.495579900918397,-2.79144273295322,-0.51881063280213,,-3.0813180671666767,,
,5929.0,1135.0,2449.0,920.0,1903.0,2275.0,2530.0,,,,-0.495626682751865,-2.79135679434446,-0.518770170052741,,-2.8763885244713476,,
,5923.0,1133.0,2448.0,920.0,1894.0,2266.0,2534.0,,,,-0.495312677819552,-2.791395420261,-0.518856781201238,,-2.617163851714147,,
,5922.0,1134.0,2447.0,919.0,1901.0,2264.0,2545.0,,,,-0.495168089910919,-2.79110787849867,-0.518670301425734,,-2.3053150649787217,,
,5916.0,1134.0,2447.0,919.0,1902.0,2284.0,2549.0,,,,-0.495259372586875,-2.79127811487057,-0.518560576191153,,-1.9446249785729537,,
,5915.0,1132.0,2446.0,919.0,1893.0,2272.0,2558.0,,,,-0.495368977260719,-2.79129736633571,-0.519051034196155,,-1.5406580257641878,,
,5910.0,1131.0,2443.0,919.0,1896.0,2275.0,2550.0,,,,-0.495637484208267,-2.79121321770226,-0.518655936630631,,-1.1003156463163688,,
,5912.0,1133.0,2444.0,920.0,1897.0,2271.0,2558.0,,,,-0.495117199101319,-2.79135987534093,-0.518648511301606,,-0.6313255054871423,,
,5906.0,1133.0,2444.0,917.0,1885.0,2267.0,2564.0,,,,-0.495191463284123,-2.79117987425804,-0.518421660961583,,-0.14171492764562887,,
,5909.0,1132.0,2442.0,919.0,1894.0,2257.0,2565.0,,,,-0.495195269181297,-2.79107248869877,-0.519434169666672,,0.36068471604139885,,
,5905.0,1132.0,2442.0,916.0,1895.0,2245.0,2568.0,,,,-0.495060344973102,-2.79088590648787,-0.51891326086382,,0.8686631872649534,,
,5905.0,1129.0,2442.0,917.0,1890.0,2273.0,2570.0,,,,-0.495070681498458,-2.79116955199029,-0.519061374119521,,1.3759552902942032,,
,5902.0,1130.0,2443.0,917.0,1891.0,2283.0,2564.0,,,,-0.49507124241994,-2.7910294953918,-0.519361809145361,,1.8774412248533936,,
,5903.0,1130.0,2444.0,918.0,1889.0,2285.0,2563.0,,,,-0.495086426936891,-2.79081688644601,-0.518342145347749,,2.369209183086783,,
,5900.0,1127.0,2439.0,913.0,1899.0,2286.0,2548.0,,,,-0.495142839279187,-2.79122230223931,-0.519262931142069,,2.8484744530925665,,
,5900.0,1128.0,2439.0,917.0,1896.0,2276.0,2567.0,,,,-0.495104086438937,-2.79098645884344,-0.518689573029042,,3.3133597524667717,,
,5903.0,1129.0,2441.0,915.0,1894.0,2279.0,2558.0,,,,-0.495297813178151,-2.79115425126654,-0.518518625359179,,3.7625551156345907,,
,5898.0,1131.0,2442.0,917.0,1897.0,2275.0,2547.0,,,,-0.495163738132916,-2.79115240061783,-0.518981528180937,,4.194891622133129,,
,5898.0,1127.0,2437.0,916.0,1894.0,2265.0,2541.0,,,,-0.494983307573343,-2.79095812949324,-0.518187789571061,,4.608878461268101,,
,5898.0,1130.0,2440.0,918.0,1898.0,2260.0,2540.0,,,,-0.494498540889858,-2.79077439222076,-0.518234738366916,,5.002262988868827,,
,5895.0,1129.0,2441.0,917.0,1895.0,2250.0,2546.0,,,,-0.494180110780261,-2.79046158084357,-0.518198429922903,,5.37167530219662,,
,5898.0,1128.0,2439.0,916.0,1892.0,2259.0,2560.0,,,,-0.494034703316433,-2.79050969480899,-0.517837852719303,,5.712411884324944,,
,5896.0,1127.0,2439.0,914.0,1891.0,2255.0,2567.0,,,,-0.494038348072327,-2.79058330047081,-0.517449034634239,,6.018398903079516,,
,5897.0,1127.0,2438.0,915.0,1904.0,2253.0,2547.0,,,,-0.494076398958906,-2.79053562783092,-0.518404228340058,,6.28235741300795,,
,5899.0,1129.0,2441.0,921.0,1905.0,2260.0,2555.0,,,,-0.494044613653042,-2.79080231083003,-0.518044231579523,,6.4961720337004385,,
,5897.0,1126.0,2441.0,916.0,1899.0,2270.0,2545.0,,,,-0.494054823899256,-2.79078345660796,-0.517702403446203,,6.651442905486211,,
,5896.0,1127.0,2439.0,916.0,1903.0,2266.0,2552.0,,,,-0.494190498154107,-2.79063623184946,-0.518321042299099,,6.740178945302201,,
,5891.0,1125.0,2439.0,915.0,1908.0,2271.0,2547.0,,,,-0.494766059302522,-2.79103571881136,-0.518431535911261,,6.755570325813529,,
,5896.0,1128.0,2438.0,915.0,1906.0,2256.0,2541.0,,,,-0.494840513810562,-2.79136768642386,-0.518809527248979,,6.692762215876938,,
,5895.0,1129.0,2441.0,915.0,1909.0,2265.0,2539.0,,,,-0.495335288771755,-2.79195930265263,-0.519466612150701,,6.549543092848368,,
,5896.0,1128.0,2441.0,917.0,1911.0,2259.0,2545.0,,,,-0.495963976322982,-2.79210960784304,-0.519372869474462,,6.326861855138839,,
,5894.0,1127.0,2438.0,916.0,1907.0,2289.0,2549.0,,,,-0.496265489904657,-2.79249932143634,-0.520940004916628,,6.029099883795026,,
,5897.0,1129.0,2439.0,917.0,1903.0,2274.0,2554.0,,,,-0.496619053779805,-2.79249381602476,-0.521360157018186,,5.6640471168793765,,
,5895.0,1127.0,2439.0,917.0,1900.0,2267.0,2549.0,,,,-0.496865425613844,-2.79273712263498,-0.520798890812063,,5.242563568431383,,
,5892.0,1129.0,2438.0,918.0,1901.0,2257.0,2547.0,,,,-0.4970226172191,-2.79319076305896,-0.521962273493661,,4.777946054660019,,
,5893.0,1125.0,2437.0,914.0,1904.0,2259.0,2548.0,,,,-0.49722261049857,-2.7930961641784,-0.521823845340763,,4.285058584389915,,
,5892.0,1127.0,2438.0,915.0,1896.0,2280.0,2564.0,,,,-0.497057527948475,-2.79341546715252,-0.52236955250775,,3.779317069955895,,
,5893.0,1126.0,2437.0,917.0,1895.0,2281.0,2557.0,,,,-0.497417192703358,-2.7934356283764,-0.522392033042917,,3.2756383859761065,,
,5894.0,1125.0,2437.0,917.0,1894.0,2273.0,2554.0,,,,-0.497686946322975,-2.79352564739418,-0.522185910124183,,2.787466444747846,,
,5892.0,1125.0,2436.0,917.0,1901.0,2274.0,2552.0,,,,-0.498252703392195,-2.79370780176305,-0.523021558452279,,2.3259736669829807,,
,5892.0,1126.0,2438.0,917.0,1897.0,2252.0,2553.0,,,,-0.49828041294175,-2.79368891367084,-0.523222178420172,,1.8995086360975708,,
,5890.0,1127.0,2436.0,916.0,1896.0,2247.0,2532.0,,,,-0.498165743266402,-2.793788943534,-0.523691443690747,,1.5133260634195176,,
,5889.0,1125.0,2439.0,917.0,1891.0,2255.0,2532.0,,,,-0.498344253735221,-2.79387153384106,-0.523953533044289,,1.1696001740717292,,
,5892.0,1125.0,2435.0,915.0,1899.0,2256.0,2529.0,,,,-0.498506852127795,-2.79376173495737,-0.523230837979127,,0.867692549250175,,
,5893.0,1125.0,2438.0,916.0,1902.0,2264.0,2546.0,,,,-0.498715126357113,-2.7938103808801,-0.523673592911134,,0.6046233436870381,,
,5891.0,1127.0,2436.0,916.0,1901.0,2269.0,2551.0,,,,-0.498428310184119,-2.79386420892158,-0.523070613251512,,0.37568151819878176,,
,5893.0,1124.0,2437.0,915.0,1903.0,2267.0,2536.0,,,,-0.498510553606681,-2.79398726711157,-0.523489690871784,,0.17510473533834764,,
,5891.0,1126.0,2438.0,916.0,1900.0,2264.0,2545.0,,,,-0.498979390178222,-2.79403008034665,-0.523455392771345,,-0.00323841812765136,,
,5893.0,1128.0,2438.0,916.0,1896.0,2262.0,2550.0,,,,-0.498944220853227,-2.79423063725528,-0.523567962044344,,-0.165223779699418,,
,5891.0,1127.0,2438.0,916.0,1904.0,2260.0,2550.0,,,,-0.498813012728396,-2.79407041921375,-0.523140080467615,,-0.3159532410982428,,
,5895.0,1125.0,2438.0,917.0,1910.0,2259.0,2554.0,,,,-0.498680642165753,-2.79398006879848,-0.523191398766532,,-0.4593780059563096,,
,5894.0,1126.0,2438.0,915.0,1909.0,2278.0,2554.0,,,,-0.498624873270577,-2.79422741038208,-0.523409363769667,,-0.5980845096260982,,
,5898.0,1128.0,2440.0,916.0,1901.0,2267.0,2531.0,,,,-0.498750517717814,-2.79412735944058,-0.523871680455272,,-0.733249458339561,,
,5895.0,1129.0,2440.0,918.0,1903.0,2260.0,2539.0,,,,-0.498547599124598,-2.79427351738083,-0.523721885452919,,-0.8647557808864826,,
,5899.0,1128.0,2441.0,919.0,1902.0,2265.0,2546.0,,,,-0.499184862621172,-2.79401892670431,-0.524143420550653,,-0.9914466443492738,,
,5900.0,1128.0,2439.0,917.0,1910.0,2252.0,2544.0,,,,-0.498851433865126,-2.79382442868866,-0.523776263595953,,-1.1114808272793333,,
,5901.0,1129.0,2439.0,916.0,1905.0,2235.0,2556.0,,,,-0.498775442126005,-2.7941557485364,-0.523941020556799,,-1.2227416446819606,,
,5901.0,1129.0,2440.0,918.0,1903.0,2240.0,2546.0,,,,-0.498857527681838,-2.79392462995146,-0.523814357978934,,-1.323246115970347,,
,5902.0,1131.0,2441.0,916.0,1902.0,2249.0,2542.0,,,,-0.498609356829551,-2.79433382806749,-0.52376616170497,,-1.4115033140450262,,
,5904.0,1128.0,2441.0,918.0,1902.0,2247.0,2539.0,,,,-0.498743392722727,-2.79410630815419,-0.523597319322095,,-1.4867807026882123,,
,5905.0,1127.0,2442.0,918.0,1903.0,2276.0,2553.0,,,,-0.498709103618185,-2.79429919566498,-0.524054905752287,,-1.5492522376165747,,
,5905.0,1132.0,2443.0,919.0,1909.0,2270.0,2554.0,,,,-0.498434606562826,-2.79414962240573,-0.523937680517348,,-1.600018592251371,,
,5907.0,1132.0,2443.0,918.0,1909.0,2271.0,2546.0,,,,-0.498117798845146,-2.79391504366795,-0.523211132919513,,-1.64100525942706,,
,5908.0,1128.0,2441.0,916.0,1907.0,2269.0,2550.0,,,,-0.49767344704345,-2.79380515451999,-0.523350777262329,,-1.6747569784413951,,
,5910.0,1128.0,2442.0,918.0,1906.0,2266.0,2556.0,,,,-0.497742703070317,-2.79390837816956,-0.522572395656044,,-1.7041563891412022,,
,5913.0,1132.0,2445.0,921.0,1906.0,2264.0,2546.0,,,,-0.497719930807213,-2.79409506750246,-0.523820296353586,,-1.7321007908375143,,
,5916.0,1133.0,2447.0,922.0,1897.0,2275.0,2561.0,,,,-0.498132828566545,-2.79379275807017,-0.523621811905265,,-1.7611732720162383,,
,5918.0,1131.0,2445.0,918.0,1897.0,2263.0,2582.0,,,,-0.498074594519667,-2.79398488912475,-0.52447677067163,,-1.7933434431449606,,
,5917.0,1131.0,2446.0,919.0,1904.0,2238.0,2542.0,,,,-0.497933795063022,-2.79401471701544,-0.523350959923495,,-1.8297290982531347,,
,5921.0,1131.0,2447.0,919.0,1906.0,2233.0,2531.0,,,,-0.498113264814281,-2.7939666008519,-0.523803070107434,,-1.8704441347194305,,
,5921.0,1132.0,2448.0,921.0,1908.0,2249.0,2527.0,,,,-0.498086950145341,-2.79405196042098,-0.523874977687195,,-1.9145506691128527,,
,5921.0,1132.0,2447.0,919.0,1900.0,2285.0,2536.0,,,,-0.498259874109594,-2.79427911054525,-0.523679791251324,,-1.9601247804985529,,
,5924.0,1134.0,2448.0,921.0,1907.0,2266.0,2544.0,,,,-0.498278304181221,-2.79410170825913,-0.524421397338879,,-2.0044354754045264,,
,5925.0,1135.0,2447.0,921.0,1904.0,2238.0,2541.0,,,,-0.49855472946163,-2.79402480117453,-0.524561768003637,,-2.044224954336767,,
,5926.0,1134.0,2448.0,922.0,1903.0,2229.0,2538.0,,,,-0.497966173632827,-2.79409281703148,-0.524719106878512,,-2.076065348365894,,
,5929.0,1134.0,2450.0,921.0,1898.0,2255.0,2544.0,,,,-0.497923063270186,-2.79400967100005,-0.52378709598185,,-2.096754453560059,,
,5931.0,1134.0,2449.0,920.0,1902.0,2254.0,2563.0,,,,-0.49784986655768,-2.79394377832559,-0.524398182556213,,-2.103703764535952,,
,5932.0,1136.0,2449.0,924.0,1905.0,2274.0,2553.0,,,,-0.497884961062054,-2.79375118356077,-0.524664916936499,,-2.095269697835048,,
,5933.0,1138.0,2450.0,922.0,1910.0,2270.0,2545.0,,,,-0.498117188287963,-2.79392693133465,-0.524372526028573,,-2.0709848939122013,,
,5936.0,1135.0,2453.0,923.0,1912.0,2268.0,2540.0,,,,-0.497562000432921,-2.79356293401473,-0.523309732210021,,-2.031659562315178,,
,5934.0,1137.0,2451.0,921.0,1911.0,2268.0,2556.0,,,,-0.497740946675052,-2.79355444119937,-0.524238532764029,,-1.9793397135503572,,
,5938.0,1137.0,2455.0,923.0,1900.0,2255.0,2557.0,,,,-0.497653714665263,-2.79372710655021,-0.523842838249129,,-1.9171265761913572,,
,5941.0,1137.0,2453.0,923.0,1895.0,2252.0,2555.0,,,,-0.497397064819,-2.79358107897246,-0.524028084989764,,-1.848877500065096,,
,5942.0,1140.0,2455.0,923.0,1905.0,2264.0,2571.0,,,,-0.497673882098252,-2.79370450751507,-0.524128164197524,,-1.7788221033638993,,
,5940.0,1136.0,2455.0,923.0,1904.0,2251.0,2550.0,,,,-0.497590685862021,-2.79378932596944,-0.523743703514315,,-1.711137322885444,,
,5945.0,1139.0,2456.0,925.0,1899.0,2265.0,2541.0,,,,-0.497689993740077,-2.79355752519683,-0.525334497013801,,-1.6495301431155067,,
,5945.0,1139.0,2455.0,923.0,1903.0,2282.0,2536.0,,,,-0.497754937761621,-2.79369694158973,-0.524961630986519,,-1.596876254284641,,
,5947.0,1139.0,2455.0,924.0,1904.0,2285.0,2547.0,,,,-0.497425555615359,-2.79385169954727,-0.52492540835317,,-1.554956894430848,,
,5947.0,1138.0,2453.0,924.0,1904.0,2256.0,2544.0,,,,-0.497784521089949,-2.79417561814448,-0.525126151982335,,-1.5243257143858857,,
,5950.0,1139.0,2457.0,922.0,1901.0,2256.0,2537.0,,,,-0.497683939296697,-2.79392315629055,-0.524307262670024,,-1.5043238711286948,,
,5955.0,1145.0,2459.0,927.0,1903.0,2284.0,2540.0,,,,-0.497354961154152,-2.79394503046425,-0.524540167295885,,-1.4932456298886139,,
,5955.0,1144.0,2461.0,926.0,1903.0,2272.0,2544.0,,,,-0.497264204881694,-2.79393016707445,-0.523708647630672,,-1.488639325835216,,
,5953.0,1139.0,2457.0,926.0,1912.0,2271.0,2546.0,,,,-0.497305683042296,-2.79381495128956,-0.524101382746594,,-1.4877106731223844,,
,5959.0,1142.0,2460.0,926.0,1912.0,2237.0,2553.0,,,,-0.497649511252335,-2.79372956570976,-0.524540360924805,,-1.4877789793730025,,
,5962.0,1141.0,2463.0,927.0,1909.0,2254.0,2563.0,,,,-0.497268338842738,-2.79407683157164,-0.524433921193767,,-1.4867249040454933,,
,5965.0,1144.0,2461.0,926.0,1900.0,2273.0,2565.0,,,,-0.497322593492964,-2.79396671142866,-0.52473272979305,,-1.4833649147895125,,
,5964.0,1142.0,2460.0,926.0,1894.0,2260.0,2565.0,,,,-0.496987166936538,-2.79390404588304,-0.5245685800382,,-1.4776956205756742,,
,5968.0,1143.0,2462.0,926.0,1906.0,2261.0,2544.0,,,,-0.497067747922419,-2.79381145209314,-0.524261246200344,,-1.4709706970698777,,
,5972.0,1144.0,2463.0,927.0,1906.0,2256.0,2546.0,,,,-0.496964375836204,-2.79342871077328,-0.52420796133105,,-1.465600222154316,,
,5971.0,1146.0,2462.0,928.0,1907.0,2251.0,2547.0,,,,-0.497300041149203,-2.79319064688199,-0.524337292162228,,-1.4648904202611903,,
,5973.0,1141.0,2465.0,925.0,1908.0,2269.0,2561.0,,,,-0.496719396506734,-2.79365453756482,-0.524309487161302,,-1.4726647899504182,,
,5976.0,1146.0,2463.0,928.0,1912.0,2256.0,2548.0,,,,-0.496694555397977,-2.79322288361922,-0.524548351317469,,-1.4928215136085756,,
,5977.0,1149.0,2464.0,929.0,1907.0,2268.0,2551.0,,,,-0.496707257140633,-2.79348659256451,-0.52407842601407,,-1.5288860764936758,,
,5983.0,1148.0,2467.0,930.0,1900.0,2251.0,2541.0,,,,-0.496846991222033,-2.79359562926089,-0.523898833217152,,-1.5836134275136837,,
,5980.0,1143.0,2467.0,927.0,1901.0,2243.0,2533.0,,,,-0.497153204077839,-2.79349898754201,-0.524352431204643,,-1.6586829217394299,,
,5984.0,1146.0,2467.0,930.0,1905.0,2221.0,2545.0,,,,-0.497214724134074,-2.7936364847927,-0.524565322858508,,-1.7545139215020706,,
,5986.0,1148.0,2467.0,929.0,1902.0,2241.0,2556.0,,,,-0.497365666706263,-2.79377766201437,-0.524787227915122,,-1.870212493563805,,
,5987.0,1149.0,2469.0,931.0,1905.0,2248.0,2545.0,,,,-0.497262777305559,-2.79364313342666,-0.524936180297518,,-2.003642317972731,,
,5990.0,1150.0,2469.0,931.0,1904.0,2258.0,2536.0,,,,-0.497188464110361,-2.79360175000438,-0.524921478361664,,-2.1515977536110324,,
,5993.0,1148.0,2471.0,932.0,1905.0,2269.0,2545.0,,,,-0.497301199632228,-2.79360357348517,-0.524321850485122,,-2.3100455492151935,,
,5996.0,1149.0,2470.0,931.0,1902.0,2272.0,2557.0,,,,-0.496927296067858,-2.79376225658016,-0.524577355460553,,-2.4743948771951025,,
,5998.0,1149.0,2471.0,934.0,1900.0,2275.0,2550.0,,,,-0.497202406901196,-2.79358050059519,-0.524806586641271,,-2.639753765274106,,
,5998.0,1148.0,2470.0,931.0,1898.0,2285.0,2551.0,,,,-0.496785129321562,-2.79371551967169,-0.525609013051772,,-2.8011342739244784,,
,6001.0,1150.0,2473.0,930.0,1896.0,2264.0,2551.0,,,,-0.496931835379764,-2.79356175361163,-0.52506366164924,,-2.953579493490053,,
,6004.0,1153.0,2476.0,933.0,1903.0,2259.0,2535.0,,,,-0.496849220868074,-2.79360680961199,-0.524502517904696,,-3.092201924833469,,
,6006.0,1153.0,2475.0,933.0,1902.0,2264.0,2532.0,,,,-0.497078556846614,-2.79322425552708,-0.525034213740532,,-3.2121421609342584,,
,6007.0,1151.0,2474.0,935.0,1901.0,2257.0,2530.0,,,,-0.496989912696206,-2.79353623935855,-0.524619519859682,,-3.3084745772231927,,
,6012.0,1153.0,2475.0,932.0,1907.0,2251.0,2540.0,,,,-0.496948599300903,-2.79374548772957,-0.525300988060333,,-3.376098918121645,,
,6012.0,1154.0,2475.0,932.0,1910.0,2265.0,2552.0,,,,-0.497298121280781,-2.79370860026677,-0.524502062721739,,-3.409661048008015,,
,6016.0,1154.0,2477.0,936.0,1910.0,2261.0,2544.0,,,,-0.49759279053942,-2.79375457987795,-0.525396618412825,,-3.40354252554167,,
,6018.0,1153.0,2476.0,933.0,1898.0,2267.0,2569.0,,,,-0.497169691492538,-2.79367148557306,-0.525117034929872,,-3.351948135006985,,
2025-08-19 23:03:03,6018.0,1153.0,2477.0,934.0,1901.0,2262.0,2546.0,,,2025/08/19 11:03:03 PM,-0.497382798800927,-2.79376978368522,-0.52468711577293,,-3.249104789721723,,
,6025.0,1157.0,2481.0,936.0,1908.0,2266.0,2569.0,,,,-0.497074661534332,-2.79378962630135,-0.525024765098976,,-3.089566566152972,,
,6027.0,1157.0,2480.0,936.0,1909.0,2260.0,2578.0,,,,-0.497196179622478,-2.79370981247256,-0.525549543352162,,-2.8686018422444217,,
,6028.0,1158.0,2482.0,936.0,1909.0,2281.0,2567.0,,,,-0.497404014360318,-2.79362429929704,-0.525210294584831,,-2.582622726251082,,
,6025.0,1157.0,2480.0,933.0,1908.0,2277.0,2553.0,,,,-0.497443927025886,-2.79387769805951,-0.525797402316524,,-2.2296070612262024,,
,6028.0,1159.0,2482.0,936.0,1909.0,2291.0,2545.0,,,,-0.497470146564843,-2.79391911415576,-0.524800915305024,,-1.809461164849286,,
,6030.0,1160.0,2483.0,936.0,1910.0,2292.0,2560.0,,,,-0.497171582890695,-2.79366178507182,-0.525801006088832,,-1.3242774182589259,,
,6029.0,1160.0,2482.0,935.0,1909.0,2263.0,2556.0,,,,-0.497323371222526,-2.79370079839833,-0.52516309889148,,-0.7784536042783904,,
,6025.0,1156.0,2479.0,936.0,1898.0,2279.0,2568.0,,,,-0.497261773923635,-2.79368183787105,-0.52506993096263,,-0.1786581975750029,,
,6021.0,1157.0,2480.0,937.0,1896.0,2272.0,2546.0,,,,-0.497075759297364,-2.79375940789566,-0.525174147156181,,0.46635541455880325,,
,6016.0,1155.0,2477.0,936.0,1900.0,2257.0,2531.0,,,,-0.497294476947159,-2.79367984695901,-0.52533520868253,,1.1460659779090259,,
,6007.0,1154.0,2473.0,933.0,1905.0,2250.0,2531.0,,,,-0.497128240525629,-2.79352710497378,-0.524943482454839,,1.8486009239789043,,
,6002.0,1148.0,2472.0,930.0,1904.0,2247.0,2537.0,,,,-0.497021867397869,-2.79344523660901,-0.525433233945431,,2.561214838410507,,
,5999.0,1151.0,2473.0,932.0,1904.0,2255.0,2554.0,,,,-0.496738084269832,-2.79321793567689,-0.525203288666723,,3.2707917545182092,,
,5994.0,1149.0,2471.0,931.0,1913.0,2275.0,2545.0,,,,-0.49697674769932,-2.79341963475498,-0.525672379674996,,3.964336010710556,,
,5989.0,1148.0,2467.0,930.0,1911.0,2286.0,2546.0,,,,-0.496764617342196,-2.79333217864818,-0.524230354414958,,4.6294208460185375,,
,5983.0,1146.0,2466.0,927.0,1905.0,2291.0,2536.0,,,,-0.496896533779301,-2.79342549706522,-0.525105635067222,,5.254569405004238,,
,5977.0,1143.0,2464.0,930.0,1903.0,2290.0,2541.0,,,,-0.497217861688834,-2.79340650245119,-0.524786162984252,,5.829549624429078,,
,5975.0,1145.0,2464.0,927.0,1907.0,2272.0,2552.0,,,,-0.497354559068687,-2.7937386859522,-0.525634330307012,,6.345572644716545,,
,5971.0,1144.0,2463.0,927.0,1904.0,2274.0,2541.0,,,,-0.497323530025829,-2.79393678568246,-0.525173784803877,,6.795393429923148,,
,5965.0,1142.0,2460.0,926.0,1911.0,2284.0,2528.0,,,,-0.49754284806698,-2.79388377933893,-0.525871597093972,,7.173321466118806,,
,5964.0,1141.0,2462.0,927.0,1914.0,2267.0,2522.0,,,,-0.497622861868015,-2.79389889898527,-0.525902146393598,,7.475158161879262,,
,5962.0,1140.0,2458.0,925.0,1910.0,2281.0,2541.0,,,,-0.497506182584317,-2.79392242206407,-0.52577952802289,,7.698085292818369,,
,5958.0,1141.0,2458.0,926.0,1903.0,2270.0,2545.0,,,,-0.49743681745893,-2.7937421115393,-0.525646372638884,,7.840534370919455,,
,5955.0,1138.0,2456.0,926.0,1889.0,2263.0,2557.0,,,,-0.49740813545151,-2.79388832532887,-0.525105243318182,,7.9020684821415506,,
,5954.0,1137.0,2457.0,927.0,1899.0,2265.0,2577.0,,,,-0.497394950555007,-2.79382826864876,-0.525989745566978,,7.883304501736352,,
,5956.0,1138.0,2457.0,928.0,1896.0,2275.0,2571.0,,,,-0.497282788443014,-2.79358200299639,-0.525006405809612,,7.785894402222933,,
,5957.0,1139.0,2458.0,927.0,1894.0,2295.0,2584.0,,,,-0.497041970956665,-2.79346322282806,-0.524959570571038,,7.612570649566029,,
,5952.0,1137.0,2457.0,926.0,1895.0,2295.0,2572.0,,,,-0.497191847058875,-2.79370762920168,-0.525312050755378,,7.36724435656834,,
,5949.0,1136.0,2457.0,924.0,1892.0,2276.0,2553.0,,,,-0.497465442760683,-2.79359075420387,-0.525566392811974,,7.055128377191377,,
,5949.0,1138.0,2454.0,924.0,1900.0,2266.0,2557.0,,,,-0.497391425502039,-2.79368225156921,-0.526157197761098,,6.682843843221367,,
,5951.0,1141.0,2456.0,925.0,1893.0,2257.0,2558.0,,,,-0.497143444582321,-2.79376501121032,-0.525546441386388,,6.258461241902383,,
,5950.0,1136.0,2455.0,923.0,1892.0,2270.0,2553.0,,,,-0.497478103989212,-2.79333603994749,-0.526512340728165,,5.79142938969306,,
,5947.0,1135.0,2454.0,925.0,1904.0,2269.0,2561.0,,,,-0.497335366786835,-2.79366327976767,-0.525700666538542,,5.292359366308674,,
,5951.0,1138.0,2455.0,923.0,1905.0,2263.0,2554.0,,,,-0.496935438248498,-2.79350089689303,-0.525408545174688,,4.772654185519458,,
,5950.0,1138.0,2455.0,924.0,1903.0,2265.0,2544.0,,,,-0.496555703602337,-2.79325976260576,-0.524859894088844,,4.244003607913997,,
,5952.0,1138.0,2456.0,925.0,1893.0,2277.0,2540.0,,,,-0.496513757212719,-2.79329146453566,-0.524985148277032,,3.717789987768873,,
,5948.0,1139.0,2451.0,924.0,1898.0,2268.0,2547.0,,,,-0.496783498990354,-2.79330992730712,-0.52468566060488,,3.2044691859365337,,
,5951.0,1138.0,2453.0,928.0,1900.0,2258.0,2551.0,,,,-0.496634298884926,-2.79327805253746,-0.525793546786977,,2.7129970762455917,,
,5950.0,1137.0,2453.0,926.0,1911.0,2265.0,2551.0,,,,-0.49653043600645,-2.79325186974792,-0.524429358901569,,2.2503668450111527,,
,5950.0,1137.0,2456.0,927.0,1911.0,2278.0,2549.0,,,,-0.496564637123916,-2.79314738546075,-0.52473889631639,,1.8213071319541956,,
,5947.0,1137.0,2456.0,926.0,1907.0,2251.0,2544.0,,,,-0.496459637221506,-2.79314673749802,-0.525293440411105,,1.4281694479236253,,
,5952.0,1137.0,2455.0,924.0,1906.0,2234.0,2557.0,,,,-0.496569099806073,-2.79310402951316,-0.524955257082494,,1.0710094296133954,,
,5953.0,1138.0,2459.0,927.0,1909.0,2235.0,2547.0,,,,-0.496848030283477,-2.79345874951151,-0.525093655614195,,0.7478445507536495,,
,5954.0,1140.0,2456.0,926.0,1910.0,2260.0,2556.0,,,,-0.497143844548664,-2.79402634394671,-0.525348882347758,,0.45505397479470916,,
,5951.0,1136.0,2453.0,926.0,1909.0,2265.0,2556.0,,,,-0.497674404607438,-2.79418366574817,-0.526196483449992,,0.18787559707907842,,
,5952.0,1140.0,2456.0,926.0,1912.0,2263.0,2577.0,,,,-0.498126482981425,-2.79453042417879,-0.527055107436109,,-0.05904928691777449,,
,5952.0,1137.0,2456.0,924.0,1910.0,2267.0,2552.0,,,,-0.498608107473688,-2.79461873976961,-0.527511818640252,,-0.29113292065315116,,
,5950.0,1138.0,2455.0,925.0,1911.0,2263.0,2556.0,,,,-0.499238274257381,-2.79503665944734,-0.527983941855363,,-0.5133447836917697,,
,5950.0,1132.0,2453.0,924.0,1904.0,2269.0,2546.0,,,,-0.499521519739609,-2.79527072275941,-0.528287762193348,,-0.7298003173346309,,
,5947.0,1137.0,2453.0,924.0,1911.0,2251.0,2547.0,,,,-0.499961412204844,-2.79540696573469,-0.528044179958008,,-0.9434639954741952,,
,5953.0,1140.0,2457.0,926.0,1905.0,2270.0,2559.0,,,,-0.500066473224799,-2.79590517201385,-0.528783272212113,,-1.1559856282988317,,
,5952.0,1138.0,2454.0,925.0,1907.0,2259.0,2551.0,,,,-0.500310298709988,-2.79579002309949,-0.529483708425988,,-1.3676773599243959,,
,5946.0,1136.0,2452.0,924.0,1902.0,2259.0,2555.0,,,,-0.500214994664391,-2.79569644714713,-0.529585869542568,,-1.5776267154802381,,
,5947.0,1137.0,2451.0,926.0,1903.0,2269.0,2554.0,,,,-0.500660602333604,-2.79577927936163,-0.529481887405383,,-1.7839285535854177,,
,5945.0,1135.0,2454.0,927.0,1902.0,2270.0,2561.0,,,,-0.500968002111667,-2.79613475913289,-0.529752003284186,,-1.9840066065318749,,
,5948.0,1137.0,2455.0,927.0,1901.0,2268.0,2556.0,,,,-0.500807359150355,-2.79612772206116,-0.529766639035662,,-2.1749851827392854,,
,5946.0,1137.0,2453.0,925.0,1901.0,2277.0,2557.0,,,,-0.500884103635724,-2.79587936262518,-0.529086859680021,,-2.354066202981798,,
,5946.0,1135.0,2452.0,923.0,1899.0,2276.0,2545.0,,,,-0.500585829453445,-2.7958428101752,-0.529959422590645,,-2.518868225012407,,
,5943.0,1136.0,2453.0,926.0,1906.0,2269.0,2549.0,,,,-0.500810715255711,-2.79591305220616,-0.529827464293277,,-2.667692557039956,,
,5948.0,1137.0,2453.0,925.0,1910.0,2278.0,2560.0,,,,-0.500667218162971,-2.79620225387072,-0.530476539318367,,-2.7996946307362456,,
,5947.0,1136.0,2453.0,925.0,1902.0,2272.0,2547.0,,,,-0.500900849341862,-2.79636712929322,-0.530196511849064,,-2.9149530848011733,,
,5945.0,1135.0,2451.0,923.0,1905.0,2260.0,2546.0,,,,-0.500751897338916,-2.79622820066608,-0.530613127604342,,-3.0144417175201763,,
,5946.0,1137.0,2455.0,927.0,1912.0,2250.0,2547.0,,,,-0.501048964590054,-2.79570189877977,-0.52996938858097,,-3.099919198078651,,
,5949.0,1138.0,2454.0,925.0,1914.0,2243.0,2547.0,,,,-0.501222425886419,-2.79613371665249,-0.530883399631149,,-3.1737577901425453,,
,5946.0,1137.0,2453.0,927.0,1912.0,2241.0,2577.0,,,,-0.501229321218667,-2.79653956185182,-0.530058606039465,,-3.2387352989430545,,
,5948.0,1137.0,2451.0,923.0,1905.0,2253.0,2561.0,,,,-0.501333341824488,-2.79655944510246,-0.530664079584492,,-3.2978141210882463,,
,5952.0,1137.0,2454.0,927.0,1903.0,2251.0,2549.0,,,,-0.501343461496767,-2.7963786724776,-0.530440715095052,,-3.353928175629799,,
,5948.0,1137.0,2453.0,926.0,1898.0,2228.0,2557.0,,,,-0.501178703709722,-2.79643227041384,-0.530460820549792,,-3.409793744028068,,
,5951.0,1136.0,2455.0,924.0,1891.0,2225.0,2550.0,,,,-0.501011881594515,-2.7962630804305,-0.530497866797869,,-3.467755284611068,,
,5948.0,1136.0,2453.0,924.0,1900.0,2244.0,2538.0,,,,-0.501451101502089,-2.79620633761813,-0.529430716194148,,-3.5296731657384233,,
,5954.0,1138.0,2455.0,927.0,1905.0,2251.0,2538.0,,,,-0.501152752374877,-2.79608840299398,-0.529720450384902,,-3.596857037322,,
,5952.0,1138.0,2456.0,926.0,1911.0,2278.0,2536.0,,,,-0.501183233886932,-2.7959867583718,-0.53032701677281,,-3.67004535734469,,
,5954.0,1136.0,2456.0,925.0,1911.0,2293.0,2542.0,,,,-0.500819375122914,-2.79641518577719,-0.529964711812457,,-3.7494273461539085,,
,5955.0,1138.0,2453.0,923.0,1910.0,2265.0,2564.0,,,,-0.501041474730914,-2.79622740286714,-0.53036716519727,,-3.8346980169496705,,
,5957.0,1138.0,2456.0,928.0,1900.0,2269.0,2549.0,,,,-0.50104900636093,-2.79612741293817,-0.529946039525845,,-3.9251309076370364,,
,5959.0,1141.0,2456.0,925.0,1905.0,2297.0,2547.0,,,,-0.501297269139024,-2.79621325104534,-0.529636988407493,,-4.019648971440065,,
,5961.0,1140.0,2457.0,928.0,1898.0,2295.0,2542.0,,,,-0.50158709933185,-2.7963038378262,-0.53078611747915,,-4.116874254599417,,
,5962.0,1138.0,2455.0,925.0,1899.0,2257.0,2550.0,,,,-0.501444700478709,-2.79627325032926,-0.53043549213139,,-4.21514249319044,,
,5959.0,1138.0,2456.0,927.0,1912.0,2259.0,2540.0,,,,-0.50160603209826,-2.79643530095509,-0.530421258593736,,-4.312478168228702,,
,5964.0,1142.0,2458.0,927.0,1910.0,2280.0,2551.0,,,,-0.501744312826953,-2.79682396573225,-0.53041425265056,,-4.406535906974835,,
,5963.0,1139.0,2460.0,925.0,1906.0,2286.0,2560.0,,,,-0.501795371331141,-2.79683706214852,-0.531251362105703,,-4.4945227339975204,,
,5967.0,1142.0,2459.0,928.0,1903.0,2285.0,2553.0,,,,-0.501257413736247,-2.79672430540863,-0.530870490241263,,-4.573121227218297,,
,5969.0,1141.0,2459.0,928.0,1909.0,2271.0,2547.0,,,,-0.501675516614194,-2.79668491239433,-0.531000382028774,,-4.638435873454357,,
,5968.0,1142.0,2460.0,927.0,1915.0,2269.0,2530.0,,,,-0.501479744655892,-2.79670731711668,-0.530521856634676,,-4.685983882904181,,
,5972.0,1143.0,2462.0,930.0,1915.0,2271.0,2533.0,,,,-0.501379597031512,-2.79668301792559,-0.529930391866767,,-4.710747447901239,,
,5970.0,1143.0,2460.0,928.0,1913.0,2291.0,2531.0,,,,-0.501635640738205,-2.79683400205842,-0.531277384517208,,-4.707297354205541,,
,5971.0,1142.0,2461.0,928.0,1908.0,2253.0,2532.0,,,,-0.501665800608855,-2.79682896793541,-0.53054120442457,,-4.669989115678963,,
,5975.0,1142.0,2463.0,929.0,1911.0,2253.0,2545.0,,,,-0.501818088414404,-2.79668112239858,-0.530809944748573,,-4.593223864115547,,
,5975.0,1143.0,2461.0,929.0,1914.0,2244.0,2551.0,,,,-0.502003753743562,-2.7970002953334,-0.532104402845525,,-4.471758216016096,,
,5979.0,1143.0,2462.0,930.0,1907.0,2246.0,2539.0,,,,-0.502114614078005,-2.79723817741032,-0.532142605270314,,-4.301040870033622,,
,5977.0,1144.0,2460.0,929.0,1908.0,2252.0,2530.0,,,,-0.502195829717327,-2.79704889982153,-0.531541193610322,,-4.07754909834973,,
,5984.0,1145.0,2465.0,932.0,1913.0,2252.0,2540.0,,,,-0.502245439769238,-2.7969207658398,-0.531989538652824,,-3.7990958654806506,,
,5983.0,1144.0,2462.0,929.0,1913.0,2259.0,2547.0,,,,-0.502226684217315,-2.79709030939057,-0.531406032351142,,-3.4650783053706835,,
,5984.0,1146.0,2465.0,930.0,1903.0,2264.0,2556.0,,,,-0.502188082739413,-2.79697097483059,-0.531820143136632,,-3.0766409130064125,,
,5985.0,1146.0,2466.0,930.0,1906.0,2271.0,2543.0,,,,-0.50218860816062,-2.79707469579138,-0.53143339208174,,-2.6367322395702533,,
,5987.0,1147.0,2466.0,930.0,1901.0,2272.0,2572.0,,,,-0.502300061042034,-2.79698515683834,-0.532206700487992,,-2.150042435118834,,
,5989.0,1145.0,2467.0,934.0,1901.0,2283.0,2548.0,,,,-0.502391891408661,-2.79710933156772,-0.531666414969115,,-1.6228208728733209,,
,5989.0,1147.0,2468.0,932.0,1906.0,2263.0,2543.0,,,,-0.502411657433569,-2.79709437635305,-0.532472804645318,,-1.0625874060378122,,
,5991.0,1146.0,2466.0,930.0,1898.0,2279.0,2548.0,,,,-0.502359005120841,-2.79707567325598,-0.532346326666413,,-0.4777647197937433,,
,5993.0,1147.0,2470.0,932.0,1901.0,2268.0,2563.0,,,,-0.502429011412468,-2.7971426057146,-0.53194296346147,,0.12273110514399682,,
,5996.0,1147.0,2469.0,930.0,1905.0,2263.0,2551.0,,,,-0.502674466236392,-2.79716255269437,-0.532698623604395,,0.7299019326657056,,
,5998.0,1148.0,2468.0,935.0,1905.0,2260.0,2548.0,,,,-0.502657074200456,-2.79735654609135,-0.532688614465261,,1.3350448975639202,,
,5997.0,1148.0,2470.0,932.0,1908.0,2275.0,2541.0,,,,-0.502395749921199,-2.79723254611901,-0.532322420279296,,1.9300680103966164,,
,6002.0,1150.0,2469.0,933.0,1901.0,2272.0,2546.0,,,,-0.502539307655243,-2.79734877816894,-0.532072320985811,,2.5077257230521375,,
,6004.0,1149.0,2471.0,936.0,1906.0,2290.0,2565.0,,,,-0.502643652128426,-2.79749836508446,-0.532647573428333,,3.0617646375971277,,
,6004.0,1151.0,2472.0,934.0,1908.0,2290.0,2556.0,,,,-0.502847232406909,-2.79719582405632,-0.532340667582573,,3.586976550677031,,
,6004.0,1148.0,2471.0,935.0,1907.0,2261.0,2552.0,,,,-0.503060648905511,-2.79736039930492,-0.532129893158035,,4.079161955457535,,
,6007.0,1152.0,2473.0,935.0,1907.0,2263.0,2559.0,,,,-0.502847399696541,-2.79730962297411,-0.531955485335418,,4.535012600811602,,
,6011.0,1153.0,2477.0,934.0,1905.0,2255.0,2555.0,,,,-0.502425103228245,-2.79719166549356,-0.531693329641883,,4.95192703169314,,
,6012.0,1153.0,2474.0,936.0,1901.0,2266.0,2549.0,,,,-0.502710694313537,-2.79718212769719,-0.532268671434926,,5.327778168748621,,
,6010.0,1150.0,2473.0,932.0,1904.0,2273.0,2545.0,,,,-0.502331860715894,-2.79700155954857,-0.532016138299839,,5.660656810438051,,
,6013.0,1151.0,2472.0,935.0,1890.0,2280.0,2546.0,,,,-0.502340232185468,-2.79719227108324,-0.531252318425855,,5.948619295793757,,
,6019.0,1155.0,2476.0,935.0,1898.0,2272.0,2536.0,,,,-0.502263627909198,-2.79720678715859,-0.532179716871082,,6.189471023040318,,
,6021.0,1153.0,2477.0,937.0,1906.0,2273.0,2550.0,,,,-0.502185844048056,-2.79719922161458,-0.531966761004611,,6.380619151490405,,
,6021.0,1154.0,2477.0,935.0,1909.0,2289.0,2565.0,,,,-0.502225444421074,-2.7972296366705,-0.532260107074314,,6.519026105974917,,
,6024.0,1153.0,2476.0,937.0,1907.0,2285.0,2552.0,,,,-0.50209615123688,-2.79693489392127,-0.532134284870936,,6.6012886174473495,,
,6025.0,1155.0,2476.0,935.0,1904.0,2277.0,2560.0,,,,-0.502185751013343,-2.79708242565115,-0.531965824509469,,6.623853752283579,,
,6028.0,1157.0,2478.0,936.0,1904.0,2274.0,2554.0,,,,-0.502073715355813,-2.79685673254721,-0.53216857823221,,6.583364379946372,,
,6029.0,1155.0,2482.0,936.0,1891.0,2270.0,2555.0,,,,-0.501879869756545,-2.79704354181883,-0.531464575219431,,6.477104778403639,,
,6029.0,1156.0,2480.0,938.0,1896.0,2272.0,2546.0,,,,-0.502094501133508,-2.79692364752553,-0.531515861381754,,6.303496838772461,,
,6033.0,1157.0,2479.0,938.0,1909.0,2257.0,2546.0,,,,-0.501867785072583,-2.79691838555485,-0.531862528108154,,6.0625826837903345,,
,6036.0,1156.0,2483.0,938.0,1906.0,2264.0,2540.0,,,,-0.501750517009133,-2.79662311634887,-0.531479884830027,,5.756423567332013,,
,6038.0,1157.0,2481.0,938.0,1890.0,2274.0,2537.0,,,,-0.501588881639066,-2.79657660515586,-0.531767534702009,,5.389349656888376,,
,6039.0,1158.0,2482.0,937.0,1899.0,2272.0,2540.0,,,,-0.501784279429979,-2.79669530041927,-0.531871617347479,,4.968011333649475,,
,6042.0,1159.0,2485.0,939.0,1896.0,2284.0,2549.0,,,,-0.501757448287957,-2.79685874753812,-0.532025695414381,,4.501208539950865,,
,6044.0,1160.0,2485.0,940.0,1900.0,2257.0,2565.0,,,,-0.502111078596489,-2.796808347661,-0.531613793781611,,3.999506305222159,,
,6049.0,1161.0,2483.0,941.0,1898.0,2250.0,2563.0,,,,-0.501977684263113,-2.79677335585663,-0.531899941265695,,3.474675423422097,,
2025-08-19 23:03:04,6046.0,1158.0,2485.0,939.0,1907.0,2284.0,2554.0,,,2025/08/19 11:03:04 PM,-0.501825147766987,-2.79664215429205,-0.531932405635072,,2.939020581861427,,
,6050.0,1160.0,2484.0,939.0,1912.0,2267.0,2561.0,,,,-0.50197742209102,-2.79673893041993,-0.532050102136799,,2.404669611926634,,
,6053.0,1162.0,2489.0,940.0,1907.0,2281.0,2565.0,,,,-0.501418055683622,-2.79668283741746,-0.531309537995902,,1.8828962634305533,,
,6054.0,1163.0,2487.0,943.0,1903.0,2277.0,2560.0,,,,-0.501470703927551,-2.79670410816315,-0.5313052634383,,1.3835376334596732,,
,6054.0,1160.0,2486.0,938.0,1909.0,2249.0,2569.0,,,,-0.501478573250142,-2.79666320343926,-0.531715954487692,,0.9145504116794467,,
,6052.0,1161.0,2486.0,943.0,1910.0,2266.0,2550.0,,,,-0.501171113824736,-2.7966958437446,-0.531384646960998,,0.4817315912960722,,
,6049.0,1161.0,2488.0,939.0,1899.0,2287.0,2546.0,,,,-0.501047663620357,-2.79644398166992,-0.53157781843046,,0.08861189419270257,,
,6045.0,1159.0,2485.0,941.0,1903.0,2295.0,2554.0,,,,-0.501497762352458,-2.7965864142363,-0.531120249522944,,-0.26348541282960564,,
,6039.0,1157.0,2486.0,938.0,1894.0,2308.0,2543.0,,,,-0.501297966701413,-2.79659396022495,-0.531553365994146,,-0.5752416647181567,,
,6035.0,1156.0,2481.0,939.0,1906.0,2276.0,2554.0,,,,-0.501079043079831,-2.79649263468395,-0.530739907443195,,-0.8490292220717208,,
,6027.0,1156.0,2482.0,936.0,1901.0,2280.0,2547.0,,,,-0.500857115867924,-2.79643446969071,-0.531108470995958,,-1.0885281960225475,,
,6024.0,1154.0,2479.0,936.0,1902.0,2286.0,2554.0,,,,-0.501199929309839,-2.79662649185304,-0.530273461785634,,-1.2983155463250489,,
,6016.0,1152.0,2477.0,934.0,1900.0,2292.0,2543.0,,,,-0.501028587720105,-2.79631583779845,-0.53112190998523,,-1.4834626757357616,,
,6010.0,1151.0,2473.0,934.0,1904.0,2267.0,2543.0,,,,-0.50108220907231,-2.7962266807789,-0.530347802800892,,-1.6491671172885298,,
,6007.0,1149.0,2471.0,935.0,1898.0,2272.0,2540.0,,,,-0.500985719856452,-2.7963175055726,-0.530816281864172,,-1.8004325149810314,,
,6001.0,1150.0,2472.0,935.0,1899.0,2269.0,2553.0,,,,-0.500527334144408,-2.79613576488321,-0.530429531941283,,-1.9418018634344667,,
,5995.0,1148.0,2471.0,933.0,1907.0,2267.0,2545.0,,,,-0.500402881742684,-2.79612609580313,-0.53066428902787,,-2.0771433218055124,,
,5989.0,1144.0,2469.0,930.0,1906.0,2270.0,2543.0,,,,-0.500578961692297,-2.79622042899039,-0.530476493174223,,-2.209485890365281,,
,5991.0,1146.0,2467.0,931.0,1896.0,2251.0,2526.0,,,,-0.500532154623597,-2.79592280608109,-0.530630152763028,,-2.3409031239354454,,
,5986.0,1143.0,2465.0,932.0,1900.0,2276.0,2526.0,,,,-0.500802378253771,-2.79643197093272,-0.529968532646886,,-2.4724457933201345,,
,5984.0,1144.0,2465.0,930.0,1903.0,2290.0,2537.0,,,,-0.501039790749356,-2.79632411174634,-0.530934198811067,,-2.604127684492579,,
,5976.0,1142.0,2462.0,928.0,1895.0,2271.0,2545.0,,,,-0.501115122133374,-2.79636601305089,-0.530083903028729,,-2.734971107466168,,
,5975.0,1145.0,2465.0,932.0,1899.0,2282.0,2543.0,,,,-0.500938134326637,-2.79620134544403,-0.52905418565629,,-2.8631188743502394,,
,5975.0,1141.0,2463.0,931.0,1894.0,2286.0,2564.0,,,,-0.50031150032256,-2.79619461382235,-0.529765748494661,,-2.986016601644495,,
,5973.0,1142.0,2464.0,930.0,1888.0,2308.0,2581.0,,,,-0.50052202670371,-2.79618406824731,-0.529800926273212,,-3.1006628674321095,,
,5972.0,1142.0,2460.0,930.0,1897.0,2296.0,2573.0,,,,-0.500545544301332,-2.79616160058079,-0.529539593880523,,-3.203915507240029,,
,5971.0,1140.0,2462.0,930.0,1893.0,2318.0,2570.0,,,,-0.500624686586842,-2.79591991708836,-0.529380671022987,,-3.2928318626903033,,
,5970.0,1141.0,2461.0,929.0,1893.0,2312.0,2559.0,,,,-0.500574245185647,-2.79622021402273,-0.530138923283732,,-3.365011923386409,,
,5970.0,1139.0,2464.0,930.0,1896.0,2311.0,2557.0,,,,-0.500330779565946,-2.79614609059744,-0.529825892247918,,-3.4189088514596118,,
,5969.0,1141.0,2459.0,929.0,1889.0,2287.0,2549.0,,,,-0.500121482748596,-2.79580051210765,-0.528896177616885,,-3.4540726546862293,,
,5969.0,1139.0,2462.0,929.0,1885.0,2278.0,2557.0,,,,-0.49979628209861,-2.79532857507166,-0.529419105065976,,-3.4712989855637244,,
,5965.0,1141.0,2461.0,929.0,1887.0,2284.0,2556.0,,,,-0.500002089865565,-2.79573740411457,-0.528563910146116,,-3.4726641623773307,,
,5966.0,1140.0,2461.0,927.0,1896.0,2297.0,2545.0,,,,-0.49944818659452,-2.79520702407915,-0.528494739958804,,-3.461437674684768,,
,5967.0,1137.0,2460.0,927.0,1886.0,2301.0,2544.0,,,,-0.499316511894733,-2.79528558926517,-0.527666451436525,,-3.441873686311789,,
,5966.0,1139.0,2463.0,928.0,1892.0,2308.0,2551.0,,,,-0.499418094468136,-2.79490266649481,-0.527993795454635,,-3.4188930043486954,,
,5968.0,1140.0,2462.0,929.0,1882.0,2293.0,2545.0,,,,-0.499196688562353,-2.79503788113821,-0.526606670360917,,-3.3976762019088174,,
,5965.0,1140.0,2464.0,928.0,1886.0,2304.0,2544.0,,,,-0.499305918083452,-2.79498454849891,-0.528116635591557,,-3.3831964186122594,,
,5966.0,1140.0,2460.0,927.0,1887.0,2283.0,2562.0,,,,-0.499166779372448,-2.79455371347932,-0.527907044900649,,-3.3797263072510746,,
,5967.0,1139.0,2460.0,928.0,1886.0,2267.0,2556.0,,,,-0.498961094375415,-2.79486281299868,-0.527679887232158,,-3.3903575096578495,,
,5968.0,1140.0,2462.0,931.0,1892.0,2269.0,2537.0,,,,-0.498961657427554,-2.79488851634991,-0.527494264539206,,-3.416572988062935,,
,5969.0,1140.0,2463.0,929.0,1887.0,2270.0,2530.0,,,,-0.498765161470374,-2.79488976662095,-0.527844280834098,,-3.4579124103239067,,
,5970.0,1138.0,2459.0,927.0,1895.0,2291.0,2539.0,,,,-0.498820826354873,-2.79500212344026,-0.527945263107275,,-3.511768095250656,,
,5969.0,1140.0,2463.0,927.0,1905.0,2297.0,2547.0,,,,-0.499764235159863,-2.79538574346122,-0.5287252858922,,-3.5733429038033866,,
,5972.0,1141.0,2461.0,930.0,1911.0,2287.0,2539.0,,,,-0.500284524195304,-2.79594262694834,-0.529193747140793,,-3.635790997899937,,
,5970.0,1142.0,2461.0,930.0,1909.0,2268.0,2530.0,,,,-0.50072122539429,-2.79605556320841,-0.530092597981992,,-3.6905471804713303,,
,5969.0,1142.0,2462.0,929.0,1896.0,2299.0,2534.0,,,,-0.501381872087136,-2.7962660395461,-0.53026555038174,,-3.7278313278160704,,
,5970.0,1139.0,2460.0,928.0,1902.0,2300.0,2554.0,,,,-0.502025337642977,-2.79686294010634,-0.530457600698657,,-3.737293567215364,,
,5969.0,1142.0,2462.0,929.0,1898.0,2341.0,2541.0,,,,-0.502165577735917,-2.79670900022235,-0.531440989497426,,-3.7087470802444438,,
,5969.0,1139.0,2462.0,930.0,1896.0,2338.0,2547.0,,,,-0.502351307115268,-2.7971999161698,-0.531375911521652,,-3.632922632677877,,
,5969.0,1139.0,2461.0,929.0,1897.0,2307.0,2548.0,,,,-0.502789456210507,-2.79750549652198,-0.531796775554968,,-3.5021744343940293,,
,5968.0,1137.0,2461.0,928.0,1887.0,2314.0,2565.0,,,,-0.502806572942415,-2.79735213262938,-0.532022190308849,,-3.3110706287863874,,
,5967.0,1141.0,2460.0,929.0,1889.0,2320.0,2571.0,,,,-0.503073526391272,-2.79750677730894,-0.531666254690632,,-3.0568121632643668,,
,5967.0,1138.0,2461.0,927.0,1887.0,2304.0,2538.0,,,,-0.502953708498339,-2.79730820792086,-0.531910964838702,,-2.739439702888504,,
,5968.0,1138.0,2461.0,927.0,1888.0,2308.0,2532.0,,,,-0.50293314976393,-2.79760505178319,-0.531928408429679,,-2.361808712790786,,
,5964.0,1139.0,2461.0,928.0,1892.0,2313.0,2551.0,,,,-0.503036728859214,-2.79733685372076,-0.531675912101364,,-1.9293363870151021,,
,5965.0,1139.0,2461.0,929.0,1885.0,2330.0,2549.0,,,,-0.503042910988182,-2.79750795469081,-0.531710845754954,,-1.4495479748911166,,
,5967.0,1139.0,2464.0,926.0,1896.0,2296.0,2546.0,,,,-0.503184019606281,-2.79735318498119,-0.531171372915062,,-0.9314706922574825,,
,5966.0,1140.0,2461.0,931.0,1897.0,2283.0,2542.0,,,,-0.503129960508664,-2.79771971006046,-0.531024297827727,,-0.38493785656455476,,
,5964.0,1138.0,2460.0,927.0,1896.0,2285.0,2536.0,,,,-0.503187199655563,-2.79757928151754,-0.531434410150417,,0.18012711366100054,,
,5966.0,1143.0,2462.0,927.0,1889.0,2306.0,2534.0,,,,-0.50321995599531,-2.79769738519181,-0.531803314127515,,0.7543772292875508,,
,5968.0,1141.0,2460.0,930.0,1897.0,2291.0,2527.0,,,,-0.503002928378142,-2.79773748737973,-0.531968509325589,,1.329595197926303,,
,5966.0,1140.0,2460.0,928.0,1898.0,2278.0,2531.0,,,,-0.502675601034553,-2.79746643355458,-0.530933058345512,,1.899080137960521,,
,5963.0,1137.0,2460.0,924.0,1900.0,2303.0,2552.0,,,,-0.502259912289004,-2.79759500199076,-0.53062351226013,,2.4578292858146824,,
,5967.0,1139.0,2462.0,928.0,1895.0,2305.0,2563.0,,,,-0.502291750496623,-2.79742788396655,-0.530499311942749,,3.0024955150742727,,
,5970.0,1142.0,2461.0,929.0,1891.0,2292.0,2570.0,,,,-0.502986173831396,-2.7973479808582,-0.530844470666626,,3.5311248314928765,,
,5970.0,1142.0,2463.0,931.0,1894.0,2292.0,2554.0,,,,-0.503026672491415,-2.79758696320504,-0.529848941691082,,4.04270369045651,,
,5972.0,1140.0,2461.0,929.0,1901.0,2290.0,2556.0,,,,-0.503262263023335,-2.79756249473035,-0.531100909916937,,4.536570619493912,,
,5973.0,1139.0,2462.0,929.0,1900.0,2277.0,2537.0,,,,-0.503245945137253,-2.79781292892766,-0.530939845375764,,5.011765865068421,,
,5972.0,1144.0,2464.0,929.0,1897.0,2293.0,2529.0,,,,-0.503052463783575,-2.79767680448865,-0.530895767693449,,5.46640283663239,,
,5973.0,1142.0,2463.0,931.0,1902.0,2287.0,2533.0,,,,-0.502728042005983,-2.79749385312249,-0.530105874735573,,5.89714438940611,,
,5974.0,1143.0,2464.0,927.0,1892.0,2270.0,2552.0,,,,-0.502341572087356,-2.7976543989578,-0.529766814567841,,6.298856480461,,
,5976.0,1141.0,2462.0,930.0,1889.0,2264.0,2547.0,,,,-0.502330636157803,-2.79736949634925,-0.530376304515283,,6.664493947823298,,
,5977.0,1143.0,2465.0,930.0,1882.0,2290.0,2527.0,,,,-0.502248278042323,-2.79752261584341,-0.530168590935146,,6.985250512466071,,
,5982.0,1145.0,2465.0,930.0,1878.0,2311.0,2532.0,,,,-0.502091720486458,-2.79746965054143,-0.530533983490875,,7.250979181181461,,
,5983.0,1144.0,2467.0,931.0,1890.0,2307.0,2543.0,,,,-0.502274264797577,-2.79752765791379,-0.529825408276677,,7.450861191016103,,
,5980.0,1143.0,2464.0,929.0,1881.0,2300.0,2544.0,,,,-0.502233635868023,-2.79720622213956,-0.530446674288154,,7.5742731333454705,,
,5985.0,1143.0,2468.0,931.0,1887.0,2289.0,2546.0,,,,-0.502066049335066,-2.79704851788804,-0.530189285305952,,7.611775653809034,,
,5983.0,1144.0,2468.0,931.0,1887.0,2287.0,2547.0,,,,-0.501876692812769,-2.79722693767504,-0.529808765549556,,7.556126618650045,,
,5987.0,1143.0,2469.0,933.0,1905.0,2308.0,2549.0,,,,-0.501764335207343,-2.79731740492954,-0.529852450036147,,7.40321013819229,,
,5988.0,1144.0,2468.0,929.0,1901.0,2305.0,2557.0,,,,-0.501625078431488,-2.79720492810271,-0.529831079533885,,7.152772605023665,,
,5991.0,1144.0,2468.0,929.0,1896.0,2299.0,2557.0,,,,-0.501532737618839,-2.79719995476667,-0.529187078063203,,6.808869021337692,,
,5994.0,1145.0,2471.0,934.0,1889.0,2289.0,2564.0,,,,-0.50157712995116,-2.7969836769531,-0.529526928935605,,6.3799475052554575,,
,5995.0,1146.0,2473.0,934.0,1892.0,2295.0,2555.0,,,,-0.501856382186178,-2.79727542960357,-0.53098208655863,,5.878536143848851,,
,5993.0,1145.0,2469.0,932.0,1898.0,2255.0,2536.0,,,,-0.50168531546499,-2.79715718785725,-0.529758217550152,,5.320541713071172,,
,5998.0,1146.0,2473.0,933.0,1899.0,2260.0,2544.0,,,,-0.50148746941268,-2.79713595778652,-0.530490636048088,,4.724218870530789,,
,5998.0,1149.0,2472.0,935.0,1899.0,2300.0,2548.0,,,,-0.50139262105988,-2.79723445463977,-0.529865150002552,,4.108913094479663,,
,6001.0,1149.0,2473.0,934.0,1899.0,2311.0,2537.0,,,,-0.501471732676152,-2.79709403727759,-0.530139120884699,,3.4937117513666722,,
,6001.0,1149.0,2474.0,933.0,1896.0,2309.0,2549.0,,,,-0.501473995675359,-2.79676616246509,-0.530426318979532,,2.8961483815826625,,
,6004.0,1149.0,2474.0,932.0,1906.0,2302.0,2544.0,,,,-0.501557962423722,-2.79700430796299,-0.530575230788288,,2.331093836594834,,
,6007.0,1150.0,2474.0,937.0,1891.0,2296.0,2552.0,,,,-0.501660190201172,-2.79693983289952,-0.529894751318444,,1.8099379870310675,,
,6009.0,1151.0,2475.0,935.0,1891.0,2297.0,2551.0,,,,-0.501670190519837,-2.79684566362691,-0.530410905483532,,1.3401245121141587,,
,6010.0,1150.0,2476.0,934.0,1900.0,2321.0,2540.0,,,,-0.501405904295677,-2.7969176738275,-0.530739322828919,,0.9250566267816956,,
,6009.0,1151.0,2477.0,935.0,1898.0,2299.0,2562.0,,,,-0.501686991164825,-2.7966811151231,-0.530123560932192,,0.5643501341799005,,
,6016.0,1150.0,2476.0,934.0,1889.0,2296.0,2561.0,,,,-0.501411001108546,-2.79644046836956,-0.529707305154395,,0.2543766553314263,,
,6017.0,1150.0,2475.0,934.0,1883.0,2308.0,2562.0,,,,-0.501417561025513,-2.7963769880464,-0.530181976481343,,-0.010982871407093696,,
,6015.0,1152.0,2476.0,934.0,1893.0,2310.0,2561.0,,,,-0.501872159645256,-2.79657453754524,-0.52969040395957,,-0.23946530514041336,,
,6016.0,1153.0,2476.0,935.0,1891.0,2296.0,2545.0,,,,-0.501595456769823,-2.7963531791689,-0.530055706508949,,-0.4395238069583014,,
,6020.0,1151.0,2478.0,937.0,1878.0,2288.0,2554.0,,,,-0.501489613583244,-2.79637950410336,-0.529313042328001,,-0.6194793544801354,,
,6024.0,1154.0,2479.0,936.0,1877.0,2277.0,2549.0,,,,-0.501695713290014,-2.79657689705504,-0.529221658609548,,-0.7867915270285513,,
,6025.0,1151.0,2481.0,935.0,1890.0,2314.0,2546.0,,,,-0.502050639534318,-2.7965702956808,-0.530022273977957,,-0.9474963377377319,,
,6025.0,1153.0,2482.0,939.0,1900.0,2283.0,2546.0,,,,-0.502163487385787,-2.79658537247872,-0.530151664063682,,-1.1058399881287995,,
,6027.0,1154.0,2481.0,938.0,1883.0,2307.0,2561.0,,,,-0.501975586165323,-2.79664933132654,-0.529345018848021,,-1.2641197800252033,,
,6030.0,1152.0,2482.0,936.0,1886.0,2290.0,2554.0,,,,-0.501709999774226,-2.79665707453231,-0.530032001444212,,-1.4227273513703376,,
,6032.0,1156.0,2482.0,938.0,1873.0,2285.0,2542.0,,,,-0.501894598686376,-2.79662665945781,-0.530074295888493,,-1.580374317018201,,
,6031.0,1151.0,2479.0,935.0,1883.0,2301.0,2549.0,,,,-0.501613578288441,-2.79650937511908,-0.530164296941517,,-1.7344659510246372,,
,6035.0,1158.0,2483.0,937.0,1894.0,2345.0,2551.0,,,,-0.501835379438676,-2.79644183391735,-0.529869765904749,,-1.8815757530554644,,
,6038.0,1155.0,2485.0,939.0,1888.0,2311.0,2550.0,,,,-0.501565470678352,-2.7965779647376,-0.528920408454358,,-2.0179650889872907,,
,6041.0,1158.0,2486.0,940.0,1892.0,2301.0,2548.0,,,,-0.501450140304243,-2.79664555391458,-0.529752962453244,,-2.1400902656578946,,
,6041.0,1155.0,2484.0,938.0,1889.0,2297.0,2545.0,,,,-0.501489263665522,-2.79664906502819,-0.529044793716956,,-2.245045388106834,,
,6044.0,1160.0,2485.0,942.0,1884.0,2280.0,2537.0,,,,-0.501514488796941,-2.79648979861568,-0.529453860408223,,-2.3309016610652806,,
,6048.0,1160.0,2488.0,941.0,1891.0,2302.0,2548.0,,,,-0.501332020201213,-2.79655817423908,-0.528508507105358,,-2.3969193768905575,,
,6047.0,1159.0,2488.0,940.0,1900.0,2308.0,2545.0,,,,-0.50097162277825,-2.7965624589305,-0.529383647631858,,-2.4436246694277988,,
