TimeLabel,MEAS1_PPG1,MEAS1_PPG2,MEAS1_PPG3,MEAS1_PPG4,ACCX,ACCY,ACCZ,HR_timestamp,HR_value,radar_timestamp,phase_rx0,phase_rx1,phase_rx2,timestep,n_process,original_rate,calculated_rate
2025-07-04 15:52:33,8041.0,1329.0,4329.0,1490.0,2039.0,2856.0,1787.0,2025-07-04 15:52:33,63.0,2025/07/04 03:52:33 PM,-0.265973898960647,-2.48321190484523,-0.155559269783706,2025/07/04 03:52:33 PM,8.211793141505058,13.293943405151367,12.977450529222278
,8020.0,1325.0,4321.0,1482.0,2047.0,2862.0,1795.0,2025-07-04 15:52:34,63.0,,-0.265695371103262,-2.4831774283193,-0.15555415703856,2025/07/04 03:52:43 PM,7.547465351652725,13.921113967895508,15.787139689578709
,7999.0,1325.0,4315.0,1477.0,2048.0,2853.0,1781.0,2025-07-04 15:52:35,63.0,,-0.265869905765888,-2.4831626869218,-0.154959872690249,2025/07/04 03:52:53 PM,6.823039635748925,16.38065528869629,17.894736842105267
,7981.0,1323.0,4312.0,1474.0,2048.0,2851.0,1796.0,2025-07-04 15:52:36,63.0,,-0.265980162567661,-2.48284270688322,-0.155021185659398,2025/07/04 03:53:03 PM,6.062816076348549,15.206371307373049,13.852813852813842
,7961.0,1321.0,4303.0,1468.0,2036.0,2865.0,1803.0,2025-07-04 15:52:37,63.0,,-0.265708342178638,-2.48236118016913,-0.155019999559952,2025/07/04 03:53:13 PM,5.290256920578156,15.129683494567873,17.047281431780956
,7941.0,1316.0,4298.0,1462.0,2021.0,2864.0,1815.0,2025-07-04 15:52:38,63.0,,-0.265678295610214,-2.48198551467943,-0.15378703839671,2025/07/04 03:53:23 PM,4.526939657065188,15.075377464294434,18.67030965391621
,7929.0,1315.0,4296.0,1460.0,2053.0,2865.0,1800.0,2025-07-04 15:52:39,63.0,,-0.265674720595301,-2.48183191144683,-0.153944347616252,2025/07/04 03:53:33 PM,3.791708740572221,15.250544548034668,18.369680633831592
,7917.0,1316.0,4289.0,1457.0,2059.0,2856.0,1797.0,2025-07-04 15:52:40,62.0,,-0.265713933976977,-2.48168903051825,-0.15414171072521,2025/07/04 03:53:43 PM,3.100068647622095,16.32209014892578,16.022195248829547
,7904.0,1311.0,4284.0,1453.0,2054.0,2854.0,1789.0,2025-07-04 15:52:41,62.0,,-0.265673672234651,-2.48154050594263,-0.152602886431889,2025/07/04 03:53:53 PM,2.4638335244571534,12.847966194152832,13.37767923133775
,7894.0,1307.0,4279.0,1451.0,2053.0,2865.0,1795.0,2025-07-04 15:52:42,63.0,,-0.26588871180774,-2.48123478788492,-0.153144885354628,2025/07/04 03:54:03 PM,1.891023795618051,15.11879062652588,15.596901672851047
,7887.0,1308.0,4280.0,1451.0,2052.0,2875.0,1801.0,2025-07-04 15:52:43,63.0,,-0.265299164870784,-2.48094631894431,-0.152774897674565,2025/07/04 03:54:13 PM,1.3859812461200798,14.827018737792969,13.468013468013496
,7880.0,1306.0,4278.0,1451.0,2038.0,2868.0,1754.0,2025-07-04 15:52:44,63.0,,-0.26523002094017,-2.48052487158612,-0.152884184525661,2025/07/04 03:54:23 PM,0.9496629807841768,14.334470748901367,15.238095238095237
,7877.0,1307.0,4271.0,1448.0,2035.0,2890.0,1763.0,2025-07-04 15:52:45,63.0,,-0.264888475291404,-2.48059894147351,-0.152275090154984,2025/07/04 03:54:33 PM,0.5800706778428839,14.8619966506958,15.02331170391732
,7872.0,1304.0,4268.0,1444.0,2050.0,2922.0,1782.0,2025-07-04 15:52:46,62.0,,-0.26479836161773,-2.479944058064,-0.151706700445924,2025/07/04 03:54:43 PM,0.2727722471939416,14.634146690368652,15.438123803229777
,7870.0,1305.0,4271.0,1445.0,2068.0,2899.0,1790.0,2025-07-04 15:52:47,61.0,,-0.264716399217975,-2.48004650944495,-0.151548226622711,2025/07/04 03:54:53 PM,0.021475700242898802,15.206371307373049,14.688759516345744
,7872.0,1303.0,4265.0,1445.0,2070.0,2867.0,1790.0,2025-07-04 15:52:48,60.0,,-0.264483151221401,-2.47960323408423,-0.150496310238022,2025/07/04 03:55:03 PM,-0.18138167610033004,15.60178279876709,17.210960960960964
,7869.0,1304.0,4266.0,1444.0,2061.0,2874.0,1784.0,2025-07-04 15:52:49,60.0,,-0.264374066411638,-2.47932468826266,-0.14988428480542,2025/07/04 03:55:13 PM,-0.3440618401139509,15.441176414489746,14.817073170731717
,7868.0,1301.0,4265.0,1443.0,2073.0,2875.0,1788.0,2025-07-04 15:52:50,60.0,,-0.264383605892601,-2.47917898648017,-0.149577634055414,2025/07/04 03:55:23 PM,-0.47500014781361266,15.671642303466797,17.707024158637058
,7866.0,1306.0,4265.0,1442.0,2060.0,2892.0,1769.0,2025-07-04 15:52:51,60.0,,-0.264156741077195,-2.4790576801792,-0.150458958867288,,-0.5823467379269971,,
,7870.0,1306.0,4262.0,1445.0,2063.0,2890.0,1761.0,2025-07-04 15:52:52,60.0,,-0.264182186115958,-2.47881049036189,-0.148876885953568,,-0.6735896013013856,,
,7873.0,1306.0,4264.0,1445.0,2056.0,2873.0,1773.0,2025-07-04 15:52:53,61.0,,-0.263914964276767,-2.4781486519284,-0.149872784423707,,-0.7552665825981772,,
,7872.0,1303.0,4263.0,1445.0,2063.0,2874.0,1767.0,2025-07-04 15:52:54,61.0,,-0.263673622391615,-2.47810613264647,-0.148623530330596,,-0.8327670511131716,,
,7875.0,1303.0,4261.0,1444.0,2047.0,2878.0,1764.0,2025-07-04 15:52:55,61.0,,-0.263576109248359,-2.47775494332931,-0.148096710384356,,-0.9102187485415387,,
,7876.0,1304.0,4263.0,1443.0,2047.0,2868.0,1770.0,2025-07-04 15:52:56,61.0,,-0.263206263537099,-2.47777962617417,-0.147961111838233,,-0.9904517426638341,,
,7880.0,1306.0,4264.0,1446.0,2047.0,2860.0,1761.0,2025-07-04 15:52:57,61.0,,-0.263299286115333,-2.4773563277981,-0.148603130425233,,-1.0750296047466545,,
,7881.0,1308.0,4261.0,1447.0,2048.0,2880.0,1748.0,2025-07-04 15:52:58,62.0,,-0.263257610052481,-2.4774144999559,-0.146480879461767,,-1.1643377500065761,,
,7882.0,1305.0,4262.0,1447.0,2063.0,2873.0,1763.0,2025-07-04 15:52:59,62.0,,-0.26303424162797,-2.47704726924775,-0.146531275909275,,-1.257719931349653,,
,7884.0,1306.0,4264.0,1449.0,2057.0,2877.0,1776.0,2025-07-04 15:53:00,62.0,,-0.262864401178429,-2.47666916653326,-0.14730397390008,,-1.3536554144756319,,
,7889.0,1307.0,4263.0,1448.0,2037.0,2857.0,1775.0,2025-07-04 15:53:01,63.0,,-0.262944930292497,-2.47686750159236,-0.1477503538598,,-1.4499703276823515,,
,7891.0,1307.0,4265.0,1450.0,2038.0,2860.0,1771.0,2025-07-04 15:53:02,62.0,,-0.262693879598224,-2.47708249614794,-0.14594113289531,,-1.5440760078062759,,
,7895.0,1306.0,4265.0,1449.0,2046.0,2879.0,1787.0,2025-07-04 15:53:03,61.0,,-0.262566974107935,-2.47682254112887,-0.146632516255598,,-1.63322434142813,,
,7891.0,1308.0,4264.0,1450.0,2033.0,2881.0,1787.0,2025-07-04 15:53:04,61.0,,-0.262596216487116,-2.4769869929758,-0.146852961573982,,-1.7147656978999397,,
,7899.0,1307.0,4264.0,1450.0,2051.0,2861.0,1784.0,2025-07-04 15:53:05,61.0,,-0.262526998492538,-2.4771821847242,-0.146804214810982,,-1.7863908509966102,,
,7894.0,1307.0,4266.0,1450.0,2055.0,2862.0,1779.0,2025-07-04 15:53:06,61.0,,-0.262651475626861,-2.47656384136727,-0.145729828044244,,-1.8463366156366756,,
,7895.0,1307.0,4264.0,1448.0,2056.0,2868.0,1776.0,2025-07-04 15:53:07,62.0,,-0.262473508218223,-2.47652681868229,-0.145315041343701,,-1.8935373009378405,,
,7890.0,1303.0,4261.0,1447.0,2056.0,2855.0,1796.0,2025-07-04 15:53:08,62.0,,-0.262592185759861,-2.4767385518086,-0.147264890796063,,-1.9277101670124361,,
,7889.0,1304.0,4262.0,1449.0,2038.0,2851.0,1796.0,2025-07-04 15:53:09,63.0,,-0.262505588084586,-2.47698068231654,-0.147290514993118,,-1.949370959090597,,
,7885.0,1303.0,4260.0,1446.0,2041.0,2866.0,1794.0,2025-07-04 15:53:10,62.0,,-0.262673743738421,-2.47678989868322,-0.147159266600116,,-1.95978308529252,,
,7886.0,1301.0,4257.0,1445.0,2038.0,2857.0,1797.0,2025-07-04 15:53:11,62.0,,-0.262571134792043,-2.47710150164082,-0.146956288772085,,-1.9608497037259225,,
,7883.0,1304.0,4257.0,1442.0,2054.0,2862.0,1806.0,2025-07-04 15:53:12,63.0,,-0.262564207382642,-2.47733961231838,-0.147431769902369,,-1.9549614659171675,,
,7881.0,1302.0,4257.0,1449.0,2052.0,2874.0,1778.0,2025-07-04 15:53:13,63.0,,-0.262488676921455,-2.47745662672907,-0.146727040312431,,-1.9448141234029095,,
,7877.0,1299.0,4255.0,1444.0,2077.0,2853.0,1790.0,2025-07-04 15:53:14,64.0,,-0.262450995289678,-2.4774746949162,-0.147315381546939,,-1.9332101266357444,,
,7873.0,1300.0,4255.0,1442.0,2083.0,2851.0,1801.0,2025-07-04 15:53:15,65.0,,-0.262336889792466,-2.47725631823514,-0.146549474049282,,-1.922857347454453,,
,7870.0,1299.0,4252.0,1441.0,2074.0,2878.0,1791.0,2025-07-04 15:53:16,67.0,,-0.262212523620596,-2.47719519626675,-0.145056027575402,,-1.9161767906315508,,
,7871.0,1299.0,4252.0,1440.0,2078.0,2878.0,1788.0,2025-07-04 15:53:17,68.0,,-0.262021290028724,-2.47718742871655,-0.14669407281031,,-1.9151301525247006,,
,7868.0,1298.0,4251.0,1442.0,2077.0,2861.0,1813.0,2025-07-04 15:53:18,70.0,,-0.262074454741499,-2.47716088965235,-0.146347248588362,,-1.9210775426358289,,
,7867.0,1299.0,4249.0,1441.0,2082.0,2851.0,1794.0,2025-07-04 15:53:19,71.0,,-0.26200356036495,-2.47730788531182,-0.145599048630608,,-1.9346754079013708,,
,7866.0,1299.0,4248.0,1440.0,2059.0,2873.0,1784.0,2025-07-04 15:53:20,71.0,,-0.262207659397643,-2.47722614651469,-0.14663167295,,-1.9558241634242344,,
,7867.0,1298.0,4249.0,1438.0,2050.0,2886.0,1782.0,2025-07-04 15:53:21,72.0,,-0.262104067411801,-2.47742058495425,-0.14685102499685,,-1.9836735360068083,,
,7868.0,1299.0,4249.0,1440.0,2081.0,2871.0,1781.0,2025-07-04 15:53:22,71.0,,-0.261923812002395,-2.47700202859307,-0.145794074419779,,-2.0166904467875697,,
,7865.0,1298.0,4248.0,1439.0,2091.0,2869.0,1781.0,2025-07-04 15:53:23,70.0,,-0.261786985902801,-2.47681753641171,-0.145461051360241,,-2.0527888886837866,,
,7866.0,1299.0,4249.0,1442.0,2063.0,2850.0,1787.0,2025-07-04 15:53:24,69.0,,-0.261400839185361,-2.47658111588576,-0.144550640998109,,-2.0895137959339856,,
,7867.0,1295.0,4249.0,1439.0,2074.0,2849.0,1786.0,2025-07-04 15:53:25,67.0,,-0.261651023529511,-2.47623040318129,-0.144815341514527,,-2.1242625116863327,,
,7873.0,1299.0,4246.0,1438.0,2072.0,2862.0,1799.0,2025-07-04 15:53:26,66.0,,-0.261456853144375,-2.47629837187899,-0.144414092118497,,-2.154520401287323,,
,7874.0,1300.0,4249.0,1442.0,2045.0,2851.0,1794.0,2025-07-04 15:53:27,66.0,,-0.261347409560561,-2.47649657980371,-0.144708237317903,,-2.178083979320245,,
,7877.0,1298.0,4250.0,1442.0,2054.0,2863.0,1787.0,2025-07-04 15:53:28,66.0,,-0.261370323999537,-2.47570173872393,-0.144295112526133,,-2.193246969537938,,
,7881.0,1297.0,4248.0,1439.0,2043.0,2876.0,1791.0,2025-07-04 15:53:29,66.0,,-0.261240379731859,-2.47589435851089,-0.143941178454265,,-2.198931306163141,,
,7883.0,1300.0,4249.0,1441.0,2063.0,2858.0,1782.0,2025-07-04 15:53:30,66.0,,-0.261202095167582,-2.47632566892557,-0.144571174831965,,-2.1947540710787607,,
,7890.0,1301.0,4254.0,1441.0,2062.0,2856.0,1798.0,2025-07-04 15:53:31,66.0,,-0.261438620633691,-2.4774915999489,-0.145677465887508,,-2.181030458799107,,
,7892.0,1300.0,4251.0,1444.0,2066.0,2859.0,1804.0,2025-07-04 15:53:32,66.0,,-0.261631080155463,-2.4777551375421,-0.145349462412234,,-2.158720458111523,,
,7898.0,1300.0,4253.0,1443.0,2074.0,2870.0,1784.0,2025-07-04 15:53:33,66.0,,-0.26197725169781,-2.47773839195039,-0.145910666895722,,-2.129332149826317,,
,7900.0,1301.0,4257.0,1447.0,2073.0,2862.0,1768.0,2025-07-04 15:53:34,66.0,,-0.262153739105035,-2.47766332628071,-0.146171078856067,,-2.094796949091345,,
,7904.0,1301.0,4255.0,1444.0,2058.0,2885.0,1782.0,2025-07-04 15:53:35,66.0,,-0.261943782911806,-2.47774839271322,-0.146930273741408,,-2.057331780328235,,
,7911.0,1305.0,4258.0,1445.0,2055.0,2884.0,1763.0,2025-07-04 15:53:36,67.0,,-0.262004697688379,-2.47767073936839,-0.146497431506478,,-2.0193005595010733,,
,7915.0,1303.0,4258.0,1449.0,2040.0,2883.0,1772.0,2025-07-04 15:53:37,67.0,,-0.262007786965602,-2.47755145311128,-0.146428834771627,,-1.9830834203838599,,
,7920.0,1303.0,4258.0,1447.0,2053.0,2865.0,1786.0,2025-07-04 15:53:38,67.0,,-0.262027040757193,-2.47768292643884,-0.145864958150402,,-1.9509579808192805,,
,7924.0,1304.0,4263.0,1450.0,2041.0,2890.0,1790.0,2025-07-04 15:53:39,66.0,,-0.261673144877627,-2.47708448197377,-0.146355473412165,,-1.9249935428556744,,
,7928.0,1304.0,4265.0,1451.0,2065.0,2886.0,1781.0,2025-07-04 15:53:40,65.0,,-0.261719558506828,-2.4770969255207,-0.146360384377016,,-1.9069570080522875,,
,7932.0,1305.0,4263.0,1454.0,2053.0,2891.0,1777.0,2025-07-04 15:53:41,65.0,,-0.261733538246453,-2.47699528597744,-0.14524283580176,,-1.8982285871795033,,
,7936.0,1306.0,4265.0,1452.0,2037.0,2891.0,1761.0,2025-07-04 15:53:42,64.0,,-0.261448720693391,-2.47682438756856,-0.144934189887325,,-1.8997258092319471,,
,7944.0,1307.0,4265.0,1454.0,2050.0,2878.0,1791.0,2025-07-04 15:53:43,63.0,,-0.261507479900703,-2.47652483228502,-0.144215497910186,,-1.9118352652799033,,
,7947.0,1305.0,4268.0,1455.0,2049.0,2890.0,1792.0,2025-07-04 15:53:44,62.0,,-0.26147632682063,-2.47627609833539,-0.144935627821557,,-1.9343521607779726,,
,7951.0,1305.0,4267.0,1456.0,2043.0,2883.0,1792.0,2025-07-04 15:53:45,62.0,,-0.261506052019294,-2.47596708662397,-0.144605703872824,,-1.9664274355740514,,
,7954.0,1310.0,4270.0,1455.0,2050.0,2895.0,1795.0,2025-07-04 15:53:46,62.0,,-0.261494031164467,-2.47631983019043,-0.144954768916137,,-2.0065208760920505,,
,7958.0,1308.0,4272.0,1456.0,2056.0,2884.0,1782.0,2025-07-04 15:53:47,62.0,,-0.261470127197974,-2.47629532869198,-0.145357639845442,,-2.052357230115193,,
,7962.0,1309.0,4273.0,1457.0,2037.0,2868.0,1796.0,2025-07-04 15:53:48,62.0,,-0.2615345383131,-2.47651481819428,-0.145098405119955,,-2.100882638341976,,
,7968.0,1311.0,4276.0,1458.0,2035.0,2877.0,1804.0,2025-07-04 15:53:49,62.0,,-0.261505085979952,-2.47630759639186,-0.14400130879655,,-2.148222254216129,,
,7970.0,1309.0,4275.0,1458.0,2045.0,2844.0,1824.0,2025-07-04 15:53:50,62.0,,-0.261765196343279,-2.47642463293208,-0.145446971198554,,-2.189646609046878,,
,7975.0,1308.0,4278.0,1458.0,2041.0,2860.0,1792.0,2025-07-04 15:53:51,61.0,,-0.26172796318346,-2.47604153407294,-0.145641675529293,,-2.219562023059671,,
,7981.0,1309.0,4280.0,1461.0,2048.0,2851.0,1789.0,2025-07-04 15:53:52,60.0,,-0.261901970133226,-2.47611525760556,-0.144934026217927,,-2.2315463296683835,,
,7983.0,1310.0,4280.0,1461.0,2039.0,2864.0,1793.0,2025-07-04 15:53:53,60.0,,-0.261949903490546,-2.47604510133163,-0.145566201352808,,-2.2184532019883396,,
,7988.0,1312.0,4282.0,1464.0,2022.0,2876.0,1782.0,2025-07-04 15:53:54,60.0,,-0.262145421175576,-2.476027089119,-0.144199614830693,,-2.172605501942558,,
,7989.0,1312.0,4281.0,1462.0,2056.0,2905.0,1791.0,2025-07-04 15:53:55,60.0,,-0.262019391815537,-2.47605268012577,-0.145801373256261,,-2.0860903864875953,,
,7995.0,1313.0,4284.0,1467.0,2036.0,2881.0,1782.0,2025-07-04 15:53:56,60.0,,-0.262177883155123,-2.47565341233727,-0.144293547741308,,-1.9511572246826179,,
,7999.0,1313.0,4287.0,1465.0,2038.0,2879.0,1794.0,2025-07-04 15:53:57,60.0,,-0.262057253727522,-2.47544470528821,-0.143992597059275,,-1.7607052232154126,,
,8002.0,1312.0,4289.0,1466.0,2034.0,2876.0,1789.0,2025-07-04 15:53:58,61.0,,-0.262141830172169,-2.47563145716964,-0.144173633534125,,-1.5088331963573212,,
,8008.0,1315.0,4289.0,1465.0,2031.0,2861.0,1789.0,2025-07-04 15:53:59,61.0,,-0.262090440467216,-2.47543648489727,-0.144743458462721,,-1.1914116725031665,,
,8008.0,1315.0,4290.0,1468.0,2039.0,2887.0,1800.0,2025-07-04 15:54:00,60.0,,-0.262331044938059,-2.4749214260015,-0.14484562706247,,-0.8066298280860794,,
,8013.0,1317.0,4295.0,1469.0,2049.0,2868.0,1796.0,2025-07-04 15:54:01,60.0,,-0.262418118231006,-2.47550961703017,-0.144131659666241,,-0.35546806104545514,,
,8016.0,1316.0,4295.0,1469.0,2050.0,2858.0,1798.0,2025-07-04 15:54:02,60.0,,-0.262655048721684,-2.47650049685874,-0.14547850736346,,0.15794852823621167,,
,8018.0,1312.0,4295.0,1471.0,2037.0,2887.0,1802.0,2025-07-04 15:54:03,60.0,,-0.263457160549795,-2.47717094442465,-0.145700950999928,,0.726151303201384,,
,8022.0,1317.0,4296.0,1471.0,2030.0,2885.0,1797.0,2025-07-04 15:54:04,60.0,,-0.264187373742202,-2.47870594918599,-0.147954068123836,,1.3383080903522488,,
,8026.0,1316.0,4298.0,1471.0,2028.0,2865.0,1819.0,2025-07-04 15:54:05,60.0,,-0.265314483389975,-2.47986654617893,-0.151194746468335,,1.9803953267739716,,
,8029.0,1318.0,4299.0,1472.0,2028.0,2875.0,1806.0,2025-07-04 15:54:06,60.0,,-0.266032233032425,-2.48131122086759,-0.152711247802795,,2.6355669645403306,,
,8034.0,1316.0,4300.0,1471.0,2039.0,2882.0,1792.0,2025-07-04 15:54:07,59.0,,-0.266400902754993,-2.48237054931942,-0.153291225600052,,3.284717985467046,,
,8038.0,1318.0,4302.0,1474.0,2041.0,2875.0,1793.0,2025-07-04 15:54:08,60.0,,-0.267003256529882,-2.48303551629125,-0.154740267630646,,3.907233475199718,,
,8041.0,1321.0,4304.0,1475.0,2042.0,2887.0,1799.0,2025-07-04 15:54:09,60.0,,-0.267504119772231,-2.48372389960656,-0.156652090067101,,4.481904262608151,,
,8045.0,1319.0,4307.0,1476.0,2047.0,2884.0,1813.0,2025-07-04 15:54:10,60.0,,-0.267665883699949,-2.48422024721081,-0.15814687258281,,4.987975401107598,,
,8049.0,1322.0,4307.0,1477.0,2036.0,2888.0,1812.0,2025-07-04 15:54:11,61.0,,-0.268136745170051,-2.48452889162895,-0.158449555990292,,5.4062751944471295,,
,8052.0,1321.0,4308.0,1475.0,2062.0,2876.0,1780.0,2025-07-04 15:54:12,61.0,,-0.268108971327359,-2.48438107278149,-0.157464267613448,,5.720353564257945,,
,8058.0,1320.0,4311.0,1480.0,2051.0,2886.0,1778.0,2025-07-04 15:54:13,61.0,,-0.268276423131148,-2.48452132081874,-0.157629375666596,,5.91754378456955,,
,8063.0,1324.0,4316.0,1479.0,2040.0,2883.0,1774.0,2025-07-04 15:54:14,61.0,,-0.268325251555069,-2.4843111404704,-0.158161545202419,,5.989854705866679,,
,8064.0,1325.0,4315.0,1481.0,2042.0,2880.0,1776.0,2025-07-04 15:54:15,61.0,,-0.268543755358094,-2.48424343655574,-0.157853225635165,,5.934603950794113,,
,8066.0,1320.0,4314.0,1476.0,2047.0,2878.0,1811.0,2025-07-04 15:54:16,61.0,,-0.268548663854205,-2.48428475613954,-0.15823287862195,,5.754717494675837,,
,8069.0,1323.0,4317.0,1481.0,2002.0,2841.0,1776.0,2025-07-04 15:54:17,61.0,,-0.268591597608168,-2.48497316770288,-0.158426883380494,,5.458647828537348,,
,8069.0,1324.0,4319.0,1481.0,2047.0,2872.0,1810.0,2025-07-04 15:54:18,61.0,,-0.268879445990389,-2.48525204350801,-0.159478885668816,,5.059899956977264,,
,8063.0,1323.0,4318.0,1482.0,2054.0,2860.0,1822.0,2025-07-04 15:54:19,61.0,,-0.269155730243353,-2.48604052957878,-0.161321515193566,,4.576197216926269,,
,8052.0,1317.0,4316.0,1478.0,2048.0,2864.0,1824.0,2025-07-04 15:54:20,61.0,,-0.269556984694245,-2.4873806302271,-0.161924245502595,,4.028359726682511,,
,8037.0,1316.0,4312.0,1474.0,2036.0,2856.0,1831.0,2025-07-04 15:54:21,61.0,,-0.269563565318371,-2.48786029246918,-0.163392167771743,,3.43899875544867,,
,8020.0,1313.0,4304.0,1473.0,2030.0,2846.0,1810.0,2025-07-04 15:54:22,61.0,,-0.269931182472809,-2.4885263565701,-0.16369016656357,,2.8311446306316115,,
,8000.0,1310.0,4302.0,1465.0,2020.0,2849.0,1800.0,2025-07-04 15:54:23,61.0,,-0.270229668235017,-2.48905925843985,-0.165583040356993,,2.2269230721242304,,
,7977.0,1305.0,4296.0,1460.0,2012.0,2870.0,1806.0,2025-07-04 15:54:24,62.0,,-0.270453528549586,-2.48935786548929,-0.163968707899507,,1.6463785727678593,,
,7958.0,1304.0,4287.0,1452.0,2033.0,2875.0,1800.0,2025-07-04 15:54:25,62.0,,-0.270376684416492,-2.48891433837648,-0.164856466390566,,1.1065192442605714,,
,7937.0,1300.0,4282.0,1448.0,2033.0,2882.0,1805.0,2025-07-04 15:54:26,61.0,,-0.270312586249435,-2.48847675179039,-0.165503804212947,,0.620630889267949,,
,7918.0,1298.0,4272.0,1442.0,2033.0,2878.0,1805.0,2025-07-04 15:54:27,61.0,,-0.270091388720079,-2.48744569031253,-0.163189888679834,,0.19788285454917037,,
,7901.0,1293.0,4268.0,1438.0,2034.0,2866.0,1821.0,2025-07-04 15:54:28,61.0,,-0.270016089597987,-2.48703304490759,-0.161904389986931,,-0.1567738461011548,,
,7883.0,1291.0,4261.0,1432.0,2031.0,2889.0,1793.0,2025-07-04 15:54:29,60.0,,-0.269745327616921,-2.48617061597594,-0.162499318478265,,-0.442434777120723,,
,7868.0,1286.0,4257.0,1430.0,2027.0,2882.0,1791.0,2025-07-04 15:54:30,61.0,,-0.269548332795761,-2.4853873403552,-0.160704276021598,,-0.6618321957717369,,
,7855.0,1287.0,4254.0,1428.0,2018.0,2865.0,1798.0,2025-07-04 15:54:31,61.0,,-0.269284818205052,-2.48483387619258,-0.15999581915226,,-0.8207368511029605,,
,7844.0,1288.0,4246.0,1425.0,2007.0,2860.0,1800.0,2025-07-04 15:54:32,61.0,,-0.269163547673347,-2.48472230799064,-0.159147044610867,,-0.927231607103329,,
,7833.0,1282.0,4242.0,1421.0,2015.0,2866.0,1798.0,2025-07-04 15:54:33,61.0,,-0.269215101133999,-2.48448278995199,-0.158576819898447,,-0.9909217255785169,,
,7827.0,1281.0,4238.0,1420.0,2034.0,2893.0,1796.0,2025-07-04 15:54:34,61.0,,-0.269012933462799,-2.48398323342488,-0.15855173024505,,-1.0221449147716124,,
,7821.0,1282.0,4234.0,1416.0,2021.0,2881.0,1781.0,2025-07-04 15:54:35,61.0,,-0.269155975902466,-2.48393682167511,-0.157394870888393,,-1.0312365737163758,,
,7821.0,1283.0,4234.0,1416.0,2016.0,2881.0,1779.0,2025-07-04 15:54:36,61.0,,-0.26918858280904,-2.48400330914503,-0.156363167023525,,-1.0278935853621078,,
,7814.0,1280.0,4231.0,1415.0,2019.0,2872.0,1799.0,2025-07-04 15:54:37,61.0,,-0.269422564937593,-2.48366255871186,-0.157740333493687,,-1.020665613187612,,
,7814.0,1281.0,4229.0,1412.0,2018.0,2884.0,1789.0,2025-07-04 15:54:38,61.0,,-0.268930271630335,-2.4837231667543,-0.157266068089502,,-1.0165882432836464,,
,7814.0,1283.0,4230.0,1412.0,2041.0,2865.0,1787.0,2025-07-04 15:54:39,62.0,,-0.26892588104336,-2.48355350348416,-0.158150138523358,,-1.0209592946550154,,
,7812.0,1280.0,4226.0,1413.0,2048.0,2854.0,1803.0,2025-07-04 15:54:40,62.0,,-0.269173348779278,-2.48412893689745,-0.158565802878755,,-1.0372494992230077,,
2025-07-04 15:52:34,7813.0,1279.0,4226.0,1412.0,2051.0,2877.0,1817.0,2025-07-04 15:54:41,63.0,2025/07/04 03:52:34 PM,-0.26926236751839,-2.48443331164068,-0.159678587520761,,-1.067132178714243,,
,7816.0,1279.0,4220.0,1411.0,2056.0,2862.0,1817.0,2025-07-04 15:54:42,64.0,,-0.26936170909192,-2.48483750771398,-0.159821302664772,,-1.1106134378816002,,
,7819.0,1282.0,4226.0,1414.0,2034.0,2870.0,1792.0,2025-07-04 15:54:43,64.0,,-0.269580659466893,-2.48546136967696,-0.160163238523066,,-1.166243994239317,,
,7821.0,1282.0,4224.0,1415.0,2035.0,2877.0,1771.0,2025-07-04 15:54:44,66.0,,-0.269841343553509,-2.48574889830826,-0.160548308762194,,-1.2313948150598648,,
,7822.0,1279.0,4221.0,1411.0,2018.0,2887.0,1762.0,2025-07-04 15:54:45,67.0,,-0.269999089797793,-2.48631234739585,-0.161499253374871,,-1.302579754775306,,
,7823.0,1281.0,4221.0,1415.0,2029.0,2887.0,1778.0,2025-07-04 15:54:46,68.0,,-0.270298422825095,-2.48694599622282,-0.161366587728582,,-1.3758080961096246,,
,7823.0,1281.0,4223.0,1412.0,2030.0,2886.0,1788.0,2025-07-04 15:54:47,69.0,,-0.270456111866592,-2.48747261946024,-0.16184332032135,,-1.446947806064152,,
,7830.0,1279.0,4224.0,1411.0,2024.0,2881.0,1781.0,2025-07-04 15:54:48,70.0,,-0.270540580578292,-2.4876768815149,-0.16233703074243,,-1.5120772983694657,,
,7830.0,1277.0,4221.0,1413.0,2030.0,2869.0,1790.0,2025-07-04 15:54:49,70.0,,-0.270476207298691,-2.48791043776411,-0.163482915643575,,-1.5678016396790755,,
,7833.0,1280.0,4221.0,1412.0,2047.0,2894.0,1795.0,2025-07-04 15:54:50,69.0,,-0.270718998900541,-2.48831853459891,-0.164530132238998,,-1.6115105007068176,,
,7838.0,1279.0,4221.0,1413.0,2063.0,2872.0,1803.0,2025-07-04 15:54:51,69.0,,-0.270749324522307,-2.48904473304097,-0.163702321342508,,-1.6415602878603923,,
,7842.0,1281.0,4223.0,1415.0,2045.0,2871.0,1796.0,2025-07-04 15:54:52,68.0,,-0.271003394943605,-2.48894178634409,-0.163849047535831,,-1.6573705621404142,,
,7845.0,1283.0,4222.0,1414.0,2039.0,2875.0,1798.0,2025-07-04 15:54:53,67.0,,-0.270955895222137,-2.48945215399934,-0.163502130185311,,-1.6594330521501404,,
,7847.0,1279.0,4220.0,1415.0,2019.0,2857.0,1796.0,2025-07-04 15:54:54,67.0,,-0.271187519203108,-2.48910787562285,-0.164404234390134,,-1.6492387049034365,,
,7848.0,1282.0,4222.0,1415.0,2032.0,2862.0,1797.0,2025-07-04 15:54:55,67.0,,-0.271017916327886,-2.48922372652186,-0.164160612831993,,-1.6291335848949895,,
,7851.0,1281.0,4222.0,1416.0,2023.0,2862.0,1791.0,2025-07-04 15:54:56,67.0,,-0.271292458139647,-2.48909853865227,-0.162836406083041,,-1.6021179955561262,,
,7850.0,1282.0,4220.0,1416.0,2024.0,2867.0,1785.0,2025-07-04 15:54:57,67.0,,-0.27133614943446,-2.4888323498982,-0.164849815865967,,-1.5716052342648528,,
,7852.0,1281.0,4221.0,1416.0,2034.0,2881.0,1820.0,2025-07-04 15:54:58,66.0,,-0.271157068951223,-2.48894124623185,-0.162603110661505,,-1.5411572887905771,,
,7847.0,1278.0,4218.0,1414.0,2022.0,2867.0,1820.0,2025-07-04 15:54:59,66.0,,-0.27103369503255,-2.48872478314232,-0.162549632391909,,-1.5142149268590408,,
,7847.0,1278.0,4220.0,1414.0,2014.0,2863.0,1823.0,2025-07-04 15:55:00,65.0,,-0.271276618693217,-2.48878543798406,-0.162704958114173,,-1.493839263901861,,
,7847.0,1278.0,4218.0,1415.0,2022.0,2862.0,1814.0,2025-07-04 15:55:01,65.0,,-0.270997123281175,-2.48827107832344,-0.163258839323472,,-1.482481012006301,,
,7848.0,1278.0,4218.0,1413.0,2016.0,2869.0,1811.0,2025-07-04 15:55:02,64.0,,-0.270857347686696,-2.48792621328802,-0.163047516803946,,-1.4817920308316426,,
,7846.0,1276.0,4215.0,1409.0,2011.0,2869.0,1818.0,2025-07-04 15:55:03,64.0,,-0.270518697409797,-2.48772508023457,-0.160943360270011,,-1.4924912950932965,,
,7843.0,1276.0,4216.0,1413.0,2009.0,2883.0,1839.0,2025-07-04 15:55:04,64.0,,-0.270357060912003,-2.48704134365265,-0.161085930322161,,-1.5142937235915848,,
,7843.0,1276.0,4215.0,1410.0,2029.0,2900.0,1831.0,2025-07-04 15:55:05,63.0,,-0.269926649393359,-2.48649238816119,-0.159545860941597,,-1.5459052120206378,,
,7841.0,1277.0,4214.0,1408.0,2038.0,2893.0,1827.0,2025-07-04 15:55:06,63.0,,-0.269682093260434,-2.48552591495672,-0.158796044025168,,-1.5850806282852152,,
,7838.0,1273.0,4209.0,1408.0,2033.0,2891.0,1828.0,2025-07-04 15:55:07,63.0,,-0.269015999968961,-2.48479895480879,-0.156911771435594,,-1.6287342008845125,,
,7836.0,1274.0,4207.0,1408.0,2019.0,2892.0,1824.0,2025-07-04 15:55:08,63.0,,-0.268717966655265,-2.4835894548864,-0.155582974516507,,-1.6730855191857645,,
,7838.0,1275.0,4209.0,1406.0,2018.0,2854.0,1812.0,2025-07-04 15:55:09,63.0,,-0.268087962555962,-2.48259831963436,-0.154289557308818,,-1.7138216332001068,,
,7835.0,1275.0,4210.0,1408.0,2034.0,2849.0,1791.0,2025-07-04 15:55:10,62.0,,-0.267789462942027,-2.48187157174777,-0.152896227123676,,-1.7462578538682552,,
,7837.0,1274.0,4208.0,1405.0,2022.0,2857.0,1800.0,2025-07-04 15:55:11,62.0,,-0.267133776643963,-2.48114557546379,-0.150715993723527,,-1.7654860974452258,,
,7837.0,1273.0,4205.0,1405.0,2021.0,2853.0,1791.0,2025-07-04 15:55:12,62.0,,-0.266766134357492,-2.48017203423693,-0.150147905951909,,-1.7665076168991078,,
,7837.0,1274.0,4205.0,1406.0,2010.0,2854.0,1801.0,2025-07-04 15:55:13,62.0,,-0.266218188142344,-2.47968305229276,-0.14834043901811,,-1.744354080805632,,
,7842.0,1275.0,4204.0,1406.0,2012.0,2857.0,1801.0,2025-07-04 15:55:14,62.0,,-0.266181019032298,-2.47931306471167,-0.14939941651668,,-1.694205374532821,,
,7840.0,1270.0,4206.0,1408.0,2010.0,2868.0,1798.0,2025-07-04 15:55:15,62.0,,-0.265989940908401,-2.47957127342138,-0.149599486373658,,-1.611513487122908,,
,7845.0,1272.0,4205.0,1405.0,2027.0,2868.0,1796.0,2025-07-04 15:55:16,62.0,,-0.265824194387134,-2.47956124365357,-0.149398039914381,,-1.4921396258848139,,
,7846.0,1272.0,4205.0,1409.0,2038.0,2857.0,1809.0,2025-07-04 15:55:17,62.0,,-0.265974379452266,-2.47996374383972,-0.149332990236693,,-1.332507235847988,,
,7851.0,1274.0,4208.0,1408.0,2035.0,2880.0,1815.0,2025-07-04 15:55:18,62.0,,-0.265974992529385,-2.47999396947262,-0.150221366088838,,-1.1297684298822526,,
,7852.0,1275.0,4205.0,1407.0,2029.0,2890.0,1811.0,2025-07-04 15:55:19,61.0,,-0.265909131491482,-2.48036612381113,-0.149798056943016,,-0.8819771935445861,,
,7855.0,1275.0,4207.0,1408.0,2011.0,2860.0,1809.0,2025-07-04 15:55:20,61.0,,-0.266009641226137,-2.48016055177659,-0.150221396531899,,-0.5882609611929921,,
,7863.0,1276.0,4207.0,1410.0,2034.0,2844.0,1808.0,2025-07-04 15:55:21,61.0,,-0.265976442029469,-2.48013875677214,-0.150156959785862,,-0.24898315957794287,,
,7867.0,1276.0,4209.0,1411.0,2057.0,2855.0,1801.0,2025-07-04 15:55:22,62.0,,-0.266179461904327,-2.4800733733999,-0.150113206430586,,0.13410774742212017,,
,7872.0,1277.0,4210.0,1410.0,2070.0,2853.0,1797.0,2025-07-04 15:55:23,62.0,,-0.266201472014441,-2.48046209712956,-0.150741253628508,,0.5577442346042656,,
,7872.0,1277.0,4210.0,1410.0,2033.0,2860.0,1809.0,2025-07-04 15:55:24,62.0,,-0.266307127687838,-2.48057672143597,-0.151054637983933,,1.0170217371536543,,
,7880.0,1279.0,4210.0,1410.0,2047.0,2855.0,1802.0,2025-07-04 15:55:25,62.0,,-0.266570424643228,-2.48021146497528,-0.151046479297675,,1.5053015810693586,,
,7885.0,1276.0,4214.0,1413.0,2029.0,2846.0,1798.0,2025-07-04 15:55:26,62.0,,-0.26644090095788,-2.48055958953276,-0.15076417299269,,2.014147836651999,,
,7893.0,1281.0,4214.0,1413.0,2025.0,2863.0,1795.0,2025-07-04 15:55:27,62.0,,-0.266358518822124,-2.48031203164991,-0.14919268618585,,2.53332100495675,,
,7896.0,1280.0,4216.0,1413.0,2028.0,2870.0,1806.0,2025-07-04 15:55:28,62.0,,-0.266207268164264,-2.48013741419945,-0.150741919747766,,3.0508589231963077,,
,7899.0,1279.0,4218.0,1416.0,2024.0,2849.0,1811.0,2025-07-04 15:55:29,63.0,,-0.266036791958958,-2.47949735539003,-0.149707251488852,,3.553276744697539,,
,7905.0,1285.0,4216.0,1418.0,2029.0,2857.0,1809.0,2025-07-04 15:55:30,63.0,,-0.265757590644256,-2.47939042996304,-0.147978488686943,,4.025911978882085,,
,7912.0,1282.0,4218.0,1418.0,2035.0,2873.0,1801.0,2025-07-04 15:55:31,63.0,,-0.265320366383366,-2.47859346717197,-0.148463027843094,,4.4534282146481985,,
,7914.0,1281.0,4221.0,1419.0,2036.0,2872.0,1805.0,2025-07-04 15:55:32,63.0,,-0.264734807527515,-2.47826618439462,-0.146752605820059,,4.820474074419204,,
,7917.0,1282.0,4221.0,1420.0,2026.0,2874.0,1812.0,,,,-0.264426485992399,-2.47775529964451,-0.144758176269497,,5.112473946441544,,
,7923.0,1283.0,4225.0,1420.0,2037.0,2862.0,1821.0,,,,-0.264029507236209,-2.47683925490804,-0.145198805409357,,5.316505958039575,,
,7929.0,1284.0,4222.0,1422.0,2019.0,2857.0,1819.0,,,,-0.263644269602891,-2.47695864938394,-0.144341872702077,,5.4222028031756695,,
,7932.0,1284.0,4225.0,1422.0,2032.0,2853.0,1824.0,,,,-0.263351392545904,-2.47637623477765,-0.144126576918673,,5.422595380166542,,
,7934.0,1281.0,4227.0,1423.0,2024.0,2870.0,1819.0,,,,-0.263103638904232,-2.47599985274381,-0.143690292974325,,5.314810987965859,,
,7941.0,1286.0,4228.0,1424.0,2032.0,2871.0,1821.0,,,,-0.262968608081533,-2.47593257091019,-0.143121823090148,,5.100539970858162,,
,7942.0,1285.0,4231.0,1425.0,2034.0,2870.0,1831.0,,,,-0.262656581137065,-2.47574474445142,-0.142920959768107,,4.786199013153316,,
,7950.0,1287.0,4230.0,1428.0,2033.0,2863.0,1826.0,,,,-0.26259831485327,-2.47501093116284,-0.142757540457563,,4.382745845411982,,
,7952.0,1285.0,4232.0,1426.0,2022.0,2844.0,1793.0,,,,-0.262232343601777,-2.47557618112302,-0.141375374388943,,3.905136594922341,,
,7958.0,1287.0,4235.0,1427.0,2025.0,2833.0,1796.0,,,,-0.261886961998666,-2.47463049301517,-0.139834968596393,,3.3714582747443753,,
,7960.0,1287.0,4236.0,1428.0,2026.0,2844.0,1802.0,,,,-0.261510962687223,-2.47402025396541,-0.140854555153678,,2.801807856137969,,
,7965.0,1288.0,4238.0,1428.0,2036.0,2857.0,1820.0,,,,-0.26134780931694,-2.47312109766742,-0.13990337866063,,2.217019145327178,,
,7968.0,1287.0,4239.0,1432.0,2037.0,2863.0,1808.0,,,,-0.261198106915563,-2.47238694117314,-0.137746775345636,,1.6373548595467415,,
,7971.0,1289.0,4240.0,1433.0,2044.0,2865.0,1806.0,,,,-0.260997971200055,-2.47238828955511,-0.137420175759706,,1.0812824356775408,,
,7979.0,1292.0,4241.0,1432.0,2029.0,2868.0,1814.0,,,,-0.260891404408,-2.47218989488316,-0.136987874959447,,0.5644390405833756,,
,7978.0,1291.0,4242.0,1433.0,2018.0,2854.0,1818.0,,,,-0.260996362967553,-2.47177984787398,-0.137147542833599,,0.09886652434469825,,
,7981.0,1290.0,4243.0,1433.0,2034.0,2832.0,1811.0,,,,-0.260991833954865,-2.47204212983713,-0.136692061724572,,-0.30743524876113065,,
,7985.0,1288.0,4243.0,1433.0,2038.0,2848.0,1802.0,,,,-0.261018178412343,-2.47168887427342,-0.13703007522463,,-0.6506230994793184,,
,7988.0,1291.0,4248.0,1436.0,2067.0,2861.0,1809.0,,,,-0.260684100348446,-2.47179232982306,-0.137400343779492,,-0.9308121999930342,,
,7995.0,1295.0,4249.0,1438.0,2043.0,2876.0,1808.0,,,,-0.260814926133294,-2.47155077552349,-0.135862698782533,,-1.1516101828341623,,
,7999.0,1295.0,4251.0,1439.0,2047.0,2874.0,1818.0,,,,-0.260658534432004,-2.47204512461242,-0.13695660197913,,-1.319447588042946,,
,8002.0,1293.0,4250.0,1435.0,2036.0,2866.0,1828.0,,,,-0.260624601629632,-2.47179504167906,-0.137536926692197,,-1.4427782019363902,,
,8004.0,1297.0,4252.0,1438.0,2050.0,2863.0,1787.0,,,,-0.260765630876941,-2.47177671130018,-0.137022931338515,,-1.531224323683089,,
,8008.0,1296.0,4256.0,1437.0,2053.0,2867.0,1802.0,,,,-0.260466810841994,-2.47215463303809,-0.138133824909799,,-1.5947367921317226,,
,8013.0,1296.0,4256.0,1441.0,2057.0,2872.0,1811.0,,,,-0.260585292043021,-2.47230421379759,-0.13692051465716,,-1.6428296872582777,,
,8014.0,1295.0,4256.0,1437.0,2043.0,2872.0,1794.0,,,,-0.260337758986889,-2.47264822765585,-0.137249239643129,,-1.6839369828594009,,
,8017.0,1296.0,4257.0,1441.0,2061.0,2859.0,1789.0,,,,-0.260351606638239,-2.47288722602912,-0.137276507788253,,-1.7249247104151324,,
,8022.0,1297.0,4261.0,1444.0,2045.0,2866.0,1811.0,,,,-0.26028693493866,-2.47308342561378,-0.137965421126366,,-1.7707785093804025,,
,8029.0,1299.0,4263.0,1444.0,2031.0,2859.0,1815.0,,,,-0.260154883802886,-2.47293194376864,-0.137776022953836,,-1.8244733731681906,,
,8031.0,1299.0,4263.0,1445.0,2011.0,2857.0,1815.0,,,,-0.260293642569236,-2.47356119456963,-0.138671862623958,,-1.8870201159378703,,
,8033.0,1300.0,4264.0,1447.0,2032.0,2864.0,1813.0,,,,-0.260374725552786,-2.473880831565,-0.139219501398968,,-1.9576714873897232,,
,8038.0,1300.0,4267.0,1447.0,2026.0,2881.0,1808.0,,,,-0.260268111818319,-2.47423542142406,-0.1387150065496,,-2.03425988988639,,
,8041.0,1302.0,4269.0,1448.0,2013.0,2866.0,1798.0,,,,-0.260613965069844,-2.4744617610587,-0.139760239680222,,-2.1136287839606642,,
,8045.0,1303.0,4271.0,1449.0,2026.0,2884.0,1801.0,,,,-0.260975274948535,-2.47478416494363,-0.140001920772591,,-2.1921125652839804,,
,8049.0,1303.0,4274.0,1451.0,2032.0,2884.0,1795.0,,,,-0.260921858020976,-2.47539472136306,-0.140147693261843,,-2.2660170177714765,,
,8052.0,1305.0,4275.0,1452.0,2052.0,2893.0,1792.0,,,,-0.261460437973683,-2.47577249061395,-0.14118317608323,,-2.332055682670533,,
,8060.0,1308.0,4278.0,1454.0,2044.0,2877.0,1796.0,,,,-0.261547491223819,-2.47642952169396,-0.141860527897712,,-2.38770602822948,,
,8063.0,1306.0,4278.0,1455.0,2037.0,2860.0,1805.0,,,,-0.26195123466424,-2.47695956851195,-0.142875943039216,,-2.4314609746604505,,
,8067.0,1306.0,4280.0,1455.0,2033.0,2863.0,1812.0,,,,-0.261809684420942,-2.47659043455973,-0.140567772901843,,-2.4629636401272363,,
,8071.0,1309.0,4284.0,1456.0,2050.0,2855.0,1805.0,,,,-0.262612200365401,-2.47793725550623,-0.142322396287002,,-2.4830243248162334,,
,8076.0,1309.0,4282.0,1456.0,2051.0,2868.0,1790.0,,,,-0.262734140812241,-2.47839802721036,-0.144027388898736,,-2.493527827292419,,
,8078.0,1310.0,4286.0,1459.0,2058.0,2872.0,1797.0,,,,-0.263184452434055,-2.47900879240953,-0.145473936221471,,-2.4972459181452957,,
,8082.0,1309.0,4290.0,1460.0,2052.0,2882.0,1789.0,,,,-0.263605500730058,-2.47949252867608,-0.146987496991981,,-2.497574297899427,,
,8088.0,1312.0,4290.0,1459.0,2039.0,2901.0,1780.0,,,,-0.263864619610889,-2.48029675530078,-0.149776685368597,,-2.498216027377664,,
,8092.0,1311.0,4291.0,1464.0,2029.0,2868.0,1799.0,,,,-0.264227722194989,-2.48092757320811,-0.149968227049403,,-2.5028347780513087,,
,8097.0,1316.0,4297.0,1466.0,2045.0,2870.0,1811.0,,,,-0.264395032227752,-2.48133982771422,-0.150222920258479,,-2.514701778723822,,
,8101.0,1313.0,4296.0,1464.0,2064.0,2875.0,1810.0,,,,-0.264396236256606,-2.48166091631854,-0.150863707191945,,-2.5363602579873774,,
,8102.0,1314.0,4297.0,1465.0,2058.0,2891.0,1791.0,,,,-0.264612233227448,-2.48188969037951,-0.150725290446523,,-2.5693304688024003,,
,8109.0,1317.0,4301.0,1466.0,2056.0,2897.0,1806.0,,,,-0.264515951044795,-2.48192462140308,-0.151549474520988,,-2.6138767902084474,,
,8114.0,1317.0,4303.0,1470.0,2056.0,2893.0,1815.0,,,,-0.264545569630891,-2.4820440262111,-0.151467060219732,,-2.668855453030575,,
,8112.0,1315.0,4302.0,1469.0,2071.0,2878.0,1827.0,,,,-0.264432154184892,-2.48220178199742,-0.153147679741375,,-2.731656485848004,,
,8105.0,1315.0,4303.0,1466.0,2034.0,2872.0,1821.0,,,,-0.264362551250198,-2.48222159288892,-0.151347168385854,,-2.798246100059292,,
,8094.0,1312.0,4302.0,1467.0,2037.0,2870.0,1812.0,,,,-0.264343440312417,-2.48222803066839,-0.151213775306538,,-2.8633063639758443,,
,8078.0,1307.0,4297.0,1465.0,2046.0,2871.0,1794.0,,,,-0.264414579713925,-2.4824641549505,-0.15069693944761,,-2.920459373320305,,
,8061.0,1304.0,4292.0,1458.0,2041.0,2869.0,1804.0,,,,-0.264558363092594,-2.48205906777169,-0.151249655555766,,-2.9625557357866867,,
,8035.0,1301.0,4286.0,1454.0,2036.0,2879.0,1816.0,,,,-0.26438753147079,-2.48241796739474,-0.15260015366409,,-2.982003944525038,,
,8013.0,1298.0,4280.0,1448.0,2019.0,2866.0,1799.0,,,,-0.264758183047186,-2.48255921046555,-0.153186756798401,,-2.971118136280436,,
,7987.0,1292.0,4272.0,1440.0,2012.0,2866.0,1831.0,,,,-0.264710097071428,-2.48250888513494,-0.151435252794779,,-2.9224651297257767,,
,7964.0,1289.0,4266.0,1432.0,2018.0,2872.0,1827.0,,,,-0.264961562569437,-2.48323762103757,-0.153824988272254,,-2.829195463778865,,
,7940.0,1286.0,4259.0,1426.0,2027.0,2868.0,1807.0,,,,-0.265121154173283,-2.48333409370717,-0.15375564010047,,-2.685346196941184,,
,7919.0,1282.0,4252.0,1420.0,2041.0,2872.0,1794.0,,,,-0.264979434513447,-2.48390903268216,-0.15456170421722,,-2.486105438457666,,
,7900.0,1284.0,4246.0,1419.0,2040.0,2870.0,1789.0,,,,-0.265282094812796,-2.48414458967705,-0.154218972335149,,-2.228030645727585,,
,7882.0,1279.0,4237.0,1413.0,2026.0,2868.0,1789.0,,,,-0.265786747783137,-2.48474300500557,-0.156844791745214,,-1.9092154817263876,,
,7863.0,1277.0,4232.0,1406.0,2020.0,2847.0,1788.0,,,,-0.266233486983928,-2.48499461365206,-0.156937200455523,,-1.5294040413497045,,
,7849.0,1274.0,4224.0,1406.0,2032.0,2842.0,1808.0,,,,-0.266537406885363,-2.48571031791895,-0.15844413242738,,-1.0900564091408522,,
,7840.0,1272.0,4221.0,1403.0,2025.0,2833.0,1803.0,,,,-0.26681196475156,-2.48638272824955,-0.159249535345636,,-0.5943747221112978,,
,7831.0,1271.0,4215.0,1399.0,2031.0,2847.0,1803.0,,,,-0.266696558748259,-2.48664859123728,-0.160598935264155,,-0.04730235075231346,,
,7824.0,1270.0,4212.0,1399.0,2037.0,2860.0,1772.0,,,,-0.266920486593371,-2.48697004102416,-0.16016315978375,,0.5444912995831908,,
,7817.0,1267.0,4209.0,1395.0,2035.0,2862.0,1745.0,,,,-0.267284174412977,-2.4876086226395,-0.16362018750892,,1.1726323874588136,,
,7815.0,1271.0,4207.0,1395.0,2034.0,2871.0,1774.0,,,,-0.26735734728428,-2.48817125300262,-0.164617336231025,,1.8270711419372418,,
,7812.0,1269.0,4207.0,1394.0,2039.0,2893.0,1792.0,,,,-0.267755866048675,-2.48863045330949,-0.165735821750533,,2.4961286350403817,,
,7808.0,1268.0,4202.0,1394.0,2041.0,2894.0,1790.0,,,,-0.268096601099993,-2.48923396486167,-0.165371937876168,,3.1665840798631906,,
,7804.0,1268.0,4199.0,1391.0,2040.0,2857.0,1779.0,,,,-0.268328065257385,-2.4899755795811,-0.168160275479362,,3.8238332360092535,,
,7807.0,1269.0,4200.0,1392.0,2056.0,2858.0,1787.0,,,,-0.268587415395824,-2.49047352985594,-0.169575220435246,,4.45215154518054,,
,7808.0,1267.0,4198.0,1391.0,2028.0,2873.0,1803.0,,,,-0.268949583497737,-2.49065446460905,-0.169059604357545,,5.035091105894043,,
,7808.0,1266.0,4197.0,1392.0,2030.0,2884.0,1798.0,,,,-0.268869789733717,-2.49097969344161,-0.16898642703992,,5.556027637898801,,
2025-07-04 15:52:35,7806.0,1268.0,4194.0,1388.0,2034.0,2903.0,1798.0,,,2025/07/04 03:52:35 PM,-0.268943410918703,-2.49142975599823,-0.170481646709418,,5.998853397518695,,
,7807.0,1267.0,4194.0,1391.0,2039.0,2881.0,1801.0,,,,-0.269117755954098,-2.49163482704692,-0.169861438563865,,6.34878761385459,,
,7807.0,1268.0,4194.0,1392.0,2048.0,2882.0,1837.0,,,,-0.269240309786424,-2.49133618552981,-0.170069012776675,,6.593251310730233,,
,7806.0,1269.0,4192.0,1391.0,2046.0,2874.0,1821.0,,,,-0.269271387117489,-2.4916270275906,-0.170990377979325,,6.722732338632893,,
,7806.0,1263.0,4190.0,1389.0,2044.0,2873.0,1772.0,,,,-0.269438361386694,-2.49174190749346,-0.172294608507851,,6.731552816737101,,
,7806.0,1265.0,4189.0,1388.0,2031.0,2861.0,1800.0,,,,-0.26950923907267,-2.4921011048862,-0.171568355903822,,6.618448320512391,,
,7809.0,1266.0,4191.0,1390.0,2034.0,2855.0,1812.0,,,,-0.269637117844636,-2.49259389659879,-0.172833661816722,,6.386878510157453,,
,7810.0,1266.0,4190.0,1390.0,2024.0,2870.0,1802.0,,,,-0.269764530291316,-2.49293728202283,-0.17309025671411,,6.045013125181966,,
,7813.0,1265.0,4188.0,1392.0,2033.0,2853.0,1812.0,,,,-0.270402755328657,-2.49356712990738,-0.174395375240994,,5.605373059966705,,
,7810.0,1266.0,4186.0,1390.0,2030.0,2858.0,1806.0,,,,-0.270258853693355,-2.4936939579508,-0.17511241071091,,5.084147759083931,,
,7813.0,1265.0,4187.0,1390.0,2027.0,2856.0,1808.0,,,,-0.270584481496663,-2.49438775274057,-0.175059320381154,,4.500249116225711,,
,7811.0,1266.0,4184.0,1390.0,2032.0,2880.0,1817.0,,,,-0.270972555938298,-2.49452220415337,-0.176033698522249,,3.8741904548081827,,
,7813.0,1266.0,4186.0,1387.0,2025.0,2878.0,1809.0,,,,-0.271322103568198,-2.49481481881487,-0.17704942072247,,3.2268925730179725,,
,7811.0,1264.0,4184.0,1388.0,2049.0,2876.0,1790.0,,,,-0.271533217700943,-2.49531875477633,-0.178352865244491,,2.5785176954138964,,
,7813.0,1265.0,4183.0,1389.0,2050.0,2836.0,1795.0,,,,-0.271630287531482,-2.49528372142497,-0.177506125200086,,1.947420369992063,,
,7813.0,1265.0,4183.0,1389.0,2031.0,2845.0,1818.0,,,,-0.271765366737528,-2.49542116307732,-0.177713242354383,,1.3492863059229645,,
,7813.0,1262.0,4181.0,1388.0,2033.0,2849.0,1812.0,,,,-0.271967950557341,-2.49609645991087,-0.178490215491168,,0.7965088889661075,,
,7809.0,1261.0,4182.0,1385.0,2019.0,2863.0,1804.0,,,,-0.272181183696686,-2.49615032318028,-0.179343001331495,,0.29783032140161986,,
,7808.0,1262.0,4178.0,1389.0,2022.0,2863.0,1791.0,,,,-0.272516207864877,-2.496852962989,-0.179758430822102,,-0.14174859319919667,,
,7804.0,1263.0,4180.0,1386.0,2026.0,2882.0,1802.0,,,,-0.27269928027674,-2.49693745435761,-0.180187495593623,,-0.5208072783358985,,
,7802.0,1262.0,4175.0,1383.0,2023.0,2865.0,1815.0,,,,-0.273281624942835,-2.49757172563983,-0.181755380511351,,-0.841127768633294,,
,7805.0,1260.0,4174.0,1383.0,2005.0,2863.0,1814.0,,,,-0.273517699368042,-2.49822181396288,-0.183138403580731,,-1.1071482618094588,,
,7802.0,1263.0,4174.0,1383.0,2000.0,2855.0,1809.0,,,,-0.273598508609971,-2.49827135682997,-0.182747099528788,,-1.325302615584748,,
,7798.0,1260.0,4175.0,1383.0,2030.0,2841.0,1804.0,,,,-0.273857217614895,-2.49874951558557,-0.184083165736658,,-1.5033025802642939,,
,7800.0,1260.0,4172.0,1382.0,2021.0,2858.0,1795.0,,,,-0.274311023082289,-2.49920318000113,-0.185810917033731,,-1.6494173015113296,,
,7800.0,1261.0,4171.0,1384.0,2022.0,2852.0,1817.0,,,,-0.274649636400418,-2.49981154989193,-0.185500312091363,,-1.7717992047771771,,
,7797.0,1261.0,4170.0,1380.0,2030.0,2861.0,1806.0,,,,-0.274835629338221,-2.49998227165271,-0.18482204978691,,-1.8778978569566893,,
,7795.0,1262.0,4168.0,1382.0,2033.0,2844.0,1806.0,,,,-0.27550390205615,-2.50040371870797,-0.185471578138768,,-1.9739946252882203,,
,7797.0,1259.0,4165.0,1382.0,2045.0,2856.0,1811.0,,,,-0.275971381991317,-2.50078737030554,-0.18697376860648,,-2.064881406965863,,
,7797.0,1259.0,4166.0,1381.0,2051.0,2859.0,1813.0,,,,-0.276194845031703,-2.50097582242416,-0.186934965263218,,-2.153696601550373,,
,7795.0,1255.0,4165.0,1378.0,2052.0,2865.0,1787.0,,,,-0.276551697022746,-2.50122623419638,-0.188266616511192,,-2.241920928075365,,
,7797.0,1258.0,4164.0,1381.0,2047.0,2867.0,1780.0,,,,-0.276598553904407,-2.50136330785365,-0.188644361954994,,-2.3295246794020867,,
,7797.0,1259.0,4164.0,1380.0,2038.0,2877.0,1811.0,,,,-0.276667916285374,-2.50175334403406,-0.18890543295233,,-2.415246617444299,,
,7801.0,1257.0,4163.0,1381.0,2030.0,2884.0,1817.0,,,,-0.27726005229968,-2.50222179145978,-0.189418499272077,,-2.4969733193750403,,
,7803.0,1260.0,4164.0,1379.0,2012.0,2858.0,1844.0,,,,-0.277404406033662,-2.50273603049808,-0.188097199631917,,-2.572177517021974,,
,7805.0,1261.0,4166.0,1378.0,2018.0,2866.0,1825.0,,,,-0.277646768105815,-2.50297681382246,-0.189767665183372,,-2.6383668792339408,,
,7808.0,1260.0,4167.0,1380.0,2020.0,2862.0,1807.0,,,,-0.278185601884591,-2.50374187028426,-0.190885308348171,,-2.69349310272495,,
,7810.0,1259.0,4166.0,1383.0,2029.0,2854.0,1810.0,,,,-0.278429583205294,-2.5041554414568,-0.192182384536844,,-2.7362763779079864,,
,7815.0,1259.0,4164.0,1380.0,2021.0,2844.0,1803.0,,,,-0.279071815447787,-2.50445068836805,-0.193108427351092,,-2.7664115068108646,,
,7817.0,1259.0,4166.0,1383.0,2019.0,2837.0,1813.0,,,,-0.279197011275586,-2.50471195635624,-0.193487685549587,,-2.784636690647909,,
,7822.0,1262.0,4167.0,1383.0,2013.0,2856.0,1814.0,,,,-0.279504792336648,-2.50496453067659,-0.19469471429957,,-2.792661471343136,,
,7826.0,1262.0,4169.0,1386.0,2012.0,2867.0,1807.0,,,,-0.279740646849704,-2.50542655031654,-0.195313009164775,,-2.7929644945369247,,
,7828.0,1262.0,4168.0,1386.0,2009.0,2882.0,1786.0,,,,-0.279902965582667,-2.50550358596433,-0.196685678860596,,-2.7884836031646314,,
,7835.0,1261.0,4169.0,1383.0,2023.0,2869.0,1809.0,,,,-0.279898851788021,-2.50600281517352,-0.195493825353007,,-2.7822297806272345,,
,7836.0,1263.0,4171.0,1387.0,2013.0,2854.0,1817.0,,,,-0.280086768435008,-2.50578617527349,-0.196226260896579,,-2.7768624301028715,,
,7843.0,1264.0,4172.0,1387.0,2045.0,2847.0,1803.0,,,,-0.279931890247532,-2.50570111073163,-0.195956279233811,,-2.774266418449608,,
,7847.0,1266.0,4173.0,1390.0,2036.0,2859.0,1805.0,,,,-0.279925330760753,-2.50554106394454,-0.195048083324457,,-2.775171450523364,,
,7851.0,1264.0,4173.0,1387.0,2027.0,2866.0,1785.0,,,,-0.279881190399972,-2.50554396862331,-0.194328106653262,,-2.778851939966775,,
,7856.0,1263.0,4174.0,1390.0,2029.0,2888.0,1836.0,,,,-0.279907129698694,-2.50586865226382,-0.194447685808412,,-2.782940699119715,,
,7860.0,1266.0,4179.0,1392.0,2041.0,2870.0,1809.0,,,,-0.280146292894939,-2.50588799837337,-0.195794705194157,,-2.783382317403053,,
,7864.0,1264.0,4178.0,1394.0,2042.0,2868.0,1820.0,,,,-0.280081185487331,-2.50622430262031,-0.19575361501975,,-2.7745417429445896,,
,7870.0,1267.0,4179.0,1395.0,2029.0,2865.0,1815.0,,,,-0.280339681132247,-2.50601621634543,-0.19544239721551,,-2.74947021643729,,
,7871.0,1266.0,4178.0,1394.0,2044.0,2876.0,1801.0,,,,-0.280733788090572,-2.50653254140433,-0.19584386145671,,-2.7003148641141594,,
,7879.0,1267.0,4181.0,1395.0,2047.0,2879.0,1795.0,,,,-0.280646267953853,-2.5066812912246,-0.196462472536489,,-2.6188416610931133,,
,7884.0,1266.0,4183.0,1395.0,2055.0,2879.0,1809.0,,,,-0.280742655170429,-2.50744591283805,-0.198365183520681,,-2.4970271600645377,,
,7888.0,1268.0,4183.0,1396.0,2061.0,2863.0,1784.0,,,,-0.281337197092516,-2.50784338639038,-0.197650871846201,,-2.3276657530438873,,
,7888.0,1268.0,4182.0,1395.0,2043.0,2888.0,1808.0,,,,-0.28133849645107,-2.5074007829448,-0.197954565696276,,-2.1049384285290835,,
,7894.0,1268.0,4186.0,1399.0,2041.0,2860.0,1811.0,,,,-0.281175088870198,-2.50751825435522,-0.198722616654219,,-1.8248958525592722,,
,7899.0,1271.0,4188.0,1399.0,2033.0,2861.0,1803.0,,,,-0.281362370643389,-2.50779954286508,-0.198796832420099,,-1.4858210918446362,,
,7904.0,1271.0,4189.0,1398.0,2031.0,2852.0,1816.0,,,,-0.281809117678167,-2.50785525929628,-0.198542820670188,,-1.0884525534785627,,
,7905.0,1272.0,4189.0,1398.0,2053.0,2881.0,1821.0,,,,-0.281864786321669,-2.50816136729045,-0.198915096019388,,-0.6360629503599172,,
,7908.0,1269.0,4190.0,1401.0,2036.0,2876.0,1809.0,,,,-0.281961130572944,-2.50851498499258,-0.200540504198373,,-0.1344030791627476,,
,7914.0,1273.0,4193.0,1401.0,2008.0,2864.0,1820.0,,,,-0.282188997244541,-2.50869692954923,-0.200252011293539,,0.40847149740057814,,
,7918.0,1274.0,4193.0,1402.0,2018.0,2864.0,1823.0,,,,-0.282458408383599,-2.50932548544447,-0.20020492166041,,0.9824676532572254,,
,7920.0,1272.0,4192.0,1403.0,2031.0,2869.0,1828.0,,,,-0.282567549755416,-2.50929905385796,-0.201061291205485,,1.5757913982800988,,
,7923.0,1272.0,4197.0,1404.0,2042.0,2869.0,1820.0,,,,-0.282205283225307,-2.50945106406209,-0.200820074381241,,2.1753317408308366,,
,7928.0,1274.0,4198.0,1405.0,2017.0,2868.0,1817.0,,,,-0.282443472873384,-2.50923046002319,-0.199928143450188,,2.7670737550575146,,
,7930.0,1273.0,4200.0,1407.0,2022.0,2867.0,1815.0,,,,-0.282600732684527,-2.5091729428235,-0.200603739094558,,3.336528613760922,,
,7936.0,1276.0,4198.0,1405.0,2023.0,2860.0,1821.0,,,,-0.282200311163816,-2.50887325498664,-0.199472979809031,,3.8691744052707984,,
,7938.0,1277.0,4202.0,1408.0,2016.0,2855.0,1836.0,,,,-0.282226265082975,-2.50875627580205,-0.200132361674225,,4.350906838677709,,
,7943.0,1277.0,4201.0,1408.0,2021.0,2855.0,1824.0,,,,-0.281898811945788,-2.50867593939514,-0.199817532028784,,4.7685021166818835,,
,7947.0,1277.0,4207.0,1410.0,2029.0,2839.0,1799.0,,,,-0.281720193897046,-2.50797616444748,-0.198907303865253,,5.110093778725017,,
,7953.0,1280.0,4206.0,1412.0,2034.0,2855.0,1806.0,,,,-0.281647648060224,-2.50824874391651,-0.198335768036655,,5.365659863634917,,
,7952.0,1278.0,4207.0,1409.0,2011.0,2857.0,1824.0,,,,-0.281227884896372,-2.50783654426073,-0.198197345842568,,5.527506061994928,,
,7958.0,1279.0,4210.0,1415.0,2005.0,2859.0,1822.0,,,,-0.281066102075255,-2.50792774257612,-0.197690827771919,,5.590716361649471,,
,7962.0,1279.0,4210.0,1413.0,2044.0,2867.0,1810.0,,,,-0.281056600958241,-2.50771358774346,-0.197067021755849,,5.553528878686059,,
,7966.0,1280.0,4214.0,1414.0,2040.0,2854.0,1815.0,,,,-0.280663511491101,-2.50724110806828,-0.198147881180427,,5.417585969257048,,
,7970.0,1279.0,4214.0,1412.0,2028.0,2850.0,1790.0,,,,-0.280870004732533,-2.50742564131926,-0.197551884190067,,5.188008540224216,,
,7973.0,1280.0,4215.0,1413.0,2029.0,2860.0,1804.0,,,,-0.280542431362581,-2.50723580802428,-0.197781184174872,,4.873256895243154,,
,7980.0,1280.0,4219.0,1419.0,2045.0,2862.0,1801.0,,,,-0.280258748101132,-2.50730055305849,-0.198042931832237,,4.4847637381050625,,
,7984.0,1282.0,4219.0,1420.0,2041.0,2867.0,1813.0,,,,-0.280360726134803,-2.50758697152608,-0.19573933242859,,4.036355088874936,,
,7988.0,1283.0,4221.0,1419.0,2058.0,2839.0,1805.0,,,,-0.280351827966327,-2.5069139772722,-0.196132265436674,,3.5435051315614214,,
,7990.0,1283.0,4226.0,1419.0,2039.0,2859.0,1830.0,,,,-0.280152954472073,-2.50662351889816,-0.195544601862523,,3.0224939794922876,,
,7996.0,1285.0,4229.0,1423.0,2036.0,2865.0,1817.0,,,,-0.280071573528531,-2.50654475016612,-0.195324897822454,,2.489547635390724,,
,7998.0,1286.0,4225.0,1422.0,2045.0,2872.0,1802.0,,,,-0.279742313678484,-2.50613220316383,-0.195625030800267,,1.960035644541966,,
,8004.0,1286.0,4229.0,1424.0,2027.0,2893.0,1800.0,,,,-0.279356747012786,-2.50581830747782,-0.193473000320842,,1.4477867230757748,,
,8008.0,1287.0,4230.0,1427.0,2023.0,2884.0,1802.0,,,,-0.279398492236531,-2.50529486817845,-0.193965359972205,,0.9645610639483894,,
,8014.0,1290.0,4233.0,1429.0,2016.0,2869.0,1808.0,,,,-0.279274948347733,-2.50467922514958,-0.19227602505067,,0.519695607407303,,
,8017.0,1289.0,4235.0,1429.0,2030.0,2860.0,1804.0,,,,-0.278697089278865,-2.50419288212936,-0.193235803550343,,0.11991980340616155,,
,8022.0,1290.0,4238.0,1428.0,2035.0,2862.0,1794.0,,,,-0.278736084823688,-2.50463322301394,-0.194241433829018,,-0.2306731527337344,,
,8028.0,1290.0,4238.0,1430.0,2048.0,2865.0,1810.0,,,,-0.278331727027548,-2.50405752049912,-0.193786614973331,,-0.5305208171292807,,
,8028.0,1292.0,4241.0,1431.0,2047.0,2878.0,1784.0,,,,-0.278428570992228,-2.5039548989038,-0.191567671336998,,-0.7803747442162279,,
,8037.0,1294.0,4245.0,1433.0,2046.0,2883.0,1789.0,,,,-0.278218046958879,-2.50372587697208,-0.191555182631129,,-0.9829956828965644,,
,8039.0,1293.0,4244.0,1434.0,2039.0,2877.0,1780.0,,,,-0.278094381823898,-2.50383297496942,-0.190593431012719,,-1.142784262928884,,
,8043.0,1293.0,4246.0,1433.0,2042.0,2880.0,1797.0,,,,-0.277885031110725,-2.50356027589537,-0.191122024123899,,-1.2653713550779064,,
,8049.0,1296.0,4251.0,1434.0,2049.0,2871.0,1816.0,,,,-0.278018263588034,-2.50368475380542,-0.191320330652007,,-1.3571923722622599,,
,8054.0,1299.0,4252.0,1436.0,2029.0,2857.0,1826.0,,,,-0.277532585811441,-2.50264351803793,-0.190077187656294,,-1.425068484640859,,
,8054.0,1298.0,4255.0,1439.0,2035.0,2853.0,1833.0,,,,-0.277696763141353,-2.5029440679448,-0.190801764542517,,-1.4758148048016413,,
,8061.0,1301.0,4256.0,1439.0,2026.0,2858.0,1795.0,,,,-0.277406772300096,-2.50233240946249,-0.188409337763361,,-1.5158913616349077,,
,8066.0,1297.0,4261.0,1441.0,2016.0,2864.0,1790.0,,,,-0.276708508096302,-2.50169892229417,-0.188183306566642,,-1.551107749012527,,
,8072.0,1300.0,4261.0,1444.0,2027.0,2875.0,1795.0,,,,-0.276270316281339,-2.50206259898775,-0.187794309015347,,-1.5863874825971047,,
,8076.0,1299.0,4263.0,1443.0,2037.0,2874.0,1804.0,,,,-0.276248640440988,-2.50134722622799,-0.187386275956073,,-1.6255941095670106,,
,8079.0,1301.0,4266.0,1445.0,2043.0,2877.0,1774.0,,,,-0.276223265578439,-2.50155453005365,-0.188034157482705,,-1.671418580614366,,
,8085.0,1303.0,4270.0,1445.0,2037.0,2882.0,1798.0,,,,-0.27621001431046,-2.50151625799768,-0.187575395145574,,-1.7253264694212123,,
,8091.0,1306.0,4271.0,1447.0,2049.0,2871.0,1779.0,,,,-0.276193374797945,-2.50147620387139,-0.187922294293615,,-1.7875639685886595,,
,8095.0,1306.0,4274.0,1451.0,2063.0,2867.0,1813.0,,,,-0.276395223352825,-2.50203671438769,-0.189051539998616,,-1.8572225011004206,,
,8095.0,1305.0,4275.0,1449.0,2059.0,2878.0,1808.0,,,,-0.276238374499926,-2.50240193548065,-0.189125312348395,,-1.9323623814695918,,
,8098.0,1303.0,4274.0,1450.0,2048.0,2880.0,1815.0,,,,-0.276498638084027,-2.5026018430675,-0.190915781138041,,-2.010195286705997,,
,8094.0,1304.0,4278.0,1451.0,2079.0,2896.0,1823.0,,,,-0.276450148317982,-2.5027256959116,-0.190563973192678,,-2.087322481833686,,
,8087.0,1302.0,4276.0,1451.0,2056.0,2891.0,1822.0,,,,-0.27611326410808,-2.50253582899559,-0.188092428814474,,-2.160020347526326,,
,8071.0,1301.0,4274.0,1448.0,2050.0,2889.0,1811.0,,,,-0.275770123039553,-2.5019774104275,-0.190296889110708,,-2.224557286152051,,
,8053.0,1295.0,4269.0,1441.0,2044.0,2878.0,1804.0,,,,-0.275663185367005,-2.5018654010215,-0.189156929377374,,-2.2775183555961167,,
,8031.0,1292.0,4262.0,1440.0,2029.0,2869.0,1813.0,,,,-0.276060724743781,-2.50182645443597,-0.188663539894084,,-2.3161087750001847,,
,8011.0,1289.0,4258.0,1432.0,2014.0,2856.0,1812.0,,,,-0.275780234413775,-2.50181135790663,-0.189821305558807,,-2.3384071886976954,,
,7985.0,1285.0,4249.0,1425.0,2015.0,2852.0,1810.0,,,,-0.275446327176076,-2.50129488142707,-0.188846912665185,,-2.3435448568004755,,
,7960.0,1284.0,4243.0,1418.0,2025.0,2862.0,1800.0,,,,-0.275645118126296,-2.50161534995484,-0.189168038372325,,-2.3317961880789255,,
,7937.0,1280.0,4235.0,1410.0,2013.0,2856.0,1805.0,,,,-0.275547272477753,-2.5010222218161,-0.18811355693454,,-2.3045765690967386,,
,7915.0,1276.0,4227.0,1410.0,2025.0,2871.0,1798.0,,,,-0.275141803841625,-2.50083304793938,-0.187348788825599,,-2.2643528632812036,,
,7894.0,1273.0,4221.0,1401.0,2032.0,2865.0,1800.0,,,,-0.274878932658634,-2.50096649167144,-0.189274281936288,,-2.2144787917424718,,
,7876.0,1271.0,4216.0,1401.0,2032.0,2876.0,1818.0,,,,-0.274850725185143,-2.50076897005951,-0.188022733748422,,-2.1589711794385527,,
,7859.0,1266.0,4209.0,1394.0,2039.0,2857.0,1803.0,,,,-0.274926847058405,-2.50130117898038,-0.187140250633706,,-2.102244045441291,,
,7844.0,1265.0,4203.0,1392.0,2033.0,2843.0,1792.0,,,,-0.274768735425982,-2.50119242894858,-0.188232970349546,,-2.048816564996988,,
,7836.0,1266.0,4199.0,1389.0,2035.0,2861.0,1810.0,,,,-0.274892636669837,-2.50141842233399,-0.188046503398758,,-2.0030091487748636,,
,7828.0,1263.0,4196.0,1386.0,2029.0,2859.0,1813.0,,,,-0.274877289511734,-2.50125553955351,-0.189323427393658,,-1.9686403599380504,,
,7816.0,1262.0,4191.0,1383.0,2006.0,2855.0,1806.0,,,,-0.274688050590078,-2.50189723732849,-0.189931518708799,,-1.9487368706255872,,
,7812.0,1264.0,4191.0,1384.0,2016.0,2853.0,1797.0,,,,-0.275196786951033,-2.50228242670734,-0.188821671084319,,-1.9452693616618335,,
,7810.0,1263.0,4187.0,1383.0,1999.0,2863.0,1797.0,,,,-0.275036812419141,-2.50235782409213,-0.189000702776929,,-1.9589288437016976,,
,7809.0,1263.0,4183.0,1383.0,2009.0,2876.0,1794.0,,,,-0.275189798820841,-2.50224498181664,-0.188064882847526,,-1.9889594696846875,,
2025-07-04 15:52:36,7808.0,1261.0,4184.0,1379.0,2022.0,2884.0,1796.0,,,2025/07/04 03:52:36 PM,-0.274974296968106,-2.50240516729252,-0.189559664754043,,-2.0330643069326606,,
,7805.0,1260.0,4181.0,1378.0,2030.0,2880.0,1786.0,,,,-0.275184685315518,-2.50247032772122,-0.189735559856925,,-2.08739849178536,,
,7806.0,1259.0,4182.0,1380.0,2056.0,2876.0,1795.0,,,,-0.27543764277992,-2.50244280198854,-0.189488527291903,,-2.1466588779588305,,
,7805.0,1262.0,4182.0,1380.0,2046.0,2863.0,1785.0,,,,-0.275473834736429,-2.50306037847947,-0.189603675181783,,-2.2042708607675356,,
,7806.0,1260.0,4179.0,1378.0,2044.0,2896.0,1769.0,,,,-0.275782840012234,-2.50359196816999,-0.191570213486468,,-2.2526630493076913,,
,7808.0,1260.0,4175.0,1377.0,2026.0,2870.0,1767.0,,,,-0.275978358578636,-2.50396201511413,-0.192926419288977,,-2.2836115243120068,,
,7807.0,1260.0,4176.0,1379.0,2046.0,2878.0,1796.0,,,,-0.276473596053493,-2.50466397995727,-0.193272689272348,,-2.288630044395714,,
,7811.0,1261.0,4177.0,1379.0,2061.0,2886.0,1799.0,,,,-0.276515456623162,-2.50503310612906,-0.19319832877027,,-2.2593815883164488,,
,7812.0,1260.0,4177.0,1381.0,2047.0,2881.0,1791.0,,,,-0.276877281047929,-2.50461933781937,-0.194498834580871,,-2.1880889492021627,,
,7811.0,1259.0,4175.0,1379.0,2039.0,2896.0,1792.0,,,,-0.277288818578789,-2.50512756714445,-0.193322123115659,,-2.067925751651529,,
,7810.0,1260.0,4175.0,1380.0,2025.0,2888.0,1800.0,,,,-0.277230117214645,-2.50533906870967,-0.19430059747356,,-1.893372724569816,,
,7814.0,1259.0,4174.0,1381.0,2024.0,2878.0,1798.0,,,,-0.277139286287273,-2.50547242835539,-0.193941210034001,,-1.6605268799907564,,
,7813.0,1259.0,4175.0,1381.0,2026.0,2884.0,1819.0,,,,-0.277088894563234,-2.50552075906201,-0.194318126362243,,-1.3673537642251974,,
,7816.0,1257.0,4174.0,1382.0,2038.0,2883.0,1809.0,,,,-0.277185948719947,-2.50555265327681,-0.194380996900022,,-1.0138756567447316,,
,7817.0,1260.0,4171.0,1381.0,2020.0,2869.0,1805.0,,,,-0.27682418979116,-2.50573458563656,-0.193894855413388,,-0.6022916680207333,,
,7819.0,1261.0,4175.0,1382.0,2025.0,2870.0,1795.0,,,,-0.277447557142749,-2.50605090605725,-0.194252071101641,,-0.13702884034258975,,
,7822.0,1259.0,4173.0,1380.0,2029.0,2862.0,1789.0,,,,-0.277603913736039,-2.50625311656413,-0.195147435289526,,0.37527406088801996,,
,7822.0,1259.0,4171.0,1378.0,2026.0,2852.0,1814.0,,,,-0.277878575243894,-2.50638124617413,-0.195787391366373,,0.9258470643602285,,
,7821.0,1260.0,4171.0,1381.0,2022.0,2848.0,1806.0,,,,-0.277783867308102,-2.5068060913139,-0.195344753488987,,1.503931153142316,,
,7821.0,1261.0,4173.0,1380.0,2028.0,2876.0,1800.0,,,,-0.277833193678732,-2.50667342283447,-0.195568377351233,,2.0969812771085956,,
,7822.0,1258.0,4171.0,1380.0,2028.0,2882.0,1803.0,,,,-0.278119825580449,-2.50680124435479,-0.194025168051047,,2.6909323850492832,,
,7818.0,1257.0,4167.0,1381.0,2020.0,2885.0,1820.0,,,,-0.278150166719879,-2.50663500814451,-0.194336215530461,,3.2705340266219927,,
,7819.0,1257.0,4166.0,1376.0,2017.0,2885.0,1813.0,,,,-0.277984116479364,-2.50654446585046,-0.194382087508518,,3.8197618512965854,,
,7818.0,1259.0,4167.0,1377.0,2013.0,2862.0,1807.0,,,,-0.27767641375342,-2.50621826042797,-0.195058788762016,,4.32231485136644,,
,7816.0,1259.0,4165.0,1381.0,2015.0,2873.0,1806.0,,,,-0.277561712173943,-2.50614407430155,-0.19428879854153,,4.7622033599243005,,
,7816.0,1256.0,4164.0,1376.0,2018.0,2860.0,1806.0,,,,-0.277935348626199,-2.50607976663649,-0.19520765999293,,5.124422955909701,,
,7811.0,1255.0,4163.0,1376.0,2015.0,2864.0,1823.0,,,,-0.277991606795034,-2.50615392304627,-0.194655281365309,,5.3956935690940915,,
,7812.0,1257.0,4163.0,1377.0,2027.0,2872.0,1816.0,,,,-0.27794554947726,-2.50619058159664,-0.195480803203556,,5.565223622853624,,
,7812.0,1256.0,4163.0,1378.0,2015.0,2889.0,1814.0,,,,-0.277825290963982,-2.50577873508472,-0.194258314494192,,5.625440224037177,,
,7810.0,1256.0,4165.0,1376.0,2035.0,2881.0,1819.0,,,,-0.277727104437034,-2.50542564050745,-0.194348318466743,,5.572612854969798,,
,7807.0,1257.0,4158.0,1375.0,2026.0,2877.0,1810.0,,,,-0.277492296538878,-2.50546494732925,-0.194043455267769,,5.407293641352212,,
,7807.0,1255.0,4159.0,1375.0,2046.0,2882.0,1809.0,,,,-0.277644737957193,-2.50539642269618,-0.193116839998388,,5.134504719070058,,
,7807.0,1254.0,4158.0,1376.0,2023.0,2877.0,1795.0,,,,-0.277577174872942,-2.50575240453694,-0.194214448646858,,4.763623654647258,,
,7808.0,1256.0,4156.0,1374.0,2029.0,2874.0,1792.0,,,,-0.277749844002131,-2.50598843432456,-0.193714529667352,,4.307950155269728,,
,7809.0,1252.0,4157.0,1375.0,2027.0,2887.0,1818.0,,,,-0.277779719669322,-2.50611745975279,-0.19440446430786,,3.783976874845002,,
,7810.0,1254.0,4155.0,1375.0,2018.0,2860.0,1807.0,,,,-0.277768279229544,-2.50591071165789,-0.194150354130002,,3.210426050564704,,
,7813.0,1254.0,4155.0,1377.0,2018.0,2859.0,1821.0,,,,-0.277711440295761,-2.50610002964153,-0.194676443451539,,2.6071431646849432,,
,7814.0,1256.0,4156.0,1373.0,2028.0,2858.0,1822.0,,,,-0.278025334402694,-2.50648506283633,-0.195090492094727,,1.9939527462355449,,
,7814.0,1255.0,4156.0,1374.0,2042.0,2887.0,1815.0,,,,-0.278115809718126,-2.50680586798395,-0.195144550982562,,1.3895786043457108,,
,7818.0,1254.0,4157.0,1375.0,2033.0,2880.0,1806.0,,,,-0.278581402994725,-2.50685484299719,-0.195446198874073,,0.8107142989708631,,
,7820.0,1257.0,4157.0,1379.0,2033.0,2888.0,1818.0,,,,-0.278842362314062,-2.50737056560785,-0.19757665781657,,0.271304741548553,,
,7823.0,1255.0,4157.0,1377.0,2024.0,2892.0,1807.0,,,,-0.279186223090663,-2.50848409537546,-0.197731456768436,,-0.21792806983198657,,
,7824.0,1255.0,4159.0,1380.0,2025.0,2871.0,1807.0,,,,-0.279558527559801,-2.5084066359805,-0.197970323288233,,-0.6497085200064612,,
,7826.0,1253.0,4157.0,1376.0,2017.0,2880.0,1812.0,,,,-0.27956259279375,-2.50902060037808,-0.198365025049958,,-1.0201952843135083,,
,7832.0,1256.0,4157.0,1378.0,2031.0,2861.0,1790.0,,,,-0.279960384309039,-2.50931843359566,-0.198913599788585,,-1.3287652798342349,,
,7837.0,1256.0,4160.0,1378.0,2042.0,2861.0,1811.0,,,,-0.280283305505296,-2.50981642851878,-0.199327405676272,,-1.5776363075453308,,
,7842.0,1260.0,4162.0,1381.0,2049.0,2864.0,1824.0,,,,-0.280505621859464,-2.51005595193874,-0.199610204487529,,-1.771377163046367,,
,7844.0,1256.0,4158.0,1379.0,2027.0,2856.0,1816.0,,,,-0.280718767034356,-2.51033583952343,-0.199772983839802,,-1.9163553222728111,,
,7848.0,1261.0,4162.0,1380.0,2022.0,2869.0,1810.0,,,,-0.280846891209295,-2.5108397333247,-0.200687855207246,,-2.0201689353727703,,
,7853.0,1263.0,4164.0,1385.0,2022.0,2859.0,1808.0,,,,-0.280685399204048,-2.5106236762072,-0.200887895130759,,-2.09110240259543,,
,7856.0,1259.0,4166.0,1384.0,2023.0,2870.0,1817.0,,,,-0.281187107928749,-2.5111411428332,-0.20070571237401,,-2.137634521127101,,
,7862.0,1259.0,4165.0,1382.0,2028.0,2878.0,1808.0,,,,-0.281522505322238,-2.51145658236541,-0.201794369109359,,-2.168016690333505,,
,7867.0,1260.0,4168.0,1385.0,2031.0,2881.0,1821.0,,,,-0.281731015678439,-2.51127648950546,-0.201466747082211,,-2.189927514067655,,
,7871.0,1261.0,4170.0,1385.0,2041.0,2887.0,1809.0,,,,-0.281701401238427,-2.51173388059432,-0.201818977076495,,-2.210200665646803,,
,7876.0,1263.0,4169.0,1388.0,2047.0,2878.0,1801.0,,,,-0.281823189000092,-2.51157227167203,-0.202273026284187,,-2.2346161155860664,,
,7881.0,1264.0,4173.0,1387.0,2057.0,2883.0,1811.0,,,,-0.281934229008622,-2.51179681265293,-0.203205629280694,,-2.267741437855411,,
,7886.0,1263.0,4171.0,1391.0,2032.0,2878.0,1804.0,,,,-0.281824735559062,-2.51188857442391,-0.203504561743004,,-2.312810092497943,,
,7891.0,1264.0,4176.0,1390.0,2014.0,2879.0,1797.0,,,,-0.282419234395748,-2.51182419454596,-0.203881104689262,,-2.371626923673639,,
,7894.0,1265.0,4176.0,1389.0,2016.0,2883.0,1813.0,,,,-0.282158998550024,-2.51182281601043,-0.202845561082901,,-2.44449658529457,,
,7901.0,1266.0,4176.0,1392.0,2011.0,2862.0,1824.0,,,,-0.282028657229336,-2.51180662506667,-0.20184914597353,,-2.5301766488040958,,
,7904.0,1265.0,4179.0,1392.0,2005.0,2876.0,1817.0,,,,-0.282110790359346,-2.51190758481679,-0.204577437509121,,-2.6258619567234924,,
,7908.0,1268.0,4179.0,1396.0,2008.0,2886.0,1824.0,,,,-0.282153502188325,-2.51157831630823,-0.202053345333753,,-2.7272089327822653,,
,7914.0,1266.0,4182.0,1394.0,2015.0,2868.0,1806.0,,,,-0.282224321478638,-2.51149370422706,-0.203674720830032,,-2.8284077766428184,,
,7917.0,1268.0,4184.0,1397.0,2013.0,2870.0,1806.0,,,,-0.282160606328251,-2.51158656638362,-0.204024817019353,,-2.9223079499708637,,
,7918.0,1268.0,4183.0,1394.0,2018.0,2878.0,1794.0,,,,-0.281912855249226,-2.51145214685987,-0.202721847362825,,-3.000599961498869,,
,7924.0,1266.0,4184.0,1395.0,2035.0,2867.0,1804.0,,,,-0.281995543066343,-2.51138049813289,-0.203643142149213,,-3.054055317630199,,
,7925.0,1269.0,4186.0,1399.0,2037.0,2866.0,1813.0,,,,-0.281650428745021,-2.5117523431117,-0.202287141766372,,-3.072826271751185,,
,7932.0,1269.0,4189.0,1401.0,2030.0,2857.0,1813.0,,,,-0.281832395179625,-2.51190914508797,-0.20444041399738,,-3.046806256470163,,
,7934.0,1270.0,4188.0,1400.0,2016.0,2870.0,1816.0,,,,-0.282019674025333,-2.51223051642059,-0.203336269656303,,-2.9660491892073733,,
,7937.0,1269.0,4192.0,1400.0,2031.0,2856.0,1801.0,,,,-0.281913336501481,-2.51200379463829,-0.205358508152982,,-2.8212406848560114,,
,7944.0,1273.0,4195.0,1402.0,2033.0,2853.0,1796.0,,,,-0.281717366670016,-2.51227307955372,-0.205095338679319,,-2.6042072689467997,,
,7947.0,1270.0,4194.0,1403.0,2049.0,2863.0,1805.0,,,,-0.281757347123399,-2.51220415078394,-0.204954373745699,,-2.3084425094837324,,
,7949.0,1271.0,4196.0,1403.0,2051.0,2885.0,1812.0,,,,-0.281657044981843,-2.51252306245777,-0.203369787443401,,-1.929623371870875,,
,7952.0,1274.0,4198.0,1404.0,2029.0,2884.0,1805.0,,,,-0.282097581090175,-2.5119750377515,-0.204981452011321,,-1.4660874136017368,,
,7957.0,1275.0,4198.0,1406.0,2028.0,2877.0,1828.0,,,,-0.282088684989621,-2.51233345042984,-0.204485021764172,,-0.9192420133893497,,
,7962.0,1277.0,4201.0,1407.0,2027.0,2881.0,1820.0,,,,-0.281622614704556,-2.51185492630967,-0.20389158048153,,-0.2938797726841596,,
,7967.0,1276.0,4200.0,1409.0,2027.0,2876.0,1806.0,,,,-0.281317344817834,-2.5114305767527,-0.202181980343371,,0.4016221861534505,,
,7971.0,1273.0,4203.0,1409.0,2039.0,2893.0,1802.0,,,,-0.280882617107069,-2.51103454030267,-0.201923858171035,,1.1552387221914324,,
,7977.0,1276.0,4205.0,1409.0,2045.0,2869.0,1795.0,,,,-0.281140576647661,-2.51106489607701,-0.202325182280665,,1.9513878271417968,,
,7977.0,1278.0,4207.0,1414.0,2021.0,2864.0,1789.0,,,,-0.280997255350002,-2.5104047750584,-0.2001944382965,,2.7711955422470442,,
,7979.0,1278.0,4209.0,1412.0,2023.0,2867.0,1796.0,,,,-0.280670565416085,-2.51037945708225,-0.200268062153821,,3.592953304387393,,
,7984.0,1277.0,4209.0,1412.0,2019.0,2857.0,1807.0,,,,-0.280610234768619,-2.51025439350826,-0.201246398309913,,4.392782596427819,,
,7991.0,1277.0,4210.0,1414.0,2025.0,2866.0,1790.0,,,,-0.280204643075154,-2.5096425377547,-0.19861363273991,,5.145511981314341,,
,7993.0,1280.0,4213.0,1413.0,2037.0,2876.0,1802.0,,,,-0.279828101092657,-2.50909733745824,-0.199151192160597,,5.825754130978091,,
,7997.0,1280.0,4215.0,1415.0,2018.0,2874.0,1805.0,,,,-0.27976084279864,-2.50879367214,-0.198696678158123,,6.4091458317870265,,
,8004.0,1279.0,4215.0,1415.0,2011.0,2871.0,1827.0,,,,-0.279752380927299,-2.50825382390721,-0.19808587043386,,6.873685378307077,,
,8006.0,1283.0,4217.0,1417.0,2015.0,2873.0,1817.0,,,,-0.279268025854875,-2.50806884406506,-0.197227624100125,,7.201074552837452,,
,8009.0,1283.0,4220.0,1422.0,1989.0,2861.0,1821.0,,,,-0.27934309058819,-2.50764058780887,-0.196131164796722,,7.377952435726629,,
,8013.0,1284.0,4222.0,1420.0,1991.0,2864.0,1815.0,,,,-0.279019562359395,-2.50764720786806,-0.196564746046809,,7.396900622827523,,
,8017.0,1286.0,4225.0,1422.0,2006.0,2872.0,1789.0,,,,-0.279249042331888,-2.50776009123128,-0.197446255271872,,7.257107264147039,,
,8022.0,1286.0,4223.0,1421.0,2025.0,2870.0,1815.0,,,,-0.279414353829462,-2.50788104231454,-0.196207975690411,,6.964601792331974,,
,8029.0,1285.0,4229.0,1423.0,2035.0,2857.0,1824.0,,,,-0.279284973705487,-2.50769264562073,-0.197122768876392,,6.532011976141032,,
,8031.0,1288.0,4231.0,1425.0,2033.0,2849.0,1816.0,,,,-0.279027889357605,-2.50774782985117,-0.197285608200719,,5.977845514225236,,
,8037.0,1289.0,4233.0,1425.0,2012.0,2825.0,1819.0,,,,-0.278964842090068,-2.50797266948984,-0.197937932234034,,5.325351652018977,,
,8038.0,1289.0,4233.0,1427.0,2013.0,2821.0,1790.0,,,,-0.279382057930426,-2.5075486783741,-0.197479106449954,,4.601064148334795,,
,8044.0,1290.0,4236.0,1428.0,2010.0,2836.0,1798.0,,,,-0.279191717221257,-2.50735623939325,-0.198227680488942,,3.8331570177866623,,
,8051.0,1291.0,4239.0,1430.0,2015.0,2849.0,1800.0,,,,-0.278992250445512,-2.50766959754277,-0.196701893369377,,3.0497554761040724,,
,8055.0,1290.0,4242.0,1431.0,2016.0,2855.0,1794.0,,,,-0.278700214582035,-2.50717936330458,-0.196870485297766,,2.277338157531711,,
,8056.0,1292.0,4241.0,1431.0,2012.0,2863.0,1791.0,,,,-0.27878180524523,-2.50710428898083,-0.196879842860503,,1.5393475216605208,,
,8060.0,1295.0,4243.0,1434.0,2052.0,2880.0,1792.0,,,,-0.27845108097424,-2.50679187534824,-0.197062927426244,,0.8550983376685188,,
,8065.0,1295.0,4249.0,1438.0,2030.0,2893.0,1805.0,,,,-0.278572767158879,-2.50699634000361,-0.196810896213392,,0.23904304761346598,,
,8071.0,1298.0,4251.0,1437.0,2023.0,2874.0,1820.0,,,,-0.278360936575413,-2.50680735569509,-0.195744147221675,,-0.2995798129153708,,
,8076.0,1296.0,4253.0,1436.0,2044.0,2862.0,1804.0,,,,-0.278320223647605,-2.50628101939043,-0.194676834736571,,-0.756720121345093,,
,8080.0,1297.0,4254.0,1436.0,2054.0,2876.0,1778.0,,,,-0.278253014248117,-2.50615104137326,-0.194617461556505,,-1.133148950246291,,
,8085.0,1300.0,4258.0,1439.0,2042.0,2865.0,1817.0,,,,-0.277789620268109,-2.50591901801153,-0.194121160593117,,-1.433808884445408,,
,8090.0,1297.0,4260.0,1444.0,2041.0,2862.0,1816.0,,,,-0.277689752364492,-2.50538080953421,-0.193745789879362,,-1.6669574568659795,,
,8095.0,1298.0,4259.0,1442.0,2052.0,2871.0,1819.0,,,,-0.277490870050824,-2.50529056561771,-0.194887520967434,,-1.8431871146621477,,
,8095.0,1300.0,4264.0,1442.0,2052.0,2866.0,1809.0,,,,-0.277430524186861,-2.50517246155001,-0.193064171730495,,-1.9744048257458562,,
,8101.0,1301.0,4267.0,1446.0,2032.0,2859.0,1800.0,,,,-0.277374487758302,-2.50500038264286,-0.191809276461592,,-2.0728473053691063,,
,8108.0,1303.0,4269.0,1449.0,2012.0,2850.0,1793.0,,,,-0.276889455644308,-2.50462000264542,-0.192299540741056,,-2.150195729494396,,
,8111.0,1305.0,4271.0,1450.0,2017.0,2841.0,1764.0,,,,-0.276715277389949,-2.50407176252832,-0.191511266894456,,-2.216838758469292,,
,8115.0,1305.0,4273.0,1451.0,2040.0,2861.0,1785.0,,,,-0.276309182455967,-2.50395203179939,-0.192313888946984,,-2.2813166670683866,,
,8117.0,1306.0,4274.0,1453.0,2034.0,2853.0,1809.0,,,,-0.276462618600798,-2.50369954134158,-0.191709216952973,,-2.3499639303317736,,
,8124.0,1308.0,4279.0,1453.0,2043.0,2862.0,1798.0,,,,-0.276428310220224,-2.5038708296477,-0.189881117863287,,-2.4267537266486587,,
,8129.0,1307.0,4281.0,1453.0,2028.0,2866.0,1798.0,,,,-0.27653225241651,-2.50371617692099,-0.190423203032931,,-2.513335792938943,,
,8132.0,1307.0,4281.0,1453.0,2028.0,2886.0,1784.0,,,,-0.276469304665112,-2.503661419321,-0.191328312931981,,-2.6092486292996595,,
,8135.0,1311.0,4284.0,1458.0,2064.0,2888.0,1784.0,,,,-0.276222574829165,-2.50388620083903,-0.190554812193751,,-2.712277672789493,,
,8137.0,1310.0,4287.0,1458.0,2067.0,2881.0,1773.0,,,,-0.276359306662513,-2.50377659433909,-0.191847213008498,,-2.8189224289413914,,
,8138.0,1311.0,4287.0,1461.0,2066.0,2875.0,1795.0,,,,-0.276647777512596,-2.50389948117266,-0.191391233818889,,-2.9249280893214595,,
,8137.0,1309.0,4289.0,1458.0,2051.0,2856.0,1816.0,,,,-0.276269566010462,-2.50421858243443,-0.191313027815041,,-3.0258323365845223,,
,8131.0,1307.0,4288.0,1458.0,2026.0,2876.0,1804.0,,,,-0.276511044723379,-2.50449256802457,-0.191101989133058,,-3.1174778645209056,,
,8115.0,1305.0,4287.0,1457.0,2053.0,2869.0,1791.0,,,,-0.276796007859058,-2.50464094003986,-0.193015021427447,,-3.196446827960147,,
,8099.0,1301.0,4280.0,1454.0,2047.0,2861.0,1791.0,,,,-0.277112786775846,-2.50458527350786,-0.192724297259069,,-3.260384265242781,,
,8078.0,1297.0,4279.0,1448.0,2009.0,2867.0,1776.0,,,,-0.277286218386598,-2.5053982799397,-0.194137859080273,,-3.308191165646099,,
,8057.0,1294.0,4270.0,1441.0,2001.0,2872.0,1806.0,,,,-0.277621716730965,-2.5055994986678,-0.194131093267002,,-3.3400816541595812,,
,8034.0,1291.0,4265.0,1439.0,2022.0,2866.0,1813.0,,,,-0.277932594687185,-2.50616383684593,-0.195918696382871,,-3.3575108545232513,,
,8010.0,1287.0,4257.0,1431.0,2028.0,2879.0,1794.0,,,,-0.278282234734966,-2.50693471768207,-0.195812314740373,,-3.3629894522105905,,
,7985.0,1284.0,4251.0,1424.0,2011.0,2884.0,1795.0,,,,-0.278712425541364,-2.50716272291979,-0.195667141173376,,-3.359807582856013,,
2025-07-04 15:52:37,7964.0,1282.0,4243.0,1418.0,2014.0,2856.0,1803.0,,,2025/07/04 03:52:37 PM,-0.278882672005208,-2.50756506258693,-0.195567933285399,,-3.351694577083556,,
,7944.0,1277.0,4240.0,1415.0,2010.0,2851.0,1791.0,,,,-0.279098227594129,-2.50779979795146,-0.196213997487401,,-3.342442719553057,,
,7929.0,1278.0,4233.0,1413.0,2018.0,2860.0,1806.0,,,,-0.279118259998476,-2.50819331708484,-0.196602795399802,,-3.335523128606616,,
,7911.0,1275.0,4228.0,1410.0,2005.0,2860.0,1807.0,,,,-0.278778554225676,-2.50823761787167,-0.19677374818425,,-3.3337207208956543,,
,7897.0,1276.0,4220.0,1405.0,2040.0,2853.0,1801.0,,,,-0.279288077063913,-2.50837835632576,-0.197862642307643,,-3.3388133530288258,,
,7885.0,1271.0,4220.0,1403.0,2030.0,2866.0,1794.0,,,,-0.279208365469817,-2.50842785534971,-0.197695045893156,,-3.3513176940201546,,
,7878.0,1272.0,4214.0,1400.0,2018.0,2875.0,1777.0,,,,-0.27912853396205,-2.5084266976757,-0.197601437261658,,-3.3703209968021777,,
,7871.0,1271.0,4211.0,1397.0,2024.0,2870.0,1792.0,,,,-0.279129601027299,-2.50873680753789,-0.197806667066583,,-3.393413334656448,,
,7865.0,1270.0,4209.0,1394.0,2030.0,2899.0,1794.0,,,,-0.279166735091166,-2.50895938024348,-0.198358572723908,,-3.416728580733543,,
,7863.0,1272.0,4205.0,1394.0,2025.0,2874.0,1780.0,,,,-0.279234480239811,-2.50862085486414,-0.198603503810707,,-3.4350941319168653,,
,7859.0,1272.0,4206.0,1396.0,2027.0,2870.0,1781.0,,,,-0.279319481498409,-2.5083382452213,-0.198093799850212,,-3.442279492557752,,
,7858.0,1271.0,4202.0,1395.0,2008.0,2862.0,1789.0,,,,-0.278960243944227,-2.50779381777763,-0.197407412572021,,-3.431323879378068,,
,7857.0,1270.0,4201.0,1394.0,2025.0,2856.0,1787.0,,,,-0.279014867581579,-2.50780512845184,-0.196827253936253,,-3.3949153734558504,,
,7857.0,1269.0,4200.0,1391.0,2023.0,2870.0,1804.0,,,,-0.278835386108778,-2.50767320219998,-0.196367685936354,,-3.3257907546632475,,
,7862.0,1271.0,4200.0,1396.0,2029.0,2868.0,1805.0,,,,-0.278979383202208,-2.50771722405679,-0.195521280638142,,-3.2171263035351183,,
,7865.0,1271.0,4202.0,1398.0,2040.0,2893.0,1798.0,,,,-0.278942759389549,-2.50756646809173,-0.19779381155264,,-3.0628943720885693,,
,7861.0,1269.0,4199.0,1394.0,2046.0,2879.0,1795.0,,,,-0.278742070297808,-2.50783915588983,-0.196199367267224,,-2.858166885621025,,
,7864.0,1268.0,4199.0,1394.0,2030.0,2855.0,1813.0,,,,-0.278626670188592,-2.50777314028965,-0.195933160893009,,-2.5993540990669217,,
,7867.0,1270.0,4197.0,1395.0,2044.0,2853.0,1795.0,,,,-0.278899647724783,-2.50756713667478,-0.197737942463501,,-2.2843743376171983,,
,7869.0,1272.0,4200.0,1399.0,2040.0,2861.0,1769.0,,,,-0.279052208635215,-2.50784571587613,-0.196499280436503,,-1.9127575962754146,,
,7870.0,1270.0,4197.0,1396.0,2042.0,2866.0,1777.0,,,,-0.279395868371473,-2.50825301627268,-0.197729935539059,,-1.485692010179808,,
,7870.0,1269.0,4198.0,1397.0,2008.0,2849.0,1787.0,,,,-0.279672488745915,-2.50840504191201,-0.197880628371516,,-1.006026435600357,,
,7874.0,1269.0,4199.0,1396.0,2028.0,2844.0,1806.0,,,,-0.279791980070125,-2.50905734624788,-0.198683657795191,,-0.47824393022453565,,
,7878.0,1273.0,4200.0,1400.0,2049.0,2852.0,1812.0,,,,-0.279925103158838,-2.508650631767,-0.197603025321382,,0.09158059209124016,,
,7881.0,1273.0,4199.0,1400.0,2022.0,2841.0,1813.0,,,,-0.280104407695315,-2.50936652142327,-0.198454427856496,,0.695829654629373,,
,7882.0,1273.0,4197.0,1397.0,2022.0,2861.0,1821.0,,,,-0.280200063812394,-2.50937909068216,-0.200217952564781,,1.3253970971636593,,
,7884.0,1273.0,4201.0,1401.0,2020.0,2879.0,1833.0,,,,-0.280480615578782,-2.51009720409897,-0.199809064251289,,1.9697517143176073,,
,7888.0,1272.0,4201.0,1401.0,2046.0,2856.0,1808.0,,,,-0.28068186742729,-2.50999546804211,-0.200653399505181,,2.617023383756404,,
,7889.0,1271.0,4201.0,1402.0,2033.0,2865.0,1811.0,,,,-0.28080503869997,-2.51028869075152,-0.199126143554743,,3.254131240940481,,
,7892.0,1272.0,4203.0,1404.0,2039.0,2859.0,1831.0,,,,-0.281174994085823,-2.51017833510411,-0.200824669774579,,3.8669786180273302,,
,7891.0,1273.0,4198.0,1400.0,2020.0,2859.0,1818.0,,,,-0.281453754274985,-2.51073218158983,-0.200792464477595,,4.440741291590222,,
,7891.0,1272.0,4200.0,1402.0,2015.0,2867.0,1801.0,,,,-0.28155294015412,-2.51098766541433,-0.202070898159282,,4.960271764919744,,
,7890.0,1269.0,4201.0,1401.0,2027.0,2862.0,1807.0,,,,-0.282193682241398,-2.51151238323757,-0.202735534173233,,5.4106310251332195,,
,7890.0,1270.0,4200.0,1401.0,2044.0,2855.0,1816.0,,,,-0.282467082632455,-2.51188635097615,-0.202875416737988,,5.7777406793075965,,
,7889.0,1269.0,4197.0,1399.0,2022.0,2868.0,1820.0,,,,-0.282424457220238,-2.51216250643766,-0.203739850171031,,6.049125416958103,,
,7888.0,1269.0,4197.0,1400.0,2024.0,2850.0,1805.0,,,,-0.28255805333585,-2.51247001090695,-0.203686098425394,,6.214692831802981,,
,7887.0,1271.0,4196.0,1402.0,2021.0,2871.0,1807.0,,,,-0.282848846289701,-2.51304151150128,-0.20319877441513,,6.26747931442197,,
,7882.0,1271.0,4196.0,1401.0,2021.0,2877.0,1806.0,,,,-0.283122785711632,-2.51289916380341,-0.204235797647233,,6.204280724630115,,
,7881.0,1270.0,4195.0,1398.0,2026.0,2856.0,1819.0,,,,-0.283245706656165,-2.51308133449824,-0.204360511565645,,6.026087570505917,,
,7881.0,1266.0,4192.0,1397.0,2028.0,2874.0,1828.0,,,,-0.283425453584119,-2.51322907280791,-0.203237180253798,,5.73825796533722,,
,7880.0,1269.0,4192.0,1397.0,2043.0,2840.0,1800.0,,,,-0.283662858348514,-2.51313208815071,-0.20365069660127,,5.350387316339993,,
,7878.0,1270.0,4193.0,1399.0,2051.0,2850.0,1805.0,,,,-0.283700167516942,-2.51333223431504,-0.204154928029754,,4.875868263781736,,
,7876.0,1266.0,4190.0,1397.0,2053.0,2892.0,1813.0,,,,-0.283867578670556,-2.51340956087948,-0.204710769196552,,4.331171612296046,,
,7878.0,1268.0,4188.0,1397.0,2055.0,2888.0,1825.0,,,,-0.28395148794031,-2.51348866297472,-0.204881976213011,,3.734911398699391,,
,7878.0,1268.0,4191.0,1398.0,2042.0,2884.0,1822.0,,,,-0.284194320649842,-2.51391663741054,-0.205064315262282,,3.106778903681887,,
,7878.0,1270.0,4191.0,1397.0,2040.0,2880.0,1805.0,,,,-0.284201015447527,-2.51401946734199,-0.205723633083399,,2.4664389773596067,,
,7878.0,1269.0,4191.0,1399.0,2054.0,2873.0,1799.0,,,,-0.284430792155508,-2.51446074940027,-0.205411239383716,,1.8324786956273518,,
,7880.0,1267.0,4190.0,1399.0,2047.0,2873.0,1800.0,,,,-0.284495580769138,-2.51491125478246,-0.205698343336512,,1.221486320502546,,
,7884.0,1269.0,4191.0,1400.0,2032.0,2866.0,1804.0,,,,-0.2845610790312,-2.51543430897369,-0.205775697792875,,0.6473213318850332,,
,7885.0,1270.0,4189.0,1399.0,2038.0,2855.0,1800.0,,,,-0.284982965605625,-2.51576525071515,-0.207870200110959,,0.1206165547123231,,
,7888.0,1272.0,4195.0,1398.0,2024.0,2862.0,1809.0,,,,-0.285571639574517,-2.51577666822048,-0.208158268684986,,-0.3514675102629619,,
,7890.0,1270.0,4191.0,1398.0,2052.0,2882.0,1781.0,,,,-0.285604938563811,-2.5167974702272,-0.206763992755944,,-0.765237381657219,,
,7894.0,1271.0,4193.0,1400.0,2029.0,2854.0,1782.0,,,,-0.28600635353468,-2.51715147768257,-0.209184645121903,,-1.120232120967431,,
,7899.0,1271.0,4195.0,1402.0,2027.0,2857.0,1780.0,,,,-0.286385394476341,-2.51796327527308,-0.209063197914638,,-1.4187993067757236,,
,7902.0,1270.0,4194.0,1402.0,2021.0,2859.0,1783.0,,,,-0.286660675675613,-2.51854342895335,-0.210002188791014,,-1.6655340036255688,,
,7905.0,1271.0,4196.0,1403.0,2024.0,2861.0,1807.0,,,,-0.287276375757139,-2.5191063652694,-0.210247016771447,,-1.8666399007523717,,
,7910.0,1271.0,4197.0,1405.0,2002.0,2862.0,1813.0,,,,-0.287454859333203,-2.51938217527616,-0.211242187917914,,-2.029271911314874,,
,7912.0,1275.0,4197.0,1407.0,2035.0,2873.0,1816.0,,,,-0.287803864329013,-2.51956017141314,-0.212286879696079,,-2.1609138934697527,,
,7918.0,1273.0,4199.0,1408.0,2039.0,2853.0,1824.0,,,,-0.288249240789404,-2.51989015550312,-0.213532284423365,,-2.2688351566588283,,
,7923.0,1274.0,4198.0,1403.0,2030.0,2845.0,1791.0,,,,-0.288670993039682,-2.52028657790496,-0.2139598935119,,-2.3596567159432085,,
,7929.0,1277.0,4202.0,1406.0,2017.0,2860.0,1796.0,,,,-0.288912254499704,-2.52036705193324,-0.213431371823301,,-2.4390445954585966,,
,7933.0,1276.0,4202.0,1410.0,2024.0,2857.0,1794.0,,,,-0.289017267943799,-2.52044156531765,-0.213834594258762,,-2.511534452188902,,
,7939.0,1277.0,4206.0,1412.0,2031.0,2867.0,1785.0,,,,-0.289103774009191,-2.52083188446048,-0.215150176116834,,-2.5804805883106727,,
,7943.0,1278.0,4204.0,1412.0,2031.0,2879.0,1793.0,,,,-0.289353837329896,-2.52096720540987,-0.214733084470546,,-2.648113664424946,,
,7948.0,1278.0,4207.0,1408.0,2055.0,2880.0,1809.0,,,,-0.289291042888555,-2.52116916589341,-0.215792833399902,,-2.715685119256925,,
,7952.0,1277.0,4209.0,1416.0,2035.0,2903.0,1827.0,,,,-0.289185970999258,-2.52101905637935,-0.21496168946361,,-2.783671911571023,,
,7959.0,1280.0,4211.0,1415.0,2020.0,2891.0,1808.0,,,,-0.289374156767974,-2.5210423118651,-0.215098099917713,,-2.8520119392490475,,
,7963.0,1279.0,4211.0,1415.0,2012.0,2881.0,1812.0,,,,-0.289580948875975,-2.52038122377683,-0.215483297841051,,-2.920337909385675,,
,7965.0,1279.0,4214.0,1416.0,2002.0,2865.0,1810.0,,,,-0.289583141045487,-2.52043862951619,-0.215534632354575,,-2.988176150006295,,
,7971.0,1279.0,4216.0,1420.0,2030.0,2874.0,1807.0,,,,-0.289395326631051,-2.52044730648276,-0.215167839344453,,-3.0550787108631985,,
,7975.0,1282.0,4217.0,1421.0,2060.0,2888.0,1814.0,,,,-0.289435782569189,-2.52052074586009,-0.214487413841024,,-3.120664100599555,,
,7981.0,1286.0,4219.0,1421.0,2040.0,2885.0,1825.0,,,,-0.289707487364692,-2.52045463056553,-0.216449922131304,,-3.1845545876143486,,
,7984.0,1283.0,4221.0,1420.0,2030.0,2854.0,1820.0,,,,-0.28971397380199,-2.5206251142467,-0.216863180879465,,-3.246214266845098,,
,7988.0,1284.0,4221.0,1425.0,2038.0,2843.0,1815.0,,,,-0.289982094440325,-2.52093162931823,-0.215159137886985,,-3.304708802632112,,
,7993.0,1286.0,4224.0,1425.0,2029.0,2853.0,1801.0,,,,-0.290175026886379,-2.52058530597991,-0.214614508810654,,-3.3584218085096156,,
,7997.0,1285.0,4227.0,1423.0,2028.0,2854.0,1798.0,,,,-0.28994550842957,-2.52103500592902,-0.215416930746719,,-3.404772131921557,,
,8001.0,1284.0,4226.0,1425.0,2024.0,2862.0,1812.0,,,,-0.290110129212561,-2.52094945259951,-0.215269085700438,,-3.439979792606514,,
,8007.0,1286.0,4231.0,1426.0,2037.0,2882.0,1793.0,,,,-0.289860142251365,-2.5209540162409,-0.215504606434806,,-3.4589256459146873,,
,8010.0,1287.0,4232.0,1428.0,2029.0,2868.0,1805.0,,,,-0.290295487174395,-2.52116996748996,-0.215315216974628,,-3.45514132132931,,
,8014.0,1289.0,4235.0,1428.0,2025.0,2859.0,1807.0,,,,-0.290067014137292,-2.52087764129404,-0.215270233120506,,-3.420952622445908,,
,8018.0,1290.0,4233.0,1429.0,2040.0,2868.0,1805.0,,,,-0.290006603433721,-2.52099935577077,-0.215123165835988,,-3.3477830086306994,,
,8019.0,1287.0,4234.0,1429.0,2052.0,2877.0,1812.0,,,,-0.289940442110079,-2.52098477413414,-0.215060998631448,,-3.2266060451520104,,
,8024.0,1287.0,4239.0,1433.0,2053.0,2882.0,1804.0,,,,-0.289934443705525,-2.52110176191919,-0.214561327258741,,-3.0485189192822113,,
,8031.0,1291.0,4239.0,1434.0,2034.0,2889.0,1808.0,,,,-0.289783124987024,-2.52113027389476,-0.212710799643048,,-2.8053952136679867,,
,8030.0,1293.0,4238.0,1433.0,2033.0,2886.0,1807.0,,,,-0.289980119159582,-2.52081627001501,-0.213719256683476,,-2.490565647716782,,
,8035.0,1291.0,4244.0,1434.0,2029.0,2879.0,1806.0,,,,-0.289913396017219,-2.52086106127823,-0.213861496541977,,-2.099471363846995,,
,8038.0,1292.0,4246.0,1435.0,2022.0,2887.0,1811.0,,,,-0.289736860884504,-2.52013093467146,-0.21242796741605,,-1.6302357942723107,,
,8043.0,1293.0,4248.0,1436.0,2019.0,2888.0,1806.0,,,,-0.289358722957879,-2.52025044507876,-0.21317804607773,,-1.0841079500454616,,
,8044.0,1294.0,4249.0,1438.0,2029.0,2887.0,1813.0,,,,-0.28945182210566,-2.52039000272496,-0.213498887154024,,-0.46574140430293504,,
,8047.0,1295.0,4250.0,1437.0,2036.0,2898.0,1810.0,,,,-0.289530666487741,-2.52022935859509,-0.213007551838261,,0.21671232819210753,,
,8054.0,1296.0,4253.0,1439.0,2039.0,2891.0,1804.0,,,,-0.289605882189881,-2.52030706165221,-0.21294644072275,,0.9517025372816094,,
,8058.0,1296.0,4253.0,1440.0,2038.0,2881.0,1811.0,,,,-0.28957790361103,-2.52023782770993,-0.213058089379504,,1.7245642747067065,,
,8059.0,1295.0,4257.0,1444.0,2036.0,2874.0,1808.0,,,,-0.289235670880462,-2.52039195812127,-0.212012747992632,,2.517974776661555,,
,8063.0,1298.0,4259.0,1441.0,2040.0,2887.0,1806.0,,,,-0.289395661023122,-2.52014580217628,-0.212021665977628,,3.312560838824485,,
,8068.0,1298.0,4258.0,1443.0,2036.0,2865.0,1808.0,,,,-0.289317849714696,-2.52041927484197,-0.213272951968556,,4.087632518468782,,
,8073.0,1298.0,4261.0,1447.0,2035.0,2864.0,1838.0,,,,-0.289292281265976,-2.52070065173228,-0.21247064195962,,4.822014924534202,,
,8077.0,1300.0,4264.0,1449.0,2033.0,2857.0,1831.0,,,,-0.289497443412081,-2.52045193982958,-0.213545994415632,,5.494946160748365,,
,8079.0,1300.0,4266.0,1448.0,2024.0,2877.0,1818.0,,,,-0.289575234235695,-2.52072326311295,-0.214285641230884,,6.087005353440469,,
,8084.0,1300.0,4268.0,1449.0,2033.0,2873.0,1822.0,,,,-0.289545146224648,-2.5208692222754,-0.212852287296839,,6.581029732933062,,
,8089.0,1303.0,4269.0,1452.0,2054.0,2870.0,1808.0,,,,-0.289746485820445,-2.52062777700363,-0.213952785390134,,6.962973810230378,,
,8093.0,1305.0,4272.0,1452.0,2035.0,2876.0,1787.0,,,,-0.28967722422873,-2.52055412203425,-0.2145806688593,,7.22265759987425,,
,8097.0,1305.0,4276.0,1454.0,2034.0,2877.0,1779.0,,,,-0.28967683670744,-2.52025647412131,-0.214248525289459,,7.35434675966069,,
,8100.0,1304.0,4276.0,1453.0,2028.0,2866.0,1786.0,,,,-0.289452466569468,-2.52030640217134,-0.212203670290871,,7.357108570112094,,
,8104.0,1307.0,4278.0,1456.0,2052.0,2888.0,1790.0,,,,-0.289570973361952,-2.52009300187812,-0.212869716019024,,7.234896686367284,,
,8108.0,1310.0,4280.0,1456.0,2044.0,2889.0,1809.0,,,,-0.289172618425698,-2.51977809505504,-0.212079687789162,,6.996335820015853,,
,8113.0,1308.0,4284.0,1460.0,2041.0,2892.0,1807.0,,,,-0.28952336495311,-2.51984045173386,-0.212232603268404,,6.654204028564108,,
,8115.0,1309.0,4283.0,1459.0,2034.0,2886.0,1799.0,,,,-0.289250315639297,-2.5194712385024,-0.212281885507914,,6.2246420109314995,,
,8120.0,1310.0,4289.0,1459.0,2022.0,2897.0,1794.0,,,,-0.288899219010736,-2.51972735349387,-0.211729158935167,,5.726150734883628,,
,8125.0,1309.0,4290.0,1463.0,2038.0,2882.0,1793.0,,,,-0.288536881412771,-2.51919932832444,-0.212322031878412,,5.1784647105206965,,
,8132.0,1313.0,4291.0,1462.0,2042.0,2880.0,1792.0,,,,-0.288329895028947,-2.51895904262455,-0.211792047274287,,4.601402641632991,,
,8134.0,1313.0,4293.0,1464.0,2026.0,2868.0,1784.0,,,,-0.287973886659358,-2.51866162637999,-0.211564719143663,,4.013796990569324,,
,8138.0,1313.0,4296.0,1468.0,2015.0,2904.0,1786.0,,,,-0.287676624901851,-2.51817703317335,-0.209694070376531,,3.4325897868596043,,
,8142.0,1315.0,4297.0,1468.0,2008.0,2890.0,1785.0,,,,-0.287539041357573,-2.51755335942302,-0.209897913812304,,2.872157388802241,,
,8147.0,1316.0,4302.0,1469.0,2028.0,2897.0,1794.0,,,,-0.28707263145801,-2.51723667513777,-0.208521575623996,,2.3438968196994523,,
,8151.0,1317.0,4301.0,1472.0,2050.0,2880.0,1785.0,,,,-0.286926746573259,-2.51695641941166,-0.209885401106899,,1.8560756097112534,,
,8155.0,1316.0,4304.0,1473.0,2056.0,2862.0,1800.0,,,,-0.286790790041325,-2.51657518824759,-0.208259113398178,,1.4139197804622081,,
,8159.0,1321.0,4307.0,1475.0,2032.0,2860.0,1814.0,,,,-0.286449321101316,-2.51605497697949,-0.208029023697427,,1.0198935757417156,,
,8167.0,1321.0,4312.0,1480.0,2032.0,2859.0,1807.0,,,,-0.286328881669091,-2.51576057827599,-0.207399495688042,,0.6741115076194044,,
,8169.0,1322.0,4313.0,1477.0,2030.0,2880.0,1809.0,,,,-0.285875522197057,-2.51571456513524,-0.205224983376003,,0.37481901613470714,,
,8172.0,1322.0,4314.0,1477.0,2031.0,2873.0,1794.0,,,,-0.286022032756881,-2.51568271531176,-0.205853228784653,,0.11888240768196462,,
,8177.0,1321.0,4318.0,1482.0,2032.0,2875.0,1790.0,,,,-0.286188189330309,-2.51561608076576,-0.205638346730272,,-0.09775937950728274,,
,8181.0,1326.0,4320.0,1483.0,2036.0,2876.0,1796.0,,,,-0.285365100614285,-2.51503654143337,-0.205727447897462,,-0.2797116186386683,,
,8185.0,1327.0,4325.0,1484.0,2025.0,2878.0,1784.0,,,,-0.285399008492677,-2.51589655657413,-0.205831751847867,,-0.4318212052736011,,
,8188.0,1324.0,4324.0,1484.0,2031.0,2874.0,1788.0,,,,-0.285541470749731,-2.51519351404947,-0.206439115419896,,-0.5589507513316567,,
,8194.0,1328.0,4327.0,1487.0,2047.0,2874.0,1787.0,,,,-0.285659575273176,-2.51549434166368,-0.206563525609912,,-0.6658151363890927,,
,8198.0,1329.0,4331.0,1487.0,2069.0,2895.0,1804.0,,,,-0.285751353153907,-2.51561618802069,-0.20614211683019,,-0.7568620379738289,,
,8201.0,1331.0,4332.0,1489.0,2064.0,2897.0,1813.0,,,,-0.285871321454347,-2.51556738063316,-0.205810098332147,,-0.8361786091478933,,
,8204.0,1327.0,4334.0,1492.0,2055.0,2889.0,1811.0,,,,-0.285737791036896,-2.51609793160249,-0.207255347948659,,-0.9074102930919454,,
2025-07-04 15:52:38,8204.0,1330.0,4337.0,1489.0,2043.0,2882.0,1811.0,,,2025/07/04 03:52:38 PM,-0.285490588099833,-2.51593611514203,-0.207032641613942,,-0.9736832356566002,,
,8199.0,1328.0,4335.0,1490.0,2033.0,2867.0,1799.0,,,,-0.285992554117371,-2.51593082753749,-0.207415802848296,,-1.037527658162636,,
,8187.0,1325.0,4335.0,1491.0,2032.0,2861.0,1786.0,,,,-0.286069878347608,-2.5160315862487,-0.20691870332486,,-1.100804975649613,,
,8173.0,1320.0,4333.0,1487.0,2037.0,2892.0,1797.0,,,,-0.28632565877209,-2.51663015459824,-0.207419623664835,,-1.1646459169237118,,
,8152.0,1318.0,4326.0,1482.0,2017.0,2895.0,1780.0,,,,-0.286300373289391,-2.5164770712754,-0.208880119343315,,-1.2294103825952813,,
,8133.0,1315.0,4323.0,1481.0,2003.0,2898.0,1764.0,,,,-0.286041538871532,-2.51652699268896,-0.208074038257144,,-1.2946822864521972,,
,8113.0,1314.0,4317.0,1474.0,2023.0,2900.0,1766.0,,,,-0.286254417732864,-2.51662430780787,-0.208360334639992,,-1.3593137047138113,,
,8091.0,1309.0,4313.0,1466.0,2012.0,2901.0,1770.0,,,,-0.286314859048096,-2.51682876344713,-0.209024116498499,,-1.4215311677789726,,
,8070.0,1305.0,4303.0,1460.0,2016.0,2902.0,1795.0,,,,-0.286320995486543,-2.5165188685059,-0.207855678373216,,-1.4791114659053726,,
,8048.0,1302.0,4299.0,1454.0,2017.0,2893.0,1789.0,,,,-0.286060521661097,-2.51652009728719,-0.207361036681631,,-1.5296241833531905,,
,8031.0,1303.0,4296.0,1453.0,2020.0,2876.0,1782.0,,,,-0.285955259395513,-2.5157586381622,-0.206189528355179,,-1.5707243711968633,,
,8011.0,1300.0,4287.0,1448.0,2024.0,2864.0,1787.0,,,,-0.285612186665501,-2.5156317044648,-0.208122283005474,,-1.6004644817520968,,
,7996.0,1298.0,4284.0,1443.0,2038.0,2859.0,1759.0,,,,-0.285439337948938,-2.51579434715493,-0.205834414202947,,-1.6175841503779842,,
,7985.0,1297.0,4280.0,1441.0,2019.0,2866.0,1776.0,,,,-0.285247334261845,-2.51510127674959,-0.207105619893309,,-1.6217331103762556,,
,7974.0,1296.0,4278.0,1439.0,2031.0,2873.0,1791.0,,,,-0.285029157888623,-2.51516528688159,-0.206481482015436,,-1.6135879826759536,,
,7967.0,1293.0,4271.0,1436.0,2024.0,2878.0,1775.0,,,,-0.285291943565725,-2.51507526783315,-0.206239424229302,,-1.594837297677973,,
,7957.0,1293.0,4272.0,1434.0,2041.0,2871.0,1784.0,,,,-0.285259765543874,-2.51488669026974,-0.205414152929047,,-1.5680286089651154,,
,7955.0,1294.0,4268.0,1433.0,2069.0,2859.0,1782.0,,,,-0.285105594755782,-2.51496932986781,-0.206061589595376,,-1.5362935505467132,,
,7949.0,1296.0,4268.0,1435.0,2074.0,2867.0,1789.0,,,,-0.285198771243492,-2.51503735850281,-0.205688505724979,,-1.50298722366585,,
,7950.0,1295.0,4266.0,1432.0,2074.0,2856.0,1790.0,,,,-0.28531678339294,-2.51496065428154,-0.2063143330311,,-1.4712935255432433,,
,7949.0,1293.0,4264.0,1431.0,2088.0,2877.0,1776.0,,,,-0.285299979669028,-2.51482723238622,-0.20464857468801,,-1.4438549326308248,,
,7949.0,1293.0,4263.0,1429.0,2071.0,2869.0,1780.0,,,,-0.285338992823111,-2.51486537080043,-0.206219237412396,,-1.4224823333773342,,
,7947.0,1292.0,4262.0,1430.0,2063.0,2903.0,1775.0,,,,-0.285450378944494,-2.51484922455363,-0.205702119142788,,-1.4079881821686517,,
,7950.0,1292.0,4265.0,1431.0,2047.0,2896.0,1765.0,,,,-0.285151737844247,-2.51471153823458,-0.206196224567942,,-1.400166655630165,,
,7953.0,1294.0,4263.0,1434.0,2043.0,2887.0,1756.0,,,,-0.285173465461148,-2.51456052262337,-0.205841218693646,,-1.397920864220991,,
,7955.0,1292.0,4263.0,1436.0,2064.0,2885.0,1789.0,,,,-0.285338111286018,-2.51465078419045,-0.205766992596082,,-1.3995132551925964,,
,7956.0,1293.0,4264.0,1433.0,2070.0,2899.0,1767.0,,,,-0.285375367136094,-2.51449828833089,-0.205810784813497,,-1.4028952229647291,,
,7962.0,1298.0,4265.0,1436.0,2041.0,2877.0,1778.0,,,,-0.284991743288085,-2.51474890683378,-0.205413445354464,,-1.4060596543534907,,
,7966.0,1295.0,4266.0,1438.0,2051.0,2895.0,1790.0,,,,-0.285011632449206,-2.51496747007037,-0.205162374236691,,-1.4073584356631292,,
,7969.0,1294.0,4264.0,1436.0,2037.0,2880.0,1750.0,,,,-0.285090060481831,-2.51466809540027,-0.204848748717937,,-1.4057359900834387,,
,7972.0,1297.0,4267.0,1439.0,2049.0,2877.0,1780.0,,,,-0.28500571517456,-2.51459165778797,-0.20444183430589,,-1.4008471435599192,,
,7976.0,1299.0,4268.0,1440.0,2043.0,2869.0,1779.0,,,,-0.28494062283551,-2.51413572305621,-0.205338825083144,,-1.3930489404245345,,
,7981.0,1299.0,4271.0,1439.0,2040.0,2872.0,1779.0,,,,-0.2848037634928,-2.51413197486514,-0.204849484222641,,-1.3832772151790462,,
,7984.0,1300.0,4268.0,1440.0,2030.0,2876.0,1816.0,,,,-0.284597093410627,-2.51443698930692,-0.205922348325647,,-1.3728363499184328,,
,7989.0,1298.0,4272.0,1440.0,2059.0,2864.0,1810.0,,,,-0.284749920873004,-2.51444751083787,-0.203470449299399,,-1.3631425283696843,,
,7993.0,1298.0,4270.0,1442.0,2070.0,2883.0,1810.0,,,,-0.28498435957883,-2.51480852016358,-0.204963078477519,,-1.3554660235117897,,
,7995.0,1300.0,4272.0,1444.0,2084.0,2883.0,1800.0,,,,-0.284951034999354,-2.51478888782972,-0.205475613825231,,-1.3507166408246265,,
,7999.0,1302.0,4272.0,1445.0,2057.0,2881.0,1804.0,,,,-0.284874572747597,-2.51522863999644,-0.205566863933256,,-1.3493088544685172,,
,7998.0,1300.0,4273.0,1444.0,2069.0,2875.0,1781.0,,,,-0.285072471234242,-2.51521787132531,-0.205270226291717,,-1.3511301096984658,,
,8001.0,1303.0,4275.0,1445.0,2056.0,2872.0,1779.0,,,,-0.285211547361365,-2.51544662578836,-0.205347629056233,,-1.3556183567747255,,
,8005.0,1300.0,4274.0,1446.0,2054.0,2864.0,1786.0,,,,-0.285163036077366,-2.51556905887634,-0.206941183541537,,-1.3619352840457561,,
,8005.0,1301.0,4276.0,1446.0,2059.0,2864.0,1792.0,,,,-0.285374619107931,-2.51593770540202,-0.206206101734374,,-1.369203475383054,,
,8005.0,1300.0,4272.0,1443.0,2070.0,2861.0,1795.0,,,,-0.285204212459472,-2.51607391340799,-0.206413787167999,,-1.3767631217638165,,
,8005.0,1301.0,4275.0,1447.0,2039.0,2880.0,1791.0,,,,-0.285743026361168,-2.51602844277316,-0.206034413552719,,-1.3844002098098953,,
,8004.0,1301.0,4275.0,1448.0,2063.0,2892.0,1790.0,,,,-0.28567785196137,-2.51646976432996,-0.205499381423525,,-1.392503786796448,,
,8003.0,1300.0,4272.0,1445.0,2055.0,2885.0,1793.0,,,,-0.285987952309549,-2.51680514793415,-0.20783464901542,,-1.402122673479074,,
,7999.0,1297.0,4270.0,1444.0,2055.0,2868.0,1784.0,,,,-0.28605022896391,-2.51718289130943,-0.207120992751437,,-1.4149083596664311,,
,7998.0,1299.0,4271.0,1446.0,2066.0,2863.0,1769.0,,,,-0.286269678708714,-2.5172789081595,-0.207462581988608,,-1.4329477203659566,,
,7997.0,1300.0,4273.0,1445.0,2051.0,2866.0,1756.0,,,,-0.286019315452791,-2.51799458517283,-0.208877202666331,,-1.4585046975315283,,
,7995.0,1300.0,4271.0,1446.0,2049.0,2875.0,1768.0,,,,-0.286438022270918,-2.51793015800634,-0.208892171033746,,-1.4937031394566143,,
,7992.0,1298.0,4270.0,1444.0,2058.0,2873.0,1778.0,,,,-0.286754627394987,-2.51820819468846,-0.208513344586988,,-1.5401928030706973,,
,7995.0,1299.0,4273.0,1445.0,2053.0,2866.0,1782.0,,,,-0.286809656163948,-2.51828263757235,-0.208388104432219,,-1.5988461802338423,,
,7992.0,1300.0,4268.0,1443.0,2062.0,2862.0,1769.0,,,,-0.286814906433718,-2.51862892869307,-0.21011685453715,,-1.6695341237233439,,
,7992.0,1298.0,4268.0,1446.0,2068.0,2871.0,1763.0,,,,-0.28683334481337,-2.51822106004374,-0.210309677006679,,-1.7510219705253152,,
,7992.0,1297.0,4269.0,1445.0,2050.0,2852.0,1767.0,,,,-0.286946098730583,-2.51877719161794,-0.209924986410678,,-1.84101415373651,,
,7995.0,1298.0,4267.0,1444.0,2059.0,2859.0,1752.0,,,,-0.287008172844225,-2.51896158786015,-0.210294478032391,,-1.9363545701842446,,
,7997.0,1298.0,4270.0,1445.0,2053.0,2863.0,1781.0,,,,-0.28714998683598,-2.51924693310248,-0.210806851974782,,-2.0333648191421685,,
,7996.0,1300.0,4273.0,1446.0,2061.0,2873.0,1772.0,,,,-0.287168950617579,-2.51924404772196,-0.210755879066515,,-2.1282777914786184,,
,7998.0,1298.0,4269.0,1447.0,2066.0,2885.0,1782.0,,,,-0.287289662931838,-2.51916096122628,-0.210545815376253,,-2.2177058673297516,,
,7999.0,1298.0,4268.0,1445.0,2064.0,2867.0,1777.0,,,,-0.287216048530745,-2.51962524400839,-0.21002983335034,,-2.2990755924077946,,
,8004.0,1298.0,4271.0,1446.0,2052.0,2862.0,1765.0,,,,-0.287671278566816,-2.51968455909083,-0.21174597403228,,-2.370965344341101,,
,8006.0,1303.0,4273.0,1448.0,2062.0,2883.0,1753.0,,,,-0.287474105667412,-2.5198045432097,-0.210946803765328,,-2.4332972834033653,,
,8009.0,1302.0,4275.0,1450.0,2070.0,2874.0,1756.0,,,,-0.287879372142184,-2.52037138603658,-0.211326096316078,,-2.487356335791474,,
,8014.0,1300.0,4274.0,1446.0,2061.0,2856.0,1765.0,,,,-0.288328889536302,-2.52075035654471,-0.212090912053992,,-2.5356333651896668,,
,8018.0,1304.0,4278.0,1451.0,2077.0,2872.0,1761.0,,,,-0.288714447042556,-2.52126291706986,-0.213234518707756,,-2.5815133784094346,,
,8023.0,1303.0,4279.0,1454.0,2071.0,2873.0,1777.0,,,,-0.28863992836735,-2.52098483852585,-0.213663261088068,,-2.6288488207487077,,
,8028.0,1304.0,4280.0,1455.0,2070.0,2886.0,1779.0,,,,-0.288534579928016,-2.52132220032203,-0.213238992822785,,-2.6814694868603124,,
,8033.0,1305.0,4280.0,1454.0,2071.0,2890.0,1745.0,,,,-0.289180225306811,-2.52168554939158,-0.213864394967513,,-2.7426828619795596,,
,8035.0,1307.0,4282.0,1455.0,2050.0,2905.0,1770.0,,,,-0.289030065735818,-2.5214476691391,-0.212914748414028,,-2.8148128924997993,,
,8041.0,1305.0,4284.0,1458.0,2074.0,2881.0,1768.0,,,,-0.289188888839683,-2.52130684982001,-0.212977472977261,,-2.89881404765131,,
,8046.0,1310.0,4285.0,1457.0,2068.0,2881.0,1782.0,,,,-0.288745160147198,-2.52087350145578,-0.213807128119284,,-2.9939840403859854,,
,8051.0,1307.0,4287.0,1459.0,2074.0,2885.0,1787.0,,,,-0.288603757001857,-2.52080375233687,-0.212987446332054,,-3.0977851414065904,,
,8053.0,1308.0,4288.0,1460.0,2017.0,2849.0,1728.0,,,,-0.288730885540415,-2.5208446293999,-0.212435695678029,,-3.205772900698875,,
,8059.0,1309.0,4289.0,1463.0,2058.0,2850.0,1727.0,,,,-0.288595521079048,-2.52057769525925,-0.214527839408732,,-3.311624636083934,,
,8065.0,1313.0,4294.0,1464.0,2075.0,2849.0,1747.0,,,,-0.288718334229789,-2.52056674200285,-0.212175112468935,,-3.4072597789559285,,
,8071.0,1308.0,4295.0,1464.0,2082.0,2856.0,1745.0,,,,-0.288767029528004,-2.5205963185883,-0.213380813774049,,-3.4830493762111217,,
,8073.0,1311.0,4295.0,1466.0,2059.0,2876.0,1740.0,,,,-0.288679547557152,-2.52058076536761,-0.213194862612293,,-3.5281194160431637,,
,8081.0,1313.0,4298.0,1468.0,2078.0,2887.0,1734.0,,,,-0.288108179501853,-2.52022840587771,-0.212193289727221,,-3.530757320052966,,
,8084.0,1311.0,4298.0,1471.0,2080.0,2876.0,1754.0,,,,-0.288116440652227,-2.5200408890231,-0.213257603176174,,-3.478928465389404,,
,8086.0,1315.0,4303.0,1471.0,2084.0,2884.0,1761.0,,,,-0.288169054130404,-2.51972778462395,-0.213541965474406,,-3.3608979451863976,,
,8089.0,1313.0,4302.0,1468.0,2072.0,2899.0,1760.0,,,,-0.287915448438562,-2.51957321106838,-0.213170641124118,,-3.165933645898421,,
,8097.0,1316.0,4306.0,1472.0,2055.0,2894.0,1768.0,,,,-0.287705296953053,-2.51920356388666,-0.213031234010918,,-2.8850451824767016,,
,8100.0,1317.0,4308.0,1471.0,2072.0,2872.0,1763.0,,,,-0.287730351607962,-2.51945773211366,-0.213252231865231,,-2.5116958135454857,,
,8103.0,1317.0,4307.0,1475.0,2071.0,2856.0,1769.0,,,,-0.288053795123594,-2.51913675367034,-0.213464770617992,,-2.042416971132928,,
,8108.0,1315.0,4309.0,1476.0,2072.0,2864.0,1763.0,,,,-0.287967426171222,-2.51945354276287,-0.212276250093733,,-1.4772610856395414,,
,8111.0,1316.0,4311.0,1476.0,2059.0,2876.0,1771.0,,,,-0.288106556244683,-2.51927102457666,-0.213175107536203,,-0.8200483627368347,,
,8115.0,1318.0,4313.0,1479.0,2049.0,2877.0,1772.0,,,,-0.288067472257872,-2.51958105826339,-0.212651543587846,,-0.07839338074119061,,
,8117.0,1320.0,4314.0,1478.0,2063.0,2892.0,1767.0,,,,-0.288218768030783,-2.51989004549066,-0.213331654601443,,0.7364701410949396,,
,8120.0,1321.0,4317.0,1480.0,2073.0,2882.0,1754.0,,,,-0.288075269338224,-2.51974665561985,-0.212995712578445,,1.6100235968537544,,
,8122.0,1320.0,4315.0,1478.0,2098.0,2873.0,1764.0,,,,-0.288008431481496,-2.51959952780414,-0.21373216868534,,2.5249057342486103,,
,8126.0,1323.0,4320.0,1483.0,2074.0,2867.0,1765.0,,,,-0.288341095191136,-2.51942916172687,-0.212585861122095,,3.4614215276684663,,
,8132.0,1321.0,4321.0,1481.0,2081.0,2865.0,1768.0,,,,-0.288216023774153,-2.51971197321538,-0.212784055189486,,4.398098295779326,,
,8135.0,1322.0,4323.0,1484.0,2095.0,2876.0,1774.0,,,,-0.288162597659361,-2.51953014376191,-0.212804090714438,,5.3122942036350995,,
,8135.0,1321.0,4323.0,1485.0,2084.0,2869.0,1768.0,,,,-0.288199878228076,-2.51968390032046,-0.211917967441498,,6.180881695963793,,
,8140.0,1322.0,4326.0,1485.0,2072.0,2851.0,1786.0,,,,-0.288254468093078,-2.51949861300614,-0.213268315760004,,6.981031662701024,,
,8142.0,1324.0,4329.0,1485.0,2074.0,2852.0,1797.0,,,,-0.288082193399443,-2.51923652149249,-0.210590133151909,,7.691110308470124,,
,8146.0,1326.0,4331.0,1485.0,2066.0,2844.0,1795.0,,,,-0.288441722432404,-2.5196682351464,-0.212087746129757,,8.291671937878213,,
,8149.0,1324.0,4330.0,1488.0,2071.0,2849.0,1812.0,,,,-0.288053035365779,-2.5193109382904,-0.212505122208422,,8.766494358800527,,
,8152.0,1324.0,4333.0,1489.0,2068.0,2873.0,1810.0,,,,-0.288159946445129,-2.51948546320876,-0.212502176137447,,9.103569603253064,,
,8156.0,1325.0,4336.0,1490.0,2059.0,2874.0,1783.0,,,,-0.288079860347866,-2.51961558348347,-0.210786567131399,,9.295941069051233,,
,8162.0,1327.0,4338.0,1493.0,2064.0,2875.0,1777.0,,,,-0.287763562409984,-2.5193938926773,-0.211588613751214,,9.342275348934987,,
,8166.0,1328.0,4336.0,1491.0,2043.0,2856.0,1775.0,,,,-0.287712600247461,-2.5194227733925,-0.212185519066462,,9.247074437806155,,
,8168.0,1329.0,4341.0,1494.0,2048.0,2885.0,1778.0,,,,-0.287734761653258,-2.51916417791867,-0.210402402061405,,9.020469023811788,,
,8172.0,1332.0,4344.0,1495.0,2043.0,2871.0,1764.0,,,,-0.287525415330521,-2.51902497007784,-0.211312222955883,,8.67758082014736,,
,8180.0,1332.0,4344.0,1495.0,2047.0,2867.0,1766.0,,,,-0.28739486398954,-2.51912787685013,-0.212481553738564,,8.237494580730106,,
,8180.0,1333.0,4348.0,1499.0,2054.0,2867.0,1790.0,,,,-0.287542570853558,-2.51872733354628,-0.211685149551273,,7.721931032698539,,
,8184.0,1332.0,4349.0,1499.0,2062.0,2866.0,1808.0,,,,-0.287356710438585,-2.51901209264904,-0.21109914767937,,7.153752572261343,,
,8186.0,1332.0,4349.0,1500.0,2072.0,2861.0,1801.0,,,,-0.287270069409856,-2.51882387212149,-0.209796110976012,,6.555456619257295,,
,8192.0,1334.0,4352.0,1500.0,2068.0,2869.0,1777.0,,,,-0.2874886376783,-2.51854050452779,-0.211494567360096,,5.947811304430347,,
,8194.0,1334.0,4355.0,1501.0,2074.0,2862.0,1768.0,,,,-0.287207379453184,-2.51837891298075,-0.209866713873428,,5.348763338501667,,
,8197.0,1336.0,4355.0,1501.0,2075.0,2874.0,1795.0,,,,-0.287297466116825,-2.51861768941688,-0.209744303370827,,4.772703458512879,,
,8202.0,1336.0,4358.0,1505.0,2062.0,2881.0,1804.0,,,,-0.287172976781801,-2.51872589591269,-0.209935943879669,,4.230121235594626,,
,8208.0,1337.0,4362.0,1506.0,2066.0,2897.0,1782.0,,,,-0.287367951452968,-2.51810122342768,-0.210546499733008,,3.7276301868009534,,
,8212.0,1339.0,4361.0,1506.0,2075.0,2886.0,1779.0,,,,-0.287139501758964,-2.5180189584189,-0.211479684035706,,3.2683048377291444,,
,8215.0,1340.0,4367.0,1507.0,2057.0,2860.0,1779.0,,,,-0.287330089029961,-2.5189739329531,-0.210963819506944,,2.852247215848978,,
,8218.0,1339.0,4368.0,1508.0,2053.0,2870.0,1801.0,,,,-0.287506963182134,-2.51887923442618,-0.212101180602536,,2.47729051601818,,
,8224.0,1341.0,4370.0,1512.0,2031.0,2886.0,1789.0,,,,-0.287437128357051,-2.51946949075309,-0.211666812124213,,2.139749480804164,,
,8229.0,1342.0,4374.0,1511.0,2026.0,2893.0,1805.0,,,,-0.287675106917946,-2.51929142048869,-0.212801000884863,,1.8351370800261326,,
,8231.0,1345.0,4376.0,1514.0,2024.0,2884.0,1794.0,,,,-0.287695403140042,-2.51947491890899,-0.212276948529005,,1.558782642571577,,
,8235.0,1342.0,4372.0,1516.0,2038.0,2853.0,1784.0,,,,-0.287801539544975,-2.51948428681166,-0.212715193555458,,1.3063058304570936,,
,8241.0,1345.0,4379.0,1519.0,2038.0,2851.0,1803.0,,,,-0.287853049555203,-2.51956506683521,-0.212567947424502,,1.0739224641340788,,
,8246.0,1346.0,4383.0,1518.0,2045.0,2845.0,1814.0,,,,-0.287366514378546,-2.51969400397888,-0.212320942044981,,0.858580837784995,,
,8250.0,1347.0,4385.0,1517.0,2046.0,2844.0,1803.0,,,,-0.287156833356357,-2.51927319792994,-0.212669946152354,,0.6579486013223865,,
,8253.0,1348.0,4386.0,1518.0,2033.0,2864.0,1790.0,,,,-0.287081976349775,-2.5195976634253,-0.210702590592282,,0.4702873642373615,,
,8258.0,1350.0,4389.0,1521.0,2050.0,2884.0,1784.0,,,,-0.286979967354943,-2.51915143210626,-0.210652685348876,,0.2942618535457801,,
,8262.0,1350.0,4392.0,1522.0,2026.0,2869.0,1794.0,,,,-0.287062499968029,-2.51905227918719,-0.210122786083852,,0.12873147238929547,,
,8264.0,1349.0,4393.0,1525.0,2031.0,2865.0,1811.0,,,,-0.286939366535928,-2.51893705221719,-0.211081278568218,,-0.027434362027138712,,
,8260.0,1349.0,4394.0,1523.0,2037.0,2884.0,1808.0,,,,-0.287040564024648,-2.51918741425407,-0.210743702145013,,-0.17548693724802744,,
2025-07-04 15:52:39,8254.0,1346.0,4393.0,1523.0,2053.0,2879.0,1818.0,,,2025/07/04 03:52:39 PM,-0.286824662188223,-2.51889458451761,-0.209539137674244,,-0.3168579716226436,,
,8247.0,1345.0,4391.0,1523.0,2060.0,2871.0,1812.0,,,,-0.286624690962217,-2.51873430005522,-0.209805513875911,,-0.453144184595269,,
,8231.0,1342.0,4390.0,1520.0,2063.0,2857.0,1781.0,,,,-0.286792236848595,-2.51863179000043,-0.208890366586419,,-0.5860238397091259,,
,8211.0,1338.0,4384.0,1516.0,2062.0,2869.0,1795.0,,,,-0.286613169384263,-2.51861140763674,-0.209884610722566,,-0.7171212559422779,,
,8194.0,1336.0,4381.0,1510.0,2015.0,2868.0,1785.0,,,,-0.286465672900725,-2.51840857035972,-0.209329925046265,,-0.8478413198700498,,
,8179.0,1332.0,4374.0,1504.0,2028.0,2862.0,1793.0,,,,-0.286767236492955,-2.51845803311748,-0.210604147429241,,-0.9791991986966684,,
,8158.0,1330.0,4371.0,1499.0,2039.0,2848.0,1776.0,,,,-0.286735917999238,-2.51907781878878,-0.20988069862084,,-1.111670941648503,,
,8138.0,1327.0,4365.0,1495.0,2044.0,2851.0,1784.0,,,,-0.287201565891988,-2.51905674375767,-0.209876803922862,,-1.2450886842369395,,
,8121.0,1323.0,4358.0,1487.0,2063.0,2866.0,1779.0,,,,-0.287417625782855,-2.51903886885902,-0.211002241466609,,-1.3785998458187443,,
,8104.0,1323.0,4351.0,1484.0,2031.0,2853.0,1789.0,,,,-0.287698283349441,-2.51934947281736,-0.212048062144025,,-1.5107030138295623,,
,8089.0,1320.0,4348.0,1480.0,2019.0,2856.0,1786.0,,,,-0.288037100754317,-2.5199609356607,-0.211057854100723,,-1.6393641168293076,,
,8080.0,1320.0,4344.0,1477.0,2025.0,2864.0,1781.0,,,,-0.288412376437184,-2.51961452209696,-0.212943089523258,,-1.7622053872619787,,
,8065.0,1315.0,4338.0,1473.0,2060.0,2861.0,1789.0,,,,-0.28835259184765,-2.52017472820959,-0.213278292691578,,-1.8767479266434595,,
,8057.0,1314.0,4333.0,1469.0,2059.0,2876.0,1811.0,,,,-0.288952926406875,-2.52041166462093,-0.21364860720253,,-1.9806790711605777,,
,8050.0,1316.0,4335.0,1472.0,2055.0,2892.0,1816.0,,,,-0.2886742891937,-2.52069959001292,-0.213784391983046,,-2.0721111246029196,,
,8045.0,1318.0,4332.0,1471.0,2055.0,2867.0,1790.0,,,,-0.28896043284323,-2.52047468868372,-0.214169568839615,,-2.1497998154562437,,
,8038.0,1315.0,4329.0,1468.0,2054.0,2866.0,1792.0,,,,-0.288742606300933,-2.52097999285967,-0.214820464120408,,-2.2132980762012475,,
,8036.0,1315.0,4329.0,1467.0,2058.0,2857.0,1793.0,,,,-0.288883181870309,-2.52112445189727,-0.21456612322328,,-2.2630307617747585,,
,8040.0,1315.0,4328.0,1468.0,2060.0,2867.0,1778.0,,,,-0.288736395491948,-2.52155154485969,-0.214665216973979,,-2.300285940074166,,
,8039.0,1315.0,4324.0,1470.0,2074.0,2872.0,1783.0,,,,-0.289159613354667,-2.52168508702926,-0.214735958542798,,-2.3271266669721937,,
,8039.0,1315.0,4324.0,1468.0,2066.0,2872.0,1783.0,,,,-0.288918036668879,-2.52157720952981,-0.214198032081549,,-2.346233182628906,,
,8042.0,1313.0,4325.0,1468.0,2069.0,2875.0,1787.0,,,,-0.288942062199184,-2.52173622247176,-0.214767598357022,,-2.3606895256231084,,
,8046.0,1315.0,4327.0,1469.0,2056.0,2872.0,1784.0,,,,-0.288569327352999,-2.52156546546267,-0.214327624959125,,-2.3737313279657446,,
,8048.0,1317.0,4326.0,1469.0,2058.0,2866.0,1795.0,,,,-0.288558662610375,-2.52141387997818,-0.215046572682662,,-2.3884737542942798,,
,8051.0,1316.0,4326.0,1468.0,2043.0,2857.0,1786.0,,,,-0.288755635582674,-2.52183219678097,-0.213745778185684,,-2.4076406512878874,,
,8055.0,1317.0,4326.0,1470.0,2063.0,2859.0,1773.0,,,,-0.288765435169073,-2.52174916365918,-0.213663694536185,,-2.433317917114994,,
,8058.0,1318.0,4325.0,1470.0,2054.0,2857.0,1778.0,,,,-0.288596738952799,-2.5212383822174,-0.213536930230064,,-2.4667551986914726,,
,8067.0,1318.0,4328.0,1473.0,2044.0,2849.0,1795.0,,,,-0.288788351017282,-2.52098148296705,-0.213412379480218,,-2.5082391288722246,,
,8069.0,1318.0,4328.0,1472.0,2060.0,2850.0,1800.0,,,,-0.288618948559629,-2.52083343037976,-0.213648176109639,,-2.557057223642154,,
,8073.0,1319.0,4329.0,1476.0,2061.0,2850.0,1776.0,,,,-0.288384951119936,-2.52034514774182,-0.213123870838926,,-2.611563537745393,,
,8076.0,1319.0,4329.0,1473.0,2042.0,2840.0,1759.0,,,,-0.288354134342298,-2.52012869844222,-0.213388685672949,,-2.669345454253529,,
,8084.0,1321.0,4333.0,1476.0,2065.0,2873.0,1763.0,,,,-0.288308178646495,-2.51991863486265,-0.212568759966622,,-2.7274771377625626,,
,8090.0,1322.0,4334.0,1478.0,2040.0,2890.0,1794.0,,,,-0.288332445523363,-2.51982086538886,-0.2134234254989,,-2.7828321931148885,,
,8092.0,1323.0,4331.0,1478.0,2046.0,2875.0,1793.0,,,,-0.288245553558761,-2.51997369929028,-0.212161373216319,,-2.832419462243737,,
,8098.0,1322.0,4335.0,1480.0,2053.0,2863.0,1776.0,,,,-0.288326345992032,-2.52007383156348,-0.212393663053968,,-2.8737039391361567,,
,8102.0,1322.0,4334.0,1480.0,2034.0,2871.0,1798.0,,,,-0.288375661977787,-2.51981555265696,-0.213388284662757,,-2.9048792075658674,,
,8106.0,1324.0,4335.0,1484.0,2015.0,2852.0,1788.0,,,,-0.288511941009224,-2.52034668466598,-0.213401140874315,,-2.925066244302546,,
,8108.0,1324.0,4338.0,1484.0,2011.0,2874.0,1798.0,,,,-0.28861089560046,-2.52020976450877,-0.213211010428724,,-2.93442312930896,,
,8110.0,1324.0,4338.0,1484.0,2032.0,2877.0,1818.0,,,,-0.288520359237621,-2.5201869667119,-0.213396936028908,,-2.9341593233036267,,
,8109.0,1322.0,4335.0,1483.0,2014.0,2868.0,1806.0,,,,-0.288429404297846,-2.52018002958487,-0.213315178492469,,-2.926455955699712,,
,8111.0,1323.0,4339.0,1481.0,2015.0,2880.0,1808.0,,,,-0.288519888181045,-2.51998693663677,-0.213176742720135,,-2.9142998629533294,,
,8109.0,1321.0,4336.0,1483.0,2020.0,2885.0,1790.0,,,,-0.288308564822206,-2.52018163738501,-0.212944609950939,,-2.9012440055455118,,
,8109.0,1322.0,4337.0,1483.0,2028.0,2889.0,1787.0,,,,-0.288473719968793,-2.52035214215086,-0.213156026763247,,-2.891110612466417,,
,8108.0,1321.0,4336.0,1481.0,2032.0,2860.0,1823.0,,,,-0.288380162607836,-2.52006412908052,-0.212415627347167,,-2.8876563543530693,,
,8108.0,1322.0,4333.0,1482.0,2038.0,2881.0,1815.0,,,,-0.288508146782501,-2.52012421850508,-0.212803242009069,,-2.8942214313383556,,
,8108.0,1322.0,4335.0,1485.0,2020.0,2871.0,1802.0,,,,-0.288439853215481,-2.52038221386901,-0.211987351405838,,-2.913386833971361,,
,8106.0,1320.0,4335.0,1483.0,2020.0,2857.0,1796.0,,,,-0.288565291048436,-2.52049579546498,-0.213715133617474,,-2.946665899075892,,
,8107.0,1319.0,4332.0,1482.0,2037.0,2857.0,1786.0,,,,-0.288354745238791,-2.520605579101,-0.212602912863936,,-2.994256845929941,,
,8104.0,1320.0,4328.0,1479.0,2037.0,2862.0,1774.0,,,,-0.288638090322498,-2.52056752130186,-0.213125629513139,,-3.0548811320159452,,
,8106.0,1322.0,4332.0,1479.0,2037.0,2865.0,1760.0,,,,-0.289121235784405,-2.5203739678545,-0.214381326775348,,-3.125727161561615,,
,8104.0,1320.0,4330.0,1480.0,2042.0,2868.0,1776.0,,,,-0.289190811326175,-2.52044376545985,-0.214353705417316,,-3.202509696798094,,
,8103.0,1321.0,4331.0,1480.0,2030.0,2875.0,1806.0,,,,-0.289618987100805,-2.52048385463309,-0.214178819558681,,-3.279643149173415,,
,8105.0,1320.0,4330.0,1480.0,2028.0,2874.0,1812.0,,,,-0.289811712205735,-2.52092178914105,-0.215282246451191,,-3.3505141997709016,,
,8107.0,1320.0,4333.0,1480.0,2036.0,2884.0,1799.0,,,,-0.289788924172481,-2.52100158643724,-0.215433140341796,,-3.4078290043398978,,
,8110.0,1322.0,4328.0,1482.0,2053.0,2869.0,1795.0,,,,-0.289860411937518,-2.52060811337016,-0.215493418206208,,-3.4440045827045367,,
,8113.0,1322.0,4332.0,1481.0,2054.0,2876.0,1807.0,,,,-0.289568086216141,-2.52036294110416,-0.215736516795804,,-3.451572742104574,,
,8114.0,1320.0,4331.0,1480.0,2050.0,2862.0,1797.0,,,,-0.289628852736442,-2.52015436663406,-0.215300546171751,,-3.4235664356142275,,
,8118.0,1320.0,4333.0,1482.0,2061.0,2851.0,1803.0,,,,-0.289328208693353,-2.52009662435548,-0.214201128376446,,-3.3538612892878077,,
,8120.0,1321.0,4334.0,1482.0,2052.0,2882.0,1791.0,,,,-0.289216787666314,-2.52024865178447,-0.214040969613382,,-3.2374486494469803,,
,8124.0,1324.0,4334.0,1483.0,2031.0,2879.0,1787.0,,,,-0.289670997769243,-2.52077377402103,-0.214386789207713,,-3.070621303303236,,
,8125.0,1324.0,4335.0,1483.0,2049.0,2881.0,1797.0,,,,-0.289651455128898,-2.52049354204135,-0.214322043141191,,-2.851059696685634,,
,8130.0,1327.0,4336.0,1487.0,2044.0,2892.0,1808.0,,,,-0.289778290461168,-2.52087464915092,-0.215444361754805,,-2.577815525946936,,
,8134.0,1326.0,4336.0,1485.0,2048.0,2883.0,1814.0,,,,-0.289434855421306,-2.52081683862162,-0.214735795972326,,-2.2512010835632057,,
,8142.0,1327.0,4338.0,1485.0,2039.0,2888.0,1816.0,,,,-0.28951359418084,-2.52098830091887,-0.215677342557995,,-1.872605953006197,,
,8144.0,1329.0,4341.0,1487.0,2032.0,2878.0,1821.0,,,,-0.289580660553742,-2.52103569402901,-0.215010469133162,,-1.4442757190908158,,
,8150.0,1330.0,4337.0,1490.0,2029.0,2881.0,1821.0,,,,-0.289861790943472,-2.52162748712221,-0.214656526099812,,-0.9690974648843428,,
,8154.0,1329.0,4343.0,1491.0,2054.0,2867.0,1801.0,,,,-0.289941136368823,-2.52215653353901,-0.216504925212609,,-0.45044094780952976,,
,8158.0,1327.0,4343.0,1493.0,2055.0,2880.0,1788.0,,,,-0.290021778760832,-2.52210538313025,-0.215284887875214,,0.10789982353739067,,
,8165.0,1329.0,4346.0,1496.0,2042.0,2880.0,1794.0,,,,-0.289706899068408,-2.52245321717926,-0.216179367226842,,0.7016333552881523,,
,8171.0,1328.0,4346.0,1493.0,2054.0,2884.0,1803.0,,,,-0.289497318268246,-2.5230285503097,-0.216171865273243,,1.325756626284612,,
,8176.0,1331.0,4346.0,1494.0,2043.0,2875.0,1779.0,,,,-0.289966973491962,-2.52301685989977,-0.217058010086615,,1.9742192238969507,,
,8181.0,1335.0,4350.0,1498.0,2045.0,2874.0,1784.0,,,,-0.290145242378666,-2.52396480996848,-0.21765070921895,,2.6395141824111974,,
,8187.0,1333.0,4353.0,1499.0,2044.0,2878.0,1800.0,,,,-0.290698016016861,-2.52419940832726,-0.217937961089007,,3.3122690633695693,,
,8187.0,1333.0,4358.0,1498.0,2030.0,2882.0,1784.0,,,,-0.290980822376771,-2.52477497831205,-0.219238247209036,,3.9809257136049183,,
,8194.0,1335.0,4355.0,1499.0,2037.0,2863.0,1791.0,,,,-0.291504436060996,-2.52467143099327,-0.21951906085998,,4.631598405234511,,
,8199.0,1335.0,4359.0,1503.0,2024.0,2877.0,1789.0,,,,-0.291553885499074,-2.52538272551341,-0.220800790536024,,5.24818698698858,,
,8201.0,1337.0,4361.0,1506.0,2026.0,2898.0,1820.0,,,,-0.291864550884834,-2.52567610188133,-0.220721825798619,,5.81279575717334,,
,8209.0,1338.0,4363.0,1505.0,2030.0,2884.0,1820.0,,,,-0.292141975678655,-2.52578848917803,-0.221821478490536,,6.306472781436054,,
,8212.0,1338.0,4363.0,1504.0,2027.0,2880.0,1797.0,,,,-0.29236465576668,-2.52602591855198,-0.222170594328296,,6.710241991159539,,
,8213.0,1338.0,4366.0,1507.0,2040.0,2876.0,1784.0,,,,-0.292876621431449,-2.52634565166505,-0.222679844363814,,7.006356334502669,,
,8218.0,1339.0,4367.0,1507.0,2032.0,2877.0,1780.0,,,,-0.292786142459836,-2.52583002427858,-0.222956111002294,,7.1796603848691225,,
,8225.0,1340.0,4370.0,1510.0,2033.0,2873.0,1770.0,,,,-0.292639300679316,-2.52582423461065,-0.223042003817785,,7.218921645078921,,
,8226.0,1338.0,4371.0,1508.0,2050.0,2887.0,1786.0,,,,-0.29242492463958,-2.525642994166,-0.221127768534491,,7.117977311398904,,
,8230.0,1341.0,4374.0,1513.0,2058.0,2898.0,1776.0,,,,-0.292516135853901,-2.52555309688391,-0.222427353793505,,6.876551635509387,,
,8235.0,1345.0,4375.0,1515.0,2035.0,2904.0,1799.0,,,,-0.292282257339867,-2.52489269865756,-0.221124241803193,,6.500629454243585,,
,8242.0,1345.0,4378.0,1515.0,2037.0,2892.0,1799.0,,,,-0.291745811856367,-2.52466384708036,-0.220594938765718,,6.002321344940184,,
,8242.0,1345.0,4379.0,1517.0,2042.0,2882.0,1779.0,,,,-0.291655936817646,-2.52516968735405,-0.221480214774609,,5.399218244751102,,
,8247.0,1345.0,4380.0,1516.0,2033.0,2869.0,1769.0,,,,-0.29190393225067,-2.5250476275089,-0.221337351882503,,4.713297438589697,,
,8248.0,1344.0,4380.0,1518.0,2040.0,2884.0,1786.0,,,,-0.291621175439873,-2.52531316340546,-0.220862303948373,,3.9694954037201216,,
,8254.0,1347.0,4382.0,1519.0,2047.0,2891.0,1784.0,,,,-0.291868917520538,-2.52543895490749,-0.222020222949219,,3.1940964340823035,,
,8259.0,1347.0,4384.0,1520.0,2046.0,2874.0,1766.0,,,,-0.292032021456085,-2.52606814085654,-0.222063104115732,,2.413095169828938,,
,8258.0,1346.0,4387.0,1518.0,2048.0,2888.0,1801.0,,,,-0.29200500234424,-2.52621167231035,-0.223065078512755,,1.650678123160267,,
,8262.0,1349.0,4387.0,1522.0,2030.0,2909.0,1776.0,,,,-0.291925989266618,-2.52622451214542,-0.222973902504882,,0.927940205959097,,
,8265.0,1351.0,4391.0,1524.0,2040.0,2889.0,1784.0,,,,-0.292480944795018,-2.52653608085501,-0.224402610969515,,0.26191481610409717,,
,8270.0,1351.0,4393.0,1524.0,2046.0,2879.0,1799.0,,,,-0.292634309440181,-2.52666469177986,-0.224626054985915,,-0.33504271283400855,,
,8271.0,1350.0,4393.0,1525.0,2049.0,2875.0,1792.0,,,,-0.292758559287417,-2.52729251291289,-0.225057959037752,,-0.8555132896004206,,
,8276.0,1352.0,4394.0,1527.0,2035.0,2888.0,1803.0,,,,-0.292742321189356,-2.52735439928988,-0.225619395353561,,-1.2969366119491819,,
,8278.0,1352.0,4397.0,1530.0,2029.0,2862.0,1806.0,,,,-0.292834328823363,-2.52729187089838,-0.2255774450455,,-1.661240482997433,,
,8280.0,1353.0,4400.0,1528.0,2039.0,2875.0,1809.0,,,,-0.292799787251203,-2.52787783094814,-0.22570244649882,,-1.954231452603399,,
,8284.0,1352.0,4402.0,1526.0,2023.0,2847.0,1796.0,,,,-0.293193201068727,-2.52798517380318,-0.2256806155121,,-2.1848075239851945,,
,8288.0,1354.0,4402.0,1530.0,2011.0,2862.0,1789.0,,,,-0.293257479387511,-2.52814313451947,-0.225867538844467,,-2.364055550549057,,
,8291.0,1356.0,4404.0,1531.0,2027.0,2888.0,1772.0,,,,-0.29354059807627,-2.52827591235683,-0.2255522809302,,-2.504294727728264,,
,8294.0,1355.0,4405.0,1532.0,2033.0,2885.0,1774.0,,,,-0.293594865604169,-2.52876405644035,-0.225782943080932,,-2.618123849200685,,
,8297.0,1357.0,4409.0,1534.0,2030.0,2850.0,1793.0,,,,-0.293683659783087,-2.52854744465612,-0.226711050430423,,-2.717523957938757,,
,8300.0,1355.0,4410.0,1533.0,2024.0,2864.0,1803.0,,,,-0.293859172136821,-2.52846470620074,-0.226674289583809,,-2.813059807011071,,
