TimeLabel,MEAS1_PPG1,MEAS1_PPG2,MEAS1_PPG3,MEAS1_PPG4,ACCX,ACCY,ACCZ,HR_timestamp,HR_value,radar_timestamp,phase_rx0,phase_rx1,phase_rx2,timestep,n_process,original_rate,calculated_rate
2025-08-20 18:28:08,4153.0,925.0,3426.0,917.0,2253.0,2498.0,1976.0,2025-08-20 18:28:08,73.0,2025/08/20 06:28:08 PM,-0.0674413288344762,-2.36123841770293,0.0506033875378584,2025/08/20 06:28:08 PM,-0.3008523456968946,19.46647453308105,18.86049601583878
,4150.0,922.0,3424.0,914.0,2262.0,2492.0,1974.0,2025-08-20 18:28:09,73.0,,-0.0674248068600293,-2.3609338219058,0.0504342259113613,2025/08/20 06:28:18 PM,0.20570420595476932,20.119224548339844,20.98512890447432
,4145.0,920.0,3421.0,913.0,2258.0,2504.0,1980.0,2025-08-20 18:28:10,74.0,,-0.0673231503090864,-2.36050491494496,0.0507671316261127,2025/08/20 06:28:28 PM,0.7262179918355829,21.023124694824215,20.693756600736204
,4143.0,919.0,3421.0,913.0,2265.0,2515.0,1978.0,2025-08-20 18:28:11,75.0,,-0.0672931546848669,-2.36059672846953,0.0509872285267088,2025/08/20 06:28:38 PM,1.2543155099535153,19.970415115356445,19.74354838463247
,4139.0,919.0,3419.0,914.0,2262.0,2522.0,1982.0,2025-08-20 18:28:12,76.0,,-0.0672935503824288,-2.36018645767812,0.0508191422199465,2025/08/20 06:28:48 PM,1.7830102093761466,20.331325531005856,20.814748736247385
,4138.0,921.0,3418.0,913.0,2254.0,2522.0,1979.0,2025-08-20 18:28:13,76.0,,-0.0672792219849657,-2.35996536000701,0.0509355204836633,2025/08/20 06:28:58 PM,2.304609826447271,20.29769897460937,21.15959196913703
,4137.0,917.0,3418.0,913.0,2272.0,2534.0,1974.0,2025-08-20 18:28:14,76.0,,-0.0670881317989026,-2.36044738973174,0.0509834774807932,2025/08/20 06:29:08 PM,2.810656233755211,20.547945022583008,19.569892473118273
,4136.0,918.0,3419.0,912.0,2292.0,2561.0,1972.0,2025-08-20 18:28:15,76.0,,-0.0670644790351946,-2.36058587005324,0.0511429748401232,2025/08/20 06:29:18 PM,3.2919337180713963,20.761245727539062,20.011305822498585
,4133.0,918.0,3418.0,912.0,2286.0,2552.0,1959.0,2025-08-20 18:28:16,75.0,,-0.0671868104238429,-2.36024845730469,0.0509596032029383,2025/08/20 06:29:28 PM,3.7385762230076276,20.463848114013672,19.408770687969803
,4133.0,917.0,3416.0,914.0,2268.0,2550.0,1971.0,2025-08-20 18:28:17,75.0,,-0.0669299058781901,-2.35980647278346,0.0508524978150083,2025/08/20 06:29:38 PM,4.140293065244114,19.69365501403809,18.89880952380952
,4133.0,917.0,3417.0,914.0,2271.0,2555.0,1975.0,2025-08-20 18:28:18,74.0,,-0.0669319983884318,-2.35963338417058,0.0511687678435027,2025/08/20 06:29:48 PM,4.486717395668652,19.42445945739746,18.47014925373134
,4131.0,914.0,3416.0,910.0,2251.0,2528.0,1968.0,2025-08-20 18:28:19,74.0,,-0.066795595680737,-2.35949293532417,0.0509369416632251,2025/08/20 06:29:58 PM,4.7678642711794925,18.88277053833008,18.75901875901877
,4130.0,919.0,3416.0,914.0,2238.0,2527.0,1983.0,2025-08-20 18:28:20,73.0,,-0.0666888062294147,-2.35963579885824,0.0511786304474855,2025/08/20 06:30:08 PM,4.97466775618468,18.66251945495605,19.62185962185963
,4131.0,917.0,3418.0,910.0,2239.0,2533.0,1979.0,2025-08-20 18:28:21,73.0,,-0.0666603628732906,-2.35913267387747,0.0513003218610174,2025/08/20 06:30:18 PM,5.09955119077211,18.90756225585937,19.1532258064516
,4132.0,917.0,3415.0,913.0,2239.0,2531.0,1971.0,2025-08-20 18:28:22,73.0,,-0.0666756019518888,-2.35846557869264,0.0511417454919545,2025/08/20 06:30:28 PM,5.13697425336368,19.148935317993164,19.376160865702996
,4127.0,917.0,3413.0,909.0,2239.0,2531.0,1982.0,2025-08-20 18:28:23,73.0,,-0.0665897420008356,-2.35863554502751,0.0512758758877963,2025/08/20 06:30:38 PM,5.083897430880973,19.579404830932617,19.368279569892447
,4131.0,917.0,3415.0,911.0,2245.0,2515.0,1977.0,2025-08-20 18:28:24,72.0,,-0.0664991738517847,-2.35905406232524,0.0515434418050705,2025/08/20 06:30:48 PM,4.940110670180509,19.230770111083984,21.312136139722373
,4131.0,918.0,3417.0,911.0,2232.0,2523.0,1981.0,2025-08-20 18:28:25,71.0,,-0.0665475764263483,-2.35828805421478,0.0514313794728068,2025/08/20 06:30:58 PM,4.708387822476238,19.9115047454834,21.062189371734405
,4131.0,918.0,3416.0,912.0,2229.0,2522.0,1978.0,2025-08-20 18:28:26,71.0,,-0.066697824768351,-2.35841098312962,0.0514507912704099,,4.394449090209345,,
,4130.0,918.0,3414.0,913.0,2240.0,2503.0,1975.0,2025-08-20 18:28:27,70.0,,-0.0665877452411519,-2.35875218748001,0.051138607615043,,4.006735570003396,,
,4129.0,918.0,3416.0,910.0,2209.0,2502.0,1982.0,2025-08-20 18:28:28,70.0,,-0.0665911123111216,-2.35868010547919,0.0511659056833601,,3.5560187557104292,,
,4129.0,918.0,3416.0,912.0,2229.0,2515.0,1995.0,2025-08-20 18:28:29,70.0,,-0.0667345955047182,-2.3593906825994,0.0511818835026385,,3.054880748080056,,
,4129.0,917.0,3415.0,912.0,2229.0,2507.0,1990.0,2025-08-20 18:28:30,69.0,,-0.0669355821246743,-2.35973526900538,0.0513201704990658,,2.517107326086428,,
,4130.0,918.0,3416.0,912.0,2230.0,2500.0,1980.0,2025-08-20 18:28:31,69.0,,-0.0670848226954325,-2.35977863814439,0.0509452655705977,,1.9570370380198985,,
,4130.0,917.0,3418.0,912.0,2242.0,2511.0,1989.0,2025-08-20 18:28:32,69.0,,-0.0671860125591976,-2.36012039271661,0.0511129959023822,,1.3889068746259268,,
,4130.0,919.0,3419.0,913.0,2237.0,2503.0,1987.0,2025-08-20 18:28:33,69.0,,-0.0672885066676376,-2.36051734867898,0.0508391397527437,,0.8262307383202067,,
,4130.0,918.0,3414.0,915.0,2252.0,2515.0,1990.0,2025-08-20 18:28:34,70.0,,-0.0674245195889656,-2.3604918539386,0.0507952637873754,,0.2812422216942693,,
,4131.0,918.0,3415.0,911.0,2253.0,2525.0,1989.0,2025-08-20 18:28:35,70.0,,-0.0675464746914091,-2.36118196023072,0.0508547855574433,,-0.23557134082823197,,
,4129.0,917.0,3419.0,913.0,2259.0,2529.0,1976.0,2025-08-20 18:28:36,70.0,,-0.0677169250676145,-2.36182774443396,0.0507828561165896,,-0.7158215119709723,,
,4130.0,918.0,3419.0,915.0,2233.0,2518.0,1974.0,2025-08-20 18:28:37,70.0,,-0.0677623252822928,-2.36172906978291,0.0505288753824692,,-1.1534422848022865,,
,4132.0,920.0,3418.0,914.0,2234.0,2514.0,1976.0,2025-08-20 18:28:38,71.0,,-0.0679148230643127,-2.36247098240029,0.0504394918638618,,-1.544776539787438,,
,4129.0,921.0,3418.0,914.0,2242.0,2519.0,1977.0,2025-08-20 18:28:39,71.0,,-0.0679752522998007,-2.36274847316515,0.0504300556484551,,-1.8885260680233085,,
,4128.0,917.0,3417.0,912.0,2225.0,2534.0,1975.0,2025-08-20 18:28:40,72.0,,-0.0682345066375251,-2.36315698228101,0.0503605682851409,,-2.185573946247789,,
,4127.0,920.0,3419.0,912.0,2205.0,2527.0,1980.0,2025-08-20 18:28:41,73.0,,-0.0683084264277032,-2.36255170970911,0.0502806070352904,,-2.4386948232705223,,
,4128.0,918.0,3416.0,912.0,2230.0,2529.0,1973.0,2025-08-20 18:28:42,74.0,,-0.0684264280445362,-2.36272569863207,0.0501931661674274,,-2.6521737981249274,,
,4126.0,916.0,3415.0,912.0,2231.0,2528.0,1966.0,2025-08-20 18:28:43,75.0,,-0.0683045929888651,-2.36280609348052,0.0501920794428917,,-2.8313581978105056,,
,4125.0,916.0,3414.0,910.0,2210.0,2521.0,1967.0,2025-08-20 18:28:44,76.0,,-0.0683131187975103,-2.36283383733854,0.0504034334564173,,-2.9821690478024636,,
,4127.0,918.0,3412.0,913.0,2220.0,2524.0,1973.0,2025-08-20 18:28:45,76.0,,-0.068190668482582,-2.36252922057135,0.050390720416432,,-3.110600666739733,,
,4128.0,918.0,3413.0,911.0,2220.0,2535.0,1970.0,2025-08-20 18:28:46,75.0,,-0.0682145982881434,-2.36246055833598,0.0502395830985385,,-3.222237651076607,,
,4126.0,919.0,3417.0,915.0,2221.0,2529.0,1970.0,2025-08-20 18:28:47,75.0,,-0.067922459849127,-2.3619080542195,0.0506188285139462,,-3.321818293737876,,
,4125.0,915.0,3412.0,910.0,2214.0,2530.0,1985.0,2025-08-20 18:28:48,73.0,,-0.0678046222204549,-2.36164880460952,0.0503027179548195,,-3.412871767363668,,
,4126.0,918.0,3415.0,911.0,2226.0,2557.0,1990.0,2025-08-20 18:28:49,72.0,,-0.0676041286443861,-2.36150720245772,0.0505103854833992,,-3.4974527131179873,,
,4127.0,919.0,3418.0,913.0,2231.0,2529.0,1984.0,2025-08-20 18:28:50,72.0,,-0.067527171897752,-2.361088930344,0.0505046692646579,,-3.5759908123638633,,
,4128.0,919.0,3419.0,917.0,2241.0,2536.0,1990.0,2025-08-20 18:28:51,71.0,,-0.0675626544909591,-2.36108300985661,0.0505447719261741,,-3.6472645004926676,,
,4126.0,918.0,3414.0,913.0,2248.0,2519.0,1980.0,2025-08-20 18:28:52,71.0,,-0.0676538080890515,-2.36022633572231,0.0507054045090781,,-3.708498083868498,,
,4128.0,918.0,3416.0,911.0,2246.0,2520.0,1975.0,2025-08-20 18:28:53,71.0,,-0.0673323190446116,-2.36012967133316,0.0505763054653772,,-3.7555717551954966,,
,4127.0,920.0,3419.0,913.0,2247.0,2527.0,1986.0,2025-08-20 18:28:54,70.0,,-0.067730447337048,-2.36013353457552,0.0508573709689653,,-3.7833258132809093,,
,4133.0,919.0,3419.0,913.0,2234.0,2525.0,1996.0,2025-08-20 18:28:55,70.0,,-0.0676403592647307,-2.36031316221898,0.050695862196065,,-3.7859342942315246,,
,4129.0,918.0,3421.0,913.0,2237.0,2514.0,1991.0,2025-08-20 18:28:56,69.0,,-0.0673585401599063,-2.35988528548655,0.0506067018176145,,-3.757319054443031,,
,4128.0,922.0,3419.0,914.0,2243.0,2505.0,1986.0,2025-08-20 18:28:57,68.0,,-0.0673965451279527,-2.35947889795398,0.0507403140004474,,-3.6915730468632924,,
,4131.0,920.0,3418.0,914.0,2233.0,2523.0,1974.0,2025-08-20 18:28:58,68.0,,-0.0673696742934965,-2.35919736765624,0.0507457131101045,,-3.5833614225360058,,
,4131.0,921.0,3419.0,914.0,2241.0,2527.0,1973.0,2025-08-20 18:28:59,67.0,,-0.0673409438071577,-2.35972850556122,0.050879726176375,,-3.4282716048492876,,
,4130.0,919.0,3419.0,912.0,2224.0,2521.0,1973.0,2025-08-20 18:29:00,67.0,,-0.0674085619797457,-2.35969917530106,0.0510110126559791,,-3.223088881584351,,
,4131.0,919.0,3419.0,912.0,2227.0,2511.0,1984.0,2025-08-20 18:29:01,68.0,,-0.0672643605942923,-2.35907073834748,0.050695789807726,,-2.965982351522864,,
,4132.0,920.0,3420.0,915.0,2216.0,2532.0,1982.0,2025-08-20 18:29:02,68.0,,-0.0673810433463119,-2.35924792573104,0.0508013870335261,,-2.6565969077770655,,
,4134.0,922.0,3420.0,916.0,2219.0,2548.0,1976.0,2025-08-20 18:29:03,68.0,,-0.0672997114830279,-2.35895964751871,0.050708981878019,,-2.2960592412763012,,
,4134.0,921.0,3421.0,917.0,2216.0,2550.0,1971.0,2025-08-20 18:29:04,68.0,,-0.0674308386868063,-2.35887342600102,0.050903552245647,,-1.8869173665779928,,
,4136.0,919.0,3420.0,916.0,2226.0,2538.0,1982.0,2025-08-20 18:29:05,68.0,,-0.0673143801851091,-2.35924691091945,0.0507696360602341,,-1.4330409113432259,,
,4136.0,924.0,3422.0,916.0,2234.0,2538.0,1980.0,2025-08-20 18:29:06,68.0,,-0.0674435507635763,-2.35899425043064,0.0506447559004259,,-0.9395108955161877,,
,4140.0,922.0,3421.0,916.0,2230.0,2527.0,1979.0,2025-08-20 18:29:07,68.0,,-0.0672397635910741,-2.3584362201304,0.0508894562114432,,-0.4125222852722423,,
,4137.0,924.0,3422.0,916.0,2226.0,2524.0,1982.0,2025-08-20 18:29:08,68.0,,-0.0672474393330323,-2.35865121232767,0.0508426578463616,,0.1406882724411071,,
,4138.0,924.0,3423.0,916.0,2205.0,2526.0,1990.0,2025-08-20 18:29:09,68.0,,-0.0672661166366502,-2.35866954360058,0.0508930685896151,,0.7118904744285924,,
,4139.0,923.0,3423.0,917.0,2219.0,2558.0,1988.0,2025-08-20 18:29:10,68.0,,-0.0671426629667509,-2.35890719130919,0.0507391070057796,,1.291897642658785,,
,4140.0,924.0,3425.0,917.0,2227.0,2562.0,1981.0,2025-08-20 18:29:11,68.0,,-0.0673077497433613,-2.35842623158672,0.0507941582185134,,1.8706160521557909,,
,4142.0,924.0,3423.0,919.0,2222.0,2560.0,1988.0,2025-08-20 18:29:12,69.0,,-0.0671918852736698,-2.35867306015008,0.0506417935139948,,2.437133840230745,,
,4141.0,923.0,3423.0,917.0,2214.0,2558.0,1991.0,2025-08-20 18:29:13,69.0,,-0.0668841912513811,-2.35869293345308,0.0509047293659174,,2.9798769455418177,,
,4141.0,925.0,3427.0,918.0,2213.0,2547.0,1989.0,2025-08-20 18:29:14,70.0,,-0.0669567427238211,-2.35893309133252,0.0505375957888916,,3.486854799212406,,
,4145.0,924.0,3426.0,919.0,2222.0,2589.0,1986.0,2025-08-20 18:29:15,70.0,,-0.0669065639962902,-2.35874897193655,0.0508361224703517,,3.946009335240173,,
,4146.0,924.0,3426.0,917.0,2204.0,2569.0,1989.0,2025-08-20 18:29:16,70.0,,-0.0668904201955358,-2.3587108246264,0.0505632088728811,,4.345667544346174,,
,4144.0,925.0,3424.0,917.0,2224.0,2585.0,1981.0,2025-08-20 18:29:17,70.0,,-0.0670247942697144,-2.35887292068443,0.0508586982319085,,4.675081117873374,,
,4148.0,925.0,3428.0,918.0,2229.0,2569.0,1984.0,2025-08-20 18:29:18,70.0,,-0.0668486467756975,-2.3584679506677,0.0505850296698468,,4.9250187396909695,,
,4150.0,925.0,3427.0,920.0,2221.0,2558.0,1994.0,2025-08-20 18:29:19,70.0,,-0.0668223933514887,-2.35877713602193,0.0508473027353279,,5.088360249662519,,
,4150.0,926.0,3428.0,919.0,2212.0,2552.0,1992.0,2025-08-20 18:29:20,70.0,,-0.0667029602918759,-2.3587975865521,0.050720271081664,,5.160630299834051,,
,4149.0,926.0,3430.0,919.0,2201.0,2555.0,1993.0,2025-08-20 18:29:21,71.0,,-0.0668244206567463,-2.35861317448874,0.0506480413754509,,5.1404049459720325,,
,4149.0,928.0,3428.0,919.0,2190.0,2545.0,1986.0,2025-08-20 18:29:22,71.0,,-0.0665830361556431,-2.35866414654817,0.0507537879715729,,5.029530173855878,,
,4153.0,930.0,3430.0,921.0,2193.0,2548.0,1980.0,2025-08-20 18:29:23,71.0,,-0.0667340311028376,-2.35879194757378,0.0508861502856199,,4.833108110883703,,
,4152.0,930.0,3432.0,921.0,2197.0,2537.0,1980.0,2025-08-20 18:29:24,71.0,,-0.0665959401508141,-2.35882835096753,0.050889329251118,,4.559233783887466,,
,4154.0,929.0,3432.0,921.0,2202.0,2543.0,1978.0,2025-08-20 18:29:25,71.0,,-0.0665664552834567,-2.35884623462665,0.0510069380710251,,4.218498418276953,,
,4154.0,929.0,3431.0,921.0,2183.0,2552.0,1988.0,2025-08-20 18:29:26,71.0,,-0.0665878693552532,-2.35839307712481,0.0508763246910315,,3.8233073152569927,,
,4157.0,930.0,3431.0,922.0,2200.0,2573.0,1979.0,2025-08-20 18:29:27,71.0,,-0.0666055052423684,-2.35846514903346,0.0509014205412414,,3.3870841342202254,,
,4156.0,929.0,3435.0,923.0,2216.0,2567.0,1985.0,2025-08-20 18:29:28,70.0,,-0.0666421706479553,-2.35872719230356,0.0508887166893281,,2.9234446609547975,,
,4158.0,929.0,3434.0,924.0,2207.0,2561.0,1987.0,2025-08-20 18:29:29,70.0,,-0.0664128193683642,-2.35839488640906,0.0510620686606648,,2.44542148553758,,
,4157.0,927.0,3430.0,921.0,2206.0,2546.0,1986.0,2025-08-20 18:29:30,70.0,,-0.0665056451216854,-2.3581482151524,0.0509685847438053,,1.964808849549585,,
,4160.0,928.0,3433.0,922.0,2212.0,2541.0,1983.0,2025-08-20 18:29:31,70.0,,-0.0664713646260873,-2.35824970891004,0.0509133100238566,,1.491677575133495,,
,4159.0,929.0,3433.0,922.0,2223.0,2531.0,1981.0,2025-08-20 18:29:32,70.0,,-0.0664638618086459,-2.35774163675307,0.0509502021492321,,1.0340865958851093,,
,4161.0,928.0,3434.0,921.0,2234.0,2521.0,1983.0,2025-08-20 18:29:33,70.0,,-0.0664566713679142,-2.35793957119887,0.0510769631321675,,0.5979930757985573,,
,4160.0,931.0,3431.0,922.0,2231.0,2522.0,1987.0,2025-08-20 18:29:34,70.0,,-0.0664554605328234,-2.35806542673602,0.0512076566729376,,0.1873404548666089,,
,4165.0,932.0,3437.0,923.0,2245.0,2516.0,1988.0,2025-08-20 18:29:35,70.0,,-0.0664966443600138,-2.35778467792416,0.0511243511725591,,-0.19571396664265858,,
,4165.0,934.0,3436.0,925.0,2217.0,2516.0,1987.0,2025-08-20 18:29:36,71.0,,-0.0664218634242846,-2.35755863440145,0.0509038074215358,,-0.5504808033605321,,
,4167.0,931.0,3435.0,924.0,2229.0,2521.0,1985.0,2025-08-20 18:29:37,71.0,,-0.0662671470591226,-2.35808979724759,0.051028937126803,,-0.8773810178410133,,
,4163.0,931.0,3437.0,922.0,2230.0,2560.0,1980.0,2025-08-20 18:29:38,71.0,,-0.0663695041742855,-2.35773294509735,0.0510850163694211,,-1.1775951256252941,,
,4166.0,930.0,3436.0,922.0,2254.0,2529.0,1988.0,2025-08-20 18:29:39,71.0,,-0.0661501597338795,-2.35771589800987,0.0511564530078453,,-1.4527541304039446,,
,4170.0,932.0,3437.0,927.0,2256.0,2527.0,1990.0,2025-08-20 18:29:40,70.0,,-0.0661799553039795,-2.3574055338915,0.0511157810942961,,-1.704692511035255,,
,4170.0,934.0,3436.0,927.0,2237.0,2536.0,1989.0,2025-08-20 18:29:41,70.0,,-0.0661726646649884,-2.35740620501026,0.0514761191129939,,-1.935268541064091,,
,4169.0,932.0,3438.0,925.0,2216.0,2543.0,1981.0,2025-08-20 18:29:42,70.0,,-0.0660747845997743,-2.35743040885104,0.0512800167252712,,-2.1462446546496325,,
,4169.0,931.0,3437.0,926.0,2218.0,2532.0,1990.0,2025-08-20 18:29:43,70.0,,-0.0660577703984973,-2.35720770803082,0.0511281467531208,,-2.339212304499259,,
,4171.0,932.0,3438.0,925.0,2212.0,2551.0,2000.0,2025-08-20 18:29:44,70.0,,-0.066132447395666,-2.3570205516608,0.0511276991570369,,-2.515542311490942,,
,4171.0,932.0,3439.0,925.0,2208.0,2551.0,1997.0,2025-08-20 18:29:45,71.0,,-0.0659673094106243,-2.35737364100232,0.0512834507045412,,-2.6763426164419952,,
,4166.0,931.0,3433.0,922.0,2199.0,2540.0,1984.0,2025-08-20 18:29:46,72.0,,-0.066054675408493,-2.35652547997028,0.0511685073091146,,-2.8224095939709253,,
,4162.0,930.0,3435.0,923.0,2183.0,2532.0,1977.0,2025-08-20 18:29:47,72.0,,-0.0661212388675041,-2.35676164601943,0.0511228907586432,,-2.9541654860488955,,
,4161.0,926.0,3435.0,921.0,2201.0,2529.0,1996.0,2025-08-20 18:29:48,72.0,,-0.0660084383274922,-2.35668887660214,0.050997926964726,,-3.0715818943440327,,
,4157.0,927.0,3430.0,920.0,2203.0,2533.0,1995.0,2025-08-20 18:29:49,72.0,,-0.0660603663001804,-2.356624442784,0.0511860751288704,,-3.17409649734289,,
,4153.0,925.0,3430.0,917.0,2197.0,2517.0,1981.0,2025-08-20 18:29:50,72.0,,-0.0659463549689018,-2.35644789880275,0.0509677587282271,,-3.2605361240848567,,
,4149.0,923.0,3427.0,919.0,2190.0,2515.0,1982.0,2025-08-20 18:29:51,72.0,,-0.0657673144337398,-2.35680259601007,0.0509211393408643,,-3.3290630676944124,,
,4147.0,924.0,3425.0,922.0,2183.0,2520.0,1981.0,2025-08-20 18:29:52,72.0,,-0.0657123903753775,-2.35628008069997,0.0508673908040089,,-3.377162396694454,,
,4145.0,921.0,3423.0,920.0,2185.0,2545.0,1989.0,2025-08-20 18:29:53,72.0,,-0.0658476132259091,-2.35617481285491,0.0508337680716683,,-3.4016857288329385,,
,4140.0,919.0,3421.0,917.0,2185.0,2541.0,1981.0,2025-08-20 18:29:54,72.0,,-0.0658927041903818,-2.35601342611995,0.0509150038302061,,-3.398961564160348,,
,4138.0,921.0,3419.0,917.0,2182.0,2545.0,1982.0,2025-08-20 18:29:55,72.0,,-0.0659067909622549,-2.35586097782633,0.0508291391913574,,-3.3649742715942264,,
,4136.0,919.0,3421.0,916.0,2194.0,2550.0,1975.0,2025-08-20 18:29:56,73.0,,-0.0659117998901367,-2.35632487425479,0.0506690069902607,,-3.295603989467091,,
,4135.0,918.0,3420.0,916.0,2200.0,2564.0,1983.0,2025-08-20 18:29:57,73.0,,-0.0659794680285891,-2.3558344773023,0.0507543553942527,,-3.1869094176269126,,
,4133.0,919.0,3417.0,917.0,2205.0,2567.0,1979.0,2025-08-20 18:29:58,73.0,,-0.0660505463168537,-2.35604461943065,0.0506764438017565,,-3.0354269452117175,,
,4132.0,916.0,3417.0,917.0,2183.0,2569.0,1985.0,2025-08-20 18:29:59,74.0,,-0.0658756376576126,-2.35573910582346,0.0507420989641705,,-2.8384554603928533,,
,4130.0,917.0,3419.0,917.0,2188.0,2554.0,1979.0,2025-08-20 18:30:00,74.0,,-0.065738145890472,-2.355517064054,0.0509214616704431,,-2.594298511516955,,
,4131.0,921.0,3418.0,917.0,2184.0,2556.0,1988.0,2025-08-20 18:30:01,75.0,,-0.0658128548595432,-2.35519825685241,0.0505801412875382,,-2.302444174239141,,
,4130.0,919.0,3418.0,916.0,2186.0,2555.0,1991.0,2025-08-20 18:30:02,75.0,,-0.066019913877313,-2.3552143544634,0.0505963085363538,,-1.9636755778248567,,
,4130.0,914.0,3418.0,916.0,2185.0,2543.0,1987.0,2025-08-20 18:30:03,75.0,,-0.0660408519775739,-2.35504394219183,0.050877144163733,,-1.5801177091283416,,
,4126.0,916.0,3417.0,915.0,2182.0,2534.0,1997.0,2025-08-20 18:30:04,75.0,,-0.0659391566256778,-2.35486758189217,0.0508646428061628,,-1.1552352164645616,,
,4127.0,916.0,3416.0,915.0,2180.0,2564.0,1997.0,2025-08-20 18:30:05,75.0,,-0.0658746729877466,-2.35432607631966,0.0508342843297299,,-0.6937993784734591,,
,4127.0,919.0,3418.0,917.0,2183.0,2565.0,1993.0,2025-08-20 18:30:06,75.0,,-0.0656751328067418,-2.3541593198826,0.0505826322193496,,-0.2018400507840989,,
,4125.0,917.0,3414.0,917.0,2182.0,2536.0,1993.0,2025-08-20 18:30:07,75.0,,-0.0655081774011301,-2.35417756346966,0.0509127590029111,,0.31340837787958575,,
,4126.0,914.0,3414.0,912.0,2188.0,2567.0,1994.0,2025-08-20 18:30:08,75.0,,-0.0654587787919665,-2.35436882989567,0.0507240193016621,,0.8435671500446661,,
,4127.0,916.0,3414.0,916.0,2184.0,2560.0,1993.0,2025-08-20 18:30:09,76.0,,-0.0657470308273865,-2.35413726558061,0.0507066634226607,,1.3791889286126533,,
,4125.0,918.0,3417.0,914.0,2182.0,2555.0,1988.0,2025-08-20 18:30:10,76.0,,-0.0655891181970402,-2.35422609147817,0.0510287607728653,,1.9098662415467083,,
,4125.0,916.0,3413.0,914.0,2198.0,2556.0,1981.0,2025-08-20 18:30:11,77.0,,-0.0657628065516152,-2.35406725347216,0.0506753881728551,,2.424393543142364,,
,4126.0,917.0,3414.0,915.0,2182.0,2524.0,1986.0,2025-08-20 18:30:12,78.0,,-0.0659357448258551,-2.35470085780778,0.0507312017422527,,2.9110030867196186,,
,4126.0,918.0,3415.0,915.0,2193.0,2534.0,1995.0,2025-08-20 18:30:13,79.0,,-0.0659612619895382,-2.35504690630787,0.050617129503874,,3.35768909008861,,
,4127.0,918.0,3415.0,916.0,2183.0,2534.0,1979.0,2025-08-20 18:30:14,79.0,,-0.0661396010572723,-2.35586942615436,0.050853112841649,,3.7526244392813837,,
,4126.0,917.0,3414.0,915.0,2188.0,2532.0,1981.0,2025-08-20 18:30:15,79.0,,-0.0662017874159031,-2.35615226723503,0.0506298718798457,,4.08466029483674,,
2025-08-20 18:28:09,4123.0,915.0,3413.0,914.0,2189.0,2533.0,1999.0,2025-08-20 18:30:16,79.0,2025/08/20 06:28:09 PM,-0.0663863822054288,-2.35701942214929,0.0506686374130489,,4.343882968079122,,
,4126.0,917.0,3414.0,915.0,2189.0,2519.0,1995.0,2025-08-20 18:30:17,78.0,,-0.0665824713879914,-2.35703899734471,0.050377405852711,,4.522186847301734,,
,4124.0,917.0,3414.0,915.0,2203.0,2519.0,1986.0,2025-08-20 18:30:18,77.0,,-0.066707241622791,-2.35765447455465,0.0502451332256473,,4.613810245567136,,
,4124.0,918.0,3413.0,914.0,2203.0,2519.0,1989.0,2025-08-20 18:30:19,76.0,,-0.0667074886521443,-2.35812641159721,0.0503958621286607,,4.615775939573853,,
,4122.0,917.0,3412.0,911.0,2222.0,2527.0,2000.0,2025-08-20 18:30:20,76.0,,-0.0669982888030096,-2.35900662559125,0.0502995671603236,,4.528181941419604,,
,4124.0,918.0,3412.0,914.0,2231.0,2547.0,1990.0,2025-08-20 18:30:21,75.0,,-0.0670602781163328,-2.35970192331629,0.0501442856125639,,4.3543010737712535,,
,4123.0,915.0,3414.0,916.0,2225.0,2545.0,1989.0,2025-08-20 18:30:22,75.0,,-0.0671794861754499,-2.36008951053042,0.050265189155462,,4.100468492131204,,
,4123.0,916.0,3411.0,915.0,2220.0,2527.0,1983.0,2025-08-20 18:30:23,76.0,,-0.0671752405617705,-2.36022433217703,0.0500042695696342,,3.7757606604467586,,
,4122.0,915.0,3412.0,914.0,2213.0,2538.0,1985.0,2025-08-20 18:30:24,76.0,,-0.067223205552288,-2.36071604163004,0.0499253469699591,,3.391492621706165,,
,4120.0,915.0,3410.0,914.0,2214.0,2537.0,1990.0,2025-08-20 18:30:25,76.0,,-0.067322945498684,-2.36050683159992,0.050131653387252,,2.9605785511766896,,
,4123.0,916.0,3413.0,914.0,2206.0,2529.0,1996.0,2025-08-20 18:30:26,76.0,,-0.0674663107607617,-2.36112289447163,0.0500029871149486,,2.496811339846907,,
,4123.0,915.0,3410.0,914.0,2200.0,2532.0,1992.0,2025-08-20 18:30:27,76.0,,-0.067575713695044,-2.36106661625081,0.0499746284770179,,2.014120175069529,,
,4121.0,913.0,3412.0,912.0,2193.0,2512.0,1978.0,2025-08-20 18:30:28,76.0,,-0.0674667912191188,-2.36139666188116,0.0499560169461133,,1.5258619396947615,,
,4121.0,916.0,3409.0,911.0,2195.0,2514.0,1985.0,2025-08-20 18:30:29,75.0,,-0.0673292102289745,-2.36216505890734,0.0500428873467632,,1.0441945262516856,,
,4121.0,918.0,3412.0,915.0,2190.0,2522.0,1987.0,2025-08-20 18:30:30,74.0,,-0.0674409729633022,-2.3623105566461,0.0501721479316251,,0.5795696320543516,,
,4124.0,919.0,3412.0,914.0,2195.0,2530.0,1989.0,2025-08-20 18:30:31,73.0,,-0.0672959031969276,-2.36205377029282,0.0501869510238723,,0.14037051366565473,,
,4121.0,915.0,3410.0,911.0,2193.0,2547.0,1982.0,2025-08-20 18:30:32,73.0,,-0.0671664502113263,-2.3610208068049,0.0500300813206942,,-0.267292689446298,,
,4121.0,919.0,3414.0,914.0,2207.0,2538.0,1994.0,2025-08-20 18:30:33,73.0,,-0.0672751562755193,-2.36049823319476,0.0502643271635242,,-0.6396301950178543,,
,4121.0,920.0,3414.0,914.0,2206.0,2537.0,1988.0,2025-08-20 18:30:34,73.0,,-0.0671459849318844,-2.36061240121225,0.0504681738254853,,-0.9750737971580085,,
,4123.0,917.0,3411.0,912.0,2203.0,2536.0,1990.0,2025-08-20 18:30:35,74.0,,-0.0671253041231522,-2.36012044135706,0.0501092122560203,,-1.2740520511070124,,
,4122.0,918.0,3413.0,917.0,2214.0,2525.0,1995.0,2025-08-20 18:30:36,75.0,,-0.066933109832098,-2.35988034343211,0.0503178764111955,,-1.5386648020409082,,
,4121.0,915.0,3410.0,911.0,2203.0,2535.0,1987.0,2025-08-20 18:30:37,76.0,,-0.0668260701863766,-2.35997146321332,0.0505036883736775,,-1.7722850726577926,,
,4123.0,918.0,3412.0,914.0,2203.0,2535.0,1983.0,2025-08-20 18:30:38,77.0,,-0.0667671430023422,-2.35928628153649,0.0504863891133409,,-1.9791170633159278,,
,4124.0,920.0,3412.0,915.0,2199.0,2542.0,1986.0,2025-08-20 18:30:39,78.0,,-0.0669672681582017,-2.3593526742989,0.0502929197815862,,-2.163738641463022,,
,4126.0,918.0,3414.0,914.0,2194.0,2548.0,1984.0,2025-08-20 18:30:40,77.0,,-0.0668805656277133,-2.35904508497356,0.050305206486829,,-2.330655662736054,,
,4123.0,917.0,3410.0,913.0,2191.0,2557.0,1995.0,2025-08-20 18:30:41,76.0,,-0.0668146063729581,-2.35908531143394,0.0503692531248695,,-2.483893899280653,,
,4127.0,919.0,3413.0,916.0,2198.0,2557.0,1997.0,2025-08-20 18:30:42,75.0,,-0.0667455656635789,-2.35874091221453,0.0505174382884322,,-2.626652114696225,,
,4127.0,920.0,3413.0,914.0,2198.0,2521.0,1985.0,2025-08-20 18:30:43,74.0,,-0.0665806119715107,-2.35862099476829,0.0503849064838783,,-2.7610366134471462,,
,4129.0,921.0,3414.0,917.0,2192.0,2526.0,1989.0,2025-08-20 18:30:44,73.0,,-0.066667319784676,-2.35823197264785,0.0503341465903737,,-2.8878930355486285,,
,4125.0,920.0,3414.0,914.0,2203.0,2527.0,1992.0,2025-08-20 18:30:45,73.0,,-0.0666086985879875,-2.35857203924997,0.0502719710217787,,-3.0067449616549404,,
,4128.0,918.0,3416.0,916.0,2199.0,2546.0,1995.0,2025-08-20 18:30:46,73.0,,-0.0665318166261109,-2.35838181710103,0.0504026178093117,,-3.11584106883604,,
,4131.0,922.0,3416.0,916.0,2189.0,2546.0,1998.0,2025-08-20 18:30:47,73.0,,-0.0665907699913171,-2.35816379674038,0.0501643752439047,,-3.2123038639044927,,
,4133.0,921.0,3417.0,917.0,2184.0,2547.0,1991.0,2025-08-20 18:30:48,72.0,,-0.0665707948281241,-2.3582816654982,0.0502353243078161,,-3.292364821810627,,
,4130.0,920.0,3416.0,914.0,2188.0,2553.0,1983.0,2025-08-20 18:30:49,72.0,,-0.0666312884298288,-2.35805457642236,0.0503331931394796,,-3.3516643896317055,,
,4131.0,920.0,3415.0,914.0,2193.0,2548.0,1975.0,2025-08-20 18:30:50,72.0,,-0.066604898031401,-2.35837508519419,0.0501202476766299,,-3.3855912293481394,,
,4133.0,923.0,3418.0,917.0,2190.0,2553.0,1990.0,2025-08-20 18:30:51,72.0,,-0.0665015849415167,-2.35830178888824,0.0504659772857445,,-3.389632940350457,,
,4133.0,921.0,3418.0,918.0,2199.0,2547.0,1992.0,2025-08-20 18:30:52,72.0,,-0.0667706979650421,-2.35893639142373,0.0506070576638138,,-3.359709980010699,,
,4135.0,922.0,3418.0,915.0,2184.0,2532.0,1995.0,2025-08-20 18:30:53,72.0,,-0.0668827414015372,-2.35829998890259,0.0502353644566383,,-3.2924656961129855,,
,4133.0,922.0,3418.0,918.0,2184.0,2545.0,1994.0,2025-08-20 18:30:54,72.0,,-0.0667909597481766,-2.35769362674866,0.0502703067841108,,-3.185488743146938,,
,4137.0,923.0,3418.0,917.0,2178.0,2540.0,1995.0,2025-08-20 18:30:55,72.0,,-0.0666810840054664,-2.35857512217047,0.05029108844873,,-3.0374501071529836,,
,4137.0,919.0,3417.0,917.0,2180.0,2546.0,1997.0,2025-08-20 18:30:56,72.0,,-0.0663927335064629,-2.35901816484283,0.0502833331323226,,-2.8481456599581687,,
,4139.0,922.0,3418.0,918.0,2184.0,2571.0,2001.0,2025-08-20 18:30:57,72.0,,-0.0663542152807587,-2.35863988682333,0.0502127643239269,,-2.6184462686914465,,
,4138.0,922.0,3418.0,917.0,2178.0,2573.0,1994.0,2025-08-20 18:30:58,72.0,,-0.0664389582083416,-2.35842249581152,0.0501721627263139,,-2.350169931653416,,
,4135.0,924.0,3416.0,918.0,2173.0,2540.0,1999.0,2025-08-20 18:30:59,73.0,,-0.0665389592074824,-2.35898452382227,0.0502526112851735,,-2.0459021855769945,,
,4140.0,924.0,3420.0,919.0,2181.0,2529.0,1998.0,2025-08-20 18:31:00,74.0,,-0.0665541384175264,-2.35905715180679,0.0502643464230331,,-1.7087994052073512,,
,4142.0,926.0,3422.0,919.0,2188.0,2551.0,1994.0,2025-08-20 18:31:01,74.0,,-0.0665451846421727,-2.35903821849602,0.0502540997540267,,-1.3424120402748823,,
,4145.0,925.0,3421.0,917.0,2195.0,2530.0,1991.0,2025-08-20 18:31:02,75.0,,-0.0662931091436405,-2.35925611602912,0.0502092505759337,,-0.9505600649168207,,
,4147.0,927.0,3422.0,921.0,2194.0,2536.0,1987.0,2025-08-20 18:31:03,75.0,,-0.066564127982623,-2.35956376787426,0.0501148674598377,,-0.5372816931597506,,
,4147.0,927.0,3425.0,918.0,2200.0,2539.0,1989.0,2025-08-20 18:31:04,75.0,,-0.0666577567618429,-2.3594589144638,0.0503936968064342,,-0.10686125936496355,,
,4146.0,927.0,3426.0,920.0,2209.0,2529.0,1981.0,2025-08-20 18:31:05,76.0,,-0.0667528040256587,-2.35976743899471,0.0501783547290467,,0.33607366073261824,,
,4149.0,927.0,3420.0,919.0,2202.0,2545.0,1995.0,2025-08-20 18:31:06,75.0,,-0.0666587577188208,-2.36041848815405,0.050090126776666,,0.7864095370961959,,
,4147.0,926.0,3423.0,917.0,2212.0,2546.0,2003.0,2025-08-20 18:31:07,75.0,,-0.066657850477801,-2.36024823534827,0.0503972005315367,,1.2383921890477652,,
,4150.0,927.0,3423.0,920.0,2204.0,2535.0,2000.0,,,,-0.0667383374209052,-2.36017815565613,0.0502427083755204,,1.6854990472333937,,
,4151.0,928.0,3424.0,920.0,2201.0,2524.0,1996.0,,,,-0.0666491190637912,-2.36075280969097,0.0501729719465045,,2.120377416939554,,
,4150.0,929.0,3424.0,920.0,2202.0,2530.0,1993.0,,,,-0.0666126341891668,-2.36038872897296,0.0501036334462,,2.534882250328086,,
,4152.0,930.0,3427.0,921.0,2193.0,2529.0,1996.0,,,,-0.0667079392001108,-2.36064072342045,0.0502838969722734,,2.9202359580241546,,
,4154.0,931.0,3427.0,921.0,2197.0,2532.0,1990.0,,,,-0.0667391308088223,-2.3606197187185,0.0499802763474733,,3.2673174618502823,,
,4156.0,930.0,3428.0,920.0,2213.0,2533.0,1991.0,,,,-0.0668777618256547,-2.36113908359991,0.0503680820949381,,3.5670698829324308,,
,4157.0,927.0,3427.0,920.0,2204.0,2562.0,1994.0,,,,-0.0668503225536283,-2.36109450356888,0.0503885002278604,,3.8109982619487193,,
,4157.0,930.0,3428.0,922.0,2203.0,2537.0,1992.0,,,,-0.0668836497189745,-2.36138830346754,0.0503141033319343,,3.991712870928877,,
,4158.0,929.0,3427.0,922.0,2200.0,2531.0,1992.0,,,,-0.0668008505150626,-2.3611084436452,0.0501597060064561,,4.103462185784042,,
,4159.0,930.0,3428.0,921.0,2197.0,2528.0,1988.0,,,,-0.0668141144999606,-2.36166587406281,0.0502203120072167,,4.1425943629415,,
,4160.0,929.0,3425.0,920.0,2188.0,2558.0,1990.0,,,,-0.0669576742975495,-2.36208322899355,0.0503212362049562,,4.107888671309889,,
,4160.0,932.0,3428.0,922.0,2188.0,2528.0,1986.0,,,,-0.066891279481842,-2.36166808489854,0.0501382995064209,,4.000709734701311,,
,4164.0,931.0,3428.0,923.0,2203.0,2547.0,1996.0,,,,-0.0668922387029642,-2.36220183287189,0.0500156642791707,,3.824957328114987,,
,4166.0,933.0,3434.0,924.0,2203.0,2561.0,1997.0,,,,-0.0670693261773152,-2.36237599501983,0.0502209160856275,,3.5868104666738043,,
,4163.0,932.0,3431.0,922.0,2188.0,2559.0,1980.0,,,,-0.067081721084469,-2.36220255362423,0.0501543106135914,,3.2942921552196878,,
,4167.0,932.0,3432.0,923.0,2193.0,2544.0,1993.0,,,,-0.0670094815415754,-2.36231726667476,0.0500307684257336,,2.956705028146895,,
,4166.0,936.0,3432.0,924.0,2208.0,2569.0,1994.0,,,,-0.067176835031551,-2.36212869656353,0.0498536850905755,,2.584003581860211,,
,4167.0,935.0,3434.0,923.0,2213.0,2566.0,1995.0,,,,-0.0671258744025028,-2.36265742162945,0.0498659691903516,,2.1861732567786825,,
,4167.0,934.0,3429.0,924.0,2208.0,2548.0,1989.0,,,,-0.067113959577101,-2.36250239881774,0.0498398493254596,,1.7726802880700856,,
,4164.0,932.0,3429.0,922.0,2202.0,2546.0,1990.0,,,,-0.0671495196943839,-2.36259456656025,0.0498348549777322,,1.3520412171454803,,
,4165.0,931.0,3427.0,923.0,2192.0,2542.0,1986.0,,,,-0.0671690997931528,-2.36311105404691,0.0499702770935768,,0.9315407578595958,,
,4160.0,930.0,3429.0,923.0,2184.0,2543.0,1992.0,,,,-0.0674120532917432,-2.36333986079999,0.0496359198794721,,0.5171052764315464,,
,4158.0,929.0,3428.0,920.0,2207.0,2563.0,1989.0,,,,-0.0674252569470035,-2.36326405577531,0.0497249397157852,,0.11331999780168923,,
,4154.0,928.0,3424.0,921.0,2192.0,2531.0,1984.0,,,,-0.0674996250384305,-2.3635184703974,0.0496216775089727,,-0.27643641420761766,,
,4151.0,927.0,3425.0,920.0,2189.0,2514.0,1987.0,,,,-0.067216733029807,-2.36390823232567,0.0497805267335121,,-0.6497750570216161,,
,4150.0,928.0,3421.0,919.0,2184.0,2526.0,1992.0,,,,-0.067368743644607,-2.36423718427543,0.0496639709335829,,-1.0050361251621622,,
,4145.0,925.0,3419.0,919.0,2194.0,2551.0,1993.0,,,,-0.0674181063236278,-2.36438238448405,0.0495700483141477,,-1.3410209275469238,,
,4140.0,923.0,3415.0,914.0,2178.0,2547.0,1997.0,,,,-0.0674259489930754,-2.36397177154563,0.0497053028712156,,-1.6567472289558953,,
,4140.0,923.0,3416.0,917.0,2179.0,2524.0,1992.0,,,,-0.0676083689048407,-2.36395736561895,0.0495105026423696,,-1.9512497953342445,,
,4135.0,925.0,3413.0,917.0,2193.0,2543.0,1990.0,,,,-0.0675750393272976,-2.36426471083894,0.0494400002727587,,-2.2234378941800195,,
,4136.0,919.0,3415.0,913.0,2196.0,2549.0,1985.0,,,,-0.0676305681244513,-2.36495001140404,0.049632047026573,,-2.472011717714612,,
,4132.0,920.0,3412.0,914.0,2192.0,2558.0,1987.0,,,,-0.067573080001922,-2.36508806326641,0.0496005629401722,,-2.695431987728091,,
,4130.0,920.0,3413.0,914.0,2184.0,2550.0,1992.0,,,,-0.0675388604721078,-2.36446790634285,0.0495126272412825,,-2.891932520850238,,
,4130.0,918.0,3409.0,913.0,2195.0,2537.0,1991.0,,,,-0.0675373574189878,-2.36472105079381,0.0494220589679547,,-3.0595642738053597,,
,4127.0,919.0,3411.0,914.0,2206.0,2536.0,1993.0,,,,-0.0676796643502945,-2.36499118839747,0.0495584131592668,,-3.196260334009423,,
,4126.0,920.0,3408.0,912.0,2197.0,2550.0,1986.0,,,,-0.067857996265646,-2.36518680598122,0.049167135874114,,-3.299913244620809,,
,4126.0,920.0,3410.0,913.0,2219.0,2556.0,1991.0,,,,-0.0677491175439107,-2.36541471809562,0.0494082177757095,,-3.3684581169841175,,
,4126.0,918.0,3408.0,914.0,2203.0,2543.0,1986.0,,,,-0.0676989291467987,-2.36583251600959,0.0495197556320796,,-3.399956740936254,,
,4123.0,918.0,3406.0,914.0,2197.0,2542.0,1983.0,,,,-0.0679138881802352,-2.36609817228564,0.0491361364558521,,-3.392679086267579,,
,4123.0,917.0,3404.0,912.0,2198.0,2549.0,1998.0,,,,-0.0680578886610834,-2.36642605490656,0.0492139896177076,,-3.345179090040119,,
,4120.0,916.0,3404.0,913.0,2198.0,2544.0,1997.0,,,,-0.0678810644205751,-2.36664812725091,0.0491563074989824,,-3.256361643852657,,
,4122.0,917.0,3405.0,911.0,2192.0,2522.0,1997.0,,,,-0.0681166066672093,-2.36682260652084,0.0491269953277359,,-3.1255377934772874,,
,4123.0,916.0,3405.0,911.0,2179.0,2520.0,1992.0,,,,-0.0682370567457624,-2.36666217925563,0.0489955902548309,,-2.95246609225973,,
,4119.0,917.0,3405.0,910.0,2189.0,2519.0,1996.0,,,,-0.0682779484608838,-2.36720372150948,0.0492058957946379,,-2.737380377922432,,
,4122.0,916.0,3404.0,911.0,2182.0,2523.0,1997.0,,,,-0.0682986513681834,-2.36738853903942,0.0491802481036752,,-2.481007890313679,,
,4123.0,917.0,3408.0,913.0,2181.0,2526.0,2000.0,,,,-0.0683964158069592,-2.3674560808031,0.0491159051149941,,-2.184585568558815,,
,4122.0,919.0,3405.0,912.0,2184.0,2533.0,1990.0,,,,-0.0682909024683541,-2.36817296804537,0.0489745651718237,,-1.8498847805525804,,
,4117.0,916.0,3403.0,911.0,2191.0,2543.0,1989.0,,,,-0.0684999627115986,-2.36820690794288,0.048864317098188,,-1.4792540898418292,,
,4120.0,917.0,3401.0,909.0,2184.0,2530.0,2001.0,,,,-0.0686787565154858,-2.36943216001045,0.0487752178930414,,-1.0756856576012466,,
,4119.0,917.0,3404.0,912.0,2176.0,2534.0,1993.0,,,,-0.0688982499287105,-2.36990370040853,0.048691644526642,,-0.642904575451819,,
,4116.0,916.0,3402.0,911.0,2176.0,2544.0,1995.0,,,,-0.068932016768232,-2.37057998218319,0.0483044494472965,,-0.18547335583490726,,
,4118.0,916.0,3403.0,913.0,2176.0,2544.0,2004.0,,,,-0.0692523012347383,-2.37070450141811,0.0484117491125366,,0.2911028732839867,,
,4121.0,915.0,3404.0,912.0,2183.0,2547.0,1998.0,,,,-0.069387773900433,-2.37194986212862,0.0482746399393505,,0.780290432157552,,
,4119.0,918.0,3404.0,913.0,2188.0,2552.0,2002.0,,,,-0.0696431503916521,-2.37251604149319,0.048201818294428,,1.2744839146976992,,
,4117.0,916.0,3402.0,912.0,2199.0,2529.0,1996.0,,,,-0.0698007208879931,-2.37313394632411,0.048021260875344,,1.7650299778659013,,
,4117.0,918.0,3400.0,911.0,2185.0,2529.0,2005.0,,,,-0.0699972795809838,-2.37375352408567,0.047906549006943,,2.2423395107941966,,
,4115.0,912.0,3398.0,909.0,2181.0,2530.0,2007.0,,,,-0.070194920367362,-2.37429068613155,0.0479390008018865,,2.6961031837567715,,
,4117.0,915.0,3399.0,910.0,2206.0,2529.0,1996.0,,,,-0.0702658825600758,-2.37468817601168,0.0477835602262481,,3.115615747790548,,
,4116.0,916.0,3401.0,911.0,2195.0,2523.0,1989.0,,,,-0.0705527304484536,-2.37543596148178,0.0477368138662062,,3.4902024629098727,,
,4119.0,917.0,3402.0,913.0,2184.0,2538.0,1992.0,,,,-0.070741534564903,-2.37593975131096,0.0474631061744178,,3.8097277680489716,,
,4115.0,915.0,3401.0,910.0,2185.0,2537.0,2003.0,,,,-0.0709978510075533,-2.3766370308495,0.047705736467473,,4.065153023179263,,
,4114.0,915.0,3400.0,909.0,2187.0,2524.0,2001.0,,,,-0.0710076630518529,-2.37717809277436,0.0470752191389757,,4.249098348440981,,
,4115.0,917.0,3400.0,911.0,2199.0,2535.0,1994.0,,,,-0.0710483335572897,-2.37732003022143,0.0471724499098663,,4.356355045341555,,
,4116.0,916.0,3400.0,910.0,2189.0,2554.0,1991.0,,,,-0.0712037696789091,-2.37788748307613,0.0474227579118292,,4.384291817170182,,
,4113.0,915.0,3397.0,909.0,2175.0,2538.0,1992.0,,,,-0.0712662724868987,-2.37776659421279,0.047216948231735,,4.333102012801121,,
,4117.0,918.0,3400.0,911.0,2184.0,2532.0,1997.0,,,,-0.0710332070039932,-2.37826938676233,0.0475558539440303,,4.205851772232577,,
,4114.0,917.0,3399.0,910.0,2185.0,2540.0,1995.0,,,,-0.0711202511560706,-2.37770988732523,0.0472486287261882,,4.0083099260082005,,
,4116.0,916.0,3400.0,912.0,2183.0,2542.0,1990.0,,,,-0.0709561585693582,-2.37734723665687,0.0472197398153684,,3.748567082718929,,
,4115.0,913.0,3398.0,908.0,2198.0,2547.0,2008.0,,,,-0.0710861539871482,-2.37758923444124,0.047204774058722,,3.4364788721013038,,
,4114.0,915.0,3396.0,912.0,2218.0,2549.0,2014.0,,,,-0.070969450409887,-2.37703049876515,0.0471583060537107,,3.0829914630734665,,
,4116.0,916.0,3400.0,912.0,2204.0,2552.0,2002.0,,,,-0.0708075369610709,-2.37690005002603,0.0476484485579399,,2.6994217219188568,,
,4117.0,916.0,3399.0,911.0,2203.0,2552.0,1992.0,,,,-0.0708814694165036,-2.37682528963512,0.0473685129464817,,2.2967672530185483,,
,4115.0,916.0,3400.0,909.0,2192.0,2537.0,2013.0,,,,-0.0707501753405434,-2.37667139972541,0.0472579434110442,,1.8851131957268483,,
,4115.0,916.0,3400.0,910.0,2194.0,2545.0,1998.0,,,,-0.070906311014807,-2.37619128281989,0.0474204293761997,,1.473185358307627,,
,4119.0,916.0,3400.0,913.0,2209.0,2531.0,1990.0,,,,-0.070679366732584,-2.3766218430942,0.0474286464456436,,1.0680767125599884,,
,4118.0,915.0,3403.0,911.0,2204.0,2541.0,1987.0,,,,-0.070700474121618,-2.3762490547859,0.047655329687952,,0.6751505701257114,,
2025-08-20 18:28:10,4119.0,920.0,3399.0,909.0,2185.0,2555.0,1989.0,,,2025/08/20 06:28:10 PM,-0.0706808823967926,-2.37628859451546,0.0472491286004255,,0.29810270036349773,,
,4121.0,917.0,3401.0,912.0,2184.0,2524.0,1998.0,,,,-0.0707702552247137,-2.37649814437881,0.0476217023779411,,-0.06085095944023119,,
,4120.0,918.0,3400.0,912.0,2196.0,2535.0,1992.0,,,,-0.0706877493917018,-2.37600436147363,0.0474482399021595,,-0.4007030025097133,,
,4120.0,919.0,3403.0,913.0,2178.0,2549.0,1990.0,,,,-0.0707172228815749,-2.37671325484259,0.0474451681351155,,-0.7213431507277991,,
,4123.0,920.0,3402.0,912.0,2180.0,2540.0,1986.0,,,,-0.0707850781391881,-2.37656176679948,0.0474207989457966,,-1.0232454677990266,,
,4122.0,919.0,3401.0,909.0,2197.0,2534.0,1980.0,,,,-0.0708085797774184,-2.37688308004828,0.0472861913370269,,-1.3071836019383294,,
,4124.0,920.0,3403.0,913.0,2198.0,2525.0,1991.0,,,,-0.0707177810909508,-2.37666847848642,0.0473485743874282,,-1.5739920083048389,,
,4125.0,920.0,3401.0,912.0,2202.0,2524.0,1989.0,,,,-0.0709473101045207,-2.37647285791066,0.0473984838019344,,-1.824380106784794,,
,4124.0,917.0,3402.0,912.0,2203.0,2533.0,1987.0,,,,-0.0707431246839798,-2.37686075517924,0.0474295157682863,,-2.058797983799021,,
,4125.0,918.0,3401.0,910.0,2186.0,2533.0,2001.0,,,,-0.070740012786866,-2.37739210725223,0.0474665638918122,,-2.2773474721748337,,
,4127.0,919.0,3405.0,912.0,2187.0,2533.0,1999.0,,,,-0.0706733995820574,-2.37719539845969,0.0472707536591275,,-2.4797308018955677,,
,4129.0,921.0,3400.0,914.0,2194.0,2535.0,1995.0,,,,-0.0707568419526602,-2.37698274016753,0.0471828103334732,,-2.665229407538579,,
,4130.0,924.0,3405.0,914.0,2184.0,2539.0,2000.0,,,,-0.0707874416934956,-2.37733146651191,0.0473716285561018,,-2.8327069105454585,,
,4128.0,920.0,3402.0,912.0,2178.0,2542.0,2002.0,,,,-0.0708370467650245,-2.37728945464455,0.0473906295949229,,-2.9806321074439994,,
,4129.0,922.0,3401.0,912.0,2189.0,2551.0,1999.0,,,,-0.0708751107493071,-2.37777275850543,0.047255491126243,,-3.1071195231769497,,
,4133.0,922.0,3406.0,913.0,2211.0,2556.0,1991.0,,,,-0.0709503939530343,-2.377797204917,0.0472478184028722,,-3.209986350808168,,
,4133.0,923.0,3406.0,912.0,2206.0,2563.0,1989.0,,,,-0.0710272102711278,-2.37801138187638,0.047248271243632,,-3.2868251461246794,,
,4132.0,919.0,3405.0,912.0,2191.0,2549.0,2001.0,,,,-0.0709722497713161,-2.37800761817002,0.0471758096739757,,-3.3350914347028304,,
,4133.0,921.0,3407.0,913.0,2178.0,2544.0,1996.0,,,,-0.0709605813014206,-2.37812308713728,0.0471973414091609,,-3.352204564463897,,
,4136.0,924.0,3407.0,916.0,2177.0,2547.0,1987.0,,,,-0.0710378833684971,-2.37749690444303,0.0473486380293535,,-3.3356589444892437,,
,4140.0,924.0,3407.0,916.0,2188.0,2560.0,1990.0,,,,-0.0710137947394647,-2.37787099912629,0.0473429210549827,,-3.283141524337331,,
,4138.0,923.0,3408.0,912.0,2195.0,2555.0,1998.0,,,,-0.0712834465966859,-2.37731630087833,0.0471842679833756,,-3.192650231236324,,
,4138.0,925.0,3410.0,917.0,2191.0,2525.0,2000.0,,,,-0.071191325581238,-2.37808172756714,0.0472185018246386,,-3.0626072558597897,,
,4138.0,926.0,3406.0,915.0,2188.0,2550.0,1992.0,,,,-0.0712977094018351,-2.37814228973381,0.0472819780685043,,-2.8919607081177148,,
,4139.0,924.0,3409.0,915.0,2183.0,2559.0,1992.0,,,,-0.0712011439470182,-2.37844567258482,0.0471624706779546,,-2.6802686257448802,,
,4138.0,923.0,3406.0,914.0,2201.0,2560.0,1994.0,,,,-0.0712301236973961,-2.37795331493001,0.047227290717283,,-2.4277612283390346,,
,4141.0,925.0,3407.0,916.0,2184.0,2541.0,2000.0,,,,-0.0712148751363026,-2.37787885442731,0.0472467657087116,,-2.135380939380244,,
,4141.0,926.0,3411.0,913.0,2192.0,2529.0,1996.0,,,,-0.0711489701702618,-2.37780443418573,0.0473525621389851,,-1.8048042672670646,,
,4143.0,926.0,3410.0,917.0,2195.0,2548.0,1995.0,,,,-0.0709950114051552,-2.37769548487113,0.0476614287406403,,-1.4384534405089089,,
,4145.0,929.0,3411.0,915.0,2195.0,2538.0,1996.0,,,,-0.0708617206188476,-2.37743802085967,0.0473631249790954,,-1.0395070994599698,,
,4144.0,928.0,3411.0,919.0,2190.0,2548.0,1989.0,,,,-0.0709002837527026,-2.37769416578946,0.0473289729773067,,-0.6119176930353548,,
,4148.0,928.0,3413.0,917.0,2187.0,2556.0,1998.0,,,,-0.070810080024475,-2.37708310823497,0.0475464703333432,,-0.16043893992017047,,
,4147.0,930.0,3414.0,918.0,2181.0,2540.0,1995.0,,,,-0.0707817299409909,-2.37722366802282,0.0474530653575578,,0.3093391700621064,,
,4148.0,928.0,3413.0,918.0,2192.0,2531.0,1986.0,,,,-0.0706984464900167,-2.37697263791788,0.0477776163317574,,0.7909566951920166,,
,4149.0,930.0,3411.0,918.0,2187.0,2528.0,1978.0,,,,-0.0706967516445653,-2.37711604503209,0.0475222948536681,,1.2770659833617557,,
,4151.0,930.0,3413.0,919.0,2191.0,2532.0,1985.0,,,,-0.0706926026083562,-2.37687737001322,0.0478604346391045,,1.7594485887186355,,
,4152.0,933.0,3415.0,919.0,2186.0,2525.0,1984.0,,,,-0.0707318102556733,-2.37675800640025,0.0477243079331368,,2.229087226613549,,
,4152.0,930.0,3415.0,921.0,2217.0,2534.0,1995.0,,,,-0.0706589236378598,-2.37646465078742,0.0477573713542745,,2.6763114151088465,,
,4151.0,930.0,3415.0,917.0,2214.0,2548.0,1993.0,,,,-0.070810859051685,-2.37612577956759,0.0478935009712768,,3.091030005733521,,
,4155.0,930.0,3417.0,918.0,2196.0,2556.0,1989.0,,,,-0.0706403009812885,-2.37613454804542,0.0479127025152647,,3.463054839903576,,
,4157.0,933.0,3418.0,920.0,2196.0,2541.0,1989.0,,,,-0.0706245156447218,-2.37647964430416,0.0477339109982559,,3.782508192628024,,
,4159.0,932.0,3420.0,920.0,2192.0,2529.0,1990.0,,,,-0.0706371424267821,-2.37621151579131,0.0478649669629223,,4.040293848992712,,
,4157.0,930.0,3418.0,917.0,2184.0,2519.0,1989.0,,,,-0.0705405149819636,-2.37596538091704,0.0481636080448558,,4.228599097872136,,
,4162.0,931.0,3419.0,922.0,2188.0,2531.0,1988.0,,,,-0.0705756084834962,-2.3761232706443,0.0478396422439843,,4.341384338796582,,
,4165.0,936.0,3420.0,923.0,2206.0,2542.0,1988.0,,,,-0.0706378364029472,-2.37608279828515,0.0481772009965362,,4.374810635252693,,
,4165.0,935.0,3420.0,921.0,2223.0,2540.0,1984.0,,,,-0.0705336949404864,-2.37617077284331,0.0481886062736463,,4.3275558914477505,,
,4163.0,934.0,3422.0,919.0,2204.0,2550.0,1990.0,,,,-0.0706983179201343,-2.37579341503749,0.0480745315340776,,4.200978947599425,,
,4165.0,934.0,3424.0,922.0,2196.0,2559.0,1997.0,,,,-0.0706671389299458,-2.3760657635937,0.0479990072500085,,3.9991073007570024,,
,4170.0,936.0,3423.0,923.0,2202.0,2543.0,2006.0,,,,-0.0707807064046266,-2.37584222542714,0.0479882752531862,,3.7284455262802667,,
,4168.0,935.0,3421.0,922.0,2190.0,2538.0,2003.0,,,,-0.0706889109050672,-2.37614886914384,0.048195947634748,,3.3976233089223884,,
,4167.0,937.0,3420.0,921.0,2204.0,2538.0,1986.0,,,,-0.0706147587140587,-2.37576730520128,0.0480959669095026,,3.0169196387209842,,
,4168.0,936.0,3421.0,922.0,2197.0,2539.0,2000.0,,,,-0.0705465552145638,-2.37584532904647,0.0482994403555041,,2.59771001216406,,
,4169.0,937.0,3423.0,922.0,2199.0,2535.0,1992.0,,,,-0.0704771179521203,-2.37590750249025,0.0484255062513491,,2.1518856186502133,,
,4165.0,933.0,3423.0,921.0,2199.0,2547.0,1996.0,,,,-0.070454608266629,-2.37605181061984,0.0485900333768164,,1.6912888286825758,,
,4159.0,930.0,3418.0,918.0,2208.0,2538.0,2003.0,,,,-0.0702560981996735,-2.37544626828629,0.0483464601898081,,1.2272002718436463,,
,4161.0,931.0,3416.0,917.0,2199.0,2539.0,2002.0,,,,-0.0703682842246456,-2.37529779214326,0.0484644490690201,,0.7699019558877425,,
,4157.0,929.0,3416.0,920.0,2202.0,2534.0,1995.0,,,,-0.0703549020648018,-2.37534624751014,0.0483919211475236,,0.32833046162415636,,
,4153.0,928.0,3415.0,917.0,2198.0,2527.0,1989.0,,,,-0.0702766622540139,-2.37547295978196,0.0485772231231677,,-0.09017404213203083,,
,4152.0,926.0,3409.0,915.0,2200.0,2526.0,1989.0,,,,-0.0703333878762308,-2.37515384206453,0.0483828079063828,,-0.4800226185901306,,
,4148.0,925.0,3409.0,915.0,2192.0,2559.0,1998.0,,,,-0.070190915447225,-2.37498378106008,0.0484049247634191,,-0.8374389117077957,,
,4142.0,925.0,3406.0,917.0,2181.0,2547.0,1991.0,,,,-0.0702218660181952,-2.37421433470923,0.0486156741830347,,-1.160431750974851,,
,4139.0,924.0,3407.0,915.0,2171.0,2555.0,1987.0,,,,-0.0701359800672031,-2.3742266192473,0.0486812260141502,,-1.4486858377114307,,
,4135.0,923.0,3404.0,915.0,2174.0,2575.0,1969.0,,,,-0.0699603571401825,-2.37396944864201,0.0487553025735982,,-1.70337966681728,,
,4135.0,919.0,3403.0,912.0,2203.0,2579.0,1978.0,,,,-0.0699920276186677,-2.37373509193472,0.0488728852391064,,-1.9269420071286738,,
,4131.0,921.0,3399.0,913.0,2217.0,2567.0,1973.0,,,,-0.0699575096040499,-2.37327755812298,0.0486365559287925,,-2.122759945491518,,
,4133.0,920.0,3400.0,912.0,2213.0,2545.0,1978.0,,,,-0.0698899137484376,-2.37302290873596,0.0487821635701986,,-2.2948526494698123,,
,4130.0,920.0,3400.0,910.0,2231.0,2560.0,1985.0,,,,-0.0698637049657757,-2.37261379639078,0.0488229987134231,,-2.4475257519191063,,
,4126.0,920.0,3399.0,911.0,2230.0,2557.0,1972.0,,,,-0.0697719316085475,-2.37269451888414,0.0487744159075483,,-2.5850217792515564,,
,4129.0,923.0,3400.0,912.0,2229.0,2556.0,1967.0,,,,-0.0699898730358252,-2.37263995480826,0.0488664574480005,,-2.7111824765058463,,
,4126.0,923.0,3402.0,912.0,2231.0,2546.0,1975.0,,,,-0.0698580644198998,-2.37245002764479,0.0489197388155028,,-2.829139294478861,,
,4128.0,921.0,3398.0,912.0,2232.0,2548.0,1976.0,,,,-0.0696746572674457,-2.37205213996888,0.0488701488097834,,-2.9410486332989842,,
,4128.0,920.0,3398.0,911.0,2215.0,2544.0,1979.0,,,,-0.0696718510357953,-2.37170386107924,0.0490698413017962,,-3.0478884121419267,,
,4126.0,921.0,3398.0,911.0,2224.0,2538.0,1998.0,,,,-0.0694510211882921,-2.37178753162964,0.0491464997139201,,-3.149331645632912,,
,4126.0,921.0,3397.0,912.0,2201.0,2535.0,1997.0,,,,-0.0697297618776943,-2.37157971299859,0.0490570000559788,,-3.2437102723496554,,
,4126.0,921.0,3400.0,912.0,2195.0,2537.0,1988.0,,,,-0.0695693927806159,-2.37195177903118,0.0490397663264807,,-3.3280778340391257,,
,4124.0,918.0,3395.0,909.0,2191.0,2518.0,1983.0,,,,-0.0696150644486192,-2.37227711292705,0.0491694139939863,,-3.3983724510474085,,
,4123.0,919.0,3396.0,912.0,2182.0,2519.0,1985.0,,,,-0.0699166357102082,-2.37245819678103,0.0490747353693364,,-3.449672421628456,,
,4128.0,923.0,3395.0,911.0,2205.0,2525.0,1993.0,,,,-0.0698683096905285,-2.37338132785278,0.0490630021026114,,-3.4765271829202344,,
,4123.0,919.0,3395.0,911.0,2196.0,2516.0,1997.0,,,,-0.0697925970319834,-2.3729178830824,0.0488504051904034,,-3.4733381207396548,,
,4124.0,918.0,3398.0,911.0,2195.0,2507.0,1995.0,,,,-0.069814035605792,-2.37294834540927,0.0488813158103552,,-3.4347580465069623,,
,4123.0,920.0,3397.0,912.0,2222.0,2522.0,1987.0,,,,-0.0699821407633863,-2.37286371921663,0.0489589972096862,,-3.3560755137905227,,
,4124.0,924.0,3398.0,911.0,2224.0,2518.0,1987.0,,,,-0.070068241003923,-2.37330863079373,0.0488736395806466,,-3.2335506597966646,,
,4124.0,922.0,3395.0,912.0,2216.0,2515.0,1990.0,,,,-0.0701724801739557,-2.37331947808205,0.0487453074639842,,-3.064673230458206,,
,4123.0,917.0,3395.0,911.0,2230.0,2544.0,1989.0,,,,-0.0703770592226472,-2.37345946500981,0.0487964312206935,,-2.848321258487959,,
,4121.0,920.0,3392.0,910.0,2215.0,2530.0,1978.0,,,,-0.0703078654738312,-2.3740178720459,0.0486837678594349,,-2.584810433229269,,
,4123.0,919.0,3395.0,911.0,2217.0,2513.0,1989.0,,,,-0.0702716247294812,-2.37380684267516,0.0486820326358403,,-2.2758384684729664,,
,4121.0,920.0,3395.0,909.0,2209.0,2522.0,1997.0,,,,-0.0704765876763871,-2.37396482905954,0.0484884466642789,,-1.9243435374043374,,
,4118.0,918.0,3393.0,907.0,2219.0,2523.0,1992.0,,,,-0.0703466993608721,-2.37394802494656,0.0483792563238873,,-1.5343081312290259,,
,4121.0,916.0,3393.0,910.0,2203.0,2531.0,1992.0,,,,-0.0703574121359092,-2.37360468313345,0.0485867788240404,,-1.1105466173480676,,
,4118.0,918.0,3392.0,909.0,2220.0,2523.0,1989.0,,,,-0.0701438188426504,-2.37359297126245,0.0485328940164376,,-0.6585145019713862,,
,4118.0,919.0,3392.0,909.0,2224.0,2525.0,1987.0,,,,-0.0702826265947827,-2.37355988430801,0.048601083439302,,-0.1841698082938144,,
,4120.0,920.0,3391.0,910.0,2240.0,2520.0,1992.0,,,,-0.0703467633639108,-2.37259403107316,0.0488312790293463,,0.3060964759244021,,
,4119.0,916.0,3389.0,909.0,2251.0,2516.0,1989.0,,,,-0.0699512717106109,-2.37262009572822,0.0488875377369184,,0.8054608074795199,,
,4118.0,915.0,3392.0,910.0,2233.0,2519.0,1990.0,,,,-0.0699030464144708,-2.37210516796647,0.0488717217064192,,1.3066156736818628,,
,4118.0,918.0,3394.0,911.0,2225.0,2511.0,1992.0,,,,-0.0700363887816799,-2.37146632823911,0.0492600898895711,,1.8016984310306452,,
,4117.0,918.0,3391.0,909.0,2225.0,2495.0,1982.0,,,,-0.0699143389956703,-2.37134402640776,0.0491221069473139,,2.282241630534308,,
,4115.0,918.0,3387.0,907.0,2220.0,2510.0,1977.0,,,,-0.0697857190578953,-2.37116414559318,0.0489865941751044,,2.739187700371561,,
,4116.0,917.0,3390.0,909.0,2252.0,2519.0,1980.0,,,,-0.069740410484981,-2.3706338114923,0.0491675178678939,,3.1630046356141643,,
,4117.0,921.0,3390.0,910.0,2235.0,2508.0,1980.0,,,,-0.0694318690111569,-2.37021739122648,0.0489699853197559,,3.5439262595438716,,
,4115.0,917.0,3390.0,909.0,2231.0,2514.0,1981.0,,,,-0.0692995787181288,-2.37029775026272,0.0494512096757056,,3.8723224109825867,,
,4117.0,919.0,3390.0,910.0,2222.0,2493.0,1976.0,,,,-0.0691493797619305,-2.37017493610801,0.0492730888507155,,4.139183290445643,,
,4117.0,919.0,3390.0,910.0,2227.0,2504.0,1972.0,,,,-0.0692313890139887,-2.37024827948666,0.0492292886959414,,4.336680858802344,,
,4119.0,921.0,3393.0,910.0,2240.0,2506.0,1983.0,,,,-0.0690307501443517,-2.36967928020196,0.0491313205090809,,4.458751730495458,,
,4118.0,918.0,3391.0,909.0,2233.0,2508.0,1991.0,,,,-0.0689828689719102,-2.36948800146655,0.0495005647493693,,4.501633644690345,,
,4116.0,920.0,3390.0,906.0,2246.0,2499.0,1996.0,,,,-0.0691127648684848,-2.36925793752425,0.0492944087366303,,4.464284118327947,,
,4118.0,920.0,3391.0,911.0,2217.0,2506.0,1986.0,,,,-0.069203243729243,-2.36922674536545,0.0492992479820187,,4.3486170602133525,,
,4119.0,920.0,3391.0,910.0,2224.0,2507.0,1976.0,,,,-0.0692957774565807,-2.36911239471209,0.0493794505730817,,4.15951118302637,,
,4119.0,920.0,3390.0,910.0,2236.0,2510.0,1980.0,,,,-0.0692342859860792,-2.36911506504448,0.0493693194581877,,3.9045712167021214,,
,4119.0,920.0,3393.0,910.0,2240.0,2517.0,1990.0,,,,-0.0691245869264284,-2.36900122446621,0.0494846894412974,,3.5936552308417475,,
,4122.0,920.0,3394.0,909.0,2244.0,2518.0,1989.0,,,,-0.0688847844156685,-2.36899297091821,0.0493978533222939,,3.238213159722869,,
,4121.0,922.0,3394.0,910.0,2251.0,2524.0,1986.0,,,,-0.0692139348313084,-2.36919245097563,0.0495231778975085,,2.8505068884434457,,
,4124.0,921.0,3394.0,910.0,2234.0,2524.0,1981.0,,,,-0.0691795642999612,-2.36890299081141,0.0493734604227378,,2.442796280361931,,
,4124.0,922.0,3393.0,910.0,2218.0,2532.0,1987.0,,,,-0.0692539064050186,-2.36898664512734,0.0493619539293603,,2.0265761602466528,,
,4122.0,925.0,3394.0,911.0,2240.0,2528.0,1989.0,,,,-0.0689969069829405,-2.36916561194543,0.0494476992838773,,1.6119374931520547,,
,4125.0,924.0,3397.0,911.0,2232.0,2515.0,1993.0,,,,-0.0689983027631049,-2.36875424725241,0.0493622357917853,,1.2071053728996703,,
,4124.0,922.0,3393.0,911.0,2235.0,2524.0,1989.0,,,,-0.0690522493111,-2.36865610370126,0.0495838122852294,,0.8181816392904745,,
,4126.0,923.0,3396.0,912.0,2211.0,2536.0,1987.0,,,,-0.06890874358187,-2.36836659039408,0.0494850764311483,,0.4490952912191272,,
,4127.0,921.0,3397.0,911.0,2217.0,2529.0,1993.0,,,,-0.0688189121907872,-2.36879494183422,0.0494224377584186,,0.10174249622083678,,
,4129.0,923.0,3396.0,911.0,2221.0,2525.0,1994.0,,,,-0.0688202653861542,-2.36808034088489,0.0495346570965029,,-0.22371820059779493,,
,4128.0,924.0,3395.0,910.0,2232.0,2537.0,1986.0,,,,-0.068788168973527,-2.36847516535235,0.0494737659422247,,-0.5284600707380672,,
,4129.0,924.0,3393.0,910.0,2243.0,2541.0,2001.0,,,,-0.068960886564437,-2.36815997630469,0.0493058122549408,,-0.8145206524596438,,
,4130.0,924.0,3396.0,912.0,2242.0,2536.0,1978.0,,,,-0.0689533906313516,-2.36790513720134,0.049519126027915,,-1.0843203362172544,,
,4135.0,926.0,3396.0,913.0,2239.0,2539.0,1983.0,,,,-0.0691209566375195,-2.36805211862347,0.0494828834023283,,-1.3402099835595125,,
,4131.0,925.0,3398.0,910.0,2220.0,2539.0,1985.0,,,,-0.0689673340251414,-2.36800577704062,0.0493621583296081,,-1.5840828572823586,,
,4135.0,925.0,3398.0,915.0,2232.0,2532.0,1984.0,,,,-0.0690353416209884,-2.3677198868809,0.049464601325502,,-1.8170770060805046,,
,4132.0,924.0,3397.0,910.0,2251.0,2526.0,1971.0,,,,-0.0690843230029559,-2.36795954909886,0.0496097328308351,,-2.0393842671547833,,
,4133.0,925.0,3398.0,912.0,2252.0,2524.0,1972.0,,,,-0.068833948734369,-2.36746672186511,0.0493473799780883,,-2.2501716113316355,,
,4134.0,927.0,3396.0,911.0,2258.0,2532.0,1983.0,,,,-0.0687128567743931,-2.36752416128699,0.0496078025053354,,-2.447610246632379,,
2025-08-20 18:28:11,4136.0,925.0,3398.0,912.0,2235.0,2540.0,1977.0,,,2025/08/20 06:28:11 PM,-0.0687634245954487,-2.36727180025135,0.049530589939954,,-2.6289988650359803,,
,4136.0,926.0,3401.0,912.0,2294.0,2558.0,1980.0,,,,-0.068656002934737,-2.36706212101297,0.0492926731358719,,-2.7909610110780783,,
,4137.0,928.0,3401.0,912.0,2276.0,2527.0,1986.0,,,,-0.0686890392178199,-2.36714231287208,0.0496343556569921,,-2.9296933776201013,,
,4140.0,927.0,3403.0,916.0,2281.0,2537.0,1993.0,,,,-0.0684585242064212,-2.36715984388896,0.0494820204446313,,-3.0412413252768205,,
,4141.0,929.0,3404.0,917.0,2276.0,2537.0,1986.0,,,,-0.0683539413613094,-2.36641139084278,0.0494298016806546,,-3.1217789742612014,,
,4140.0,927.0,3402.0,912.0,2254.0,2521.0,1965.0,,,,-0.0684388378124348,-2.3669391698893,0.0493879519565007,,-3.167873053539993,,
,4141.0,928.0,3401.0,912.0,2235.0,2513.0,1975.0,,,,-0.0684761226533779,-2.36644015465609,0.0494605761769145,,-3.17671205890565,,
,4142.0,929.0,3405.0,917.0,2244.0,2548.0,1974.0,,,,-0.0683327245907409,-2.36680785719318,0.0496419711463786,,-3.146285180825468,,
,4145.0,930.0,3406.0,914.0,2250.0,2536.0,1969.0,,,,-0.0683062049217601,-2.36670798910877,0.0496390377585795,,-3.0754990135916,,
,4145.0,930.0,3405.0,913.0,2246.0,2529.0,1975.0,,,,-0.0681881630065648,-2.36624534449117,0.0496333834241073,,-2.9642244450617525,,
,4145.0,930.0,3407.0,914.0,2244.0,2550.0,1981.0,,,,-0.068160900326362,-2.36611181318137,0.0497730605454964,,-2.8132716446919397,,
,4149.0,932.0,3407.0,915.0,2225.0,2516.0,1990.0,,,,-0.0679968727435265,-2.3657705053828,0.0494704256064229,,-2.624297893614894,,
,4147.0,931.0,3406.0,916.0,2228.0,2532.0,1993.0,,,,-0.0681149831071084,-2.36606563501286,0.0496485190568799,,-2.399660787195591,,
,4150.0,931.0,3405.0,914.0,2230.0,2538.0,1978.0,,,,-0.0682048355459572,-2.36619551063276,0.0498612427295169,,-2.1422369189649975,,
,4152.0,930.0,3407.0,915.0,2215.0,2526.0,1962.0,,,,-0.0680662515729459,-2.36590079999006,0.0499092983679125,,-1.8552316563972961,,
,4152.0,932.0,3409.0,916.0,2229.0,2540.0,1972.0,,,,-0.0680399005067384,-2.36524033439819,0.0497332835246609,,-1.5420071282731915,,
,4151.0,932.0,3406.0,916.0,2246.0,2554.0,1975.0,,,,-0.0680212844117495,-2.36504968843882,0.0498235893931079,,-1.2059521107827447,,
,4149.0,931.0,3407.0,918.0,2235.0,2547.0,1975.0,,,,-0.0678538716019885,-2.36556184569452,0.0498560225334044,,-0.8504098660449126,,
,4152.0,932.0,3408.0,914.0,2216.0,2527.0,1964.0,,,,-0.0680879305087538,-2.3647408737599,0.0498009394039955,,-0.4786702578725973,,
,4154.0,932.0,3408.0,916.0,2217.0,2518.0,1965.0,,,,-0.0681326627948803,-2.36456764524488,0.0500121552942028,,-0.09402286998780648,,
,4156.0,934.0,3407.0,919.0,2225.0,2520.0,1965.0,,,,-0.0679734045987738,-2.36510923429468,0.0498938161191076,,0.300140305602143,,
,4157.0,933.0,3407.0,918.0,2242.0,2520.0,1985.0,,,,-0.0679563513233464,-2.36470113232197,0.049991855421537,,0.7001903497196251,,
,4157.0,934.0,3409.0,918.0,2244.0,2517.0,1981.0,,,,-0.0679970926474629,-2.36469100151855,0.0500581236347784,,1.102117127312479,,
,4158.0,932.0,3410.0,920.0,2242.0,2529.0,1981.0,,,,-0.0679141631955572,-2.36434029268541,0.0499779389455133,,1.501399387743952,,
,4162.0,934.0,3412.0,918.0,2235.0,2539.0,1980.0,,,,-0.0676355925159441,-2.36428600947886,0.0499271875329466,,1.8929130575068855,,
,4162.0,935.0,3413.0,920.0,2233.0,2543.0,1966.0,,,,-0.067564672363258,-2.36392743503959,0.050160728111736,,2.2708987009856525,,
,4162.0,932.0,3408.0,919.0,2220.0,2522.0,1984.0,,,,-0.0676513468696848,-2.36394694339901,0.0500469345550213,,2.6290040549368676,,
,4162.0,936.0,3411.0,918.0,2241.0,2521.0,1996.0,,,,-0.0675647565386622,-2.36393660161354,0.0500749443431537,,2.9604106078290098,,
,4167.0,936.0,3412.0,920.0,2217.0,2536.0,1984.0,,,,-0.0676279520319895,-2.36364619577249,0.049847799816792,,3.2580448185281883,,
,4165.0,937.0,3415.0,920.0,2218.0,2532.0,1991.0,,,,-0.0676260734057415,-2.36406683784815,0.0500234823487141,,3.5148652291360847,,
,4163.0,936.0,3411.0,918.0,2247.0,2536.0,1987.0,,,,-0.0676428772722346,-2.36408301601612,0.0500153611522518,,3.724207088330424,,
,4162.0,936.0,3410.0,918.0,2222.0,2534.0,1975.0,,,,-0.0675894285039418,-2.36375028372595,0.0499982830874742,,3.8801571810073465,,
,4164.0,936.0,3413.0,919.0,2217.0,2540.0,1968.0,,,,-0.0678173936149319,-2.36394114845731,0.0500734254442477,,3.9779247984553825,,
,4163.0,934.0,3412.0,918.0,2216.0,2541.0,1970.0,,,,-0.0677500928872801,-2.36344654877395,0.0500646815374401,,4.014171763796952,,
,4158.0,931.0,3406.0,918.0,2228.0,2526.0,1971.0,,,,-0.0677939061496234,-2.36345855739956,0.0501345585014726,,3.987266200973898,,
,4156.0,932.0,3406.0,918.0,2247.0,2533.0,1979.0,,,,-0.0676659031576772,-2.36299245813792,0.0502218002953752,,3.8974313475224385,,
,4155.0,931.0,3403.0,916.0,2229.0,2520.0,1974.0,,,,-0.0676064686173831,-2.36336385609532,0.0502631987883579,,3.7467714216727885,,
,4149.0,929.0,3402.0,916.0,2217.0,2523.0,1976.0,,,,-0.0677032811737321,-2.36328854813708,0.0502353485966647,,3.5391702321533454,,
,4145.0,926.0,3399.0,913.0,2236.0,2506.0,1979.0,,,,-0.0675451212374169,-2.36338162825972,0.0500491538245751,,3.280073212541436,,
,4143.0,926.0,3398.0,914.0,2243.0,2525.0,1978.0,,,,-0.0675985694981621,-2.36343006018736,0.0502214431641991,,2.9761774251159934,,
,4140.0,924.0,3396.0,913.0,2220.0,2543.0,1982.0,,,,-0.0675001313106466,-2.36339649445865,0.0503151088396777,,2.635063997720963,,
,4138.0,924.0,3394.0,910.0,2222.0,2552.0,1981.0,,,,-0.067512471843016,-2.36342551032722,0.0500021679537767,,2.264811329987117,,
,4133.0,925.0,3393.0,911.0,2240.0,2556.0,1988.0,,,,-0.0675020627244277,-2.36290425509621,0.0503788674871099,,1.8736247558720351,,
,4132.0,920.0,3389.0,908.0,2243.0,2568.0,1980.0,,,,-0.0675454166408231,-2.36314406674683,0.0503471346867971,,1.469510430600409,,
,4130.0,923.0,3391.0,910.0,2251.0,2556.0,1976.0,,,,-0.0674236130024507,-2.36286072624891,0.050369571532154,,1.0600103459151038,,
,4127.0,921.0,3389.0,908.0,2249.0,2541.0,1982.0,,,,-0.0676033220735399,-2.36342263756871,0.050446006058636,,0.6520041125299971,,
,4126.0,918.0,3389.0,909.0,2275.0,2541.0,1987.0,,,,-0.0675471040551285,-2.36289617029874,0.050350430439901,,0.251573689039406,,
,4124.0,921.0,3387.0,911.0,2255.0,2538.0,1981.0,,,,-0.067656568242124,-2.3633779308364,0.050318073574337,,-0.13607883835896697,,
,4125.0,921.0,3386.0,908.0,2230.0,2541.0,1978.0,,,,-0.0676506496110883,-2.36341867657209,0.0501069008488738,,-0.5066722824873277,,
,4125.0,921.0,3384.0,908.0,2230.0,2548.0,1984.0,,,,-0.0678924624039557,-2.36358543996629,0.0501141498742645,,-0.8568561678744148,,
,4125.0,919.0,3384.0,906.0,2225.0,2531.0,1979.0,,,,-0.0678356424102701,-2.36409806226766,0.0501380978003428,,-1.1841948765997523,,
,4122.0,919.0,3383.0,905.0,2206.0,2543.0,1983.0,,,,-0.0679501028547254,-2.36447157128639,0.0499852216149638,,-1.4871267504996328,,
,4124.0,922.0,3386.0,909.0,2215.0,2528.0,1993.0,,,,-0.06815937109113,-2.36522694363483,0.0499590589031833,,-1.7648955347874749,,
,4124.0,921.0,3383.0,911.0,2211.0,2520.0,1993.0,,,,-0.0682676475114275,-2.36538204484437,0.0497385001520435,,-2.01745129495975,,
,4123.0,923.0,3384.0,908.0,2210.0,2521.0,1983.0,,,,-0.0685116518366418,-2.36595220434357,0.0499287709611942,,-2.245320501948315,,
,4121.0,918.0,3382.0,906.0,2206.0,2499.0,1975.0,,,,-0.0685154257608766,-2.36616116284411,0.049756273232437,,-2.4494490958217545,,
,4121.0,919.0,3384.0,908.0,2216.0,2512.0,1975.0,,,,-0.0687728041646656,-2.36657874434308,0.049522975570958,,-2.6310265786118983,,
,4122.0,921.0,3383.0,907.0,2220.0,2526.0,1981.0,,,,-0.0689078774527059,-2.36663296113042,0.0495019205432061,,-2.7913025903643987,,
,4123.0,920.0,3382.0,908.0,2220.0,2524.0,1987.0,,,,-0.0690416512259944,-2.36714705885757,0.0493367471818417,,-2.931409531926962,,
,4120.0,919.0,3379.0,907.0,2213.0,2518.0,1985.0,,,,-0.0690102743162044,-2.36755819095438,0.0494538063159807,,-3.052205453121967,,
,4122.0,921.0,3381.0,907.0,2226.0,2516.0,1983.0,,,,-0.0690258797218429,-2.36767224968411,0.0492013236424804,,-3.1541506205049044,,
,4121.0,918.0,3381.0,907.0,2220.0,2506.0,1984.0,,,,-0.0690419867947249,-2.36817288243902,0.04911865147305,,-3.2372290130451793,,
,4123.0,920.0,3381.0,908.0,2207.0,2515.0,1987.0,,,,-0.0691402778404258,-2.36810422884833,0.0493761773680134,,-3.300922644099435,,
,4120.0,920.0,3381.0,907.0,2236.0,2520.0,1979.0,,,,-0.0690300949743708,-2.36814675534298,0.0491357256844321,,-3.3442423040394798,,
,4121.0,921.0,3383.0,907.0,2232.0,2536.0,1982.0,,,,-0.0691107614095169,-2.36820627740763,0.0494704324916252,,-3.3658133170606006,,
,4123.0,920.0,3384.0,909.0,2227.0,2533.0,1992.0,,,,-0.0689410381114789,-2.3677061458458,0.0491370355734443,,-3.364009474707102,,
,4121.0,920.0,3382.0,909.0,2243.0,2513.0,1989.0,,,,-0.0689184465442063,-2.36766518545751,0.0494572885026945,,-3.337122727684471,,
,4120.0,917.0,3379.0,907.0,2241.0,2508.0,1986.0,,,,-0.0687623318140283,-2.36717008878552,0.0494131542607197,,-3.2835508872675576,,
,4118.0,916.0,3379.0,906.0,2233.0,2492.0,1965.0,,,,-0.0686024219280292,-2.36715756919927,0.0493022012658936,,-3.2019812982195828,,
,4120.0,919.0,3378.0,907.0,2255.0,2506.0,1977.0,,,,-0.0685870306212904,-2.36686562900726,0.0494256316195727,,-3.0915465405693485,,
,4116.0,917.0,3377.0,908.0,2252.0,2507.0,1979.0,,,,-0.0685052120459968,-2.36681970729711,0.049618793929031,,-2.9519301792769794,,
,4115.0,917.0,3376.0,906.0,2234.0,2517.0,1989.0,,,,-0.0685367859775871,-2.36606769846114,0.0495676475987351,,-2.7834070974057754,,
,4116.0,918.0,3377.0,908.0,2226.0,2524.0,1987.0,,,,-0.0683494975078286,-2.36590293398887,0.0496065495230255,,-2.5868132526988097,,
,4117.0,915.0,3375.0,904.0,2244.0,2524.0,1971.0,,,,-0.0682519247749458,-2.36511009063192,0.0496193060193975,,-2.363451740881346,,
,4115.0,917.0,3374.0,903.0,2246.0,2532.0,1978.0,,,,-0.068408370279794,-2.36477708209939,0.0494349466018658,,-2.114953294233224,,
,4115.0,916.0,3376.0,903.0,2221.0,2516.0,1976.0,,,,-0.0683151159124067,-2.36491896279191,0.049729081830293,,-1.8431176039657955,,
,4115.0,917.0,3375.0,905.0,2215.0,2534.0,1981.0,,,,-0.0680879046155201,-2.36467425177803,0.0494274733793885,,-1.5497657776728953,,
,4115.0,918.0,3378.0,906.0,2198.0,2534.0,1989.0,,,,-0.0681331462388381,-2.36496765682304,0.0499460448081423,,-1.2366333788637245,,
,4117.0,920.0,3378.0,908.0,2190.0,2524.0,1982.0,,,,-0.0680457711368765,-2.36471670346927,0.0497324451901593,,-0.9053281420003711,,
,4116.0,917.0,3376.0,905.0,2187.0,2542.0,1987.0,,,,-0.068075461039645,-2.3643397730578,0.0497991400082245,,-0.5573674604017143,,
,4115.0,916.0,3373.0,904.0,2211.0,2537.0,1985.0,,,,-0.0681088275944774,-2.36417196063296,0.0497915346982001,,-0.19429929585253372,,
,4119.0,919.0,3378.0,906.0,2213.0,2526.0,1988.0,,,,-0.0680188618044088,-2.36444870989871,0.0498386890987223,,0.18210240020690277,,
,4115.0,917.0,3379.0,908.0,2210.0,2538.0,1992.0,,,,-0.0679314741689807,-2.36382301811501,0.0497886597595604,,0.569588971411684,,
,4119.0,919.0,3379.0,906.0,2224.0,2528.0,1984.0,,,,-0.0679820521467994,-2.36345468708863,0.0499438445491586,,0.9651670154257834,,
,4117.0,916.0,3380.0,906.0,2216.0,2524.0,1990.0,,,,-0.0679021447990128,-2.36374681818058,0.049655564479258,,1.3648469233048812,,
,4121.0,920.0,3378.0,908.0,2240.0,2519.0,1977.0,,,,-0.0679502458025096,-2.36333218448495,0.0497354458045797,,1.7634536965180636,,
,4119.0,919.0,3379.0,908.0,2219.0,2544.0,1988.0,,,,-0.0678293537406525,-2.36331254032294,0.0499184321491003,,2.1545419966344035,,
,4120.0,918.0,3376.0,907.0,2207.0,2530.0,1993.0,,,,-0.0680181395621333,-2.3636035498818,0.0497744609920886,,2.5304491910427687,,
,4119.0,918.0,3377.0,908.0,2212.0,2533.0,1988.0,,,,-0.0679947205118168,-2.36379400764307,0.0498794602310521,,2.8825057880736864,,
,4120.0,920.0,3376.0,907.0,2220.0,2537.0,1979.0,,,,-0.0679505756984066,-2.36348094487208,0.0500619456548034,,3.201403749021312,,
,4121.0,921.0,3380.0,911.0,2224.0,2543.0,1982.0,,,,-0.06797657323114,-2.36409667534735,0.0499006594418723,,3.477702277989145,,
,4121.0,920.0,3383.0,907.0,2222.0,2538.0,1982.0,,,,-0.067821203109025,-2.36391064572883,0.0498842256234489,,3.7024307208588345,,
,4121.0,920.0,3378.0,907.0,2208.0,2506.0,1979.0,,,,-0.0679932656712226,-2.36368711039333,0.0499122642821559,,3.8677320099239245,,
,4125.0,921.0,3379.0,907.0,2212.0,2513.0,1982.0,,,,-0.0679865786908396,-2.36365957222568,0.0499438943042019,,3.9674801664566446,,
,4125.0,921.0,3379.0,909.0,2203.0,2516.0,1993.0,,,,-0.0679404931241092,-2.36311161365914,0.0499295908918451,,3.9978034910350044,,
,4124.0,920.0,3380.0,908.0,2209.0,2537.0,1990.0,,,,-0.0679072522794005,-2.36312930050556,0.049829359839865,,3.9574519434182847,,
,4122.0,921.0,3374.0,906.0,2211.0,2540.0,1980.0,,,,-0.067743491608508,-2.36335371158456,0.0499364109170862,,3.8479622963164344,,
,4126.0,919.0,3380.0,906.0,2209.0,2534.0,1980.0,,,,-0.0676538160687275,-2.36276714038687,0.0499257811977532,,3.673596188512551,,
,4127.0,923.0,3381.0,908.0,2202.0,2524.0,1974.0,,,,-0.0676240309293862,-2.3627379670637,0.0498564693825592,,3.441051539756168,,
,4129.0,923.0,3380.0,908.0,2208.0,2517.0,1975.0,,,,-0.0677226439100055,-2.36315472811474,0.049958083024411,,3.1589737503415782,,
,4127.0,923.0,3382.0,910.0,2220.0,2534.0,1971.0,,,,-0.0680076815681782,-2.36298708935534,0.0498976268016334,,2.837316371696473,,
,4130.0,922.0,3379.0,909.0,2211.0,2512.0,1984.0,,,,-0.0678055393424607,-2.36291461816015,0.0501018630617492,,2.486618320512426,,
,4130.0,923.0,3383.0,912.0,2212.0,2526.0,1987.0,,,,-0.0677533087866635,-2.36330501914432,0.0500305003236204,,2.117273532853335,,
,4132.0,923.0,3383.0,910.0,2208.0,2523.0,1983.0,,,,-0.0678597163614632,-2.36322228240663,0.0500442416810908,,1.7388676555190736,,
,4130.0,921.0,3383.0,909.0,2234.0,2523.0,1983.0,,,,-0.0679677375481395,-2.36326567398783,0.0498048053795753,,1.359645213736477,,
,4132.0,923.0,3381.0,909.0,2206.0,2524.0,1966.0,,,,-0.0681024088593628,-2.36308738814414,0.049946827060171,,0.986151868644199,,
,4135.0,924.0,3383.0,911.0,2202.0,2534.0,1978.0,,,,-0.0678044624619341,-2.36264411123753,0.0502196994793906,,0.6230732684349831,,
,4135.0,924.0,3384.0,909.0,2223.0,2538.0,1980.0,,,,-0.0677483762825174,-2.36304899007186,0.0499159533511054,,0.2732682101843164,,
,4139.0,925.0,3385.0,913.0,2230.0,2519.0,1975.0,,,,-0.0677418934668847,-2.36303843831258,0.0499896981291789,,-0.06202742312421062,,
,4137.0,924.0,3385.0,910.0,2218.0,2515.0,1983.0,,,,-0.0679527432167175,-2.36261709135153,0.0500926276437246,,-0.3828657281464543,,
,4139.0,926.0,3387.0,913.0,2217.0,2514.0,1979.0,,,,-0.067946816503836,-2.36283206696244,0.0500446991993643,,-0.6901703760456317,,
,4141.0,926.0,3386.0,911.0,2241.0,2513.0,1988.0,,,,-0.0673878830866885,-2.36289234768668,0.0500407875936629,,-0.9852911119618378,,
,4140.0,928.0,3387.0,911.0,2241.0,2525.0,2004.0,,,,-0.067249048237219,-2.36294741251009,0.0501571286827922,,-1.2695780308590678,,
,4141.0,924.0,3388.0,912.0,2207.0,2541.0,1989.0,,,,-0.0675139458914076,-2.36218115203012,0.0503039843546061,,-1.544015963303494,,
,4143.0,927.0,3386.0,913.0,2215.0,2549.0,1994.0,,,,-0.0676274589247175,-2.36195336666561,0.0503603273055415,,-1.8089475623364455,,
,4144.0,925.0,3388.0,911.0,2225.0,2523.0,1987.0,,,,-0.0674507967143424,-2.36191663567158,0.0503237133374739,,-2.063900667937308,,
,4144.0,927.0,3388.0,913.0,2238.0,2530.0,1981.0,,,,-0.0674904935826144,-2.36181629347803,0.050098556329837,,-2.3075228393563116,,
,4144.0,924.0,3387.0,911.0,2215.0,2545.0,1984.0,,,,-0.0673486241362434,-2.3615028167809,0.0501476742312951,,-2.537614727720998,,
,4147.0,926.0,3390.0,912.0,2207.0,2525.0,1997.0,,,,-0.0673828347203116,-2.36124999771299,0.0503068685150996,,-2.751245161379933,,
,4147.0,926.0,3391.0,913.0,2218.0,2533.0,1995.0,,,,-0.0670399690932485,-2.36140662068365,0.0502742124005099,,-2.944925413369768,,
,4148.0,926.0,3391.0,913.0,2236.0,2537.0,1992.0,,,,-0.0671024721656742,-2.36151198633953,0.0505422859570691,,-3.114818745341193,,
,4147.0,929.0,3389.0,913.0,2224.0,2543.0,1994.0,,,,-0.0670796421243437,-2.3614432539624,0.0501265881836531,,-3.2569635795543137,,
,4150.0,931.0,3392.0,914.0,2206.0,2526.0,1991.0,,,,-0.0672772984554103,-2.36152754548544,0.0504575727266555,,-3.367493074571882,,
,4152.0,928.0,3392.0,915.0,2213.0,2515.0,1983.0,,,,-0.0671075420373731,-2.36155264661488,0.0503951577118324,,-3.4428387281495647,,
,4153.0,928.0,3394.0,916.0,2201.0,2525.0,1979.0,,,,-0.067140711483502,-2.36084364888764,0.0503220003259512,,-3.4799096757504677,,
,4153.0,928.0,3392.0,913.0,2201.0,2527.0,1996.0,,,,-0.0671441215847104,-2.36086925572261,0.0503991494421327,,-3.476242067596429,,
,4156.0,928.0,3394.0,914.0,2223.0,2510.0,1993.0,,,,-0.0670965445444286,-2.36049987416536,0.0505773850900483,,-3.430114273119997,,
,4157.0,931.0,3395.0,916.0,2218.0,2524.0,1990.0,,,,-0.0669553832363016,-2.36105589350566,0.0503606598909045,,-3.340624018700079,,
2025-08-20 18:28:12,4157.0,932.0,3397.0,917.0,2216.0,2522.0,1980.0,,,2025/08/20 06:28:12 PM,-0.0670242131550425,-2.3616984181948,0.0504378143695767,,-3.2077235639228534,,
,4157.0,930.0,3398.0,917.0,2209.0,2524.0,1981.0,,,,-0.0670756203677081,-2.36085142520566,0.0503918638980904,,-3.0322095654812937,,
,4159.0,931.0,3396.0,915.0,2222.0,2536.0,1992.0,,,,-0.0669312888901488,-2.36086638918638,0.0503638245979839,,-2.8156663205097137,,
,4159.0,932.0,3398.0,917.0,2234.0,2528.0,1999.0,,,,-0.0668755058659545,-2.36083303682332,0.0503993403311377,,-2.560365206625427,,
,4162.0,932.0,3396.0,916.0,2220.0,2532.0,2002.0,,,,-0.0668963531082985,-2.36082146755394,0.0506120027852284,,-2.26912900898293,,
,4158.0,931.0,3396.0,917.0,2217.0,2522.0,1993.0,,,,-0.066842592377055,-2.3606774310283,0.0505245625395873,,-1.9451759621423435,,
,4157.0,929.0,3396.0,914.0,2207.0,2515.0,1985.0,,,,-0.0669951036123684,-2.35996264696463,0.0505274124257197,,-1.5919627159098813,,
,4157.0,930.0,3395.0,915.0,2215.0,2517.0,1983.0,,,,-0.066866862211328,-2.3603772378582,0.0504545222687131,,-1.213046704748376,,
,4156.0,931.0,3392.0,914.0,2230.0,2520.0,1988.0,,,,-0.0668588601703405,-2.36087762340742,0.0506406268197503,,-0.8119864983111856,,
,4152.0,928.0,3391.0,914.0,2216.0,2518.0,1986.0,,,,-0.0669966320320262,-2.36085749317419,0.0502279826188419,,-0.39229430586895153,,
,4147.0,922.0,3386.0,911.0,2215.0,2530.0,1985.0,,,,-0.0669512990506157,-2.36075703013637,0.0505659004099343,,0.04255151095923623,,
,4146.0,924.0,3389.0,913.0,2206.0,2521.0,1975.0,,,,-0.0668710999250987,-2.36093641726367,0.0503291027160207,,0.48903382354106284,,
,4141.0,925.0,3384.0,912.0,2196.0,2519.0,1980.0,,,,-0.0667208881153005,-2.36086389572415,0.0503671922511904,,0.9434723885728074,,
,4137.0,921.0,3380.0,911.0,2210.0,2522.0,1984.0,,,,-0.0666319893415224,-2.36102675574254,0.0505567502505499,,1.4018642572190547,,
,4134.0,920.0,3379.0,907.0,2197.0,2510.0,1978.0,,,,-0.0667720156387205,-2.36055727018511,0.0504024650166772,,1.8597121543899795,,
,4132.0,918.0,3379.0,908.0,2200.0,2527.0,1985.0,,,,-0.0667385615840946,-2.36038469946072,0.050549403608823,,2.31186850355045,,
,4128.0,916.0,3378.0,906.0,2195.0,2533.0,1985.0,,,,-0.0666781339828742,-2.36048943798788,0.0507178479347112,,2.752424336199114,,
,4127.0,918.0,3375.0,906.0,2200.0,2545.0,1984.0,,,,-0.0666525445552436,-2.36069922228492,0.050507825160547,,3.1746705717944894,,
,4123.0,915.0,3372.0,904.0,2196.0,2546.0,1989.0,,,,-0.0664770366661503,-2.36122603219447,0.0504439763175812,,3.571153899430529,,
,4122.0,916.0,3373.0,903.0,2221.0,2551.0,1989.0,,,,-0.066586025961676,-2.36123168161196,0.0504179836522679,,3.933840885062615,,
,4120.0,917.0,3373.0,905.0,2205.0,2549.0,1992.0,,,,-0.0665091798319482,-2.3605541064771,0.0504615320402342,,4.254392614817863,,
,4121.0,915.0,3371.0,904.0,2190.0,2552.0,1990.0,,,,-0.0665823990999087,-2.36040119975656,0.0505740393871636,,4.524539351410027,,
,4120.0,915.0,3368.0,904.0,2191.0,2555.0,1985.0,,,,-0.0664462845676939,-2.36077944708449,0.0506816682245863,,4.736531791509321,,
,4118.0,912.0,3366.0,904.0,2203.0,2542.0,1977.0,,,,-0.0665433260275091,-2.36073656415899,0.0506004494837238,,4.883633976381858,,
,4118.0,915.0,3370.0,904.0,2213.0,2545.0,1986.0,,,,-0.0666394188194632,-2.36105023416368,0.0504612304873316,,4.960614043019727,,
,4118.0,915.0,3369.0,904.0,2223.0,2552.0,1992.0,,,,-0.0666546620116736,-2.36122563539101,0.0505104895875114,,4.964184159990124,,
,4116.0,913.0,3369.0,905.0,2209.0,2543.0,2009.0,,,,-0.0665812892092884,-2.36107232409715,0.050437254251618,,4.893341372296677,,
,4114.0,915.0,3370.0,905.0,2192.0,2518.0,1998.0,,,,-0.0666610292991673,-2.3619072217902,0.0501402336168534,,4.749567278491348,,
,4118.0,916.0,3368.0,905.0,2220.0,2525.0,1998.0,,,,-0.0667542418665103,-2.36208142366868,0.0502128633035262,,4.536856280236029,,
,4116.0,914.0,3368.0,906.0,2219.0,2529.0,1992.0,,,,-0.067037036263816,-2.36212885450252,0.0501299142667532,,4.261558718015273,,
,4115.0,914.0,3366.0,904.0,2196.0,2540.0,2003.0,,,,-0.0670856137971732,-2.36270534299723,0.0502101652513416,,3.9320449953498207,,
,4114.0,913.0,3367.0,903.0,2187.0,2543.0,1995.0,,,,-0.0673452949255341,-2.36264867818836,0.0500290736984928,,3.558217335306247,,
,4116.0,913.0,3369.0,905.0,2188.0,2545.0,1998.0,,,,-0.067636821827223,-2.36397459217294,0.0500260395802617,,3.1509138569752317,,
,4116.0,912.0,3367.0,904.0,2193.0,2544.0,2001.0,,,,-0.0677466988768232,-2.36394733348123,0.0499614514032061,,2.721262022630058,,
,4115.0,916.0,3365.0,904.0,2186.0,2534.0,1994.0,,,,-0.0677068929797182,-2.36494821979112,0.0496223663704459,,2.280043180199083,,
,4114.0,914.0,3367.0,903.0,2190.0,2521.0,1993.0,,,,-0.068012011758654,-2.3653665048412,0.0495950110478689,,1.8371266802338515,,
,4113.0,913.0,3367.0,904.0,2191.0,2536.0,1985.0,,,,-0.0680120876071049,-2.36639652603836,0.0495231368071493,,1.4010221804841299,,
,4115.0,913.0,3366.0,906.0,2195.0,2516.0,1984.0,,,,-0.0684639548772624,-2.36722385212083,0.0494004013119155,,0.9785842241258386,,
,4114.0,914.0,3367.0,903.0,2206.0,2514.0,1984.0,,,,-0.0687236253463252,-2.36711351045386,0.0491714092833722,,0.5748858103215158,,
,4115.0,916.0,3365.0,902.0,2203.0,2539.0,1999.0,,,,-0.0686986895498041,-2.36772085469982,0.0490904805340655,,0.1932590731174306,,
,4115.0,911.0,3365.0,905.0,2201.0,2539.0,1990.0,,,,-0.0686715363493656,-2.36841691893096,0.0489616643521657,,-0.164516767125238,,
,4114.0,914.0,3366.0,906.0,2206.0,2538.0,1986.0,,,,-0.0687984155922742,-2.3682793875827,0.048888599974568,,-0.49791498032996234,,
,4113.0,914.0,3366.0,903.0,2206.0,2552.0,1989.0,,,,-0.0688416889209632,-2.36910474275758,0.0488211506790892,,-0.8072930640602405,,
,4111.0,912.0,3364.0,903.0,2194.0,2533.0,1990.0,,,,-0.069041462546953,-2.36891051900668,0.048615279348408,,-1.0935048817907431,,
,4113.0,914.0,3362.0,902.0,2199.0,2530.0,1983.0,,,,-0.069004024283178,-2.36884763703039,0.0485938809144989,,-1.357539065824674,,
,4110.0,913.0,3364.0,901.0,2204.0,2533.0,1985.0,,,,-0.0690776266030996,-2.36856558891303,0.0486257625060815,,-1.6002223903476958,,
,4112.0,913.0,3365.0,902.0,2193.0,2537.0,1983.0,,,,-0.0689247847319137,-2.36811117016915,0.0485408040746152,,-1.8220164640581964,,
,4109.0,913.0,3364.0,901.0,2204.0,2527.0,1990.0,,,,-0.0687315624032567,-2.36845074638185,0.0489584393011609,,-2.0229240314370296,,
,4112.0,914.0,3363.0,903.0,2189.0,2538.0,1989.0,,,,-0.0689095324825827,-2.36819561134126,0.0487337917093614,,-2.2025085582853774,,
,4111.0,913.0,3363.0,903.0,2187.0,2525.0,1986.0,,,,-0.0687877668826267,-2.36853862578138,0.0487786251763855,,-2.3600184337759886,,
,4109.0,914.0,3362.0,903.0,2194.0,2535.0,1989.0,,,,-0.0686765142968117,-2.36823908028531,0.0488757723323451,,-2.494595710958477,,
,4111.0,912.0,3360.0,900.0,2197.0,2536.0,1998.0,,,,-0.0687239172835622,-2.36813839714526,0.0488690728958628,,-2.605539457371814,,
,4110.0,911.0,3360.0,902.0,2188.0,2551.0,1999.0,,,,-0.0685475954673945,-2.36798854396533,0.0488704105048413,,-2.6925861787078396,,
,4109.0,911.0,3360.0,901.0,2196.0,2560.0,1996.0,,,,-0.0685779121320984,-2.36813704290149,0.048704537632221,,-2.7561653452224055,,
,4109.0,911.0,3362.0,901.0,2203.0,2555.0,1993.0,,,,-0.0685857852749676,-2.36863380601848,0.0486204702692419,,-2.797588075432675,,
,4110.0,912.0,3360.0,899.0,2199.0,2546.0,2000.0,,,,-0.0686501914387576,-2.36787071912926,0.0487084960088205,,-2.8191326965487353,,
,4111.0,913.0,3362.0,902.0,2195.0,2534.0,1997.0,,,,-0.0685488048409471,-2.36786795391407,0.0487533254446203,,-2.8240024577532616,,
,4111.0,914.0,3363.0,906.0,2190.0,2536.0,1994.0,,,,-0.068601648481199,-2.36797224824104,0.0487195040089812,,-2.8161470417868077,,
,4110.0,914.0,3363.0,903.0,2198.0,2533.0,1990.0,,,,-0.0684847933509383,-2.36782460547628,0.0489483209889017,,-2.7999586079569525,,
,4114.0,917.0,3363.0,904.0,2211.0,2528.0,1992.0,,,,-0.0684414491502736,-2.36838423789753,0.0486865995109034,,-2.779872210140539,,
,4111.0,914.0,3362.0,901.0,2195.0,2525.0,2000.0,,,,-0.0684820471708554,-2.36813824321445,0.0487173152735393,,-2.759916404768819,,
,4113.0,915.0,3365.0,902.0,2200.0,2538.0,2003.0,,,,-0.0684904587446957,-2.36805137025926,0.048696246524031,,-2.743269442775734,,
,4115.0,913.0,3363.0,901.0,2205.0,2539.0,1997.0,,,,-0.0685725139426054,-2.36843422566625,0.0486441622687097,,-2.7318773371377985,,
,4116.0,915.0,3364.0,904.0,2203.0,2538.0,1995.0,,,,-0.0685199935266652,-2.36824532357083,0.0488856705458351,,-2.726182104195573,,
,4116.0,915.0,3364.0,901.0,2211.0,2564.0,1988.0,,,,-0.0687970838692598,-2.36859577971129,0.0486962101314578,,-2.724993588258107,,
,4118.0,913.0,3365.0,904.0,2215.0,2560.0,1988.0,,,,-0.0690937886367655,-2.36903952026474,0.0484655961709749,,-2.725519718193197,,
,4116.0,915.0,3365.0,903.0,2204.0,2545.0,1988.0,,,,-0.0690648340496987,-2.36910326933536,0.048533393411102,,-2.723551025372247,,
,4117.0,914.0,3366.0,902.0,2202.0,2539.0,1985.0,,,,-0.0690942794939685,-2.36947007096516,0.0485284846762416,,-2.7137781959823264,,
,4119.0,916.0,3363.0,905.0,2195.0,2538.0,1981.0,,,,-0.0692094626410637,-2.36944740474,0.0485413933180885,,-2.6902078220494374,,
,4119.0,916.0,3365.0,904.0,2203.0,2542.0,1999.0,,,,-0.0692772732733953,-2.36982064878961,0.0484019606913431,,-2.646632287215061,,
,4121.0,916.0,3365.0,904.0,2190.0,2561.0,2001.0,,,,-0.0693254039856468,-2.36982478773862,0.0483790277749566,,-2.5771056759552713,,
,4124.0,917.0,3368.0,902.0,2180.0,2551.0,2003.0,,,,-0.0691861197961988,-2.36985598478776,0.0482508347099029,,-2.476379275382708,,
,4120.0,916.0,3367.0,903.0,2184.0,2541.0,1992.0,,,,-0.0691591952994176,-2.37014595190992,0.0482825110448654,,-2.3402574823001614,,
,4123.0,918.0,3366.0,906.0,2192.0,2551.0,1987.0,,,,-0.0691616887109391,-2.37004605068712,0.0479933518636215,,-2.1658467995862996,,
,4126.0,920.0,3368.0,906.0,2196.0,2559.0,1992.0,,,,-0.0692579482445374,-2.36999260824635,0.0480690082581512,,-1.9516857375162002,,
,4124.0,918.0,3370.0,906.0,2194.0,2555.0,1993.0,,,,-0.0691669180466627,-2.37088446574281,0.0480250471456803,,-1.6977600683286453,,
,4125.0,920.0,3370.0,904.0,2190.0,2549.0,1992.0,,,,-0.0691855846342049,-2.37043821640938,0.0483432153884707,,-1.4054235817230303,,
,4127.0,917.0,3369.0,904.0,2207.0,2549.0,1995.0,,,,-0.0693357068221969,-2.37088404533822,0.0481097884544041,,-1.0772563178340924,,
,4128.0,922.0,3369.0,906.0,2211.0,2544.0,1997.0,,,,-0.0692632225824268,-2.37113181327809,0.0482020190509637,,-0.7168977098265072,,
,4129.0,918.0,3370.0,908.0,2199.0,2527.0,1998.0,,,,-0.0693813994068284,-2.37126967801877,0.0480471968492117,,-0.3288901042496659,,
,4130.0,921.0,3368.0,907.0,2199.0,2519.0,2001.0,,,,-0.0693521574609979,-2.37093468654521,0.0479470008639599,,0.08144053420008686,,
,4130.0,918.0,3370.0,905.0,2213.0,2537.0,1995.0,,,,-0.0694065794882408,-2.37121927368829,0.0480603053034373,,0.5080532883254488,,
,4131.0,920.0,3372.0,908.0,2200.0,2531.0,1993.0,,,,-0.0693869903228449,-2.37105829572118,0.0480216260806328,,0.9442124499971821,,
,4135.0,922.0,3369.0,908.0,2194.0,2528.0,1989.0,,,,-0.0694387850650831,-2.3709742063451,0.0479932104205134,,1.3824765927671352,,
,4134.0,921.0,3374.0,907.0,2202.0,2552.0,1980.0,,,,-0.0694459900213429,-2.37154441218081,0.0479236792705418,,1.8146865212324896,,
,4134.0,920.0,3368.0,906.0,2204.0,2530.0,1983.0,,,,-0.0694221439174524,-2.37101607375569,0.047906964419392,,2.2319894372104008,,
,4135.0,923.0,3373.0,908.0,2196.0,2524.0,1990.0,,,,-0.0694190824127805,-2.37138476185518,0.04798563482175,,2.624936944025328,,
,4137.0,921.0,3372.0,908.0,2187.0,2536.0,1990.0,,,,-0.0694081488797207,-2.37129552034842,0.0480101119062009,,2.9836871109345307,,
,4136.0,923.0,3375.0,909.0,2190.0,2525.0,2007.0,,,,-0.0694238923354421,-2.37182238429036,0.0480461509881812,,3.2983267087691583,,
,4135.0,923.0,3371.0,908.0,2200.0,2518.0,1993.0,,,,-0.0694844864872401,-2.37176420434507,0.047863490754788,,3.5593108573170693,,
,4139.0,921.0,3374.0,908.0,2204.0,2545.0,1993.0,,,,-0.0694332780191139,-2.37207602657471,0.047974641255265,,3.7579961319338038,,
,4139.0,923.0,3374.0,908.0,2209.0,2531.0,1989.0,,,,-0.0694096654441405,-2.37204107132409,0.0477407013837415,,3.88722261519602,,
,4143.0,922.0,3376.0,908.0,2212.0,2539.0,1988.0,,,,-0.0693757825416866,-2.37204621397226,0.0476773137940164,,3.941883862115641,,
,4142.0,921.0,3375.0,906.0,2201.0,2536.0,1988.0,,,,-0.069492630213043,-2.37200360186618,0.0478967825890585,,3.919414623696178,,
,4147.0,926.0,3376.0,911.0,2190.0,2514.0,1993.0,,,,-0.0695599977531498,-2.37250704906896,0.0476625408066279,,3.8201270844109545,,
,4149.0,927.0,3377.0,913.0,2189.0,2542.0,1990.0,,,,-0.0696227276540068,-2.37271103502247,0.0476233102155407,,3.6473386566092985,,
,4145.0,925.0,3377.0,910.0,2188.0,2545.0,1988.0,,,,-0.0696172632309896,-2.37314408011697,0.0476076113094935,,3.407257465706411,,
,4146.0,924.0,3378.0,910.0,2208.0,2574.0,1988.0,,,,-0.0695944083464954,-2.37327404906536,0.0478607794515634,,3.1086226159928905,,
,4149.0,922.0,3379.0,908.0,2208.0,2561.0,1993.0,,,,-0.0697240822684701,-2.37380723991783,0.0477547308008977,,2.762129955559537,,
,4149.0,927.0,3382.0,910.0,2197.0,2533.0,1990.0,,,,-0.0696807565601393,-2.37420325028146,0.0476077005875237,,2.3797038718266657,,
,4152.0,925.0,3381.0,910.0,2188.0,2527.0,1984.0,,,,-0.0697330813213314,-2.37441684524444,0.0475602554944092,,1.9736956081568156,,
,4151.0,928.0,3380.0,911.0,2181.0,2513.0,1994.0,,,,-0.0699582774316387,-2.37462035999916,0.0474691954343726,,1.5560950116205847,,
,4152.0,927.0,3381.0,912.0,2189.0,2518.0,1995.0,,,,-0.0699032626939189,-2.37440640002524,0.0474523442798982,,1.1378352613783047,,
,4156.0,928.0,3383.0,914.0,2194.0,2522.0,1999.0,,,,-0.069853888059343,-2.3747405192901,0.0472822635104107,,0.7282518908592239,,
,4156.0,928.0,3381.0,913.0,2193.0,2543.0,1993.0,,,,-0.0700878148384672,-2.37499405508516,0.0475805427489661,,0.3347329785113131,,
,4156.0,926.0,3382.0,911.0,2203.0,2548.0,2003.0,,,,-0.0701952901353768,-2.37553363859172,0.0472866014606381,,-0.03742837491550107,,
,4160.0,928.0,3382.0,912.0,2201.0,2553.0,1997.0,,,,-0.0701217037991865,-2.37564564502202,0.047535108737739,,-0.38499123296098864,,
,4159.0,929.0,3383.0,912.0,2199.0,2531.0,1993.0,,,,-0.0702555108055825,-2.37614497838255,0.0474104472305729,,-0.7065633898103091,,
,4161.0,929.0,3385.0,916.0,2193.0,2528.0,1996.0,,,,-0.0703229241100404,-2.37626069708788,0.0473073652993143,,-1.002278343773421,,
,4163.0,928.0,3384.0,912.0,2189.0,2539.0,2009.0,,,,-0.0704127601053131,-2.37670820311601,0.0471941170069292,,-1.273398634639627,,
,4161.0,931.0,3383.0,913.0,2207.0,2547.0,2001.0,,,,-0.0704528365153342,-2.37687268367482,0.0471818389840764,,-1.5218909447250553,,
,4164.0,929.0,3385.0,912.0,2200.0,2555.0,1985.0,,,,-0.0703878286448679,-2.37730739317324,0.0472977879723875,,-1.750013614880307,,
,4161.0,932.0,3385.0,913.0,2192.0,2551.0,1982.0,,,,-0.0704506792284031,-2.37661074545235,0.0471632928718019,,-1.9599495996900749,,
,4158.0,929.0,3386.0,911.0,2185.0,2546.0,1996.0,,,,-0.0705080122732849,-2.37699014867019,0.046998541237666,,-2.1535084591936964,,
,4156.0,926.0,3380.0,910.0,2197.0,2519.0,1995.0,,,,-0.0705782644065681,-2.376880071931,0.0470593992705829,,-2.331910643854905,,
,4154.0,925.0,3380.0,909.0,2186.0,2547.0,1995.0,,,,-0.0705887639448399,-2.37694591865181,0.0471843782636963,,-2.495657127378628,,
,4150.0,923.0,3376.0,910.0,2198.0,2544.0,1999.0,,,,-0.0706316441603543,-2.37718372340901,0.0470856395053477,,-2.644478812625201,,
,4145.0,923.0,3374.0,906.0,2201.0,2548.0,1992.0,,,,-0.0705940710746004,-2.37760028289635,0.0471619874124142,,-2.7773544185213352,,
,4143.0,919.0,3372.0,907.0,2197.0,2517.0,2001.0,,,,-0.0704543934451467,-2.37753970905881,0.0472457142954426,,-2.8925831383470237,,
,4139.0,920.0,3370.0,907.0,2179.0,2538.0,1997.0,,,,-0.0704842668945753,-2.37738128146323,0.0470635658674405,,-2.9878984641334023,,
,4135.0,920.0,3371.0,905.0,2181.0,2544.0,2004.0,,,,-0.0704536421774582,-2.3771051904085,0.0472572496478662,,-3.0606109520293736,,
,4133.0,918.0,3367.0,905.0,2196.0,2539.0,2009.0,,,,-0.070595451624944,-2.37789747976901,0.0470100250007104,,-3.107769397125973,,
,4132.0,916.0,3364.0,904.0,2205.0,2543.0,1997.0,,,,-0.0705066542146383,-2.37758015855593,0.0471085062590292,,-3.126331364032214,,
,4130.0,916.0,3364.0,903.0,2177.0,2545.0,1997.0,,,,-0.0706076469761135,-2.37752914284592,0.0470418660858333,,-3.113334989786153,,
,4124.0,913.0,3363.0,904.0,2198.0,2541.0,2000.0,,,,-0.0705114520787173,-2.37723679473581,0.0470150150768031,,-3.0660643140439103,,
,4123.0,915.0,3361.0,903.0,2203.0,2541.0,2001.0,,,,-0.0704974049082554,-2.37748512556281,0.0470175860851428,,-2.9822002660795697,,
,4124.0,913.0,3360.0,902.0,2195.0,2543.0,1994.0,,,,-0.0706590656715558,-2.37760215460218,0.0471155189116733,,-2.859949411550568,,
,4122.0,914.0,3358.0,903.0,2198.0,2540.0,1984.0,,,,-0.0705197256177438,-2.37827277542468,0.0470440509164369,,-2.6981434516382006,,
2025-08-20 18:28:13,4121.0,914.0,3357.0,902.0,2214.0,2539.0,1987.0,,,2025/08/20 06:28:13 PM,-0.0707111335498048,-2.37783735214284,0.0469902763404036,,-2.496304944750607,,
,4121.0,913.0,3360.0,900.0,2206.0,2536.0,1990.0,,,,-0.0706823632850594,-2.37819906924086,0.0470445185771615,,-2.2546788390460253,,
,4117.0,911.0,3357.0,900.0,2211.0,2545.0,1992.0,,,,-0.0707799931176949,-2.37821846639901,0.0469134556042842,,-1.974234340486359,,
,4119.0,913.0,3358.0,901.0,2206.0,2539.0,1990.0,,,,-0.0707335544020877,-2.3785287219466,0.0470316414322024,,-1.656645982830615,,
,4122.0,912.0,3358.0,901.0,2182.0,2544.0,1989.0,,,,-0.0706974021385217,-2.37816924115627,0.0470646215930896,,-1.3042653090784837,,
,4116.0,912.0,3356.0,901.0,2181.0,2550.0,1991.0,,,,-0.0708364320879366,-2.37864371743744,0.0468832992144806,,-0.9200949151381952,,
,4115.0,910.0,3354.0,899.0,2187.0,2545.0,1998.0,,,,-0.0708739596403497,-2.37869274066183,0.0469385711175958,,-0.5077748992211522,,
,4116.0,907.0,3353.0,899.0,2193.0,2546.0,1991.0,,,,-0.0710314446002666,-2.37929249051351,0.046753790402373,,-0.07158815075803988,,
,4118.0,911.0,3356.0,898.0,2183.0,2526.0,1991.0,,,,-0.0710380289296624,-2.37997158030662,0.04666477813386,,0.38351446839300435,,
,4116.0,909.0,3353.0,901.0,2175.0,2517.0,1991.0,,,,-0.071261830782443,-2.38021629793833,0.046734893272693,,0.8518746238796054,,
,4117.0,912.0,3355.0,900.0,2194.0,2525.0,1999.0,,,,-0.0713414698117693,-2.38037972668824,0.046600712306935,,1.3270850881286278,,
,4116.0,911.0,3353.0,901.0,2187.0,2525.0,1998.0,,,,-0.0715522975152802,-2.38055981479033,0.0466279049032616,,1.8019645329855012,,
,4114.0,913.0,3355.0,900.0,2187.0,2536.0,1991.0,,,,-0.071789386247744,-2.3813503948452,0.0463452609816932,,2.2685701265768143,,
,4116.0,911.0,3354.0,899.0,2196.0,2538.0,1992.0,,,,-0.0719407303292675,-2.38206163937264,0.0463047462408503,,2.7182698117560116,,
,4114.0,914.0,3358.0,900.0,2215.0,2525.0,2007.0,,,,-0.0721238483801995,-2.38255935582779,0.0462405471953473,,3.1418927443433,,
,4115.0,911.0,3355.0,898.0,2196.0,2547.0,2004.0,,,,-0.0721813578606545,-2.38239968211407,0.0461438669540605,,3.529969177691582,,
,4115.0,911.0,3356.0,900.0,2192.0,2530.0,1991.0,,,,-0.0724431682669032,-2.38279890203893,0.0460573804342004,,3.873060474668935,,
,4117.0,909.0,3356.0,901.0,2221.0,2530.0,1989.0,,,,-0.0724154965164372,-2.38357075983261,0.0458752205138624,,4.162166925095499,,
,4115.0,910.0,3352.0,898.0,2215.0,2523.0,1988.0,,,,-0.0727156416450713,-2.38371163467828,0.0460849405204763,,4.389187432592063,,
,4116.0,909.0,3353.0,899.0,2216.0,2513.0,1995.0,,,,-0.07262366415443,-2.38407699185166,0.0458638293777618,,4.547393329993957,,
,4113.0,912.0,3355.0,900.0,2204.0,2534.0,1995.0,,,,-0.0728193631021356,-2.38444937859862,0.0456773476509569,,4.631871026549013,,
,4115.0,911.0,3349.0,898.0,2221.0,2534.0,1990.0,,,,-0.0727899286062707,-2.38451262144198,0.0457770526334013,,4.639886540939684,,
,4111.0,910.0,3354.0,899.0,2206.0,2525.0,1989.0,,,,-0.0727980218649661,-2.38463182213435,0.0456925443598161,,4.571129782108393,,
,4113.0,908.0,3349.0,896.0,2203.0,2532.0,1999.0,,,,-0.0728572836951352,-2.38482219330279,0.0458071544986104,,4.427807394196996,,
,4111.0,911.0,3348.0,897.0,2203.0,2531.0,1995.0,,,,-0.0728806796230006,-2.38387904673988,0.0455024269529351,,4.214569033417067,,
,4113.0,910.0,3350.0,898.0,2188.0,2541.0,1992.0,,,,-0.0728290838614369,-2.38425794667954,0.0457198193629798,,3.9382709595513847,,
,4114.0,910.0,3351.0,900.0,2188.0,2537.0,1996.0,,,,-0.0727794128905558,-2.38384061879389,0.0458247395977905,,3.6075994711170156,,
,4110.0,909.0,3352.0,898.0,2195.0,2536.0,1991.0,,,,-0.0725789371829106,-2.38348077672231,0.045955321175101,,3.2325913262811508,,
,4112.0,908.0,3349.0,897.0,2184.0,2541.0,1988.0,,,,-0.072559723343666,-2.38283745819847,0.0459337405930581,,2.824096320490762,,
,4111.0,911.0,3352.0,899.0,2197.0,2531.0,1991.0,,,,-0.0724120726859164,-2.38269711335265,0.045975452347875,,2.3932280744378773,,
,4114.0,912.0,3354.0,899.0,2200.0,2524.0,1989.0,,,,-0.0724555812853398,-2.38227567210136,0.0460833062690313,,1.9508440096463004,,
,4109.0,909.0,3350.0,896.0,2201.0,2522.0,1982.0,,,,-0.0723213567627951,-2.38185006625528,0.0460247007169631,,1.507086542482115,,
,4113.0,908.0,3350.0,898.0,2204.0,2523.0,1977.0,,,,-0.072241085919423,-2.38147965814779,0.0462718424442179,,1.0710069599330356,,
,4111.0,909.0,3349.0,900.0,2206.0,2536.0,1982.0,,,,-0.0721638136697052,-2.38148043192221,0.0462991806778554,,0.6502832328722624,,
,4112.0,909.0,3351.0,901.0,2205.0,2552.0,1983.0,,,,-0.0721511089797188,-2.38116595407003,0.0460798431288173,,0.25103464833053785,,
,4111.0,909.0,3349.0,897.0,2220.0,2542.0,1985.0,,,,-0.0720466323735899,-2.38092378447215,0.0462132559823033,,-0.12226956162094077,,
,4113.0,911.0,3351.0,899.0,2203.0,2552.0,1978.0,,,,-0.0717339457063921,-2.38074080267478,0.0462252333758363,,-0.4668133642874938,,
,4115.0,912.0,3350.0,900.0,2201.0,2560.0,1993.0,,,,-0.0717340985897071,-2.38090606465584,0.0464003408269337,,-0.7813556560733566,,
,4114.0,908.0,3350.0,900.0,2202.0,2547.0,1992.0,,,,-0.0718262124045483,-2.38030258604724,0.0465504397992513,,-1.0660782187479114,,
,4113.0,909.0,3353.0,898.0,2200.0,2546.0,1986.0,,,,-0.0716993762129699,-2.38011656956795,0.0465258609515277,,-1.3223697582218108,,
,4112.0,911.0,3352.0,899.0,2202.0,2536.0,1988.0,,,,-0.0716931432876739,-2.38014206985215,0.0464031174143022,,-1.5525596658998466,,
,4114.0,913.0,3351.0,899.0,2207.0,2532.0,1980.0,,,,-0.0716996956941629,-2.37974887682187,0.0465764089239746,,-1.759619004333719,,
,4116.0,912.0,3353.0,901.0,2202.0,2523.0,1983.0,,,,-0.0717076190551852,-2.37950533999966,0.0465628114705415,,-1.9468482447593947,,
,4117.0,914.0,3352.0,899.0,2223.0,2539.0,1996.0,,,,-0.0717400375344262,-2.37978407391518,0.0465911584122423,,-2.11757060168704,,
,4114.0,914.0,3354.0,900.0,2215.0,2527.0,1995.0,,,,-0.0716904332311179,-2.37955806464174,0.0465165934704046,,-2.2748469645972813,,
,4118.0,915.0,3356.0,900.0,2212.0,2530.0,1993.0,,,,-0.0715729559326696,-2.37963419323424,0.0466525369060402,,-2.4212247472446715,,
,4121.0,914.0,3355.0,901.0,2207.0,2530.0,1990.0,,,,-0.0715144504426096,-2.37940517698875,0.0468485935332282,,-2.5585297193920877,,
,4120.0,915.0,3356.0,902.0,2211.0,2539.0,1988.0,,,,-0.0716047135574856,-2.37961470003156,0.046723834538868,,-2.6877077298641217,,
,4120.0,914.0,3353.0,900.0,2228.0,2537.0,1987.0,,,,-0.0716945694716442,-2.37963469506209,0.0465144464045679,,-2.8087221901745925,,
,4121.0,913.0,3355.0,898.0,2215.0,2533.0,1990.0,,,,-0.0715920039019279,-2.37993869779189,0.0465283686301604,,-2.920512792811395,,
,4121.0,914.0,3356.0,902.0,2197.0,2518.0,1981.0,,,,-0.0716436057623908,-2.37950942260491,0.0469116016880939,,-3.021020437602432,,
,4123.0,914.0,3358.0,905.0,2188.0,2517.0,1978.0,,,,-0.0718033267536022,-2.37905706614993,0.0468731455492402,,-3.1072818881520474,,
,4124.0,913.0,3357.0,900.0,2193.0,2514.0,1988.0,,,,-0.0717822352452949,-2.3788667207113,0.0467751741157537,,-3.175594525186848,,
,4125.0,915.0,3358.0,901.0,2203.0,2523.0,1984.0,,,,-0.0718303079510564,-2.3789082283523,0.0469388595934231,,-3.221746260297563,,
,4127.0,916.0,3358.0,903.0,2209.0,2544.0,1990.0,,,,-0.0717543127546526,-2.37867271369513,0.04676003710804,,-3.2412983681906558,,
,4128.0,915.0,3357.0,903.0,2211.0,2549.0,1995.0,,,,-0.0716948738935591,-2.37874771656094,0.0468271321706571,,-3.229900767917099,,
,4127.0,917.0,3359.0,900.0,2208.0,2529.0,1999.0,,,,-0.0714471082258936,-2.37865752878873,0.0467960367162799,,-3.183612207256172,,
,4129.0,917.0,3361.0,902.0,2196.0,2527.0,2000.0,,,,-0.0716363493137164,-2.37858836467991,0.0467961778838637,,-3.0991942567852044,,
,4131.0,918.0,3362.0,902.0,2209.0,2534.0,1994.0,,,,-0.071573163785894,-2.37839980625597,0.0467408211329695,,-2.974349533580581,,
,4132.0,916.0,3361.0,903.0,2208.0,2531.0,1986.0,,,,-0.0715465771114624,-2.37833906159465,0.0469397932371235,,-2.8078812227740464,,
,4133.0,916.0,3361.0,900.0,2235.0,2538.0,1990.0,,,,-0.0713692417406134,-2.37814609300835,0.0470536913021038,,-2.5997616242268493,,
,4131.0,919.0,3360.0,902.0,2240.0,2538.0,1993.0,,,,-0.0711983924606303,-2.3782344621551,0.0469421708339635,,-2.351110276825042,,
,4135.0,918.0,3364.0,903.0,2225.0,2534.0,1994.0,,,,-0.0710932784585044,-2.37796045300997,0.0470237082455658,,-2.0640949168654372,,
,4137.0,922.0,3367.0,906.0,2215.0,2539.0,1994.0,,,,-0.0709806757093194,-2.37745510664948,0.0472469401196357,,-1.7417787576200863,,
,4137.0,920.0,3363.0,903.0,2196.0,2553.0,1991.0,,,,-0.0709268623494533,-2.37759237600297,0.0472870972394383,,-1.3879435294755587,,
,4137.0,918.0,3365.0,903.0,2190.0,2529.0,1986.0,,,,-0.0708860970639049,-2.37737290711763,0.0473036531215574,,-1.0069185802665088,,
,4137.0,921.0,3366.0,904.0,2203.0,2536.0,1983.0,,,,-0.0707977377420846,-2.37730478536019,0.04725144928825,,-0.6034422822057266,,
,4140.0,920.0,3366.0,905.0,2219.0,2530.0,1984.0,,,,-0.0706888800492818,-2.37742196416621,0.0473569613365363,,-0.1825739348244461,,
,4138.0,917.0,3364.0,904.0,2229.0,2528.0,1982.0,,,,-0.0710003456468749,-2.37702742200324,0.0472044517022975,,0.2503363505996214,,
,4138.0,918.0,3364.0,905.0,2199.0,2537.0,1979.0,,,,-0.0708572541259288,-2.37681160111894,0.0475410139746803,,0.6896240836830168,,
,4140.0,921.0,3367.0,905.0,2206.0,2548.0,1975.0,,,,-0.070792648686901,-2.37654577135771,0.0474383895174843,,1.1292487072521442,,
,4142.0,920.0,3369.0,906.0,2209.0,2544.0,1975.0,,,,-0.0706365092209075,-2.37626824124951,0.0473129602358448,,1.5627185990412413,,
,4147.0,923.0,3368.0,907.0,2220.0,2515.0,1990.0,,,,-0.0705415920883992,-2.37611610080285,0.0473740337976049,,1.9830335212054933,,
,4146.0,921.0,3366.0,906.0,2198.0,2526.0,1977.0,,,,-0.0705935055252542,-2.37586549959967,0.0476398980062339,,2.3826769024756005,,
,4146.0,925.0,3370.0,907.0,2189.0,2520.0,1989.0,,,,-0.0704749316385041,-2.37624555472478,0.0473755626808529,,2.7536869269229793,,
,4148.0,922.0,3370.0,909.0,2195.0,2534.0,1989.0,,,,-0.0704802846180484,-2.37585010691437,0.0475375949131611,,3.0878268066676284,,
,4151.0,923.0,3370.0,906.0,2197.0,2531.0,1987.0,,,,-0.0704930112392268,-2.37567234098689,0.0476587365185164,,3.3768615720832518,,
,4149.0,923.0,3370.0,905.0,2226.0,2535.0,1989.0,,,,-0.0704849419605047,-2.37564142954743,0.0475175912011584,,3.612932813449687,,
,4150.0,922.0,3372.0,906.0,2222.0,2515.0,1979.0,,,,-0.0703897690506528,-2.37536834708637,0.0477356585273301,,3.789006125063155,,
,4152.0,925.0,3374.0,907.0,2224.0,2504.0,1990.0,,,,-0.0703678535860482,-2.37525553807206,0.0475835096911981,,3.899350829506376,,
,4152.0,923.0,3371.0,909.0,2212.0,2505.0,1990.0,,,,-0.0703918878962652,-2.37526647795438,0.0475729211010256,,3.940000354077392,,
,4154.0,924.0,3373.0,907.0,2213.0,2515.0,1984.0,,,,-0.0703679381915838,-2.37546369935854,0.0479467500375076,,3.9091368135099525,,
,4156.0,924.0,3375.0,910.0,2210.0,2522.0,1978.0,,,,-0.0703297553557526,-2.37496941121373,0.0478786201873352,,3.807346777739974,,
,4155.0,926.0,3377.0,911.0,2211.0,2526.0,1984.0,,,,-0.0701228807347307,-2.37484418631106,0.0475571556659631,,3.637707478351847,,
,4157.0,927.0,3375.0,908.0,2222.0,2531.0,1978.0,,,,-0.0703476822434558,-2.37513275662985,0.0476629397255922,,3.405682624362261,,
,4159.0,927.0,3375.0,909.0,2240.0,2527.0,1977.0,,,,-0.0702254376104828,-2.37520897104419,0.0477876007452802,,3.118831360357991,,
,4160.0,927.0,3379.0,909.0,2225.0,2558.0,1989.0,,,,-0.0699724780035271,-2.37498220758905,0.0479102892209899,,2.7863580345688552,,
,4161.0,930.0,3380.0,910.0,2216.0,2536.0,1990.0,,,,-0.0699553547804805,-2.37460265616404,0.0479948065069286,,2.4185495192163873,,
,4162.0,929.0,3378.0,910.0,2210.0,2531.0,1987.0,,,,-0.0700836697947726,-2.37459226788749,0.0479581371721825,,2.0261575590375704,,
,4161.0,929.0,3380.0,910.0,2230.0,2531.0,1980.0,,,,-0.0699741883051493,-2.3751152309679,0.0479227292707251,,1.619785314404073,,
,4161.0,927.0,3378.0,907.0,2211.0,2546.0,1978.0,,,,-0.0699832353674293,-2.37423847201207,0.0479739471836724,,1.2093313580034386,,
,4164.0,928.0,3379.0,911.0,2208.0,2536.0,1988.0,,,,-0.0699456623681761,-2.37444877406802,0.0478380560718457,,0.8035331936624938,,
,4161.0,926.0,3379.0,909.0,2220.0,2537.0,1985.0,,,,-0.0699282838266783,-2.37437164774236,0.0480939026803029,,0.4096382366393936,,
,4158.0,926.0,3376.0,909.0,2237.0,2532.0,1979.0,,,,-0.069846676406026,-2.3744704522458,0.0481626834439053,,0.03321536704358454,,
,4156.0,925.0,3374.0,908.0,2223.0,2509.0,1973.0,,,,-0.0698696634607363,-2.3744694556223,0.048070113184661,,-0.32189336586690104,,
,4153.0,923.0,3373.0,906.0,2230.0,2495.0,1981.0,,,,-0.0696857802121388,-2.37416266578752,0.0479820331936218,,-0.6534922513383198,,
,4151.0,924.0,3372.0,908.0,2213.0,2487.0,1976.0,,,,-0.0699259501756343,-2.37346752254775,0.0481546409276359,,-0.9608419631045235,,
,4146.0,923.0,3368.0,905.0,2215.0,2520.0,1988.0,,,,-0.069823547227289,-2.37329367474139,0.048462044726006,,-1.2443846819587374,,
,4145.0,919.0,3365.0,903.0,2215.0,2530.0,1978.0,,,,-0.0696563268453765,-2.37356816829726,0.0480797577390746,,-1.5054116846663423,,
,4139.0,919.0,3367.0,905.0,2221.0,2520.0,1979.0,,,,-0.0697209551303923,-2.37319185055494,0.0481661168006938,,-1.7457016840547452,,
,4136.0,920.0,3364.0,905.0,2211.0,2520.0,1978.0,,,,-0.0697034958778105,-2.37400879353139,0.0481222025783508,,-1.9671576135075473,,
,4134.0,917.0,3360.0,902.0,2215.0,2526.0,1985.0,,,,-0.069654247085773,-2.37315143972701,0.048130143482867,,-2.171467961387931,,
,4128.0,914.0,3360.0,899.0,2208.0,2525.0,1993.0,,,,-0.0696613384989718,-2.37283083098175,0.0483359961479214,,-2.359816479045925,,
,4129.0,914.0,3357.0,901.0,2222.0,2550.0,1980.0,,,,-0.0696451401871751,-2.37269154584452,0.048070671770488,,-2.532661032937933,,
,4124.0,915.0,3356.0,900.0,2232.0,2542.0,1970.0,,,,-0.0696888955040525,-2.37309734296313,0.0484776244527697,,-2.6895981179430857,,
,4126.0,913.0,3359.0,898.0,2237.0,2532.0,1975.0,,,,-0.0696188959605395,-2.37268613193536,0.0482284760651149,,-2.829323609572555,,
,4122.0,914.0,3355.0,900.0,2236.0,2549.0,1970.0,,,,-0.0695041052266642,-2.37256111600822,0.0485114201343203,,-2.9496925643049257,,
,4126.0,913.0,3354.0,902.0,2220.0,2545.0,1963.0,,,,-0.0695172042892015,-2.37258746345485,0.0481727613957921,,-3.0478717514673965,,
,4126.0,913.0,3355.0,901.0,2226.0,2550.0,1980.0,,,,-0.0695986458388032,-2.37259913043715,0.0481592918003572,,-3.1205692563446723,,
,4121.0,913.0,3354.0,899.0,2227.0,2550.0,1992.0,,,,-0.0698655186064642,-2.37267015981557,0.0480557069240952,,-3.164317470292464,,
,4120.0,913.0,3351.0,899.0,2236.0,2536.0,1979.0,,,,-0.0698134368350191,-2.37282834877447,0.0484308232135809,,-3.1757803765218386,,
,4121.0,914.0,3355.0,901.0,2247.0,2540.0,1975.0,,,,-0.0699904614950969,-2.37341033064034,0.048140687371875,,-3.152053763273095,,
,4122.0,912.0,3351.0,900.0,2240.0,2536.0,1984.0,,,,-0.0700121948394407,-2.3737764070627,0.0480203355981496,,-3.0909277299163787,,
,4119.0,911.0,3351.0,901.0,2234.0,2542.0,1984.0,,,,-0.0702381380052454,-2.37406387685834,0.0481923341875564,,-2.9910844543165056,,
,4119.0,914.0,3350.0,897.0,2223.0,2537.0,1974.0,,,,-0.0702385227170665,-2.37452447473875,0.0479713798915018,,-2.8522107506990437,,
,4117.0,910.0,3348.0,898.0,2212.0,2531.0,1983.0,,,,-0.0705700839606425,-2.37482298003053,0.0479828671388867,,-2.6750144238091185,,
,4121.0,911.0,3351.0,898.0,2208.0,2534.0,1988.0,,,,-0.0706795576523919,-2.37542116966099,0.0478788515584298,,-2.461145162007146,,
,4121.0,912.0,3351.0,897.0,2208.0,2515.0,1980.0,,,,-0.0707855531627528,-2.37524590549707,0.0477215881986792,,-2.2130333134075015,,
,4119.0,909.0,3350.0,898.0,2205.0,2518.0,1974.0,,,,-0.0708703101848294,-2.37607790477463,0.047639705609392,,-1.9336714678031786,,
,4120.0,913.0,3352.0,897.0,2213.0,2519.0,1987.0,,,,-0.0710240362495353,-2.37614914885364,0.0475768232486053,,-1.6263723705673874,,
,4122.0,912.0,3353.0,899.0,2198.0,2514.0,1987.0,,,,-0.0712316316038609,-2.37647152017114,0.0474939959710574,,-1.2945407473641357,,
,4118.0,913.0,3350.0,898.0,2199.0,2524.0,1989.0,,,,-0.071125054014799,-2.37702178156923,0.0474382298577535,,-0.9414952587925512,,
,4119.0,915.0,3351.0,897.0,2218.0,2524.0,1981.0,,,,-0.071157043541484,-2.37663366395239,0.0475029735132034,,-0.5703700124945268,,
,4118.0,912.0,3349.0,897.0,2220.0,2530.0,1996.0,,,,-0.071239106660287,-2.37717563340634,0.047315722357286,,-0.184113596396414,,
,4120.0,914.0,3352.0,899.0,2237.0,2537.0,1993.0,,,,-0.071305175641856,-2.37696110592358,0.0473799710486106,,0.2144110728465881,,
,4119.0,913.0,3351.0,899.0,2244.0,2544.0,1989.0,,,,-0.0711925135539265,-2.37699586644271,0.0474495190592208,,0.6222385577028777,,
,4120.0,911.0,3351.0,898.0,2240.0,2550.0,1978.0,,,,-0.0711267504526864,-2.37709670511166,0.0472624761430614,,1.036051308660413,,
,4117.0,911.0,3347.0,895.0,2228.0,2547.0,1984.0,,,,-0.0711067020978893,-2.37707592256313,0.0475417426902822,,1.4519068220914488,,
2025-08-20 18:28:14,4116.0,911.0,3350.0,898.0,2221.0,2543.0,1982.0,,,2025/08/20 06:28:14 PM,-0.0710284653677212,-2.37647014905893,0.0473911397955388,,1.8649864484546963,,
,4117.0,912.0,3349.0,897.0,2233.0,2536.0,1982.0,,,,-0.0710219642491869,-2.37622080860452,0.0475016866244347,,2.2694123990258177,,
,4115.0,911.0,3348.0,896.0,2243.0,2530.0,1983.0,,,,-0.0709460675230483,-2.37588661815514,0.0474140900433944,,2.65817553159638,,
,4113.0,909.0,3346.0,896.0,2234.0,2534.0,1984.0,,,,-0.0708867488337277,-2.37593749523717,0.0476512834305916,,3.0232066762600325,,
,4117.0,912.0,3350.0,897.0,2233.0,2538.0,1989.0,,,,-0.0709071698229447,-2.37609963040247,0.0476142552034457,,3.355609044758539,,
,4114.0,912.0,3349.0,898.0,2220.0,2538.0,1980.0,,,,-0.0708044747254742,-2.37577782048084,0.0477577200394291,,3.6460500082240914,,
,4117.0,912.0,3350.0,898.0,2232.0,2541.0,1974.0,,,,-0.0707497509512218,-2.37537508737549,0.0479261304634093,,3.885289345917676,,
,4113.0,911.0,3346.0,897.0,2234.0,2550.0,1965.0,,,,-0.0706564384867001,-2.37528068245854,0.0478211082896601,,4.064800522909196,,
,4115.0,911.0,3346.0,898.0,2215.0,2549.0,1982.0,,,,-0.0707454015648671,-2.37471885125379,0.0477135419399516,,4.177424390571199,,
,4115.0,912.0,3346.0,899.0,2219.0,2547.0,1982.0,,,,-0.0705497560115238,-2.37450565318592,0.0479448579554981,,4.217983653066179,,
,4116.0,913.0,3347.0,897.0,2227.0,2540.0,1981.0,,,,-0.0705726339365999,-2.37453179351296,0.0479233380525542,,4.183783953003088,,
,4112.0,911.0,3347.0,897.0,2232.0,2526.0,1979.0,,,,-0.0704876337999364,-2.37435285982545,0.0479045810511048,,4.074935270507897,,
,4115.0,912.0,3346.0,897.0,2252.0,2531.0,1996.0,,,,-0.0705428731488631,-2.37375254398211,0.0479818334563201,,3.8944460917163655,,
,4115.0,911.0,3347.0,896.0,2238.0,2544.0,1995.0,,,,-0.0704640442079909,-2.37429449742702,0.0479942032189687,,3.648071107065411,,
,4115.0,913.0,3348.0,896.0,2234.0,2537.0,1991.0,,,,-0.0703090196225677,-2.37356820552027,0.0482180804252932,,3.343926871008273,,
,4111.0,910.0,3346.0,895.0,2250.0,2548.0,1976.0,,,,-0.0703985179515951,-2.37406368564956,0.0479414379592842,,2.9919221558782567,,
,4114.0,911.0,3345.0,898.0,2240.0,2547.0,1975.0,,,,-0.0704657261569431,-2.37398120862908,0.0479921515619137,,2.6030734458089335,,
,4119.0,911.0,3348.0,899.0,2248.0,2550.0,1982.0,,,,-0.0704122917720557,-2.37377912248295,0.0481388568086765,,2.18878633455576,,
,4117.0,910.0,3347.0,899.0,2237.0,2538.0,1983.0,,,,-0.0707323784880196,-2.37385784479914,0.0479631211596618,,1.7601797628419908,,
,4119.0,908.0,3349.0,898.0,2223.0,2524.0,1980.0,,,,-0.0704308814686313,-2.37357598869339,0.0479994922828611,,1.327514905828391,,
,4115.0,909.0,3348.0,897.0,2236.0,2543.0,1988.0,,,,-0.0704442591932345,-2.37347216761822,0.0480879871454335,,0.8997688503000557,,
,4120.0,911.0,3347.0,898.0,2228.0,2538.0,1987.0,,,,-0.0704011440859612,-2.37370149081972,0.0480651185033155,,0.48436990549083203,,
,4120.0,912.0,3349.0,899.0,2220.0,2551.0,1982.0,,,,-0.0705145163999535,-2.37368274683383,0.048180723689928,,0.08709043810641344,,
,4123.0,913.0,3349.0,897.0,2218.0,2540.0,1978.0,,,,-0.07033495019466,-2.37369953283808,0.0479388165755093,,-0.28792292865036817,,
,4122.0,914.0,3347.0,899.0,2213.0,2541.0,1991.0,,,,-0.070354490654006,-2.37390353025628,0.0479674598792074,,-0.6380119539833786,,
,4118.0,913.0,3349.0,899.0,2222.0,2559.0,1983.0,,,,-0.0703117371302788,-2.37346894278084,0.0480127090795584,,-0.9617966823363324,,
,4121.0,914.0,3350.0,900.0,2218.0,2524.0,1993.0,,,,-0.0701785138454922,-2.37352287881263,0.0479117620502233,,-1.2589265393563331,,
,4122.0,915.0,3353.0,900.0,2221.0,2531.0,1984.0,,,,-0.0702552382154123,-2.3731422425533,0.0482041131294693,,-1.5298227254981986,,
,4123.0,913.0,3351.0,897.0,2224.0,2529.0,1977.0,,,,-0.0703215684989919,-2.37345066092169,0.0481562725600559,,-1.77543597993508,,
,4124.0,914.0,3353.0,901.0,2228.0,2535.0,1986.0,,,,-0.0703140334276618,-2.37318696797451,0.0482735640003371,,-1.9970362088865263,,
,4126.0,916.0,3352.0,900.0,2221.0,2537.0,1982.0,,,,-0.0701656851801,-2.37298805490549,0.0479936874188011,,-2.1960419118318377,,
,4126.0,914.0,3351.0,902.0,2224.0,2542.0,1976.0,,,,-0.0702086785134753,-2.37311930237208,0.0480547435310905,,-2.373888883956913,,
,4125.0,917.0,3351.0,899.0,2223.0,2545.0,1987.0,,,,-0.0701928079806882,-2.37282309169123,0.048270714585478,,-2.5319310186895967,,
,4127.0,913.0,3351.0,898.0,2203.0,2543.0,1975.0,,,,-0.0700735574527457,-2.37312141880187,0.0480893531758911,,-2.671362645626467,,
,4130.0,918.0,3354.0,901.0,2204.0,2543.0,1991.0,,,,-0.0700820808590932,-2.37310070903318,0.048213523065909,,-2.7931520117152795,,
,4128.0,914.0,3354.0,900.0,2207.0,2538.0,1989.0,,,,-0.0701012049618614,-2.37313911154486,0.0480473182232429,,-2.8979783845407288,,
,4127.0,913.0,3352.0,901.0,2227.0,2521.0,1988.0,,,,-0.0700037100417064,-2.37247224270466,0.0482108051038891,,-2.986169588928763,,
,4129.0,914.0,3353.0,901.0,2202.0,2546.0,1988.0,,,,-0.0698791335441519,-2.37257489716164,0.0483797697352897,,-3.0576415427451034,,
,4129.0,914.0,3353.0,902.0,2213.0,2564.0,1995.0,,,,-0.0699974996988364,-2.37265534081917,0.0482584268324938,,-3.1118456923552684,,
,4129.0,916.0,3353.0,902.0,2222.0,2544.0,1989.0,,,,-0.069899659522025,-2.37221304450284,0.0483947783306047,,-3.147733366276844,,
,4133.0,914.0,3353.0,900.0,2214.0,2528.0,1995.0,,,,-0.0698809311260622,-2.37186120365017,0.0483882688689463,,-3.1637472989106414,,
,4133.0,915.0,3354.0,901.0,2218.0,2542.0,1991.0,,,,-0.0699040013605456,-2.37172051088983,0.0484321991004959,,-3.1578496230224538,,
,4133.0,917.0,3355.0,903.0,2216.0,2564.0,1993.0,,,,-0.0701430621304397,-2.37160161627741,0.0483938481152534,,-3.1275926705446877,,
,4134.0,916.0,3357.0,900.0,2212.0,2557.0,1998.0,,,,-0.070035738883138,-2.371097280564,0.0484165445552007,,-3.070234521255836,,
,4135.0,917.0,3355.0,901.0,2235.0,2562.0,1991.0,,,,-0.0699363508328013,-2.3708174509382,0.048429519982125,,-2.9828961645948624,,
,4135.0,915.0,3354.0,900.0,2211.0,2563.0,1995.0,,,,-0.0699471384932999,-2.37144875691776,0.0484880958786856,,-2.862752212059783,,
,4138.0,917.0,3356.0,903.0,2217.0,2544.0,1985.0,,,,-0.0699304387803824,-2.37133859195024,0.0487199281043257,,-2.707243066041437,,
,4136.0,918.0,3357.0,904.0,2199.0,2545.0,1991.0,,,,-0.0699059937391634,-2.37102568648555,0.0487257238234746,,-2.5142938578706726,,
,4135.0,917.0,3356.0,900.0,2212.0,2535.0,1978.0,,,,-0.0697342743294073,-2.37063847359714,0.0484548475929594,,-2.2825246079629835,,
,4137.0,917.0,3355.0,901.0,2224.0,2546.0,1990.0,,,,-0.0699050623842869,-2.37100654635555,0.048482695002984,,-2.0114371176294594,,
,4140.0,919.0,3356.0,904.0,2215.0,2511.0,1985.0,,,,-0.069853271053479,-2.37146546140816,0.0486269257961035,,-1.7015671485347166,,
,4140.0,919.0,3357.0,902.0,2218.0,2520.0,1981.0,,,,-0.0696451554611134,-2.37136226481367,0.0487740316983115,,-1.3545950231899053,,
,4143.0,920.0,3360.0,904.0,2215.0,2529.0,1990.0,,,,-0.069705445301774,-2.37115231255151,0.0485955067556081,,-0.973412600902327,,
,4138.0,917.0,3358.0,904.0,2218.0,2540.0,1992.0,,,,-0.0696992570775709,-2.37091464497798,0.0486721435557179,,-0.5621480714480815,,
,4142.0,920.0,3360.0,903.0,2206.0,2542.0,1991.0,,,,-0.0698475631540237,-2.37062149282505,0.0486904339545579,,-0.12615124702557196,,
,4144.0,918.0,3361.0,904.0,2201.0,2535.0,1995.0,,,,-0.0697338194003528,-2.3703614817839,0.0487183931049737,,0.3280588498436509,,
,4146.0,920.0,3358.0,903.0,2200.0,2538.0,1999.0,,,,-0.0694237177639074,-2.37048786841699,0.049092597636087,,0.7928844682223198,,
,4145.0,919.0,3359.0,902.0,2195.0,2522.0,2003.0,,,,-0.069660903550013,-2.37054976211455,0.0486188578377704,,1.259780460659878,,
,4146.0,922.0,3358.0,905.0,2226.0,2535.0,1982.0,,,,-0.0696030709345435,-2.36996623408988,0.0490123328225062,,1.7194310155745487,,
,4148.0,923.0,3362.0,908.0,2237.0,2545.0,1969.0,,,,-0.0694896614888885,-2.36980893106326,0.0488362705627623,,2.1619767437700927,,
,4148.0,924.0,3363.0,906.0,2234.0,2557.0,1985.0,,,,-0.0692791641851706,-2.36954885514748,0.048986607799953,,2.577295474664998,,
,4149.0,921.0,3364.0,904.0,2205.0,2542.0,1984.0,,,,-0.0691690777848605,-2.36978500931455,0.0487988140335461,,2.9553360525518504,,
,4153.0,923.0,3365.0,906.0,2210.0,2543.0,1981.0,,,,-0.0692024287931643,-2.36990236712218,0.0488662968203688,,3.286497877824285,,
,4150.0,923.0,3363.0,908.0,2234.0,2526.0,1992.0,,,,-0.0691007781096827,-2.36948471598146,0.0488355325700549,,3.562040597279768,,
,4153.0,924.0,3365.0,906.0,2233.0,2536.0,1991.0,,,,-0.0690778585402962,-2.36964049976944,0.048949113524078,,3.774499630015651,,
,4152.0,923.0,3363.0,905.0,2222.0,2548.0,1995.0,,,,-0.0690892538105894,-2.36923888201594,0.0487115000273102,,3.918076061520731,,
,4150.0,921.0,3364.0,907.0,2239.0,2551.0,1990.0,,,,-0.069126473707505,-2.36931539827881,0.0489924014441123,,3.988965756368873,,
,4147.0,919.0,3361.0,906.0,2218.0,2540.0,1995.0,,,,-0.0691273183194187,-2.36905470071968,0.0489748936931503,,3.985593503368459,,
,4149.0,919.0,3363.0,906.0,2206.0,2524.0,1987.0,,,,-0.0690717104074829,-2.36927850420502,0.048837108852499,,3.908723847553682,,
,4145.0,918.0,3360.0,902.0,2204.0,2527.0,1984.0,,,,-0.069008216165362,-2.36915198076338,0.0490542848244213,,3.761430670363261,,
,4142.0,916.0,3355.0,900.0,2208.0,2510.0,1988.0,,,,-0.0690603672746271,-2.36924287600867,0.0489355117031094,,3.548921825512671,,
,4136.0,915.0,3353.0,902.0,2197.0,2499.0,1991.0,,,,-0.0689442258139933,-2.36882024289702,0.0489096065077871,,3.2782315042051375,,
,4135.0,914.0,3352.0,902.0,2193.0,2511.0,1993.0,,,,-0.0690494847082452,-2.36911329929174,0.0488636965975631,,2.9578085082864276,,
,4129.0,914.0,3350.0,899.0,2198.0,2510.0,1998.0,,,,-0.0689442321088041,-2.36906727665512,0.0488776169984928,,2.597039942023555,,
,4123.0,909.0,3345.0,896.0,2212.0,2505.0,1977.0,,,,-0.0690960395566042,-2.36895802241627,0.04879635649848,,2.205754799530681,,
,4123.0,911.0,3345.0,897.0,2235.0,2530.0,1987.0,,,,-0.068970598711752,-2.36879441445058,0.0489612537878067,,1.7937501719652893,,
,4118.0,910.0,3344.0,898.0,2211.0,2534.0,1986.0,,,,-0.0689808788275468,-2.36863544656397,0.0490024284803608,,1.370375519195623,,
,4117.0,908.0,3342.0,897.0,2207.0,2536.0,1988.0,,,,-0.0688542560349007,-2.36851387929892,0.0491728715868542,,0.9441996557841565,,
,4111.0,907.0,3342.0,895.0,2226.0,2534.0,1984.0,,,,-0.0688684734219938,-2.36841390021603,0.0489574999619055,,0.5227730039232923,,
,4111.0,907.0,3340.0,896.0,2233.0,2541.0,1975.0,,,,-0.068929400374622,-2.36815381322367,0.0488919933334332,,0.11248628118387902,,
,4109.0,908.0,3338.0,897.0,2252.0,2545.0,1998.0,,,,-0.068712382725755,-2.36796013629891,0.0492509907236673,,-0.2814823630180858,,
,4107.0,907.0,3338.0,892.0,2241.0,2543.0,1996.0,,,,-0.0688065867371487,-2.36841966084787,0.049038467960094,,-0.6551458219818492,,
,4104.0,903.0,3334.0,894.0,2237.0,2520.0,1982.0,,,,-0.0688186019706674,-2.36818913252955,0.0491794980955479,,-1.0056289373817333,,
,4104.0,903.0,3335.0,895.0,2228.0,2542.0,1967.0,,,,-0.0686980071211335,-2.36859263216054,0.0490727901855304,,-1.33104834719692,,
,4104.0,904.0,3334.0,896.0,2218.0,2539.0,1983.0,,,,-0.0688219674761522,-2.36813008054534,0.049188284624329,,-1.6303651632000071,,
,4103.0,907.0,3336.0,893.0,2214.0,2545.0,1983.0,,,,-0.0690877483229545,-2.36811872646907,0.0490905703177506,,-1.903220766048047,,
,4099.0,904.0,3333.0,892.0,2204.0,2540.0,1986.0,,,,-0.0691772844611246,-2.36805389239382,0.048933575009265,,-2.1497629985648588,,
,4101.0,903.0,3335.0,896.0,2215.0,2539.0,1986.0,,,,-0.0691955824112543,-2.36842847117927,0.0490347319690749,,-2.370468632912171,,
,4100.0,904.0,3335.0,894.0,2206.0,2533.0,1987.0,,,,-0.0693604143008912,-2.36913464000779,0.0491139542273232,,-2.565968159817791,,
,4098.0,905.0,3332.0,893.0,2199.0,2535.0,1983.0,,,,-0.0695398323059122,-2.36952612169101,0.048881577315362,,-2.736879930409053,,
,4099.0,903.0,3332.0,893.0,2201.0,2524.0,1990.0,,,,-0.0694433207046518,-2.36971937525175,0.0487545958251052,,-2.883661620596183,,
,4098.0,902.0,3331.0,892.0,2208.0,2526.0,1991.0,,,,-0.0695391148130759,-2.36987072749475,0.0487336264574651,,-3.006487346581815,,
,4098.0,903.0,3334.0,893.0,2205.0,2517.0,1993.0,,,,-0.069755820060958,-2.37042666760067,0.0485278480090861,,-3.105158308238143,,
,4099.0,903.0,3331.0,893.0,2203.0,2518.0,1996.0,,,,-0.0696838507489828,-2.371107453372,0.0484803366240652,,-3.1790534633444265,,
,4097.0,903.0,3332.0,890.0,2219.0,2534.0,1986.0,,,,-0.0699521700251845,-2.37119898967278,0.0484885087740316,,-3.2271243587615825,,
,4096.0,904.0,3330.0,891.0,2213.0,2527.0,1996.0,,,,-0.0700755175070768,-2.37175887222686,0.0482268855813885,,-3.2479349206911374,,
,4095.0,903.0,3329.0,892.0,2217.0,2526.0,1996.0,,,,-0.0701128791993546,-2.3721270567193,0.0482219148371127,,-3.239743063385688,,
,4094.0,903.0,3331.0,890.0,2216.0,2525.0,1995.0,,,,-0.0701700736928195,-2.37297761970896,0.0481022083625762,,-3.2006170012857664,,
,4096.0,901.0,3331.0,891.0,2209.0,2530.0,1996.0,,,,-0.0707139231357175,-2.37341694882974,0.0481119488174092,,-3.128575851135073,,
,4093.0,901.0,3329.0,892.0,2201.0,2523.0,2001.0,,,,-0.0707695863583886,-2.37331370921227,0.0479036843541413,,-3.021742150114922,,
,4094.0,902.0,3331.0,890.0,2205.0,2551.0,1995.0,,,,-0.0708275238248265,-2.37368564875327,0.0480510969419347,,-2.8784937495154805,,
,4093.0,901.0,3331.0,890.0,2213.0,2564.0,1990.0,,,,-0.0708772592788558,-2.37374627544972,0.0481894920083098,,-2.6976042626137557,,
,4090.0,901.0,3329.0,893.0,2203.0,2561.0,1995.0,,,,-0.070780202039715,-2.3741964209198,0.0480095898255551,,-2.47836449485785,,
,4092.0,901.0,3328.0,890.0,2218.0,2528.0,1994.0,,,,-0.0708480447014657,-2.37380872142695,0.0479220447605402,,-2.220681400361192,,
,4093.0,901.0,3326.0,889.0,2214.0,2536.0,1991.0,,,,-0.0707242919769626,-2.37397963393673,0.0479007173070974,,-1.9251553934840722,,
,4091.0,899.0,3327.0,891.0,2212.0,2538.0,1996.0,,,,-0.0706484236624753,-2.37390453903478,0.0481219902859323,,-1.593140611059853,,
,4089.0,901.0,3327.0,891.0,2212.0,2535.0,1996.0,,,,-0.070589235127104,-2.37344531042168,0.0480416294333774,,-1.2267951076977495,,
,4091.0,899.0,3325.0,890.0,2225.0,2533.0,1992.0,,,,-0.0703401606820807,-2.37319869571708,0.048248872451352,,-0.8291280555000421,,
,4088.0,901.0,3328.0,889.0,2234.0,2524.0,2002.0,,,,-0.0704233994885368,-2.37307917150618,0.048180741289928,,-0.404048382352305,,
,4085.0,900.0,3326.0,891.0,2224.0,2518.0,1993.0,,,,-0.0702332692365971,-2.37283817264264,0.0481097404364572,,0.04358565576621563,,
,4087.0,903.0,3328.0,893.0,2215.0,2524.0,1993.0,,,,-0.07005401098375,-2.37293245336687,0.0481191046880111,,0.5079226253070045,,
,4086.0,897.0,3326.0,887.0,2210.0,2521.0,1988.0,,,,-0.0698806313608928,-2.37262767482618,0.0481312447547537,,0.9820924911169339,,
