TimeLabel,MEAS1_PPG1,MEAS1_PPG2,MEAS1_PPG3,MEAS1_PPG4,ACCX,ACCY,ACCZ,HR_timestamp,HR_value,radar_timestamp,phase_rx0,phase_rx1,phase_rx2,timestep,n_process,original_rate,calculated_rate
2025-08-05 16:21:38,7163.0,828.0,5541.0,1107.0,-195.0,1462.0,3647.0,2025-08-05 16:22:09,96.0,2025/08/05 04:21:38 PM,-0.0176920800062217,-2.35021672876807,-0.0607411238489838,2025/08/05 04:21:38 PM,0.9920789706212447,20.532320022583008,20.02653381205526
,7165.0,830.0,5548.0,1110.0,-199.0,1462.0,3660.0,2025-08-05 16:22:10,94.0,,-0.0177298937029615,-2.35029293267231,-0.060816024729262,2025/08/05 04:21:48 PM,1.423965891134433,20.325202941894528,23.05345709199583
,7165.0,827.0,5545.0,1105.0,-194.0,1480.0,3675.0,2025-08-05 16:22:11,93.0,,-0.0177280479937441,-2.35027480274314,-0.0605531411162347,2025/08/05 04:21:58 PM,1.8526803231369198,21.171487808227536,21.89445829841972
,7167.0,827.0,5544.0,1106.0,-184.0,1460.0,3661.0,2025-08-05 16:22:12,92.0,,-0.0177019028381835,-2.35054264477883,-0.0604198315137322,2025/08/05 04:22:08 PM,2.270894084789212,21.86588859558105,20.003704732796148
,7168.0,828.0,5550.0,1109.0,-198.0,1443.0,3657.0,2025-08-05 16:22:13,91.0,,-0.0176683545371111,-2.34982795633438,-0.0610858709412839,2025/08/05 04:22:18 PM,2.6704755187279585,22.01467704772949,21.892453951277478
,7169.0,830.0,5552.0,1110.0,-193.0,1437.0,3664.0,2025-08-05 16:22:14,90.0,,-0.0176143494595798,-2.34970587553153,-0.0604984556559554,2025/08/05 04:22:28 PM,3.0425083585680617,21.38275146484375,21.586578678315806
,7169.0,829.0,5550.0,1107.0,-202.0,1444.0,3657.0,2025-08-05 16:22:15,90.0,,-0.017605365022935,-2.34944072942016,-0.0606761226608316,2025/08/05 04:22:38 PM,3.377453915012472,21.18644142150879,20.814466861285428
,7168.0,828.0,5554.0,1107.0,-213.0,1457.0,3676.0,2025-08-05 16:22:16,89.0,,-0.0175956742315275,-2.34947354500058,-0.0607552588472849,2025/08/05 04:22:48 PM,3.6654710326086857,21.39800262451172,22.64688491103585
,7169.0,830.0,5557.0,1109.0,-222.0,1451.0,3662.0,2025-08-05 16:22:17,88.0,,-0.0175814526819447,-2.34961169161915,-0.0606978506332859,2025/08/05 04:22:58 PM,3.8968858431258884,21.582733154296875,22.388346707149566
,7174.0,827.0,5558.0,1112.0,-223.0,1445.0,3663.0,2025-08-05 16:22:18,87.0,,-0.0175214174014152,-2.34961366868989,-0.0604553905034483,2025/08/05 04:23:08 PM,4.062780246204736,21.994134902954105,22.65765311270307
,7174.0,828.0,5559.0,1112.0,-186.0,1454.0,3655.0,2025-08-05 16:22:19,86.0,,-0.0175079208350989,-2.34977584352238,-0.060469574214552,2025/08/05 04:23:18 PM,4.155646638077225,22.790054321289062,20.257611241217788
,7174.0,829.0,5560.0,1111.0,-194.0,1472.0,3678.0,2025-08-05 16:22:20,85.0,,-0.0175596349690302,-2.34964315483457,-0.0603984823576105,2025/08/05 04:23:28 PM,4.170039560228981,21.645021438598636,18.7847945626558
,7178.0,829.0,5564.0,1114.0,-211.0,1463.0,3679.0,2025-08-05 16:22:21,84.0,,-0.0174696109212952,-2.34917532770722,-0.0600540234585881,2025/08/05 04:23:38 PM,4.1031459118568465,20.920503616333008,21.12604628355888
,7176.0,831.0,5566.0,1115.0,-213.0,1462.0,3686.0,2025-08-05 16:22:22,84.0,,-0.0174740347820538,-2.34889733499752,-0.0600589526168598,2025/08/05 04:23:48 PM,3.9551972427438895,20.24291610717773,21.11038820212532
,7179.0,831.0,5569.0,1112.0,-190.0,1454.0,3661.0,2025-08-05 16:22:23,84.0,,-0.0174381645978372,-2.34893746823166,-0.0594787598538176,2025/08/05 04:23:58 PM,3.729662225065042,20.61068725585937,17.439358372456976
,7181.0,829.0,5570.0,1113.0,-208.0,1450.0,3677.0,2025-08-05 16:22:24,83.0,,-0.0173511744621477,-2.34908168102304,-0.0602408698237084,2025/08/05 04:24:08 PM,3.433183827222615,19.636363983154297,13.004587155963286
,7186.0,832.0,5575.0,1114.0,-213.0,1444.0,3653.0,2025-08-05 16:22:25,82.0,,-0.0174029796259443,-2.34849626398096,-0.0598885873590448,2025/08/05 04:24:18 PM,3.075259594980556,16.961130142211914,20.206058131754716
,7185.0,830.0,5576.0,1117.0,-191.0,1448.0,3670.0,2025-08-05 16:22:26,81.0,,-0.0175220025369422,-2.34831867235838,-0.0599466860661259,2025/08/05 04:24:28 PM,2.667697650642297,16.355140686035156,20.952380952380967
,7187.0,833.0,5581.0,1117.0,-187.0,1454.0,3661.0,2025-08-05 16:22:27,81.0,,-0.0175099344387753,-2.34838670969784,-0.059786565603279,,2.223908204780915,,
,7186.0,830.0,5579.0,1117.0,-185.0,1454.0,3672.0,2025-08-05 16:22:28,80.0,,-0.0176338705531143,-2.34848876650935,-0.0598535674281184,,1.7581058692047353,,
,7189.0,832.0,5583.0,1119.0,-216.0,1463.0,3661.0,2025-08-05 16:22:29,80.0,,-0.0173924503966459,-2.34816157692015,-0.059663095792903,,1.284501070945039,,
,7192.0,833.0,5585.0,1119.0,-203.0,1475.0,3659.0,2025-08-05 16:22:30,80.0,,-0.0174974529421111,-2.34851530213263,-0.0599406257306257,,0.8165514440062052,,
,7194.0,833.0,5589.0,1119.0,-209.0,1472.0,3655.0,2025-08-05 16:22:31,81.0,,-0.0174181395454374,-2.34858974191734,-0.0599252417144976,,0.3663292939201336,,
,7193.0,831.0,5589.0,1121.0,-222.0,1463.0,3664.0,2025-08-05 16:22:32,80.0,,-0.0174634923200626,-2.34815290550266,-0.060207262709783,,-0.05595789586312975,,
,7196.0,833.0,5591.0,1118.0,-215.0,1444.0,3686.0,2025-08-05 16:22:33,80.0,,-0.0174075048651799,-2.34858272874882,-0.0599396127057826,,-0.4422776416234739,,
,7198.0,834.0,5595.0,1121.0,-199.0,1451.0,3671.0,2025-08-05 16:22:34,80.0,,-0.0172134301484514,-2.34827384288232,-0.0599648447280712,,-0.7869166477399263,,
,7200.0,835.0,5600.0,1122.0,-201.0,1453.0,3682.0,2025-08-05 16:22:35,80.0,,-0.0173416884083254,-2.34809693606725,-0.0595590949081507,,-1.0864783295191198,,
,7200.0,833.0,5600.0,1123.0,-200.0,1449.0,3680.0,2025-08-05 16:22:36,80.0,,-0.0171886642778561,-2.34887071228048,-0.0592763979845752,,-1.3397633331275265,,
,7201.0,834.0,5603.0,1124.0,-197.0,1444.0,3667.0,2025-08-05 16:22:37,80.0,,-0.0172921971772502,-2.34849265474774,-0.0596678842680299,,-1.5475662308090687,,
,7205.0,834.0,5606.0,1124.0,-196.0,1455.0,3684.0,2025-08-05 16:22:38,81.0,,-0.0172530764235285,-2.34909145544762,-0.0599727854686309,,-1.7124183853280046,,
,7205.0,834.0,5604.0,1125.0,-193.0,1457.0,3658.0,2025-08-05 16:22:39,82.0,,-0.0173838571512289,-2.34870086590861,-0.0602667659543812,,-1.838298766933843,,
,7210.0,837.0,5610.0,1125.0,-196.0,1456.0,3655.0,2025-08-05 16:22:40,81.0,,-0.0172881484962625,-2.34909977206859,-0.0601417794042904,,-1.9303244111984135,,
,7209.0,834.0,5613.0,1127.0,-207.0,1435.0,3661.0,2025-08-05 16:22:41,81.0,,-0.0172610334322468,-2.3489725277736,-0.0594084337795898,,-1.9944239588075308,,
,7210.0,835.0,5613.0,1128.0,-196.0,1458.0,3660.0,2025-08-05 16:22:42,81.0,,-0.0172317990880659,-2.34884277230333,-0.0601539624503739,,-2.0369939908846875,,
,7212.0,836.0,5617.0,1129.0,-198.0,1457.0,3678.0,2025-08-05 16:22:43,80.0,,-0.017246388192451,-2.34886784315388,-0.0600863224114671,,-2.0645390644201167,,
,7215.0,836.0,5615.0,1129.0,-205.0,1453.0,3684.0,2025-08-05 16:22:44,80.0,,-0.0172527667825363,-2.34882102542529,-0.0596550648668711,,-2.0833009265251454,,
,7212.0,835.0,5619.0,1129.0,-205.0,1461.0,3665.0,2025-08-05 16:22:45,80.0,,-0.0172734996855376,-2.3488868432457,-0.0602061086539314,,-2.0988882470938695,,
,7210.0,834.0,5620.0,1126.0,-214.0,1451.0,3665.0,2025-08-05 16:22:46,80.0,,-0.0172245713133471,-2.34890320340357,-0.0598362023497884,,-2.115923768238136,,
,7211.0,836.0,5621.0,1130.0,-210.0,1438.0,3677.0,2025-08-05 16:22:47,80.0,,-0.0171943785905063,-2.34895617389943,-0.0599551985366292,,-2.1377301410723697,,
,7209.0,836.0,5618.0,1126.0,-209.0,1440.0,3668.0,2025-08-05 16:22:48,80.0,,-0.0172147118586847,-2.34848044076376,-0.0598297729061382,,-2.1660783917926105,,
,7204.0,835.0,5618.0,1128.0,-231.0,1452.0,3656.0,2025-08-05 16:22:49,80.0,,-0.0172911229631927,-2.3487595178091,-0.0601170261974757,,-2.2010234453876767,,
,7200.0,834.0,5611.0,1124.0,-204.0,1463.0,3649.0,2025-08-05 16:22:50,80.0,,-0.0173178046787781,-2.34895992794722,-0.0592859866752762,,-2.24084885957389,,
,7195.0,836.0,5611.0,1125.0,-203.0,1462.0,3665.0,2025-08-05 16:22:51,80.0,,-0.0172089837528918,-2.34870830967312,-0.0597611187334214,,-2.282137271241709,,
,7189.0,835.0,5606.0,1122.0,-206.0,1458.0,3682.0,2025-08-05 16:22:52,80.0,,-0.0173865997633992,-2.34858373326979,-0.060170309143907,,-2.3199736065551817,,
,7181.0,834.0,5599.0,1121.0,-218.0,1461.0,3685.0,2025-08-05 16:22:53,80.0,,-0.017366297759371,-2.34900567061498,-0.0602903671495325,,-2.3482750493007556,,
,7175.0,829.0,5593.0,1115.0,-208.0,1454.0,3662.0,2025-08-05 16:22:54,79.0,,-0.0173693176447087,-2.34914239322459,-0.0601602271914757,,-2.3602264899282535,,
,7171.0,829.0,5588.0,1116.0,-207.0,1465.0,3675.0,2025-08-05 16:22:55,79.0,,-0.0177932120847854,-2.34992628368232,-0.0604633472082497,,-2.3487855447493513,,
,7164.0,831.0,5583.0,1114.0,-205.0,1449.0,3664.0,2025-08-05 16:22:56,80.0,,-0.0179120486013747,-2.35021183293545,-0.0607752286032532,,-2.307210869528119,,
,7158.0,831.0,5581.0,1114.0,-200.0,1436.0,3652.0,2025-08-05 16:22:57,80.0,,-0.0178493209483347,-2.35132667114369,-0.0610202481139682,,-2.2295641352324296,,
,7149.0,829.0,5574.0,1111.0,-220.0,1439.0,3647.0,2025-08-05 16:22:58,81.0,,-0.0180534341263787,-2.35196334871926,-0.0617049868763876,,-2.111140147921841,,
,7149.0,828.0,5569.0,1109.0,-225.0,1453.0,3649.0,2025-08-05 16:22:59,81.0,,-0.0180946320650425,-2.35238656098166,-0.0620084091369119,,-1.9487895917706775,,
,7146.0,829.0,5566.0,1111.0,-203.0,1455.0,3664.0,2025-08-05 16:23:00,81.0,,-0.0183454097267592,-2.35254246902447,-0.0622919722513728,,-1.7411126200862448,,
,7140.0,830.0,5563.0,1110.0,-206.0,1453.0,3662.0,2025-08-05 16:23:01,80.0,,-0.0183151523888519,-2.35313122216375,-0.0619244004761313,,-1.488517364444727,,
,7137.0,831.0,5562.0,1109.0,-216.0,1454.0,3666.0,2025-08-05 16:23:02,79.0,,-0.0184863724714381,-2.35301190000788,-0.0625748241150462,,-1.1931539061306842,,
,7135.0,826.0,5558.0,1104.0,-195.0,1445.0,3653.0,2025-08-05 16:23:03,78.0,,-0.0183916520645906,-2.35319904568686,-0.0626273106902416,,-0.8587493464141314,,
,7131.0,825.0,5557.0,1108.0,-186.0,1443.0,3665.0,2025-08-05 16:23:04,77.0,,-0.0184193422069513,-2.35357264636042,-0.0623926966293586,,-0.49038075351742,,
,7132.0,828.0,5557.0,1108.0,-196.0,1465.0,3660.0,2025-08-05 16:23:05,77.0,,-0.018441303847132,-2.35371468460553,-0.0628213920203562,,-0.09422749929648915,,
,7129.0,827.0,5553.0,1104.0,-200.0,1462.0,3662.0,2025-08-05 16:23:06,77.0,,-0.0185201252975527,-2.35368165117144,-0.0623456079608842,,0.32265870592144313,,
,7127.0,827.0,5553.0,1103.0,-209.0,1448.0,3654.0,2025-08-05 16:23:07,76.0,,-0.0184167609274269,-2.35336748218549,-0.0626018218861095,,0.7525388910819969,,
,7128.0,828.0,5553.0,1106.0,-217.0,1468.0,3656.0,2025-08-05 16:23:08,77.0,,-0.0184368998527981,-2.35327169204037,-0.0623549395642593,,1.1871169429666415,,
,7125.0,828.0,5554.0,1105.0,-217.0,1455.0,3658.0,2025-08-05 16:23:09,77.0,,-0.0183696024411911,-2.35262805403253,-0.0621891092475228,,1.6176241161627263,,
,7125.0,828.0,5554.0,1106.0,-216.0,1458.0,3666.0,2025-08-05 16:23:10,77.0,,-0.0182125536669951,-2.35200317549702,-0.062024213458449,,2.0348842319757745,,
,7124.0,825.0,5552.0,1101.0,-211.0,1452.0,3681.0,2025-08-05 16:23:11,77.0,,-0.0181039772854583,-2.35182613977133,-0.0618491564914765,,2.429395862059807,,
,7124.0,825.0,5552.0,1104.0,-199.0,1441.0,3668.0,2025-08-05 16:23:12,77.0,,-0.0181070175976633,-2.35159537612102,-0.0616635262773606,,2.791468401471132,,
,7126.0,827.0,5554.0,1105.0,-205.0,1427.0,3686.0,2025-08-05 16:23:13,77.0,,-0.0181038407649556,-2.35171544090953,-0.0615848332154875,,3.11144061140047,,
,7123.0,828.0,5554.0,1105.0,-216.0,1435.0,3684.0,2025-08-05 16:23:14,77.0,,-0.018005131025695,-2.35187928975915,-0.0612965022801731,,3.379995547168856,,
,7124.0,829.0,5556.0,1105.0,-214.0,1435.0,3674.0,2025-08-05 16:23:15,78.0,,-0.0179758945140387,-2.35164806781988,-0.0619781198893041,,3.5885679345503334,,
,7123.0,827.0,5554.0,1106.0,-209.0,1463.0,3682.0,2025-08-05 16:23:16,78.0,,-0.0180045459067835,-2.35181926024192,-0.0622274871068043,,3.7298216574360663,,
,7123.0,826.0,5555.0,1108.0,-212.0,1461.0,3667.0,2025-08-05 16:23:17,78.0,,-0.018069387429297,-2.35162928217577,-0.0614728423561155,,3.798158070668992,,
,7124.0,827.0,5555.0,1106.0,-208.0,1464.0,3662.0,2025-08-05 16:23:18,79.0,,-0.0181049279545638,-2.35179795059468,-0.0615472967294867,,3.790202162005452,,
,7124.0,828.0,5556.0,1105.0,-196.0,1467.0,3658.0,2025-08-05 16:23:19,79.0,,-0.0179581541435079,-2.35092293228523,-0.0612094661097458,,3.7052052986928463,,
,7124.0,825.0,5557.0,1105.0,-197.0,1453.0,3666.0,2025-08-05 16:23:20,80.0,,-0.0180365867452796,-2.35119418520011,-0.0613942532801543,,3.5453029603457664,,
,7123.0,826.0,5556.0,1107.0,-192.0,1453.0,3667.0,2025-08-05 16:23:21,81.0,,-0.0179704206815237,-2.3509446467602,-0.0610715833548473,,3.3155756992880887,,
,7125.0,829.0,5558.0,1105.0,-209.0,1463.0,3663.0,2025-08-05 16:23:22,80.0,,-0.017782247819157,-2.35120888432212,-0.0611736772007704,,3.0238821510905662,,
,7123.0,828.0,5559.0,1107.0,-202.0,1463.0,3673.0,2025-08-05 16:23:23,80.0,,-0.0177352961717686,-2.35133086249313,-0.0608252739839779,,2.6804620840943643,,
,7121.0,826.0,5559.0,1105.0,-201.0,1467.0,3674.0,2025-08-05 16:23:24,79.0,,-0.017793525085766,-2.35114735907285,-0.0609932603349696,,2.29734015306414,,
,7121.0,827.0,5556.0,1104.0,-195.0,1455.0,3666.0,2025-08-05 16:23:25,79.0,,-0.0177573584697659,-2.35103202342728,-0.0605496732812696,,1.8875902108530265,,
,7123.0,828.0,5560.0,1106.0,-202.0,1456.0,3669.0,2025-08-05 16:23:26,79.0,,-0.0178543121164264,-2.35138748159941,-0.0605515214318075,,1.4645390232517528,,
,7119.0,827.0,5558.0,1106.0,-207.0,1442.0,3666.0,2025-08-05 16:23:27,78.0,,-0.0178384922226632,-2.35109659042633,-0.0610096618442938,,1.0409932089704914,,
,7120.0,827.0,5559.0,1105.0,-200.0,1437.0,3658.0,2025-08-05 16:23:28,79.0,,-0.0179976883868933,-2.35148102316003,-0.0613830918589375,,0.6285645273354026,,
,7117.0,828.0,5555.0,1105.0,-224.0,1460.0,3654.0,2025-08-05 16:23:29,79.0,,-0.0180114188097664,-2.35130308664962,-0.0613662010876623,,0.2371498070362998,,
,7116.0,827.0,5555.0,1103.0,-216.0,1454.0,3669.0,2025-08-05 16:23:30,80.0,,-0.0180809182505286,-2.35138660296315,-0.0613116759909587,,-0.1254024228764939,,
,7114.0,829.0,5558.0,1106.0,-203.0,1451.0,3665.0,2025-08-05 16:23:31,80.0,,-0.0179523760118916,-2.35164222782346,-0.0614296664028499,,-0.45343178396076383,,
,7115.0,828.0,5557.0,1104.0,-203.0,1468.0,3665.0,2025-08-05 16:23:32,81.0,,-0.018040605431215,-2.35159348497263,-0.0616269056826195,,-0.7434283718968189,,
,7113.0,827.0,5555.0,1107.0,-207.0,1483.0,3669.0,2025-08-05 16:23:33,81.0,,-0.0179114200938415,-2.35114006934448,-0.0612922073308017,,-0.9938514890555603,,
,7110.0,826.0,5554.0,1103.0,-218.0,1460.0,3682.0,2025-08-05 16:23:34,82.0,,-0.0178992801025811,-2.35160449040034,-0.0615947378170747,,-1.2048503139096662,,
,7110.0,828.0,5555.0,1105.0,-209.0,1461.0,3663.0,2025-08-05 16:23:35,82.0,,-0.0179339576001138,-2.35154977324334,-0.0617296029891852,,-1.37793649102524,,
,7109.0,827.0,5555.0,1105.0,-203.0,1457.0,3666.0,2025-08-05 16:23:36,82.0,,-0.0179300851876262,-2.35156403219153,-0.0613938078473414,,-1.5156557350170934,,
,7108.0,829.0,5555.0,1102.0,-214.0,1461.0,3667.0,2025-08-05 16:23:37,81.0,,-0.0179569533295723,-2.35158471272921,-0.0615819232299594,,-1.6212958013709071,,
,7108.0,826.0,5555.0,1103.0,-207.0,1465.0,3680.0,2025-08-05 16:23:38,81.0,,-0.0180457462700747,-2.35169694838304,-0.0613895501168454,,-1.69865313698188,,
,7107.0,826.0,5555.0,1105.0,-211.0,1459.0,3686.0,2025-08-05 16:23:39,81.0,,-0.0181736822807771,-2.35177705544353,-0.0613463714416935,,-1.7518630296029531,,
,7110.0,828.0,5556.0,1104.0,-223.0,1455.0,3673.0,2025-08-05 16:23:40,81.0,,-0.0181467950806771,-2.35253792503329,-0.0613420079264681,,-1.7852819927191457,,
,7110.0,825.0,5556.0,1103.0,-216.0,1445.0,3666.0,2025-08-05 16:23:41,81.0,,-0.0181413361634083,-2.35210616729083,-0.0617877984219145,,-1.8034002112554652,,
,7108.0,825.0,5555.0,1105.0,-213.0,1452.0,3654.0,2025-08-05 16:23:42,81.0,,-0.0181279278947998,-2.35234250898849,-0.0615942966936844,,-1.8107582158261633,,
,7108.0,828.0,5560.0,1105.0,-192.0,1459.0,3679.0,2025-08-05 16:23:43,80.0,,-0.0182711199221425,-2.35211713059754,-0.0620528342225259,,-1.8118451460071852,,
,7111.0,827.0,5558.0,1105.0,-202.0,1461.0,3676.0,2025-08-05 16:23:44,81.0,,-0.018216926530405,-2.35218875286756,-0.0615149991052535,,-1.8109638174608824,,
,7112.0,828.0,5559.0,1104.0,-196.0,1461.0,3682.0,2025-08-05 16:23:45,81.0,,-0.0181337694068409,-2.35231579920842,-0.0617981083410203,,-1.8120578180245568,,
,7111.0,829.0,5559.0,1105.0,-195.0,1462.0,3652.0,2025-08-05 16:23:46,81.0,,-0.0182069524054295,-2.35232785022335,-0.0621426399729307,,-1.8185061423711362,,
,7111.0,828.0,5563.0,1105.0,-199.0,1446.0,3649.0,2025-08-05 16:23:47,81.0,,-0.0182255894567199,-2.35214234631986,-0.0616793885948909,,-1.8329001756443473,,
,7115.0,830.0,5568.0,1105.0,-190.0,1455.0,3664.0,2025-08-05 16:23:48,82.0,,-0.018310949773498,-2.35261009156339,-0.0616587748933005,,-1.856825167028352,,
,7117.0,830.0,5567.0,1110.0,-211.0,1474.0,3664.0,2025-08-05 16:23:49,82.0,,-0.0182535546839403,-2.35212330576745,-0.0619780256543144,,-1.890672856401179,,
,7116.0,829.0,5568.0,1109.0,-210.0,1471.0,3667.0,2025-08-05 16:23:50,82.0,,-0.018182505565098,-2.35240583847676,-0.0619040966137967,,-1.9335130035875605,,
,7119.0,827.0,5567.0,1108.0,-206.0,1469.0,3668.0,2025-08-05 16:23:51,83.0,,-0.0181538098715173,-2.35204269121748,-0.0617797069297518,,-1.9830487831314703,,
,7123.0,828.0,5568.0,1112.0,-211.0,1470.0,3653.0,2025-08-05 16:23:52,83.0,,-0.0181771522549421,-2.35193413738286,-0.06136298057087,,-2.0356740675210365,,
,7122.0,829.0,5572.0,1111.0,-210.0,1453.0,3660.0,2025-08-05 16:23:53,83.0,,-0.0182341328836729,-2.35192378568293,-0.0620474171807422,,-2.0866396380693493,,
,7123.0,830.0,5574.0,1110.0,-217.0,1460.0,3668.0,2025-08-05 16:23:54,83.0,,-0.0180837374901836,-2.35212732585717,-0.0614927924761441,,-2.1303213960755776,,
,7124.0,830.0,5576.0,1112.0,-222.0,1465.0,3676.0,2025-08-05 16:23:55,84.0,,-0.0181127909557252,-2.35228518929183,-0.0616006920050733,,-2.160569197600008,,
,7124.0,829.0,5576.0,1113.0,-221.0,1457.0,3675.0,2025-08-05 16:23:56,84.0,,-0.0181284845755115,-2.35198116951864,-0.0618899821213537,,-2.1711035287273224,,
,7127.0,829.0,5581.0,1112.0,-218.0,1437.0,3655.0,2025-08-05 16:23:57,84.0,,-0.0181217204848577,-2.35167348116398,-0.0622017823335418,,-2.1559217805458224,,
,7129.0,831.0,5583.0,1114.0,-218.0,1438.0,3664.0,2025-08-05 16:23:58,83.0,,-0.0180083125917579,-2.35137345511755,-0.0614411843444508,,-2.109677014134091,,
,7131.0,830.0,5584.0,1114.0,-208.0,1461.0,3672.0,2025-08-05 16:23:59,83.0,,-0.0180240226057936,-2.3508067311883,-0.0610121230524921,,-2.027998204882567,,
,7131.0,830.0,5586.0,1112.0,-212.0,1457.0,3665.0,2025-08-05 16:24:00,83.0,,-0.0178883745111205,-2.35084116762939,-0.0611177310035721,,-1.9077296906905432,,
,7132.0,830.0,5587.0,1112.0,-216.0,1466.0,3681.0,2025-08-05 16:24:01,82.0,,-0.017879747274423,-2.35087163360827,-0.0611372046730836,,-1.7470773357095226,,
,7135.0,832.0,5591.0,1116.0,-206.0,1453.0,3672.0,2025-08-05 16:24:02,82.0,,-0.0177216777921943,-2.35046710682424,-0.0607038370276724,,-1.5456591821013135,,
,7137.0,834.0,5593.0,1117.0,-218.0,1448.0,3666.0,2025-08-05 16:24:03,83.0,,-0.0178392122943804,-2.35093856888371,-0.0609923244059895,,-1.3044688591656695,,
,7138.0,831.0,5593.0,1116.0,-231.0,1444.0,3637.0,2025-08-05 16:24:04,83.0,,-0.0179074745211816,-2.35080356664288,-0.0607899526116306,,-1.0257701123363576,,
,7142.0,831.0,5597.0,1116.0,-204.0,1459.0,3657.0,2025-08-05 16:24:05,84.0,,-0.018013567576304,-2.35118826770596,-0.0610565135943784,,-0.7129491109155449,,
,7141.0,830.0,5601.0,1118.0,-211.0,1472.0,3678.0,2025-08-05 16:24:06,84.0,,-0.0181587337889811,-2.35140054963781,-0.0609983713815672,,-0.37035565370933665,,
,7145.0,835.0,5602.0,1120.0,-220.0,1471.0,3687.0,2025-08-05 16:24:07,84.0,,-0.0181408830679169,-2.35191838710626,-0.0610587777183327,,-0.0031629475624534473,,
,7148.0,832.0,5603.0,1122.0,-221.0,1465.0,3699.0,2025-08-05 16:24:08,83.0,,-0.0181741404026263,-2.35163582268836,-0.0610829688562425,,0.38273275562344,,
,7146.0,831.0,5602.0,1121.0,-216.0,1449.0,3665.0,2025-08-05 16:24:09,83.0,,-0.0180964927933512,-2.35130562671304,-0.0611449649147036,,0.7807657316647503,,
,7149.0,832.0,5606.0,1120.0,-200.0,1453.0,3666.0,2025-08-05 16:24:10,83.0,,-0.018104801230121,-2.3511461208027,-0.0610235419291231,,1.1837177073967757,,
,7150.0,833.0,5609.0,1124.0,-195.0,1462.0,3684.0,2025-08-05 16:24:11,83.0,,-0.0180054320493,-2.35112985733168,-0.0611530084711591,,1.5837234242651381,,
,7153.0,833.0,5612.0,1122.0,-193.0,1460.0,3673.0,2025-08-05 16:24:12,83.0,,-0.0179343651264796,-2.35087977079676,-0.0609578665389465,,1.9722991132508956,,
,7152.0,834.0,5612.0,1119.0,-201.0,1462.0,3652.0,2025-08-05 16:24:13,83.0,,-0.01796702995335,-2.35082227041005,-0.0611785551280699,,2.3404289211967946,,
,7153.0,832.0,5613.0,1124.0,-212.0,1455.0,3653.0,2025-08-05 16:24:14,84.0,,-0.0180034237100336,-2.35102481559749,-0.060726744158356,,2.6787375114075203,,
,7158.0,837.0,5614.0,1126.0,-214.0,1455.0,3654.0,2025-08-05 16:24:15,84.0,,-0.01796982771817,-2.35077713424519,-0.0617618587272281,,2.977764788176651,,
,7161.0,835.0,5618.0,1127.0,-214.0,1454.0,3659.0,2025-08-05 16:24:16,84.0,,-0.0181622683634665,-2.35111400388902,-0.061700642960944,,3.228343138742945,,
2025-08-05 16:21:39,7158.0,834.0,5619.0,1125.0,-207.0,1473.0,3656.0,2025-08-05 16:24:17,84.0,2025/08/05 04:21:39 PM,-0.0182134895276222,-2.35107996968411,-0.0616462475558647,,3.4220605009800855,,
,7155.0,834.0,5618.0,1125.0,-215.0,1476.0,3663.0,2025-08-05 16:24:18,84.0,,-0.0182879816495347,-2.35117940101557,-0.0614316406953538,,3.5517756760724666,,
,7154.0,836.0,5616.0,1123.0,-209.0,1458.0,3663.0,2025-08-05 16:24:19,84.0,,-0.0182924316821079,-2.35177454810924,-0.0621566100556748,,3.6121377022311973,,
,7150.0,833.0,5612.0,1122.0,-214.0,1456.0,3646.0,2025-08-05 16:24:20,84.0,,-0.018349935277853,-2.35200358617208,-0.0618559756739317,,3.600051222647079,,
,7143.0,832.0,5609.0,1120.0,-207.0,1456.0,3658.0,2025-08-05 16:24:21,84.0,,-0.0183880162776826,-2.35241137471313,-0.0617250366138219,,3.515027081658314,,
,7135.0,832.0,5605.0,1120.0,-202.0,1470.0,3678.0,2025-08-05 16:24:22,84.0,,-0.0184189965719269,-2.35187908232763,-0.0619870556481252,,3.359363895230453,,
,7133.0,833.0,5600.0,1119.0,-196.0,1458.0,3696.0,2025-08-05 16:24:23,84.0,,-0.0183778329032716,-2.35182285366721,-0.0618690849776873,,3.13812296786365,,
,7124.0,833.0,5595.0,1114.0,-186.0,1424.0,3671.0,2025-08-05 16:24:24,84.0,,-0.0183002136598645,-2.3515615850604,-0.061904343604208,,2.858884476216289,,
,7115.0,829.0,5591.0,1113.0,-199.0,1426.0,3680.0,2025-08-05 16:24:25,84.0,,-0.0182327581001927,-2.35149010914722,-0.0619533540783453,,2.531303211058504,,
,7108.0,830.0,5580.0,1109.0,-211.0,1423.0,3666.0,2025-08-05 16:24:26,84.0,,-0.0181746342053169,-2.35145010592467,-0.0614468009708645,,2.1665107509361214,,
,7101.0,831.0,5574.0,1111.0,-223.0,1428.0,3680.0,2025-08-05 16:24:27,84.0,,-0.0180828020902821,-2.35084584197754,-0.0619185646922927,,1.7764308549301733,,
,7096.0,829.0,5569.0,1108.0,-188.0,1449.0,3682.0,2025-08-05 16:24:28,83.0,,-0.0180926844687735,-2.35119029179256,-0.0611904706079271,,1.3730819348330243,,
,7089.0,828.0,5562.0,1107.0,-181.0,1457.0,3680.0,2025-08-05 16:24:29,83.0,,-0.0180748606942381,-2.35106515102176,-0.0618729152968648,,0.9679347184106587,,
,7082.0,825.0,5556.0,1102.0,-214.0,1462.0,3684.0,2025-08-05 16:24:30,83.0,,-0.0180425526428071,-2.3509896793815,-0.0617033447110149,,0.571377976958484,,
,7077.0,823.0,5551.0,1103.0,-207.0,1445.0,3655.0,2025-08-05 16:24:31,82.0,,-0.0182011981762771,-2.35142329435334,-0.0615729035860742,,0.19232502565360887,,
,7072.0,824.0,5549.0,1102.0,-195.0,1450.0,3650.0,2025-08-05 16:24:32,82.0,,-0.0182260647021006,-2.35222555329711,-0.0615240627286452,,-0.1620272661430793,,
,7069.0,827.0,5546.0,1099.0,-200.0,1464.0,3669.0,2025-08-05 16:24:33,82.0,,-0.0183210966625007,-2.35241973324006,-0.0619465695603561,,-0.4862940116131578,,
,7065.0,823.0,5540.0,1098.0,-207.0,1461.0,3680.0,2025-08-05 16:24:34,82.0,,-0.0185853079473515,-2.3535702726056,-0.0627479248377431,,-0.7768742124192293,,
,7059.0,825.0,5540.0,1098.0,-201.0,1452.0,3682.0,2025-08-05 16:24:35,81.0,,-0.0186479635662219,-2.35445640924625,-0.0630101914191867,,-1.0318305559427385,,
,7061.0,824.0,5539.0,1099.0,-199.0,1447.0,3662.0,2025-08-05 16:24:36,81.0,,-0.0188883345095642,-2.35520939827104,-0.0633661415410278,,-1.250712678504071,,
,7057.0,823.0,5535.0,1098.0,-212.0,1436.0,3651.0,2025-08-05 16:24:37,80.0,,-0.0189489636975294,-2.35549028813882,-0.0634931522639491,,-1.434357612263655,,
,7055.0,820.0,5533.0,1095.0,-213.0,1442.0,3657.0,2025-08-05 16:24:38,80.0,,-0.019105362059931,-2.35600289020731,-0.0645055030476416,,-1.5846936506433775,,
,7052.0,820.0,5530.0,1096.0,-199.0,1458.0,3680.0,2025-08-05 16:24:39,79.0,,-0.0191748378913004,-2.35639436189929,-0.0640799045810176,,-1.7045620166251572,,
,7048.0,822.0,5533.0,1096.0,-201.0,1467.0,3678.0,2025-08-05 16:24:40,79.0,,-0.0191906343083532,-2.35693621694757,-0.0639408771969421,,-1.7975570409849544,,
,7049.0,820.0,5529.0,1094.0,-223.0,1466.0,3668.0,2025-08-05 16:24:41,79.0,,-0.0191995330291708,-2.35675683211832,-0.0645091076172427,,-1.8678736509263367,,
,7047.0,819.0,5527.0,1094.0,-231.0,1461.0,3652.0,2025-08-05 16:24:42,78.0,,-0.0192242021032029,-2.35649206081028,-0.0642668454657738,,-1.9201443323801606,,
,7045.0,822.0,5528.0,1094.0,-223.0,1458.0,3635.0,2025-08-05 16:24:43,78.0,,-0.0191127387949315,-2.35617516017236,-0.0644695007506505,,-1.959248073228364,,
,7044.0,820.0,5526.0,1094.0,-212.0,1442.0,3654.0,2025-08-05 16:24:44,78.0,,-0.0190455592116137,-2.35597794338032,-0.064177100687295,,-1.990080253772026,,
,7045.0,823.0,5526.0,1095.0,-200.0,1447.0,3683.0,2025-08-05 16:24:45,77.0,,-0.0189809877917411,-2.35591526583967,-0.0639270494673011,,-2.0172824742611133,,
,7042.0,821.0,5525.0,1094.0,-213.0,1461.0,3690.0,2025-08-05 16:24:46,77.0,,-0.0189110171979277,-2.35519816876741,-0.0639915738289811,,-2.044942223823477,,
,7045.0,823.0,5529.0,1094.0,-219.0,1450.0,3671.0,2025-08-05 16:24:47,77.0,,-0.0188191479531608,-2.35484183532051,-0.0635284418155815,,-2.0762821658678288,,
,7040.0,820.0,5525.0,1092.0,-227.0,1435.0,3642.0,2025-08-05 16:24:48,77.0,,-0.0189888300810769,-2.35476311500229,-0.0632818938394241,,-2.1133664210275787,,
,7043.0,821.0,5527.0,1093.0,-227.0,1454.0,3635.0,2025-08-05 16:24:49,77.0,,-0.0189849420488829,-2.35482503961659,-0.0632658172829617,,-2.1568557426886126,,
,7042.0,822.0,5527.0,1094.0,-212.0,1471.0,3662.0,2025-08-05 16:24:50,77.0,,-0.0189282801459374,-2.35503782079824,-0.0642105371626471,,-2.2058442730305345,,
,7043.0,823.0,5531.0,1095.0,-217.0,1473.0,3669.0,2025-08-05 16:24:51,77.0,,-0.0188661287540042,-2.35473261468221,-0.0635161603006265,,-2.2578071624342404,,
,7040.0,821.0,5526.0,1094.0,-209.0,1449.0,3643.0,2025-08-05 16:24:52,76.0,,-0.0188636380764125,-2.35457366476585,-0.0636894675711815,,-2.3086804355924855,,
,7041.0,820.0,5526.0,1093.0,-204.0,1446.0,3646.0,2025-08-05 16:24:53,76.0,,-0.0187688177317004,-2.35472460966868,-0.063376798522512,,-2.3530821250724725,,
,7038.0,824.0,5526.0,1095.0,-202.0,1450.0,3647.0,2025-08-05 16:24:54,76.0,,-0.0188952806168658,-2.35458467380644,-0.063763902382014,,-2.38466754886571,,
,7040.0,822.0,5529.0,1093.0,-206.0,1461.0,3680.0,2025-08-05 16:24:55,76.0,,-0.0187450290535208,-2.35462037287228,-0.0635368667450839,,-2.396593459468734,,
,7037.0,820.0,5528.0,1094.0,-200.0,1458.0,3701.0,2025-08-05 16:24:56,77.0,,-0.0187753552581396,-2.35465895161642,-0.0635423900503116,,-2.3820487906855035,,
,7036.0,819.0,5526.0,1093.0,-202.0,1463.0,3694.0,2025-08-05 16:24:57,78.0,,-0.0187560996183375,-2.35461150572306,-0.0631347463269195,,-2.3347978463133625,,
,7039.0,822.0,5526.0,1092.0,-216.0,1452.0,3670.0,2025-08-05 16:24:58,78.0,,-0.0186669921659821,-2.35408148342153,-0.0627016805764395,,-2.2496781531126993,,
,7036.0,822.0,5525.0,1094.0,-215.0,1441.0,3668.0,2025-08-05 16:24:59,79.0,,-0.0187166110514327,-2.35450010579277,-0.0628742457999381,,-2.1230005979987996,,
,7034.0,820.0,5525.0,1092.0,-221.0,1439.0,3671.0,2025-08-05 16:25:00,79.0,,-0.0186865180683865,-2.35428698698986,-0.0634621290829206,,-1.9528122871020865,,
,7029.0,820.0,5525.0,1093.0,-217.0,1453.0,3693.0,2025-08-05 16:25:01,79.0,,-0.0185351333438141,-2.35396580962706,-0.0630929303173883,,-1.739000171900264,,
,7034.0,818.0,5525.0,1092.0,-213.0,1466.0,3661.0,2025-08-05 16:25:02,79.0,,-0.0185526659131441,-2.35445075733344,-0.0631671225698937,,-1.483233351761012,,
,7031.0,821.0,5523.0,1093.0,-217.0,1458.0,3640.0,2025-08-05 16:25:03,79.0,,-0.0184754377207368,-2.35409454591122,-0.062625343925388,,-1.1887618118237198,,
,7029.0,820.0,5521.0,1092.0,-215.0,1452.0,3654.0,2025-08-05 16:25:04,79.0,,-0.018574808527288,-2.35356509839685,-0.0626996774791847,,-0.8601068540105937,,
,7030.0,821.0,5521.0,1093.0,-216.0,1448.0,3671.0,2025-08-05 16:25:05,79.0,,-0.0184613380639534,-2.35341078488495,-0.0623540577187603,,-0.5026911941083068,,
,7028.0,820.0,5521.0,1092.0,-224.0,1445.0,3673.0,2025-08-05 16:25:06,79.0,,-0.0185384121440028,-2.35344755189198,-0.0629267379032744,,-0.12246256661084587,,
,7025.0,819.0,5523.0,1090.0,-217.0,1463.0,3677.0,2025-08-05 16:25:07,79.0,,-0.0185709645699027,-2.35343027364398,-0.0629586158573473,,0.2744374375116683,,
,7027.0,821.0,5521.0,1090.0,-211.0,1461.0,3667.0,2025-08-05 16:25:08,79.0,,-0.0186410042267765,-2.35398942978812,-0.0626819116451237,,0.6819176250732459,,
,7026.0,821.0,5519.0,1093.0,-214.0,1457.0,3669.0,,,,-0.0186906572356427,-2.35401047186768,-0.0632360294330499,,1.0940696025241279,,
,7025.0,819.0,5519.0,1091.0,-213.0,1433.0,3673.0,,,,-0.0187236878906731,-2.35440537014123,-0.0629211910081696,,1.5051843624315688,,
,7025.0,820.0,5519.0,1090.0,-209.0,1443.0,3673.0,,,,-0.0186729806858313,-2.35451269618684,-0.062845653883805,,1.9096707397550257,,
,7023.0,821.0,5520.0,1092.0,-205.0,1463.0,3687.0,,,,-0.0186692055998903,-2.35463312640883,-0.0626266128661777,,2.301911430729589,,
,7025.0,819.0,5521.0,1092.0,-202.0,1469.0,3680.0,,,,-0.0186848533659177,-2.35490018340252,-0.0627493202874621,,2.676102890790297,,
,7028.0,819.0,5519.0,1091.0,-201.0,1463.0,3677.0,,,,-0.0186883109880536,-2.35450848547813,-0.0628907954761129,,3.0261270604040966,,
,7025.0,819.0,5519.0,1092.0,-203.0,1451.0,3654.0,,,,-0.0186240685610418,-2.35497101111032,-0.0633678032587048,,3.3454965040913858,,
,7027.0,819.0,5524.0,1093.0,-219.0,1448.0,3656.0,,,,-0.018715517494675,-2.35461862903856,-0.0633193483428969,,3.6274026676061863,,
,7028.0,822.0,5524.0,1095.0,-212.0,1439.0,3654.0,,,,-0.0187557407676226,-2.35484529204618,-0.0632971353879456,,3.8648819393582587,,
,7030.0,821.0,5520.0,1095.0,-214.0,1447.0,3661.0,,,,-0.0186797044766312,-2.35452342446436,-0.0633367421809865,,4.0510976099162965,,
,7030.0,818.0,5523.0,1094.0,-198.0,1452.0,3672.0,,,,-0.0186694415797446,-2.35447304811943,-0.0631957882518946,,4.179718781764584,,
,7033.0,822.0,5527.0,1094.0,-202.0,1446.0,3660.0,,,,-0.0188016277212026,-2.35439875735427,-0.0631941562964198,,4.245361203585358,,
,7033.0,822.0,5526.0,1094.0,-234.0,1443.0,3641.0,,,,-0.0187955505070985,-2.35432908058746,-0.0632731816667465,,4.244042003537224,,
,7035.0,821.0,5529.0,1093.0,-232.0,1428.0,3648.0,,,,-0.018679518512147,-2.35407495974466,-0.063334152276535,,4.1735930395565415,,
,7036.0,821.0,5529.0,1095.0,-218.0,1436.0,3665.0,,,,-0.0187146743163476,-2.35422677009808,-0.0631182108799216,,4.033978563819709,,
,7038.0,821.0,5531.0,1093.0,-210.0,1441.0,3698.0,,,,-0.0187647647120401,-2.35483107785667,-0.0630487870392956,,3.8274732829696245,,
,7039.0,823.0,5532.0,1097.0,-208.0,1443.0,3690.0,,,,-0.0186480261436355,-2.35480422446513,-0.06349482419912,,3.5586753902322243,,
,7040.0,822.0,5535.0,1097.0,-201.0,1444.0,3676.0,,,,-0.0189217255927394,-2.35449156600975,-0.0635948482867885,,3.2343516722838848,,
,7044.0,821.0,5536.0,1098.0,-212.0,1444.0,3662.0,,,,-0.0189522137690446,-2.35453157050272,-0.0632027430743866,,2.863132782972343,,
,7042.0,820.0,5535.0,1097.0,-207.0,1456.0,3659.0,,,,-0.0189779969388307,-2.35466042783233,-0.0633003448699581,,2.455091687830433,,
,7043.0,826.0,5539.0,1098.0,-215.0,1465.0,3675.0,,,,-0.0188657306072747,-2.35485245012941,-0.0634041347622444,,2.0212455530266547,,
,7045.0,823.0,5542.0,1099.0,-215.0,1463.0,3671.0,,,,-0.018793520604448,-2.35480730034701,-0.0634273342237455,,1.5730222350375158,,
,7046.0,824.0,5544.0,1100.0,-213.0,1469.0,3681.0,,,,-0.0186924179851049,-2.35506326049456,-0.0635511888467398,,1.121729331727784,,
,7048.0,822.0,5543.0,1100.0,-216.0,1456.0,3665.0,,,,-0.0187037541184225,-2.35452634462704,-0.0638394099496492,,0.6780582805102792,,
,7052.0,821.0,5545.0,1103.0,-220.0,1446.0,3664.0,,,,-0.0186443647785777,-2.35426720087026,-0.0634333875122325,,0.2516491846499499,,
,7053.0,824.0,5548.0,1101.0,-212.0,1447.0,3661.0,,,,-0.0185030726358367,-2.35457091654281,-0.0627333514807253,,-0.14926552151855177,,
,7055.0,825.0,5550.0,1103.0,-201.0,1456.0,3657.0,,,,-0.0184040150118098,-2.35396040809278,-0.0630234201740099,,-0.5181281352617474,,
,7055.0,824.0,5551.0,1103.0,-181.0,1455.0,3669.0,,,,-0.0183899099497536,-2.35362979141355,-0.0630570088322143,,-0.8502299000669029,,
,7058.0,823.0,5552.0,1102.0,-204.0,1463.0,3670.0,,,,-0.0183967837706845,-2.35386777396861,-0.0632380589884024,,-1.142793755060449,,
,7059.0,824.0,5552.0,1102.0,-225.0,1452.0,3659.0,,,,-0.0184670176399642,-2.35417397573974,-0.06247589012349,,-1.394969196280474,,
,7061.0,825.0,5558.0,1106.0,-222.0,1468.0,3666.0,,,,-0.0185010893286046,-2.35393611703629,-0.0629798190536697,,-1.6077421769793403,,
,7063.0,825.0,5559.0,1105.0,-223.0,1460.0,3669.0,,,,-0.0182964714684989,-2.35362347179978,-0.0627550464805715,,-1.7837607487875535,,
,7064.0,824.0,5558.0,1106.0,-225.0,1463.0,3683.0,,,,-0.0183359224987017,-2.35348371923316,-0.0627229976647056,,-1.9270758650439956,,
,7066.0,826.0,5561.0,1107.0,-207.0,1459.0,3684.0,,,,-0.0182632132900555,-2.353018984159,-0.062561524782447,,-2.0427989538769724,,
,7067.0,826.0,5565.0,1108.0,-213.0,1462.0,3676.0,,,,-0.0182313854947366,-2.35329458479652,-0.062585374605405,,-2.1366843854044264,,
,7068.0,825.0,5568.0,1109.0,-225.0,1460.0,3684.0,,,,-0.0183687830074388,-2.35371339103612,-0.0630542964383254,,-2.2146544759449753,,
,7070.0,823.0,5568.0,1107.0,-218.0,1445.0,3653.0,,,,-0.0183976362244619,-2.35366945228198,-0.0624964990429865,,-2.282294653385311,,
,7073.0,827.0,5572.0,1108.0,-216.0,1466.0,3664.0,,,,-0.0183641396284454,-2.35388168503648,-0.0627919518078454,,-2.344354470616139,,
,7076.0,827.0,5572.0,1110.0,-204.0,1464.0,3682.0,,,,-0.0182977163505959,-2.35433628702238,-0.0627893559595173,,-2.404294796567035,,
,7079.0,829.0,5573.0,1110.0,-196.0,1464.0,3668.0,,,,-0.0183156677072442,-2.35393004050231,-0.0629290808662908,,-2.463922113093541,,
,7079.0,826.0,5575.0,1111.0,-201.0,1434.0,3654.0,,,,-0.0184576880331773,-2.35426931926272,-0.0632428020472488,,-2.5231472908291783,,
,7080.0,826.0,5576.0,1112.0,-219.0,1434.0,3651.0,,,,-0.0184555686266476,-2.35428838120704,-0.062912101586205,,-2.5798985317561507,,
,7082.0,829.0,5580.0,1112.0,-218.0,1446.0,3668.0,,,,-0.0184212183436979,-2.35397509765921,-0.062819626565582,,-2.630206378412116,,
,7081.0,827.0,5581.0,1112.0,-214.0,1454.0,3682.0,,,,-0.0184366764667195,-2.35378602524854,-0.06314462851058,,-2.668463075200627,,
,7080.0,827.0,5578.0,1112.0,-204.0,1457.0,3678.0,,,,-0.0183668130932607,-2.35407487545745,-0.0629120837679886,,-2.6878401713921436,,
,7074.0,825.0,5577.0,1110.0,-221.0,1459.0,3666.0,,,,-0.0184435719539368,-2.35400152274983,-0.0631893688898062,,-2.6808293984862273,,
,7075.0,824.0,5574.0,1110.0,-220.0,1460.0,3679.0,,,,-0.0183487805510325,-2.35403029913149,-0.0627649440558072,,-2.6398561230393565,,
,7068.0,825.0,5571.0,1110.0,-205.0,1461.0,3668.0,,,,-0.018306261824574,-2.35359990277204,-0.0628963671141357,,-2.55790586081684,,
,7060.0,826.0,5567.0,1109.0,-208.0,1459.0,3673.0,,,,-0.0183116386126826,-2.35321394116568,-0.0628636530096015,,-2.429104644213121,,
,7054.0,822.0,5558.0,1103.0,-207.0,1451.0,3675.0,,,,-0.0182493569635982,-2.35387187735814,-0.0628087744345409,,-2.249203050257786,,
,7046.0,824.0,5553.0,1099.0,-195.0,1432.0,3678.0,,,,-0.0182843977632344,-2.35337296644745,-0.0621303724288338,,-2.0159290183206373,,
,7041.0,825.0,5547.0,1102.0,-209.0,1425.0,3672.0,,,,-0.0182865048132843,-2.35361494293195,-0.0630827717772598,,-1.7291931450785683,,
,7032.0,821.0,5542.0,1099.0,-219.0,1432.0,3687.0,,,,-0.0182603130704134,-2.3540145292439,-0.0627244899358677,,-1.3911489288043173,,
,7026.0,821.0,5535.0,1094.0,-202.0,1440.0,3695.0,,,,-0.0182289992446817,-2.35403490067913,-0.0623689913321655,,-1.0061266159218305,,
,7019.0,817.0,5528.0,1090.0,-209.0,1459.0,3695.0,,,,-0.0183581580252293,-2.35366407333485,-0.0633619102935348,,-0.5804704279384203,,
,7016.0,818.0,5524.0,1091.0,-209.0,1452.0,3672.0,,,,-0.0186540144173588,-2.35449094387288,-0.0636069974755662,,-0.12231339284047225,,
,7006.0,816.0,5518.0,1093.0,-225.0,1448.0,3665.0,,,,-0.0188340278774231,-2.3545781592991,-0.0631674063590383,,0.358678669010898,,
,7007.0,817.0,5513.0,1088.0,-232.0,1454.0,3665.0,,,,-0.0189744718244187,-2.35517244027914,-0.0636764149274056,,0.8515714776028629,,
,6998.0,817.0,5508.0,1087.0,-222.0,1453.0,3676.0,,,,-0.0190746738290966,-2.35601137913523,-0.0640868300581445,,1.3444259420809013,,
,6995.0,816.0,5505.0,1088.0,-210.0,1443.0,3669.0,,,,-0.0190855790823544,-2.35656566096284,-0.064440621483727,,1.824567270890776,,
,6992.0,817.0,5501.0,1086.0,-209.0,1456.0,3664.0,,,,-0.0192872686963068,-2.35692925369851,-0.0642836701928213,,2.278878606634816,,
,6989.0,815.0,5497.0,1085.0,-203.0,1455.0,3668.0,,,,-0.0193166365617841,-2.35669442641725,-0.0642193078540174,,2.694144754177571,,
,6984.0,815.0,5496.0,1083.0,-211.0,1452.0,3670.0,,,,-0.0193741969224708,-2.35714374171744,-0.0648944245063401,,3.0574687094373427,,
,6983.0,814.0,5495.0,1085.0,-203.0,1459.0,3699.0,,,,-0.0192958237539653,-2.35792365572721,-0.0648972307915621,,3.3567713038014904,,
,6983.0,814.0,5494.0,1082.0,-215.0,1456.0,3664.0,,,,-0.0193277644499506,-2.3580433331936,-0.0650010365725709,,3.581365121226174,,
,6983.0,817.0,5494.0,1083.0,-212.0,1454.0,3670.0,,,,-0.019352774221674,-2.35777004397816,-0.0655250049886373,,3.7225722542865096,,
,6981.0,812.0,5490.0,1081.0,-226.0,1437.0,3664.0,,,,-0.0193704914750851,-2.35818053201867,-0.0655626830927307,,3.7743357508922557,,
,6974.0,812.0,5488.0,1078.0,-232.0,1450.0,3650.0,,,,-0.0194516482337524,-2.35849810756972,-0.0647922406872418,,3.7337603064530693,,
,6975.0,811.0,5484.0,1081.0,-209.0,1454.0,3676.0,,,,-0.0194221388848947,-2.3580301418264,-0.065103522421492,,3.601511676051699,,
,6975.0,813.0,5489.0,1083.0,-211.0,1449.0,3690.0,,,,-0.0193484805259266,-2.35762565719197,-0.0648313653780579,,3.38200851188737,,
,6975.0,814.0,5487.0,1079.0,-206.0,1455.0,3692.0,,,,-0.0191372818997118,-2.35701020536413,-0.0649290099155404,,3.08335585139676,,
,6970.0,812.0,5481.0,1079.0,-228.0,1450.0,3677.0,,,,-0.0191870889532905,-2.35715420472514,-0.0649634573282001,,2.7169954981107174,,
,6971.0,812.0,5483.0,1078.0,-229.0,1449.0,3683.0,,,,-0.0191521234891778,-2.35661091528642,-0.0649782779160435,,2.2970820650555157,,
,6973.0,813.0,5483.0,1078.0,-224.0,1437.0,3676.0,,,,-0.019102336650027,-2.35664388795992,-0.064410321813006,,1.8396294625192937,,
,6971.0,813.0,5484.0,1081.0,-201.0,1445.0,3671.0,,,,-0.0190836502433081,-2.35663363376751,-0.0645283610583678,,1.3615047840448877,,
,6973.0,812.0,5485.0,1079.0,-202.0,1447.0,3668.0,,,,-0.0190400098076461,-2.35640560267529,-0.0644180725536341,,0.87936846867189,,
2025-08-05 16:21:40,6972.0,813.0,5479.0,1077.0,-213.0,1456.0,3671.0,,,2025/08/05 04:21:40 PM,-0.0190977243211358,-2.35633393655324,-0.0648251287836897,,0.4086664844472178,,
,6971.0,813.0,5481.0,1078.0,-209.0,1456.0,3668.0,,,,-0.0190849160908827,-2.35615659005958,-0.0643062785095451,,-0.037229315103147205,,
,6970.0,813.0,5483.0,1078.0,-222.0,1478.0,3670.0,,,,-0.0190344375594584,-2.35574320588551,-0.0642442749593354,,-0.44765977197079515,,
,6972.0,811.0,5484.0,1080.0,-224.0,1470.0,3674.0,,,,-0.0190489493845622,-2.35600522953103,-0.0639529238430458,,-0.8150541543136629,,
,6969.0,812.0,5481.0,1078.0,-206.0,1477.0,3676.0,,,,-0.0189259811772146,-2.35594219132696,-0.0650753937196222,,-1.135033781634266,,
,6971.0,812.0,5482.0,1078.0,-204.0,1460.0,3667.0,,,,-0.019149331071734,-2.35598470096101,-0.0643350757550933,,-1.4062633119953443,,
,6970.0,814.0,5482.0,1082.0,-212.0,1454.0,3652.0,,,,-0.0190844297224209,-2.35583339168493,-0.0643998175689234,,-1.6300921313421064,,
,6971.0,813.0,5483.0,1081.0,-213.0,1446.0,3644.0,,,,-0.0191466060925374,-2.355800535044,-0.0643037731678855,,-1.810043429904614,,
,6970.0,813.0,5480.0,1080.0,-220.0,1451.0,3647.0,,,,-0.0188917822154628,-2.355385258924,-0.0639388388043983,,-1.9512159453623665,,
,6963.0,811.0,5476.0,1078.0,-215.0,1461.0,3664.0,,,,-0.0189881328429665,-2.35512113080717,-0.0640602423721248,,-2.059663236150553,,
,6963.0,811.0,5477.0,1079.0,-222.0,1458.0,3673.0,,,,-0.0188165818836107,-2.3550107500695,-0.063488719564029,,-2.1418082640656717,,
,6965.0,814.0,5479.0,1077.0,-216.0,1451.0,3663.0,,,,-0.0189016467409593,-2.35473352243953,-0.0637678541220336,,-2.203937961492188,,
,6962.0,811.0,5476.0,1078.0,-214.0,1450.0,3658.0,,,,-0.0188516309824102,-2.35478406857046,-0.0634607080988503,,-2.251804910896471,,
,6961.0,811.0,5476.0,1078.0,-212.0,1452.0,3687.0,,,,-0.018774994118145,-2.35431224603575,-0.0634802740255029,,-2.290343744676696,,
,6961.0,810.0,5474.0,1077.0,-203.0,1437.0,3680.0,,,,-0.0189779653776197,-2.3548037176932,-0.0642893849255044,,-2.3234918698690525,,
,6960.0,810.0,5474.0,1074.0,-206.0,1442.0,3693.0,,,,-0.019026265787632,-2.35469675433843,-0.0641408687251643,,-2.3540915149718664,,
,6962.0,809.0,5474.0,1074.0,-226.0,1459.0,3677.0,,,,-0.0189619758883753,-2.35484507967054,-0.0636109159298632,,-2.3838455574018367,,
,6962.0,810.0,5471.0,1077.0,-210.0,1458.0,3676.0,,,,-0.0189240196787323,-2.35487977581689,-0.0635648400414311,,-2.4133031504842664,,
,6958.0,811.0,5472.0,1076.0,-213.0,1445.0,3663.0,,,,-0.0189168830011704,-2.35525778246906,-0.0635371561670179,,-2.4418603640551324,,
,6961.0,811.0,5472.0,1077.0,-213.0,1440.0,3687.0,,,,-0.0189125653937522,-2.35518231399982,-0.0640327728302852,,-2.4677724081526735,,
,6965.0,813.0,5475.0,1079.0,-216.0,1445.0,3679.0,,,,-0.0188278359428368,-2.35458497461334,-0.0642863082443814,,-2.4881844548284415,,
,6962.0,810.0,5473.0,1077.0,-212.0,1459.0,3690.0,,,,-0.0188546892662229,-2.35487749022167,-0.0640640859313334,,-2.499195518063178,,
,6961.0,810.0,5471.0,1077.0,-215.0,1457.0,3684.0,,,,-0.0188504016471372,-2.35538093674396,-0.0640585255609929,,-2.4959731706236457,,
,6962.0,809.0,5472.0,1076.0,-223.0,1447.0,3657.0,,,,-0.0188995644896255,-2.35538826810788,-0.0645164032806028,,-2.4729357571628423,,
,6963.0,813.0,5474.0,1078.0,-213.0,1449.0,3640.0,,,,-0.0189893689076581,-2.35581415303092,-0.0643998299967844,,-2.424013532850711,,
,6965.0,812.0,5477.0,1078.0,-216.0,1456.0,3654.0,,,,-0.0191729440982154,-2.35533459361638,-0.0646846368928654,,-2.3429915580079506,,
,6963.0,811.0,5475.0,1076.0,-213.0,1467.0,3659.0,,,,-0.0191391894781059,-2.35596045541203,-0.064737438362604,,-2.2239262024504987,,
,6965.0,813.0,5477.0,1077.0,-201.0,1460.0,3664.0,,,,-0.0189668908864192,-2.35559803611479,-0.0646948524156443,,-2.0616150045096333,,
,6966.0,812.0,5478.0,1079.0,-203.0,1457.0,3657.0,,,,-0.0190622821557619,-2.356287559301,-0.064987145819282,,-1.852087979061451,,
,6969.0,816.0,5479.0,1081.0,-197.0,1460.0,3648.0,,,,-0.0189064190935598,-2.35584665481064,-0.0641639586294903,,-1.5930792934683276,,
,6969.0,812.0,5480.0,1079.0,-228.0,1466.0,3665.0,,,,-0.0188978375898647,-2.35551770958402,-0.0642128767694766,,-1.2844338874065881,,
,6970.0,809.0,5478.0,1077.0,-224.0,1472.0,3659.0,,,,-0.0189030369947399,-2.35545237437398,-0.0646946863374238,,-0.9284060396710708,,
,6971.0,811.0,5480.0,1079.0,-199.0,1474.0,3667.0,,,,-0.0188523824236411,-2.35536400200762,-0.0644718528352279,,-0.5298161960969984,,
,6974.0,811.0,5485.0,1080.0,-228.0,1442.0,3662.0,,,,-0.0187853637467571,-2.35507644835057,-0.0638899692743865,,-0.0960462081953902,,
,6977.0,812.0,5486.0,1082.0,-229.0,1441.0,3647.0,,,,-0.0187378299676816,-2.35449277320126,-0.0634218356654556,,0.36313212820338114,,
,6978.0,813.0,5488.0,1082.0,-219.0,1446.0,3661.0,,,,-0.0186748095503301,-2.35428435869982,-0.0634109285760524,,0.8358875300564598,,
,6980.0,812.0,5486.0,1080.0,-207.0,1463.0,3651.0,,,,-0.0186600011911677,-2.35416315895183,-0.0635186963517661,,1.3088010638834489,,
,6981.0,814.0,5490.0,1085.0,-216.0,1460.0,3683.0,,,,-0.0186907685524982,-2.35426675395296,-0.063729722978724,,1.7674542553028758,,
,6983.0,813.0,5490.0,1084.0,-214.0,1448.0,3697.0,,,,-0.0185462345121693,-2.35386096793973,-0.0637590861738863,,2.1971023514344292,,
,6986.0,814.0,5493.0,1085.0,-224.0,1438.0,3654.0,,,,-0.0186015827081904,-2.35395877534077,-0.0632873489266724,,2.5833964276145878,,
,6987.0,812.0,5494.0,1084.0,-231.0,1437.0,3639.0,,,,-0.0185965397390203,-2.3538319993767,-0.0636637722853336,,2.9131135599491462,,
,6989.0,815.0,5498.0,1085.0,-213.0,1448.0,3659.0,,,,-0.0186487737863518,-2.35394804909255,-0.0635825111400853,,3.1748509519294483,,
,6991.0,813.0,5500.0,1086.0,-220.0,1469.0,3671.0,,,,-0.0187176984683867,-2.35389993997862,-0.0632487481216685,,3.359638596382759,,
,6994.0,816.0,5501.0,1088.0,-223.0,1472.0,3683.0,,,,-0.0186826168087496,-2.35409666372562,-0.0636038201968768,,3.461427032740765,,
,6993.0,814.0,5503.0,1085.0,-216.0,1446.0,3672.0,,,,-0.0187491644336695,-2.35381144027442,-0.0632727243755022,,3.4774131931664956,,
,6999.0,813.0,5505.0,1088.0,-208.0,1441.0,3663.0,,,,-0.0184962285701544,-2.35322502526581,-0.0626472501180025,,3.4081784126404164,,
,7000.0,818.0,5506.0,1090.0,-226.0,1447.0,3657.0,,,,-0.0184509343605206,-2.35323774344882,-0.0631662674960868,,3.257627037061253,,
,7003.0,815.0,5508.0,1090.0,-223.0,1457.0,3661.0,,,,-0.0184650131999992,-2.35330945317716,-0.0634826021061068,,3.0327294117749717,,
,7004.0,814.0,5508.0,1088.0,-222.0,1475.0,3666.0,,,,-0.0184123530507356,-2.35343326695344,-0.063081625718962,,2.7430876387650565,,
,7004.0,816.0,5513.0,1091.0,-213.0,1475.0,3695.0,,,,-0.0185265836988964,-2.35320092714332,-0.0632184457443986,,2.4003557576785104,,
,7008.0,819.0,5515.0,1091.0,-218.0,1454.0,3661.0,,,,-0.0185318032310493,-2.35333403681714,-0.0630466353486745,,2.017557533088409,,
,7008.0,816.0,5516.0,1093.0,-219.0,1449.0,3656.0,,,,-0.0184699425593283,-2.35367643857806,-0.0630014740679029,,1.6083536103335876,,
,7013.0,817.0,5520.0,1092.0,-236.0,1438.0,3645.0,,,,-0.0184784425530758,-2.35322241208903,-0.0633688073175679,,1.1863136583056841,,
,7013.0,817.0,5521.0,1090.0,-232.0,1451.0,3677.0,,,,-0.0184083116304818,-2.35367259209063,-0.0635251845590285,,0.7642469248928848,,
,7015.0,815.0,5522.0,1093.0,-231.0,1455.0,3675.0,,,,-0.0184627893113058,-2.35319660807314,-0.0628421676259727,,0.35363627402475545,,
,7019.0,816.0,5524.0,1095.0,-215.0,1453.0,3654.0,,,,-0.0184311949294411,-2.35347569356883,-0.0630693725813163,,-0.035792478203463866,,
,7022.0,819.0,5527.0,1097.0,-225.0,1443.0,3646.0,,,,-0.0184332140597526,-2.35327447768721,-0.062926382905901,,-0.3963498299748792,,
,7019.0,815.0,5524.0,1097.0,-229.0,1435.0,3650.0,,,,-0.0184091135815296,-2.35268991118633,-0.0627940216846867,,-0.7225095272312427,,
,7024.0,819.0,5530.0,1097.0,-210.0,1439.0,3646.0,,,,-0.0182868472494015,-2.35262513502262,-0.062416875491027,,-1.0108940705175664,,
,7028.0,820.0,5533.0,1099.0,-195.0,1478.0,3667.0,,,,-0.0183062743643073,-2.35301933108247,-0.0625941077025251,,-1.260136595541337,,
,7027.0,821.0,5536.0,1100.0,-202.0,1479.0,3660.0,,,,-0.0184835840533996,-2.3527850985204,-0.0623700484726391,,-1.4706389881624229,,
,7031.0,818.0,5534.0,1099.0,-191.0,1444.0,3665.0,,,,-0.0184265969411306,-2.35264124159895,-0.0626141060893898,,-1.6442452752745715,,
,7029.0,818.0,5536.0,1097.0,-193.0,1440.0,3637.0,,,,-0.0183285907064914,-2.35241707655549,-0.0623538452253002,,-1.783848641701397,,
,7035.0,820.0,5541.0,1101.0,-206.0,1446.0,3628.0,,,,-0.0182846958811066,-2.35221061543027,-0.062560465875045,,-1.892952247545495,,
,7039.0,820.0,5542.0,1101.0,-204.0,1458.0,3666.0,,,,-0.0182546911152114,-2.35234307387358,-0.0626582475088413,,-1.9752086649003777,,
,7035.0,819.0,5544.0,1101.0,-201.0,1461.0,3672.0,,,,-0.0183310160184195,-2.35277201055376,-0.0626391259015292,,-2.0339684549788375,,
,7034.0,819.0,5538.0,1099.0,-209.0,1467.0,3645.0,,,,-0.0183651114761967,-2.35281529133372,-0.0624688935105623,,-2.0718726619660752,,
,7033.0,818.0,5539.0,1098.0,-230.0,1455.0,3632.0,,,,-0.0184198059804378,-2.35327781419508,-0.0631490159463729,,-2.0905248590833203,,
,7029.0,821.0,5539.0,1097.0,-229.0,1446.0,3650.0,,,,-0.0184367036158982,-2.35331140927957,-0.063239482638608,,-2.090274910284433,,
,7024.0,817.0,5537.0,1098.0,-228.0,1450.0,3669.0,,,,-0.0185615233750948,-2.35365955624249,-0.0635514795430586,,-2.070138800601499,,
,7016.0,818.0,5530.0,1095.0,-225.0,1457.0,3688.0,,,,-0.0185193737541826,-2.35406918849468,-0.0626226080526598,,-2.0278675317902346,,
,7010.0,816.0,5524.0,1094.0,-218.0,1462.0,3675.0,,,,-0.018620006612163,-2.35373714020123,-0.0634143447663936,,-1.9601645967606176,,
,7007.0,817.0,5520.0,1092.0,-233.0,1447.0,3663.0,,,,-0.0186229437115229,-2.35423151082795,-0.0636129640059743,,-1.8630375947258155,,
,7002.0,815.0,5512.0,1090.0,-226.0,1437.0,3653.0,,,,-0.0186941654218344,-2.35457513708649,-0.0636514682728984,,-1.732256596518154,,
,6995.0,813.0,5507.0,1086.0,-232.0,1438.0,3643.0,,,,-0.0187554376078303,-2.35475834255831,-0.0644140575859452,,-1.5638810081554535,,
,6986.0,812.0,5499.0,1083.0,-211.0,1450.0,3657.0,,,,-0.0190106934678171,-2.35592730048082,-0.0643413247658272,,-1.3548087111015898,,
,6983.0,811.0,5494.0,1083.0,-212.0,1463.0,3675.0,,,,-0.0190982959564213,-2.35631119012911,-0.0648662866730374,,-1.1032969529681473,,
,6979.0,813.0,5492.0,1082.0,-213.0,1462.0,3677.0,,,,-0.0192127426032895,-2.35700750946774,-0.0655955814168088,,-0.8094048512175034,,
,6976.0,811.0,5486.0,1081.0,-213.0,1465.0,3663.0,,,,-0.019227904587625,-2.3574233140404,-0.0657913482840683,,-0.47531352432979096,,
,6969.0,811.0,5479.0,1078.0,-212.0,1453.0,3646.0,,,,-0.0194176676710874,-2.35781299992612,-0.0653577862440937,,-0.10549185849090854,,
,6966.0,810.0,5479.0,1082.0,-208.0,1454.0,3652.0,,,,-0.0193912214367501,-2.35829693342867,-0.0652862456233975,,0.2933081171360573,,
,6965.0,810.0,5477.0,1080.0,-203.0,1455.0,3690.0,,,,-0.0195262759415363,-2.35843256809957,-0.0658083409987855,,0.7122256715952744,,
,6962.0,809.0,5471.0,1077.0,-203.0,1455.0,3687.0,,,,-0.0195322062362846,-2.35880429652007,-0.0660430014246617,,1.1406208568880933,,
,6961.0,809.0,5472.0,1076.0,-218.0,1453.0,3662.0,,,,-0.0194719515016567,-2.35846577204386,-0.0656531448612374,,1.5665338615569702,,
,6956.0,809.0,5468.0,1074.0,-222.0,1461.0,3645.0,,,,-0.01939304406481,-2.35827360506225,-0.0659586671401879,,1.9772422367953462,,
,6958.0,808.0,5466.0,1075.0,-206.0,1452.0,3662.0,,,,-0.0194226216507435,-2.35776221462181,-0.0657752397183846,,2.3598798011488413,,
,6957.0,809.0,5465.0,1077.0,-213.0,1455.0,3684.0,,,,-0.0193518785607755,-2.35777633119642,-0.065351484536561,,2.7020785455335643,,
,6954.0,807.0,5464.0,1071.0,-209.0,1460.0,3683.0,,,,-0.0192318824778129,-2.35739142714308,-0.0650424986765916,,2.9925936182684088,,
,6955.0,804.0,5460.0,1072.0,-209.0,1466.0,3691.0,,,,-0.0191401661985363,-2.35683293738186,-0.0650506845997004,,3.2218715470022197,,
,6954.0,806.0,5462.0,1075.0,-222.0,1443.0,3662.0,,,,-0.0191526021938599,-2.35647266300278,-0.064906055194451,,3.382523876574478,,
,6954.0,807.0,5463.0,1076.0,-208.0,1438.0,3659.0,,,,-0.0190937737903862,-2.35612399224604,-0.0645824883438536,,3.4696734620171195,,
,6956.0,807.0,5460.0,1074.0,-229.0,1431.0,3666.0,,,,-0.0190487833850345,-2.35633875773359,-0.0640593002315981,,3.481149870618928,,
,6951.0,810.0,5459.0,1070.0,-227.0,1448.0,3676.0,,,,-0.0190038591790313,-2.35624363484209,-0.0641875608933961,,3.4175238426239445,,
,6952.0,806.0,5460.0,1073.0,-196.0,1455.0,3696.0,,,,-0.0189137336922899,-2.3557492028589,-0.0644649500561736,,3.2819866891463025,,
,6956.0,808.0,5460.0,1074.0,-204.0,1451.0,3692.0,,,,-0.0189685575422642,-2.35612430008681,-0.0640637903624024,,3.080095298090213,,
,6954.0,808.0,5461.0,1070.0,-220.0,1443.0,3688.0,,,,-0.0189380821982512,-2.3561101029584,-0.0645649214471871,,2.8194135892792414,,
,6953.0,808.0,5462.0,1074.0,-223.0,1436.0,3648.0,,,,-0.0189386058769852,-2.35544964005051,-0.0643942993333749,,2.5090853592861637,,
,6952.0,810.0,5459.0,1073.0,-209.0,1458.0,3635.0,,,,-0.0188836718672807,-2.35546564250247,-0.0639178178642689,,2.159372418283456,,
,6954.0,809.0,5462.0,1074.0,-197.0,1466.0,3666.0,,,,-0.0188035642664205,-2.35530205708762,-0.0641873966564634,,1.781187763327866,,
,6956.0,810.0,5464.0,1074.0,-201.0,1448.0,3670.0,,,,-0.0189099930417536,-2.35555587202651,-0.0641372132904732,,1.3856479090366223,,
,6956.0,810.0,5462.0,1077.0,-212.0,1448.0,3658.0,,,,-0.0189011470795649,-2.35586238685179,-0.0643016012554711,,0.9836622144066649,,
,6955.0,807.0,5462.0,1073.0,-212.0,1452.0,3653.0,,,,-0.0187807311854862,-2.35552926292201,-0.0641568718624131,,0.5855704079381111,,
,6953.0,809.0,5463.0,1071.0,-210.0,1450.0,3658.0,,,,-0.018774680480535,-2.35557071830752,-0.0636820759255058,,0.20083286526909636,,
,6955.0,808.0,5465.0,1075.0,-204.0,1460.0,3652.0,,,,-0.0188385903931812,-2.3556199655532,-0.0639691513456535,,-0.16222775525619848,,
,6958.0,808.0,5460.0,1072.0,-197.0,1459.0,3650.0,,,,-0.0188335457702722,-2.35555714453271,-0.0640276042774172,,-0.4966390805418691,,
,6957.0,806.0,5460.0,1074.0,-223.0,1450.0,3657.0,,,,-0.0187975028334088,-2.3550770764396,-0.0644690304856209,,-0.7969525508886771,,
,6954.0,808.0,5464.0,1072.0,-214.0,1464.0,3655.0,,,,-0.0187445782854654,-2.35484623874119,-0.0637046495895435,,-1.0593820335327102,,
,6955.0,807.0,5463.0,1072.0,-214.0,1447.0,3649.0,,,,-0.0186611505850543,-2.35463217098701,-0.0635801956747629,,-1.2819052600699332,,
,6953.0,808.0,5461.0,1072.0,-193.0,1464.0,3669.0,,,,-0.0187560970774043,-2.35509464410922,-0.0641433930491701,,-1.4643172975230496,,
,6956.0,808.0,5461.0,1071.0,-196.0,1472.0,3687.0,,,,-0.0188186989144791,-2.35463439336036,-0.0640270159315008,,-1.608217778130404,,
,6955.0,806.0,5458.0,1072.0,-185.0,1468.0,3679.0,,,,-0.0188516583646319,-2.3553412213634,-0.0644387127896124,,-1.7169107152310141,,
,6953.0,806.0,5458.0,1072.0,-196.0,1469.0,3656.0,,,,-0.0189021636188004,-2.35518232559635,-0.0639723535965195,,-1.7951993879126196,,
,6954.0,808.0,5460.0,1072.0,-207.0,1454.0,3651.0,,,,-0.0189285104262521,-2.355308425076,-0.0642769798469432,,-1.8490683596280224,,
,6955.0,808.0,5458.0,1073.0,-213.0,1453.0,3653.0,,,,-0.0187916757023922,-2.35551575491285,-0.064185604113037,,-1.8852577398568036,,
,6955.0,807.0,5461.0,1069.0,-201.0,1464.0,3663.0,,,,-0.0188623292926981,-2.35565183454002,-0.0642000381790979,,-1.9107485901733359,,
,6955.0,805.0,5456.0,1070.0,-203.0,1463.0,3670.0,,,,-0.0187909002144041,-2.35509857725332,-0.0639371240846739,,-1.9321909555955443,,
,6954.0,808.0,5455.0,1071.0,-232.0,1463.0,3679.0,,,,-0.01875107809061,-2.35487149532777,-0.0644018610468728,,-1.9553161670310066,,
,6956.0,808.0,5459.0,1074.0,-226.0,1451.0,3678.0,,,,-0.0186902306971867,-2.35543170857255,-0.0637000121977044,,-1.9843819760583123,,
,6956.0,808.0,5459.0,1073.0,-223.0,1434.0,3657.0,,,,-0.0187525905053799,-2.35448217564561,-0.0639395634234007,,-2.021702019704007,,
,6956.0,808.0,5458.0,1071.0,-208.0,1444.0,3670.0,,,,-0.0187543455229529,-2.355107562248,-0.0640220375398688,,-2.0673093776535842,,
,6959.0,807.0,5461.0,1073.0,-202.0,1448.0,3669.0,,,,-0.0188348707103568,-2.35508099248929,-0.0639398313869073,,-2.118796997766067,,
,6961.0,808.0,5461.0,1073.0,-191.0,1456.0,3647.0,,,,-0.0188492268804064,-2.35531985713085,-0.0643809647455831,,-2.17136528469493,,
,6959.0,811.0,5462.0,1072.0,-197.0,1446.0,3637.0,,,,-0.0189386903770723,-2.3556124044061,-0.0646180141731932,,-2.218089527532718,,
,6964.0,808.0,5463.0,1072.0,-214.0,1452.0,3641.0,,,,-0.0188492810604337,-2.35555992819001,-0.064783586415919,,-2.250398214375242,,
,6965.0,810.0,5467.0,1075.0,-207.0,1456.0,3645.0,,,,-0.0189561319764271,-2.35590087783514,-0.0643408489996488,,-2.258729739741995,,
,6966.0,807.0,5465.0,1075.0,-198.0,1463.0,3666.0,,,,-0.0189567481417643,-2.35560222182743,-0.0639673490637501,,-2.23331288237818,,
,6966.0,808.0,5469.0,1074.0,-192.0,1467.0,3678.0,,,,-0.0188693262167358,-2.35467658711304,-0.0640381651996566,,-2.1649999824079673,,
,6971.0,807.0,5466.0,1077.0,-205.0,1459.0,3675.0,,,,-0.0189072380477757,-2.35529625032098,-0.0640386701199825,,-2.046074726970635,,
2025-08-05 16:21:41,6970.0,808.0,5470.0,1074.0,-195.0,1448.0,3677.0,,,2025/08/05 04:21:41 PM,-0.0189273041316881,-2.35550483653953,-0.0635411454074551,,-1.8709603267858024,,
,6974.0,808.0,5471.0,1078.0,-232.0,1437.0,3660.0,,,,-0.0187976080750491,-2.35509176378707,-0.0642725267486877,,-1.6367673305971857,,
,6975.0,810.0,5473.0,1075.0,-230.0,1449.0,3662.0,,,,-0.0187149020465242,-2.35446067817262,-0.0640493235824902,,-1.3436403224968867,,
,6978.0,812.0,5477.0,1077.0,-212.0,1437.0,3660.0,,,,-0.0187058247053447,-2.35458145352852,-0.0635764617333268,,-0.9948857312473409,,
,6977.0,808.0,5476.0,1074.0,-208.0,1448.0,3669.0,,,,-0.0185722251439409,-2.35440395686121,-0.0636739653946411,,-0.5968855536691934,,
,6981.0,810.0,5479.0,1080.0,-227.0,1442.0,3653.0,,,,-0.0186869075584718,-2.35436749128304,-0.0640869572394073,,-0.1588209549322151,,
,6981.0,810.0,5481.0,1079.0,-216.0,1444.0,3647.0,,,,-0.0186620047548841,-2.35402708152971,-0.0632003013982105,,0.3077568026666735,,
,6987.0,811.0,5483.0,1079.0,-215.0,1446.0,3660.0,,,,-0.0187900768544757,-2.35453882601883,-0.0639754309371362,,0.7894639445666591,,
,6986.0,808.0,5486.0,1080.0,-193.0,1458.0,3679.0,,,,-0.0186728783374278,-2.35422627008517,-0.0636483338173752,,1.2716860456990933,,
,6988.0,809.0,5488.0,1080.0,-199.0,1469.0,3653.0,,,,-0.0185984619958492,-2.35417771960057,-0.0633446823450823,,1.739205340119303,,
,6991.0,812.0,5490.0,1082.0,-215.0,1441.0,3655.0,,,,-0.0185834675917793,-2.35426300868851,-0.0634748566994177,,2.1768238388450087,,
,6993.0,814.0,5489.0,1081.0,-212.0,1433.0,3645.0,,,,-0.0186198335129974,-2.35396889386407,-0.0637272940677459,,2.5699635457491743,,
,6997.0,811.0,5494.0,1082.0,-220.0,1437.0,3659.0,,,,-0.0185460597190673,-2.3538270788639,-0.0637180216686119,,2.9052352408846556,,
,6997.0,813.0,5496.0,1084.0,-222.0,1455.0,3667.0,,,,-0.0185589881498198,-2.35383117328975,-0.0634636223278057,,3.170973717172618,,
,7001.0,812.0,5495.0,1084.0,-203.0,1478.0,3686.0,,,,-0.0184744697776656,-2.35371257811309,-0.0630569636592131,,3.357737275391128,,
,7004.0,813.0,5499.0,1086.0,-214.0,1471.0,3678.0,,,,-0.0184761651098175,-2.35394129153459,-0.0630681599930889,,3.458761973984172,,
,7006.0,814.0,5501.0,1085.0,-216.0,1467.0,3688.0,,,,-0.0185206281261186,-2.35358030255537,-0.062934195176963,,3.4703490202588405,,
,7007.0,812.0,5503.0,1084.0,-228.0,1463.0,3677.0,,,,-0.0184741767037129,-2.35353847460169,-0.0630170017892366,,3.3921516055112,,
,7010.0,812.0,5507.0,1087.0,-212.0,1459.0,3671.0,,,,-0.0184510989793872,-2.35334274323595,-0.0631671644707661,,3.227320574433704,,
,7014.0,816.0,5509.0,1087.0,-227.0,1461.0,3663.0,,,,-0.0184111324481563,-2.3533735888354,-0.0631334864162648,,2.9824701264201106,,
,7013.0,813.0,5505.0,1088.0,-230.0,1456.0,3670.0,,,,-0.0184501730062287,-2.35354507955311,-0.0627684676508314,,2.6674362243214054,,
,7012.0,814.0,5509.0,1086.0,-210.0,1454.0,3674.0,,,,-0.018464003185378,-2.35309729114845,-0.063128605040443,,2.2948197750620176,,
,7018.0,814.0,5512.0,1087.0,-189.0,1441.0,3663.0,,,,-0.0183797484050156,-2.35292542272328,-0.0633083816952056,,1.8793301300607559,,
,7022.0,814.0,5513.0,1090.0,-197.0,1457.0,3657.0,,,,-0.0183147425851173,-2.35275555676275,-0.0629631264511051,,1.4369674754596942,,
,7025.0,815.0,5516.0,1090.0,-193.0,1461.0,3665.0,,,,-0.0183946499626424,-2.35335154797077,-0.0633345692827961,,0.9841014307619074,,
,7027.0,816.0,5517.0,1091.0,-215.0,1454.0,3688.0,,,,-0.0184084117902488,-2.35325007691934,-0.0627810981498125,,0.5365154957629794,,
,7028.0,816.0,5519.0,1091.0,-202.0,1467.0,3674.0,,,,-0.0185201658085479,-2.35331513612281,-0.063401366168375,,0.10849236387307629,,
,7029.0,815.0,5523.0,1092.0,-209.0,1460.0,3683.0,,,,-0.0186088019410521,-2.35394606515772,-0.0639357589701312,,-0.2879860956878197,,
,7032.0,818.0,5524.0,1092.0,-212.0,1465.0,3661.0,,,,-0.0186112995017673,-2.35370408895505,-0.063379321185351,,-0.6438579238707373,,
,7036.0,819.0,5528.0,1095.0,-215.0,1468.0,3654.0,,,,-0.0186731872422264,-2.35360858476315,-0.0641088037438973,,-0.9533669208501694,,
,7036.0,816.0,5527.0,1092.0,-202.0,1451.0,3665.0,,,,-0.0186205149842467,-2.35347093858757,-0.0638411087540621,,-1.2141830199651433,,
,7039.0,816.0,5527.0,1095.0,-203.0,1468.0,3673.0,,,,-0.0185890015718051,-2.35370289422444,-0.0633624736294783,,-1.4272493841735185,,
,7038.0,818.0,5531.0,1095.0,-210.0,1466.0,3652.0,,,,-0.0188108305122705,-2.35370993381781,-0.0633066127002375,,-1.5963740308874266,,
,7041.0,818.0,5532.0,1095.0,-219.0,1463.0,3647.0,,,,-0.0186440913337973,-2.35354063917968,-0.063406449284154,,-1.7276070260544656,,
,7038.0,817.0,5528.0,1094.0,-217.0,1431.0,3654.0,,,,-0.0185876584392268,-2.3533556626938,-0.0632283029801006,,-1.8284624389969057,,
,7036.0,816.0,5528.0,1093.0,-228.0,1441.0,3646.0,,,,-0.0184479363208852,-2.35334534687535,-0.0630299311140418,,-1.9070558991629676,,
,7035.0,816.0,5526.0,1096.0,-216.0,1461.0,3650.0,,,,-0.0184753430644141,-2.35339315516542,-0.0628786093480396,,-1.9712334577319033,,
,7029.0,817.0,5524.0,1093.0,-223.0,1467.0,3663.0,,,,-0.0185027190155391,-2.35342953631363,-0.0629565628180058,,-2.0277659814206723,,
,7024.0,814.0,5520.0,1088.0,-212.0,1458.0,3671.0,,,,-0.0186337412228268,-2.35340134804201,-0.0634951611736627,,-2.0816762497582912,,
,7018.0,815.0,5512.0,1091.0,-208.0,1454.0,3667.0,,,,-0.0187061178211957,-2.35399555378972,-0.0638215100476901,,-2.135753984750345,,
,7015.0,812.0,5510.0,1087.0,-206.0,1470.0,3672.0,,,,-0.0187953375825356,-2.35468806228401,-0.0639804090137059,,-2.190297721797995,,
,7009.0,814.0,5502.0,1085.0,-207.0,1458.0,3680.0,,,,-0.0189065087236026,-2.35481342436013,-0.0641975294010463,,-2.2431022826646907,,
,7003.0,816.0,5498.0,1083.0,-206.0,1452.0,3675.0,,,,-0.0192242984297919,-2.35589825846281,-0.0646886722073583,,-2.289687706008549,,
,7001.0,812.0,5490.0,1080.0,-192.0,1455.0,3657.0,,,,-0.0193604345589627,-2.35701270590914,-0.0652990426218742,,-2.323741954542975,,
,6995.0,812.0,5486.0,1078.0,-206.0,1454.0,3641.0,,,,-0.0194193013003953,-2.35778691304592,-0.0658828525433304,,-2.337728871595326,,
,6993.0,811.0,5483.0,1078.0,-208.0,1449.0,3645.0,,,,-0.0196682964292483,-2.35807648682428,-0.0661558022334692,,-2.323598349170401,,
,6992.0,810.0,5479.0,1077.0,-209.0,1451.0,3649.0,,,,-0.0196630431150699,-2.35850161826484,-0.0656830257328731,,-2.273529778769493,,
,6986.0,809.0,5472.0,1073.0,-215.0,1467.0,3653.0,,,,-0.0195110708910632,-2.35857812392465,-0.0654088585345576,,-2.1806424163455818,,
,6986.0,808.0,5471.0,1075.0,-209.0,1456.0,3653.0,,,,-0.0195691994685521,-2.35846127716268,-0.0655522659986624,,-2.0396152843791815,,
,6984.0,810.0,5467.0,1071.0,-214.0,1465.0,3676.0,,,,-0.0195388955096331,-2.35778724880013,-0.0654411262794201,,-1.847172392522614,,
,6983.0,808.0,5467.0,1074.0,-218.0,1455.0,3674.0,,,,-0.0194717412090162,-2.35785070763026,-0.0656727973685594,,-1.602404834505727,,
,6981.0,811.0,5466.0,1072.0,-214.0,1449.0,3671.0,,,,-0.0193696587970033,-2.35747919444176,-0.0653944855463522,,-1.306918570471394,,
,6982.0,809.0,5467.0,1071.0,-209.0,1452.0,3686.0,,,,-0.0192523207090074,-2.35672533309284,-0.0651339291158246,,-0.9648139443284625,,
,6982.0,810.0,5462.0,1072.0,-197.0,1453.0,3682.0,,,,-0.0191373322037613,-2.35629437270167,-0.0642836068366684,,-0.582518157351288,,
,6984.0,812.0,5465.0,1074.0,-194.0,1450.0,3665.0,,,,-0.0191884586609227,-2.35655632648407,-0.0644101154478106,,-0.16850280496081727,,
,6982.0,811.0,5461.0,1073.0,-201.0,1454.0,3657.0,,,,-0.0191724136939979,-2.35614515777735,-0.0646228161129056,,0.26707655692964616,,
,6982.0,808.0,5460.0,1072.0,-222.0,1467.0,3663.0,,,,-0.0190762022756586,-2.35569474643595,-0.0646366178661509,,0.7127837404649909,,
,6981.0,805.0,5461.0,1070.0,-206.0,1458.0,3657.0,,,,-0.0190754862608163,-2.35601376544471,-0.0643496038561237,,1.1563210810767828,,
,6984.0,811.0,5464.0,1073.0,-217.0,1451.0,3668.0,,,,-0.0190432783961001,-2.35527703092423,-0.0642840716899757,,1.5849493451344718,,
,6985.0,811.0,5464.0,1072.0,-205.0,1426.0,3685.0,,,,-0.01899918249596,-2.35555553871464,-0.0639207531346926,,1.9859058098074254,,
,6984.0,808.0,5462.0,1072.0,-203.0,1432.0,3681.0,,,,-0.0190142064912239,-2.35555855812495,-0.0640865420023869,,2.346826840072765,,
,6986.0,808.0,5459.0,1072.0,-209.0,1448.0,3684.0,,,,-0.0190691886368823,-2.35560195744274,-0.0644191507425806,,2.656183446261291,,
,6986.0,809.0,5463.0,1073.0,-210.0,1425.0,3673.0,,,,-0.018971536460148,-2.35547729915151,-0.0641156205190345,,2.9037329826593745,,
,6987.0,810.0,5464.0,1073.0,-217.0,1441.0,3686.0,,,,-0.0189440876455814,-2.3554763873231,-0.0639685677363334,,3.0809792574635857,,
,6988.0,810.0,5461.0,1073.0,-205.0,1451.0,3674.0,,,,-0.0190119396127886,-2.3556622343394,-0.0642736134764779,,3.181620272782123,,
,6986.0,808.0,5462.0,1071.0,-203.0,1463.0,3676.0,,,,-0.0189246544485184,-2.35548843746288,-0.0641175305885726,,3.201951012867805,,
,6991.0,809.0,5465.0,1075.0,-218.0,1473.0,3680.0,,,,-0.0189671315181237,-2.3554404710154,-0.0638723906257664,,3.1411807239498253,,
,6990.0,809.0,5465.0,1073.0,-211.0,1462.0,3667.0,,,,-0.018949210339829,-2.35550175002815,-0.0638599341324787,,3.0016216350818996,,
,6994.0,812.0,5467.0,1074.0,-204.0,1458.0,3660.0,,,,-0.0188662429574538,-2.35562044938161,-0.063872611987103,,2.788709987139163,,
,6993.0,808.0,5467.0,1072.0,-212.0,1461.0,3659.0,,,,-0.0187902602823422,-2.3552389859627,-0.0640603843713965,,2.510830828022936,,
,6991.0,810.0,5463.0,1071.0,-230.0,1467.0,3654.0,,,,-0.0187270400736029,-2.35511192228652,-0.0635085825085576,,2.1789347822847005,,
,6993.0,812.0,5465.0,1074.0,-218.0,1453.0,3646.0,,,,-0.0188153802720899,-2.35485404069346,-0.0632012688965922,,1.8059565018350836,,
,6996.0,807.0,5465.0,1072.0,-195.0,1470.0,3658.0,,,,-0.0187050782885103,-2.35441558190775,-0.0634893164245434,,1.4060683775025442,,
,6996.0,811.0,5469.0,1072.0,-199.0,1476.0,3659.0,,,,-0.0187168102897201,-2.35432790073405,-0.0633231482822742,,0.9938260084209294,,
,6995.0,811.0,5467.0,1071.0,-211.0,1467.0,3662.0,,,,-0.0187653612185051,-2.35457963575853,-0.0638338258476757,,0.583279789678624,,
,6994.0,810.0,5466.0,1072.0,-219.0,1459.0,3654.0,,,,-0.0187903471575898,-2.35449355919158,-0.0639305351030999,,0.18713562456026955,,
,6996.0,813.0,5464.0,1075.0,-218.0,1443.0,3654.0,,,,-0.0188623515515734,-2.35534237373047,-0.0633624685212183,,-0.18395559562414365,,
,6997.0,812.0,5463.0,1074.0,-218.0,1447.0,3651.0,,,,-0.0190008867054048,-2.35538827921994,-0.0639230551638,,-0.5219153614707172,,
,6991.0,809.0,5459.0,1072.0,-220.0,1469.0,3650.0,,,,-0.0190597028424159,-2.355553340261,-0.0639846957299764,,-0.8215212401750035,,
,6995.0,807.0,5459.0,1073.0,-233.0,1464.0,3687.0,,,,-0.0190258024098368,-2.3553917377033,-0.0640398479889855,,-1.0804437602161308,,
,6997.0,812.0,5465.0,1072.0,-219.0,1449.0,3675.0,,,,-0.0190181769770689,-2.35547473721072,-0.0636852091243266,,-1.2990494679511093,,
,6995.0,810.0,5460.0,1072.0,-213.0,1440.0,3683.0,,,,-0.0190617683035555,-2.35551316419024,-0.0638770451022064,,-1.4800047258614704,,
,6997.0,808.0,5460.0,1071.0,-214.0,1433.0,3671.0,,,,-0.0189686578524672,-2.35550243323163,-0.0640082587147663,,-1.6277303540019312,,
,6995.0,810.0,5462.0,1073.0,-223.0,1452.0,3662.0,,,,-0.0189197750333613,-2.35541247675066,-0.0640330945758654,,-1.7477663661683296,,
,6998.0,813.0,5459.0,1073.0,-203.0,1449.0,3658.0,,,,-0.0189994144043263,-2.35552732822354,-0.0640441913362851,,-1.846109067750027,,
,6999.0,811.0,5462.0,1075.0,-221.0,1458.0,3675.0,,,,-0.0190461672409449,-2.35525720981231,-0.0637370818372907,,-1.9285800985269343,,
,7000.0,810.0,5461.0,1073.0,-234.0,1464.0,3673.0,,,,-0.0190385131568682,-2.3554889166665,-0.0639848172619594,,-2.0002791188343814,,
,7002.0,811.0,5464.0,1073.0,-221.0,1457.0,3661.0,,,,-0.0190303486793552,-2.35563029422639,-0.0640972541682304,,-2.0651593742031373,,
,7004.0,813.0,5464.0,1071.0,-214.0,1467.0,3651.0,,,,-0.0189366560521892,-2.35570740411774,-0.0640019686825245,,-2.125749302897443,,
,7006.0,811.0,5465.0,1074.0,-213.0,1465.0,3667.0,,,,-0.0189137716640788,-2.35566116823655,-0.064175900732341,,-2.1830253569740306,,
,7007.0,810.0,5467.0,1074.0,-206.0,1464.0,3665.0,,,,-0.0190242444366069,-2.35627849897645,-0.063225288599005,,-2.236423977102637,,
,7007.0,811.0,5468.0,1074.0,-216.0,1443.0,3687.0,,,,-0.0190585896381114,-2.35550570303527,-0.0641008474418946,,-2.283967523929693,,
,7010.0,812.0,5469.0,1073.0,-211.0,1447.0,3666.0,,,,-0.0190682346913263,-2.35585053423453,-0.0641965163350924,,-2.3224725320789967,,
,7013.0,812.0,5471.0,1078.0,-210.0,1458.0,3655.0,,,,-0.0191541987794029,-2.35547941678706,-0.0641685786181697,,-2.3478092662504584,,
,7015.0,812.0,5472.0,1077.0,-207.0,1464.0,3652.0,,,,-0.0191395333531428,-2.35574879810898,-0.064083837194618,,-2.3551871288234425,,
,7017.0,814.0,5473.0,1075.0,-212.0,1465.0,3657.0,,,,-0.0191483543964581,-2.35591349265774,-0.0641842066111209,,-2.3394478911151717,,
,7016.0,813.0,5474.0,1077.0,-204.0,1473.0,3686.0,,,,-0.0190625788189307,-2.35548452402727,-0.0640915716341656,,-2.295355518890396,,
,7020.0,815.0,5477.0,1081.0,-209.0,1446.0,3667.0,,,,-0.0189204017234791,-2.3560367599703,-0.0642286349232247,,-2.2178763225520264,,
,7022.0,814.0,5479.0,1080.0,-213.0,1451.0,3659.0,,,,-0.0189928637423671,-2.35537249652476,-0.0643802277674626,,-2.1024461265167367,,
,7027.0,814.0,5482.0,1081.0,-229.0,1453.0,3659.0,,,,-0.0188928902848939,-2.35567734450907,-0.0647167657173938,,-1.9452226302170272,,
,7029.0,814.0,5481.0,1078.0,-216.0,1468.0,3643.0,,,,-0.0190259660498313,-2.35553191577758,-0.0645941109278268,,-1.7433219018418957,,
,7028.0,814.0,5483.0,1079.0,-214.0,1456.0,3680.0,,,,-0.0189949983502236,-2.35539782459487,-0.0641915687173802,,-1.4950385112722013,,
,7031.0,817.0,5486.0,1080.0,-213.0,1457.0,3674.0,,,,-0.0190015755067216,-2.355517761834,-0.0641119072455545,,-1.200048905742795,,
,7035.0,815.0,5489.0,1082.0,-229.0,1441.0,3647.0,,,,-0.0190906611300728,-2.35580081379372,-0.0644860388096715,,-0.8595962358325627,,
,7037.0,816.0,5489.0,1083.0,-225.0,1448.0,3651.0,,,,-0.0189229225265889,-2.35531654766011,-0.0639718752601039,,-0.4766509065756409,,
,7039.0,814.0,5491.0,1082.0,-232.0,1453.0,3679.0,,,,-0.0189649717949292,-2.35536620432184,-0.06448951485844,,-0.056034710154866677,,
,7043.0,817.0,5494.0,1084.0,-221.0,1449.0,3685.0,,,,-0.01893584155465,-2.35542963216158,-0.064301537021558,,0.39551071339969474,,
,7045.0,817.0,5496.0,1084.0,-204.0,1451.0,3690.0,,,,-0.0190416661701574,-2.35535343798942,-0.0641500883748374,,0.8693352134815292,,
,7046.0,815.0,5498.0,1085.0,-208.0,1441.0,3681.0,,,,-0.0189271066407945,-2.35530248266437,-0.0642288905465157,,1.354995593452008,,
,7049.0,815.0,5499.0,1084.0,-215.0,1432.0,3673.0,,,,-0.0189106883374973,-2.35543756051057,-0.0643930113761629,,1.840494406336583,,
,7052.0,816.0,5502.0,1086.0,-213.0,1441.0,3657.0,,,,-0.0189825747656455,-2.35538660331886,-0.0640132500217609,,2.312651791737656,,
,7054.0,819.0,5503.0,1089.0,-212.0,1464.0,3668.0,,,,-0.0188831816108092,-2.35484193019677,-0.0636471572086959,,2.7576077005771804,,
,7058.0,821.0,5505.0,1089.0,-214.0,1462.0,3670.0,,,,-0.0188467430818389,-2.3544126516221,-0.0636064015269005,,3.1614378849008298,,
,7059.0,818.0,5508.0,1091.0,-195.0,1454.0,3688.0,,,,-0.0188711528264147,-2.3544559042642,-0.063934484204133,,3.510852494573119,,
,7060.0,817.0,5504.0,1087.0,-222.0,1453.0,3677.0,,,,-0.0188245066707158,-2.35441736186893,-0.0644121689925982,,3.793932223872835,,
,7065.0,818.0,5511.0,1091.0,-249.0,1452.0,3666.0,,,,-0.0187508382213275,-2.3545884546748,-0.0637800084964824,,4.000845338816676,,
,7065.0,818.0,5516.0,1093.0,-209.0,1450.0,3672.0,,,,-0.0188427031272899,-2.3544230438394,-0.0641292553978639,,4.124481697448522,,
,7070.0,821.0,5514.0,1094.0,-212.0,1457.0,3677.0,,,,-0.0188748811611896,-2.35428782455572,-0.0634319407553038,,4.160939344152098,,
,7072.0,821.0,5516.0,1091.0,-208.0,1456.0,3673.0,,,,-0.0189670404816392,-2.35424908615322,-0.0640117073153582,,4.109807391217829,,
,7074.0,818.0,5521.0,1092.0,-213.0,1452.0,3651.0,,,,-0.0189475319603124,-2.35384260584544,-0.064231458782765,,3.974206618026015,,
,7078.0,823.0,5525.0,1095.0,-220.0,1433.0,3652.0,,,,-0.0188329674475692,-2.35421817586177,-0.0638543032585284,,3.7605754003877583,,
,7081.0,822.0,5525.0,1096.0,-217.0,1436.0,3644.0,,,,-0.018958274637617,-2.35449587635278,-0.064225122261202,,3.4782192685071993,,
,7083.0,821.0,5527.0,1094.0,-215.0,1448.0,3679.0,,,,-0.0189485331172459,-2.35452087083038,-0.0640257479054523,,3.138671291753796,,
,7085.0,821.0,5530.0,1095.0,-216.0,1462.0,3690.0,,,,-0.0188961548706956,-2.35475519332041,-0.0641502072982365,,2.754931310061367,,
,7084.0,819.0,5530.0,1097.0,-222.0,1451.0,3663.0,,,,-0.0189176407079511,-2.35509682201811,-0.0636919056525661,,2.340661154552768,,
,7089.0,823.0,5531.0,1097.0,-219.0,1439.0,3673.0,,,,-0.0189175631387523,-2.35476526482518,-0.0642626048150124,,1.909410418071379,,
,7092.0,822.0,5533.0,1097.0,-217.0,1436.0,3650.0,,,,-0.0189582762680364,-2.35509860742881,-0.0639047736542269,,1.4739355662237528,,
,7089.0,822.0,5530.0,1095.0,-239.0,1452.0,3640.0,,,,-0.0189718386064956,-2.35468126175823,-0.0634288725192471,,1.0456575408526245,,
2025-08-05 16:21:42,7086.0,820.0,5532.0,1098.0,-223.0,1458.0,3641.0,,,2025/08/05 04:21:42 PM,-0.0188935971378626,-2.35471900203787,-0.0637371641377514,,0.6342825810325448,,
,7086.0,819.0,5532.0,1098.0,-216.0,1471.0,3688.0,,,,-0.018759479277134,-2.35440989970617,-0.0634631026001616,,0.24759041112727798,,
,7082.0,818.0,5528.0,1094.0,-207.0,1485.0,3687.0,,,,-0.0188163040139395,-2.35428348874202,-0.0629891697191243,,-0.10862448769220641,,
,7077.0,821.0,5523.0,1091.0,-214.0,1463.0,3677.0,,,,-0.0186790649869269,-2.35422167446327,-0.0636463818581727,,-0.43048713095136376,,
,7074.0,819.0,5516.0,1092.0,-220.0,1438.0,3667.0,,,,-0.0187170179007685,-2.35416457560002,-0.063419507071831,,-0.7158890488950644,,
,7068.0,818.0,5512.0,1090.0,-214.0,1443.0,3688.0,,,,-0.0188564914688592,-2.35447995417855,-0.063327142870757,,-0.9642871931524812,,
,7065.0,818.0,5507.0,1086.0,-207.0,1451.0,3674.0,,,,-0.018849557493304,-2.35477856916406,-0.0639520454499855,,-1.176488798084545,,
,7059.0,820.0,5501.0,1087.0,-223.0,1449.0,3682.0,,,,-0.0189702091724065,-2.35534540720425,-0.0638095726209287,,-1.354445344299161,,
,7051.0,816.0,5496.0,1082.0,-207.0,1441.0,3676.0,,,,-0.0191075325733003,-2.3554967724686,-0.0639049998643376,,-1.5010646328421966,,
,7050.0,815.0,5487.0,1082.0,-203.0,1448.0,3668.0,,,,-0.0191818687216579,-2.35558792603022,-0.0647611150503578,,-1.620036503171779,,
,7044.0,816.0,5480.0,1080.0,-206.0,1467.0,3667.0,,,,-0.0192566383892011,-2.35576657835682,-0.0649282833761454,,-1.7156587328024495,,
,7043.0,815.0,5480.0,1079.0,-212.0,1472.0,3685.0,,,,-0.01925890750056,-2.3567515725982,-0.0652399770020995,,-1.7926471282216032,,
,7036.0,815.0,5473.0,1077.0,-193.0,1476.0,3682.0,,,,-0.0194888896333854,-2.3577321027838,-0.0652393776971072,,-1.855917201378921,,
,7035.0,815.0,5469.0,1076.0,-205.0,1450.0,3663.0,,,,-0.0196247386160478,-2.3581937588331,-0.0657659026339612,,-1.9103319972854595,,
,7034.0,814.0,5469.0,1075.0,-205.0,1446.0,3654.0,,,,-0.0196127934007479,-2.3586613249974,-0.0661624461991131,,-1.9604193893755555,,
,7031.0,816.0,5464.0,1073.0,-209.0,1433.0,3672.0,,,,-0.0195943665297882,-2.35830057818345,-0.0657871838496839,,-2.010070926535646,,
,7030.0,814.0,5462.0,1075.0,-222.0,1423.0,3675.0,,,,-0.0197151604069553,-2.35970925833663,-0.0662162945296131,,-2.062242083160553,,
,7025.0,812.0,5462.0,1072.0,-215.0,1459.0,3666.0,,,,-0.0198756619460135,-2.35985514279272,-0.0657661498233497,,-2.118679748923837,,
,7027.0,813.0,5459.0,1072.0,-204.0,1472.0,3681.0,,,,-0.0198687033738736,-2.35967786727849,-0.0664230740111904,,-2.1797062591370353,,
,7025.0,813.0,5457.0,1070.0,-200.0,1457.0,3681.0,,,,-0.0197494093028547,-2.35962208173484,-0.0661512916710625,,-2.2440894568648533,,
,7029.0,818.0,5454.0,1070.0,-224.0,1435.0,3663.0,,,,-0.0197554790984336,-2.35932893993603,-0.0657518231607445,,-2.3090244617187934,,
,7026.0,813.0,5455.0,1069.0,-217.0,1452.0,3665.0,,,,-0.0197245573863835,-2.35877310268142,-0.0660077053635369,,-2.370244454017926,,
,7026.0,815.0,5452.0,1071.0,-206.0,1448.0,3656.0,,,,-0.0195965480144695,-2.35858869078681,-0.0659588932204691,,-2.4222648807454052,,
,7023.0,814.0,5450.0,1070.0,-182.0,1444.0,3677.0,,,,-0.0194652715355317,-2.35778288793532,-0.0652543245013672,,-2.458749156551664,,
,7023.0,813.0,5450.0,1069.0,-196.0,1456.0,3682.0,,,,-0.0194128353891961,-2.35733821460508,-0.0650589034301515,,-2.4729667844491456,,
,7023.0,814.0,5448.0,1069.0,-213.0,1435.0,3667.0,,,,-0.0193617497201369,-2.3574354224879,-0.0650399170412635,,-2.4583006729197088,,
,7024.0,813.0,5448.0,1070.0,-215.0,1434.0,3659.0,,,,-0.0192773178817533,-2.35770518435353,-0.0646014630501607,,-2.408752853659941,,
,7025.0,813.0,5449.0,1071.0,-208.0,1427.0,3674.0,,,,-0.0193775332658657,-2.35721324360055,-0.0649300364140558,,-2.3193983689291713,,
,7024.0,813.0,5447.0,1072.0,-205.0,1431.0,3677.0,,,,-0.0194057100803769,-2.35746958448616,-0.0647921932921043,,-2.1867448650902985,,
,7023.0,809.0,5448.0,1068.0,-211.0,1458.0,3685.0,,,,-0.0193317425422821,-2.35768899262245,-0.0650600042517212,,-2.00896816409204,,
,7023.0,810.0,5446.0,1067.0,-222.0,1456.0,3674.0,,,,-0.0193649000721285,-2.35811456946514,-0.0650886970415919,,-1.7860096705507322,,
,7025.0,815.0,5450.0,1070.0,-222.0,1432.0,3640.0,,,,-0.0193666706756754,-2.35747983533882,-0.0653162665844425,,-1.5195382452607051,,
,7027.0,813.0,5450.0,1070.0,-210.0,1426.0,3629.0,,,,-0.0195132440063058,-2.35792673360336,-0.065459527444787,,-1.2127954519787327,,
,7025.0,815.0,5450.0,1071.0,-212.0,1445.0,3644.0,,,,-0.0196104639120426,-2.35763804917343,-0.065306013605159,,-0.870356836107535,,
,7027.0,812.0,5449.0,1070.0,-209.0,1463.0,3663.0,,,,-0.0193330734983352,-2.35729611814879,-0.0656319330047911,,-0.49785093961944515,,
,7027.0,810.0,5448.0,1068.0,-204.0,1471.0,3647.0,,,,-0.0193166927319358,-2.35744013474134,-0.0651931306883616,,-0.10168019933716985,,
,7028.0,814.0,5449.0,1072.0,-227.0,1462.0,3654.0,,,,-0.0192995315539232,-2.3572856767315,-0.0650064824243448,,0.31121741197786745,,
,7030.0,814.0,5448.0,1071.0,-221.0,1461.0,3665.0,,,,-0.0193445322324683,-2.3569252801516,-0.0648769668032233,,0.7335399883405229,,
,7028.0,812.0,5449.0,1067.0,-222.0,1447.0,3681.0,,,,-0.0192725691581987,-2.35668845916479,-0.0644463011930914,,1.1577190018490948,,
,7030.0,814.0,5451.0,1068.0,-211.0,1457.0,3677.0,,,,-0.0193446521781795,-2.35717300884366,-0.0650118103456115,,1.5759551490002617,,
,7029.0,813.0,5450.0,1069.0,-202.0,1468.0,3678.0,,,,-0.0193356105495821,-2.35756884713853,-0.0650689629900941,,1.980222915205822,,
,7030.0,814.0,5451.0,1069.0,-209.0,1469.0,3674.0,,,,-0.0193016976073854,-2.35760290976123,-0.0648733755013137,,2.3622839405557454,,
,7028.0,815.0,5447.0,1069.0,-213.0,1467.0,3635.0,,,,-0.0193745117706945,-2.35779802343593,-0.0650469387396281,,2.7137494839413376,,
,7026.0,809.0,5446.0,1066.0,-207.0,1463.0,3648.0,,,,-0.0194794994333298,-2.35710605150902,-0.0651708908758217,,3.026223502131669,,
,7030.0,813.0,5450.0,1069.0,-201.0,1449.0,3654.0,,,,-0.0195512696391316,-2.35751505888172,-0.0650671851172336,,3.291542802407868,,
,7030.0,813.0,5449.0,1069.0,-192.0,1459.0,3666.0,,,,-0.0195811919372884,-2.35764346548982,-0.0649228321772913,,3.5021125791515204,,
,7030.0,814.0,5448.0,1071.0,-189.0,1467.0,3683.0,,,,-0.019404167068484,-2.35749188118686,-0.0650067246407638,,3.651317114858968,,
,7031.0,815.0,5449.0,1067.0,-203.0,1455.0,3668.0,,,,-0.0194355611029151,-2.35742931623361,-0.0646390966625276,,3.733968751861251,,
,7033.0,816.0,5449.0,1068.0,-233.0,1432.0,3648.0,,,,-0.0195183935301375,-2.35792452887823,-0.065059899378454,,3.7467455323217176,,
,7031.0,815.0,5447.0,1067.0,-219.0,1445.0,3662.0,,,,-0.0194700873789275,-2.35776596236925,-0.0651919369344299,,3.6885611689235085,,
,7032.0,815.0,5448.0,1069.0,-225.0,1454.0,3670.0,,,,-0.019545710445282,-2.35798567401855,-0.0654974953898456,,3.5608118520780043,,
,7030.0,812.0,5447.0,1067.0,-216.0,1475.0,3676.0,,,,-0.0196243949266393,-2.35856771649915,-0.0656552212954177,,3.367453711615273,,
,7031.0,814.0,5445.0,1068.0,-196.0,1464.0,3675.0,,,,-0.0196142789567828,-2.35884235280892,-0.0652534501224181,,3.114882457257867,,
,7033.0,817.0,5450.0,1070.0,-222.0,1465.0,3655.0,,,,-0.0196245613578529,-2.35882175627395,-0.0659907437283664,,2.81161140637266,,
,7035.0,815.0,5448.0,1069.0,-219.0,1454.0,3652.0,,,,-0.0196621255344149,-2.3589922526922,-0.0660137224195195,,2.467772437577925,,
,7037.0,816.0,5455.0,1070.0,-213.0,1460.0,3652.0,,,,-0.0196204172236477,-2.35898335920406,-0.0659205469602586,,2.094490933817725,,
,7038.0,813.0,5450.0,1069.0,-203.0,1468.0,3669.0,,,,-0.0195119505114265,-2.3581475899261,-0.0655876923523302,,1.7032041809534153,,
,7041.0,817.0,5455.0,1070.0,-211.0,1470.0,3667.0,,,,-0.0195279629224708,-2.35859447069505,-0.0650874516684183,,1.3049984736616391,,
,7042.0,816.0,5455.0,1068.0,-222.0,1454.0,3662.0,,,,-0.0194805321958466,-2.35826450855139,-0.0657419441369191,,0.9100327757348232,,
,7043.0,816.0,5458.0,1069.0,-220.0,1451.0,3665.0,,,,-0.0194059287005114,-2.35782552264201,-0.0656031688668978,,0.5270992610520524,,
,7043.0,816.0,5457.0,1070.0,-197.0,1450.0,3667.0,,,,-0.0193810009776604,-2.35763744764168,-0.0655453509601606,,0.16334817549753008,,
,7047.0,814.0,5459.0,1070.0,-207.0,1463.0,3661.0,,,,-0.0193254930876581,-2.35766261084692,-0.0652391941001607,,-0.17581922571341174,,
,7048.0,818.0,5460.0,1070.0,-214.0,1471.0,3658.0,,,,-0.0193672156516076,-2.35758258962503,-0.0652651548076799,,-0.48670692473718496,,
,7051.0,817.0,5464.0,1074.0,-215.0,1464.0,3653.0,,,,-0.0192579092839166,-2.35760221925919,-0.0651856071966694,,-0.7671629360081818,,
,7052.0,816.0,5465.0,1070.0,-216.0,1455.0,3645.0,,,,-0.0192938629206097,-2.35766370223739,-0.0649491597606669,,-1.0163439685036513,,
,7055.0,816.0,5468.0,1071.0,-218.0,1445.0,3649.0,,,,-0.0192342807422919,-2.35728570553302,-0.0651881518808961,,-1.2344524873137168,,
,7055.0,816.0,5466.0,1072.0,-225.0,1459.0,3643.0,,,,-0.0193441335366712,-2.3576362494629,-0.0657324067396723,,-1.4224890205890375,,
,7057.0,821.0,5472.0,1076.0,-210.0,1448.0,3673.0,,,,-0.0192962412838499,-2.35730342490053,-0.0652214657379375,,-1.5820523557410011,,
,7062.0,819.0,5472.0,1077.0,-203.0,1447.0,3677.0,,,,-0.0192395501124229,-2.35697014503888,-0.0653228729923248,,-1.7152048127343482,,
,7064.0,817.0,5475.0,1074.0,-205.0,1440.0,3674.0,,,,-0.0193786444204305,-2.35763143170515,-0.0652026741558982,,-1.8244015519173087,,
,7068.0,820.0,5477.0,1076.0,-221.0,1427.0,3658.0,,,,-0.0193853822597139,-2.35765993499476,-0.0652431782797546,,-1.9124655913960142,,
,7070.0,817.0,5479.0,1078.0,-202.0,1444.0,3648.0,,,,-0.0194067781436091,-2.35711842810909,-0.0651742614640941,,-1.9825781002424816,,
,7074.0,819.0,5482.0,1078.0,-197.0,1448.0,3657.0,,,,-0.0194245355135633,-2.35733257585211,-0.0657216990225056,,-2.038249697893731,,
,7073.0,820.0,5484.0,1077.0,-197.0,1456.0,3656.0,,,,-0.0193599556022754,-2.35720590782243,-0.0657137001532499,,-2.083243361253872,,
,7075.0,821.0,5483.0,1081.0,-212.0,1457.0,3673.0,,,,-0.0193314663556535,-2.3572810571906,-0.065117939781374,,-2.1214308672443183,,
,7079.0,821.0,5489.0,1079.0,-230.0,1461.0,3666.0,,,,-0.0194575958639926,-2.35696749375932,-0.0648808742558147,,-2.1565790775517417,,
,7081.0,822.0,5489.0,1082.0,-218.0,1455.0,3660.0,,,,-0.0192633586061163,-2.35672364332448,-0.0650972666017598,,-2.192076852138914,,
,7080.0,821.0,5492.0,1082.0,-217.0,1448.0,3657.0,,,,-0.019229461399186,-2.35594954634976,-0.0652674577959833,,-2.2306260028216456,,
,7086.0,820.0,5493.0,1082.0,-209.0,1458.0,3665.0,,,,-0.0191083821263874,-2.35645164143908,-0.0647156857738364,,-2.273929252914133,,
,7085.0,822.0,5497.0,1082.0,-201.0,1469.0,3667.0,,,,-0.0191873872501513,-2.35598152308796,-0.0653922561834318,,-2.3224138247743467,,
,7089.0,824.0,5498.0,1086.0,-204.0,1462.0,3656.0,,,,-0.0190308319073931,-2.35594633700074,-0.0652198002536261,,-2.37503039604322,,
,7093.0,824.0,5501.0,1085.0,-201.0,1462.0,3654.0,,,,-0.019210942738271,-2.35595064547424,-0.0648848677358558,,-2.42916323012655,,
,7093.0,822.0,5499.0,1085.0,-215.0,1464.0,3662.0,,,,-0.019076307314951,-2.35656917252061,-0.064859890176424,,-2.4806779914513024,,
,7098.0,825.0,5504.0,1086.0,-226.0,1467.0,3657.0,,,,-0.019239472064466,-2.35680654728579,-0.0651193947484382,,-2.5241193164063365,,
,7101.0,825.0,5506.0,1086.0,-222.0,1461.0,3665.0,,,,-0.0191893888976103,-2.35645084760727,-0.0649746375644299,,-2.553051807251859,,
,7104.0,824.0,5509.0,1088.0,-217.0,1467.0,3664.0,,,,-0.0191294134599926,-2.3569782111106,-0.065367903711727,,-2.5605182757388913,,
,7102.0,824.0,5508.0,1088.0,-199.0,1472.0,3658.0,,,,-0.019336929136462,-2.35636642657357,-0.0650840546528822,,-2.539571560128903,,
,7107.0,824.0,5512.0,1087.0,-204.0,1462.0,3648.0,,,,-0.0191319270610853,-2.35618647225337,-0.0646398071063398,,-2.483824984506679,,
,7111.0,826.0,5517.0,1090.0,-201.0,1456.0,3654.0,,,,-0.0191544942597603,-2.35654461846094,-0.0650440475681852,,-2.387963784106162,,
,7112.0,826.0,5518.0,1091.0,-204.0,1471.0,3667.0,,,,-0.0191231709309129,-2.35606542082674,-0.0649374262249248,,-2.2481652903802622,,
,7116.0,825.0,5520.0,1091.0,-203.0,1468.0,3684.0,,,,-0.0190906302189752,-2.35605711365133,-0.0648233999568167,,-2.0623874110736975,,
,7117.0,826.0,5519.0,1091.0,-214.0,1465.0,3693.0,,,,-0.0191023332577244,-2.35589780144882,-0.0643875323325253,,-1.8305009686378306,,
,7120.0,828.0,5524.0,1094.0,-233.0,1442.0,3664.0,,,,-0.0191317954672292,-2.35589540390975,-0.0643483977733982,,-1.5542603734933742,,
,7120.0,828.0,5526.0,1094.0,-240.0,1440.0,3677.0,,,,-0.0188732769660385,-2.35561121492538,-0.064345887819104,,-1.2371274450483003,,
,7124.0,827.0,5529.0,1097.0,-234.0,1446.0,3670.0,,,,-0.0187938173474018,-2.35566186562969,-0.064734190108483,,-0.8839825382273679,,
,7128.0,827.0,5533.0,1095.0,-231.0,1466.0,3664.0,,,,-0.0188285935642499,-2.35554439660412,-0.0640785183376953,,-0.5007720480041511,,
,7129.0,826.0,5535.0,1094.0,-227.0,1465.0,3662.0,,,,-0.0189235648849603,-2.35562542992686,-0.0648415324982228,,-0.0941483596771181,,
,7129.0,828.0,5535.0,1096.0,-219.0,1464.0,3650.0,,,,-0.0189422511916825,-2.35564880705375,-0.0646419456528262,,0.32884479557153046,,
,7129.0,832.0,5535.0,1095.0,-228.0,1446.0,3645.0,,,,-0.0189333160554777,-2.35619979686891,-0.0643943418006673,,0.76100181825018,,
,7127.0,827.0,5531.0,1095.0,-210.0,1457.0,3668.0,,,,-0.0189588149788166,-2.35607593590807,-0.0642152300292351,,1.1950807468072635,,
,7125.0,826.0,5530.0,1094.0,-215.0,1472.0,3670.0,,,,-0.0189083195474154,-2.3561514594193,-0.0645689675740756,,1.6238304543354383,,
,7121.0,828.0,5527.0,1093.0,-202.0,1455.0,3672.0,,,,-0.0189656323169545,-2.35610699183368,-0.0644827771648721,,2.0399477923319895,,
,7120.0,827.0,5522.0,1091.0,-205.0,1454.0,3668.0,,,,-0.0189457365534167,-2.35583373709675,-0.0647116990608977,,2.43600857311032,,
,7115.0,828.0,5519.0,1090.0,-213.0,1449.0,3664.0,,,,-0.0189531352036327,-2.35598049157611,-0.0650057055974416,,2.8044218953169775,,
,7107.0,823.0,5510.0,1085.0,-216.0,1443.0,3658.0,,,,-0.0191342123308845,-2.35652372482761,-0.0648885916014193,,3.137452737028224,,
,7106.0,827.0,5508.0,1088.0,-214.0,1433.0,3659.0,,,,-0.01927158902168,-2.35667138463045,-0.0656566825527027,,3.4273450380753148,,
,7102.0,826.0,5499.0,1085.0,-215.0,1446.0,3681.0,,,,-0.0193029112532455,-2.35769652222812,-0.0656813180261417,,3.6665595652080945,,
,7097.0,824.0,5496.0,1082.0,-211.0,1456.0,3668.0,,,,-0.0194245258915297,-2.35796965108198,-0.0662577667344646,,3.848120434159632,,
,7094.0,824.0,5488.0,1080.0,-214.0,1460.0,3683.0,,,,-0.0194968520769646,-2.35854435295756,-0.0665499984429595,,3.966043664393442,,
,7089.0,824.0,5485.0,1077.0,-205.0,1448.0,3671.0,,,,-0.0196292241290657,-2.35861721795018,-0.0659612282701937,,4.015802943800639,,
,7088.0,823.0,5480.0,1079.0,-195.0,1466.0,3681.0,,,,-0.0197176837477117,-2.35889406922918,-0.066119304255737,,3.994774452153551,,
,7085.0,823.0,5474.0,1077.0,-195.0,1470.0,3664.0,,,,-0.0197524077255588,-2.35897634529623,-0.0664304082829812,,3.902596833109956,,
,7080.0,823.0,5470.0,1074.0,-204.0,1472.0,3671.0,,,,-0.0199065814870299,-2.35971358087452,-0.0665596060723129,,3.7413865913536393,,
,7077.0,820.0,5467.0,1075.0,-217.0,1454.0,3659.0,,,,-0.0198570500414487,-2.35967197280545,-0.066644388041565,,3.5157644704863396,,
,7079.0,823.0,5466.0,1073.0,-226.0,1454.0,3640.0,,,,-0.0200635566850033,-2.35952701590986,-0.0663771388375687,,3.2326735186301874,,
,7077.0,823.0,5462.0,1071.0,-221.0,1439.0,3653.0,,,,-0.019879225178201,-2.35944307284578,-0.0668182644495736,,2.901000296233697,,
,7075.0,821.0,5463.0,1074.0,-212.0,1444.0,3658.0,,,,-0.0197677209743366,-2.35859182728863,-0.0661668883766549,,2.5310403056297326,,
,7073.0,821.0,5460.0,1070.0,-215.0,1456.0,3670.0,,,,-0.0197238711344511,-2.35873151723001,-0.0661515372189306,,2.1338702972927504,,
,7079.0,822.0,5456.0,1070.0,-214.0,1441.0,3676.0,,,,-0.0194479860380152,-2.35867522508752,-0.0662224556288783,,1.7206992800382221,,
,7078.0,821.0,5456.0,1070.0,-216.0,1453.0,3681.0,,,,-0.0194883705250813,-2.35819222758306,-0.0656904757908917,,1.3022663954274696,,
,7078.0,822.0,5455.0,1070.0,-208.0,1447.0,3674.0,,,,-0.0194499685419403,-2.35762840354408,-0.0654872184628404,,0.8883399548173152,,
,7076.0,823.0,5453.0,1069.0,-207.0,1431.0,3676.0,,,,-0.0193429404791896,-2.35772560759666,-0.0651698274428841,,0.48735189027159154,,
,7075.0,820.0,5453.0,1070.0,-216.0,1433.0,3691.0,,,,-0.0191791173267492,-2.3570384041195,-0.0654513842458398,,0.10617981037994459,,
,7077.0,824.0,5453.0,1072.0,-223.0,1469.0,3677.0,,,,-0.0192195660922786,-2.3567609124057,-0.0651759575937235,,-0.24993150807070827,,
,7075.0,819.0,5453.0,1069.0,-234.0,1471.0,3661.0,,,,-0.0191268948837728,-2.35656829743308,-0.0647443156737092,,-0.5773332163537213,,
,7074.0,820.0,5451.0,1070.0,-218.0,1461.0,3672.0,,,,-0.0191912739388827,-2.35742366688326,-0.0651012074124232,,-0.8738537726038919,,
,7077.0,818.0,5448.0,1069.0,-207.0,1451.0,3669.0,,,,-0.0191735643829603,-2.35715172744844,-0.0648427897435189,,-1.1386350774517948,,
,7081.0,823.0,5450.0,1071.0,-221.0,1442.0,3665.0,,,,-0.0191510674015573,-2.35711448739294,-0.0652788855266904,,-1.37195575825541,,
2025-08-05 16:21:43,7079.0,822.0,5454.0,1073.0,-214.0,1455.0,3659.0,,,2025/08/05 04:21:43 PM,-0.0191983453150534,-2.35705724219406,-0.0655661920468013,,-1.5750639083931732,,
,7079.0,823.0,5453.0,1071.0,-206.0,1455.0,3662.0,,,,-0.0191931124224345,-2.35712373578864,-0.0653465716432365,,-1.750027590703252,,
,7082.0,820.0,5453.0,1069.0,-223.0,1454.0,3657.0,,,,-0.019232748182863,-2.35723388810919,-0.0654411523332326,,-1.899597026506375,,
,7081.0,821.0,5452.0,1072.0,-209.0,1449.0,3661.0,,,,-0.0192994146232541,-2.35688854314406,-0.0651633066056218,,-2.027061866711471,,
,7080.0,823.0,5454.0,1070.0,-203.0,1453.0,3659.0,,,,-0.0191086932903418,-2.35703677879406,-0.0651635372588125,,-2.1360835500045523,,
,7082.0,821.0,5453.0,1070.0,-207.0,1466.0,3665.0,,,,-0.0190765795550338,-2.35652710739026,-0.0647057151722938,,-2.2304871909927395,,
,7081.0,822.0,5451.0,1071.0,-210.0,1457.0,3675.0,,,,-0.0191144752410914,-2.35671394981935,-0.0645449414211536,,-2.314007723456162,,
,7083.0,822.0,5454.0,1071.0,-212.0,1454.0,3672.0,,,,-0.0191077308424786,-2.35665563731856,-0.0648066600909498,,-2.389997818332473,,
,7083.0,820.0,5452.0,1074.0,-211.0,1462.0,3686.0,,,,-0.019036015594412,-2.35607701976519,-0.0650636384087056,,-2.461117277355881,,
,7085.0,822.0,5451.0,1071.0,-212.0,1456.0,3671.0,,,,-0.0190344998548607,-2.35606385474013,-0.0647499213343908,,-2.529033061646137,,
,7084.0,822.0,5453.0,1071.0,-232.0,1438.0,3687.0,,,,-0.0190226264493273,-2.35599490449897,-0.0649000793035222,,-2.5941647119966063,,
,7085.0,820.0,5451.0,1071.0,-203.0,1442.0,3660.0,,,,-0.0189893452940319,-2.35604473003014,-0.0648594434330941,,-2.65551105234867,,
,7085.0,822.0,5451.0,1071.0,-212.0,1432.0,3661.0,,,,-0.0190535373111715,-2.35644365877059,-0.0647879929806959,,-2.7105903440766843,,
,7086.0,822.0,5452.0,1070.0,-214.0,1458.0,3663.0,,,,-0.0193202872490758,-2.35653432071107,-0.0647358661930476,,-2.7555172559002967,,
,7085.0,822.0,5452.0,1072.0,-205.0,1462.0,3667.0,,,,-0.0191600690550873,-2.35692785006321,-0.0653068714542705,,-2.7852263040801577,,
,7087.0,822.0,5447.0,1070.0,-204.0,1464.0,3681.0,,,,-0.0192356882762516,-2.35709331442886,-0.0649440612923573,,-2.793833715755539,,
,7085.0,820.0,5450.0,1071.0,-215.0,1462.0,3673.0,,,,-0.0192089239525356,-2.35751005352097,-0.0650058113391852,,-2.7751100255705574,,
,7089.0,827.0,5449.0,1073.0,-219.0,1445.0,3656.0,,,,-0.0191702704078057,-2.35699728491598,-0.0650653388165821,,-2.723017514783086,,
,7089.0,826.0,5452.0,1073.0,-215.0,1445.0,3648.0,,,,-0.0191773832824491,-2.35690352782616,-0.0647280758171673,,-2.6322540382299553,,
,7089.0,825.0,5452.0,1069.0,-212.0,1459.0,3654.0,,,,-0.0192064738947402,-2.35672946873074,-0.0650213502624704,,-2.498741363173857,,
,7087.0,822.0,5451.0,1072.0,-211.0,1470.0,3669.0,,,,-0.0191182392299327,-2.35660224522471,-0.0647465866334218,,-2.3200030450627787,,
,7089.0,821.0,5449.0,1071.0,-196.0,1468.0,3660.0,,,,-0.0191143199378842,-2.356721981741,-0.0649463606583473,,-2.0953925608505273,,
,7090.0,824.0,5452.0,1072.0,-195.0,1461.0,3666.0,,,,-0.0191179010668539,-2.35677937088219,-0.0648347559667464,,-1.8261537138541513,,
,7091.0,823.0,5452.0,1070.0,-219.0,1455.0,3654.0,,,,-0.019147382726333,-2.35656436465353,-0.0649831217682623,,-1.5153185881507274,,
,7093.0,823.0,5453.0,1071.0,-212.0,1457.0,3652.0,,,,-0.0191280134716488,-2.35651641032561,-0.0647741179909455,,-1.1674700615793552,,
,7091.0,822.0,5453.0,1073.0,-209.0,1455.0,3658.0,,,,-0.0191342922534512,-2.35624461879021,-0.0647471257440557,,-0.7884128535589912,,
,7097.0,825.0,5457.0,1072.0,-210.0,1455.0,3659.0,,,,-0.0191479999804186,-2.35651877640717,-0.0650908029897603,,-0.38480662844123864,,
,7095.0,823.0,5456.0,1073.0,-207.0,1447.0,3667.0,,,,-0.0191519168665268,-2.35623530914929,-0.0643567361319609,,0.036184797172450774,,
,7095.0,823.0,5458.0,1070.0,-204.0,1440.0,3664.0,,,,-0.0190360251600862,-2.3556062191079,-0.0647385173025096,,0.46718270863527156,,
,7100.0,825.0,5458.0,1070.0,-220.0,1452.0,3661.0,,,,-0.0190456787746531,-2.35602983861158,-0.0644895956421218,,0.9007920898804742,,
,7104.0,825.0,5458.0,1076.0,-221.0,1456.0,3653.0,,,,-0.0190147211536699,-2.35608062926787,-0.0644908126977126,,1.3297016670763147,,
,7105.0,826.0,5464.0,1077.0,-226.0,1458.0,3678.0,,,,-0.0187812750151786,-2.3555695184209,-0.064279425312166,,1.746699779775235,,
,7108.0,827.0,5464.0,1076.0,-213.0,1471.0,3665.0,,,,-0.0188475448633404,-2.35539059706414,-0.0644316488796183,,2.144639232547406,,
,7109.0,827.0,5465.0,1075.0,-210.0,1462.0,3678.0,,,,-0.01883925510389,-2.35557186632019,-0.0640094497319002,,2.516395257171978,,
,7112.0,827.0,5469.0,1078.0,-210.0,1444.0,3676.0,,,,-0.0187624719548873,-2.35522359988428,-0.0640239035456158,,2.854861480718114,,
,7114.0,829.0,5472.0,1079.0,-203.0,1443.0,3669.0,,,,-0.0187658864877002,-2.35449121504266,-0.0638253004031415,,3.153019842369323,,
,7117.0,828.0,5471.0,1081.0,-205.0,1438.0,3659.0,,,,-0.018794451422716,-2.35509528127556,-0.0638781490665851,,3.4041045603047264,,
,7115.0,827.0,5472.0,1077.0,-198.0,1456.0,3670.0,,,,-0.0186662422732193,-2.3551132273324,-0.0641436787993992,,3.601861138031247,,
,7121.0,825.0,5475.0,1080.0,-202.0,1457.0,3654.0,,,,-0.0188201387421645,-2.35484921745755,-0.0646249045246744,,3.740882225782554,,
,7122.0,829.0,5478.0,1080.0,-205.0,1451.0,3663.0,,,,-0.0188681500676972,-2.35536096957515,-0.0640329865885577,,3.8169853840353123,,
,7126.0,831.0,5482.0,1082.0,-205.0,1457.0,3661.0,,,,-0.0188461535414776,-2.35516997538441,-0.0643737653470656,,3.827585424775318,,
,7127.0,827.0,5483.0,1082.0,-188.0,1459.0,3664.0,,,,-0.0188340773774854,-2.35521878156272,-0.0648670092645592,,3.7720078851226417,,
,7129.0,828.0,5484.0,1083.0,-184.0,1460.0,3695.0,,,,-0.0189859291760979,-2.35516247704856,-0.0643527547810019,,3.6516919997583237,,
,7129.0,829.0,5485.0,1084.0,-200.0,1454.0,3668.0,,,,-0.01880413694608,-2.35495526152542,-0.0645356800174251,,3.470242266365532,,
,7135.0,830.0,5487.0,1084.0,-198.0,1454.0,3663.0,,,,-0.0188229840082645,-2.35471666417036,-0.0646331349111602,,3.2333068434671532,,
,7136.0,828.0,5490.0,1084.0,-214.0,1444.0,3653.0,,,,-0.0187343356972321,-2.35414261604234,-0.0639367501761812,,2.9482859827569636,,
,7140.0,829.0,5495.0,1085.0,-225.0,1446.0,3664.0,,,,-0.018493859687719,-2.35420095317015,-0.0637353653911565,,2.6238997274344094,,
,7140.0,832.0,5495.0,1086.0,-224.0,1452.0,3669.0,,,,-0.0183914204398419,-2.35373535433954,-0.0633231484459135,,2.2696652867146914,,
,7145.0,831.0,5497.0,1088.0,-207.0,1450.0,3664.0,,,,-0.0184074382643509,-2.35370242245765,-0.0630285853474971,,1.8953458131355807,,
,7147.0,830.0,5500.0,1090.0,-210.0,1460.0,3660.0,,,,-0.0183715976672898,-2.35358038298857,-0.0630750223495093,,1.5104317009552415,,
,7148.0,831.0,5500.0,1087.0,-216.0,1462.0,3677.0,,,,-0.0183736091769832,-2.35340422082066,-0.0630997080085944,,1.1237044218720096,,
,7151.0,833.0,5507.0,1091.0,-210.0,1443.0,3660.0,,,,-0.0185512596562538,-2.35361526940771,-0.063166490576983,,0.7429151143148758,,
,7155.0,832.0,5507.0,1090.0,-207.0,1442.0,3660.0,,,,-0.0185417073335664,-2.35371988039992,-0.0630622418356605,,0.37459006791228144,,
,7155.0,834.0,5511.0,1091.0,-205.0,1454.0,3652.0,,,,-0.0185222261124342,-2.35344052383608,-0.0634660910545696,,0.02395663534809237,,
,7160.0,833.0,5511.0,1093.0,-213.0,1463.0,3666.0,,,,-0.0186210742444741,-2.35358208137708,-0.063669300668469,,-0.3050315269650275,,
,7161.0,834.0,5513.0,1091.0,-200.0,1474.0,3670.0,,,,-0.0186753826114415,-2.3536208591991,-0.0629441639069431,,-0.6096002973969988,,
,7167.0,832.0,5519.0,1095.0,-203.0,1465.0,3664.0,,,,-0.0185134609036411,-2.35334676928795,-0.0631138777026352,,-0.888025870168962,,
,7168.0,837.0,5520.0,1097.0,-214.0,1461.0,3661.0,,,,-0.018528672714636,-2.35370405069664,-0.0632482649023789,,-1.1395018794457636,,
,7171.0,834.0,5523.0,1098.0,-233.0,1454.0,3664.0,,,,-0.0185161739801089,-2.35346628654854,-0.0633709107579388,,-1.3640262693243033,,
,7173.0,834.0,5523.0,1095.0,-205.0,1465.0,3691.0,,,,-0.0185707574849251,-2.35369712275267,-0.0633856558869069,,-1.5623189287769914,,
,7176.0,836.0,5527.0,1099.0,-202.0,1453.0,3684.0,,,,-0.0185388273092568,-2.35317534839886,-0.0633530745905267,,-1.7357666133629588,,
,7178.0,835.0,5530.0,1099.0,-220.0,1459.0,3669.0,,,,-0.0184827307715712,-2.35332595943677,-0.0637407250828128,,-1.8863784449905652,,
,7180.0,839.0,5532.0,1099.0,-225.0,1460.0,3654.0,,,,-0.0183579551570524,-2.35295542717609,-0.0630965949085121,,-2.016726993066417,,
,7183.0,835.0,5532.0,1099.0,-210.0,1458.0,3651.0,,,,-0.0183612515829855,-2.35310501868857,-0.0634975064628198,,-2.12984904934573,,
,7186.0,837.0,5537.0,1101.0,-196.0,1462.0,3659.0,,,,-0.0183722562403465,-2.35269523284197,-0.0623881780906263,,-2.2290867623596875,,
,7191.0,837.0,5541.0,1104.0,-188.0,1474.0,3690.0,,,,-0.0183161562612085,-2.35274342546268,-0.0630692629052226,,-2.3178616407365458,,
,7191.0,837.0,5544.0,1103.0,-191.0,1473.0,3681.0,,,,-0.0183418976639139,-2.35304948445226,-0.0633575196726516,,-2.3993880328950787,,
,7193.0,838.0,5545.0,1104.0,-189.0,1450.0,3665.0,,,,-0.0184181884184414,-2.35286209748842,-0.0628477259411962,,-2.4763463387648628,,
,7195.0,838.0,5548.0,1106.0,-211.0,1443.0,3647.0,,,,-0.0183384242890129,-2.35316073648867,-0.0626871599701794,,-2.5505474356081868,,
,7199.0,840.0,5551.0,1104.0,-217.0,1455.0,3661.0,,,,-0.0183864118997953,-2.35338682587292,-0.0634361803122192,,-2.622627233739479,,
,7200.0,840.0,5552.0,1107.0,-212.0,1466.0,3668.0,,,,-0.0183808515152725,-2.35390313012349,-0.0631708181712295,,-2.691812975087016,,
,7200.0,838.0,5554.0,1106.0,-203.0,1464.0,3676.0,,,,-0.0186163148006016,-2.3545384429808,-0.0632704565903527,,-2.7558002520427776,,
,7196.0,840.0,5552.0,1104.0,-214.0,1466.0,3651.0,,,,-0.0189318702255541,-2.35467616035229,-0.0636473639773323,,-2.8107714767784406,,
,7199.0,841.0,5550.0,1105.0,-212.0,1459.0,3645.0,,,,-0.0190320797444989,-2.35520357056667,-0.0645336933351936,,-2.8515728027846574,,
,7196.0,840.0,5549.0,1104.0,-216.0,1444.0,3640.0,,,,-0.0190037892814087,-2.35573080159266,-0.0650038980076595,,-2.8720481241294165,,
,7194.0,840.0,5544.0,1103.0,-216.0,1447.0,3645.0,,,,-0.0190659119669986,-2.35599216725293,-0.0651168581900492,,-2.8655076933909323,,
,7186.0,837.0,5540.0,1099.0,-213.0,1450.0,3674.0,,,,-0.0190862512372977,-2.35604522335176,-0.0651445888296396,,-2.825288391038269,,
,7185.0,836.0,5533.0,1097.0,-210.0,1466.0,3685.0,,,,-0.019062430327357,-2.35658259720168,-0.0654265459681765,,-2.7453469179217267,,
,7183.0,838.0,5528.0,1096.0,-212.0,1454.0,3653.0,,,,-0.0190647246685571,-2.3566611133894,-0.0649995148051478,,-2.6208198045646816,,
,7179.0,835.0,5524.0,1095.0,-206.0,1450.0,3647.0,,,,-0.0189741856504384,-2.35648074301553,-0.0646684469145561,,-2.448486717584044,,
,7175.0,835.0,5514.0,1093.0,-201.0,1442.0,3652.0,,,,-0.0190953357884819,-2.35629313059999,-0.0650370800769597,,-2.2270852924584768,,
,7170.0,833.0,5511.0,1093.0,-204.0,1457.0,3674.0,,,,-0.0189797123557745,-2.35628271495669,-0.0650556963295478,,-1.9574443660023266,,
,7170.0,834.0,5511.0,1089.0,-181.0,1469.0,3675.0,,,,-0.0189147216861341,-2.35609978999447,-0.0647711205772703,,-1.6424253209942847,,
,7167.0,836.0,5506.0,1088.0,-201.0,1466.0,3678.0,,,,-0.0189934978474968,-2.35563698485588,-0.0644673485191898,,-1.2866854987978908,,
,7165.0,835.0,5502.0,1089.0,-204.0,1470.0,3665.0,,,,-0.0188060348144791,-2.35586606089589,-0.064360304841232,,-0.8963003149620609,,
,7162.0,833.0,5498.0,1087.0,-221.0,1461.0,3652.0,,,,-0.0188206009634133,-2.35550029108588,-0.0646882088359374,,-0.47829878712637547,,
,7161.0,833.0,5496.0,1086.0,-222.0,1461.0,3658.0,,,,-0.0186476965689477,-2.35512684944353,-0.0644559449884131,,-0.04017797122259984,,
,7164.0,835.0,5493.0,1085.0,-209.0,1465.0,3665.0,,,,-0.0187015631341047,-2.35497248165059,-0.0637107845069552,,0.4105365779099375,,
,7160.0,834.0,5492.0,1086.0,-211.0,1458.0,3659.0,,,,-0.0186757082200114,-2.35487317243956,-0.0633680231464478,,0.8666255449191189,,
,7159.0,833.0,5494.0,1086.0,-205.0,1459.0,3652.0,,,,-0.0186416654854007,-2.35439756982591,-0.0640402275207469,,1.3213648252031673,,
,7160.0,835.0,5491.0,1083.0,-197.0,1448.0,3657.0,,,,-0.0187039574316592,-2.35442011736425,-0.0639482314729291,,1.7685530642074774,,
,7160.0,835.0,5492.0,1085.0,-212.0,1452.0,3646.0,,,,-0.0186809888096797,-2.35476317403543,-0.0637622543475818,,2.202391229979628,,
,7160.0,835.0,5490.0,1084.0,-218.0,1460.0,3659.0,,,,-0.0186900751886618,-2.35431200490577,-0.0640913516266864,,2.617255454854055,,
,7159.0,833.0,5489.0,1084.0,-204.0,1469.0,3680.0,,,,-0.0189214114496918,-2.35432836909728,-0.064084538776535,,3.00742514203276,,
,7161.0,833.0,5488.0,1083.0,-222.0,1477.0,3676.0,,,,-0.0186369202823956,-2.35458909832402,-0.0634030428828837,,3.366837829175222,,
,7162.0,837.0,5493.0,1086.0,-220.0,1478.0,3659.0,,,,-0.0186277531623924,-2.3536594234307,-0.0639666712461154,,3.6889390889117797,,
,7164.0,837.0,5491.0,1088.0,-211.0,1463.0,3665.0,,,,-0.0186036047267228,-2.35377307306922,-0.0633253888961467,,3.9666811293633106,,
,7162.0,834.0,5490.0,1086.0,-199.0,1471.0,3670.0,,,,-0.0186377998710286,-2.35367104824241,-0.0635746750583317,,4.192700683767719,,
,7162.0,833.0,5491.0,1086.0,-206.0,1472.0,3701.0,,,,-0.0185090666002172,-2.35403688215341,-0.0632583968511206,,4.359678737376532,,
,7164.0,836.0,5492.0,1086.0,-204.0,1465.0,3695.0,,,,-0.0184880797588679,-2.35402999866725,-0.0634436741851259,,4.46085514259473,,
,7167.0,836.0,5494.0,1087.0,-214.0,1457.0,3679.0,,,,-0.0185858689963729,-2.35402528590184,-0.0632517077836173,,4.490643745668571,,
,7169.0,838.0,5496.0,1089.0,-200.0,1451.0,3678.0,,,,-0.0185457968613227,-2.35374256933901,-0.0633087791947085,,4.44527192054966,,
,7170.0,835.0,5495.0,1085.0,-192.0,1452.0,3670.0,,,,-0.0185237024541651,-2.35349912325977,-0.0627952799590182,,4.323355960902205,,
,7171.0,836.0,5497.0,1087.0,-192.0,1459.0,3668.0,,,,-0.0185470316896118,-2.3538257678292,-0.0631404552253643,,4.12632372391234,,
,7172.0,834.0,5499.0,1086.0,-198.0,1460.0,3708.0,,,,-0.0185268331362551,-2.35391421961966,-0.0632443376382235,,3.858610200734461,,
,7173.0,836.0,5499.0,1088.0,-194.0,1452.0,3707.0,,,,-0.0186375629478143,-2.35363282268707,-0.0633448885321763,,3.5275801335001944,,
,7175.0,836.0,5500.0,1091.0,-197.0,1449.0,3686.0,,,,-0.018591221422673,-2.3533501306885,-0.0628323210507018,,3.1431709684658387,,
,7175.0,838.0,5500.0,1086.0,-210.0,1441.0,3662.0,,,,-0.0185825312137657,-2.35395294513428,-0.0632800552266777,,2.7172921513498314,,
,7178.0,838.0,5502.0,1086.0,-214.0,1449.0,3661.0,,,,-0.0186338546587038,-2.35401179539727,-0.0634962804688147,,2.2630535478850105,,
,7180.0,838.0,5501.0,1088.0,-216.0,1458.0,3704.0,,,,-0.0185424835273258,-2.3540206815018,-0.0631709150848052,,1.793918214193928,,
,7177.0,838.0,5505.0,1090.0,-207.0,1456.0,3701.0,,,,-0.0186102368710884,-2.3544630278541,-0.0629873411381894,,1.3228789048378076,,
,7177.0,835.0,5502.0,1087.0,-196.0,1465.0,3680.0,,,,-0.0187444547545869,-2.3544142271058,-0.0638635151780991,,0.8617450448595395,,
,7177.0,839.0,5503.0,1088.0,-201.0,1468.0,3662.0,,,,-0.0186655376564145,-2.35446190209118,-0.0634435059084098,,0.42060252276464,,
,7181.0,840.0,5505.0,1088.0,-211.0,1454.0,3657.0,,,,-0.0188047257073675,-2.35444368713954,-0.062997443094606,,0.007478769227271698,,
,7180.0,838.0,5503.0,1089.0,-203.0,1459.0,3664.0,,,,-0.018798682471473,-2.35396786251921,-0.0630779785894889,,-0.37178436028125234,,
,7179.0,838.0,5504.0,1087.0,-182.0,1458.0,3655.0,,,,-0.0187984128769656,-2.35414461700459,-0.0633441491623773,,-0.7134732769306275,,
,7179.0,838.0,5503.0,1088.0,-199.0,1469.0,3671.0,,,,-0.018885272991566,-2.354519277579,-0.0636668021004347,,-1.015803394994902,,
,7181.0,840.0,5506.0,1089.0,-206.0,1452.0,3663.0,,,,-0.0186885879825259,-2.35391460111767,-0.0637568908688781,,-1.2786310807252386,,
,7186.0,838.0,5504.0,1091.0,-219.0,1440.0,3648.0,,,,-0.0187115426557948,-2.35414449024109,-0.0642523456108044,,-1.503131670268906,,
,7181.0,839.0,5503.0,1087.0,-235.0,1451.0,3647.0,,,,-0.0186397829169458,-2.35398495196561,-0.0635650397619489,,-1.6914913998286514,,
,7184.0,837.0,5504.0,1086.0,-208.0,1459.0,3688.0,,,,-0.0185953811204625,-2.35387268758804,-0.0637587000858762,,-1.8466467263807527,,
,7183.0,839.0,5504.0,1088.0,-201.0,1449.0,3689.0,,,,-0.0185615173961856,-2.353947322241,-0.0634801268763525,,-1.9720854673227486,,
,7185.0,838.0,5508.0,1090.0,-200.0,1461.0,3688.0,,,,-0.0185105808619348,-2.35360793083582,-0.0632225652090103,,-2.0717045002348136,,
,7191.0,840.0,5507.0,1091.0,-198.0,1451.0,3685.0,,,,-0.0185474794219613,-2.3528002428332,-0.0630167002888431,,-2.1497031476336543,,
,7188.0,837.0,5509.0,1089.0,-220.0,1454.0,3681.0,,,,-0.0184981380701065,-2.35336194679884,-0.0629905439256524,,-2.2104835162421175,,
,7189.0,839.0,5510.0,1091.0,-208.0,1444.0,3667.0,,,,-0.0185324913196951,-2.3532582026948,-0.0634960798584599,,-2.2585300477926857,,
,7192.0,839.0,5512.0,1092.0,-204.0,1472.0,3664.0,,,,-0.0186261901420761,-2.35350834646117,-0.0636778226523364,,-2.298248707166375,,
,7191.0,839.0,5513.0,1092.0,-204.0,1477.0,3674.0,,,,-0.0186117062642899,-2.35371219646563,-0.0635902098001625,,-2.3337584763688204,,
2025-08-05 16:21:44,7194.0,839.0,5513.0,1092.0,-217.0,1470.0,3672.0,,,2025/08/05 04:21:44 PM,-0.0185515356656008,-2.35368905429303,-0.0633250425882205,,-2.368641089556514,,
,7194.0,841.0,5514.0,1092.0,-209.0,1464.0,3667.0,,,,-0.0185088540024568,-2.35415640842934,-0.0640486422717356,,-2.4056670069351482,,
,7199.0,840.0,5518.0,1093.0,-198.0,1451.0,3656.0,,,,-0.0185775060923875,-2.35436452993585,-0.0638876422901444,,-2.446525058539743,,
,7199.0,840.0,5520.0,1093.0,-208.0,1460.0,3667.0,,,,-0.0185941462283122,-2.35443882361605,-0.0636953558285937,,-2.4915890394674642,,
,7205.0,841.0,5520.0,1095.0,-212.0,1460.0,3670.0,,,,-0.018534914641112,-2.35425768061813,-0.0636353430550209,,-2.539756104403849,,
,7205.0,841.0,5522.0,1094.0,-207.0,1468.0,3660.0,,,,-0.0184637372032189,-2.3542723090673,-0.0637639662264745,,-2.588388638714113,,
,7208.0,841.0,5525.0,1094.0,-206.0,1472.0,3650.0,,,,-0.0184781962707087,-2.35380134927803,-0.0628596796699737,,-2.6333832865030624,,
,7209.0,842.0,5526.0,1096.0,-227.0,1448.0,3648.0,,,,-0.018383565505162,-2.35361067178561,-0.0638700618978938,,-2.6693783578516403,,
,7209.0,842.0,5531.0,1095.0,-230.0,1448.0,3639.0,,,,-0.0184104974842027,-2.35403455339521,-0.0635098978943538,,-2.6900947849806216,,
,7211.0,841.0,5534.0,1098.0,-212.0,1460.0,3662.0,,,,-0.0183200904789573,-2.35386124874553,-0.0631567266349565,,-2.6887877261264435,,
,7214.0,844.0,5535.0,1097.0,-212.0,1472.0,3658.0,,,,-0.0182383389329576,-2.35310073901243,-0.0628490090295039,,-2.658768516510811,,
,7217.0,844.0,5537.0,1101.0,-202.0,1468.0,3667.0,,,,-0.0182057289562138,-2.35241873857343,-0.0629021635184983,,-2.593943673725043,,
,7220.0,846.0,5539.0,1100.0,-203.0,1466.0,3664.0,,,,-0.0182506855577625,-2.35252938460881,-0.0624126076560622,,-2.489312624118146,,
,7224.0,845.0,5540.0,1101.0,-222.0,1469.0,3670.0,,,,-0.0183666400590682,-2.35192771814076,-0.0628334381990221,,-2.3413703475631915,,
,7222.0,844.0,5543.0,1101.0,-213.0,1470.0,3661.0,,,,-0.0180784107647515,-2.35200283138421,-0.0621879775862752,,-2.148374260524944,,
,7227.0,846.0,5545.0,1102.0,-208.0,1474.0,3663.0,,,,-0.0182675953610662,-2.35202878328437,-0.0630224536864458,,-1.910453606418869,,
,7230.0,846.0,5550.0,1102.0,-217.0,1450.0,3645.0,,,,-0.0181623020486701,-2.35244511548116,-0.0625969189673845,,-1.6295610929080666,,
,7232.0,845.0,5552.0,1103.0,-225.0,1442.0,3645.0,,,,-0.0183171950275425,-2.35246612071329,-0.0628275904266319,,-1.3092873223374848,,
,7232.0,845.0,5552.0,1105.0,-206.0,1437.0,3622.0,,,,-0.0182988405788616,-2.35240987807196,-0.063207414771147,,-0.9545757530379898,,
,7237.0,845.0,5556.0,1105.0,-206.0,1448.0,3656.0,,,,-0.0183224434236366,-2.35305069590265,-0.0629814514354506,,-0.5713869541212756,,
,7238.0,846.0,5561.0,1106.0,-201.0,1464.0,3691.0,,,,-0.0182734660638745,-2.35294766986764,-0.0631938137324467,,-0.1663640555356789,,
,7241.0,846.0,5561.0,1109.0,-190.0,1461.0,3701.0,,,,-0.0183068263294494,-2.35296576711464,-0.0633986274615296,,0.25345392870294725,,
,7243.0,846.0,5562.0,1106.0,-188.0,1463.0,3695.0,,,,-0.0183850210050197,-2.35300888575465,-0.0633418254776129,,0.6808369697370078,,
,7246.0,847.0,5567.0,1108.0,-218.0,1448.0,3660.0,,,,-0.0183306061057509,-2.35270478395952,-0.062685060703416,,1.1084715006040335,,
,7249.0,848.0,5568.0,1110.0,-211.0,1434.0,3649.0,,,,-0.0183427932884851,-2.35254357151785,-0.0629974029887674,,1.5289762001509624,,
,7252.0,849.0,5570.0,1112.0,-205.0,1434.0,3652.0,,,,-0.0182833168084883,-2.35274641760045,-0.0628582046043654,,1.93485265145923,,
,7253.0,848.0,5574.0,1111.0,-213.0,1461.0,3677.0,,,,-0.0183070912370362,-2.35262876719652,-0.0626938574868426,,2.31841386144144,,
,7255.0,847.0,5575.0,1109.0,-216.0,1482.0,3687.0,,,,-0.0181574661647106,-2.35232648471647,-0.0622912731558354,,2.671741608166487,,
,7259.0,849.0,5580.0,1113.0,-215.0,1467.0,3666.0,,,,-0.0181158975447479,-2.35230406491267,-0.0626014049833074,,2.9867208214028773,,
,7260.0,853.0,5580.0,1113.0,-226.0,1456.0,3644.0,,,,-0.01793332128053,-2.35178726395845,-0.0623221529402803,,3.255186331450381,,
,7263.0,849.0,5583.0,1113.0,-227.0,1451.0,3643.0,,,,-0.0179328746411192,-2.35169387624039,-0.0618455808350332,,3.4691974418003397,,
,7264.0,852.0,5584.0,1113.0,-214.0,1448.0,3665.0,,,,-0.0178773613936828,-2.35135050995689,-0.0616972160699985,,3.6214328592444254,,
,7265.0,852.0,5589.0,1115.0,-189.0,1429.0,3677.0,,,,-0.0179579730193437,-2.35164427615229,-0.0623186635054766,,3.705676119279646,,
,7271.0,850.0,5594.0,1117.0,-202.0,1454.0,3657.0,,,,-0.0180343350042885,-2.35200563468686,-0.0621447123045108,,3.7173426087501515,,
,7274.0,852.0,5594.0,1117.0,-227.0,1462.0,3643.0,,,,-0.0180164484793396,-2.35200256641277,-0.0625937992606318,,3.653985915410969,,
,7272.0,853.0,5597.0,1118.0,-228.0,1458.0,3662.0,,,,-0.0179625295651733,-2.3521580080035,-0.0624366606363656,,3.5157154667905024,,
,7278.0,853.0,5596.0,1119.0,-209.0,1455.0,3682.0,,,,-0.0181090257399019,-2.35272353685215,-0.0621201528307843,,3.305460695904044,,
,7281.0,855.0,5606.0,1119.0,-207.0,1464.0,3691.0,,,,-0.0181689702124864,-2.35232802604695,-0.0626806683313053,,3.0290298684446535,,
,7283.0,854.0,5605.0,1121.0,-210.0,1461.0,3689.0,,,,-0.0181920566020129,-2.35304321904294,-0.0627512007296044,,2.694933588574737,,
,7281.0,854.0,5607.0,1122.0,-206.0,1454.0,3666.0,,,,-0.0182609110101928,-2.35339250160166,-0.0629851331119481,,2.313971723043227,,
,7284.0,855.0,5606.0,1121.0,-206.0,1426.0,3659.0,,,,-0.0183207517393248,-2.35329283326982,-0.0635817502430637,,1.8986141353298136,,
,7286.0,853.0,5610.0,1120.0,-209.0,1434.0,3662.0,,,,-0.0184718299959883,-2.35405564898786,-0.0640251392057963,,1.4622346192531486,,
,7284.0,856.0,5612.0,1123.0,-212.0,1446.0,3656.0,,,,-0.0186120760225976,-2.35453362705396,-0.0638641324104658,,1.018277666394781,,
,7283.0,855.0,5612.0,1122.0,-213.0,1461.0,3656.0,,,,-0.0186610041205721,-2.35492416309674,-0.0641797100587924,,0.5794448353990447,,
,7278.0,851.0,5605.0,1116.0,-214.0,1473.0,3672.0,,,,-0.0187461317709735,-2.35504077961233,-0.0645536124670153,,0.15698080983666454,,
,7274.0,854.0,5604.0,1118.0,-203.0,1469.0,3675.0,,,,-0.0188656323196249,-2.35587776043751,-0.0640147018166441,,-0.2398783185733265,,
,7272.0,851.0,5599.0,1117.0,-194.0,1454.0,3669.0,,,,-0.0189367525841493,-2.35579138502918,-0.0647317524665747,,-0.6042555968614028,,
,7267.0,852.0,5596.0,1115.0,-207.0,1457.0,3675.0,,,,-0.0189832254637815,-2.35649230112636,-0.0648873804663096,,-0.9317685763952048,,
,7265.0,852.0,5591.0,1115.0,-231.0,1452.0,3669.0,,,,-0.0190322220284626,-2.3566506886503,-0.0646724836168475,,-1.2204583011597903,,
,7260.0,852.0,5585.0,1111.0,-207.0,1471.0,3652.0,,,,-0.0191439073602578,-2.35708821177105,-0.0646663657822264,,-1.4705393850373023,,
,7259.0,852.0,5583.0,1111.0,-198.0,1464.0,3658.0,,,,-0.0191537122448873,-2.35681497233148,-0.0649815724743719,,-1.684012193122168,,
,7258.0,851.0,5579.0,1110.0,-211.0,1473.0,3646.0,,,,-0.019116000963959,-2.35656188432762,-0.0651522223325955,,-1.8641861888113611,,
,7254.0,851.0,5576.0,1107.0,-213.0,1467.0,3649.0,,,,-0.0190744373711681,-2.35648588103267,-0.0649046452966214,,-2.01516584815197,,
,7252.0,851.0,5573.0,1105.0,-189.0,1460.0,3653.0,,,,-0.0190297654340782,-2.35651585505046,-0.0646519144494253,,-2.141347094294628,,
,7250.0,851.0,5571.0,1110.0,-213.0,1467.0,3657.0,,,,-0.0190310433019545,-2.35662534362722,-0.065425528149186,,-2.246963340651595,,
,7248.0,852.0,5570.0,1105.0,-220.0,1475.0,3678.0,,,,-0.0190287223523716,-2.35596684694439,-0.0644774126232927,,-2.3357073143310028,,
,7247.0,851.0,5568.0,1105.0,-212.0,1474.0,3669.0,,,,-0.0189995700176706,-2.35560992731055,-0.0648332514572394,,-2.4104405545261245,,
,7243.0,850.0,5561.0,1102.0,-221.0,1446.0,3662.0,,,,-0.0189110782043261,-2.35584683086323,-0.0648320305414482,,-2.472990407194176,,
,7246.0,849.0,5564.0,1106.0,-218.0,1445.0,3670.0,,,,-0.0188595826775216,-2.3555432561253,-0.0644359105565804,,-2.5240273900086887,,
,7245.0,850.0,5562.0,1104.0,-210.0,1448.0,3647.0,,,,-0.0188330185903517,-2.35548239945265,-0.0642367959449236,,-2.5630146623967285,,
,7247.0,851.0,5564.0,1107.0,-196.0,1447.0,3645.0,,,,-0.0189118910848969,-2.35539229259247,-0.064252000443206,,-2.5882242182839557,,
,7248.0,851.0,5563.0,1105.0,-196.0,1451.0,3631.0,,,,-0.0188735064711047,-2.35539154797466,-0.0646221628246597,,-2.5968183769451705,,
,7244.0,847.0,5563.0,1103.0,-202.0,1449.0,3644.0,,,,-0.0189786565705991,-2.35528047015147,-0.0640639429541374,,-2.584997694502379,,
,7248.0,850.0,5565.0,1106.0,-205.0,1439.0,3659.0,,,,-0.0190648159794694,-2.35541855253944,-0.0640795553795666,,-2.5482163417332706,,
,7248.0,850.0,5564.0,1106.0,-213.0,1461.0,3652.0,,,,-0.0190962982882181,-2.35546545937966,-0.0642261312906836,,-2.481463227469747,,
,7252.0,852.0,5564.0,1105.0,-207.0,1462.0,3669.0,,,,-0.0191084821303999,-2.3557928236439,-0.0643512560647526,,-2.379602319866639,,
,7249.0,852.0,5566.0,1103.0,-215.0,1448.0,3686.0,,,,-0.0190334129861342,-2.3560168949797,-0.0648116107650007,,-2.237759755123765,,
,7252.0,850.0,5569.0,1105.0,-222.0,1451.0,3678.0,,,,-0.0189855109983375,-2.35576781675215,-0.0643106864868485,,-2.0517396019511747,,
,7252.0,850.0,5568.0,1108.0,-228.0,1442.0,3662.0,,,,-0.0188757186169921,-2.35516311059047,-0.06452825021612,,-1.8184454941205865,,
,7254.0,853.0,5570.0,1107.0,-231.0,1442.0,3666.0,,,,-0.0189284311395334,-2.35482414739044,-0.0643842018321589,,-1.5362820828309616,,
,7256.0,853.0,5570.0,1106.0,-229.0,1449.0,3675.0,,,,-0.0188729820420215,-2.355480799387,-0.0639958174483559,,-1.2055082811134468,,
,7255.0,849.0,5571.0,1105.0,-202.0,1454.0,3666.0,,,,-0.0189901569395684,-2.35489155669858,-0.06446055679565,,-0.8285136707742368,,
,7257.0,852.0,5575.0,1109.0,-197.0,1468.0,3655.0,,,,-0.0188410293428344,-2.35483138234638,-0.0642428443433792,,-0.40999100682392536,,
,7260.0,852.0,5575.0,1109.0,-203.0,1464.0,3675.0,,,,-0.0189860790106683,-2.35469229228727,-0.0643417829294897,,0.04301753809472594,,
,7260.0,854.0,5576.0,1109.0,-216.0,1449.0,3662.0,,,,-0.0189064493430164,-2.35543151144834,-0.064154088336438,,0.5212148773165919,,
,7261.0,851.0,5577.0,1110.0,-224.0,1453.0,3651.0,,,,-0.0188275512455255,-2.35517269820338,-0.0639770178979084,,1.0132890090618702,,
,7262.0,854.0,5578.0,1107.0,-218.0,1465.0,3662.0,,,,-0.0189041306502095,-2.35483747582141,-0.0639579666236675,,1.5062933023836047,,
,7263.0,853.0,5582.0,1110.0,-219.0,1457.0,3665.0,,,,-0.018787171673094,-2.35492909197115,-0.0640875660339058,,1.986152643151624,,
,7261.0,855.0,5580.0,1111.0,-208.0,1451.0,3663.0,,,,-0.0186878387229722,-2.35510703124807,-0.0635491776163374,,2.4382726061714353,,
,7263.0,851.0,5581.0,1106.0,-216.0,1464.0,3662.0,,,,-0.0187126344750604,-2.35521629193209,-0.0640110117420099,,2.8482209415601236,,
,7264.0,852.0,5582.0,1110.0,-210.0,1459.0,3663.0,,,,-0.0187575317726762,-2.35567245195448,-0.0644171723918619,,3.202443256724332,,
,7267.0,852.0,5583.0,1109.0,-236.0,1447.0,3657.0,,,,-0.0189460189691208,-2.35550792849101,-0.0644347576672709,,3.488968371402561,,
,7263.0,855.0,5583.0,1111.0,-228.0,1447.0,3650.0,,,,-0.018938825550909,-2.35537907470792,-0.0640513670179991,,3.698054642306108,,
,7267.0,852.0,5582.0,1112.0,-219.0,1433.0,3647.0,,,,-0.0188692833492854,-2.3555794841698,-0.064542847596684,,3.8227282888696648,,
,7264.0,853.0,5583.0,1109.0,-220.0,1430.0,3635.0,,,,-0.0188645881834927,-2.35567015183961,-0.0642767162625685,,3.859169994537377,,
,7265.0,855.0,5581.0,1109.0,-204.0,1443.0,3651.0,,,,-0.0188939273074891,-2.35552410324814,-0.0645876445876595,,3.806917425883393,,
,7267.0,855.0,5582.0,1112.0,-200.0,1463.0,3668.0,,,,-0.0189719815449594,-2.35575980244679,-0.0641496288648182,,3.6688676353714422,,
,7267.0,854.0,5583.0,1110.0,-199.0,1457.0,3675.0,,,,-0.0189045389006086,-2.3552438214047,-0.0643261934674178,,3.4510816895595706,,
,7264.0,853.0,5583.0,1109.0,-227.0,1454.0,3674.0,,,,-0.0189030037961682,-2.35511687729489,-0.0643487245008929,,3.162410962037995,,
,7268.0,856.0,5584.0,1111.0,-214.0,1438.0,3675.0,,,,-0.0190079704345512,-2.35520335702254,-0.0642315919677931,,2.8139781044797028,,
,7270.0,854.0,5582.0,1111.0,-206.0,1445.0,3665.0,,,,-0.0190229133793737,-2.35516087078786,-0.0646201177594235,,2.4185549298508033,,
,7269.0,854.0,5584.0,1111.0,-220.0,1444.0,3670.0,,,,-0.0188714089863829,-2.35536725974974,-0.0640194313641323,,1.989884170548945,,
,7268.0,853.0,5589.0,1110.0,-217.0,1469.0,3665.0,,,,-0.0189658842855937,-2.35532414864723,-0.0646220691559299,,1.5419922752052098,,
,7269.0,854.0,5587.0,1113.0,-227.0,1457.0,3649.0,,,,-0.018792000392384,-2.35498707016333,-0.0638420650584575,,1.0885362146863644,,
,7272.0,855.0,5589.0,1112.0,-223.0,1446.0,3668.0,,,,-0.0188371368216851,-2.35480880840825,-0.0643630041860877,,0.6422193114075303,,
,7272.0,857.0,5589.0,1113.0,-206.0,1452.0,3671.0,,,,-0.0188070389743587,-2.35455884124412,-0.0633051247236858,,0.21430065801594328,,
,7275.0,855.0,5589.0,1112.0,-196.0,1455.0,3677.0,,,,-0.0188015261267188,-2.35485548998176,-0.0635686374933186,,-0.18578843128529252,,
,7275.0,854.0,5593.0,1113.0,-187.0,1462.0,3689.0,,,,-0.0188310796846288,-2.35480229581063,-0.0644014879582251,,-0.5507171697505294,,
