TimeLabel,MEAS1_PPG1,MEAS1_PPG2,MEAS1_PPG3,MEAS1_PPG4,ACCX,ACCY,ACCZ,HR_timestamp,HR_value,radar_timestamp,phase_rx0,phase_rx1,phase_rx2,timestep,n_process,original_rate,calculated_rate
2025-07-04 00:21:01,2282.0,578.0,1984.0,705.0,2241.0,3227.0,402.0,2025-07-04 00:21:01,65.0,2025/07/04 12:21:01 AM,-0.445042360103083,-2.81878989832722,-0.989807075020267,2025/07/04 12:21:01 AM,-6.175849198489432,18.012008666992188,17.78714436248683
,2281.0,579.0,1986.0,704.0,2249.0,3228.0,397.0,2025-07-04 00:21:02,65.0,,-0.445307596416557,-2.81860037353808,-0.989878809509149,2025/07/04 12:21:11 AM,-6.332701125095476,18.012008666992188,19.175360158966722
,2283.0,577.0,1986.0,706.0,2251.0,3237.0,389.0,2025-07-04 00:21:03,65.0,,-0.445033563754317,-2.81882381374408,-0.989861177950124,2025/07/04 12:21:21 AM,-6.490887134917937,18.004501342773438,20.342879407753745
,2279.0,577.0,1986.0,703.0,2247.0,3244.0,392.0,2025-07-04 00:21:04,65.0,,-0.445014387699771,-2.81865628494932,-0.989592941535333,2025/07/04 12:21:31 AM,-6.648289129430184,19.04090118408203,18.75228937728937
,2281.0,577.0,1985.0,704.0,2218.0,3227.0,378.0,2025-07-04 00:21:05,64.0,,-0.445177206461483,-2.81853079651032,-0.990508261492773,2025/07/04 12:21:41 AM,-6.800835002744548,19.35483932495117,20.755572034771134
,2282.0,578.0,1984.0,702.0,2254.0,3223.0,384.0,2025-07-04 00:21:06,64.0,,-0.444961238068323,-2.81864866281971,-0.989731240802803,2025/07/04 12:21:51 AM,-6.942581668094018,20.013341903686523,19.600173837462
,2283.0,579.0,1986.0,704.0,2255.0,3229.0,386.0,2025-07-04 00:21:07,63.0,,-0.445245619579809,-2.8187256275699,-0.990108040329263,2025/07/04 12:22:01 AM,-7.065939509689652,19.636363983154297,20.194554182065325
,2282.0,578.0,1984.0,703.0,2254.0,3242.0,391.0,2025-07-04 00:21:08,63.0,,-0.445320847602992,-2.81874496733645,-0.990486644619327,2025/07/04 12:22:11 AM,-7.162029381635447,20.119224548339844,19.150025601638493
,2281.0,576.0,1988.0,703.0,2236.0,3238.0,390.0,2025-07-04 00:21:09,62.0,,-0.444993868558531,-2.81870727737851,-0.991394760620664,2025/07/04 12:22:21 AM,-7.221152338978167,19.823789596557617,18.979139206137475
,2281.0,580.0,1984.0,705.0,2265.0,3227.0,383.0,2025-07-04 00:21:10,62.0,,-0.445228878045667,-2.81847530378404,-0.991240367790821,2025/07/04 12:22:31 AM,-7.233343166423938,19.70802879333496,18.415084559061757
,2281.0,579.0,1987.0,704.0,2262.0,3235.0,386.0,2025-07-04 00:21:11,62.0,,-0.445274839520275,-2.81856678933958,-0.991424853403673,2025/07/04 12:22:41 AM,-7.188970946310197,18.867923736572266,19.696327683615838
,2282.0,578.0,1984.0,704.0,2265.0,3229.0,368.0,2025-07-04 00:21:12,63.0,,-0.444972196485617,-2.81879156833667,-0.99150511480214,2025/07/04 12:22:51 AM,-7.079343273137716,19.04090118408203,18.683172193608616
,2281.0,577.0,1985.0,705.0,2261.0,3225.0,405.0,2025-07-04 00:21:13,63.0,,-0.44512919178684,-2.81879177463222,-0.99152118698071,2025/07/04 12:23:01 AM,-6.897266236944447,18.920812606811523,18.831678925944427
,2279.0,577.0,1986.0,703.0,2252.0,3221.0,403.0,2025-07-04 00:21:14,63.0,,-0.444866313016383,-2.81873403574312,-0.992432989624925,2025/07/04 12:23:11 AM,-6.637511524899017,19.10828018188477,20.05952380952382
,2279.0,578.0,1988.0,704.0,2283.0,3258.0,384.0,2025-07-04 00:21:15,63.0,,-0.444573447002169,-2.8187380206771,-0.992476732725691,2025/07/04 12:23:21 AM,-6.297146297478287,19.480518341064453,19.20872372573089
,2279.0,577.0,1985.0,703.0,2273.0,3267.0,369.0,2025-07-04 00:21:16,63.0,,-0.444661430336863,-2.81856743119033,-0.992523216516439,2025/07/04 12:23:31 AM,-5.8756916497361695,19.452449798583984,18.6598124098124
,2280.0,579.0,1988.0,702.0,2251.0,3208.0,378.0,2025-07-04 00:21:17,63.0,,-0.444956481429019,-2.81861895320106,-0.992353779360855,2025/07/04 12:23:41 AM,-5.375091570702384,19.162527084350582,19.587038066129498
,2279.0,580.0,1985.0,702.0,2283.0,3225.0,387.0,2025-07-04 00:21:18,63.0,,-0.444822830971889,-2.81887331899298,-0.992850186205919,2025/07/04 12:23:51 AM,-4.7994955400995805,19.10828018188477,20.227573686973006
,2284.0,580.0,1987.0,705.0,2242.0,3231.0,403.0,2025-07-04 00:21:19,62.0,,-0.445021999058726,-2.81870341556012,-0.993164369903848,,-4.154881920997932,,
,2280.0,578.0,1990.0,705.0,2248.0,3233.0,387.0,2025-07-04 00:21:20,63.0,,-0.445188540769619,-2.81858545959583,-0.993246553865499,,-3.4485720504843234,,
,2283.0,580.0,1987.0,702.0,2258.0,3233.0,374.0,2025-07-04 00:21:21,63.0,,-0.445014006977519,-2.81842084312732,-0.992485103714614,,-2.6887014227810253,,
,2281.0,578.0,1988.0,701.0,2236.0,3236.0,387.0,2025-07-04 00:21:22,63.0,,-0.44496946523026,-2.81833380300293,-0.993047585041528,,-1.8837204563338241,,
,2282.0,579.0,1988.0,705.0,2236.0,3240.0,396.0,2025-07-04 00:21:23,64.0,,-0.444736884537509,-2.81868663088207,-0.992673416058421,,-1.0419913430458316,,
,2284.0,579.0,1985.0,702.0,2252.0,3244.0,400.0,2025-07-04 00:21:24,65.0,,-0.444919089719613,-2.81838016450688,-0.993759545287366,,-0.1715306856854788,,
,2285.0,580.0,1988.0,703.0,2247.0,3237.0,394.0,2025-07-04 00:21:25,66.0,,-0.444819837202979,-2.81863516639251,-0.99319967168074,,0.7200762911314021,,
,2284.0,579.0,1988.0,703.0,2251.0,3235.0,388.0,2025-07-04 00:21:26,67.0,,-0.444716822461486,-2.8186892132129,-0.993171805849317,,1.625590376091662,,
,2283.0,579.0,1987.0,702.0,2251.0,3222.0,387.0,2025-07-04 00:21:27,67.0,,-0.444382822625739,-2.81855902716174,-0.993074851660843,,2.537886189117314,,
,2285.0,582.0,1990.0,702.0,2261.0,3220.0,399.0,2025-07-04 00:21:28,67.0,,-0.444431894141126,-2.81882375336769,-0.992426845197956,,3.4496161364110076,,
,2285.0,582.0,1988.0,703.0,2241.0,3228.0,368.0,2025-07-04 00:21:29,67.0,,-0.444414751375535,-2.81848211398097,-0.992307128793825,,4.352825688140913,,
,2285.0,580.0,1991.0,704.0,2251.0,3233.0,360.0,2025-07-04 00:21:30,66.0,,-0.444506454144248,-2.81859690053841,-0.993031934921478,,5.238581088129077,,
,2285.0,578.0,1989.0,702.0,2230.0,3236.0,364.0,2025-07-04 00:21:31,66.0,,-0.44460832645594,-2.81863701754512,-0.992530517190906,,6.0966704898652795,,
,2287.0,582.0,1991.0,704.0,2245.0,3225.0,373.0,2025-07-04 00:21:32,65.0,,-0.444487932306853,-2.81882685719684,-0.993245771850065,,6.915433502588191,,
,2287.0,582.0,1992.0,705.0,2230.0,3239.0,408.0,2025-07-04 00:21:33,65.0,,-0.444742146216254,-2.81844378472686,-0.993371374648563,,7.681762563311167,,
,2287.0,581.0,1993.0,703.0,2235.0,3235.0,401.0,2025-07-04 00:21:34,65.0,,-0.444705180617101,-2.81837014953353,-0.993221270623395,,8.381303339859391,,
,2288.0,580.0,1990.0,704.0,2245.0,3241.0,393.0,2025-07-04 00:21:35,65.0,,-0.444667276676946,-2.81828688260757,-0.993303994072517,,8.998862021148028,,
,2290.0,580.0,1992.0,704.0,2255.0,3233.0,397.0,2025-07-04 00:21:36,65.0,,-0.444965917241069,-2.81853262106211,-0.99436135439048,,9.519006630200078,,
,2290.0,581.0,1994.0,705.0,2288.0,3228.0,398.0,2025-07-04 00:21:37,65.0,,-0.445201626287371,-2.81830824024686,-0.994353820296441,,9.926829073150898,,
,2291.0,583.0,1995.0,705.0,2278.0,3229.0,398.0,2025-07-04 00:21:38,64.0,,-0.444873075083078,-2.8183996718333,-0.994563770315623,,10.208815934559144,,
,2291.0,584.0,1992.0,704.0,2269.0,3240.0,397.0,2025-07-04 00:21:39,64.0,,-0.445016754301516,-2.81849379085849,-0.994100135239949,,10.35376026445469,,
,2291.0,581.0,1991.0,703.0,2254.0,3237.0,393.0,2025-07-04 00:21:40,64.0,,-0.445181114163838,-2.81848766839359,-0.994618679439762,,10.353634980634933,,
,2293.0,581.0,1992.0,706.0,2249.0,3233.0,408.0,2025-07-04 00:21:41,64.0,,-0.445269464207301,-2.81879356546041,-0.994016444879651,,10.204342549636634,,
,2293.0,583.0,1997.0,706.0,2242.0,3224.0,405.0,2025-07-04 00:21:42,64.0,,-0.445989419792426,-2.81884648994019,-0.993170360740277,,9.906257455413211,,
,2293.0,584.0,1992.0,706.0,2240.0,3216.0,403.0,2025-07-04 00:21:43,64.0,,-0.445169028930493,-2.81856524493847,-0.993750295418277,,9.46449014046037,,
,2294.0,582.0,1996.0,704.0,2237.0,3219.0,372.0,2025-07-04 00:21:44,64.0,,-0.445259264270085,-2.81847209163255,-0.992700880640688,,8.888825230607122,,
,2295.0,581.0,1996.0,704.0,2245.0,3222.0,375.0,2025-07-04 00:21:45,64.0,,-0.445207051622393,-2.81863036416503,-0.99387468698317,,8.193321804955344,,
,2295.0,584.0,1996.0,708.0,2249.0,3222.0,396.0,2025-07-04 00:21:46,64.0,,-0.445061898434679,-2.81849185669068,-0.993340211919889,,7.395604327732765,,
,2296.0,585.0,1998.0,706.0,2246.0,3216.0,395.0,2025-07-04 00:21:47,64.0,,-0.444923376845449,-2.81841145728624,-0.993567666814245,,6.515911652700258,,
,2294.0,584.0,1997.0,704.0,2225.0,3227.0,403.0,2025-07-04 00:21:48,64.0,,-0.44491415645825,-2.81841138487969,-0.993535454115215,,5.575999757590263,,
,2297.0,585.0,1997.0,704.0,2235.0,3211.0,388.0,2025-07-04 00:21:49,64.0,,-0.445105870057843,-2.81850868404229,-0.993775813289269,,4.598005871871002,,
,2300.0,584.0,1997.0,705.0,2264.0,3215.0,392.0,2025-07-04 00:21:50,64.0,,-0.445082948239334,-2.81851543364456,-0.993280848859164,,3.6033766183167235,,
,2301.0,585.0,1999.0,704.0,2286.0,3233.0,397.0,2025-07-04 00:21:51,64.0,,-0.444923253038206,-2.81840391287991,-0.992433193576131,,2.6119442088093394,,
,2300.0,585.0,1999.0,705.0,2281.0,3242.0,391.0,2025-07-04 00:21:52,64.0,,-0.444625782551223,-2.81834671178667,-0.992819006514103,,1.6412081290081793,,
,2299.0,586.0,1996.0,707.0,2256.0,3245.0,394.0,2025-07-04 00:21:53,65.0,,-0.444404913922132,-2.8182710212728,-0.992524738164569,,0.7058505739619199,,
,2300.0,585.0,1999.0,707.0,2242.0,3238.0,390.0,2025-07-04 00:21:54,65.0,,-0.444449970537993,-2.81830153237661,-0.993353241139515,,-0.1825134178631813,,
,2302.0,585.0,2001.0,708.0,2251.0,3230.0,394.0,2025-07-04 00:21:55,65.0,,-0.44441356397607,-2.81837652929884,-0.992805674357824,,-1.0153725524014297,,
,2303.0,588.0,2001.0,707.0,2252.0,3229.0,384.0,2025-07-04 00:21:56,65.0,,-0.444379693481869,-2.81821825649197,-0.992755827791965,,-1.7871796988512545,,
,2301.0,586.0,1998.0,706.0,2235.0,3232.0,388.0,2025-07-04 00:21:57,65.0,,-0.444675743241054,-2.81840126621329,-0.992676013984972,,-2.495081705669011,,
,2304.0,587.0,2001.0,706.0,2248.0,3233.0,404.0,2025-07-04 00:21:58,66.0,,-0.444369115155414,-2.81843965735722,-0.993010805341722,,-3.1385657138224072,,
,2303.0,589.0,2002.0,707.0,2236.0,3239.0,402.0,2025-07-04 00:21:59,66.0,,-0.444773647970902,-2.81850838390802,-0.992903031325924,,-3.719064566923652,,
,2306.0,588.0,2001.0,708.0,2238.0,3233.0,389.0,2025-07-04 00:22:00,66.0,,-0.444809798056544,-2.81839163651692,-0.993763996862711,,-4.239554724056274,,
,2303.0,587.0,2001.0,706.0,2245.0,3213.0,391.0,2025-07-04 00:22:01,66.0,,-0.444535887243284,-2.81818272454549,-0.993282508794188,,-4.704168005812443,,
,2305.0,589.0,2000.0,708.0,2259.0,3222.0,400.0,2025-07-04 00:22:02,67.0,,-0.444795043424801,-2.81822523179198,-0.994312436478573,,-5.117825905115634,,
,2307.0,588.0,2004.0,708.0,2252.0,3208.0,391.0,2025-07-04 00:22:03,67.0,,-0.444715917659883,-2.81842232913611,-0.993577096421926,,-5.485894837566313,,
,2308.0,590.0,2002.0,707.0,2258.0,3224.0,384.0,2025-07-04 00:22:04,67.0,,-0.444675805159883,-2.81810749295831,-0.994446205827695,,-5.813855001978268,,
,2309.0,589.0,2004.0,710.0,2280.0,3235.0,387.0,2025-07-04 00:22:05,67.0,,-0.44470186066942,-2.81822844079506,-0.993570903636756,,-6.106975389143879,,
,2306.0,589.0,2003.0,708.0,2257.0,3228.0,394.0,2025-07-04 00:22:06,67.0,,-0.444652076375213,-2.81830384246203,-0.994104612929476,,-6.369991953794593,,
,2310.0,588.0,2003.0,708.0,2245.0,3229.0,370.0,2025-07-04 00:22:07,67.0,,-0.444477115329098,-2.81844420680815,-0.993628556269288,,-6.606793050640184,,
,2312.0,590.0,2005.0,709.0,2237.0,3231.0,369.0,2025-07-04 00:22:08,68.0,,-0.444356622474792,-2.81808517241198,-0.994152789110879,,-6.820123991542167,,
,2312.0,589.0,2008.0,710.0,2234.0,3222.0,373.0,2025-07-04 00:22:09,68.0,,-0.44437962113186,-2.81830725740886,-0.994862349592735,,-7.011329515452727,,
,2312.0,588.0,2007.0,708.0,2236.0,3235.0,390.0,2025-07-04 00:22:10,68.0,,-0.444540833087846,-2.81807712427676,-0.994291848879489,,-7.180157845915786,,
,2312.0,590.0,2009.0,711.0,2243.0,3246.0,403.0,2025-07-04 00:22:11,68.0,,-0.444553057196455,-2.81810023332945,-0.99526301476335,,-7.324651729260927,,
,2313.0,591.0,2008.0,709.0,2267.0,3242.0,395.0,2025-07-04 00:22:12,68.0,,-0.444460107095693,-2.8181942012129,-0.99492192333153,,-7.441149575070456,,
,2315.0,592.0,2012.0,708.0,2281.0,3245.0,389.0,2025-07-04 00:22:13,68.0,,-0.444554274073453,-2.81816943787819,-0.99621997700465,,-7.524413353034347,,
,2316.0,593.0,2009.0,710.0,2257.0,3236.0,395.0,2025-07-04 00:22:14,67.0,,-0.444324836399885,-2.81808136978078,-0.995255472325212,,-7.5678897756628025,,
,2316.0,593.0,2009.0,711.0,2245.0,3233.0,382.0,2025-07-04 00:22:15,67.0,,-0.444449751120181,-2.81798304381647,-0.996177876963715,,-7.564098578109494,,
,2318.0,595.0,2012.0,713.0,2252.0,3228.0,401.0,2025-07-04 00:22:16,66.0,,-0.444269547292633,-2.81802692931923,-0.995308411135671,,-7.505127692966496,,
,2319.0,592.0,2010.0,711.0,2255.0,3242.0,408.0,2025-07-04 00:22:17,65.0,,-0.4444955915054,-2.81792742797483,-0.995882193144452,,-7.3832013014170395,,
,2320.0,594.0,2010.0,711.0,2253.0,3240.0,411.0,2025-07-04 00:22:18,65.0,,-0.444255334052052,-2.81839480926104,-0.995280989077561,,-7.191274951974221,,
,2318.0,593.0,2011.0,709.0,2254.0,3227.0,415.0,2025-07-04 00:22:19,65.0,,-0.444229382191937,-2.81850730867196,-0.995320205254315,,-6.923604292086149,,
,2320.0,593.0,2011.0,713.0,2229.0,3227.0,396.0,2025-07-04 00:22:20,65.0,,-0.444141127789552,-2.818089782028,-0.996981405564634,,-6.576232370783969,,
,2321.0,595.0,2013.0,712.0,2250.0,3230.0,387.0,2025-07-04 00:22:21,66.0,,-0.444231421036978,-2.8183630035617,-0.99563261505484,,-6.147345988809457,,
,2322.0,595.0,2013.0,713.0,2256.0,3228.0,375.0,2025-07-04 00:22:22,66.0,,-0.444059085671633,-2.81829975892959,-0.996543145727954,,-5.637464149332723,,
,2321.0,594.0,2014.0,712.0,2280.0,3226.0,403.0,2025-07-04 00:22:23,66.0,,-0.443826930902617,-2.81822124723326,-0.995588364397973,,-5.049440397360713,,
,2324.0,593.0,2012.0,710.0,2247.0,3214.0,408.0,2025-07-04 00:22:24,66.0,,-0.443808367400316,-2.81797661579106,-0.996029041662071,,-4.388283866135923,,
,2325.0,595.0,2014.0,713.0,2259.0,3227.0,388.0,2025-07-04 00:22:25,65.0,,-0.443992376250057,-2.81789753505611,-0.995658109535613,,-3.660827773049343,,
,2322.0,595.0,2016.0,715.0,2262.0,3229.0,380.0,2025-07-04 00:22:26,65.0,,-0.443425908349895,-2.8179256421453,-0.995620814802523,,-2.8752943010631418,,
,2325.0,594.0,2018.0,714.0,2242.0,3241.0,394.0,2025-07-04 00:22:27,65.0,,-0.443545214512167,-2.81772780404443,-0.995520827944945,,-2.040817247268775,,
,2327.0,595.0,2015.0,714.0,2254.0,3231.0,377.0,2025-07-04 00:22:28,65.0,,-0.443212196562993,-2.81780354907625,-0.99511576508706,,-1.166986832572468,,
,2327.0,597.0,2020.0,714.0,2225.0,3234.0,392.0,2025-07-04 00:22:29,65.0,,-0.443395498326972,-2.81747263987604,-0.995412154737761,,-0.2634752658402368,,
,2330.0,597.0,2019.0,715.0,2229.0,3214.0,387.0,2025-07-04 00:22:30,65.0,,-0.442930048613137,-2.81740203674811,-0.994793887900371,,0.6602112835045035,,
,2332.0,599.0,2019.0,715.0,2241.0,3218.0,387.0,2025-07-04 00:22:31,66.0,,-0.44285658894455,-2.8176767156407,-0.994582862821863,,1.5948269543407103,,
,2329.0,595.0,2019.0,713.0,2263.0,3238.0,373.0,2025-07-04 00:22:32,66.0,,-0.44263916904147,-2.81747844346098,-0.995016131726312,,2.531321224137975,,
,2333.0,598.0,2021.0,716.0,2262.0,3225.0,400.0,2025-07-04 00:22:33,66.0,,-0.442567721992497,-2.81752228252833,-0.994842920979053,,3.4606325218200436,,
,2330.0,597.0,2019.0,713.0,2267.0,3218.0,391.0,2025-07-04 00:22:34,66.0,,-0.442631875980442,-2.817201017809,-0.995044984732722,,4.3733804283638875,,
,2331.0,600.0,2020.0,714.0,2267.0,3214.0,394.0,2025-07-04 00:22:35,66.0,,-0.442526798420086,-2.81720785619247,-0.994552910862569,,5.2595148365566615,,
,2332.0,598.0,2021.0,716.0,2276.0,3218.0,397.0,2025-07-04 00:22:36,65.0,,-0.44206692991887,-2.81702562262272,-0.993563574955712,,6.1079924542006125,,
,2334.0,600.0,2020.0,714.0,2291.0,3232.0,389.0,2025-07-04 00:22:37,64.0,,-0.442082552770028,-2.81705895316634,-0.993859454152646,,6.906554588693532,,
,2332.0,599.0,2024.0,716.0,2263.0,3231.0,403.0,2025-07-04 00:22:38,64.0,,-0.4418870742118,-2.81666041388326,-0.993978644234992,,7.641673969506801,,
,2331.0,596.0,2020.0,714.0,2260.0,3223.0,394.0,2025-07-04 00:22:39,64.0,,-0.442024325124728,-2.81684380380597,-0.99344791268649,,8.298722495986468,,
,2331.0,600.0,2022.0,714.0,2252.0,3221.0,388.0,2025-07-04 00:22:40,64.0,,-0.441556481074917,-2.81653620552932,-0.993965799383424,,8.862387669823681,,
,2327.0,596.0,2021.0,712.0,2240.0,3222.0,359.0,2025-07-04 00:22:41,65.0,,-0.441268112475682,-2.81634599009265,-0.993458204056577,,9.317335349653641,,
,2325.0,599.0,2019.0,713.0,2248.0,3232.0,406.0,2025-07-04 00:22:42,65.0,,-0.441458529867748,-2.81614275672246,-0.993912552517757,,9.649083112100712,,
,2324.0,599.0,2019.0,714.0,2245.0,3239.0,417.0,2025-07-04 00:22:43,66.0,,-0.441344611200625,-2.81639500784197,-0.993718717058448,,9.845015551610745,,
,2322.0,596.0,2017.0,709.0,2245.0,3237.0,415.0,2025-07-04 00:22:44,66.0,,-0.44118161667228,-2.81610510234072,-0.993616757389696,,9.895444982489686,,
,2316.0,594.0,2016.0,707.0,2245.0,3212.0,400.0,2025-07-04 00:22:45,66.0,,-0.441218573047642,-2.81586260606258,-0.993361060316542,,9.794603107869765,,
,2315.0,595.0,2015.0,711.0,2236.0,3225.0,413.0,2025-07-04 00:22:46,66.0,,-0.441476219219471,-2.81637927869474,-0.993390569760781,,9.541445168610686,,
,2313.0,594.0,2017.0,708.0,2225.0,3228.0,398.0,2025-07-04 00:22:47,66.0,,-0.4412079408335,-2.81605030434425,-0.994375225833848,,9.140160045439305,,
,2309.0,595.0,2017.0,707.0,2238.0,3210.0,395.0,2025-07-04 00:22:48,66.0,,-0.440935759154737,-2.81647281027223,-0.9938265442959,,8.600307820681174,,
,2309.0,591.0,2014.0,705.0,2238.0,3200.0,381.0,2025-07-04 00:22:49,67.0,,-0.441052932124858,-2.81634739119462,-0.994294733616441,,7.936547747905074,,
,2306.0,592.0,2013.0,705.0,2229.0,3208.0,401.0,2025-07-04 00:22:50,67.0,,-0.441207957198939,-2.81634655816108,-0.99425972824069,,7.167968482291095,,
,2308.0,594.0,2015.0,707.0,2247.0,3223.0,402.0,2025-07-04 00:22:51,67.0,,-0.441179261971359,-2.81659465984049,-0.994835294228059,,6.317080112746285,,
,2306.0,592.0,2011.0,706.0,2252.0,3216.0,396.0,2025-07-04 00:22:52,67.0,,-0.441311190156208,-2.8164593504204,-0.994431234039115,,5.408564921256041,,
,2303.0,595.0,2014.0,707.0,2248.0,3211.0,382.0,2025-07-04 00:22:53,67.0,,-0.441384705280027,-2.8167121232191,-0.99427477734294,,4.4679045944600935,,
,2301.0,590.0,2012.0,702.0,2241.0,3219.0,367.0,2025-07-04 00:22:54,67.0,,-0.441183819610889,-2.81689928148967,-0.99495069414889,,3.5200044060597127,,
,2301.0,591.0,2011.0,705.0,2245.0,3235.0,392.0,2025-07-04 00:22:55,67.0,,-0.44091758509492,-2.81655050593607,-0.994688496688399,,2.5879227621517087,,
,2303.0,593.0,2012.0,704.0,2234.0,3235.0,396.0,2025-07-04 00:22:56,68.0,,-0.441264815659222,-2.81657312871967,-0.995002101505964,,1.6917929300356556,,
,2301.0,593.0,2012.0,704.0,2252.0,3238.0,405.0,2025-07-04 00:22:57,68.0,,-0.441167045871376,-2.81693599041131,-0.995026344174735,,0.847998256430289,,
,2299.0,591.0,2010.0,702.0,2281.0,3261.0,414.0,2025-07-04 00:22:58,68.0,,-0.441198339639733,-2.81653358516602,-0.994734055711849,,0.0686366579246267,,
,2299.0,590.0,2012.0,704.0,2278.0,3238.0,396.0,2025-07-04 00:22:59,68.0,,-0.441450396095164,-2.81642412794692,-0.995709298943567,,-0.6387135367814619,,
,2298.0,591.0,2014.0,701.0,2268.0,3222.0,385.0,2025-07-04 00:23:00,69.0,,-0.441411035914716,-2.81647735313144,-0.99570846227863,,-1.270935877340629,,
,2297.0,590.0,2011.0,704.0,2262.0,3218.0,402.0,2025-07-04 00:23:01,69.0,,-0.441528785447153,-2.81677602017769,-0.995899621950502,,-1.8290548841452456,,
,2297.0,592.0,2011.0,704.0,2261.0,3212.0,395.0,2025-07-04 00:23:02,69.0,,-0.441847023864951,-2.81667960167467,-0.995384279426927,,-2.31769621537731,,
,2294.0,589.0,2008.0,701.0,2257.0,3221.0,393.0,2025-07-04 00:23:03,70.0,,-0.441939063909324,-2.81681919303745,-0.995582354574609,,-2.7443824316391074,,
,2296.0,590.0,2009.0,703.0,2254.0,3224.0,378.0,2025-07-04 00:23:04,70.0,,-0.441486217455214,-2.81684206516416,-0.995594152223611,,-3.118722692331745,,
,2294.0,590.0,2011.0,701.0,2245.0,3214.0,377.0,2025-07-04 00:23:05,69.0,,-0.442062710815169,-2.81691874154955,-0.996252119260135,,-3.4515525099327307,,
,2294.0,587.0,2008.0,701.0,2232.0,3210.0,408.0,2025-07-04 00:23:06,69.0,,-0.441923914969434,-2.81701535634223,-0.99621696968765,,-3.7540732542320323,,
,2292.0,587.0,2009.0,700.0,2231.0,3234.0,399.0,2025-07-04 00:23:07,69.0,,-0.442662764262174,-2.81710105752856,-0.996497885047113,,-4.037032803107133,,
,2292.0,590.0,2010.0,701.0,2230.0,3207.0,397.0,2025-07-04 00:23:08,69.0,,-0.442618474079384,-2.81729695661086,-0.996253955008837,,-4.3099806054640215,,
2025-07-04 00:21:02,2293.0,589.0,2010.0,702.0,2242.0,3217.0,402.0,2025-07-04 00:23:09,68.0,2025/07/04 12:21:02 AM,-0.442814098644614,-2.81753113709687,-0.99686929947976,,-4.5806236460179175,,
,2292.0,589.0,2009.0,702.0,2248.0,3216.0,398.0,2025-07-04 00:23:10,68.0,,-0.442684816851378,-2.81735345283055,-0.998269241642258,,-4.854304754361829,,
,2291.0,588.0,2011.0,701.0,2255.0,3224.0,391.0,2025-07-04 00:23:11,68.0,,-0.443316984937587,-2.81721503432642,-0.997446973860413,,-5.133621189646479,,
,2290.0,588.0,2008.0,700.0,2262.0,3212.0,390.0,2025-07-04 00:23:12,68.0,,-0.443313817501731,-2.81736775036701,-0.997785369214366,,-5.418198930109017,,
,2288.0,589.0,2009.0,701.0,2240.0,3221.0,403.0,2025-07-04 00:23:13,68.0,,-0.443328490972182,-2.81706852283194,-0.998205137157849,,-5.7046358709940534,,
,2289.0,589.0,2009.0,701.0,2247.0,3225.0,412.0,2025-07-04 00:23:14,69.0,,-0.443417702589387,-2.81747048614,-0.997839394041658,,-5.986624256330236,,
,2289.0,587.0,2012.0,701.0,2246.0,3226.0,421.0,2025-07-04 00:23:15,69.0,,-0.443278078723114,-2.81725707974906,-0.997402199342721,,-6.2552579839697104,,
,2287.0,586.0,2009.0,700.0,2252.0,3228.0,406.0,2025-07-04 00:23:16,69.0,,-0.44344826731769,-2.81726810136705,-0.99762125880407,,-6.499522646949223,,
,2285.0,587.0,2007.0,700.0,2258.0,3238.0,398.0,2025-07-04 00:23:17,69.0,,-0.443277468952507,-2.81766925838118,-0.998045911224227,,-6.706954278387778,,
,2288.0,590.0,2010.0,700.0,2258.0,3244.0,402.0,2025-07-04 00:23:18,69.0,,-0.443377885967368,-2.81767620012957,-0.997985943887711,,-6.864436718731915,,
,2287.0,588.0,2009.0,700.0,2270.0,3247.0,406.0,2025-07-04 00:23:19,69.0,,-0.443807066846777,-2.81757157759384,-0.998528866300796,,-6.959089127302179,,
,2284.0,588.0,2009.0,698.0,2245.0,3252.0,396.0,2025-07-04 00:23:20,69.0,,-0.443405797723127,-2.81748842658292,-0.998099217911208,,-6.97917807950103,,
,2283.0,588.0,2008.0,696.0,2243.0,3233.0,390.0,2025-07-04 00:23:21,69.0,,-0.443448062267481,-2.81741582483675,-0.999591443020452,,-6.914977075798142,,
,2286.0,590.0,2009.0,699.0,2232.0,3230.0,410.0,2025-07-04 00:23:22,68.0,,-0.44353245739741,-2.81780561562036,-0.999699291192625,,-6.759493042436499,,
,2286.0,591.0,2009.0,700.0,2247.0,3224.0,400.0,2025-07-04 00:23:23,68.0,,-0.443784574664347,-2.81764598025751,-0.999876822761323,,-6.508985661029379,,
,2285.0,589.0,2009.0,701.0,2234.0,3217.0,399.0,2025-07-04 00:23:24,67.0,,-0.443663613484727,-2.81743857728511,-1.00008320131708,,-6.163221131935492,,
,2285.0,587.0,2006.0,695.0,2242.0,3214.0,389.0,2025-07-04 00:23:25,67.0,,-0.444054204381587,-2.81743379472937,-1.00080448540211,,-5.725426646114942,,
,2284.0,587.0,2008.0,698.0,2250.0,3216.0,382.0,2025-07-04 00:23:26,67.0,,-0.444055355663719,-2.8174946089465,-1.00016306638851,,-5.20194382534843,,
,2283.0,588.0,2008.0,695.0,2228.0,3228.0,379.0,2025-07-04 00:23:27,67.0,,-0.444230136077271,-2.8174731362737,-1.00069094200855,,-4.601615321528808,,
,2285.0,586.0,2011.0,697.0,2219.0,3236.0,372.0,2025-07-04 00:23:28,67.0,,-0.444126133456794,-2.81765732432157,-1.0010959018059,,-3.9349732994156446,,
,2280.0,586.0,2006.0,696.0,2251.0,3224.0,386.0,2025-07-04 00:23:29,67.0,,-0.443780406382386,-2.81787220455397,-1.00095608785882,,-3.213325477250363,,
,2282.0,589.0,2008.0,697.0,2268.0,3247.0,388.0,2025-07-04 00:23:30,68.0,,-0.443587181691971,-2.81770953776774,-1.00070888269602,,-2.4478487382130556,,
,2282.0,589.0,2009.0,697.0,2252.0,3232.0,388.0,2025-07-04 00:23:31,69.0,,-0.44400584964024,-2.81753049231125,-1.00113821384217,,-1.6487997673953982,,
,2284.0,590.0,2009.0,700.0,2234.0,3212.0,387.0,2025-07-04 00:23:32,71.0,,-0.443917478544217,-2.81752013156227,-1.00046739944906,,-0.8249374030951417,,
,2282.0,586.0,2006.0,697.0,2243.0,3223.0,373.0,2025-07-04 00:23:33,72.0,,-0.443715510425045,-2.81772480533742,-1.00098046259952,,0.016774825410307642,,
,2282.0,586.0,2008.0,696.0,2260.0,3230.0,383.0,2025-07-04 00:23:34,73.0,,-0.443374282499022,-2.81790026310684,-1.00069504668902,,0.8711514545039739,,
,2283.0,587.0,2009.0,698.0,2238.0,3222.0,374.0,2025-07-04 00:23:35,73.0,,-0.443149611297984,-2.81767254191728,-0.998797004460973,,1.734456329751694,,
,2283.0,588.0,2010.0,698.0,2233.0,3225.0,385.0,2025-07-04 00:23:36,72.0,,-0.443312172705644,-2.81774039534265,-1.00022789414541,,2.6038030936065644,,
,2285.0,588.0,2009.0,696.0,2235.0,3229.0,395.0,2025-07-04 00:23:37,72.0,,-0.443997314142628,-2.81743508209675,-1.00042754076452,,3.476359375921285,,
,2284.0,588.0,2008.0,698.0,2237.0,3239.0,386.0,2025-07-04 00:23:38,71.0,,-0.443540161268601,-2.81760210321735,-1.00004811800406,,4.348455296637958,,
,2282.0,588.0,2007.0,696.0,2246.0,3223.0,379.0,2025-07-04 00:23:39,70.0,,-0.443178620397695,-2.81762835137355,-0.99954960362349,,5.214711880677453,,
,2283.0,588.0,2008.0,698.0,2235.0,3211.0,396.0,2025-07-04 00:23:40,69.0,,-0.443434019393406,-2.8176838683855,-0.998948566941579,,6.067306388031369,,
,2284.0,587.0,2009.0,699.0,2243.0,3216.0,403.0,2025-07-04 00:23:41,69.0,,-0.443164711801316,-2.81748076626772,-0.99953430194651,,6.895479563313684,,
,2284.0,587.0,2010.0,698.0,2265.0,3241.0,388.0,2025-07-04 00:23:42,68.0,,-0.443284166614272,-2.81738124883839,-0.999725532613438,,7.6853669664040485,,
,2283.0,588.0,2010.0,697.0,2265.0,3224.0,370.0,2025-07-04 00:23:43,68.0,,-0.443429424759144,-2.81767280226031,-0.999560546727186,,8.42020593057796,,
,2287.0,589.0,2012.0,700.0,2269.0,3223.0,390.0,2025-07-04 00:23:44,67.0,,-0.443305078902134,-2.81744624997334,-0.999853809789544,,9.080933608768344,,
,2286.0,588.0,2010.0,698.0,2261.0,3237.0,403.0,2025-07-04 00:23:45,67.0,,-0.443370767362732,-2.81740492573946,-1.00064582241483,,9.647151840075871,,
,2286.0,589.0,2012.0,697.0,2254.0,3234.0,406.0,2025-07-04 00:23:46,66.0,,-0.443316504169682,-2.81731935755246,-0.998990450839528,,10.098393582013497,,
,2285.0,587.0,2010.0,694.0,2248.0,3241.0,393.0,2025-07-04 00:23:47,66.0,,-0.443665895176675,-2.81755668954915,-1.0002838198676,,10.41558708504957,,
,2287.0,590.0,2011.0,697.0,2235.0,3220.0,373.0,2025-07-04 00:23:48,66.0,,-0.443523525679009,-2.8175417787458,-0.999813512457828,,10.582582685934698,,
,2286.0,588.0,2010.0,697.0,2262.0,3220.0,410.0,2025-07-04 00:23:49,66.0,,-0.443217738354891,-2.81776133592176,-0.999207820590047,,10.587588183984833,,
,2287.0,591.0,2013.0,699.0,2258.0,3218.0,403.0,2025-07-04 00:23:50,66.0,,-0.442997150577588,-2.81761502423873,-0.999230719324602,,10.424356520258414,,
,2287.0,588.0,2009.0,697.0,2266.0,3236.0,394.0,2025-07-04 00:23:51,66.0,,-0.443080500896392,-2.81741720840138,-1.00010268748266,,10.092986489389114,,
,2287.0,589.0,2011.0,695.0,2269.0,3227.0,379.0,2025-07-04 00:23:52,66.0,,-0.443000184721715,-2.81767620203627,-0.99890877318037,,9.600233653950083,,
,2288.0,592.0,2013.0,698.0,2256.0,3235.0,371.0,2025-07-04 00:23:53,66.0,,-0.442880413216631,-2.81780631245425,-0.998595532106282,,8.959281451375544,,
,2289.0,591.0,2012.0,700.0,2259.0,3234.0,381.0,2025-07-04 00:23:54,65.0,,-0.442995012522522,-2.81784837797005,-0.999414868044684,,8.188984875044113,,
,2289.0,591.0,2013.0,699.0,2241.0,3231.0,371.0,2025-07-04 00:23:55,65.0,,-0.442723934811467,-2.81782493894834,-0.999330305359522,,7.312661294077378,,
,2289.0,588.0,2012.0,695.0,2243.0,3229.0,397.0,2025-07-04 00:23:56,64.0,,-0.442977314788016,-2.81780722428401,-1.00019122499665,,6.356554626321554,,
,2289.0,589.0,2014.0,700.0,2263.0,3248.0,405.0,2025-07-04 00:23:57,64.0,,-0.442796330605596,-2.8177731228507,-1.00027260213296,,5.348132100973529,,
,2291.0,592.0,2014.0,700.0,2290.0,3235.0,409.0,2025-07-04 00:23:58,64.0,,-0.443093540477103,-2.81770294900713,-0.999834330353884,,4.3143830807480965,,
,2291.0,593.0,2014.0,698.0,2289.0,3238.0,419.0,2025-07-04 00:23:59,65.0,,-0.442299690330059,-2.81735564517896,-1.00018226430356,,3.280277159917253,,
,2290.0,589.0,2012.0,697.0,2274.0,3236.0,419.0,2025-07-04 00:24:00,65.0,,-0.442214519986334,-2.81771751940082,-1.00002616776393,,2.267508356443077,,
,2290.0,593.0,2014.0,698.0,2263.0,3235.0,413.0,,,,-0.442177302675513,-2.81721348257985,-0.999906992409004,,1.293610515673103,,
,2293.0,591.0,2016.0,701.0,2246.0,3236.0,384.0,,,,-0.442195029861136,-2.8173113852954,-0.999770161669493,,0.3714832131930573,,
,2295.0,591.0,2016.0,698.0,2243.0,3235.0,385.0,,,,-0.442177469217598,-2.81737782959952,-0.999496856784947,,-0.49067655471434807,,
,2294.0,589.0,2012.0,700.0,2268.0,3231.0,382.0,,,,-0.442203917136482,-2.81735053664841,-0.999538510600194,,-1.2890794263972511,,
,2294.0,591.0,2014.0,699.0,2255.0,3231.0,396.0,,,,-0.442111966868625,-2.81717962044265,-0.99922823271689,,-2.0237567155131013,,
,2298.0,591.0,2019.0,700.0,2262.0,3228.0,398.0,,,,-0.441999879614864,-2.81729958716678,-0.998657392562136,,-2.6977705446581313,,
,2294.0,591.0,2017.0,699.0,2237.0,3219.0,417.0,,,,-0.4420627631384,-2.81712950102113,-0.999581941177676,,-3.3163167220513574,,
,2297.0,592.0,2019.0,701.0,2233.0,3222.0,419.0,,,,-0.442483349528342,-2.81729295564927,-0.999007534206507,,-3.885812053980689,,
,2297.0,590.0,2014.0,699.0,2247.0,3238.0,404.0,,,,-0.442338328475833,-2.81726819973227,-1.00008854166303,,-4.413045318881861,,
,2299.0,591.0,2018.0,701.0,2259.0,3227.0,390.0,,,,-0.4424620911436,-2.81738676681125,-0.999356178544794,,-4.90445286435723,,
,2297.0,591.0,2018.0,699.0,2254.0,3227.0,382.0,,,,-0.442471416208763,-2.81763954959783,-0.998822687236168,,-5.365558582264974,,
,2299.0,594.0,2019.0,700.0,2257.0,3236.0,389.0,,,,-0.442588847812771,-2.81732232241314,-0.99852619730987,,-5.80059634214009,,
,2298.0,592.0,2016.0,699.0,2248.0,3219.0,384.0,,,,-0.442122481386874,-2.81720255102832,-0.999227581688865,,-6.2123126399136614,,
,2297.0,591.0,2018.0,699.0,2263.0,3230.0,394.0,,,,-0.442230449770468,-2.81761274935397,-0.998736682604265,,-6.60192955523265,,
,2299.0,594.0,2018.0,701.0,2264.0,3236.0,397.0,,,,-0.442039771874799,-2.81758083217921,-0.998293442370124,,-6.9692343313503,,
,2302.0,593.0,2018.0,701.0,2253.0,3217.0,399.0,,,,-0.442004125941645,-2.81714906490014,-0.998768814889829,,-7.312753472608761,,
,2303.0,593.0,2020.0,699.0,2251.0,3215.0,403.0,,,,-0.442012427487933,-2.81716801424621,-0.998006079806778,,-7.629967677088698,,
,2300.0,592.0,2020.0,698.0,2247.0,3227.0,399.0,,,,-0.441970225383349,-2.81739370253725,-0.998544365451377,,-7.917529708099593,,
,2300.0,592.0,2020.0,699.0,2253.0,3227.0,397.0,,,,-0.441873871810549,-2.81717304737651,-0.9978018308461,,-8.171459096390201,,
,2304.0,596.0,2021.0,702.0,2248.0,3229.0,384.0,,,,-0.441749046122651,-2.81713982707062,-0.997161668144824,,-8.387302271671313,,
,2304.0,597.0,2020.0,702.0,2265.0,3245.0,387.0,,,,-0.44168020492928,-2.81721286636347,-0.997934640307778,,-8.560260794376715,,
,2304.0,595.0,2021.0,699.0,2262.0,3243.0,380.0,,,,-0.441658489134627,-2.81669857425347,-0.997358106264715,,-8.685301078685715,,
,2307.0,594.0,2021.0,700.0,2274.0,3225.0,371.0,,,,-0.442176513998995,-2.81696933991045,-0.99667235429016,,-8.75726496345597,,
,2308.0,594.0,2023.0,702.0,2250.0,3232.0,391.0,,,,-0.441670997982709,-2.81716040128021,-0.996977766477215,,-8.771001291536837,,
,2307.0,597.0,2022.0,702.0,2249.0,3215.0,388.0,,,,-0.441739775034326,-2.81709700772122,-0.996263121233845,,-8.72153442267655,,
,2308.0,597.0,2020.0,702.0,2255.0,3220.0,374.0,,,,-0.441525829083726,-2.81685021471827,-0.995259063215027,,-8.604276904142395,,
,2308.0,594.0,2022.0,699.0,2249.0,3217.0,383.0,,,,-0.441689291423876,-2.81669421784974,-0.995505322506232,,-8.415281615514857,,
,2311.0,597.0,2024.0,701.0,2255.0,3221.0,387.0,,,,-0.441555914886253,-2.81665754659627,-0.994684524160402,,-8.151515679182387,,
,2313.0,598.0,2025.0,702.0,2259.0,3240.0,392.0,,,,-0.441363858716308,-2.81670199961895,-0.995141299645788,,-7.811127006648898,,
,2312.0,596.0,2023.0,704.0,2256.0,3244.0,366.0,,,,-0.441456759927372,-2.81683091599433,-0.994628387488506,,-7.393667392104323,,
,2312.0,595.0,2025.0,702.0,2261.0,3231.0,356.0,,,,-0.441225937117078,-2.81655788142737,-0.994717691691849,,-6.900235953633532,,
,2313.0,598.0,2024.0,701.0,2266.0,3215.0,376.0,,,,-0.441233927173496,-2.816702889192,-0.99508264303385,,-6.333514703473558,,
,2315.0,598.0,2026.0,705.0,2253.0,3232.0,380.0,,,,-0.441429063241673,-2.81640936652713,-0.994037693335711,,-5.6976834578172975,,
,2317.0,597.0,2026.0,703.0,2255.0,3224.0,372.0,,,,-0.441369146392482,-2.81663757181558,-0.994060178457515,,-4.9982211084209744,,
,2316.0,599.0,2027.0,704.0,2263.0,3232.0,380.0,,,,-0.441323282453402,-2.81652631537726,-0.994311332641128,,-4.241619509906753,,
,2317.0,597.0,2025.0,701.0,2254.0,3226.0,386.0,,,,-0.441442663620573,-2.81672636826211,-0.993831210338418,,-3.435050046123685,,
,2319.0,598.0,2030.0,706.0,2263.0,3223.0,392.0,,,,-0.441511475546069,-2.81660900808095,-0.994109330344569,,-2.5860289084962873,,
,2322.0,599.0,2030.0,706.0,2270.0,3219.0,374.0,,,,-0.441486036158732,-2.81681607848221,-0.993633342514,,-1.7021258088551074,,
,2321.0,600.0,2028.0,706.0,2264.0,3219.0,365.0,,,,-0.441571511848543,-2.81665609775716,-0.993929695213656,,-0.7907542245555803,,
,2321.0,598.0,2026.0,703.0,2269.0,3217.0,383.0,,,,-0.44159597620674,-2.81708469490894,-0.994232717217158,,0.14092910985745571,,
,2321.0,601.0,2028.0,706.0,2256.0,3234.0,397.0,,,,-0.44177932952769,-2.81681330435545,-0.994205744181052,,1.0860010791687786,,
,2323.0,598.0,2030.0,703.0,2265.0,3236.0,381.0,,,,-0.441843267142861,-2.8168995673164,-0.993812703766829,,2.0376264610573247,,
,2321.0,598.0,2030.0,704.0,2274.0,3241.0,381.0,,,,-0.441928402789939,-2.81689702575375,-0.994854271232851,,2.988806693200617,,
,2321.0,600.0,2031.0,702.0,2274.0,3237.0,391.0,,,,-0.442294994918407,-2.81740022919008,-0.994476163792284,,3.9320551862287574,,
,2317.0,599.0,2027.0,702.0,2286.0,3239.0,380.0,,,,-0.44221261871791,-2.81715575696135,-0.994655187092559,,4.859043475831177,,
,2313.0,598.0,2026.0,702.0,2265.0,3240.0,403.0,,,,-0.442272997611783,-2.81730429094396,-0.994950383981938,,5.760270820058946,,
,2315.0,596.0,2025.0,703.0,2264.0,3238.0,392.0,,,,-0.442778244702527,-2.81708821798792,-0.994854433534048,,6.624813329487958,,
,2311.0,598.0,2025.0,700.0,2276.0,3234.0,397.0,,,,-0.442596044403491,-2.81756220067776,-0.99531762679984,,7.440206665289203,,
,2309.0,595.0,2024.0,700.0,2251.0,3212.0,390.0,,,,-0.442971026129881,-2.81772187172451,-0.99579781987522,,8.192508285994567,,
,2305.0,594.0,2023.0,700.0,2236.0,3215.0,388.0,,,,-0.442911216240162,-2.81795272383994,-0.995964490257031,,8.866571069419736,,
,2304.0,594.0,2024.0,699.0,2242.0,3211.0,403.0,,,,-0.44354722618106,-2.81800769914558,-0.996737364552037,,9.446540311790208,,
,2301.0,595.0,2022.0,697.0,2228.0,3213.0,396.0,,,,-0.443566525050361,-2.81812004112356,-0.99741366793787,,9.916561770886696,,
,2299.0,593.0,2021.0,698.0,2235.0,3217.0,374.0,,,,-0.443507370294968,-2.81825096986236,-0.996894255090469,,10.261661672643658,,
,2295.0,592.0,2020.0,696.0,2251.0,3218.0,385.0,,,,-0.44353844600429,-2.81793924300197,-0.996364214987245,,10.468733517710767,,
,2294.0,593.0,2018.0,695.0,2228.0,3225.0,365.0,,,,-0.443909131287595,-2.81799762274367,-0.996840780729625,,10.527544788586754,,
,2293.0,594.0,2019.0,698.0,2245.0,3225.0,367.0,,,,-0.443659408828297,-2.81814838900412,-0.996493175530591,,10.431662838014155,,
,2294.0,591.0,2019.0,696.0,2247.0,3230.0,378.0,,,,-0.443693160627991,-2.81809969761167,-0.996276689561907,,10.179196299247174,,
,2289.0,591.0,2015.0,690.0,2254.0,3221.0,387.0,,,,-0.443567341373869,-2.81830488626353,-0.995322517998417,,9.773258639857902,,
,2289.0,591.0,2015.0,695.0,2259.0,3225.0,372.0,,,,-0.44401923005108,-2.81784089830038,-0.997124223401525,,9.22208522670835,,
,2289.0,591.0,2016.0,697.0,2261.0,3243.0,352.0,,,,-0.443918761489973,-2.81829614147081,-0.995334672606548,,8.53877301476769,,
,2291.0,591.0,2017.0,695.0,2270.0,3238.0,351.0,,,,-0.443562809201662,-2.81775146337581,-0.995077903044475,,7.740657212893666,,
,2285.0,589.0,2015.0,692.0,2268.0,3232.0,375.0,,,,-0.443674240694289,-2.81772076370243,-0.995793959965858,,6.848383429881452,,
,2288.0,591.0,2015.0,694.0,2281.0,3233.0,377.0,,,,-0.443211417011094,-2.81759852713227,-0.994979276200318,,5.884768233871584,,
,2288.0,589.0,2014.0,693.0,2280.0,3221.0,356.0,,,,-0.443077136633241,-2.81767299765358,-0.994090383640619,,4.873560095748225,,
,2286.0,590.0,2013.0,694.0,2277.0,3219.0,360.0,,,,-0.443551016136814,-2.81777153655366,-0.994475352872521,,3.8382148572532166,,
,2287.0,590.0,2016.0,693.0,2288.0,3226.0,358.0,,,,-0.443437863064021,-2.81784358669136,-0.994239871194897,,2.8007872529330236,,
,2285.0,588.0,2014.0,693.0,2287.0,3228.0,364.0,,,,-0.443180086022054,-2.81777797190878,-0.994224509097895,,1.7810167985675018,,
,2285.0,588.0,2014.0,693.0,2274.0,3225.0,358.0,,,,-0.443489884175779,-2.81779389981697,-0.993536310188494,,0.7956574624269037,,
,2284.0,591.0,2013.0,691.0,2241.0,3215.0,369.0,,,,-0.44365727782404,-2.81790734330167,-0.993877750901676,,-0.14192929273544655,,
,2283.0,589.0,2013.0,692.0,2243.0,3222.0,383.0,,,,-0.443810506793417,-2.8179314125196,-0.993868555212315,,-1.0219252767731353,,
,2280.0,587.0,2011.0,692.0,2238.0,3231.0,364.0,,,,-0.443954053969657,-2.81830576262257,-0.994252627315,,-1.8379781355510572,,
,2281.0,587.0,2012.0,693.0,2266.0,3218.0,353.0,,,,-0.444032405310237,-2.81833604823979,-0.99370006602497,,-2.5869369111587823,,
,2280.0,588.0,2012.0,693.0,2279.0,3221.0,352.0,,,,-0.444506216156516,-2.81840213681511,-0.995262805903435,,-3.2684471179583614,,
,2280.0,590.0,2014.0,693.0,2256.0,3222.0,355.0,,,,-0.444558710858934,-2.81835139175032,-0.994795744334042,,-3.8844503620721085,,
,2281.0,588.0,2011.0,692.0,2283.0,3229.0,362.0,,,,-0.444561440966014,-2.81825773422385,-0.994638318612085,,-4.438627605577956,,
,2280.0,586.0,2009.0,691.0,2272.0,3222.0,374.0,,,,-0.444720520089175,-2.81880833527123,-0.995205125289766,,-4.935817809742075,,
2025-07-04 00:21:03,2280.0,587.0,2012.0,690.0,2265.0,3229.0,391.0,,,2025/07/04 12:21:03 AM,-0.444787756817229,-2.81843972270927,-0.994919645346881,,-5.381437309860872,,
,2280.0,588.0,2016.0,693.0,2280.0,3235.0,337.0,,,,-0.444609997120603,-2.81852262224067,-0.995429533160039,,-5.780920948943663,,
,2277.0,586.0,2010.0,691.0,2266.0,3231.0,333.0,,,,-0.444624417956107,-2.81862864787007,-0.994975878933423,,-6.139203681165946,,
,2279.0,586.0,2010.0,690.0,2255.0,3236.0,346.0,,,,-0.444736272685883,-2.81836889153746,-0.994438423282846,,-6.460260596354141,,
,2277.0,587.0,2011.0,690.0,2249.0,3233.0,384.0,,,,-0.444651235306102,-2.81863125540915,-0.995540650609581,,-6.746723602615711,,
,2276.0,586.0,2013.0,690.0,2277.0,3222.0,382.0,,,,-0.444777058605833,-2.8184589188165,-0.994684821091887,,-6.999593636167498,,
,2276.0,588.0,2012.0,690.0,2259.0,3226.0,391.0,,,,-0.444901433370004,-2.81841831248073,-0.99439561862149,,-7.218067213262607,,
,2276.0,586.0,2008.0,690.0,2276.0,3223.0,384.0,,,,-0.444576870925597,-2.81853920379267,-0.995080965223152,,-7.399494210713988,,
,2276.0,585.0,2006.0,687.0,2262.0,3234.0,391.0,,,,-0.444825985292955,-2.81835813670449,-0.995075407585861,,-7.539479016374311,,
,2276.0,587.0,2011.0,691.0,2264.0,3228.0,383.0,,,,-0.444773722885377,-2.81834390836547,-0.995226790178873,,-7.632129242593561,,
,2275.0,589.0,2010.0,689.0,2264.0,3229.0,384.0,,,,-0.444954266004996,-2.81824291303077,-0.994979855947504,,-7.670445277727596,,
,2274.0,586.0,2010.0,690.0,2264.0,3227.0,377.0,,,,-0.444708982330775,-2.81848468681589,-0.995253212139286,,-7.6468308444028805,,
,2273.0,586.0,2009.0,687.0,2278.0,3226.0,386.0,,,,-0.445118824458572,-2.81844997542668,-0.995359647679524,,-7.5536907132146665,,
,2274.0,586.0,2009.0,692.0,2251.0,3224.0,388.0,,,,-0.444822758294759,-2.81843056492663,-0.995990925802184,,-7.3840685219126705,,
,2274.0,587.0,2012.0,688.0,2265.0,3234.0,398.0,,,,-0.445114476368237,-2.8183651526589,-0.99488079879658,,-7.1322673489261605,,
,2272.0,586.0,2009.0,691.0,2254.0,3239.0,397.0,,,,-0.445694882296523,-2.81856483921402,-0.994829079881785,,-6.79439050457242,,
,2272.0,587.0,2009.0,689.0,2275.0,3228.0,376.0,,,,-0.445438087939634,-2.81846608514356,-0.994839879132454,,-6.368742192499004,,
,2273.0,585.0,2008.0,687.0,2269.0,3242.0,393.0,,,,-0.445397285385077,-2.81816585785214,-0.995142619034331,,-5.8560393755388525,,
,2273.0,584.0,2011.0,689.0,2261.0,3224.0,384.0,,,,-0.445587474396131,-2.81866159496021,-0.995126047328072,,-5.259408274065007,,
,2275.0,586.0,2011.0,690.0,2264.0,3212.0,366.0,,,,-0.445440946886453,-2.81838794809321,-0.99459695896667,,-4.58416925911274,,
,2276.0,586.0,2010.0,687.0,2256.0,3219.0,355.0,,,,-0.44562172276599,-2.81834138468718,-0.993750561022474,,-3.8374465130613125,,
,2272.0,583.0,2009.0,687.0,2271.0,3218.0,376.0,,,,-0.445527174947009,-2.81825553059032,-0.994818708586803,,-3.027666099939241,,
,2272.0,585.0,2010.0,689.0,2269.0,3229.0,363.0,,,,-0.445412178150799,-2.81840802918839,-0.994195278288484,,-2.164022182629501,,
,2276.0,587.0,2011.0,689.0,2281.0,3233.0,375.0,,,,-0.445409270521143,-2.81832820574901,-0.994685448275273,,-1.255993815096339,,
,2276.0,585.0,2010.0,688.0,2276.0,3221.0,368.0,,,,-0.44550788139897,-2.81844281566057,-0.99441586534557,,-0.31298481907028747,,
,2274.0,584.0,2005.0,688.0,2283.0,3222.0,392.0,,,,-0.445562780365807,-2.81849881306283,-0.993864952848609,,0.6558609350899236,,
,2274.0,587.0,2010.0,688.0,2264.0,3208.0,365.0,,,,-0.445724939703924,-2.8182785033977,-0.993983261127728,,1.6416440019155776,,
,2276.0,585.0,2011.0,689.0,2270.0,3219.0,365.0,,,,-0.44537468458358,-2.81855179331772,-0.994041285413562,,2.635500013674043,,
,2276.0,588.0,2010.0,690.0,2274.0,3219.0,357.0,,,,-0.445575440130634,-2.81868338759298,-0.99416320592663,,3.62823398475188,,
,2277.0,586.0,2009.0,688.0,2274.0,3215.0,356.0,,,,-0.445216849443516,-2.81882669041334,-0.99274830207288,,4.609862437068688,,
,2275.0,585.0,2009.0,689.0,2251.0,3222.0,375.0,,,,-0.445334958739993,-2.81883585195547,-0.993461146534668,,5.569146261894512,,
,2276.0,587.0,2011.0,689.0,2261.0,3216.0,377.0,,,,-0.445417636939871,-2.81874104212112,-0.993142296407614,,6.493205544488374,,
,2277.0,586.0,2010.0,690.0,2288.0,3206.0,359.0,,,,-0.445442030760287,-2.81848335472362,-0.993633052942983,,7.367304428564922,,
,2276.0,587.0,2011.0,691.0,2276.0,3208.0,352.0,,,,-0.445836132381437,-2.81859061499639,-0.993401282883655,,8.174879884234263,,
,2275.0,584.0,2008.0,688.0,2265.0,3213.0,351.0,,,,-0.445699201857721,-2.81861569829687,-0.993085022027539,,8.897864276977213,,
,2277.0,586.0,2010.0,689.0,2280.0,3210.0,353.0,,,,-0.445540005179396,-2.81871528530022,-0.993141298760099,,9.517319583250133,,
,2280.0,588.0,2012.0,689.0,2292.0,3213.0,347.0,,,,-0.445257156261927,-2.81874830145367,-0.99330504845991,,10.014363179197176,,
,2280.0,588.0,2013.0,691.0,2303.0,3211.0,344.0,,,,-0.445518679588313,-2.81858926601654,-0.993111863017602,,10.371324928980336,,
,2279.0,586.0,2009.0,690.0,2281.0,3232.0,351.0,,,,-0.445183590373295,-2.81892768829476,-0.992681125793602,,10.573037917700674,,
,2279.0,590.0,2010.0,690.0,2304.0,3236.0,367.0,,,,-0.445364620082721,-2.81880079844714,-0.993083152795185,,10.60813618383207,,
,2279.0,589.0,2011.0,691.0,2281.0,3225.0,373.0,,,,-0.445385824644515,-2.81863729694235,-0.992942887844075,,10.47021707278317,,
,2280.0,587.0,2011.0,690.0,2269.0,3228.0,376.0,,,,-0.445540556225191,-2.81855273437792,-0.992893853854214,,10.158727027199195,,
,2280.0,588.0,2011.0,691.0,2275.0,3232.0,375.0,,,,-0.445135638227921,-2.81831268434621,-0.992039446648912,,9.679449953047163,,
,2281.0,587.0,2011.0,689.0,2272.0,3224.0,380.0,,,,-0.445359386654272,-2.81851607142806,-0.992322594858869,,9.044516625679401,,
,2280.0,586.0,2014.0,692.0,2285.0,3237.0,356.0,,,,-0.445131660762024,-2.81845603512964,-0.992395416507062,,8.271908108966231,,
,2282.0,587.0,2014.0,690.0,2289.0,3230.0,359.0,,,,-0.44516538970481,-2.81842979343719,-0.992562082812703,,7.384487684872765,,
,2282.0,589.0,2013.0,691.0,2283.0,3227.0,361.0,,,,-0.44509215441003,-2.81822365761578,-0.992277600165465,,6.408653252690196,,
,2280.0,585.0,2010.0,690.0,2281.0,3241.0,353.0,,,,-0.44525593724535,-2.81844022281135,-0.992086281643475,,5.372745016905156,,
,2281.0,588.0,2014.0,692.0,2276.0,3234.0,354.0,,,,-0.445303329992493,-2.81821212960835,-0.992512440607946,,4.305365004507381,,
,2285.0,588.0,2014.0,692.0,2277.0,3223.0,347.0,,,,-0.445165743674535,-2.81815199360367,-0.992140487281488,,3.2337644992301313,,
,2283.0,590.0,2010.0,693.0,2298.0,3228.0,380.0,,,,-0.444892805417328,-2.81789008399406,-0.992002107789228,,2.182436401741303,,
,2282.0,590.0,2012.0,690.0,2286.0,3232.0,377.0,,,,-0.444831275502728,-2.81816863006728,-0.992178389878366,,1.1720175255007976,,
,2284.0,587.0,2012.0,688.0,2274.0,3222.0,360.0,,,,-0.444562157421633,-2.81790556734263,-0.991777150912426,,0.21856647615134295,,
,2282.0,589.0,2014.0,692.0,2290.0,3215.0,370.0,,,,-0.444849150545345,-2.81801721602125,-0.991729664237774,,-0.6667592448521708,,
,2286.0,587.0,2011.0,691.0,2295.0,3210.0,368.0,,,,-0.444839840806227,-2.81791433375121,-0.991082549826557,,-1.4776433856637141,,
,2284.0,589.0,2012.0,692.0,2280.0,3214.0,367.0,,,,-0.44455135596744,-2.81804847306729,-0.991290295840785,,-2.212218401286633,,
,2286.0,587.0,2012.0,692.0,2298.0,3222.0,360.0,,,,-0.44463618071919,-2.81788799686562,-0.9907691945752,,-2.872413623465703,,
,2286.0,588.0,2013.0,692.0,2275.0,3228.0,371.0,,,,-0.444532955765075,-2.81801205669315,-0.991940369810348,,-3.46312904966441,,
,2289.0,589.0,2014.0,693.0,2281.0,3223.0,386.0,,,,-0.444606979701509,-2.8183926120612,-0.991351112510668,,-3.991320141600765,,
,2287.0,590.0,2015.0,693.0,2286.0,3217.0,386.0,,,,-0.444809158674579,-2.81781980669674,-0.99123330263241,,-4.4650709657997565,,
,2288.0,589.0,2013.0,692.0,2273.0,3206.0,367.0,,,,-0.444716400791498,-2.81804796690997,-0.990685778904037,,-4.892719605380042,,
,2286.0,589.0,2013.0,691.0,2261.0,3209.0,381.0,,,,-0.444697223907621,-2.81804975247844,-0.990750657001235,,-5.282084184635025,,
,2290.0,587.0,2013.0,692.0,2263.0,3236.0,372.0,,,,-0.444686362005292,-2.81803751140855,-0.991602901958326,,-5.639822650600473,,
,2289.0,590.0,2016.0,693.0,2278.0,3225.0,383.0,,,,-0.444717628846998,-2.81791446896313,-0.990513984103835,,-5.970946275623961,,
,2291.0,591.0,2016.0,694.0,2272.0,3226.0,385.0,,,,-0.444902401872901,-2.8181629235909,-0.991233873073998,,-6.278496277783834,,
,2289.0,588.0,2014.0,692.0,2282.0,3220.0,383.0,,,,-0.444864918391495,-2.81797569064263,-0.990380822143308,,-6.563384757476233,,
,2290.0,591.0,2014.0,694.0,2281.0,3223.0,377.0,,,,-0.444574784035482,-2.81776887774399,-0.990930976467628,,-6.824394540549667,,
,2291.0,591.0,2016.0,694.0,2251.0,3218.0,359.0,,,,-0.444479714680349,-2.81817330101732,-0.990427555289116,,-7.058326522274343,,
,2291.0,589.0,2015.0,692.0,2249.0,3209.0,364.0,,,,-0.444544019596498,-2.81808853814049,-0.990993127053225,,-7.260276986404264,,
,2292.0,589.0,2014.0,694.0,2253.0,3224.0,378.0,,,,-0.44454939744232,-2.81774028048071,-0.991001940170067,,-7.424021141322876,,
,2294.0,591.0,2017.0,693.0,2281.0,3221.0,372.0,,,,-0.444627980028609,-2.81805767123255,-0.99062172173779,,-7.542473616585909,,
,2293.0,593.0,2017.0,695.0,2283.0,3237.0,360.0,,,,-0.444815932664751,-2.81807097506301,-0.990484907369907,,-7.608192880536966,,
,2294.0,594.0,2019.0,693.0,2288.0,3240.0,353.0,,,,-0.444551971155548,-2.81805230556939,-0.990936522289267,,-7.613894711956639,,
,2295.0,593.0,2017.0,694.0,2281.0,3228.0,350.0,,,,-0.444446984894149,-2.81796884153088,-0.991007484684366,,-7.552939459005079,,
,2295.0,591.0,2019.0,691.0,2289.0,3219.0,355.0,,,,-0.444815309875936,-2.81760063677423,-0.991387388282628,,-7.4197584544060495,,
,2296.0,591.0,2017.0,695.0,2275.0,3224.0,351.0,,,,-0.444847177357539,-2.81769277288499,-0.991373565358554,,-7.210187197104985,,
,2299.0,591.0,2021.0,696.0,2286.0,3217.0,365.0,,,,-0.445137543531544,-2.81777784383643,-0.991947531743582,,-6.921678209642777,,
,2298.0,593.0,2019.0,695.0,2273.0,3219.0,378.0,,,,-0.445123873096282,-2.8178918646945,-0.991762115725618,,-6.553376258648879,,
,2300.0,592.0,2022.0,696.0,2253.0,3232.0,385.0,,,,-0.445358920139885,-2.81775726904188,-0.992535057431585,,-6.106053241282468,,
,2300.0,591.0,2018.0,694.0,2284.0,3225.0,380.0,,,,-0.445391077802791,-2.81794435195959,-0.991955067271501,,-5.581918257557448,,
,2299.0,593.0,2019.0,696.0,2290.0,3215.0,393.0,,,,-0.445188996740773,-2.81786778726286,-0.992730187865619,,-4.984337460672124,,
,2302.0,590.0,2018.0,699.0,2275.0,3219.0,373.0,,,,-0.445320530663188,-2.81799686954438,-0.991979291752676,,-4.3175144554559,,
,2301.0,592.0,2020.0,697.0,2291.0,3227.0,362.0,,,,-0.445392987529823,-2.81796322885416,-0.992952755145001,,-3.5861914018019267,,
,2301.0,592.0,2021.0,695.0,2287.0,3222.0,389.0,,,,-0.445612097091801,-2.81765205883576,-0.992899954333372,,-2.7954306674483456,,
,2301.0,591.0,2023.0,696.0,2297.0,3232.0,384.0,,,,-0.445536247888806,-2.81790673309498,-0.993404211801099,,-1.9505259377428374,,
,2301.0,593.0,2022.0,699.0,2280.0,3225.0,371.0,,,,-0.445560930779437,-2.81774606697513,-0.993478713064938,,-1.0570715052405817,,
,2300.0,594.0,2018.0,696.0,2290.0,3234.0,382.0,,,,-0.445714134425702,-2.81799421351283,-0.993721148437749,,-0.12119233996534073,,
,2296.0,593.0,2019.0,695.0,2301.0,3230.0,373.0,,,,-0.445797515481518,-2.81782527543652,-0.99331513437295,,0.8500900384212764,,
,2297.0,593.0,2019.0,694.0,2293.0,3214.0,341.0,,,,-0.44575279862193,-2.81780028874863,-0.993403832967535,,1.8484053900347055,,
,2296.0,593.0,2018.0,696.0,2284.0,3214.0,369.0,,,,-0.445772299980769,-2.81771329895593,-0.994258188068283,,2.8635639332392704,,
,2291.0,588.0,2016.0,693.0,2265.0,3217.0,358.0,,,,-0.446083424873678,-2.81780114135582,-0.993933367816687,,3.8831446145393684,,
,2289.0,589.0,2015.0,693.0,2267.0,3209.0,358.0,,,,-0.445919727973585,-2.8176239580858,-0.99428465284907,,4.892221714178737,,
,2285.0,586.0,2011.0,689.0,2285.0,3211.0,373.0,,,,-0.44630434427217,-2.81781839011754,-0.994381401135955,,5.873301790321978,,
,2281.0,586.0,2012.0,691.0,2242.0,3200.0,371.0,,,,-0.445922190768747,-2.81770035275726,-0.993639136495341,,6.806527055951883,,
,2282.0,587.0,2014.0,691.0,2263.0,3209.0,360.0,,,,-0.446103445854016,-2.81754015657369,-0.994265578315314,,7.670177349157842,,
,2277.0,585.0,2009.0,691.0,2269.0,3203.0,377.0,,,,-0.446224382450385,-2.81771130184517,-0.994831262062429,,8.441472479607015,,
,2272.0,585.0,2010.0,690.0,2262.0,3218.0,371.0,,,,-0.446199465084274,-2.81761372688362,-0.994653481866881,,9.097642517929463,,
,2272.0,583.0,2006.0,685.0,2270.0,3222.0,356.0,,,,-0.446175114995372,-2.81777490929571,-0.994329659816494,,9.61719897296945,,
,2270.0,581.0,2005.0,686.0,2236.0,3223.0,336.0,,,,-0.446250942049286,-2.81778221754381,-0.994927505588351,,9.981308675409737,,
,2268.0,581.0,2006.0,688.0,2250.0,3230.0,336.0,,,,-0.446011580823038,-2.81769755477387,-0.994869748882829,,10.17514852333237,,
,2266.0,580.0,2006.0,688.0,2293.0,3218.0,322.0,,,,-0.446108510461003,-2.8174488865584,-0.994902102851549,,10.189106745268372,,
,2265.0,580.0,2003.0,685.0,2298.0,3214.0,344.0,,,,-0.446071486205589,-2.81790635405439,-0.994450300499603,,10.019698222929483,,
,2263.0,581.0,2005.0,689.0,2296.0,3235.0,342.0,,,,-0.446430573943536,-2.81744898900462,-0.994898155403425,,9.670080141524203,,
,2264.0,582.0,2003.0,687.0,2309.0,3223.0,346.0,,,,-0.446232076367983,-2.81796951942674,-0.994577245197898,,9.150090565902435,,
,2263.0,581.0,2005.0,685.0,2296.0,3225.0,347.0,,,,-0.446442549071974,-2.81780863571091,-0.995083214522406,,8.475783955473688,,
,2262.0,578.0,2000.0,685.0,2286.0,3226.0,335.0,,,,-0.446220674910012,-2.81782119565919,-0.994593860163171,,7.668497230596591,,
,2259.0,580.0,2002.0,684.0,2290.0,3228.0,354.0,,,,-0.446731283574851,-2.81763883218098,-0.994282831327505,,6.753537401437277,,
,2260.0,580.0,2004.0,687.0,2264.0,3223.0,371.0,,,,-0.446126434529158,-2.81789891093214,-0.994688314620089,,5.7586259881752495,,
,2258.0,578.0,2003.0,683.0,2286.0,3223.0,366.0,,,,-0.446427097240475,-2.81773939440895,-0.994432257815683,,4.712258353826317,,
,2257.0,579.0,1999.0,684.0,2312.0,3223.0,374.0,,,,-0.446423477022643,-2.81758635095404,-0.994748678203532,,3.642134658441495,,
,2256.0,579.0,2000.0,683.0,2296.0,3225.0,361.0,,,,-0.446194092305141,-2.81793194116201,-0.994345733796396,,2.5737960070962846,,
,2257.0,577.0,1998.0,687.0,2315.0,3215.0,367.0,,,,-0.446333143856297,-2.81752315636986,-0.994170556200188,,1.5295612494640722,,
,2255.0,581.0,1999.0,684.0,2295.0,3216.0,366.0,,,,-0.446835564057489,-2.8175961371693,-0.994666651565051,,0.5278153414561193,,
,2253.0,579.0,1999.0,684.0,2297.0,3222.0,366.0,,,,-0.446969188108709,-2.81775151691472,-0.99492571455564,,-0.4173428563323818,,
,2253.0,577.0,1995.0,682.0,2330.0,3212.0,365.0,,,,-0.447200800254375,-2.81791168602314,-0.996101049571362,,-1.2961213388693693,,
,2252.0,577.0,1997.0,682.0,2301.0,3214.0,385.0,,,,-0.447350583445849,-2.81798675640343,-0.996244734842703,,-2.1027780929117106,,
,2252.0,578.0,1997.0,684.0,2315.0,3203.0,365.0,,,,-0.447590827437401,-2.81793011210664,-0.997504565982323,,-2.835155484355331,,
,2251.0,575.0,1997.0,686.0,2321.0,3204.0,361.0,,,,-0.447675848758274,-2.81822727133578,-0.997818674329583,,-3.4940796465730353,,
,2250.0,576.0,1995.0,683.0,2281.0,3220.0,367.0,,,,-0.448295829070058,-2.81800394150804,-0.999418118485174,,-4.082694707886021,,
,2247.0,575.0,1996.0,682.0,2284.0,3227.0,369.0,,,,-0.448232790309526,-2.8181523439834,-0.998928481475984,,-4.6057910227253425,,
,2250.0,578.0,1996.0,682.0,2298.0,3218.0,360.0,,,,-0.448446202421303,-2.81836483081298,-0.999481008649731,,-5.069171569128079,,
,2249.0,577.0,1995.0,684.0,2259.0,3224.0,366.0,,,,-0.44837359976223,-2.81822858669571,-0.999122342661513,,-5.479084006214772,,
,2250.0,576.0,1994.0,684.0,2267.0,3227.0,370.0,,,,-0.448608190388835,-2.81803361376921,-0.999282517143263,,-5.841730384189518,,
,2249.0,577.0,1992.0,684.0,2276.0,3229.0,370.0,,,,-0.448864217011773,-2.81798924312275,-0.999891760601942,,-6.162854816447815,,
,2249.0,575.0,1995.0,682.0,2301.0,3223.0,373.0,,,,-0.448866066307558,-2.81813981597666,-1.0001564608296,,-6.447403123628392,,
,2247.0,575.0,1996.0,683.0,2297.0,3222.0,386.0,,,,-0.448440379773148,-2.81849103488761,-0.999591439181817,,-6.699247368619577,,
,2244.0,576.0,1992.0,681.0,2298.0,3224.0,388.0,,,,-0.448451609435214,-2.81786339506167,-0.999810048439661,,-6.920970793139461,,
,2245.0,573.0,1993.0,684.0,2273.0,3222.0,372.0,,,,-0.448599156019946,-2.81823967880186,-0.999273722454926,,-7.113713062416211,,
2025-07-04 00:21:04,2244.0,574.0,1994.0,683.0,2253.0,3225.0,399.0,,,2025/07/04 12:21:04 AM,-0.448453791626611,-2.81810566205656,-0.999236236355936,,-7.277080363185418,,
,2247.0,573.0,1992.0,682.0,2257.0,3224.0,388.0,,,,-0.448360162758607,-2.81808213461774,-0.999675991427111,,-7.409128579694266,,
,2245.0,574.0,1993.0,682.0,2251.0,3224.0,379.0,,,,-0.448396195440191,-2.81817887265655,-0.998582171485276,,-7.506429441840483,,
,2243.0,574.0,1993.0,681.0,2266.0,3236.0,392.0,,,,-0.44816395176201,-2.81822659147421,-0.998836122221779,,-7.564228294407091,,
,2241.0,573.0,1990.0,678.0,2242.0,3222.0,404.0,,,,-0.448048991914579,-2.81796281699397,-0.997907578621372,,-7.5766974882440135,,
,2242.0,576.0,1991.0,681.0,2237.0,3216.0,391.0,,,,-0.447949060860745,-2.81820455677527,-0.998201687173775,,-7.537281520190563,,
,2243.0,574.0,1990.0,683.0,2242.0,3207.0,395.0,,,,-0.447674073425819,-2.81815645025188,-0.997276112054709,,-7.4391198121855115,,
,2241.0,575.0,1992.0,681.0,2235.0,3220.0,386.0,,,,-0.447613764938395,-2.81800414563672,-0.99667792779297,,-7.275521854555762,,
,2241.0,572.0,1990.0,680.0,2255.0,3226.0,369.0,,,,-0.447789232017992,-2.81811253625088,-0.996683821878942,,-7.040459202479772,,
,2240.0,575.0,1990.0,681.0,2254.0,3248.0,384.0,,,,-0.447280548455818,-2.81799477398598,-0.996254400014797,,-6.729031567744259,,
,2240.0,573.0,1994.0,680.0,2247.0,3232.0,374.0,,,,-0.447256847821262,-2.81832996141384,-0.995892979518528,,-6.337861929682211,,
,2241.0,572.0,1992.0,681.0,2262.0,3230.0,367.0,,,,-0.447021468917294,-2.81813822095724,-0.995082716437625,,-5.8653797853970975,,
,2240.0,572.0,1989.0,680.0,2277.0,3234.0,357.0,,,,-0.446413659106675,-2.81792572374447,-0.994726912035586,,-5.31196343314061,,
,2240.0,571.0,1987.0,681.0,2288.0,3225.0,353.0,,,,-0.446402727230817,-2.81804138588866,-0.993651348253075,,-4.6799313817710155,,
,2241.0,573.0,1991.0,680.0,2257.0,3227.0,369.0,,,,-0.446156597745418,-2.81791740973658,-0.993756481845,,-3.9733969428102296,,
,2242.0,573.0,1990.0,680.0,2269.0,3219.0,372.0,,,,-0.446218320453869,-2.81836298587264,-0.99213595672306,,-3.198023302787104,,
,2241.0,575.0,1990.0,681.0,2265.0,3221.0,384.0,,,,-0.446131523036196,-2.81827404773712,-0.992674843878368,,-2.3607326204652703,,
,2239.0,572.0,1987.0,680.0,2285.0,3220.0,377.0,,,,-0.446102444630943,-2.81849366560516,-0.99173378098593,,-1.4694279222319302,,
,2242.0,575.0,1992.0,681.0,2291.0,3211.0,393.0,,,,-0.44580529511128,-2.81819379662336,-0.991250399568159,,-0.5327803902240517,,
,2243.0,571.0,1989.0,681.0,2272.0,3223.0,394.0,,,,-0.445734194946189,-2.81817331169234,-0.991079539311198,,0.43988061287614916,,
,2244.0,573.0,1990.0,682.0,2259.0,3211.0,393.0,,,,-0.445813488752339,-2.81832720225872,-0.991030399616169,,1.4385584478975815,,
,2245.0,575.0,1990.0,681.0,2265.0,3217.0,372.0,,,,-0.445708836538134,-2.81810949649034,-0.991286812504298,,2.4524682654813463,,
,2243.0,572.0,1991.0,681.0,2264.0,3231.0,384.0,,,,-0.445513284458103,-2.81784331937883,-0.990300634544981,,3.4698346251192076,,
,2245.0,574.0,1993.0,680.0,2296.0,3221.0,373.0,,,,-0.445516628428544,-2.81832780526757,-0.991567200993744,,4.477657829579476,,
,2243.0,573.0,1988.0,680.0,2277.0,3224.0,383.0,,,,-0.446011771135817,-2.81805361728953,-0.990778729138447,,5.461512603829262,,
,2244.0,574.0,1993.0,681.0,2263.0,3223.0,391.0,,,,-0.445549685458504,-2.81813567412498,-0.990513168235871,,6.40544750340315,,
,2246.0,573.0,1990.0,680.0,2269.0,3235.0,387.0,,,,-0.445930224952853,-2.81815156951197,-0.991400771857075,,7.292048169128603,,
,2245.0,573.0,1990.0,679.0,2264.0,3228.0,382.0,,,,-0.445936795097557,-2.81845393598581,-0.991149111545017,,8.10271242936655,,
,2248.0,574.0,1992.0,683.0,2265.0,3232.0,394.0,,,,-0.445754245110056,-2.81820027273925,-0.991798736254356,,8.818162029873854,,
,2249.0,572.0,1992.0,683.0,2262.0,3223.0,378.0,,,,-0.446035572971361,-2.81861916888427,-0.990514897010566,,9.41918734810741,,
,2248.0,576.0,1990.0,683.0,2253.0,3226.0,367.0,,,,-0.44572839801103,-2.81830809997023,-0.991066586928672,,9.887590975946136,,
,2245.0,573.0,1993.0,681.0,2250.0,3219.0,384.0,,,,-0.445372699855969,-2.81846744436584,-0.990766909540771,,10.207266230956025,,
,2247.0,573.0,1991.0,682.0,2280.0,3233.0,378.0,,,,-0.445463397199285,-2.81868166223446,-0.990344354802672,,10.365320160128539,,
,2249.0,576.0,1994.0,681.0,2273.0,3246.0,389.0,,,,-0.444958341511663,-2.81826749170513,-0.989762841232462,,10.353131163018078,,
,2249.0,574.0,1993.0,681.0,2274.0,3243.0,396.0,,,,-0.445101069340817,-2.81805180068852,-0.99004309301406,,10.1672237489509,,
,2248.0,577.0,1992.0,683.0,2267.0,3242.0,399.0,,,,-0.444968606529096,-2.81819962239792,-0.99021494002829,,9.809851234200853,,
,2248.0,573.0,1993.0,682.0,2269.0,3234.0,393.0,,,,-0.444922943480273,-2.818129705429,-0.989151840173385,,9.289202644492633,,
,2249.0,575.0,1991.0,680.0,2258.0,3233.0,391.0,,,,-0.444663269565091,-2.81827225996069,-0.989138734373389,,8.619190085622243,,
,2250.0,577.0,1992.0,682.0,2265.0,3230.0,394.0,,,,-0.444496146815876,-2.81851752240646,-0.988672726218769,,7.818821145245225,,
,2249.0,575.0,1994.0,684.0,2265.0,3230.0,386.0,,,,-0.44444507824647,-2.81828300893678,-0.988305937558192,,6.911208997482462,,
,2251.0,573.0,1992.0,681.0,2254.0,3238.0,398.0,,,,-0.444618723957882,-2.81825317136172,-0.988370474805747,,5.922312146874766,,
,2251.0,574.0,1994.0,683.0,2240.0,3239.0,396.0,,,,-0.444387949345792,-2.81829231082057,-0.98864561659457,,4.879519806828292,,
,2251.0,576.0,1994.0,683.0,2268.0,3248.0,399.0,,,,-0.444030519898755,-2.81845280328737,-0.987009722283443,,3.810205589128017,,
,2253.0,576.0,1993.0,684.0,2263.0,3226.0,371.0,,,,-0.443903267110979,-2.81833124505715,-0.988473448263268,,2.740363683938667,,
,2251.0,575.0,1995.0,682.0,2258.0,3227.0,378.0,,,,-0.443759768594273,-2.81827703313041,-0.988234971566609,,1.6934227773898776,,
,2253.0,578.0,1993.0,686.0,2239.0,3225.0,390.0,,,,-0.443850852145786,-2.81832806614061,-0.987686957410986,,0.6893084748801387,,
,2251.0,577.0,1994.0,685.0,2249.0,3231.0,396.0,,,,-0.443791225975156,-2.81843451353999,-0.987446660739537,,-0.256201250163295,,
,2250.0,576.0,1992.0,685.0,2262.0,3221.0,399.0,,,,-0.443763854996877,-2.8185742623487,-0.987227364498124,,-1.131808424401402,,
,2252.0,575.0,1995.0,683.0,2259.0,3204.0,395.0,,,,-0.443657423041558,-2.81844318749311,-0.98782375022315,,-1.9307188771810173,,
,2252.0,575.0,1994.0,683.0,2261.0,3222.0,394.0,,,,-0.443542649345537,-2.81857690390698,-0.987707986401549,,-2.650380594806531,,
,2255.0,577.0,1995.0,684.0,2255.0,3226.0,365.0,,,,-0.443493783769265,-2.81827335841418,-0.987753115774701,,-3.2919759813848675,,
,2255.0,577.0,1997.0,685.0,2264.0,3224.0,371.0,,,,-0.443676751782185,-2.81818956580429,-0.987695227429128,,-3.859720272037622,,
,2258.0,577.0,1996.0,685.0,2230.0,3239.0,383.0,,,,-0.443640972076385,-2.81832847557756,-0.987761244592717,,-4.360027257990188,,
,2257.0,576.0,1996.0,682.0,2239.0,3229.0,384.0,,,,-0.443673300138162,-2.81843797196391,-0.987677569304601,,-4.800607663254394,,
,2256.0,578.0,1996.0,685.0,2234.0,3219.0,382.0,,,,-0.443626154822078,-2.81822208594405,-0.988849424640484,,-5.189564806461559,,
,2259.0,578.0,1995.0,686.0,2256.0,3217.0,393.0,,,,-0.443675209057129,-2.81822164988523,-0.988740555541976,,-5.534547300816236,,
,2260.0,577.0,1996.0,686.0,2241.0,3221.0,367.0,,,,-0.443665150338227,-2.81853070249813,-0.988421478911978,,-5.842010686855183,,
,2258.0,578.0,1995.0,683.0,2249.0,3232.0,375.0,,,,-0.443758490497195,-2.81844543901113,-0.988594715325601,,-6.116630147201353,,
,2262.0,579.0,1998.0,687.0,2269.0,3219.0,394.0,,,,-0.443893247886275,-2.81826879307551,-0.989076302358101,,-6.3608955270449545,,
,2263.0,579.0,1998.0,686.0,2270.0,3221.0,402.0,,,,-0.443950507261355,-2.81871635902919,-0.989877187822954,,-6.574908198222177,,
,2263.0,578.0,1999.0,690.0,2259.0,3226.0,404.0,,,,-0.444061099259159,-2.81846164230583,-0.99022689321353,,-6.756387120845677,,
,2261.0,579.0,1998.0,684.0,2269.0,3225.0,383.0,,,,-0.444027559698626,-2.81844918170355,-0.991018019734597,,-6.9008788903077845,,
,2264.0,581.0,2000.0,686.0,2266.0,3223.0,365.0,,,,-0.4443422078099,-2.81861807177787,-0.990102426641149,,-7.002153633009807,,
,2264.0,579.0,2000.0,688.0,2259.0,3225.0,376.0,,,,-0.444179311021717,-2.81850433571825,-0.990958108031238,,-7.052755477585697,,
,2264.0,580.0,2001.0,686.0,2251.0,3229.0,365.0,,,,-0.443960788572629,-2.81833006774524,-0.990969006862921,,-7.0446635035076595,,
,2264.0,578.0,2001.0,687.0,2251.0,3230.0,369.0,,,,-0.443944974572241,-2.81832580220934,-0.991379537954255,,-6.970007573307948,,
,2262.0,578.0,1998.0,686.0,2258.0,3213.0,345.0,,,,-0.444500862066537,-2.81862021615483,-0.991068282387326,,-6.821774806173848,,
,2265.0,582.0,2004.0,689.0,2252.0,3210.0,363.0,,,,-0.444301798089144,-2.81833102842374,-0.991454357339249,,-6.59443873257465,,
,2268.0,582.0,2001.0,688.0,2262.0,3229.0,382.0,,,,-0.444319504662311,-2.8186079071673,-0.991868760050504,,-6.284446933737803,,
,2269.0,580.0,2002.0,691.0,2262.0,3224.0,393.0,,,,-0.444353012036731,-2.81874483409829,-0.991777085159322,,-5.890516380433668,,
,2267.0,581.0,2002.0,688.0,2241.0,3230.0,382.0,,,,-0.444660624968872,-2.8185915883343,-0.992059794755835,,-5.413708982074854,,
,2268.0,581.0,2003.0,689.0,2250.0,3235.0,375.0,,,,-0.444446361796763,-2.81848560538073,-0.992038783477045,,-4.857290283635295,,
,2268.0,582.0,2001.0,687.0,2266.0,3221.0,364.0,,,,-0.444432940526716,-2.81842228284498,-0.992018898288827,,-4.226406400591653,,
,2270.0,581.0,2003.0,691.0,2269.0,3216.0,358.0,,,,-0.444580990356585,-2.81847038509953,-0.993772504515022,,-3.527641699573027,,
,2267.0,581.0,2002.0,689.0,2261.0,3222.0,391.0,,,,-0.444355528315007,-2.81853577419908,-0.992798674571198,,-2.768536890362196,,
,2264.0,580.0,1999.0,687.0,2286.0,3240.0,384.0,,,,-0.444515107193287,-2.81834158530601,-0.993362693357204,,-1.957151011392936,,
,2266.0,579.0,2001.0,687.0,2275.0,3231.0,379.0,,,,-0.44456748025638,-2.81829792727366,-0.993945323278981,,-1.101741079644694,,
,2260.0,581.0,1999.0,688.0,2282.0,3222.0,390.0,,,,-0.444858682546662,-2.81835897225084,-0.993957972789304,,-0.2106121310380112,,
,2259.0,578.0,1998.0,685.0,2270.0,3214.0,389.0,,,,-0.444865273804166,-2.81845034420652,-0.994505331506398,,0.707838376800251,,
,2257.0,577.0,1994.0,683.0,2249.0,3221.0,401.0,,,,-0.444680624724095,-2.81867610288071,-0.995191519563389,,1.6448901082565672,,
,2253.0,579.0,1997.0,684.0,2252.0,3227.0,410.0,,,,-0.445003724677776,-2.81826623961326,-0.995545883510353,,2.591123262296095,,
,2250.0,578.0,1995.0,686.0,2241.0,3202.0,401.0,,,,-0.444919528797786,-2.81839412120793,-0.995778891105755,,3.535962803095794,,
,2250.0,575.0,1994.0,684.0,2257.0,3208.0,399.0,,,,-0.444833754748054,-2.81834880317985,-0.995514724474168,,4.4672295003656295,,
,2243.0,574.0,1990.0,681.0,2247.0,3196.0,412.0,,,,-0.444921894399514,-2.81826163503659,-0.995731186513926,,5.370792308307909,,
,2242.0,575.0,1991.0,681.0,2236.0,3200.0,385.0,,,,-0.445127880539297,-2.81850073466845,-0.996148309576146,,6.230413304053688,,
,2240.0,573.0,1989.0,681.0,2231.0,3198.0,399.0,,,,-0.445220318217543,-2.81856500454073,-0.997042215816852,,7.027861004250168,,
,2238.0,574.0,1988.0,681.0,2237.0,3219.0,399.0,,,,-0.445345438025548,-2.81832004064704,-0.997324081060594,,7.743340921052657,,
,2239.0,573.0,1989.0,682.0,2240.0,3224.0,397.0,,,,-0.445498935133304,-2.81832010268982,-0.996372947944364,,8.356255323343984,,
,2236.0,570.0,1986.0,679.0,2242.0,3236.0,394.0,,,,-0.445207144517249,-2.81823045711308,-0.997216575971332,,8.8462609493765,,
,2235.0,571.0,1987.0,682.0,2244.0,3231.0,398.0,,,,-0.444742814646937,-2.8185788597999,-0.996967925910223,,9.19454962669022,,
,2237.0,572.0,1988.0,679.0,2252.0,3246.0,390.0,,,,-0.445050093764352,-2.81830307064769,-0.997583303795443,,9.385238889540153,,
,2235.0,572.0,1989.0,681.0,2259.0,3236.0,393.0,,,,-0.445129160244479,-2.81849465774042,-0.998865177944019,,9.406733325497699,,
,2233.0,573.0,1986.0,680.0,2251.0,3239.0,384.0,,,,-0.445367962167073,-2.81831643465528,-0.997477497842592,,9.252906641374866,,
,2233.0,572.0,1988.0,681.0,2250.0,3239.0,402.0,,,,-0.445478669627514,-2.81829749902364,-0.99824136448792,,8.923962070065006,,
,2231.0,571.0,1987.0,679.0,2270.0,3234.0,411.0,,,,-0.445180931274506,-2.81854787860084,-0.998089858458782,,8.426855792862607,,
,2234.0,572.0,1988.0,681.0,2267.0,3229.0,396.0,,,,-0.445284049978655,-2.818617214794,-0.997883636802481,,7.775212744225202,,
,2231.0,571.0,1986.0,681.0,2284.0,3233.0,374.0,,,,-0.445332822092279,-2.81892683623194,-0.998851050636076,,6.988720852725442,,
,2230.0,571.0,1984.0,680.0,2283.0,3226.0,376.0,,,,-0.445124111121208,-2.8184751599042,-0.998807106145933,,6.0920494018595885,,
,2229.0,570.0,1984.0,679.0,2266.0,3230.0,380.0,,,,-0.445671560899349,-2.8185503730598,-0.998546187050786,,5.113389761248901,,
,2229.0,568.0,1984.0,680.0,2241.0,3229.0,380.0,,,,-0.445751177724723,-2.8186708513808,-0.999498083754588,,4.082754409267981,,
,2229.0,570.0,1983.0,678.0,2244.0,3220.0,366.0,,,,-0.445738952766382,-2.81856505897291,-0.999046550720296,,3.0301891375997076,,
,2227.0,568.0,1983.0,678.0,2256.0,3211.0,381.0,,,,-0.445910597725692,-2.81889780943865,-0.999936616499222,,1.9840537031450134,,
,2228.0,570.0,1981.0,679.0,2227.0,3220.0,404.0,,,,-0.446166624042545,-2.81914633649497,-1.00050189305688,,0.9695106994525926,,
,2228.0,569.0,1984.0,680.0,2255.0,3204.0,386.0,,,,-0.445952198693562,-2.81944244402096,-1.00040784250085,,0.007335023269373155,,
,2226.0,570.0,1981.0,679.0,2251.0,3206.0,377.0,,,,-0.446536193908745,-2.81905266351695,-1.00047492543437,,-0.886878817573649,,
,2226.0,570.0,1983.0,679.0,2251.0,3205.0,378.0,,,,-0.446436862936231,-2.81937122291463,-1.00006241254176,,-1.7030733548618604,,
,2225.0,567.0,1979.0,677.0,2231.0,3212.0,388.0,,,,-0.446526899523482,-2.81935207265249,-1.00065377444423,,-2.4366500096989427,,
,2225.0,568.0,1982.0,680.0,2250.0,3213.0,417.0,,,,-0.44636833313721,-2.81964929722541,-0.999807471477421,,-3.0879936819589755,,
,2225.0,567.0,1981.0,676.0,2256.0,3246.0,402.0,,,,-0.446305567223668,-2.81951855356599,-1.00055504396557,,-3.6616674281086845,,
,2224.0,567.0,1982.0,678.0,2249.0,3250.0,395.0,,,,-0.446419610641497,-2.8194528967086,-0.998594084401199,,-4.1653654623829395,,
,2223.0,567.0,1980.0,678.0,2216.0,3238.0,372.0,,,,-0.446780998398399,-2.81961613223882,-0.999866339483327,,-4.6087237826062415,,
,2223.0,568.0,1982.0,678.0,2214.0,3221.0,378.0,,,,-0.446187622625759,-2.81931266358007,-0.9995199031522,,-5.002089575207109,,
,2224.0,570.0,1981.0,681.0,2229.0,3236.0,403.0,,,,-0.446073364029808,-2.81938789855199,-0.998646561763649,,-5.35534472918766,,
,2226.0,568.0,1981.0,678.0,2237.0,3253.0,403.0,,,,-0.44577206551845,-2.81949671494692,-0.998210040114524,,-5.6768670936305154,,
,2225.0,568.0,1982.0,679.0,2232.0,3240.0,406.0,,,,-0.445706567555608,-2.81923411966635,-0.998753809280349,,-5.972697300828314,,
,2224.0,566.0,1984.0,677.0,2230.0,3255.0,386.0,,,,-0.445809427358681,-2.81915463110093,-0.999103037241601,,-6.245960675978344,,
,2223.0,567.0,1981.0,676.0,2241.0,3218.0,404.0,,,,-0.445848749286976,-2.8193230166289,-0.999713452726404,,-6.496574359912475,,
,2224.0,566.0,1983.0,680.0,2256.0,3233.0,392.0,,,,-0.446229257643998,-2.81929643020683,-0.999151530550539,,-6.721250266997866,,
,2225.0,567.0,1980.0,677.0,2251.0,3236.0,411.0,,,,-0.446024135982054,-2.81928637649634,-0.998923402999855,,-6.913785381429805,,
,2222.0,565.0,1979.0,675.0,2234.0,3238.0,424.0,,,,-0.446218642333785,-2.8194754241389,-0.999624576891524,,-7.0656122695009795,,
,2222.0,569.0,1979.0,677.0,2242.0,3221.0,436.0,,,,-0.445753763028128,-2.81949820645209,-0.999323044314859,,-7.166564536568185,,
,2224.0,567.0,1982.0,678.0,2263.0,3224.0,419.0,,,,-0.445737277100632,-2.81935829721662,-0.998629795513305,,-7.205794565561216,,
,2220.0,568.0,1979.0,678.0,2259.0,3224.0,410.0,,,,-0.445495536836429,-2.81947209786335,-0.999654403315573,,-7.17276532635469,,
,2221.0,567.0,1978.0,678.0,2238.0,3229.0,415.0,,,,-0.445613371841644,-2.81940366914156,-0.998536497385063,,-7.05822661137041,,
,2223.0,566.0,1980.0,677.0,2260.0,3222.0,428.0,,,,-0.445469546183176,-2.81948560648901,-0.998479130391518,,-6.855082022849419,,
,2221.0,569.0,1980.0,680.0,2243.0,3226.0,432.0,,,,-0.445478566746111,-2.81951058285902,-0.998525778162494,,-6.5590596624123725,,
,2221.0,567.0,1980.0,677.0,2246.0,3238.0,426.0,,,,-0.445263650922404,-2.81964629439477,-0.998410300466662,,-6.16911830457372,,
,2220.0,567.0,1979.0,678.0,2253.0,3245.0,424.0,,,,-0.445361657475787,-2.81983572314388,-0.99872649971426,,-5.687550553561144,,
2025-07-04 00:21:05,2222.0,566.0,1980.0,677.0,2235.0,3236.0,401.0,,,2025/07/04 12:21:05 AM,-0.445379652266329,-2.81949157176316,-0.998586183474602,,-5.119781014548447,,
,2222.0,567.0,1979.0,678.0,2227.0,3227.0,389.0,,,,-0.445381632996375,-2.81928653901202,-1.00014695468097,,-4.473895151007965,,
,2226.0,569.0,1982.0,679.0,2226.0,3233.0,387.0,,,,-0.445392311592051,-2.81987161064424,-0.998952402527368,,-3.75996731382637,,
,2223.0,569.0,1983.0,678.0,2233.0,3225.0,386.0,,,,-0.445480572835152,-2.8195271641497,-0.998812841203995,,-2.989279495330672,,
,2223.0,565.0,1982.0,678.0,2242.0,3236.0,357.0,,,,-0.445672600582066,-2.81967992188148,-0.999704453160559,,-2.1735326386129707,,
,2223.0,567.0,1981.0,680.0,2242.0,3210.0,385.0,,,,-0.445181730580921,-2.81956964946008,-0.999056453950808,,-1.3241489758971785,,
,2224.0,569.0,1981.0,679.0,2261.0,3236.0,381.0,,,,-0.445516816091807,-2.81966629122901,-0.9986503403786,,-0.45174805795616324,,
,2225.0,567.0,1982.0,680.0,2250.0,3225.0,381.0,,,,-0.445479236988995,-2.81971171055819,-0.99923393136606,,0.4341464178527716,,
,2226.0,569.0,1982.0,680.0,2252.0,3217.0,400.0,,,,-0.445329476329194,-2.81977414420562,-0.99876551337084,,1.325143520931327,,
,2223.0,570.0,1981.0,678.0,2246.0,3229.0,394.0,,,,-0.445078047282751,-2.81984929523281,-0.9979481637426,,2.2137740097179157,,
,2227.0,570.0,1980.0,679.0,2240.0,3215.0,401.0,,,,-0.444977289447517,-2.81959203990928,-0.997045544763357,,3.0930714681268716,,
,2226.0,567.0,1984.0,679.0,2258.0,3221.0,406.0,,,,-0.44457698415914,-2.81988522676805,-0.997188048156345,,3.9560127227362383,,
,2229.0,571.0,1982.0,678.0,2255.0,3217.0,405.0,,,,-0.444444279603509,-2.81975015656284,-0.995433497433682,,4.794903967980265,,
,2228.0,569.0,1981.0,678.0,2255.0,3228.0,419.0,,,,-0.444381428454888,-2.81976631258513,-0.995984004347519,,5.6008092372793685,,
,2230.0,570.0,1983.0,679.0,2253.0,3228.0,414.0,,,,-0.444119515251874,-2.81963982378746,-0.99487442808143,,6.363117718716261,,
,2230.0,569.0,1983.0,681.0,2257.0,3217.0,419.0,,,,-0.444089923965306,-2.81958846834146,-0.994917094190017,,7.069335220220706,,
,2231.0,570.0,1982.0,679.0,2252.0,3219.0,404.0,,,,-0.443994847133597,-2.81971941916622,-0.994463482603659,,7.705163225534063,,
,2229.0,568.0,1979.0,679.0,2266.0,3229.0,389.0,,,,-0.444092457881845,-2.81958730118246,-0.994784339714276,,8.254898291747164,,
,2230.0,569.0,1982.0,679.0,2276.0,3226.0,390.0,,,,-0.444132361097339,-2.81955645496562,-0.994560614272107,,8.702147952319594,,
,2232.0,570.0,1981.0,680.0,2251.0,3237.0,385.0,,,,-0.443955086785595,-2.81993068027478,-0.994558161105993,,9.03082026994989,,
,2232.0,570.0,1982.0,681.0,2238.0,3224.0,368.0,,,,-0.444405241353883,-2.81990353860352,-0.995792463440963,,9.22630661017122,,
,2236.0,571.0,1984.0,682.0,2244.0,3228.0,360.0,,,,-0.444231912289525,-2.81992419472944,-0.995329997301303,,9.276745479843408,,
,2233.0,570.0,1983.0,680.0,2257.0,3231.0,385.0,,,,-0.444226483545258,-2.81998340627766,-0.995148292099307,,9.174234100989718,,
,2233.0,571.0,1985.0,681.0,2254.0,3232.0,398.0,,,,-0.444211133074315,-2.8201202363904,-0.996321232844422,,8.915848032540516,,
,2236.0,571.0,1984.0,682.0,2247.0,3225.0,407.0,,,,-0.444535427763349,-2.81981059940043,-0.996150968156405,,8.504340415063128,,
,2237.0,572.0,1986.0,682.0,2252.0,3220.0,394.0,,,,-0.444233403527604,-2.82000854969115,-0.996087617793864,,7.948421757506149,,
,2236.0,570.0,1982.0,682.0,2265.0,3225.0,367.0,,,,-0.444392723782188,-2.81981779554967,-0.99620350566136,,7.262566077299099,,
,2236.0,572.0,1985.0,682.0,2250.0,3230.0,413.0,,,,-0.444334602873778,-2.82007335588608,-0.996514904437656,,6.4663437918564854,,
,2238.0,573.0,1985.0,683.0,2262.0,3240.0,401.0,,,,-0.443926348755142,-2.81976168970926,-0.996498688855928,,5.583337456896715,,
,2239.0,573.0,1985.0,683.0,2267.0,3227.0,408.0,,,,-0.444369680116645,-2.82021843083682,-0.996696460082282,,4.6397439472849875,,
,2237.0,570.0,1985.0,683.0,2264.0,3220.0,406.0,,,,-0.444297578752753,-2.82001827816285,-0.996340595655887,,3.6627986562361716,,
,2238.0,572.0,1985.0,681.0,2257.0,3224.0,389.0,,,,-0.444147276367617,-2.81989323648918,-0.996162835766069,,2.6791702127461186,,
,2241.0,575.0,1985.0,682.0,2251.0,3242.0,386.0,,,,-0.44449255859331,-2.81976361452327,-0.995873918455694,,1.7134683555370591,,
,2240.0,570.0,1986.0,685.0,2219.0,3224.0,385.0,,,,-0.444368878190212,-2.82014240247744,-0.996089077852164,,0.7869859626942757,,
,2241.0,574.0,1985.0,683.0,2216.0,3216.0,401.0,,,,-0.444315142827883,-2.82011277292591,-0.99667767275333,,-0.0832364653041033,,
,2241.0,571.0,1985.0,682.0,2207.0,3221.0,402.0,,,,-0.444166006281606,-2.81981728889062,-0.996391183510245,,-0.884973757742296,,
,2240.0,570.0,1986.0,682.0,2206.0,3227.0,388.0,,,,-0.444249097018003,-2.81998366827904,-0.997143943613366,,-1.6109946084979434,,
,2245.0,573.0,1989.0,685.0,2219.0,3228.0,390.0,,,,-0.444314623416262,-2.81989603736409,-0.997527685899848,,-2.2588779322573385,,
,2245.0,573.0,1990.0,685.0,2219.0,3233.0,388.0,,,,-0.444291537775565,-2.81991395104403,-0.997013316110203,,-2.8305165782886736,,
,2244.0,575.0,1988.0,684.0,2209.0,3236.0,384.0,,,,-0.444319643499564,-2.81998366742798,-0.997880465426495,,-3.3313771963787135,,
,2241.0,573.0,1987.0,685.0,2194.0,3209.0,403.0,,,,-0.444342615340703,-2.81984026104414,-0.997072070551468,,-3.7695959187876054,,
,2245.0,575.0,1989.0,684.0,2189.0,3228.0,409.0,,,,-0.444142318083812,-2.81999725277494,-0.996889558451831,,-4.154992294603064,,
,2246.0,575.0,1990.0,686.0,2182.0,3220.0,414.0,,,,-0.444330540497067,-2.82008697571703,-0.998502907987864,,-4.498079540580181,,
,2247.0,577.0,1990.0,687.0,2227.0,3233.0,407.0,,,,-0.444225110834409,-2.82009997295788,-0.997958476840692,,-4.8091392172281235,,
,2246.0,574.0,1990.0,685.0,2227.0,3235.0,397.0,,,,-0.444363975485406,-2.81991075200421,-0.997035260226535,,-5.097414795901424,,
,2246.0,576.0,1991.0,687.0,2232.0,3188.0,421.0,,,,-0.444403847353458,-2.82002583334213,-0.998318030060309,,-5.37046314171596,,
,2251.0,577.0,1991.0,684.0,2264.0,3243.0,433.0,,,,-0.444174758200316,-2.81993133133169,-0.998012570168221,,-5.63368733820746,,
,2250.0,576.0,1992.0,687.0,2236.0,3241.0,435.0,,,,-0.444112809802978,-2.8200184312406,-0.997655325666656,,-5.8900597605708604,,
,2250.0,576.0,1990.0,686.0,2248.0,3231.0,437.0,,,,-0.444254117060256,-2.81980712049125,-0.99844512652881,,-6.140031596161106,,
,2253.0,577.0,1990.0,686.0,2244.0,3240.0,421.0,,,,-0.443786377007266,-2.81995792351751,-0.998183683081589,,-6.381614342917953,,
,2254.0,577.0,1994.0,688.0,2248.0,3233.0,429.0,,,,-0.443970763166621,-2.82001671323723,-0.998364178529968,,-6.610610219283637,,
,2256.0,578.0,1993.0,687.0,2267.0,3227.0,428.0,,,,-0.44396849399033,-2.81966805429324,-0.998641096142974,,-6.820962241456231,,
,2255.0,578.0,1994.0,688.0,2291.0,3228.0,417.0,,,,-0.444202708621157,-2.81984408222754,-0.99874451837142,,-7.005191664865136,,
,2255.0,576.0,1995.0,686.0,2280.0,3216.0,420.0,,,,-0.4442054495834,-2.82014334317427,-0.999230343265906,,-7.154890763416327,,
,2258.0,578.0,1994.0,688.0,2278.0,3230.0,422.0,,,,-0.443806853919416,-2.81995103478132,-0.99917509891211,,-7.2612415088950435,,
,2260.0,580.0,1994.0,690.0,2285.0,3226.0,425.0,,,,-0.44405478799906,-2.81988051092546,-0.999777836724036,,-7.315533774451099,,
,2260.0,579.0,1996.0,689.0,2290.0,3215.0,411.0,,,,-0.444499446458798,-2.81973468677648,-1.00052084175954,,-7.309658775927752,,
,2260.0,578.0,1995.0,685.0,2268.0,3208.0,416.0,,,,-0.444657717504817,-2.82005957131307,-1.00172313298076,,-7.236554314926863,,
,2260.0,577.0,1997.0,690.0,2281.0,3226.0,394.0,,,,-0.445032886674447,-2.81995466267854,-1.00242638518756,,-7.09057879278057,,
,2262.0,580.0,1997.0,689.0,2274.0,3219.0,368.0,,,,-0.445219495180207,-2.82007036290341,-1.00303633602413,,-6.867792201937022,,
,2262.0,580.0,1996.0,690.0,2270.0,3212.0,391.0,,,,-0.44509759959797,-2.82017002959971,-1.00518291215354,,-6.566125647374534,,
,2262.0,579.0,2000.0,689.0,2240.0,3197.0,408.0,,,,-0.445385277897754,-2.82012041873873,-1.0054307107277,,-6.185427444802863,,
,2264.0,582.0,1997.0,690.0,2265.0,3191.0,404.0,,,,-0.445283859103566,-2.82006162600692,-1.00526916109568,,-5.7273840204669115,,
,2266.0,582.0,2001.0,693.0,2253.0,3221.0,401.0,,,,-0.445099147562256,-2.82010437738126,-1.00501964308686,,-5.195327257401811,,
,2266.0,581.0,1998.0,692.0,2246.0,3205.0,401.0,,,,-0.445095798202319,-2.81970806034379,-1.00509443060044,,-4.593954752573846,,
,2269.0,583.0,2000.0,693.0,2247.0,3205.0,402.0,,,,-0.444973850916436,-2.82026291787249,-1.00344334722667,,-3.929002529495227,,
,2266.0,581.0,2000.0,690.0,2261.0,3220.0,386.0,,,,-0.444303067069935,-2.81972518806265,-1.00341236374938,,-3.206917546982117,,
,2272.0,582.0,2003.0,693.0,2282.0,3230.0,384.0,,,,-0.445151160275058,-2.81994250675418,-1.00029526500551,,-2.434577269011984,,
,2269.0,581.0,2001.0,693.0,2264.0,3202.0,398.0,,,,-0.445272840611752,-2.81984485425833,-0.999506067077712,,-1.6190950214026216,,
,2272.0,581.0,2004.0,694.0,2262.0,3205.0,395.0,,,,-0.444171935230608,-2.81963033637186,-0.999303867219765,,-0.7677344693043694,,
,2270.0,581.0,2003.0,691.0,2268.0,3240.0,388.0,,,,-0.444220931535055,-2.81974785247569,-0.996969913344596,,0.11206240430899578,,
,2269.0,580.0,2003.0,695.0,2258.0,3241.0,389.0,,,,-0.444192109105532,-2.81978357362683,-0.996662900674309,,1.0125480649971936,,
,2271.0,582.0,2000.0,692.0,2276.0,3228.0,401.0,,,,-0.44417026776783,-2.81964244675701,-0.99581583746952,,1.9254723619950063,,
,2270.0,582.0,2003.0,693.0,2276.0,3231.0,417.0,,,,-0.443301826229495,-2.81967705105178,-0.993963248409465,,2.841855279004372,,
,2267.0,581.0,2002.0,691.0,2278.0,3243.0,419.0,,,,-0.443481653270798,-2.8199572533435,-0.993589469081241,,3.751774203064711,,
,2264.0,579.0,2000.0,688.0,2262.0,3248.0,404.0,,,,-0.442680164004901,-2.81948094946947,-0.993018082686825,,4.644210460208656,,
,2263.0,581.0,1999.0,689.0,2281.0,3244.0,399.0,,,,-0.442807642655607,-2.81935059694799,-0.992301316234365,,5.506994986835062,,
,2259.0,581.0,2000.0,690.0,2268.0,3231.0,418.0,,,,-0.442438444689213,-2.81948248262932,-0.991973136448565,,6.326883509818388,,
,2257.0,577.0,1998.0,688.0,2261.0,3231.0,416.0,,,,-0.442307141823806,-2.81940952453659,-0.991826640962523,,7.089778482179188,,
,2252.0,574.0,1993.0,687.0,2227.0,3207.0,413.0,,,,-0.442497820051486,-2.81933530280397,-0.991195633921521,,7.7810999420041815,,
,2250.0,577.0,1993.0,687.0,2202.0,3208.0,427.0,,,,-0.442417097161941,-2.81931280697306,-0.99113917356623,,8.38629230257549,,
,2250.0,574.0,1992.0,685.0,2213.0,3212.0,417.0,,,,-0.442277717293504,-2.81949730265657,-0.990524633740547,,8.891440251448408,,
,2247.0,575.0,1992.0,687.0,2205.0,3208.0,415.0,,,,-0.442287761817953,-2.81965776053515,-0.990528868774427,,9.283955058947907,,
,2244.0,574.0,1990.0,685.0,2209.0,3208.0,391.0,,,,-0.442537491769818,-2.81941009083235,-0.99024227202708,,9.553282781995494,,
,2242.0,573.0,1990.0,686.0,2209.0,3228.0,389.0,,,,-0.442335674254612,-2.81960507018117,-0.99111662187241,,9.691578352982175,,
,2243.0,572.0,1989.0,687.0,2216.0,3226.0,390.0,,,,-0.442454859194996,-2.81942216774519,-0.990590537423891,,9.694285289065832,,
,2244.0,572.0,1989.0,688.0,2213.0,3235.0,391.0,,,,-0.442234414056438,-2.81939877764978,-0.991470056851855,,9.560561364815088,,
,2242.0,576.0,1989.0,688.0,2210.0,3238.0,403.0,,,,-0.442565055466325,-2.81940157459086,-0.991309370650767,,9.29349790916043,,
,2238.0,573.0,1988.0,688.0,2218.0,3257.0,403.0,,,,-0.442875719662675,-2.81950838863548,-0.991800795388238,,8.900095608510165,,
,2242.0,572.0,1993.0,686.0,2204.0,3255.0,407.0,,,,-0.442975906570178,-2.81947691472841,-0.991992917565819,,8.390982356588074,,
,2240.0,576.0,1990.0,687.0,2227.0,3235.0,411.0,,,,-0.442674609322339,-2.81962916838454,-0.991660733493644,,7.779886301225816,,
,2239.0,574.0,1989.0,687.0,2235.0,3232.0,409.0,,,,-0.442758446187949,-2.81968059352412,-0.991225407617249,,7.082905824697805,,
,2239.0,573.0,1988.0,686.0,2223.0,3250.0,390.0,,,,-0.442837749268287,-2.81944056570972,-0.992146554725648,,6.3176429804758,,
,2241.0,573.0,1987.0,686.0,2258.0,3248.0,411.0,,,,-0.442725903102577,-2.81952658804334,-0.991674016448689,,5.502282916421038,,
,2239.0,570.0,1989.0,684.0,2254.0,3219.0,399.0,,,,-0.443189006474165,-2.82003136644418,-0.991378577596551,,4.654705195638542,,
,2239.0,575.0,1986.0,687.0,2267.0,3229.0,379.0,,,,-0.443047829713574,-2.81972123448102,-0.991528273662815,,3.7917028940942914,,
,2236.0,572.0,1986.0,687.0,2259.0,3225.0,395.0,,,,-0.443001904889883,-2.81950474193903,-0.991431396323897,,2.928364951983713,,
,2238.0,571.0,1984.0,684.0,2239.0,3225.0,419.0,,,,-0.443283780103935,-2.81977499359672,-0.991029391171247,,2.077651943145153,,
,2235.0,571.0,1986.0,686.0,2243.0,3227.0,408.0,,,,-0.443328350540928,-2.81971294782861,-0.99019442103104,,1.250170586465566,,
,2234.0,573.0,1985.0,686.0,2261.0,3232.0,410.0,,,,-0.443493327309701,-2.81995226066607,-0.990074813978506,,0.454131538326669,,
,2235.0,570.0,1984.0,684.0,2259.0,3225.0,414.0,,,,-0.443798735151235,-2.81978694983597,-0.991489739395633,,-0.30454008941840305,,
,2233.0,572.0,1984.0,685.0,2260.0,3213.0,411.0,,,,-0.443931787122639,-2.81974822204402,-0.991115939065669,,-1.021980936923769,,
,2234.0,569.0,1982.0,684.0,2220.0,3222.0,390.0,,,,-0.443987553286834,-2.82000942983678,-0.990845049018391,,-1.6960944635664412,,
,2235.0,570.0,1983.0,689.0,2244.0,3224.0,385.0,,,,-0.444164021859939,-2.82006941929855,-0.991497667680644,,-2.3262239848863637,,
,2231.0,572.0,1983.0,686.0,2259.0,3219.0,393.0,,,,-0.444233799519672,-2.82000641668771,-0.990492902898167,,-2.912825243526438,,
,2233.0,572.0,1985.0,688.0,2255.0,3234.0,394.0,,,,-0.443995438164414,-2.82008074140379,-0.990357059157661,,-3.457159708890727,,
,2232.0,569.0,1984.0,684.0,2265.0,3226.0,372.0,,,,-0.444189365463871,-2.81989993955866,-0.990446732577588,,-3.961018538049168,,
,2232.0,570.0,1984.0,684.0,2250.0,3219.0,399.0,,,,-0.443532918732204,-2.82002582713257,-0.98976955755832,,-4.426477065750758,,
,2235.0,570.0,1982.0,686.0,2257.0,3222.0,413.0,,,,-0.443997597806105,-2.82015819825809,-0.988674070350278,,-4.855672875189377,,
,2232.0,571.0,1983.0,686.0,2248.0,3221.0,421.0,,,,-0.443788563220481,-2.81987567624243,-0.989132483243752,,-5.250598241343989,,
,2232.0,569.0,1979.0,683.0,2255.0,3214.0,388.0,,,,-0.443869612628458,-2.82001506452624,-0.989597436302739,,-5.612899910407085,,
,2232.0,568.0,1982.0,685.0,2261.0,3239.0,385.0,,,,-0.444148421273198,-2.81988196419645,-0.990080033958836,,-5.943684376429285,,
,2231.0,571.0,1983.0,684.0,2259.0,3225.0,378.0,,,,-0.4441506678793,-2.81976897664385,-0.990672096338282,,-6.243333224117864,,
,2229.0,569.0,1979.0,683.0,2248.0,3220.0,392.0,,,,-0.444401437816837,-2.8199512984284,-0.990572676745995,,-6.511339239515882,,
,2231.0,569.0,1979.0,684.0,2238.0,3234.0,396.0,,,,-0.444487141524943,-2.81982133253264,-0.99147219149741,,-6.746178830559167,,
,2233.0,572.0,1982.0,682.0,2234.0,3233.0,381.0,,,,-0.444562419996612,-2.81967905568432,-0.990610564751307,,-6.94523905930988,,
,2231.0,570.0,1982.0,685.0,2253.0,3215.0,393.0,,,,-0.445033496462264,-2.81975549310338,-0.991070078229004,,-7.104817582787285,,
,2233.0,570.0,1982.0,686.0,2275.0,3204.0,393.0,,,,-0.444939694365934,-2.81966327421768,-0.991101292371643,,-7.220210615657516,,
,2234.0,570.0,1982.0,685.0,2277.0,3204.0,387.0,,,,-0.445057319414872,-2.81981396548051,-0.991108338671403,,-7.285897721439795,,
,2230.0,568.0,1977.0,683.0,2251.0,3213.0,403.0,,,,-0.44470045058032,-2.8201136420171,-0.991064319797695,,-7.295823331950262,,
,2231.0,569.0,1981.0,687.0,2253.0,3215.0,399.0,,,,-0.444413504757248,-2.81973816061572,-0.990718235870229,,-7.24376426207684,,
,2229.0,568.0,1979.0,683.0,2250.0,3226.0,404.0,,,,-0.444376553204886,-2.82000794216844,-0.990120776036688,,-7.1237612908244765,,
,2231.0,570.0,1978.0,684.0,2259.0,3226.0,400.0,,,,-0.444389298680607,-2.81999213761073,-0.98994604730192,,-6.93058254219663,,
,2229.0,568.0,1979.0,685.0,2255.0,3232.0,388.0,,,,-0.444194623426283,-2.81973921271953,-0.989314055659764,,-6.660178499590272,,
,2232.0,569.0,1978.0,684.0,2263.0,3221.0,393.0,,,,-0.444245541472419,-2.81979716869519,-0.988983403793883,,-6.310084517519822,,
,2232.0,569.0,1981.0,685.0,2268.0,3221.0,384.0,,,,-0.444217473798267,-2.81986259658571,-0.989157211090666,,-5.879727792105125,,
,2232.0,569.0,1979.0,687.0,2249.0,3205.0,381.0,,,,-0.443847947426885,-2.81973994898265,-0.988466559514794,,-5.370602637283688,,
,2232.0,568.0,1979.0,686.0,2247.0,3210.0,388.0,,,,-0.443753542857364,-2.81952732336592,-0.98829837740609,,-4.786290926250082,,
2025-07-04 00:21:06,2232.0,569.0,1978.0,683.0,2258.0,3223.0,389.0,,,2025/07/04 12:21:06 AM,-0.444054366118598,-2.81988066443296,-0.987753831179168,,-4.13232317330591,,
,2233.0,571.0,1980.0,687.0,2258.0,3213.0,426.0,,,,-0.443698310351289,-2.81971525098422,-0.987504199891422,,-3.415897557691679,,
,2236.0,571.0,1981.0,687.0,2261.0,3215.0,404.0,,,,-0.443970025647345,-2.81934651926958,-0.986965327960423,,-2.6454948205446644,,
,2237.0,570.0,1979.0,685.0,2261.0,3212.0,408.0,,,,-0.44370401564433,-2.81965496384977,-0.987519755885472,,-1.8304416404838544,,
,2235.0,570.0,1978.0,684.0,2262.0,3221.0,392.0,,,,-0.443690620855622,-2.81940491916772,-0.986758520107337,,-0.9804808730282557,,
,2234.0,567.0,1980.0,687.0,2243.0,3212.0,387.0,,,,-0.443903595292673,-2.81926368130737,-0.986377852017383,,-0.10540358754103343,,
,2236.0,571.0,1981.0,687.0,2258.0,3217.0,375.0,,,,-0.443709336412099,-2.81942429265978,-0.985735231779335,,0.7852132989901524,,
,2236.0,571.0,1981.0,687.0,2264.0,3230.0,366.0,,,,-0.443751111296641,-2.81929266662797,-0.98558412107894,,1.6821364575524533,,
,2238.0,572.0,1982.0,686.0,2253.0,3231.0,359.0,,,,-0.443758757026651,-2.81932903176574,-0.986542831335794,,2.5764646266728275,,
,2235.0,570.0,1980.0,685.0,2241.0,3238.0,366.0,,,,-0.443787048741899,-2.81946674680734,-0.985908543826206,,3.4594878853996485,,
,2239.0,572.0,1979.0,684.0,2245.0,3242.0,384.0,,,,-0.443718020873265,-2.81928308565872,-0.986179827419512,,4.322447601565507,,
,2239.0,573.0,1983.0,690.0,2243.0,3236.0,369.0,,,,-0.443584468323112,-2.81927534320792,-0.985609755356499,,5.156241761851813,,
,2240.0,573.0,1981.0,689.0,2255.0,3239.0,370.0,,,,-0.443705195255458,-2.81945763253399,-0.985191957795368,,5.951130694009785,,
,2240.0,569.0,1981.0,689.0,2266.0,3234.0,380.0,,,,-0.443834698909451,-2.81955194006886,-0.985140397130632,,6.696502995913907,,
,2241.0,572.0,1984.0,688.0,2249.0,3214.0,385.0,,,,-0.443466949500413,-2.81948656716018,-0.984792580930367,,7.380759897236988,,
,2240.0,575.0,1983.0,690.0,2269.0,3214.0,369.0,,,,-0.443722994999725,-2.81922338174548,-0.984904511967494,,7.99136767797691,,
,2244.0,573.0,1981.0,692.0,2274.0,3219.0,374.0,,,,-0.443626720172556,-2.81915190277412,-0.984686407178559,,8.515112168145837,,
,2244.0,572.0,1980.0,686.0,2266.0,3239.0,376.0,,,,-0.443554648717834,-2.8193312663785,-0.985398558521043,,8.938567563097047,,
,2244.0,569.0,1980.0,688.0,2268.0,3223.0,371.0,,,,-0.443584779432194,-2.81933205698389,-0.9847043336133,,9.248765421673198,,
,2246.0,571.0,1983.0,690.0,2263.0,3248.0,354.0,,,,-0.443650540604386,-2.81941954423744,-0.985077398687341,,9.434021371239837,,
,2247.0,572.0,1983.0,690.0,2252.0,3219.0,357.0,,,,-0.443798801281594,-2.81934572393092,-0.985215915773718,,9.484850428958193,,
,2246.0,573.0,1982.0,690.0,2261.0,3220.0,364.0,,,,-0.443839943986393,-2.81930433908076,-0.985557642344872,,9.3948812012987,,
,2245.0,571.0,1981.0,687.0,2259.0,3228.0,390.0,,,,-0.444008688620383,-2.81923259917413,-0.985994098266911,,9.161668261771602,,
,2247.0,572.0,1984.0,691.0,2276.0,3230.0,381.0,,,,-0.443731061978126,-2.81919025207011,-0.986053464598916,,8.787303206241761,,
,2248.0,573.0,1983.0,691.0,2261.0,3235.0,380.0,,,,-0.443862062708041,-2.81919082063877,-0.986359177433765,,8.27873929054541,,
,2245.0,574.0,1980.0,692.0,2265.0,3232.0,374.0,,,,-0.443641786929969,-2.81935383480085,-0.9872508779393,,7.647771584137088,,
,2249.0,571.0,1981.0,688.0,2276.0,3232.0,379.0,,,,-0.443958800008646,-2.81931637170007,-0.986385441287865,,6.910651467876694,,
,2249.0,573.0,1981.0,689.0,2277.0,3220.0,363.0,,,,-0.443888852250547,-2.81939774468475,-0.986736056616927,,6.087355698912184,,
,2252.0,573.0,1982.0,694.0,2280.0,3219.0,371.0,,,,-0.444190730097898,-2.81918959944733,-0.987062752229913,,5.200568962913308,,
,2251.0,575.0,1985.0,693.0,2269.0,3238.0,384.0,,,,-0.444047185343952,-2.81921006700129,-0.98758722814406,,4.274468127033348,,
,2253.0,573.0,1985.0,690.0,2274.0,3246.0,400.0,,,,-0.444170491481298,-2.81935029244147,-0.988804253694151,,3.333412509302692,,
,2252.0,574.0,1984.0,691.0,2285.0,3212.0,385.0,,,,-0.444378953858071,-2.81928158495758,-0.988642447319766,,2.4006472103174086,,
,2250.0,575.0,1985.0,691.0,2279.0,3219.0,387.0,,,,-0.444704187975958,-2.81936686206547,-0.98913391472018,,1.4971182029280798,,
,2253.0,575.0,1986.0,697.0,2288.0,3206.0,378.0,,,,-0.44474204197505,-2.81952932922237,-0.989048796246581,,0.6404816925566942,,
,2254.0,577.0,1986.0,694.0,2274.0,3206.0,385.0,,,,-0.444790140197297,-2.81923181140372,-0.989386055602174,,-0.1556304984983961,,
,2257.0,573.0,1981.0,691.0,2257.0,3219.0,369.0,,,,-0.444949590160468,-2.81934269008866,-0.989830693722261,,-0.8820504250006517,,
,2255.0,577.0,1986.0,692.0,2234.0,3215.0,376.0,,,,-0.445276556644937,-2.81935215757356,-0.990041564759982,,-1.534202198136298,,
,2255.0,576.0,1987.0,694.0,2253.0,3221.0,387.0,,,,-0.445055347381537,-2.81942934797139,-0.990099097996014,,-2.1119250746478255,,
,2257.0,576.0,1988.0,692.0,2246.0,3226.0,383.0,,,,-0.445070923046136,-2.81917969108029,-0.990721834171407,,-2.6190189519230684,,
,2256.0,577.0,1989.0,694.0,2249.0,3213.0,392.0,,,,-0.445400321308029,-2.8190983459337,-0.990389816709788,,-3.062558617470664,,
,2257.0,576.0,1987.0,693.0,2267.0,3234.0,391.0,,,,-0.445382750970256,-2.81919561981031,-0.990044674482534,,-3.4520377891420226,,
,2261.0,578.0,1988.0,695.0,2277.0,3226.0,399.0,,,,-0.445620309266733,-2.81932430987822,-0.989941193781872,,-3.79841296444565,,
,2261.0,574.0,1990.0,695.0,2277.0,3226.0,396.0,,,,-0.445942989952649,-2.81894758973987,-0.990136460237799,,-4.113119562216622,,
,2261.0,575.0,1987.0,695.0,2268.0,3222.0,399.0,,,,-0.445352013990793,-2.81903913113312,-0.990192712183359,,-4.407128867996416,,
,2261.0,574.0,1987.0,694.0,2260.0,3226.0,380.0,,,,-0.445605199672163,-2.81878954724553,-0.989638730704525,,-4.690104820183603,,
,2261.0,578.0,1987.0,694.0,2251.0,3218.0,382.0,,,,-0.445461647588675,-2.81900273789492,-0.989527221148157,,-4.969706385331175,,
,2263.0,579.0,1990.0,696.0,2248.0,3216.0,380.0,,,,-0.445574898573948,-2.81873070160825,-0.989419298414404,,-5.2510663422576185,,
,2265.0,579.0,1991.0,695.0,2255.0,3203.0,377.0,,,,-0.445489076479925,-2.81903427667835,-0.988630268958516,,-5.536462860202425,,
,2264.0,578.0,1989.0,696.0,2272.0,3221.0,346.0,,,,-0.445150090809927,-2.81881618337646,-0.988108568654699,,-5.8251878577679035,,
,2266.0,576.0,1990.0,697.0,2262.0,3236.0,367.0,,,,-0.444892192903307,-2.818921484593,-0.98809153570194,,-6.113606451557558,,
,2266.0,579.0,1992.0,698.0,2263.0,3205.0,374.0,,,,-0.444774067264952,-2.81883646191193,-0.988117517004408,,-6.395394713836938,,
,2268.0,581.0,1993.0,699.0,2262.0,3230.0,387.0,,,,-0.444708665702965,-2.81879905078167,-0.987263315496213,,-6.661937694919874,,
,2269.0,579.0,1993.0,696.0,2267.0,3222.0,379.0,,,,-0.444633090405739,-2.81892006958662,-0.988158585437517,,-6.902865089329676,,
,2268.0,579.0,1991.0,695.0,2275.0,3200.0,364.0,,,,-0.444364023255503,-2.8189036569698,-0.986742912736931,,-7.10669687480156,,
,2274.0,580.0,1992.0,697.0,2273.0,3218.0,389.0,,,,-0.444388116200302,-2.81850031731036,-0.987360561119286,,-7.261565112885012,,
,2272.0,582.0,1993.0,699.0,2258.0,3214.0,391.0,,,,-0.444412254205635,-2.81866438865929,-0.98619311271486,,-7.355971385736447,,
,2271.0,580.0,1994.0,698.0,2272.0,3212.0,372.0,,,,-0.444401832034271,-2.81839795115546,-0.985982636089475,,-7.379533620336677,,
,2273.0,579.0,1996.0,700.0,2280.0,3200.0,360.0,,,,-0.444149865568607,-2.81863784402161,-0.98544612523762,,-7.323672922326761,,
,2276.0,580.0,1992.0,695.0,2296.0,3215.0,381.0,,,,-0.444114905755596,-2.81836171652797,-0.985882849331063,,-7.1821912664633984,,
,2276.0,579.0,1994.0,698.0,2290.0,3216.0,364.0,,,,-0.444173082560689,-2.81853267283241,-0.985663068070378,,-6.9516946408232645,,
,2276.0,582.0,1993.0,701.0,2309.0,3221.0,392.0,,,,-0.444147211671995,-2.81836602031004,-0.985968805218296,,-6.631823936534694,,
,2278.0,581.0,1996.0,700.0,2290.0,3214.0,386.0,,,,-0.444223715916414,-2.81858382839656,-0.985012457048616,,-6.225268359507382,,
,2277.0,580.0,1996.0,699.0,2282.0,3214.0,380.0,,,,-0.444052500478744,-2.81845854773239,-0.984987204149298,,-5.73755387726059,,
,2277.0,582.0,1995.0,701.0,2303.0,3234.0,400.0,,,,-0.443741210659589,-2.81815547235049,-0.98530147483443,,-5.176621186351636,,
,2278.0,582.0,1997.0,701.0,2292.0,3230.0,394.0,,,,-0.443929211942944,-2.81861215041265,-0.984983876098112,,-4.55223100056693,,
,2279.0,581.0,1995.0,701.0,2299.0,3238.0,385.0,,,,-0.443852982705718,-2.81817151962393,-0.984422513496726,,-3.8752550790690914,,
,2275.0,579.0,1996.0,697.0,2301.0,3231.0,394.0,,,,-0.443708412966487,-2.81809547549549,-0.98429694171288,,-3.1569255586776155,,
,2274.0,582.0,1993.0,700.0,2251.0,3220.0,398.0,,,,-0.443414822844074,-2.81805795004255,-0.983760904564153,,-2.40812049688977,,
,2271.0,581.0,1994.0,698.0,2260.0,3225.0,377.0,,,,-0.443178661410577,-2.81796478647232,-0.983515988013071,,-1.6387595776478645,,
,2271.0,580.0,1992.0,698.0,2297.0,3233.0,376.0,,,,-0.443139219935373,-2.81790282146716,-0.983621307978389,,-0.8573716386511715,,
,2268.0,579.0,1991.0,698.0,2287.0,3230.0,384.0,,,,-0.442841248987063,-2.81811172730424,-0.982526473750353,,-0.07087682761761095,,
,2264.0,574.0,1990.0,695.0,2257.0,3209.0,363.0,,,,-0.442446505188925,-2.8179796608229,-0.981308851270618,,0.715397067764978,,
,2264.0,577.0,1989.0,696.0,2239.0,3222.0,366.0,,,,-0.442528425961231,-2.817614184663,-0.982060642955557,,1.4974699337488333,,
,2260.0,579.0,1988.0,698.0,2262.0,3218.0,384.0,,,,-0.44226555585024,-2.81787758559218,-0.980478924945906,,2.2722670599563055,,
,2257.0,574.0,1987.0,698.0,2256.0,3210.0,391.0,,,,-0.442319981322279,-2.81774176448178,-0.980670718195335,,3.037031835137542,,
,2256.0,573.0,1985.0,696.0,2252.0,3207.0,385.0,,,,-0.442223153319445,-2.81748121896485,-0.979943677696537,,3.788661957737374,,
,2253.0,572.0,1985.0,697.0,2265.0,3204.0,355.0,,,,-0.442091328992442,-2.81759154825084,-0.980629079993633,,4.523046411918056,,
,2254.0,573.0,1986.0,695.0,2248.0,3205.0,352.0,,,,-0.441815684208482,-2.81745627254606,-0.979989968867261,,5.23448192699155,,
,2252.0,573.0,1984.0,697.0,2249.0,3199.0,345.0,,,,-0.441730275586653,-2.81733627726533,-0.979169437752529,,5.915242822903112,,
,2253.0,575.0,1984.0,694.0,2253.0,3202.0,342.0,,,,-0.441686615987818,-2.81725659647321,-0.978896552375432,,6.555367752203805,,
,2253.0,572.0,1984.0,694.0,2278.0,3216.0,350.0,,,,-0.441541376046111,-2.81751095906758,-0.978462517794725,,7.142710939251874,,
,2252.0,573.0,1984.0,695.0,2277.0,3224.0,361.0,,,,-0.441745923567363,-2.81728778538478,-0.978857459970255,,7.663284023344634,,
,2251.0,572.0,1984.0,697.0,2301.0,3233.0,362.0,,,,-0.441357757091338,-2.81738016577437,-0.979104452562353,,8.101888064210492,,
,2250.0,573.0,1984.0,693.0,2293.0,3231.0,365.0,,,,-0.441448393402227,-2.81728193159698,-0.978130595417489,,8.44300515251684,,
,2249.0,572.0,1982.0,693.0,2261.0,3231.0,356.0,,,,-0.441297258625296,-2.81723443310601,-0.977960413550544,,8.67188783337409,,
,2249.0,572.0,1980.0,695.0,2288.0,3246.0,359.0,,,,-0.441145135908623,-2.81726158584466,-0.97888089683068,,8.775755493316531,,
,2250.0,573.0,1983.0,694.0,2307.0,3230.0,353.0,,,,-0.441137410373241,-2.81765082275407,-0.9775555979613,,8.744983929442041,,
,2250.0,572.0,1983.0,692.0,2289.0,3222.0,374.0,,,,-0.440975687833837,-2.81731041110959,-0.977320142302469,,8.57416170159155,,
,2247.0,572.0,1981.0,693.0,2273.0,3223.0,388.0,,,,-0.441486283576474,-2.81758931643114,-0.976754395270062,,8.262888332373391,,
,2247.0,571.0,1980.0,693.0,2258.0,3215.0,377.0,,,,-0.441874774770235,-2.81736458541899,-0.977934870086989,,7.81620749592404,,
,2250.0,573.0,1982.0,696.0,2241.0,3212.0,378.0,,,,-0.442017388758584,-2.81773372555502,-0.97776393572378,,7.244603344192967,,
,2247.0,571.0,1979.0,693.0,2253.0,3212.0,362.0,,,,-0.442024450369085,-2.81757933049634,-0.978393801848189,,6.563537076822456,,
,2245.0,571.0,1981.0,696.0,2268.0,3208.0,369.0,,,,-0.441862645697867,-2.81738233478737,-0.977859333639205,,5.792556883023876,,
,2246.0,571.0,1982.0,692.0,2263.0,3218.0,350.0,,,,-0.441729817270063,-2.81759737055275,-0.97854186288093,,4.954067695673886,,
,2246.0,573.0,1981.0,694.0,2266.0,3214.0,354.0,,,,-0.442038390693783,-2.8179716847926,-0.978627408166085,,4.071888046121053,,
,2246.0,569.0,1978.0,695.0,2249.0,3203.0,372.0,,,,-0.44229200344572,-2.81771224629436,-0.978822740481391,,3.1697431517264194,,
,2248.0,574.0,1979.0,696.0,2257.0,3204.0,381.0,,,,-0.442342781092599,-2.81768607975946,-0.978369850768348,,2.269844181145209,,
,2245.0,572.0,1980.0,692.0,2249.0,3221.0,374.0,,,,-0.44290588490273,-2.81777929307623,-0.978639719363468,,1.391685164138364,,
,2246.0,569.0,1978.0,695.0,2278.0,3201.0,357.0,,,,-0.442520375379593,-2.81771182601167,-0.979146619896853,,0.5511555426092352,,
,2245.0,573.0,1980.0,695.0,2297.0,3225.0,345.0,,,,-0.442544054322749,-2.81759978691747,-0.978804603104066,,-0.2399760583228173,,
,2247.0,572.0,1979.0,694.0,2253.0,3216.0,363.0,,,,-0.442651076712751,-2.81788227866766,-0.979220557750837,,-0.9741957767556071,,
,2246.0,570.0,1978.0,696.0,2279.0,3216.0,372.0,,,,-0.442446232151323,-2.81784502568965,-0.978573923487958,,-1.6480254298965944,,
,2245.0,569.0,1978.0,695.0,2301.0,3236.0,358.0,,,,-0.442600263597138,-2.81795105745519,-0.97967367578622,,-2.261511195109335,,
,2245.0,571.0,1978.0,695.0,2280.0,3240.0,370.0,,,,-0.442531915900808,-2.81808520099002,-0.979148841245512,,-2.817501232412186,,
,2247.0,575.0,1979.0,695.0,2279.0,3241.0,382.0,,,,-0.44248606177734,-2.81790440504246,-0.97931980432435,,-3.3208022286353325,,
,2246.0,571.0,1979.0,695.0,2270.0,3235.0,368.0,,,,-0.442741877634075,-2.81781122997517,-0.979336944447768,,-3.7773031854215287,,
,2244.0,571.0,1978.0,694.0,2289.0,3231.0,367.0,,,,-0.442491035530396,-2.81791641542,-0.979249285083043,,-4.193144766276994,,
,2243.0,571.0,1977.0,692.0,2260.0,3220.0,374.0,,,,-0.442819000160903,-2.81772599838125,-0.979763156228655,,-4.573996682853027,,
,2244.0,570.0,1977.0,694.0,2257.0,3217.0,376.0,,,,-0.442521512656913,-2.81822138875181,-0.979473155614415,,-4.9244863609674345,,
,2244.0,571.0,1975.0,694.0,2255.0,3225.0,367.0,,,,-0.442870582372491,-2.81802811319229,-0.978388728825952,,-5.247801645305495,,
,2243.0,573.0,1980.0,696.0,2253.0,3213.0,361.0,,,,-0.442847335650988,-2.81801661188509,-0.978683140371392,,-5.545470731118651,,
,2245.0,567.0,1975.0,692.0,2253.0,3203.0,379.0,,,,-0.442814385355163,-2.81804067556244,-0.978778015496668,,-5.817306226092567,,
,2245.0,571.0,1977.0,695.0,2279.0,3212.0,399.0,,,,-0.442739240729729,-2.8179522851665,-0.978905536651843,,-6.061489356313804,,
,2245.0,568.0,1978.0,696.0,2297.0,3205.0,389.0,,,,-0.442674253926513,-2.81742853629147,-0.978493205037779,,-6.274765579116275,,
,2245.0,571.0,1976.0,695.0,2312.0,3204.0,370.0,,,,-0.44277337753996,-2.81787009025411,-0.978422469876663,,-6.452723094866876,,
,2244.0,569.0,1976.0,694.0,2293.0,3226.0,384.0,,,,-0.442493777099982,-2.81783745542002,-0.9786759841372,,-6.5901286589736126,,
,2245.0,571.0,1976.0,695.0,2296.0,3234.0,369.0,,,,-0.442609247832279,-2.81761646916032,-0.979020992494957,,-6.681298517362474,,
,2246.0,570.0,1977.0,695.0,2280.0,3225.0,366.0,,,,-0.442331752621973,-2.81760729824361,-0.978400674611352,,-6.720484921348165,,
,2245.0,568.0,1974.0,695.0,2272.0,3221.0,354.0,,,,-0.442307645567656,-2.81775659804982,-0.978098547498255,,-6.702260081900468,,
,2245.0,570.0,1977.0,695.0,2251.0,3224.0,356.0,,,,-0.442282782818855,-2.8176823680289,-0.978862593597586,,-6.621879709460827,,
,2245.0,569.0,1976.0,693.0,2263.0,3218.0,375.0,,,,-0.442338139163424,-2.81790018366507,-0.978121103780412,,-6.475607919971977,,
,2247.0,572.0,1978.0,696.0,2261.0,3214.0,379.0,,,,-0.441723365782008,-2.8176247963043,-0.977439742212692,,-6.260985092274711,,
,2247.0,571.0,1977.0,695.0,2292.0,3223.0,371.0,,,,-0.44198781748883,-2.81733373387906,-0.976631845205889,,-5.977021339962824,,
,2250.0,572.0,1978.0,695.0,2278.0,3222.0,355.0,,,,-0.44162696237106,-2.81765997642217,-0.976247821308838,,-5.624301665939099,,
,2248.0,567.0,1976.0,694.0,2278.0,3217.0,366.0,,,,-0.441742037235725,-2.81785258977568,-0.977025601895414,,-5.20499513741155,,
,2248.0,572.0,1977.0,694.0,2252.0,3220.0,364.0,,,,-0.441762070703189,-2.81720645738861,-0.976394250651556,,-4.722769168860069,,
,2251.0,570.0,1978.0,697.0,2282.0,3214.0,367.0,,,,-0.44204003999135,-2.81740389975013,-0.976512289711921,,-4.182619732051408,,
,2250.0,570.0,1978.0,697.0,2295.0,3213.0,361.0,,,,-0.442119604452264,-2.81733731952396,-0.976592351329109,,-3.5906366805724255,,
2025-07-04 00:21:07,2249.0,569.0,1974.0,696.0,2292.0,3218.0,346.0,,,2025/07/04 12:21:07 AM,-0.441714870241413,-2.81739903985655,-0.976755554407351,,-2.9537281520356142,,
,2250.0,571.0,1976.0,695.0,2273.0,3224.0,338.0,,,,-0.441896661449314,-2.81745398378736,-0.976939362789722,,-2.279328413098924,,
,2250.0,574.0,1977.0,699.0,2255.0,3226.0,355.0,,,,-0.441947739689885,-2.81745665706544,-0.977055708061852,,-1.5751108424562643,,
,2254.0,571.0,1977.0,697.0,2262.0,3243.0,341.0,,,,-0.441916401977919,-2.81749809767187,-0.977030626431878,,-0.8487244138122754,,
,2252.0,572.0,1977.0,699.0,2265.0,3235.0,354.0,,,,-0.442144733081464,-2.81775944043444,-0.977274124789645,,-0.10756963129058875,,
,2253.0,569.0,1978.0,697.0,2292.0,3215.0,364.0,,,,-0.441857458653742,-2.81776322158861,-0.977018991430883,,0.6413718106253429,,
,2253.0,571.0,1977.0,698.0,2281.0,3222.0,361.0,,,,-0.442092058565134,-2.81741397892058,-0.976563077456794,,1.391641491139724,,
,2254.0,570.0,1977.0,697.0,2277.0,3219.0,344.0,,,,-0.44167062224968,-2.8177650047537,-0.976507677615542,,2.1373341190083237,,
,2257.0,572.0,1979.0,697.0,2256.0,3223.0,346.0,,,,-0.441609324636017,-2.8175297158299,-0.975469850792754,,2.8730488938422467,,
,2254.0,572.0,1977.0,695.0,2245.0,3210.0,374.0,,,,-0.441321195236301,-2.81744066979475,-0.976032749121117,,3.5937645006688066,,
,2254.0,569.0,1977.0,699.0,2257.0,3214.0,361.0,,,,-0.441638592944117,-2.81747856861518,-0.976247063630673,,4.294646753857684,,
,2257.0,572.0,1977.0,698.0,2274.0,3224.0,386.0,,,,-0.441428483953608,-2.81758127841077,-0.976232263167182,,4.97080535822162,,
,2257.0,573.0,1978.0,698.0,2284.0,3218.0,377.0,,,,-0.441528746157838,-2.81710167951554,-0.975810497901771,,5.617023821409291,,
,2257.0,573.0,1978.0,698.0,2275.0,3219.0,380.0,,,,-0.441425880263402,-2.81630387953307,-0.974954713177108,,6.22749361624731,,
,2259.0,573.0,1979.0,697.0,2267.0,3233.0,370.0,,,,-0.441864818675491,-2.81736755237011,-0.976077564227176,,6.795589449685543,,
,2259.0,574.0,1978.0,699.0,2275.0,3232.0,359.0,,,,-0.442287479929987,-2.81774543773885,-0.975941592033473,,7.313725762742295,,
,2259.0,575.0,1978.0,701.0,2280.0,3213.0,368.0,,,,-0.442101762136048,-2.81742987204172,-0.976470789166354,,7.773333662540406,,
,2261.0,572.0,1977.0,697.0,2266.0,3222.0,386.0,,,,-0.441640774104149,-2.8172462299658,-0.976736770985845,,8.164990620232492,,
,2260.0,572.0,1981.0,697.0,2256.0,3233.0,382.0,,,,-0.441950791457314,-2.81743313188159,-0.977028281067165,,8.478721710027994,,
,2259.0,573.0,1980.0,699.0,2261.0,3223.0,381.0,,,,-0.441836194477122,-2.81751084808604,-0.977356173277688,,8.704471832255878,,
,2262.0,574.0,1980.0,700.0,2265.0,3221.0,375.0,,,,-0.442094882138998,-2.81745574555427,-0.977930215864049,,8.832725449720412,,
,2264.0,574.0,1982.0,701.0,2274.0,3212.0,383.0,,,,-0.442022167649469,-2.81749155933565,-0.977517065137836,,8.855226722293366,,
,2265.0,574.0,1983.0,701.0,2279.0,3216.0,378.0,,,,-0.442226445808094,-2.81719187226008,-0.978805025529965,,8.765732076253743,,
,2264.0,573.0,1979.0,698.0,2280.0,3219.0,361.0,,,,-0.442038795672965,-2.81700959081243,-0.977545567760953,,8.560713379353404,,
,2264.0,578.0,1980.0,701.0,2269.0,3221.0,373.0,,,,-0.442123703394591,-2.81714885912009,-0.977955413900555,,8.239926888632546,,
,2265.0,573.0,1979.0,700.0,2249.0,3219.0,381.0,,,,-0.442134116504029,-2.81732276951581,-0.978054619049792,,7.806773060041616,,
,2267.0,576.0,1985.0,701.0,2245.0,3212.0,388.0,,,,-0.442375333127899,-2.81736647571406,-0.978169969424603,,7.268394399633941,,
,2267.0,573.0,1982.0,699.0,2268.0,3206.0,396.0,,,,-0.442468726285767,-2.81735792549696,-0.978334895293763,,6.635489229766324,,
,2267.0,576.0,1981.0,701.0,2255.0,3209.0,362.0,,,,-0.442494151448935,-2.81746969740172,-0.978848739365291,,5.921853132773343,,
,2269.0,574.0,1983.0,701.0,2264.0,3231.0,376.0,,,,-0.44229531801128,-2.8173561405789,-0.978438745083936,,5.14369110519005,,
,2272.0,577.0,1984.0,703.0,2270.0,3223.0,367.0,,,,-0.442312036955256,-2.81750402230962,-0.978166465403979,,4.3187672153961865,,
,2268.0,575.0,1982.0,702.0,2279.0,3226.0,384.0,,,,-0.442477355104213,-2.81727591014464,-0.978803794211734,,3.4654717871847462,,
,2269.0,575.0,1984.0,701.0,2268.0,3248.0,370.0,,,,-0.442454192818362,-2.81767116904227,-0.978667482309118,,2.601888161018204,,
,2273.0,577.0,1985.0,704.0,2247.0,3227.0,362.0,,,,-0.442308369246849,-2.81751629773623,-0.978169097451125,,1.7449333998378014,,
,2272.0,577.0,1985.0,703.0,2265.0,3216.0,365.0,,,,-0.442247388881406,-2.81760051651423,-0.978739688457623,,0.9096327198249375,,
,2275.0,577.0,1985.0,702.0,2274.0,3215.0,367.0,,,,-0.442182708745045,-2.81750038273036,-0.978577892045706,,0.10856913209806,,
,2272.0,573.0,1983.0,702.0,2272.0,3228.0,367.0,,,,-0.442174693535431,-2.81741059600611,-0.977780015087625,,-0.6484692446290722,,
,2276.0,577.0,1986.0,704.0,2248.0,3227.0,372.0,,,,-0.441709653745401,-2.81730258172344,-0.977780569066481,,-1.3546391259079642,,
,2280.0,577.0,1985.0,702.0,2253.0,3222.0,376.0,,,,-0.441538702197862,-2.81718946195818,-0.977646885350521,,-2.005998597752081,,
,2276.0,579.0,1986.0,704.0,2259.0,3220.0,367.0,,,,-0.441850440656647,-2.81735219405042,-0.978238442347519,,-2.6012909266473967,,
,2275.0,575.0,1984.0,703.0,2274.0,3217.0,381.0,,,,-0.441569749069665,-2.81730282091491,-0.977688966743927,,-3.1415851813544258,,
,2277.0,576.0,1986.0,704.0,2261.0,3222.0,366.0,,,,-0.441899749283367,-2.81728133150233,-0.977935842482449,,-3.629809905127967,,
,2282.0,579.0,1988.0,705.0,2261.0,3209.0,380.0,,,,-0.441497199089357,-2.81727449214099,-0.977636241418033,,-4.070220148489681,,
,2281.0,577.0,1989.0,704.0,2256.0,3218.0,374.0,,,,-0.441504671605936,-2.81738532333294,-0.977680136841931,,-4.467838735677322,,
,2280.0,579.0,1988.0,705.0,2272.0,3220.0,377.0,,,,-0.44174454778292,-2.81740884449408,-0.977563955638511,,-4.82790931078813,,
,2280.0,576.0,1987.0,705.0,2270.0,3227.0,358.0,,,,-0.441584088645033,-2.8172703583807,-0.977350924722646,,-5.1553922216608745,,
,2285.0,580.0,1990.0,707.0,2274.0,3235.0,387.0,,,,-0.441508831043478,-2.81720244868418,-0.977188440570455,,-5.454526309727582,,
,2287.0,582.0,1990.0,708.0,2251.0,3226.0,357.0,,,,-0.441364571895898,-2.8172542365659,-0.976968400563308,,-5.7284720190513045,,
,2284.0,580.0,1992.0,707.0,2250.0,3237.0,351.0,,,,-0.441396733098063,-2.81718070983756,-0.977295634761639,,-5.979045223248428,,
,2286.0,580.0,1989.0,707.0,2260.0,3228.0,364.0,,,,-0.441354570535837,-2.81703771840446,-0.976391138183432,,-6.2065472671349315,,
,2285.0,579.0,1987.0,707.0,2270.0,3235.0,357.0,,,,-0.44127653179857,-2.8170061334268,-0.977802746901907,,-6.409694627750204,,
,2285.0,580.0,1991.0,707.0,2275.0,3228.0,378.0,,,,-0.441078396926984,-2.81710538322958,-0.976420088799667,,-6.585650476313433,,
,2287.0,580.0,1989.0,708.0,2252.0,3223.0,360.0,,,,-0.441655014413304,-2.81686694044238,-0.977051939522962,,-6.73015917419474,,
,2289.0,578.0,1991.0,709.0,2242.0,3239.0,367.0,,,,-0.441425600830883,-2.81685495174951,-0.975969625457498,,-6.837782282965493,,
,2285.0,579.0,1987.0,708.0,2278.0,3245.0,368.0,,,,-0.441319625728051,-2.81694776958746,-0.976668772677698,,-6.902230183044714,,
,2285.0,580.0,1990.0,709.0,2263.0,3231.0,377.0,,,,-0.441295380780721,-2.81712066697407,-0.976368972256499,,-6.916776464631348,,
,2285.0,579.0,1988.0,706.0,2272.0,3220.0,380.0,,,,-0.441337445419424,-2.81706741658123,-0.975966838728899,,-6.87473298701124,,
,2281.0,579.0,1987.0,708.0,2269.0,3224.0,369.0,,,,-0.441411367357584,-2.81680533799107,-0.975796196018942,,-6.769952789364882,,
,2281.0,578.0,1987.0,706.0,2240.0,3238.0,377.0,,,,-0.441010182964691,-2.81681781228097,-0.975401485228154,,-6.597318010712932,,
,2278.0,575.0,1988.0,706.0,2257.0,3217.0,384.0,,,,-0.440689485221972,-2.81713206747742,-0.975467597942859,,-6.353163967359543,,
,2277.0,576.0,1985.0,705.0,2263.0,3188.0,362.0,,,,-0.440411961659624,-2.81697430455402,-0.974623122198913,,-6.035591819284629,,
,2275.0,577.0,1983.0,703.0,2261.0,3191.0,371.0,,,,-0.440621319614149,-2.81676715276295,-0.975779726757808,,-5.64463231866643,,
,2271.0,574.0,1983.0,702.0,2268.0,3195.0,364.0,,,,-0.440453818087294,-2.81684957643796,-0.975710220469713,,-5.182240962778749,,
,2267.0,573.0,1985.0,701.0,2268.0,3191.0,377.0,,,,-0.440447162778214,-2.81689472848632,-0.975889878188293,,-4.652127600460492,,
,2266.0,573.0,1979.0,703.0,2252.0,3213.0,341.0,,,,-0.440645157474878,-2.81647060388442,-0.975484746762981,,-4.059447407833018,,
,2267.0,574.0,1981.0,704.0,2249.0,3229.0,350.0,,,,-0.440504540402365,-2.81671936890862,-0.975976014922671,,-3.410401121800246,,
,2266.0,576.0,1981.0,701.0,2264.0,3225.0,383.0,,,,-0.440373750135928,-2.81653127816572,-0.97559174193874,,-2.7118067606960667,,
,2263.0,571.0,1980.0,699.0,2273.0,3210.0,382.0,,,,-0.440449061693606,-2.81686027458865,-0.976364821116977,,-1.9707101685080899,,
,2262.0,573.0,1980.0,703.0,2260.0,3233.0,376.0,,,,-0.440489053130804,-2.81700503842489,-0.976321064865878,,-1.1940967978682122,,
,2262.0,573.0,1982.0,701.0,2239.0,3245.0,366.0,,,,-0.440610107074445,-2.81674962448358,-0.97657125399617,,-0.388753129003147,,
,2264.0,572.0,1981.0,704.0,2241.0,3240.0,357.0,,,,-0.440691491988195,-2.8168538861232,-0.976784229993025,,0.43869497501091004,,
,2261.0,570.0,1979.0,701.0,2255.0,3228.0,380.0,,,,-0.440816633876356,-2.81697538801067,-0.976550336119793,,1.281565274607872,,
,2262.0,573.0,1978.0,702.0,2280.0,3240.0,374.0,,,,-0.440835263148994,-2.81707247434616,-0.976721359919735,,2.1327489837413105,,
,2263.0,572.0,1980.0,704.0,2302.0,3236.0,371.0,,,,-0.440562070922072,-2.81716200713985,-0.97732358798558,,2.9842385057549725,,
,2262.0,574.0,1980.0,702.0,2287.0,3232.0,364.0,,,,-0.440790312564434,-2.81720910297445,-0.977587491669059,,3.8266252652015766,,
,2262.0,572.0,1980.0,702.0,2273.0,3222.0,360.0,,,,-0.440876243722413,-2.81716843744354,-0.978125548293625,,4.648653790127344,,
,2262.0,569.0,1977.0,701.0,2263.0,3222.0,362.0,,,,-0.44123421126715,-2.81741100754792,-0.977072285575848,,5.4369226485963695,,
,2259.0,571.0,1978.0,701.0,2256.0,3216.0,347.0,,,,-0.441399599450529,-2.81749278998305,-0.977736945731759,,6.175815770794482,,
,2260.0,572.0,1978.0,702.0,2270.0,3214.0,353.0,,,,-0.441538972684578,-2.81743570239328,-0.97753454409913,,6.847728258362686,,
,2257.0,571.0,1978.0,701.0,2259.0,3220.0,362.0,,,,-0.441661146076476,-2.81756356215597,-0.97764587561441,,7.433620267962412,,
,2259.0,572.0,1980.0,701.0,2252.0,3222.0,367.0,,,,-0.441767357662685,-2.81741965036825,-0.977993057170817,,7.913894257713542,,
,2257.0,569.0,1976.0,700.0,2275.0,3235.0,387.0,,,,-0.44159292252257,-2.81767649266678,-0.977893915876303,,8.269549101461429,,
,2257.0,572.0,1976.0,700.0,2266.0,3215.0,400.0,,,,-0.44183520821401,-2.81755015692376,-0.977290629077097,,8.483523805630169,,
,2260.0,572.0,1977.0,703.0,2260.0,3196.0,392.0,,,,-0.441757095463149,-2.81795525642883,-0.977596379734955,,8.542108508449063,,
,2254.0,570.0,1977.0,702.0,2262.0,3201.0,398.0,,,,-0.441503096866158,-2.81791540300896,-0.977004711378524,,8.436276270053774,,
,2257.0,571.0,1976.0,700.0,2269.0,3220.0,394.0,,,,-0.441878611914315,-2.81774862793202,-0.976650865222714,,8.162781237670181,,
,2256.0,569.0,1977.0,699.0,2274.0,3213.0,400.0,,,,-0.441619063949904,-2.81801327404575,-0.976959896125058,,7.724881422199181,,
,2256.0,571.0,1977.0,701.0,2256.0,3216.0,384.0,,,,-0.441617794866761,-2.81784818091169,-0.977944664098953,,7.132578907318732,,
,2256.0,571.0,1978.0,702.0,2250.0,3222.0,393.0,,,,-0.441602710044774,-2.81791862024642,-0.97673759251237,,6.402323512743627,,
,2257.0,568.0,1975.0,699.0,2255.0,3205.0,388.0,,,,-0.441701469936567,-2.81767067921091,-0.97756647006163,,5.556189509888008,,
,2257.0,569.0,1977.0,698.0,2251.0,3211.0,384.0,,,,-0.441743842570277,-2.81806053003981,-0.977897126677476,,4.620597636401684,,
,2260.0,570.0,1975.0,702.0,2263.0,3218.0,386.0,,,,-0.441696710905478,-2.81775863286238,-0.978945479935148,,3.6247054221693413,,
,2260.0,569.0,1977.0,702.0,2263.0,3223.0,409.0,,,,-0.442031611508684,-2.81781749149802,-0.979335638524466,,2.5986204576720597,,
,2259.0,569.0,1977.0,700.0,2265.0,3222.0,396.0,,,,-0.442094548549847,-2.81794073881008,-0.980926642164848,,1.5716016107262645,,
,2255.0,571.0,1973.0,699.0,2263.0,3234.0,378.0,,,,-0.442185323984192,-2.81791864740571,-0.98137363843113,,0.5704044415912143,,
,2257.0,570.0,1978.0,699.0,2260.0,3227.0,400.0,,,,-0.442277192664109,-2.81814795317944,-0.980671282766335,,-0.3820967115583775,,
,2256.0,572.0,1977.0,700.0,2244.0,3233.0,415.0,,,,-0.442583404946815,-2.81800485272585,-0.981992672665129,,-1.2679118064370805,,
,2257.0,570.0,1977.0,701.0,2257.0,3232.0,405.0,,,,-0.442507458110691,-2.81785415167857,-0.981917626729641,,-2.074505462527815,,
,2257.0,572.0,1977.0,701.0,2249.0,3236.0,397.0,,,,-0.442442739968323,-2.81801148118511,-0.981714967143807,,-2.794918507565886,,
,2258.0,569.0,1977.0,699.0,2279.0,3211.0,401.0,,,,-0.442450111741171,-2.81819291407725,-0.981403445213614,,-3.427463646166219,,
,2260.0,568.0,1976.0,702.0,2261.0,3211.0,378.0,,,,-0.442207942690448,-2.81811229391178,-0.982128316014043,,-3.97505131655105,,
,2260.0,570.0,1975.0,702.0,2270.0,3213.0,378.0,,,,-0.442393613293823,-2.81843172071419,-0.980456023798431,,-4.444226867822289,,
,2259.0,572.0,1977.0,700.0,2268.0,3212.0,388.0,,,,-0.44202026697284,-2.81775209581116,-0.980879085594106,,-4.844016113386405,,
,2255.0,568.0,1973.0,698.0,2266.0,3222.0,371.0,,,,-0.441684808029246,-2.81785515656678,-0.980659286441879,,-5.184683023676176,,
,2260.0,570.0,1977.0,700.0,2254.0,3222.0,381.0,,,,-0.442149804243306,-2.81795305083182,-0.982034651396286,,-5.476501656931368,,
,2261.0,571.0,1975.0,701.0,2260.0,3225.0,360.0,,,,-0.442039169338426,-2.81803475196584,-0.981313988643845,,-5.7286358592421625,,
,2260.0,572.0,1977.0,702.0,2269.0,3233.0,364.0,,,,-0.442017834232799,-2.81808794862344,-0.980340249302046,,-5.948206448910323,,
,2260.0,568.0,1976.0,699.0,2252.0,3215.0,387.0,,,,-0.441689031802885,-2.81801015422439,-0.981087477567839,,-6.139607983691733,,
,2260.0,571.0,1976.0,701.0,2280.0,3230.0,378.0,,,,-0.441855299839539,-2.81813436761498,-0.980936142767957,,-6.304116885182435,,
,2260.0,570.0,1978.0,700.0,2275.0,3226.0,371.0,,,,-0.441431599651883,-2.81803390570217,-0.980459870385469,,-6.439810476990631,,
,2263.0,569.0,1978.0,702.0,2247.0,3215.0,348.0,,,,-0.441463326314479,-2.81820621333116,-0.980929206955734,,-6.541793052212686,,
,2261.0,570.0,1976.0,699.0,2244.0,3214.0,351.0,,,,-0.441353405167699,-2.81801646426589,-0.980338140004528,,-6.602701087719154,,
,2264.0,571.0,1977.0,700.0,2254.0,3233.0,365.0,,,,-0.441789507171498,-2.81799786510904,-0.981576389035822,,-6.613436136567922,,
,2264.0,571.0,1979.0,700.0,2273.0,3231.0,389.0,,,,-0.44174124750205,-2.81832749140486,-0.98138927670271,,-6.564052580126801,,
,2264.0,573.0,1977.0,701.0,2283.0,3228.0,400.0,,,,-0.441862069031834,-2.81819213733793,-0.980793608578477,,-6.444711366942084,,
,2264.0,571.0,1976.0,701.0,2281.0,3229.0,390.0,,,,-0.441769960945567,-2.8178906763182,-0.980996788686483,,-6.2466038188571975,,
,2265.0,570.0,1979.0,699.0,2272.0,3214.0,371.0,,,,-0.441698386001514,-2.81777950996815,-0.981208232776224,,-5.962754366079936,,
,2266.0,571.0,1980.0,704.0,2271.0,3223.0,352.0,,,,-0.441539761723667,-2.81812419817792,-0.980960624378636,,-5.5886282623956784,,
,2269.0,573.0,1981.0,703.0,2265.0,3233.0,372.0,,,,-0.441867648921865,-2.8179357379196,-0.980637659884125,,-5.122497985099272,,
,2267.0,573.0,1979.0,703.0,2279.0,3216.0,362.0,,,,-0.441842423006122,-2.81805221739933,-0.981755258149387,,-4.565556051519844,,
,2269.0,572.0,1981.0,702.0,2278.0,3216.0,370.0,,,,-0.441548052144302,-2.81799846395371,-0.981645133790703,,-3.9217967292161426,,
,2270.0,571.0,1978.0,703.0,2273.0,3224.0,375.0,,,,-0.441760821343295,-2.81803629502658,-0.981668394358977,,-3.197718455552756,,
,2269.0,574.0,1980.0,703.0,2277.0,3216.0,388.0,,,,-0.441619026853695,-2.81834474364875,-0.982009692595702,,-2.4019178141186073,,
,2270.0,574.0,1983.0,706.0,2269.0,3229.0,373.0,,,,-0.441911350019007,-2.81812695899189,-0.981813802264693,,-1.5446523102490786,,
,2269.0,575.0,1979.0,702.0,2285.0,3227.0,373.0,,,,-0.441923550100632,-2.81816064824265,-0.982718652191502,,-0.6374432805538168,,
,2271.0,574.0,1978.0,702.0,2259.0,3227.0,392.0,,,,-0.441958021094607,-2.81812222952976,-0.982731905261405,,0.30722584400147424,,
,2271.0,574.0,1981.0,705.0,2284.0,3224.0,378.0,,,,-0.442187505923348,-2.81828368093297,-0.98402508602614,,1.2760841584173268,,
,2272.0,576.0,1982.0,703.0,2267.0,3214.0,397.0,,,,-0.442546952410682,-2.81830286093904,-0.983993397637577,,2.2551166666985476,,
2025-07-04 00:21:08,2274.0,575.0,1983.0,704.0,2259.0,3215.0,393.0,,,2025/07/04 12:21:08 AM,-0.442587746477722,-2.81839488560138,-0.984410057563038,,3.22950072491017,,
