TimeLabel,MEAS1_PPG1,MEAS1_PPG2,MEAS1_PPG3,MEAS1_PPG4,ACCX,ACCY,ACCZ,HR_timestamp,HR_value,radar_timestamp,phase_rx0,phase_rx1,phase_rx2,timestep,n_process,original_rate,calculated_rate
2025-07-17 17:20:59,8641.0,1592.0,5752.0,1929.0,2214.0,2997.0,1436.0,2025-07-17 17:21:04,98.0,2025/07/17 05:20:59 PM,0.040114798722618,-1.96631060954871,0.0892770402067468,2025/07/17 05:20:59 PM,2.1601917907217025,18.894332885742188,19.79057695808518
,8640.0,1590.0,5752.0,1927.0,2226.0,2996.0,1428.0,2025-07-17 17:21:05,97.0,,0.0401252268532801,-1.96616161239831,0.0892864995719077,2025/07/17 05:21:09 PM,1.9033769839523995,19.327129364013672,18.0347885265918
,8642.0,1591.0,5752.0,1930.0,2222.0,2990.0,1427.0,2025-07-17 17:21:06,97.0,,0.0401649431028801,-1.96662576375603,0.0892965144001818,2025/07/17 05:21:19 PM,1.6322487188892059,19.41049575805664,19.968931968277904
,8644.0,1592.0,5753.0,1931.0,2233.0,3011.0,1436.0,2025-07-17 17:21:07,97.0,,0.0401488628500975,-1.96624156168187,0.0892796797342203,2025/07/17 05:21:29 PM,1.3531794387130043,19.04090118408203,17.457328740910828
,8643.0,1592.0,5752.0,1930.0,2229.0,3010.0,1441.0,2025-07-17 17:21:08,97.0,,0.0402153322728166,-1.96610880236239,0.0893020570430462,2025/07/17 05:21:39 PM,1.0721301237537595,18.575851440429688,16.817902893852263
,8643.0,1590.0,5752.0,1929.0,2233.0,2998.0,1423.0,2025-07-17 17:21:09,98.0,,0.0401250643690381,-1.96589696222234,0.0893059604629862,2025/07/17 05:21:49 PM,0.7945294778494846,17.764619827270508,18.97913920613748
,8644.0,1591.0,5755.0,1930.0,2235.0,3010.0,1447.0,2025-07-17 17:21:10,99.0,,0.0401138295970673,-1.96575702614132,0.0892748684789957,2025/07/17 05:21:59 PM,0.5251627909946227,17.454545974731445,20.50960735171262
,8647.0,1591.0,5757.0,1930.0,2222.0,3013.0,1438.0,2025-07-17 17:21:11,100.0,,0.0401441108616705,-1.9657970755561,0.0893347497651298,2025/07/17 05:22:09 PM,0.2680675874773177,18.646408081054688,19.48127392017496
,8650.0,1593.0,5754.0,1932.0,2199.0,3007.0,1429.0,2025-07-17 17:21:12,100.0,,0.0401370969667086,-1.96513421207692,0.0893272070650043,2025/07/17 05:22:19 PM,0.02644080355247565,19.607843399047848,17.271062271062274
,8653.0,1593.0,5757.0,1931.0,2204.0,2998.0,1421.0,2025-07-17 17:21:13,100.0,,0.0401824011426382,-1.96537664163491,0.089311258143433,2025/07/17 05:22:29 PM,-0.19743208545674812,18.9739990234375,16.894257703081237
,8651.0,1593.0,5756.0,1931.0,2216.0,2997.0,1446.0,2025-07-17 17:21:14,99.0,,0.0401688561175334,-1.96552795756867,0.0893124980714454,2025/07/17 05:22:39 PM,-0.40221328460532874,14.610389709472656,17.27353727353727
,8655.0,1592.0,5759.0,1933.0,2216.0,2990.0,1437.0,2025-07-17 17:21:15,98.0,,0.0402114901638038,-1.96530808562252,0.0892661216743325,2025/07/17 05:22:49 PM,-0.5875028566203072,16.45768165588379,18.66346383385057
,8654.0,1595.0,5760.0,1937.0,2206.0,3004.0,1434.0,2025-07-17 17:21:16,98.0,,0.0402433436557082,-1.96555889726058,0.0892566366142723,2025/07/17 05:22:59 PM,-0.7537758858582908,17.897090911865234,21.247404003358238
,8657.0,1593.0,5762.0,1935.0,2206.0,3007.0,1451.0,2025-07-17 17:21:17,97.0,,0.0401787355258074,-1.96559690308106,0.0893476088984869,2025/07/17 05:23:09 PM,-0.9022662902988924,18.841590881347656,20.725409184808473
,8657.0,1593.0,5760.0,1934.0,2207.0,3000.0,1456.0,2025-07-17 17:21:18,98.0,,0.0402767102666462,-1.96525708313408,0.0893078691906562,2025/07/17 05:23:19 PM,-1.0348044324514984,20.119224548339844,17.633802816901436
,8659.0,1594.0,5763.0,1934.0,2215.0,3004.0,1464.0,2025-07-17 17:21:19,98.0,,0.0401599639355687,-1.96515951063995,0.0892700744877315,2025/07/17 05:23:29 PM,-1.153622378867644,20.10424423217773,17.871778775733556
,8661.0,1597.0,5767.0,1937.0,2217.0,3003.0,1435.0,2025-07-17 17:21:20,98.0,,0.0401385853322703,-1.96546876298499,0.0892380864830266,2025/07/17 05:23:39 PM,-1.2611451885160712,18.4049072265625,19.79553403282218
,8666.0,1596.0,5767.0,1937.0,2213.0,3002.0,1433.0,2025-07-17 17:21:21,99.0,,0.0401530499015935,-1.96555866415196,0.0893193436225432,2025/07/17 05:23:49 PM,-1.3597881600406405,18.392370223999023,18.124098124098094
,8664.0,1594.0,5766.0,1938.0,2202.0,3003.0,1444.0,2025-07-17 17:21:22,99.0,,0.040105025729819,-1.96558258671646,0.0892654970281539,,-1.4517782152638712,,
,8668.0,1594.0,5770.0,1937.0,2209.0,3001.0,1432.0,2025-07-17 17:21:23,99.0,,0.0400959105833126,-1.96566526141714,0.0892857641884705,,-1.5390128399086285,,
,8673.0,1599.0,5772.0,1940.0,2224.0,3013.0,1416.0,2025-07-17 17:21:24,98.0,,0.0401175090003658,-1.96550863239045,0.0892960777009301,,-1.6229634435920546,,
,8675.0,1598.0,5772.0,1942.0,2223.0,3006.0,1410.0,2025-07-17 17:21:25,98.0,,0.040102319422823,-1.96550807374673,0.0893099557738976,,-1.704623425345373,,
,8676.0,1597.0,5771.0,1942.0,2215.0,3012.0,1423.0,2025-07-17 17:21:26,98.0,,0.0401297202079763,-1.96604943558518,0.0893170436422061,,-1.7844961018374526,,
,8675.0,1596.0,5773.0,1942.0,2207.0,2998.0,1445.0,2025-07-17 17:21:27,97.0,,0.0401232689058343,-1.96577291926294,0.0892871449294987,,-1.8626145786674904,,
,8683.0,1598.0,5778.0,1943.0,2220.0,2999.0,1432.0,2025-07-17 17:21:28,97.0,,0.0401260339653415,-1.96581803003069,0.0892758651961429,,-1.9385845617634303,,
,8684.0,1599.0,5778.0,1944.0,2224.0,3000.0,1426.0,2025-07-17 17:21:29,97.0,,0.0401775973538925,-1.96583496377374,0.0892782320784259,,-2.011641616526097,,
,8685.0,1598.0,5779.0,1944.0,2236.0,3005.0,1435.0,2025-07-17 17:21:30,98.0,,0.0401198839885883,-1.96561410037288,0.0893210363137411,,-2.080715863275849,,
,8686.0,1597.0,5779.0,1944.0,2226.0,3014.0,1433.0,2025-07-17 17:21:31,98.0,,0.0401275220349689,-1.96560667485395,0.0893134153023088,,-2.1444988406282257,,
,8690.0,1599.0,5783.0,1945.0,2226.0,3002.0,1414.0,2025-07-17 17:21:32,98.0,,0.0401057660792829,-1.96584390822585,0.0893147990391994,,-2.2015087060155225,,
,8692.0,1599.0,5783.0,1945.0,2209.0,3017.0,1395.0,2025-07-17 17:21:33,98.0,,0.0401716226018623,-1.96539365834664,0.0893113172523007,,-2.2501507626317077,,
,8697.0,1601.0,5787.0,1945.0,2201.0,3024.0,1425.0,2025-07-17 17:21:34,97.0,,0.0401309061903826,-1.96524418797266,0.0893233829527026,,-2.2887704464035497,,
,8693.0,1598.0,5787.0,1945.0,2212.0,3025.0,1424.0,2025-07-17 17:21:35,96.0,,0.0402550053544171,-1.96526149485476,0.089357717510726,,-2.315695650436657,,
,8692.0,1600.0,5788.0,1946.0,2228.0,3007.0,1439.0,2025-07-17 17:21:36,96.0,,0.0401334902461197,-1.96506081879235,0.0892884023175212,,-2.3292653402858217,,
,8696.0,1601.0,5787.0,1946.0,2199.0,3005.0,1460.0,2025-07-17 17:21:37,96.0,,0.0401506535929752,-1.96514645799413,0.0893071107798076,,-2.3278427838915254,,
,8694.0,1602.0,5787.0,1947.0,2206.0,3001.0,1462.0,2025-07-17 17:21:38,97.0,,0.0401972643986335,-1.96489906970323,0.0892843817978707,,-2.3098149047067262,,
,8686.0,1597.0,5782.0,1942.0,2213.0,2991.0,1443.0,2025-07-17 17:21:39,97.0,,0.0402509086920315,-1.96530239358056,0.0893268844708149,,-2.273583810571249,,
,8679.0,1596.0,5780.0,1940.0,2194.0,2993.0,1454.0,2025-07-17 17:21:40,98.0,,0.0402116561965531,-1.96525392147244,0.0892888890261,,-2.217561113123198,,
,8674.0,1597.0,5772.0,1938.0,2197.0,2986.0,1437.0,2025-07-17 17:21:41,98.0,,0.0402057127380228,-1.96498388723287,0.0893179177687316,,-2.1401785160385125,,
,8667.0,1595.0,5771.0,1938.0,2199.0,2991.0,1431.0,2025-07-17 17:21:42,98.0,,0.040158247116039,-1.96526821092625,0.0893165918938065,,-2.039927859412931,,
,8661.0,1594.0,5764.0,1936.0,2206.0,2988.0,1422.0,2025-07-17 17:21:43,98.0,,0.040210211445521,-1.96467257697466,0.0893430194409512,,-1.9154398519474338,,
,8656.0,1593.0,5760.0,1930.0,2211.0,2994.0,1433.0,2025-07-17 17:21:44,98.0,,0.0401730792565869,-1.9648425643954,0.0894059880890338,,-1.7656039189221742,,
,8648.0,1590.0,5757.0,1930.0,2210.0,3004.0,1433.0,2025-07-17 17:21:45,97.0,,0.0401678045762387,-1.96452677928451,0.0893343345548472,,-1.5897235972414634,,
,8643.0,1590.0,5754.0,1927.0,2218.0,2984.0,1437.0,2025-07-17 17:21:46,97.0,,0.0402777866095411,-1.96464829764641,0.0893240302535538,,-1.3876941164065384,,
,8637.0,1590.0,5748.0,1929.0,2227.0,2992.0,1435.0,2025-07-17 17:21:47,97.0,,0.040264356272481,-1.96483849983776,0.0893432886733557,,-1.1601819799689983,,
,8632.0,1586.0,5742.0,1923.0,2234.0,3007.0,1408.0,2025-07-17 17:21:48,98.0,,0.0401673572314554,-1.96536047266561,0.0892778773496343,,-0.9087814873640054,,
,8629.0,1586.0,5742.0,1925.0,2216.0,3004.0,1417.0,2025-07-17 17:21:49,98.0,,0.0401669463666412,-1.96528748382565,0.0892596728698644,,-0.6361219288185225,,
,8627.0,1586.0,5739.0,1926.0,2230.0,3012.0,1423.0,2025-07-17 17:21:50,99.0,,0.0400767512882274,-1.96584602710862,0.0892625331226941,,-0.345903019025142,,
,8623.0,1586.0,5739.0,1922.0,2236.0,3015.0,1417.0,2025-07-17 17:21:51,99.0,,0.0400408249864212,-1.96584745205666,0.0892829948304479,,-0.04284467637040893,,
,8622.0,1584.0,5736.0,1922.0,2224.0,3001.0,1406.0,2025-07-17 17:21:52,99.0,,0.0401041772409966,-1.96606107786143,0.0892763208696191,,0.2674514112264824,,
,8618.0,1587.0,5733.0,1922.0,2229.0,3010.0,1399.0,2025-07-17 17:21:53,98.0,,0.0400434811899774,-1.96628595242376,0.089199553944354,,0.5787192407314516,,
,8621.0,1585.0,5734.0,1922.0,2220.0,2999.0,1406.0,2025-07-17 17:21:54,97.0,,0.040000814533024,-1.96640793274574,0.0892168925262546,,0.88430567835663,,
,8621.0,1586.0,5734.0,1922.0,2219.0,3005.0,1426.0,2025-07-17 17:21:55,96.0,,0.0399138444583724,-1.96628656794891,0.0892242607936232,,1.1774811750658403,,
,8618.0,1587.0,5733.0,1920.0,2226.0,3011.0,1437.0,2025-07-17 17:21:56,96.0,,0.0398393959069211,-1.96689433612774,0.0891848583836568,,1.4517549577087618,,
,8620.0,1585.0,5734.0,1920.0,2226.0,3006.0,1456.0,2025-07-17 17:21:57,96.0,,0.0397251867276309,-1.96712697399902,0.0891580344092944,,1.7011669812811192,,
,8618.0,1586.0,5736.0,1924.0,2213.0,3002.0,1461.0,2025-07-17 17:21:58,97.0,,0.0397261310688936,-1.96759088511106,0.0891937371814202,,1.9205340047381527,,
,8623.0,1586.0,5737.0,1922.0,2210.0,3003.0,1470.0,2025-07-17 17:21:59,98.0,,0.0398030697618351,-1.96813068349946,0.0891233218639701,,2.1056350041825636,,
,8624.0,1586.0,5737.0,1923.0,2218.0,2994.0,1470.0,2025-07-17 17:22:00,99.0,,0.0396748233330027,-1.96856957446991,0.0891309102199867,,2.2533302950851906,,
,8622.0,1584.0,5737.0,1924.0,2207.0,2983.0,1450.0,2025-07-17 17:22:01,100.0,,0.0396312434103203,-1.96833351006094,0.08909895229887,,2.3616173048990623,,
,8627.0,1589.0,5740.0,1927.0,2200.0,2998.0,1441.0,2025-07-17 17:22:02,100.0,,0.0395744024554853,-1.96865775528751,0.0891103087517982,,2.4296321116933117,,
,8628.0,1586.0,5740.0,1925.0,2208.0,3005.0,1430.0,2025-07-17 17:22:03,101.0,,0.0397329344190705,-1.96907468314594,0.0891040598815181,,2.4576087119506327,,
,8628.0,1588.0,5742.0,1925.0,2206.0,3003.0,1430.0,2025-07-17 17:22:04,101.0,,0.0396306647052274,-1.96875367121181,0.0891327677024906,,2.4468077277490057,,
,8629.0,1586.0,5741.0,1922.0,2213.0,3020.0,1458.0,2025-07-17 17:22:05,101.0,,0.0397399773370361,-1.96887742054071,0.0890933638499512,,2.399423764603875,,
,8630.0,1584.0,5739.0,1926.0,2208.0,3005.0,1458.0,2025-07-17 17:22:06,101.0,,0.0395418131668934,-1.968848705729,0.0891553682502502,,2.318476803239372,,
,8631.0,1586.0,5743.0,1927.0,2202.0,2997.0,1475.0,2025-07-17 17:22:07,100.0,,0.0395664688032503,-1.96903568860172,0.0891204250415181,,2.2076888763295544,,
,8633.0,1589.0,5744.0,1927.0,2206.0,2989.0,1457.0,2025-07-17 17:22:08,101.0,,0.0395081963858292,-1.9692074007448,0.0891130068218802,,2.0713441587022605,,
,8630.0,1586.0,5747.0,1928.0,2208.0,3007.0,1454.0,2025-07-17 17:22:09,101.0,,0.0396019299071714,-1.96887514009812,0.0891073796268327,,1.9141297541028266,,
,8631.0,1589.0,5743.0,1925.0,2202.0,3009.0,1453.0,2025-07-17 17:22:10,101.0,,0.0394788524593119,-1.96956344603834,0.0890998153827617,,1.7409565194937993,,
,8632.0,1588.0,5745.0,1926.0,2184.0,3007.0,1431.0,2025-07-17 17:22:11,101.0,,0.0394473859976935,-1.96942140339955,0.0891198024450282,,1.5567639284060966,,
,8632.0,1587.0,5745.0,1928.0,2183.0,3007.0,1420.0,2025-07-17 17:22:12,100.0,,0.0394638350391537,-1.96906079744474,0.0891014517799718,,1.366319016175979,,
,8631.0,1591.0,5743.0,1926.0,2190.0,2984.0,1457.0,2025-07-17 17:22:13,100.0,,0.0395419839901199,-1.96940799013508,0.0890755984010356,,1.1740248971578344,,
,8628.0,1585.0,5740.0,1924.0,2197.0,3002.0,1468.0,2025-07-17 17:22:14,99.0,,0.0395218698159742,-1.9691220358804,0.0890776319674856,,0.9837570971936901,,
,8628.0,1587.0,5741.0,1926.0,2191.0,2993.0,1457.0,2025-07-17 17:22:15,98.0,,0.0395623930822221,-1.96928357442835,0.0891086788098172,,0.7987447627111152,,
,8628.0,1587.0,5741.0,1924.0,2205.0,3000.0,1457.0,2025-07-17 17:22:16,98.0,,0.039493618443218,-1.96885124227877,0.0891013906550703,,0.6215087813460367,,
,8625.0,1589.0,5737.0,1924.0,2212.0,3000.0,1457.0,2025-07-17 17:22:17,97.0,,0.0393318504221765,-1.96901203353824,0.0890923024333264,,0.4538610261399189,,
,8625.0,1588.0,5741.0,1926.0,2237.0,2994.0,1442.0,2025-07-17 17:22:18,97.0,,0.0394442125288777,-1.96925241380529,0.0890903270058957,,0.29695983053523983,,
,8624.0,1586.0,5738.0,1925.0,2220.0,2998.0,1437.0,2025-07-17 17:22:19,97.0,,0.0395628743276581,-1.96891380244407,0.0891265567327605,,0.15140824232481392,,
,8628.0,1588.0,5738.0,1923.0,2223.0,3010.0,1442.0,2025-07-17 17:22:20,97.0,,0.0395740666925172,-1.96937481329811,0.0891016461757367,,0.017375494779066823,,
,8628.0,1586.0,5738.0,1926.0,2224.0,3013.0,1431.0,2025-07-17 17:22:21,97.0,,0.0395659456258578,-1.96938215157337,0.089131954812238,,-0.10528010727876352,,
,8627.0,1585.0,5739.0,1925.0,2216.0,3004.0,1453.0,2025-07-17 17:22:22,97.0,,0.039558488952651,-1.96927691207724,0.0891079868056214,,-0.21690656844388376,,
,8626.0,1586.0,5738.0,1926.0,2201.0,3005.0,1438.0,2025-07-17 17:22:23,96.0,,0.0396006805983398,-1.96882222941742,0.0891124813284268,,-0.317985523762994,,
,8630.0,1588.0,5743.0,1926.0,2199.0,3016.0,1434.0,2025-07-17 17:22:24,96.0,,0.0394031965935922,-1.96856797628419,0.0891088314025646,,-0.40909657810107924,,
,8630.0,1589.0,5740.0,1926.0,2210.0,3017.0,1432.0,2025-07-17 17:22:25,95.0,,0.039545345802423,-1.96879327620305,0.0891426264558813,,-0.4909145711050565,,
,8633.0,1589.0,5740.0,1928.0,2212.0,2999.0,1434.0,2025-07-17 17:22:26,96.0,,0.0395418742589551,-1.96870359876918,0.0891126097897961,,-0.5642282073608862,,
,8633.0,1586.0,5743.0,1927.0,2200.0,3010.0,1437.0,2025-07-17 17:22:27,96.0,,0.0395587778749454,-1.96855443101745,0.0891156387833348,,-0.629964400804449,,
,8636.0,1590.0,5744.0,1928.0,2204.0,3013.0,1438.0,2025-07-17 17:22:28,97.0,,0.0396997718606943,-1.96848860332804,0.0891217444675948,,-0.6892024008116409,,
,8638.0,1589.0,5746.0,1930.0,2229.0,2998.0,1454.0,2025-07-17 17:22:29,97.0,,0.0396390993574877,-1.96832516681539,0.0891267495932098,,-0.7431646943864607,,
,8642.0,1590.0,5744.0,1929.0,2213.0,3005.0,1461.0,2025-07-17 17:22:30,98.0,,0.0397236329553583,-1.96865124629139,0.0891156683236589,,-0.7931767923902355,,
,8637.0,1589.0,5746.0,1928.0,2218.0,3009.0,1462.0,2025-07-17 17:22:31,99.0,,0.0396429489734616,-1.96886891372666,0.0891119127181137,,-0.8405941731837305,,
,8645.0,1589.0,5751.0,1931.0,2209.0,3003.0,1425.0,2025-07-17 17:22:32,99.0,,0.0396456759341434,-1.96877206830208,0.0891217138526549,,-0.886700728020754,,
,8647.0,1588.0,5751.0,1930.0,2207.0,3001.0,1426.0,2025-07-17 17:22:33,100.0,,0.0396967417543942,-1.96837810067982,0.0891146237216685,,-0.9325880775709594,,
,8650.0,1591.0,5754.0,1933.0,2203.0,2998.0,1439.0,2025-07-17 17:22:34,99.0,,0.0396487543629702,-1.96844657895446,0.0890751452246837,,-0.9790284859201356,,
,8650.0,1587.0,5752.0,1930.0,2227.0,2992.0,1463.0,2025-07-17 17:22:35,99.0,,0.0396827901631826,-1.96859013639512,0.0891397483794232,,-1.026355398541357,,
,8654.0,1589.0,5755.0,1935.0,2225.0,2979.0,1460.0,2025-07-17 17:22:36,98.0,,0.0395831630119876,-1.96849638236406,0.0891009402861554,,-1.0743646854528064,,
,8657.0,1590.0,5756.0,1931.0,2235.0,3006.0,1452.0,2025-07-17 17:22:37,98.0,,0.0396574527804674,-1.96843882979308,0.089119443310224,,-1.1222467468465478,,
,8658.0,1591.0,5761.0,1935.0,2229.0,3016.0,1436.0,2025-07-17 17:22:38,98.0,,0.039624834337941,-1.96874901661015,0.0891010209185374,,-1.1685556668398922,,
,8658.0,1594.0,5759.0,1933.0,2234.0,3017.0,1446.0,2025-07-17 17:22:39,99.0,,0.039679733029795,-1.96869922218797,0.0891138354229953,,-1.2112178559072444,,
,8662.0,1590.0,5761.0,1935.0,2221.0,3015.0,1433.0,2025-07-17 17:22:40,100.0,,0.0396004489183035,-1.96867908529535,0.0891041162953639,,-1.2475800437003066,,
,8667.0,1594.0,5765.0,1937.0,2215.0,3003.0,1445.0,2025-07-17 17:22:41,100.0,,0.0395984520047893,-1.96884448308511,0.0890949152891844,,-1.2744953078407915,,
,8667.0,1593.0,5766.0,1938.0,2210.0,3005.0,1454.0,2025-07-17 17:22:42,102.0,,0.0395434906927236,-1.96883227947383,0.0891093332715093,,-1.288445691516016,,
,8671.0,1592.0,5768.0,1938.0,2225.0,2998.0,1483.0,2025-07-17 17:22:43,102.0,,0.0394487167073201,-1.96869510412032,0.0890696511451951,,-1.285700129667728,,
,8672.0,1592.0,5768.0,1939.0,2206.0,2993.0,1468.0,2025-07-17 17:22:44,103.0,,0.0395303922700954,-1.96878352262493,0.0890898392131925,,-1.262505965718775,,
,8677.0,1595.0,5767.0,1940.0,2203.0,2990.0,1474.0,2025-07-17 17:22:45,103.0,,0.0395153293220611,-1.96858872306659,0.0890947436355042,,-1.2153106042824877,,
,8678.0,1596.0,5771.0,1943.0,2220.0,3000.0,1475.0,2025-07-17 17:22:46,103.0,,0.0395160865684977,-1.96924757153663,0.0891045670447597,,-1.1410066481226855,,
,8680.0,1595.0,5776.0,1942.0,2229.0,3012.0,1465.0,2025-07-17 17:22:47,102.0,,0.0395741356288042,-1.96882560281569,0.0891136948386205,,-1.0371895564773652,,
,8683.0,1594.0,5776.0,1941.0,2232.0,3008.0,1454.0,2025-07-17 17:22:48,102.0,,0.039532064632794,-1.96897505989836,0.0891204919307307,,-0.902412026827427,,
,8684.0,1595.0,5778.0,1941.0,2226.0,3000.0,1465.0,2025-07-17 17:22:49,102.0,,0.0396981435270807,-1.96895208520561,0.0890884148797709,,-0.7364146491763213,,
,8689.0,1596.0,5781.0,1943.0,2219.0,3014.0,1456.0,2025-07-17 17:22:50,103.0,,0.0396395446609408,-1.96905302307387,0.0891303256929576,,-0.5403089351043555,,
,8687.0,1596.0,5778.0,1945.0,2218.0,3019.0,1457.0,2025-07-17 17:22:51,103.0,,0.039599942373826,-1.96897628711495,0.0891021148058428,,-0.31668808076713406,,
,8686.0,1595.0,5780.0,1941.0,2234.0,3009.0,1484.0,2025-07-17 17:22:52,103.0,,0.0396527319981333,-1.96910892817979,0.0891454388483296,,-0.069644225859668,,
,8687.0,1594.0,5778.0,1939.0,2209.0,3003.0,1460.0,2025-07-17 17:22:53,103.0,,0.0396048372873885,-1.96883290285429,0.0891418574189291,,0.1953211293923862,,
,8684.0,1597.0,5777.0,1943.0,2210.0,3008.0,1476.0,2025-07-17 17:22:54,103.0,,0.0396337199119438,-1.96885358592386,0.0891106543154179,,0.4714956952794921,,
,8675.0,1593.0,5773.0,1939.0,2207.0,3005.0,1470.0,2025-07-17 17:22:55,103.0,,0.0395435805367899,-1.96857231684089,0.0891454756695098,,0.7512537849017497,,
,8667.0,1592.0,5767.0,1936.0,2177.0,3003.0,1457.0,2025-07-17 17:22:56,103.0,,0.0397134620617053,-1.9686684860882,0.0891228590631073,,1.0264311324205808,,
,8662.0,1590.0,5762.0,1932.0,2173.0,2998.0,1463.0,2025-07-17 17:22:57,103.0,,0.0396309237830899,-1.96881536717649,0.0891490900854252,,1.2887472762333914,,
,8655.0,1590.0,5758.0,1932.0,2171.0,2993.0,1469.0,2025-07-17 17:22:58,102.0,,0.0396324723425651,-1.96878845449877,0.0891503535663353,,1.5302409009715385,,
,8651.0,1589.0,5755.0,1927.0,2182.0,3006.0,1463.0,2025-07-17 17:22:59,102.0,,0.0397215087213676,-1.96875278544508,0.0891273361714087,,1.7436827840028533,,
,8645.0,1587.0,5750.0,1928.0,2175.0,3009.0,1467.0,2025-07-17 17:23:00,101.0,,0.0396145133438831,-1.96820434021099,0.0891349626434199,,1.9229340594478233,,
,8637.0,1585.0,5745.0,1921.0,2190.0,3003.0,1448.0,2025-07-17 17:23:01,101.0,,0.0396126723651951,-1.968393908969,0.0891257854240097,,2.0632239543179054,,
,8632.0,1585.0,5739.0,1923.0,2201.0,2991.0,1460.0,2025-07-17 17:23:02,101.0,,0.0396981748399114,-1.9685912444505,0.0891312669286183,,2.16133023866568,,
,8631.0,1584.0,5739.0,1919.0,2209.0,2985.0,1468.0,2025-07-17 17:23:03,101.0,,0.0396432873825209,-1.96880090223429,0.0891249559676478,,2.2156561750110058,,
,8627.0,1583.0,5734.0,1920.0,2198.0,2996.0,1449.0,2025-07-17 17:23:04,101.0,,0.0395832454704967,-1.96913317934439,0.0891016926328068,,2.226208112233111,,
,8618.0,1583.0,5730.0,1918.0,2222.0,2997.0,1452.0,2025-07-17 17:23:05,100.0,,0.0395551085886334,-1.96925987794513,0.0890973967571605,,2.1944864399218575,,
,8616.0,1583.0,5728.0,1918.0,2220.0,2996.0,1438.0,2025-07-17 17:23:06,99.0,,0.0394877066286856,-1.96991440610135,0.0890593696042761,,2.1233084474987276,,
,8613.0,1584.0,5729.0,1918.0,2226.0,2993.0,1433.0,2025-07-17 17:23:07,98.0,,0.039500319323434,-1.96982500751871,0.0890880217513747,,2.0165844341009986,,
,8616.0,1583.0,5732.0,1921.0,2239.0,2993.0,1431.0,2025-07-17 17:23:08,98.0,,0.0393441962090297,-1.9705746662155,0.0890434139510145,,1.8790681211143192,,
,8612.0,1579.0,5727.0,1915.0,2244.0,3002.0,1437.0,2025-07-17 17:23:09,98.0,,0.039351780324731,-1.97035905966212,0.0890690409040335,,1.7160991926533062,,
,8611.0,1581.0,5724.0,1917.0,2243.0,2997.0,1430.0,2025-07-17 17:23:10,98.0,,0.0394368441449651,-1.97039087075127,0.0890682730425415,,1.5333505816047068,,
,8611.0,1581.0,5723.0,1914.0,2226.0,2999.0,1394.0,2025-07-17 17:23:11,98.0,,0.0393672383374047,-1.97091906521078,0.0890516967972642,,1.3365877413743994,,
2025-07-17 17:21:00,8612.0,1581.0,5727.0,1917.0,2213.0,3008.0,1392.0,2025-07-17 17:23:12,98.0,2025/07/17 05:21:00 PM,0.039352579844729,-1.97135945415237,0.0890146653802847,,1.131443467664483,,
,8611.0,1580.0,5726.0,1916.0,2230.0,3014.0,1448.0,2025-07-17 17:23:13,98.0,,0.0394006248911144,-1.97126719905639,0.0890232672392077,,0.923210904629707,,
,8610.0,1578.0,5725.0,1916.0,2202.0,3016.0,1462.0,2025-07-17 17:23:14,98.0,,0.0393544437402518,-1.97169152870751,0.0890105576909571,,0.7166590552452807,,
,8615.0,1581.0,5725.0,1916.0,2210.0,3003.0,1468.0,2025-07-17 17:23:15,98.0,,0.0392818060923875,-1.97154594428591,0.0890335264591565,,0.5158781617485368,,
,8614.0,1582.0,5727.0,1920.0,2231.0,2998.0,1445.0,2025-07-17 17:23:16,98.0,,0.0392763489717964,-1.97232645565374,0.0890263410784597,,0.32416472261577695,,
,8614.0,1584.0,5728.0,1920.0,2231.0,3005.0,1458.0,2025-07-17 17:23:17,98.0,,0.0391990985152264,-1.97181659777683,0.0889952648096249,,0.14395581222825007,,
,8618.0,1581.0,5729.0,1917.0,2210.0,2988.0,1444.0,2025-07-17 17:23:18,97.0,,0.0392574505960956,-1.97178091035937,0.0889803665646433,,-0.02318093056182636,,
,8620.0,1582.0,5730.0,1918.0,2221.0,2995.0,1448.0,2025-07-17 17:23:19,97.0,,0.0392821966534253,-1.97204386771728,0.0889635106886773,,-0.17650111531593035,,
,8619.0,1583.0,5732.0,1920.0,2199.0,3000.0,1460.0,2025-07-17 17:23:20,96.0,,0.039216666394228,-1.97195178838077,0.088999655514006,,-0.3159876428184404,,
,8624.0,1584.0,5734.0,1922.0,2196.0,2997.0,1455.0,2025-07-17 17:23:21,96.0,,0.0392033467453385,-1.97161909690336,0.0890217458851365,,-0.4422178990419902,,
,8623.0,1583.0,5732.0,1921.0,2180.0,2986.0,1470.0,2025-07-17 17:23:22,96.0,,0.0391795408070166,-1.97213778702003,0.0889727359492118,,-0.5562115617494104,,
,8623.0,1582.0,5733.0,1921.0,2200.0,2987.0,1458.0,2025-07-17 17:23:23,96.0,,0.0393275264975363,-1.97177770611322,0.0890052096861509,,-0.6592780004586315,,
,8628.0,1585.0,5735.0,1922.0,2205.0,2992.0,1476.0,2025-07-17 17:23:24,96.0,,0.0391282523055757,-1.97208644087292,0.0889960283902661,,-0.7528804195184254,,
,8627.0,1582.0,5734.0,1923.0,2202.0,2996.0,1474.0,2025-07-17 17:23:25,96.0,,0.0391423984120231,-1.97182823754678,0.0889814146299062,,-0.8385290936685281,,
,8625.0,1584.0,5737.0,1922.0,2202.0,3010.0,1497.0,2025-07-17 17:23:26,96.0,,0.0391830017864072,-1.97155807764338,0.0889871157215736,,-0.9177090942142325,,
,8622.0,1584.0,5735.0,1921.0,2211.0,3000.0,1486.0,2025-07-17 17:23:27,96.0,,0.0391268829140412,-1.97112195297552,0.0890095090710762,,-0.991839942652481,,
,8624.0,1584.0,5736.0,1922.0,2208.0,3001.0,1479.0,2025-07-17 17:23:28,97.0,,0.0391360294627141,-1.97149972993644,0.0889929559035717,,-1.0622571642274259,,
,8624.0,1583.0,5733.0,1921.0,2198.0,3007.0,1498.0,2025-07-17 17:23:29,97.0,,0.0391608080927852,-1.97167928275791,0.0889869220551984,,-1.13020043146708,,
,8624.0,1582.0,5733.0,1922.0,2200.0,3003.0,1493.0,2025-07-17 17:23:30,98.0,,0.0392014435056268,-1.97141796291041,0.0890127641943902,,-1.1967912201398083,,
,8621.0,1581.0,5731.0,1919.0,2207.0,2991.0,1465.0,2025-07-17 17:23:31,99.0,,0.0392264202507942,-1.97160435556064,0.0890072476766593,,-1.2629851943753423,,
,8623.0,1582.0,5732.0,1921.0,2211.0,3009.0,1462.0,2025-07-17 17:23:32,99.0,,0.0392519720666952,-1.97152735415482,0.0889706389033691,,-1.3294906550198524,,
,8621.0,1582.0,5732.0,1920.0,2221.0,2993.0,1454.0,2025-07-17 17:23:33,99.0,,0.0392906167251739,-1.97169945582862,0.0890098085384153,,-1.3966534424264394,,
,8622.0,1583.0,5733.0,1920.0,2225.0,2979.0,1455.0,2025-07-17 17:23:34,99.0,,0.039238555400865,-1.97170413333805,0.0890161646548116,,-1.4643190942384177,,
,8620.0,1582.0,5728.0,1919.0,2233.0,2997.0,1439.0,2025-07-17 17:23:35,99.0,,0.0392598230400475,-1.97139922664194,0.089003764478902,,-1.5316925413723654,,
,8623.0,1580.0,5730.0,1921.0,2225.0,2991.0,1444.0,2025-07-17 17:23:36,100.0,,0.0392352778705156,-1.97192469250046,0.0890171341253988,,-1.5972217295157718,,
,8624.0,1585.0,5733.0,1921.0,2216.0,2997.0,1444.0,2025-07-17 17:23:37,100.0,,0.0391775547995352,-1.97191958907458,0.0889909357318569,,-1.6585324961987478,,
,8621.0,1582.0,5730.0,1921.0,2221.0,2998.0,1464.0,2025-07-17 17:23:38,101.0,,0.0391821975474437,-1.97133340573678,0.0890184875412277,,-1.7124372852097598,,
,8626.0,1581.0,5731.0,1923.0,2219.0,2995.0,1452.0,2025-07-17 17:23:39,102.0,,0.0392435943322977,-1.97153105249231,0.0889870834812187,,-1.7550306818593644,,
,8626.0,1581.0,5734.0,1919.0,2201.0,3006.0,1452.0,2025-07-17 17:23:40,102.0,,0.0391861731795878,-1.97149376371307,0.0890513657199936,,-1.7818723362240134,,
,8630.0,1583.0,5735.0,1921.0,2199.0,3006.0,1460.0,2025-07-17 17:23:41,102.0,,0.0391331836990138,-1.97165501810657,0.0890345382172207,,-1.788245328480693,,
,8632.0,1583.0,5736.0,1923.0,2213.0,2998.0,1465.0,2025-07-17 17:23:42,101.0,,0.0391680410674282,-1.97209352455401,0.0889962345459926,,-1.769467971465661,,
,8632.0,1581.0,5735.0,1922.0,2199.0,2997.0,1463.0,2025-07-17 17:23:43,100.0,,0.0391797091104531,-1.97126261981096,0.0889987544059924,,-1.7212310532823292,,
,8630.0,1583.0,5735.0,1921.0,2199.0,2995.0,1480.0,2025-07-17 17:23:44,100.0,,0.0392377422876018,-1.97149870132027,0.0890050191537622,,-1.6399310512741867,,
,8634.0,1583.0,5740.0,1923.0,2211.0,3005.0,1474.0,2025-07-17 17:23:45,100.0,,0.0391634080154706,-1.97168522376292,0.0890426351087724,,-1.5229723664594443,,
,8637.0,1584.0,5741.0,1926.0,2200.0,3014.0,1464.0,2025-07-17 17:23:46,100.0,,0.0391578855166129,-1.97150034554553,0.089028035889911,,-1.3690169040589844,,
,8638.0,1585.0,5742.0,1925.0,2207.0,3016.0,1443.0,2025-07-17 17:23:47,100.0,,0.0392272766264024,-1.97145347045142,0.0890187925582006,,-1.178165874967264,,
,8643.0,1584.0,5743.0,1926.0,2211.0,3009.0,1441.0,2025-07-17 17:23:48,100.0,,0.0392460752954834,-1.97147715924713,0.0890135424704618,,-0.9520652854793795,,
,8642.0,1586.0,5744.0,1926.0,2201.0,3002.0,1444.0,2025-07-17 17:23:49,101.0,,0.0392649757324476,-1.9712621064349,0.0890056396248419,,-0.6939324199044743,,
,8649.0,1586.0,5745.0,1929.0,2208.0,3000.0,1464.0,2025-07-17 17:23:50,101.0,,0.0393225267438639,-1.97123143678655,0.0890063298179239,,-0.4085050962851559,,
,8651.0,1587.0,5749.0,1930.0,2217.0,3007.0,1448.0,2025-07-17 17:23:51,101.0,,0.0392916517961943,-1.97145723758765,0.089021410852134,,-0.10191809135986096,,
,8651.0,1588.0,5749.0,1928.0,2213.0,2989.0,1433.0,2025-07-17 17:23:52,101.0,,0.0392980697235838,-1.9715034552398,0.0890266157077314,,0.21848805307557206,,
,8654.0,1586.0,5747.0,1930.0,2245.0,2979.0,1446.0,2025-07-17 17:23:53,101.0,,0.0392717671392386,-1.97142789013353,0.0889950825076905,,0.5444206293027902,,
,8659.0,1588.0,5755.0,1930.0,2252.0,2991.0,1432.0,2025-07-17 17:23:54,101.0,,0.0393723537524566,-1.97095134995437,0.0890328970222704,,0.8669449170315146,,
,8658.0,1589.0,5755.0,1931.0,2245.0,2990.0,1436.0,2025-07-17 17:23:55,101.0,,0.0392839532579587,-1.97083515689163,0.0889972787379649,,1.1768427204368541,,
,8662.0,1588.0,5755.0,1932.0,2254.0,2995.0,1441.0,2025-07-17 17:23:56,101.0,,0.0392382747174211,-1.9709387418439,0.0890208195498467,,1.465006881402183,,
,8662.0,1589.0,5754.0,1931.0,2251.0,2996.0,1455.0,2025-07-17 17:23:57,100.0,,0.0392415378692733,-1.97063260307856,0.0890183796502046,,1.7228536950699604,,
,8666.0,1587.0,5756.0,1932.0,2261.0,2998.0,1423.0,2025-07-17 17:23:58,100.0,,0.0393414124096326,-1.97040736841623,0.0890158979944994,,1.9427292011122155,,
,8671.0,1589.0,5759.0,1935.0,2253.0,2980.0,1433.0,2025-07-17 17:23:59,100.0,,0.0393820655112196,-1.97038689751691,0.0890382283465948,,2.11828076122338,,
,8673.0,1589.0,5763.0,1936.0,2248.0,2980.0,1433.0,2025-07-17 17:24:00,100.0,,0.0393992356067488,-1.96999845852928,0.089038170718305,,2.2447639044995165,,
,8672.0,1589.0,5762.0,1934.0,2233.0,2993.0,1444.0,2025-07-17 17:24:01,100.0,,0.0393996027489401,-1.9702623235733,0.0890343136851308,,2.3192573537773127,,
,8677.0,1593.0,5765.0,1936.0,2208.0,2989.0,1436.0,2025-07-17 17:24:02,99.0,,0.0394308376709825,-1.97010353392179,0.0890615565238527,,2.3407667863298394,,
,8679.0,1591.0,5767.0,1936.0,2213.0,2981.0,1448.0,2025-07-17 17:24:03,99.0,,0.0394642134726771,-1.96982696160755,0.0890332932025647,,2.3102094744890866,,
,8683.0,1592.0,5769.0,1937.0,2206.0,2978.0,1437.0,,,,0.0394452010092995,-1.97019133043782,0.0890400879628136,,2.2302854881314933,,
,8687.0,1592.0,5773.0,1939.0,2213.0,2980.0,1430.0,,,,0.0395008832409241,-1.9697047447929,0.0890664332624597,,2.1052537298025507,,
,8685.0,1591.0,5773.0,1937.0,2222.0,2984.0,1424.0,,,,0.0393727098001748,-1.96985003509798,0.0890259805237379,,1.9406399340760074,,
,8689.0,1590.0,5774.0,1937.0,2234.0,3004.0,1449.0,,,,0.0393735102281693,-1.96941729880395,0.0890441234058233,,1.7429071913692664,,
,8690.0,1592.0,5773.0,1940.0,2243.0,3007.0,1457.0,,,,0.0394442452637413,-1.96993642075736,0.0890278385069551,,1.519117344431405,,
,8684.0,1592.0,5771.0,1939.0,2233.0,3002.0,1458.0,,,,0.0394111085400698,-1.96975792115142,0.0890410818668379,,1.2766050540165943,,
,8679.0,1590.0,5766.0,1937.0,2223.0,2998.0,1449.0,,,,0.0392884265820457,-1.96973181440782,0.0890481046252995,,1.022677915479911,,
,8672.0,1589.0,5763.0,1933.0,2218.0,2984.0,1454.0,,,,0.0393728471213888,-1.96997711621971,0.0890569751799036,,0.7643485081514564,,
,8668.0,1588.0,5759.0,1932.0,2226.0,3000.0,1445.0,,,,0.0394089865114888,-1.96921582210342,0.0890721022101997,,0.5080996684534608,,
,8661.0,1587.0,5756.0,1931.0,2210.0,3004.0,1452.0,,,,0.0394273435606265,-1.97012604896138,0.0890473287737208,,0.25968323045691194,,
,8650.0,1583.0,5749.0,1927.0,2178.0,2988.0,1483.0,,,,0.0393453429441682,-1.96978994548271,0.0890660152599748,,0.023954307217667885,,
,8647.0,1585.0,5745.0,1923.0,2192.0,2995.0,1482.0,,,,0.0393816092177148,-1.97004871761005,0.089055579724553,,-0.19525377014491385,,
,8641.0,1583.0,5741.0,1923.0,2183.0,3004.0,1468.0,,,,0.0393739562155314,-1.96992791819083,0.0890374237557562,,-0.39520658044447937,,
,8632.0,1583.0,5734.0,1921.0,2183.0,3009.0,1467.0,,,,0.0393256502639618,-1.96985817801803,0.0890264072294771,,-0.5742908499177822,,
,8625.0,1579.0,5730.0,1918.0,2192.0,3007.0,1482.0,,,,0.0393924895768755,-1.97017613764743,0.0890144510901215,,-0.7319780040053868,,
,8617.0,1578.0,5728.0,1913.0,2203.0,2999.0,1459.0,,,,0.0393379776991861,-1.97023401905016,0.0890142764297006,,-0.8687305450682947,,
,8618.0,1577.0,5724.0,1915.0,2212.0,3006.0,1460.0,,,,0.0393482413144543,-1.97044621458246,0.089026962474242,,-0.9858589817558979,,
,8612.0,1578.0,5722.0,1914.0,2211.0,2998.0,1446.0,,,,0.0393926017308841,-1.97085743310294,0.088993849051019,,-1.0853426145327565,,
,8610.0,1575.0,5718.0,1912.0,2210.0,3010.0,1417.0,,,,0.0393537242620738,-1.97060475660046,0.08899455017288,,-1.1696308234881814,,
,8603.0,1574.0,5715.0,1912.0,2214.0,3003.0,1437.0,,,,0.0392962503286285,-1.97104178314292,0.0889695823534234,,-1.241441619687554,,
,8603.0,1576.0,5714.0,1913.0,2236.0,2993.0,1423.0,,,,0.0392557111325136,-1.97128772935127,0.0889834993132045,,-1.303571284304461,,
,8604.0,1576.0,5713.0,1914.0,2236.0,3010.0,1421.0,,,,0.03914993698847,-1.97135409907258,0.0889763871590557,,-1.3587240503409401,,
,8601.0,1575.0,5711.0,1912.0,2230.0,3012.0,1428.0,,,,0.0391744162696706,-1.97178279169532,0.0889537754417858,,-1.4093653767843968,,
,8600.0,1574.0,5710.0,1908.0,2214.0,3003.0,1400.0,,,,0.0391748534734679,-1.97197923277613,0.0889518146829444,,-1.4575976886338264,,
,8599.0,1574.0,5711.0,1910.0,2219.0,3012.0,1420.0,,,,0.0391343549736038,-1.97217930892811,0.0889393457251696,,-1.5050545617685473,,
,8601.0,1576.0,5712.0,1912.0,2204.0,3016.0,1442.0,,,,0.0390473352123093,-1.97246688905877,0.0889418982590107,,-1.5528089503590126,,
,8598.0,1573.0,5708.0,1911.0,2219.0,3019.0,1449.0,,,,0.0390313484780016,-1.97285693622807,0.0889134555786831,,-1.601293361031548,,
,8601.0,1576.0,5713.0,1913.0,2214.0,3005.0,1431.0,,,,0.0390838945360987,-1.97342953921406,0.0889184974450414,,-1.650234292427341,,
,8599.0,1573.0,5709.0,1912.0,2227.0,3010.0,1436.0,,,,0.0389771518612314,-1.97325062384217,0.0888520436454969,,-1.698608417415882,,
,8602.0,1576.0,5711.0,1914.0,2210.0,2999.0,1445.0,,,,0.0390011977540208,-1.97318614581817,0.088888954226784,,-1.74463205252891,,
,8604.0,1575.0,5712.0,1914.0,2210.0,2995.0,1435.0,,,,0.0390004652958157,-1.97328581571279,0.0889259631866254,,-1.785796814962183,,
,8603.0,1575.0,5710.0,1913.0,2233.0,2982.0,1435.0,,,,0.0390339785249726,-1.97333972012605,0.088885428708467,,-1.8189622428375494,,
,8602.0,1574.0,5713.0,1913.0,2225.0,2987.0,1442.0,,,,0.0390471016924535,-1.97378821527523,0.0889110703164457,,-1.8405107103824938,,
,8606.0,1576.0,5712.0,1915.0,2210.0,2995.0,1465.0,,,,0.0390170892174052,-1.97335213891302,0.088883254365626,,-1.8465619393750041,,
,8609.0,1574.0,5714.0,1916.0,2203.0,2978.0,1461.0,,,,0.0390610125260498,-1.97329086591316,0.0888881606093034,,-1.8332349344292767,,
,8610.0,1575.0,5717.0,1915.0,2215.0,2981.0,1463.0,,,,0.0391644720391351,-1.97291056217383,0.0888883498128383,,-1.7969359984824584,,
,8606.0,1573.0,5713.0,1912.0,2212.0,3010.0,1443.0,,,,0.0391568415239829,-1.97274254078855,0.0889163519359791,,-1.7346448397009429,,
,8605.0,1576.0,5711.0,1914.0,2216.0,3003.0,1468.0,,,,0.0391214283327953,-1.97275923403436,0.0889063673370017,,-1.6441685189587905,,
,8607.0,1575.0,5716.0,1915.0,2211.0,3005.0,1481.0,,,,0.0392234970589007,-1.97237241082549,0.0889266570711785,,-1.524335732453573,,
,8606.0,1577.0,5716.0,1914.0,2199.0,3000.0,1496.0,,,,0.0391598302494359,-1.97252021802462,0.0889320132313346,,-1.375110993328006,,
,8604.0,1573.0,5710.0,1917.0,2220.0,2992.0,1495.0,,,,0.0392322665817498,-1.97216081347309,0.0889233689092152,,-1.1976182767538746,,
,8602.0,1574.0,5715.0,1914.0,2216.0,2984.0,1473.0,,,,0.0391585002995742,-1.97192537462933,0.0889259612059322,,-0.9940751391138928,,
,8604.0,1575.0,5712.0,1914.0,2198.0,2988.0,1481.0,,,,0.0391251100247531,-1.97198578661257,0.0889184670426627,,-0.7676497838442279,,
,8604.0,1574.0,5712.0,1915.0,2197.0,2969.0,1481.0,,,,0.039084814033566,-1.97226291916959,0.0889195961536157,,-0.5222633527714192,,
,8601.0,1574.0,5709.0,1912.0,2194.0,2983.0,1472.0,,,,0.0390622402106429,-1.97199021801685,0.0889416277002017,,-0.2623658043278325,,
,8601.0,1574.0,5712.0,1914.0,2211.0,2986.0,1461.0,,,,0.0390885341023958,-1.97230208256376,0.0889450893626507,,0.007285810552009156,,
,8602.0,1573.0,5711.0,1914.0,2213.0,2980.0,1452.0,,,,0.0390513511476489,-1.97201244796125,0.0889658437699552,,0.2818236797356142,,
,8602.0,1574.0,5709.0,1914.0,2224.0,2979.0,1462.0,,,,0.0390432279708536,-1.97228222914066,0.0889323537520817,,0.5564277001099234,,
,8601.0,1572.0,5709.0,1911.0,2234.0,2986.0,1425.0,,,,0.0390669859382014,-1.97226109455421,0.0889196761417166,,0.8264453189495454,,
,8601.0,1574.0,5707.0,1912.0,2221.0,2980.0,1427.0,,,,0.0389601579618506,-1.97177005787379,0.0889672018834644,,1.0874809048055578,,
,8602.0,1574.0,5711.0,1916.0,2240.0,2991.0,1427.0,,,,0.0390122598053377,-1.97237939359109,0.0889499945046897,,1.335466508971512,,
,8601.0,1573.0,5711.0,1916.0,2238.0,3014.0,1441.0,,,,0.0391333227980999,-1.97214821417369,0.0889586954405699,,1.5667242290491332,,
,8603.0,1574.0,5711.0,1916.0,2233.0,3009.0,1443.0,,,,0.0390853952502203,-1.9721167929162,0.0889506176624485,,1.7780250958308876,,
,8603.0,1574.0,5709.0,1916.0,2217.0,3009.0,1446.0,,,,0.0391750492710428,-1.97233112077802,0.0889702564920748,,1.9666430626983844,,
,8606.0,1574.0,5713.0,1917.0,2207.0,3005.0,1428.0,,,,0.0391512089480432,-1.97181654138561,0.088950492961383,,2.1303978270101664,,
,8606.0,1573.0,5715.0,1917.0,2213.0,3014.0,1460.0,,,,0.0392498311242253,-1.97134399177076,0.0890161663341256,,2.267678523263215,,
,8607.0,1575.0,5714.0,1917.0,2220.0,3009.0,1447.0,,,,0.0391705623073267,-1.97166528609757,0.0889355371397217,,2.3774421126134246,,
,8610.0,1574.0,5716.0,1916.0,2202.0,3008.0,1467.0,,,,0.0392085396511293,-1.97179279603639,0.0890094746648726,,2.4591847315615274,,
,8610.0,1575.0,5714.0,1918.0,2198.0,2999.0,1474.0,,,,0.0391808314715924,-1.97165827816362,0.0889905741967635,,2.512889998976567,,
,8613.0,1579.0,5717.0,1921.0,2211.0,3004.0,1470.0,,,,0.0392078651342202,-1.97151921402933,0.0889490182091495,,2.53896372186506,,
,8617.0,1576.0,5719.0,1920.0,2209.0,3009.0,1463.0,,,,0.0391194855936672,-1.97149243284348,0.0889380374240358,,2.538167845795833,,
,8619.0,1578.0,5722.0,1923.0,2200.0,2984.0,1463.0,,,,0.0392100864305869,-1.97155884707248,0.088988340924916,,2.5115665720394564,,
,8620.0,1577.0,5722.0,1921.0,2210.0,2985.0,1457.0,,,,0.0391644599399264,-1.97089954799333,0.088992140341582,,2.4604942642775325,,
,8622.0,1578.0,5722.0,1922.0,2198.0,2992.0,1460.0,,,,0.0392147407206488,-1.97172159515788,0.0889612503679851,,2.3865491689787097,,
,8625.0,1578.0,5722.0,1923.0,2192.0,2995.0,1452.0,,,,0.0391864338874559,-1.97139778600557,0.0889737275068161,,2.291610327012754,,
,8627.0,1578.0,5726.0,1924.0,2193.0,3002.0,1448.0,,,,0.039202821526924,-1.97140907100939,0.0889521700310746,,2.177868337034349,,
,8631.0,1578.0,5726.0,1921.0,2193.0,2997.0,1440.0,,,,0.0391460283367788,-1.97184840047187,0.0889936038174079,,2.0478549352364124,,
,8630.0,1578.0,5729.0,1925.0,2204.0,3003.0,1412.0,,,,0.0391275121303678,-1.9717987795661,0.0889527329485009,,1.9044531473718125,,
,8635.0,1580.0,5732.0,1925.0,2218.0,3007.0,1425.0,,,,0.0390886999820299,-1.97209917513959,0.0889816517073059,,1.7508704229658152,,
,8638.0,1582.0,5730.0,1927.0,2199.0,3002.0,1431.0,,,,0.0390972353700192,-1.97222721335431,0.0889865787266938,,1.5905622344407435,,
,8638.0,1581.0,5733.0,1927.0,2222.0,2994.0,1453.0,,,,0.0390767254817241,-1.9720448257627,0.0889645249750077,,1.4271025148212295,,
,8639.0,1582.0,5732.0,1928.0,2231.0,2996.0,1455.0,,,,0.0391676083279479,-1.97204372826116,0.0889590223779499,,1.2640083721387996,,
,8644.0,1583.0,5741.0,1931.0,2222.0,3002.0,1459.0,,,,0.0392245063003264,-1.971748516929,0.0889665937764033,,1.1045373430839944,,
,8645.0,1582.0,5738.0,1929.0,2223.0,2998.0,1466.0,,,,0.0391783631979277,-1.97216037147671,0.0889617338546,,0.9514833576163919,,
,8649.0,1580.0,5740.0,1931.0,2221.0,2989.0,1469.0,,,,0.0392070593758949,-1.97194478498363,0.0889825821461564,,0.8070005542819971,,
,8653.0,1583.0,5742.0,1929.0,2218.0,2992.0,1477.0,,,,0.0392246887965046,-1.97186773512998,0.0889529123994688,,0.6724814903816535,,
2025-07-17 17:21:01,8654.0,1584.0,5741.0,1931.0,2231.0,2989.0,1492.0,,,2025/07/17 05:21:01 PM,0.039164558389889,-1.97140240452186,0.0889511947377258,,0.5485088015223225,,
,8655.0,1585.0,5746.0,1936.0,2232.0,2985.0,1451.0,,,,0.0391427817288389,-1.97140078361044,0.0889388415562049,,0.4348883725099814,,
,8661.0,1583.0,5749.0,1933.0,2231.0,2980.0,1442.0,,,,0.0391855547146291,-1.97176413869751,0.0889975430221063,,0.33075949032371227,,
,8659.0,1583.0,5747.0,1933.0,2226.0,2993.0,1452.0,,,,0.039137226739959,-1.97116302404577,0.0889757287420385,,0.2347656186528742,,
,8667.0,1585.0,5748.0,1935.0,2231.0,3003.0,1462.0,,,,0.0392557576971909,-1.97093825945743,0.089001656356128,,0.14526065571865654,,
,8665.0,1585.0,5749.0,1932.0,2233.0,3000.0,1433.0,,,,0.0392169922349476,-1.97095012433483,0.0889815728533509,,0.060521338208085244,,
,8665.0,1585.0,5750.0,1935.0,2239.0,2998.0,1441.0,,,,0.0392695186368127,-1.97101713000726,0.0889535662436384,,-0.02106265860126765,,
,8658.0,1584.0,5749.0,1930.0,2231.0,2997.0,1440.0,,,,0.0392113838170334,-1.97088862839837,0.0889862740417478,,-0.10084374254649213,,
,8657.0,1582.0,5746.0,1930.0,2232.0,2998.0,1448.0,,,,0.0392490697536038,-1.97089625224343,0.0889748175793443,,-0.1798300730408788,,
,8651.0,1582.0,5743.0,1929.0,2212.0,2997.0,1461.0,,,,0.0392983738000789,-1.97129065618135,0.0889857645376123,,-0.25866032845104425,,
,8644.0,1580.0,5738.0,1926.0,2202.0,3000.0,1464.0,,,,0.0392387945672165,-1.97057674246889,0.0889906214518316,,-0.33763159573072954,,
,8638.0,1580.0,5731.0,1924.0,2193.0,2996.0,1455.0,,,,0.0391929088188029,-1.97068612425275,0.0889925974551581,,-0.41676478392178656,,
,8633.0,1579.0,5728.0,1922.0,2191.0,3001.0,1459.0,,,,0.0392363620468617,-1.97041152147177,0.0889955278277036,,-0.49588834494569234,,
,8625.0,1577.0,5721.0,1921.0,2182.0,3011.0,1481.0,,,,0.0391766715270179,-1.97054345025331,0.0889862808196048,,-0.574721680763978,,
,8621.0,1576.0,5718.0,1917.0,2180.0,2988.0,1463.0,,,,0.0392414367313272,-1.97093608556747,0.0890057958476494,,-0.6529438804569472,,
,8614.0,1575.0,5716.0,1915.0,2185.0,2982.0,1459.0,,,,0.039130588457877,-1.97054605005804,0.088995969309136,,-0.7302400446768866,,
,8606.0,1570.0,5710.0,1914.0,2186.0,2993.0,1465.0,,,,0.0392147098818069,-1.97056904472476,0.08898083530844,,-0.8063244840080497,,
,8604.0,1572.0,5706.0,1913.0,2201.0,2983.0,1450.0,,,,0.0391263216479143,-1.97114487044765,0.088982780905412,,-0.8809456816035882,,
,8600.0,1570.0,5705.0,1913.0,2213.0,2975.0,1436.0,,,,0.0391192805274895,-1.97151202200074,0.0889722581577588,,-0.9538810305180427,,
,8596.0,1569.0,5699.0,1911.0,2209.0,2986.0,1437.0,,,,0.0390067981948472,-1.97182516936809,0.0889408667325586,,-1.0249297905298647,,
,8591.0,1568.0,5695.0,1909.0,2213.0,2994.0,1432.0,,,,0.0389981433277901,-1.97194999140453,0.0889316748948437,,-1.0939108066600283,,
,8590.0,1572.0,5694.0,1908.0,2217.0,2980.0,1430.0,,,,0.0389021741516358,-1.97229862259781,0.0889308970141615,,-1.1606680144426331,,
,8588.0,1572.0,5694.0,1911.0,2224.0,2999.0,1409.0,,,,0.0388552329772578,-1.97241498449637,0.0889125932992286,,-1.2250827013161572,,
,8586.0,1565.0,5691.0,1910.0,2228.0,3005.0,1408.0,,,,0.0388159282410309,-1.97246478062365,0.0889079015605664,,-1.2870881029653416,,
,8585.0,1569.0,5691.0,1906.0,2229.0,2999.0,1409.0,,,,0.0387809047758441,-1.9729913519622,0.0888939652226419,,-1.3466800343089846,,
,8584.0,1565.0,5689.0,1909.0,2214.0,3011.0,1418.0,,,,0.0387710025370708,-1.97334873931512,0.0888740834230037,,-1.4039171013444876,,
,8584.0,1568.0,5691.0,1909.0,2229.0,2997.0,1451.0,,,,0.0387334923594335,-1.97370633713216,0.0888466460792997,,-1.458905377794097,,
,8584.0,1566.0,5691.0,1909.0,2237.0,3006.0,1443.0,,,,0.0388053143934025,-1.97359843661824,0.0888631224769369,,-1.5117648597126068,,
,8584.0,1568.0,5690.0,1909.0,2216.0,3011.0,1416.0,,,,0.0387935626795249,-1.97360167746539,0.0888490119824661,,-1.5625780710100345,,
,8583.0,1565.0,5688.0,1909.0,2192.0,3007.0,1431.0,,,,0.0387633341722523,-1.97365075298086,0.0888717863949906,,-1.6113244168575522,,
,8585.0,1567.0,5691.0,1909.0,2202.0,2991.0,1408.0,,,,0.0388390679788286,-1.97350070048126,0.0888208595838693,,-1.6578068472506815,,
,8586.0,1569.0,5692.0,1910.0,2209.0,2999.0,1425.0,,,,0.0387477226310098,-1.97382452285836,0.0888681356855033,,-1.701579645255178,,
,8589.0,1568.0,5691.0,1911.0,2216.0,3001.0,1428.0,,,,0.0387631107543291,-1.9739548019522,0.0888525047220834,,-1.7418871256884474,,
,8589.0,1567.0,5693.0,1911.0,2221.0,2990.0,1408.0,,,,0.0387036504729463,-1.97378812575259,0.0888847308101112,,-1.7776221970964916,,
,8587.0,1570.0,5694.0,1912.0,2222.0,3006.0,1447.0,,,,0.0386910990823221,-1.9736157688829,0.0888414263357103,,-1.8073110392274732,,
,8592.0,1568.0,5696.0,1911.0,2216.0,3016.0,1454.0,,,,0.0386758792900043,-1.9736102553264,0.0888495223301554,,-1.8291263161836795,,
,8591.0,1568.0,5696.0,1910.0,2230.0,3018.0,1438.0,,,,0.0386864601479662,-1.97315365423003,0.0888475450319297,,-1.8409276972284645,,
,8593.0,1568.0,5695.0,1914.0,2202.0,3009.0,1464.0,,,,0.0387152400186334,-1.97355911840899,0.0888445747266761,,-1.84032609785954,,
,8591.0,1569.0,5694.0,1911.0,2220.0,2996.0,1459.0,,,,0.0387227317312568,-1.97365143457048,0.0888904653496303,,-1.8247672743886891,,
,8592.0,1569.0,5695.0,1910.0,2206.0,3007.0,1460.0,,,,0.0387413427179076,-1.97357048032774,0.0888861081860914,,-1.7916308015335203,,
,8592.0,1570.0,5696.0,1912.0,2205.0,3003.0,1471.0,,,,0.0387199101058207,-1.97310311404944,0.0888268272384213,,-1.738341398702294,,
,8593.0,1568.0,5696.0,1913.0,2215.0,3007.0,1481.0,,,,0.0386638424117517,-1.97350648218992,0.0888544715887455,,-1.6624904918071002,,
,8591.0,1569.0,5692.0,1910.0,2196.0,3000.0,1471.0,,,,0.0386744274463673,-1.97301060716006,0.0888514316168495,,-1.5619664704453255,,
,8593.0,1569.0,5694.0,1912.0,2196.0,2988.0,1491.0,,,,0.0386763850297231,-1.97298010907533,0.0888488156640587,,-1.4350921951681743,,
,8592.0,1569.0,5697.0,1914.0,2183.0,2987.0,1490.0,,,,0.0386841729917548,-1.9730607482717,0.0888812102853951,,-1.280767757129757,,
,8587.0,1569.0,5691.0,1910.0,2194.0,2989.0,1484.0,,,,0.0386732451515195,-1.97267515666446,0.088828925841573,,-1.0986148893873329,,
,8588.0,1564.0,5692.0,1911.0,2199.0,3014.0,1462.0,,,,0.0386991875267539,-1.97224834765697,0.0888622196187368,,-0.8891163954395466,,
,8588.0,1568.0,5688.0,1910.0,2215.0,3000.0,1473.0,,,,0.0386087741668808,-1.97276213698379,0.0888244192461439,,-0.6537397545915982,,
,8591.0,1568.0,5692.0,1912.0,2215.0,3003.0,1460.0,,,,0.0386651862909585,-1.97243456758595,0.0888348975991347,,-0.3950299223702758,,
,8588.0,1567.0,5691.0,1912.0,2206.0,3003.0,1450.0,,,,0.0386971126766768,-1.97278894231763,0.0888477000991055,,-0.11665405279671574,,
,8587.0,1568.0,5692.0,1910.0,2210.0,2998.0,1423.0,,,,0.0386968197420268,-1.97286828990628,0.0888387137632483,,0.17661817115615638,,
,8591.0,1568.0,5690.0,1912.0,2197.0,2997.0,1408.0,,,,0.0386838347062385,-1.97334708984293,0.0888638970046563,,0.4790103292484854,,
,8592.0,1568.0,5692.0,1913.0,2204.0,3004.0,1407.0,,,,0.0387213560742396,-1.97295986655561,0.0888940704205814,,0.7839153292769802,,
,8593.0,1569.0,5692.0,1914.0,2203.0,3006.0,1404.0,,,,0.0386793191166528,-1.97297980466928,0.0888659063827646,,1.0841465994991437,,
,8591.0,1568.0,5694.0,1913.0,2207.0,3000.0,1418.0,,,,0.038749102274644,-1.9729380476435,0.0888968704895571,,1.3722498528551543,,
,8591.0,1567.0,5693.0,1911.0,2211.0,2999.0,1425.0,,,,0.0387639257967309,-1.97272185976996,0.0888964688349696,,1.6408529737743693,,
,8594.0,1568.0,5696.0,1914.0,2200.0,3015.0,1450.0,,,,0.0387530147850924,-1.97303431334108,0.0888581834154389,,1.883026489528007,,
,8593.0,1569.0,5696.0,1915.0,2202.0,3009.0,1450.0,,,,0.0387362181938114,-1.97280016458817,0.0888749926578481,,2.092625526076319,,
,8598.0,1570.0,5698.0,1917.0,2209.0,3004.0,1451.0,,,,0.038770918166564,-1.97291166771077,0.0888534478086588,,2.2645862567083594,,
,8601.0,1569.0,5700.0,1917.0,2221.0,2997.0,1438.0,,,,0.0387289378850178,-1.97277078629498,0.0889001669663905,,2.3951552835114036,,
,8600.0,1569.0,5697.0,1916.0,2216.0,3003.0,1450.0,,,,0.0388036844514502,-1.97287579822779,0.0888733301642543,,2.482038264070416,,
,8605.0,1570.0,5701.0,1917.0,2221.0,3009.0,1450.0,,,,0.0388100562069408,-1.97287941681866,0.0888878896416315,,2.5244629075428673,,
,8605.0,1572.0,5703.0,1917.0,2219.0,3011.0,1448.0,,,,0.0387381309434908,-1.97317418412338,0.0888835535531562,,2.5231594487750675,,
,8606.0,1569.0,5704.0,1916.0,2222.0,3002.0,1449.0,,,,0.0386742143477709,-1.97291632054409,0.0888860445208451,,2.4802675715139015,,
,8612.0,1568.0,5706.0,1917.0,2216.0,3009.0,1462.0,,,,0.0386935652682761,-1.97296238220775,0.0888677142641892,,2.399181989210228,,
,8612.0,1571.0,5707.0,1921.0,2214.0,3001.0,1443.0,,,,0.0387164248066538,-1.97350508854578,0.0888905529766905,,2.2843495263154345,,
,8616.0,1571.0,5712.0,1923.0,2220.0,3003.0,1442.0,,,,0.038623482709729,-1.97347961263366,0.0888261791142734,,2.141029071650108,,
,8616.0,1571.0,5711.0,1924.0,2236.0,2987.0,1457.0,,,,0.0386438493721958,-1.97273418524272,0.0888563606935321,,1.9750234893460108,,
,8616.0,1571.0,5713.0,1922.0,2214.0,2991.0,1451.0,,,,0.0386575862312531,-1.97297729484578,0.0888511026719143,,1.792391345408812,,
,8622.0,1573.0,5714.0,1925.0,2201.0,3003.0,1448.0,,,,0.0386755261817313,-1.97300920785182,0.0888524313595104,,1.5991476012341332,,
,8624.0,1572.0,5716.0,1926.0,2204.0,3003.0,1455.0,,,,0.0386934580733557,-1.97271431129966,0.0888766146095078,,1.4009664374378457,,
,8625.0,1576.0,5719.0,1926.0,2211.0,2999.0,1463.0,,,,0.0386368815906562,-1.97268860088077,0.0889177644163774,,1.2029049416607471,,
,8631.0,1572.0,5718.0,1925.0,2226.0,3002.0,1429.0,,,,0.0387444888659993,-1.97265210919799,0.0888704987366447,,1.0091713270755172,,
,8633.0,1573.0,5721.0,1927.0,2234.0,3002.0,1457.0,,,,0.0386872332028617,-1.97245197991203,0.08888917930011,,0.8229629428502352,,
,8636.0,1576.0,5725.0,1927.0,2203.0,3018.0,1469.0,,,,0.0386847638756319,-1.97273996504665,0.0888943049982563,,0.6463954107022295,,
,8634.0,1573.0,5725.0,1927.0,2204.0,3021.0,1463.0,,,,0.0387389372869455,-1.97271122917623,0.0888791488522376,,0.4805343051634964,,
,8639.0,1575.0,5725.0,1928.0,2219.0,3020.0,1456.0,,,,0.0387739567588846,-1.97255482939054,0.088888340266521,,0.3255265154540437,,
,8644.0,1575.0,5728.0,1931.0,2193.0,3012.0,1451.0,,,,0.0387824244404765,-1.97262195392953,0.0889138647510594,,0.1808128802953312,,
,8644.0,1575.0,5730.0,1932.0,2187.0,3011.0,1448.0,,,,0.0387304089384809,-1.97225675276851,0.088879712797031,,0.04539052192822412,,
,8648.0,1577.0,5731.0,1933.0,2187.0,3008.0,1448.0,,,,0.0387403376819902,-1.97242319797405,0.0888668786703685,,-0.08191424291664616,,
,8651.0,1576.0,5731.0,1934.0,2183.0,3000.0,1456.0,,,,0.0386649379888151,-1.97206868449514,0.0888770404928185,,-0.20220171481632007,,
,8652.0,1576.0,5734.0,1934.0,2197.0,3002.0,1450.0,,,,0.0386990488079288,-1.97235671133483,0.0888875276908004,,-0.31631575640456516,,
,8656.0,1577.0,5740.0,1937.0,2213.0,2999.0,1448.0,,,,0.038718350671885,-1.97194902803478,0.0888925770295499,,-0.42474224336646854,,
,8661.0,1579.0,5740.0,1935.0,2205.0,3018.0,1451.0,,,,0.0387138156462151,-1.97194634620215,0.0888646466220489,,-0.5275948003037347,,
,8663.0,1578.0,5743.0,1937.0,2204.0,3001.0,1447.0,,,,0.038695618133787,-1.97217940084737,0.0888791429872344,,-0.6246791110834422,,
,8665.0,1577.0,5742.0,1936.0,2203.0,2990.0,1420.0,,,,0.0387337015086619,-1.9722422150375,0.0889059648322978,,-0.715615220538939,,
,8667.0,1582.0,5745.0,1941.0,2202.0,3009.0,1437.0,,,,0.0387162796603155,-1.97193759526877,0.0889221337113851,,-0.799989934347786,,
,8667.0,1581.0,5744.0,1940.0,2232.0,3013.0,1446.0,,,,0.0388163625062139,-1.97238946967158,0.0889215747842269,,-0.8775094821962323,,
,8666.0,1579.0,5743.0,1936.0,2245.0,3013.0,1441.0,,,,0.0387175033006613,-1.9722413507566,0.0888979365519496,,-0.9481255939275373,,
,8664.0,1578.0,5743.0,1935.0,2235.0,3018.0,1454.0,,,,0.038785869753597,-1.97195757379767,0.0888753338461939,,-1.0121148327608758,,
,8659.0,1577.0,5741.0,1934.0,2214.0,3018.0,1460.0,,,,0.0387858480300909,-1.97186877681959,0.0889335115815276,,-1.0700998973829818,,
,8656.0,1578.0,5741.0,1934.0,2203.0,3013.0,1462.0,,,,0.0389080918323571,-1.97163140413429,0.0889487391579832,,-1.1230109740346852,,
,8649.0,1576.0,5733.0,1932.0,2202.0,3017.0,1464.0,,,,0.0388588891201947,-1.97182426201472,0.0889406280377159,,-1.1719935116722622,,
,8644.0,1573.0,5727.0,1930.0,2199.0,3002.0,1460.0,,,,0.0388453595463899,-1.97131365124102,0.0889520984589221,,-1.2182748593793997,,
,8639.0,1574.0,5725.0,1927.0,2188.0,2987.0,1454.0,,,,0.0388698867674394,-1.97161386556814,0.0889555503444483,,-1.2630055016037156,,
,8634.0,1573.0,5724.0,1928.0,2192.0,3005.0,1477.0,,,,0.0388417890639837,-1.97174969242708,0.0889523050885701,,-1.3070912131323495,,
,8632.0,1569.0,5719.0,1924.0,2184.0,2994.0,1466.0,,,,0.038913621645387,-1.97132504651524,0.0889765163942842,,-1.3510310050793224,,
,8625.0,1568.0,5715.0,1924.0,2185.0,2999.0,1457.0,,,,0.0388463816502464,-1.97113137097481,0.088970955902224,,-1.394773407459864,,
,8620.0,1570.0,5711.0,1921.0,2188.0,2989.0,1467.0,,,,0.0388597059479548,-1.97123327720067,0.0889627709055499,,-1.4376015836238267,,
,8616.0,1568.0,5709.0,1921.0,2200.0,2986.0,1438.0,,,,0.0387744583454637,-1.97101179779086,0.088964076818738,,-1.4780565734000626,,
,8615.0,1564.0,5704.0,1920.0,2208.0,3005.0,1416.0,,,,0.0387655808670989,-1.97123382531054,0.0889603681511993,,-1.5139074986517107,,
,8612.0,1568.0,5705.0,1920.0,2217.0,3003.0,1403.0,,,,0.0389917493544109,-1.97132163330122,0.0889634100331923,,-1.5421772512709437,,
,8611.0,1567.0,5699.0,1920.0,2224.0,2985.0,1392.0,,,,0.0389100201570238,-1.97132437626565,0.0889163164712474,,-1.5592311705324375,,
,8606.0,1564.0,5700.0,1917.0,2212.0,2978.0,1425.0,,,,0.0389244898292499,-1.97138107210376,0.0889177899811014,,-1.5609336374937703,,
,8606.0,1565.0,5700.0,1919.0,2208.0,2999.0,1432.0,,,,0.0389085581149136,-1.97165065198557,0.088947115991233,,-1.5428728871010085,,
,8608.0,1566.0,5699.0,1921.0,2219.0,2994.0,1419.0,,,,0.038829370287662,-1.97205880695077,0.0889287244426584,,-1.5006478395206306,,
,8606.0,1565.0,5697.0,1920.0,2221.0,2983.0,1424.0,,,,0.0387143772339217,-1.97204816962176,0.0889415659861648,,-1.4302030798188046,,
,8605.0,1567.0,5700.0,1919.0,2214.0,3002.0,1425.0,,,,0.0387362004686602,-1.97254044694074,0.0889184914361655,,-1.3281901724723655,,
,8605.0,1566.0,5697.0,1920.0,2199.0,2994.0,1435.0,,,,0.0387773247801222,-1.97279957224739,0.0889244763067102,,-1.1923263239307087,,
,8606.0,1569.0,5698.0,1923.0,2196.0,3006.0,1452.0,,,,0.0387915709023911,-1.97253930916535,0.0889082122977604,,-1.0217163565473686,,
,8609.0,1566.0,5702.0,1922.0,2201.0,3006.0,1473.0,,,,0.0386994880227317,-1.97245287901454,0.0888897972334087,,-0.8171026256263578,,
,8609.0,1565.0,5698.0,1921.0,2215.0,3001.0,1468.0,,,,0.0387045422593552,-1.97307499750261,0.0888969247239512,,-0.5810111671339447,,
,8609.0,1567.0,5700.0,1923.0,2209.0,3004.0,1452.0,,,,0.0387363154094004,-1.97335748511723,0.0889028527156714,,-0.31777128352092104,,
,8613.0,1567.0,5705.0,1924.0,2219.0,3011.0,1439.0,,,,0.0386669846257277,-1.9731127133798,0.088925850484249,,-0.03339892815889497,,
,8614.0,1566.0,5704.0,1926.0,2202.0,3007.0,1445.0,,,,0.0387962436382176,-1.97288674364017,0.0888975147572913,,0.2646505919601588,,
,8614.0,1567.0,5704.0,1924.0,2212.0,2985.0,1444.0,,,,0.0386814250943276,-1.97258670223365,0.0889212220386913,,0.5678408046083704,,
,8618.0,1569.0,5707.0,1925.0,2212.0,2994.0,1463.0,,,,0.0388070282905302,-1.97266111349405,0.0888817876623509,,0.8669926234361233,,
,8622.0,1567.0,5708.0,1926.0,2214.0,3011.0,1456.0,,,,0.0387619101024264,-1.97266112153021,0.0888985293311982,,1.15276703028024,,
,8621.0,1569.0,5708.0,1927.0,2216.0,3012.0,1465.0,,,,0.0388406106150515,-1.9728068184878,0.0889162363546841,,1.4161550584691396,,
,8621.0,1568.0,5710.0,1927.0,2216.0,2996.0,1460.0,,,,0.0389156567262058,-1.97242711943901,0.0889088931876263,,1.6489417659216055,,
,8621.0,1565.0,5707.0,1927.0,2203.0,3007.0,1496.0,,,,0.0386947160610525,-1.97214465686438,0.0889289911858219,,1.8441169844174907,,
,8623.0,1570.0,5708.0,1928.0,2192.0,2998.0,1478.0,,,,0.0387477197926247,-1.97237973875124,0.0889215751461169,,1.9962125432439082,,
,8623.0,1572.0,5710.0,1928.0,2186.0,3011.0,1471.0,,,,0.0387733921567637,-1.97250660594711,0.0889144396291158,,2.1015518164175284,,
,8621.0,1571.0,5708.0,1929.0,2189.0,3002.0,1470.0,,,,0.0388932348534354,-1.97224285991122,0.0889396621079823,,2.1584020271312414,,
,8622.0,1568.0,5710.0,1925.0,2202.0,3001.0,1454.0,,,,0.0388310830880235,-1.97187621564214,0.0889405337333656,,2.167022982022258,,
,8621.0,1569.0,5709.0,1931.0,2196.0,3008.0,1444.0,,,,0.0388558084905052,-1.97175015994333,0.0889696211644405,,2.129608749381408,,
,8623.0,1568.0,5711.0,1928.0,2177.0,3002.0,1464.0,,,,0.0388767779562089,-1.97149277521711,0.0889485718009798,,2.0501224141174235,,
,8619.0,1569.0,5709.0,1933.0,2179.0,2994.0,1452.0,,,,0.038924079403156,-1.97164454727848,0.0889276552892716,,1.9340293433681934,,
2025-07-17 17:21:02,8621.0,1566.0,5706.0,1928.0,2201.0,3007.0,1412.0,,,2025/07/17 05:21:02 PM,0.038912797723028,-1.971636506779,0.0889644870528183,,1.7879415039503632,,
,8621.0,1566.0,5706.0,1928.0,2204.0,3008.0,1411.0,,,,0.0388375993301786,-1.97221165786487,0.0890087795786015,,1.6191934804118802,,
,8619.0,1568.0,5710.0,1931.0,2208.0,2987.0,1441.0,,,,0.0389167332717835,-1.97174714770226,0.0889275743571084,,1.4353787119562849,,
,8621.0,1569.0,5706.0,1931.0,2203.0,2991.0,1434.0,,,,0.0389606272436856,-1.97166343838353,0.0889351954138858,,1.2438809089379552,,
,8623.0,1571.0,5706.0,1930.0,2207.0,2990.0,1442.0,,,,0.0389566316302648,-1.97175196843654,0.0889239771611768,,1.0514393257496197,,
,8621.0,1568.0,5705.0,1928.0,2226.0,3006.0,1446.0,,,,0.0389568116837078,-1.97199721683841,0.0889568419021258,,0.8637860238961637,,
,8623.0,1571.0,5707.0,1933.0,2221.0,2995.0,1448.0,,,,0.0389146031841645,-1.9714658784149,0.0889489256002655,,0.6853873970450619,,
,8624.0,1567.0,5706.0,1930.0,2198.0,3010.0,1444.0,,,,0.0389620563902398,-1.97107609045611,0.0890026924087335,,0.5193112959615673,,
,8627.0,1569.0,5710.0,1935.0,2206.0,3011.0,1432.0,,,,0.038978244158483,-1.97120042109575,0.0889745598064171,,0.3672265790628852,,
,8630.0,1570.0,5710.0,1930.0,2208.0,3011.0,1434.0,,,,0.038979215268096,-1.97110238305063,0.0889885085011523,,0.22952599300646487,,
,8632.0,1570.0,5713.0,1933.0,2203.0,3014.0,1441.0,,,,0.0389865018914377,-1.97062822561272,0.0890143455795239,,0.1055485087341202,,
,8634.0,1572.0,5716.0,1936.0,2218.0,3019.0,1450.0,,,,0.0389916896991805,-1.97068854076981,0.0890168003069061,,-0.006133764418028623,,
,8636.0,1572.0,5714.0,1937.0,2220.0,3016.0,1457.0,,,,0.0390747909318334,-1.97065171301417,0.0890028568477102,,-0.10740423293044475,,
,8637.0,1575.0,5717.0,1936.0,2211.0,3014.0,1437.0,,,,0.0390687067522143,-1.9709777300709,0.0890324751929269,,-0.20030512408607418,,
,8640.0,1572.0,5720.0,1938.0,2227.0,3007.0,1400.0,,,,0.039058756364461,-1.97064521954158,0.0890283587546356,,-0.2867878541548165,,
,8645.0,1574.0,5723.0,1939.0,2213.0,2988.0,1424.0,,,,0.0390895545930386,-1.97065127660089,0.0890386664893039,,-0.36853219095671047,,
,8642.0,1574.0,5720.0,1941.0,2219.0,2995.0,1454.0,,,,0.0390602763907354,-1.97028487888394,0.0890153577870055,,-0.44684337270460317,,
,8644.0,1574.0,5723.0,1937.0,2227.0,3003.0,1451.0,,,,0.0391439343789668,-1.97082275156368,0.0890283294038186,,-0.5226242222536872,,
,8646.0,1573.0,5725.0,1941.0,2211.0,3004.0,1422.0,,,,0.0391510237913115,-1.97056211274878,0.0890278206056651,,-0.5964096213344944,,
,8653.0,1573.0,5727.0,1943.0,2222.0,2996.0,1442.0,,,,0.0391781330992597,-1.97010173701696,0.0890306272711813,,-0.6684446851061574,,
,8652.0,1574.0,5729.0,1943.0,2210.0,3000.0,1427.0,,,,0.0391445704260895,-1.96995451775801,0.0890486449592762,,-0.7387859567011399,,
,8656.0,1577.0,5731.0,1942.0,2212.0,3008.0,1432.0,,,,0.0392229181469278,-1.97021920977695,0.0890345570330139,,-0.8074065476501062,,
,8660.0,1574.0,5732.0,1944.0,2221.0,2999.0,1421.0,,,,0.0392835904472553,-1.96991370087911,0.0890671899148033,,-0.8742903122474158,,
,8658.0,1577.0,5736.0,1946.0,2226.0,3002.0,1423.0,,,,0.0391531419509635,-1.96937421480707,0.0890594179468746,,-0.9395053216730068,,
,8667.0,1579.0,5735.0,1946.0,2240.0,3004.0,1413.0,,,,0.0392036995756191,-1.96962353376487,0.0890394743981159,,-1.0032516458625336,,
,8666.0,1576.0,5738.0,1948.0,2230.0,3012.0,1433.0,,,,0.0392618410271479,-1.9700053734959,0.0890671699520461,,-1.0658818548795872,,
,8668.0,1578.0,5740.0,1949.0,2212.0,3010.0,1440.0,,,,0.0392522499011021,-1.96960345114872,0.0890842890573998,,-1.1278944151525125,,
,8673.0,1579.0,5745.0,1949.0,2208.0,3000.0,1456.0,,,,0.0392913178318195,-1.96964267279934,0.0890590000299786,,-1.1899005207216489,,
,8676.0,1580.0,5745.0,1951.0,2197.0,3014.0,1420.0,,,,0.0392301741948923,-1.96922384930521,0.0890366249972158,,-1.252564675746807,,
,8676.0,1580.0,5747.0,1951.0,2207.0,3016.0,1426.0,,,,0.0390671968734975,-1.96954745377931,0.0890805720652898,,-1.3165196638961936,,
,8679.0,1580.0,5747.0,1953.0,2222.0,3012.0,1428.0,,,,0.039199313750561,-1.96979816712258,0.0890731008834503,,-1.3822582401278332,,
,8683.0,1580.0,5747.0,1951.0,2214.0,3005.0,1455.0,,,,0.0392378326607312,-1.96961313410312,0.0890624568280891,,-1.4500070882392035,,
,8688.0,1582.0,5753.0,1954.0,2201.0,2997.0,1463.0,,,,0.0393405625612083,-1.96923401598739,0.0890767131161652,,-1.5195927932692774,,
,8690.0,1581.0,5753.0,1956.0,2196.0,3009.0,1449.0,,,,0.0392620230464587,-1.96896094921048,0.0890158657806223,,-1.5903138280424458,,
,8694.0,1584.0,5756.0,1955.0,2197.0,3012.0,1451.0,,,,0.0392317597860954,-1.96917817984518,0.0890923773348973,,-1.660835617337914,,
,8694.0,1580.0,5756.0,1955.0,2214.0,3007.0,1440.0,,,,0.0391965239877075,-1.9691286115992,0.0890985812073959,,-1.7291264696455417,,
,8696.0,1584.0,5758.0,1956.0,2204.0,3004.0,1452.0,,,,0.0393131110103072,-1.96924955724962,0.0890999388127411,,-1.792449915941222,,
,8701.0,1584.0,5762.0,1959.0,2229.0,3016.0,1474.0,,,,0.0392989493707509,-1.96900444197058,0.089046239731446,,-1.8474237754613854,,
,8703.0,1585.0,5764.0,1960.0,2236.0,3015.0,1463.0,,,,0.0392983417544621,-1.96883141676754,0.0890474621161936,,-1.8901485906302893,,
,8707.0,1583.0,5764.0,1959.0,2238.0,3015.0,1484.0,,,,0.0393300397615837,-1.96933148594341,0.0890947029232834,,-1.9163989094657496,,
,8705.0,1585.0,5765.0,1961.0,2229.0,3020.0,1472.0,,,,0.0393729924734705,-1.96853305732206,0.0891147903988834,,-1.9218617875821906,,
,8709.0,1584.0,5767.0,1960.0,2215.0,3008.0,1450.0,,,,0.0393786153915594,-1.96857707877121,0.0890814501169547,,-1.9023997417571015,,
,8706.0,1585.0,5766.0,1961.0,2211.0,2998.0,1468.0,,,,0.039373381815895,-1.96847092366555,0.0891157380952682,,-1.8543118147227515,,
,8702.0,1581.0,5763.0,1956.0,2215.0,2980.0,1457.0,,,,0.0393315078424649,-1.9680148915897,0.0891205531830273,,-1.7745671458128098,,
,8697.0,1580.0,5760.0,1957.0,2194.0,2983.0,1459.0,,,,0.0394305668174101,-1.96784005284146,0.0891299700517522,,-1.660990335544002,,
,8694.0,1580.0,5757.0,1954.0,2191.0,2983.0,1456.0,,,,0.0394851437181202,-1.96837455732418,0.0890955497362619,,-1.5123861107556205,,
,8689.0,1580.0,5752.0,1953.0,2189.0,2999.0,1460.0,,,,0.0394699710615194,-1.9678576184349,0.0891277827896339,,-1.328600942315764,,
,8684.0,1578.0,5750.0,1952.0,2184.0,3006.0,1461.0,,,,0.0394477625127556,-1.96784039990792,0.0891207641402749,,-1.1105294854512813,,
,8679.0,1578.0,5747.0,1950.0,2188.0,3003.0,1450.0,,,,0.0394677456900561,-1.96763902947146,0.0891269070697501,,-0.860081876134064,,
,8677.0,1575.0,5741.0,1950.0,2186.0,2995.0,1440.0,,,,0.0394723408005616,-1.96799682207565,0.0891258279494639,,-0.580131906375338,,
,8672.0,1578.0,5740.0,1947.0,2196.0,2998.0,1445.0,,,,0.0394604613587787,-1.96789610017222,0.0891208458864679,,-0.2744643300223844,,
,8671.0,1575.0,5738.0,1948.0,2189.0,3002.0,1422.0,,,,0.0394122683763094,-1.96822711485141,0.0891402239175875,,0.05226820201691227,,
,8666.0,1576.0,5735.0,1948.0,2223.0,3003.0,1404.0,,,,0.0392562443304666,-1.96861823448835,0.0891065234408755,,0.39457993653656387,,
,8663.0,1576.0,5735.0,1946.0,2227.0,2980.0,1411.0,,,,0.0393423572297905,-1.96923750343058,0.0891111391817385,,0.7461921003765593,,
,8663.0,1573.0,5734.0,1947.0,2200.0,3006.0,1388.0,,,,0.0392840723406022,-1.96899940721043,0.0890487308514997,,1.1001001810865285,,
,8660.0,1575.0,5730.0,1948.0,2201.0,3008.0,1395.0,,,,0.0392112390716305,-1.96937283954179,0.0890482810743385,,1.4486920314459137,,
,8661.0,1573.0,5730.0,1946.0,2221.0,3011.0,1410.0,,,,0.0392348113254244,-1.96948537349916,0.0890503939024534,,1.7839349734100318,,
,8659.0,1572.0,5730.0,1944.0,2235.0,3020.0,1388.0,,,,0.039194805172702,-1.9695740582668,0.0890617181985855,,2.097638917426611,,
,8660.0,1572.0,5731.0,1946.0,2239.0,3013.0,1401.0,,,,0.0391783394107234,-1.96974485301896,0.08907700355087,,2.381788307428996,,
,8663.0,1574.0,5732.0,1948.0,2239.0,3001.0,1432.0,,,,0.0391999892611368,-1.96975934813082,0.0890765725008646,,2.628921559040575,,
,8662.0,1574.0,5733.0,1947.0,2237.0,3010.0,1451.0,,,,0.0391622637893141,-1.96961957394443,0.0890578314135843,,2.8325254519497376,,
,8659.0,1571.0,5730.0,1948.0,2218.0,2997.0,1439.0,,,,0.0391819093980546,-1.97027368977398,0.0890562517850017,,2.9874058111333057,,
,8664.0,1573.0,5733.0,1948.0,2229.0,3009.0,1434.0,,,,0.0390274784732206,-1.97044401388262,0.089038766314201,,3.0899959516810926,,
,8664.0,1578.0,5733.0,1951.0,2214.0,3016.0,1432.0,,,,0.0390420158839341,-1.97062216167294,0.0890535072741459,,3.1385707736357107,,
,8664.0,1573.0,5734.0,1949.0,2211.0,3003.0,1429.0,,,,0.0390690861421703,-1.97042784706701,0.0890300251621528,,3.133345633101732,,
,8668.0,1574.0,5735.0,1951.0,2212.0,2998.0,1446.0,,,,0.0390267210463915,-1.97037980525221,0.0890113616056613,,3.0764525737697066,,
,8671.0,1576.0,5737.0,1951.0,2224.0,3004.0,1445.0,,,,0.0392444762070629,-1.97072746389605,0.088994960253502,,2.971799425172036,,
,8673.0,1576.0,5740.0,1952.0,2230.0,3015.0,1451.0,,,,0.0391445506645013,-1.97004334197523,0.0890225669433927,,2.824827639951587,,
,8677.0,1577.0,5742.0,1953.0,2225.0,3006.0,1466.0,,,,0.0392717539381775,-1.96993538044215,0.0890179712126553,,2.6421914209461455,,
,8675.0,1576.0,5741.0,1954.0,2224.0,2999.0,1466.0,,,,0.0392316326017914,-1.96982054227762,0.0890442333259426,,2.4313834479268643,,
,8677.0,1576.0,5741.0,1954.0,2208.0,2997.0,1465.0,,,,0.039264588002627,-1.96941365023374,0.0890249383649139,,2.200332201390933,,
,8678.0,1577.0,5743.0,1956.0,2181.0,3015.0,1474.0,,,,0.0391863904058432,-1.9695280258733,0.0890478438032281,,1.9569941492352305,,
,8680.0,1582.0,5745.0,1956.0,2191.0,3010.0,1476.0,,,,0.0391867691724862,-1.9698540455037,0.0890590091080589,,1.708962448577633,,
,8682.0,1578.0,5747.0,1955.0,2194.0,3003.0,1481.0,,,,0.0391321380292338,-1.96998631449165,0.0890649193884776,,1.4631129671582421,,
,8679.0,1577.0,5744.0,1955.0,2198.0,3002.0,1442.0,,,,0.0391370934477921,-1.96983778696417,0.0890398896187379,,1.2253079702369762,,
,8681.0,1577.0,5748.0,1955.0,2187.0,2996.0,1464.0,,,,0.0391665651698075,-1.9701771492044,0.089020871843668,,1.0001766035711694,,
,8681.0,1579.0,5749.0,1958.0,2190.0,3002.0,1474.0,,,,0.0392180213164547,-1.97016812146188,0.0890426626989096,,0.7909879471077385,,
,8684.0,1576.0,5746.0,1957.0,2194.0,3002.0,1457.0,,,,0.039233780750195,-1.97025569099049,0.0890010134959733,,0.5996261235758695,,
,8682.0,1577.0,5747.0,1958.0,2198.0,3012.0,1450.0,,,,0.0391766779652215,-1.97001555946483,0.0890888365832569,,0.42666807285698144,,
,8682.0,1578.0,5744.0,1957.0,2206.0,3000.0,1424.0,,,,0.0391927867038302,-1.96975558028627,0.089023285791437,,0.2715543794738402,,
,8682.0,1577.0,5746.0,1956.0,2194.0,3011.0,1432.0,,,,0.0391435436371227,-1.97014421421578,0.0890429707727318,,0.13283346437434276,,
,8683.0,1578.0,5745.0,1959.0,2207.0,2996.0,1448.0,,,,0.0391880052252547,-1.97022106489779,0.0890197484732234,,0.008451056613497328,,
,8681.0,1577.0,5744.0,1959.0,2218.0,3005.0,1434.0,,,,0.0391028482152612,-1.97027673927199,0.0890125791590586,,-0.10394830989033627,,
,8682.0,1577.0,5746.0,1959.0,2214.0,2998.0,1436.0,,,,0.039165618106182,-1.96996300471471,0.0890039087348598,,-0.2067417505165908,,
,8685.0,1577.0,5746.0,1958.0,2222.0,3010.0,1439.0,,,,0.0391254232617862,-1.97066760743843,0.0889851577066111,,-0.30210021767411116,,
,8687.0,1578.0,5747.0,1960.0,2209.0,3005.0,1445.0,,,,0.0391746545136741,-1.97017457260516,0.0889880983904151,,-0.391833516024921,,
,8685.0,1578.0,5744.0,1961.0,2215.0,3015.0,1434.0,,,,0.0392292932297035,-1.96991788537445,0.0890215349676216,,-0.4773173189683361,,
,8688.0,1578.0,5748.0,1960.0,2208.0,3005.0,1435.0,,,,0.0392202398075206,-1.97037267339878,0.0890622479716055,,-0.5594982945670145,,
,8687.0,1579.0,5748.0,1960.0,2201.0,3014.0,1434.0,,,,0.0392228958823426,-1.97009618337811,0.0890174460317832,,-0.6389617849439848,,
,8692.0,1580.0,5752.0,1962.0,2216.0,3004.0,1430.0,,,,0.0393328562954019,-1.96979743417096,0.0890502669219196,,-0.7160383943437973,,
,8693.0,1580.0,5754.0,1965.0,2233.0,3019.0,1444.0,,,,0.0392915642109378,-1.96976886556191,0.0890593576645528,,-0.7909224735270396,,
,8695.0,1581.0,5754.0,1961.0,2204.0,3014.0,1453.0,,,,0.0392726923564195,-1.96962252391441,0.0890674595937433,,-0.8637769523369595,,
,8697.0,1579.0,5758.0,1962.0,2208.0,3004.0,1457.0,,,,0.0392941980041645,-1.96967246241712,0.089104079937243,,-0.9348045692537309,,
,8700.0,1581.0,5755.0,1967.0,2205.0,3004.0,1439.0,,,,0.039356957186041,-1.96994787788709,0.0890506176354115,,-1.0042738625052532,,
,8700.0,1582.0,5758.0,1965.0,2199.0,3010.0,1442.0,,,,0.0392780277782854,-1.96964220694277,0.0890160601075863,,-1.0724974494230393,,
,8703.0,1584.0,5762.0,1965.0,2202.0,3000.0,1445.0,,,,0.0391852293085494,-1.96952361115464,0.0890450152320597,,-1.1397683497717737,,
,8704.0,1581.0,5762.0,1964.0,2194.0,3003.0,1431.0,,,,0.0393022747545135,-1.9693707608293,0.0890612726700136,,-1.2062661352893633,,
,8707.0,1583.0,5764.0,1967.0,2187.0,3004.0,1438.0,,,,0.0393371468390258,-1.96975025000479,0.089039687487466,,-1.271947824623377,,
,8712.0,1586.0,5766.0,1970.0,2195.0,3002.0,1438.0,,,,0.0392099340410605,-1.96955990185804,0.0890565991759586,,-1.3364386351160404,,
,8714.0,1582.0,5765.0,1969.0,2195.0,3000.0,1430.0,,,,0.039214372640663,-1.96930258740023,0.0890414684433408,,-1.3989356682496534,,
,8717.0,1584.0,5767.0,1969.0,2200.0,3012.0,1402.0,,,,0.0392246290845691,-1.96913525249215,0.0890846807299375,,-1.4581346472711605,,
,8716.0,1584.0,5769.0,1971.0,2192.0,2994.0,1413.0,,,,0.0392970607956967,-1.96992175967691,0.0890279722875658,,-1.5121871674323115,,
,8723.0,1586.0,5773.0,1973.0,2199.0,3001.0,1430.0,,,,0.039278857279773,-1.9697311235118,0.0890601742681467,,-1.55869412952238,,
,8723.0,1585.0,5773.0,1972.0,2209.0,3005.0,1428.0,,,,0.0392054923489289,-1.96930603892967,0.0890531045713464,,-1.5947399785394603,,
,8726.0,1586.0,5775.0,1973.0,2215.0,2999.0,1417.0,,,,0.0392943873446271,-1.96937384021067,0.0890545782478014,,-1.6169715211595093,,
,8729.0,1585.0,5779.0,1976.0,2198.0,3002.0,1428.0,,,,0.0392788391501953,-1.96956377481624,0.0890710596881093,,-1.6217238156144194,,
,8733.0,1586.0,5782.0,1975.0,2190.0,3012.0,1456.0,,,,0.039290089516454,-1.96940788296036,0.0890459817766737,,-1.605193504046719,,
,8736.0,1588.0,5784.0,1976.0,2201.0,3011.0,1442.0,,,,0.039322418240628,-1.96928621797057,0.089024807269395,,-1.5636569362534631,,
,8739.0,1589.0,5785.0,1978.0,2213.0,3006.0,1442.0,,,,0.039254598072001,-1.96889222112615,0.0890851449975416,,-1.4937266014572532,,
,8740.0,1589.0,5788.0,1979.0,2214.0,2986.0,1451.0,,,,0.0393424744256637,-1.96919135632719,0.0890731065761039,,-1.3926346719630995,,
,8746.0,1588.0,5789.0,1978.0,2219.0,2999.0,1444.0,,,,0.0392302836014584,-1.96952206181905,0.0890672616388712,,-1.258526799106998,,
,8751.0,1590.0,5793.0,1982.0,2223.0,3011.0,1441.0,,,,0.0392756292421052,-1.96955339453643,0.0890676498422341,,-1.0907432708356293,,
,8751.0,1589.0,5794.0,1982.0,2222.0,3014.0,1436.0,,,,0.0392825048274676,-1.96915894166716,0.0890523086556695,,-0.8900598755370979,,
,8753.0,1591.0,5797.0,1982.0,2231.0,3014.0,1450.0,,,,0.0391458497403233,-1.96887485944647,0.0890876245307424,,-0.6588593908103908,,
,8756.0,1588.0,5797.0,1981.0,2241.0,3010.0,1437.0,,,,0.0392109741319871,-1.96879681179108,0.0890761308679834,,-0.40120779554787733,,
,8757.0,1593.0,5799.0,1986.0,2239.0,3002.0,1434.0,,,,0.0391360917959833,-1.96859533744129,0.0890607303755481,,-0.12281684674177766,,
,8759.0,1593.0,5800.0,1984.0,2222.0,3001.0,1460.0,,,,0.0392528589604161,-1.9685472341828,0.089070691299912,,0.16911485556220013,,
,8758.0,1591.0,5803.0,1981.0,2205.0,2994.0,1446.0,,,,0.0391855022127999,-1.96844535246843,0.0890848950942831,,0.4661785614641847,,
,8756.0,1589.0,5799.0,1981.0,2193.0,3000.0,1450.0,,,,0.0392830070270506,-1.96852928492647,0.0890389370848948,,0.759134810925126,,
,8754.0,1590.0,5797.0,1983.0,2185.0,2988.0,1462.0,,,,0.0392954028272464,-1.96856583874166,0.0890817630287439,,1.0383708002804848,,
,8751.0,1590.0,5797.0,1982.0,2178.0,2992.0,1458.0,,,,0.0392723727045276,-1.96810378286249,0.0890898699696654,,1.2944033517555547,,
,8746.0,1587.0,5793.0,1980.0,2174.0,2990.0,1464.0,,,,0.0392929898764926,-1.9679940941324,0.0891183116934503,,1.5183908066718261,,
,8743.0,1587.0,5789.0,1980.0,2188.0,2991.0,1481.0,,,,0.0393769369922214,-1.96785374761145,0.0890566068113282,,1.7026165727104752,,
,8738.0,1589.0,5788.0,1975.0,2186.0,3000.0,1471.0,,,,0.0393500506017414,-1.96778449173646,0.0890933082957611,,1.840910083681409,,
,8737.0,1584.0,5786.0,1977.0,2182.0,3007.0,1448.0,,,,0.0393342382945927,-1.96769956104307,0.0890952531741398,,1.9289765421753522,,
,8732.0,1585.0,5783.0,1976.0,2192.0,3001.0,1446.0,,,,0.0394093949375815,-1.96806130022545,0.0891169321761339,,1.9646138165514435,,
,8732.0,1583.0,5782.0,1975.0,2197.0,2998.0,1464.0,,,,0.0393384576747061,-1.96827641400695,0.0890906076561706,,1.9478027701874945,,
,8725.0,1585.0,5779.0,1974.0,2199.0,3009.0,1458.0,,,,0.0393555949787882,-1.96878230875787,0.0890337746761278,,1.8806662617090226,,
2025-07-17 17:21:03,8724.0,1584.0,5776.0,1971.0,2197.0,3003.0,1457.0,,,2025/07/17 05:21:03 PM,0.0393443165904415,-1.96935756543018,0.0890518240346402,,1.767301914338866,,
,8724.0,1585.0,5774.0,1976.0,2223.0,3012.0,1425.0,,,,0.0392259103035793,-1.96930562488479,0.0890707357517782,,1.6135034113338496,,
,8722.0,1587.0,5773.0,1973.0,2224.0,3015.0,1433.0,,,,0.039208292219678,-1.96979656203478,0.0890386372634445,,1.4263928454239119,,
,8718.0,1582.0,5772.0,1972.0,2212.0,3009.0,1436.0,,,,0.039163357491023,-1.96980695940514,0.0890369165712237,,1.2139912718579,,
,8721.0,1584.0,5773.0,1974.0,2199.0,3006.0,1420.0,,,,0.0392300792195381,-1.96972941170401,0.0889917026348726,,0.9847561077576265,,
,8723.0,1585.0,5773.0,1974.0,2212.0,3009.0,1422.0,,,,0.0392513101303956,-1.97023180352585,0.089009842103504,,0.7471136427427658,,
,8722.0,1583.0,5773.0,1975.0,2224.0,3021.0,1436.0,,,,0.0392753385976961,-1.97045883700404,0.0890037898209959,,0.5090141400083902,,
,8722.0,1583.0,5774.0,1973.0,2209.0,3031.0,1439.0,,,,0.0392508193134026,-1.97054649687515,0.0889876564526897,,0.2775363007719633,,
,8725.0,1583.0,5774.0,1973.0,2193.0,3015.0,1430.0,,,,0.0392405011286455,-1.97078821806813,0.089006396465342,,0.058566409964677116,,
,8727.0,1583.0,5775.0,1974.0,2194.0,3008.0,1456.0,,,,0.0392682957196618,-1.97100543970226,0.0890009932340766,,-0.14342618664158435,,
,8726.0,1585.0,5776.0,1976.0,2198.0,3010.0,1454.0,,,,0.0390991045601646,-1.97109928493137,0.0889861497034631,,-0.3255025265285754,,
,8727.0,1584.0,5777.0,1975.0,2210.0,2998.0,1432.0,,,,0.0391045661707318,-1.97075158535175,0.0889843388436211,,-0.48625162307975306,,
,8731.0,1583.0,5779.0,1977.0,2195.0,2996.0,1449.0,,,,0.0390933867517275,-1.97079050004334,0.0890247338335468,,-0.6256790279071945,,
,8732.0,1586.0,5782.0,1981.0,2193.0,2988.0,1450.0,,,,0.0392115727631103,-1.97066227503062,0.0890323626367223,,-0.7450041546080186,,
,8737.0,1587.0,5782.0,1980.0,2203.0,2991.0,1468.0,,,,0.0391742979626551,-1.9704496161102,0.0889843692497653,,-0.8463923465335791,,
,8740.0,1588.0,5783.0,1980.0,2209.0,2993.0,1464.0,,,,0.0391345526149301,-1.97028642655585,0.0890128421119226,,-0.9326517513948246,,
,8740.0,1586.0,5786.0,1979.0,2207.0,2990.0,1454.0,,,,0.0391277220004062,-1.96998490755632,0.0889735242871396,,-1.0069246788892394,,
,8743.0,1588.0,5789.0,1982.0,2213.0,3000.0,1465.0,,,,0.0391491046093057,-1.97012356622147,0.0889765751223422,,-1.0723986267676953,,
,8744.0,1590.0,5789.0,1984.0,2200.0,3004.0,1461.0,,,,0.0392176082206759,-1.97009434911158,0.088986699723088,,-1.132054548072166,,
,8749.0,1588.0,5792.0,1982.0,2204.0,2995.0,1453.0,,,,0.0391172012913095,-1.97032106550623,0.089022689988425,,-1.1884609161696265,,
,8749.0,1588.0,5792.0,1983.0,2206.0,2985.0,1463.0,,,,0.0391810331829291,-1.97052449215968,0.0890391703980639,,-1.2436139517088491,,
,8750.0,1590.0,5792.0,1984.0,2201.0,3000.0,1468.0,,,,0.0392312714103687,-1.97015950376354,0.0889965034286745,,-1.29881892767176,,
,8750.0,1591.0,5794.0,1985.0,2197.0,2995.0,1481.0,,,,0.0391891309828688,-1.97082078198782,0.0890055026464877,,-1.3546056239767599,,
,8753.0,1591.0,5795.0,1986.0,2191.0,2997.0,1464.0,,,,0.0391651758046564,-1.97078944891679,0.0889989112657774,,-1.4106724979171354,,
,8751.0,1589.0,5792.0,1984.0,2179.0,3001.0,1450.0,,,,0.0392164033597774,-1.97036628588246,0.0890095750545622,,-1.4658579799806666,,
,8751.0,1588.0,5794.0,1985.0,2189.0,2995.0,1438.0,,,,0.0391862116831861,-1.97022925393835,0.0890064466888536,,-1.5181421230740348,,
,8752.0,1590.0,5793.0,1984.0,2191.0,3014.0,1447.0,,,,0.0391941693693225,-1.96980044914763,0.0890068351399294,,-1.5646861261873246,,
,8751.0,1590.0,5796.0,1986.0,2190.0,2993.0,1442.0,,,,0.039194738143524,-1.97009001186706,0.0890126683845589,,-1.6019196528767987,,
,8753.0,1591.0,5795.0,1986.0,2196.0,2995.0,1445.0,,,,0.039154051209226,-1.97026140204773,0.0889957361485487,,-1.6256853101442836,,
,8753.0,1589.0,5795.0,1983.0,2227.0,2996.0,1464.0,,,,0.0391414002550452,-1.97001187015847,0.0889869856464541,,-1.6314455073269278,,
,8756.0,1590.0,5796.0,1988.0,2218.0,3002.0,1461.0,,,,0.0391407835983137,-1.96988021959371,0.0890370498305509,,-1.6145492699911184,,
,8756.0,1590.0,5799.0,1987.0,2199.0,2990.0,1438.0,,,,0.0391629711692004,-1.97064303147525,0.0890027680238042,,-1.5705467111818823,,
,8757.0,1589.0,5798.0,1985.0,2209.0,2996.0,1426.0,,,,0.0392473745277218,-1.97033983697915,0.08903789629565,,-1.4955291653924703,,
,8756.0,1589.0,5798.0,1985.0,2198.0,2988.0,1439.0,,,,0.0391826103933023,-1.96987654142377,0.089059817992538,,-1.386466069285892,,
,8760.0,1590.0,5800.0,1987.0,2206.0,3001.0,1458.0,,,,0.0391805919416681,-1.96958947513176,0.0890213749073588,,-1.2415071713685586,,
,8761.0,1593.0,5802.0,1988.0,2193.0,3017.0,1459.0,,,,0.0392974976052092,-1.9696644850007,0.089049504592243,,-1.0602208883148057,,
,8766.0,1593.0,5801.0,1989.0,2189.0,3020.0,1459.0,,,,0.0392204437344139,-1.96932993660808,0.0890661249351847,,-0.8437460549070689,,
,8766.0,1593.0,5804.0,1990.0,2202.0,3008.0,1435.0,,,,0.0392642134665972,-1.96921887205781,0.0890600565539919,,-0.5948440202396329,,
,8767.0,1591.0,5805.0,1990.0,2205.0,2997.0,1458.0,,,,0.0392792380262414,-1.96936703979648,0.0890247934220108,,-0.3178496257069272,,
,8770.0,1593.0,5804.0,1990.0,2206.0,3009.0,1464.0,,,,0.0392420660310531,-1.96988664600917,0.0890721507233669,,-0.01853076830158088,,
,8772.0,1593.0,5806.0,1992.0,2197.0,3010.0,1461.0,,,,0.0393390808864007,-1.96945267482958,0.0891028339945782,,0.29612592580723707,,
,8775.0,1595.0,5812.0,1995.0,2204.0,3013.0,1473.0,,,,0.0393158749431798,-1.9693628358313,0.0890325360220358,,0.6181834952022727,,
,8775.0,1594.0,5812.0,1994.0,2216.0,3015.0,1447.0,,,,0.0392969757010089,-1.96915874304175,0.0890831541085553,,0.9390603689665326,,
,8777.0,1596.0,5813.0,1995.0,2225.0,3005.0,1467.0,,,,0.0393020590623137,-1.96940209990365,0.089044475807614,,1.2498625229434535,,
,8781.0,1594.0,5816.0,1997.0,2226.0,3009.0,1444.0,,,,0.0392471618614574,-1.96936911478577,0.0890867574733381,,1.5417360878903887,,
,8783.0,1595.0,5819.0,1995.0,2220.0,3017.0,1435.0,,,,0.0392381142186699,-1.96949404132116,0.0890438865748806,,1.80623563436157,,
,8785.0,1595.0,5818.0,1996.0,2210.0,2994.0,1450.0,,,,0.0392491536754321,-1.96935303870094,0.0890679152186642,,2.035699931277337,,
,8790.0,1597.0,5822.0,1997.0,2186.0,2998.0,1454.0,,,,0.0392727352430743,-1.96959943780963,0.089036130703823,,2.223619892774795,,
,8792.0,1598.0,5824.0,1998.0,2194.0,3007.0,1469.0,,,,0.039221307542196,-1.96963158047315,0.089054449469338,,2.3649750172391344,,
,8796.0,1596.0,5827.0,2000.0,2213.0,3011.0,1443.0,,,,0.039194220062261,-1.96942986484078,0.0890596936088343,,2.45650789952745,,
,8799.0,1598.0,5828.0,1999.0,2207.0,3007.0,1448.0,,,,0.0392509809593565,-1.96948804588189,0.0890007089741251,,2.496904286791172,,
,8796.0,1601.0,5829.0,2000.0,2208.0,3004.0,1455.0,,,,0.039193314637138,-1.96937644323589,0.0890573990980805,,2.4868506461232567,,
,8803.0,1598.0,5829.0,2002.0,2212.0,2992.0,1445.0,,,,0.0392525391845659,-1.96935964252899,0.0890589521830885,,2.4289527704681273,,
,8806.0,1601.0,5835.0,2004.0,2215.0,2996.0,1435.0,,,,0.0391932598054127,-1.96939821685014,0.0890676081071673,,2.3275161109358353,,
,8808.0,1601.0,5838.0,2006.0,2217.0,3008.0,1434.0,,,,0.0392442658061944,-1.96934923970952,0.0890615168116216,,2.1882078207588394,,
,8810.0,1602.0,5838.0,2004.0,2217.0,3000.0,1423.0,,,,0.0393201172412886,-1.96904645163049,0.0890748257084935,,2.0176371805447224,,
,8814.0,1601.0,5841.0,2004.0,2217.0,2995.0,1460.0,,,,0.0392907829883824,-1.96922855998001,0.0890420935239411,,1.8229009721811,,
,8817.0,1602.0,5841.0,2005.0,2216.0,3009.0,1465.0,,,,0.0392987684019451,-1.96867358383947,0.0890692641954563,,1.6111416570760015,,
,8820.0,1605.0,5846.0,2007.0,2216.0,3009.0,1458.0,,,,0.0392734136284135,-1.96884623018505,0.0890716424499851,,1.389159638481921,,
,8820.0,1602.0,5846.0,2007.0,2215.0,3013.0,1448.0,,,,0.0393053758082905,-1.96886875395466,0.0890566711745854,,1.1631087193897771,,
,8825.0,1603.0,5850.0,2008.0,2224.0,3005.0,1457.0,,,,0.0394466665229538,-1.96856780304089,0.0890978765278315,,0.9382889894263651,,
,8830.0,1605.0,5852.0,2010.0,2223.0,3003.0,1480.0,,,,0.0393997621933038,-1.96840952226087,0.0890550966196948,,0.7190368319494591,,
,8830.0,1609.0,5853.0,2010.0,2239.0,3001.0,1460.0,,,,0.0393726197185936,-1.9682710806855,0.0890800123666833,,0.5087001975359061,,
,8834.0,1605.0,5857.0,2012.0,2238.0,3001.0,1458.0,,,,0.0394288509816302,-1.96825696363458,0.0891175171350928,,0.3096803791952739,,
,8837.0,1606.0,5858.0,2013.0,2239.0,2997.0,1469.0,,,,0.0394449374066273,-1.96845207346191,0.0890913933016984,,0.12351960826927386,,
,8835.0,1609.0,5859.0,2012.0,2251.0,3012.0,1443.0,,,,0.0394018001936118,-1.96842205606016,0.0891157639006496,,-0.048983945427674994,,
,8838.0,1608.0,5861.0,2014.0,2234.0,3015.0,1442.0,,,,0.0394691979130956,-1.96827586959278,0.0891132496030148,,-0.2076475094754787,,
,8837.0,1608.0,5861.0,2014.0,2223.0,3010.0,1451.0,,,,0.0394641499298668,-1.96829210461175,0.0890996150517991,,-0.3527701945997041,,
,8833.0,1605.0,5858.0,2011.0,2209.0,3015.0,1450.0,,,,0.039444559528296,-1.9681520449174,0.0891481782430703,,-0.484999892573012,,
,8833.0,1607.0,5859.0,2012.0,2200.0,3015.0,1457.0,,,,0.0395115380516671,-1.9678734272884,0.0890947107718514,,-0.6052042402778262,,
,8831.0,1606.0,5853.0,2009.0,2207.0,2999.0,1470.0,,,,0.0392952678055246,-1.96773088015761,0.0890973813547262,,-0.7143494551787241,,
,8826.0,1603.0,5849.0,2009.0,2193.0,2984.0,1473.0,,,,0.0394812667737784,-1.96786103456797,0.0890888290346399,,-0.8133922280008329,,
,8820.0,1604.0,5847.0,2008.0,2185.0,2980.0,1475.0,,,,0.0395055751769025,-1.96774153972801,0.0891158971558872,,-0.9031915670901897,,
,8815.0,1600.0,5845.0,2003.0,2179.0,2982.0,1473.0,,,,0.039395339649663,-1.96786665043789,0.0890842469855747,,-0.9844483320556755,,
,8810.0,1602.0,5842.0,2004.0,2189.0,2994.0,1477.0,,,,0.039381128268289,-1.9681385036286,0.0891105947547183,,-1.0576792187741482,,
,8805.0,1600.0,5837.0,2002.0,2182.0,2999.0,1460.0,,,,0.0394999241158413,-1.96790663648058,0.0891039920489102,,-1.1232288555151804,,
,8802.0,1597.0,5834.0,2000.0,2184.0,2993.0,1449.0,,,,0.0393071098373846,-1.96818259590131,0.089113898282804,,-1.181318700968432,,
,8795.0,1597.0,5830.0,2000.0,2203.0,2985.0,1441.0,,,,0.0391597178842605,-1.96845023022626,0.0890947425411792,,-1.2321253294537045,,
,8797.0,1597.0,5826.0,1999.0,2206.0,2996.0,1433.0,,,,0.0392118755347212,-1.96945378084116,0.0890597126774464,,-1.2758747082992254,,
,8793.0,1597.0,5827.0,2000.0,2216.0,3006.0,1413.0,,,,0.0390937905652889,-1.96973282845346,0.0890443271983519,,-1.3129347704973966,,
,8791.0,1600.0,5824.0,1997.0,2228.0,3005.0,1428.0,,,,0.0391746228758733,-1.97032855690035,0.0890250084261635,,-1.3438872227939205,,
,8787.0,1596.0,5824.0,1997.0,2245.0,3014.0,1434.0,,,,0.0392084679610525,-1.97025095463299,0.0890263951486784,,-1.3695616912041502,,
,8789.0,1597.0,5821.0,1997.0,2249.0,3007.0,1433.0,,,,0.0392485085747012,-1.9698980774716,0.0889937528074916,,-1.3910208500310886,,
,8788.0,1596.0,5825.0,1998.0,2214.0,3018.0,1432.0,,,,0.0391665588332633,-1.97042411274719,0.0890103289788317,,-1.409493196102114,,
,8785.0,1597.0,5822.0,1999.0,2215.0,3004.0,1453.0,,,,0.0391675122519677,-1.97047737330745,0.0890126407529287,,-1.4262589853242558,,
,8787.0,1597.0,5822.0,1996.0,2223.0,3010.0,1457.0,,,,0.0391496726788715,-1.97018061933502,0.0889950769969169,,-1.4425026323364454,,
,8784.0,1596.0,5822.0,1997.0,2227.0,3018.0,1450.0,,,,0.0391592703660916,-1.97048644345116,0.0889905525725076,,-1.4591500525530567,,
,8787.0,1597.0,5822.0,1998.0,2225.0,3028.0,1454.0,,,,0.0390993010761809,-1.97060603716362,0.089006209459915,,-1.4767112371568212,,
,8786.0,1596.0,5821.0,2000.0,2212.0,3020.0,1462.0,,,,0.0390267902253392,-1.97081541028147,0.0889961908560992,,-1.4951468567705666,,
,8788.0,1598.0,5824.0,1999.0,2204.0,3015.0,1451.0,,,,0.0390793689901331,-1.97074638460773,0.0889733613511935,,-1.5137737107465865,,
,8788.0,1596.0,5824.0,2001.0,2205.0,3000.0,1436.0,,,,0.0391458581925522,-1.97072219643701,0.0889456357457923,,-1.5312187128984558,,
,8791.0,1596.0,5823.0,2000.0,2206.0,3006.0,1449.0,,,,0.0391402880460029,-1.97097511845561,0.0889578264330899,,-1.545426113502389,,
,8795.0,1597.0,5829.0,2002.0,2206.0,2997.0,1460.0,,,,0.0391896616395982,-1.97107082944066,0.0889628399080876,,-1.5537185094675188,,
,8796.0,1598.0,5828.0,2004.0,2199.0,2998.0,1462.0,,,,0.039175438623189,-1.97112136838168,0.0889958908648946,,-1.5529089792496988,,
,8795.0,1598.0,5830.0,2003.0,2202.0,3022.0,1456.0,,,,0.0391504466000831,-1.97097222852503,0.0889558679242606,,-1.53945914067637,,
,8799.0,1600.0,5832.0,2004.0,2203.0,3013.0,1457.0,,,,0.0391192213866293,-1.97105557680316,0.0890153537217293,,-1.5096757329026693,,
,8798.0,1600.0,5831.0,2007.0,2207.0,3020.0,1461.0,,,,0.0391822775783016,-1.97100727217256,0.08896800778493,,-1.4599362706147834,,
,8802.0,1601.0,5834.0,2004.0,2218.0,3010.0,1437.0,,,,0.0391165670780874,-1.97073363518536,0.0890264076246396,,-1.3869324330230806,,
,8800.0,1602.0,5834.0,2005.0,2226.0,3009.0,1440.0,,,,0.0390949755699673,-1.97068511990052,0.0889529842709196,,-1.287918162488672,,
,8800.0,1599.0,5836.0,2003.0,2202.0,2999.0,1469.0,,,,0.0391595077143423,-1.97057048939381,0.0889797763067718,,-1.1609477422716643,,
,8803.0,1600.0,5836.0,2006.0,2202.0,2999.0,1474.0,,,,0.0391277026036697,-1.97049956322194,0.0889597285149561,,-1.0050871903109921,,
,8805.0,1601.0,5837.0,2006.0,2187.0,3001.0,1446.0,,,,0.0391381528648102,-1.97050473737847,0.0889889025002177,,-0.820580631004134,,
,8804.0,1600.0,5836.0,2004.0,2196.0,3003.0,1466.0,,,,0.0390949216621842,-1.97079455367828,0.0889740635865151,,-0.6089532733215403,,
,8803.0,1601.0,5835.0,2004.0,2211.0,2995.0,1456.0,,,,0.0391424798494443,-1.97065448717091,0.088993422414771,,-0.37303566101261726,,
,8802.0,1601.0,5835.0,2006.0,2199.0,3001.0,1479.0,,,,0.0390820110535718,-1.97079248802849,0.0890022980766255,,-0.11690035118643144,,
,8805.0,1600.0,5834.0,2007.0,2213.0,3010.0,1456.0,,,,0.0391019404201,-1.97033231037431,0.0889916600420455,,0.15428874977108067,,
,8802.0,1600.0,5837.0,2007.0,2205.0,3012.0,1459.0,,,,0.0391139044787753,-1.97069098477591,0.0890114747144968,,0.4345040934682336,,
,8805.0,1602.0,5836.0,2009.0,2191.0,3012.0,1435.0,,,,0.0390343289887093,-1.9709664657802,0.0889698984755761,,0.7171396948546791,,
,8804.0,1601.0,5836.0,2006.0,2214.0,2997.0,1427.0,,,,0.0390913260887959,-1.97060424360869,0.0889684108969435,,0.9953276356775121,,
,8806.0,1600.0,5836.0,2007.0,2197.0,3002.0,1427.0,,,,0.0390657565439551,-1.97129435204851,0.0889745247729912,,1.2622569377265573,,
,8805.0,1600.0,5837.0,2005.0,2209.0,2987.0,1447.0,,,,0.0391474226892174,-1.97091645061007,0.0889856213193899,,1.5114676556152553,,
,8805.0,1602.0,5839.0,2009.0,2216.0,2997.0,1447.0,,,,0.0390657896043451,-1.97085055439688,0.0889551865054541,,1.7370990774005952,,
,8806.0,1598.0,5837.0,2008.0,2211.0,2998.0,1437.0,,,,0.0390334473335022,-1.9709333123816,0.0889899504654037,,1.9340802139866602,,
,8806.0,1601.0,5839.0,2007.0,2213.0,2993.0,1439.0,,,,0.0390896154641458,-1.97062546673043,0.0890030850981448,,2.0982614962685155,,
,8808.0,1601.0,5842.0,2009.0,2214.0,3016.0,1446.0,,,,0.0390091459294875,-1.97063386912938,0.0889789836664643,,2.22649615322706,,
,8811.0,1603.0,5842.0,2009.0,2221.0,3013.0,1445.0,,,,0.0391554856253169,-1.97053604107851,0.0890003650766379,,2.3166852915728096,,
,8812.0,1602.0,5844.0,2009.0,2209.0,3009.0,1439.0,,,,0.0390918043996487,-1.97053226412964,0.0890261574617935,,2.3678006173802713,,
,8812.0,1601.0,5844.0,2011.0,2225.0,3008.0,1453.0,,,,0.0390642710459789,-1.97029327804613,0.0889864158805896,,2.379893619024151,,
,8817.0,1600.0,5845.0,2012.0,2208.0,3014.0,1446.0,,,,0.0391078276952811,-1.97060699007866,0.0890114986783366,,2.3540922029850058,,
,8816.0,1604.0,5846.0,2011.0,2211.0,3004.0,1438.0,,,,0.0391183611778082,-1.96992067944757,0.0889872764837357,,2.2925780070514454,,
,8818.0,1604.0,5848.0,2014.0,2218.0,2996.0,1493.0,,,,0.039007909938308,-1.97069865052131,0.0889917001037405,,2.198532203196354,,
,8821.0,1606.0,5851.0,2011.0,2215.0,3010.0,1484.0,,,,0.0391026881296577,-1.97061430268818,0.0890119969458277,,2.076036078843438,,
,8826.0,1603.0,5852.0,2014.0,2213.0,3005.0,1476.0,,,,0.0391478550131647,-1.97076787250919,0.0889757137326478,,1.9299156747690427,,
,8826.0,1607.0,5853.0,2015.0,2197.0,3003.0,1479.0,,,,0.0390616650295567,-1.97049594927885,0.0889625394118591,,1.7655268763978653,,
,8829.0,1606.0,5854.0,2014.0,2204.0,3006.0,1474.0,,,,0.0390701286661208,-1.97105295967543,0.0889804700166152,,1.5884873497124192,,
,8830.0,1608.0,5856.0,2016.0,2221.0,3000.0,1472.0,,,,0.0390768253154144,-1.97062777218212,0.088983733728028,,1.4043727323434745,,
,8834.0,1606.0,5859.0,2016.0,2209.0,2999.0,1451.0,,,,0.0390653780901695,-1.97099420051738,0.0889757493324353,,1.2184042586055455,,
,8836.0,1608.0,5863.0,2017.0,2204.0,2984.0,1456.0,,,,0.0390999312370917,-1.97077577002015,0.0889863130007156,,1.0351610590777214,,
2025-07-17 17:21:04,8840.0,1608.0,5864.0,2020.0,2201.0,2995.0,1440.0,,,2025/07/17 05:21:04 PM,0.0391923925071016,-1.97060029979687,0.0889753601088006,,0.8583507535490202,,
,8843.0,1607.0,5863.0,2017.0,2190.0,3007.0,1420.0,,,,0.0390997547399191,-1.97066304365462,0.0889802943011126,,0.6906659528150877,,
,8844.0,1610.0,5865.0,2018.0,2210.0,3005.0,1439.0,,,,0.0391289308843259,-1.97082186163826,0.089002212621905,,0.5337427552578451,,
,8845.0,1611.0,5870.0,2022.0,2221.0,2996.0,1443.0,,,,0.0391400878572205,-1.97049077348512,0.0889903491244408,,0.3882223715261621,,
,8849.0,1612.0,5870.0,2024.0,2212.0,3013.0,1431.0,,,,0.0391887728914832,-1.97071438725191,0.089007229905861,,0.2539015808451537,,
,8851.0,1612.0,5872.0,2022.0,2206.0,3021.0,1430.0,,,,0.0391908250606911,-1.97082464393187,0.088968176290221,,0.12994512131482938,,
,8851.0,1610.0,5870.0,2020.0,2203.0,3014.0,1409.0,,,,0.0391756908648434,-1.97039464167908,0.0889687630693921,,0.015126111733036294,,
,8856.0,1614.0,5874.0,2023.0,2194.0,3012.0,1433.0,,,,0.039211382671317,-1.97034708097674,0.089004548887713,,-0.09193963948569034,,
,8859.0,1613.0,5877.0,2025.0,2197.0,3007.0,1451.0,,,,0.0391259044191781,-1.97021437146657,0.0889741756272965,,-0.19259387992511662,,
,8863.0,1614.0,5880.0,2026.0,2196.0,3009.0,1447.0,,,,0.03915980805327,-1.97031343127466,0.0890253577107759,,-0.28798965061858295,,
,8863.0,1611.0,5880.0,2026.0,2210.0,3007.0,1461.0,,,,0.0391234538830726,-1.97011006388883,0.0890063856792027,,-0.37900657734713905,,
,8866.0,1613.0,5882.0,2027.0,2192.0,3014.0,1462.0,,,,0.0391786061349057,-1.97012411183502,0.088982047104238,,-0.4662256188350169,,
,8868.0,1615.0,5884.0,2028.0,2196.0,2995.0,1465.0,,,,0.039121077458755,-1.97003882791793,0.0889883729260647,,-0.5499532530655166,,
,8869.0,1613.0,5887.0,2029.0,2195.0,2986.0,1472.0,,,,0.0391520981658431,-1.97025511704667,0.0889716016672367,,-0.6302802445908723,,
,8875.0,1616.0,5886.0,2029.0,2215.0,2972.0,1465.0,,,,0.0391905519077464,-1.96981956765238,0.0890089865227662,,-0.7071585799014262,,
,8878.0,1618.0,5890.0,2029.0,2207.0,2987.0,1459.0,,,,0.0391776777959321,-1.96950688351552,0.0889966040713364,,-0.7804815593016692,,
,8880.0,1617.0,5893.0,2032.0,2226.0,3002.0,1470.0,,,,0.03915682485872,-1.96991450740547,0.0889793805018112,,-0.8501555654645554,,
,8881.0,1618.0,5894.0,2033.0,2220.0,3003.0,1474.0,,,,0.0392031469728184,-1.96984773902658,0.0890247270239235,,-0.9161564337385254,,
,8880.0,1617.0,5894.0,2032.0,2220.0,3011.0,1461.0,,,,0.0391596609558906,-1.96963276034321,0.0889995524136368,,-0.9785673333056156,,
,8879.0,1614.0,5892.0,2029.0,2242.0,3002.0,1430.0,,,,0.0391475421697823,-1.96953963225978,0.0890370453052275,,-1.0375977728892356,,
,8876.0,1616.0,5894.0,2029.0,2226.0,3015.0,1438.0,,,,0.039264251346865,-1.96947502252149,0.0890247616565359,,-1.0935844402145054,,
,8872.0,1617.0,5888.0,2028.0,2199.0,3025.0,1440.0,,,,0.0392081173320412,-1.96937946538342,0.089017203526393,,-1.146974105581508,,
,8872.0,1615.0,5888.0,2026.0,2193.0,3022.0,1443.0,,,,0.039316384505588,-1.96948273494456,0.0890489463257674,,-1.1982872462786631,,
,8863.0,1612.0,5884.0,2023.0,2190.0,3012.0,1461.0,,,,0.0392586959348302,-1.96920010457656,0.089040055826471,,-1.2480595267626224,,
,8861.0,1614.0,5881.0,2025.0,2189.0,3016.0,1455.0,,,,0.0392502910089551,-1.96931516912597,0.0890286795219882,,-1.2967582926310792,,
,8855.0,1614.0,5878.0,2023.0,2176.0,2998.0,1440.0,,,,0.0391463912145116,-1.96928424310476,0.0890285445405827,,-1.344673761964778,,
,8851.0,1612.0,5872.0,2021.0,2187.0,3005.0,1424.0,,,,0.0392221621083764,-1.96952280465407,0.0890133291103943,,-1.3917894724786055,,
,8846.0,1608.0,5868.0,2019.0,2201.0,3007.0,1436.0,,,,0.0391948936349553,-1.96962949252457,0.0890113075094978,,-1.4376426740962542,,
,8842.0,1606.0,5865.0,2017.0,2183.0,3003.0,1435.0,,,,0.0391109667888006,-1.9696222779032,0.0890335291369357,,-1.4811912139567376,,
,8840.0,1610.0,5865.0,2018.0,2187.0,3006.0,1440.0,,,,0.0391285357407015,-1.96981714094426,0.0889819191730808,,-1.5207075502273761,,
,8837.0,1607.0,5862.0,2017.0,2212.0,2994.0,1451.0,,,,0.0390670430361307,-1.97049546750053,0.088972021290161,,-1.5537217921216868,,
,8835.0,1610.0,5858.0,2015.0,2212.0,2996.0,1435.0,,,,0.0390335160103962,-1.97082284735854,0.08896319658909,,-1.5770336587775176,,
,8833.0,1606.0,5853.0,2012.0,2210.0,3009.0,1424.0,,,,0.0390016301703101,-1.97091782571953,0.088946874306818,,-1.586808015546217,,
,8830.0,1606.0,5855.0,2016.0,2227.0,2987.0,1421.0,,,,0.0389067535315858,-1.971201850721,0.0889829844163481,,-1.5787604129503683,,
,8831.0,1606.0,5852.0,2018.0,2224.0,2984.0,1418.0,,,,0.0389402135031899,-1.97152824941993,0.0889495081192902,,-1.5484282678952261,,
,8827.0,1606.0,5852.0,2015.0,2220.0,2999.0,1418.0,,,,0.0389088825766419,-1.9717890463929,0.0889252433440127,,-1.4915110675450984,,
,8829.0,1607.0,5855.0,2015.0,2218.0,3000.0,1431.0,,,,0.0389223500630035,-1.97150985322166,0.0889360142461014,,-1.4042511753885853,,
,8829.0,1604.0,5851.0,2015.0,2199.0,3014.0,1432.0,,,,0.0388993712862641,-1.97173940384513,0.088870563148824,,-1.2838177737084324,,
,8828.0,1605.0,5854.0,2014.0,2193.0,3015.0,1454.0,,,,0.0388391326663453,-1.97148007311068,0.088876143165365,,-1.1286520994932567,,
,8828.0,1607.0,5853.0,2016.0,2195.0,3026.0,1454.0,,,,0.0388959450824239,-1.97247811759782,0.0888897090786915,,-0.9387336621695346,,
,8828.0,1605.0,5853.0,2016.0,2213.0,3020.0,1452.0,,,,0.0389157064337096,-1.9719081627523,0.0889038201222479,,-0.7157351101477955,,
,8829.0,1606.0,5855.0,2017.0,2198.0,3019.0,1455.0,,,,0.0387937270931812,-1.97201920126078,0.0889120641620383,,-0.46304721703273943,,
,8836.0,1607.0,5857.0,2018.0,2204.0,3011.0,1475.0,,,,0.0388500321699921,-1.97267131235344,0.0888931366552577,,-0.18567262477884477,,
,8832.0,1607.0,5857.0,2019.0,2193.0,2997.0,1441.0,,,,0.0387705922122357,-1.97223191079038,0.0888976796231606,,0.1099965782263789,,
,8836.0,1607.0,5858.0,2019.0,2202.0,2986.0,1430.0,,,,0.0387389032163508,-1.97251728212359,0.0888758824322553,,0.4164907180232687,,
,8832.0,1606.0,5859.0,2017.0,2219.0,2994.0,1468.0,,,,0.0388268787130749,-1.97261244026601,0.0889217991183718,,0.7256323002386222,,
,8836.0,1608.0,5859.0,2021.0,2211.0,3011.0,1484.0,,,,0.0387745400755423,-1.97264515463911,0.0888930815699063,,1.02893359366457,,
,8838.0,1611.0,5864.0,2020.0,2213.0,3014.0,1469.0,,,,0.0387500078919189,-1.97209258574683,0.0888627973995883,,1.3179974717330625,,
,8837.0,1610.0,5861.0,2022.0,2213.0,3009.0,1465.0,,,,0.0387816190060461,-1.97204289039848,0.0889199392321167,,1.5849039589409846,,
,8842.0,1610.0,5864.0,2020.0,2203.0,3006.0,1462.0,,,,0.0388463096507137,-1.97261146245543,0.0889013060276868,,1.8225708583515632,,
,8840.0,1610.0,5866.0,2020.0,2185.0,3016.0,1454.0,,,,0.0387960023193392,-1.9719848978283,0.0888947743951274,,2.0250795702114313,,
,8840.0,1611.0,5865.0,2021.0,2197.0,3010.0,1479.0,,,,0.0387798645481241,-1.97203095918121,0.0889182442929011,,2.1879558841755586,,
,8845.0,1612.0,5865.0,2023.0,2193.0,3008.0,1484.0,,,,0.038770740647653,-1.97231562450223,0.0888964044955849,,2.3083910382693262,,
,8841.0,1609.0,5865.0,2023.0,2186.0,2997.0,1476.0,,,,0.0387952534733507,-1.97233341081339,0.0889143180452732,,2.3853831471398523,,
,8844.0,1609.0,5865.0,2020.0,2189.0,2991.0,1475.0,,,,0.0388049677960462,-1.97223171083238,0.0888971277137166,,2.419776535901137,,
,8845.0,1611.0,5867.0,2022.0,2198.0,2989.0,1470.0,,,,0.0387596518661318,-1.97166287264817,0.0888744650213297,,2.41417964032173,,
,8843.0,1611.0,5866.0,2022.0,2185.0,2996.0,1453.0,,,,0.0387926752007272,-1.97179399709129,0.0888953349165446,,2.3727523205048184,,
,8846.0,1610.0,5867.0,2022.0,2193.0,3002.0,1451.0,,,,0.0386993059839825,-1.97162235951566,0.0888930791116084,,2.300869414598211,,
,8843.0,1608.0,5866.0,2021.0,2207.0,3003.0,1447.0,,,,0.0387791996888057,-1.97188317006035,0.0889044456254181,,2.2046856290219483,,
,8843.0,1609.0,5867.0,2022.0,2190.0,2989.0,1455.0,,,,0.0387325204832684,-1.9721258318601,0.0888865025850129,,2.0906431878564526,,
,8844.0,1612.0,5867.0,2023.0,2207.0,3002.0,1448.0,,,,0.038675586447682,-1.97195049013227,0.0888970950892851,,1.9649744450254654,,
,8844.0,1611.0,5865.0,2023.0,2198.0,3002.0,1454.0,,,,0.0387614649290625,-1.97209569782989,0.0888851040018362,,1.8332545263689723,,
,8845.0,1609.0,5866.0,2023.0,2216.0,3004.0,1473.0,,,,0.0386631257669118,-1.97223541667226,0.0889174222980347,,1.7000531815596174,,
,8845.0,1609.0,5867.0,2023.0,2205.0,3003.0,1458.0,,,,0.0387616474153739,-1.97222772253179,0.0889180894704094,,1.5687213353240426,,
,8846.0,1610.0,5866.0,2024.0,2209.0,3003.0,1419.0,,,,0.0387514752178449,-1.9719796021895,0.0889177830809399,,1.4413287790919094,,
,8846.0,1611.0,5866.0,2023.0,2211.0,2997.0,1425.0,,,,0.0388099891154862,-1.97200492307735,0.0889273263480998,,1.3187482752051296,,
,8844.0,1612.0,5868.0,2024.0,2218.0,3007.0,1443.0,,,,0.038780564568492,-1.97202192692537,0.0889447437813793,,1.2008615379296657,,
,8849.0,1610.0,5867.0,2024.0,2194.0,3014.0,1458.0,,,,0.0387287039134788,-1.97179355155862,0.0888942122603471,,1.086847383115186,,
,8850.0,1612.0,5871.0,2027.0,2198.0,3006.0,1453.0,,,,0.0387188792660853,-1.97206758664278,0.0889609903591359,,0.9755041967386323,,
,8852.0,1612.0,5873.0,2028.0,2210.0,3013.0,1454.0,,,,0.0386840509029713,-1.97181824829117,0.0889348525731622,,0.865558726824932,,
,8856.0,1615.0,5873.0,2028.0,2206.0,3013.0,1443.0,,,,0.0386842723502652,-1.97179863194598,0.0889029796879825,,0.7559205978506203,,
,8855.0,1614.0,5872.0,2026.0,2200.0,3021.0,1438.0,,,,0.0386922495753994,-1.97223688568404,0.0889171674793166,,0.6458553039424292,,
,8858.0,1615.0,5874.0,2027.0,2206.0,3015.0,1457.0,,,,0.0387165647619303,-1.97173617999759,0.0889372485534367,,0.5350651255220379,,
,8858.0,1614.0,5875.0,2029.0,2208.0,3011.0,1442.0,,,,0.0386754849253347,-1.97171424708749,0.0889204017651106,,0.4236838585969411,,
,8863.0,1619.0,5880.0,2031.0,2211.0,3011.0,1460.0,,,,0.0387518162777025,-1.97220858833163,0.0889549550919675,,0.31220389696398154,,
,8865.0,1615.0,5877.0,2029.0,2201.0,3004.0,1440.0,,,,0.0387402050349274,-1.97181695730616,0.0889296975010398,,0.20136106797412504,,
,8867.0,1616.0,5880.0,2030.0,2191.0,3008.0,1433.0,,,,0.038717897278861,-1.97152505636009,0.088953044775547,,0.09200377791972696,,
,8869.0,1617.0,5884.0,2031.0,2196.0,3016.0,1444.0,,,,0.0387962885376196,-1.97168552142309,0.0889600919453355,,-0.015030281042519151,,
,8870.0,1617.0,5883.0,2033.0,2203.0,3014.0,1445.0,,,,0.0387530015720565,-1.97165998551485,0.0889021597465398,,-0.11901294511431718,,
,8873.0,1617.0,5887.0,2033.0,2205.0,2992.0,1455.0,,,,0.0387365439622509,-1.97192778352878,0.0889105410037929,,-0.21939086559242765,,
,8873.0,1619.0,5885.0,2031.0,2202.0,3001.0,1451.0,,,,0.0387918885448428,-1.97178928540446,0.0889185504544483,,-0.3158159871369211,,
,8877.0,1620.0,5888.0,2035.0,2204.0,3005.0,1446.0,,,,0.0389477764061906,-1.97117672351978,0.0889454893338654,,-0.40814615945860616,,
,8882.0,1622.0,5892.0,2036.0,2208.0,2992.0,1443.0,,,,0.03877355719911,-1.9716879685493,0.0889178667483977,,-0.4964245996783581,,
,8882.0,1621.0,5892.0,2037.0,2208.0,2999.0,1447.0,,,,0.0387473171218639,-1.9710132929592,0.0889434698610085,,-0.5808479058174669,,
,8884.0,1619.0,5891.0,2035.0,2205.0,3006.0,1453.0,,,,0.038795458955204,-1.9714041171273,0.0889565933486462,,-0.6617306911732167,,
,8888.0,1621.0,5895.0,2037.0,2209.0,3014.0,1450.0,,,,0.0388104448340878,-1.97098098901305,0.0889251761448545,,-0.7394715188275245,,
,8891.0,1622.0,5899.0,2039.0,2201.0,3002.0,1463.0,,,,0.0388699674238016,-1.97092152393013,0.0889419123181587,,-0.8145211468448712,,
,8893.0,1620.0,5900.0,2039.0,2200.0,2999.0,1460.0,,,,0.0389251861861829,-1.97131127610666,0.0889616122073653,,-0.8873516197759423,,
,8895.0,1621.0,5900.0,2038.0,2224.0,2998.0,1460.0,,,,0.0389101292077217,-1.97095975846991,0.088948185231876,,-0.958424167750676,,
,8899.0,1624.0,5904.0,2040.0,2189.0,3010.0,1473.0,,,,0.0389100462718441,-1.97120981518958,0.088933934975246,,-1.0281549873936928,,
,8902.0,1625.0,5906.0,2041.0,2202.0,3007.0,1456.0,,,,0.0389156253960631,-1.97127455767954,0.0889735086968762,,-1.096879994129471,,
,8902.0,1625.0,5907.0,2041.0,2203.0,2999.0,1467.0,,,,0.0389322152015831,-1.97098598570536,0.0889509320819435,,-1.1648215570435851,,
,8905.0,1625.0,5907.0,2043.0,2182.0,3012.0,1449.0,,,,0.0389460448396407,-1.9714829078126,0.0889637762167058,,-1.2320611725044546,,
,8906.0,1623.0,5911.0,2042.0,2185.0,3010.0,1456.0,,,,0.0389900377955599,-1.97047502148536,0.088940439760716,,-1.2985215935742835,,
,8909.0,1625.0,5914.0,2046.0,2213.0,3016.0,1483.0,,,,0.0390023108807544,-1.97083847776124,0.0889320405300148,,-1.3639603173537695,,
,8912.0,1627.0,5912.0,2046.0,2204.0,3007.0,1480.0,,,,0.038943714805435,-1.97070646216656,0.088933638692905,,-1.4279741133729256,,
,8917.0,1628.0,5919.0,2047.0,2198.0,3005.0,1474.0,,,,0.0390283991612276,-1.97025052975534,0.0889490190630368,,-1.4900120074082879,,
,8915.0,1627.0,5917.0,2048.0,2186.0,2992.0,1472.0,,,,0.0389596866957891,-1.97036376722789,0.088977431094816,,-1.5493922088242043,,
,8920.0,1626.0,5921.0,2049.0,2195.0,2998.0,1470.0,,,,0.0389861166483891,-1.9705718141373,0.0889591511618577,,-1.6053172327162277,,
,8923.0,1627.0,5921.0,2047.0,2199.0,3003.0,1469.0,,,,0.0389730466996423,-1.97036971282106,0.0889570575187842,,-1.6568813292169682,,
,8925.0,1628.0,5924.0,2050.0,2201.0,3002.0,1451.0,,,,0.0390185640207927,-1.97046706095623,0.0889612994283016,,-1.703065666430259,,
,8926.0,1628.0,5926.0,2051.0,2204.0,2995.0,1433.0,,,,0.0391337014370807,-1.97044106972898,0.0889439293684935,,-1.7427196448945956,,
,8931.0,1630.0,5927.0,2051.0,2199.0,3008.0,1424.0,,,,0.0390665033201855,-1.97028881427721,0.0889718787022827,,-1.7745309172444454,,
,8930.0,1630.0,5926.0,2050.0,2224.0,3019.0,1428.0,,,,0.0389894794424524,-1.97034292367353,0.088973428259232,,-1.796991269374654,,
,8930.0,1630.0,5925.0,2050.0,2225.0,3009.0,1430.0,,,,0.0389492441928839,-1.96987268481598,0.0889545847691903,,-1.808369276687038,,
,8924.0,1628.0,5924.0,2048.0,2211.0,3006.0,1451.0,,,,0.0390483792448913,-1.96969497258471,0.0890021976569065,,-1.806702520006343,,
,8921.0,1627.0,5922.0,2045.0,2188.0,3012.0,1472.0,,,,0.0391460323681747,-1.96985526197448,0.0889932481870763,,-1.789821594705123,,
,8915.0,1625.0,5918.0,2046.0,2194.0,3019.0,1478.0,,,,0.0391126929004084,-1.96978081097137,0.0890171090209691,,-1.75541515302943,,
,8912.0,1627.0,5915.0,2044.0,2182.0,3010.0,1489.0,,,,0.0391464404224078,-1.96947728571603,0.0890188383225647,,-1.701140083900883,,
,8905.0,1627.0,5912.0,2041.0,2177.0,3011.0,1478.0,,,,0.0391443472775308,-1.96990232225351,0.0890132192421974,,-1.6247742369013627,,
,8901.0,1623.0,5907.0,2041.0,2179.0,3011.0,1452.0,,,,0.0390525682802524,-1.96965113912656,0.0890167625602653,,-1.5244018243626483,,
,8897.0,1625.0,5905.0,2041.0,2190.0,2997.0,1460.0,,,,0.0391180064026659,-1.9693345556781,0.0890009485289549,,-1.3986151121781036,,
,8893.0,1623.0,5901.0,2039.0,2194.0,2988.0,1476.0,,,,0.0390582349893379,-1.96954450209762,0.0890151060690089,,-1.2467114687896683,,
,8887.0,1619.0,5895.0,2036.0,2193.0,2994.0,1466.0,,,,0.0390799349791751,-1.97006672578706,0.0889942216098667,,-1.068863095651648,,
,8884.0,1621.0,5891.0,2033.0,2200.0,2990.0,1469.0,,,,0.039041605923807,-1.97034285667399,0.0889824651815313,,-0.8662383203153778,,
,8881.0,1620.0,5889.0,2036.0,2205.0,2986.0,1426.0,,,,0.0390007954033995,-1.97009101245675,0.0889942560500077,,-0.6410584474280548,,
,8878.0,1624.0,5889.0,2036.0,2219.0,2987.0,1446.0,,,,0.0389939923522604,-1.97111040449664,0.0889908434980566,,-0.3965823611086376,,
,8877.0,1619.0,5886.0,2035.0,2230.0,2994.0,1451.0,,,,0.0388218641835456,-1.97087407482507,0.0889600035633624,,-0.137020742635415,,
,8872.0,1616.0,5886.0,2034.0,2233.0,3007.0,1403.0,,,,0.0387814176174008,-1.97141211029327,0.0889543690547094,,0.1326094503513747,,
,8871.0,1619.0,5882.0,2034.0,2232.0,3007.0,1439.0,,,,0.038803836923546,-1.97129918726139,0.0889512568691347,,0.4066738139220269,,
,8874.0,1620.0,5883.0,2034.0,2250.0,2998.0,1450.0,,,,0.03882034751042,-1.97110912432991,0.0889625056301483,,0.6791345281673918,,
,8872.0,1620.0,5883.0,2036.0,2233.0,3016.0,1431.0,,,,0.0388316157319462,-1.97118879974846,0.0889593932905863,,0.9437738760911097,,
,8870.0,1619.0,5883.0,2034.0,2212.0,3017.0,1430.0,,,,0.0388320515138972,-1.97117558866719,0.0889506870179252,,1.1944169694294573,,
,8869.0,1617.0,5880.0,2034.0,2227.0,3019.0,1431.0,,,,0.0388996082046856,-1.97146460506122,0.0889461867062839,,1.4251498380438141,,
,8869.0,1618.0,5879.0,2035.0,2235.0,3013.0,1448.0,,,,0.0389017685188912,-1.97184162398582,0.0889380022508626,,1.6305338831963638,,
,8872.0,1620.0,5882.0,2037.0,2226.0,3014.0,1439.0,,,,0.0389025334999662,-1.97190756485753,0.0889186793810472,,1.8058187975511488,,
,8871.0,1618.0,5882.0,2037.0,2225.0,3010.0,1459.0,,,,0.0388051021869885,-1.97175004974143,0.0889699834396785,,1.9471526945601607,,
,8872.0,1616.0,5882.0,2037.0,2218.0,3007.0,1450.0,,,,0.0388509269661329,-1.97201584713361,0.0889257289398693,,2.0517812757036236,,
2025-07-17 17:21:05,8873.0,1620.0,5886.0,2036.0,2206.0,2998.0,1455.0,,,2025/07/17 05:21:05 PM,0.0387856544021083,-1.97209593563048,0.0889254975084335,,2.1182195791856397,,
,8876.0,1620.0,5886.0,2039.0,2186.0,3010.0,1452.0,,,,0.0388067971776062,-1.9717453986483,0.088945776300871,,2.1463731117627844,,
,8877.0,1619.0,5887.0,2040.0,2189.0,3007.0,1446.0,,,,0.0388732142298217,-1.97148751918963,0.0889441870345162,,2.1375828236482617,,
,8880.0,1620.0,5888.0,2041.0,2212.0,3004.0,1450.0,,,,0.0389375559646252,-1.97121111132483,0.0889531190784651,,2.0945722900175774,,
,8881.0,1620.0,5888.0,2040.0,2211.0,3015.0,1416.0,,,,0.0389708309346319,-1.97117601985613,0.0889668119894008,,2.0212858076268128,,
,8879.0,1624.0,5889.0,2042.0,2193.0,2997.0,1447.0,,,,0.0389848542155421,-1.97149022656892,0.0889782325940834,,1.9226213860282075,,
,8884.0,1623.0,5890.0,2040.0,2201.0,3015.0,1452.0,,,,0.0390324874932728,-1.970906870108,0.0889578753766378,,1.8040797956679708,,
,8886.0,1622.0,5891.0,2043.0,2190.0,3010.0,1478.0,,,,0.038994750781637,-1.97152858702456,0.0889591018165973,,1.6713658403016605,,
,8880.0,1621.0,5888.0,2040.0,2185.0,3010.0,1481.0,,,,0.0390072504517927,-1.97130976782493,0.0889632698345413,,1.5299868348949828,,
,8883.0,1622.0,5890.0,2041.0,2196.0,3024.0,1470.0,,,,0.039024523155983,-1.97170609657433,0.0889601953121953,,1.3848936522746762,,
,8885.0,1622.0,5894.0,2043.0,2204.0,3010.0,1477.0,,,,0.0390003983960684,-1.97120616274251,0.0889768938841376,,1.2402020326884524,,
,8885.0,1620.0,5892.0,2044.0,2200.0,3006.0,1489.0,,,,0.0390646290931032,-1.97126874123826,0.0889436877943726,,1.0990184290264278,,
,8880.0,1621.0,5888.0,2042.0,2185.0,3011.0,1482.0,,,,0.0390287499277053,-1.9707288038618,0.0889649528280753,,0.9633785073904818,,
,8885.0,1621.0,5892.0,2043.0,2190.0,2981.0,1482.0,,,,0.0389665308300908,-1.97118468070686,0.0889527561858958,,0.8342905983317314,,
,8883.0,1624.0,5891.0,2043.0,2200.0,2989.0,1468.0,,,,0.0390538990872545,-1.97100899329312,0.0889585663667385,,0.7118635896228929,,
,8881.0,1624.0,5891.0,2044.0,2203.0,3000.0,1458.0,,,,0.0389941213296841,-1.9715998047737,0.0889246027738474,,0.5954908090788631,,
,8883.0,1621.0,5887.0,2040.0,2222.0,2989.0,1460.0,,,,0.039048262587583,-1.97147122612443,0.0889697846982426,,0.48405911519194134,,
,8882.0,1621.0,5889.0,2042.0,2217.0,2998.0,1438.0,,,,0.0390209766327143,-1.97157271016884,0.0889862530663661,,0.3761554801010747,,
,8880.0,1622.0,5889.0,2046.0,2208.0,2994.0,1418.0,,,,0.0390253684036466,-1.9717273048465,0.0889855135869425,,0.2702507074582946,,
,8883.0,1622.0,5889.0,2045.0,2209.0,2997.0,1418.0,,,,0.0390094039589335,-1.97183932693468,0.088979292325164,,0.16484949940546237,,
,8883.0,1623.0,5889.0,2043.0,2235.0,3010.0,1430.0,,,,0.0389849167179385,-1.971142295315,0.0889387584610884,,0.058605223028263376,,
,8881.0,1624.0,5889.0,2042.0,2224.0,3005.0,1437.0,,,,0.0390044516796273,-1.97173917157708,0.0889804611999674,,-0.04959575495346045,,
,8884.0,1623.0,5887.0,2044.0,2204.0,3001.0,1435.0,,,,0.0389991602041445,-1.9711772813512,0.0889783231162088,,-0.16057237091669913,,
,8888.0,1623.0,5891.0,2047.0,2205.0,3015.0,1443.0,,,,0.038988079578828,-1.9708344309478,0.0889817742148949,,-0.2748025984923398,,
,8883.0,1623.0,5892.0,2046.0,2197.0,3023.0,1448.0,,,,0.0391273721005993,-1.97085293759462,0.0890174523333286,,-0.3923887727264245,,
,8884.0,1623.0,5889.0,2046.0,2209.0,3016.0,1447.0,,,,0.0390249542385484,-1.97093579869397,0.0889986676872473,,-0.513035470328006,,
,8889.0,1624.0,5893.0,2048.0,2216.0,2993.0,1455.0,,,,0.0390589449403361,-1.97003817891483,0.0890172474451577,,-0.6360453660974797,,
,8889.0,1622.0,5894.0,2048.0,2210.0,2998.0,1461.0,,,,0.03905168242545,-1.97048854320948,0.0890263130494542,,-0.7603408675152611,,
,8895.0,1627.0,5895.0,2047.0,2206.0,3003.0,1463.0,,,,0.0390788742061688,-1.97002722710212,0.0890162138468996,,-0.884518566912672,,
,8895.0,1623.0,5898.0,2048.0,2239.0,2998.0,1454.0,,,,0.0390134201858932,-1.97041870445806,0.0890531484396872,,-1.0069394915867287,,
,8893.0,1624.0,5894.0,2048.0,2215.0,3013.0,1456.0,,,,0.0390667613339458,-1.97041104562976,0.0889712201784859,,-1.125851647217728,,
,8899.0,1627.0,5901.0,2051.0,2214.0,3006.0,1438.0,,,,0.0391667488695649,-1.9702232878266,0.0889976367827925,,-1.2395342150399167,,
,8901.0,1626.0,5902.0,2053.0,2214.0,3011.0,1428.0,,,,0.0390349847244586,-1.97052142389745,0.0890254783659992,,-1.3464470590334008,,
,8901.0,1625.0,5900.0,2049.0,2203.0,3002.0,1419.0,,,,0.0390582631484141,-1.97043725106848,0.0890133752744764,,-1.4453664946315987,,
,8901.0,1623.0,5901.0,2050.0,2216.0,3007.0,1430.0,,,,0.0391281807718155,-1.97036518818374,0.0889781150831528,,-1.5354892264159856,,
,8905.0,1629.0,5907.0,2052.0,2209.0,2993.0,1452.0,,,,0.0391754786091048,-1.97014209831275,0.0890373904558091,,-1.6164907863179616,,
,8908.0,1630.0,5907.0,2056.0,2198.0,2985.0,1464.0,,,,0.0391180971701649,-1.9700831716977,0.0890367624901615,,-1.6885317319309885,,
,8910.0,1628.0,5907.0,2053.0,2197.0,2993.0,1439.0,,,,0.0391162770783182,-1.97010567787417,0.0890303126288723,,-1.7522127103047427,,
,8911.0,1628.0,5907.0,2053.0,2205.0,3009.0,1421.0,,,,0.0391711751419496,-1.97016755673648,0.0890185586263639,,-1.8084865152237322,,
,8915.0,1627.0,5909.0,2059.0,2206.0,2983.0,1439.0,,,,0.0390851371152496,-1.97010287940604,0.0890227880814632,,-1.8585401138138673,,
,8916.0,1631.0,5912.0,2055.0,2217.0,2999.0,1428.0,,,,0.0391447327554,-1.97004792176965,0.0890042121428865,,-1.9036615412203943,,
,8919.0,1631.0,5913.0,2059.0,2215.0,3005.0,1424.0,,,,0.0391066797288602,-1.97009530006579,0.0890623440984649,,-1.9451053857521288,,
,8918.0,1628.0,5914.0,2060.0,2219.0,2997.0,1441.0,,,,0.0390855560540524,-1.96984195345328,0.0890411802473991,,-1.9839668305720972,,
,8923.0,1631.0,5917.0,2055.0,2219.0,2996.0,1434.0,,,,0.0391768223611046,-1.97007200204642,0.0890414555056446,,-2.0210692762112292,,
,8927.0,1631.0,5919.0,2059.0,2211.0,3004.0,1447.0,,,,0.0391088972948711,-1.97001920766764,0.0890466763659038,,-2.0568663805835317,,
,8928.0,1635.0,5920.0,2061.0,2205.0,3008.0,1454.0,,,,0.0391715615012239,-1.97006452041735,0.0889923803818037,,-2.091357478380548,,
,8931.0,1633.0,5923.0,2063.0,2194.0,3019.0,1440.0,,,,0.0391291055600664,-1.96965614551164,0.0890249120142391,,-2.124016225798249,,
,8932.0,1630.0,5921.0,2060.0,2198.0,3007.0,1431.0,,,,0.0391677622859577,-1.96960960174577,0.0890482050022619,,-2.1537353146085145,,
,8934.0,1633.0,5923.0,2063.0,2190.0,3002.0,1464.0,,,,0.0391808886197348,-1.96952109428612,0.0890189213791454,,-2.1787939182904816,,
,8934.0,1634.0,5929.0,2063.0,2207.0,3013.0,1455.0,,,,0.0392197444740476,-1.96948765944606,0.0890253369822546,,-2.1968576776460877,,
,8937.0,1631.0,5928.0,2065.0,2200.0,3010.0,1468.0,,,,0.039161795708302,-1.96932091084858,0.0890471803058359,,-2.20502223610889,,
,8939.0,1635.0,5929.0,2064.0,2194.0,3004.0,1451.0,,,,0.0392437630732662,-1.968914699448,0.0890378086576387,,-2.199909891657088,,
,8946.0,1635.0,5933.0,2066.0,2213.0,3015.0,1441.0,,,,0.0392630638572022,-1.96872351321045,0.0890789458646382,,-2.1778247490084324,,
,8944.0,1639.0,5936.0,2067.0,2215.0,3010.0,1421.0,,,,0.0392579787548356,-1.96911478964346,0.0890784971790609,,-2.1349651598891857,,
,8947.0,1637.0,5932.0,2068.0,2214.0,3011.0,1426.0,,,,0.0392117144000536,-1.96855622197097,0.089026906295058,,-2.0676838674674833,,
,8949.0,1635.0,5935.0,2066.0,2220.0,3009.0,1427.0,,,,0.0392378610239579,-1.96827174187184,0.0890381148342828,,-1.9727772148161435,,
,8952.0,1638.0,5938.0,2068.0,2229.0,3018.0,1444.0,,,,0.0393195888044648,-1.96862929057702,0.0890726762677351,,-1.847776741805041,,
,8955.0,1639.0,5939.0,2071.0,2231.0,3019.0,1448.0,,,,0.0392399349964641,-1.9686689097896,0.0890476445238327,,-1.6912115153502536,,
,8949.0,1636.0,5941.0,2068.0,2232.0,3022.0,1456.0,,,,0.0392505996186112,-1.96811668309195,0.0890561207617109,,-1.502809246718081,,
,8952.0,1636.0,5938.0,2067.0,2232.0,3005.0,1449.0,,,,0.0392637506415382,-1.96867062970091,0.0890438321653051,,-1.2836093043785028,,
,8944.0,1636.0,5937.0,2066.0,2220.0,2995.0,1437.0,,,,0.0392516771036466,-1.96867320558342,0.0890243775979202,,-1.0359707593387506,,
,8942.0,1635.0,5936.0,2068.0,2191.0,2989.0,1444.0,,,,0.0392759386209245,-1.9688880088231,0.0890890014147727,,-0.7634722909673826,,
,8939.0,1635.0,5930.0,2063.0,2176.0,2991.0,1456.0,,,,0.0392274932184998,-1.96843426640134,0.0890662617742744,,-0.4707158462226405,,
,8936.0,1635.0,5928.0,2063.0,2179.0,2984.0,1461.0,,,,0.0392529435075473,-1.96857223160702,0.0890714430543793,,-0.16305933020696248,,
,8932.0,1630.0,5923.0,2060.0,2182.0,2988.0,1459.0,,,,0.0392090105878412,-1.96874356628902,0.0891133224020683,,0.15368768294211552,,
,8928.0,1632.0,5920.0,2061.0,2183.0,2989.0,1457.0,,,,0.0392562674035735,-1.96856177452728,0.0890994855812887,,0.47356905799581134,,
,8921.0,1633.0,5917.0,2063.0,2188.0,2998.0,1461.0,,,,0.0393076760160863,-1.96883695300318,0.0890698300833392,,0.7907563822992039,,
,8917.0,1632.0,5915.0,2058.0,2189.0,3000.0,1455.0,,,,0.0392337610022754,-1.9688736970477,0.0890742658148899,,1.0997706001734957,,
,8912.0,1630.0,5908.0,2058.0,2181.0,3011.0,1439.0,,,,0.0391498064514853,-1.96928669507856,0.0890107179523985,,1.395641906267241,,
,8910.0,1630.0,5908.0,2056.0,2188.0,3010.0,1455.0,,,,0.0391854112579969,-1.96997851204439,0.089021264402741,,1.6740115264692017,,
,8911.0,1630.0,5907.0,2058.0,2207.0,3010.0,1460.0,,,,0.0392124064366635,-1.97034667720682,0.0889563246846853,,1.9311887607944505,,
,8908.0,1631.0,5907.0,2058.0,2205.0,3011.0,1446.0,,,,0.0390313836570579,-1.97040100759193,0.0890008339889511,,2.164181290675525,,
,8903.0,1627.0,5901.0,2054.0,2208.0,2994.0,1433.0,,,,0.0390408588008656,-1.97033873239168,0.0890248879794319,,2.3707156782005696,,
,8905.0,1626.0,5902.0,2058.0,2224.0,3003.0,1427.0,,,,0.039039362367504,-1.97032001869267,0.0889924206938843,,2.5492591168314718,,
,8903.0,1628.0,5902.0,2053.0,2236.0,2994.0,1416.0,,,,0.0390359505187556,-1.97051096134123,0.0889509867616437,,2.6990446127550616,,
,8903.0,1628.0,5905.0,2058.0,2222.0,2995.0,1400.0,,,,0.0389734977272015,-1.97084446358016,0.0889776866393464,,2.8200921325883628,,
,8902.0,1629.0,5901.0,2058.0,2220.0,3003.0,1392.0,,,,0.0389814206521814,-1.9707803804163,0.0889821636844762,,2.913210434984214,,
,8900.0,1626.0,5902.0,2055.0,2209.0,3011.0,1433.0,,,,0.0389554080636325,-1.97035732031715,0.0889924868210815,,2.9799607780309096,,
,8903.0,1628.0,5902.0,2060.0,2206.0,3011.0,1417.0,,,,0.0389614933546833,-1.97099240098275,0.0889773774838566,,3.022565936975442,,
,8907.0,1628.0,5904.0,2059.0,2210.0,3011.0,1429.0,,,,0.0389511994837521,-1.97062764872076,0.0889760695668498,,3.0437558675104612,,
,8905.0,1629.0,5907.0,2059.0,2212.0,3008.0,1445.0,,,,0.0389768351425849,-1.9705571588739,0.088942405407838,,3.0465532909193844,,
,8905.0,1630.0,5906.0,2057.0,2216.0,3001.0,1456.0,,,,0.039049628726948,-1.97055099356681,0.0889702920301869,,3.0340157574946565,,
,8908.0,1629.0,5907.0,2058.0,2204.0,3004.0,1436.0,,,,0.0391422157047884,-1.97075064221557,0.0889605309364563,,3.008962182874625,,
,8909.0,1632.0,5910.0,2061.0,2214.0,3007.0,1440.0,,,,0.0390703122465335,-1.97080632913212,0.088976056503548,,2.973718714450712,,
,8911.0,1631.0,5912.0,2061.0,2220.0,3008.0,1445.0,,,,0.039140562594031,-1.97070614432184,0.0889824886878189,,2.929919552868674,,
,8915.0,1632.0,5913.0,2060.0,2219.0,3006.0,1450.0,,,,0.0391654471735477,-1.97048968041609,0.0889858786266424,,2.8783926817305767,,
,8915.0,1632.0,5911.0,2062.0,2200.0,3012.0,1451.0,,,,0.0391255984673921,-1.97054394644841,0.0889334902720712,,2.819148855404105,,
,8917.0,1632.0,5916.0,2063.0,2187.0,3005.0,1454.0,,,,0.0391502053955532,-1.97060445809284,0.08896314877355,,2.751476330200603,,
,8922.0,1633.0,5917.0,2064.0,2218.0,3000.0,1466.0,,,,0.0390567889859157,-1.97046806262208,0.088953848759053,,2.674126921333882,,
,8920.0,1633.0,5917.0,2062.0,2208.0,2996.0,1471.0,,,,0.0390996282620007,-1.97073481448616,0.0889679346013407,,2.5855649954063225,,
,8918.0,1632.0,5919.0,2063.0,2200.0,3006.0,1478.0,,,,0.0391418516090601,-1.9710729377759,0.0889739029414973,,2.4842429035450833,,
,8919.0,1633.0,5916.0,2065.0,2184.0,2996.0,1469.0,,,,0.0390636213432154,-1.97075437293906,0.0889909571354665,,2.368864999443338,,
,8921.0,1635.0,5920.0,2064.0,2179.0,2986.0,1469.0,,,,0.0390818189323385,-1.97048672173093,0.0889611858920354,,2.23860708228666,,
,8922.0,1631.0,5921.0,2066.0,2189.0,2987.0,1474.0,,,,0.0390929940224405,-1.97054480825496,0.0889937494222451,,2.0932674944705423,,
,8919.0,1629.0,5918.0,2063.0,2193.0,3006.0,1440.0,,,,0.0390330235873886,-1.97109262074982,0.0889605051918641,,1.933338315701454,,
,8923.0,1633.0,5918.0,2063.0,2184.0,3004.0,1443.0,,,,0.0388865956802904,-1.97105423564313,0.0889493900110108,,1.7599977407435874,,
,8920.0,1632.0,5920.0,2066.0,2187.0,3010.0,1444.0,,,,0.038968249375038,-1.9709982413065,0.0889841235021387,,1.5750355135257248,,
,8918.0,1634.0,5920.0,2065.0,2198.0,3002.0,1439.0,,,,0.0390081755287624,-1.97141587131171,0.0889381010033475,,1.3807306480117292,,
,8920.0,1633.0,5920.0,2065.0,2199.0,2984.0,1457.0,,,,0.0390120093996873,-1.97129839484362,0.088933649364563,,1.1797037639995243,,
,8920.0,1632.0,5916.0,2064.0,2204.0,2998.0,1480.0,,,,0.0389748631484974,-1.9712684112711,0.0889368732510881,,0.9747650669106387,,
,8921.0,1633.0,5918.0,2066.0,2227.0,3004.0,1467.0,,,,0.0390398280052593,-1.97138452009031,0.0889378796629372,,0.7687741381838591,,
,8923.0,1637.0,5919.0,2069.0,2219.0,3011.0,1449.0,,,,0.038990188837187,-1.97100295438499,0.0889522578440473,,0.5645209780681519,,
,8922.0,1634.0,5922.0,2069.0,2206.0,3008.0,1447.0,,,,0.0389277908487671,-1.97122328434829,0.0889667568860218,,0.36463100973708984,,
