TimeLabel,MEAS1_PPG1,MEAS1_PPG2,MEAS1_PPG3,MEAS1_PPG4,ACCX,ACCY,ACCZ,HR_timestamp,HR_value,radar_timestamp,phase_rx0,phase_rx1,phase_rx2,timestep,n_process,original_rate,calculated_rate
2025-08-07 00:37:54,9238.0,1753.0,7943.0,1202.0,1372.0,1968.0,3120.0,2025-08-07 00:38:28,57.0,2025/08/07 12:37:54 AM,-0.658683612688833,-2.91794621114374,-1.0888910821362,2025/08/07 12:37:54 AM,-4.56880664603693,14.457831382751465,15.09493670886076
,9236.0,1752.0,7940.0,1200.0,1351.0,1966.0,3120.0,2025-08-07 00:38:29,58.0,,-0.658549056663737,-2.91788715313375,-1.08884222085434,2025/08/07 12:38:04 AM,-4.168294003508183,14.925373077392578,15.86147186147186
,9238.0,1752.0,7942.0,1203.0,1359.0,1963.0,3130.0,2025-08-07 00:38:29,59.0,,-0.658578015349206,-2.91800591719617,-1.08824165935435,2025/08/07 12:38:14 AM,-3.6496271729923664,14.285715103149414,12.235105957616963
,9238.0,1756.0,7943.0,1202.0,1370.0,1960.0,3122.0,2025-08-07 00:38:31,60.0,,-0.658452702877505,-2.9178633640118,-1.08899475872795,2025/08/07 12:38:24 AM,-3.0139632432320007,14.218009948730469,13.859020310633209
,9238.0,1755.0,7939.0,1203.0,1360.0,1964.0,3119.0,2025-08-07 00:38:32,61.0,,-0.658295494711929,-2.91789698493235,-1.08734789783154,2025/08/07 12:38:34 AM,-2.2674259089268416,14.056224822998049,15.021123454858394
,9236.0,1753.0,7939.0,1201.0,1349.0,1963.0,3117.0,2025-08-07 00:38:33,62.0,,-0.658231173574682,-2.91776492258645,-1.0884502852664,2025/08/07 12:38:44 AM,-1.4207685459226278,13.422819137573242,19.817886866010582
,9236.0,1752.0,7939.0,1201.0,1366.0,1960.0,3114.0,2025-08-07 00:38:34,63.0,,-0.65787022229622,-2.91769743686806,-1.08838439039322,2025/08/07 12:38:54 AM,-0.48877056996855683,16.393444061279297,17.084859795857245
,9240.0,1753.0,7940.0,1201.0,1376.0,1956.0,3118.0,2025-08-07 00:38:34,64.0,,-0.657876627091274,-2.91776175015066,-1.08956453744532,2025/08/07 12:39:04 AM,0.5105527270094248,17.55669403076172,16.38795986622072
,9239.0,1752.0,7940.0,1202.0,1367.0,1957.0,3115.0,2025-08-07 00:38:35,63.0,,-0.657757407808631,-2.91768849588445,-1.08868438648722,2025/08/07 12:39:14 AM,1.5568356772085037,18.004501342773438,14.788881971655627
,9237.0,1750.0,7938.0,1200.0,1378.0,1966.0,3093.0,2025-08-07 00:38:37,62.0,,-0.657586871702046,-2.91753821019591,-1.08931569632001,2025/08/07 12:39:24 AM,2.628254951151901,16.419076919555664,16.87931951089845
,9235.0,1749.0,7938.0,1201.0,1372.0,1963.0,3100.0,2025-08-07 00:38:38,61.0,,-0.657429500404955,-2.91753774069862,-1.08885076148686,2025/08/07 12:39:34 AM,3.7023566045508756,15.659955024719238,16.790606653620337
,9238.0,1755.0,7941.0,1203.0,1376.0,1965.0,3098.0,2025-08-07 00:38:38,60.0,,-0.657075467258981,-2.91752796975815,-1.08790258094277,2025/08/07 12:39:44 AM,4.75676820428725,16.104293823242188,15.673018503175944
,9236.0,1752.0,7941.0,1202.0,1374.0,1961.0,3098.0,2025-08-07 00:38:40,59.0,,-0.657330971178558,-2.91738679295691,-1.08775507355226,2025/08/07 12:39:54 AM,5.769774103748536,16.472204208374023,16.1632127385552
,9235.0,1750.0,7942.0,1200.0,1350.0,1972.0,3107.0,2025-08-07 00:38:41,59.0,,-0.656596823579801,-2.9172769669928,-1.08872447448139,2025/08/07 12:40:04 AM,6.7207583365028745,16.042781829833984,16.219178082191767
,9239.0,1752.0,7941.0,1201.0,1355.0,1969.0,3109.0,2025-08-07 00:38:41,58.0,,-0.656977663852979,-2.91738898684054,-1.0881875451847,2025/08/07 12:40:14 AM,7.590541118658199,16.30434799194336,18.402560506347296
,9238.0,1753.0,7943.0,1203.0,1356.0,1961.0,3100.0,2025-08-07 00:38:43,58.0,,-0.656844921781743,-2.91738472997094,-1.08945879128325,2025/08/07 12:40:24 AM,8.361648595352388,17.009212493896484,16.619488850422602
,9239.0,1753.0,7941.0,1203.0,1373.0,1964.0,3104.0,2025-08-07 00:38:44,57.0,,-0.656437540268689,-2.91732995184768,-1.08789159923523,2025/08/07 12:40:34 AM,9.018559486365222,16.961130142211914,16.06216880478482
,9237.0,1752.0,7942.0,1201.0,1382.0,1977.0,3110.0,2025-08-07 00:38:44,57.0,,-0.656546270573721,-2.91730054918226,-1.08843113132001,2025/08/07 12:40:44 AM,9.54796656570341,16.746410369873047,16.79077379984607
,9235.0,1752.0,7938.0,1199.0,1391.0,1972.0,3114.0,2025-08-07 00:38:46,57.0,,-0.656612803062353,-2.91721846325275,-1.08783276917507,,9.93907704424045,,
,9236.0,1752.0,7938.0,1202.0,1384.0,1963.0,3117.0,2025-08-07 00:38:47,56.0,,-0.656542716773369,-2.91740301342066,-1.08779639040539,,10.183956541794444,,
,9235.0,1753.0,7940.0,1201.0,1378.0,1969.0,3118.0,2025-08-07 00:38:47,56.0,,-0.656497695281024,-2.91739110840577,-1.08713429887927,,10.277899122851563,,
,9235.0,1751.0,7942.0,1205.0,1382.0,1970.0,3116.0,2025-08-07 00:38:49,56.0,,-0.657045596988284,-2.91729020758434,-1.08784223808845,,10.219783541025725,,
,9236.0,1751.0,7939.0,1198.0,1371.0,1970.0,3130.0,2025-08-07 00:38:50,56.0,,-0.65647623115384,-2.91717079105257,-1.08732684377185,,10.012357169614273,,
,9236.0,1751.0,7942.0,1202.0,1372.0,1981.0,3111.0,2025-08-07 00:38:50,55.0,,-0.655881711647778,-2.91728404812722,-1.08803313048286,,9.662379258015582,,
,9238.0,1753.0,7943.0,1201.0,1361.0,1975.0,3098.0,2025-08-07 00:38:52,55.0,,-0.655689240143,-2.91721520564897,-1.08781431439555,,9.180559085779711,,
,9238.0,1752.0,7943.0,1202.0,1362.0,1989.0,3102.0,2025-08-07 00:38:53,55.0,,-0.655504597090164,-2.91715487870772,-1.08709841712495,,8.581244518618881,,
,9238.0,1752.0,7943.0,1199.0,1374.0,1988.0,3117.0,2025-08-07 00:38:53,55.0,,-0.655850519447317,-2.91730669699697,-1.0868459545419,,7.881850217737422,,
,9239.0,1754.0,7943.0,1203.0,1372.0,1967.0,3104.0,2025-08-07 00:38:55,55.0,,-0.655477486327998,-2.91699188713535,-1.0890301455015,,7.10205548470004,,
,9241.0,1752.0,7944.0,1202.0,1358.0,1966.0,3106.0,2025-08-07 00:38:55,56.0,,-0.655436462583031,-2.91706264212481,-1.08789356530554,,6.262839611473894,,
,9239.0,1752.0,7945.0,1201.0,1363.0,1963.0,3108.0,2025-08-07 00:38:56,56.0,,-0.655985425815624,-2.91727112016163,-1.08824129089219,,5.385448250106479,,
,9237.0,1752.0,7945.0,1199.0,1388.0,1958.0,3114.0,2025-08-07 00:38:58,57.0,,-0.655838559043055,-2.917188434172,-1.08698941091643,,4.4903923318025,,
,9239.0,1754.0,7944.0,1201.0,1383.0,1966.0,3116.0,2025-08-07 00:38:58,57.0,,-0.655994921684124,-2.91731004705602,-1.08797352004117,,3.5965715301819228,,
,9241.0,1753.0,7946.0,1203.0,1384.0,1978.0,3115.0,2025-08-07 00:38:59,57.0,,-0.65593539893535,-2.91731231137042,-1.08732560932923,,2.7205914539626286,,
,9241.0,1753.0,7946.0,1202.0,1371.0,1966.0,3104.0,2025-08-07 00:39:01,57.0,,-0.655365946818387,-2.91728089805772,-1.08615368976104,,1.8763137107258556,,
,9240.0,1752.0,7946.0,1202.0,1372.0,1968.0,3114.0,2025-08-07 00:39:02,57.0,,-0.654895230040753,-2.91713021045227,-1.08527926332266,,1.0746465926864728,,
,9241.0,1755.0,7949.0,1201.0,1362.0,1957.0,3117.0,2025-08-07 00:39:03,57.0,,-0.654844983608264,-2.91699846651037,-1.08601621223912,,0.32355617974744955,,
,9244.0,1755.0,7950.0,1202.0,1379.0,1962.0,3105.0,2025-08-07 00:39:04,57.0,,-0.653971350963941,-2.91697445232929,-1.08647049131086,,-0.3717434662048888,,
,9242.0,1755.0,7949.0,1204.0,1374.0,1967.0,3103.0,2025-08-07 00:39:04,57.0,,-0.653910125630897,-2.9168570624545,-1.0848335342953,,-1.0084746212670328,,
,9244.0,1757.0,7952.0,1200.0,1362.0,1965.0,3092.0,2025-08-07 00:39:06,57.0,,-0.653739910883634,-2.91689527067205,-1.08550626691291,,-1.5859111624766218,,
,9244.0,1758.0,7950.0,1202.0,1382.0,1970.0,3102.0,2025-08-07 00:39:07,57.0,,-0.653711425939224,-2.91693592535184,-1.08546744137592,,-2.1049754038142168,,
,9245.0,1759.0,7953.0,1204.0,1378.0,1961.0,3115.0,2025-08-07 00:39:08,57.0,,-0.653742024218258,-2.916784898982,-1.08610031756888,,-2.5678550500931223,,
,9243.0,1758.0,7954.0,1202.0,1379.0,1965.0,3111.0,2025-08-07 00:39:08,57.0,,-0.653436907163294,-2.91659812880887,-1.08552567282892,,-2.977664050576746,,
,9244.0,1756.0,7953.0,1202.0,1390.0,1972.0,3120.0,2025-08-07 00:39:10,57.0,,-0.653606120647257,-2.91680393350131,-1.08472329534611,,-3.3381576183549404,,
,9247.0,1758.0,7953.0,1204.0,1375.0,1973.0,3120.0,2025-08-07 00:39:10,57.0,,-0.653593108506675,-2.91659030106952,-1.08516763137104,,-3.65350211696105,,
,9245.0,1759.0,7955.0,1205.0,1378.0,1976.0,3107.0,2025-08-07 00:39:11,57.0,,-0.653852395785023,-2.91669884581118,-1.08504921191162,,-3.9280953880679483,,
,9247.0,1759.0,7955.0,1204.0,1372.0,1972.0,3105.0,2025-08-07 00:39:12,57.0,,-0.65395766995978,-2.91678416876543,-1.08409839875282,,-4.166431114437526,,
,9246.0,1758.0,7958.0,1204.0,1358.0,1974.0,3107.0,2025-08-07 00:39:14,57.0,,-0.654098073518077,-2.91693855077331,-1.0856576986331,,-4.373000279109977,,
,9248.0,1759.0,7958.0,1205.0,1372.0,1965.0,3106.0,2025-08-07 00:39:15,58.0,,-0.653809324696689,-2.9168764473519,-1.08644474078703,,-4.552222606379656,,
,9250.0,1762.0,7958.0,1204.0,1389.0,1967.0,3102.0,2025-08-07 00:39:16,59.0,,-0.653619922868388,-2.91685188619302,-1.08528694160767,,-4.708400739593027,,
,9250.0,1763.0,7959.0,1203.0,1387.0,1963.0,3098.0,2025-08-07 00:39:17,60.0,,-0.654066769339552,-2.9169322036832,-1.08481609730753,,-4.845689933074688,,
,9246.0,1760.0,7959.0,1203.0,1381.0,1963.0,3101.0,2025-08-07 00:39:18,61.0,,-0.654545069168905,-2.91696442996957,-1.08536571172371,,-4.968076331199299,,
,9248.0,1761.0,7960.0,1204.0,1368.0,1968.0,3107.0,2025-08-07 00:39:19,62.0,,-0.65442001875896,-2.91696368416103,-1.08527295311738,,-5.079357436437818,,
,9250.0,1762.0,7962.0,1204.0,1376.0,1969.0,3101.0,2025-08-07 00:39:20,62.0,,-0.654562814878913,-2.9169141644837,-1.0852780473103,,-5.18311905094941,,
,9249.0,1763.0,7963.0,1206.0,1378.0,1962.0,3109.0,2025-08-07 00:39:20,61.0,,-0.654704709474355,-2.91682493334158,-1.08472719603117,,-5.282703875755089,,
,9252.0,1763.0,7965.0,1206.0,1387.0,1979.0,3101.0,2025-08-07 00:39:22,60.0,,-0.654855178208053,-2.91690237769918,-1.08538630520606,,-5.381168244390533,,
,9250.0,1764.0,7965.0,1204.0,1383.0,1966.0,3109.0,2025-08-07 00:39:22,59.0,,-0.654637717424783,-2.9169030709708,-1.08452540036749,,-5.481225246724559,,
,9253.0,1766.0,7966.0,1207.0,1397.0,1958.0,3111.0,2025-08-07 00:39:24,58.0,,-0.654959526816258,-2.91708035989785,-1.08377306280672,,-5.585174632378445,,
,9252.0,1764.0,7968.0,1207.0,1378.0,1962.0,3101.0,2025-08-07 00:39:25,58.0,,-0.654743031589323,-2.91714292403812,-1.0838648979989,,-5.694822032073931,,
,9254.0,1765.0,7969.0,1209.0,1366.0,1967.0,3100.0,2025-08-07 00:39:26,58.0,,-0.654860253783798,-2.91702045823225,-1.08383555441945,,-5.8113917267612125,,
,9256.0,1764.0,7969.0,1206.0,1383.0,1965.0,3106.0,2025-08-07 00:39:26,58.0,,-0.654978477308428,-2.91707882496777,-1.08355320082819,,-5.93543789777325,,
,9255.0,1765.0,7970.0,1206.0,1380.0,1970.0,3108.0,2025-08-07 00:39:28,58.0,,-0.654954078613611,-2.91710334667714,-1.08413673353763,,-6.066758587992287,,
,9254.0,1768.0,7971.0,1206.0,1377.0,1973.0,3109.0,2025-08-07 00:39:28,58.0,,-0.655053493114919,-2.91682081614627,-1.08308234778474,,-6.204314562102997,,
,9256.0,1767.0,7971.0,1208.0,1373.0,1970.0,3106.0,2025-08-07 00:39:30,58.0,,-0.6543967584563,-2.91699286632677,-1.0842409564422,,-6.346152841383579,,
,9254.0,1766.0,7970.0,1204.0,1369.0,1961.0,3110.0,2025-08-07 00:39:31,57.0,,-0.654760900545486,-2.91680899736409,-1.084078561339,,-6.489333700635696,,
,9260.0,1767.0,7972.0,1206.0,1351.0,1959.0,3108.0,2025-08-07 00:39:32,56.0,,-0.654463621925396,-2.91688750137991,-1.08404030222813,,-6.629862036175649,,
,9257.0,1770.0,7972.0,1207.0,1389.0,1955.0,3107.0,2025-08-07 00:39:33,56.0,,-0.654561367943698,-2.91686663173317,-1.08324161231521,,-6.7626295162893,,
,9257.0,1769.0,7974.0,1207.0,1386.0,1963.0,3108.0,2025-08-07 00:39:34,56.0,,-0.654795147533452,-2.9168843589802,-1.08496090559975,,-6.881381143215743,,
,9257.0,1767.0,7969.0,1205.0,1390.0,1961.0,3108.0,2025-08-07 00:39:34,56.0,,-0.654546171616702,-2.91692025921089,-1.08460878485276,,-6.978725976519608,,
,9261.0,1770.0,7977.0,1207.0,1381.0,1964.0,3107.0,2025-08-07 00:39:35,56.0,,-0.654246406877008,-2.91690630169844,-1.08497173345268,,-7.0462142753117645,,
,9261.0,1773.0,7976.0,1209.0,1369.0,1975.0,3093.0,2025-08-07 00:39:36,56.0,,-0.6544804468607,-2.91700798774249,-1.08527254115115,,-7.074500965441985,,
,9261.0,1772.0,7978.0,1209.0,1377.0,1970.0,3095.0,2025-08-07 00:39:37,56.0,,-0.654490742624373,-2.91688555586681,-1.08403890117084,,-7.0536081890703795,,
,9259.0,1770.0,7976.0,1207.0,1381.0,1972.0,3113.0,2025-08-07 00:39:38,57.0,,-0.654507649088928,-2.91684280387137,-1.08506086572096,,-6.973288580140791,,
,9263.0,1773.0,7977.0,1210.0,1371.0,1973.0,3115.0,2025-08-07 00:39:40,56.0,,-0.654482587257941,-2.9168549084092,-1.08518036527651,,-6.823476954677551,,
,9262.0,1771.0,7978.0,1207.0,1374.0,1962.0,3108.0,2025-08-07 00:39:41,56.0,,-0.654320082514777,-2.91682074616485,-1.0850368477369,,-6.594802718336809,,
,9264.0,1772.0,7981.0,1210.0,1369.0,1963.0,3108.0,2025-08-07 00:39:42,56.0,,-0.654389260415745,-2.91669561989395,-1.08402444148023,,-6.279120554487423,,
,9264.0,1774.0,7981.0,1209.0,1381.0,1966.0,3116.0,2025-08-07 00:39:43,56.0,,-0.654343765408525,-2.91695507734287,-1.08439432816281,,-5.870005850404964,,
,9264.0,1774.0,7983.0,1209.0,1372.0,1970.0,3118.0,2025-08-07 00:39:44,57.0,,-0.654435282177452,-2.91694506353963,-1.08435788888979,,-5.3631573674164725,,
,9267.0,1773.0,7983.0,1211.0,1390.0,1963.0,3109.0,2025-08-07 00:39:44,58.0,,-0.654294795716563,-2.91693208716261,-1.08448695472737,,-4.756655981251112,,
,9268.0,1774.0,7983.0,1212.0,1397.0,1967.0,3111.0,2025-08-07 00:39:46,58.0,,-0.654245681338362,-2.91711259337103,-1.08437192163429,,-4.0510464582787815,,
,9265.0,1774.0,7981.0,1208.0,1404.0,1960.0,3126.0,2025-08-07 00:39:47,59.0,,-0.654790019916463,-2.91708603748564,-1.08491936880659,,-3.249238120993308,,
,9266.0,1775.0,7984.0,1209.0,1383.0,1959.0,3114.0,2025-08-07 00:39:48,59.0,,-0.654646964903344,-2.91698701932834,-1.08559225673966,,-2.3562555986299767,,
,9270.0,1777.0,7988.0,1211.0,1374.0,1975.0,3102.0,2025-08-07 00:39:49,59.0,,-0.654664986792843,-2.91701086425509,-1.08440439601886,,-1.3789051639322611,,
,9269.0,1777.0,7987.0,1213.0,1377.0,1975.0,3113.0,2025-08-07 00:39:50,58.0,,-0.654608876429818,-2.91697545332245,-1.0844916095044,,-0.3254457468873291,,
,9270.0,1777.0,7987.0,1211.0,1389.0,1976.0,3113.0,2025-08-07 00:39:51,57.0,,-0.654967983933148,-2.91701002869259,-1.08481085692866,,0.7946424535602988,,
,9270.0,1779.0,7988.0,1212.0,1386.0,1969.0,3111.0,2025-08-07 00:39:52,57.0,,-0.65502161253661,-2.91700621173758,-1.08681994999816,,1.9707188876692774,,
,9270.0,1780.0,7988.0,1211.0,1381.0,1966.0,3114.0,2025-08-07 00:39:52,56.0,,-0.655475759439569,-2.91699672055191,-1.08531682031118,,3.1908406530123314,,
,9274.0,1781.0,7989.0,1213.0,1383.0,1958.0,3112.0,2025-08-07 00:39:53,57.0,,-0.655392247390461,-2.91704838022695,-1.08655324295321,,4.441436397649908,,
,9275.0,1779.0,7992.0,1212.0,1365.0,1970.0,3111.0,2025-08-07 00:39:55,57.0,,-0.655660683608957,-2.91724325540516,-1.08598340920411,,5.706865806050582,,
,9273.0,1777.0,7991.0,1212.0,1378.0,1971.0,3100.0,2025-08-07 00:39:55,57.0,,-0.654915384501874,-2.91724792848357,-1.08606171839457,,6.968974935342668,,
,9274.0,1780.0,7990.0,1214.0,1380.0,1976.0,3106.0,2025-08-07 00:39:57,57.0,,-0.655234379984131,-2.91734993547239,-1.0867734241367,,8.206780666675959,,
,9276.0,1781.0,7995.0,1214.0,1383.0,1981.0,3106.0,2025-08-07 00:39:58,57.0,,-0.655371217223868,-2.91735562086205,-1.08606417764126,,9.396418404038776,,
,9276.0,1783.0,7997.0,1213.0,1389.0,1990.0,3127.0,2025-08-07 00:39:59,57.0,,-0.6555663939289,-2.9172373996136,-1.08755794175618,,10.511464455560734,,
,9276.0,1782.0,7992.0,1212.0,1385.0,1985.0,3113.0,2025-08-07 00:39:59,57.0,,-0.6550162134668,-2.91730412468506,-1.08683137423052,,11.523700150103243,,
,9280.0,1785.0,7994.0,1214.0,1394.0,1979.0,3117.0,2025-08-07 00:40:01,57.0,,-0.655393856532603,-2.91729796890424,-1.08544151661435,,12.404323867050245,,
,9278.0,1785.0,7997.0,1214.0,1380.0,1973.0,3111.0,2025-08-07 00:40:01,57.0,,-0.655670771370753,-2.91736677137306,-1.0865668804873,,13.125548004588644,,
,9279.0,1784.0,7996.0,1216.0,1376.0,1973.0,3108.0,2025-08-07 00:40:02,56.0,,-0.655460385488501,-2.91730532231164,-1.08665429100672,,13.662450941857417,,
,9277.0,1782.0,7994.0,1212.0,1376.0,1985.0,3110.0,2025-08-07 00:40:04,56.0,,-0.655490853813913,-2.91729867929377,-1.08637519452803,,13.994900543749024,,
,9278.0,1784.0,7998.0,1214.0,1393.0,1975.0,3110.0,2025-08-07 00:40:04,55.0,,-0.65581074438874,-2.91738865307578,-1.0879080970385,,14.10933563179447,,
,9280.0,1787.0,7997.0,1216.0,1392.0,1961.0,3102.0,2025-08-07 00:40:06,55.0,,-0.655783913156878,-2.91746979330096,-1.08784059360711,,14.00019106608056,,
,9278.0,1785.0,7998.0,1215.0,1377.0,1956.0,3103.0,2025-08-07 00:40:07,55.0,,-0.656149952029932,-2.91743133082634,-1.08703619212543,,13.670781107641629,,
,9279.0,1784.0,7996.0,1213.0,1385.0,1959.0,3110.0,2025-08-07 00:40:07,56.0,,-0.656106211012867,-2.91753719913117,-1.08815858606264,,13.133510261049612,,
,9279.0,1785.0,7997.0,1214.0,1390.0,1971.0,3115.0,2025-08-07 00:40:08,56.0,,-0.656199506622137,-2.91759898717387,-1.08788781916126,,12.409353909474861,,
,9279.0,1784.0,7997.0,1214.0,1374.0,1973.0,3119.0,2025-08-07 00:40:10,56.0,,-0.656180801000659,-2.91758699441986,-1.087991023964,,11.526634367650841,,
,9279.0,1785.0,7996.0,1213.0,1377.0,1967.0,3116.0,2025-08-07 00:40:10,56.0,,-0.656446034288746,-2.91748160927039,-1.08850791667785,,10.519201109619681,,
,9275.0,1784.0,7995.0,1212.0,1370.0,1965.0,3122.0,2025-08-07 00:40:12,56.0,,-0.656508760792126,-2.91748719046551,-1.08750085776386,,9.42419421306247,,
,9275.0,1780.0,7995.0,1211.0,1392.0,1960.0,3135.0,2025-08-07 00:40:13,56.0,,-0.656722326841067,-2.91748766693234,-1.08868393526617,,8.279615089041437,,
,9276.0,1781.0,7994.0,1211.0,1393.0,1963.0,3124.0,2025-08-07 00:40:13,55.0,,-0.656284892205786,-2.91754062002761,-1.08902453667722,,7.121940985825943,,
,9274.0,1780.0,7993.0,1211.0,1397.0,1970.0,3113.0,2025-08-07 00:40:15,55.0,,-0.65653536098885,-2.91765326769006,-1.08833651606373,,5.984000288651529,,
,9271.0,1776.0,7986.0,1211.0,1389.0,1976.0,3122.0,2025-08-07 00:40:15,55.0,,-0.656769873344707,-2.91763770200461,-1.08800101872374,,4.893281624624535,,
,9274.0,1775.0,7991.0,1211.0,1371.0,1975.0,3109.0,2025-08-07 00:40:16,56.0,,-0.656803692249755,-2.91752618662401,-1.08896476080245,,3.8707912916872145,,
,9271.0,1772.0,7988.0,1211.0,1364.0,1967.0,3108.0,2025-08-07 00:40:18,56.0,,-0.656841332938392,-2.91767387468976,-1.08935912276299,,2.930510256662063,,
,9271.0,1773.0,7983.0,1209.0,1376.0,1971.0,3111.0,2025-08-07 00:40:19,56.0,,-0.657165577012176,-2.91769289842479,-1.08831654266847,,2.0794417348137237,,
,9268.0,1769.0,7979.0,1208.0,1379.0,1990.0,3114.0,2025-08-07 00:40:19,56.0,,-0.657129882021166,-2.91756950212858,-1.08916509629279,,1.3181886360617017,,
,9268.0,1769.0,7982.0,1207.0,1395.0,1988.0,3106.0,2025-08-07 00:40:21,56.0,,-0.656877162022254,-2.91785608578373,-1.09000901259595,,0.6419602134720225,,
,9268.0,1770.0,7979.0,1209.0,1397.0,1984.0,3107.0,2025-08-07 00:40:22,56.0,,-0.657099765451692,-2.91771826394994,-1.08953186975453,,0.04188069021642215,,
,9270.0,1768.0,7980.0,1210.0,1397.0,1985.0,3111.0,2025-08-07 00:40:23,55.0,,-0.656798814319321,-2.91778185264324,-1.09016648813782,,-0.49354016695072817,,
,9268.0,1767.0,7974.0,1207.0,1388.0,1983.0,3111.0,2025-08-07 00:40:24,56.0,,-0.65698471282453,-2.91774118463607,-1.08990072989957,,-0.9769143741371781,,
,9266.0,1766.0,7974.0,1208.0,1397.0,1986.0,3103.0,2025-08-07 00:40:25,56.0,,-0.657462656173577,-2.91764369463606,-1.090670450639,,-1.4205893552752284,,
,9270.0,1769.0,7975.0,1209.0,1392.0,1982.0,3098.0,2025-08-07 00:40:26,56.0,,-0.657362109891309,-2.91770726172617,-1.09046925912809,,-1.835475879945222,,
,9269.0,1767.0,7974.0,1210.0,1393.0,1979.0,3097.0,2025-08-07 00:40:26,56.0,,-0.657358329027676,-2.91773295643162,-1.09001836147924,,-2.2301714518595515,,
,9270.0,1764.0,7971.0,1208.0,1383.0,1969.0,3103.0,2025-08-07 00:40:28,56.0,,-0.657196333889787,-2.91765318909365,-1.08948140898864,,-2.6104291694692843,,
,9269.0,1765.0,7971.0,1211.0,1390.0,1969.0,3102.0,2025-08-07 00:40:29,56.0,,-0.657458563267997,-2.91769020584972,-1.08998527791869,,-2.9789887630621763,,
,9269.0,1765.0,7971.0,1209.0,1387.0,1961.0,3094.0,2025-08-07 00:40:30,57.0,,-0.657270420399451,-2.91782670829849,-1.09063912992055,,-3.335753037479275,,
,9269.0,1766.0,7972.0,1207.0,1380.0,1958.0,3098.0,2025-08-07 00:40:31,57.0,,-0.657601717388961,-2.91770279123531,-1.09053854923608,,-3.678261711536828,,
,9269.0,1764.0,7970.0,1208.0,1379.0,1973.0,3103.0,2025-08-07 00:40:32,57.0,,-0.657429608541278,-2.91766081692007,-1.08999124272213,,-4.00238866943071,,
,9267.0,1761.0,7969.0,1204.0,1372.0,1971.0,3103.0,2025-08-07 00:40:32,57.0,,-0.657885031911077,-2.91774359649032,-1.09041122050942,,-4.303171287279234,,
,9267.0,1768.0,7969.0,1208.0,1380.0,1965.0,3107.0,2025-08-07 00:40:34,58.0,,-0.657783452054592,-2.91789520973983,-1.09011161531097,,-4.57567426575463,,
,9267.0,1763.0,7972.0,1208.0,1368.0,1968.0,3115.0,2025-08-07 00:40:35,58.0,,-0.658184825350215,-2.91784610741837,-1.09153296766863,,-4.815795548957367,,
2025-08-07 00:37:55,9270.0,1763.0,7969.0,1206.0,1380.0,1956.0,3109.0,2025-08-07 00:40:36,58.0,2025/08/07 12:37:55 AM,-0.658466974213941,-2.91780039049818,-1.09089487042551,,-5.020936241461218,,
,9269.0,1764.0,7970.0,1205.0,1356.0,1971.0,3114.0,2025-08-07 00:40:36,58.0,,-0.658059573873275,-2.91799701111416,-1.09023345096842,,-5.190476423957435,,
,9268.0,1762.0,7965.0,1206.0,1378.0,1967.0,3118.0,2025-08-07 00:40:37,58.0,,-0.658096949365131,-2.91789381996899,-1.09131545011085,,-5.326021005438333,,
,9270.0,1762.0,7969.0,1207.0,1380.0,1975.0,3126.0,2025-08-07 00:40:39,58.0,,-0.658060795698205,-2.91785874084247,-1.08972651940326,,-5.431401778427253,,
,9268.0,1764.0,7969.0,1206.0,1393.0,1979.0,3120.0,2025-08-07 00:40:40,58.0,,-0.658403649466641,-2.91790096694673,-1.09100385482659,,-5.5124422445702,,
,9268.0,1762.0,7968.0,1206.0,1381.0,1972.0,3117.0,2025-08-07 00:40:40,59.0,,-0.658079081879192,-2.91788918507413,-1.09067358531481,,-5.576509805290419,,
,9269.0,1763.0,7971.0,1205.0,1384.0,1964.0,3124.0,2025-08-07 00:40:42,59.0,,-0.658309791497689,-2.91783920543305,-1.09017243307155,,-5.631895059423841,,
,9269.0,1765.0,7967.0,1207.0,1380.0,1963.0,3121.0,2025-08-07 00:40:43,59.0,,-0.657784495529851,-2.91782735347316,-1.09072893928243,,-5.6870697841845095,,
,9272.0,1765.0,7969.0,1207.0,1376.0,1962.0,3116.0,2025-08-07 00:40:44,58.0,,-0.657794779099513,-2.91775737598699,-1.09043551116369,,-5.749883434452959,,
,9268.0,1761.0,7968.0,1205.0,1369.0,1967.0,3116.0,2025-08-07 00:40:45,57.0,,-0.658027600196164,-2.91786148312015,-1.09084534962613,,-5.8267626177516085,,
,9269.0,1764.0,7968.0,1208.0,1367.0,1961.0,3130.0,2025-08-07 00:40:46,57.0,,-0.658147076687254,-2.9177395191827,-1.09005751885575,,-5.921978957311868,,
,9271.0,1767.0,7968.0,1206.0,1364.0,1963.0,3114.0,2025-08-07 00:40:47,57.0,,-0.657780964047872,-2.91777914557087,-1.09038327257753,,-6.037047856959648,,
,9270.0,1763.0,7968.0,1207.0,1366.0,1966.0,3108.0,2025-08-07 00:40:47,57.0,,-0.658351403093747,-2.91797899939753,-1.08988551019279,,-6.1703135834543525,,
,9268.0,1765.0,7968.0,1204.0,1392.0,1959.0,3092.0,2025-08-07 00:40:49,57.0,,-0.658191451244948,-2.91786275263912,-1.09181664573921,,-6.316764464992027,,
,9267.0,1765.0,7969.0,1206.0,1379.0,1969.0,3105.0,2025-08-07 00:40:50,57.0,,-0.658407681076839,-2.91782878615719,-1.09203939208506,,-6.468105858660462,,
,9270.0,1765.0,7967.0,1205.0,1396.0,1959.0,3102.0,2025-08-07 00:40:51,57.0,,-0.658482829332769,-2.91807206767627,-1.09186185094645,,-6.613098424669034,,
,9270.0,1765.0,7968.0,1206.0,1393.0,1966.0,3104.0,2025-08-07 00:40:52,57.0,,-0.658563723388382,-2.91799157974856,-1.09001735277994,,-6.738146476070326,,
,9267.0,1762.0,7966.0,1205.0,1377.0,1966.0,3091.0,2025-08-07 00:40:53,57.0,,-0.658338207322026,-2.91789906817372,-1.09197637121556,,-6.82809793129981,,
,9268.0,1761.0,7967.0,1204.0,1392.0,1956.0,3103.0,2025-08-07 00:40:53,57.0,,-0.657810067462773,-2.9178749972795,-1.0905803353977,,-6.867196583775108,,
,9271.0,1764.0,7966.0,1205.0,1362.0,1959.0,3119.0,2025-08-07 00:40:55,57.0,,-0.658418599253965,-2.91790935695997,-1.09139659686986,,-6.84011191819213,,
,9269.0,1763.0,7969.0,1208.0,1362.0,1966.0,3115.0,2025-08-07 00:40:56,57.0,,-0.658454494814928,-2.91783635673861,-1.09132894573132,,-6.732963406997973,,
,9267.0,1762.0,7967.0,1204.0,1372.0,1969.0,3107.0,2025-08-07 00:40:57,57.0,,-0.658139221384139,-2.9178213458202,-1.09115788191069,,-6.534255506892718,,
,9270.0,1763.0,7964.0,1205.0,1392.0,1959.0,3101.0,2025-08-07 00:40:58,57.0,,-0.658020630291858,-2.91790767137425,-1.09008367465348,,-6.23564601990633,,
,9272.0,1762.0,7967.0,1206.0,1385.0,1960.0,3110.0,2025-08-07 00:40:59,57.0,,-0.658007827407191,-2.91796356308868,-1.08980193177802,,-5.832483810585001,,
,9269.0,1763.0,7968.0,1205.0,1381.0,1973.0,3118.0,2025-08-07 00:40:59,57.0,,-0.657985962531478,-2.9178961317705,-1.09133834909249,,-5.324072169311899,,
,9268.0,1761.0,7968.0,1205.0,1380.0,1964.0,3110.0,2025-08-07 00:41:01,57.0,,-0.658114772762302,-2.91781640637462,-1.09118213722215,,-4.71364100681011,,
,9266.0,1763.0,7965.0,1203.0,1384.0,1967.0,3104.0,2025-08-07 00:41:02,57.0,,-0.658263500500485,-2.91779218320099,-1.09179788754919,,-4.0080424824014305,,
,9268.0,1764.0,7965.0,1207.0,1390.0,1967.0,3105.0,2025-08-07 00:41:02,57.0,,-0.658512222777774,-2.91787021412552,-1.09131597598419,,-3.217216344899902,,
,9268.0,1764.0,7965.0,1206.0,1392.0,1966.0,3108.0,2025-08-07 00:41:04,58.0,,-0.658349678081118,-2.9178483724865,-1.09158471500722,,-2.353497690469702,,
,9268.0,1763.0,7962.0,1204.0,1399.0,1972.0,3121.0,2025-08-07 00:41:04,58.0,,-0.658420497605415,-2.91792254901611,-1.09223562452243,,-1.4308560905547032,,
,9267.0,1758.0,7965.0,1203.0,1386.0,1961.0,3116.0,2025-08-07 00:41:06,58.0,,-0.658700716836215,-2.91783770520272,-1.09084077998092,,-0.4641582856372572,,
,9268.0,1762.0,7967.0,1206.0,1394.0,1961.0,3117.0,2025-08-07 00:41:07,58.0,,-0.658669034462064,-2.91787361053558,-1.0913741894951,,0.5314633410669102,,
,9269.0,1764.0,7964.0,1206.0,1393.0,1972.0,3120.0,2025-08-07 00:41:07,57.0,,-0.658055375308381,-2.91781846637743,-1.09088044351847,,1.5410754544643628,,
,9269.0,1764.0,7966.0,1206.0,1399.0,1963.0,3119.0,2025-08-07 00:41:09,57.0,,-0.658588942841367,-2.91778295212553,-1.09126275639165,,2.550209330976037,,
,9271.0,1762.0,7964.0,1203.0,1375.0,1971.0,3100.0,2025-08-07 00:41:09,57.0,,-0.658087944136938,-2.91776429874711,-1.09193908704164,,3.544927076583119,,
,9269.0,1762.0,7964.0,1203.0,1365.0,1971.0,3104.0,2025-08-07 00:41:10,56.0,,-0.658247723567557,-2.91789832803807,-1.09221081179526,,4.511719398612135,,
,9271.0,1765.0,7967.0,1204.0,1389.0,1969.0,3112.0,2025-08-07 00:41:12,57.0,,-0.658527472587258,-2.91792986844042,-1.09165986436098,,5.437292326360875,,
,9271.0,1765.0,7965.0,1205.0,1382.0,1963.0,3111.0,2025-08-07 00:41:13,57.0,,-0.658402147524555,-2.91789206997938,-1.09103391241262,,6.308319232726783,,
,9271.0,1762.0,7966.0,1203.0,1362.0,1961.0,3102.0,2025-08-07 00:41:13,57.0,,-0.658517034191189,-2.91796574685416,-1.09131072786322,,7.111243399685522,,
,9273.0,1764.0,7965.0,1204.0,1370.0,1967.0,3108.0,2025-08-07 00:41:15,57.0,,-0.658709992380023,-2.91802588458878,-1.09159336329254,,7.83221283348849,,
,9272.0,1766.0,7966.0,1204.0,1377.0,1971.0,3107.0,2025-08-07 00:41:15,57.0,,-0.659121059071023,-2.91805489663508,-1.09298226329636,,8.45721165529054,,
,9270.0,1765.0,7967.0,1202.0,1389.0,1969.0,3111.0,2025-08-07 00:41:16,57.0,,-0.659305634356956,-2.91810080862537,-1.08981657282461,,8.97242229169795,,
,9272.0,1762.0,7968.0,1204.0,1390.0,1979.0,3087.0,2025-08-07 00:41:18,57.0,,-0.659285250006668,-2.91810253007939,-1.09281208622608,,9.364814376008804,,
,9270.0,1765.0,7969.0,1204.0,1376.0,1969.0,3107.0,2025-08-07 00:41:18,56.0,,-0.658794333597057,-2.91790241426239,-1.09185454217054,,9.622916541521665,,
,9270.0,1762.0,7970.0,1205.0,1379.0,1966.0,3124.0,2025-08-07 00:41:20,57.0,,-0.658613550021033,-2.91792893795272,-1.09082511457405,,9.73769292304023,,
,9273.0,1767.0,7969.0,1205.0,1373.0,1978.0,3127.0,2025-08-07 00:41:20,57.0,,-0.65813909394314,-2.91776076267842,-1.09000176397896,,9.703422207966266,,
,9269.0,1763.0,7971.0,1204.0,1386.0,1973.0,3135.0,2025-08-07 00:41:22,57.0,,-0.65710015637878,-2.91765143192924,-1.08896763737186,,9.518466430201368,,
,9271.0,1766.0,7972.0,1207.0,1384.0,1972.0,3108.0,2025-08-07 00:41:23,58.0,,-0.657263201667124,-2.91753542242157,-1.08941575035706,,9.185820862478224,,
,9273.0,1765.0,7973.0,1206.0,1392.0,1984.0,3109.0,2025-08-07 00:41:23,58.0,,-0.656882850801526,-2.91762682087191,-1.08971467517988,,8.7133560228639,,
,9273.0,1767.0,7971.0,1205.0,1378.0,1983.0,3111.0,2025-08-07 00:41:24,59.0,,-0.656734087654851,-2.91761366748089,-1.08951876795568,,8.11369740012038,,
,9276.0,1765.0,7971.0,1206.0,1363.0,1979.0,3109.0,2025-08-07 00:41:26,59.0,,-0.65642884760916,-2.91765067173248,-1.08995870855669,,7.4037344148045,,
,9274.0,1767.0,7972.0,1205.0,1388.0,1978.0,3101.0,2025-08-07 00:41:26,59.0,,-0.656733213580717,-2.91755397967712,-1.08924058623843,,6.603799501570537,,
,9274.0,1769.0,7975.0,1206.0,1383.0,1980.0,3114.0,,,,-0.657048653399652,-2.91781932396904,-1.08978579139081,,5.73660050390185,,
,9277.0,1771.0,7974.0,1204.0,1382.0,1970.0,3105.0,,,,-0.657094446667078,-2.91780597285022,-1.08949721976961,,4.826015757050314,,
,9276.0,1768.0,7978.0,1204.0,1399.0,1963.0,3118.0,,,,-0.657136249091286,-2.91777958636831,-1.08888303763199,,3.8958674217774485,,
,9277.0,1769.0,7977.0,1206.0,1387.0,1970.0,3116.0,,,,-0.657365363202567,-2.91781374296314,-1.08971698674402,,2.9687769381482125,,
,9281.0,1770.0,7979.0,1208.0,1393.0,1971.0,3103.0,,,,-0.657287434069606,-2.91786525712536,-1.09060742659608,,2.0651829855484394,,
,9282.0,1773.0,7978.0,1207.0,1389.0,1983.0,3109.0,,,,-0.65723852739436,-2.91785679135907,-1.09014923338441,,1.2025742552323575,,
,9278.0,1772.0,7979.0,1205.0,1389.0,1987.0,3115.0,,,,-0.657249788016764,-2.91783860692238,-1.08821239633264,,0.3949627776952488,,
,9279.0,1772.0,7978.0,1205.0,1383.0,1981.0,3103.0,,,,-0.657701318632468,-2.91777940779646,-1.08905966927407,,-0.34739781969428074,,
,9282.0,1773.0,7982.0,1208.0,1377.0,1974.0,3103.0,,,,-0.657843675641519,-2.91771648399221,-1.08994717620567,,-1.018060267939164,,
,9281.0,1771.0,7982.0,1208.0,1389.0,1970.0,3117.0,,,,-0.657616282115558,-2.91778851044015,-1.08899301083142,,-1.614220345325543,,
,9281.0,1774.0,7980.0,1209.0,1383.0,1973.0,3123.0,,,,-0.658204266924885,-2.91779808254021,-1.08914190562084,,-2.1363741437897352,,
,9280.0,1772.0,7982.0,1207.0,1385.0,1963.0,3120.0,,,,-0.657909663803179,-2.91782225647755,-1.08856048682841,,-2.5878356608037345,,
,9283.0,1774.0,7985.0,1208.0,1380.0,1962.0,3109.0,,,,-0.658023485287179,-2.91785699506674,-1.0887930027892,,-2.9741599927419857,,
,9284.0,1775.0,7985.0,1210.0,1373.0,1969.0,3096.0,,,,-0.657604666661686,-2.91772489658108,-1.08894390823035,,-3.302519263009269,,
,9285.0,1776.0,7984.0,1207.0,1372.0,1966.0,3095.0,,,,-0.657586755794247,-2.91787280128297,-1.08902494183832,,-3.581076169840902,,
,9283.0,1774.0,7984.0,1206.0,1382.0,1971.0,3102.0,,,,-0.657355036031741,-2.91789801916677,-1.08799886282491,,-3.818394370499154,,
,9285.0,1775.0,7986.0,1209.0,1389.0,1964.0,3104.0,,,,-0.657641919519446,-2.9176593199276,-1.0890921938118,,-4.02291709995829,,
,9288.0,1774.0,7986.0,1208.0,1393.0,1967.0,3098.0,,,,-0.657387419239066,-2.91763935387488,-1.08746052704915,,-4.202536604476554,,
,9288.0,1776.0,7988.0,1209.0,1392.0,1969.0,3109.0,,,,-0.657121960482879,-2.91782431843174,-1.08830725181981,,-4.3642679063654235,,
,9287.0,1776.0,7988.0,1209.0,1384.0,1973.0,3108.0,,,,-0.657596733540608,-2.91761782944134,-1.08887571886898,,-4.514031635664313,,
,9287.0,1778.0,7989.0,1210.0,1391.0,1973.0,3111.0,,,,-0.65739821429232,-2.91759188603108,-1.08905276220344,,-4.656542664754119,,
,9288.0,1777.0,7990.0,1212.0,1359.0,1969.0,3100.0,,,,-0.656996080020987,-2.91772050496875,-1.08733981886795,,-4.795294490539314,,
,9289.0,1780.0,7991.0,1210.0,1358.0,1968.0,3102.0,,,,-0.656980452732741,-2.9175722057786,-1.08680634229245,,-4.932624015138164,,
,9289.0,1780.0,7991.0,1208.0,1390.0,1976.0,3109.0,,,,-0.656745756567769,-2.91762923368877,-1.08773518231322,,-5.069837787387937,,
,9290.0,1780.0,7994.0,1213.0,1374.0,1973.0,3107.0,,,,-0.656979992418569,-2.91745149058308,-1.08825029998369,,-5.207379031433691,,
,9293.0,1781.0,7993.0,1212.0,1363.0,1969.0,3105.0,,,,-0.656836910687517,-2.91746281884648,-1.08860048987128,,-5.34501484153194,,
,9291.0,1779.0,7994.0,1211.0,1364.0,1969.0,3101.0,,,,-0.656978931145305,-2.91750452811182,-1.08845538284303,,-5.48202430737726,,
,9292.0,1782.0,7995.0,1211.0,1370.0,1961.0,3101.0,,,,-0.65728882141371,-2.91744042796362,-1.08875179337862,,-5.617370235134224,,
,9295.0,1782.0,7995.0,1212.0,1386.0,1961.0,3115.0,,,,-0.657094801934987,-2.91746078174858,-1.08819531314591,,-5.749838733123198,,
,9294.0,1783.0,8000.0,1212.0,1374.0,1973.0,3109.0,,,,-0.657218923777622,-2.91759849773591,-1.08808437607418,,-5.8781320757307505,,
,9295.0,1785.0,7999.0,1212.0,1392.0,1976.0,3107.0,,,,-0.657053664345789,-2.91754745576702,-1.08809304222576,,-6.000901948054219,,
,9295.0,1784.0,7998.0,1214.0,1382.0,1969.0,3115.0,,,,-0.657439013430709,-2.91753566855503,-1.08976766748198,,-6.116714188787703,,
,9294.0,1783.0,7998.0,1212.0,1372.0,1975.0,3110.0,,,,-0.657162635041886,-2.91741850197127,-1.08945492092768,,-6.223943674788901,,
,9297.0,1785.0,8001.0,1213.0,1391.0,1974.0,3111.0,,,,-0.65769601601581,-2.91761048990005,-1.08963044078347,,-6.3206084824936815,,
,9298.0,1785.0,7999.0,1210.0,1397.0,1972.0,3115.0,,,,-0.657705904437185,-2.91773211163663,-1.08858491517301,,-6.404163853468053,,
,9299.0,1786.0,8002.0,1215.0,1390.0,1969.0,3117.0,,,,-0.657718827842196,-2.91755230946202,-1.0900617949609,,-6.4712863178413125,,
,9301.0,1785.0,8000.0,1211.0,1382.0,1968.0,3106.0,,,,-0.657698568789056,-2.91742656724918,-1.08940620462367,,-6.517684654136294,,
,9300.0,1787.0,8004.0,1212.0,1372.0,1958.0,3110.0,,,,-0.657514202983084,-2.91752384198065,-1.08917759260736,,-6.537976093581088,,
,9300.0,1785.0,8005.0,1215.0,1372.0,1956.0,3110.0,,,,-0.657909856235653,-2.91755590791427,-1.08949332834779,,-6.525662924226359,,
,9301.0,1788.0,8004.0,1212.0,1377.0,1984.0,3105.0,,,,-0.658134171071373,-2.91764990352095,-1.08938855654543,,-6.473236437811618,,
,9300.0,1787.0,8005.0,1213.0,1374.0,1990.0,3121.0,,,,-0.657818354031565,-2.91771864235275,-1.08952437183219,,-6.3724223164006695,,
,9304.0,1789.0,8007.0,1216.0,1369.0,1980.0,3118.0,,,,-0.658035993289138,-2.91780613392453,-1.09010321414124,,-6.214564961710008,,
,9305.0,1788.0,8007.0,1214.0,1369.0,1983.0,3117.0,,,,-0.65793669284011,-2.91784882723298,-1.08999766411661,,-5.9911296889680905,,
,9304.0,1790.0,8009.0,1216.0,1384.0,1979.0,3112.0,,,,-0.657885014428675,-2.9178148567086,-1.08954806842716,,-5.694283744984285,,
,9306.0,1788.0,8008.0,1214.0,1400.0,1974.0,3116.0,,,,-0.657945393702157,-2.91780396720396,-1.08887041095903,,-5.317502809488725,,
,9307.0,1792.0,8009.0,1214.0,1393.0,1966.0,3120.0,,,,-0.658470158973298,-2.91780928791648,-1.09111032109384,,-4.8561418964564,,
,9305.0,1793.0,8009.0,1215.0,1406.0,1976.0,3113.0,,,,-0.658503546874884,-2.91778394803711,-1.08970590095687,,-4.307910481554059,,
,9308.0,1791.0,8008.0,1218.0,1402.0,1979.0,3121.0,,,,-0.658553432540948,-2.9178402254954,-1.09001450111993,,-3.6732018300170086,,
,9307.0,1791.0,8008.0,1213.0,1406.0,1985.0,3130.0,,,,-0.658282772600434,-2.91783004260514,-1.09028375099591,,-2.9552444153907262,,
,9307.0,1794.0,8010.0,1216.0,1398.0,1990.0,3122.0,,,,-0.658893338992825,-2.91778460619849,-1.09175720977389,,-2.1600655195790845,,
,9309.0,1794.0,8009.0,1216.0,1391.0,1978.0,3109.0,,,,-0.658790271053756,-2.91786675398694,-1.0904836378273,,-1.296279138026768,,
,9307.0,1794.0,8009.0,1216.0,1376.0,1974.0,3098.0,,,,-0.65879211538555,-2.91781452553037,-1.08985506486137,,-0.3747285252380939,,
,9308.0,1794.0,8006.0,1214.0,1374.0,1965.0,3104.0,,,,-0.659087622067703,-2.91795760019998,-1.09045681935351,,0.5919735706736629,,
,9306.0,1793.0,8008.0,1216.0,1358.0,1970.0,3107.0,,,,-0.658923590012042,-2.91803005266813,-1.09058419977655,,1.5899568960084782,,
,9306.0,1794.0,8008.0,1215.0,1360.0,1985.0,3118.0,,,,-0.65933202623104,-2.91797571905549,-1.09087685304049,,2.604606536906742,,
,9306.0,1792.0,8010.0,1214.0,1374.0,1982.0,3109.0,,,,-0.659553100506279,-2.91808396810358,-1.0918383991795,,3.621030286964848,,
,9302.0,1789.0,8005.0,1213.0,1383.0,1967.0,3111.0,,,,-0.659631311848389,-2.91811662533137,-1.09100519331312,,4.624445666588974,,
,9304.0,1789.0,8005.0,1213.0,1368.0,1962.0,3102.0,,,,-0.659674691524651,-2.91805568889782,-1.09118977523819,,5.600468223936333,,
,9301.0,1788.0,8005.0,1213.0,1350.0,1959.0,3098.0,,,,-0.660682157164944,-2.91808367389608,-1.091571778644,,6.5353012068746645,,
,9300.0,1785.0,8003.0,1214.0,1357.0,1960.0,3095.0,,,,-0.66020503588499,-2.91811157403981,-1.09267096417876,,7.415843311886736,,
,9301.0,1784.0,8001.0,1210.0,1370.0,1971.0,3119.0,,,,-0.660032350872393,-2.91807791563831,-1.09208977974475,,8.229742914959775,,
,9298.0,1780.0,7999.0,1212.0,1365.0,1976.0,3124.0,,,,-0.660088617938856,-2.91809903447789,-1.09135843167516,,8.965432757573465,,
,9300.0,1779.0,7996.0,1210.0,1368.0,1969.0,3108.0,,,,-0.660187068323041,-2.91804053321191,-1.09227774977745,,9.612179183020272,,
,9296.0,1778.0,7993.0,1212.0,1380.0,1959.0,3115.0,,,,-0.660149646048645,-2.91826517546935,-1.09149267842315,,10.160176135681418,,
,9296.0,1775.0,7990.0,1209.0,1393.0,1969.0,3102.0,,,,-0.660131691768545,-2.91823339934523,-1.09222329120398,,10.600707089282727,,
,9296.0,1774.0,7988.0,1209.0,1392.0,1982.0,3112.0,,,,-0.659954174638553,-2.91820502666544,-1.0919531296956,,10.926387676706105,,
,9298.0,1774.0,7985.0,1208.0,1395.0,1983.0,3127.0,,,,-0.660076541934718,-2.91827295630423,-1.09203542403978,,11.131487574786005,,
,9296.0,1771.0,7984.0,1210.0,1401.0,1981.0,3126.0,,,,-0.659853890363082,-2.91825156496796,-1.09342730352334,,11.2123125318983,,
,9296.0,1771.0,7982.0,1209.0,1385.0,1980.0,3118.0,,,,-0.660390243941385,-2.91826067709831,-1.09324739822988,,11.167608261545597,,
,9293.0,1769.0,7980.0,1210.0,1397.0,1972.0,3100.0,,,,-0.660425246459335,-2.91826989261693,-1.09366967110451,,10.99893070406531,,
,9294.0,1771.0,7979.0,1209.0,1396.0,1974.0,3121.0,,,,-0.660475110199804,-2.91831050132292,-1.09217470240568,,10.710916133820312,,
,9295.0,1770.0,7979.0,1209.0,1395.0,1969.0,3115.0,,,,-0.660509428483047,-2.91835942710633,-1.09232718818261,,10.311383780731504,,
,9295.0,1769.0,7976.0,1209.0,1377.0,1992.0,3113.0,,,,-0.660980662960702,-2.91826787916021,-1.09287614754595,,9.811215705764301,,
,9296.0,1770.0,7973.0,1208.0,1373.0,1979.0,3107.0,,,,-0.660680916839658,-2.91832111347702,-1.0925989858235,,9.223984046646764,,
,9295.0,1771.0,7976.0,1207.0,1378.0,1968.0,3099.0,,,,-0.660978907437717,-2.91852311045206,-1.09302274519214,,8.56533192887678,,
,9293.0,1769.0,7975.0,1212.0,1384.0,1967.0,3098.0,,,,-0.661283952631053,-2.91835091089703,-1.09251300551463,,7.852155275753759,,
2025-08-07 00:37:56,9295.0,1770.0,7976.0,1208.0,1380.0,1974.0,3108.0,,,2025/08/07 12:37:56 AM,-0.661577128272299,-2.91830966346853,-1.09269898879965,,7.101669410599348,,
,9293.0,1765.0,7973.0,1206.0,1366.0,1960.0,3088.0,,,,-0.661171348406286,-2.91833147203493,-1.09327466825817,,6.330467545071431,,
,9293.0,1768.0,7971.0,1207.0,1368.0,1958.0,3102.0,,,,-0.660750770245928,-2.91832610445765,-1.09273517084998,,5.553682439346437,,
,9293.0,1767.0,7972.0,1205.0,1375.0,1963.0,3096.0,,,,-0.661219224459631,-2.9183819583134,-1.09214573417808,,4.784347505570451,,
,9291.0,1766.0,7972.0,1207.0,1383.0,1962.0,3098.0,,,,-0.66114565625257,-2.91831674817119,-1.09283820997745,,4.033023471453503,,
,9290.0,1767.0,7968.0,1206.0,1363.0,1953.0,3092.0,,,,-0.661132114162126,-2.91827417528634,-1.09377613347969,,3.3077176561426316,,
,9295.0,1768.0,7972.0,1204.0,1372.0,1964.0,3113.0,,,,-0.661112384037334,-2.91826798144117,-1.09315049171509,,2.61408174639458,,
,9293.0,1765.0,7969.0,1204.0,1378.0,1972.0,3116.0,,,,-0.661536752994725,-2.91843165485902,-1.09418048302925,,1.9558370297975942,,
,9292.0,1767.0,7969.0,1207.0,1384.0,1974.0,3117.0,,,,-0.661247292655277,-2.91836469544413,-1.09257061365389,,1.3353483334107448,,
,9290.0,1764.0,7967.0,1204.0,1375.0,1970.0,3111.0,,,,-0.661111984495719,-2.91855013706007,-1.09315709152567,,0.7542525426823725,,
,9293.0,1768.0,7969.0,1206.0,1388.0,1972.0,3130.0,,,,-0.66125603302285,-2.91839178478874,-1.09362290636829,,0.2140456610061988,,
,9291.0,1766.0,7968.0,1205.0,1372.0,1966.0,3128.0,,,,-0.661411567382295,-2.91841150133665,-1.09353350296629,,-0.28345680839208076,,
,9291.0,1764.0,7968.0,1206.0,1375.0,1960.0,3115.0,,,,-0.661396923876431,-2.91829590490905,-1.09462530110877,,-0.7358500689668848,,
,9292.0,1767.0,7967.0,1203.0,1393.0,1961.0,3111.0,,,,-0.661363592618815,-2.91839938978826,-1.0936785893359,,-1.1400961554399138,,
,9294.0,1766.0,7967.0,1206.0,1387.0,1969.0,3109.0,,,,-0.66152886413799,-2.91843184428275,-1.09322668307742,,-1.4927089912464548,,
,9291.0,1765.0,7969.0,1204.0,1379.0,1974.0,3111.0,,,,-0.661520468544905,-2.91833767033725,-1.09305182393048,,-1.7901389229690365,,
,9293.0,1767.0,7966.0,1204.0,1377.0,1978.0,3111.0,,,,-0.661227181831193,-2.91827426164881,-1.09317783107903,,-2.0292984710435635,,
,9291.0,1765.0,7969.0,1202.0,1371.0,1975.0,3103.0,,,,-0.661017234967027,-2.91838559425355,-1.09405608764973,,-2.208150039744173,,
,9292.0,1768.0,7967.0,1204.0,1372.0,1964.0,3115.0,,,,-0.661679790837283,-2.9182935830383,-1.09410547077785,,-2.3262667207883143,,
,9293.0,1768.0,7968.0,1205.0,1366.0,1971.0,3116.0,,,,-0.661371362753179,-2.91831773421311,-1.09482938777659,,-2.3852806222750678,,
,9293.0,1766.0,7968.0,1206.0,1385.0,1967.0,3110.0,,,,-0.661167370456636,-2.91843062603848,-1.0938181403958,,-2.3891482150603975,,
,9292.0,1765.0,7967.0,1202.0,1384.0,1971.0,3110.0,,,,-0.660896549407698,-2.91807438357611,-1.09425316964838,,-2.3441861273993276,,
,9290.0,1767.0,7968.0,1204.0,1386.0,1973.0,3106.0,,,,-0.661098796558625,-2.91830768247894,-1.09389399756952,,-2.258860332636482,,
,9294.0,1767.0,7968.0,1205.0,1390.0,1968.0,3114.0,,,,-0.661057559642906,-2.9183539359168,-1.09411190999607,,-2.143343547772174,,
,9290.0,1767.0,7966.0,1204.0,1391.0,1965.0,3116.0,,,,-0.661123117059544,-2.91839041813245,-1.09432450866339,,-2.0088863919971707,,
,9292.0,1765.0,7966.0,1204.0,1388.0,1963.0,3107.0,,,,-0.660837871992536,-2.91835359397584,-1.09358864747589,,-1.8670731877555062,,
,9289.0,1765.0,7967.0,1203.0,1401.0,1963.0,3106.0,,,,-0.660979887406857,-2.91844903973819,-1.09351957484259,,-1.7290486230154458,,
,9292.0,1766.0,7968.0,1205.0,1380.0,1967.0,3100.0,,,,-0.66078282321162,-2.91813203894878,-1.09302451693559,,-1.6048034722225621,,
,9291.0,1767.0,7970.0,1205.0,1370.0,1969.0,3101.0,,,,-0.660774644232161,-2.918327717071,-1.09445011698479,,-1.5025957695170353,,
,9289.0,1763.0,7966.0,1203.0,1378.0,1961.0,3109.0,,,,-0.660612248052427,-2.91824936168589,-1.09353822900896,,-1.4285611696049745,,
,9289.0,1766.0,7968.0,1205.0,1391.0,1976.0,3113.0,,,,-0.660807541019395,-2.91830409374638,-1.09351189951836,,-1.3865379061817018,,
,9291.0,1766.0,7968.0,1203.0,1383.0,1977.0,3128.0,,,,-0.660743663539791,-2.91811219339265,-1.09354972801523,,-1.3781034072301577,,
,9290.0,1765.0,7967.0,1202.0,1384.0,1969.0,3122.0,,,,-0.660433536881868,-2.91816911732471,-1.09333207166666,,-1.402795698897901,,
,9292.0,1766.0,7967.0,1202.0,1384.0,1966.0,3113.0,,,,-0.660113971305408,-2.91811611316383,-1.0943497043285,,-1.4584754979969214,,
,9292.0,1766.0,7965.0,1202.0,1389.0,1961.0,3113.0,,,,-0.660541560260031,-2.91790850336125,-1.0937600346595,,-1.5417745246351835,,
,9291.0,1768.0,7967.0,1202.0,1387.0,1969.0,3101.0,,,,-0.660148252374742,-2.91802989482902,-1.09426582721675,,-1.6485713377564148,,
,9290.0,1766.0,7969.0,1205.0,1385.0,1964.0,3097.0,,,,-0.660494237568208,-2.91797396430229,-1.09348558038459,,-1.7744377501083346,,
,9293.0,1766.0,7968.0,1203.0,1364.0,1960.0,3104.0,,,,-0.66002180279617,-2.91818060023239,-1.0928742962438,,-1.9150072037994883,,
,9290.0,1765.0,7966.0,1201.0,1378.0,1966.0,3112.0,,,,-0.660505551601119,-2.91803685177468,-1.09365541315831,,-2.066231351554784,,
,9290.0,1767.0,7970.0,1203.0,1382.0,1969.0,3113.0,,,,-0.660326137539843,-2.91802738073264,-1.09341289862004,,-2.224510496919963,,
,9289.0,1766.0,7967.0,1205.0,1376.0,1970.0,3113.0,,,,-0.660368512631806,-2.91805401972651,-1.09411797323722,,-2.386703709853898,,
,9291.0,1765.0,7967.0,1203.0,1362.0,1968.0,3118.0,,,,-0.660597053564987,-2.91796716263845,-1.09305658090228,,-2.5500412561395103,,
,9291.0,1765.0,7965.0,1201.0,1368.0,1966.0,3113.0,,,,-0.660223114234822,-2.91809125257354,-1.09314614837806,,-2.7119727085836374,,
,9293.0,1767.0,7971.0,1205.0,1359.0,1964.0,3112.0,,,,-0.659549261134656,-2.91803948472579,-1.09331647950254,,-2.8699882604753864,,
,9293.0,1766.0,7970.0,1203.0,1367.0,1964.0,3115.0,,,,-0.659633253505293,-2.91819113777014,-1.09240175801396,,-3.0214498043395355,,
,9291.0,1768.0,7971.0,1205.0,1366.0,1965.0,3114.0,,,,-0.659981352034921,-2.917976678524,-1.09326432811939,,-3.1634642978696426,,
,9293.0,1768.0,7972.0,1202.0,1377.0,1962.0,3102.0,,,,-0.659553968395769,-2.91806691898273,-1.09329889233977,,-3.292826082330261,,
,9292.0,1769.0,7970.0,1204.0,1399.0,1957.0,3102.0,,,,-0.659512548281311,-2.91786032767479,-1.09306895671009,,-3.406047413772553,,
,9292.0,1769.0,7970.0,1204.0,1383.0,1954.0,3109.0,,,,-0.659632606980318,-2.9180512085402,-1.09281856818743,,-3.499487308526566,,
,9293.0,1769.0,7974.0,1203.0,1375.0,1959.0,3104.0,,,,-0.659843853015835,-2.91810731069954,-1.09247847587061,,-3.5695777096596046,,
,9292.0,1768.0,7971.0,1202.0,1368.0,1962.0,3098.0,,,,-0.660380871770305,-2.91796149778959,-1.09302437071285,,-3.613133071839933,,
,9296.0,1769.0,7975.0,1206.0,1390.0,1967.0,3105.0,,,,-0.660657374583609,-2.91811973505316,-1.09287431887032,,-3.6277154557900224,,
,9295.0,1770.0,7975.0,1205.0,1379.0,1967.0,3114.0,,,,-0.660538324528529,-2.91799164293211,-1.09322903013341,,-3.612013775411425,,
,9298.0,1771.0,7978.0,1204.0,1375.0,1966.0,3108.0,,,,-0.6606238416734,-2.91817079221783,-1.09404598538275,,-3.56618564697869,,
,9297.0,1768.0,7974.0,1204.0,1358.0,1974.0,3118.0,,,,-0.660006681126659,-2.9180230446997,-1.09161995502354,,-3.492106536315989,,
,9295.0,1770.0,7977.0,1203.0,1380.0,1973.0,3109.0,,,,-0.659701102989958,-2.9180269321326,-1.09266915880772,,-3.3934760117934406,,
,9299.0,1773.0,7976.0,1205.0,1379.0,1964.0,3100.0,,,,-0.659635318480184,-2.91805316435999,-1.09061771620018,,-3.2757453024375036,,
,9296.0,1771.0,7978.0,1205.0,1375.0,1969.0,3099.0,,,,-0.659243328652546,-2.91790865635022,-1.09198634857888,,-3.1458520454401833,,
,9296.0,1771.0,7979.0,1204.0,1380.0,1986.0,3121.0,,,,-0.658609166490742,-2.91777127613056,-1.09118915685388,,-3.0117733413484675,,
,9298.0,1773.0,7981.0,1207.0,1376.0,1974.0,3114.0,,,,-0.658604907335194,-2.91773781664541,-1.09053130444745,,-2.8819327042447376,,
,9300.0,1773.0,7980.0,1205.0,1380.0,1964.0,3108.0,,,,-0.658422384132136,-2.9177531407642,-1.09058328376765,,-2.764516471169668,,
,9300.0,1773.0,7979.0,1205.0,1381.0,1966.0,3102.0,,,,-0.658676913098984,-2.91777237067906,-1.09033527213792,,-2.6667683054023774,,
,9298.0,1773.0,7980.0,1204.0,1395.0,1962.0,3117.0,,,,-0.658553444781669,-2.91786813484696,-1.09066274218574,,-2.594335636558432,,
,9299.0,1774.0,7981.0,1205.0,1378.0,1973.0,3110.0,,,,-0.659221904422875,-2.91795982120608,-1.09067648819526,,-2.550739424267292,,
,9300.0,1775.0,7985.0,1206.0,1373.0,1975.0,3108.0,,,,-0.659240730578732,-2.91807495006773,-1.09034693169474,,-2.53702935257368,,
,9302.0,1775.0,7984.0,1206.0,1349.0,1965.0,3110.0,,,,-0.659531671631571,-2.91813606978241,-1.08987446458383,,-2.5516714267509255,,
,9302.0,1775.0,7985.0,1207.0,1347.0,1962.0,3113.0,,,,-0.659888536568912,-2.91825958916451,-1.09039754675827,,-2.590694732251985,,
,9301.0,1775.0,7987.0,1206.0,1362.0,1957.0,3100.0,,,,-0.66051007551811,-2.91815136085262,-1.09090417990792,,-2.648099512145524,,
,9303.0,1777.0,7987.0,1207.0,1372.0,1962.0,3098.0,,,,-0.660615195091186,-2.918301924908,-1.09064201736872,,-2.716500799312284,,
,9306.0,1777.0,7988.0,1208.0,1375.0,1961.0,3115.0,,,,-0.660470443780351,-2.9182944901601,-1.09072107827188,,-2.7879527217698445,,
,9303.0,1780.0,7988.0,1207.0,1372.0,1968.0,3115.0,,,,-0.660651765098254,-2.91830773591044,-1.08967926788896,,-2.854871945220823,,
,9304.0,1778.0,7988.0,1205.0,1364.0,1972.0,3108.0,,,,-0.660687035668872,-2.91839704053461,-1.09059310401483,,-2.9109594849016864,,
,9308.0,1782.0,7990.0,1209.0,1378.0,1965.0,3108.0,,,,-0.660803711081009,-2.91825030827241,-1.08903971273025,,-2.9520130569111984,,
,9306.0,1779.0,7989.0,1207.0,1389.0,1982.0,3110.0,,,,-0.660866225795141,-2.91832648466465,-1.09001632888665,,-2.9765296464473803,,
,9307.0,1781.0,7993.0,1210.0,1387.0,1980.0,3112.0,,,,-0.660346052984423,-2.91835546612288,-1.08980811385102,,-2.9860190410731846,,
,9308.0,1780.0,7990.0,1207.0,1393.0,1972.0,3114.0,,,,-0.660352422931595,-2.91818299582091,-1.08900690227448,,-2.9849801005128014,,
,9308.0,1782.0,7995.0,1209.0,1388.0,1971.0,3110.0,,,,-0.660111156104563,-2.91809154723214,-1.09024925716696,,-2.980527885272893,,
,9310.0,1782.0,7996.0,1209.0,1375.0,1973.0,3101.0,,,,-0.659817223186503,-2.91808239222415,-1.09007249481429,,-2.981696945384559,,
,9309.0,1782.0,7993.0,1211.0,1369.0,1968.0,3106.0,,,,-0.659891495011353,-2.91810646312407,-1.0904543720724,,-2.998480192997399,,
,9310.0,1783.0,7995.0,1209.0,1377.0,1959.0,3102.0,,,,-0.659707054680353,-2.91795586582887,-1.08908074566104,,-3.04069069753535,,
,9311.0,1784.0,7995.0,1211.0,1384.0,1963.0,3100.0,,,,-0.659154767218278,-2.91799333813847,-1.08933579456055,,-3.116752986231264,,
,9313.0,1785.0,8000.0,1210.0,1368.0,1968.0,3092.0,,,,-0.659240542690473,-2.91784522763985,-1.08951934246737,,-3.2325391830682046,,
,9312.0,1784.0,7996.0,1209.0,1363.0,1966.0,3088.0,,,,-0.659389974680161,-2.91796718010353,-1.08988614723962,,-3.390362553264085,,
,9313.0,1786.0,7999.0,1210.0,1364.0,1961.0,3103.0,,,,-0.658933804575167,-2.91797622354662,-1.09020498878824,,-3.588226948981255,,
,9313.0,1786.0,8001.0,1209.0,1387.0,1960.0,3102.0,,,,-0.659368709924418,-2.9176847879592,-1.09050158999397,,-3.819407053502207,,
,9315.0,1787.0,8001.0,1211.0,1378.0,1971.0,3102.0,,,,-0.659119281390027,-2.91776904958436,-1.08854426409827,,-4.072404267816898,,
,9315.0,1788.0,8001.0,1211.0,1379.0,1976.0,3104.0,,,,-0.658961944510631,-2.91776898780508,-1.09008107932309,,-4.331290118925809,,
,9315.0,1787.0,8001.0,1212.0,1383.0,1971.0,3105.0,,,,-0.658872742503281,-2.91781537478794,-1.08926160948156,,-4.576416453358987,,
,9315.0,1786.0,8003.0,1211.0,1362.0,1979.0,3108.0,,,,-0.658447243091234,-2.91773579122338,-1.08912671146523,,-4.785442059351058,,
,9315.0,1789.0,8005.0,1212.0,1382.0,1968.0,3108.0,,,,-0.658751803040372,-2.91776500350137,-1.08931731476882,,-4.934600636108646,,
,9318.0,1792.0,8006.0,1215.0,1380.0,1973.0,3109.0,,,,-0.658908572275486,-2.9179134093119,-1.08891645123922,,-5.000116192677764,,
,9319.0,1789.0,8007.0,1212.0,1380.0,1968.0,3118.0,,,,-0.658387648882057,-2.91786181286535,-1.08910446906783,,-4.959659229486026,,
,9318.0,1789.0,8006.0,1214.0,1378.0,1973.0,3120.0,,,,-0.658543134366168,-2.91796194857458,-1.08887032364575,,-4.793730665930346,,
,9320.0,1792.0,8007.0,1213.0,1357.0,1965.0,3107.0,,,,-0.658970424381547,-2.91782973314804,-1.08973519761941,,-4.486861739916448,,
,9321.0,1791.0,8009.0,1214.0,1366.0,1959.0,3102.0,,,,-0.659113008707682,-2.91785578042049,-1.09009540042524,,-4.028529726643573,,
,9320.0,1791.0,8008.0,1212.0,1359.0,1971.0,3104.0,,,,-0.659246071654564,-2.91786093350162,-1.08937028921873,,-3.4137143335442337,,
,9323.0,1791.0,8009.0,1213.0,1368.0,1952.0,3107.0,,,,-0.659225041696303,-2.91775619907826,-1.08842884960289,,-2.6430591484876182,,
,9324.0,1792.0,8010.0,1212.0,1382.0,1952.0,3102.0,,,,-0.659021559350597,-2.9177584536519,-1.08861488345519,,-1.722653365510822,,
,9321.0,1794.0,8012.0,1215.0,1379.0,1978.0,3111.0,,,,-0.658794856314982,-2.91776001176104,-1.08970563829024,,-0.6635026929146763,,
,9326.0,1793.0,8012.0,1213.0,1386.0,1977.0,3111.0,,,,-0.659004828095663,-2.91771645628908,-1.08953034630605,,0.5191973269178222,,
,9322.0,1792.0,8012.0,1212.0,1383.0,1960.0,3105.0,,,,-0.659150054911646,-2.91790028358558,-1.08903538354022,,1.8068493055724109,,
,9326.0,1794.0,8013.0,1218.0,1380.0,1960.0,3108.0,,,,-0.659120984559896,-2.91787439393547,-1.08878416056478,,3.1781723615271527,,
,9328.0,1796.0,8016.0,1215.0,1388.0,1985.0,3122.0,,,,-0.659045809037805,-2.91784525040124,-1.09013228558646,,4.609753186325263,,
,9326.0,1796.0,8015.0,1215.0,1388.0,1978.0,3121.0,,,,-0.659642376404785,-2.9179452638595,-1.08897299902673,,6.0763858034661435,,
,9327.0,1795.0,8015.0,1214.0,1385.0,1961.0,3125.0,,,,-0.659126399980883,-2.9179842663446,-1.08928141259755,,7.551217999755058,,
,9327.0,1798.0,8016.0,1215.0,1383.0,1963.0,3111.0,,,,-0.659297771207087,-2.91784692755495,-1.09053728100679,,9.005779949069117,,
,9330.0,1796.0,8017.0,1219.0,1366.0,1968.0,3115.0,,,,-0.659520532038444,-2.91785539814956,-1.09136179206664,,10.410012656753473,,
,9329.0,1796.0,8015.0,1217.0,1371.0,1964.0,3115.0,,,,-0.659499797840986,-2.91794915543335,-1.09053955174012,,11.732432741587173,,
,9330.0,1799.0,8016.0,1215.0,1398.0,1965.0,3104.0,,,,-0.659555418297779,-2.91797818063925,-1.09159170736821,,12.940561459579625,,
,9331.0,1799.0,8021.0,1216.0,1400.0,1960.0,3108.0,,,,-0.659335484421173,-2.91803095203115,-1.09095947086085,,14.00170945807911,,
,9331.0,1801.0,8021.0,1219.0,1382.0,1971.0,3114.0,,,,-0.659475579398317,-2.91806035815592,-1.0905104664784,,14.884149335085423,,
,9329.0,1800.0,8019.0,1216.0,1374.0,1971.0,3119.0,,,,-0.659515771603152,-2.91805668305716,-1.09161955360224,,15.558635915757048,,
,9331.0,1799.0,8018.0,1218.0,1385.0,1970.0,3119.0,,,,-0.659598574715872,-2.91814666891298,-1.09187738652712,,16.000162708426956,,
,9332.0,1801.0,8020.0,1216.0,1392.0,1959.0,3111.0,,,,-0.659531589720618,-2.91810036883477,-1.09275242106232,,16.18978497069606,,
,9331.0,1805.0,8020.0,1218.0,1385.0,1958.0,3104.0,,,,-0.659889906033984,-2.91812697604307,-1.09194494280711,,16.116304320715603,,
,9332.0,1803.0,8020.0,1217.0,1370.0,1965.0,3106.0,,,,-0.65958540312421,-2.91806301646436,-1.09232924739404,,15.777602121587105,,
,9329.0,1801.0,8018.0,1216.0,1346.0,1972.0,3110.0,,,,-0.659425282001178,-2.91795063327922,-1.09169477954403,,15.181431259732905,,
,9330.0,1801.0,8020.0,1217.0,1368.0,1952.0,3108.0,,,,-0.659412680809308,-2.91797909935145,-1.09161130413757,,14.345527901980764,,
,9330.0,1804.0,8019.0,1216.0,1364.0,1961.0,3097.0,,,,-0.659480815420514,-2.91812354116941,-1.09206813615791,,13.29698150403609,,
,9327.0,1800.0,8018.0,1215.0,1363.0,1962.0,3106.0,,,,-0.659558870622288,-2.91802744712968,-1.09305752767869,,12.070891811674997,,
,9329.0,1797.0,8015.0,1214.0,1363.0,1960.0,3117.0,,,,-0.659757389108522,-2.91807004675531,-1.09331169968635,,10.708429522075699,,
,9325.0,1796.0,8013.0,1214.0,1347.0,1953.0,3119.0,,,,-0.659619279591833,-2.91808527244793,-1.09341510454538,,9.254485611045844,,
,9328.0,1796.0,8014.0,1213.0,1363.0,1956.0,3105.0,,,,-0.659499981645816,-2.91813641646026,-1.09381819311687,,7.755131444471426,,
,9323.0,1792.0,8012.0,1210.0,1366.0,1962.0,3105.0,,,,-0.659659438202082,-2.9180156004698,-1.09355235997292,,6.255114863300176,,
,9321.0,1789.0,8010.0,1213.0,1366.0,1974.0,3111.0,,,,-0.660064497897652,-2.91818426650868,-1.09379733339392,,4.795591616446884,,
,9323.0,1787.0,8003.0,1211.0,1370.0,1967.0,3114.0,,,,-0.660006321285337,-2.91829970771026,-1.09421469210758,,3.412246568258401,,
,9325.0,1785.0,8002.0,1212.0,1365.0,1968.0,3102.0,,,,-0.660639908219103,-2.91826602166591,-1.09472415424601,,2.133905797104533,,
,9323.0,1785.0,8000.0,1213.0,1371.0,1964.0,3108.0,,,,-0.660822046515781,-2.91844929711728,-1.09484067413214,,0.9816880502422954,,
2025-08-07 00:37:57,9320.0,1786.0,7996.0,1210.0,1370.0,1970.0,3099.0,,,2025/08/07 12:37:57 AM,-0.660658651830822,-2.91843534141006,-1.09401197537906,,-0.031302389385296794,,
,9322.0,1781.0,7997.0,1210.0,1376.0,1970.0,3106.0,,,,-0.661277153890185,-2.91834323686468,-1.09292222966397,,-0.8997775553903153,,
,9321.0,1780.0,7993.0,1210.0,1398.0,1977.0,3102.0,,,,-0.660854196675942,-2.91851138850627,-1.09251345307936,,-1.6256286046981394,,
,9318.0,1780.0,7995.0,1210.0,1388.0,1975.0,3108.0,,,,-0.660893205141156,-2.91844064451394,-1.09315262066419,,-2.2169380861675587,,
,9320.0,1780.0,7991.0,1208.0,1377.0,1980.0,3108.0,,,,-0.661127316129179,-2.91837489463869,-1.09453414522853,,-2.6867441001039305,,
,9318.0,1776.0,7990.0,1208.0,1377.0,1975.0,3105.0,,,,-0.660810316200251,-2.91861708583136,-1.09321199451543,,-3.05166370152485,,
,9321.0,1777.0,7992.0,1211.0,1368.0,1985.0,3105.0,,,,-0.661305404397639,-2.91861688878532,-1.09462151527739,,-3.330479022998586,,
,9321.0,1779.0,7991.0,1210.0,1380.0,1974.0,3095.0,,,,-0.661299341909252,-2.91864193633928,-1.09385253399251,,-3.542778258481942,,
,9318.0,1778.0,7987.0,1208.0,1384.0,1981.0,3091.0,,,,-0.661235973870327,-2.91850790340651,-1.09441589789046,,-3.7077270154926976,,
,9319.0,1778.0,7984.0,1208.0,1371.0,1982.0,3096.0,,,,-0.661176913290764,-2.91842331533577,-1.09479363241876,,-3.8430260447691706,,
,9321.0,1777.0,7984.0,1210.0,1379.0,1967.0,3090.0,,,,-0.661276792968682,-2.91838361658865,-1.09371332145329,,-3.9640912574877643,,
,9320.0,1774.0,7982.0,1210.0,1373.0,1974.0,3086.0,,,,-0.661037638531617,-2.91849585843006,-1.09457619552242,,-4.083473075912191,,
,9321.0,1775.0,7984.0,1208.0,1375.0,1978.0,3102.0,,,,-0.661294123645721,-2.91845981440085,-1.0941624995461,,-4.2105158331695165,,
,9317.0,1774.0,7981.0,1208.0,1380.0,1961.0,3098.0,,,,-0.661391261684969,-2.91851808704728,-1.09407569127501,,-4.351244873114622,,
,9318.0,1775.0,7984.0,1208.0,1375.0,1958.0,3098.0,,,,-0.661240957119828,-2.91862933893056,-1.0940906985742,,-4.5084594360317976,,
,9319.0,1776.0,7983.0,1205.0,1364.0,1969.0,3100.0,,,,-0.661395902960563,-2.91854927455835,-1.09327240202284,,-4.682003235373289,,
,9319.0,1774.0,7982.0,1209.0,1367.0,1964.0,3093.0,,,,-0.661459850946293,-2.91848759388655,-1.09411747945407,,-4.869181443004197,,
,9319.0,1775.0,7980.0,1207.0,1383.0,1953.0,3117.0,,,,-0.661584326852093,-2.91867804557923,-1.09404296446692,,-5.065291851504398,,
,9317.0,1777.0,7981.0,1208.0,1377.0,1959.0,3122.0,,,,-0.661975260443074,-2.91861044646614,-1.09408208652792,,-5.264238067813873,,
,9319.0,1776.0,7982.0,1206.0,1371.0,1958.0,3116.0,,,,-0.662027118022645,-2.91882201789908,-1.09435022459992,,-5.4591922494046505,,
,9318.0,1773.0,7979.0,1205.0,1367.0,1956.0,3113.0,,,,-0.662209714548641,-2.91880834874696,-1.09425660169578,,-5.64327307408725,,
,9316.0,1773.0,7978.0,1205.0,1379.0,1968.0,3116.0,,,,-0.662297103397747,-2.9186825515039,-1.09393438462679,,-5.810201613098277,,
,9316.0,1773.0,7978.0,1205.0,1378.0,1957.0,3130.0,,,,-0.662586727229977,-2.91887178406923,-1.0937360244006,,-5.954895373862426,,
,9317.0,1775.0,7978.0,1207.0,1362.0,1958.0,3121.0,,,,-0.662181381457274,-2.91873499020621,-1.0934390145368,,-6.073961237588708,,
,9319.0,1776.0,7981.0,1208.0,1373.0,1969.0,3135.0,,,,-0.662675917629554,-2.9187134399925,-1.09330638038916,,-6.16605238667162,,
,9319.0,1773.0,7979.0,1205.0,1369.0,1980.0,3119.0,,,,-0.662722207856779,-2.91878234783389,-1.09483533414213,,-6.2320619152474155,,
,9317.0,1774.0,7977.0,1204.0,1361.0,1969.0,3124.0,,,,-0.662430938587143,-2.91877323203509,-1.09435377824467,,-6.2751351440614345,,
,9318.0,1772.0,7980.0,1206.0,1371.0,1971.0,3127.0,,,,-0.662830146926619,-2.91884230166447,-1.09425653366846,,-6.300492652449065,,
,9318.0,1775.0,7979.0,1208.0,1370.0,1967.0,3095.0,,,,-0.662881651867905,-2.91892574348124,-1.09391409543971,,-6.3150665297472965,,
,9318.0,1773.0,7977.0,1206.0,1376.0,1973.0,3098.0,,,,-0.66298138646114,-2.91881873805325,-1.09551660386799,,-6.326963643968314,,
,9315.0,1771.0,7980.0,1205.0,1375.0,1973.0,3103.0,,,,-0.662920667977795,-2.91883716161729,-1.0949013620968,,-6.3447818968749585,,
,9317.0,1775.0,7977.0,1208.0,1365.0,1962.0,3111.0,,,,-0.663089233669444,-2.91893501122074,-1.09436085914845,,-6.37681790573256,,
,9316.0,1773.0,7976.0,1205.0,1363.0,1962.0,3094.0,,,,-0.663176353506178,-2.91888246765649,-1.09453587277501,,-6.430216201904315,,
,9315.0,1773.0,7980.0,1205.0,1366.0,1962.0,3098.0,,,,-0.662754084762714,-2.9187598563059,-1.09519596856288,,-6.510119596069327,,
,9315.0,1773.0,7977.0,1206.0,1349.0,1971.0,3102.0,,,,-0.663078490720138,-2.91885839438729,-1.09386525022371,,-6.6188867256048045,,
,9317.0,1774.0,7976.0,1206.0,1362.0,1978.0,3102.0,,,,-0.663035131287247,-2.91886740396551,-1.09454077942482,,-6.7554450992412844,,
,9315.0,1772.0,7978.0,1204.0,1371.0,1978.0,3108.0,,,,-0.662651995592346,-2.91880102132226,-1.09519599317653,,-6.914845482561721,,
,9317.0,1774.0,7977.0,1205.0,1369.0,1966.0,3100.0,,,,-0.662676800565933,-2.91888493031118,-1.09479242815889,,-7.088075623426454,,
,9315.0,1772.0,7976.0,1202.0,1369.0,1962.0,3111.0,,,,-0.663016216397557,-2.91878684445678,-1.0950024440793,,-7.262177582607359,,
,9317.0,1772.0,7975.0,1204.0,1371.0,1967.0,3103.0,,,,-0.66251581116602,-2.91874836710186,-1.09376541771332,,-7.420692995281379,,
,9316.0,1774.0,7978.0,1205.0,1382.0,1968.0,3098.0,,,,-0.662301088507086,-2.91896466820542,-1.093948703731,,-7.544434643903327,,
,9316.0,1774.0,7977.0,1205.0,1384.0,1970.0,3102.0,,,,-0.662493390676301,-2.91887512356413,-1.09527087890164,,-7.612551922906289,,
,9316.0,1772.0,7977.0,1203.0,1380.0,1964.0,3114.0,,,,-0.662853247576993,-2.91890976948793,-1.0950474102025,,-7.60382462119879,,
,9315.0,1772.0,7972.0,1205.0,1380.0,1971.0,3119.0,,,,-0.662659714361305,-2.91878943488131,-1.09538954031956,,-7.498088008861498,,
,9317.0,1775.0,7979.0,1206.0,1379.0,1970.0,3108.0,,,,-0.662702602428242,-2.91886257157492,-1.09578981355699,,-7.277667823978316,,
,9314.0,1773.0,7976.0,1204.0,1388.0,1965.0,3106.0,,,,-0.662250422303954,-2.91882023976666,-1.09590306020292,,-6.928691871100895,,
,9314.0,1770.0,7972.0,1203.0,1374.0,1956.0,3119.0,,,,-0.662416022667505,-2.91896262711953,-1.09546995125156,,-6.44214953599516,,
,9316.0,1773.0,7974.0,1203.0,1385.0,1961.0,3111.0,,,,-0.662070221064105,-2.91894960748438,-1.09620600168978,,-5.81459291626311,,
,9314.0,1773.0,7976.0,1205.0,1374.0,1956.0,3100.0,,,,-0.662485406274935,-2.91890128504744,-1.09514502104383,,-5.048411850024278,,
,9318.0,1771.0,7975.0,1206.0,1371.0,1956.0,3099.0,,,,-0.662857985717346,-2.91874429828286,-1.09516836392314,,-4.151665385200643,,
,9316.0,1775.0,7975.0,1202.0,1389.0,1959.0,3104.0,,,,-0.662515739945601,-2.91872492202252,-1.09636246147324,,-3.1375066784253463,,
,9317.0,1773.0,7976.0,1205.0,1371.0,1968.0,3102.0,,,,-0.662907747867005,-2.91883019637678,-1.09644022099939,,-2.023287163063218,,
,9316.0,1772.0,7976.0,1203.0,1382.0,1959.0,3098.0,,,,-0.662295193579901,-2.91887450883025,-1.0960300870534,,-0.8294595706893935,,
,9316.0,1773.0,7978.0,1206.0,1371.0,1962.0,3100.0,,,,-0.662484812809908,-2.9189376432214,-1.09570366994109,,0.4215878004137346,,
,9316.0,1774.0,7975.0,1205.0,1347.0,1964.0,3103.0,,,,-0.661768435353315,-2.91887611951172,-1.09601489909341,,1.70664154361321,,
,9315.0,1774.0,7976.0,1204.0,1364.0,1967.0,3111.0,,,,-0.661982380123847,-2.91885243702391,-1.09505440310967,,3.0026191344499247,,
,9317.0,1776.0,7978.0,1206.0,1385.0,1968.0,3109.0,,,,-0.662330620797692,-2.91868097721286,-1.09476899888584,,4.287305345361434,,
,9319.0,1776.0,7982.0,1206.0,1389.0,1974.0,3108.0,,,,-0.662101163608582,-2.91880144948136,-1.09548703005719,,5.539840511492215,,
,9318.0,1776.0,7979.0,1204.0,1386.0,1972.0,3107.0,,,,-0.66165659389021,-2.91868601963981,-1.09504956246723,,6.740966592675064,,
,9317.0,1775.0,7980.0,1203.0,1378.0,1976.0,3110.0,,,,-0.661176800366343,-2.91863288905393,-1.0931152294042,,7.87306730967275,,
,9320.0,1777.0,7982.0,1205.0,1391.0,1963.0,3103.0,,,,-0.660820323987159,-2.91860451503307,-1.09357092069868,,8.92006323606771,,
,9319.0,1774.0,7981.0,1205.0,1385.0,1958.0,3102.0,,,,-0.660792337508083,-2.91854100376937,-1.0933338668792,,9.867239341273981,,
,9322.0,1777.0,7981.0,1206.0,1368.0,1951.0,3104.0,,,,-0.660947350003563,-2.91833793160412,-1.09330113926339,,10.701088520402921,,
,9318.0,1777.0,7981.0,1206.0,1352.0,1970.0,3096.0,,,,-0.660790866531223,-2.91844253849573,-1.09345485827037,,11.409248521338343,,
,9319.0,1778.0,7983.0,1206.0,1366.0,1967.0,3109.0,,,,-0.66072841675415,-2.9186286144778,-1.09458150758914,,11.98059149663374,,
,9322.0,1776.0,7986.0,1206.0,1372.0,1958.0,3117.0,,,,-0.660987076255779,-2.91856359987864,-1.09538761336923,,12.40549677079648,,
,9321.0,1776.0,7983.0,1206.0,1367.0,1953.0,3114.0,,,,-0.661258598683302,-2.91849909493279,-1.09458716447808,,12.676301206239447,,
,9321.0,1775.0,7983.0,1206.0,1374.0,1970.0,3120.0,,,,-0.661135255242607,-2.91868226399119,-1.09415697072624,,12.78788236446819,,
,9324.0,1779.0,7985.0,1205.0,1383.0,1965.0,3108.0,,,,-0.661241123178266,-2.91866070980843,-1.09382921095576,,12.738294111593724,,
,9323.0,1782.0,7986.0,1206.0,1360.0,1960.0,3105.0,,,,-0.661474688469428,-2.91868337512599,-1.09350947158372,,12.52935000226676,,
,9323.0,1780.0,7985.0,1208.0,1366.0,1961.0,3100.0,,,,-0.661466128136539,-2.91881071562394,-1.09351684101277,,12.167042967830149,,
,9321.0,1779.0,7989.0,1206.0,1374.0,1959.0,3105.0,,,,-0.661611800744137,-2.91869697448525,-1.09516616909478,,11.66170343878248,,
,9324.0,1782.0,7990.0,1208.0,1366.0,1960.0,3111.0,,,,-0.661526315490223,-2.91877679496349,-1.09443123175164,,11.027830743328478,,
,9323.0,1782.0,7989.0,1206.0,1381.0,1967.0,3103.0,,,,-0.66144465006292,-2.91864125488079,-1.0950751157694,,10.283579070295863,,
,9324.0,1781.0,7988.0,1206.0,1375.0,1969.0,3104.0,,,,-0.662086786003147,-2.91863029934549,-1.09475074661171,,9.44993079918714,,
,9324.0,1779.0,7986.0,1207.0,1374.0,1964.0,3096.0,,,,-0.661351174898393,-2.91865913581439,-1.09469187232636,,8.54963624460775,,
,9327.0,1783.0,7992.0,1209.0,1369.0,1960.0,3101.0,,,,-0.661527965302172,-2.91867453168181,-1.0943985052707,,7.606030477849125,,
,9327.0,1783.0,7993.0,1209.0,1369.0,1963.0,3105.0,,,,-0.661158535044186,-2.91874961889939,-1.09492134356997,,6.641849356102221,,
,9328.0,1785.0,7992.0,1207.0,1360.0,1971.0,3103.0,,,,-0.661245286391189,-2.91863892134806,-1.09489006117496,,5.6781580507819305,,
,9328.0,1783.0,7992.0,1208.0,1344.0,1964.0,3108.0,,,,-0.661159531235595,-2.91852845071824,-1.09476455133848,,4.73348068867227,,
,9328.0,1785.0,7993.0,1208.0,1379.0,1963.0,3100.0,,,,-0.661212964825789,-2.91864418168057,-1.09472395786864,,3.8231859835034974,,
,9331.0,1786.0,7993.0,1209.0,1376.0,1953.0,3098.0,,,,-0.661199638903733,-2.91859863877859,-1.09570363296369,,2.9591478036064784,,
,9329.0,1786.0,7996.0,1209.0,1374.0,1955.0,3107.0,,,,-0.661384398678249,-2.9185947154188,-1.09526122979204,,2.149667314421773,,
,9327.0,1785.0,7995.0,1208.0,1368.0,1964.0,3093.0,,,,-0.66110139377074,-2.91860327717229,-1.09527661798948,,1.3996190560246424,,
,9328.0,1787.0,7997.0,1208.0,1365.0,1979.0,3103.0,,,,-0.660703755564997,-2.91843512296776,-1.09586024021965,,0.7107696093097599,,
,9333.0,1789.0,7995.0,1211.0,1383.0,1977.0,3109.0,,,,-0.660189735220455,-2.91835032230093,-1.09552022972387,,0.082214407532698,,
,9332.0,1786.0,7997.0,1209.0,1398.0,1968.0,3116.0,,,,-0.660578285184699,-2.91822638033282,-1.09493053019066,,-0.48911685540897626,,
,9330.0,1788.0,8000.0,1210.0,1381.0,1966.0,3115.0,,,,-0.660384797723301,-2.91838384181351,-1.09409474111401,,-1.0079270184275628,,
,9333.0,1787.0,8002.0,1209.0,1381.0,1960.0,3110.0,,,,-0.660647794136862,-2.9183509854877,-1.09357008012881,,-1.4800222369914244,,
,9335.0,1788.0,7999.0,1209.0,1373.0,1956.0,3105.0,,,,-0.660591126038696,-2.91840751750723,-1.09507189330616,,-1.9118109446876432,,
,9335.0,1789.0,8001.0,1210.0,1372.0,1959.0,3106.0,,,,-0.660428359464237,-2.91834713515219,-1.09362165627439,,-2.309848981845005,,
,9334.0,1788.0,8003.0,1209.0,1379.0,1960.0,3106.0,,,,-0.66099722294119,-2.9183984696442,-1.09419233046791,,-2.6804435376922493,,
,9337.0,1790.0,8003.0,1209.0,1375.0,1973.0,3122.0,,,,-0.660838906166972,-2.9184080299444,-1.09621807383521,,-3.0293238090761823,,
,9336.0,1790.0,8003.0,1211.0,1370.0,1966.0,3115.0,,,,-0.660869792642304,-2.91853276849489,-1.09523404029985,,-3.3613823292899703,,
,9337.0,1790.0,8004.0,1209.0,1375.0,1969.0,3115.0,,,,-0.661441225066997,-2.91855876976698,-1.09568291787065,,-3.6804881012153112,,
,9337.0,1791.0,8005.0,1211.0,1388.0,1967.0,3092.0,,,,-0.661311436615956,-2.91848263491547,-1.09600382285683,,-3.98937105565738,,
,9338.0,1790.0,8004.0,1211.0,1392.0,1957.0,3099.0,,,,-0.661520946085697,-2.91846292471031,-1.09612541296295,,-4.289576641591266,,
,9338.0,1792.0,8005.0,1214.0,1382.0,1968.0,3117.0,,,,-0.660842278133205,-2.91865061575826,-1.09543436864544,,-4.581489032819027,,
,9338.0,1794.0,8007.0,1213.0,1373.0,1971.0,3116.0,,,,-0.660885838303931,-2.91860413978192,-1.0946864431508,,-4.864420982736156,,
,9342.0,1791.0,8009.0,1213.0,1380.0,1970.0,3107.0,,,,-0.661272503134283,-2.91860165091873,-1.09596793334059,,-5.136767301179825,,
,9338.0,1793.0,8005.0,1210.0,1380.0,1972.0,3109.0,,,,-0.661642635630467,-2.91860984826306,-1.09563074991135,,-5.3962169363333,,
,9344.0,1796.0,8010.0,1212.0,1360.0,1978.0,3111.0,,,,-0.661380321721303,-2.91857180825336,-1.09559486751892,,-5.64001566855546,,
,9342.0,1795.0,8012.0,1214.0,1372.0,1975.0,3100.0,,,,-0.660900560507521,-2.91853209980508,-1.09516355612265,,-5.865267637847792,,
,9343.0,1795.0,8011.0,1214.0,1359.0,1971.0,3097.0,,,,-0.661320885398278,-2.9187176390288,-1.09471919231065,,-6.069259513099714,,
,9343.0,1794.0,8012.0,1211.0,1377.0,1967.0,3099.0,,,,-0.661710600836346,-2.91882427258353,-1.09630624814219,,-6.249786152711991,,
,9347.0,1795.0,8012.0,1215.0,1388.0,1964.0,3100.0,,,,-0.661740743806881,-2.91862884122706,-1.09572477176966,,-6.405451349282107,,
,9346.0,1797.0,8016.0,1213.0,1379.0,1970.0,3099.0,,,,-0.661649365014317,-2.91871483733419,-1.09639795072518,,-6.535912627070373,,
,9346.0,1797.0,8017.0,1215.0,1383.0,1976.0,3101.0,,,,-0.661953332268518,-2.91876370913552,-1.09637631207525,,-6.642036928607739,,
,9346.0,1795.0,8013.0,1212.0,1375.0,1973.0,3116.0,,,,-0.661493332388148,-2.91874629590685,-1.09569103752769,,-6.725936542675689,,
,9350.0,1799.0,8016.0,1215.0,1413.0,1977.0,3112.0,,,,-0.661900093581264,-2.91876329058785,-1.09562390112273,,-6.790862951315486,,
,9353.0,1800.0,8019.0,1217.0,1366.0,1960.0,3101.0,,,,-0.662040352737352,-2.91872676740374,-1.09712445081811,,-6.84094971888328,,
,9349.0,1800.0,8018.0,1216.0,1383.0,1966.0,3101.0,,,,-0.661614007925715,-2.91868750153297,-1.09632063104508,,-6.880811949743559,,
,9350.0,1800.0,8017.0,1215.0,1395.0,1972.0,3108.0,,,,-0.661799783503755,-2.91876196609147,-1.09642803004527,,-6.915026732601146,,
,9350.0,1799.0,8018.0,1215.0,1377.0,1972.0,3094.0,,,,-0.661872681984303,-2.91881555803595,-1.09587187472032,,-6.947534447154401,,
,9351.0,1803.0,8020.0,1215.0,1398.0,1967.0,3102.0,,,,-0.662028752551494,-2.91867872686251,-1.09715782998228,,-6.981013508883264,,
,9350.0,1801.0,8019.0,1217.0,1393.0,1965.0,3103.0,,,,-0.66146661805073,-2.91875946457834,-1.09619518485814,,-7.016289938175122,,
,9351.0,1802.0,8021.0,1214.0,1409.0,1971.0,3100.0,,,,-0.661684084649168,-2.91873312540613,-1.09634423708435,,-7.05184683362785,,
,9353.0,1801.0,8023.0,1217.0,1392.0,1970.0,3110.0,,,,-0.66197420171327,-2.91873909099431,-1.09675654569852,,-7.083496215781855,,
,9353.0,1805.0,8025.0,1220.0,1401.0,1977.0,3096.0,,,,-0.662026184257275,-2.91886299582263,-1.09640333651976,,-7.104266084919889,,
,9353.0,1804.0,8021.0,1219.0,1412.0,1976.0,3103.0,,,,-0.661838997758973,-2.91884363543962,-1.09542185509342,,-7.10453908574816,,
,9353.0,1803.0,8022.0,1214.0,1398.0,1967.0,3098.0,,,,-0.661954528433514,-2.91889678474351,-1.09661191157411,,-7.072457012056578,,
,9354.0,1804.0,8023.0,1216.0,1396.0,1972.0,3122.0,,,,-0.662352740650824,-2.91892351631765,-1.09686014107885,,-6.994579370304302,,
,9358.0,1805.0,8025.0,1218.0,1388.0,1964.0,3115.0,,,,-0.662483414993842,-2.9189047888784,-1.09781773716007,,-6.856756714759483,,
,9355.0,1806.0,8024.0,1218.0,1384.0,1963.0,3108.0,,,,-0.662204420852158,-2.91887264088546,-1.0971240247331,,-6.645153191454402,,
,9357.0,1805.0,8024.0,1216.0,1378.0,1974.0,3104.0,,,,-0.662560200340596,-2.91887937319626,-1.09653164859738,,-6.347330665346679,,
,9353.0,1806.0,8023.0,1217.0,1368.0,1971.0,3112.0,,,,-0.662377735825806,-2.91883442997107,-1.09780989874524,,-5.953292086833007,,
,9355.0,1806.0,8025.0,1218.0,1381.0,1971.0,3114.0,,,,-0.662571377081676,-2.91898938567368,-1.09794413195662,,-5.4563775004685535,,
,9355.0,1806.0,8026.0,1220.0,1366.0,1970.0,3114.0,,,,-0.662730077725556,-2.9190317317918,-1.09658088644871,,-4.85391504444656,,
2025-08-07 00:37:58,9356.0,1805.0,8021.0,1217.0,1361.0,1970.0,3124.0,,,2025/08/07 12:37:58 AM,-0.663012054253854,-2.9190094600439,-1.09780043292959,,-4.1475529054526215,,
,9352.0,1805.0,8021.0,1215.0,1375.0,1965.0,3105.0,,,,-0.663202456179339,-2.91898303166487,-1.09847636203637,,-3.3432352446006415,,
,9352.0,1802.0,8022.0,1214.0,1375.0,1954.0,3096.0,,,,-0.663338782735085,-2.91911991808629,-1.09765235421506,,-2.450830473173295,,
,9352.0,1805.0,8021.0,1216.0,1362.0,1961.0,3099.0,,,,-0.66345319094715,-2.91903781869554,-1.09867176138213,,-1.4834655190482584,,
,9350.0,1799.0,8018.0,1214.0,1359.0,1959.0,3097.0,,,,-0.663355870104818,-2.91912045568054,-1.09941568684009,,-0.4566559253869075,,
,9348.0,1797.0,8015.0,1212.0,1363.0,1957.0,3109.0,,,,-0.66325480596908,-2.91915510184042,-1.09852937191537,,0.6126576126741055,,
,9345.0,1795.0,8014.0,1214.0,1382.0,1967.0,3105.0,,,,-0.663364555918548,-2.91900547461034,-1.09747113923341,,1.707052570388469,,
,9347.0,1795.0,8011.0,1213.0,1375.0,1963.0,3090.0,,,,-0.662795521151181,-2.91915244656483,-1.09840613603948,,2.809447064349943,,
,9344.0,1790.0,8008.0,1211.0,1379.0,1967.0,3097.0,,,,-0.662718998606063,-2.91910482288527,-1.09692642043682,,3.903725868567244,,
,9343.0,1789.0,8004.0,1211.0,1388.0,1975.0,3109.0,,,,-0.662739197414356,-2.9189006195729,-1.09812948801923,,4.975126755001623,,
,9341.0,1788.0,8005.0,1212.0,1397.0,1976.0,3103.0,,,,-0.663233292024959,-2.91900354111291,-1.09793087953386,,6.010378895120013,,
,9344.0,1788.0,8001.0,1212.0,1384.0,2000.0,3117.0,,,,-0.662870895729253,-2.91902559781342,-1.09710663483976,,6.997618404711137,,
,9346.0,1788.0,8000.0,1214.0,1389.0,1996.0,3102.0,,,,-0.663394411612626,-2.91898112907439,-1.09739154405152,,7.926134274415513,,
,9343.0,1786.0,7999.0,1210.0,1401.0,1990.0,3099.0,,,,-0.66316968557706,-2.91907881133326,-1.09932905675723,,8.786018041153477,,
,9343.0,1784.0,7996.0,1211.0,1407.0,1998.0,3106.0,,,,-0.663255369207939,-2.91907512269471,-1.09770816348737,,9.567800629976084,,
,9342.0,1784.0,7994.0,1213.0,1390.0,1992.0,3108.0,,,,-0.663295896847954,-2.91904634559878,-1.09826977597259,,10.262158886782476,,
,9342.0,1783.0,7993.0,1210.0,1396.0,1993.0,3107.0,,,,-0.663464400491981,-2.918965711096,-1.09772753992624,,10.859762659917203,,
,9341.0,1781.0,7990.0,1209.0,1423.0,1983.0,3099.0,,,,-0.663421179758311,-2.9190113645003,-1.09779130867961,,11.351312288842092,,
,9339.0,1781.0,7990.0,1210.0,1409.0,1980.0,3099.0,,,,-0.663133323356643,-2.91893194485517,-1.09780558232938,,11.72778842305901,,
,9341.0,1783.0,7990.0,1211.0,1404.0,1970.0,3093.0,,,,-0.663293988728133,-2.91909072494594,-1.09732082769818,,11.980904184193035,,
,9343.0,1779.0,7986.0,1208.0,1405.0,1962.0,3087.0,,,,-0.663225317758518,-2.91896016022051,-1.09821940703371,,12.103716980354255,,
,9340.0,1780.0,7985.0,1209.0,1394.0,1954.0,3090.0,,,,-0.663260421721598,-2.91892585315842,-1.09650170779334,,12.09132745030091,,
,9346.0,1779.0,7988.0,1209.0,1406.0,1963.0,3090.0,,,,-0.662843130375772,-2.91883781489129,-1.09775855126974,,11.9415707976211,,
,9342.0,1782.0,7985.0,1208.0,1388.0,1961.0,3096.0,,,,-0.663215413111236,-2.91879159617342,-1.09702020863393,,11.655596660248047,,
,9344.0,1778.0,7984.0,1208.0,1392.0,1962.0,3095.0,,,,-0.663108293515117,-2.91886829506407,-1.09638786982098,,11.2382419977981,,
,9341.0,1780.0,7985.0,1206.0,1390.0,1961.0,3113.0,,,,-0.662828261739889,-2.91877835411481,-1.09696337717049,,10.698128031506693,,
,9341.0,1779.0,7982.0,1206.0,1408.0,1958.0,3101.0,,,,-0.662572371635066,-2.91892582506801,-1.09629469175933,,10.047452730950344,,
,9341.0,1779.0,7983.0,1209.0,1389.0,1964.0,3106.0,,,,-0.662770845976299,-2.91877036010824,-1.09873907129991,,9.30149591168625,,
,9342.0,1777.0,7983.0,1208.0,1383.0,1973.0,3105.0,,,,-0.662652988639528,-2.9188365183256,-1.09719037187987,,8.477894319159914,,
,9341.0,1777.0,7983.0,1206.0,1374.0,1977.0,3102.0,,,,-0.662535557370168,-2.91875331940775,-1.09627786325147,,7.595771062861836,,
,9339.0,1776.0,7980.0,1206.0,1383.0,1964.0,3103.0,,,,-0.66252817177618,-2.91865476512708,-1.09670133352564,,6.6748141045800695,,
,9340.0,1777.0,7981.0,1207.0,1395.0,1957.0,3106.0,,,,-0.661879547104018,-2.91860190112615,-1.09530360854214,,5.734393408403663,,
,9341.0,1777.0,7982.0,1207.0,1380.0,1964.0,3116.0,,,,-0.662309032630164,-2.91856785929098,-1.0964388849588,,4.792789698917648,,
,9341.0,1778.0,7980.0,1205.0,1386.0,1969.0,3121.0,,,,-0.661954857378999,-2.91865238885614,-1.09610483515715,,3.8665841951209052,,
,9340.0,1778.0,7978.0,1208.0,1392.0,1967.0,3107.0,,,,-0.661751754832496,-2.9185167195335,-1.09558656127635,,2.9702325585396765,,
,9342.0,1779.0,7980.0,1207.0,1376.0,1960.0,3114.0,,,,-0.661440045298583,-2.91861981956743,-1.0976829665729,,2.115821367893478,,
,9339.0,1778.0,7980.0,1208.0,1402.0,1970.0,3122.0,,,,-0.661491460375616,-2.91847201954602,-1.09581478609996,,1.3129848833171591,,
,9339.0,1777.0,7980.0,1206.0,1397.0,1970.0,3117.0,,,,-0.661581479856273,-2.91858997223415,-1.09564858243998,,0.5689462957004494,,
,9340.0,1777.0,7978.0,1206.0,1384.0,1980.0,3109.0,,,,-0.661266647467944,-2.91848761275668,-1.09585582517574,,-0.11135729103078969,,
,9341.0,1778.0,7980.0,1206.0,1379.0,1978.0,3102.0,,,,-0.661519072086617,-2.91862689641197,-1.09534126568299,,-0.7251033469606771,,
,9341.0,1777.0,7979.0,1206.0,1384.0,2002.0,3116.0,,,,-0.661704260705222,-2.91874195925496,-1.09653133776391,,-1.2713934075805884,,
,9337.0,1778.0,7976.0,1205.0,1394.0,2007.0,3114.0,,,,-0.661497179600338,-2.91850667674973,-1.09540971269643,,-1.7510592539073784,,
,9338.0,1775.0,7976.0,1205.0,1370.0,1967.0,3100.0,,,,-0.661565428946232,-2.91856375760319,-1.0965045006572,,-2.1664710821143744,,
,9341.0,1777.0,7977.0,1208.0,1379.0,1968.0,3115.0,,,,-0.661410457817515,-2.91865800545988,-1.09458102733101,,-2.5213459014926736,,
,9337.0,1778.0,7977.0,1206.0,1377.0,1967.0,3100.0,,,,-0.661389829669794,-2.91845422498097,-1.09590483206387,,-2.8205507221421042,,
,9337.0,1776.0,7977.0,1204.0,1369.0,1967.0,3103.0,,,,-0.660910579969291,-2.91849869745654,-1.09516085317467,,-3.069894077880856,,
,9337.0,1776.0,7977.0,1206.0,1381.0,1962.0,3115.0,,,,-0.660989263109667,-2.91858609002851,-1.09583265843433,,-3.2759003669259767,,
,9339.0,1777.0,7976.0,1204.0,1392.0,1972.0,3109.0,,,,-0.661350340240942,-2.91843535673762,-1.09570348898481,,-3.4455638790714356,,
,9339.0,1777.0,7978.0,1208.0,1408.0,1968.0,3106.0,,,,-0.661354471116403,-2.91848859652727,-1.09571940776412,,-3.586082778794658,,
,9337.0,1776.0,7975.0,1204.0,1400.0,1959.0,3105.0,,,,-0.661656061601816,-2.91837285752418,-1.09569449090684,,-3.7045772309616254,,
,9337.0,1775.0,7974.0,1206.0,1376.0,1962.0,3107.0,,,,-0.661894954904151,-2.91845785986251,-1.09540900183172,,-3.8077997820162275,,
,9337.0,1776.0,7975.0,1205.0,1391.0,1971.0,3099.0,,,,-0.662158807911446,-2.91846064373121,-1.09690697527078,,-3.901849695555276,,
,9337.0,1775.0,7974.0,1205.0,1382.0,1970.0,3098.0,,,,-0.661859901956275,-2.91843230647293,-1.09653412525166,,-3.991906009653305,,
,9336.0,1774.0,7975.0,1206.0,1383.0,1978.0,3102.0,,,,-0.66181517976197,-2.91861353096026,-1.09597647436185,,-4.081996436229774,,
,9337.0,1771.0,7972.0,1203.0,1382.0,1984.0,3099.0,,,,-0.661593325403019,-2.91849905173811,-1.09515050987661,,-4.174820494618631,,
,9336.0,1775.0,7972.0,1205.0,1398.0,1982.0,3105.0,,,,-0.661326272444547,-2.91862164772127,-1.09502193420716,,-4.271644972468693,,
,9339.0,1774.0,7971.0,1204.0,1391.0,1977.0,3109.0,,,,-0.660945588522635,-2.91855109538062,-1.0945816870322,,-4.372287450603078,,
,9337.0,1775.0,7972.0,1204.0,1392.0,1975.0,3110.0,,,,-0.66075532907555,-2.91832096600519,-1.09451158335664,,-4.4751988483856255,,
,9337.0,1774.0,7973.0,1205.0,1380.0,1973.0,3110.0,,,,-0.660468495998052,-2.91821269587563,-1.09417794756409,,-4.5776486328952055,,
,9334.0,1776.0,7974.0,1203.0,1401.0,1962.0,3102.0,,,,-0.659901287133843,-2.91823082494688,-1.09399240001501,,-4.676006839865831,,
,9338.0,1773.0,7974.0,1204.0,1385.0,1971.0,3092.0,,,,-0.65994334803911,-2.9183342916195,-1.09369141125438,,-4.7661064394115655,,
,9340.0,1775.0,7975.0,1203.0,1383.0,1984.0,3095.0,,,,-0.659544042083429,-2.91799364603811,-1.0935043736496,,-4.843659698765043,,
,9336.0,1774.0,7975.0,1204.0,1378.0,1977.0,3103.0,,,,-0.659525958135033,-2.91810154321881,-1.09376885470737,,-4.904695230354676,,
,9338.0,1773.0,7975.0,1203.0,1393.0,1973.0,3114.0,,,,-0.659259140514021,-2.91811726241589,-1.09292059686141,,-4.945979867473034,,
,9338.0,1775.0,7973.0,1204.0,1404.0,1961.0,3102.0,,,,-0.659233958114506,-2.91815551681939,-1.09346454832114,,-4.965391367646234,,
,9340.0,1776.0,7972.0,1204.0,1403.0,1961.0,3096.0,,,,-0.659582150225906,-2.91813584990494,-1.09262700147342,,-4.962212833197358,,
,9336.0,1776.0,7974.0,1204.0,1410.0,1961.0,3092.0,,,,-0.659661282543701,-2.91828204195463,-1.09392873055268,,-4.93732594807766,,
,9337.0,1775.0,7975.0,1203.0,1385.0,1955.0,3083.0,,,,-0.659855461227596,-2.91823253996075,-1.09350122772764,,-4.8932865619902275,,
,9337.0,1776.0,7975.0,1203.0,1391.0,1980.0,3102.0,,,,-0.659986477403423,-2.91822939803245,-1.09450709142091,,-4.83427258150683,,
,9339.0,1778.0,7973.0,1205.0,1405.0,1978.0,3095.0,,,,-0.660298459208651,-2.91821680465656,-1.09298885918899,,-4.765900855439408,,
,9338.0,1777.0,7974.0,1203.0,1410.0,1972.0,3100.0,,,,-0.660966275462694,-2.9182352317741,-1.09520128386268,,-4.694917038564871,,
,9338.0,1776.0,7974.0,1205.0,1421.0,1963.0,3101.0,,,,-0.660799643720901,-2.91833126509618,-1.09308098786208,,-4.628770169628577,,
,9339.0,1777.0,7975.0,1205.0,1405.0,1965.0,3105.0,,,,-0.660607767195318,-2.91837278689245,-1.09366022779468,,-4.575091495492591,,
,9341.0,1777.0,7979.0,1207.0,1411.0,1964.0,3088.0,,,,-0.660891669532302,-2.91837766743552,-1.09304406456234,,-4.541104515677719,,
,9340.0,1778.0,7976.0,1202.0,1415.0,1974.0,3096.0,,,,-0.660974418392735,-2.91845954674515,-1.09381442131004,,-4.533000056825262,,
,9339.0,1776.0,7975.0,1204.0,1429.0,1981.0,3118.0,,,,-0.660883853908031,-2.91843747057975,-1.09333583227723,,-4.555316166385951,,
,9341.0,1778.0,7976.0,1205.0,1421.0,1982.0,3116.0,,,,-0.660916999088528,-2.9183601973523,-1.09269006387497,,-4.61036729706601,,
,9343.0,1779.0,7980.0,1206.0,1382.0,1981.0,3108.0,,,,-0.660936030095995,-2.91851520397973,-1.09270517858907,,-4.697769927304424,,
,9341.0,1777.0,7980.0,1205.0,1406.0,1981.0,3102.0,,,,-0.661492155333939,-2.9184144030327,-1.09235316792383,,-4.814111509038407,,
,9341.0,1779.0,7980.0,1207.0,1409.0,1969.0,3101.0,,,,-0.661468525837989,-2.9183588929492,-1.09267905384904,,-4.952805471692362,,
,9343.0,1777.0,7980.0,1203.0,1410.0,1965.0,3094.0,,,,-0.661410280741387,-2.91838468430617,-1.09265928657475,,-5.104166119340268,,
,9344.0,1779.0,7980.0,1207.0,1412.0,1967.0,3101.0,,,,-0.661153381177058,-2.9184511173699,-1.09292005259138,,-5.255723239078215,,
,9344.0,1782.0,7980.0,1208.0,1405.0,1964.0,3108.0,,,,-0.660656002953585,-2.9183108143561,-1.09349897225315,,-5.392777397511519,,
,9341.0,1778.0,7982.0,1206.0,1405.0,1967.0,3129.0,,,,-0.660726979094593,-2.91832992715374,-1.09360262547643,,-5.4991745602604905,,
,9342.0,1780.0,7982.0,1204.0,1404.0,1973.0,3111.0,,,,-0.660630558561577,-2.91835463112668,-1.09276979984741,,-5.558255351600541,,
,9345.0,1782.0,7983.0,1205.0,1400.0,1969.0,3107.0,,,,-0.660829795003106,-2.91826114889672,-1.09301119444689,,-5.553913272711349,,
,9346.0,1782.0,7983.0,1209.0,1393.0,1971.0,3103.0,,,,-0.660690593583907,-2.91828631010862,-1.0932530515616,,-5.471680440350543,,
,9344.0,1782.0,7982.0,1206.0,1398.0,1972.0,3091.0,,,,-0.660623506857026,-2.91815719275811,-1.09300243286988,,-5.299750529481096,,
,9343.0,1781.0,7984.0,1205.0,1388.0,1976.0,3103.0,,,,-0.660455167564193,-2.91817130512836,-1.09224069822735,,-5.029847202983185,,
,9348.0,1781.0,7984.0,1208.0,1402.0,1976.0,3107.0,,,,-0.660373122671963,-2.91816673846551,-1.0942648771377,,-4.657852984921495,,
,9347.0,1782.0,7985.0,1209.0,1393.0,1971.0,3111.0,,,,-0.660680289506784,-2.91813734281265,-1.09311628686914,,-4.184129433939786,,
,9346.0,1782.0,7985.0,1207.0,1406.0,1981.0,3099.0,,,,-0.660513649609941,-2.91825198448194,-1.09368222247809,,-3.613485602067346,,
,9347.0,1782.0,7985.0,1207.0,1414.0,1991.0,3106.0,,,,-0.660518487179653,-2.91822573093281,-1.09283187933135,,-2.9547873338552093,,
,9348.0,1785.0,7990.0,1208.0,1411.0,1985.0,3099.0,,,,-0.660396732961515,-2.9182261614972,-1.09372003720991,,-2.220241123980724,,
,9347.0,1785.0,7990.0,1208.0,1402.0,1981.0,3099.0,,,,-0.660529930722961,-2.91819340974308,-1.09334726182003,,-1.4244264497084649,,
,9351.0,1785.0,7987.0,1206.0,1393.0,1973.0,3101.0,,,,-0.660483517432565,-2.91821079967817,-1.09311945201114,,-0.5831824457290703,,
,9348.0,1780.0,7986.0,1207.0,1404.0,1968.0,3096.0,,,,-0.66082471477553,-2.91845670709476,-1.09331677810476,,0.2875271605071579,,
,9351.0,1788.0,7991.0,1209.0,1399.0,1972.0,3105.0,,,,-0.660877168256037,-2.91845253418792,-1.09396247877959,,1.1726454715368504,,
,9350.0,1785.0,7990.0,1209.0,1394.0,1962.0,3100.0,,,,-0.660908086806433,-2.91840668236601,-1.09490303057386,,2.0588396349175966,,
,9351.0,1785.0,7991.0,1207.0,1401.0,1964.0,3104.0,,,,-0.661166682088308,-2.91835940014241,-1.09453029817242,,2.9350216840213665,,
,9350.0,1784.0,7992.0,1208.0,1417.0,1968.0,3106.0,,,,-0.661433542225611,-2.91828264644072,-1.09452646426657,,3.79252843795726,,
,9351.0,1786.0,7992.0,1208.0,1404.0,1988.0,3101.0,,,,-0.660548685900918,-2.91843884576623,-1.09434878003223,,4.624957451426288,,
,9354.0,1786.0,7993.0,1210.0,1410.0,1965.0,3099.0,,,,-0.6606905446915,-2.91847476849062,-1.09424947277908,,5.427696428818437,,
,9353.0,1785.0,7994.0,1210.0,1408.0,1977.0,3098.0,,,,-0.660961674376577,-2.91842291990553,-1.09313919419277,,6.197218717818471,,
,9353.0,1785.0,7992.0,1209.0,1407.0,1990.0,3099.0,,,,-0.661199065014988,-2.91833745973503,-1.0939459974157,,6.930244607474897,,
,9354.0,1789.0,7997.0,1209.0,1403.0,1980.0,3107.0,,,,-0.661145463633624,-2.91837450847029,-1.09475836687046,,7.622884977983688,,
,9355.0,1788.0,7996.0,1210.0,1392.0,1991.0,3110.0,,,,-0.661066799978165,-2.91853194038472,-1.09460871013725,,8.269888185952489,,
,9356.0,1789.0,7995.0,1210.0,1400.0,1985.0,3100.0,,,,-0.661285969086724,-2.91860117568348,-1.09535922170632,,8.864101114082269,,
,9356.0,1788.0,7997.0,1208.0,1420.0,1979.0,3102.0,,,,-0.66156679370364,-2.91876992210892,-1.09582697982345,,9.396231230920272,,
,9355.0,1790.0,7996.0,1211.0,1404.0,1970.0,3093.0,,,,-0.661377053490249,-2.91868301167519,-1.09559844232984,,9.854961348854498,,
,9356.0,1791.0,7999.0,1212.0,1419.0,1981.0,3108.0,,,,-0.661532276327285,-2.91873265913022,-1.09500101713877,,10.227427413089504,,
,9358.0,1790.0,7999.0,1211.0,1409.0,1986.0,3110.0,,,,-0.661982204375332,-2.91871295719388,-1.09564376967939,,10.500026963073005,,
,9360.0,1791.0,7998.0,1211.0,1398.0,1983.0,3106.0,,,,-0.66183529632365,-2.9189110143752,-1.09549080372741,,10.659485918777193,,
,9359.0,1790.0,8002.0,1207.0,1414.0,1972.0,3104.0,,,,-0.662287391351991,-2.91878641475563,-1.09549323121214,,10.69407755680138,,
,9357.0,1792.0,7999.0,1210.0,1412.0,1966.0,3102.0,,,,-0.662013048716412,-2.91886877064812,-1.09584937542963,,10.594863421835456,,
,9360.0,1794.0,8001.0,1211.0,1421.0,1972.0,3103.0,,,,-0.662546993913035,-2.91886865386243,-1.09620439544382,,10.356815088856434,,
,9361.0,1792.0,8003.0,1212.0,1398.0,1986.0,3110.0,,,,-0.662679308069627,-2.9188637210822,-1.09628376911153,,9.979681535124264,,
,9363.0,1793.0,8002.0,1211.0,1402.0,1977.0,3105.0,,,,-0.662296918426975,-2.91889090099843,-1.0949848158657,,9.46849140313292,,
,9362.0,1796.0,8004.0,1214.0,1389.0,1969.0,3113.0,,,,-0.662903879593331,-2.91876871925589,-1.09644298379934,,8.833621565937428,,
,9364.0,1794.0,8005.0,1211.0,1387.0,1975.0,3107.0,,,,-0.662495183303069,-2.91885590010832,-1.09734448740563,,8.090417579860194,,
,9365.0,1793.0,8004.0,1212.0,1396.0,1984.0,3099.0,,,,-0.662846737715934,-2.91900786802725,-1.09660511636386,,7.258407939849148,,
,9364.0,1794.0,8003.0,1210.0,1403.0,1996.0,3105.0,,,,-0.662464769219941,-2.91894988738651,-1.09603096571273,,6.3602010570603875,,
,9365.0,1795.0,8006.0,1212.0,1396.0,1986.0,3115.0,,,,-0.662576229270933,-2.91892225711213,-1.09692689009675,,5.420182861180801,,
,9366.0,1797.0,8006.0,1212.0,1409.0,1970.0,3107.0,,,,-0.662690885545579,-2.91884902330974,-1.09675548456201,,4.463141189394029,,
,9365.0,1795.0,8005.0,1214.0,1409.0,1978.0,3096.0,,,,-0.662888025691925,-2.91902409240511,-1.09813101886363,,3.5129338980045057,,
,9365.0,1796.0,8006.0,1213.0,1401.0,1979.0,3099.0,,,,-0.662759041401514,-2.91891950222706,-1.09726587448003,,2.59129748604874,,
,9367.0,1796.0,8005.0,1212.0,1393.0,1977.0,3092.0,,,,-0.663293882069765,-2.91894942092087,-1.09785424607611,,1.7168686903406456,,
,9367.0,1797.0,8008.0,1213.0,1400.0,1982.0,3105.0,,,,-0.662707387324515,-2.91896338299688,-1.09764292713738,,0.9044675462829359,,
2025-08-07 00:37:59,9367.0,1798.0,8007.0,1213.0,1394.0,1979.0,3113.0,,,2025/08/07 12:37:59 AM,-0.662561629618274,-2.91907816262632,-1.09842030819071,,0.1646682682511885,,
,9366.0,1797.0,8004.0,1211.0,1385.0,1975.0,3122.0,,,,-0.66337972537357,-2.91909548579327,-1.0980402250878,,-0.49633663957004953,,
,9366.0,1796.0,8006.0,1212.0,1386.0,1969.0,3120.0,,,,-0.663393613834601,-2.91922035422908,-1.09690251787242,,-1.076593875191407,,
,9367.0,1797.0,8007.0,1212.0,1379.0,1961.0,3114.0,,,,-0.662741196642991,-2.91918858862635,-1.09683062333902,,-1.578001774323512,,
,9363.0,1795.0,8007.0,1211.0,1379.0,1962.0,3106.0,,,,-0.663175786374075,-2.91903482177677,-1.09678233337377,,-2.005725775495975,,
,9364.0,1791.0,8002.0,1208.0,1372.0,1962.0,3119.0,,,,-0.663379419178976,-2.91917665514244,-1.09917038073334,,-2.367474383704507,,
,9362.0,1792.0,8002.0,1210.0,1397.0,1958.0,3115.0,,,,-0.663384886944124,-2.91909055583945,-1.0979616230405,,-2.6726967072667884,,
,9361.0,1790.0,7998.0,1210.0,1407.0,1965.0,3105.0,,,,-0.663513300090167,-2.91926655489402,-1.09903950990685,,-2.9317611343666603,,
,9360.0,1787.0,7996.0,1210.0,1411.0,1968.0,3102.0,,,,-0.663991148608157,-2.91917985405844,-1.09768685930837,,-3.1551693366974867,,
,9360.0,1786.0,7994.0,1208.0,1400.0,1990.0,3098.0,,,,-0.664324126014692,-2.9190667091516,-1.09849826718262,,-3.352851852035249,,
,9359.0,1783.0,7988.0,1206.0,1380.0,1978.0,3106.0,,,,-0.664583771951882,-2.91908911687504,-1.09835753891744,,-3.5335820921143455,,
,9355.0,1783.0,7986.0,1207.0,1393.0,1992.0,3108.0,,,,-0.664409098570268,-2.91928114423296,-1.09854182623928,,-3.7045355367425485,,
,9354.0,1781.0,7982.0,1208.0,1398.0,1980.0,3108.0,,,,-0.664735410324087,-2.91938486249154,-1.09948769354702,,-3.871010614522632,,
,9358.0,1778.0,7978.0,1208.0,1396.0,1993.0,3114.0,,,,-0.664150867440821,-2.91925156228222,-1.09950047545844,,-4.036317592642759,,
,9355.0,1776.0,7976.0,1207.0,1402.0,1992.0,3122.0,,,,-0.663993793579198,-2.91928380861564,-1.09778108812598,,-4.20183183564219,,
,9354.0,1775.0,7974.0,1208.0,1415.0,1991.0,3106.0,,,,-0.663590488851391,-2.91911200233144,-1.09811425088359,,-4.367198202286704,,
,9354.0,1774.0,7970.0,1206.0,1400.0,1998.0,3099.0,,,,-0.663730408636146,-2.91921835657954,-1.09850259355937,,-4.53066434451524,,
,9353.0,1776.0,7971.0,1204.0,1396.0,1984.0,3102.0,,,,-0.663546725344712,-2.91923590854409,-1.09836360921312,,-4.689512440718811,,
,9353.0,1772.0,7965.0,1204.0,1394.0,1977.0,3099.0,,,,-0.663281855676176,-2.91921625620485,-1.09735034800805,,-4.84055155365045,,
,9352.0,1773.0,7967.0,1206.0,1394.0,1972.0,3085.0,,,,-0.663763254189062,-2.91925115364992,-1.09895785851941,,-4.9806265442129085,,
,9354.0,1774.0,7969.0,1205.0,1391.0,1986.0,3093.0,,,,-0.663392539170303,-2.91922720284269,-1.09792027950605,,-5.107094926020972,,
,9356.0,1773.0,7964.0,1206.0,1385.0,1984.0,3089.0,,,,-0.663816106833605,-2.91934377599039,-1.09849937732939,,-5.218221595126201,,
,9350.0,1770.0,7962.0,1201.0,1391.0,1975.0,3091.0,,,,-0.664077773539079,-2.91909570743532,-1.09898133094915,,-5.31344493615565,,
,9355.0,1771.0,7964.0,1203.0,1384.0,1973.0,3087.0,,,,-0.663893277759408,-2.91914047354271,-1.09762003734944,,-5.393477849533142,,
,9352.0,1771.0,7960.0,1205.0,1383.0,1971.0,3097.0,,,,-0.663747009120673,-2.91899625835739,-1.09943643935898,,-5.460223557911316,,
,9352.0,1772.0,7963.0,1204.0,1388.0,1970.0,3098.0,,,,-0.663694145125557,-2.91913637200881,-1.09877311248398,,-5.516506466336031,,
,9348.0,1771.0,7962.0,1204.0,1400.0,1971.0,3100.0,,,,-0.663496072878268,-2.91907008522865,-1.09945173451893,,-5.565639672581911,,
,9351.0,1770.0,7961.0,1201.0,1413.0,1961.0,3118.0,,,,-0.663718220811671,-2.91920216016393,-1.09837085043953,,-5.610869979290542,,
,9351.0,1771.0,7959.0,1203.0,1411.0,1964.0,3111.0,,,,-0.663760576384895,-2.91904491353993,-1.09767140976779,,-5.654756372374393,,
,9350.0,1770.0,7962.0,1201.0,1403.0,1968.0,3109.0,,,,-0.663568070370119,-2.91921651231334,-1.09867558496018,,-5.698547715343786,,
,9351.0,1768.0,7958.0,1201.0,1391.0,1992.0,3106.0,,,,-0.663619210363483,-2.91919780686156,-1.09844911862536,,-5.74162921939833,,
,9351.0,1770.0,7958.0,1201.0,1402.0,1978.0,3124.0,,,,-0.663910808042834,-2.91914402546572,-1.09829047363849,,-5.781104651079013,,
,9353.0,1770.0,7960.0,1199.0,1410.0,1974.0,3114.0,,,,-0.664200504727294,-2.91928983218703,-1.09997062316316,,-5.811572007687227,,
,9352.0,1770.0,7959.0,1204.0,1414.0,1974.0,3113.0,,,,-0.66449072900826,-2.91935507302643,-1.0990414270437,,-5.8251347803262705,,
,9349.0,1770.0,7960.0,1203.0,1397.0,1970.0,3119.0,,,,-0.663905241209817,-2.91922283873158,-1.09789664495257,,-5.811669896897556,,
,9351.0,1769.0,7958.0,1201.0,1390.0,1971.0,3120.0,,,,-0.664021648665474,-2.91935792285769,-1.0988805737625,,-5.7593486357714685,,
,9351.0,1769.0,7957.0,1202.0,1402.0,1983.0,3121.0,,,,-0.663879449143778,-2.91929545463131,-1.09890752977078,,-5.6553803710528685,,
,9350.0,1772.0,7957.0,1201.0,1398.0,1971.0,3121.0,,,,-0.663604718557759,-2.91932802749801,-1.09974581762652,,-5.486923451935294,,
,9350.0,1769.0,7955.0,1201.0,1398.0,1971.0,3125.0,,,,-0.66360101056168,-2.91914809905565,-1.0984158687353,,-5.242085595365334,,
,9351.0,1769.0,7955.0,1199.0,1373.0,1967.0,3116.0,,,,-0.663407072384971,-2.91919536005939,-1.0990259942437,,-4.910920795225717,,
,9348.0,1768.0,7956.0,1202.0,1372.0,1968.0,3110.0,,,,-0.663515826133599,-2.91907187759554,-1.0983623487848,,-4.4863237342552305,,
,9350.0,1769.0,7957.0,1202.0,1370.0,1972.0,3110.0,,,,-0.663518925256323,-2.91914167657708,-1.09891262073981,,-3.964728243460557,,
,9350.0,1770.0,7957.0,1203.0,1364.0,1971.0,3112.0,,,,-0.663538851664249,-2.91904476677983,-1.09908653715488,,-3.346534410769693,,
,9350.0,1766.0,7955.0,1199.0,1381.0,1975.0,3089.0,,,,-0.663469937447286,-2.91913915549215,-1.09939681724072,,-2.6362185124848367,,
,9351.0,1773.0,7955.0,1201.0,1389.0,1978.0,3106.0,,,,-0.663709379528296,-2.9191866218034,-1.09866337568405,,-1.842117800503919,,
,9351.0,1769.0,7955.0,1200.0,1387.0,1961.0,3103.0,,,,-0.663371223096658,-2.91916192003723,-1.0986039608846,,-0.9759228079025601,,
,9349.0,1769.0,7952.0,1201.0,1394.0,1961.0,3096.0,,,,-0.663590820458467,-2.91915586328444,-1.09944104273519,,-0.0519460457856089,,
,9348.0,1768.0,7952.0,1198.0,1405.0,1983.0,3089.0,,,,-0.663811427522352,-2.91925473867099,-1.09951977565631,,0.9137392807800324,,
,9349.0,1771.0,7953.0,1201.0,1401.0,1981.0,3090.0,,,,-0.663771619805678,-2.91928263618917,-1.09887811943864,,1.9041880015827464,,
,9349.0,1770.0,7957.0,1201.0,1393.0,1977.0,3098.0,,,,-0.663826095288512,-2.91911209349983,-1.09956095978852,,2.9024038352843773,,
,9350.0,1767.0,7953.0,1201.0,1387.0,1975.0,3100.0,,,,-0.66389621188074,-2.9192380543681,-1.10017632609958,,3.892017075758425,,
,9350.0,1767.0,7951.0,1201.0,1380.0,1979.0,3103.0,,,,-0.663993508907009,-2.91907166335753,-1.09933961746607,,4.8577715082799955,,
,9349.0,1768.0,7952.0,1198.0,1384.0,1972.0,3101.0,,,,-0.664213446880458,-2.91914771292007,-1.09987843329901,,5.785803083766734,,
,9348.0,1768.0,7954.0,1201.0,1406.0,1972.0,3099.0,,,,-0.663755658279724,-2.91923660500269,-1.09877481254035,,6.6637212480861105,,
,9349.0,1769.0,7954.0,1200.0,1400.0,1974.0,3105.0,,,,-0.663410733621677,-2.91916758369304,-1.09952039977444,,7.480527572257642,,
,9347.0,1768.0,7952.0,1199.0,1400.0,1975.0,3099.0,,,,-0.663604122909828,-2.91911862720862,-1.09935218271172,,8.226423683708443,,
,9347.0,1768.0,7951.0,1196.0,1387.0,1976.0,3114.0,,,,-0.663402090524478,-2.91916961256704,-1.09944514634105,,8.892570365131792,,
,9346.0,1768.0,7953.0,1199.0,1394.0,1980.0,3117.0,,,,-0.663457397430347,-2.91902514015891,-1.09803829839006,,9.470861491911764,,
,9348.0,1770.0,7956.0,1199.0,1383.0,1982.0,3119.0,,,,-0.664052736196692,-2.91907857379129,-1.09942881445002,,9.953770255565438,,
,9347.0,1768.0,7951.0,1199.0,1389.0,1985.0,3130.0,,,,-0.663909413402969,-2.9192655613163,-1.09963091530904,,10.334311627269718,,
,9349.0,1768.0,7954.0,1201.0,1405.0,1964.0,3111.0,,,,-0.66396729711472,-2.91929590295654,-1.0998187120307,,10.606145779385455,,
,9349.0,1769.0,7952.0,1199.0,1398.0,1965.0,3111.0,,,,-0.66392113920422,-2.91928888516113,-1.09926046263886,,10.763824463416999,,
,9349.0,1768.0,7956.0,1197.0,1396.0,1970.0,3107.0,,,,-0.663915887623528,-2.91928737487322,-1.09975346305787,,10.803158856668803,,
,9347.0,1768.0,7955.0,1199.0,1401.0,1966.0,3093.0,,,,-0.663826321061698,-2.91918866415149,-1.09860802972744,,10.721665717889415,,
,9347.0,1768.0,7954.0,1195.0,1397.0,1978.0,3096.0,,,,-0.663621623169459,-2.91907987057322,-1.09864867304342,,10.519030871292832,,
,9349.0,1768.0,7953.0,1197.0,1394.0,1963.0,3106.0,,,,-0.663337467559551,-2.91898011634446,-1.09841907218774,,10.197517102048153,,
,9351.0,1770.0,7956.0,1200.0,1394.0,1969.0,3102.0,,,,-0.663175915124008,-2.91881178865169,-1.09910649542753,,9.76224060579962,,
,9349.0,1771.0,7956.0,1200.0,1389.0,1964.0,3106.0,,,,-0.662910805556519,-2.91877805355584,-1.09793725523648,,9.2212501108695,,
,9351.0,1768.0,7954.0,1197.0,1383.0,1961.0,3096.0,,,,-0.662590286302025,-2.91885520674399,-1.09800230520024,,8.585367830190833,,
,9349.0,1770.0,7954.0,1199.0,1389.0,1963.0,3089.0,,,,-0.662191790496655,-2.91878577448517,-1.09686922688291,,7.867788780299162,,
,9352.0,1770.0,7956.0,1199.0,1387.0,1958.0,3087.0,,,,-0.661991657778867,-2.91878077883795,-1.09812542982236,,7.083476436033607,,
,9354.0,1771.0,7954.0,1201.0,1395.0,1964.0,3094.0,,,,-0.662185478644688,-2.91885456408427,-1.09728990237675,,6.248427173931914,,
,9354.0,1769.0,7955.0,1199.0,1400.0,1970.0,3104.0,,,,-0.661729102017255,-2.91886332161043,-1.09871108537854,,5.3788946240370255,,
,9349.0,1772.0,7956.0,1199.0,1398.0,1976.0,3105.0,,,,-0.66197682920145,-2.91890833424311,-1.09664635193196,,4.490664691088851,,
,9354.0,1773.0,7959.0,1201.0,1403.0,1981.0,3104.0,,,,-0.661929691525206,-2.91890721379313,-1.09788989413589,,3.5984552424865974,,
,9354.0,1772.0,7958.0,1202.0,1395.0,1980.0,3104.0,,,,-0.662368545171417,-2.91880039313301,-1.09753580668805,,2.715487379934069,,
,9353.0,1772.0,7960.0,1199.0,1382.0,1967.0,3122.0,,,,-0.662216977797463,-2.91889019847458,-1.09719356654745,,1.8532446444571173,,
,9352.0,1770.0,7959.0,1199.0,1392.0,1970.0,3116.0,,,,-0.6621902514605,-2.91880914631905,-1.09724157670017,,1.0214082082577345,,
,9354.0,1773.0,7961.0,1200.0,1392.0,1977.0,3102.0,,,,-0.662112648354015,-2.91882285004815,-1.09687621280893,,0.2279339793724185,,
,9357.0,1774.0,7962.0,1203.0,1392.0,1981.0,3106.0,,,,-0.662565478019999,-2.91889299516232,-1.09696260321892,,-0.5207763900475139,,
,9354.0,1773.0,7963.0,1198.0,1398.0,1974.0,3085.0,,,,-0.662828513607533,-2.91880804764912,-1.09719620161137,,-1.219663713204479,,
,9355.0,1774.0,7961.0,1199.0,1398.0,1968.0,3097.0,,,,-0.663148127993197,-2.91884026846394,-1.09753211782957,,-1.864808329418566,,
,9357.0,1778.0,7964.0,1202.0,1386.0,1965.0,3100.0,,,,-0.663039778827598,-2.91897708280128,-1.09655304134979,,-2.453274485323197,,
,9355.0,1775.0,7964.0,1203.0,1396.0,1972.0,3104.0,,,,-0.662556907631071,-2.91912173699065,-1.0975941280664,,-2.9830236061947293,,
,9356.0,1777.0,7964.0,1201.0,1391.0,1973.0,3106.0,,,,-0.662135026807588,-2.91891396277134,-1.09684496224423,,-3.4528987185317717,,
,9358.0,1773.0,7966.0,1199.0,1393.0,1974.0,3096.0,,,,-0.662532876408507,-2.91888954048919,-1.09661807568483,,-3.86266489840443,,
,9360.0,1778.0,7967.0,1204.0,1399.0,1964.0,3105.0,,,,-0.662625259963105,-2.91894140825405,-1.09735062161691,,-4.213078998896253,,
,9360.0,1775.0,7969.0,1203.0,1392.0,1969.0,3117.0,,,,-0.662480121418927,-2.91882555758044,-1.09587995416812,,-4.505957743082069,,
,9360.0,1778.0,7968.0,1204.0,1391.0,1961.0,3108.0,,,,-0.662792681725609,-2.9188599684418,-1.09590802540889,,-4.744215710781355,,
,9358.0,1776.0,7963.0,1202.0,1362.0,1966.0,3091.0,,,,-0.662539120311151,-2.91891998490817,-1.09557014843547,,-4.931851521258954,,
,9361.0,1777.0,7968.0,1201.0,1377.0,1977.0,3095.0,,,,-0.662039123490134,-2.91880557951438,-1.09558474399799,,-5.073869330071357,,
,9362.0,1780.0,7972.0,1203.0,1379.0,1968.0,3099.0,,,,-0.662059603316724,-2.91883777695646,-1.09500388540558,,-5.176132018464115,,
,9366.0,1781.0,7971.0,1206.0,1389.0,1963.0,3100.0,,,,-0.662106054435675,-2.91884477935261,-1.09541197949667,,-5.24515119631377,,
,9362.0,1780.0,7972.0,1202.0,1380.0,1971.0,3122.0,,,,-0.662106699826826,-2.91889242166823,-1.09431472949331,,-5.2878267058966175,,
,9362.0,1779.0,7972.0,1203.0,1378.0,1971.0,3108.0,,,,-0.662158284992486,-2.91879770411198,-1.09525340111927,,-5.3111541395515784,,
,9367.0,1780.0,7973.0,1204.0,1379.0,1970.0,3113.0,,,,-0.661721036781996,-2.91872283828218,-1.09615599058059,,-5.321922525102751,,
,9367.0,1780.0,7975.0,1205.0,1378.0,1978.0,3105.0,,,,-0.661380025497821,-2.91857990823658,-1.09537726434243,,-5.326425582336796,,
,9367.0,1780.0,7974.0,1205.0,1398.0,1968.0,3109.0,,,,-0.661870168625325,-2.91850557790426,-1.09535538484606,,-5.330208860648166,,
,9366.0,1781.0,7974.0,1201.0,1388.0,1968.0,3113.0,,,,-0.661992135380842,-2.9186031713138,-1.09532409533506,,-5.3378718335264175,,
,9369.0,1782.0,7975.0,1205.0,1399.0,1980.0,3108.0,,,,-0.661596549788585,-2.91873523777408,-1.09526174583678,,-5.352938913865744,,
,9365.0,1786.0,7974.0,1204.0,1396.0,1980.0,3110.0,,,,-0.662342051698362,-2.9186189854674,-1.09506399745499,,-5.377806685458181,,
,9367.0,1779.0,7977.0,1205.0,1377.0,1988.0,3111.0,,,,-0.66206425596592,-2.91867223490111,-1.09581190797692,,-5.413766835152584,,
,9369.0,1784.0,7978.0,1205.0,1388.0,1978.0,3101.0,,,,-0.662267778270615,-2.91874067408451,-1.09595899405783,,-5.461095867698645,,
,9371.0,1783.0,7981.0,1208.0,1388.0,1987.0,3106.0,,,,-0.662335483179183,-2.91864034180448,-1.09665523445677,,-5.5191944302213045,,
,9372.0,1785.0,7982.0,1206.0,1393.0,1978.0,3103.0,,,,-0.66201860621972,-2.91874236740392,-1.09595467065182,,-5.586751988345146,,
,9372.0,1785.0,7981.0,1206.0,1385.0,1959.0,3098.0,,,,-0.661995539962158,-2.91876200351563,-1.09567542682447,,-5.6619081079024465,,
,9371.0,1783.0,7981.0,1205.0,1382.0,1969.0,3090.0,,,,-0.662137619291759,-2.91879529995786,-1.09552682130373,,-5.742381440052055,,
,9376.0,1786.0,7984.0,1208.0,1387.0,1978.0,3095.0,,,,-0.662168358474907,-2.91883617725922,-1.09512019821311,,-5.825543043528019,,
,9374.0,1787.0,7986.0,1206.0,1389.0,1969.0,3097.0,,,,-0.662558405597264,-2.91881053034303,-1.09531690703919,,-5.908421803161591,,
,9377.0,1786.0,7985.0,1207.0,1399.0,1964.0,3114.0,,,,-0.662576933751392,-2.9187735505559,-1.09603932923894,,-5.987644368370793,,
,9376.0,1787.0,7984.0,1205.0,1408.0,1966.0,3115.0,,,,-0.66222599449322,-2.91892603345895,-1.09586318313053,,-6.059326996751369,,
,9377.0,1788.0,7988.0,1207.0,1399.0,1966.0,3114.0,,,,-0.662361924308054,-2.91891251475304,-1.09503039882234,,-6.118948841393114,,
,9377.0,1789.0,7985.0,1208.0,1398.0,1976.0,3121.0,,,,-0.662214357156334,-2.91883692105238,-1.09617443000278,,-6.161243480010797,,
,9378.0,1789.0,7989.0,1210.0,1396.0,1979.0,3122.0,,,,-0.661981299381283,-2.91888406931629,-1.09534862620121,,-6.180146938014235,,
,9379.0,1790.0,7986.0,1207.0,1384.0,1979.0,3116.0,,,,-0.662278226856051,-2.9189560644645,-1.0955510805274,,-6.168836039847818,,
,9378.0,1790.0,7990.0,1208.0,1380.0,1970.0,3115.0,,,,-0.662349994009803,-2.91885135897226,-1.09563373289899,,-6.119880980726245,,
,9379.0,1793.0,7991.0,1209.0,1386.0,1968.0,3113.0,,,,-0.662707222351602,-2.91891545671228,-1.09600234990306,,-6.025521229086424,,
,9381.0,1791.0,7991.0,1209.0,1381.0,1969.0,3112.0,,,,-0.662586044995746,-2.91894227921017,-1.09750522387192,,-5.878055628384251,,
,9379.0,1790.0,7990.0,1209.0,1395.0,1963.0,3104.0,,,,-0.662698317782156,-2.91890388142291,-1.09741101809287,,-5.670318208699371,,
,9383.0,1792.0,7992.0,1209.0,1404.0,1964.0,3100.0,,,,-0.662695214277641,-2.91880038541586,-1.09634404053348,,-5.396193811420631,,
,9383.0,1794.0,7994.0,1211.0,1391.0,1970.0,3108.0,,,,-0.662643675958876,-2.91901688434633,-1.09703964981833,,-5.051115439720786,,
,9387.0,1791.0,7996.0,1210.0,1389.0,1970.0,3110.0,,,,-0.662823733535675,-2.91898767707345,-1.09614383146653,,-4.632481241579154,,
,9383.0,1791.0,7998.0,1207.0,1410.0,1967.0,3115.0,,,,-0.662851707643781,-2.91908427727361,-1.0970436204134,,-4.139935268001961,,
,9385.0,1795.0,7997.0,1210.0,1406.0,1972.0,3113.0,,,,-0.662587127448054,-2.91892776129331,-1.09684907901052,,-3.5754728605022037,,
,9387.0,1793.0,7997.0,1214.0,1415.0,1987.0,3110.0,,,,-0.66219458319648,-2.91889629868665,-1.09600529523643,,-2.9433562948924155,,
,9385.0,1797.0,7994.0,1211.0,1418.0,1978.0,3108.0,,,,-0.662662385468995,-2.9189120788453,-1.09760891956675,,-2.2498541444875593,,
,9387.0,1796.0,7996.0,1210.0,1395.0,1975.0,3110.0,,,,-0.662498413888439,-2.91897752237711,-1.09777730784289,,-1.502842627374456,,
,9384.0,1796.0,7994.0,1210.0,1394.0,1964.0,3120.0,,,,-0.662689153465006,-2.91889269499175,-1.09779603324344,,-0.7113242062921061,,
2025-08-07 00:38:00,9387.0,1796.0,7997.0,1214.0,1402.0,1966.0,3115.0,,,2025/08/07 12:38:00 AM,-0.662743719662853,-2.91905160192969,-1.09736079267398,,0.11507380741472241,,
,9386.0,1796.0,7998.0,1209.0,1386.0,1972.0,3115.0,,,,-0.663036739876479,-2.91906344739366,-1.0974977060746,,0.9665590779434485,,
,9384.0,1794.0,7998.0,1211.0,1368.0,1968.0,3112.0,,,,-0.663442768545173,-2.91924848056499,-1.0974422557986,,1.833539270521048,,
,9383.0,1792.0,7996.0,1209.0,1384.0,1962.0,3100.0,,,,-0.662942412357234,-2.91907239347177,-1.0985898153329,,2.706853561344432,,
,9384.0,1794.0,7996.0,1208.0,1393.0,1973.0,3116.0,,,,-0.663357031617907,-2.91906459737294,-1.09914290571058,,3.577851592961777,,
,9383.0,1792.0,7994.0,1205.0,1384.0,1968.0,3116.0,,,,-0.663486804077688,-2.91927248910516,-1.09735854911133,,4.438323617066909,,
,9382.0,1788.0,7991.0,1206.0,1379.0,1951.0,3107.0,,,,-0.6635217575904,-2.9190286326217,-1.09810268802919,,5.280308155422736,,
,9377.0,1786.0,7987.0,1204.0,1376.0,1977.0,3117.0,,,,-0.663972952390109,-2.91909422582875,-1.09808112836811,,6.0958221992449815,,
,9376.0,1785.0,7985.0,1206.0,1380.0,1974.0,3111.0,,,,-0.664313476196147,-2.91931153421733,-1.0986880813468,,6.876570790122196,,
,9378.0,1784.0,7980.0,1205.0,1353.0,1976.0,3115.0,,,,-0.663970193121514,-2.91931456483067,-1.09819698707781,,7.613696419615842,,
,9377.0,1779.0,7973.0,1206.0,1350.0,1981.0,3112.0,,,,-0.663783267698119,-2.91920896713803,-1.09806643006948,,8.29762439897905,,
,9374.0,1777.0,7968.0,1203.0,1364.0,1979.0,3108.0,,,,-0.663619626043847,-2.91920581368145,-1.09815176965629,,8.918049568217695,,
,9376.0,1777.0,7963.0,1205.0,1393.0,1972.0,3108.0,,,,-0.66339889907059,-2.91937369765652,-1.09887915886444,,9.464094012259679,,
,9374.0,1771.0,7962.0,1204.0,1405.0,1968.0,3107.0,,,,-0.663353996866173,-2.91932408644654,-1.09887376677538,,9.924646185358888,,
,9373.0,1772.0,7957.0,1204.0,1412.0,1968.0,3101.0,,,,-0.663948595483693,-2.91927527400757,-1.09886331542019,,10.288870215892128,,
,9370.0,1769.0,7951.0,1200.0,1402.0,1974.0,3108.0,,,,-0.663579308948474,-2.91934436286361,-1.09812153371853,,10.546851578460876,,
,9372.0,1769.0,7952.0,1202.0,1392.0,1982.0,3105.0,,,,-0.664006562708506,-2.9194363159386,-1.09887433413393,,10.690323769594157,,
,9373.0,1765.0,7947.0,1200.0,1383.0,1968.0,3098.0,,,,-0.664205718922336,-2.91931054952889,-1.09832454550055,,10.713402810736325,,
,9367.0,1767.0,7948.0,1199.0,1387.0,1971.0,3100.0,,,,-0.663870883297897,-2.91938502745983,-1.09776564356546,,10.613245437403341,,
,9368.0,1763.0,7943.0,1198.0,1367.0,1972.0,3109.0,,,,-0.664108863866732,-2.91951473607356,-1.09940718627204,,10.390545529604358,,
,9369.0,1765.0,7944.0,1197.0,1388.0,1984.0,3107.0,,,,-0.663860615140323,-2.9194775732134,-1.09948204304777,,10.049793380108886,,
,9367.0,1764.0,7944.0,1201.0,1394.0,1982.0,3103.0,,,,-0.663728421157411,-2.91935959042101,-1.09869042266648,,9.599243861074706,,
,9368.0,1765.0,7942.0,1201.0,1394.0,1973.0,3098.0,,,,-0.664016813240179,-2.91922098989792,-1.09894445811349,,9.050571047685816,,
,9367.0,1763.0,7939.0,1200.0,1383.0,1980.0,3083.0,,,,-0.664298407128446,-2.91937447162145,-1.09882379128288,,8.418225636709792,,
,9365.0,1763.0,7940.0,1198.0,1388.0,1974.0,3093.0,,,,-0.664438523041335,-2.91944163481052,-1.09896325200178,,7.718552684351545,,
,9365.0,1761.0,7938.0,1197.0,1395.0,1974.0,3093.0,,,,-0.664296005497086,-2.91941079996208,-1.09849485821765,,6.968763220315648,,
,9363.0,1760.0,7938.0,1197.0,1398.0,1982.0,3094.0,,,,-0.664749805246948,-2.91938592587266,-1.09850527850224,,6.18587571398235,,
,9363.0,1760.0,7936.0,1196.0,1403.0,1982.0,3088.0,,,,-0.664869849586029,-2.91944977096603,-1.09751033616305,,5.385746578506366,,
,9363.0,1760.0,7937.0,1195.0,1403.0,1985.0,3085.0,,,,-0.664697308601585,-2.91954145561026,-1.09848646520955,,4.582292660618964,,
,9363.0,1762.0,7933.0,1197.0,1403.0,1972.0,3099.0,,,,-0.66493945225638,-2.91943283345098,-1.09782294414146,,3.7869774750614984,,
,9362.0,1761.0,7932.0,1197.0,1403.0,1968.0,3098.0,,,,-0.665249585853018,-2.91964309363272,-1.09821692073869,,3.008593689472332,,
,9361.0,1759.0,7934.0,1195.0,1369.0,1979.0,3108.0,,,,-0.665303926881076,-2.9195840509011,-1.09850528789263,,2.2533341786875214,,
,9360.0,1758.0,7932.0,1193.0,1376.0,1968.0,3121.0,,,,-0.66516891311377,-2.9196456967718,-1.09824116898026,,1.5251088690162065,,
,9362.0,1761.0,7932.0,1198.0,1389.0,1965.0,3107.0,,,,-0.665510481799439,-2.91950574696191,-1.09832277779035,,0.8260388237034871,,
,9363.0,1759.0,7932.0,1195.0,1376.0,1966.0,3097.0,,,,-0.665310142916124,-2.91962605921874,-1.09945792835085,,0.15704481768672446,,
,9362.0,1760.0,7930.0,1196.0,1383.0,1963.0,3090.0,,,,-0.66523610653492,-2.91955256950101,-1.09921885869449,,-0.48155474148220134,,
,9361.0,1758.0,7929.0,1191.0,1389.0,1962.0,3109.0,,,,-0.665189776927176,-2.91957275330935,-1.09901047186936,,-1.0895137517752265,,
,9358.0,1757.0,7930.0,1193.0,1388.0,1973.0,3115.0,,,,-0.664738475675521,-2.91939457001438,-1.09896807757576,,-1.6662577230495104,,
,9358.0,1759.0,7931.0,1195.0,1372.0,1975.0,3111.0,,,,-0.664839455883953,-2.91950006741709,-1.09907515151411,,-2.210653312400958,,
,9360.0,1756.0,7927.0,1195.0,1374.0,1971.0,3112.0,,,,-0.665513036647256,-2.91937896391161,-1.09880585619279,,-2.720965750045315,,
,9358.0,1759.0,7925.0,1191.0,1386.0,1972.0,3100.0,,,,-0.665972336652857,-2.9193612684284,-1.09803402979996,,-3.194997977155292,,
,9357.0,1756.0,7926.0,1195.0,1397.0,1972.0,3104.0,,,,-0.665262905890659,-2.91947191952311,-1.09878181853641,,-3.630382721601414,,
,9359.0,1757.0,7929.0,1192.0,1391.0,1958.0,3105.0,,,,-0.665884016147882,-2.91946373957381,-1.09720652842042,,-4.024979787062623,,
,9360.0,1757.0,7930.0,1194.0,1381.0,1960.0,3113.0,,,,-0.665513756284524,-2.91939168287603,-1.09714664184475,,-4.377318265991002,,
,9355.0,1756.0,7926.0,1192.0,1387.0,1989.0,3118.0,,,,-0.665563953925194,-2.91946167006194,-1.09834241422642,,-4.6870191611569805,,
,9356.0,1757.0,7927.0,1193.0,1350.0,1970.0,3105.0,,,,-0.665238346098134,-2.91947131807438,-1.09818459144514,,-4.955138044212913,,
,9356.0,1757.0,7926.0,1194.0,1372.0,1966.0,3104.0,,,,-0.664708900250347,-2.91940912544003,-1.09794640087403,,-5.184378048105784,,
,9355.0,1758.0,7929.0,1195.0,1372.0,1967.0,3110.0,,,,-0.665312232258146,-2.91944239293172,-1.09771986010446,,-5.379138117563061,,
,9352.0,1756.0,7924.0,1193.0,1382.0,1966.0,3114.0,,,,-0.66593670280577,-2.91947800034274,-1.09898177986816,,-5.545377870371445,,
,9354.0,1755.0,7924.0,1195.0,1380.0,1968.0,3112.0,,,,-0.665876486094895,-2.91954648275784,-1.09863029160302,,-5.690297310205203,,
,9358.0,1758.0,7926.0,1192.0,1394.0,1969.0,3107.0,,,,-0.665973860163424,-2.91944194634268,-1.09853059945175,,-5.821846256208885,,
,9355.0,1756.0,7926.0,1193.0,1394.0,1972.0,3106.0,,,,-0.666219449703254,-2.91941875039755,-1.09922184210772,,-5.948094146187258,,
,9352.0,1755.0,7922.0,1191.0,1403.0,1962.0,3096.0,,,,-0.666378711634994,-2.91945509555581,-1.09722714348284,,-6.076505053538206,,
,9350.0,1756.0,7923.0,1190.0,1397.0,1969.0,3116.0,,,,-0.665672266149619,-2.91948747062508,-1.09807455328456,,-6.213174349315857,,
,9355.0,1756.0,7924.0,1190.0,1385.0,1972.0,3104.0,,,,-0.665496896224049,-2.91947661576439,-1.09836787533216,,-6.362091473884423,,
,9354.0,1757.0,7925.0,1190.0,1395.0,1961.0,3105.0,,,,-0.665383683461376,-2.91950336708328,-1.09898732442614,,-6.524496958964671,,
,9352.0,1757.0,7920.0,1193.0,1396.0,1969.0,3112.0,,,,-0.664918479839394,-2.919279090535,-1.09775477327544,,-6.698400512673859,,
,9350.0,1754.0,7923.0,1191.0,1389.0,1970.0,3106.0,,,,-0.665428168308486,-2.91937411409213,-1.09801242108841,,-6.878320093580761,,
,9353.0,1755.0,7927.0,1193.0,1383.0,1967.0,3106.0,,,,-0.665760950180487,-2.91942443605516,-1.09900936080406,,-7.05528904502117,,
,9354.0,1756.0,7923.0,1192.0,1392.0,1969.0,3101.0,,,,-0.665455074595825,-2.91946665855439,-1.09870970718462,,-7.217159458289416,,
,9353.0,1756.0,7923.0,1194.0,1389.0,1967.0,3107.0,,,,-0.665790463923454,-2.91936155646507,-1.09815354106253,,-7.349205469370078,,
,9349.0,1754.0,7923.0,1190.0,1390.0,1970.0,3119.0,,,,-0.665593123595174,-2.91939032742713,-1.09774438149632,,-7.435001422225313,,
,9351.0,1758.0,7925.0,1192.0,1389.0,1985.0,3124.0,,,,-0.665805089550085,-2.91941958317901,-1.09767018603122,,-7.457518961932151,,
,9353.0,1755.0,7923.0,1193.0,1386.0,1984.0,3118.0,,,,-0.665925982577797,-2.91933173674097,-1.09836114356601,,-7.400357540235747,,
,9354.0,1758.0,7926.0,1190.0,1400.0,1978.0,3115.0,,,,-0.665942806895494,-2.91925899701417,-1.09890213739657,,-7.248999112276138,,
,9352.0,1752.0,7922.0,1191.0,1394.0,1971.0,3121.0,,,,-0.665913650261831,-2.91936694991671,-1.09918039960974,,-6.9919651002087955,,
,9351.0,1754.0,7925.0,1192.0,1400.0,1968.0,3115.0,,,,-0.666176693937036,-2.91937320663878,-1.09861551519432,,-6.621756200702202,,
,9354.0,1755.0,7926.0,1192.0,1385.0,1973.0,3103.0,,,,-0.666088376308419,-2.91946547790484,-1.097330609094,,-6.135475060563888,,
,9353.0,1755.0,7926.0,1192.0,1380.0,1967.0,3094.0,,,,-0.66659738889449,-2.91948844883408,-1.09832488024007,,-5.5350667646278975,,
,9353.0,1754.0,7923.0,1189.0,1392.0,1973.0,3106.0,,,,-0.666655204222183,-2.9194872124924,-1.09775121163447,,-4.827157969207508,,
,9354.0,1756.0,7927.0,1191.0,1401.0,1975.0,3104.0,,,,-0.666856151301861,-2.91971458195259,-1.09921668260216,,-4.022525564935518,,
,9355.0,1757.0,7924.0,1191.0,1388.0,1977.0,3090.0,,,,-0.667399051178571,-2.91977976857423,-1.09896756953637,,-3.1352719469949024,,
,9355.0,1757.0,7927.0,1193.0,1385.0,1978.0,3089.0,,,,-0.667325303091004,-2.91962430335835,-1.09830695416338,,-2.181818619639136,,
,9352.0,1755.0,7927.0,1191.0,1389.0,1975.0,3096.0,,,,-0.667317897007366,-2.91994777399391,-1.09809961467516,,-1.1798473349917118,,
,9353.0,1757.0,7929.0,1191.0,1407.0,1973.0,3104.0,,,,-0.667325733171976,-2.91973325121194,-1.09668074504938,,-0.1473159633323536,,
,9355.0,1757.0,7931.0,1193.0,1407.0,1975.0,3099.0,,,,-0.667014505990761,-2.91954122080109,-1.09734679787967,,0.8983438586298137,,
,9357.0,1758.0,7931.0,1193.0,1399.0,1969.0,3095.0,,,,-0.667074313829464,-2.91958613973425,-1.09756651008011,,1.9407742778686605,,
,9355.0,1759.0,7931.0,1193.0,1395.0,1984.0,3098.0,,,,-0.666664799688176,-2.9196663839052,-1.09617914328094,,2.9649528592097787,,
,9355.0,1758.0,7930.0,1194.0,1390.0,1974.0,3112.0,,,,-0.666332585122297,-2.91938093946805,-1.09505160892262,,3.95718055957644,,
,9356.0,1760.0,7932.0,1194.0,1381.0,1981.0,3097.0,,,,-0.666118827562983,-2.91946216680455,-1.09435876164323,,4.904847259144557,,
,9356.0,1760.0,7934.0,1193.0,1382.0,1982.0,3100.0,,,,-0.665884704285951,-2.91949651722622,-1.09545908004293,,5.796055996207702,,
,9357.0,1760.0,7932.0,1193.0,1396.0,1974.0,3109.0,,,,-0.665874437146458,-2.91940335040879,-1.09571853366438,,6.619204981942476,,
,9355.0,1760.0,7934.0,1192.0,1396.0,1967.0,3114.0,,,,-0.665532726325023,-2.9194310064406,-1.09536689326097,,7.3626310613994885,,
,9359.0,1763.0,7937.0,1195.0,1382.0,1975.0,3100.0,,,,-0.665285046933893,-2.9195459816754,-1.09487750124042,,8.014409331024899,,
,9359.0,1763.0,7936.0,1192.0,1383.0,1974.0,3104.0,,,,-0.665892692364852,-2.91953200050659,-1.09509692443748,,8.56238149992872,,
,9359.0,1762.0,7940.0,1196.0,1385.0,1976.0,3105.0,,,,-0.666132558431663,-2.91965344999099,-1.0942556279978,,8.994451508725897,,
,9358.0,1760.0,7935.0,1191.0,1379.0,1986.0,3111.0,,,,-0.666413215203099,-2.91950952493553,-1.09506795468474,,9.299144165208546,,
,9361.0,1762.0,7942.0,1194.0,1372.0,1966.0,3096.0,,,,-0.666507466834202,-2.91970874315487,-1.09448701867911,,9.466377268202296,,
,9361.0,1762.0,7939.0,1195.0,1385.0,1968.0,3089.0,,,,-0.666440732047255,-2.91967840144499,-1.09518014341476,,9.488357830677288,,
,9364.0,1761.0,7941.0,1198.0,1378.0,1970.0,3092.0,,,,-0.666981775300735,-2.9197423265116,-1.09429602426106,,9.360485899224715,,
,9360.0,1762.0,7940.0,1193.0,1393.0,1974.0,3088.0,,,,-0.667461497085422,-2.91966510191746,-1.0948989301408,,9.08213987827707,,
,9365.0,1764.0,7940.0,1194.0,1374.0,1967.0,3098.0,,,,-0.666793960202728,-2.91988826461478,-1.09554753190176,,8.657226962048378,,
,9366.0,1765.0,7944.0,1193.0,1366.0,1962.0,3103.0,,,,-0.667211492931428,-2.91982168773981,-1.09343006384786,,8.09441012648198,,
,9363.0,1766.0,7947.0,1197.0,1369.0,1954.0,3102.0,,,,-0.667835421573106,-2.91974637988971,-1.09446458589617,,7.406965045701241,,
,9364.0,1764.0,7942.0,1195.0,1373.0,1966.0,3112.0,,,,-0.667781047440464,-2.91965193036585,-1.0941229970246,,6.612269158989537,,
,9366.0,1764.0,7943.0,1195.0,1373.0,1969.0,3111.0,,,,-0.667694599767788,-2.91968428022793,-1.0925014178844,,5.7309716965798225,,
,9367.0,1767.0,7948.0,1197.0,1397.0,1971.0,3117.0,,,,-0.667111162045204,-2.91977770227916,-1.09461779680027,,4.785928891714002,,
,9366.0,1768.0,7947.0,1196.0,1395.0,1967.0,3115.0,,,,-0.667039743749754,-2.91944477514683,-1.09336650058488,,3.8010074151446904,,
,9364.0,1767.0,7945.0,1195.0,1396.0,1977.0,3104.0,,,,-0.666756454551807,-2.9195456374998,-1.09359052998659,,2.7998608771819007,,
,9367.0,1767.0,7948.0,1196.0,1386.0,1964.0,3102.0,,,,-0.66685027070864,-2.91939289090809,-1.09395750047647,,1.8047728364560571,,
,9371.0,1769.0,7949.0,1198.0,1376.0,1975.0,3116.0,,,,-0.665958384810102,-2.9194220298796,-1.09425249128862,,0.835640869646043,,
,9369.0,1769.0,7951.0,1197.0,1369.0,1977.0,3112.0,,,,-0.665848684292995,-2.91928335965498,-1.09296413916518,,-0.09084435809847172,,
,9373.0,1770.0,7950.0,1198.0,1392.0,1970.0,3109.0,,,,-0.666197807048841,-2.91917303444295,-1.09436201250991,,-0.9617889795689466,,
,9374.0,1769.0,7952.0,1198.0,1392.0,1968.0,3108.0,,,,-0.665419856500916,-2.91927556466964,-1.09458148567363,,-1.7684318551230807,,
,9372.0,1771.0,7954.0,1198.0,1381.0,1968.0,3107.0,,,,-0.664981576057506,-2.91933028150507,-1.09428783959953,,-2.506212924415127,,
,9373.0,1770.0,7953.0,1198.0,1385.0,1963.0,3104.0,,,,-0.665305373299789,-2.91907251105123,-1.09279533965391,,-3.1745689193566946,,
,9373.0,1771.0,7955.0,1198.0,1397.0,1964.0,3110.0,,,,-0.664912130540845,-2.91922922304918,-1.09250437051107,,-3.7764623485734923,,
,9374.0,1770.0,7954.0,1196.0,1406.0,1970.0,3108.0,,,,-0.665116684999909,-2.91904917670879,-1.09357465647003,,-4.317664343499163,,
,9377.0,1773.0,7957.0,1198.0,1392.0,1971.0,3098.0,,,,-0.665181809945346,-2.91920803351255,-1.0921500872493,,-4.805829498742563,,
,9374.0,1773.0,7958.0,1199.0,1383.0,1963.0,3101.0,,,,-0.664923535814968,-2.91922787472942,-1.09348692944342,,-5.249419183907798,,
,9376.0,1773.0,7959.0,1203.0,1379.0,1966.0,3103.0,,,,-0.664918737647178,-2.91919318962984,-1.09284177822986,,-5.656546645114488,,
,9375.0,1773.0,7959.0,1199.0,1391.0,1973.0,3110.0,,,,-0.665054662356038,-2.91923926246292,-1.09342919689935,,-6.0338304697475875,,
,9377.0,1775.0,7961.0,1198.0,1377.0,1976.0,3112.0,,,,-0.664807518931985,-2.91921781756301,-1.09355905978434,,-6.3853508849049465,,
,9379.0,1775.0,7962.0,1201.0,1395.0,1966.0,3106.0,,,,-0.665185655404581,-2.91914233654984,-1.09368510916217,,-6.711804349758312,,
