TimeLabel,MEAS1_PPG1,MEAS1_PPG2,MEAS1_PPG3,MEAS1_PPG4,ACCX,ACCY,ACCZ,HR_timestamp,HR_value,radar_timestamp,phase_rx0,phase_rx1,phase_rx2,timestep,n_process,original_rate,calculated_rate
2025-07-15 19:03:55,8113.0,2060.0,7699.0,2450.0,1705.0,2186.0,2837.0,2025-07-15 19:03:55,69.0,2025/07/15 07:03:55 PM,-0.890970110679657,-2.90935326099551,-1.19076250527369,2025/07/15 07:03:55 PM,-5.559792619297201,13.245033264160156,11.34165640935467
,8113.0,2059.0,7697.0,2447.0,1708.0,2181.0,2845.0,2025-07-15 19:03:56,69.0,,-0.890264891900848,-2.90911405205392,-1.1884794233437,2025/07/15 07:04:05 PM,-4.470900129960844,12.5,11.709824828636709
,8114.0,2057.0,7697.0,2447.0,1706.0,2180.0,2832.0,2025-07-15 19:03:57,69.0,,-0.888220163155094,-2.90891091591043,-1.18669790521171,2025/07/15 07:04:15 PM,-3.1866733409561165,12.47401237487793,14.622607749674353
,8113.0,2058.0,7694.0,2447.0,1696.0,2173.0,2836.0,2025-07-15 19:03:58,69.0,,-0.887169739743679,-2.90870178926103,-1.185270535188,2025/07/15 07:04:25 PM,-1.723155512278437,11.942675590515137,19.630786225649512
,8114.0,2055.0,7694.0,2448.0,1700.0,2176.0,2835.0,2025-07-15 19:03:59,70.0,,-0.885976402937221,-2.90858606508586,-1.18356037239656,2025/07/15 07:04:35 PM,-0.10557102864152412,14.88833713531494,18.9521816631791
,8116.0,2052.0,7696.0,2446.0,1676.0,2159.0,2838.0,2025-07-15 19:04:00,70.0,,-0.885079963246773,-2.90844900328013,-1.18186271250344,2025/07/15 07:04:45 PM,1.6321883755113435,18.140588760375977,13.61189438605487
,8114.0,2049.0,7698.0,2446.0,1680.0,2160.0,2839.0,2025-07-15 19:04:01,71.0,,-0.883405003633223,-2.90832570615294,-1.17951081305685,2025/07/15 07:04:55 PM,3.448607121401372,17.27861785888672,16.69316375198729
,8114.0,2047.0,7697.0,2442.0,1680.0,2187.0,2822.0,2025-07-15 19:04:02,71.0,,-0.883276185182847,-2.90813240662723,-1.17855606676112,2025/07/15 07:05:05 PM,5.2960753598340835,16.506189346313477,19.67846967846967
,8114.0,2049.0,7694.0,2443.0,1689.0,2165.0,2804.0,2025-07-15 19:04:03,72.0,,-0.882661544410995,-2.90799819242076,-1.1762839116009,2025/07/15 07:05:15 PM,7.1228294142761985,16.460905075073242,21.477048854675253
,8111.0,2045.0,7699.0,2437.0,1677.0,2184.0,2836.0,2025-07-15 19:04:04,72.0,,-0.881362321704395,-2.90788930264257,-1.17573502797599,2025/07/15 07:05:25 PM,8.875203524059907,19.575857162475582,19.459416987506888
,8109.0,2043.0,7696.0,2439.0,1682.0,2182.0,2832.0,2025-07-15 19:04:05,72.0,,-0.88068727086432,-2.90783341641929,-1.17470538301536,2025/07/15 07:05:35 PM,10.500076118873992,20.801233291625977,17.84219580455488
,8111.0,2041.0,7698.0,2435.0,1681.0,2164.0,2849.0,2025-07-15 19:04:06,71.0,,-0.880049802823487,-2.90784582168425,-1.17414399401643,2025/07/15 07:05:45 PM,11.94738306976491,18.575851440429688,18.373995407577528
,8105.0,2040.0,7693.0,2433.0,1674.0,2178.0,2851.0,2025-07-15 19:04:07,71.0,,-0.879460904221024,-2.90786955940707,-1.17293003850561,2025/07/15 07:05:55 PM,13.172564898198289,18.03155517578125,19.890710382513664
,8107.0,2038.0,7698.0,2433.0,1673.0,2183.0,2839.0,2025-07-15 19:04:08,70.0,,-0.879256111015977,-2.90779251451329,-1.17253930101004,2025/07/15 07:06:05 PM,14.13881366728214,18.50582504272461,19.365079365079342
,8109.0,2041.0,7696.0,2433.0,1683.0,2189.0,2851.0,2025-07-15 19:04:09,69.0,,-0.878797360217495,-2.90773283903692,-1.17182363511115,2025/07/15 07:06:15 PM,14.818987614575075,19.148935317993164,19.0678623514444
,8107.0,2038.0,7698.0,2432.0,1684.0,2179.0,2834.0,2025-07-15 19:04:10,68.0,,-0.879726677551485,-2.90753950811906,-1.17144894280092,2025/07/15 07:06:25 PM,15.197068161575887,19.28571510314941,19.01297068360797
,8103.0,2037.0,7697.0,2428.0,1693.0,2170.0,2839.0,2025-07-15 19:04:11,67.0,,-0.878757052175698,-2.90741965761122,-1.16980380774563,2025/07/15 07:06:35 PM,15.26904708690539,19.39655303955078,18.838415535885584
,8106.0,2039.0,7696.0,2431.0,1694.0,2163.0,2836.0,2025-07-15 19:04:12,67.0,,-0.878583273338537,-2.90762029851264,-1.16999342458422,2025/07/15 07:06:45 PM,15.043154814704499,18.987340927124023,15.814114791052495
,8107.0,2037.0,7699.0,2431.0,1702.0,2172.0,2827.0,2025-07-15 19:04:13,66.0,,-0.877474152914844,-2.90742222236645,-1.16968152796532,,14.539376968792988,,
,8109.0,2038.0,7698.0,2432.0,1702.0,2181.0,2820.0,2025-07-15 19:04:14,65.0,,-0.877774634067164,-2.90740799823562,-1.16935585703565,,13.788256581246301,,
,8104.0,2036.0,7696.0,2430.0,1691.0,2179.0,2861.0,2025-07-15 19:04:15,64.0,,-0.877128982026915,-2.90740650749578,-1.16899279625404,,12.82904126478495,,
,8105.0,2039.0,7698.0,2430.0,1708.0,2181.0,2855.0,2025-07-15 19:04:16,64.0,,-0.877109521861812,-2.90734417973517,-1.16862275031187,,11.70730128130025,,
,8104.0,2037.0,7698.0,2432.0,1699.0,2173.0,2837.0,2025-07-15 19:04:17,63.0,,-0.876620721988007,-2.9072106504102,-1.16870176265442,,10.4722040798892,,
,8106.0,2038.0,7699.0,2431.0,1707.0,2186.0,2825.0,2025-07-15 19:04:18,64.0,,-0.876221672073605,-2.90718371991376,-1.16758183601138,,9.1736701804899,,
,8106.0,2040.0,7699.0,2433.0,1706.0,2195.0,2820.0,2025-07-15 19:04:19,64.0,,-0.875385767420007,-2.90710502201555,-1.16737367259666,,7.859644715718746,,
,8105.0,2037.0,7698.0,2430.0,1705.0,2176.0,2800.0,2025-07-15 19:04:20,64.0,,-0.875107804862243,-2.90700206996476,-1.16619609743982,,6.573696954685416,,
,8108.0,2041.0,7699.0,2436.0,1709.0,2164.0,2821.0,2025-07-15 19:04:21,64.0,,-0.874140869761399,-2.90703299317589,-1.16551537146779,,5.35311284911158,,
,8105.0,2040.0,7697.0,2432.0,1715.0,2166.0,2820.0,2025-07-15 19:04:22,65.0,,-0.873847992081052,-2.90697006894089,-1.16553232582603,,4.227583199999775,,
,8105.0,2041.0,7699.0,2436.0,1714.0,2162.0,2827.0,2025-07-15 19:04:23,65.0,,-0.87299904965622,-2.90679965436303,-1.1647408947131,,3.2185230128245994,,
,8105.0,2041.0,7700.0,2434.0,1712.0,2159.0,2836.0,2025-07-15 19:04:24,66.0,,-0.87305591378402,-2.90688646587432,-1.16506216153516,,2.3389954056270503,,
,8106.0,2041.0,7701.0,2434.0,1701.0,2187.0,2845.0,2025-07-15 19:04:25,66.0,,-0.873697706071212,-2.90690221288643,-1.16606218709813,,1.5941637212786952,,
,8109.0,2042.0,7698.0,2436.0,1693.0,2138.0,2866.0,2025-07-15 19:04:26,66.0,,-0.873307309144172,-2.9068998823761,-1.1661141949382,,0.9821632255712004,,
,8108.0,2043.0,7700.0,2435.0,1696.0,2124.0,2856.0,2025-07-15 19:04:27,66.0,,-0.872758684033386,-2.90690068416863,-1.165650138074,,0.4952699712260706,,
,8107.0,2043.0,7697.0,2436.0,1705.0,2146.0,2871.0,2025-07-15 19:04:28,66.0,,-0.872044233239442,-2.9068487772612,-1.1651589309269,,0.12124584594873203,,
,8107.0,2042.0,7701.0,2435.0,1704.0,2141.0,2863.0,2025-07-15 19:04:29,66.0,,-0.871885144375163,-2.90680171007842,-1.16501069761282,,-0.15525034037053254,,
,8110.0,2044.0,7701.0,2440.0,1687.0,2168.0,2891.0,2025-07-15 19:04:30,67.0,,-0.871543071705167,-2.90678376175855,-1.16499324995918,,-0.3512809539661653,,
,8111.0,2044.0,7701.0,2437.0,1703.0,2161.0,2885.0,2025-07-15 19:04:31,67.0,,-0.871266564818291,-2.9068290604576,-1.16605927213462,,-0.4843556281602967,,
,8113.0,2047.0,7699.0,2439.0,1688.0,2152.0,2877.0,2025-07-15 19:04:32,68.0,,-0.871260416292656,-2.90686228252701,-1.1661488764326,,-0.5713265754734046,,
,8112.0,2044.0,7703.0,2438.0,1673.0,2169.0,2882.0,2025-07-15 19:04:33,69.0,,-0.870027385281023,-2.9067560021985,-1.16562492331248,,-0.6274956530136951,,
,8111.0,2047.0,7700.0,2440.0,1665.0,2163.0,2859.0,2025-07-15 19:04:34,71.0,,-0.870508060172367,-2.90669561771871,-1.1650099806275,,-0.6659568483955772,,
,8111.0,2046.0,7700.0,2442.0,1680.0,2173.0,2827.0,2025-07-15 19:04:35,72.0,,-0.86985731442048,-2.90687177729369,-1.16630051755795,,-0.6971804974696788,,
,8112.0,2048.0,7700.0,2441.0,1685.0,2173.0,2822.0,2025-07-15 19:04:36,72.0,,-0.869600527677596,-2.90678047178588,-1.16682826327632,,-0.728831248467915,,
,8111.0,2045.0,7698.0,2440.0,1669.0,2160.0,2834.0,2025-07-15 19:04:37,72.0,,-0.869314554465446,-2.90684233779305,-1.16694676173007,,-0.7658011990953411,,
,8112.0,2048.0,7702.0,2443.0,1683.0,2167.0,2809.0,2025-07-15 19:04:38,70.0,,-0.868694186673858,-2.90678909475595,-1.16744643172509,,-0.8104322430989955,,
,8114.0,2049.0,7701.0,2441.0,1667.0,2164.0,2838.0,2025-07-15 19:04:39,68.0,,-0.868658721687108,-2.9067715245373,-1.16767848765532,,-0.8628960940412531,,
,8112.0,2050.0,7701.0,2442.0,1651.0,2162.0,2831.0,2025-07-15 19:04:40,67.0,,-0.868088684568145,-2.90681687605133,-1.16680435028391,,-0.9216950792687996,,
,8110.0,2044.0,7698.0,2442.0,1656.0,2177.0,2822.0,2025-07-15 19:04:41,66.0,,-0.86755745112305,-2.90675939870701,-1.16576378757788,,-0.984240530088643,,
,8109.0,2045.0,7701.0,2441.0,1658.0,2183.0,2826.0,2025-07-15 19:04:42,65.0,,-0.867256691348046,-2.90666535566249,-1.16707099531385,,-1.0474587520803738,,
,8115.0,2048.0,7701.0,2440.0,1648.0,2189.0,2827.0,2025-07-15 19:04:43,64.0,,-0.8667211479868,-2.90674857545281,-1.16670977048047,,-1.1083693286533711,,
,8113.0,2046.0,7700.0,2442.0,1663.0,2195.0,2820.0,2025-07-15 19:04:44,64.0,,-0.866796651644198,-2.90660443016764,-1.16635484295137,,-1.1645802783874286,,
,8115.0,2045.0,7700.0,2441.0,1666.0,2187.0,2817.0,2025-07-15 19:04:45,63.0,,-0.866254812257495,-2.90649479811658,-1.16480947069365,,-1.2146520467295159,,
,8110.0,2045.0,7700.0,2439.0,1691.0,2175.0,2816.0,2025-07-15 19:04:46,63.0,,-0.865758031674331,-2.90647552821845,-1.16523733993633,,-1.2582975847186684,,
,8113.0,2047.0,7699.0,2446.0,1689.0,2165.0,2841.0,2025-07-15 19:04:47,62.0,,-0.865166692868568,-2.90642259314091,-1.16452499776884,,-1.296406132530388,,
,8113.0,2046.0,7699.0,2442.0,1693.0,2194.0,2843.0,2025-07-15 19:04:48,62.0,,-0.865312572997311,-2.90642951068148,-1.16474115917319,,-1.3308997136036171,,
,8115.0,2046.0,7700.0,2443.0,1697.0,2182.0,2837.0,2025-07-15 19:04:49,61.0,,-0.865492673356985,-2.90651766758746,-1.16446494352922,,-1.3644501601304457,,
,8113.0,2043.0,7697.0,2440.0,1686.0,2178.0,2873.0,2025-07-15 19:04:50,61.0,,-0.866283700286576,-2.90664047714846,-1.16590573204133,,-1.400098564286314,,
,8116.0,2043.0,7701.0,2440.0,1692.0,2183.0,2871.0,2025-07-15 19:04:51,61.0,,-0.866108006306636,-2.90672756985507,-1.16621784246811,,-1.4408275749831652,,
,8115.0,2047.0,7699.0,2443.0,1685.0,2191.0,2871.0,2025-07-15 19:04:52,61.0,,-0.866357764528958,-2.90662124972873,-1.16551938289281,,-1.489139895858021,,
,8118.0,2048.0,7704.0,2444.0,1680.0,2176.0,2866.0,2025-07-15 19:04:53,61.0,,-0.866210271829422,-2.90663535760326,-1.16600300431376,,-1.5466939276561793,,
,8118.0,2046.0,7704.0,2445.0,1700.0,2167.0,2858.0,2025-07-15 19:04:54,62.0,,-0.86665626536136,-2.90676003150698,-1.16659267799321,,-1.6140401858255025,,
,8117.0,2048.0,7700.0,2442.0,1681.0,2160.0,2858.0,2025-07-15 19:04:55,63.0,,-0.866306691699387,-2.90677544247883,-1.16694926102642,,-1.6904906351233608,,
,8117.0,2049.0,7701.0,2444.0,1670.0,2149.0,2838.0,2025-07-15 19:04:56,64.0,,-0.8664184651176,-2.90692240573498,-1.1676456881219,,-1.7741383294667221,,
,8118.0,2051.0,7702.0,2444.0,1678.0,2163.0,2836.0,2025-07-15 19:04:57,64.0,,-0.86636227796167,-2.9068911934954,-1.16878731168792,,-1.862027696440178,,
,8117.0,2049.0,7701.0,2446.0,1680.0,2191.0,2838.0,2025-07-15 19:04:58,64.0,,-0.866280332258541,-2.90700006655501,-1.16887500985886,,-1.9504576124065207,,
,8116.0,2048.0,7699.0,2444.0,1675.0,2197.0,2824.0,2025-07-15 19:04:59,64.0,,-0.866164825252355,-2.90690257445516,-1.16825253144634,,-2.035381915057167,,
,8121.0,2050.0,7702.0,2447.0,1696.0,2175.0,2838.0,2025-07-15 19:05:00,63.0,,-0.866286786620121,-2.90701591599985,-1.16866281349841,,-2.112858125238679,,
,8121.0,2051.0,7702.0,2447.0,1689.0,2159.0,2830.0,2025-07-15 19:05:01,63.0,,-0.866390102161557,-2.90696952171942,-1.16853308859299,,-2.179488225856397,,
,8123.0,2053.0,7702.0,2448.0,1681.0,2159.0,2827.0,2025-07-15 19:05:02,63.0,,-0.866295815628365,-2.90706404115063,-1.16872169887498,,-2.2327972832450547,,
,8120.0,2052.0,7700.0,2447.0,1680.0,2185.0,2814.0,2025-07-15 19:05:03,62.0,,-0.866761668795176,-2.90695110558285,-1.1676841391176,,-2.2715057268887393,,
,8123.0,2051.0,7701.0,2449.0,1701.0,2183.0,2808.0,2025-07-15 19:05:04,63.0,,-0.866786651092284,-2.90695888918407,-1.16781674264056,,-2.2956663754839126,,
,8121.0,2052.0,7702.0,2447.0,1711.0,2185.0,2840.0,2025-07-15 19:05:05,63.0,,-0.866816019831306,-2.90691928186577,-1.16833880861716,,-2.3066545491808994,,
,8123.0,2052.0,7701.0,2446.0,1705.0,2174.0,2842.0,2025-07-15 19:05:06,64.0,,-0.866503500846635,-2.90691088299034,-1.16752494162869,,-2.307016363888363,,
,8120.0,2054.0,7700.0,2449.0,1717.0,2178.0,2845.0,2025-07-15 19:05:07,64.0,,-0.866993779758107,-2.90692095874975,-1.16745479561409,,-2.300195042810317,,
,8122.0,2054.0,7703.0,2447.0,1713.0,2166.0,2857.0,2025-07-15 19:05:08,65.0,,-0.86694576909706,-2.90699805679045,-1.16730722286108,,-2.2901668282098693,,
,8124.0,2055.0,7701.0,2450.0,1723.0,2175.0,2867.0,2025-07-15 19:05:09,65.0,,-0.866891265216702,-2.90698290225835,-1.16705369308255,,-2.2810261216260614,,
,8123.0,2052.0,7702.0,2450.0,1724.0,2160.0,2889.0,2025-07-15 19:05:10,66.0,,-0.867878519872668,-2.90701373223675,-1.16783963741869,,-2.276563460222845,,
,8125.0,2057.0,7701.0,2448.0,1730.0,2172.0,2876.0,2025-07-15 19:05:11,66.0,,-0.868033193771968,-2.90702373726604,-1.16755381912161,,-2.2798799259151177,,
,8124.0,2053.0,7698.0,2451.0,1735.0,2154.0,2851.0,2025-07-15 19:05:12,66.0,,-0.868252485342402,-2.9070977765158,-1.16734430990039,,-2.2930779055461663,,
,8124.0,2056.0,7703.0,2449.0,1722.0,2157.0,2856.0,2025-07-15 19:05:13,66.0,,-0.868167852153657,-2.90695248960548,-1.16724308771588,,-2.3170610592533327,,
,8125.0,2059.0,7704.0,2451.0,1715.0,2145.0,2854.0,2025-07-15 19:05:14,66.0,,-0.86801237732894,-2.90710753473413,-1.16722632120444,,-2.3514660370076497,,
,8125.0,2056.0,7703.0,2451.0,1723.0,2138.0,2847.0,2025-07-15 19:05:15,65.0,,-0.868900476937476,-2.90709138872096,-1.16725141869839,,-2.394735002462896,,
,8124.0,2056.0,7700.0,2450.0,1725.0,2153.0,2841.0,2025-07-15 19:05:16,65.0,,-0.868567114554788,-2.90716501399548,-1.16731190992174,,-2.4443218344876296,,
,8124.0,2057.0,7701.0,2450.0,1725.0,2162.0,2814.0,2025-07-15 19:05:17,65.0,,-0.869002370878309,-2.90714604662196,-1.16895169688763,,-2.4970074481928917,,
,8124.0,2058.0,7703.0,2451.0,1718.0,2179.0,2822.0,2025-07-15 19:05:18,65.0,,-0.869157076971793,-2.90715488440412,-1.16807513176454,,-2.549283977513912,,
,8126.0,2059.0,7702.0,2454.0,1724.0,2178.0,2824.0,2025-07-15 19:05:19,65.0,,-0.869851346636176,-2.9071799271285,-1.16823202451775,,-2.597757519484166,,
,8125.0,2057.0,7700.0,2452.0,1714.0,2185.0,2819.0,2025-07-15 19:05:20,65.0,,-0.869627864928446,-2.90724555672276,-1.16712093930743,,-2.639517799984463,,
,8123.0,2057.0,7699.0,2448.0,1712.0,2169.0,2831.0,2025-07-15 19:05:21,65.0,,-0.870640140670008,-2.90725586729984,-1.16771592770272,,-2.672430829103237,,
,8127.0,2060.0,7700.0,2453.0,1715.0,2180.0,2826.0,2025-07-15 19:05:22,65.0,,-0.870711095522127,-2.90736384595618,-1.16876504169839,,-2.6953249214912294,,
,8127.0,2061.0,7703.0,2453.0,1699.0,2174.0,2814.0,2025-07-15 19:05:23,65.0,,-0.87127592361592,-2.90724972952243,-1.16782043316658,,-2.708057644319858,,
,8124.0,2059.0,7700.0,2452.0,1717.0,2175.0,2801.0,2025-07-15 19:05:24,65.0,,-0.871513140885417,-2.9072548865769,-1.16797101001147,,-2.71146797528957,,
,8124.0,2058.0,7703.0,2451.0,1714.0,2169.0,2821.0,2025-07-15 19:05:25,64.0,,-0.872619267631464,-2.90731209708411,-1.16857530115176,,-2.707231892752704,,
,8125.0,2059.0,7700.0,2453.0,1714.0,2181.0,2818.0,2025-07-15 19:05:26,64.0,,-0.873567744659988,-2.90749520947205,-1.16858893939931,,-2.6976493133714077,,
,8127.0,2061.0,7702.0,2453.0,1709.0,2186.0,2830.0,2025-07-15 19:05:27,64.0,,-0.873522771674239,-2.90752780047849,-1.16799706432186,,-2.685394870800929,,
,8125.0,2060.0,7703.0,2454.0,1712.0,2182.0,2820.0,2025-07-15 19:05:28,64.0,,-0.873944284963425,-2.9073868220214,-1.16853429268633,,-2.673264369816672,,
,8126.0,2058.0,7702.0,2452.0,1705.0,2184.0,2854.0,2025-07-15 19:05:29,64.0,,-0.873467420853858,-2.90740033351786,-1.16762253205441,,-2.6639437268916613,,
,8126.0,2063.0,7702.0,2452.0,1709.0,2194.0,2836.0,2025-07-15 19:05:30,64.0,,-0.87342059979558,-2.90743678892903,-1.16754094273031,,-2.6598195334736676,,
,8127.0,2061.0,7700.0,2452.0,1685.0,2166.0,2842.0,2025-07-15 19:05:31,64.0,,-0.873660423229412,-2.90730072641236,-1.16715325249697,,-2.6628420341396324,,
,8127.0,2062.0,7705.0,2455.0,1679.0,2165.0,2849.0,2025-07-15 19:05:32,63.0,,-0.87395188185337,-2.90739844005767,-1.166827009005,,-2.674443916012891,,
,8128.0,2060.0,7703.0,2451.0,1685.0,2162.0,2859.0,2025-07-15 19:05:33,63.0,,-0.874383033384505,-2.90749859568431,-1.16608881408661,,-2.6955126641017744,,
,8126.0,2060.0,7701.0,2452.0,1679.0,2183.0,2851.0,2025-07-15 19:05:34,63.0,,-0.874599192210828,-2.90739265418074,-1.16525033679384,,-2.7264101557533147,,
,8127.0,2062.0,7702.0,2454.0,1702.0,2161.0,2852.0,2025-07-15 19:05:35,62.0,,-0.874698520530627,-2.90738743849063,-1.16510917569191,,-2.7670296436967425,,
,8129.0,2064.0,7704.0,2456.0,1694.0,2161.0,2835.0,2025-07-15 19:05:36,62.0,,-0.875100076282487,-2.90737427928858,-1.16520533002537,,-2.8168761699471436,,
,8125.0,2063.0,7703.0,2454.0,1694.0,2167.0,2824.0,2025-07-15 19:05:37,62.0,,-0.875939009850635,-2.9073358236793,-1.16605081642674,,-2.875151456368031,,
,8128.0,2061.0,7702.0,2452.0,1700.0,2177.0,2836.0,2025-07-15 19:05:38,62.0,,-0.875756900240406,-2.90738234517758,-1.16622057435867,,-2.940819729650303,,
,8127.0,2064.0,7704.0,2453.0,1718.0,2192.0,2867.0,2025-07-15 19:05:39,61.0,,-0.876007967089811,-2.90742974817202,-1.16655533285846,,-3.0126294646854506,,
,8127.0,2064.0,7705.0,2454.0,1685.0,2192.0,2881.0,2025-07-15 19:05:40,61.0,,-0.877037961925449,-2.90750399580368,-1.16702419806215,,-3.0890702572195323,,
,8127.0,2063.0,7705.0,2453.0,1683.0,2199.0,2878.0,2025-07-15 19:05:41,61.0,,-0.876919908774687,-2.90762114055455,-1.16754577899404,,-3.1682545363289902,,
,8128.0,2065.0,7704.0,2453.0,1699.0,2203.0,2855.0,2025-07-15 19:05:42,61.0,,-0.877544613291077,-2.90781450474215,-1.16658092866359,,-3.247728568634192,,
,8124.0,2061.0,7702.0,2452.0,1686.0,2183.0,2834.0,2025-07-15 19:05:43,61.0,,-0.878264788854612,-2.90782171692242,-1.16777275950731,,-3.324232722345066,,
,8126.0,2062.0,7706.0,2454.0,1683.0,2173.0,2852.0,2025-07-15 19:05:44,61.0,,-0.878023572914754,-2.90773832797188,-1.16687599522046,,-3.3934440661681378,,
,8126.0,2060.0,7702.0,2454.0,1680.0,2172.0,2848.0,2025-07-15 19:05:45,61.0,,-0.878505443272434,-2.90785946938107,-1.16794862049889,,-3.4497430838702803,,
,8126.0,2061.0,7706.0,2452.0,1675.0,2183.0,2847.0,2025-07-15 19:05:46,61.0,,-0.879009914852097,-2.90776511692196,-1.16778412131895,,-3.486049649145611,,
,8125.0,2056.0,7703.0,2450.0,1634.0,2191.0,2834.0,2025-07-15 19:05:47,61.0,,-0.879963979430101,-2.90796694922498,-1.16741195982974,,-3.493771048157037,,
,8127.0,2055.0,7703.0,2450.0,1641.0,2196.0,2818.0,2025-07-15 19:05:48,61.0,,-0.879139760735934,-2.90786566009202,-1.16773121335016,,-3.4628967307346326,,
,8126.0,2055.0,7704.0,2450.0,1661.0,2181.0,2830.0,2025-07-15 19:05:49,61.0,,-0.880073943448537,-2.90782260387701,-1.16755062953691,,-3.3822610522915353,,
,8128.0,2052.0,7702.0,2447.0,1667.0,2179.0,2839.0,2025-07-15 19:05:50,62.0,,-0.880624169679326,-2.90781864193912,-1.16695061313191,,-3.2399776596540866,,
,8124.0,2047.0,7703.0,2445.0,1666.0,2155.0,2841.0,2025-07-15 19:05:51,63.0,,-0.880438618512201,-2.90793428325305,-1.16745610551566,,-3.0240293429001417,,
,8127.0,2047.0,7706.0,2445.0,1680.0,2168.0,2842.0,2025-07-15 19:05:52,63.0,,-0.880837762046885,-2.90802500704065,-1.16785010541576,,-2.722977857588916,,
,8124.0,2046.0,7703.0,2439.0,1680.0,2173.0,2835.0,2025-07-15 19:05:53,64.0,,-0.881025352650918,-2.90800992444393,-1.16735729333644,,-2.3267424683914326,,
,8123.0,2045.0,7705.0,2441.0,1683.0,2189.0,2839.0,2025-07-15 19:05:54,64.0,,-0.881401053157437,-2.90805681954688,-1.16777667260934,,-1.8273863986024186,,
,8121.0,2043.0,7705.0,2438.0,1687.0,2184.0,2852.0,2025-07-15 19:05:55,64.0,,-0.881856704816262,-2.90808549123603,-1.16922087015433,,-1.2198484205822828,,
,8122.0,2040.0,7703.0,2436.0,1687.0,2182.0,2852.0,2025-07-15 19:05:56,64.0,,-0.882637926331524,-2.90818639274009,-1.16909934457899,,-0.50256226842123,,
,8119.0,2040.0,7704.0,2437.0,1683.0,2176.0,2850.0,2025-07-15 19:05:57,64.0,,-0.883098004062913,-2.90820691306067,-1.17040496306021,,0.3220822076543303,,
,8119.0,2043.0,7709.0,2438.0,1704.0,2166.0,2857.0,2025-07-15 19:05:58,65.0,,-0.883458282546375,-2.90821823658812,-1.16961558461953,,1.2474671843044258,,
,8115.0,2041.0,7705.0,2434.0,1709.0,2164.0,2862.0,2025-07-15 19:05:59,65.0,,-0.883603529920337,-2.90822302896686,-1.17010156580353,,2.2626782276878883,,
,8118.0,2037.0,7704.0,2433.0,1682.0,2162.0,2826.0,2025-07-15 19:06:00,65.0,,-0.883921562069875,-2.90821431444323,-1.17071774966692,,3.352635595041642,,
,8117.0,2040.0,7703.0,2436.0,1679.0,2176.0,2801.0,2025-07-15 19:06:01,65.0,,-0.884301237944846,-2.90821896288471,-1.17095185459335,,4.498407798183619,,
,8117.0,2040.0,7706.0,2434.0,1682.0,2168.0,2818.0,2025-07-15 19:06:02,65.0,,-0.884073610767684,-2.90828685267199,-1.17147422975676,,5.677681227937083,,
2025-07-15 19:03:56,8116.0,2041.0,7705.0,2437.0,1692.0,2172.0,2829.0,2025-07-15 19:06:03,64.0,2025/07/15 07:03:56 PM,-0.884114898485383,-2.90820491634053,-1.17252782880779,,6.865358477595896,,
,8118.0,2042.0,7703.0,2436.0,1685.0,2172.0,2839.0,2025-07-15 19:06:04,64.0,,-0.884947858032641,-2.9083239659754,-1.17260292840017,,8.034263035415346,,
,8118.0,2040.0,7705.0,2434.0,1700.0,2175.0,2825.0,2025-07-15 19:06:05,64.0,,-0.884549278019507,-2.90844240354405,-1.17201260431754,,9.155935917847692,,
,8118.0,2042.0,7705.0,2438.0,1701.0,2176.0,2826.0,2025-07-15 19:06:06,64.0,,-0.88458901784489,-2.90849717233757,-1.17289486899123,,10.201516579848414,,
,8121.0,2042.0,7707.0,2439.0,1708.0,2167.0,2826.0,2025-07-15 19:06:07,64.0,,-0.884428109756986,-2.90834658962037,-1.17327578494561,,11.142702694640109,,
,8120.0,2044.0,7705.0,2438.0,1702.0,2162.0,2835.0,2025-07-15 19:06:08,65.0,,-0.884702346442277,-2.90845736879296,-1.17338986401634,,11.952779161056952,,
,8120.0,2041.0,7705.0,2437.0,1705.0,2188.0,2837.0,2025-07-15 19:06:09,66.0,,-0.884424829544914,-2.90844528096549,-1.17277691793987,,12.60769571994029,,
,8123.0,2044.0,7707.0,2440.0,1706.0,2181.0,2852.0,2025-07-15 19:06:10,67.0,,-0.884715283501881,-2.90856231180215,-1.17327164696897,,13.087156326146632,,
,8123.0,2044.0,7704.0,2441.0,1703.0,2170.0,2854.0,2025-07-15 19:06:11,68.0,,-0.884758553431398,-2.90851182955444,-1.17383544531834,,13.375664779495409,,
,8124.0,2045.0,7704.0,2441.0,1706.0,2168.0,2856.0,2025-07-15 19:06:12,69.0,,-0.884686118478853,-2.9083898581726,-1.17411865880735,,13.463453707039083,,
,8119.0,2043.0,7708.0,2439.0,1706.0,2154.0,2869.0,2025-07-15 19:06:13,70.0,,-0.884753662064039,-2.90847017031882,-1.17328164380095,,13.347211774304675,,
,8124.0,2044.0,7705.0,2442.0,1682.0,2145.0,2881.0,2025-07-15 19:06:14,70.0,,-0.884723322885142,-2.9085251966103,-1.17389404256199,,13.030520961618851,,
,8125.0,2046.0,7708.0,2444.0,1686.0,2153.0,2886.0,2025-07-15 19:06:15,70.0,,-0.884717440908991,-2.90857736429446,-1.1743857067275,,12.523925427259009,,
,8125.0,2048.0,7706.0,2442.0,1687.0,2151.0,2871.0,2025-07-15 19:06:16,70.0,,-0.885128526362234,-2.90873071698247,-1.17482837041595,,11.844578138665387,,
,8126.0,2046.0,7707.0,2443.0,1678.0,2167.0,2845.0,2025-07-15 19:06:17,69.0,,-0.88569007919091,-2.90865498703422,-1.17537233714771,,11.015450708575397,,
,8125.0,2048.0,7707.0,2443.0,1690.0,2167.0,2840.0,2025-07-15 19:06:18,70.0,,-0.886118268194578,-2.90879318161734,-1.17632081699078,,10.064141470116985,,
,8127.0,2047.0,7706.0,2444.0,1686.0,2168.0,2832.0,2025-07-15 19:06:19,71.0,,-0.886586349335721,-2.90872190282526,-1.1754362042674,,9.021368282459237,,
,8126.0,2049.0,7705.0,2443.0,1680.0,2167.0,2856.0,2025-07-15 19:06:20,72.0,,-0.886514084404991,-2.90887098849351,-1.17579270155807,,7.919274785784556,,
,8127.0,2049.0,7707.0,2444.0,1681.0,2174.0,2856.0,2025-07-15 19:06:21,74.0,,-0.886844877718407,-2.90889237306442,-1.17654834831734,,6.789702024033962,,
,8126.0,2047.0,7706.0,2442.0,1683.0,2194.0,2841.0,2025-07-15 19:06:22,74.0,,-0.887128436201095,-2.90903076559039,-1.1785775765652,,5.662577188819656,,
,8128.0,2051.0,7706.0,2445.0,1688.0,2175.0,2870.0,2025-07-15 19:06:23,75.0,,-0.887496149111598,-2.90928514213296,-1.17751646261238,,4.564550072827987,,
,8129.0,2049.0,7707.0,2444.0,1694.0,2160.0,2853.0,2025-07-15 19:06:24,74.0,,-0.888116212196782,-2.90922125950657,-1.17799258307434,,3.5179723425764875,,
,8129.0,2050.0,7707.0,2446.0,1695.0,2159.0,2853.0,2025-07-15 19:06:25,73.0,,-0.887640748812957,-2.90923196176467,-1.17751406618643,,2.5402724658300104,,
,8128.0,2046.0,7709.0,2447.0,1708.0,2157.0,2848.0,2025-07-15 19:06:26,72.0,,-0.888929658849756,-2.90931594984828,-1.17935460306358,,1.6437363321089031,,
,8127.0,2048.0,7706.0,2444.0,1695.0,2196.0,2845.0,2025-07-15 19:06:27,71.0,,-0.888825763139938,-2.90918604408432,-1.17772097586178,,0.8356648868113609,,
,8129.0,2048.0,7706.0,2446.0,1695.0,2170.0,2841.0,2025-07-15 19:06:28,70.0,,-0.889143646841325,-2.90903344073622,-1.1780314296598,,0.11884855241161167,,
,8132.0,2048.0,7707.0,2448.0,1710.0,2160.0,2862.0,2025-07-15 19:06:29,69.0,,-0.889675795494085,-2.9092157773819,-1.17703960657773,,-0.5077243556361538,,
,8131.0,2049.0,7710.0,2449.0,1713.0,2167.0,2860.0,2025-07-15 19:06:30,68.0,,-0.889494319163471,-2.90931330507692,-1.17817709181231,,-1.0480206991398775,,
,8130.0,2051.0,7707.0,2446.0,1699.0,2184.0,2872.0,2025-07-15 19:06:31,68.0,,-0.889526333660866,-2.90918576167064,-1.17700816703895,,-1.5080749878648043,,
,8130.0,2049.0,7708.0,2448.0,1689.0,2180.0,2862.0,2025-07-15 19:06:32,67.0,,-0.889462889389298,-2.90926824746225,-1.17829777472015,,-1.89515140512808,,
,8132.0,2050.0,7711.0,2447.0,1694.0,2177.0,2872.0,2025-07-15 19:06:33,67.0,,-0.889376627920847,-2.90943359856719,-1.17806793848089,,-2.217028392815696,,
,8132.0,2051.0,7710.0,2446.0,1692.0,2175.0,2859.0,2025-07-15 19:06:34,67.0,,-0.890152689240276,-2.90928523174722,-1.1794795965819,,-2.4814541790027427,,
,8130.0,2049.0,7706.0,2446.0,1697.0,2188.0,2850.0,2025-07-15 19:06:35,67.0,,-0.89000117707072,-2.90941686296927,-1.18003359367785,,-2.6957927771923225,,
,8130.0,2049.0,7706.0,2446.0,1697.0,2193.0,2864.0,2025-07-15 19:06:36,68.0,,-0.890134857926443,-2.90940738569302,-1.18018817855725,,-2.8668513728851943,,
,8131.0,2050.0,7708.0,2448.0,1698.0,2190.0,2819.0,2025-07-15 19:06:37,69.0,,-0.891111759940525,-2.90965283614119,-1.18124787638446,,-3.0008565906997506,,
,8131.0,2051.0,7710.0,2448.0,1692.0,2188.0,2828.0,2025-07-15 19:06:38,71.0,,-0.893225352027013,-2.90971819123349,-1.18137258063923,,-3.1035326954798723,,
,8130.0,2050.0,7708.0,2448.0,1680.0,2158.0,2842.0,2025-07-15 19:06:39,72.0,,-0.893026529198599,-2.9098352503364,-1.18258642927975,,-3.1802303939922294,,
,8133.0,2052.0,7709.0,2446.0,1676.0,2158.0,2839.0,2025-07-15 19:06:40,71.0,,-0.893904302272909,-2.91008179142185,-1.18401975058451,,-3.2360588844531617,,
,8130.0,2053.0,7708.0,2447.0,1683.0,2162.0,2829.0,2025-07-15 19:06:41,71.0,,-0.894543085651183,-2.91005081640939,-1.18420755853002,,-3.2759832511064775,,
,8135.0,2052.0,7711.0,2450.0,1667.0,2177.0,2844.0,2025-07-15 19:06:42,70.0,,-0.895178077094344,-2.91009736583704,-1.1847529202559,,-3.3048616834313607,,
,8137.0,2051.0,7711.0,2448.0,1679.0,2173.0,2843.0,2025-07-15 19:06:43,69.0,,-0.896533553573851,-2.91021841281915,-1.18534414755413,,-3.327410554394609,,
,8135.0,2051.0,7705.0,2449.0,1672.0,2166.0,2856.0,2025-07-15 19:06:44,68.0,,-0.896538854584788,-2.91021230035224,-1.18512140173246,,-3.3480986922686986,,
,8133.0,2052.0,7707.0,2447.0,1680.0,2154.0,2858.0,2025-07-15 19:06:45,67.0,,-0.896518530441543,-2.91023773034844,-1.18516616545636,,-3.370983789744515,,
,8134.0,2055.0,7712.0,2450.0,1696.0,2176.0,2835.0,2025-07-15 19:06:46,67.0,,-0.896791829977156,-2.91022672000751,-1.18616991552932,,-3.39951259764576,,
,8138.0,2055.0,7708.0,2452.0,1697.0,2180.0,2823.0,2025-07-15 19:06:47,67.0,,-0.897362138782846,-2.9103300160915,-1.18558764989798,,-3.4363118145289673,,
,8136.0,2053.0,7708.0,2448.0,1684.0,2166.0,2854.0,2025-07-15 19:06:48,67.0,,-0.896946680739969,-2.91031798582857,-1.18500824622438,,-3.4829986358090244,,
,8136.0,2053.0,7706.0,2450.0,1674.0,2171.0,2855.0,2025-07-15 19:06:49,67.0,,-0.896982382305828,-2.91016902471924,-1.18435671122936,,-3.5400393459554724,,
,8136.0,2056.0,7709.0,2450.0,1667.0,2168.0,2832.0,2025-07-15 19:06:50,66.0,,-0.896752641455681,-2.91026412572618,-1.18354479836828,,-3.6066815377002936,,
,8135.0,2057.0,7708.0,2452.0,1682.0,2190.0,2820.0,2025-07-15 19:06:51,66.0,,-0.896676287009876,-2.91025741405788,-1.18418242769813,,-3.680980457681951,,
,8135.0,2058.0,7708.0,2452.0,1689.0,2193.0,2823.0,2025-07-15 19:06:52,65.0,,-0.896700029992215,-2.91022019949219,-1.18373907348564,,-3.7599320724319414,,
,8140.0,2056.0,7708.0,2453.0,1705.0,2195.0,2843.0,2025-07-15 19:06:53,65.0,,-0.897193143332756,-2.91030716750079,-1.18440254375498,,-3.8397141789381335,,
,8137.0,2056.0,7706.0,2450.0,1676.0,2187.0,2860.0,2025-07-15 19:06:54,64.0,,-0.897634151235493,-2.91039568612961,-1.18440037518021,,-3.916022617639824,,
,8139.0,2057.0,7707.0,2452.0,1668.0,2180.0,2843.0,,,,-0.896813708865253,-2.91030012686944,-1.18444044392772,,-3.9844745043446963,,
,8141.0,2056.0,7706.0,2455.0,1680.0,2179.0,2853.0,,,,-0.896827734708602,-2.91038040203893,-1.18596912812833,,-4.041038051324375,,
,8139.0,2058.0,7707.0,2449.0,1693.0,2188.0,2831.0,,,,-0.896674488841078,-2.91043527021877,-1.18593281812203,,-4.082442559231812,,
,8140.0,2056.0,7708.0,2454.0,1703.0,2184.0,2850.0,,,,-0.897165253998713,-2.91039147678499,-1.18693132808463,,-4.106523997752776,,
,8138.0,2055.0,7706.0,2454.0,1702.0,2187.0,2828.0,,,,-0.897533340834994,-2.91051063616241,-1.18740199939432,,-4.112469994132118,,
,8137.0,2058.0,7706.0,2454.0,1708.0,2189.0,2829.0,,,,-0.897688134984629,-2.91047910335958,-1.18770179715389,,-4.100940136791385,,
,8141.0,2058.0,7705.0,2457.0,1686.0,2183.0,2829.0,,,,-0.8978923927108,-2.91057202507191,-1.18848907892263,,-4.074050499125711,,
,8137.0,2054.0,7707.0,2454.0,1708.0,2177.0,2835.0,,,,-0.898226515452316,-2.91058579590824,-1.18736764653649,,-4.035223543042204,,
,8139.0,2058.0,7706.0,2455.0,1713.0,2177.0,2838.0,,,,-0.898325633930868,-2.91060895422744,-1.18703970980597,,-3.988915501117027,,
,8142.0,2060.0,7708.0,2457.0,1723.0,2160.0,2838.0,,,,-0.897462123256717,-2.91068021974447,-1.18816607086471,,-3.9402429345162497,,
,8139.0,2060.0,7711.0,2458.0,1726.0,2169.0,2842.0,,,,-0.897606743134362,-2.91053274208233,-1.18839818860704,,-3.89453853578352,,
,8136.0,2056.0,7703.0,2455.0,1720.0,2175.0,2811.0,,,,-0.897383283151732,-2.91036937826708,-1.18806813177218,,-3.856873398836612,,
,8141.0,2059.0,7707.0,2455.0,1723.0,2174.0,2820.0,,,,-0.897345463196818,-2.91029856500298,-1.18779431545465,,-3.8315885151572653,,
,8138.0,2059.0,7705.0,2457.0,1727.0,2177.0,2803.0,,,,-0.897157318159538,-2.91040918421007,-1.18765439417121,,-3.8218811693924937,,
,8138.0,2061.0,7707.0,2458.0,1718.0,2180.0,2802.0,,,,-0.896857824655912,-2.91038335159058,-1.18725774857483,,-3.829490818173302,,
,8138.0,2059.0,7706.0,2453.0,1702.0,2174.0,2834.0,,,,-0.897262025689239,-2.91033904145464,-1.18641468220123,,-3.854522809275179,,
,8135.0,2058.0,7705.0,2454.0,1722.0,2149.0,2818.0,,,,-0.896013454688313,-2.91036882691776,-1.18628842522928,,-3.8954365858781768,,
,8141.0,2061.0,7706.0,2457.0,1718.0,2165.0,2819.0,,,,-0.896791626986219,-2.91044748404423,-1.18629744409487,,-3.9492083798722426,,
,8140.0,2060.0,7708.0,2458.0,1717.0,2173.0,2829.0,,,,-0.897300678152459,-2.91038390402205,-1.18622811731394,,-4.011658206394765,,
,8142.0,2060.0,7708.0,2455.0,1716.0,2185.0,2821.0,,,,-0.897749532685153,-2.91040749071409,-1.18671086599657,,-4.077909555701981,,
,8138.0,2059.0,7706.0,2455.0,1724.0,2175.0,2846.0,,,,-0.897302034207832,-2.91034362260261,-1.18707331737004,,-4.142931025901624,,
,8141.0,2062.0,7704.0,2455.0,1726.0,2180.0,2856.0,,,,-0.897918509923253,-2.91044904090962,-1.18682117722962,,-4.20209634887105,,
,8142.0,2064.0,7709.0,2457.0,1723.0,2166.0,2860.0,,,,-0.898141748010844,-2.91057641164582,-1.18714422595822,,-4.251695861179886,,
,8140.0,2062.0,7709.0,2457.0,1719.0,2174.0,2863.0,,,,-0.898561127808073,-2.91055162521628,-1.18745748447066,,-4.289338809253187,,
,8139.0,2060.0,7705.0,2455.0,1721.0,2189.0,2865.0,,,,-0.898980423150375,-2.91052272216916,-1.1884715535061,,-4.314199601819699,,
,8138.0,2059.0,7706.0,2456.0,1719.0,2171.0,2860.0,,,,-0.899137149073458,-2.9104410584333,-1.18761535950833,,-4.32707872533417,,
,8140.0,2062.0,7709.0,2457.0,1716.0,2172.0,2829.0,,,,-0.899761971922278,-2.91062061863058,-1.1883690687698,,-4.330267586456692,,
,8140.0,2063.0,7710.0,2458.0,1720.0,2188.0,2819.0,,,,-0.900021829178551,-2.9106088252627,-1.18802992725162,,-4.327224411181354,,
,8138.0,2061.0,7707.0,2456.0,1705.0,2183.0,2841.0,,,,-0.900135300588926,-2.91059564314837,-1.18854424877603,,-4.322084785653476,,
,8137.0,2064.0,7706.0,2454.0,1685.0,2172.0,2869.0,,,,-0.90049599572885,-2.91070149874832,-1.18774067034234,,-4.319044920483428,,
,8138.0,2065.0,7710.0,2457.0,1685.0,2168.0,2853.0,,,,-0.900151278119644,-2.91057173506252,-1.18679432524049,,-4.321667645566642,,
,8137.0,2062.0,7709.0,2456.0,1685.0,2165.0,2835.0,,,,-0.900700255130803,-2.91059617134353,-1.18732372938016,,-4.332170007472962,,
,8138.0,2061.0,7712.0,2455.0,1682.0,2172.0,2834.0,,,,-0.900473583737477,-2.91054375510292,-1.18613411457988,,-4.350756870378298,,
,8137.0,2055.0,7705.0,2454.0,1663.0,2176.0,2854.0,,,,-0.900748255599984,-2.91060154832399,-1.18665311419609,,-4.37506684962378,,
,8139.0,2056.0,7710.0,2456.0,1662.0,2182.0,2848.0,,,,-0.900062942307402,-2.91054187268995,-1.18488618350611,,-4.3997947137615,,
,8140.0,2058.0,7712.0,2455.0,1657.0,2172.0,2855.0,,,,-0.900375635124945,-2.91067970233099,-1.18568699116866,,-4.41654716402058,,
,8135.0,2053.0,7709.0,2451.0,1635.0,2177.0,2866.0,,,,-0.899618572253875,-2.91046728800273,-1.18624059767899,,-4.413975403963916,,
,8135.0,2050.0,7711.0,2449.0,1629.0,2180.0,2835.0,,,,-0.900210855968953,-2.91053729210976,-1.18574560004381,,-4.378207016580942,,
,8134.0,2048.0,7711.0,2445.0,1644.0,2181.0,2832.0,,,,-0.899305453508586,-2.91058599295238,-1.1851006694846,,-4.2935712720043755,,
,8134.0,2049.0,7712.0,2446.0,1663.0,2168.0,2851.0,,,,-0.899703540928444,-2.91048761310778,-1.18562245517144,,-4.143578202448854,,
,8133.0,2047.0,7713.0,2446.0,1647.0,2169.0,2853.0,,,,-0.899145470539918,-2.91051870891788,-1.18494780854492,,-3.9120775189563943,,
,8133.0,2045.0,7713.0,2441.0,1670.0,2177.0,2861.0,,,,-0.898719800108871,-2.91049471452727,-1.18559367499208,,-3.5844954719916746,,
,8128.0,2043.0,7709.0,2438.0,1684.0,2175.0,2865.0,,,,-0.899036697343874,-2.91059105464458,-1.18635369830428,,-3.1490322461243454,,
,8131.0,2044.0,7712.0,2440.0,1656.0,2186.0,2835.0,,,,-0.899224343420367,-2.9105817548667,-1.18535067545561,,-2.5977028619688918,,
,8133.0,2041.0,7713.0,2438.0,1651.0,2205.0,2845.0,,,,-0.89876896667538,-2.91061936586497,-1.18565226922758,,-1.9271211446896477,,
,8129.0,2039.0,7712.0,2438.0,1661.0,2195.0,2839.0,,,,-0.89866659336609,-2.9106917885571,-1.18655866149172,,-1.1389569180624088,,
,8130.0,2038.0,7711.0,2436.0,1681.0,2184.0,2832.0,,,,-0.898396183676488,-2.910479697175,-1.18622916907232,,-0.24003677199071236,,
,8130.0,2041.0,7714.0,2438.0,1691.0,2184.0,2826.0,,,,-0.898773716201775,-2.91064866089663,-1.18604170819252,,0.7578980164169491,,
,8132.0,2043.0,7715.0,2439.0,1692.0,2218.0,2831.0,,,,-0.898870140783882,-2.91054099679133,-1.18689024444726,,1.838724162971395,,
,8129.0,2040.0,7712.0,2437.0,1695.0,2205.0,2827.0,,,,-0.898259201034236,-2.91060496989042,-1.18579851537201,,2.982679944165878,,
,8133.0,2041.0,7716.0,2438.0,1686.0,2186.0,2812.0,,,,-0.898426971935129,-2.91060909995829,-1.18608261219327,,4.167227458110195,,
,8131.0,2042.0,7712.0,2438.0,1696.0,2192.0,2820.0,,,,-0.89790313787567,-2.91059675004706,-1.1867545409913,,5.367944270213388,,
,8131.0,2041.0,7712.0,2439.0,1704.0,2190.0,2812.0,,,,-0.898316659721226,-2.91058713283566,-1.18687483305204,,6.559371081448115,,
,8135.0,2044.0,7715.0,2439.0,1699.0,2192.0,2831.0,,,,-0.897933118713623,-2.91061980133865,-1.18600199278992,,7.715767170912408,,
,8136.0,2043.0,7714.0,2439.0,1700.0,2200.0,2828.0,,,,-0.897701449982295,-2.91062678709975,-1.18640663813469,,8.811754888741277,,
,8133.0,2043.0,7713.0,2440.0,1711.0,2199.0,2823.0,,,,-0.897785749362203,-2.91068367758171,-1.18803707263831,,9.822863236888557,,
,8136.0,2045.0,7714.0,2439.0,1700.0,2170.0,2824.0,,,,-0.897536952993007,-2.91061512923263,-1.18708338642107,,10.726003579668337,,
,8138.0,2045.0,7714.0,2445.0,1707.0,2169.0,2833.0,,,,-0.896921960881328,-2.91054761333172,-1.18747691470881,,11.499923672665334,,
,8137.0,2044.0,7715.0,2443.0,1694.0,2169.0,2847.0,,,,-0.89711035802605,-2.91037382522773,-1.18851085682278,,12.125686817149548,,
,8141.0,2044.0,7714.0,2441.0,1694.0,2157.0,2829.0,,,,-0.896648140271974,-2.91060660221031,-1.18663461522417,,12.587210210215522,,
,8140.0,2045.0,7717.0,2443.0,1701.0,2163.0,2822.0,,,,-0.896302895264376,-2.91040019937347,-1.18680936113786,,12.871872045270091,,
,8141.0,2048.0,7714.0,2444.0,1690.0,2171.0,2837.0,,,,-0.896889964151463,-2.91051674479056,-1.18733953562489,,12.971164990357465,,
,8141.0,2048.0,7715.0,2447.0,1691.0,2174.0,2845.0,,,,-0.896129374665486,-2.91051509169225,-1.18631825449118,,12.8813409104135,,
,8138.0,2047.0,7714.0,2445.0,1690.0,2159.0,2852.0,,,,-0.896909854764567,-2.91055235326377,-1.18775810686616,,12.603965322679773,,
,8140.0,2049.0,7716.0,2446.0,1704.0,2138.0,2862.0,,,,-0.896668344222952,-2.91055702254316,-1.18730601807531,,12.146286348663308,,
,8145.0,2048.0,7715.0,2446.0,1696.0,2149.0,2852.0,,,,-0.897171464093193,-2.91040770022418,-1.18825828560089,,11.521326204524053,,
,8144.0,2052.0,7716.0,2446.0,1701.0,2146.0,2847.0,,,,-0.896498404484409,-2.91068205278011,-1.18794311021012,,10.74762532454729,,
,8143.0,2050.0,7717.0,2447.0,1699.0,2149.0,2862.0,,,,-0.89704432403541,-2.91049095392782,-1.18802224689771,,9.848608233028715,,
,8143.0,2050.0,7716.0,2448.0,1692.0,2179.0,2873.0,,,,-0.896531081604743,-2.9105821273362,-1.18660018014659,,8.8515898780519,,
,8144.0,2051.0,7717.0,2447.0,1702.0,2169.0,2879.0,,,,-0.896182434932871,-2.91061775697649,-1.18748912727402,,7.786490887355069,,
,8145.0,2051.0,7718.0,2446.0,1706.0,2161.0,2885.0,,,,-0.896318596362879,-2.91052911493242,-1.1870730432805,,6.684368826329774,,
,8147.0,2052.0,7718.0,2449.0,1705.0,2158.0,2877.0,,,,-0.89629588710263,-2.91052798851035,-1.18808502278902,,5.5758922750687825,,
,8144.0,2051.0,7718.0,2447.0,1716.0,2152.0,2885.0,,,,-0.895907613784053,-2.91050919132754,-1.18806671694264,,4.489883744372979,,
,8146.0,2052.0,7716.0,2446.0,1713.0,2158.0,2881.0,,,,-0.896235172009727,-2.9106263456754,-1.18729292045724,,3.452039999441428,,
,8147.0,2050.0,7717.0,2446.0,1731.0,2149.0,2851.0,,,,-0.896345081457434,-2.91054645128485,-1.18859796551197,,2.4839109982334486,,
,8148.0,2053.0,7719.0,2448.0,1709.0,2149.0,2839.0,,,,-0.896316856759479,-2.91047242367545,-1.18916047873168,,1.6021880976816485,,
2025-07-15 19:03:57,8145.0,2051.0,7717.0,2449.0,1714.0,2139.0,2840.0,,,2025/07/15 07:03:57 PM,-0.89679763634076,-2.91065659536944,-1.18907738240706,,0.8183231488569094,,
,8143.0,2048.0,7715.0,2445.0,1720.0,2159.0,2841.0,,,,-0.897238471315589,-2.91082291792907,-1.19014023248029,,0.13847462727868604,,
,8146.0,2051.0,7718.0,2447.0,1709.0,2169.0,2835.0,,,,-0.897428890121279,-2.91086712657854,-1.19084939023685,,-0.4362448512474768,,
,8147.0,2050.0,7718.0,2448.0,1720.0,2172.0,2857.0,,,,-0.897944147430695,-2.91101455562415,-1.19036294228009,,-0.9092634986468021,,
,8146.0,2050.0,7714.0,2447.0,1726.0,2159.0,2846.0,,,,-0.899100633789886,-2.91097607037586,-1.19140826672379,,-1.2878454405786801,,
,8145.0,2051.0,7715.0,2447.0,1733.0,2160.0,2836.0,,,,-0.899471454868225,-2.91117122791824,-1.19234194945007,,-1.5822513528665398,,
,8146.0,2050.0,7716.0,2446.0,1733.0,2171.0,2816.0,,,,-0.900079204809236,-2.91123719862658,-1.19265173721128,,-1.8048310996652512,,
,8146.0,2052.0,7718.0,2449.0,1716.0,2178.0,2843.0,,,,-0.900440406676211,-2.91130929300108,-1.19177089903646,,-1.9691097505044262,,
,8147.0,2051.0,7717.0,2449.0,1718.0,2173.0,2839.0,,,,-0.90057091261487,-2.91118951360498,-1.19225472758358,,-2.0889190291276063,,
,8147.0,2052.0,7717.0,2449.0,1721.0,2152.0,2877.0,,,,-0.901291045791265,-2.91138647447569,-1.19127513601499,,-2.1776148130675175,,
,8149.0,2051.0,7718.0,2448.0,1730.0,2183.0,2833.0,,,,-0.901325273994564,-2.9111140282308,-1.19168038066586,,-2.2474095867690105,,
,8146.0,2052.0,7720.0,2449.0,1724.0,2164.0,2838.0,,,,-0.901323398143129,-2.91115642703945,-1.19217194269606,,-2.3088381108014473,,
,8146.0,2052.0,7720.0,2449.0,1718.0,2163.0,2857.0,,,,-0.901459015563151,-2.91114079455484,-1.19185676481359,,-2.370365923620539,,
,8147.0,2051.0,7717.0,2449.0,1713.0,2175.0,2856.0,,,,-0.902954414528276,-2.91132843830074,-1.19088598569,,-2.438144040271058,,
,8145.0,2051.0,7714.0,2446.0,1713.0,2168.0,2843.0,,,,-0.902373182229366,-2.91119572928514,-1.19050238302374,,-2.5159091248340197,,
,8149.0,2052.0,7715.0,2448.0,1712.0,2175.0,2799.0,,,,-0.9029417179632,-2.91112034089278,-1.19093739677921,,-2.605025714902187,,
,8149.0,2054.0,7720.0,2449.0,1728.0,2162.0,2824.0,,,,-0.903468973012285,-2.91126529319511,-1.18985557296066,,-2.7046646511510635,,
,8147.0,2053.0,7719.0,2450.0,1726.0,2165.0,2822.0,,,,-0.903474434919893,-2.91133145676391,-1.19035163930875,,-2.8121084414476467,,
,8145.0,2054.0,7717.0,2447.0,1708.0,2174.0,2823.0,,,,-0.90309556574952,-2.91127614287089,-1.18960993706406,,-2.923168733709597,,
,8149.0,2055.0,7719.0,2449.0,1708.0,2161.0,2814.0,,,,-0.904074219606868,-2.91131667335167,-1.18979019987857,,-3.032692942666124,,
,8151.0,2056.0,7719.0,2453.0,1695.0,2157.0,2841.0,,,,-0.90289524849469,-2.91127618333993,-1.19006190917169,,-3.1351272647648365,,
,8148.0,2055.0,7719.0,2452.0,1692.0,2167.0,2838.0,,,,-0.90313621533329,-2.91112787319801,-1.18971495174966,,-3.2250942506937683,,
,8148.0,2054.0,7720.0,2451.0,1693.0,2169.0,2833.0,,,,-0.902683792085679,-2.91112831099908,-1.18968133853321,,-3.2979379315102926,,
,8148.0,2051.0,7718.0,2450.0,1690.0,2171.0,2850.0,,,,-0.903489116643726,-2.91124788041171,-1.18974654424823,,-3.3501904268493865,,
,8150.0,2059.0,7719.0,2450.0,1693.0,2183.0,2854.0,,,,-0.903031643855735,-2.91142199424781,-1.19082154525599,,-3.3799210432833093,,
,8151.0,2057.0,7720.0,2451.0,1697.0,2179.0,2849.0,,,,-0.903050018178753,-2.91140909021434,-1.19070211342608,,-3.386940209464459,,
,8150.0,2054.0,7719.0,2453.0,1703.0,2178.0,2855.0,,,,-0.903714863121716,-2.91125798302626,-1.19120935365876,,-3.3728437696647253,,
,8148.0,2056.0,7717.0,2452.0,1708.0,2191.0,2839.0,,,,-0.903663030303028,-2.91129887676954,-1.19083561808476,,-3.3408964320039347,,
,8150.0,2057.0,7721.0,2452.0,1699.0,2182.0,2850.0,,,,-0.903661742299286,-2.91130350003487,-1.19117258561043,,-3.295765713249628,,
,8151.0,2058.0,7718.0,2452.0,1699.0,2194.0,2852.0,,,,-0.904001357792307,-2.91130004459891,-1.19123933876796,,-3.243129147942128,,
,8152.0,2058.0,7721.0,2454.0,1701.0,2185.0,2877.0,,,,-0.904133227251524,-2.91124552645487,-1.19069951841915,,-3.1891874662062056,,
,8152.0,2060.0,7720.0,2454.0,1689.0,2163.0,2864.0,,,,-0.904263836738202,-2.91127298471374,-1.19218499953868,,-3.1401244711648633,,
,8150.0,2058.0,7715.0,2455.0,1706.0,2188.0,2826.0,,,,-0.90430660263597,-2.91128105752308,-1.19149587757956,,-3.101560000285107,,
,8153.0,2063.0,7720.0,2455.0,1704.0,2174.0,2816.0,,,,-0.904269397942403,-2.91126794835164,-1.19223129588974,,-3.0780450165172875,,
,8151.0,2061.0,7721.0,2455.0,1697.0,2154.0,2822.0,,,,-0.904078581366666,-2.91123923691402,-1.19155477420264,,-3.0726467547190195,,
,8153.0,2058.0,7719.0,2455.0,1701.0,2154.0,2836.0,,,,-0.903546073467325,-2.9112596005409,-1.18999841285537,,-3.086666280725096,,
,8151.0,2058.0,7717.0,2455.0,1721.0,2175.0,2852.0,,,,-0.903160225515136,-2.91116715074964,-1.19019614322957,,-3.11952064297734,,
,8156.0,2059.0,7720.0,2454.0,1714.0,2161.0,2869.0,,,,-0.9036048533342,-2.91108243673224,-1.19110539506572,,-3.1688074592111324,,
,8151.0,2061.0,7719.0,2452.0,1710.0,2145.0,2813.0,,,,-0.903191535596986,-2.91129169361677,-1.190435459799,,-3.230552197912972,,
,8152.0,2061.0,7720.0,2454.0,1715.0,2145.0,2819.0,,,,-0.903334380474531,-2.91120272045568,-1.19090645502001,,-3.299618931413253,,
,8153.0,2061.0,7717.0,2455.0,1708.0,2147.0,2831.0,,,,-0.902963785164603,-2.91112984470296,-1.19198395131195,,-3.3702460212651584,,
,8153.0,2059.0,7718.0,2455.0,1700.0,2165.0,2838.0,,,,-0.903001148076256,-2.91127459945646,-1.19159052591785,,-3.4366520842794963,,
,8152.0,2062.0,7718.0,2457.0,1690.0,2177.0,2813.0,,,,-0.903379913774779,-2.91119264258367,-1.19250771341444,,-3.4936481380602182,,
,8152.0,2062.0,7719.0,2455.0,1695.0,2177.0,2810.0,,,,-0.90325954404754,-2.91125862203466,-1.19255144026139,,-3.5371914071089385,,
,8152.0,2062.0,7720.0,2456.0,1707.0,2177.0,2847.0,,,,-0.903940466716924,-2.91148458407144,-1.19255793708169,,-3.5648247517811815,,
,8150.0,2062.0,7717.0,2455.0,1712.0,2171.0,2841.0,,,,-0.903845490929329,-2.91129759019368,-1.19356740231335,,-3.575960430101494,,
,8150.0,2062.0,7719.0,2455.0,1718.0,2180.0,2831.0,,,,-0.903873592445223,-2.91166806124628,-1.19324185983059,,-3.571984234851502,,
,8150.0,2064.0,7720.0,2459.0,1709.0,2179.0,2815.0,,,,-0.904858385760108,-2.91153435015897,-1.19427471361141,,-3.5561729017476145,,
,8151.0,2064.0,7719.0,2456.0,1713.0,2179.0,2809.0,,,,-0.904931664341107,-2.91160344729981,-1.19371267827945,,-3.533432380664296,,
,8151.0,2062.0,7718.0,2453.0,1700.0,2180.0,2802.0,,,,-0.904839375852897,-2.91170997221541,-1.19434899760183,,-3.5098765777705654,,
,8153.0,2063.0,7722.0,2458.0,1708.0,2181.0,2806.0,,,,-0.904941882413813,-2.91168426617871,-1.19498159969085,,-3.492275586440166,,
,8151.0,2063.0,7721.0,2456.0,1716.0,2182.0,2821.0,,,,-0.904957364529845,-2.91173978145077,-1.19458572532345,,-3.4874095869958897,,
,8151.0,2062.0,7719.0,2457.0,1705.0,2173.0,2823.0,,,,-0.904693878489037,-2.91159261562994,-1.1948177393168,,-3.5013700375995707,,
,8152.0,2061.0,7718.0,2456.0,1699.0,2171.0,2846.0,,,,-0.904454368969488,-2.91162269710656,-1.19399013707977,,-3.538854021727757,,
,8150.0,2062.0,7716.0,2453.0,1701.0,2177.0,2848.0,,,,-0.905155372835937,-2.91175466441278,-1.19438342127319,,-3.602500944232215,,
,8151.0,2063.0,7721.0,2457.0,1723.0,2174.0,2856.0,,,,-0.904254935768897,-2.9116237273034,-1.19393166936333,,-3.6923230189289864,,
,8150.0,2060.0,7717.0,2455.0,1719.0,2173.0,2856.0,,,,-0.903905062740252,-2.91163274942554,-1.19230912481164,,-3.8052813818458437,,
,8151.0,2058.0,7720.0,2451.0,1697.0,2163.0,2839.0,,,,-0.904187056212384,-2.91155694210988,-1.19268326936876,,-3.935056743983826,,
,8149.0,2053.0,7720.0,2452.0,1706.0,2166.0,2842.0,,,,-0.904022621762477,-2.9116991762747,-1.192740317051,,-4.0720554613839255,,
,8149.0,2054.0,7719.0,2453.0,1691.0,2178.0,2844.0,,,,-0.904333770752386,-2.91151451802511,-1.19254185247332,,-4.203677286840439,,
,8149.0,2050.0,7720.0,2449.0,1702.0,2183.0,2838.0,,,,-0.903699472845965,-2.91162759821888,-1.19220858911655,,-4.3148496238927745,,
,8148.0,2048.0,7717.0,2445.0,1704.0,2183.0,2836.0,,,,-0.903640617762937,-2.91171857586028,-1.19250266295899,,-4.388806527009515,,
,8143.0,2046.0,7717.0,2441.0,1702.0,2187.0,2825.0,,,,-0.903254674329942,-2.91167725238268,-1.19300328767903,,-4.408062813322533,,
,8144.0,2044.0,7721.0,2438.0,1698.0,2190.0,2804.0,,,,-0.903084437073425,-2.91166694855324,-1.1917859645298,,-4.355509492007049,,
,8141.0,2043.0,7720.0,2439.0,1706.0,2166.0,2822.0,,,,-0.903076720998802,-2.91160489937421,-1.19244252804271,,-4.21554054866287,,
,8143.0,2043.0,7722.0,2437.0,1707.0,2172.0,2836.0,,,,-0.902160804486554,-2.91138264810542,-1.19256500091648,,-3.9751149939257755,,
,8137.0,2041.0,7719.0,2437.0,1693.0,2175.0,2841.0,,,,-0.902240972480173,-2.91153112312119,-1.19306620301721,,-3.6246620938960983,,
,8134.0,2041.0,7719.0,2434.0,1679.0,2190.0,2851.0,,,,-0.902832214741444,-2.91154253160655,-1.1942293563677,,-3.1587512929889954,,
,8136.0,2040.0,7720.0,2434.0,1692.0,2195.0,2853.0,,,,-0.902639171400026,-2.9116296098954,-1.19401285862593,,-2.576470971463828,,
,8135.0,2039.0,7719.0,2435.0,1696.0,2169.0,2843.0,,,,-0.902409361005947,-2.91160607911734,-1.19434643204236,,-1.8814906517718868,,
,8133.0,2038.0,7719.0,2433.0,1700.0,2180.0,2834.0,,,,-0.902223819156725,-2.91160109092758,-1.19374440308873,,-1.0818165665306563,,
,8131.0,2036.0,7715.0,2429.0,1693.0,2179.0,2837.0,,,,-0.902281722597142,-2.91143417688485,-1.19396937223149,,-0.1892854985234096,,
,8127.0,2038.0,7717.0,2433.0,1694.0,2166.0,2815.0,,,,-0.902888053813344,-2.91162432234479,-1.19455030806208,,0.7811295631595349,,
,8129.0,2037.0,7718.0,2434.0,1708.0,2187.0,2809.0,,,,-0.90276922461655,-2.91157346746635,-1.19456303057126,,1.8121112308312053,,
,8129.0,2037.0,7719.0,2433.0,1712.0,2193.0,2818.0,,,,-0.902324261623789,-2.91160435911104,-1.19389347980342,,2.8847932999900934,,
,8126.0,2039.0,7715.0,2432.0,1715.0,2184.0,2828.0,,,,-0.901821989180165,-2.91157587452166,-1.19467969141624,,3.9794777538310186,,
,8128.0,2039.0,7718.0,2435.0,1708.0,2169.0,2839.0,,,,-0.902031979162534,-2.9114102137593,-1.19357655764223,,5.076214338335252,,
,8127.0,2040.0,7718.0,2434.0,1691.0,2152.0,2843.0,,,,-0.901662950078182,-2.91148281195194,-1.19290301883285,,6.155215555796036,,
,8127.0,2038.0,7720.0,2435.0,1689.0,2170.0,2845.0,,,,-0.90228057617225,-2.91165903470394,-1.19505729689633,,7.197114434251709,,
,8129.0,2040.0,7720.0,2434.0,1708.0,2175.0,2853.0,,,,-0.901346536270581,-2.91153267312375,-1.19397072990158,,8.183103716442593,,
,8126.0,2039.0,7717.0,2437.0,1702.0,2168.0,2856.0,,,,-0.90217320632007,-2.91178466010092,-1.19419170437405,,9.095017737887005,,
,8131.0,2042.0,7719.0,2437.0,1699.0,2177.0,2865.0,,,,-0.901728282760683,-2.91159402858891,-1.1941711842863,,9.915428340567985,,
,8129.0,2042.0,7719.0,2436.0,1714.0,2179.0,2867.0,,,,-0.902121930966359,-2.91164190311453,-1.19382630210291,,10.6278216561808,,
,8134.0,2042.0,7718.0,2439.0,1705.0,2178.0,2867.0,,,,-0.901990646725827,-2.91168538930287,-1.19498510736333,,11.216903666445646,,
,8134.0,2042.0,7720.0,2439.0,1712.0,2171.0,2865.0,,,,-0.902982489122056,-2.91165147651258,-1.19437111936276,,11.669052288532113,,
,8128.0,2045.0,7717.0,2439.0,1713.0,2172.0,2863.0,,,,-0.90300433018159,-2.91158795064423,-1.19473924725014,,11.972898537253268,,
,8135.0,2042.0,7719.0,2438.0,1710.0,2154.0,2847.0,,,,-0.903322858614952,-2.91169285569963,-1.19602698182342,,12.11998651002324,,
,8135.0,2043.0,7719.0,2441.0,1715.0,2163.0,2850.0,,,,-0.903414513952111,-2.91171659792834,-1.19528616469567,,12.105437634894956,,
,8132.0,2045.0,7718.0,2440.0,1718.0,2170.0,2846.0,,,,-0.903363960130472,-2.91161944428894,-1.19523753990203,,11.928532083015888,,
,8131.0,2047.0,7716.0,2440.0,1685.0,2167.0,2849.0,,,,-0.903301780532251,-2.91166739593974,-1.19513700962514,,11.59312008390514,,
,8137.0,2044.0,7719.0,2441.0,1685.0,2169.0,2851.0,,,,-0.903010839465466,-2.91179377012821,-1.1957041776203,,11.107787428565517,,
,8134.0,2046.0,7720.0,2441.0,1692.0,2170.0,2840.0,,,,-0.90310158962308,-2.91178877567221,-1.19629955626395,,10.48572201780072,,
,8138.0,2048.0,7718.0,2442.0,1675.0,2188.0,2868.0,,,,-0.903669421498471,-2.91165106411333,-1.19586606530316,,9.744260923996375,,
,8135.0,2044.0,7717.0,2440.0,1682.0,2172.0,2887.0,,,,-0.903432527862016,-2.91162262412401,-1.19610923969045,,8.904136932466415,,
,8137.0,2046.0,7718.0,2443.0,1691.0,2156.0,2876.0,,,,-0.903091406104219,-2.91163209186987,-1.19550938046037,,7.988483180681983,,
,8135.0,2046.0,7719.0,2443.0,1686.0,2173.0,2849.0,,,,-0.903229971572826,-2.91161319135855,-1.19522809692828,,7.02168542471017,,
,8137.0,2046.0,7717.0,2443.0,1690.0,2186.0,2849.0,,,,-0.902891113488536,-2.91167043343472,-1.19378698059667,,6.0281866170841285,,
,8135.0,2044.0,7718.0,2441.0,1682.0,2173.0,2861.0,,,,-0.90249262680861,-2.91158295539797,-1.19475419727316,,5.031346145673216,,
,8137.0,2047.0,7719.0,2444.0,1690.0,2182.0,2870.0,,,,-0.902387774477762,-2.91163639517254,-1.19499236037911,,4.052439856647794,,
,8136.0,2044.0,7718.0,2444.0,1704.0,2173.0,2872.0,,,,-0.902609042388784,-2.91140702952757,-1.1938327042817,,3.109863105799812,,
,8137.0,2047.0,7717.0,2444.0,1707.0,2161.0,2859.0,,,,-0.902677875015325,-2.91155082845469,-1.19477489833734,,2.218573357674761,,
,8135.0,2046.0,7717.0,2444.0,1715.0,2159.0,2848.0,,,,-0.901639353650792,-2.9115133269629,-1.1948143650297,,1.389784899844701,,
,8137.0,2044.0,7718.0,2443.0,1713.0,2173.0,2833.0,,,,-0.902645392282657,-2.9114085711968,-1.19456610328742,,0.6309075454824095,,
,8138.0,2046.0,7718.0,2443.0,1701.0,2171.0,2850.0,,,,-0.902551843111506,-2.91139019176493,-1.19495794057509,,-0.05429571214093647,,
,8141.0,2047.0,7719.0,2443.0,1708.0,2170.0,2853.0,,,,-0.902648469686169,-2.91148135413739,-1.1951104851854,,-0.665369738870475,,
,8138.0,2047.0,7717.0,2444.0,1708.0,2158.0,2852.0,,,,-0.902807821306809,-2.91171480782071,-1.19591806143767,,-1.2046924126378713,,
,8136.0,2044.0,7717.0,2438.0,1707.0,2174.0,2848.0,,,,-0.902826229146441,-2.9117611899251,-1.19663964107171,,-1.676912106070833,,
,8136.0,2045.0,7719.0,2443.0,1693.0,2173.0,2836.0,,,,-0.903397563051503,-2.91185121461805,-1.19704925419339,,-2.088343984355967,,
,8137.0,2047.0,7721.0,2444.0,1708.0,2181.0,2837.0,,,,-0.90372761016639,-2.91179406995881,-1.19735525977479,,-2.446366313027676,,
,8138.0,2045.0,7718.0,2444.0,1695.0,2194.0,2837.0,,,,-0.90451728949416,-2.91183255172814,-1.1993401649572,,-2.7588503521689436,,
,8141.0,2046.0,7717.0,2442.0,1685.0,2174.0,2854.0,,,,-0.905652778350507,-2.91189452921786,-1.19886383221353,,-3.0336487026035526,,
,8139.0,2045.0,7719.0,2444.0,1689.0,2169.0,2831.0,,,,-0.906435316607156,-2.91206865162259,-1.19956763222102,,-3.2781583321025045,,
,8140.0,2048.0,7720.0,2445.0,1704.0,2171.0,2844.0,,,,-0.906656071094585,-2.91206350029136,-1.19901179971619,,-3.4989671211760034,,
,8141.0,2048.0,7722.0,2446.0,1698.0,2175.0,2836.0,,,,-0.908058750628167,-2.91211599611301,-1.19935869560399,,-3.701587665620962,,
,8139.0,2047.0,7717.0,2442.0,1696.0,2160.0,2818.0,,,,-0.908857713109579,-2.91222359830896,-1.19939641998189,,-3.890279686665235,,
,8141.0,2050.0,7717.0,2447.0,1708.0,2175.0,2829.0,,,,-0.909340723610957,-2.91216339147894,-1.19871922949345,,-4.067962138324604,,
,8139.0,2049.0,7716.0,2446.0,1702.0,2159.0,2842.0,,,,-0.910121083498641,-2.91240150286287,-1.19959323461365,,-4.236216365217205,,
,8139.0,2048.0,7719.0,2446.0,1708.0,2180.0,2824.0,,,,-0.910198472340947,-2.9122794624873,-1.19819656489682,,-4.3953803959389575,,
,8142.0,2052.0,7719.0,2448.0,1715.0,2173.0,2830.0,,,,-0.90976671633917,-2.91237015952476,-1.197961036924,,-4.544730091774903,,
,8140.0,2049.0,7718.0,2446.0,1704.0,2163.0,2853.0,,,,-0.910927867666189,-2.91217663491694,-1.1976722290712,,-4.682735255041855,,
,8142.0,2050.0,7718.0,2447.0,1686.0,2190.0,2853.0,,,,-0.910652936168863,-2.91216372198091,-1.19835603721441,,-4.807369593390934,,
,8142.0,2053.0,7715.0,2449.0,1691.0,2171.0,2836.0,,,,-0.910478834682951,-2.9121290080912,-1.19734642457992,,-4.916445608254496,,
,8140.0,2055.0,7720.0,2445.0,1692.0,2161.0,2837.0,,,,-0.910371787025805,-2.91213297487792,-1.19726107950633,,-5.007941927057576,,
,8142.0,2052.0,7718.0,2450.0,1682.0,2164.0,2837.0,,,,-0.910364622063907,-2.91201228959707,-1.19635024013467,,-5.080292670591743,,
,8144.0,2051.0,7718.0,2449.0,1681.0,2181.0,2833.0,,,,-0.911021890279714,-2.91198792808054,-1.19718248176965,,-5.132615410817756,,
,8145.0,2055.0,7720.0,2453.0,1668.0,2181.0,2839.0,,,,-0.910814815246971,-2.91192983440539,-1.19576403078313,,-5.164863967957343,,
,8144.0,2055.0,7719.0,2450.0,1660.0,2181.0,2847.0,,,,-0.910778658960914,-2.91194713749607,-1.19610127435722,,-5.177902207714546,,
,8143.0,2051.0,7716.0,2450.0,1686.0,2177.0,2846.0,,,,-0.910762982202251,-2.91190928834126,-1.19584969351723,,-5.173503158869122,,
2025-07-15 19:03:58,8144.0,2055.0,7716.0,2450.0,1704.0,2170.0,2837.0,,,2025/07/15 07:03:58 PM,-0.910730813457549,-2.91196243560014,-1.19527162119698,,-5.154283140666877,,
,8144.0,2053.0,7716.0,2452.0,1713.0,2178.0,2855.0,,,,-0.911015488186746,-2.91207952133862,-1.19701853951342,,-5.123582988796842,,
,8144.0,2057.0,7717.0,2451.0,1707.0,2177.0,2821.0,,,,-0.912106269445128,-2.91202873959516,-1.19625633686361,,-5.085308339332351,,
,8145.0,2054.0,7715.0,2452.0,1706.0,2180.0,2805.0,,,,-0.912246389005923,-2.91197852232988,-1.19814124795654,,-5.0437391478724924,,
,8143.0,2055.0,7717.0,2448.0,1687.0,2181.0,2835.0,,,,-0.912400044245952,-2.91212637620614,-1.19596316459532,,-5.003316298754188,,
,8144.0,2057.0,7717.0,2453.0,1687.0,2174.0,2831.0,,,,-0.912285572301727,-2.91222875094259,-1.19724277126091,,-4.968411372761793,,
,8146.0,2056.0,7721.0,2454.0,1693.0,2174.0,2846.0,,,,-0.911910191682429,-2.91213578414277,-1.19676415491916,,-4.94308516129028,,
,8145.0,2058.0,7719.0,2454.0,1702.0,2175.0,2829.0,,,,-0.913426260092039,-2.91208484966207,-1.19659316028199,,-4.930841591229708,,
,8146.0,2055.0,7718.0,2451.0,1700.0,2182.0,2819.0,,,,-0.913108052774992,-2.91208859533088,-1.1962672391082,,-4.9343859609686005,,
,8144.0,2059.0,7718.0,2452.0,1696.0,2161.0,2833.0,,,,-0.91321253741017,-2.91216071609177,-1.19735836135988,,-4.955398778613433,,
,8148.0,2059.0,7719.0,2454.0,1696.0,2171.0,2830.0,,,,-0.913512572506862,-2.91211026246286,-1.19592148167988,,-4.994337706392215,,
,8146.0,2059.0,7718.0,2453.0,1690.0,2176.0,2837.0,,,,-0.913430170995111,-2.91205833506212,-1.19548448571735,,-5.050279063172592,,
,8146.0,2060.0,7719.0,2455.0,1677.0,2187.0,2865.0,,,,-0.913458280831225,-2.91214203694924,-1.1952047217211,,-5.120806987024017,,
,8142.0,2057.0,7717.0,2451.0,1688.0,2174.0,2860.0,,,,-0.913050869029518,-2.91209620876251,-1.19598269893101,,-5.201954249053773,,
,8145.0,2057.0,7718.0,2453.0,1704.0,2184.0,2834.0,,,,-0.912468893026525,-2.91207671476973,-1.19516657975825,,-5.2881962990229185,,
,8146.0,2059.0,7720.0,2454.0,1706.0,2190.0,2847.0,,,,-0.912942082411851,-2.91209696536098,-1.19542954393325,,-5.372501022729665,,
,8147.0,2061.0,7718.0,2456.0,1699.0,2185.0,2863.0,,,,-0.913026819008996,-2.91218509665818,-1.19586910197959,,-5.446440270158431,,
,8146.0,2057.0,7717.0,2452.0,1701.0,2172.0,2867.0,,,,-0.913391949879463,-2.91207716344849,-1.1958295012849,,-5.500372904463617,,
,8145.0,2060.0,7719.0,2454.0,1706.0,2155.0,2858.0,,,,-0.913336592938247,-2.91208114447014,-1.19598467319218,,-5.52371000408539,,
,8143.0,2058.0,7717.0,2455.0,1705.0,2169.0,2857.0,,,,-0.91368310487567,-2.9121855667566,-1.19537271937144,,-5.505269149334685,,
,8146.0,2060.0,7718.0,2456.0,1715.0,2160.0,2856.0,,,,-0.91379840521214,-2.91209351774779,-1.19631673279271,,-5.4337163261992885,,
,8143.0,2059.0,7718.0,2456.0,1700.0,2151.0,2839.0,,,,-0.914029481349302,-2.91215516601903,-1.19690770932423,,-5.298082023275397,,
,8143.0,2058.0,7721.0,2452.0,1705.0,2178.0,2852.0,,,,-0.91483272097704,-2.91224650932002,-1.19754049769563,,-5.0883244210042875,,
,8144.0,2055.0,7718.0,2452.0,1702.0,2166.0,2854.0,,,,-0.914383785766034,-2.91220878683936,-1.1976548334702,,-4.795899561509178,,
,8143.0,2055.0,7721.0,2452.0,1682.0,2184.0,2866.0,,,,-0.915031232125156,-2.9121751174377,-1.19711817117709,,-4.414288964375051,,
,8142.0,2051.0,7716.0,2452.0,1670.0,2178.0,2874.0,,,,-0.915511669339273,-2.91220255842114,-1.19857888603755,,-3.9394324163053174,,
,8141.0,2047.0,7720.0,2447.0,1679.0,2178.0,2851.0,,,,-0.915733559839393,-2.91221554848526,-1.19792477055793,,-3.3700201081376218,,
,8141.0,2046.0,7720.0,2446.0,1678.0,2182.0,2845.0,,,,-0.914860058715584,-2.91221358898539,-1.19743488041724,,-2.70761477479357,,
,8137.0,2045.0,7720.0,2442.0,1676.0,2188.0,2845.0,,,,-0.915155542073107,-2.91235392794747,-1.19761501870047,,-1.9565990802792343,,
,8138.0,2044.0,7719.0,2441.0,1680.0,2181.0,2841.0,,,,-0.914916842041677,-2.91220689477858,-1.19695489344066,,-1.1239708937104866,,
,8135.0,2040.0,7717.0,2439.0,1681.0,2179.0,2831.0,,,,-0.915406293124992,-2.91228394584222,-1.19777713119798,,-0.21903187842302957,,
,8135.0,2039.0,7719.0,2434.0,1702.0,2183.0,2821.0,,,,-0.915173901978939,-2.91229430254691,-1.19807433160141,,0.7469734445693058,,
,8133.0,2038.0,7719.0,2435.0,1714.0,2177.0,2841.0,,,,-0.915717900472161,-2.91231398828831,-1.1983925032238,,1.761212504607954,,
,8131.0,2038.0,7718.0,2434.0,1705.0,2170.0,2847.0,,,,-0.915749260637205,-2.9123463206085,-1.19827712303843,,2.8095700431319792,,
,8130.0,2034.0,7717.0,2430.0,1695.0,2166.0,2827.0,,,,-0.915357832501887,-2.91226594118607,-1.19860811438537,,3.8768793601655034,,
,8127.0,2036.0,7716.0,2432.0,1695.0,2197.0,2822.0,,,,-0.915762024549079,-2.91238496725155,-1.19801484962543,,4.947075873195364,,
,8128.0,2035.0,7722.0,2433.0,1694.0,2203.0,2840.0,,,,-0.915744443440831,-2.91232849947758,-1.19843997777173,,6.0032902961588475,,
,8123.0,2034.0,7715.0,2430.0,1697.0,2192.0,2857.0,,,,-0.915224766257995,-2.91219163785257,-1.19817173966573,,7.0279168735113275,,
,8124.0,2033.0,7720.0,2431.0,1694.0,2189.0,2868.0,,,,-0.915200158746449,-2.91217837721472,-1.19855415434372,,8.002704562535392,,
,8120.0,2031.0,7717.0,2430.0,1695.0,2195.0,2830.0,,,,-0.914508375152327,-2.91211319033781,-1.19761101560066,,8.90892332256973,,
,8120.0,2033.0,7721.0,2430.0,1675.0,2175.0,2835.0,,,,-0.914771247239006,-2.91225747374483,-1.1988240257823,,9.727652581510922,,
,8121.0,2035.0,7721.0,2433.0,1695.0,2174.0,2820.0,,,,-0.914684044530513,-2.91212161029148,-1.19843426516795,,10.44022493512483,,
,8123.0,2037.0,7720.0,2433.0,1695.0,2172.0,2820.0,,,,-0.914921138090927,-2.91209644280443,-1.19909998305663,,11.028836848294368,,
,8120.0,2032.0,7719.0,2434.0,1692.0,2175.0,2837.0,,,,-0.914311406648599,-2.91220374667057,-1.19910472186689,,11.477312038955077,,
,8121.0,2035.0,7720.0,2432.0,1698.0,2179.0,2841.0,,,,-0.914214461979323,-2.91237057565864,-1.19911090073575,,11.771975345051807,,
,8122.0,2037.0,7718.0,2434.0,1685.0,2183.0,2851.0,,,,-0.914861683982973,-2.91230639704966,-1.19971684657507,,11.902568592813079,,
,8121.0,2038.0,7719.0,2436.0,1691.0,2186.0,2826.0,,,,-0.91493091333723,-2.91217492212714,-1.19935839706645,,11.863119015170946,,
,8122.0,2036.0,7721.0,2436.0,1694.0,2189.0,2828.0,,,,-0.915026819287368,-2.9123282068976,-1.20007928027684,,11.652659015197973,,
,8121.0,2036.0,7718.0,2437.0,1687.0,2163.0,2839.0,,,,-0.914160085031548,-2.91231846320212,-1.19854080984906,,11.27569709144024,,
,8124.0,2036.0,7719.0,2437.0,1690.0,2190.0,2850.0,,,,-0.914213909668104,-2.91235036578518,-1.19927240030702,,10.742355853405783,,
,8129.0,2037.0,7720.0,2437.0,1690.0,2180.0,2836.0,,,,-0.913866296563084,-2.91240984363199,-1.19960850749258,,10.06812445098669,,
,8127.0,2038.0,7721.0,2438.0,1692.0,2183.0,2838.0,,,,-0.914247497627919,-2.91231664962864,-1.19912407959361,,9.273216773504323,,
,8126.0,2040.0,7717.0,2438.0,1675.0,2179.0,2864.0,,,,-0.913983179241504,-2.91237540716882,-1.19866327354684,,8.381577211273548,,
,8129.0,2042.0,7720.0,2438.0,1686.0,2172.0,2869.0,,,,-0.913951325540745,-2.91242121295375,-1.19922028442213,,7.419622860205155,,
,8131.0,2039.0,7721.0,2441.0,1676.0,2174.0,2851.0,,,,-0.914187091849503,-2.91247937443821,-1.19959289888521,,6.414844023986146,,
,8130.0,2041.0,7721.0,2441.0,1677.0,2173.0,2852.0,,,,-0.914320665437978,-2.91235186812889,-1.19992005065504,,5.394396507376336,,
,8129.0,2038.0,7720.0,2439.0,1683.0,2157.0,2867.0,,,,-0.914483780787121,-2.91239602301253,-1.19904902599571,,4.383808974005222,,
,8129.0,2044.0,7721.0,2442.0,1684.0,2168.0,2877.0,,,,-0.914208266959479,-2.91237465848073,-1.19864935898815,,3.4059019944954234,,
,8133.0,2043.0,7721.0,2443.0,1681.0,2169.0,2857.0,,,,-0.914739091998052,-2.9123005172322,-1.19934536467734,,2.479980362391114,,
,8132.0,2044.0,7722.0,2443.0,1692.0,2167.0,2871.0,,,,-0.914569533238114,-2.91233453617891,-1.1988923493479,,1.6213241934484919,,
,8133.0,2042.0,7722.0,2440.0,1694.0,2159.0,2862.0,,,,-0.915646137304166,-2.91231824384516,-1.20028389536887,,0.8409723340846579,,
,8132.0,2043.0,7721.0,2440.0,1676.0,2172.0,2834.0,,,,-0.916136023510563,-2.91253177430411,-1.20007418525229,,0.14576640247991757,,
,8131.0,2042.0,7719.0,2439.0,1697.0,2170.0,2831.0,,,,-0.916897594477564,-2.91246047194227,-1.20048241668422,,-0.4613934642851518,,
,8135.0,2044.0,7722.0,2444.0,1680.0,2175.0,2857.0,,,,-0.917652306445594,-2.91253170477784,-1.20133074009309,,-0.9811389352729241,,
,8134.0,2043.0,7720.0,2443.0,1684.0,2186.0,2849.0,,,,-0.917942868445275,-2.91261578828877,-1.2023890603091,,-1.417128078184101,,
,8132.0,2043.0,7718.0,2442.0,1699.0,2176.0,2849.0,,,,-0.918165105486216,-2.91271584018467,-1.20174819632656,,-1.7754950378243959,,
,8132.0,2041.0,7722.0,2442.0,1700.0,2177.0,2832.0,,,,-0.918821988311517,-2.91277842257254,-1.20093137683462,,-2.0642923663274484,,
,8134.0,2043.0,7721.0,2443.0,1702.0,2180.0,2835.0,,,,-0.919096632568619,-2.91280138811311,-1.2021268978959,,-2.2929480223854997,,
,8134.0,2041.0,7721.0,2443.0,1692.0,2172.0,2834.0,,,,-0.918618398837851,-2.91253445588634,-1.20105361178135,,-2.4717457382409624,,
,8133.0,2043.0,7723.0,2442.0,1675.0,2162.0,2848.0,,,,-0.919798124473334,-2.91259163857355,-1.20091054991453,,-2.611329864375881,,
,8134.0,2043.0,7721.0,2441.0,1691.0,2175.0,2823.0,,,,-0.919703052124085,-2.9127734497573,-1.20131419030425,,-2.72223473711442,,
,8135.0,2042.0,7721.0,2445.0,1694.0,2179.0,2840.0,,,,-0.919402869570569,-2.91261279782304,-1.20068070879579,,-2.814442363619396,,
,8135.0,2044.0,7723.0,2445.0,1704.0,2182.0,2842.0,,,,-0.920151811263391,-2.91253039762636,-1.20185653091653,,-2.8969781069021794,,
,8134.0,2040.0,7720.0,2443.0,1694.0,2187.0,2848.0,,,,-0.920201148974377,-2.9125657173396,-1.20088985269987,,-2.9775596312467294,,
,8133.0,2043.0,7721.0,2443.0,1692.0,2190.0,2875.0,,,,-0.920731343684598,-2.91259312783451,-1.20087511991491,,-3.0623176741975557,,
,8135.0,2042.0,7723.0,2443.0,1698.0,2187.0,2852.0,,,,-0.92153371865806,-2.91271555221524,-1.20180813741604,,-3.155606791517444,,
,8137.0,2045.0,7725.0,2448.0,1685.0,2176.0,2874.0,,,,-0.922037222362681,-2.91267551914328,-1.20241954894662,,-3.259919542352239,,
,8136.0,2042.0,7722.0,2445.0,1683.0,2175.0,2871.0,,,,-0.92279887285173,-2.91277841712261,-1.20166585118281,,-3.3759095561301256,,
,8136.0,2046.0,7723.0,2445.0,1686.0,2176.0,2843.0,,,,-0.923320270845175,-2.91293019541496,-1.20234807468564,,-3.5025197560233274,,
,8135.0,2044.0,7723.0,2444.0,1688.0,2184.0,2823.0,,,,-0.923876565554825,-2.91287015445318,-1.2035603336151,,-3.637204174112522,,
,8138.0,2044.0,7724.0,2446.0,1694.0,2174.0,2832.0,,,,-0.92379814626852,-2.91279903184789,-1.20348738267792,,-3.7762268374277803,,
,8137.0,2046.0,7723.0,2443.0,1695.0,2161.0,2821.0,,,,-0.924229989647668,-2.91283478814217,-1.20256449427873,,-3.91501921383501,,
,8138.0,2049.0,7723.0,2445.0,1683.0,2177.0,2852.0,,,,-0.92458677788626,-2.91289045168287,-1.20279891186249,,-4.04857747003529,,
,8139.0,2046.0,7726.0,2446.0,1686.0,2182.0,2849.0,,,,-0.92397286512501,-2.91291962774007,-1.20252237792882,,-4.171880497242609,,
,8138.0,2046.0,7722.0,2446.0,1682.0,2172.0,2856.0,,,,-0.924057559623124,-2.91296265523524,-1.20128165237599,,-4.2803078700812005,,
,8139.0,2048.0,7724.0,2450.0,1688.0,2168.0,2848.0,,,,-0.923573425675512,-2.91307271931045,-1.20252776419069,,-4.370033578905982,,
,8138.0,2047.0,7724.0,2449.0,1688.0,2172.0,2847.0,,,,-0.923320762032248,-2.91288932169211,-1.20220280523556,,-4.438368257855673,,
,8141.0,2047.0,7722.0,2445.0,1689.0,2167.0,2850.0,,,,-0.92335653930412,-2.91275991284118,-1.20225071596519,,-4.484022307141873,,
,8138.0,2049.0,7724.0,2448.0,1695.0,2184.0,2828.0,,,,-0.922859453776761,-2.91296230415367,-1.20222214032169,,-4.507266359211242,,
,8142.0,2051.0,7725.0,2450.0,1689.0,2185.0,2842.0,,,,-0.923127423628713,-2.91288697877961,-1.2022861939395,,-4.509973403328535,,
,8140.0,2048.0,7724.0,2449.0,1688.0,2176.0,2861.0,,,,-0.923332840773908,-2.91293493547031,-1.20094847889453,,-4.4955364585511886,,
,8141.0,2052.0,7722.0,2449.0,1668.0,2182.0,2856.0,,,,-0.923534706032103,-2.91295382434363,-1.2025488547054,,-4.468664890969158,,
,8141.0,2050.0,7721.0,2448.0,1685.0,2181.0,2835.0,,,,-0.92302523109297,-2.91295312621235,-1.20208338431629,,-4.435070241382217,,
,8142.0,2049.0,7723.0,2450.0,1705.0,2175.0,2849.0,,,,-0.92314104941883,-2.91303733101252,-1.20353652922044,,-4.401058604123665,,
,8142.0,2053.0,7724.0,2452.0,1700.0,2181.0,2856.0,,,,-0.923182285233174,-2.91290419206197,-1.20226128159683,,-4.373051442521122,,
,8143.0,2052.0,7723.0,2448.0,1690.0,2169.0,2856.0,,,,-0.923479725197013,-2.91301324523844,-1.20345682341878,,-4.357060716188039,,
,8142.0,2053.0,7723.0,2450.0,1665.0,2172.0,2828.0,,,,-0.924083733764125,-2.9130613850286,-1.20365046271763,,-4.35814788014772,,
,8142.0,2052.0,7725.0,2452.0,1676.0,2182.0,2860.0,,,,-0.924468624027208,-2.91316978436907,-1.20326221123007,,-4.379899999005033,,
,8143.0,2056.0,7725.0,2452.0,1686.0,2196.0,2869.0,,,,-0.925901497205815,-2.91313503718676,-1.20486023769378,,-4.423959644632961,,
,8143.0,2054.0,7724.0,2451.0,1671.0,2188.0,2862.0,,,,-0.926193483031862,-2.91315410496198,-1.20480954915441,,-4.489647550085527,,
,8142.0,2056.0,7725.0,2452.0,1676.0,2178.0,2837.0,,,,-0.926779507329835,-2.91324933285356,-1.20532320023198,,-4.57371684566062,,
,8145.0,2054.0,7726.0,2453.0,1698.0,2174.0,2807.0,,,,-0.928145147928804,-2.91338888061173,-1.20552622309368,,-4.670273519910995,,
,8143.0,2054.0,7725.0,2454.0,1699.0,2176.0,2836.0,,,,-0.927995941509306,-2.91342696948189,-1.20701845149643,,-4.770888150738536,,
,8144.0,2056.0,7725.0,2452.0,1706.0,2185.0,2842.0,,,,-0.929076090483923,-2.91348048390954,-1.20523882397824,,-4.864908664020679,,
,8144.0,2056.0,7724.0,2454.0,1710.0,2172.0,2824.0,,,,-0.929392665491403,-2.91348792422122,-1.20621323544215,,-4.939964616949747,,
,8142.0,2052.0,7723.0,2453.0,1695.0,2174.0,2845.0,,,,-0.929600441651936,-2.91342959872077,-1.20533324632699,,-4.982633797574382,,
,8145.0,2057.0,7727.0,2457.0,1693.0,2168.0,2849.0,,,,-0.929662485555004,-2.91333464261723,-1.20512981851458,,-4.979225443036119,,
,8146.0,2057.0,7722.0,2455.0,1678.0,2150.0,2848.0,,,,-0.929612568302372,-2.91337040276952,-1.20519565537797,,-4.9166230304786005,,
,8144.0,2059.0,7724.0,2454.0,1660.0,2150.0,2844.0,,,,-0.929955049165926,-2.91337772696935,-1.20365299779866,,-4.783123220221644,,
,8143.0,2055.0,7723.0,2454.0,1667.0,2166.0,2847.0,,,,-0.930028799431233,-2.91338897461531,-1.20251000768467,,-4.569205164505755,,
,8145.0,2058.0,7725.0,2453.0,1692.0,2177.0,2841.0,,,,-0.930132830693622,-2.91315058579187,-1.20277812109826,,-4.26816583433099,,
,8147.0,2058.0,7726.0,2455.0,1683.0,2171.0,2859.0,,,,-0.930476980879317,-2.91319317623966,-1.20191127848082,,-3.8765633456530977,,
,8145.0,2058.0,7727.0,2455.0,1683.0,2179.0,2868.0,,,,-0.930082878287052,-2.91317482726869,-1.20197521079476,,-3.3944230831138675,,
,8143.0,2058.0,7724.0,2456.0,1699.0,2199.0,2878.0,,,,-0.930208189283086,-2.91314151387709,-1.20135599499949,,-2.825181514929556,,
,8145.0,2060.0,7726.0,2459.0,1696.0,2198.0,2859.0,,,,-0.930221327042726,-2.91325403325387,-1.20030635962674,,-2.175369013631172,,
,8143.0,2059.0,7726.0,2456.0,1714.0,2197.0,2844.0,,,,-0.930180173160575,-2.91329356759278,-1.20065195339669,,-1.4540629288309423,,
,8143.0,2060.0,7725.0,2456.0,1702.0,2192.0,2839.0,,,,-0.929863346658275,-2.91326863533221,-1.20125102982289,,-0.6721714898670356,,
,8144.0,2060.0,7726.0,2453.0,1698.0,2171.0,2847.0,,,,-0.929693079529135,-2.91322160777126,-1.20128517221294,,0.15836669183832053,,
,8143.0,2058.0,7724.0,2455.0,1691.0,2172.0,2829.0,,,,-0.929858812438413,-2.91315714322613,-1.20126932667653,,1.0253678826516848,,
,8144.0,2055.0,7726.0,2453.0,1694.0,2173.0,2836.0,,,,-0.930034513762496,-2.91314111803254,-1.20035545548751,,1.9170713798949233,,
,8144.0,2056.0,7725.0,2452.0,1683.0,2196.0,2834.0,,,,-0.930330435946406,-2.9131774001899,-1.20045787879954,,2.8226011386938215,,
,8142.0,2054.0,7726.0,2452.0,1677.0,2185.0,2838.0,,,,-0.930517610809651,-2.91321027138833,-1.20001979422344,,3.7321586814571366,,
,8143.0,2050.0,7725.0,2451.0,1685.0,2172.0,2851.0,,,,-0.930565548320036,-2.91315382556916,-1.1997249264811,,4.636924377866373,,
,8140.0,2048.0,7726.0,2448.0,1677.0,2191.0,2866.0,,,,-0.93096063861565,-2.91328277127053,-1.20028239594092,,5.528689704533615,,
,8139.0,2046.0,7724.0,2446.0,1679.0,2189.0,2852.0,,,,-0.930823126789863,-2.91313725721576,-1.19986622097063,,6.399287077309497,,
,8141.0,2043.0,7724.0,2444.0,1682.0,2178.0,2837.0,,,,-0.930917933579066,-2.91324393590735,-1.19975289097429,,7.239918643829837,,
,8136.0,2039.0,7724.0,2439.0,1678.0,2160.0,2864.0,,,,-0.930902103158618,-2.91315701903094,-1.19977976641394,,8.040505488913116,,
,8136.0,2037.0,7724.0,2436.0,1680.0,2136.0,2848.0,,,,-0.93130386696296,-2.91322931564278,-1.20008146219319,,8.789181618458883,,
2025-07-15 19:03:59,8131.0,2036.0,7723.0,2434.0,1692.0,2167.0,2853.0,,,2025/07/15 07:03:59 PM,-0.931093036724102,-2.91317557699952,-1.2001080031224,,9.472043333669923,,
,8134.0,2036.0,7724.0,2434.0,1683.0,2177.0,2843.0,,,,-0.930850046977694,-2.91315676944043,-1.19956451126821,,10.07323651027023,,
,8131.0,2033.0,7724.0,2432.0,1694.0,2169.0,2837.0,,,,-0.930552989471868,-2.91321117460884,-1.19861008346093,,10.57542497517077,,
,8123.0,2032.0,7721.0,2430.0,1685.0,2181.0,2841.0,,,,-0.930612162488294,-2.91313569190742,-1.19930242358659,,10.960636255911572,,
,8118.0,2030.0,7724.0,2426.0,1706.0,2195.0,2852.0,,,,-0.930758133761557,-2.91316414119894,-1.19893537438617,,11.21143096703401,,
,8117.0,2032.0,7724.0,2430.0,1709.0,2187.0,2840.0,,,,-0.930840723999484,-2.91313689312587,-1.19851280152275,,11.312294623549112,,
,8109.0,2029.0,7723.0,2429.0,1713.0,2182.0,2835.0,,,,-0.930320950918646,-2.91311916540131,-1.19891414653335,,11.251111993037709,,
,8109.0,2027.0,7726.0,2423.0,1694.0,2165.0,2843.0,,,,-0.930416329778819,-2.91304282384809,-1.1991815443329,,11.020559894937778,,
,8103.0,2027.0,7725.0,2428.0,1699.0,2172.0,2820.0,,,,-0.930195204536221,-2.91312174869499,-1.19885135445468,,10.619248693215196,,
,8104.0,2027.0,7725.0,2428.0,1695.0,2181.0,2817.0,,,,-0.930152525584474,-2.91316023047421,-1.19986228735055,,10.052457852671196,,
,8101.0,2030.0,7725.0,2428.0,1698.0,2189.0,2815.0,,,,-0.930030709129928,-2.91306841563144,-1.19984456368828,,9.332347439437365,,
,8100.0,2027.0,7726.0,2428.0,1708.0,2190.0,2814.0,,,,-0.929551294044563,-2.91298792333559,-1.19959190472972,,8.477583756262739,,
,8101.0,2027.0,7723.0,2428.0,1710.0,2178.0,2821.0,,,,-0.93014072726868,-2.91311692262009,-1.20057217210172,,7.512388052156128,,
,8101.0,2029.0,7726.0,2430.0,1704.0,2181.0,2843.0,,,,-0.930537468677324,-2.91309837506703,-1.20112106019231,,6.46509206460322,,
,8101.0,2030.0,7724.0,2430.0,1696.0,2187.0,2838.0,,,,-0.93046127545413,-2.91314384414093,-1.20077282184059,,5.36634905764755,,
,8104.0,2029.0,7725.0,2432.0,1697.0,2193.0,2823.0,,,,-0.930658032548586,-2.91328654315912,-1.20115343857228,,4.247190862396279,,
,8101.0,2028.0,7725.0,2429.0,1696.0,2176.0,2830.0,,,,-0.93030281653856,-2.91317706697935,-1.20050389348737,,3.137132797449026,,
,8106.0,2030.0,7729.0,2430.0,1693.0,2166.0,2853.0,,,,-0.9302792578757,-2.91321391399184,-1.20149952448712,,2.0625097893374957,,
,8110.0,2033.0,7728.0,2431.0,1683.0,2159.0,2861.0,,,,-0.930808538991323,-2.91331236138144,-1.20199992994616,,1.0451856532794779,,
,8110.0,2031.0,7725.0,2433.0,1682.0,2161.0,2859.0,,,,-0.930466710022797,-2.91313067669245,-1.20159261689492,,0.10172352264740975,,
,8109.0,2032.0,7724.0,2433.0,1692.0,2188.0,2861.0,,,,-0.930340574413759,-2.91324976194201,-1.20100019875472,,-0.7569513404150063,,
,8110.0,2030.0,7725.0,2431.0,1689.0,2183.0,2871.0,,,,-0.930572687845614,-2.91319051594997,-1.20202744451925,,-1.5254171445553435,,
,8114.0,2035.0,7727.0,2436.0,1682.0,2178.0,2860.0,,,,-0.930511444711421,-2.91324009643098,-1.20203310615591,,-2.203212872471548,,
,8117.0,2033.0,7726.0,2436.0,1687.0,2177.0,2842.0,,,,-0.930189966959694,-2.91331824712336,-1.20152338075988,,-2.7939810183339167,,
,8112.0,2033.0,7726.0,2436.0,1695.0,2177.0,2842.0,,,,-0.930820980496398,-2.91333634126041,-1.2020003903753,,-3.304406983781287,,
,8114.0,2033.0,7726.0,2435.0,1683.0,2161.0,2831.0,,,,-0.930148758104945,-2.91338058577237,-1.20106043823535,,-3.743071451895939,,
,8116.0,2035.0,7726.0,2437.0,1662.0,2176.0,2825.0,,,,-0.930267136047198,-2.91334244453675,-1.20216451064246,,-4.119326513328585,,
,8116.0,2035.0,7727.0,2437.0,1674.0,2179.0,2851.0,,,,-0.930350448965371,-2.91333531180724,-1.20214614980082,,-4.442292554905372,,
,8118.0,2036.0,7726.0,2438.0,1688.0,2180.0,2845.0,,,,-0.931022525706646,-2.91349670635514,-1.20310742645948,,-4.720053341734029,,
,8119.0,2034.0,7725.0,2438.0,1672.0,2175.0,2862.0,,,,-0.930386772110078,-2.91350580848119,-1.20276137561247,,-4.959103289443033,,
,8119.0,2036.0,7726.0,2440.0,1677.0,2181.0,2861.0,,,,-0.930509978213431,-2.91342766968143,-1.20327533346186,,-5.164075055534438,,
,8121.0,2037.0,7727.0,2440.0,1683.0,2181.0,2859.0,,,,-0.931145973702621,-2.91357213872511,-1.20347939240258,,-5.337748360977556,,
,8120.0,2036.0,7726.0,2438.0,1688.0,2183.0,2858.0,,,,-0.931252432199253,-2.91350032523019,-1.20437818761403,,-5.481313637167688,,
,8121.0,2035.0,7725.0,2437.0,1683.0,2190.0,2854.0,,,,-0.930986269895552,-2.91354865585864,-1.2041449683046,,-5.59483873063597,,
,8121.0,2035.0,7726.0,2439.0,1677.0,2179.0,2868.0,,,,-0.931080460920658,-2.91353907733391,-1.20425631281614,,-5.6778665448639405,,
,8122.0,2036.0,7727.0,2438.0,1666.0,2172.0,2858.0,,,,-0.930121966964329,-2.91347608012289,-1.20400509321574,,-5.730059465380868,,
,8122.0,2038.0,7728.0,2438.0,1667.0,2181.0,2859.0,,,,-0.929647415330989,-2.91351414990158,-1.20323322690291,,-5.751804828748332,,
,8121.0,2038.0,7724.0,2437.0,1684.0,2177.0,2854.0,,,,-0.929503838958997,-2.91349630787156,-1.2041519450306,,-5.744704492866141,,
,8123.0,2035.0,7726.0,2436.0,1682.0,2177.0,2867.0,,,,-0.929538192184674,-2.91352267485943,-1.20352850280651,,-5.711888669131438,,
,8125.0,2037.0,7728.0,2441.0,1684.0,2184.0,2855.0,,,,-0.929321333162436,-2.91358675028347,-1.20237979843675,,-5.65811649468998,,
,8126.0,2038.0,7728.0,2439.0,1696.0,2189.0,2853.0,,,,-0.929199599427719,-2.9135862244211,-1.20312928439493,,-5.589650193601124,,
,8124.0,2037.0,7727.0,2437.0,1698.0,2188.0,2873.0,,,,-0.929431330843856,-2.91370807706438,-1.20244640750264,,-5.513913350104604,,
,8126.0,2036.0,7724.0,2439.0,1699.0,2177.0,2858.0,,,,-0.929465759815246,-2.9135840008925,-1.2018778007695,,-5.43896459372524,,
,8125.0,2036.0,7727.0,2441.0,1703.0,2171.0,2847.0,,,,-0.929627844118721,-2.91368522291125,-1.20255573274166,,-5.372834281918365,,
,8127.0,2036.0,7728.0,2440.0,1703.0,2183.0,2847.0,,,,-0.928749075896803,-2.91373244202093,-1.20372160574168,,-5.322782714723041,,
,8127.0,2038.0,7726.0,2439.0,1689.0,2180.0,2835.0,,,,-0.929068873077377,-2.91359571425942,-1.20371686765961,,-5.294544034497368,,
,8127.0,2038.0,7725.0,2441.0,1655.0,2169.0,2826.0,,,,-0.929555173617733,-2.91387386669701,-1.20407174451359,,-5.291620963081322,,
,8129.0,2036.0,7726.0,2440.0,1685.0,2160.0,2851.0,,,,-0.929681140727632,-2.9137964994149,-1.20519549554228,,-5.314692865680127,,
,8130.0,2038.0,7731.0,2441.0,1689.0,2169.0,2842.0,,,,-0.929484579156962,-2.91386081919289,-1.20419941377621,,-5.361193967203358,,
,8127.0,2036.0,7727.0,2443.0,1694.0,2170.0,2843.0,,,,-0.929374311744596,-2.91388245528192,-1.2037403488243,,-5.425109913614175,,
,8129.0,2040.0,7728.0,2442.0,1681.0,2194.0,2824.0,,,,-0.929639160105894,-2.91380444519992,-1.20460975367274,,-5.497028687635467,,
,8132.0,2036.0,7725.0,2440.0,1695.0,2196.0,2836.0,,,,-0.929317329028978,-2.91381840265729,-1.204443265599,,-5.564465332682062,,
,8131.0,2039.0,7728.0,2442.0,1691.0,2199.0,2852.0,,,,-0.929526208407735,-2.91378309882388,-1.20451746255811,,-5.612458569193156,,
,8132.0,2040.0,7729.0,2444.0,1695.0,2188.0,2857.0,,,,-0.929642454122278,-2.91384095889685,-1.20522931481019,,-5.624411905409599,,
,8133.0,2040.0,7729.0,2443.0,1699.0,2183.0,2858.0,,,,-0.929420913395748,-2.91399642486099,-1.20531040728724,,-5.58312476023604,,
,8128.0,2042.0,7727.0,2442.0,1685.0,2168.0,2848.0,,,,-0.930138726822569,-2.91416623370071,-1.20546985135969,,-5.471934688108826,,
,8131.0,2042.0,7725.0,2442.0,1679.0,2170.0,2834.0,,,,-0.93092794199379,-2.91392603603457,-1.20689820202989,,-5.275874757131292,,
,8133.0,2040.0,7727.0,2444.0,1691.0,2162.0,2831.0,,,,-0.931325808620789,-2.91407160190316,-1.20663472727543,,-4.982743918126125,,
,8133.0,2044.0,7729.0,2448.0,1687.0,2161.0,2835.0,,,,-0.931500609198298,-2.91415717042259,-1.20678654507695,,-4.583994125332755,,
,8135.0,2043.0,7729.0,2448.0,1685.0,2164.0,2872.0,,,,-0.931327037763136,-2.91408441874714,-1.20701284064564,,-4.075355597641762,,
,8133.0,2044.0,7726.0,2445.0,1679.0,2163.0,2850.0,,,,-0.93075649602805,-2.91416770769203,-1.20669504234971,,-3.457149277458143,,
,8133.0,2044.0,7730.0,2447.0,1675.0,2173.0,2858.0,,,,-0.930847852931105,-2.91403864461712,-1.20680626843524,,-2.734270267896544,,
,8137.0,2046.0,7728.0,2447.0,1689.0,2173.0,2860.0,,,,-0.931289342902519,-2.91414292917998,-1.20686706137571,,-1.9158632390699362,,
,8136.0,2046.0,7727.0,2446.0,1690.0,2174.0,2861.0,,,,-0.930970976759204,-2.91415310537907,-1.20706240324229,,-1.0147447156992626,,
,8135.0,2045.0,7727.0,2444.0,1706.0,2179.0,2827.0,,,,-0.930945564205428,-2.91422857085515,-1.20836926720224,,-0.04665212786135041,,
,8135.0,2047.0,7728.0,2447.0,1707.0,2179.0,2829.0,,,,-0.931636285336106,-2.91418353141321,-1.20858321124504,,0.9705883693220491,,
,8138.0,2046.0,7727.0,2448.0,1709.0,2153.0,2837.0,,,,-0.931227073146894,-2.91437879568307,-1.20797099773593,,2.017885133293972,,
,8138.0,2047.0,7730.0,2448.0,1699.0,2159.0,2835.0,,,,-0.931358238300497,-2.91428136963151,-1.20907957999182,,3.0756193346594367,,
,8136.0,2046.0,7728.0,2447.0,1686.0,2169.0,2822.0,,,,-0.930948845311302,-2.91421470612132,-1.20895901702476,,4.124245391850599,,
,8134.0,2049.0,7731.0,2450.0,1689.0,2176.0,2853.0,,,,-0.930874284448415,-2.91422825378333,-1.20900252941244,,5.144728432632953,,
,8137.0,2050.0,7728.0,2449.0,1687.0,2188.0,2843.0,,,,-0.930669925068428,-2.91408596266363,-1.20895894506115,,6.11882243524694,,
,8139.0,2050.0,7728.0,2449.0,1688.0,2190.0,2852.0,,,,-0.930038566994153,-2.91421857555795,-1.20947953790714,,7.029219184832164,,
,8136.0,2048.0,7729.0,2451.0,1686.0,2175.0,2833.0,,,,-0.930576205693927,-2.91412557194771,-1.20938985812728,,7.859619357399362,,
,8136.0,2049.0,7728.0,2451.0,1692.0,2178.0,2855.0,,,,-0.929861431758474,-2.91407103764775,-1.20941514485682,,8.59478962955298,,
,8138.0,2050.0,7731.0,2450.0,1697.0,2174.0,2854.0,,,,-0.92998011748863,-2.91422486124115,-1.20909347219764,,9.220670623549305,,
,8139.0,2051.0,7731.0,2451.0,1696.0,2178.0,2846.0,,,,-0.929221834529709,-2.91409477439232,-1.20896750408145,,9.724588297961061,,
,8140.0,2052.0,7730.0,2452.0,1694.0,2171.0,2842.0,,,,-0.929476429082527,-2.9141546379226,-1.20890130147224,,10.095597505323939,,
,8139.0,2050.0,7727.0,2453.0,1677.0,2163.0,2835.0,,,,-0.929004721175763,-2.91405967041225,-1.20905489231563,,10.324954921653871,,
,8142.0,2051.0,7731.0,2452.0,1700.0,2178.0,2849.0,,,,-0.929123802252223,-2.91408253031497,-1.20957411532625,,10.406684834545167,,
,8140.0,2051.0,7729.0,2454.0,1676.0,2165.0,2832.0,,,,-0.929248815744045,-2.9141071818529,-1.20924650468725,,10.338170990144835,,
,8138.0,2051.0,7729.0,2452.0,1675.0,2153.0,2826.0,,,,-0.929296975910402,-2.91420968558516,-1.21029991307055,,10.120686118374612,,
,8138.0,2052.0,7732.0,2451.0,1694.0,2162.0,2826.0,,,,-0.928940691327559,-2.91424667727227,-1.21082871087499,,9.759762515016703,,
,8139.0,2052.0,7729.0,2454.0,1674.0,2172.0,2834.0,,,,-0.928738311430889,-2.91419735003103,-1.20932889976268,,9.265315673960785,,
,8142.0,2052.0,7732.0,2453.0,1688.0,2186.0,2825.0,,,,-0.928092783739901,-2.91400433780344,-1.20929571551984,,8.651459643880434,,
,8142.0,2056.0,7732.0,2451.0,1695.0,2191.0,2831.0,,,,-0.92784424943061,-2.91394167711321,-1.20876208351933,,7.935994547779827,,
,8139.0,2052.0,7731.0,2453.0,1708.0,2202.0,2834.0,,,,-0.926896536356149,-2.91393884914863,-1.20808494286575,,7.13959520600582,,
,8140.0,2050.0,7729.0,2454.0,1712.0,2196.0,2867.0,,,,-0.926736568132602,-2.91394765754808,-1.20713798100448,,6.284773160900871,,
,8141.0,2053.0,7731.0,2453.0,1700.0,2179.0,2847.0,,,,-0.92692813504616,-2.91387162884473,-1.20782979911149,,5.394712207728963,,
,8139.0,2052.0,7730.0,2455.0,1698.0,2192.0,2850.0,,,,-0.926958938822016,-2.91375949038181,-1.20616441783558,,4.492085658325115,,
,8138.0,2057.0,7731.0,2456.0,1698.0,2193.0,2849.0,,,,-0.925848463017047,-2.91392335697733,-1.2056537873408,,3.5979549881946835,,
,8141.0,2054.0,7730.0,2453.0,1714.0,2184.0,2866.0,,,,-0.926432721062666,-2.91369718708713,-1.20582185236849,,2.730831117397545,,
,8141.0,2055.0,7730.0,2454.0,1705.0,2191.0,2846.0,,,,-0.92634755490149,-2.91378018845858,-1.20668131826056,,1.9059577272280057,,
,8139.0,2056.0,7731.0,2455.0,1691.0,2188.0,2869.0,,,,-0.926277361650914,-2.91384091805834,-1.20568509351837,,1.1348540103003795,,
,8141.0,2058.0,7732.0,2455.0,1682.0,2184.0,2854.0,,,,-0.926340484049975,-2.91378293199124,-1.20639541515175,,0.42513254460366257,,
,8140.0,2054.0,7731.0,2455.0,1668.0,2179.0,2832.0,,,,-0.926352517707725,-2.91372731718964,-1.2061746883367,,-0.21941373445381862,,
,8138.0,2052.0,7727.0,2452.0,1677.0,2170.0,2834.0,,,,-0.92620892282992,-2.91379739729256,-1.20509719943378,,-0.798482426619197,,
,8139.0,2055.0,7731.0,2454.0,1675.0,2175.0,2828.0,,,,-0.926455705590321,-2.91388909214994,-1.2058286468383,,-1.3147354924147292,,
,8137.0,2052.0,7733.0,2450.0,1672.0,2176.0,2828.0,,,,-0.926850005867682,-2.91387777986596,-1.20471502006159,,-1.7731342122116922,,
,8136.0,2049.0,7730.0,2449.0,1668.0,2176.0,2825.0,,,,-0.927329898395215,-2.91387238075186,-1.20588612136673,,-2.1802004081527944,,
,8138.0,2044.0,7729.0,2448.0,1683.0,2179.0,2833.0,,,,-0.927336656824644,-2.91399141793657,-1.20592100040973,,-2.543269590536568,,
,8135.0,2044.0,7732.0,2448.0,1684.0,2183.0,2850.0,,,,-0.927977029391481,-2.91403596769659,-1.20639062489112,,-2.86979635888812,,
,8134.0,2040.0,7731.0,2444.0,1689.0,2188.0,2842.0,,,,-0.928730963517106,-2.91403862898561,-1.20641609644085,,-3.1667622090045917,,
,8133.0,2039.0,7733.0,2439.0,1682.0,2182.0,2854.0,,,,-0.928601146605651,-2.9140243886236,-1.20734127209745,,-3.440222240052926,,
,8130.0,2035.0,7734.0,2436.0,1684.0,2169.0,2868.0,,,,-0.929881124218861,-2.91401746603607,-1.20664013705483,,-3.6950117377098035,,
,8130.0,2033.0,7729.0,2433.0,1690.0,2179.0,2881.0,,,,-0.929716427116492,-2.91419863962456,-1.20730087449543,,-3.934617932649743,,
,8129.0,2029.0,7731.0,2432.0,1681.0,2170.0,2859.0,,,,-0.930727604409952,-2.91420683353772,-1.20663775182727,,-4.161207924788803,,
,8122.0,2031.0,7735.0,2431.0,1684.0,2160.0,2849.0,,,,-0.931620233340446,-2.91438389751495,-1.20680519571204,,-4.375791872196604,,
,8116.0,2027.0,7732.0,2429.0,1687.0,2177.0,2829.0,,,,-0.93186075428346,-2.91422617225409,-1.20580112120913,,-4.578491422261392,,
,8109.0,2024.0,7732.0,2426.0,1674.0,2178.0,2829.0,,,,-0.932160777365963,-2.91435973267877,-1.20654894422915,,-4.76887667963548,,
,8101.0,2023.0,7731.0,2428.0,1661.0,2177.0,2812.0,,,,-0.932395865730481,-2.91441627467858,-1.20687280906445,,-4.946330101438194,,
,8097.0,2025.0,7732.0,2425.0,1676.0,2173.0,2844.0,,,,-0.932172686425882,-2.91425328216573,-1.20746085634932,,-5.110392264557756,,
,8095.0,2025.0,7735.0,2426.0,1673.0,2177.0,2845.0,,,,-0.933302496977293,-2.91405203725768,-1.20694191375352,,-5.26104316742502,,
,8086.0,2023.0,7730.0,2422.0,1682.0,2205.0,2840.0,,,,-0.932124560216532,-2.91425635161703,-1.20602666801137,,-5.39887543019875,,
,8088.0,2024.0,7732.0,2425.0,1696.0,2207.0,2820.0,,,,-0.932788582674229,-2.91441435103056,-1.20657195347906,,-5.5251244191938,,
,8086.0,2021.0,7732.0,2423.0,1706.0,2199.0,2824.0,,,,-0.932316008394007,-2.91424584297558,-1.20614014506116,,-5.641535622151414,,
,8087.0,2022.0,7734.0,2427.0,1693.0,2195.0,2830.0,,,,-0.932707270887429,-2.91405504487958,-1.20561310229944,,-5.7500701703322585,,
,8085.0,2022.0,7731.0,2427.0,1689.0,2183.0,2844.0,,,,-0.932212361920186,-2.91414676306716,-1.20492362375832,,-5.852472216911714,,
,8086.0,2022.0,7733.0,2427.0,1680.0,2170.0,2825.0,,,,-0.93190061043169,-2.91416747831498,-1.2053077704645,,-5.949743264001065,,
,8088.0,2025.0,7732.0,2427.0,1683.0,2190.0,2829.0,,,,-0.931843123144662,-2.91412818152454,-1.20410776746094,,-6.0415851560717915,,
,8086.0,2025.0,7734.0,2427.0,1684.0,2186.0,2835.0,,,,-0.931897895754208,-2.91411756708347,-1.20437516442428,,-6.125883018164686,,
,8087.0,2024.0,7731.0,2428.0,1683.0,2179.0,2852.0,,,,-0.931848874781626,-2.91402561748099,-1.20375106361474,,-6.198300830397316,,
,8087.0,2023.0,7732.0,2427.0,1693.0,2190.0,2832.0,,,,-0.931508176206323,-2.91401567036313,-1.20432002249234,,-6.252055578498608,,
,8091.0,2023.0,7732.0,2426.0,1696.0,2170.0,2819.0,,,,-0.931325322026313,-2.91419661297715,-1.20373229847818,,-6.277921743237283,,
,8089.0,2026.0,7732.0,2429.0,1697.0,2184.0,2851.0,,,,-0.931721943897473,-2.91398256358801,-1.20435321212293,,-6.264497457365958,,
,8092.0,2025.0,7735.0,2430.0,1689.0,2183.0,2849.0,,,,-0.931649635444171,-2.91406967924481,-1.2035246776094,,-6.198738364407818,,
,8095.0,2027.0,7733.0,2428.0,1680.0,2178.0,2842.0,,,,-0.931208024300695,-2.91403731103827,-1.20390304123274,,-6.066736765521523,,
,8094.0,2027.0,7734.0,2430.0,1689.0,2172.0,2849.0,,,,-0.931948961421693,-2.91399338364305,-1.20381245282871,,-5.854694295741539,,
,8097.0,2027.0,7734.0,2431.0,1699.0,2166.0,2867.0,,,,-0.930993346544371,-2.91400704908796,-1.20379950730335,,-5.550009089623726,,
2025-07-15 19:04:00,8101.0,2027.0,7735.0,2431.0,1695.0,2164.0,2857.0,,,2025/07/15 07:04:00 PM,-0.930825147064132,-2.91388971924213,-1.20288382763535,,-5.142376810636379,,
,8099.0,2026.0,7733.0,2435.0,1690.0,2183.0,2833.0,,,,-0.930362293527358,-2.91399845239929,-1.20150424530189,,-4.62479312990513,,
,8101.0,2029.0,7735.0,2433.0,1684.0,2192.0,2876.0,,,,-0.92990807853155,-2.91372958726375,-1.20170657938916,,-3.994347340865963,,
,8103.0,2029.0,7734.0,2435.0,1687.0,2188.0,2850.0,,,,-0.930049986068345,-2.91382950884107,-1.20121459660065,,-3.252715751596869,,
,8105.0,2028.0,7734.0,2435.0,1681.0,2171.0,2867.0,,,,-0.9299613760671,-2.91389329718542,-1.20143625812702,,-2.4062991407192493,,
,8106.0,2029.0,7736.0,2437.0,1678.0,2163.0,2864.0,,,,-0.929519126644791,-2.91384453403997,-1.20057672069691,,-1.4659957115090478,,
,8106.0,2029.0,7735.0,2434.0,1668.0,2179.0,2863.0,,,,-0.929640447253442,-2.91379599820533,-1.20012841184166,,-0.44664990134036797,,
,8109.0,2031.0,7735.0,2433.0,1667.0,2184.0,2856.0,,,,-0.929257396971273,-2.91384135688318,-1.20025084625831,,0.6337425585992704,,
,8109.0,2031.0,7738.0,2437.0,1673.0,2198.0,2847.0,,,,-0.929115277203873,-2.91376174251349,-1.20152463366411,,1.7549691237734786,,
,8111.0,2031.0,7733.0,2435.0,1690.0,2195.0,2849.0,,,,-0.929483407131992,-2.91374210803126,-1.20075009302832,,2.895564896742945,,
,8109.0,2029.0,7734.0,2434.0,1672.0,2193.0,2853.0,,,,-0.929977276207512,-2.91379143291912,-1.20199561461291,,4.033708805755796,,
,8110.0,2033.0,7736.0,2437.0,1668.0,2192.0,2851.0,,,,-0.929962232011186,-2.91376889921382,-1.20223428688851,,5.1479773165680776,,
,8112.0,2030.0,7733.0,2435.0,1696.0,2183.0,2844.0,,,,-0.929993608004641,-2.91388314227757,-1.20226307647305,,6.217913678346543,,
,8112.0,2031.0,7735.0,2434.0,1705.0,2183.0,2841.0,,,,-0.930228791107946,-2.91388962001725,-1.20246849538451,,7.2244057918364595,,
,8113.0,2031.0,7735.0,2435.0,1691.0,2176.0,2849.0,,,,-0.930538232773712,-2.91389105795237,-1.20177935344399,,8.149898211948402,,
,8111.0,2030.0,7736.0,2436.0,1691.0,2165.0,2841.0,,,,-0.930709340657633,-2.91393683369385,-1.20203804538098,,8.978488437785343,,
,8114.0,2031.0,7733.0,2437.0,1691.0,2186.0,2855.0,,,,-0.930328482345443,-2.91389885550962,-1.20204143865798,,9.695970905171837,,
,8117.0,2032.0,7738.0,2435.0,1701.0,2196.0,2839.0,,,,-0.930508153233933,-2.913914324197,-1.20183282070594,,10.289892539281919,,
,8116.0,2029.0,7735.0,2435.0,1698.0,2196.0,2842.0,,,,-0.930160128118568,-2.91401105299724,-1.20150011316871,,10.749672039105587,,
,8114.0,2028.0,7733.0,2434.0,1698.0,2186.0,2833.0,,,,-0.930393129082314,-2.91385578464534,-1.20108068026851,,11.06681361652505,,
,8117.0,2031.0,7734.0,2437.0,1687.0,2184.0,2854.0,,,,-0.929597884091825,-2.91384909750758,-1.20062565639796,,11.235218100249329,,
,8118.0,2034.0,7738.0,2439.0,1671.0,2162.0,2843.0,,,,-0.929646894608968,-2.91383239941021,-1.20093094928344,,11.251564111464365,,
,8119.0,2031.0,7736.0,2438.0,1686.0,2163.0,2834.0,,,,-0.929131141395815,-2.91362413755451,-1.20059613237447,,11.115704035818254,,
,8120.0,2033.0,7737.0,2437.0,1666.0,2174.0,2835.0,,,,-0.928953611298764,-2.91375965064594,-1.19929992838102,,10.830999216527472,,
,8120.0,2032.0,7736.0,2438.0,1657.0,2182.0,2835.0,,,,-0.928329391740177,-2.91360718314276,-1.1999578907582,,10.40451182176105,,
,8119.0,2034.0,7734.0,2436.0,1667.0,2174.0,2863.0,,,,-0.928432638369041,-2.91367987315292,-1.19979045066861,,9.846981166177057,,
,8124.0,2034.0,7739.0,2439.0,1665.0,2178.0,2873.0,,,,-0.928546803493171,-2.91365897323402,-1.19963141295213,,9.172539978038657,,
,8123.0,2033.0,7737.0,2441.0,1671.0,2179.0,2857.0,,,,-0.928839337687525,-2.91369451042482,-1.20007509494612,,8.398166111588317,,
,8121.0,2034.0,7734.0,2439.0,1682.0,2188.0,2840.0,,,,-0.929291101639839,-2.91370110568332,-1.19969977948701,,7.542908108225741,,
,8124.0,2038.0,7736.0,2439.0,1691.0,2202.0,2855.0,,,,-0.929228254377626,-2.91371388033889,-1.20060182145035,,6.626958429507915,,
,8124.0,2035.0,7739.0,2444.0,1679.0,2192.0,2839.0,,,,-0.929315108254755,-2.91378606482625,-1.20057081385685,,5.6706687815150785,,
,8126.0,2037.0,7736.0,2443.0,1675.0,2196.0,2835.0,,,,-0.92986216745852,-2.9136902661738,-1.20214220872163,,4.693605502845273,,
,8125.0,2035.0,7735.0,2440.0,1675.0,2188.0,2828.0,,,,-0.92954150817915,-2.91375252989328,-1.20138370570368,,3.713731702675111,,
,8126.0,2037.0,7737.0,2443.0,1681.0,2179.0,2832.0,,,,-0.92971365221423,-2.91367653897938,-1.20118555529487,,2.746781200218118,,
,8128.0,2040.0,7740.0,2442.0,1686.0,2184.0,2861.0,,,,-0.929234028937647,-2.91376530016777,-1.20233719700672,,1.805862206957863,,
,8127.0,2039.0,7736.0,2444.0,1670.0,2186.0,2854.0,,,,-0.929629508801788,-2.91377734700719,-1.20212243258036,,0.9013004233011305,,
,8129.0,2039.0,7739.0,2443.0,1682.0,2180.0,2850.0,,,,-0.929962237811921,-2.91388347329912,-1.20304485332264,,0.04070526522709791,,
,8128.0,2040.0,7737.0,2442.0,1680.0,2175.0,2839.0,,,,-0.929772058491122,-2.9139609539995,-1.20273264014949,,-0.7707782549426121,,
,8128.0,2040.0,7735.0,2445.0,1691.0,2177.0,2861.0,,,,-0.929104826656068,-2.91383688219523,-1.20318912634178,,-1.53008469869922,,
,8131.0,2043.0,7736.0,2445.0,1690.0,2189.0,2873.0,,,,-0.928266992694924,-2.9138065283642,-1.20213326871304,,-2.2357722962067132,,
,8128.0,2042.0,7734.0,2444.0,1701.0,2189.0,2862.0,,,,-0.928153545090968,-2.91383869318314,-1.20173920289301,,-2.887561064245376,,
,8130.0,2040.0,7733.0,2443.0,1698.0,2182.0,2882.0,,,,-0.927894991558472,-2.91369847619987,-1.20072000973322,,-3.4859267103902667,,
,8130.0,2041.0,7737.0,2447.0,1684.0,2175.0,2833.0,,,,-0.92747057176161,-2.91360738948967,-1.200592277277,,-4.031801005950923,,
,8131.0,2044.0,7739.0,2447.0,1684.0,2187.0,2864.0,,,,-0.926783298339728,-2.91343867181867,-1.20011957308871,,-4.526410035795615,,
,8135.0,2044.0,7738.0,2446.0,1688.0,2186.0,2855.0,,,,-0.926139307136482,-2.9135022130812,-1.19998532805234,,-4.971255856068503,,
,8130.0,2042.0,7738.0,2445.0,1691.0,2188.0,2835.0,,,,-0.925596264164903,-2.91352794562278,-1.19932303719944,,-5.368218711984378,,
,8131.0,2042.0,7737.0,2447.0,1682.0,2187.0,2836.0,,,,-0.925736119185443,-2.91364940712955,-1.1998559135992,,-5.719732120417436,,
,8130.0,2045.0,7736.0,2447.0,1662.0,2177.0,2842.0,,,,-0.925648015018168,-2.91358649284447,-1.20069256927297,,-6.028967962912881,,
,8133.0,2044.0,7737.0,2449.0,1673.0,2182.0,2844.0,,,,-0.926401664000678,-2.91354881382743,-1.20093157037796,,-6.299966992206306,,
,8132.0,2044.0,7738.0,2446.0,1682.0,2175.0,2815.0,,,,-0.926389132259872,-2.91371591822421,-1.20070509385886,,-6.537661450350397,,
,8135.0,2046.0,7738.0,2449.0,1689.0,2179.0,2831.0,,,,-0.926573316825958,-2.91356568097264,-1.20007577139442,,-6.747756854345243,,
,8134.0,2047.0,7741.0,2451.0,1681.0,2195.0,2828.0,,,,-0.925341389381486,-2.91366808561935,-1.20007046117786,,-6.936464022205118,,
,8134.0,2047.0,7738.0,2450.0,1683.0,2183.0,2822.0,,,,-0.926010834805523,-2.91371659522029,-1.20076845525854,,-7.110095319814969,,
,8134.0,2049.0,7739.0,2451.0,1680.0,2190.0,2829.0,,,,-0.924798777719603,-2.91375078555587,-1.20020937261571,,-7.27455766634993,,
,8133.0,2048.0,7738.0,2450.0,1680.0,2190.0,2856.0,,,,-0.925423636554256,-2.91362086262084,-1.20141130555328,,-7.434787319110156,,
,8135.0,2046.0,7735.0,2449.0,1672.0,2190.0,2853.0,,,,-0.924897933217217,-2.91354343028714,-1.20148719434709,,-7.594177392080805,,
,8137.0,2048.0,7738.0,2450.0,1681.0,2184.0,2866.0,,,,-0.925230929727944,-2.91368951780296,-1.20117872401987,,-7.754049045243969,,
,8136.0,2049.0,7738.0,2451.0,1679.0,2180.0,2879.0,,,,-0.925146833625672,-2.913742806464,-1.20146720287993,,-7.913212896579627,,
,8138.0,2048.0,7735.0,2452.0,1660.0,2178.0,2879.0,,,,-0.926016091632561,-2.91380657381695,-1.20099612006945,,-8.067660616801504,,
,8137.0,2047.0,7737.0,2450.0,1671.0,2180.0,2876.0,,,,-0.926232046122685,-2.91371997158868,-1.20079667429346,,-8.210419610812519,,
,8137.0,2051.0,7740.0,2453.0,1668.0,2183.0,2846.0,,,,-0.925713963854996,-2.9136780437881,-1.2012304313814,,-8.331596538598768,,
,8138.0,2051.0,7738.0,2453.0,1676.0,2191.0,2849.0,,,,-0.92603840419019,-2.91376174425668,-1.20075051530857,,-8.41862717623804,,
,8140.0,2049.0,7740.0,2451.0,1655.0,2192.0,2859.0,,,,-0.925615939769512,-2.913824493756,-1.20106978505436,,-8.456739316450541,,
,8138.0,2052.0,7741.0,2454.0,1674.0,2204.0,2807.0,,,,-0.926105897976144,-2.91360712956401,-1.20129529891786,,-8.429621271750952,,
,8136.0,2053.0,7742.0,2454.0,1673.0,2202.0,2851.0,,,,-0.925375709359057,-2.91357417439729,-1.2001116994348,,-8.320271583997151,,
,8138.0,2053.0,7739.0,2452.0,1671.0,2192.0,2849.0,,,,-0.925860563239362,-2.91360498824849,-1.20021158953329,,-8.111987512508485,,
,8140.0,2054.0,7740.0,2453.0,1665.0,2177.0,2847.0,,,,-0.925564748486728,-2.91358505865901,-1.1998549518776,,-7.789433240050935,,
,8137.0,2048.0,7739.0,2452.0,1642.0,2180.0,2848.0,,,,-0.925081399113084,-2.91344603662619,-1.19956670645759,,-7.339716191513036,,
,8138.0,2053.0,7740.0,2453.0,1667.0,2189.0,2842.0,,,,-0.924441436650793,-2.91337698015539,-1.20035435787535,,-6.753394040293467,,
,8140.0,2053.0,7738.0,2457.0,1681.0,2184.0,2830.0,,,,-0.92414735284719,-2.9134953264026,-1.20014793105858,,-6.02533816378232,,
,8138.0,2055.0,7741.0,2457.0,1678.0,2183.0,2825.0,,,,-0.924542759886068,-2.91347764416659,-1.19904020780549,,-5.155392597704431,,
,8137.0,2054.0,7742.0,2453.0,1668.0,2195.0,2849.0,,,,-0.924067688925429,-2.91350430881328,-1.19950338489004,,-4.14878945885143,,
,8140.0,2053.0,7742.0,2455.0,1680.0,2197.0,2846.0,,,,-0.924043208695695,-2.91342984321272,-1.20008267508126,,-3.016307504936124,,
,8141.0,2053.0,7738.0,2457.0,1676.0,2178.0,2846.0,,,,-0.924142375140005,-2.91343801503191,-1.19937554755501,,-1.7741829699479577,,
,8141.0,2056.0,7740.0,2456.0,1667.0,2181.0,2852.0,,,,-0.924041189056096,-2.91347644595364,-1.1989086829371,,-0.443795173711189,,
,8142.0,2053.0,7741.0,2457.0,1660.0,2171.0,2851.0,,,,-0.923448973252962,-2.91339640766829,-1.19861440866076,,0.9488478440623317,,
,8140.0,2054.0,7739.0,2454.0,1673.0,2187.0,2876.0,,,,-0.923423787072551,-2.91355353914819,-1.19903673617834,,2.3738029116102397,,
,8141.0,2057.0,7739.0,2456.0,1673.0,2205.0,2861.0,,,,-0.923064315798932,-2.91355610601577,-1.19870729260908,,3.7980501091243912,,
,8145.0,2057.0,7742.0,2457.0,1664.0,2172.0,2850.0,,,,-0.922757574594332,-2.91353597497681,-1.19856430030038,,5.1865055146932555,,
,8143.0,2055.0,7740.0,2457.0,1666.0,2172.0,2841.0,,,,-0.922830505144505,-2.91341189775679,-1.19920613162884,,6.503177560206108,,
,8141.0,2057.0,7738.0,2456.0,1677.0,2184.0,2837.0,,,,-0.922576781750658,-2.91361981629026,-1.199566212809,,7.712450820415713,,
,8141.0,2057.0,7742.0,2455.0,1661.0,2202.0,2819.0,,,,-0.922841826686027,-2.91347643993362,-1.20015507838488,,8.780470149222696,,
,8141.0,2057.0,7743.0,2457.0,1674.0,2204.0,2834.0,,,,-0.922180262923142,-2.91345348866091,-1.19887256539592,,9.676582122421609,,
,8140.0,2058.0,7740.0,2456.0,1677.0,2202.0,2827.0,,,,-0.921980101588942,-2.91349378217291,-1.19902019825201,,10.37477172005642,,
,8143.0,2056.0,7738.0,2454.0,1687.0,2189.0,2800.0,,,,-0.920834524064467,-2.91346479880188,-1.19878913836349,,10.855013587442258,,
,8140.0,2057.0,7738.0,2455.0,1683.0,2170.0,2854.0,,,,-0.920918172231976,-2.91338230386723,-1.19845094330013,,11.104443120407563,,
,8138.0,2057.0,7741.0,2453.0,1680.0,2176.0,2876.0,,,,-0.920299934158623,-2.91336887074962,-1.19824057895681,,11.118246455912704,,
,8141.0,2056.0,7738.0,2455.0,1670.0,2190.0,2867.0,,,,-0.919756890020548,-2.913210717047,-1.19851501034258,,10.900172411816687,,
,8144.0,2054.0,7740.0,2456.0,1648.0,2194.0,2833.0,,,,-0.919333880923179,-2.91324697122652,-1.19808305240991,,10.462584664548848,,
,8138.0,2049.0,7743.0,2450.0,1665.0,2190.0,2840.0,,,,-0.919528894109252,-2.91328058262301,-1.19826249481436,,9.825999580613125,,
,8142.0,2046.0,7741.0,2451.0,1668.0,2172.0,2867.0,,,,-0.919084449390633,-2.91324341566248,-1.19681433100812,,9.018094240211388,,
,8139.0,2045.0,7744.0,2450.0,1678.0,2165.0,2890.0,,,,-0.918904477742282,-2.91321127865258,-1.19643611291441,,8.072218963294164,,
,8140.0,2042.0,7741.0,2446.0,1672.0,2171.0,2884.0,,,,-0.9184756880663,-2.91327339637814,-1.1971242575896,,7.025504385095726,,
,8135.0,2039.0,7740.0,2442.0,1668.0,2181.0,2876.0,,,,-0.918021172160288,-2.91310406571121,-1.19637287462541,,5.916705654458403,,
,8133.0,2038.0,7740.0,2438.0,1661.0,2166.0,2836.0,,,,-0.916825430111324,-2.91314716887119,-1.19606524858487,,4.783963888294021,,
,8136.0,2033.0,7738.0,2439.0,1664.0,2162.0,2832.0,,,,-0.917017317849546,-2.91288839648533,-1.19672828261358,,3.662678208934484,,
,8129.0,2031.0,7741.0,2433.0,1672.0,2170.0,2830.0,,,,-0.916423665706661,-2.91304045897203,-1.1953433593869,,2.5836677820478804,,
,8128.0,2030.0,7740.0,2432.0,1677.0,2166.0,2854.0,,,,-0.915486240637722,-2.91287622485338,-1.1951376553675,,1.5717664804780624,,
,8124.0,2027.0,7737.0,2428.0,1687.0,2168.0,2869.0,,,,-0.915153665954238,-2.91287025866785,-1.19408574085274,,0.6449412602230356,,
,8121.0,2029.0,7742.0,2430.0,1660.0,2186.0,2848.0,,,,-0.915361063308571,-2.91282259487038,-1.19504863724805,,-0.18603211715083215,,
,8112.0,2028.0,7743.0,2431.0,1667.0,2192.0,2840.0,,,,-0.914681480370757,-2.91286697401236,-1.19381409360957,,-0.9173577503807072,,
,8110.0,2025.0,7740.0,2428.0,1665.0,2185.0,2854.0,,,,-0.915416723002147,-2.91294219966032,-1.19481088667838,,-1.5515408987708073,,
,8102.0,2022.0,7740.0,2426.0,1669.0,2201.0,2837.0,,,,-0.915806174987131,-2.91294039480435,-1.19500032945991,,-2.0963428687466736,,
,8102.0,2026.0,7738.0,2428.0,1667.0,2200.0,2824.0,,,,-0.916885464680629,-2.91306039042136,-1.19520910461107,,-2.5634872462460208,,
,8102.0,2025.0,7741.0,2428.0,1682.0,2194.0,2829.0,,,,-0.91772593939453,-2.91312649933228,-1.19543016035414,,-2.9672372197294044,,
,8097.0,2025.0,7742.0,2429.0,1682.0,2188.0,2825.0,,,,-0.918450537835138,-2.91329975305262,-1.19565382231381,,-3.322954111186431,,
,8096.0,2022.0,7738.0,2426.0,1686.0,2189.0,2812.0,,,,-0.918945790657841,-2.91320040760059,-1.19614375992083,,-3.6457298168975365,,
,8097.0,2024.0,7741.0,2426.0,1703.0,2193.0,2821.0,,,,-0.91901359407436,-2.91316493869618,-1.19437533382324,,-3.9491641957019583,,
,8097.0,2029.0,7741.0,2430.0,1702.0,2185.0,2828.0,,,,-0.91867310375693,-2.91315985420694,-1.19513154826518,,-4.244335662893009,,
,8098.0,2024.0,7740.0,2431.0,1697.0,2183.0,2833.0,,,,-0.918372803944454,-2.91318519126271,-1.19365282158906,,-4.53899230083959,,
,8098.0,2025.0,7740.0,2429.0,1692.0,2183.0,2827.0,,,,-0.918393675994144,-2.91300600948188,-1.19303601928758,,-4.8369745157006205,,
,8096.0,2024.0,7742.0,2428.0,1683.0,2181.0,2839.0,,,,-0.918676061300772,-2.91293900566231,-1.19278100612815,,-5.137870774301975,,
,8102.0,2027.0,7741.0,2430.0,1671.0,2177.0,2829.0,,,,-0.918034737766751,-2.91285750650285,-1.19209144484701,,-5.436905448719873,,
,8101.0,2026.0,7743.0,2432.0,1667.0,2156.0,2841.0,,,,-0.918139154567624,-2.91286556407906,-1.19085555638833,,-5.725059882411798,,
,8103.0,2032.0,7742.0,2432.0,1675.0,2147.0,2847.0,,,,-0.917841776177823,-2.91281133500522,-1.19029461286576,,-5.989430394883763,,
,8100.0,2027.0,7740.0,2429.0,1690.0,2168.0,2843.0,,,,-0.917324838559,-2.91276265730546,-1.19029402548185,,-6.213826235172159,,
,8103.0,2027.0,7741.0,2432.0,1687.0,2172.0,2844.0,,,,-0.916676884585419,-2.91270237155287,-1.18900876661306,,-6.3796042631905685,,
,8108.0,2031.0,7741.0,2435.0,1677.0,2188.0,2828.0,,,,-0.916358418934727,-2.91276765544693,-1.18912476818014,,-6.466724956506686,,
,8109.0,2029.0,7740.0,2435.0,1679.0,2179.0,2819.0,,,,-0.915500240922361,-2.91245256484087,-1.18821434079706,,-6.454997137824873,,
,8110.0,2028.0,7740.0,2435.0,1669.0,2186.0,2827.0,,,,-0.914796716721964,-2.91239281148486,-1.18728070120913,,-6.325458462699743,,
,8112.0,2030.0,7743.0,2434.0,1665.0,2179.0,2831.0,,,,-0.913963125743163,-2.91233749490643,-1.18738344271759,,-6.061817799886636,,
,8115.0,2033.0,7741.0,2438.0,1675.0,2194.0,2819.0,,,,-0.913671281120992,-2.91222935010884,-1.18732723319512,,-5.651867425824043,,
,8115.0,2033.0,7744.0,2437.0,1670.0,2198.0,2831.0,,,,-0.912776210218612,-2.91210999786744,-1.18610181086775,,-5.088761095016397,,
,8115.0,2034.0,7743.0,2438.0,1667.0,2190.0,2838.0,,,,-0.912660479570869,-2.91203775105962,-1.18553549975711,,-4.372052022751663,,
,8117.0,2030.0,7741.0,2436.0,1657.0,2168.0,2825.0,,,,-0.911542423042724,-2.91202758465535,-1.18506205937793,,-3.508394973494111,,
,8118.0,2034.0,7741.0,2436.0,1655.0,2172.0,2828.0,,,,-0.911870053004182,-2.91196432299458,-1.18345209072101,,-2.5118389973425237,,
,8121.0,2034.0,7743.0,2438.0,1669.0,2189.0,2850.0,,,,-0.911161666302683,-2.91188192429539,-1.18360900474243,,-1.4036688304193337,,
,8118.0,2033.0,7743.0,2436.0,1667.0,2192.0,2854.0,,,,-0.910125704616582,-2.9117760320665,-1.18213304985063,,-0.21178821210902143,,
2025-07-15 19:04:01,8118.0,2033.0,7744.0,2438.0,1677.0,2206.0,2860.0,,,2025/07/15 07:04:01 PM,-0.909047436946452,-2.91174733535582,-1.18150202727878,,1.0303279085631092,,
,8121.0,2033.0,7746.0,2437.0,1679.0,2193.0,2852.0,,,,-0.908404050537536,-2.911580021329,-1.18029944644965,,2.285056134206283,,
,8122.0,2035.0,7743.0,2440.0,1668.0,2180.0,2848.0,,,,-0.906779542631853,-2.91139628838386,-1.17904798480939,,3.5123424045996643,,
,8119.0,2034.0,7743.0,2438.0,1669.0,2182.0,2850.0,,,,-0.90584340540856,-2.9114423015199,-1.17773922689477,,4.671616798076164,,
,8122.0,2033.0,7743.0,2439.0,1683.0,2177.0,2848.0,,,,-0.905282707655207,-2.9114168750072,-1.17718689536731,,5.723795852946035,,
,8122.0,2032.0,7742.0,2438.0,1670.0,2195.0,2853.0,,,,-0.904766939078264,-2.91115651524161,-1.17701234744575,,6.633258499131632,,
,8126.0,2033.0,7744.0,2439.0,1665.0,2202.0,2834.0,,,,-0.905063413628442,-2.91126868055608,-1.17731076342002,,7.369683453907764,,
,8125.0,2036.0,7743.0,2438.0,1672.0,2202.0,2842.0,,,,-0.904538640981117,-2.91118783863942,-1.17573428959385,,7.909641846262481,,
,8124.0,2031.0,7745.0,2440.0,1674.0,2198.0,2835.0,,,,-0.904760998778408,-2.91120455701602,-1.17603844711487,,8.237847342935515,,
,8125.0,2033.0,7743.0,2439.0,1669.0,2188.0,2848.0,,,,-0.904303282667166,-2.91114639099778,-1.17675641072779,,8.347977646328253,,
,8126.0,2035.0,7744.0,2439.0,1648.0,2190.0,2847.0,,,,-0.904444201153319,-2.9112083183934,-1.1774903224692,,8.242998146991646,,
,8127.0,2034.0,7744.0,2440.0,1668.0,2199.0,2856.0,,,,-0.904657590255938,-2.91111577417242,-1.1770845427978,,7.934942886309608,,
,8127.0,2032.0,7742.0,2440.0,1683.0,2214.0,2863.0,,,,-0.904645891457933,-2.9110868659949,-1.17687167694872,,7.444140715448435,,
,8126.0,2035.0,7745.0,2439.0,1688.0,2205.0,2878.0,,,,-0.904151709308809,-2.911037527397,-1.17702191736481,,6.797915325164441,,
,8129.0,2036.0,7743.0,2442.0,1667.0,2209.0,2849.0,,,,-0.904448738650135,-2.91107610391378,-1.17771734294249,,6.028834969666352,,
,8131.0,2036.0,7747.0,2442.0,1683.0,2208.0,2834.0,,,,-0.904170014864111,-2.91099670910806,-1.17529415660515,,5.17263680853773,,
,8131.0,2037.0,7746.0,2440.0,1667.0,2208.0,2847.0,,,,-0.903999788368191,-2.91096392075739,-1.1749039275016,,4.265993497377388,,
,8131.0,2036.0,7744.0,2442.0,1668.0,2202.0,2878.0,,,,-0.903435940102206,-2.91096252519311,-1.17398165894916,,3.3443148126382303,,
,8129.0,2037.0,7744.0,2439.0,1671.0,2201.0,2853.0,,,,-0.902830715819483,-2.91095695401111,-1.17430234132632,,2.439775066898633,,
,8132.0,2035.0,7744.0,2442.0,1669.0,2202.0,2856.0,,,,-0.903382255482625,-2.91088903100485,-1.17406617405655,,1.5797252010325373,,
,8131.0,2037.0,7744.0,2442.0,1682.0,2189.0,2840.0,,,,-0.902223289144472,-2.91084330319291,-1.17324056804528,,0.7855937901974767,,
,8133.0,2038.0,7743.0,2442.0,1679.0,2195.0,2842.0,,,,-0.902306870502352,-2.91067889439,-1.17290512549501,,0.07231778775560974,,
,8132.0,2039.0,7742.0,2441.0,1691.0,2184.0,2855.0,,,,-0.902467421828649,-2.91080265278292,-1.17257563534548,,-0.5517143772103446,,
,8133.0,2035.0,7743.0,2445.0,1670.0,2179.0,2852.0,,,,-0.902051169630704,-2.91071798319362,-1.17088920425388,,-1.0842696301386672,,
,8134.0,2039.0,7742.0,2446.0,1671.0,2183.0,2869.0,,,,-0.901980555770258,-2.91081696566723,-1.1721477154753,,-1.5285191131843843,,
,8133.0,2040.0,7742.0,2445.0,1668.0,2173.0,2876.0,,,,-0.901859583687293,-2.9106081102764,-1.17113612093709,,-1.892037183612693,,
,8135.0,2041.0,7744.0,2444.0,1684.0,2170.0,2854.0,,,,-0.901446014410014,-2.91067775956048,-1.17100223020926,,-2.18566212157038,,
,8138.0,2040.0,7744.0,2444.0,1687.0,2200.0,2850.0,,,,-0.900613711176031,-2.91057746666714,-1.17118613916134,,-2.4223219431152105,,
,8137.0,2041.0,7744.0,2447.0,1679.0,2192.0,2855.0,,,,-0.900318528234454,-2.91037263366256,-1.1702082348152,,-2.6159107413653424,,
,8135.0,2041.0,7744.0,2446.0,1679.0,2196.0,2856.0,,,,-0.899473264155769,-2.91048846413278,-1.16979425396068,,-2.7802770623060775,,
,8137.0,2040.0,7744.0,2446.0,1694.0,2173.0,2859.0,,,,-0.899603940302963,-2.9105515151719,-1.16928378248235,,-2.928361073400961,,
,8136.0,2040.0,7745.0,2446.0,1700.0,2198.0,2880.0,,,,-0.899215543650897,-2.9103921711435,-1.16878459560403,,-3.071496154221323,,
,8139.0,2042.0,7742.0,2449.0,1682.0,2191.0,2868.0,,,,-0.898527836015729,-2.91041070583345,-1.16844131303052,,-3.218875316419808,,
,8136.0,2045.0,7744.0,2448.0,1685.0,2190.0,2862.0,,,,-0.898376101551296,-2.91025215898874,-1.16826035116682,,-3.3771734111905403,,
,8139.0,2044.0,7743.0,2448.0,1700.0,2185.0,2860.0,,,,-0.897740014669241,-2.9102412049009,-1.16729368000953,,-3.5503106372451,,
,8140.0,2043.0,7742.0,2449.0,1690.0,2182.0,2833.0,,,,-0.897654768565563,-2.91013452309756,-1.16729899480921,,-3.73933932868066,,
,8137.0,2043.0,7742.0,2447.0,1686.0,2177.0,2826.0,,,,-0.897347301398097,-2.91006827021448,-1.16679500884753,,-3.9424333391177715,,
,8140.0,2044.0,7746.0,2449.0,1681.0,2182.0,2842.0,,,,-0.896664990673283,-2.91004808850953,-1.1654985052928,,-4.154958355340501,,
,8139.0,2044.0,7745.0,2448.0,1687.0,2201.0,2834.0,,,,-0.896090655243056,-2.91000922133857,-1.16451528358599,,-4.369604255771136,,
,8141.0,2046.0,7745.0,2451.0,1700.0,2188.0,2827.0,,,,-0.895343207148921,-2.90991365285256,-1.16538285036294,,-4.576568639002135,,
,8140.0,2045.0,7742.0,2451.0,1684.0,2193.0,2833.0,,,,-0.894347385988325,-2.90978234462105,-1.16371677741472,,-4.763792981959235,,
,8141.0,2049.0,7747.0,2451.0,1679.0,2182.0,2843.0,,,,-0.894409688947172,-2.90969363383221,-1.16396685981576,,-4.917266249992688,,
,8141.0,2047.0,7742.0,2451.0,1678.0,2168.0,2843.0,,,,-0.893392297358401,-2.9097915324073,-1.16266183827467,,-5.021420969138464,,
,8142.0,2046.0,7746.0,2452.0,1673.0,2173.0,2837.0,,,,-0.892812730900466,-2.90964053793835,-1.1621525500322,,-5.059650148660431,,
,8141.0,2047.0,7744.0,2450.0,1673.0,2186.0,2847.0,,,,-0.892518449394369,-2.90949353717479,-1.16153536858245,,-5.014967631635922,,
,8140.0,2047.0,7743.0,2449.0,1683.0,2198.0,2868.0,,,,-0.891851466613555,-2.90944511575722,-1.16021649530906,,-4.870818748137891,,
,8144.0,2050.0,7745.0,2451.0,1683.0,2178.0,2865.0,,,,-0.891806090487973,-2.90945631476507,-1.1606876324114,,-4.612024108290915,,
,8144.0,2052.0,7745.0,2454.0,1675.0,2177.0,2863.0,,,,-0.891190064766507,-2.90942906286674,-1.16106812713234,,-4.2258111678619805,,
,8144.0,2048.0,7744.0,2453.0,1680.0,2188.0,2850.0,,,,-0.890611931650372,-2.90941665827287,-1.15942700882775,,-3.7028620975367827,,
,8143.0,2050.0,7745.0,2451.0,1676.0,2194.0,2852.0,,,,-0.890103697729594,-2.90917785860895,-1.15927321266294,,-3.0382894128387115,,
,8145.0,2052.0,7745.0,2454.0,1670.0,2194.0,2843.0,,,,-0.889439856956887,-2.90932032042535,-1.15800332074068,,-2.2324482284947442,,
,8143.0,2049.0,7745.0,2454.0,1677.0,2196.0,2849.0,,,,-0.888570710629522,-2.90928270554724,-1.15837559872095,,-1.2915075938606602,,
,8145.0,2052.0,7743.0,2453.0,1682.0,2182.0,2838.0,,,,-0.888583504417707,-2.90929977561788,-1.15778257821558,,-0.22772969716253244,,
,8144.0,2051.0,7747.0,2453.0,1680.0,2198.0,2828.0,,,,-0.888245734158621,-2.90901674066297,-1.15625793356061,,0.9405630643384179,,
,8147.0,2053.0,7747.0,2455.0,1659.0,2192.0,2851.0,,,,-0.888320823167327,-2.90904816091224,-1.15619681919158,,2.189326166389708,,
,8145.0,2053.0,7746.0,2453.0,1662.0,2183.0,2848.0,,,,-0.887868440779519,-2.90898881144645,-1.15606045498157,,3.489412672305517,,
,8147.0,2051.0,7747.0,2455.0,1664.0,2181.0,2830.0,,,,-0.887955521244786,-2.90893093458128,-1.15487290578111,,4.807445619775439,,
,8143.0,2049.0,7741.0,2451.0,1674.0,2191.0,2817.0,,,,-0.887859646618522,-2.90894591306321,-1.15567849697661,,6.106915307766515,,
,8142.0,2051.0,7746.0,2454.0,1680.0,2191.0,2828.0,,,,-0.887706199893118,-2.9089464172183,-1.1556678408138,,7.3494751771314455,,
,8148.0,2054.0,7747.0,2458.0,1676.0,2184.0,2844.0,,,,-0.887227189350406,-2.90889693827949,-1.15506166606986,,8.496406961819511,,
,8147.0,2054.0,7746.0,2456.0,1674.0,2177.0,2856.0,,,,-0.887544669679745,-2.90885657868635,-1.15523195340344,,9.510216525106442,,
,8147.0,2056.0,7747.0,2455.0,1672.0,2193.0,2861.0,,,,-0.887552176506806,-2.90876303270737,-1.15458764918037,,10.356306996516262,,
,8149.0,2053.0,7745.0,2456.0,1691.0,2204.0,2864.0,,,,-0.886681077819116,-2.90885007680957,-1.15532347835333,,11.004657659216152,,
,8147.0,2053.0,7745.0,2460.0,1671.0,2199.0,2893.0,,,,-0.885703706091628,-2.90882481019898,-1.15393123132334,,11.43141843812712,,
,8148.0,2057.0,7745.0,2458.0,1668.0,2194.0,2877.0,,,,-0.88506278286496,-2.90872144317989,-1.15354697680133,,11.620314233271195,,
,8150.0,2055.0,7745.0,2456.0,1669.0,2168.0,2864.0,,,,-0.884646446893475,-2.90872884902034,-1.15279800424865,,11.563744592255677,,
,8151.0,2055.0,7747.0,2456.0,1685.0,2169.0,2857.0,,,,-0.884434305446329,-2.90862890932023,-1.15308547122679,,11.263466308201865,,
,8149.0,2055.0,7742.0,2456.0,1672.0,2185.0,2859.0,,,,-0.883908612426323,-2.90868029053735,-1.15133038690758,,10.730762857001174,,
,8150.0,2057.0,7749.0,2456.0,1687.0,2192.0,2850.0,,,,-0.884012737127382,-2.90875149490543,-1.15215727687102,,9.986037046169821,,
,8150.0,2058.0,7747.0,2458.0,1691.0,2197.0,2850.0,,,,-0.884441133002811,-2.90866062595837,-1.15143501563272,,9.057811141391483,,
,8149.0,2056.0,7747.0,2454.0,1684.0,2197.0,2836.0,,,,-0.884453381191656,-2.90862084871479,-1.15222301365685,,7.981177515642772,,
,8152.0,2057.0,7747.0,2459.0,1693.0,2184.0,2832.0,,,,-0.884302679476817,-2.90860580707233,-1.15141615208739,,6.795803770319789,,
,8152.0,2061.0,7746.0,2457.0,1691.0,2191.0,2856.0,,,,-0.883597787335266,-2.90863057702881,-1.15146244236202,,5.54364823025601,,
,8153.0,2057.0,7749.0,2458.0,1679.0,2194.0,2855.0,,,,-0.883933478747207,-2.90851444827786,-1.15185860829718,,4.266574934548365,,
,8152.0,2058.0,7747.0,2456.0,1680.0,2202.0,2840.0,,,,-0.883134264917549,-2.90853374957859,-1.15080051483959,,3.0040662724336435,,
,8150.0,2060.0,7744.0,2457.0,1669.0,2206.0,2846.0,,,,-0.883304663858655,-2.90863925026163,-1.1508480422807,,1.7912159404483776,,
,8153.0,2058.0,7746.0,2459.0,1659.0,2186.0,2861.0,,,,-0.883041453866208,-2.90858663898682,-1.15010043294787,,0.6571489130118979,,
,8156.0,2062.0,7748.0,2459.0,1675.0,2191.0,2850.0,,,,-0.882974861672707,-2.90840475221724,-1.14996370950026,,-0.3760344967938824,,
,8154.0,2061.0,7749.0,2461.0,1693.0,2187.0,2856.0,,,,-0.88253186059147,-2.90844747319839,-1.15079422132632,,-1.2937485443543875,,
,8151.0,2059.0,7746.0,2456.0,1703.0,2201.0,2861.0,,,,-0.88227257668426,-2.9083617428324,-1.14957390404336,,-2.0888571288960103,,
,8153.0,2060.0,7747.0,2459.0,1699.0,2198.0,2868.0,,,,-0.882391760026239,-2.90854520047421,-1.14950524174381,,-2.7611108867996244,,
,8152.0,2062.0,7747.0,2459.0,1687.0,2193.0,2887.0,,,,-0.882547156179471,-2.90846274676023,-1.14907574034583,,-3.316178250726811,,
,8154.0,2062.0,7745.0,2458.0,1692.0,2189.0,2868.0,,,,-0.883069398831673,-2.90837810628471,-1.15002649431469,,-3.764385869119119,,
,8155.0,2062.0,7746.0,2457.0,1699.0,2182.0,2838.0,,,,-0.883564369740528,-2.90844109120029,-1.14921096597553,,-4.119295671531592,,
,8154.0,2059.0,7747.0,2456.0,1689.0,2181.0,2861.0,,,,-0.883172592465321,-2.90841203068219,-1.14986761730852,,-4.396247024115199,,
,8155.0,2061.0,7747.0,2462.0,1686.0,2177.0,2892.0,,,,-0.883178130049872,-2.90852586701117,-1.14964068152604,,-4.610984134642546,,
,8152.0,2062.0,7748.0,2459.0,1698.0,2181.0,2866.0,,,,-0.882949761050265,-2.90833661359661,-1.14889000892083,,-4.778472512960185,,
,8153.0,2061.0,7747.0,2458.0,1696.0,2185.0,2867.0,,,,-0.883080620180581,-2.90828941826824,-1.1495465326674,,-4.911985070544455,,
,8152.0,2060.0,7747.0,2457.0,1691.0,2198.0,2877.0,,,,-0.882646594967176,-2.90834910132172,-1.14887036227579,,-5.022509588414287,,
,8150.0,2060.0,7747.0,2459.0,1666.0,2190.0,2788.0,,,,-0.882879508814762,-2.90836933698085,-1.14920732002113,,-5.118496483254273,,
,8150.0,2057.0,7746.0,2458.0,1670.0,2135.0,2828.0,,,,-0.882563190370515,-2.90839759643354,-1.1494580882767,,-5.205931341898091,,
,8154.0,2058.0,7748.0,2456.0,1677.0,2165.0,2831.0,,,,-0.882419245709099,-2.90841550639889,-1.14852022129094,,-5.288683378244898,,
,8155.0,2053.0,7748.0,2455.0,1654.0,2179.0,2834.0,,,,-0.882271245167596,-2.90845927725534,-1.14803624163587,,-5.369052121663522,,
,8153.0,2049.0,7746.0,2452.0,1651.0,2177.0,2853.0,,,,-0.882537977773714,-2.9082446481676,-1.14896019712617,,-5.448414117287201,,
,8152.0,2049.0,7748.0,2451.0,1642.0,2187.0,2842.0,,,,-0.882726577333798,-2.90843672911607,-1.14881114772562,,-5.527862954940085,,
,8150.0,2046.0,7747.0,2447.0,1648.0,2174.0,2860.0,,,,-0.883402218264545,-2.90837685940987,-1.14874569688938,,-5.608741710099261,,
,8147.0,2043.0,7748.0,2445.0,1670.0,2187.0,2853.0,,,,-0.883920493654995,-2.90832900586713,-1.14806968960808,,-5.692986080304605,,
,8147.0,2040.0,7746.0,2438.0,1664.0,2187.0,2851.0,,,,-0.884683300895029,-2.90836349044488,-1.14887018974767,,-5.783225500585896,,
,8145.0,2037.0,7750.0,2440.0,1661.0,2179.0,2897.0,,,,-0.885033779589615,-2.90840462322751,-1.14754754741636,,-5.8826234084207245,,
,8145.0,2037.0,7752.0,2441.0,1671.0,2163.0,2862.0,,,,-0.885150116880422,-2.90844758415349,-1.14963014062697,,-5.994471970395085,,
,8144.0,2035.0,7747.0,2436.0,1675.0,2177.0,2842.0,,,,-0.886119668400452,-2.90858664769904,-1.14924959764783,,-6.121587360402353,,
,8138.0,2034.0,7747.0,2431.0,1678.0,2183.0,2874.0,,,,-0.886292660884706,-2.90857629551463,-1.14922260507536,,-6.265576621892798,,
,8137.0,2032.0,7748.0,2433.0,1673.0,2184.0,2890.0,,,,-0.887486346049616,-2.90868462435523,-1.15016231732166,,-6.426064760321597,,
,8134.0,2031.0,7745.0,2435.0,1668.0,2182.0,2844.0,,,,-0.888034692561208,-2.90871391550708,-1.14972718450698,,-6.599980103482219,,
,8133.0,2031.0,7745.0,2433.0,1678.0,2186.0,2833.0,,,,-0.888652383559609,-2.90883129853111,-1.1495878236004,,-6.780996476429079,,
,8128.0,2030.0,7746.0,2432.0,1693.0,2185.0,2829.0,,,,-0.88889515639656,-2.90896825472282,-1.1505881349445,,-6.959221824142073,,
,8130.0,2030.0,7746.0,2430.0,1688.0,2179.0,2839.0,,,,-0.889689811284249,-2.90911170322791,-1.1499148552659,,-7.1212044046263685,,
,8127.0,2031.0,7750.0,2435.0,1702.0,2186.0,2825.0,,,,-0.890255565220761,-2.90920230899104,-1.15214461317425,,-7.2503002046967815,,
,8128.0,2031.0,7746.0,2433.0,1690.0,2186.0,2816.0,,,,-0.890925207278036,-2.90913749124104,-1.15205356852165,,-7.32741051058727,,
,8129.0,2029.0,7749.0,2434.0,1688.0,2176.0,2845.0,,,,-0.891650374000709,-2.90937370816323,-1.15181957557793,,-7.332059256776379,,
,8128.0,2034.0,7750.0,2435.0,1682.0,2186.0,2834.0,,,,-0.89201461901946,-2.9094838150725,-1.15213332328544,,-7.243739282813068,,
,8130.0,2031.0,7748.0,2436.0,1690.0,2191.0,2832.0,,,,-0.892081934154135,-2.90934447283305,-1.1544132052857,,-7.043419216271698,,
,8128.0,2032.0,7751.0,2435.0,1669.0,2193.0,2819.0,,,,-0.892905421406534,-2.90942432332375,-1.15358380773857,,-6.715073787339746,,
