TimeLabel,MEAS1_PPG1,MEAS1_PPG2,MEAS1_PPG3,MEAS1_PPG4,ACCX,ACCY,ACCZ,HR_timestamp,HR_value,radar_timestamp,phase_rx0,phase_rx1,phase_rx2,timestep,n_process,original_rate,calculated_rate
2025-07-15 23:13:10,4912.0,1224.0,5144.0,1590.0,2702.0,2510.0,1471.0,2025-07-15 23:13:12,107.0,2025/07/15 11:13:10 PM,0.0112889359413045,-1.9180990557731,0.0824040331021426,2025/07/15 11:13:10 PM,4.559841038910385,0.0,18.093351818842013
,4913.0,1227.0,5144.0,1590.0,2737.0,2497.0,1464.0,2025-07-15 23:13:13,108.0,,0.0113151670048115,-1.917656044999,0.0824494047669528,2025/07/15 11:13:20 PM,4.268226887752951,13.11953353881836,25.314061790095415
,4913.0,1226.0,5144.0,1589.0,2741.0,2483.0,1469.0,2025-07-15 23:13:14,109.0,,0.0114331505359719,-1.91710558550033,0.0825623194935406,2025/07/15 11:13:30 PM,3.909050507536356,13.01518440246582,17.945845004668538
,4910.0,1221.0,5144.0,1589.0,2725.0,2482.0,1495.0,2025-07-15 23:13:15,110.0,,0.0112745705999719,-1.91641707201222,0.0825641302230523,2025/07/15 11:13:40 PM,3.488606654675929,17.582416534423828,18.28682910397485
,4912.0,1226.0,5145.0,1591.0,2732.0,2471.0,1467.0,2025-07-15 23:13:16,111.0,,0.0113675327406563,-1.9163089010123,0.0825288566794427,2025/07/15 11:13:50 PM,3.014422527185757,17.826824188232422,18.647792885081014
,4913.0,1226.0,5146.0,1589.0,2733.0,2474.0,1485.0,2025-07-15 23:13:17,112.0,,0.0113115257433639,-1.91578306289875,0.0825800206241454,2025/07/15 11:14:00 PM,2.494966556647641,17.937219619750977,16.140602582496406
,4911.0,1223.0,5147.0,1589.0,2740.0,2469.0,1467.0,2025-07-15 23:13:18,112.0,,0.0113604545152268,-1.91561922693872,0.0826088396661022,2025/07/15 11:14:10 PM,1.9394116591073074,17.67304801940918,16.415948144071425
,4912.0,1224.0,5145.0,1590.0,2751.0,2459.0,1450.0,2025-07-15 23:13:19,113.0,,0.0113379916405715,-1.91518191512358,0.0826158750261827,2025/07/15 11:14:20 PM,1.3574622196464465,16.973125457763672,18.335415720127227
,4910.0,1224.0,5148.0,1590.0,2733.0,2472.0,1441.0,2025-07-15 23:13:20,113.0,,0.0112542381714933,-1.91538889944262,0.082567692162162,2025/07/15 11:14:30 PM,0.7592338003400717,14.82004165649414,17.557237870475365
,4910.0,1224.0,5145.0,1591.0,2733.0,2472.0,1457.0,2025-07-15 23:13:21,112.0,,0.0113101559088171,-1.91472988322837,0.0825990061379249,2025/07/15 11:14:40 PM,0.15515952748231543,17.274471282958984,16.86710996536959
,4913.0,1225.0,5147.0,1591.0,2735.0,2472.0,1448.0,2025-07-15 23:13:22,112.0,,0.0111538175816095,-1.91489718036524,0.0825809426291433,2025/07/15 11:14:50 PM,-0.44410996962311533,10.404624938964844,25.64030131826744
,4913.0,1224.0,5147.0,1592.0,2744.0,2472.0,1448.0,2025-07-15 23:13:23,111.0,,0.0111071477353417,-1.9146417786635,0.0826554897968108,2025/07/15 11:15:00 PM,-1.027845031317146,21.028038024902344,19.60017383746194
,4912.0,1223.0,5144.0,1589.0,2755.0,2477.0,1454.0,2025-07-15 23:13:24,110.0,,0.0111576299045781,-1.91411766973485,0.0825995039440156,2025/07/15 11:15:10 PM,-1.5854378866637948,12.65822696685791,17.234938974069436
,4912.0,1224.0,5149.0,1591.0,2745.0,2473.0,1443.0,2025-07-15 23:13:25,110.0,,0.0111116849656216,-1.9143800031519,0.0826561223195039,2025/07/15 11:15:20 PM,-2.1066776460464185,11.984021186828612,18.362932604735896
,4915.0,1224.0,5146.0,1590.0,2742.0,2467.0,1458.0,2025-07-15 23:13:26,109.0,,0.0113529811513955,-1.91439993777263,0.0827102722364569,2025/07/15 11:15:30 PM,-2.5820962811150734,10.948904991149902,16.687456687456656
,4913.0,1224.0,5147.0,1592.0,2736.0,2465.0,1472.0,2025-07-15 23:13:27,108.0,,0.0113646785939887,-1.91399234019695,0.0826933535271606,2025/07/15 11:15:40 PM,-3.003367497947122,15.11879062652588,17.67000191192405
,4913.0,1225.0,5146.0,1588.0,2719.0,2478.0,1486.0,2025-07-15 23:13:28,108.0,,0.0113925869580817,-1.91370754376641,0.082681979066341,2025/07/15 11:15:50 PM,-3.3637273347795333,13.11953353881836,15.686944634313043
,4914.0,1224.0,5149.0,1590.0,2702.0,2483.0,1451.0,2025-07-15 23:13:29,107.0,,0.0114497798792392,-1.91380712410929,0.082665066202248,2025/07/15 11:16:00 PM,-3.658376423827868,9.426551818847656,17.5618073316283
,4915.0,1227.0,5150.0,1589.0,2697.0,2477.0,1464.0,2025-07-15 23:13:30,107.0,,0.0115226734353531,-1.91386071812018,0.0828286423958456,,-3.8848207342133723,,
,4916.0,1225.0,5148.0,1593.0,2697.0,2475.0,1471.0,2025-07-15 23:13:31,106.0,,0.0115401727762601,-1.91387272964909,0.0827878540705859,,-4.043110689791347,,
,4917.0,1223.0,5146.0,1590.0,2686.0,2468.0,1463.0,2025-07-15 23:13:32,106.0,,0.011677702979864,-1.91354954102937,0.082776210829556,,-4.135946968768252,,
,4918.0,1225.0,5146.0,1592.0,2719.0,2490.0,1472.0,2025-07-15 23:13:33,106.0,,0.0116974168328652,-1.91334723273,0.0827712805632254,,-4.16863315838514,,
,4918.0,1226.0,5151.0,1592.0,2727.0,2483.0,1464.0,2025-07-15 23:13:34,105.0,,0.0116073108004024,-1.91285080350471,0.0828546913492993,,-4.148868573875915,,
,4920.0,1227.0,5151.0,1594.0,2737.0,2481.0,1455.0,2025-07-15 23:13:35,105.0,,0.0117454866596054,-1.91252479525066,0.0828526551439661,,-4.086387113029548,,
,4919.0,1226.0,5152.0,1591.0,2741.0,2489.0,1447.0,2025-07-15 23:13:36,105.0,,0.011863465563014,-1.91247644222333,0.0828468853302861,,-3.992458657633796,,
,4920.0,1225.0,5152.0,1592.0,2738.0,2487.0,1460.0,2025-07-15 23:13:37,105.0,,0.0119078363572848,-1.91230351103603,0.0828816147053976,,-3.8792775175083123,,
,4923.0,1225.0,5152.0,1593.0,2749.0,2478.0,1476.0,2025-07-15 23:13:38,105.0,,0.0119763097721166,-1.91218864856454,0.0828722757589396,,-3.75926796044208,,
,4921.0,1226.0,5154.0,1593.0,2756.0,2479.0,1496.0,2025-07-15 23:13:39,105.0,,0.0118946325478042,-1.91203468837071,0.0828684288931697,,-3.6443410771061813,,
,4923.0,1227.0,5154.0,1596.0,2744.0,2483.0,1484.0,2025-07-15 23:13:40,105.0,,0.0119453939878559,-1.91172333126897,0.0828526366108691,,-3.5451412797307786,,
,4922.0,1225.0,5155.0,1593.0,2701.0,2467.0,1462.0,2025-07-15 23:13:41,105.0,,0.0120541946850648,-1.91176354777692,0.0829182411675505,,-3.47032504689548,,
,4924.0,1227.0,5158.0,1595.0,2712.0,2465.0,1467.0,2025-07-15 23:13:42,105.0,,0.0121083581282025,-1.91174029750942,0.0828490272479105,,-3.4259184175451294,,
,4926.0,1230.0,5157.0,1593.0,2721.0,2474.0,1487.0,2025-07-15 23:13:43,106.0,,0.0123126771237689,-1.91178554726282,0.0828529206274816,,-3.4148016342811713,,
,4926.0,1229.0,5161.0,1598.0,2716.0,2473.0,1480.0,2025-07-15 23:13:44,107.0,,0.0122503034025755,-1.9115819685849,0.0829429271115994,,-3.4363674543481726,,
,4926.0,1227.0,5160.0,1594.0,2732.0,2480.0,1432.0,2025-07-15 23:13:45,107.0,,0.0123201124819649,-1.91180826162934,0.0829064057416933,,-3.486392814889523,,
,4923.0,1229.0,5161.0,1596.0,2733.0,2495.0,1463.0,2025-07-15 23:13:46,109.0,,0.0123828101158312,-1.91177951441859,0.0829390972414084,,-3.5571516198630024,,
,4925.0,1227.0,5160.0,1597.0,2736.0,2503.0,1458.0,2025-07-15 23:13:47,110.0,,0.0123881671816201,-1.9120277689762,0.0829180696171424,,-3.637780133364504,,
,4922.0,1228.0,5161.0,1598.0,2741.0,2506.0,1443.0,2025-07-15 23:13:48,111.0,,0.0125530172483096,-1.911723102001,0.0828991477888376,,-3.7148871582157117,,
,4920.0,1226.0,5159.0,1596.0,2724.0,2495.0,1459.0,2025-07-15 23:13:49,111.0,,0.0124258707960851,-1.91161396113248,0.0829265644399857,,-3.7733807579961893,,
,4916.0,1225.0,5156.0,1593.0,2718.0,2512.0,1475.0,2025-07-15 23:13:50,112.0,,0.012515599377549,-1.91208233049163,0.0828983525470206,,-3.7974637973604275,,
,4915.0,1226.0,5157.0,1595.0,2712.0,2513.0,1457.0,2025-07-15 23:13:51,113.0,,0.0125823443632723,-1.91196445829348,0.082954148539051,,-3.7717333036065654,,
,4909.0,1226.0,5156.0,1594.0,2717.0,2500.0,1450.0,2025-07-15 23:13:52,112.0,,0.0127273880528352,-1.91198119558339,0.0829701747391626,,-3.6823039136523397,,
,4908.0,1225.0,5151.0,1592.0,2715.0,2500.0,1463.0,2025-07-15 23:13:53,111.0,,0.0127665921865227,-1.91150134754912,0.0829695617820683,,-3.51786435623272,,
,4905.0,1224.0,5148.0,1590.0,2726.0,2497.0,1470.0,2025-07-15 23:13:54,111.0,,0.0127992938065926,-1.91157610621327,0.0829853438912422,,-3.270571242501401,,
,4902.0,1222.0,5146.0,1589.0,2722.0,2481.0,1480.0,2025-07-15 23:13:55,110.0,,0.0127413013440617,-1.9118081343188,0.082923310293904,,-2.9366911392603723,,
,4900.0,1222.0,5143.0,1588.0,2728.0,2482.0,1484.0,2025-07-15 23:13:56,111.0,,0.0126537594295032,-1.91133873348706,0.0829377368160311,,-2.51692273204235,,
,4900.0,1222.0,5143.0,1586.0,2716.0,2478.0,1483.0,2025-07-15 23:13:57,112.0,,0.0126937512637048,-1.91164455062924,0.08295505906237,,-2.016363791865153,,
,4894.0,1220.0,5140.0,1586.0,2737.0,2487.0,1453.0,2025-07-15 23:13:58,112.0,,0.0126727059465374,-1.91168497272403,0.0829172441151544,,-1.4441263788402594,,
,4894.0,1219.0,5138.0,1586.0,2755.0,2490.0,1469.0,2025-07-15 23:13:59,112.0,,0.0126015420007156,-1.91209372037014,0.0829419747706854,,-0.8126409608485375,,
,4893.0,1222.0,5134.0,1582.0,2744.0,2496.0,1453.0,2025-07-15 23:14:00,113.0,,0.0125784097631659,-1.91198659218424,0.0829399423554926,,-0.13672070021585797,,
,4894.0,1217.0,5133.0,1585.0,2748.0,2487.0,1446.0,2025-07-15 23:14:01,114.0,,0.0125985052600025,-1.91237929390874,0.082960364465401,,0.5675209254684731,,
,4894.0,1219.0,5130.0,1583.0,2745.0,2469.0,1443.0,2025-07-15 23:14:02,113.0,,0.0124826579872849,-1.91237330154752,0.0829436966544275,,1.2837927701972822,,
,4892.0,1215.0,5128.0,1582.0,2744.0,2469.0,1442.0,2025-07-15 23:14:03,112.0,,0.0126002775198507,-1.91205483095843,0.0829523485132064,,1.9966781375049363,,
,4893.0,1222.0,5130.0,1581.0,2752.0,2476.0,1431.0,2025-07-15 23:14:04,111.0,,0.0126070825492894,-1.9121106391015,0.0829016860266426,,2.692511279350733,,
,4896.0,1219.0,5129.0,1583.0,2753.0,2480.0,1420.0,2025-07-15 23:14:05,110.0,,0.0126953303125269,-1.91188579337366,0.0829659424978844,,3.359990640297945,,
,4894.0,1220.0,5129.0,1582.0,2749.0,2486.0,1423.0,2025-07-15 23:14:06,108.0,,0.0127668699060991,-1.91160579758979,0.08294727174713,,3.9904708725360596,,
,4893.0,1218.0,5127.0,1580.0,2748.0,2478.0,1438.0,2025-07-15 23:14:07,107.0,,0.0126581783225935,-1.91132680400966,0.0830396213099421,,4.577915536275544,,
,4893.0,1217.0,5124.0,1582.0,2742.0,2475.0,1451.0,2025-07-15 23:14:08,106.0,,0.0127800831700717,-1.91109961916682,0.0829826670938211,,5.118537577724895,,
,4896.0,1219.0,5127.0,1580.0,2730.0,2465.0,1462.0,2025-07-15 23:14:09,105.0,,0.0127755809991592,-1.91108941243608,0.0830582098046385,,5.610197680494753,,
,4894.0,1219.0,5128.0,1582.0,2724.0,2467.0,1462.0,2025-07-15 23:14:10,105.0,,0.0129134424494551,-1.91107271343457,0.0830004935530633,,6.051663248580937,,
,4896.0,1219.0,5127.0,1582.0,2718.0,2471.0,1481.0,2025-07-15 23:14:11,105.0,,0.0128140792938483,-1.91046662058841,0.0830623775162218,,6.441846983994396,,
,4896.0,1220.0,5129.0,1582.0,2719.0,2478.0,1465.0,2025-07-15 23:14:12,106.0,,0.0126902270317292,-1.91053884555101,0.083098311265171,,6.779141640663313,,
,4897.0,1222.0,5128.0,1582.0,2718.0,2479.0,1483.0,2025-07-15 23:14:13,106.0,,0.0128752457339044,-1.9107534456243,0.0831107182491719,,7.060948297102424,,
,4899.0,1221.0,5128.0,1584.0,2710.0,2476.0,1485.0,2025-07-15 23:14:14,107.0,,0.0127487428730211,-1.91068579409637,0.0831180373251586,,7.283463541190883,,
,4899.0,1223.0,5127.0,1585.0,2706.0,2486.0,1488.0,2025-07-15 23:14:15,107.0,,0.0127863441465149,-1.91013393807417,0.0831023534464624,,7.441751575481147,,
,4898.0,1218.0,5126.0,1583.0,2717.0,2497.0,1496.0,2025-07-15 23:14:16,107.0,,0.0126649144435684,-1.90973804641615,0.0830895557722842,,7.530086092532966,,
,4896.0,1222.0,5128.0,1584.0,2710.0,2498.0,1505.0,2025-07-15 23:14:17,107.0,,0.0126776406682407,-1.90940484232966,0.0831284593770149,,7.542509619865025,,
,4896.0,1224.0,5129.0,1586.0,2729.0,2491.0,1515.0,2025-07-15 23:14:18,106.0,,0.0127113016227369,-1.90932419876361,0.0830675471351576,,7.473530843499516,,
,4895.0,1222.0,5128.0,1583.0,2726.0,2492.0,1518.0,2025-07-15 23:14:19,105.0,,0.0127023687490621,-1.90953961627753,0.0831280499644109,,7.318868228837159,,
,4894.0,1219.0,5128.0,1581.0,2703.0,2490.0,1497.0,2025-07-15 23:14:20,104.0,,0.0126485423333402,-1.90913846839229,0.0831465423883535,,7.076152093674332,,
,4893.0,1221.0,5125.0,1584.0,2698.0,2480.0,1506.0,2025-07-15 23:14:21,104.0,,0.0127433036314203,-1.90893298026967,0.0831394174586221,,6.745512254332561,,
,4897.0,1223.0,5128.0,1584.0,2699.0,2480.0,1503.0,2025-07-15 23:14:22,104.0,,0.0127014256619292,-1.90927543696916,0.0830844275125866,,6.329996773432613,,
,4893.0,1221.0,5125.0,1581.0,2704.0,2482.0,1492.0,2025-07-15 23:14:23,104.0,,0.0126626143365294,-1.90932574430364,0.0831885851934635,,5.835784353584183,,
,4891.0,1220.0,5124.0,1579.0,2710.0,2483.0,1483.0,2025-07-15 23:14:24,104.0,,0.0126892581674229,-1.90961879344385,0.0830671025342685,,5.272168682089779,,
,4891.0,1219.0,5126.0,1580.0,2706.0,2485.0,1495.0,2025-07-15 23:14:25,104.0,,0.0127112495904704,-1.90939497061108,0.0830663234353132,,4.651310019864771,,
,4891.0,1221.0,5126.0,1583.0,2730.0,2471.0,1480.0,2025-07-15 23:14:26,104.0,,0.0127310730001878,-1.90939060574997,0.0831136307654281,,3.987768790086893,,
,4892.0,1220.0,5124.0,1584.0,2730.0,2467.0,1479.0,2025-07-15 23:14:27,104.0,,0.0126949791425549,-1.90985091079817,0.0830396422246301,,3.2978563500401985,,
,4895.0,1220.0,5123.0,1582.0,2747.0,2476.0,1476.0,2025-07-15 23:14:28,104.0,,0.0125848011640784,-1.91008350157561,0.0830992361656121,,2.5988559075566773,,
,4892.0,1219.0,5123.0,1582.0,2736.0,2483.0,1477.0,2025-07-15 23:14:29,105.0,,0.0127152068221954,-1.91029466678588,0.082995993050202,,1.908177557722509,,
,4891.0,1219.0,5123.0,1581.0,2731.0,2480.0,1464.0,2025-07-15 23:14:30,105.0,,0.0129706988152142,-1.91032225541347,0.0830957665761593,,1.2425127049778824,,
,4893.0,1220.0,5124.0,1582.0,2726.0,2483.0,1465.0,2025-07-15 23:14:31,105.0,,0.0129911314424239,-1.91035404804763,0.0830523993943284,,0.6170443559892015,,
,4895.0,1220.0,5124.0,1581.0,2719.0,2484.0,1468.0,2025-07-15 23:14:32,105.0,,0.0130507012823609,-1.91004077760973,0.0829561918388455,,0.044754125523896425,,
,4892.0,1220.0,5119.0,1581.0,2707.0,2499.0,1484.0,2025-07-15 23:14:33,105.0,,0.013025111040444,-1.91019534634908,0.0830186091654216,,-0.46414959640042314,,
,4892.0,1222.0,5121.0,1582.0,2700.0,2498.0,1501.0,2025-07-15 23:14:34,104.0,,0.0130071313696931,-1.91084005220498,0.0829956785394392,,-0.9026687003828194,,
,4895.0,1221.0,5123.0,1582.0,2691.0,2488.0,1484.0,2025-07-15 23:14:35,104.0,,0.0131139801670437,-1.91097684747185,0.0830040665367338,,-1.2673061333221565,,
,4897.0,1219.0,5121.0,1581.0,2676.0,2482.0,1472.0,2025-07-15 23:14:36,104.0,,0.0130573955993388,-1.91065816091561,0.0829519211832541,,-1.5581940368189453,,
,4893.0,1219.0,5119.0,1582.0,2698.0,2499.0,1479.0,2025-07-15 23:14:37,104.0,,0.0130898858026008,-1.91083041789206,0.0829747284987158,,-1.7790368003792654,,
,4896.0,1221.0,5122.0,1581.0,2703.0,2491.0,1471.0,2025-07-15 23:14:38,104.0,,0.0131192377913502,-1.91104454589195,0.0829459746535058,,-1.9368459974078742,,
,4896.0,1220.0,5121.0,1584.0,2700.0,2491.0,1464.0,2025-07-15 23:14:39,104.0,,0.0131708136042757,-1.91069130640651,0.0830085352425381,,-2.04145378358262,,
,4896.0,1223.0,5125.0,1582.0,2702.0,2494.0,1478.0,2025-07-15 23:14:40,103.0,,0.0132167859642186,-1.91079197456485,0.0830287661801185,,-2.1048122522349955,,
,4896.0,1221.0,5122.0,1582.0,2701.0,2481.0,1476.0,2025-07-15 23:14:41,103.0,,0.0133305806385851,-1.91093893458546,0.0830186154721286,,-2.14011584994767,,
,4897.0,1219.0,5124.0,1582.0,2725.0,2470.0,1502.0,2025-07-15 23:14:42,103.0,,0.0132168825262056,-1.910741815321,0.0829851871319474,,-2.1608160194915063,,
,4900.0,1221.0,5124.0,1584.0,2729.0,2475.0,1488.0,2025-07-15 23:14:43,103.0,,0.0131671918275571,-1.91123112020817,0.0829343357930617,,-2.1796225170431516,,
,4900.0,1222.0,5127.0,1586.0,2732.0,2474.0,1490.0,2025-07-15 23:14:44,103.0,,0.0131983628142554,-1.91138198575606,0.0829848085904654,,-2.2075950257163814,,
,4901.0,1222.0,5127.0,1586.0,2732.0,2476.0,1495.0,2025-07-15 23:14:45,104.0,,0.0131851725932958,-1.91149177513739,0.0828650186178708,,-2.2534172616569372,,
,4901.0,1222.0,5124.0,1583.0,2733.0,2469.0,1485.0,2025-07-15 23:14:46,104.0,,0.0131872829220388,-1.9116248476826,0.0828732161298746,,-2.322917150887208,,
,4901.0,1221.0,5127.0,1585.0,2728.0,2473.0,1506.0,2025-07-15 23:14:47,105.0,,0.0131274858542341,-1.9114291451987,0.0829434297529681,,-2.4188601686617575,,
,4902.0,1220.0,5128.0,1586.0,2739.0,2479.0,1495.0,2025-07-15 23:14:48,106.0,,0.0131808792514752,-1.91162570403553,0.0829059726465434,,-2.5410084137376914,,
,4901.0,1223.0,5129.0,1585.0,2734.0,2483.0,1492.0,2025-07-15 23:14:49,106.0,,0.0132081676427198,-1.91166897702941,0.0828338278580445,,-2.6864116484832072,,
,4907.0,1221.0,5127.0,1584.0,2735.0,2471.0,1469.0,2025-07-15 23:14:50,106.0,,0.0131780734098966,-1.91183226852619,0.0829089653901766,,-2.8498803316728565,,
,4903.0,1222.0,5127.0,1587.0,2724.0,2471.0,1448.0,2025-07-15 23:14:51,106.0,,0.0131255613643592,-1.91167007776504,0.0829232312902347,,-3.0245837505204136,,
,4908.0,1222.0,5130.0,1588.0,2736.0,2473.0,1461.0,2025-07-15 23:14:52,105.0,,0.0131608173106873,-1.91157557973837,0.0829151712553728,,-3.2027166149387862,,
,4904.0,1221.0,5131.0,1586.0,2732.0,2473.0,1470.0,2025-07-15 23:14:53,105.0,,0.0131971079847591,-1.91187783755829,0.0829120444262189,,-3.376182519137456,,
,4907.0,1223.0,5133.0,1589.0,2705.0,2475.0,1443.0,2025-07-15 23:14:54,104.0,,0.013144552278039,-1.91203052524625,0.08286793803216,,-3.537250209010052,,
,4905.0,1221.0,5128.0,1587.0,2722.0,2478.0,1443.0,2025-07-15 23:14:55,103.0,,0.0131396393013964,-1.91232564113608,0.0828578636061337,,-3.6791465590795065,,
,4905.0,1221.0,5132.0,1587.0,2739.0,2477.0,1463.0,2025-07-15 23:14:56,102.0,,0.0132743057413837,-1.91197847892154,0.082888966312399,,-3.7965569913938797,,
,4900.0,1221.0,5129.0,1586.0,2743.0,2489.0,1462.0,2025-07-15 23:14:57,102.0,,0.0132696007986804,-1.9120388967132,0.082900276242072,,-3.8860090455840637,,
,4899.0,1220.0,5127.0,1586.0,2744.0,2495.0,1478.0,2025-07-15 23:14:58,102.0,,0.0132144034110206,-1.91240763801872,0.0828631872251551,,-3.946118286972108,,
,4893.0,1220.0,5127.0,1583.0,2738.0,2489.0,1482.0,2025-07-15 23:14:59,102.0,,0.0131398947589321,-1.91266069012063,0.0827914212128345,,-3.9776790239194995,,
,4892.0,1219.0,5123.0,1581.0,2725.0,2507.0,1492.0,2025-07-15 23:15:00,103.0,,0.0130664964789749,-1.91274857169107,0.0828522641424142,,-3.983587323232898,,
,4891.0,1217.0,5120.0,1584.0,2706.0,2492.0,1470.0,2025-07-15 23:15:01,103.0,,0.0128944486316602,-1.91359337990861,0.0827542590293922,,-3.9685926220566126,,
,4885.0,1216.0,5119.0,1581.0,2688.0,2490.0,1479.0,2025-07-15 23:15:02,103.0,,0.0128698116774355,-1.91342913576043,0.0827520786093753,,-3.938887930391016,,
,4879.0,1215.0,5114.0,1578.0,2687.0,2486.0,1465.0,2025-07-15 23:15:03,104.0,,0.0127592182536169,-1.91434549095411,0.0827290637950772,,-3.9015657766433636,,
,4878.0,1215.0,5111.0,1578.0,2694.0,2475.0,1464.0,2025-07-15 23:15:04,104.0,,0.0125478362944479,-1.91449525056355,0.0826325995684784,,-3.8639835350551968,,
,4877.0,1216.0,5108.0,1578.0,2704.0,2469.0,1452.0,2025-07-15 23:15:05,103.0,,0.0124373477610303,-1.91515025016235,0.0826892372670411,,-3.833093032104423,,
,4872.0,1214.0,5101.0,1574.0,2699.0,2468.0,1446.0,2025-07-15 23:15:06,103.0,,0.0123544087204602,-1.91555730419117,0.0826210334602501,,-3.8147930767801594,,
,4873.0,1213.0,5103.0,1574.0,2714.0,2466.0,1458.0,2025-07-15 23:15:07,103.0,,0.0120709068794683,-1.91594380027302,0.082588830836193,,-3.813360151752863,,
,4872.0,1211.0,5098.0,1575.0,2723.0,2468.0,1484.0,2025-07-15 23:15:08,102.0,,0.012281439510762,-1.91578087366905,0.0826310071585743,,-3.8310033456772232,,
,4873.0,1212.0,5098.0,1574.0,2741.0,2477.0,1475.0,2025-07-15 23:15:09,102.0,,0.0122339841720847,-1.91589503677959,0.082562979087752,,-3.8675760706009545,,
,4867.0,1211.0,5095.0,1574.0,2734.0,2472.0,1487.0,2025-07-15 23:15:10,103.0,,0.0123423216053669,-1.91538257683519,0.0825705964695426,,-3.920460800202119,,
,4868.0,1211.0,5093.0,1570.0,2735.0,2467.0,1488.0,2025-07-15 23:15:11,103.0,,0.0123982763313374,-1.91487360561426,0.0825487527634283,,-3.9846262561253347,,
,4867.0,1208.0,5089.0,1568.0,2740.0,2476.0,1463.0,2025-07-15 23:15:12,103.0,,0.0124475471014321,-1.9147242195289,0.0826217066173492,,-4.0528418309478145,,
,4870.0,1211.0,5089.0,1571.0,2728.0,2491.0,1457.0,2025-07-15 23:15:13,104.0,,0.0125081555445232,-1.91442863900081,0.082569797253146,,-4.1160240411449225,,
,4869.0,1213.0,5089.0,1568.0,2734.0,2496.0,1458.0,2025-07-15 23:15:14,103.0,,0.0125746102644311,-1.91446647675953,0.0825316418181649,,-4.163685950135317,,
,4868.0,1210.0,5086.0,1571.0,2747.0,2493.0,1473.0,2025-07-15 23:15:15,102.0,,0.0125567577080076,-1.91451944402145,0.0825800344383765,,-4.184462291935112,,
,4869.0,1212.0,5087.0,1570.0,2717.0,2495.0,1461.0,2025-07-15 23:15:16,101.0,,0.0124257145205417,-1.91441170532912,0.0825433806794873,,-4.1666876543523275,,
,4869.0,1210.0,5086.0,1573.0,2721.0,2493.0,1471.0,2025-07-15 23:15:17,99.0,,0.0123433631543165,-1.91470765488388,0.0825246861606128,,-4.0990087124123455,,
,4870.0,1210.0,5086.0,1572.0,2717.0,2480.0,1493.0,2025-07-15 23:15:18,97.0,,0.0121804877948317,-1.91493618730083,0.0825452567633861,,-3.9710112509839766,,
,4869.0,1212.0,5085.0,1572.0,2724.0,2483.0,1503.0,2025-07-15 23:15:19,96.0,,0.012121148414072,-1.91558010978933,0.0824857930750919,,-3.7738378210273575,,
2025-07-15 23:13:11,4871.0,1210.0,5084.0,1571.0,2703.0,2492.0,1498.0,2025-07-15 23:15:20,95.0,2025/07/15 11:13:11 PM,0.0119591841371006,-1.91584017668782,0.08249974900818,,-3.5007639140070896,,
,4870.0,1211.0,5086.0,1570.0,2705.0,2477.0,1490.0,2025-07-15 23:15:21,93.0,,0.011970010937676,-1.91589257237908,0.0825006431003105,,-3.1476931620980557,,
,4871.0,1210.0,5085.0,1570.0,2718.0,2481.0,1472.0,2025-07-15 23:15:22,92.0,,0.0116064320492587,-1.91586789179862,0.0824659768327125,,-2.7135299168797786,,
,4874.0,1210.0,5080.0,1571.0,2728.0,2499.0,1487.0,2025-07-15 23:15:23,92.0,,0.0117010290968948,-1.91559536898867,0.0823975533111228,,-2.20039401815057,,
,4872.0,1210.0,5081.0,1572.0,2719.0,2505.0,1483.0,2025-07-15 23:15:24,92.0,,0.0115785797159219,-1.91583822152292,0.0824943079087261,,-1.6136576663075888,,
,4868.0,1207.0,5080.0,1568.0,2734.0,2490.0,1470.0,2025-07-15 23:15:25,92.0,,0.0113584597434048,-1.91648895935207,0.0824679389131453,,-0.9618045290863573,,
,4870.0,1208.0,5081.0,1571.0,2722.0,2477.0,1482.0,2025-07-15 23:15:26,92.0,,0.0113410086637244,-1.91648923780149,0.0824266829180512,,-0.2561312303447628,,
,4869.0,1209.0,5084.0,1570.0,2733.0,2479.0,1498.0,2025-07-15 23:15:27,93.0,,0.0113275074233829,-1.91674149768178,0.0824146725777596,,0.48967364222121146,,
,4868.0,1210.0,5083.0,1572.0,2738.0,2484.0,1491.0,2025-07-15 23:15:28,94.0,,0.0112796913814804,-1.91687428837516,0.0824610599398029,,1.2600306550944405,,
,4869.0,1209.0,5079.0,1572.0,2733.0,2484.0,1473.0,2025-07-15 23:15:29,95.0,,0.0112577190861422,-1.91655344835323,0.082473669788715,,2.0380091976770536,,
,4866.0,1209.0,5078.0,1570.0,2716.0,2474.0,1475.0,2025-07-15 23:15:30,96.0,,0.0114527588254704,-1.9163815829584,0.0824555727928299,,2.8058713289443307,,
,4870.0,1205.0,5080.0,1570.0,2725.0,2473.0,1482.0,2025-07-15 23:15:31,96.0,,0.0112084975295913,-1.91681916273788,0.0824073787782416,,3.545596706096275,,
,4870.0,1207.0,5079.0,1570.0,2722.0,2471.0,1480.0,2025-07-15 23:15:32,96.0,,0.0111767453101848,-1.91644654340782,0.082409225224618,,4.2393781330245925,,
,4865.0,1210.0,5077.0,1568.0,2707.0,2472.0,1477.0,2025-07-15 23:15:33,96.0,,0.0113395286461566,-1.91667123359899,0.0824434027733197,,4.870088265379491,,
,4865.0,1206.0,5076.0,1569.0,2720.0,2478.0,1488.0,2025-07-15 23:15:34,95.0,,0.011247787828288,-1.91638386507992,0.0824134903571166,,5.421724808127572,,
,4866.0,1205.0,5077.0,1569.0,2720.0,2470.0,1477.0,2025-07-15 23:15:35,94.0,,0.0110752894503274,-1.91697432385922,0.0824071132247912,,5.879842936352237,,
,4866.0,1207.0,5073.0,1569.0,2729.0,2492.0,1477.0,2025-07-15 23:15:36,94.0,,0.0112103001350117,-1.91692505043878,0.0824175066585038,,6.231980052935742,,
,4866.0,1208.0,5072.0,1568.0,2724.0,2494.0,1465.0,2025-07-15 23:15:37,95.0,,0.0112890149890045,-1.91724071772117,0.0823728446870689,,6.468070902310465,,
,4865.0,1205.0,5072.0,1567.0,2723.0,2481.0,1480.0,2025-07-15 23:15:38,96.0,,0.0110890785087882,-1.91754014757734,0.0823471466757915,,6.580842351782035,,
,4866.0,1206.0,5074.0,1569.0,2727.0,2480.0,1474.0,2025-07-15 23:15:39,96.0,,0.0115008087688609,-1.91755103676024,0.0823908639823109,,6.566168199907922,,
,4866.0,1204.0,5071.0,1568.0,2732.0,2483.0,1456.0,2025-07-15 23:15:40,97.0,,0.0113582795830063,-1.91760698377951,0.0822698241010175,,6.423356194000507,,
,4867.0,1206.0,5071.0,1569.0,2733.0,2483.0,1460.0,2025-07-15 23:15:41,97.0,,0.0113000560498092,-1.91800282122328,0.0823498652012324,,6.1553338233038115,,
,4866.0,1204.0,5069.0,1569.0,2735.0,2479.0,1453.0,2025-07-15 23:15:42,96.0,,0.0111795742752767,-1.91801457157177,0.082328556269044,,5.768698947278863,,
,4868.0,1203.0,5069.0,1566.0,2733.0,2496.0,1454.0,2025-07-15 23:15:43,95.0,,0.0112014737936862,-1.91857617303414,0.0823403031996331,,5.273607337555204,,
,4868.0,1204.0,5071.0,1569.0,2728.0,2481.0,1451.0,2025-07-15 23:15:44,94.0,,0.0112217759509759,-1.91848085436209,0.0822327222960165,,4.683480821429956,,
,4868.0,1204.0,5071.0,1568.0,2731.0,2476.0,1450.0,2025-07-15 23:15:45,93.0,,0.0110264280855045,-1.91818989046409,0.0822347672632529,,4.014534659030623,,
,4868.0,1206.0,5065.0,1569.0,2725.0,2499.0,1440.0,2025-07-15 23:15:46,94.0,,0.0111563745714751,-1.91804557330827,0.0822845715465755,,3.2851390255200346,,
,4868.0,1206.0,5068.0,1567.0,2723.0,2486.0,1455.0,2025-07-15 23:15:47,94.0,,0.0108855042572913,-1.91800722115126,0.0822755699428698,,2.5150456032102095,,
,4872.0,1205.0,5068.0,1568.0,2724.0,2483.0,1468.0,2025-07-15 23:15:48,95.0,,0.0108518660620564,-1.91820509524814,0.0823093956247208,,1.7245253009952435,,
,4872.0,1204.0,5069.0,1570.0,2722.0,2487.0,1484.0,2025-07-15 23:15:49,96.0,,0.0106741302187294,-1.91823295249827,0.082269456550804,,0.9334759882357369,,
,4871.0,1206.0,5068.0,1569.0,2724.0,2480.0,1478.0,2025-07-15 23:15:50,97.0,,0.0106876921501804,-1.91803113750092,0.082303988956091,,0.16056836490928927,,
,4871.0,1204.0,5065.0,1569.0,2708.0,2483.0,1480.0,2025-07-15 23:15:51,97.0,,0.0104016479946413,-1.91862580734138,0.0821859963529302,,-0.5774984448268361,,
,4875.0,1206.0,5069.0,1571.0,2694.0,2479.0,1463.0,2025-07-15 23:15:52,96.0,,0.0104308268731768,-1.91877740203392,0.0822521344896815,,-1.2665647154792412,,
,4873.0,1205.0,5068.0,1569.0,2717.0,2470.0,1476.0,2025-07-15 23:15:53,96.0,,0.0105005861774096,-1.91884050880341,0.0821677607758016,,-1.8953492947066621,,
,4875.0,1205.0,5069.0,1571.0,2719.0,2471.0,1467.0,2025-07-15 23:15:54,95.0,,0.0104744180293357,-1.91911806107853,0.082186395111991,,-2.4555328817589377,,
,4873.0,1204.0,5068.0,1569.0,2727.0,2485.0,1471.0,2025-07-15 23:15:55,95.0,,0.0103424340297962,-1.91908428150285,0.0822474618672918,,-2.9415898302960226,,
,4872.0,1205.0,5069.0,1569.0,2738.0,2490.0,1463.0,2025-07-15 23:15:56,96.0,,0.0104214567043415,-1.91925472852235,0.0822494426555828,,-3.3504056637284383,,
,4874.0,1206.0,5073.0,1572.0,2730.0,2484.0,1446.0,2025-07-15 23:15:57,97.0,,0.0104774597098534,-1.9189892457079,0.0822358861346693,,-3.680745332945133,,
,4876.0,1208.0,5071.0,1572.0,2730.0,2476.0,1458.0,2025-07-15 23:15:58,98.0,,0.0105739804178708,-1.91948572279238,0.0821877156085213,,-3.932655814802622,,
,4875.0,1206.0,5069.0,1571.0,2735.0,2482.0,1487.0,2025-07-15 23:15:59,100.0,,0.010750815095519,-1.91947904845063,0.0821679022303267,,-4.10689357563719,,
,4878.0,1204.0,5069.0,1571.0,2740.0,2476.0,1485.0,2025-07-15 23:16:00,101.0,,0.0107301311665364,-1.91946562737351,0.0821825199835346,,-4.20446178678973,,
,4878.0,1205.0,5072.0,1573.0,2738.0,2480.0,1483.0,2025-07-15 23:16:01,102.0,,0.010914194622658,-1.91914129472817,0.0821817122633609,,-4.226324221763505,,
,4877.0,1205.0,5072.0,1571.0,2739.0,2483.0,1477.0,2025-07-15 23:16:02,102.0,,0.0108620362004402,-1.91943285681275,0.0822186069483555,,-4.173334137310413,,
,4878.0,1204.0,5074.0,1573.0,2738.0,2476.0,1478.0,2025-07-15 23:16:03,101.0,,0.0109118721199952,-1.91920508889362,0.0822665414593828,,-4.046380732588605,,
,4877.0,1205.0,5072.0,1574.0,2748.0,2472.0,1491.0,2025-07-15 23:16:04,101.0,,0.0109470817391158,-1.91909799492212,0.0822922598594965,,-3.846718507802229,,
,4879.0,1206.0,5072.0,1573.0,2740.0,2490.0,1490.0,2025-07-15 23:16:05,101.0,,0.0107631981258191,-1.91884977182891,0.0821860345460599,,-3.5764122883895726,,
,4879.0,1206.0,5074.0,1573.0,2752.0,2491.0,1472.0,2025-07-15 23:16:06,101.0,,0.0107950867130948,-1.91892383367161,0.0822097761747081,,-3.2388083968399455,,
,4879.0,1207.0,5074.0,1574.0,2751.0,2489.0,1472.0,2025-07-15 23:16:07,101.0,,0.0107084937739096,-1.91911351753731,0.0822503336415461,,-2.838934592736222,,
,4877.0,1205.0,5072.0,1571.0,2740.0,2500.0,1456.0,2025-07-15 23:16:08,102.0,,0.0104853754360555,-1.91911021367638,0.0822392898840529,,-2.3837405017055584,,
,4874.0,1204.0,5072.0,1569.0,2734.0,2498.0,1436.0,2025-07-15 23:16:09,102.0,,0.0103720600199462,-1.91925807779793,0.082132798620321,,-1.8821163201286382,,
,4871.0,1206.0,5071.0,1570.0,2731.0,2485.0,1452.0,2025-07-15 23:16:10,102.0,,0.0101868544611403,-1.91938144136202,0.0821849907307871,,-1.3446664516099944,,
,4869.0,1204.0,5069.0,1569.0,2739.0,2479.0,1443.0,2025-07-15 23:16:11,103.0,,0.0101126413887667,-1.91972986036526,0.082101114156725,,-0.7832575291952051,,
,4866.0,1200.0,5067.0,1569.0,2745.0,2486.0,1451.0,,,,0.0098529555604898,-1.91986713232668,0.0822209428607385,,-0.21039606750898718,,
,4860.0,1200.0,5061.0,1569.0,2710.0,2479.0,1453.0,,,,0.0099420229129231,-1.91967428181529,0.0822399415619662,,0.36148804734014295,,
,4857.0,1199.0,5060.0,1567.0,2703.0,2472.0,1465.0,,,,0.0096848723101669,-1.91942822954785,0.0821864081864055,,0.9207711047551429,,
,4854.0,1198.0,5055.0,1564.0,2693.0,2475.0,1485.0,,,,0.0098850828261549,-1.91909139894939,0.0821845160726969,,1.4573040588727357,,
,4849.0,1198.0,5050.0,1562.0,2696.0,2475.0,1484.0,,,,0.0101028026847601,-1.91873120521814,0.0821594342939296,,1.9629593343674345,,
,4845.0,1195.0,5047.0,1559.0,2713.0,2472.0,1499.0,,,,0.0100523237452009,-1.91865134336734,0.0822415170615743,,2.4320109485751242,,
,4844.0,1197.0,5044.0,1559.0,2703.0,2476.0,1485.0,,,,0.0100607111755578,-1.91810765767059,0.082234237982774,,2.8613182920704294,,
,4843.0,1196.0,5042.0,1558.0,2714.0,2485.0,1491.0,,,,0.0102175890564772,-1.91809520135651,0.0822433932320888,,3.250298307793985,,
,4839.0,1193.0,5038.0,1558.0,2713.0,2479.0,1494.0,,,,0.0103721900658827,-1.91764930310422,0.0823325997652217,,3.6006850543408726,,
,4838.0,1194.0,5032.0,1556.0,2714.0,2478.0,1466.0,,,,0.0102764973894112,-1.91789420248603,0.0823425356410747,,3.916091086143332,,
,4838.0,1193.0,5030.0,1558.0,2743.0,2476.0,1462.0,,,,0.0103464163146934,-1.91757518257794,0.0822630106669193,,4.20140240410611,,
,4838.0,1193.0,5028.0,1555.0,2756.0,2483.0,1475.0,,,,0.0101538629082018,-1.91767041808848,0.0823195933627394,,4.46205682455149,,
,4837.0,1191.0,5027.0,1554.0,2753.0,2494.0,1474.0,,,,0.0100940356708727,-1.91785682859449,0.0822804991375923,,4.703271267224882,,
,4836.0,1194.0,5027.0,1553.0,2759.0,2468.0,1466.0,,,,0.0100070049397305,-1.91791090698793,0.0823128540139466,,4.929292455925492,,
,4835.0,1192.0,5024.0,1554.0,2761.0,2467.0,1432.0,,,,0.0099656112011006,-1.91763631869837,0.0822976369884635,,5.142744905634734,,
,4838.0,1192.0,5024.0,1552.0,2761.0,2471.0,1428.0,,,,0.0098524039580346,-1.91721803286799,0.0823188609848071,,5.344139787603967,,
,4836.0,1193.0,5023.0,1555.0,2736.0,2474.0,1445.0,,,,0.0100569194516461,-1.91698187754518,0.0823750730679624,,5.531590814882567,,
,4837.0,1190.0,5020.0,1552.0,2738.0,2481.0,1447.0,,,,0.0102515472842032,-1.91682447435215,0.0823692944080873,,5.70076215142693,,
,4836.0,1189.0,5020.0,1552.0,2733.0,2488.0,1458.0,,,,0.010136826781744,-1.91672537660247,0.0823140731898021,,5.845051771627921,,
,4835.0,1192.0,5017.0,1552.0,2729.0,2493.0,1465.0,,,,0.010076178646838,-1.91703458010707,0.0823831216006088,,5.95599420412554,,
,4837.0,1191.0,5018.0,1552.0,2727.0,2480.0,1474.0,,,,0.0100816592385582,-1.91672079044784,0.0823864677306559,,6.023850697785736,,
,4836.0,1191.0,5017.0,1554.0,2720.0,2482.0,1481.0,,,,0.0100885706796365,-1.91689891576229,0.0823784988316521,,6.038342974816099,,
,4837.0,1190.0,5017.0,1551.0,2715.0,2491.0,1475.0,,,,0.009948256579963,-1.91635343064409,0.0823243236968891,,5.9894784560255285,,
,4839.0,1190.0,5015.0,1552.0,2719.0,2489.0,1490.0,,,,0.0099256926346957,-1.91637169969907,0.0822990542894414,,5.868409360937088,,
,4839.0,1190.0,5014.0,1551.0,2718.0,2480.0,1461.0,,,,0.0097495264465147,-1.91668939365192,0.0823054798353849,,5.668264826424506,,
,4837.0,1191.0,5017.0,1553.0,2721.0,2489.0,1468.0,,,,0.0096175418356403,-1.91708427952553,0.082282164381256,,5.384894067753088,,
,4837.0,1191.0,5013.0,1552.0,2737.0,2483.0,1448.0,,,,0.009552183628667,-1.91698703772986,0.08224970660731,,5.017459880450128,,
,4835.0,1192.0,5017.0,1551.0,2725.0,2478.0,1477.0,,,,0.0095520750845742,-1.91726084176149,0.0823255586235277,,4.568826107825274,,
,4836.0,1188.0,5014.0,1552.0,2731.0,2472.0,1497.0,,,,0.0094015292664205,-1.91726269187748,0.0822780095944608,,4.045691581010451,,
,4836.0,1191.0,5012.0,1553.0,2735.0,2472.0,1470.0,,,,0.0093513509359497,-1.91707296087904,0.0822762179062509,,3.458438624620083,,
,4837.0,1190.0,5014.0,1550.0,2729.0,2472.0,1465.0,,,,0.0094947896751778,-1.91709195801805,0.0822429160104738,,2.820687784626846,,
,4833.0,1191.0,5010.0,1551.0,2723.0,2468.0,1448.0,,,,0.0093009882200588,-1.91712670778785,0.0822753232549389,,2.148580551686712,,
,4833.0,1189.0,5008.0,1550.0,2727.0,2464.0,1474.0,,,,0.0094218234828601,-1.91660582727154,0.0822817657246739,,1.4598440263051298,,
,4832.0,1188.0,5009.0,1550.0,2736.0,2465.0,1471.0,,,,0.0094829867830215,-1.9160702065935,0.0822782125772576,,0.7727196852559349,,
,4832.0,1191.0,5009.0,1550.0,2737.0,2461.0,1479.0,,,,0.0095553836252672,-1.91532340589129,0.0823022110639515,,0.10485714554261619,,
,4831.0,1188.0,5005.0,1549.0,2730.0,2469.0,1488.0,,,,0.0095958759350249,-1.91539383022994,0.0823224520350083,,-0.5277209681484997,,
,4832.0,1189.0,5007.0,1551.0,2729.0,2476.0,1487.0,,,,0.0096939752392404,-1.9152342800751,0.0823921985597682,,-1.111487349200294,,
,4829.0,1187.0,5004.0,1550.0,2745.0,2471.0,1485.0,,,,0.0096142443213637,-1.91486839929637,0.0823538341745267,,-1.636040692127094,,
,4831.0,1188.0,5007.0,1548.0,2738.0,2477.0,1462.0,,,,0.0096788799210998,-1.91488591184563,0.0823592473647336,,-2.0944619857975457,,
,4829.0,1188.0,5004.0,1548.0,2717.0,2469.0,1470.0,,,,0.0097404162680619,-1.91447350895814,0.0823985440197267,,-2.4833952013780283,,
,4830.0,1188.0,5003.0,1547.0,2718.0,2465.0,1461.0,,,,0.0097031952118415,-1.91417685979407,0.0824641806677518,,-2.8028809638709564,,
,4830.0,1189.0,5005.0,1550.0,2715.0,2473.0,1455.0,,,,0.009718622006161,-1.91336615544425,0.0824442704822188,,-3.0559914893426154,,
,4830.0,1187.0,5001.0,1550.0,2724.0,2473.0,1462.0,,,,0.0098684528039869,-1.91317236557434,0.0824798545462114,,-3.248323529934127,,
,4832.0,1186.0,5003.0,1548.0,2738.0,2476.0,1467.0,,,,0.0098893222417933,-1.91267477984227,0.0825214548867042,,-3.38740498359121,,
,4830.0,1187.0,5001.0,1547.0,2726.0,2485.0,1465.0,,,,0.0100642479562947,-1.91251206728211,0.0824888799150791,,-3.4820636349124734,,
,4831.0,1188.0,5000.0,1551.0,2723.0,2482.0,1493.0,,,,0.0101863218085813,-1.91199032481752,0.0825105611810282,,-3.5417969243557725,,
,4834.0,1188.0,5002.0,1549.0,2738.0,2474.0,1475.0,,,,0.0103330577322201,-1.91182163800128,0.0825622484495148,,-3.5761725751499425,,
,4831.0,1190.0,5002.0,1549.0,2744.0,2476.0,1454.0,,,,0.0103138559263348,-1.91157015053646,0.0825524124247296,,-3.5942829068812285,,
,4830.0,1187.0,5005.0,1548.0,2747.0,2472.0,1475.0,,,,0.0105405125636195,-1.91205813767844,0.0825026790270437,,-3.604270904968426,,
,4832.0,1189.0,5004.0,1551.0,2733.0,2480.0,1468.0,,,,0.0104987929238415,-1.91208175740123,0.0825857633655112,,-3.6129426755559417,,
,4836.0,1188.0,5006.0,1550.0,2734.0,2473.0,1465.0,,,,0.0104944471446854,-1.9117305772685,0.0825406124614551,,-3.6254775159585697,,
,4834.0,1188.0,5005.0,1552.0,2731.0,2476.0,1468.0,,,,0.0106423441542314,-1.91113049179044,0.0826108118552391,,-3.645242557719686,,
,4835.0,1186.0,5005.0,1549.0,2737.0,2484.0,1462.0,,,,0.0107552801826063,-1.91154818911231,0.0826410765879545,,-3.67371359826846,,
,4834.0,1189.0,5006.0,1549.0,2726.0,2473.0,1483.0,,,,0.0107784751127823,-1.91095997614287,0.082590502334382,,-3.710497935164922,,
,4836.0,1191.0,5009.0,1551.0,2734.0,2465.0,1472.0,,,,0.0111740890111194,-1.91158513488558,0.0826315645626157,,-3.7534499349600354,,
,4837.0,1188.0,5006.0,1551.0,2728.0,2469.0,1468.0,,,,0.0110154041259592,-1.91182051025094,0.0826267743202909,,-3.7988667715316957,,
,4839.0,1190.0,5009.0,1551.0,2729.0,2466.0,1462.0,,,,0.0110070539501881,-1.91193384947949,0.0825916032752837,,-3.8417505264125484,,
,4838.0,1190.0,5008.0,1551.0,2731.0,2464.0,1474.0,,,,0.0110612895139444,-1.9120255512554,0.0825400981425673,,-3.8761231246047143,,
,4839.0,1189.0,5012.0,1555.0,2735.0,2469.0,1480.0,,,,0.0109064862512773,-1.9125521952278,0.0824783990323983,,-3.8953814854681448,,
,4841.0,1191.0,5014.0,1553.0,2735.0,2466.0,1479.0,,,,0.0109113846199577,-1.91343262132827,0.0825255021968134,,-3.8926807961074164,,
,4841.0,1190.0,5013.0,1552.0,2729.0,2465.0,1470.0,,,,0.0108712617836096,-1.91390460961834,0.0824525598315554,,-3.861333028666832,,
,4842.0,1189.0,5012.0,1551.0,2740.0,2472.0,1473.0,,,,0.0107905967468472,-1.91411352122882,0.0824703389764527,,-3.795205264613118,,
,4843.0,1190.0,5015.0,1554.0,2712.0,2464.0,1477.0,,,,0.0107319175147303,-1.91460660746804,0.0824817510374801,,-3.6890984735801604,,
,4846.0,1190.0,5014.0,1553.0,2714.0,2470.0,1469.0,,,,0.0105363007045323,-1.91469434323269,0.0824164512944958,,-3.539083444814032,,
,4846.0,1189.0,5015.0,1554.0,2715.0,2474.0,1493.0,,,,0.0103584054872541,-1.91526306887146,0.0824012117763864,,-3.342768560989809,,
,4846.0,1190.0,5016.0,1555.0,2711.0,2448.0,1490.0,,,,0.0101895806008039,-1.91560384603078,0.0822891219572083,,-3.0994761192294624,,
,4848.0,1191.0,5018.0,1553.0,2725.0,2461.0,1492.0,,,,0.0101257104282883,-1.91573192971361,0.0823274752881575,,-2.8103111255702866,,
,4849.0,1191.0,5021.0,1557.0,2742.0,2471.0,1487.0,,,,0.0102858639682006,-1.91620725457816,0.0823040922983758,,-2.4781182208444,,
,4847.0,1191.0,5019.0,1556.0,2732.0,2467.0,1483.0,,,,0.0101136590572452,-1.91586247758114,0.0822871512261897,,-2.107336105184108,,
,4848.0,1191.0,5021.0,1556.0,2744.0,2457.0,1477.0,,,,0.009954053923267,-1.91646004454344,0.0823195034633686,,-1.7037712998348895,,
,4847.0,1188.0,5021.0,1557.0,2738.0,2455.0,1460.0,,,,0.0099938319024916,-1.91621307669103,0.0823123722449476,,-1.274321670833885,,
,4847.0,1194.0,5023.0,1556.0,2752.0,2460.0,1482.0,,,,0.0099354812931926,-1.91599132489273,0.0822372922481789,,-0.8266833617315759,,
,4847.0,1190.0,5027.0,1558.0,2738.0,2467.0,1477.0,,,,0.0097746909529647,-1.91640203557675,0.0822327151650772,,-0.36907235030097507,,
,4846.0,1192.0,5023.0,1558.0,2733.0,2470.0,1488.0,,,,0.0097697758029594,-1.91625199142667,0.0822153391374044,,0.09001563586590458,,
,4840.0,1190.0,5020.0,1556.0,2744.0,2478.0,1501.0,,,,0.0099716077312986,-1.91634647675442,0.0821963596942382,,0.54199441316341,,
,4841.0,1191.0,5019.0,1554.0,2743.0,2481.0,1491.0,,,,0.0100782661392119,-1.91653239603454,0.0821635949387531,,0.9783266791208785,,
2025-07-15 23:13:12,4835.0,1190.0,5020.0,1553.0,2704.0,2481.0,1489.0,,,2025/07/15 11:13:12 PM,0.0100830905739237,-1.91684324233118,0.0822078542431957,,1.3906268422021788,,
,4832.0,1187.0,5016.0,1552.0,2701.0,2481.0,1486.0,,,,0.0098899769302208,-1.91643359759238,0.0822379406805936,,1.7707498212632473,,
,4829.0,1187.0,5015.0,1551.0,2687.0,2472.0,1507.0,,,,0.0097649930783109,-1.91674545719132,0.0821753573628823,,2.1108914905468543,,
,4830.0,1187.0,5011.0,1551.0,2694.0,2466.0,1510.0,,,,0.0097033140778465,-1.91698636087172,0.0821884711710366,,2.4037230281489355,,
,4827.0,1187.0,5010.0,1551.0,2703.0,2470.0,1512.0,,,,0.0095910035472274,-1.91723122099046,0.082132894731162,,2.642572071249564,,
,4825.0,1186.0,5007.0,1551.0,2717.0,2468.0,1505.0,,,,0.00963078463705,-1.91683525767315,0.0820863443692569,,2.821650234226439,,
,4824.0,1186.0,5006.0,1549.0,2725.0,2462.0,1476.0,,,,0.0097716180401274,-1.91659610525218,0.0821596012453853,,2.936312260400267,,
,4823.0,1184.0,5002.0,1546.0,2745.0,2464.0,1482.0,,,,0.0098910600522849,-1.91662633958691,0.0821194641514716,,2.9833203944441453,,
,4821.0,1185.0,5001.0,1546.0,2723.0,2464.0,1500.0,,,,0.0098439613967205,-1.91628732345627,0.0822098935121341,,2.961081321192075,,
,4819.0,1182.0,4998.0,1546.0,2720.0,2456.0,1484.0,,,,0.0099392238463846,-1.91578223143139,0.0821281734512904,,2.86982339739522,,
,4821.0,1185.0,4998.0,1545.0,2719.0,2456.0,1474.0,,,,0.0099796062892504,-1.91599148938028,0.0821604150815513,,2.7116882634406316,,
,4820.0,1180.0,4994.0,1545.0,2736.0,2473.0,1478.0,,,,0.0098729050862861,-1.9162220032238,0.0821817583927589,,2.4907212503533063,,
,4822.0,1182.0,4997.0,1546.0,2744.0,2465.0,1497.0,,,,0.010126970019568,-1.91608102357101,0.0821773540890911,,2.2127566737825877,,
,4819.0,1184.0,4995.0,1547.0,2754.0,2481.0,1471.0,,,,0.0099838026527889,-1.91595795394839,0.0821217429918886,,1.885204869343897,,
,4823.0,1182.0,4995.0,1544.0,2754.0,2482.0,1472.0,,,,0.0099791830682468,-1.91628105481379,0.0821868258019536,,1.5167563973477873,,
,4823.0,1183.0,4995.0,1544.0,2751.0,2478.0,1463.0,,,,0.0100664946681699,-1.9160491456619,0.0821083753757999,,1.1170245940987145,,
,4824.0,1181.0,4993.0,1546.0,2733.0,2492.0,1482.0,,,,0.0099972474516577,-1.91625733759833,0.0821204535696266,,0.6961499711567759,,
,4824.0,1182.0,4992.0,1547.0,2721.0,2489.0,1472.0,,,,0.0100375213620174,-1.91649419824593,0.0821352065882752,,0.26438873259802487,,
,4826.0,1183.0,4994.0,1546.0,2720.0,2486.0,1479.0,,,,0.0100565186350856,-1.91629954649744,0.082120261501816,,-0.16829581895371853,,
,4828.0,1184.0,4994.0,1547.0,2731.0,2481.0,1469.0,,,,0.0101125253689664,-1.91622797543253,0.0820433829483421,,-0.5926235122058416,,
,4830.0,1180.0,4994.0,1546.0,2741.0,2486.0,1478.0,,,,0.0101219840750642,-1.91616597106983,0.0820952461347804,,-1.000354662737041,,
,4827.0,1184.0,4996.0,1549.0,2732.0,2483.0,1505.0,,,,0.0101868354248281,-1.91663429543838,0.0821471541836441,,-1.384598225110187,,
,4830.0,1184.0,4995.0,1549.0,2737.0,2476.0,1486.0,,,,0.0102916091503078,-1.91656327698917,0.0821456291420357,,-1.7400511659392035,,
,4833.0,1184.0,4996.0,1550.0,2747.0,2469.0,1495.0,,,,0.0102982400919147,-1.91658648027131,0.0820966355764201,,-2.0631471677608837,,
,4829.0,1183.0,4996.0,1547.0,2737.0,2477.0,1483.0,,,,0.0103611464686839,-1.91675905363499,0.0821194753194947,,-2.3520936642304013,,
,4828.0,1184.0,4997.0,1550.0,2733.0,2470.0,1497.0,,,,0.0103931751371787,-1.91594526203091,0.0821820242543515,,-2.606781570940597,,
,4835.0,1185.0,4997.0,1550.0,2730.0,2467.0,1491.0,,,,0.0105108334581743,-1.91543988708923,0.0821628089060755,,-2.828561819279469,,
,4832.0,1183.0,4998.0,1548.0,2731.0,2473.0,1486.0,,,,0.0105266070302626,-1.91516985215408,0.0821829841708153,,-3.0198958636572946,,
,4831.0,1185.0,4997.0,1549.0,2729.0,2474.0,1507.0,,,,0.0105982125161471,-1.91477457855437,0.0822454924173173,,-3.183902287497687,,
,4830.0,1182.0,4995.0,1549.0,2717.0,2469.0,1512.0,,,,0.010701762994976,-1.91481900376992,0.0822323509106207,,-3.3238367840096843,,
,4835.0,1185.0,4997.0,1552.0,2730.0,2457.0,1494.0,,,,0.0108597488487543,-1.91450444685016,0.0822877524056006,,-3.4425559960581733,,
,4832.0,1186.0,4996.0,1552.0,2708.0,2454.0,1496.0,,,,0.0107735783840202,-1.91469612682635,0.0822166381327931,,-3.5420245255884266,,
,4832.0,1187.0,4996.0,1548.0,2708.0,2459.0,1500.0,,,,0.0107176974616707,-1.91447975939962,0.0822552411890207,,-3.622926533327695,,
,4833.0,1181.0,4997.0,1547.0,2727.0,2472.0,1491.0,,,,0.0107977650325797,-1.91417046480099,0.0822836048428305,,-3.6844369953494263,,
,4834.0,1185.0,4996.0,1551.0,2736.0,2476.0,1474.0,,,,0.0108951415868016,-1.91358687502714,0.0823262792097304,,-3.724192330464278,,
,4835.0,1185.0,4996.0,1549.0,2739.0,2469.0,1470.0,,,,0.0111440396737239,-1.91282296446785,0.082325129096456,,-3.738477037221572,,
,4832.0,1187.0,4997.0,1552.0,2743.0,2469.0,1473.0,,,,0.0112095120650622,-1.91285299318658,0.0823279657213624,,-3.7226152944079938,,
,4833.0,1184.0,4996.0,1549.0,2734.0,2475.0,1480.0,,,,0.0114509506668294,-1.91244507753818,0.0823241766119387,,-3.6715284125810204,,
,4832.0,1184.0,4994.0,1551.0,2730.0,2471.0,1476.0,,,,0.0117460860602008,-1.91167852153557,0.0823797335025695,,-3.5803950028425024,,
,4835.0,1185.0,4997.0,1551.0,2736.0,2478.0,1475.0,,,,0.0119673091994667,-1.91091052400648,0.0824749821139713,,-3.4453348461402684,,
,4837.0,1187.0,4999.0,1552.0,2741.0,2477.0,1472.0,,,,0.0120224602066971,-1.90996766363824,0.0824251474851231,,-3.264033044265733,,
,4837.0,1185.0,4997.0,1553.0,2745.0,2477.0,1484.0,,,,0.0121590996425986,-1.90942016462906,0.0825715383449869,,-3.03622985915407,,
,4834.0,1184.0,4998.0,1549.0,2744.0,2481.0,1478.0,,,,0.0122971340594764,-1.90874242439264,0.0825537086502353,,-2.764022804665008,,
,4838.0,1185.0,4996.0,1552.0,2727.0,2475.0,1476.0,,,,0.0125589164343956,-1.9083048751527,0.0825834402452539,,-2.451956900499087,,
,4839.0,1184.0,5000.0,1554.0,2741.0,2467.0,1493.0,,,,0.0125708446542259,-1.90838646451377,0.0826141520200385,,-2.1069095930181705,,
,4840.0,1187.0,4999.0,1553.0,2743.0,2467.0,1481.0,,,,0.0126605994118664,-1.90827308266281,0.0826164006107896,,-1.7378010481649346,,
,4840.0,1185.0,5000.0,1552.0,2745.0,2470.0,1489.0,,,,0.0127391877006803,-1.90825751088709,0.0826164826356449,,-1.3551731660308772,,
,4842.0,1185.0,5001.0,1554.0,2745.0,2472.0,1493.0,,,,0.0127870491850667,-1.9084538318108,0.0825650117281744,,-0.970681283188909,,
,4843.0,1186.0,5002.0,1559.0,2733.0,2477.0,1492.0,,,,0.0127206344009116,-1.90876074436008,0.0825304587575162,,-0.5965348652529285,,
,4842.0,1187.0,5003.0,1556.0,2729.0,2476.0,1492.0,,,,0.0126707858476718,-1.90925699115708,0.0825039099637485,,-0.2449129279000238,,
,4842.0,1186.0,5002.0,1555.0,2735.0,2467.0,1506.0,,,,0.0126158905790071,-1.90971137762584,0.0825568276350723,,0.07262904313361952,,
,4843.0,1185.0,5002.0,1555.0,2725.0,2462.0,1501.0,,,,0.0128329182446156,-1.9095476778008,0.0826037009227656,,0.3457485628770175,,
,4847.0,1187.0,5003.0,1558.0,2729.0,2460.0,1504.0,,,,0.0129133452775737,-1.90913707344936,0.0825388391917069,,0.5658891101305755,,
,4848.0,1185.0,5006.0,1556.0,2716.0,2466.0,1506.0,,,,0.0130847746562169,-1.9090827684706,0.0826101751618601,,0.7268178088055711,,
,4851.0,1190.0,5006.0,1560.0,2718.0,2474.0,1488.0,,,,0.0132772507146291,-1.90855955480524,0.0825950180311662,,0.8251000932679418,,
,4850.0,1186.0,5006.0,1561.0,2732.0,2468.0,1488.0,,,,0.0137012170839873,-1.90804222980637,0.0826471123521388,,0.8604747963343246,,
,4853.0,1190.0,5011.0,1562.0,2727.0,2479.0,1472.0,,,,0.0139369275385964,-1.90813347804997,0.0825501840365397,,0.836087891434354,,
,4849.0,1186.0,5008.0,1561.0,2724.0,2465.0,1468.0,,,,0.0138969235587245,-1.90834173310511,0.0826682152636681,,0.7585444321686872,,
,4855.0,1190.0,5010.0,1561.0,2730.0,2463.0,1481.0,,,,0.0140165407357356,-1.90825470379473,0.0827400501038853,,0.6377477422496726,,
,4854.0,1185.0,5010.0,1561.0,2736.0,2464.0,1481.0,,,,0.0140619167711624,-1.90844251644901,0.0826790877182909,,0.4865124366840877,,
,4855.0,1188.0,5014.0,1561.0,2742.0,2476.0,1477.0,,,,0.0139622360047125,-1.9092410775561,0.0826800886727768,,0.31996089158410085,,
,4855.0,1191.0,5014.0,1564.0,2743.0,2495.0,1474.0,,,,0.013845876753302,-1.90901177930661,0.0826949793122534,,0.15473687296903224,,
,4861.0,1189.0,5015.0,1562.0,2733.0,2487.0,1475.0,,,,0.0138173555189927,-1.90962653413891,0.0825329967325631,,0.008090398293742456,,
,4856.0,1189.0,5014.0,1562.0,2728.0,2477.0,1476.0,,,,0.0137549813230264,-1.90979717636134,0.082519181006465,,-0.1030986425317383,,
,4857.0,1187.0,5017.0,1564.0,2734.0,2468.0,1471.0,,,,0.013776370643828,-1.90975560763519,0.0825767988388799,,-0.16328488964369148,,
,4859.0,1189.0,5019.0,1563.0,2731.0,2472.0,1474.0,,,,0.013697784000916,-1.90995021073134,0.0825845781862701,,-0.1591381726457695,,
,4863.0,1192.0,5020.0,1566.0,2734.0,2471.0,1485.0,,,,0.0139739588591836,-1.90945820801862,0.082685694710018,,-0.08027639541991145,,
,4861.0,1190.0,5017.0,1564.0,2740.0,2467.0,1483.0,,,,0.0141589461912499,-1.90899519873,0.0827227134396405,,0.0801999601285696,,
,4862.0,1188.0,5021.0,1564.0,2761.0,2468.0,1469.0,,,,0.0141954106408661,-1.90890393867243,0.0827756714198944,,0.32540388090328126,,
,4865.0,1191.0,5025.0,1566.0,2752.0,2484.0,1484.0,,,,0.0143812010138906,-1.90834942252081,0.0827954059375379,,0.6545985953915523,,
,4867.0,1192.0,5025.0,1569.0,2750.0,2473.0,1485.0,,,,0.0145663804341604,-1.90808195439697,0.0828182381053202,,1.0633623570070305,,
,4866.0,1191.0,5023.0,1568.0,2749.0,2469.0,1468.0,,,,0.0147341360666398,-1.90785008993445,0.0828218035517457,,1.543948219392125,,
,4866.0,1190.0,5021.0,1565.0,2747.0,2474.0,1452.0,,,,0.0149509883079902,-1.90773809400707,0.0829046033412815,,2.0857911989573497,,
,4864.0,1192.0,5026.0,1569.0,2741.0,2468.0,1475.0,,,,0.0151297311574951,-1.90718286169689,0.0829086869770977,,2.676108034538887,,
,4865.0,1193.0,5029.0,1569.0,2719.0,2472.0,1471.0,,,,0.015148123890466,-1.9069788207875,0.0829415562350092,,3.300535033170927,,
,4862.0,1192.0,5024.0,1568.0,2714.0,2469.0,1462.0,,,,0.0152413375098566,-1.90693314867751,0.0829251356492532,,3.943756090365317,,
,4861.0,1189.0,5026.0,1566.0,2707.0,2480.0,1461.0,,,,0.0151824084244657,-1.90654881420927,0.0829893219767104,,4.5900838225462355,,
,4856.0,1189.0,5021.0,1565.0,2708.0,2477.0,1476.0,,,,0.0152544979346533,-1.90611893458259,0.0829336897532671,,5.22396921653093,,
,4855.0,1190.0,5021.0,1565.0,2724.0,2471.0,1487.0,,,,0.0151212708117077,-1.90654506087521,0.0830508850142738,,5.830426936885003,,
,4853.0,1187.0,5016.0,1565.0,2736.0,2469.0,1488.0,,,,0.0150650897121059,-1.90664259696192,0.0829335233457441,,6.395373168335681,,
,4849.0,1187.0,5015.0,1562.0,2735.0,2473.0,1505.0,,,,0.015076300177789,-1.9067476183063,0.0829060662414643,,6.9058804724785965,,
,4846.0,1186.0,5011.0,1563.0,2731.0,2472.0,1515.0,,,,0.0151469115795214,-1.90607563888923,0.0830402732610541,,7.350360020967656,,
,4845.0,1185.0,5010.0,1560.0,2733.0,2472.0,1500.0,,,,0.0150268406103359,-1.90576731204784,0.0830022238703247,,7.718686089869875,,
,4843.0,1185.0,5009.0,1561.0,2747.0,2471.0,1507.0,,,,0.0151147553444162,-1.90515681479834,0.0831373272859004,,8.002280876712906,,
,4842.0,1185.0,5004.0,1560.0,2747.0,2475.0,1495.0,,,,0.0151920003096653,-1.90460417713341,0.083066265688794,,8.19417911844078,,
,4840.0,1181.0,5003.0,1560.0,2752.0,2470.0,1484.0,,,,0.0153739635328777,-1.90383176190456,0.0831483990345377,,8.289090892940049,,
,4838.0,1185.0,5002.0,1559.0,2747.0,2466.0,1466.0,,,,0.0154606009756738,-1.90386161142947,0.0831855503600686,,8.283476824974024,,
,4839.0,1186.0,5002.0,1557.0,2748.0,2463.0,1470.0,,,,0.0153691854156397,-1.90371627632781,0.0831630642973889,,8.175642991775954,,
,4839.0,1182.0,4998.0,1557.0,2744.0,2466.0,1463.0,,,,0.0154554627025081,-1.90342703870147,0.0832070921378747,,7.9658541220741315,,
,4838.0,1183.0,4997.0,1558.0,2732.0,2464.0,1478.0,,,,0.0153451443797246,-1.9036990342304,0.0831933025594123,,7.65645402048511,,
,4838.0,1182.0,4999.0,1557.0,2757.0,2469.0,1483.0,,,,0.0152741828249388,-1.90398903227237,0.0831733315848389,,7.251972105166191,,
,4842.0,1184.0,4998.0,1559.0,2756.0,2466.0,1470.0,,,,0.0152528350658852,-1.90462186831731,0.0831793271725854,,6.759185937830977,,
,4842.0,1183.0,4995.0,1556.0,2734.0,2458.0,1455.0,,,,0.0150691026647384,-1.9044295823163,0.0831561604597139,,6.187104485199461,,
,4845.0,1184.0,4997.0,1557.0,2730.0,2460.0,1459.0,,,,0.0150626688834207,-1.90456362525612,0.08315096299298,,5.54683875674112,,
,4846.0,1183.0,4995.0,1555.0,2733.0,2462.0,1452.0,,,,0.0152724154514855,-1.90507339683986,0.0832477576541637,,4.851337083429298,,
,4846.0,1182.0,4996.0,1558.0,2734.0,2472.0,1475.0,,,,0.0152815757560298,-1.90480338458154,0.0831589013605135,,4.114980526298552,,
,4845.0,1183.0,4996.0,1558.0,2729.0,2472.0,1490.0,,,,0.0154148019966339,-1.90486411268815,0.0832387619795179,,3.3530556941135705,,
,4845.0,1184.0,4995.0,1560.0,2726.0,2470.0,1478.0,,,,0.0154938093204541,-1.90486449855525,0.0831909022760543,,2.581141848658049,,
,4846.0,1181.0,4996.0,1558.0,2726.0,2469.0,1476.0,,,,0.0154538052918132,-1.90447172653627,0.0832291866363271,,1.8144616055006126,,
,4845.0,1184.0,4997.0,1558.0,2736.0,2464.0,1488.0,,,,0.0155355405635138,-1.90433209508883,0.0832133028056738,,1.0672479208799828,,
,4848.0,1186.0,4999.0,1560.0,2736.0,2468.0,1481.0,,,,0.0154981966908434,-1.90433638648752,0.0832671362855319,,0.35217573880863273,,
,4849.0,1183.0,4997.0,1561.0,2746.0,2468.0,1486.0,,,,0.0155779127069685,-1.90382869083547,0.0832903061782784,,-0.3201026735728804,,
,4850.0,1184.0,5001.0,1561.0,2739.0,2470.0,1461.0,,,,0.0158113335687227,-1.90373962818461,0.0833349315745696,,-0.9412916835305394,,
,4847.0,1185.0,5000.0,1561.0,2729.0,2473.0,1493.0,,,,0.0158729543972584,-1.90384699458134,0.0832708318731295,,-1.5056413768934762,,
,4851.0,1184.0,4999.0,1560.0,2732.0,2477.0,1474.0,,,,0.0158516671850758,-1.90424640941523,0.0833082541222763,,-2.0099898875263147,,
,4851.0,1185.0,4999.0,1560.0,2726.0,2472.0,1467.0,,,,0.0158766580302074,-1.90404468859824,0.0832748066104293,,-2.4536679269911557,,
,4850.0,1185.0,5000.0,1562.0,2716.0,2473.0,1450.0,,,,0.0157673985527802,-1.9040949830523,0.0833219805651674,,-2.838283314538263,,
,4849.0,1183.0,4998.0,1562.0,2719.0,2476.0,1460.0,,,,0.0156193256906903,-1.90421287062601,0.0832616954498528,,-3.16740944275789,,
,4848.0,1182.0,4998.0,1561.0,2718.0,2476.0,1484.0,,,,0.0156520972399006,-1.90425376986742,0.0832237350249972,,-3.4462042611566788,,
,4850.0,1185.0,4999.0,1563.0,2724.0,2479.0,1488.0,,,,0.0153575145470663,-1.90500444667026,0.0832329959974894,,-3.680985555456647,,
,4849.0,1183.0,5001.0,1562.0,2729.0,2482.0,1494.0,,,,0.0154352061424919,-1.9052848245272,0.0832422218878354,,-3.8787853015623908,,
,4847.0,1182.0,4998.0,1561.0,2731.0,2482.0,1480.0,,,,0.0152577852857579,-1.90556341287752,0.0831710048099753,,-4.046902425268442,,
,4849.0,1183.0,4997.0,1560.0,2725.0,2475.0,1453.0,,,,0.015321940126478,-1.90550996252342,0.0833185546529132,,-4.192470611714415,,
,4849.0,1186.0,5002.0,1562.0,2722.0,2476.0,1475.0,,,,0.0150411616860395,-1.90531698677204,0.0831608366458451,,-4.322056173889832,,
,4847.0,1183.0,5000.0,1560.0,2722.0,2475.0,1472.0,,,,0.0150143914333967,-1.90536447637009,0.08325975222984,,-4.441300042588486,,
,4850.0,1181.0,4998.0,1560.0,2725.0,2465.0,1468.0,,,,0.0150043856867336,-1.90470139941409,0.0831809722976766,,-4.554617160893466,,
,4847.0,1184.0,4997.0,1561.0,2734.0,2464.0,1483.0,,,,0.0150319600796915,-1.90461376634892,0.0832180134137313,,-4.664965645236209,,
,4851.0,1183.0,4999.0,1561.0,2731.0,2470.0,1504.0,,,,0.014998435130507,-1.90455041888181,0.0831893030112454,,-4.773696899739404,,
,4849.0,1186.0,5002.0,1563.0,2725.0,2462.0,1482.0,,,,0.0150545202781129,-1.90421097584923,0.0832213043547022,,-4.880496225707773,,
,4852.0,1184.0,5001.0,1563.0,2731.0,2470.0,1478.0,,,,0.014911330129026,-1.90459897277516,0.0831918048684938,,-4.983420852786726,,
,4853.0,1184.0,5001.0,1561.0,2738.0,2475.0,1453.0,,,,0.0149846794743879,-1.9050050287154,0.0832077884252639,,-5.079038183498405,,
,4854.0,1185.0,5004.0,1561.0,2731.0,2475.0,1456.0,,,,0.0149052538766588,-1.90446124136662,0.0831921879789822,,-5.1626612918616415,,
,4855.0,1185.0,5002.0,1563.0,2732.0,2472.0,1481.0,,,,0.0148484618918545,-1.90505141546603,0.0831648576930351,,-5.228671926098593,,
,4855.0,1185.0,5004.0,1561.0,2736.0,2473.0,1486.0,,,,0.0146679666840363,-1.9054945362706,0.0831818684318141,,-5.2709143442650905,,
,4856.0,1185.0,5001.0,1561.0,2729.0,2471.0,1472.0,,,,0.0145686516225066,-1.90657626122536,0.0830917727178314,,-5.283137020001424,,
,4853.0,1184.0,5003.0,1563.0,2720.0,2478.0,1480.0,,,,0.0144986618992205,-1.90685638333974,0.0830793759630313,,-5.259454095427165,,
,4857.0,1186.0,5006.0,1563.0,2741.0,2475.0,1476.0,,,,0.0145579216886682,-1.9066003810386,0.0831035703006441,,-5.1947947988123495,,
,4858.0,1185.0,5010.0,1566.0,2739.0,2473.0,1491.0,,,,0.0147246929499961,-1.90596975058292,0.0830579439773077,,-5.085307153688148,,
2025-07-15 23:13:13,4859.0,1189.0,5010.0,1565.0,2733.0,2470.0,1492.0,,,2025/07/15 11:13:13 PM,0.0151002993636048,-1.90536881294112,0.0832067264693888,,-4.928682440870304,,
,4860.0,1185.0,5010.0,1566.0,2736.0,2476.0,1502.0,,,,0.0150051744394345,-1.90490095677268,0.083179297342642,,-4.724369602648875,,
,4860.0,1187.0,5010.0,1567.0,2748.0,2472.0,1493.0,,,,0.015172288537857,-1.90462426643995,0.0832158557043692,,-4.473655145248629,,
,4860.0,1187.0,5011.0,1567.0,2742.0,2469.0,1497.0,,,,0.0150166711642796,-1.90462038644932,0.0831813214978805,,-4.179595151186352,,
,4862.0,1188.0,5014.0,1568.0,2745.0,2474.0,1495.0,,,,0.0150001366224951,-1.90512292425953,0.0832087893799895,,-3.846801738442305,,
,4861.0,1188.0,5013.0,1566.0,2752.0,2476.0,1496.0,,,,0.0148475109679292,-1.90538086090007,0.083172396125084,,-3.4811045896835755,,
,4865.0,1187.0,5017.0,1568.0,2748.0,2465.0,1493.0,,,,0.0146126958934176,-1.90534840696598,0.0831432220772311,,-3.0891247977531484,,
,4864.0,1190.0,5016.0,1568.0,2755.0,2458.0,1489.0,,,,0.0145070684806892,-1.90640423717148,0.0831196703731653,,-2.677808569954509,,
,4866.0,1191.0,5017.0,1567.0,2755.0,2461.0,1483.0,,,,0.0143634999286233,-1.90672902394893,0.0831258437207902,,-2.253969913699131,,
,4864.0,1189.0,5018.0,1567.0,2750.0,2473.0,1453.0,,,,0.0142229585632848,-1.90693331879118,0.0831366447501883,,-1.8238855803435168,,
,4865.0,1190.0,5022.0,1570.0,2741.0,2465.0,1454.0,,,,0.014172862858886,-1.90774024592975,0.0830620705057144,,-1.3929758149887506,,
,4866.0,1193.0,5025.0,1571.0,2748.0,2459.0,1437.0,,,,0.0141232624962826,-1.90792897054958,0.0830731520698434,,-0.9655939268455644,,
,4868.0,1190.0,5025.0,1571.0,2742.0,2460.0,1439.0,,,,0.0140132991307126,-1.90818031038412,0.0831234965134464,,-0.5449375902560977,,
,4869.0,1191.0,5026.0,1571.0,2727.0,2450.0,1446.0,,,,0.0141283509688707,-1.90779674251339,0.083106009395523,,-0.13308497847421638,,
,4869.0,1193.0,5025.0,1570.0,2739.0,2437.0,1456.0,,,,0.0143922002394278,-1.90725955073335,0.0831060368819681,,0.26885110016901104,,
,4870.0,1193.0,5029.0,1570.0,2735.0,2434.0,1457.0,,,,0.014312429336596,-1.90691198295529,0.0831195703149123,,0.6604679896571313,,
,4876.0,1193.0,5030.0,1571.0,2736.0,2453.0,1439.0,,,,0.0146295587684873,-1.90609304696789,0.0831530387295807,,1.0417435413369323,,
,4873.0,1193.0,5033.0,1572.0,2733.0,2460.0,1446.0,,,,0.0147430239767893,-1.90579702636423,0.0832598535819949,,1.412666960185544,,
,4874.0,1192.0,5033.0,1572.0,2724.0,2459.0,1488.0,,,,0.0150442867877283,-1.90572010748026,0.0833309772564095,,1.7728705934253077,,
,4873.0,1192.0,5033.0,1572.0,2733.0,2468.0,1501.0,,,,0.0151696435178481,-1.90547443937138,0.0832977736666899,,2.121304690810503,,
,4873.0,1197.0,5034.0,1577.0,2754.0,2473.0,1502.0,,,,0.0152678853454427,-1.90575335223767,0.0832515190618057,,2.4559939107103195,,
,4871.0,1194.0,5036.0,1572.0,2742.0,2471.0,1500.0,,,,0.015294499432621,-1.90569548144784,0.0832932357080301,,2.7739058373918435,,
,4868.0,1193.0,5035.0,1572.0,2735.0,2486.0,1509.0,,,,0.015371847479542,-1.90531764949696,0.0833311501273033,,3.070948533067339,,
,4865.0,1190.0,5035.0,1572.0,2741.0,2474.0,1503.0,,,,0.0152061967451896,-1.90523737342764,0.0833287677808127,,3.3420981058941748,,
,4864.0,1191.0,5033.0,1571.0,2725.0,2465.0,1494.0,,,,0.0153872345161972,-1.9055182283119,0.0833608735150921,,3.5816414614146823,,
,4862.0,1191.0,5032.0,1570.0,2722.0,2466.0,1506.0,,,,0.0154279017191987,-1.90514570906536,0.0834781613397139,,3.783506846209094,,
,4861.0,1190.0,5032.0,1568.0,2706.0,2466.0,1525.0,,,,0.015557920571563,-1.90405374344442,0.0833672779653443,,3.941647450591708,,
,4856.0,1189.0,5027.0,1566.0,2730.0,2464.0,1488.0,,,,0.0155697042804066,-1.90401580000705,0.0834517094489223,,4.050441687147696,,
,4856.0,1186.0,5025.0,1567.0,2726.0,2466.0,1496.0,,,,0.0156324578536319,-1.90342090089916,0.0834629826887081,,4.105076934181032,,
,4851.0,1189.0,5025.0,1566.0,2723.0,2466.0,1514.0,,,,0.0156746344067487,-1.90367029973786,0.0835280134633422,,4.101889762332744,,
,4851.0,1188.0,5021.0,1564.0,2716.0,2461.0,1502.0,,,,0.0156637842995474,-1.9036730398526,0.0835407152792219,,4.038642963861683,,
,4850.0,1184.0,5017.0,1560.0,2726.0,2455.0,1501.0,,,,0.0157967513153893,-1.90356123839854,0.083557749570598,,3.914726484654227,,
,4849.0,1186.0,5016.0,1564.0,2737.0,2461.0,1473.0,,,,0.0158838835993706,-1.90343289026718,0.0835563667003426,,3.731274568075798,,
,4846.0,1186.0,5015.0,1564.0,2733.0,2458.0,1460.0,,,,0.0159309665222594,-1.90334985379302,0.083536353904511,,3.491194559109215,,
,4847.0,1187.0,5014.0,1564.0,2731.0,2452.0,1473.0,,,,0.015941096836463,-1.9033695891221,0.0835525025259454,,3.199104354681166,,
,4845.0,1185.0,5014.0,1561.0,2712.0,2459.0,1455.0,,,,0.0160137167067517,-1.90381300186534,0.0836010126116946,,2.8611771128585484,,
,4845.0,1183.0,5013.0,1560.0,2731.0,2467.0,1461.0,,,,0.0160945529179407,-1.90367471436955,0.0835596240155917,,2.4848956479256388,,
,4848.0,1186.0,5011.0,1562.0,2735.0,2463.0,1469.0,,,,0.0161593670534709,-1.90303411769219,0.0835621257770039,,2.0787259780178045,,
,4849.0,1185.0,5009.0,1562.0,2738.0,2462.0,1453.0,,,,0.0163376353507291,-1.9033278115584,0.0836308547991844,,1.651728865282798,,
,4848.0,1185.0,5011.0,1562.0,2739.0,2467.0,1466.0,,,,0.0164154559395382,-1.90318092325762,0.0836760887939759,,1.2131373164058437,,
,4849.0,1185.0,5010.0,1563.0,2745.0,2475.0,1466.0,,,,0.0166561992430844,-1.90275325828836,0.083709326354718,,0.7719337504145298,,
,4850.0,1182.0,5011.0,1563.0,2735.0,2470.0,1479.0,,,,0.0168349450698839,-1.90254544203879,0.0837398279566849,,0.3364607995381982,,
,4849.0,1184.0,5010.0,1562.0,2728.0,2464.0,1482.0,,,,0.0167140128924885,-1.90243956813871,0.083711077429015,,-0.08590533371628584,,
,4851.0,1184.0,5012.0,1561.0,2730.0,2462.0,1479.0,,,,0.0168217265416043,-1.90260997976517,0.0837143263936116,,-0.48899829220936997,,
,4849.0,1183.0,5012.0,1561.0,2737.0,2459.0,1486.0,,,,0.0168682939679622,-1.90204176961213,0.0837346027788589,,-0.8680102421614666,,
,4852.0,1184.0,5010.0,1564.0,2746.0,2468.0,1462.0,,,,0.0170746613681927,-1.90231271559902,0.0836507150511311,,-1.2195431036951672,,
,4853.0,1184.0,5013.0,1561.0,2733.0,2465.0,1491.0,,,,0.0170486533875308,-1.90206534697081,0.0837757000514977,,-1.5415676589891842,,
,4855.0,1185.0,5015.0,1564.0,2741.0,2467.0,1491.0,,,,0.0169730879448854,-1.90247342342833,0.0837795458786688,,-1.8333028684131427,,
,4855.0,1186.0,5014.0,1562.0,2734.0,2477.0,1473.0,,,,0.0173618162982816,-1.90152765349999,0.0838008858632224,,-2.0950331572092624,,
,4854.0,1184.0,5014.0,1560.0,2735.0,2490.0,1480.0,,,,0.0175181086402533,-1.90078799229656,0.0838739090629409,,-2.3278844237313026,,
,4855.0,1183.0,5016.0,1564.0,2745.0,2483.0,1475.0,,,,0.0176727676043867,-1.89998578709966,0.0838972482444165,,-2.5335792997996847,,
,4857.0,1186.0,5016.0,1562.0,2723.0,2470.0,1502.0,,,,0.0174895527960688,-1.89935113583344,0.0838556542187696,,-2.7141889388500995,,
,4857.0,1183.0,5016.0,1563.0,2716.0,2477.0,1507.0,,,,0.0176330689575408,-1.89906909030821,0.083862676149882,,-2.8718938217457066,,
,4856.0,1184.0,5016.0,1561.0,2733.0,2472.0,1490.0,,,,0.0176768683846653,-1.89943083377313,0.0838772113765041,,-3.0087618877748525,,
,4860.0,1182.0,5014.0,1562.0,2738.0,2477.0,1496.0,,,,0.0176092745948945,-1.89915865997861,0.0838667400457186,,-3.126550288248022,,
,4857.0,1185.0,5017.0,1562.0,2730.0,2473.0,1477.0,,,,0.017581299934315,-1.89960489328565,0.0839397114022123,,-3.2265374904150947,,
,4854.0,1185.0,5016.0,1564.0,2733.0,2470.0,1466.0,,,,0.017602134645735,-1.8996482911422,0.0839098016824206,,-3.3093942571236985,,
,4854.0,1183.0,5015.0,1563.0,2722.0,2465.0,1491.0,,,,0.0176387566598357,-1.89996706667747,0.0838244292489493,,-3.3751033215216566,,
,4855.0,1183.0,5016.0,1562.0,2723.0,2459.0,1474.0,,,,0.0176577896004735,-1.90029457073958,0.0838976418988975,,-3.4229366798219347,,
,4857.0,1183.0,5016.0,1563.0,2727.0,2463.0,1478.0,,,,0.0177108215432508,-1.90005821070762,0.0839020064260928,,-3.4514956763001896,,
,4855.0,1181.0,5016.0,1563.0,2728.0,2466.0,1485.0,,,,0.0175913221522489,-1.90037637988451,0.0837962948004539,,-3.4588129472931484,,
,4855.0,1183.0,5016.0,1563.0,2737.0,2467.0,1496.0,,,,0.017589066611303,-1.90072399047395,0.0838032286827799,,-3.442508129618917,,
,4855.0,1182.0,5014.0,1560.0,2755.0,2459.0,1497.0,,,,0.0176141842334488,-1.90071320361957,0.0838908283745077,,-3.399982781171142,,
,4854.0,1184.0,5018.0,1562.0,2754.0,2455.0,1488.0,,,,0.0176259383738161,-1.90050570362529,0.0838910856273711,,-3.3286359565477235,,
,4857.0,1184.0,5016.0,1564.0,2752.0,2466.0,1494.0,,,,0.0177621020248844,-1.90001651880012,0.0838592298794818,,-3.226081369476121,,
,4859.0,1183.0,5017.0,1562.0,2758.0,2467.0,1494.0,,,,0.017918899737438,-1.89915394157398,0.0839084840958566,,-3.0903499377696457,,
,4854.0,1179.0,5018.0,1561.0,2762.0,2466.0,1498.0,,,,0.0178698741352338,-1.8989971698095,0.0838849770253093,,-2.920066623184982,,
,4858.0,1179.0,5017.0,1563.0,2759.0,2462.0,1463.0,,,,0.0176380191114491,-1.89929540767005,0.0838626967581932,,-2.7145960528435724,,
,4861.0,1182.0,5017.0,1562.0,2744.0,2463.0,1476.0,,,,0.0176943240039116,-1.89933431816956,0.0837941971223983,,-2.474155295403744,,
,4859.0,1183.0,5019.0,1565.0,2749.0,2460.0,1480.0,,,,0.0177532963911388,-1.89986357833665,0.083872023766075,,-2.199892836107147,,
,4860.0,1180.0,5017.0,1563.0,2760.0,2454.0,1460.0,,,,0.0177256422622127,-1.89948286228909,0.0838066261530662,,-1.8939307634882196,,
,4862.0,1182.0,5019.0,1562.0,2739.0,2454.0,1476.0,,,,0.017602074977052,-1.90029432245935,0.0838235375460639,,-1.559365004982425,,
,4863.0,1184.0,5020.0,1566.0,2748.0,2466.0,1484.0,,,,0.0174896305511364,-1.90076196788588,0.0838208819869611,,-1.2002185185132443,,
,4864.0,1183.0,5020.0,1564.0,2736.0,2463.0,1483.0,,,,0.0174174188237093,-1.90109127036192,0.083802970339621,,-0.8213448560209038,,
,4865.0,1183.0,5021.0,1565.0,2737.0,2468.0,1466.0,,,,0.0172655755418147,-1.9019884018871,0.0837705867545761,,-0.42828301849899175,,
,4864.0,1181.0,5021.0,1563.0,2726.0,2461.0,1476.0,,,,0.017120332726898,-1.90214815812418,0.0837241386332736,,-0.027067881815252794,,
,4866.0,1183.0,5023.0,1569.0,2719.0,2465.0,1504.0,,,,0.0172722044981908,-1.90216530026826,0.0836913469904886,,0.37599632439177777,,
,4866.0,1183.0,5027.0,1565.0,2725.0,2462.0,1502.0,,,,0.0173023197561678,-1.90271369145665,0.0836701687698353,,0.7745883684681638,,
,4867.0,1185.0,5027.0,1566.0,2726.0,2469.0,1489.0,,,,0.0173551442932738,-1.90287902881958,0.0837482013144704,,1.1626326283334973,,
,4868.0,1182.0,5029.0,1566.0,2724.0,2467.0,1504.0,,,,0.0173031525195972,-1.90286445300973,0.0836657363203094,,1.534551612393399,,
,4868.0,1185.0,5027.0,1567.0,2710.0,2472.0,1498.0,,,,0.0173939745682769,-1.9030574136026,0.0837372054348875,,1.8854845805069922,,
,4870.0,1185.0,5029.0,1570.0,2727.0,2469.0,1468.0,,,,0.0174679651005512,-1.90303780854752,0.0837455284481855,,2.2114484180350282,,
,4873.0,1185.0,5031.0,1567.0,2734.0,2464.0,1458.0,,,,0.0173727484364775,-1.90334616032892,0.0837157256336359,,2.509421578722592,,
,4871.0,1184.0,5030.0,1569.0,2724.0,2459.0,1444.0,,,,0.017298500747565,-1.90298915286731,0.0836194702931237,,2.7773410248437247,,
,4873.0,1183.0,5031.0,1568.0,2722.0,2461.0,1456.0,,,,0.0172183927661331,-1.90310203543746,0.0836969526194009,,3.0140140750601896,,
,4875.0,1185.0,5033.0,1570.0,2727.0,2468.0,1493.0,,,,0.0173309244089237,-1.90361416907963,0.0836490961585891,,3.21895951706637,,
,4874.0,1184.0,5035.0,1568.0,2740.0,2464.0,1483.0,,,,0.0175695215279874,-1.90282725998224,0.083645222059083,,3.3922025873205115,,
,4874.0,1186.0,5035.0,1569.0,2751.0,2463.0,1465.0,,,,0.0176530038879109,-1.90259217579319,0.0837236682839082,,3.5340543376410034,,
,4877.0,1186.0,5035.0,1569.0,2744.0,2463.0,1474.0,,,,0.0177050542541151,-1.9026518572163,0.0836633752636283,,3.644906544251454,,
,4875.0,1187.0,5037.0,1571.0,2727.0,2461.0,1484.0,,,,0.0176929795090991,-1.90252394689314,0.083646814096142,,3.7250688179571845,,
,4876.0,1186.0,5039.0,1571.0,2745.0,2465.0,1466.0,,,,0.0177259953406343,-1.90224542058818,0.0836868245060202,,3.774665877532155,,
,4877.0,1186.0,5040.0,1570.0,2761.0,2466.0,1473.0,,,,0.0177889698269612,-1.90250087508314,0.0837423805885977,,3.793601796371423,,
,4875.0,1186.0,5040.0,1571.0,2776.0,2461.0,1487.0,,,,0.017565952682894,-1.90199005358424,0.0836819647830602,,3.7815868977801546,,
,4879.0,1187.0,5045.0,1573.0,2768.0,2477.0,1492.0,,,,0.0177134330716457,-1.9015096646597,0.0836845698448286,,3.738214328445808,,
,4880.0,1190.0,5044.0,1574.0,2735.0,2478.0,1504.0,,,,0.0179565699208014,-1.90031706931011,0.0837726424776461,,3.663068762795388,,
,4883.0,1189.0,5045.0,1574.0,2735.0,2472.0,1499.0,,,,0.018093733072464,-1.90000801189201,0.0838228693826187,,3.5558494741186117,,
,4880.0,1188.0,5047.0,1571.0,2730.0,2458.0,1513.0,,,,0.018275382796653,-1.89949407013796,0.0838521448358504,,3.416493222917498,,
,4883.0,1190.0,5047.0,1574.0,2733.0,2461.0,1511.0,,,,0.0184147670169821,-1.8996383024235,0.0838943378543431,,3.2452873376004803,,
,4882.0,1187.0,5051.0,1575.0,2727.0,2471.0,1509.0,,,,0.0185952228130732,-1.89904968006655,0.0839606572066758,,3.042968283717073,,
,4884.0,1187.0,5050.0,1574.0,2731.0,2472.0,1507.0,,,,0.0188782856234492,-1.89847720891966,0.0839753198804847,,2.8108048381148723,,
,4881.0,1191.0,5049.0,1575.0,2738.0,2462.0,1504.0,,,,0.0190334337719928,-1.89779775269149,0.0839827453571881,,2.5506670099231443,,
,4878.0,1188.0,5051.0,1574.0,2734.0,2465.0,1497.0,,,,0.0190700634478554,-1.89728581181289,0.0840101740714672,,2.265081398815536,,
,4879.0,1189.0,5052.0,1573.0,2727.0,2467.0,1506.0,,,,0.0190986096286192,-1.89693999372123,0.0839971421933716,,1.9572705749952186,,
,4877.0,1188.0,5049.0,1574.0,2713.0,2477.0,1491.0,,,,0.0191728472290697,-1.89678182066834,0.0839931724290985,,1.6311694589566759,,
,4871.0,1189.0,5050.0,1572.0,2717.0,2471.0,1509.0,,,,0.0192448036814679,-1.8958795916361,0.0840919241643228,,1.2914077946434523,,
,4870.0,1186.0,5045.0,1571.0,2703.0,2466.0,1512.0,,,,0.0194494534821208,-1.89509118789168,0.084019493010372,,0.9432466991844393,,
,4868.0,1186.0,5046.0,1570.0,2714.0,2467.0,1500.0,,,,0.0194041646813725,-1.89487085408451,0.0839877508015882,,0.5924599436654705,,
,4865.0,1187.0,5043.0,1569.0,2722.0,2456.0,1478.0,,,,0.0193146725139183,-1.89541640434306,0.0840138584453482,,0.24515694261775933,,
,4863.0,1184.0,5040.0,1569.0,2721.0,2459.0,1473.0,,,,0.0191254459684353,-1.89533462807236,0.0840002034045585,,-0.09244672341646971,,
,4859.0,1183.0,5038.0,1565.0,2726.0,2476.0,1498.0,,,,0.0189480503727271,-1.89565158584905,0.0839896558412177,,-0.41429597207676977,,
,4856.0,1183.0,5036.0,1566.0,2726.0,2471.0,1495.0,,,,0.0190300220249931,-1.89593403021887,0.0840664721745991,,-0.7147769970184351,,
,4856.0,1182.0,5034.0,1565.0,2736.0,2459.0,1488.0,,,,0.0190637604551508,-1.89641246347703,0.0839978611715048,,-0.9889851185890758,,
,4856.0,1182.0,5032.0,1563.0,2741.0,2460.0,1467.0,,,,0.0189501494671718,-1.89567112552396,0.0840284778133568,,-1.2329540335472287,,
,4852.0,1181.0,5029.0,1561.0,2747.0,2471.0,1456.0,,,,0.0191057249521252,-1.89516242555718,0.0840873598350678,,-1.443827467929527,,
,4851.0,1182.0,5026.0,1561.0,2764.0,2471.0,1444.0,,,,0.0193103285669673,-1.89512197214531,0.0840921384187096,,-1.6199640887902973,,
,4854.0,1180.0,5023.0,1562.0,2760.0,2460.0,1451.0,,,,0.0193455856835161,-1.89514194403568,0.0839606301065762,,-1.76097611783267,,
,4853.0,1183.0,5026.0,1561.0,2748.0,2458.0,1455.0,,,,0.0193748303377985,-1.89510337176346,0.0840490788953277,,-1.8677085157101596,,
,4851.0,1181.0,5024.0,1559.0,2750.0,2466.0,1452.0,,,,0.0194153325393021,-1.89497604243454,0.0839850677527796,,-1.9421677576775354,,
,4849.0,1181.0,5020.0,1558.0,2750.0,2471.0,1473.0,,,,0.0194617338839302,-1.89515333539543,0.0841029202933427,,-1.9874077210251906,,
,4850.0,1180.0,5024.0,1559.0,2758.0,2471.0,1439.0,,,,0.0194659195177841,-1.89498621043659,0.0840639183939472,,-2.0073767357359413,,
,4856.0,1181.0,5021.0,1560.0,2745.0,2467.0,1445.0,,,,0.0195361834209349,-1.89512214346988,0.0840396015529836,,-2.006726433393068,,
,4850.0,1180.0,5019.0,1560.0,2733.0,2466.0,1453.0,,,,0.0195151755990748,-1.89501867777671,0.0841036603490064,,-1.9905813306752305,,
,4849.0,1180.0,5016.0,1557.0,2743.0,2467.0,1476.0,,,,0.019612334628744,-1.89530999432468,0.0840686888204283,,-1.9642690268445155,,
,4853.0,1179.0,5018.0,1557.0,2740.0,2458.0,1486.0,,,,0.0196965981250349,-1.8948985344131,0.0840548032930036,,-1.9330147842455727,,
,4854.0,1180.0,5019.0,1558.0,2725.0,2466.0,1473.0,,,,0.0197414786567002,-1.89451908649924,0.0840399578973434,,-1.9016109361127003,,
,4853.0,1180.0,5018.0,1557.0,2732.0,2472.0,1474.0,,,,0.0197695207279529,-1.89416433411216,0.084135836990618,,-1.8740801331392944,,
,4856.0,1179.0,5016.0,1560.0,2752.0,2470.0,1470.0,,,,0.0197365558431686,-1.89401914035768,0.0841209140392181,,-1.8533599683255213,,
,4853.0,1180.0,5017.0,1556.0,2745.0,2464.0,1500.0,,,,0.0198020021450785,-1.89369350892386,0.0841852216509913,,-1.8410423283935302,,
2025-07-15 23:13:14,4856.0,1179.0,5020.0,1561.0,2742.0,2463.0,1493.0,,,2025/07/15 11:13:14 PM,0.0198057673145477,-1.89400328431964,0.0841691686556758,,-1.837201358112286,,
,4856.0,1178.0,5020.0,1561.0,2756.0,2459.0,1483.0,,,,0.0197997176978141,-1.89438344695668,0.0840322773970012,,-1.840337779671118,,
,4858.0,1179.0,5020.0,1560.0,2753.0,2463.0,1497.0,,,,0.0197991436952715,-1.89448004880483,0.0840480322441567,,-1.8474549491438734,,
,4858.0,1179.0,5017.0,1558.0,2741.0,2476.0,1472.0,,,,0.0196677434089191,-1.89441827730757,0.0841125496442788,,-1.8542658696365513,,
,4856.0,1180.0,5019.0,1558.0,2739.0,2465.0,1480.0,,,,0.0196357920339565,-1.89460512522767,0.0841255357053454,,-1.8555138919073852,,
,4855.0,1180.0,5020.0,1559.0,2749.0,2484.0,1488.0,,,,0.0196038797262464,-1.89509285083671,0.0839974907686409,,-1.8453761929514854,,
,4858.0,1183.0,5021.0,1560.0,2746.0,2479.0,1509.0,,,,0.019580209661864,-1.89562982142836,0.0840927535077472,,-1.8179104117442317,,
,4858.0,1180.0,5018.0,1557.0,2743.0,2477.0,1511.0,,,,0.0196777859666711,-1.89641002643453,0.0840315432052651,,-1.76750205403313,,
,4856.0,1178.0,5018.0,1558.0,2739.0,2476.0,1511.0,,,,0.0196650134018683,-1.89584756985845,0.0839858439555015,,-1.6892734805983742,,
,4855.0,1181.0,5020.0,1558.0,2731.0,2479.0,1510.0,,,,0.0197757903210847,-1.89612626727476,0.0839603352256977,,-1.5794233411339917,,
,4858.0,1182.0,5017.0,1557.0,2732.0,2474.0,1502.0,,,,0.0198784207594185,-1.89609045682319,0.0839878973888375,,-1.4354761685901813,,
,4854.0,1180.0,5018.0,1559.0,2735.0,2468.0,1507.0,,,,0.0198705856376437,-1.89576920164805,0.0840415632751222,,-1.2564333227345437,,
,4854.0,1181.0,5017.0,1557.0,2731.0,2470.0,1497.0,,,,0.0199828253171297,-1.89616555464811,0.0840411341786329,,-1.0428267708696732,,
,4853.0,1180.0,5016.0,1559.0,2716.0,2471.0,1485.0,,,,0.0201010552020298,-1.89658968408103,0.0839849658548147,,-0.7966848581832295,,
,4857.0,1180.0,5020.0,1558.0,2730.0,2462.0,1487.0,,,,0.0202100527962294,-1.89667804089479,0.0840122682927032,,-0.5214231507639286,,
,4855.0,1177.0,5018.0,1559.0,2733.0,2455.0,1490.0,,,,0.0203332509958561,-1.89717336285307,0.0839072246723485,,-0.22167347905709162,,
,4856.0,1176.0,5016.0,1555.0,2722.0,2458.0,1469.0,,,,0.020535564285835,-1.89733923588204,0.0840698876190787,,0.09693809449660623,,
,4856.0,1180.0,5015.0,1560.0,2716.0,2468.0,1475.0,,,,0.0207410387692714,-1.89790355330182,0.0840030766769264,,0.42805570721589864,,
,4857.0,1181.0,5019.0,1556.0,2731.0,2473.0,1476.0,,,,0.0208343965985475,-1.89783802492397,0.0839192662608026,,0.7648908390647947,,
,4858.0,1181.0,5017.0,1558.0,2733.0,2475.0,1478.0,,,,0.0209010462655891,-1.89768028488027,0.0840482330532383,,1.1005377780335293,,
,4858.0,1180.0,5019.0,1558.0,2733.0,2482.0,1501.0,,,,0.0209908914812338,-1.89643716830321,0.0840029248169821,,1.42828685346611,,
,4858.0,1178.0,5018.0,1557.0,2754.0,2484.0,1522.0,,,,0.021175575820898,-1.89594988534129,0.0841694543454427,,1.741910904198142,,
,4860.0,1180.0,5017.0,1558.0,2755.0,2464.0,1523.0,,,,0.0212301672287692,-1.89516142729024,0.0841342890349312,,2.035901286660479,,
,4862.0,1180.0,5018.0,1557.0,2751.0,2462.0,1514.0,,,,0.0212550188841282,-1.89528212123937,0.0841581933825706,,2.3056356934516873,,
,4862.0,1179.0,5021.0,1560.0,2731.0,2477.0,1490.0,,,,0.0211571603331321,-1.8949902995645,0.084194569119502,,2.54746954956746,,
,4863.0,1180.0,5020.0,1557.0,2739.0,2468.0,1509.0,,,,0.021251036119578,-1.89542991715277,0.084204493688014,,2.7587532538488575,,
,4864.0,1180.0,5019.0,1558.0,2732.0,2461.0,1513.0,,,,0.0210559658079789,-1.89589668935758,0.0841089763485282,,2.937786411185693,,
,4863.0,1184.0,5024.0,1558.0,2732.0,2471.0,1494.0,,,,0.0210006460248313,-1.89636403804213,0.0841110651533966,,3.0837255201962557,,
,4864.0,1180.0,5022.0,1561.0,2738.0,2471.0,1487.0,,,,0.0209156792227266,-1.89706229341042,0.0839695167011749,,3.196462644403536,,
,4866.0,1183.0,5022.0,1557.0,2736.0,2472.0,1500.0,,,,0.0207034986953654,-1.89787319638765,0.0839361477094355,,3.2764899960432863,,
,4867.0,1183.0,5023.0,1560.0,2739.0,2467.0,1484.0,,,,0.0203625731275594,-1.899251427073,0.0839072820449279,,3.324760729065691,,
,4865.0,1183.0,5024.0,1560.0,2742.0,2466.0,1494.0,,,,0.0201976277114607,-1.89998149984547,0.0838276455040228,,3.342551757404069,,
,4866.0,1182.0,5029.0,1561.0,2735.0,2465.0,1481.0,,,,0.0200312863021338,-1.90112382494601,0.0837725006141744,,3.3313319961291814,,
,4868.0,1182.0,5026.0,1561.0,2721.0,2470.0,1493.0,,,,0.0199732342949627,-1.90134472579415,0.0836296114300361,,3.2926398364680836,,
,4870.0,1182.0,5027.0,1562.0,2716.0,2481.0,1488.0,,,,0.0198123300292103,-1.90186248955609,0.0836454248897912,,3.227976225352417,,
,4869.0,1181.0,5030.0,1562.0,2734.0,2471.0,1495.0,,,,0.0197878425220898,-1.90194625302717,0.0836373559845875,,3.1387226466861295,,
,4870.0,1184.0,5030.0,1560.0,2737.0,2465.0,1491.0,,,,0.0197501094462268,-1.90195948085627,0.0835830026116196,,3.026094565970761,,
,4873.0,1185.0,5032.0,1563.0,2748.0,2488.0,1486.0,,,,0.0197537920564138,-1.90197598771599,0.0836369469007292,,2.8911391771769144,,
,4874.0,1183.0,5030.0,1559.0,2743.0,2476.0,1481.0,,,,0.0197885677340774,-1.9014715089771,0.083672780902964,,2.734781362404746,,
,4875.0,1185.0,5035.0,1563.0,2742.0,2472.0,1488.0,,,,0.0196931456886321,-1.90122640595575,0.0836580395411861,,2.5579142315208445,,
,4875.0,1186.0,5033.0,1564.0,2728.0,2467.0,1487.0,,,,0.0198276210014337,-1.90071376910398,0.083667571715353,,2.3615216341494625,,
,4877.0,1183.0,5033.0,1564.0,2740.0,2465.0,1488.0,,,,0.0200481876648981,-1.90103228483731,0.0836863082483871,,2.1468116356406552,,
,4875.0,1183.0,5033.0,1563.0,2729.0,2464.0,1477.0,,,,0.0200522194549535,-1.90103573520401,0.0836419897973878,,1.9153348083467245,,
,4875.0,1186.0,5038.0,1566.0,2726.0,2469.0,1479.0,,,,0.0199361917355048,-1.90117512572366,0.0837010833844525,,1.6690616092535295,,
,4879.0,1187.0,5040.0,1567.0,2712.0,2472.0,1473.0,,,,0.0199462071913145,-1.90112441136236,0.0836310191168039,,1.4103997356390778,,
,4880.0,1185.0,5041.0,1567.0,2705.0,2470.0,1476.0,,,,0.0198983899809941,-1.90187670606188,0.0835643536948441,,1.1421436642347316,,
,4883.0,1187.0,5040.0,1566.0,2715.0,2460.0,1449.0,,,,0.0198351831178207,-1.90219825465549,0.0836853792161288,,0.8673614788825884,,
,4882.0,1186.0,5043.0,1565.0,2726.0,2462.0,1464.0,,,,0.0196272243911384,-1.90242827609221,0.0836087253498474,,0.5892351857494148,,
,4884.0,1188.0,5044.0,1567.0,2731.0,2470.0,1478.0,,,,0.0194587063683118,-1.90338840882077,0.0835288338900426,,0.31087772840271843,,
,4883.0,1186.0,5045.0,1568.0,2725.0,2473.0,1491.0,,,,0.0191891790666128,-1.90346454804095,0.0835777628331649,,0.03515220809872376,,
,4882.0,1187.0,5046.0,1568.0,2741.0,2472.0,1487.0,,,,0.0188828573183458,-1.90340586481207,0.0834768998896855,,-0.23548314422667302,,
,4878.0,1185.0,5044.0,1565.0,2748.0,2481.0,1490.0,,,,0.0187207637089229,-1.90335920230861,0.0834603865700231,,-0.4990859688529735,,
,4878.0,1187.0,5046.0,1569.0,2736.0,2487.0,1505.0,,,,0.018626037126468,-1.90334478692517,0.083473577895893,,-0.7542858144463174,,
,4879.0,1186.0,5046.0,1569.0,2723.0,2485.0,1508.0,,,,0.0184614346536875,-1.90346807040951,0.0834574228014652,,-1.00028228058071,,
,4873.0,1186.0,5042.0,1566.0,2725.0,2487.0,1507.0,,,,0.0182138605004851,-1.90359267685872,0.0834244004495807,,-1.2367898140172617,,
,4871.0,1184.0,5042.0,1566.0,2717.0,2481.0,1520.0,,,,0.0179247332654794,-1.90395583319228,0.0834186701422284,,-1.4639397535510486,,
,4869.0,1187.0,5040.0,1565.0,2717.0,2484.0,1510.0,,,,0.0177223984809803,-1.90450721405215,0.0833843560805495,,-1.6821539946454316,,
,4869.0,1182.0,5038.0,1564.0,2712.0,2480.0,1499.0,,,,0.0174358040862011,-1.90467070709122,0.0833019807438544,,-1.8920055876860702,,
,4863.0,1185.0,5037.0,1563.0,2716.0,2477.0,1486.0,,,,0.0169518155304729,-1.90521606365615,0.0832185485524413,,-2.094079924557398,,
,4859.0,1182.0,5032.0,1562.0,2732.0,2475.0,1471.0,,,,0.0167685148689298,-1.90668065076646,0.0832059451061425,,-2.2888468592483338,,
,4860.0,1179.0,5030.0,1558.0,2723.0,2464.0,1474.0,,,,0.0163964729101613,-1.9074312461949,0.0831285197074854,,-2.476550230259715,,
,4858.0,1181.0,5029.0,1559.0,2737.0,2468.0,1459.0,,,,0.0160876908519541,-1.90734070102652,0.0829759752936157,,-2.6571177336632887,,
,4859.0,1180.0,5026.0,1559.0,2736.0,2473.0,1470.0,,,,0.0157424328520273,-1.90860821438763,0.0828600487666213,,-2.8300916775734515,,
,4858.0,1180.0,5025.0,1558.0,2739.0,2465.0,1460.0,,,,0.0153899845869177,-1.90987569102335,0.0828229613447815,,-2.994580186606679,,
,4854.0,1177.0,5019.0,1552.0,2740.0,2476.0,1491.0,,,,0.0153927443314612,-1.91010614204034,0.082794138217891,,-3.149228779588536,,
,4855.0,1179.0,5021.0,1560.0,2747.0,2466.0,1473.0,,,,0.0150201668704817,-1.91008150102057,0.0828428484170532,,-3.2922134732867447,,
,4855.0,1181.0,5018.0,1555.0,2743.0,2462.0,1467.0,,,,0.0149529486506383,-1.91036715643743,0.0827752500861208,,-3.421258058826412,,
,4856.0,1179.0,5017.0,1555.0,2741.0,2466.0,1489.0,,,,0.0148167786429605,-1.9102152197083,0.0827603693248756,,-3.5336791665689344,,
,4857.0,1176.0,5014.0,1553.0,2736.0,2462.0,1482.0,,,,0.0148404707197108,-1.91057831629745,0.0828223803520775,,-3.6264624515093877,,
,4855.0,1177.0,5015.0,1556.0,2753.0,2466.0,1480.0,,,,0.0146773182536088,-1.91080174717914,0.0827434351302252,,-3.6963714634663685,,
,4860.0,1178.0,5014.0,1557.0,2745.0,2468.0,1476.0,,,,0.0147598737215834,-1.91164396065611,0.0827266344805422,,-3.7400878409513747,,
,4858.0,1177.0,5013.0,1553.0,2746.0,2469.0,1479.0,,,,0.0147474619190249,-1.91199702169866,0.0826507890744683,,-3.7543779390431506,,
,4858.0,1176.0,5014.0,1555.0,2735.0,2478.0,1461.0,,,,0.0147208518562984,-1.91237881568315,0.0826276129536847,,-3.7362774328250876,,
,4857.0,1178.0,5016.0,1556.0,2733.0,2466.0,1454.0,,,,0.0146940888635424,-1.91245565389143,0.0826851617666925,,-3.6832823141949174,,
,4860.0,1180.0,5015.0,1556.0,2730.0,2472.0,1441.0,,,,0.0147304966301859,-1.91208265135314,0.0827391259780184,,-3.593532294795678,,
,4860.0,1177.0,5013.0,1557.0,2734.0,2472.0,1451.0,,,,0.0147483050509033,-1.91175652282921,0.0827508138630243,,-3.4659710852951573,,
,4861.0,1177.0,5015.0,1555.0,2735.0,2468.0,1456.0,,,,0.0148453991802475,-1.91141494045819,0.0827283551700908,,-3.3004677244230525,,
,4862.0,1178.0,5012.0,1555.0,2754.0,2466.0,1456.0,,,,0.0148252144390986,-1.91118840594821,0.0827187070492706,,-3.0978848286970293,,
,4865.0,1178.0,5014.0,1555.0,2751.0,2478.0,1444.0,,,,0.0147795199275936,-1.91180524536469,0.0827095486060064,,-2.8600839738025132,,
,4866.0,1180.0,5013.0,1555.0,2743.0,2476.0,1476.0,,,,0.0147551195269267,-1.91179771152136,0.0826712278223672,,-2.589865245071398,,
,4863.0,1178.0,5013.0,1556.0,2750.0,2478.0,1483.0,,,,0.0146976171041783,-1.91187605234729,0.0827011300627861,,-2.2908460396571564,,
,4864.0,1179.0,5014.0,1555.0,2749.0,2475.0,1488.0,,,,0.0145133953305107,-1.91221838515088,0.0826249689506265,,-1.9672914789865505,,
,4863.0,1178.0,5014.0,1556.0,2739.0,2466.0,1492.0,,,,0.014320641412889,-1.91232890068389,0.0826262374567978,,-1.6239135290094533,,
,4863.0,1179.0,5015.0,1557.0,2747.0,2469.0,1494.0,,,,0.0141430875117024,-1.91246806082674,0.0826305618260383,,-1.265657579265633,,
,4867.0,1180.0,5017.0,1556.0,2747.0,2469.0,1471.0,,,,0.0141033736250066,-1.91217324435464,0.0825618976966399,,-0.8974947077789175,,
,4861.0,1179.0,5012.0,1555.0,2741.0,2481.0,1478.0,,,,0.0139866899588834,-1.91224922434123,0.0825628949105269,,-0.5242365414835859,,
,4863.0,1177.0,5014.0,1554.0,2737.0,2472.0,1498.0,,,,0.0139447833723759,-1.91243694121756,0.0825718361908732,,-0.15038805547609344,,
,4867.0,1179.0,5015.0,1556.0,2741.0,2467.0,1490.0,,,,0.0139375102194988,-1.91230837420647,0.0826268809981103,,0.21994877044104166,,
,4868.0,1179.0,5016.0,1555.0,2740.0,2470.0,1492.0,,,,0.0141106430847123,-1.91171895598893,0.0826129223948224,,0.5831118043073978,,
,4865.0,1179.0,5014.0,1557.0,2732.0,2471.0,1469.0,,,,0.0140968260691186,-1.91206545374757,0.0825898835628826,,0.9358541307173998,,
,4862.0,1178.0,5014.0,1556.0,2727.0,2463.0,1475.0,,,,0.0140261807643656,-1.9122536813427,0.0825158123170587,,1.2752644644481241,,
,4865.0,1180.0,5016.0,1557.0,2735.0,2473.0,1470.0,,,,0.0140448628169931,-1.91246649084347,0.0825729137732497,,1.5986480610951683,,
,4863.0,1178.0,5016.0,1556.0,2743.0,2460.0,1481.0,,,,0.0140021352992729,-1.91251625429142,0.0825276772021075,,1.9033908078709674,,
,4865.0,1180.0,5016.0,1556.0,2739.0,2454.0,1482.0,,,,0.0137497938975886,-1.91321997773191,0.0824650696315196,,2.1868328132224777,,
,4861.0,1178.0,5015.0,1556.0,2741.0,2465.0,1459.0,,,,0.0137953064829976,-1.91326842097891,0.0824397811029349,,2.4461769118524495,,
,4863.0,1179.0,5016.0,1556.0,2734.0,2470.0,1475.0,,,,0.0136088321608453,-1.9137668028925,0.0822882749311358,,2.678452179568253,,
,4865.0,1179.0,5015.0,1555.0,2735.0,2487.0,1483.0,,,,0.0134962976077472,-1.91454357978477,0.0824055106774482,,2.8805435711941985,,
,4865.0,1179.0,5015.0,1555.0,2741.0,2485.0,1477.0,,,,0.0133709611883591,-1.91518754145102,0.0823686586108343,,3.0492874592744035,,
,4866.0,1179.0,5016.0,1553.0,2725.0,2475.0,1500.0,,,,0.0130986689472821,-1.91620240140948,0.0822583383557082,,3.1816212638408716,,
,4866.0,1181.0,5015.0,1557.0,2727.0,2470.0,1501.0,,,,0.0128335446793609,-1.91766270828199,0.082238882674681,,3.2747661436510453,,
,4866.0,1180.0,5016.0,1559.0,2720.0,2476.0,1489.0,,,,0.0126828800311801,-1.91893209390808,0.0822308270626809,,3.3264169852399306,,
,4866.0,1180.0,5015.0,1557.0,2728.0,2476.0,1503.0,,,,0.0124215572256932,-1.91972914502002,0.0821096114129639,,3.3349144352015063,,
,4867.0,1178.0,5016.0,1558.0,2727.0,2468.0,1488.0,,,,0.012152458529042,-1.9208205610093,0.0820797543260317,,3.29937880140475,,
,4870.0,1179.0,5019.0,1557.0,2731.0,2475.0,1490.0,,,,0.0119382258297312,-1.92160093584598,0.0820136817065787,,3.2197936282467876,,
,4872.0,1181.0,5020.0,1557.0,2720.0,2467.0,1470.0,,,,0.0118848394536235,-1.92275876598419,0.0821396639831565,,3.0970354880556883,,
,4874.0,1182.0,5020.0,1560.0,2736.0,2470.0,1476.0,,,,0.0117213102259138,-1.92322882499851,0.0819064364952564,,2.9328540640675267,,
,4872.0,1180.0,5020.0,1559.0,2724.0,2471.0,1478.0,,,,0.0115709260615662,-1.92405319173996,0.0821341917022116,,2.7298117184079898,,
,4873.0,1183.0,5021.0,1560.0,2712.0,2473.0,1507.0,,,,0.0112910227596369,-1.92428373885083,0.0820044899569275,,2.4911939581486995,,
,4874.0,1183.0,5022.0,1561.0,2722.0,2480.0,1515.0,,,,0.0112789964175858,-1.92519922164652,0.082036860223196,,2.2209013939359883,,
,4876.0,1181.0,5025.0,1561.0,2717.0,2470.0,1490.0,,,,0.0111871209700177,-1.92559106815442,0.08184127804804,,1.9233302644549162,,
,4875.0,1182.0,5023.0,1561.0,2713.0,2467.0,1483.0,,,,0.011065606255183,-1.92691227433488,0.081927684651679,,1.6032437717810166,,
,4876.0,1183.0,5026.0,1560.0,2730.0,2463.0,1485.0,,,,0.0108241311520927,-1.92758649563715,0.0817315651445429,,1.2656326947703214,,
,4878.0,1182.0,5027.0,1560.0,2731.0,2466.0,1494.0,,,,0.0107486006206233,-1.92832757600326,0.0816334355156563,,0.9155631799189587,,
,4877.0,1184.0,5025.0,1561.0,2732.0,2462.0,1493.0,,,,0.0107048855496069,-1.92891727409199,0.0816250971279639,,0.5580130173537011,,
,4880.0,1184.0,5029.0,1563.0,2723.0,2463.0,1483.0,,,,0.0107934040832436,-1.92979943271717,0.0815624434229934,,0.19770417928513268,,
,4879.0,1182.0,5031.0,1565.0,2748.0,2473.0,1488.0,,,,0.0105821785508239,-1.93079937488315,0.081648328731283,,-0.1610531980051824,,
,4880.0,1181.0,5028.0,1562.0,2748.0,2471.0,1506.0,,,,0.0103543376765116,-1.93129338814577,0.0816017633481739,,-0.5144844818059379,,
,4882.0,1185.0,5033.0,1565.0,2744.0,2464.0,1501.0,,,,0.0101135148510429,-1.93176413333936,0.0814480282216317,,-0.8594191621715457,,
,4883.0,1185.0,5034.0,1566.0,2748.0,2465.0,1504.0,,,,0.0104440907184004,-1.93213949812892,0.0814199215634796,,-1.193285146525301,,
,4884.0,1184.0,5036.0,1565.0,2743.0,2461.0,1488.0,,,,0.0103731207395342,-1.9327557736222,0.0816374327228784,,-1.5140183453945868,,
,4885.0,1188.0,5037.0,1565.0,2748.0,2477.0,1487.0,,,,0.0103335567926748,-1.93247568139487,0.0813856495979783,,-1.8198908191711167,,
,4887.0,1185.0,5038.0,1565.0,2742.0,2472.0,1481.0,,,,0.0104951029107833,-1.93284118677669,0.081427593708479,,-2.109277147867709,,
,4887.0,1187.0,5038.0,1569.0,2744.0,2468.0,1482.0,,,,0.0105133325286237,-1.93265282061905,0.0815010310566852,,-2.3803943698505687,,
,4888.0,1187.0,5040.0,1569.0,2738.0,2467.0,1477.0,,,,0.0105592689080973,-1.93240703089977,0.0814166413164787,,-2.6310617913568706,,
,4889.0,1184.0,5042.0,1567.0,2723.0,2466.0,1474.0,,,,0.0103888608553548,-1.93254336710742,0.0814279357843803,,-2.8585298376943133,,
,4890.0,1186.0,5042.0,1568.0,2737.0,2465.0,1466.0,,,,0.0104586480853839,-1.93232353280298,0.081419237774346,,-3.059420038947876,,
,4892.0,1187.0,5043.0,1570.0,2728.0,2471.0,1453.0,,,,0.0104289892869835,-1.93265977387254,0.0814963227193306,,-3.229801446765917,,
,4892.0,1188.0,5045.0,1570.0,2725.0,2470.0,1449.0,,,,0.0105321156673295,-1.93250504373617,0.0814608329720569,,-3.3654051058100323,,
2025-07-15 23:13:15,4892.0,1188.0,5045.0,1568.0,2717.0,2470.0,1411.0,,,2025/07/15 11:13:15 PM,0.0103380227010225,-1.93247483223483,0.0813955691519364,,-3.4619527848099962,,
,4891.0,1189.0,5045.0,1570.0,2735.0,2466.0,1456.0,,,,0.010416195907595,-1.93196377600848,0.0812543528027534,,-3.5155547398235716,,
,4888.0,1186.0,5046.0,1571.0,2734.0,2473.0,1471.0,,,,0.0102428613394382,-1.93219772072156,0.0812799782122765,,-3.5231182163781907,,
,4886.0,1186.0,5047.0,1571.0,2728.0,2475.0,1479.0,,,,0.0102604791399349,-1.93252430734402,0.0811441428070418,,-3.4827059049709197,,
,4886.0,1186.0,5042.0,1568.0,2721.0,2477.0,1489.0,,,,0.0101047099598619,-1.93289635151545,0.0811314451431664,,-3.3937918589660008,,
,4883.0,1184.0,5040.0,1566.0,2718.0,2474.0,1490.0,,,,0.0101877877105677,-1.93265719704099,0.0812338057881529,,-3.2573799502707863,,
,4879.0,1183.0,5040.0,1566.0,2719.0,2473.0,1494.0,,,,0.0101892210592492,-1.93270283798991,0.0810401324988433,,-3.0759735457229094,,
,4877.0,1186.0,5042.0,1567.0,2716.0,2466.0,1487.0,,,,0.0098466377361887,-1.93276264909936,0.0810842025551773,,-2.8534097731523813,,
,4877.0,1184.0,5038.0,1567.0,2704.0,2471.0,1500.0,,,,0.0099535135421572,-1.93298495317958,0.0810452991861261,,-2.5945915142292284,,
,4872.0,1183.0,5035.0,1564.0,2697.0,2477.0,1509.0,,,,0.0098192423381293,-1.93268264488506,0.0809190421067643,,-2.3051602544825456,,
,4871.0,1182.0,5029.0,1561.0,2699.0,2470.0,1483.0,,,,0.0098068937243374,-1.93303449467766,0.0809038548902072,,-1.9911521328654886,,
,4870.0,1180.0,5029.0,1561.0,2709.0,2471.0,1487.0,,,,0.0096666310482639,-1.9330658363227,0.080914684875948,,-1.658671499371032,,
,4870.0,1183.0,5029.0,1560.0,2704.0,2477.0,1495.0,,,,0.009588058046112,-1.93385767979062,0.0807338180870493,,-1.3136065396557013,,
,4870.0,1181.0,5027.0,1560.0,2728.0,2474.0,1473.0,,,,0.0095717015478708,-1.93389636405617,0.0807769009124563,,-0.9614037936024324,,
,4867.0,1181.0,5024.0,1559.0,2746.0,2470.0,1471.0,,,,0.0095518978153116,-1.93354176592389,0.0806520945045117,,-0.6069128641828627,,
,4868.0,1181.0,5024.0,1558.0,2750.0,2467.0,1474.0,,,,0.0094683373941012,-1.93343180893073,0.0806710787359646,,-0.2543072933198859,,
,4867.0,1181.0,5020.0,1560.0,2728.0,2463.0,1463.0,,,,0.0092171579258439,-1.93430158271191,0.0805817204774636,,0.09291914841991696,,
,4869.0,1181.0,5020.0,1560.0,2740.0,2469.0,1463.0,,,,0.0092819681203787,-1.93434302427842,0.0805630337970184,,0.4318895735716861,,
,4867.0,1179.0,5020.0,1559.0,2741.0,2475.0,1460.0,,,,0.0091794175840987,-1.93439185088956,0.0806273370506349,,0.7602312655683304,,
,4869.0,1180.0,5020.0,1559.0,2741.0,2474.0,1464.0,,,,0.0089832735509783,-1.93455805175819,0.0804813788304855,,1.0759359870336007,,
,4870.0,1183.0,5024.0,1559.0,2752.0,2474.0,1478.0,,,,0.0090640223889705,-1.93486074288762,0.0804361882386247,,1.3772189846742762,,
,4868.0,1181.0,5022.0,1560.0,2746.0,2477.0,1486.0,,,,0.009070582987294,-1.93465354764829,0.0805316303749175,,1.6624013906143058,,
,4871.0,1180.0,5018.0,1557.0,2732.0,2484.0,1489.0,,,,0.0090185946837707,-1.93486632017821,0.0802805879031689,,1.9298360864857633,,
,4870.0,1180.0,5018.0,1558.0,2740.0,2480.0,1498.0,,,,0.0088677318346795,-1.9345075861252,0.0803099347233821,,2.1778895201972857,,
,4874.0,1183.0,5020.0,1560.0,2728.0,2466.0,1492.0,,,,0.0088110466469823,-1.93439240455006,0.0802133095898985,,2.4049827887189092,,
,4873.0,1182.0,5017.0,1559.0,2721.0,2469.0,1491.0,,,,0.0087412442885351,-1.9343900986116,0.0800873963373558,,2.60968631136094,,
,4873.0,1181.0,5019.0,1562.0,2721.0,2486.0,1505.0,,,,0.0087219440084737,-1.93445741115036,0.0800502524418562,,2.7908548355627736,,
,4875.0,1180.0,5020.0,1558.0,2722.0,2468.0,1494.0,,,,0.0085941869963128,-1.9347061245986,0.0799914789579245,,2.94778316535928,,
,4877.0,1183.0,5019.0,1563.0,2729.0,2468.0,1490.0,,,,0.0084879292971462,-1.93441299481847,0.0798946909059744,,3.080357241341389,,
,4880.0,1180.0,5020.0,1561.0,2731.0,2466.0,1476.0,,,,0.0083438078319013,-1.93428582641758,0.0800020261956212,,3.1891708149528784,,
,4878.0,1182.0,5021.0,1561.0,2732.0,2465.0,1493.0,,,,0.0083199306251489,-1.9348424987777,0.0798276590212311,,3.2755774387139924,,
,4879.0,1181.0,5022.0,1559.0,2732.0,2467.0,1468.0,,,,0.0082364385288386,-1.93477643716577,0.07990034528581,,3.341653114842372,,
,4882.0,1182.0,5022.0,1564.0,2734.0,2463.0,1471.0,,,,0.0082874760537265,-1.9346550896882,0.0797763836440492,,3.390056878973907,,
,4883.0,1184.0,5024.0,1565.0,2740.0,2472.0,1490.0,,,,0.0080599235349801,-1.93459760004617,0.0797205100156008,,3.4237927719380306,,
,4880.0,1183.0,5021.0,1564.0,2737.0,2473.0,1483.0,,,,0.0080214026493065,-1.93456569773134,0.0796120037249385,,3.445893803164839,,
,4877.0,1179.0,5021.0,1561.0,2734.0,2458.0,1487.0,,,,0.0081680980356101,-1.93483530706467,0.0796827404111649,,3.4590632579401164,,
,4879.0,1182.0,5020.0,1563.0,2745.0,2462.0,1478.0,,,,0.0081223192734722,-1.93446592690103,0.0796187069464267,,3.4653183321591867,,
,4882.0,1182.0,5022.0,1562.0,2744.0,2459.0,1458.0,,,,0.0081430990093455,-1.93455015804795,0.0796896903476183,,3.465683876397511,,
,4881.0,1183.0,5023.0,1564.0,2745.0,2460.0,1461.0,,,,0.0082117457864198,-1.93426126026904,0.0797091171361746,,3.4599792595680956,,
,4880.0,1182.0,5022.0,1561.0,2746.0,2467.0,1478.0,,,,0.0081576651046891,-1.93405379511612,0.0795828822285496,,3.4467294230204404,,
,4883.0,1182.0,5024.0,1562.0,2738.0,2462.0,1477.0,,,,0.0083366220909106,-1.93371611000965,0.0799970515300751,,3.423214054959661,,
,4880.0,1184.0,5022.0,1563.0,2736.0,2470.0,1467.0,,,,0.0082579259595632,-1.93382160289288,0.0799822892022386,,3.3856498805609605,,
,4883.0,1184.0,5022.0,1564.0,2740.0,2453.0,1462.0,,,,0.0082702069747249,-1.93407925743707,0.079689588866146,,3.3294841374793447,,
,4884.0,1184.0,5022.0,1565.0,2741.0,2449.0,1462.0,,,,0.0081413487577708,-1.93407712281514,0.0800570025007334,,3.2497654307804114,,
,4882.0,1180.0,5021.0,1563.0,2738.0,2458.0,1463.0,,,,0.0082986938000079,-1.93400751004204,0.0798597810594161,,3.141552983419803,,
,4882.0,1182.0,5020.0,1561.0,2739.0,2453.0,1469.0,,,,0.0084644658147947,-1.93337368481196,0.0801993458856275,,3.000326644375153,,
,4884.0,1183.0,5023.0,1564.0,2728.0,2466.0,1478.0,,,,0.0086325564266649,-1.93328563868712,0.0803684924470206,,2.8223658070476345,,
,4884.0,1184.0,5024.0,1564.0,2719.0,2476.0,1497.0,,,,0.0084026569982515,-1.9334069725349,0.0802179178768925,,2.605072713961073,,
,4886.0,1183.0,5025.0,1563.0,2739.0,2467.0,1503.0,,,,0.008469890382198,-1.93374700705398,0.0803111250281135,,2.347222442790366,,
,4885.0,1184.0,5025.0,1563.0,2747.0,2470.0,1486.0,,,,0.0086765296344716,-1.93353950762136,0.0806337131945322,,2.0491277078197996,,
,4888.0,1183.0,5025.0,1564.0,2735.0,2484.0,1475.0,,,,0.0087313330744615,-1.93371260239786,0.0805006358934735,,1.7127119573481433,,
,4890.0,1186.0,5028.0,1565.0,2719.0,2489.0,1481.0,,,,0.0089737397207385,-1.93370567914728,0.0803013297925599,,1.3414897088970625,,
,4888.0,1186.0,5026.0,1568.0,2731.0,2474.0,1490.0,,,,0.0089753425599539,-1.93342753253739,0.0804814912918081,,0.940458734848601,,
,4887.0,1186.0,5029.0,1566.0,2735.0,2472.0,1498.0,,,,0.0090173037116077,-1.93344861397935,0.0805492851331397,,0.5159138734791782,,
,4889.0,1183.0,5029.0,1567.0,2736.0,2471.0,1514.0,,,,0.0088588473709907,-1.93364517489897,0.080595828612291,,0.07519594659680658,,
,4891.0,1186.0,5032.0,1568.0,2745.0,2459.0,1503.0,,,,0.0089060928057398,-1.93367795478953,0.0806962840623744,,-0.37360849809704094,,
,4892.0,1186.0,5029.0,1570.0,2743.0,2456.0,1502.0,,,,0.0088653118973662,-1.93413620727382,0.0804987016619612,,-0.8219990402081171,,
,4893.0,1185.0,5032.0,1565.0,2738.0,2467.0,1499.0,,,,0.008765325240045,-1.93511667904816,0.0803665694325708,,-1.2614049235337936,,
,4894.0,1186.0,5032.0,1567.0,2739.0,2466.0,1463.0,,,,0.0085825323219253,-1.93512047890349,0.080410356281955,,-1.683518180143439,,
,4897.0,1187.0,5032.0,1571.0,2730.0,2467.0,1466.0,,,,0.0085922013621625,-1.9355107078986,0.0803260134054908,,-2.080593890953852,,
,4897.0,1189.0,5034.0,1568.0,2729.0,2467.0,1466.0,,,,0.0083001419116138,-1.93600894566949,0.0802961812049128,,-2.445698034529679,,
,4895.0,1186.0,5035.0,1568.0,2724.0,2477.0,1473.0,,,,0.0079049402427675,-1.93646648799878,0.0800853404487541,,-2.772889830825399,,
,4898.0,1188.0,5035.0,1570.0,2742.0,2493.0,1494.0,,,,0.0079485384762603,-1.93756943677362,0.0800041930160691,,-3.0573344839667596,,
,4902.0,1188.0,5039.0,1571.0,2753.0,2481.0,1506.0,,,,0.0076752254873336,-1.93772368633435,0.0798261258297361,,-3.295351710488678,,
,4900.0,1190.0,5039.0,1570.0,2749.0,2480.0,1497.0,,,,0.0076331473604351,-1.93809042678408,0.0797417794627452,,-3.484413023013101,,
,4899.0,1190.0,5041.0,1573.0,2734.0,2495.0,1503.0,,,,0.0076510474122069,-1.93900220753644,0.0798472542537265,,-3.623104662177975,,
,4901.0,1190.0,5040.0,1572.0,2735.0,2490.0,1493.0,,,,0.0075615614737256,-1.93946605272631,0.0794513662518304,,-3.711072695845753,,
,4904.0,1190.0,5043.0,1573.0,2733.0,2471.0,1514.0,,,,0.0075943618591825,-1.93970100934873,0.079722968865608,,-3.748962491846242,,
,4903.0,1192.0,5047.0,1576.0,2739.0,2468.0,1481.0,,,,0.0077391558112837,-1.93967451588694,0.0796758221432779,,-3.7383576463834736,,
,4905.0,1193.0,5049.0,1575.0,2744.0,2468.0,1491.0,,,,0.0078362402879338,-1.93976894571239,0.0799904709296019,,-3.6817153735887245,,
,4907.0,1190.0,5046.0,1572.0,2760.0,2462.0,1468.0,,,,0.0078626961130827,-1.93950881280979,0.0800318606924107,,-3.582288629958077,,
,4908.0,1192.0,5049.0,1575.0,2758.0,2463.0,1483.0,,,,0.0080789066558402,-1.93931883645867,0.0799746916022518,,-3.444021904082676,,
,4910.0,1191.0,5051.0,1575.0,2763.0,2464.0,1473.0,,,,0.0081214736379165,-1.93861368240524,0.0800666496761553,,-3.2714089038107708,,
,4910.0,1192.0,5051.0,1579.0,2756.0,2466.0,1463.0,,,,0.0083119273444223,-1.93883078352338,0.080261244263327,,-3.069306617529778,,
,4913.0,1191.0,5053.0,1574.0,2761.0,2472.0,1448.0,,,,0.0083180488228498,-1.93832063939831,0.0801986990354256,,-2.8427105460617073,,
,4909.0,1190.0,5053.0,1576.0,2750.0,2465.0,1481.0,,,,0.0084388050516166,-1.93800319931548,0.0802523369876975,,-2.5965080649785355,,
,4910.0,1189.0,5053.0,1578.0,2753.0,2459.0,1467.0,,,,0.0085352469892835,-1.93763762795349,0.0803535183943975,,-2.335237575717218,,
,4913.0,1195.0,5059.0,1579.0,2747.0,2465.0,1487.0,,,,0.0084881458570745,-1.93764941891069,0.0799666444386716,,-2.062886766483496,,
,4909.0,1192.0,5057.0,1578.0,2739.0,2473.0,1519.0,,,,0.0085107290974714,-1.93731335119311,0.0801996351938828,,-1.7827611576318532,,
,4907.0,1191.0,5057.0,1577.0,2743.0,2472.0,1512.0,,,,0.0085854258069461,-1.93715052116857,0.0802123418989893,,-1.4974433863246144,,
,4907.0,1193.0,5056.0,1578.0,2745.0,2490.0,1493.0,,,,0.0084432304313062,-1.93729756144213,0.0802070322906928,,-1.2088466412856225,,
,4902.0,1191.0,5053.0,1576.0,2737.0,2477.0,1475.0,,,,0.0084846272891895,-1.93742745512103,0.079907841982089,,-0.9183473505192082,,
,4901.0,1192.0,5052.0,1578.0,2727.0,2476.0,1480.0,,,,0.0084515220187535,-1.9378129286016,0.0800406686275434,,-0.6269684599823409,,
,4899.0,1190.0,5050.0,1573.0,2715.0,2482.0,1493.0,,,,0.0082176109705533,-1.93732844843955,0.0802177303583781,,-0.33557917990708735,,
,4899.0,1190.0,5049.0,1574.0,2714.0,2474.0,1474.0,,,,0.0080824924031474,-1.93719027283273,0.0800543592490948,,-0.045080266109067714,,
,4899.0,1189.0,5050.0,1575.0,2716.0,2467.0,1488.0,,,,0.0082334665294064,-1.93737384728395,0.0799249742213866,,0.2434466557771707,,
,4896.0,1187.0,5046.0,1574.0,2724.0,2468.0,1484.0,,,,0.0081996157951854,-1.93706075029413,0.079998086528881,,0.5286352635889876,,
,4896.0,1185.0,5044.0,1572.0,2716.0,2470.0,1467.0,,,,0.0082170817481077,-1.93741140611111,0.0801689685454086,,0.8087750870387004,,
,4894.0,1185.0,5042.0,1569.0,2728.0,2473.0,1470.0,,,,0.0079221330205815,-1.93740565077748,0.0799425198350833,,1.081788618699645,,
,4898.0,1187.0,5041.0,1573.0,2735.0,2470.0,1454.0,,,,0.0080530202428562,-1.93793625115331,0.079799488932918,,1.345235286298859,,
,4895.0,1189.0,5039.0,1570.0,2729.0,2472.0,1466.0,,,,0.0078886165674336,-1.93822587801347,0.0798181471264924,,1.5963347005368624,,
,4894.0,1188.0,5041.0,1570.0,2743.0,2462.0,1466.0,,,,0.007835085533015,-1.93784733825839,0.0796653774135006,,1.8320061007207262,,
,4895.0,1186.0,5039.0,1571.0,2754.0,2471.0,1477.0,,,,0.0078490044360562,-1.93788237898511,0.0795966238677669,,2.048925922750819,,
,4898.0,1189.0,5040.0,1572.0,2748.0,2462.0,1454.0,,,,0.0076898642086215,-1.93814808109178,0.0796684835747513,,2.2436089460440125,,
,4898.0,1189.0,5039.0,1572.0,2745.0,2471.0,1459.0,,,,0.0077467399812865,-1.93833568600715,0.0797186332062745,,2.4125189901029493,,
,4899.0,1187.0,5038.0,1571.0,2750.0,2471.0,1469.0,,,,0.0076441666482229,-1.93833104005807,0.0795399464887481,,2.552212069713248,,
,4897.0,1185.0,5036.0,1571.0,2752.0,2467.0,1498.0,,,,0.0076996333893548,-1.93799790535972,0.079665990283803,,2.659508766250759,,
,4897.0,1189.0,5039.0,1572.0,2761.0,2472.0,1492.0,,,,0.0075491774760211,-1.93776279513488,0.0794108278994578,,2.7316846308379494,,
,4899.0,1188.0,5040.0,1570.0,2738.0,2477.0,1500.0,,,,0.0076553017407627,-1.93776342035121,0.0795522487191195,,2.7666597776603754,,
,4901.0,1189.0,5039.0,1573.0,2733.0,2480.0,1511.0,,,,0.0073340075593107,-1.93805500425932,0.0792826536126389,,2.7631640056154243,,
,4900.0,1187.0,5040.0,1570.0,2739.0,2474.0,1514.0,,,,0.0074683567928789,-1.93815936478133,0.079370666756887,,2.7208538476511324,,
,4905.0,1189.0,5040.0,1574.0,2734.0,2465.0,1504.0,,,,0.007360183080114,-1.93833773012502,0.0794060107462567,,2.6403634509847107,,
,4907.0,1189.0,5043.0,1574.0,2730.0,2462.0,1496.0,,,,0.0073432050265623,-1.93878156328495,0.079166185030974,,2.5232810513922486,,
,4904.0,1191.0,5041.0,1574.0,2730.0,2464.0,1480.0,,,,0.0072911997489894,-1.93857432785741,0.0790033880439878,,2.3720547403596655,,
,4905.0,1189.0,5046.0,1574.0,2745.0,2494.0,1497.0,,,,0.007227745509287,-1.93857502632802,0.0789897595793048,,2.1898424436433146,,
,4906.0,1189.0,5043.0,1574.0,2744.0,2491.0,1490.0,,,,0.0072112040119006,-1.93911948031752,0.0790538381660812,,1.9803291269418863,,
,4907.0,1190.0,5045.0,1575.0,2728.0,2486.0,1501.0,,,,0.0070832956043854,-1.93869431586993,0.0790493614641424,,1.747537885974833,,
,4906.0,1192.0,5046.0,1574.0,2734.0,2474.0,1498.0,,,,0.007225820193421,-1.93876632599429,0.0788926368307643,,1.4956603780378563,,
,4909.0,1190.0,5047.0,1577.0,2747.0,2469.0,1499.0,,,,0.0071458434851654,-1.9384626963244,0.0789322113808177,,1.2289261169472312,,
,4909.0,1191.0,5049.0,1572.0,2729.0,2473.0,1488.0,,,,0.0070754376022942,-1.93893420924912,0.0788878328230998,,0.9515202832154315,,
,4910.0,1191.0,5049.0,1576.0,2721.0,2472.0,1498.0,,,,0.0069961019239497,-1.93874434186079,0.0788671782194422,,0.6675479068239617,,
,4910.0,1193.0,5050.0,1578.0,2710.0,2462.0,1496.0,,,,0.0071169221172279,-1.93854630619383,0.0790411071521304,,0.38103147954040073,,
,4911.0,1193.0,5048.0,1578.0,2712.0,2468.0,1512.0,,,,0.0071428388295311,-1.93886851807804,0.0787848383689324,,0.09592194935304331,,
,4910.0,1192.0,5052.0,1575.0,2703.0,2457.0,1499.0,,,,0.0071787254385724,-1.93828433148919,0.0789342896308561,,-0.1838988130137192,,
,4908.0,1191.0,5052.0,1575.0,2706.0,2467.0,1476.0,,,,0.0071634957003668,-1.93854234079573,0.0791104371274498,,-0.4546425222992223,,
,4911.0,1192.0,5050.0,1579.0,2722.0,2460.0,1486.0,,,,0.0072581104869207,-1.93868675840094,0.0790004222936832,,-0.7126768881117215,,
,4911.0,1192.0,5054.0,1578.0,2728.0,2462.0,1495.0,,,,0.0073061250963947,-1.93844353481097,0.079003217361317,,-0.9546273728246532,,
,4911.0,1192.0,5053.0,1579.0,2739.0,2465.0,1500.0,,,,0.0072280538027761,-1.93851746354881,0.0789848055162868,,-1.1775103908598712,,
,4910.0,1190.0,5052.0,1578.0,2737.0,2454.0,1497.0,,,,0.0072312682315469,-1.93849874519896,0.0789619641660368,,-1.3788824283518266,,
,4913.0,1194.0,5056.0,1578.0,2736.0,2459.0,1502.0,,,,0.0071005276238964,-1.93867376193345,0.0791485520567628,,-1.5569850038042556,,
,4913.0,1194.0,5053.0,1579.0,2737.0,2472.0,1475.0,,,,0.0072189386533893,-1.93869038508689,0.0788629180495846,,-1.7108648476692199,,
,4915.0,1193.0,5056.0,1579.0,2731.0,2472.0,1474.0,,,,0.0070441176731908,-1.93894042372076,0.0789719847799281,,-1.8404520960415087,,
,4915.0,1191.0,5055.0,1579.0,2738.0,2476.0,1482.0,,,,0.0070526310190022,-1.93898388715128,0.0789769009784315,,-1.9465852534107349,,
,4914.0,1194.0,5060.0,1580.0,2738.0,2467.0,1497.0,,,,0.0068438060143368,-1.93936782507754,0.0789381938078733,,-2.030978148167553,,
,4917.0,1194.0,5058.0,1582.0,2745.0,2457.0,1484.0,,,,0.0069447300065943,-1.93960071204502,0.078784475143956,,-2.0961296120070068,,
,4917.0,1194.0,5059.0,1581.0,2743.0,2458.0,1491.0,,,,0.006853513001865,-1.93974498092984,0.0790164288167992,,-2.1451807033045776,,
,4916.0,1192.0,5060.0,1583.0,2739.0,2474.0,1508.0,,,,0.0069147704170824,-1.93983815236458,0.0788082980668755,,-2.1817271449282107,,
,4916.0,1195.0,5060.0,1581.0,2742.0,2463.0,1514.0,,,,0.0068991467771504,-1.93995301844211,0.0788040603171898,,-2.209596590203193,,
2025-07-15 23:13:16,4923.0,1196.0,5064.0,1584.0,2736.0,2477.0,1501.0,,,2025/07/15 11:13:16 PM,0.0067707368265313,-1.94012396832789,0.0789614104329417,,-2.2326016125964765,,
,4923.0,1196.0,5061.0,1581.0,2739.0,2483.0,1512.0,,,,0.0069512022360637,-1.93977118450031,0.0790215395695686,,-2.2542801093793168,,
,4922.0,1195.0,5065.0,1583.0,2739.0,2468.0,1499.0,,,,0.0071506358873335,-1.93946722635625,0.0789529820387055,,-2.2776354526245,,
,4922.0,1195.0,5066.0,1581.0,2733.0,2476.0,1485.0,,,,0.0072514522321112,-1.93929271240604,0.079120250058975,,-2.3048897724347355,,
,4925.0,1194.0,5068.0,1586.0,2732.0,2484.0,1489.0,,,,0.0072435797616982,-1.93900436990863,0.0792376075196486,,-2.3372655260931876,,
,4924.0,1198.0,5070.0,1585.0,2744.0,2477.0,1473.0,,,,0.0072093778521526,-1.93882794150164,0.0791567494925603,,-2.3748125232816157,,
,4928.0,1199.0,5068.0,1584.0,2733.0,2478.0,1473.0,,,,0.0070974310937109,-1.93928220181271,0.0791103941202027,,-2.416298737945694,,
,4927.0,1195.0,5071.0,1584.0,2737.0,2473.0,1486.0,,,,0.0071258000768711,-1.93904059414979,0.07918385746734,,-2.459182425347976,,
,4930.0,1200.0,5072.0,1586.0,2750.0,2470.0,1486.0,,,,0.0072370680651498,-1.93870184904559,0.0792264493846039,,-2.4996795649812427,,
,4934.0,1199.0,5075.0,1586.0,2743.0,2468.0,1485.0,,,,0.0071721411076031,-1.93909956075462,0.0791835590215349,,-2.532934253141113,,
,4933.0,1198.0,5076.0,1588.0,2737.0,2467.0,1496.0,,,,0.0071775937613234,-1.93950007295499,0.0790073330788188,,-2.553290747686953,,
,4935.0,1198.0,5075.0,1586.0,2746.0,2453.0,1484.0,,,,0.0069521406987855,-1.93949528114528,0.079193872950958,,-2.5546554309027845,,
,4934.0,1199.0,5077.0,1588.0,2735.0,2459.0,1489.0,,,,0.0068448307154726,-1.94043221913211,0.0789970532188749,,-2.5309263984919226,,
,4937.0,1200.0,5081.0,1591.0,2739.0,2464.0,1477.0,,,,0.0066905220014098,-1.94057863024042,0.0788788340644337,,-2.476459113213151,,
,4934.0,1203.0,5081.0,1590.0,2740.0,2473.0,1479.0,,,,0.0066324520020474,-1.94117733842632,0.078661033237166,,-2.3865298597277116,,
,4939.0,1198.0,5082.0,1588.0,2748.0,2460.0,1475.0,,,,0.0064771711690862,-1.94174173627756,0.0786482117998646,,-2.2577556660633644,,
,4939.0,1199.0,5084.0,1591.0,2738.0,2460.0,1470.0,,,,0.0064113043726652,-1.94178648623915,0.0785443834924291,,-2.0884305194232344,,
,4940.0,1202.0,5086.0,1593.0,2750.0,2456.0,1477.0,,,,0.006261622267627,-1.9421060460637,0.0785655965869795,,-1.878743186025495,,
,4942.0,1203.0,5088.0,1594.0,2720.0,2470.0,1496.0,,,,0.0062174778892223,-1.94289919536696,0.0785360322104884,,-1.630851636248832,,
,4944.0,1202.0,5089.0,1593.0,2732.0,2472.0,1499.0,,,,0.0063742635941634,-1.94253550488592,0.0784722036138118,,-1.3488027294037321,,
,4945.0,1203.0,5089.0,1594.0,2738.0,2466.0,1494.0,,,,0.0063219802438081,-1.94297796858364,0.0787052597175923,,-1.03830234988894,,
,4944.0,1205.0,5091.0,1595.0,2749.0,2464.0,1495.0,,,,0.0062786968316779,-1.94269758774984,0.0786468307808624,,-0.7063580211424638,,
,4943.0,1202.0,5095.0,1595.0,2739.0,2477.0,1506.0,,,,0.006527096965578,-1.94275262346856,0.0786584723267952,,-0.3608295629426735,,
,4943.0,1203.0,5094.0,1594.0,2732.0,2475.0,1503.0,,,,0.0065843059137071,-1.94309489906943,0.0785527443721814,,-0.00993063685065624,,
,4942.0,1202.0,5093.0,1594.0,2743.0,2486.0,1507.0,,,,0.0066341594019988,-1.94335696497737,0.0787217370332178,,0.33827580004722135,,
,4941.0,1201.0,5095.0,1594.0,2729.0,2480.0,1520.0,,,,0.0066627796740524,-1.94280143915871,0.0786913041829744,,0.676350425804836,,
,4937.0,1200.0,5091.0,1595.0,2736.0,2470.0,1512.0,,,,0.0066352230754404,-1.94277120241425,0.0786040721483407,,0.99788878733319,,
,4938.0,1202.0,5095.0,1598.0,2730.0,2463.0,1498.0,,,,0.0066627793673655,-1.94277116993959,0.0787877826729216,,1.2978476668742023,,
,4936.0,1203.0,5092.0,1593.0,2728.0,2464.0,1492.0,,,,0.006667505953487,-1.94275829542276,0.0787833083657077,,1.572768338701366,,
,4933.0,1199.0,5087.0,1592.0,2725.0,2465.0,1504.0,,,,0.0066970999977256,-1.94227163760973,0.0786951999406766,,1.8208822425342683,,
,4933.0,1200.0,5091.0,1593.0,2733.0,2470.0,1476.0,,,,0.0068031336360443,-1.94195273175243,0.0785918291344372,,2.042089001165101,,
,4929.0,1198.0,5087.0,1594.0,2735.0,2469.0,1465.0,,,,0.0067558633564287,-1.94224827642041,0.078682410579041,,2.237803152329896,,
,4929.0,1199.0,5083.0,1591.0,2742.0,2479.0,1468.0,,,,0.0067230178626003,-1.94189257351957,0.0786944400421225,,2.4106749078348613,,
,4928.0,1198.0,5085.0,1590.0,2745.0,2478.0,1492.0,,,,0.0068008250597527,-1.94226307598499,0.0786681172999729,,2.5642011866114642,,
,4927.0,1197.0,5082.0,1589.0,2742.0,2474.0,1488.0,,,,0.0068615199560737,-1.94172123205484,0.0787801539622503,,2.702254768593501,,
,4929.0,1197.0,5083.0,1589.0,2754.0,2473.0,1484.0,,,,0.0068954206839106,-1.94194775143818,0.0785627713782867,,2.8285699435776905,,
,4927.0,1197.0,5080.0,1589.0,2751.0,2470.0,1483.0,,,,0.0069119166653515,-1.94165903908283,0.0788458759078794,,2.9462307535044574,,
,4930.0,1198.0,5079.0,1590.0,2746.0,2467.0,1497.0,,,,0.0070984225874868,-1.94196053563236,0.0788390047332331,,3.057211194051856,,
,4929.0,1197.0,5079.0,1588.0,2752.0,2481.0,1480.0,,,,0.0069698639838631,-1.94144676405294,0.0787476159160552,,3.1620141238615176,,
,4929.0,1197.0,5078.0,1588.0,2749.0,2470.0,1480.0,,,,0.0071959981366816,-1.94150310899944,0.0789953495471297,,3.259446799850505,,
,4930.0,1198.0,5080.0,1588.0,2752.0,2462.0,1483.0,,,,0.0072865330295745,-1.94105282276375,0.0788067241051054,,3.3465575550909925,,
,4933.0,1196.0,5079.0,1588.0,2756.0,2467.0,1455.0,,,,0.0073923141541927,-1.94072385815501,0.0790009597980035,,3.41874319238045,,
,4931.0,1198.0,5080.0,1588.0,2738.0,2476.0,1461.0,,,,0.007393582479451,-1.94136829991054,0.079049356561109,,3.4700227939764856,,
,4935.0,1198.0,5079.0,1589.0,2733.0,2477.0,1446.0,,,,0.0075882440288439,-1.94076523486073,0.0790231797368963,,3.4934618236459003,,
,4936.0,1200.0,5081.0,1591.0,2721.0,2476.0,1445.0,,,,0.007788672175985,-1.94030920594215,0.0791957569462354,,3.481720237888349,,
,4935.0,1199.0,5080.0,1592.0,2723.0,2475.0,1443.0,,,,0.0081117829466544,-1.93932419516783,0.0793208905340743,,3.4276890306368637,,
,4936.0,1198.0,5082.0,1590.0,2733.0,2466.0,1464.0,,,,0.0082665690351658,-1.939200259639,0.0791880545404839,,3.3251707531301404,,
,4942.0,1198.0,5083.0,1589.0,2716.0,2466.0,1466.0,,,,0.0084153243728769,-1.93864332346794,0.0796146621132766,,3.1695513434669746,,
,4942.0,1201.0,5083.0,1593.0,2729.0,2464.0,1474.0,,,,0.0086024012177194,-1.9378899208298,0.079673658890416,,2.958404036383781,,
,4943.0,1201.0,5083.0,1592.0,2727.0,2474.0,1471.0,,,,0.0087231513257333,-1.93799221005058,0.0794536503489463,,2.691962721369895,,
,4943.0,1201.0,5083.0,1592.0,2746.0,2473.0,1473.0,,,,0.0086230912709549,-1.93780080614154,0.0795177690841023,,2.3734040723302585,,
,4945.0,1200.0,5086.0,1591.0,2743.0,2466.0,1504.0,,,,0.0085715408480541,-1.9385384164617,0.0794737807888109,,2.0088879170122538,,
,4947.0,1201.0,5085.0,1594.0,2757.0,2467.0,1492.0,,,,0.0083873531611378,-1.93890521265905,0.0793928959862939,,1.6073260020437186,,
,4945.0,1202.0,5088.0,1594.0,2746.0,2472.0,1489.0,,,,0.0081835231229026,-1.93917997379879,0.0794152928035259,,1.1798804792539728,,
,4944.0,1201.0,5087.0,1593.0,2755.0,2489.0,1491.0,,,,0.0080695351271823,-1.93921351910344,0.0793429546715306,,0.7392311649474633,,
,4946.0,1199.0,5087.0,1594.0,2736.0,2480.0,1497.0,,,,0.007828126594103,-1.93933373737513,0.0793591514685297,,0.29868709355891093,,
,4946.0,1202.0,5088.0,1594.0,2749.0,2477.0,1506.0,,,,0.0079160203532236,-1.93890296617143,0.0792498790991607,,-0.12875665285437404,,
,4947.0,1204.0,5089.0,1596.0,2739.0,2468.0,1512.0,,,,0.0079847891999778,-1.9389911813978,0.0792140704461969,,-0.5313090646571939,,
,4947.0,1201.0,5089.0,1595.0,2735.0,2460.0,1507.0,,,,0.0077674872629033,-1.93920790386192,0.079255366245564,,-0.8991257790996826,,
,4947.0,1200.0,5089.0,1593.0,2726.0,2457.0,1514.0,,,,0.0076613384266863,-1.93922432092023,0.0791558975106414,,-1.22483756844226,,
,4948.0,1203.0,5088.0,1597.0,2724.0,2460.0,1515.0,,,,0.0075572710932801,-1.93926349048722,0.0790838603715512,,-1.503832434582753,,
,4949.0,1202.0,5090.0,1595.0,2723.0,2465.0,1537.0,,,,0.0074569045998705,-1.93944084555178,0.079057421906189,,-1.7342923062994213,,
,4949.0,1202.0,5091.0,1596.0,2726.0,2461.0,1531.0,,,,0.0074688079727167,-1.9400976359999,0.078870166623189,,-1.9170129445085584,,
,4946.0,1203.0,5090.0,1597.0,2732.0,2450.0,1525.0,,,,0.0073253903780157,-1.9403236021321,0.0788775685654579,,-2.0550546870347874,,
,4946.0,1201.0,5091.0,1595.0,2713.0,2455.0,1491.0,,,,0.0072461800024727,-1.940585126205,0.0788461154865888,,-2.1532808431561343,,
,4954.0,1201.0,5095.0,1598.0,2715.0,2462.0,1491.0,,,,0.0071342040779013,-1.94091144274247,0.0786060202135985,,-2.2178403334731196,,
,4952.0,1204.0,5093.0,1597.0,2725.0,2467.0,1486.0,,,,0.0068783298501811,-1.94127434031561,0.0786197796569935,,-2.2556434375563272,,
,4952.0,1202.0,5091.0,1597.0,2740.0,2468.0,1493.0,,,,0.006805807804343,-1.94187003471536,0.0784699289505609,,-2.2738670271407506,,
,4953.0,1202.0,5093.0,1597.0,2738.0,2470.0,1486.0,,,,0.006827856452417,-1.94209473099516,0.0783126762340939,,-2.2795116154773676,,
,4953.0,1203.0,5096.0,1599.0,2738.0,2469.0,1495.0,,,,0.0069089692696664,-1.9419217722826,0.0783866806119424,,-2.279019946611138,,
,4956.0,1204.0,5095.0,1599.0,2723.0,2465.0,1484.0,,,,0.0070061162658589,-1.94203299783203,0.0785397087862944,,-2.277957820575223,,
,4955.0,1202.0,5096.0,1596.0,2721.0,2468.0,1478.0,,,,0.007102690296867,-1.94116085648738,0.078391877852798,,-2.2807533959061788,,
,4956.0,1203.0,5094.0,1599.0,2731.0,2464.0,1478.0,,,,0.0072235442184833,-1.94051826360908,0.0786219648500919,,-2.2904912825375248,,
,4957.0,1206.0,5096.0,1599.0,2737.0,2464.0,1493.0,,,,0.0073633609031067,-1.93986833533327,0.0787110827823577,,-2.308761352530246,,
,4959.0,1204.0,5098.0,1601.0,2733.0,2468.0,1503.0,,,,0.0074618461523041,-1.93931119866522,0.0787241702243886,,-2.3355675851126527,,
,4960.0,1204.0,5099.0,1601.0,2731.0,2465.0,1512.0,,,,0.0076529285773197,-1.9385397215448,0.078681434118218,,-2.369307288987323,,
,4960.0,1204.0,5096.0,1600.0,2745.0,2476.0,1516.0,,,,0.0077055201169324,-1.93877192078486,0.0791176262917684,,-2.406833698103737,,
,4960.0,1207.0,5098.0,1600.0,2754.0,2478.0,1514.0,,,,0.0078155881451721,-1.93859406069674,0.0787272502549285,,-2.4436137027141864,,
,4963.0,1208.0,5101.0,1603.0,2740.0,2473.0,1509.0,,,,0.0078035511396253,-1.93854421077328,0.0788591062964294,,-2.473986716708498,,
,4964.0,1206.0,5102.0,1604.0,2729.0,2489.0,1507.0,,,,0.0077487147382967,-1.93857651773359,0.0789714487655367,,-2.4915209849408475,,
,4966.0,1206.0,5104.0,1602.0,2732.0,2486.0,1507.0,,,,0.0078902672364545,-1.93828460014634,0.0789482997507236,,-2.489451705143697,,
,4965.0,1207.0,5102.0,1603.0,2742.0,2483.0,1512.0,,,,0.0079174347307009,-1.93785088267061,0.0790325653162525,,-2.4611733516559076,,
,4970.0,1207.0,5105.0,1605.0,2714.0,2481.0,1509.0,,,,0.0079896956009639,-1.93781118396005,0.0789816617928289,,-2.4007486204409725,,
,4966.0,1206.0,5104.0,1603.0,2728.0,2472.0,1516.0,,,,0.0079905894952236,-1.93776837557152,0.0790692592399739,,-2.303390261582298,,
,4969.0,1208.0,5103.0,1603.0,2735.0,2461.0,1509.0,,,,0.0079255832978376,-1.93804296375116,0.0790828243184288,,-2.165871049004633,,
,4971.0,1207.0,5107.0,1603.0,2743.0,2467.0,1506.0,,,,0.0079016782392037,-1.93860983132664,0.0789147780910779,,-1.986821832119103,,
,4971.0,1208.0,5108.0,1606.0,2739.0,2462.0,1482.0,,,,0.0077479841701147,-1.93919907210417,0.078817815381134,,-1.7668878255137421,,
,4975.0,1210.0,5110.0,1607.0,2737.0,2469.0,1479.0,,,,0.0075375999735833,-1.93976975070263,0.0788218778472911,,-1.5087281033453956,,
,4975.0,1213.0,5110.0,1609.0,2732.0,2468.0,1486.0,,,,0.0075108319299003,-1.9403525612388,0.0784735758929431,,-1.2168607242046667,,
,4975.0,1209.0,5113.0,1609.0,2738.0,2450.0,1469.0,,,,0.0072897431920259,-1.94087842254437,0.0785827946229749,,-0.8973728836519619,,
,4977.0,1209.0,5112.0,1607.0,2730.0,2464.0,1451.0,,,,0.0072840810472205,-1.94215557354014,0.0784343514295123,,-0.557528570107674,,
,4975.0,1214.0,5117.0,1610.0,2750.0,2465.0,1469.0,,,,0.0070304695033993,-1.94220780710013,0.0784720436934897,,-0.20531328296322604,,
,4977.0,1211.0,5115.0,1610.0,2748.0,2475.0,1504.0,,,,0.0069763242283158,-1.94288945281483,0.0781827968163911,,0.15104357095926785,,
,4981.0,1211.0,5117.0,1612.0,2744.0,2472.0,1483.0,,,,0.0068810992828716,-1.94285356956758,0.0781659050275076,,0.5035314322779811,,
,4975.0,1211.0,5117.0,1610.0,2743.0,2458.0,1493.0,,,,0.0069603734856616,-1.9425650626901,0.0782774651438793,,0.8447751862896778,,
,4972.0,1212.0,5117.0,1611.0,2747.0,2459.0,1482.0,,,,0.0071241055771603,-1.94193415914395,0.0783035215315919,,1.168380753303827,,
,4974.0,1212.0,5117.0,1611.0,2743.0,2461.0,1503.0,,,,0.0073880624788127,-1.94140533855406,0.0785859258444434,,1.4691909505906737,,
,4973.0,1212.0,5121.0,1611.0,2753.0,2469.0,1483.0,,,,0.0074964928753762,-1.94047419046914,0.0784722866510486,,1.7434388197828279,,
,4969.0,1211.0,5117.0,1609.0,2734.0,2468.0,1498.0,,,,0.0073324722355875,-1.94066516100793,0.0784525522049014,,1.9887920098268572,,
,4968.0,1211.0,5116.0,1608.0,2729.0,2462.0,1496.0,,,,0.0073658522018286,-1.94101858233248,0.0784737794137062,,2.204289232556245,,
,4966.0,1211.0,5116.0,1609.0,2737.0,2473.0,1512.0,,,,0.0073614515858175,-1.94042725814805,0.0784147367669768,,2.3901782313363524,,
,4966.0,1212.0,5114.0,1611.0,2735.0,2474.0,1509.0,,,,0.0074922365792165,-1.94030035186024,0.0784658982502481,,2.5476734331763433,,
,4964.0,1212.0,5112.0,1609.0,2734.0,2471.0,1497.0,,,,0.0074083398137573,-1.94031380957523,0.0784228469191021,,2.678659283398911,,
,4963.0,1210.0,5114.0,1606.0,2733.0,2457.0,1491.0,,,,0.0072113260078126,-1.94042657621031,0.0781872767179211,,2.785370763749927,,
