TimeLabel,MEAS1_PPG1,MEAS1_PPG2,MEAS1_PPG3,MEAS1_PPG4,ACCX,ACCY,ACCZ,HR_timestamp,HR_value,radar_timestamp,phase_rx0,phase_rx1,phase_rx2,timestep,n_process,original_rate,calculated_rate
2025-06-30 22:41:55,4301.0,1599.0,4012.0,1328.0,2432.0,2862.0,1252.0,2025-06-30 22:41:55,93.0,2025/06/30 10:41:55 PM,0.0918953931816054,-0.470688869904556,0.615550774387987,2025/06/30 10:41:55 PM,-1.4805679043928948,12.968299865722656,17.02716656963013
,4300.0,1597.0,4014.0,1326.0,2433.0,2860.0,1242.0,2025-06-30 22:41:56,93.0,,0.0918945544849211,-0.471296880329804,0.614318720465581,2025/06/30 10:42:05 PM,-1.7041154723905705,18.66251945495605,17.29667812142038
,4299.0,1595.0,4014.0,1326.0,2432.0,2863.0,1235.0,2025-06-30 22:41:57,93.0,,0.0918940731280008,-0.47146821824642,0.614127604139422,2025/06/30 10:42:15 PM,-1.9136261028825872,18.455228805541992,21.063026229167384
,4301.0,1598.0,4012.0,1327.0,2437.0,2887.0,1247.0,2025-06-30 22:41:58,94.0,,0.0918938575184822,-0.471612706699392,0.61375930463388,2025/06/30 10:42:25 PM,-2.109216437690274,17.764619827270508,21.652661064425768
,4300.0,1596.0,4013.0,1328.0,2431.0,2892.0,1265.0,2025-06-30 22:41:59,95.0,,0.0918935082648724,-0.472083544354427,0.613217565999688,2025/06/30 10:42:35 PM,-2.2914413598348213,19.679300308227536,21.792600329256373
,4300.0,1600.0,4015.0,1327.0,2429.0,2893.0,1267.0,2025-06-30 22:42:00,95.0,,0.09189303723571,-0.472306802503493,0.612442527460958,2025/06/30 10:42:45 PM,-2.461254685172424,19.148935317993164,19.478073715361848
,4301.0,1598.0,4013.0,1327.0,2428.0,2858.0,1283.0,2025-06-30 22:42:01,96.0,,0.0918924577976468,-0.472435475586603,0.612736460102368,2025/06/30 10:42:55 PM,-2.6199311738946127,20.81887626647949,20.727602905569007
,4302.0,1597.0,4014.0,1328.0,2432.0,2842.0,1266.0,2025-06-30 22:42:02,96.0,,0.0918925314858391,-0.472349875192324,0.613148699700085,2025/06/30 10:43:05 PM,-2.7689512193557553,13.523666381835938,20.576865893547428
,4301.0,1599.0,4015.0,1328.0,2442.0,2839.0,1243.0,2025-06-30 22:42:03,96.0,,0.0918924016909508,-0.473009697313936,0.612788690074043,2025/06/30 10:43:15 PM,-2.9098517128541355,16.194332122802734,22.609383098104885
,4301.0,1601.0,4015.0,1330.0,2444.0,2851.0,1231.0,2025-06-30 22:42:04,96.0,,0.0918928762847375,-0.472149396294018,0.611608040177723,2025/06/30 10:43:25 PM,-3.0440496502788177,20.61855697631836,22.98638559508125
,4301.0,1597.0,4015.0,1331.0,2435.0,2859.0,1248.0,2025-06-30 22:42:05,97.0,,0.0918929903725989,-0.471841119750428,0.612239972540262,2025/06/30 10:43:35 PM,-3.1726491161841093,22.14022254943848,20.86368787437269
,4302.0,1597.0,4014.0,1329.0,2433.0,2857.0,1273.0,2025-06-30 22:42:06,97.0,,0.0918933617200249,-0.471783347007473,0.611980364773915,2025/06/30 10:43:45 PM,-3.2962466183664096,22.058822631835938,23.20261437908498
,4303.0,1597.0,4016.0,1330.0,2431.0,2845.0,1291.0,2025-06-30 22:42:07,97.0,,0.0918943247814718,-0.47161524494991,0.612675311734445,2025/06/30 10:43:55 PM,-3.4147531819437007,22.556390762329105,21.20461228400569
,4305.0,1599.0,4019.0,1329.0,2425.0,2839.0,1271.0,2025-06-30 22:42:08,97.0,,0.0918949944821318,-0.471571283188077,0.612998839702696,2025/06/30 10:44:05 PM,-3.527253127600428,21.676300048828125,21.46435429811902
,4304.0,1599.0,4016.0,1329.0,2430.0,2848.0,1260.0,2025-06-30 22:42:09,97.0,,0.0918942922200584,-0.471271478753582,0.614126776837614,2025/06/30 10:44:15 PM,-3.6319185862060754,22.01467704772949,21.24725999952858
,4303.0,1598.0,4017.0,1328.0,2428.0,2867.0,1246.0,2025-06-30 22:42:10,97.0,,0.09189447902963,-0.471018030724955,0.613959492001721,2025/06/30 10:44:25 PM,-3.725995704609934,21.276596069335938,22.307843174470616
,4305.0,1598.0,4018.0,1329.0,2428.0,2863.0,1268.0,2025-06-30 22:42:11,98.0,,0.0918951500087828,-0.471150637463469,0.613883626997389,2025/06/30 10:44:35 PM,-3.805873696517086,19.46647453308105,18.82231153330903
,4307.0,1602.0,4017.0,1331.0,2426.0,2871.0,1275.0,2025-06-30 22:42:12,98.0,,0.0918954593322143,-0.470773618538968,0.614557798988542,2025/06/30 10:44:45 PM,-3.86724177701766,18.467851638793945,19.80519480519477
,4307.0,1602.0,4021.0,1331.0,2427.0,2859.0,1261.0,2025-06-30 22:42:13,99.0,,0.0918946785370458,-0.47098678106532,0.614503524950776,,-3.905331591862807,,
,4306.0,1601.0,4020.0,1330.0,2437.0,2857.0,1241.0,2025-06-30 22:42:14,100.0,,0.0918950936717108,-0.471485757801406,0.614642010384958,,-3.915233967555909,,
,4307.0,1598.0,4019.0,1330.0,2439.0,2850.0,1257.0,2025-06-30 22:42:15,100.0,,0.0918954701932086,-0.470611629933033,0.615132975332159,,-3.892269172442895,,
,4306.0,1601.0,4024.0,1334.0,2434.0,2849.0,1262.0,2025-06-30 22:42:16,100.0,,0.0918964368604422,-0.470384807222823,0.615684470584271,,-3.832380625609313,,
,4308.0,1603.0,4023.0,1332.0,2444.0,2870.0,1265.0,2025-06-30 22:42:17,99.0,,0.0918968707144498,-0.470083262256306,0.616509348935584,,-3.7325147346966916,,
,4308.0,1601.0,4021.0,1333.0,2450.0,2889.0,1252.0,2025-06-30 22:42:18,98.0,,0.0918975390608355,-0.469948200285348,0.617152302579057,,-3.5909459144355074,,
,4308.0,1601.0,4020.0,1330.0,2446.0,2873.0,1264.0,2025-06-30 22:42:19,98.0,,0.0918973351914424,-0.469798911478705,0.616591796641771,,-3.407507276816429,,
,4309.0,1602.0,4025.0,1335.0,2439.0,2871.0,1266.0,2025-06-30 22:42:20,99.0,,0.0918981689109918,-0.469389789846053,0.617247760056401,,-3.183694904951628,,
,4310.0,1604.0,4021.0,1337.0,2435.0,2861.0,1260.0,2025-06-30 22:42:21,100.0,,0.0918979865527771,-0.469214952263579,0.617854091483131,,-2.922626842623547,,
,4309.0,1601.0,4026.0,1335.0,2433.0,2844.0,1274.0,2025-06-30 22:42:22,100.0,,0.0918993787563854,-0.468711419902459,0.618060057348714,,-2.628855355336171,,
,4310.0,1605.0,4025.0,1331.0,2418.0,2834.0,1256.0,2025-06-30 22:42:23,101.0,,0.091899308250817,-0.468985789926079,0.618265736140551,,-2.308049977594619,,
,4311.0,1603.0,4025.0,1334.0,2427.0,2843.0,1273.0,2025-06-30 22:42:24,101.0,,0.0918995244227911,-0.468771912568475,0.618858491095262,,-1.9665862811106678,,
,4310.0,1603.0,4026.0,1335.0,2433.0,2856.0,1269.0,2025-06-30 22:42:25,101.0,,0.0918991657128043,-0.468353607849287,0.619558147985183,,-1.6110881562674202,,
,4314.0,1604.0,4027.0,1338.0,2431.0,2858.0,1268.0,2025-06-30 22:42:26,101.0,,0.0918996625347245,-0.468377610926039,0.619087388537817,,-1.2479771125309056,,
,4317.0,1607.0,4030.0,1339.0,2439.0,2872.0,1278.0,2025-06-30 22:42:27,100.0,,0.0919003616730615,-0.468567956301018,0.619068142090712,,-0.8830793169064491,,
,4313.0,1603.0,4028.0,1334.0,2449.0,2886.0,1281.0,2025-06-30 22:42:28,100.0,,0.0918991448178999,-0.468747370390463,0.618719179775053,,-0.5213305111580936,,
,4314.0,1606.0,4029.0,1338.0,2441.0,2861.0,1256.0,2025-06-30 22:42:29,99.0,,0.0918999389608919,-0.468317522820404,0.618808055001945,,-0.16660334538413862,,
,4315.0,1605.0,4030.0,1338.0,2439.0,2878.0,1241.0,2025-06-30 22:42:30,99.0,,0.0918996368178715,-0.468564126456826,0.618738155150685,,0.1783351996047468,,
,4315.0,1607.0,4030.0,1337.0,2430.0,2884.0,1239.0,2025-06-30 22:42:31,97.0,,0.0919004821419887,-0.46817358896641,0.619197670493095,,0.5117434720974654,,
,4315.0,1605.0,4029.0,1338.0,2433.0,2880.0,1255.0,2025-06-30 22:42:32,96.0,,0.0919005527676381,-0.468573223086657,0.619201726589453,,0.8327202346133247,,
,4316.0,1605.0,4029.0,1335.0,2431.0,2887.0,1274.0,2025-06-30 22:42:33,95.0,,0.0919004391276705,-0.468476293751997,0.61888334276997,,1.140941310489729,,
,4315.0,1607.0,4031.0,1335.0,2437.0,2841.0,1275.0,2025-06-30 22:42:34,94.0,,0.0919012732275827,-0.468532763027552,0.619110426178627,,1.4363496561452214,,
,4318.0,1605.0,4030.0,1337.0,2426.0,2846.0,1266.0,2025-06-30 22:42:35,94.0,,0.091901233080612,-0.46832228388209,0.619330874003325,,1.7188350210311336,,
,4315.0,1607.0,4030.0,1333.0,2427.0,2854.0,1269.0,2025-06-30 22:42:36,94.0,,0.0919014535205352,-0.468119534850539,0.619043974971567,,1.9879412914708832,,
,4312.0,1603.0,4028.0,1335.0,2429.0,2849.0,1255.0,2025-06-30 22:42:37,95.0,,0.0919009584284722,-0.468596791523419,0.618357071296269,,2.2426375692424627,,
,4312.0,1603.0,4026.0,1334.0,2426.0,2845.0,1236.0,2025-06-30 22:42:38,95.0,,0.0919013543419209,-0.46847940768102,0.619618218899968,,2.481182178588601,,
,4313.0,1605.0,4029.0,1334.0,2428.0,2832.0,1247.0,2025-06-30 22:42:39,96.0,,0.0919013909472603,-0.468372187967843,0.620291226406518,,2.701097532728876,,
,4312.0,1601.0,4026.0,1333.0,2434.0,2839.0,1266.0,2025-06-30 22:42:40,97.0,,0.0919021063570554,-0.468108364442382,0.620181852859431,,2.899259409288755,,
,4306.0,1600.0,4022.0,1331.0,2424.0,2857.0,1263.0,2025-06-30 22:42:41,97.0,,0.0919010841937987,-0.468135854284171,0.618891858927124,,3.0720886865509898,,
,4309.0,1599.0,4023.0,1331.0,2431.0,2837.0,1256.0,2025-06-30 22:42:42,98.0,,0.091901795771708,-0.468272838659763,0.618700574733739,,3.215819649224638,,
,4305.0,1598.0,4019.0,1329.0,2435.0,2848.0,1271.0,2025-06-30 22:42:43,97.0,,0.0919007999346938,-0.468729005462638,0.618779501072635,,3.3268092814837984,,
,4305.0,1599.0,4019.0,1330.0,2435.0,2854.0,1254.0,2025-06-30 22:42:44,97.0,,0.0918993138580775,-0.469447728187235,0.617290746042739,,3.401848233881103,,
,4303.0,1597.0,4018.0,1329.0,2431.0,2849.0,1256.0,2025-06-30 22:42:45,97.0,,0.0918984599205525,-0.470051162830366,0.61595226606795,,3.438436614448505,,
,4303.0,1598.0,4019.0,1329.0,2435.0,2844.0,1247.0,2025-06-30 22:42:46,96.0,,0.0918969786513328,-0.470614177122307,0.615226422173411,,3.4349954440229773,,
,4302.0,1597.0,4018.0,1327.0,2439.0,2867.0,1248.0,2025-06-30 22:42:47,97.0,,0.0918959215306524,-0.4714476756353,0.61443375879075,,3.390995771454629,,
,4303.0,1597.0,4017.0,1327.0,2438.0,2871.0,1247.0,2025-06-30 22:42:48,97.0,,0.0918942949175678,-0.471820458415812,0.61350162463238,,3.3069998475821523,,
,4303.0,1600.0,4016.0,1327.0,2445.0,2872.0,1238.0,2025-06-30 22:42:49,97.0,,0.0918938231143432,-0.472193454125603,0.61275249327116,,3.1846203003927975,,
,4301.0,1595.0,4015.0,1326.0,2444.0,2868.0,1229.0,2025-06-30 22:42:50,98.0,,0.0918933141421823,-0.472610002838321,0.61185505463849,,3.026412484665486,,
,4300.0,1595.0,4016.0,1327.0,2444.0,2875.0,1252.0,2025-06-30 22:42:51,99.0,,0.091893006826517,-0.47241196428544,0.61164985398458,,2.835721190336861,,
,4305.0,1597.0,4015.0,1329.0,2438.0,2871.0,1244.0,2025-06-30 22:42:52,99.0,,0.0918929005396316,-0.472478135909424,0.611975342752344,,2.616504961498145,,
,4303.0,1597.0,4013.0,1328.0,2431.0,2869.0,1269.0,2025-06-30 22:42:53,99.0,,0.0918929741973146,-0.47237126631327,0.612433798580026,,2.373159138404372,,
,4301.0,1596.0,4013.0,1327.0,2428.0,2876.0,1273.0,2025-06-30 22:42:54,99.0,,0.0918937336007326,-0.471888659797339,0.612329507990414,,2.1103531582974555,,
,4300.0,1595.0,4012.0,1325.0,2431.0,2851.0,1249.0,2025-06-30 22:42:55,99.0,,0.091894341619135,-0.472257504080653,0.612665916159926,,1.8328903049057044,,
,4302.0,1596.0,4018.0,1326.0,2431.0,2853.0,1241.0,2025-06-30 22:42:56,98.0,,0.0918942193645005,-0.472275764635009,0.613347052927254,,1.5455908252344854,,
,4303.0,1596.0,4015.0,1328.0,2427.0,2853.0,1258.0,2025-06-30 22:42:57,99.0,,0.0918941838384482,-0.472195304253247,0.613589793393685,,1.2531937326552371,,
,4305.0,1597.0,4016.0,1330.0,2429.0,2857.0,1262.0,2025-06-30 22:42:58,99.0,,0.0918949683316177,-0.471631850958354,0.613234567084584,,0.9602698807181662,,
,4303.0,1595.0,4017.0,1328.0,2427.0,2853.0,1274.0,2025-06-30 22:42:59,100.0,,0.0918952933120841,-0.471555986235333,0.613669465460013,,0.6711393121785388,,
,4306.0,1597.0,4017.0,1328.0,2428.0,2856.0,1260.0,2025-06-30 22:43:00,100.0,,0.0918952389046054,-0.471228572451059,0.614495304759684,,0.38978845575412374,,
,4304.0,1599.0,4017.0,1328.0,2428.0,2836.0,1265.0,2025-06-30 22:43:01,100.0,,0.0918960139454657,-0.470978102076607,0.615049275287378,,0.11978585929378804,,
,4308.0,1599.0,4018.0,1330.0,2428.0,2842.0,1261.0,2025-06-30 22:43:02,99.0,,0.0918970227982398,-0.470552590131735,0.615969291647807,,-0.13580210028386722,,
,4304.0,1596.0,4014.0,1329.0,2423.0,2843.0,1272.0,2025-06-30 22:43:03,100.0,,0.0918966364694343,-0.470325108863121,0.616366232301295,,-0.3744916107729075,,
,4307.0,1597.0,4017.0,1331.0,2421.0,2830.0,1265.0,2025-06-30 22:43:04,100.0,,0.0918973946918138,-0.470216735166678,0.616371208358515,,-0.594451476927266,,
,4306.0,1599.0,4017.0,1331.0,2431.0,2849.0,1269.0,2025-06-30 22:43:05,100.0,,0.0918980575056731,-0.469834304757167,0.616923130066123,,-0.794553857991145,,
,4305.0,1599.0,4019.0,1331.0,2435.0,2864.0,1271.0,2025-06-30 22:43:06,100.0,,0.0918978719557201,-0.469952601749808,0.616716505119709,,-0.974394508736002,,
,4306.0,1598.0,4019.0,1331.0,2435.0,2854.0,1267.0,2025-06-30 22:43:07,100.0,,0.091898513860435,-0.4699475606062,0.617379541879469,,-1.1342700172295215,,
,4304.0,1596.0,4017.0,1331.0,2426.0,2841.0,1262.0,2025-06-30 22:43:08,99.0,,0.0918990109307476,-0.469399353997831,0.618074862897983,,-1.2751001920458538,,
,4303.0,1597.0,4016.0,1328.0,2432.0,2850.0,1270.0,2025-06-30 22:43:09,99.0,,0.0918983678722928,-0.469270172047768,0.617875260393479,,-1.3982878764738507,,
,4304.0,1598.0,4018.0,1330.0,2432.0,2852.0,1244.0,2025-06-30 22:43:10,99.0,,0.0918986424761431,-0.469399195983365,0.618033496577696,,-1.5055168404143886,,
,4305.0,1598.0,4017.0,1332.0,2430.0,2853.0,1243.0,2025-06-30 22:43:11,100.0,,0.0918985118504584,-0.469092796696458,0.617888481948373,,-1.5984999742779353,,
,4306.0,1597.0,4017.0,1329.0,2434.0,2866.0,1264.0,2025-06-30 22:43:12,100.0,,0.0918988350042823,-0.469679849156581,0.617429999185195,,-1.6787019583110612,,
,4303.0,1598.0,4016.0,1327.0,2431.0,2872.0,1263.0,2025-06-30 22:43:13,101.0,,0.0918975818412236,-0.469739912713308,0.616963222608737,,-1.7470695466239707,,
,4305.0,1597.0,4017.0,1329.0,2436.0,2855.0,1266.0,2025-06-30 22:43:14,102.0,,0.0918967593998494,-0.470202293522703,0.617144168565542,,-1.8038060796390716,,
,4306.0,1599.0,4018.0,1330.0,2437.0,2865.0,1262.0,2025-06-30 22:43:15,103.0,,0.0918969981569586,-0.47056710403231,0.61635148609646,,-1.8482239750926128,,
,4305.0,1597.0,4016.0,1329.0,2433.0,2867.0,1254.0,2025-06-30 22:43:16,104.0,,0.0918966300888621,-0.470958554223963,0.615872457921386,,-1.8787005955777911,,
,4306.0,1596.0,4016.0,1330.0,2441.0,2849.0,1242.0,2025-06-30 22:43:17,103.0,,0.0918959915469403,-0.471286237577205,0.614778518088615,,-1.8927508460176896,,
,4305.0,1597.0,4016.0,1330.0,2432.0,2864.0,1243.0,2025-06-30 22:43:18,103.0,,0.0918959069748274,-0.471623003627132,0.614517348549895,,-1.8872159458583346,,
,4308.0,1597.0,4018.0,1331.0,2436.0,2849.0,1248.0,2025-06-30 22:43:19,102.0,,0.0918962801022186,-0.471610600299279,0.614162335452887,,-1.858553646355505,,
,4305.0,1596.0,4016.0,1329.0,2435.0,2845.0,1259.0,2025-06-30 22:43:20,101.0,,0.0918950058767455,-0.471605304174767,0.613890570973958,,-1.8032023306857465,,
,4302.0,1595.0,4015.0,1330.0,2433.0,2845.0,1265.0,2025-06-30 22:43:21,101.0,,0.0918951739006714,-0.471514284173511,0.613939738101639,,-1.7179815689311881,,
,4308.0,1594.0,4015.0,1327.0,2437.0,2849.0,1263.0,2025-06-30 22:43:22,101.0,,0.0918949325278011,-0.471665366240334,0.613733966858789,,-1.6004860975269815,,
,4308.0,1597.0,4018.0,1330.0,2435.0,2841.0,1267.0,2025-06-30 22:43:23,102.0,,0.0918948397554169,-0.471629401294416,0.613632635886717,,-1.4494295755282773,,
,4307.0,1599.0,4017.0,1331.0,2432.0,2844.0,1267.0,2025-06-30 22:43:24,102.0,,0.0918955970279844,-0.471672680876,0.613695984025954,,-1.2648990557639401,,
,4306.0,1598.0,4018.0,1330.0,2438.0,2865.0,1275.0,2025-06-30 22:43:25,103.0,,0.0918959597731995,-0.47133364259136,0.613524815296658,,-1.048490642305977,,
,4308.0,1596.0,4015.0,1332.0,2433.0,2849.0,1274.0,2025-06-30 22:43:26,103.0,,0.0918956154168146,-0.47088246607196,0.614070209881444,,-0.8033102424844475,,
,4307.0,1599.0,4020.0,1331.0,2436.0,2867.0,1286.0,2025-06-30 22:43:27,102.0,,0.0918960567947062,-0.47110264191297,0.614132597479216,,-0.5338386950744357,,
,4309.0,1600.0,4021.0,1333.0,2437.0,2851.0,1270.0,2025-06-30 22:43:28,102.0,,0.0918973882354605,-0.47053922212421,0.614159145581843,,-0.2456756864673628,,
,4308.0,1599.0,4020.0,1330.0,2436.0,2842.0,1257.0,2025-06-30 22:43:29,101.0,,0.0918960230259824,-0.470794804315503,0.614901973141731,,0.05480974040890296,,
,4309.0,1599.0,4019.0,1330.0,2433.0,2840.0,1269.0,2025-06-30 22:43:30,101.0,,0.0918967080445943,-0.470867268626874,0.615619320679752,,0.36088356388703097,,
,4308.0,1598.0,4020.0,1334.0,2439.0,2847.0,1275.0,2025-06-30 22:43:31,101.0,,0.0918972192655747,-0.47042789528911,0.616164701611222,,0.6658607379364557,,
,4312.0,1601.0,4021.0,1334.0,2432.0,2854.0,1277.0,2025-06-30 22:43:32,101.0,,0.0918973844604568,-0.470233295585005,0.616295753845463,,0.9634822330562657,,
,4312.0,1600.0,4023.0,1332.0,2435.0,2849.0,1266.0,2025-06-30 22:43:33,102.0,,0.0918977474064802,-0.469871699105358,0.616461816664679,,1.2482142475176654,,
,4312.0,1600.0,4022.0,1333.0,2441.0,2851.0,1239.0,2025-06-30 22:43:34,103.0,,0.0918977643167224,-0.469696620266972,0.616286800336818,,1.5154406707937038,,
,4309.0,1599.0,4024.0,1330.0,2436.0,2853.0,1262.0,2025-06-30 22:43:35,103.0,,0.0918980966008044,-0.469562750455245,0.61662500920176,,1.7615364584020572,,
,4314.0,1599.0,4023.0,1333.0,2435.0,2862.0,1249.0,2025-06-30 22:43:36,103.0,,0.0918990408045076,-0.469140467236404,0.617385082722314,,1.9838278920653258,,
,4314.0,1602.0,4025.0,1333.0,2439.0,2862.0,1253.0,2025-06-30 22:43:37,102.0,,0.0918996311315488,-0.469264289907295,0.617121753464642,,2.180462422278932,,
,4314.0,1601.0,4024.0,1333.0,2443.0,2853.0,1261.0,2025-06-30 22:43:38,101.0,,0.0919000287610538,-0.469402274921331,0.617772809050035,,2.350222702803879,,
,4313.0,1602.0,4026.0,1334.0,2442.0,2869.0,1268.0,2025-06-30 22:43:39,101.0,,0.091900176465106,-0.468783214822505,0.618199146945216,,2.492324364932498,,
,4315.0,1603.0,4026.0,1334.0,2436.0,2859.0,1251.0,2025-06-30 22:43:40,100.0,,0.0919002263779333,-0.468252609162307,0.61886339484626,,2.606234751885348,,
,4317.0,1604.0,4027.0,1336.0,2432.0,2847.0,1276.0,2025-06-30 22:43:41,101.0,,0.0919002423555403,-0.468413833336546,0.618079598772802,,2.6915416398235394,,
,4314.0,1603.0,4028.0,1337.0,2432.0,2838.0,1283.0,2025-06-30 22:43:42,102.0,,0.0919009785630459,-0.468088565683611,0.617936634648719,,2.747888998450413,,
,4316.0,1602.0,4025.0,1336.0,2442.0,2820.0,1282.0,2025-06-30 22:43:43,103.0,,0.0919003723975264,-0.469148768685782,0.618248771170069,,2.7749832289363763,,
,4314.0,1605.0,4029.0,1338.0,2436.0,2877.0,1269.0,2025-06-30 22:43:44,103.0,,0.0918998496318112,-0.468478909406628,0.6179884629199,,2.7726603258240305,,
,4318.0,1607.0,4029.0,1338.0,2432.0,2864.0,1258.0,2025-06-30 22:43:45,103.0,,0.0919011228146074,-0.468561359898534,0.61787302493281,,2.7409942890912777,,
,4318.0,1607.0,4031.0,1339.0,2431.0,2850.0,1257.0,2025-06-30 22:43:46,102.0,,0.0918999676191861,-0.468929885370994,0.617626310501935,,2.6804213707817066,,
,4318.0,1603.0,4030.0,1336.0,2434.0,2837.0,1262.0,2025-06-30 22:43:47,101.0,,0.0918992537492577,-0.469026881561535,0.616743316157789,,2.5918537834314286,,
,4320.0,1604.0,4029.0,1336.0,2443.0,2831.0,1272.0,2025-06-30 22:43:48,100.0,,0.0918996795740281,-0.469037381782815,0.617672543329665,,2.4767600615303627,,
,4321.0,1608.0,4031.0,1338.0,2439.0,2847.0,1281.0,2025-06-30 22:43:49,99.0,,0.0918988231909748,-0.469282038514823,0.616949176874351,,2.337196701570618,,
,4320.0,1605.0,4032.0,1338.0,2437.0,2846.0,1267.0,2025-06-30 22:43:50,99.0,,0.0918990638544502,-0.468816217235675,0.616617338925161,,2.175785514033523,,
,4323.0,1609.0,4030.0,1339.0,2437.0,2858.0,1276.0,2025-06-30 22:43:51,100.0,,0.0918991750550054,-0.46905390571938,0.617176361035288,,1.9956408210614747,,
,4319.0,1605.0,4029.0,1338.0,2438.0,2874.0,1255.0,2025-06-30 22:43:52,100.0,,0.0919001276589257,-0.469435926266986,0.617187530363467,,1.8002578309658652,,
,4318.0,1605.0,4032.0,1337.0,2441.0,2860.0,1264.0,2025-06-30 22:43:53,101.0,,0.0918998679772253,-0.468915493038118,0.616457184920814,,1.5933771045356089,,
,4315.0,1602.0,4028.0,1336.0,2444.0,2846.0,1280.0,2025-06-30 22:43:54,101.0,,0.0919002030576526,-0.469094769105356,0.617837474432403,,1.3788401704581732,,
,4314.0,1605.0,4031.0,1334.0,2440.0,2850.0,1282.0,2025-06-30 22:43:55,102.0,,0.0919002660706393,-0.469011912766785,0.617531784016879,,1.1604488092116483,,
,4315.0,1603.0,4027.0,1335.0,2438.0,2853.0,1276.0,2025-06-30 22:43:56,103.0,,0.0919006011484841,-0.46894523648371,0.617598996433756,,0.941836392394067,,
,4313.0,1602.0,4024.0,1332.0,2429.0,2862.0,1277.0,2025-06-30 22:43:57,103.0,,0.091900605733749,-0.46855288933885,0.618173750274451,,0.7263553640622639,,
,4311.0,1600.0,4024.0,1334.0,2428.0,2849.0,1266.0,2025-06-30 22:43:58,103.0,,0.0919005411782933,-0.468912632699215,0.618405407267537,,0.5169818699912011,,
,4309.0,1600.0,4023.0,1332.0,2424.0,2849.0,1261.0,2025-06-30 22:43:59,103.0,,0.0919012899847601,-0.468662639426785,0.618277696601345,,0.3162374395709611,,
,4309.0,1598.0,4022.0,1330.0,2429.0,2841.0,1272.0,2025-06-30 22:44:00,102.0,,0.0919007994825604,-0.468588341084182,0.618010568595365,,0.12612841618359305,,
,4307.0,1599.0,4019.0,1329.0,2435.0,2839.0,1289.0,2025-06-30 22:44:01,102.0,,0.091900192452504,-0.468827389508507,0.617429295673827,,-0.05189427466931702,,
,4305.0,1596.0,4019.0,1328.0,2439.0,2834.0,1268.0,2025-06-30 22:44:02,102.0,,0.0918991545796966,-0.469216351058736,0.617415651272735,,-0.21695069763963284,,
2025-06-30 22:41:56,4304.0,1595.0,4018.0,1329.0,2437.0,2820.0,1269.0,2025-06-30 22:44:03,102.0,2025/06/30 10:41:56 PM,0.0918987889642108,-0.469477246436658,0.616394728836948,,-0.36871821685834516,,
,4303.0,1596.0,4018.0,1326.0,2436.0,2835.0,1258.0,2025-06-30 22:44:04,102.0,,0.0918979143801573,-0.470367832712353,0.615597682771379,,-0.5073857124718638,,
,4300.0,1594.0,4016.0,1327.0,2437.0,2821.0,1263.0,2025-06-30 22:44:05,101.0,,0.0918967236368738,-0.470769997885429,0.614975973321508,,-0.6335763082614033,,
,4300.0,1595.0,4015.0,1326.0,2444.0,2847.0,1257.0,2025-06-30 22:44:06,100.0,,0.0918956787222649,-0.471558110429848,0.614599721525021,,-0.7482434316395413,,
,4297.0,1593.0,4015.0,1325.0,2447.0,2843.0,1247.0,2025-06-30 22:44:07,99.0,,0.0918942402953294,-0.471404759716403,0.612964669094181,,-0.8525492303725203,,
,4300.0,1594.0,4013.0,1325.0,2437.0,2859.0,1259.0,2025-06-30 22:44:08,98.0,,0.0918942426763788,-0.471483227130503,0.612875751635194,,-0.9477377303617716,,
,4301.0,1597.0,4013.0,1326.0,2436.0,2867.0,1252.0,2025-06-30 22:44:09,98.0,,0.0918944393381676,-0.471395609084722,0.613972327010779,,-1.0350166460771282,,
,4299.0,1593.0,4011.0,1324.0,2440.0,2871.0,1258.0,2025-06-30 22:44:10,98.0,,0.0918944174267028,-0.471706522322642,0.613927251235902,,-1.1154608086364237,,
,4299.0,1593.0,4013.0,1326.0,2440.0,2863.0,1279.0,2025-06-30 22:44:11,99.0,,0.0918955135806542,-0.471282628416113,0.614099431537229,,-1.1899469522954702,,
,4298.0,1595.0,4012.0,1325.0,2438.0,2856.0,1277.0,2025-06-30 22:44:12,99.0,,0.0918959410609742,-0.470995142766496,0.615123329888015,,-1.259124868918073,,
,4300.0,1594.0,4011.0,1325.0,2439.0,2848.0,1271.0,2025-06-30 22:44:13,100.0,,0.0918967496923025,-0.469980221067326,0.615819726388959,,-1.3234245090891512,,
,4300.0,1594.0,4010.0,1324.0,2443.0,2837.0,1271.0,2025-06-30 22:44:14,101.0,,0.0918977597773011,-0.469683411871139,0.616899706262211,,-1.3830932374117821,,
,4297.0,1592.0,4011.0,1324.0,2438.0,2850.0,1254.0,2025-06-30 22:44:15,101.0,,0.0918981776094916,-0.469290624176501,0.617455552132213,,-1.438253011084269,,
,4299.0,1595.0,4011.0,1327.0,2439.0,2864.0,1262.0,2025-06-30 22:44:16,101.0,,0.0919004621041171,-0.468264725936313,0.618377632030257,,-1.4889645754382208,,
,4300.0,1593.0,4013.0,1324.0,2440.0,2851.0,1265.0,2025-06-30 22:44:17,100.0,,0.0919012129369901,-0.467746002536347,0.61985154619604,,-1.535285351307514,,
,4300.0,1594.0,4013.0,1326.0,2439.0,2847.0,1258.0,2025-06-30 22:44:18,99.0,,0.0919018810560337,-0.467504790688697,0.621022860990425,,-1.5773097405401353,,
,4301.0,1593.0,4011.0,1324.0,2442.0,2850.0,1276.0,2025-06-30 22:44:19,99.0,,0.0919028445167407,-0.467000866114047,0.621854481596267,,-1.615185123175726,,
,4298.0,1594.0,4012.0,1325.0,2439.0,2835.0,1279.0,2025-06-30 22:44:20,98.0,,0.091903121420425,-0.466806220618431,0.62228477522913,,-1.6491032901921348,,
,4300.0,1592.0,4015.0,1326.0,2436.0,2847.0,1262.0,2025-06-30 22:44:21,99.0,,0.0919042533588433,-0.465931617878467,0.623843327130183,,-1.6792739034355355,,
,4300.0,1594.0,4016.0,1329.0,2438.0,2859.0,1274.0,2025-06-30 22:44:22,99.0,,0.0919050193638917,-0.465792878712024,0.624102911356534,,-1.7058917746997777,,
,4300.0,1593.0,4010.0,1324.0,2450.0,2846.0,1289.0,2025-06-30 22:44:23,100.0,,0.0919053375529036,-0.465440444071537,0.624465988195794,,-1.729111793224303,,
,4298.0,1592.0,4013.0,1326.0,2440.0,2848.0,1277.0,2025-06-30 22:44:24,101.0,,0.0919056251801948,-0.464984936850844,0.624878167246213,,-1.7490437093384572,,
,4301.0,1594.0,4014.0,1327.0,2440.0,2856.0,1282.0,2025-06-30 22:44:25,101.0,,0.0919068461437865,-0.4647477861534,0.625829312848787,,-1.765774137507211,,
,4300.0,1596.0,4014.0,1326.0,2437.0,2849.0,1301.0,2025-06-30 22:44:26,100.0,,0.0919064124813125,-0.464402120877307,0.626490300697941,,-1.7794162602122254,,
,4298.0,1591.0,4010.0,1325.0,2428.0,2840.0,1286.0,2025-06-30 22:44:27,100.0,,0.0919077672160129,-0.464251320676008,0.626286948289733,,-1.790180516819607,,
,4299.0,1591.0,4011.0,1324.0,2436.0,2837.0,1279.0,2025-06-30 22:44:28,99.0,,0.0919080913986458,-0.463916376243982,0.62679101813385,,-1.798453783144643,,
,4299.0,1593.0,4013.0,1324.0,2439.0,2845.0,1253.0,2025-06-30 22:44:29,99.0,,0.0919079272031618,-0.464109786640142,0.626596762514801,,-1.8048713463017687,,
,4297.0,1592.0,4013.0,1324.0,2435.0,2851.0,1258.0,2025-06-30 22:44:30,99.0,,0.0919086990269239,-0.464187129622135,0.626651010019146,,-1.8103657941390787,,
,4300.0,1595.0,4012.0,1323.0,2433.0,2841.0,1271.0,2025-06-30 22:44:31,99.0,,0.0919067187259453,-0.464456687570975,0.627101019058979,,-1.8161796325090265,,
,4296.0,1590.0,4011.0,1323.0,2432.0,2832.0,1277.0,2025-06-30 22:44:32,99.0,,0.091907037857175,-0.464632924108149,0.627263634388266,,-1.8238333296691687,,
,4295.0,1592.0,4012.0,1324.0,2438.0,2838.0,1283.0,2025-06-30 22:44:33,100.0,,0.0919062290115697,-0.464929419492772,0.625995479890255,,-1.8350464326636764,,
,4295.0,1593.0,4011.0,1324.0,2439.0,2851.0,1265.0,2025-06-30 22:44:34,100.0,,0.0919059065029286,-0.464892550955006,0.625536157755883,,-1.8516152575069984,,
,4296.0,1593.0,4007.0,1324.0,2434.0,2847.0,1254.0,2025-06-30 22:44:35,100.0,,0.0919055863266113,-0.465026916871317,0.625603816011295,,-1.8752556077718958,,
,4296.0,1589.0,4009.0,1325.0,2430.0,2849.0,1275.0,2025-06-30 22:44:36,100.0,,0.0919050814766325,-0.465089455927094,0.62590333013186,,-1.9074224716456627,,
,4296.0,1593.0,4009.0,1323.0,2437.0,2840.0,1259.0,2025-06-30 22:44:37,100.0,,0.0919053391084158,-0.464951918101206,0.625677542082484,,-1.9491202895423494,,
,4296.0,1594.0,4010.0,1326.0,2437.0,2843.0,1273.0,2025-06-30 22:44:38,99.0,,0.091905608330153,-0.464960430665112,0.625345944267166,,-2.000717158620711,,
,4297.0,1592.0,4011.0,1325.0,2436.0,2838.0,1277.0,2025-06-30 22:44:39,98.0,,0.0919059712764365,-0.465432114900689,0.625708195934691,,-2.0617748086325474,,
,4296.0,1590.0,4011.0,1326.0,2447.0,2850.0,1271.0,2025-06-30 22:44:40,98.0,,0.0919051756608706,-0.465410718402503,0.625667338849605,,-2.130904246459247,,
,4294.0,1591.0,4009.0,1322.0,2439.0,2850.0,1270.0,2025-06-30 22:44:41,97.0,,0.0919055214979804,-0.465083479023543,0.625588691708167,,-2.2056555313862476,,
,4299.0,1594.0,4014.0,1325.0,2437.0,2856.0,1283.0,2025-06-30 22:44:42,97.0,,0.0919058915909678,-0.465029525070729,0.625858760867777,,-2.282450029501704,,
,4297.0,1592.0,4012.0,1325.0,2428.0,2849.0,1284.0,2025-06-30 22:44:43,98.0,,0.0919067524073492,-0.464953623001729,0.626302360828682,,-2.3565651551575333,,
,4297.0,1595.0,4010.0,1325.0,2433.0,2833.0,1288.0,2025-06-30 22:44:44,98.0,,0.0919060046716088,-0.465053133773415,0.626569660323564,,-2.4221844310845775,,
,4296.0,1594.0,4010.0,1325.0,2433.0,2824.0,1278.0,2025-06-30 22:44:45,99.0,,0.0919080733016338,-0.464679037693868,0.626282369660513,,-2.472527766771127,,
,4298.0,1592.0,4012.0,1326.0,2435.0,2828.0,1294.0,2025-06-30 22:44:46,99.0,,0.0919078266804397,-0.464377773825024,0.627048887633343,,-2.5000757939035214,,
,4299.0,1595.0,4011.0,1326.0,2438.0,2829.0,1266.0,2025-06-30 22:44:47,100.0,,0.0919082960703477,-0.464269134391651,0.626945874545099,,-2.496896301262514,,
,4297.0,1593.0,4014.0,1327.0,2437.0,2831.0,1253.0,2025-06-30 22:44:48,100.0,,0.0919072871337174,-0.464091165977379,0.62804858949413,,-2.4550699997861325,,
,4300.0,1593.0,4015.0,1325.0,2438.0,2840.0,1267.0,2025-06-30 22:44:49,99.0,,0.0919080618760042,-0.464017832627541,0.628182856427094,,-2.3671980765641503,,
,4299.0,1593.0,4012.0,1325.0,2428.0,2849.0,1263.0,2025-06-30 22:44:50,98.0,,0.0919085757085336,-0.463503291224299,0.628040898217766,,-2.22695763382578,,
,4300.0,1595.0,4014.0,1326.0,2432.0,2867.0,1254.0,2025-06-30 22:44:51,97.0,,0.091909373372685,-0.463164719055338,0.62894183356156,,-2.029656566993751,,
,4301.0,1596.0,4014.0,1328.0,2438.0,2851.0,1265.0,2025-06-30 22:44:52,96.0,,0.0919092859415554,-0.463038924196445,0.629174986282354,,-1.7727302966873422,,
,4302.0,1598.0,4014.0,1328.0,2435.0,2832.0,1252.0,2025-06-30 22:44:53,95.0,,0.0919103764490293,-0.462672367828704,0.62999497748563,,-1.456121837889962,,
,4300.0,1596.0,4016.0,1327.0,2442.0,2850.0,1273.0,2025-06-30 22:44:54,94.0,,0.091910978305263,-0.462243023611162,0.630734956562919,,-1.082495539442716,,
,4302.0,1598.0,4016.0,1328.0,2448.0,2848.0,1244.0,,,,0.0919109021041652,-0.462019934183864,0.630824215571913,,-0.6572533922088479,,
,4303.0,1599.0,4019.0,1329.0,2443.0,2872.0,1245.0,,,,0.0919110760687319,-0.461932925009394,0.631695264361005,,-0.1883485365294903,,
,4302.0,1597.0,4018.0,1329.0,2435.0,2868.0,1241.0,,,,0.0919114260431574,-0.461816389721365,0.631837227281017,,0.31408189820137133,,
,4303.0,1599.0,4016.0,1329.0,2429.0,2854.0,1264.0,,,,0.0919121957472591,-0.461747988921111,0.632239991809246,,0.8382200441448279,,
,4301.0,1597.0,4017.0,1329.0,2448.0,2844.0,1274.0,,,,0.0919121897527584,-0.461738663552843,0.631733511327263,,1.3711500737999673,,
,4303.0,1598.0,4018.0,1328.0,2447.0,2846.0,1248.0,,,,0.091912639629896,-0.461908622831589,0.631973531561078,,1.8994640766571895,,
,4304.0,1598.0,4019.0,1331.0,2452.0,2843.0,1260.0,,,,0.0919123441278257,-0.461821892906681,0.632195219298877,,2.409844502660395,,
,4305.0,1601.0,4021.0,1333.0,2464.0,2848.0,1269.0,,,,0.0919119718008427,-0.461860851906498,0.631636256789689,,2.889591577381196,,
,4304.0,1599.0,4018.0,1329.0,2449.0,2863.0,1270.0,,,,0.0919113344640378,-0.462243256922996,0.632609065456011,,3.3270791635126495,,
,4306.0,1597.0,4021.0,1330.0,2449.0,2842.0,1229.0,,,,0.0919111653854874,-0.4622324470987,0.631908366842192,,3.7121342785005886,,
,4307.0,1600.0,4021.0,1331.0,2454.0,2832.0,1246.0,,,,0.0919115073002764,-0.462357476222367,0.63143882771225,,4.036342290730725,,
,4306.0,1601.0,4020.0,1332.0,2449.0,2833.0,1262.0,,,,0.0919111373484912,-0.462696281473591,0.631292175826839,,4.293281577258311,,
,4305.0,1599.0,4020.0,1329.0,2450.0,2835.0,1243.0,,,,0.0919113472576071,-0.462617020745152,0.631999649959293,,4.478689064060251,,
,4304.0,1600.0,4021.0,1331.0,2441.0,2846.0,1244.0,,,,0.0919111228454575,-0.462691549289685,0.631233807480037,,4.590553542752739,,
,4310.0,1604.0,4022.0,1335.0,2443.0,2854.0,1276.0,,,,0.0919119121831714,-0.462467475203022,0.631371713275803,,4.629129658107373,,
,4307.0,1602.0,4022.0,1332.0,2442.0,2859.0,1284.0,,,,0.0919118175769073,-0.462120848309268,0.631491571387229,,4.596864463468373,,
,4305.0,1598.0,4021.0,1331.0,2443.0,2891.0,1259.0,,,,0.0919107569183609,-0.462215795961542,0.631692238649717,,4.498231721567701,,
,4301.0,1598.0,4020.0,1328.0,2437.0,2862.0,1275.0,,,,0.091912201476543,-0.462075828973586,0.632180350787235,,4.339476399044043,,
,4302.0,1599.0,4018.0,1325.0,2435.0,2833.0,1293.0,,,,0.0919120262112859,-0.462163031188932,0.632039734615896,,4.128281340509828,,
,4301.0,1599.0,4017.0,1328.0,2430.0,2840.0,1274.0,,,,0.0919116805282602,-0.461974389472316,0.632199554312054,,3.873377228633634,,
,4297.0,1597.0,4015.0,1326.0,2433.0,2850.0,1280.0,,,,0.0919125388603292,-0.461626300624766,0.632481011671123,,3.584123043995881,,
,4296.0,1593.0,4014.0,1325.0,2431.0,2848.0,1285.0,,,,0.0919130520925376,-0.461338089595152,0.633463564633755,,3.2700860337727247,,
,4296.0,1597.0,4011.0,1323.0,2430.0,2851.0,1264.0,,,,0.0919134261646189,-0.461171814825818,0.633631500606664,,2.9406479884343377,,
,4295.0,1592.0,4011.0,1323.0,2434.0,2848.0,1257.0,,,,0.0919140087992722,-0.461193592863926,0.634117213240343,,2.6046595493400257,,
,4289.0,1592.0,4009.0,1322.0,2430.0,2848.0,1247.0,,,,0.0919133271917585,-0.460822308552656,0.633401948196348,,2.270157504744971,,
,4288.0,1592.0,4008.0,1320.0,2420.0,2853.0,1258.0,,,,0.091914346931316,-0.460875667945348,0.634504387961285,,1.9441526821328636,,
,4289.0,1589.0,4005.0,1318.0,2443.0,2852.0,1256.0,,,,0.0919132473670525,-0.460890833881316,0.633730210449989,,1.6324892803583075,,
,4286.0,1589.0,4007.0,1317.0,2442.0,2843.0,1233.0,,,,0.0919132360773049,-0.460793387498366,0.633728728664036,,1.3397713958519775,,
,4286.0,1588.0,4002.0,1320.0,2447.0,2843.0,1247.0,,,,0.0919132790619919,-0.461425183214927,0.632874956545619,,1.069349745012872,,
,4287.0,1588.0,4003.0,1318.0,2444.0,2842.0,1242.0,,,,0.0919125574245957,-0.461685005189779,0.632110932801954,,0.8233610766371082,,
,4284.0,1588.0,4002.0,1318.0,2443.0,2822.0,1244.0,,,,0.0919123358638121,-0.462145591774016,0.631689204088734,,0.6028135234672178,,
,4284.0,1587.0,4002.0,1317.0,2447.0,2833.0,1250.0,,,,0.0919103213787744,-0.462800487260544,0.631163416657378,,0.40771167628983557,,
,4283.0,1587.0,4000.0,1317.0,2452.0,2856.0,1241.0,,,,0.0919103201248399,-0.462521294977972,0.630267207182897,,0.23721439158048066,,
,4282.0,1587.0,3999.0,1316.0,2448.0,2855.0,1243.0,,,,0.0919114409636242,-0.462495302723779,0.630813589453496,,0.08981626264620775,,
,4282.0,1587.0,3997.0,1315.0,2434.0,2873.0,1267.0,,,,0.0919111136413244,-0.462644375937315,0.630708114659557,,-0.03645879922722461,,
,4281.0,1589.0,3998.0,1316.0,2444.0,2864.0,1269.0,,,,0.0919115623664165,-0.46250282209735,0.630968842943621,,-0.14386520769148453,,
,4281.0,1585.0,3999.0,1315.0,2439.0,2850.0,1265.0,,,,0.0919112406077688,-0.461693781647499,0.63091418342442,,-0.2347582016464487,,
,4282.0,1586.0,3997.0,1317.0,2437.0,2837.0,1271.0,,,,0.0919117189763518,-0.461941424005128,0.631073957078025,,-0.3114433581581374,,
,4282.0,1586.0,3998.0,1315.0,2439.0,2838.0,1246.0,,,,0.0919124313922686,-0.461927616157046,0.631706274941248,,-0.37606216088761896,,
,4281.0,1588.0,3998.0,1316.0,2434.0,2836.0,1257.0,,,,0.0919127503921652,-0.461462223283966,0.632177526532389,,-0.4305183392876694,,
,4282.0,1587.0,3997.0,1319.0,2435.0,2844.0,1265.0,,,,0.0919134871963914,-0.461027641840195,0.632953809404014,,-0.4764446946113644,,
,4280.0,1588.0,3999.0,1318.0,2435.0,2831.0,1251.0,,,,0.091914743747286,-0.461085515040155,0.633152880029718,,-0.5152051849794452,,
,4282.0,1588.0,3999.0,1318.0,2435.0,2834.0,1263.0,,,,0.0919152476710554,-0.460591516487244,0.633551388991557,,-0.5479231296197878,,
,4282.0,1585.0,3996.0,1318.0,2436.0,2834.0,1272.0,,,,0.0919158206709388,-0.460014100949991,0.634517503276883,,-0.5755244048739236,,
,4281.0,1590.0,3997.0,1318.0,2432.0,2847.0,1284.0,,,,0.091915587544749,-0.460142154915787,0.635285424786399,,-0.5987847532622523,,
,4282.0,1588.0,3999.0,1320.0,2440.0,2849.0,1274.0,,,,0.0919159594981054,-0.459819205394901,0.63506021124522,,-0.6183725109629467,,
,4282.0,1587.0,3999.0,1316.0,2437.0,2844.0,1275.0,,,,0.0919162247259008,-0.459740838400718,0.635792803741176,,-0.6348816058274395,,
,4283.0,1587.0,3999.0,1317.0,2443.0,2835.0,1281.0,,,,0.091917127470278,-0.459588249936041,0.636675462885788,,-0.64885383244667,,
,4280.0,1588.0,3997.0,1317.0,2444.0,2851.0,1271.0,,,,0.0919175887948283,-0.459070425890133,0.637412882928288,,-0.6607931058199055,,
,4281.0,1588.0,3998.0,1320.0,2440.0,2864.0,1281.0,,,,0.0919178130709588,-0.458776438297294,0.638088016784797,,-0.671176468496344,,
,4280.0,1588.0,4000.0,1319.0,2439.0,2848.0,1283.0,,,,0.0919183359977645,-0.458811842813058,0.638245363731847,,-0.680466399988669,,
,4282.0,1587.0,3998.0,1317.0,2439.0,2835.0,1278.0,,,,0.0919190756896189,-0.458737256593348,0.637418580562768,,-0.6891266458268868,,
,4278.0,1584.0,3995.0,1316.0,2435.0,2830.0,1248.0,,,,0.091918596827273,-0.458926564633135,0.638015360615446,,-0.6976403416935684,,
,4279.0,1584.0,3996.0,1318.0,2436.0,2847.0,1255.0,,,,0.0919192183619057,-0.458692750764465,0.638441084438199,,-0.7065261037563356,,
,4279.0,1587.0,3996.0,1317.0,2432.0,2855.0,1273.0,,,,0.0919186897668529,-0.458644649586578,0.638295766059683,,-0.716346325992131,,
,4279.0,1586.0,3996.0,1315.0,2437.0,2850.0,1271.0,,,,0.0919190328057302,-0.45881489761797,0.638541088584183,,-0.7277026692386761,,
,4277.0,1585.0,3996.0,1315.0,2443.0,2854.0,1272.0,,,,0.09191872729874,-0.458807813702949,0.638404312507944,,-0.7412160407810058,,
,4277.0,1585.0,3993.0,1316.0,2436.0,2857.0,1257.0,,,,0.0919182934261898,-0.458818414100133,0.638659886805798,,-0.7574911861709557,,
,4278.0,1584.0,3995.0,1316.0,2428.0,2834.0,1250.0,,,,0.0919175730310017,-0.458837728611532,0.638091520942432,,-0.7770686696185107,,
,4277.0,1585.0,3994.0,1317.0,2434.0,2826.0,1255.0,,,,0.0919173676047678,-0.458941864233434,0.638086724704251,,-0.8003693123674425,,
,4276.0,1586.0,3994.0,1316.0,2437.0,2824.0,1278.0,,,,0.0919184934181622,-0.459040832903169,0.63810915318091,,-0.8276379744677862,,
,4276.0,1586.0,3991.0,1315.0,2440.0,2838.0,1273.0,,,,0.0919180622973895,-0.459171992369656,0.637417154087105,,-0.8588946807916237,,
,4275.0,1585.0,3995.0,1314.0,2433.0,2840.0,1282.0,,,,0.0919176809944255,-0.459234956213123,0.63699277308604,,-0.8939012532179125,,
,4278.0,1588.0,3995.0,1316.0,2439.0,2854.0,1261.0,,,,0.0919181238013965,-0.45909437709777,0.637751914446706,,-0.9321505666166906,,
,4277.0,1587.0,3993.0,1317.0,2440.0,2849.0,1241.0,,,,0.0919177987750803,-0.458901876845716,0.637699344282799,,-0.972883084265564,,
,4275.0,1585.0,3994.0,1315.0,2437.0,2848.0,1268.0,,,,0.0919188755747824,-0.459109505448744,0.637749256904228,,-1.0151315426308594,,
,4277.0,1585.0,3995.0,1316.0,2436.0,2844.0,1292.0,,,,0.0919182483345767,-0.458868300670629,0.638162786408254,,-1.0577902782034232,,
,4279.0,1586.0,3995.0,1316.0,2440.0,2838.0,1247.0,,,,0.0919183629148527,-0.45857061576991,0.638082920162026,,-1.099701941070964,,
,4278.0,1587.0,3995.0,1318.0,2441.0,2828.0,1257.0,,,,0.0919187238634765,-0.458607629595202,0.637489733321284,,-1.139752244133352,,
,4275.0,1586.0,3995.0,1314.0,2440.0,2841.0,1254.0,,,,0.0919191137412512,-0.458746207531044,0.638475487279128,,-1.176963293737681,,
,4278.0,1586.0,3994.0,1315.0,2438.0,2841.0,1255.0,,,,0.0919189031600273,-0.45856379615004,0.637908050454797,,-1.2105777013869636,,
,4279.0,1588.0,3996.0,1319.0,2444.0,2840.0,1252.0,,,,0.091918894245645,-0.458563736612068,0.637710675688329,,-1.2401284700015185,,
,4280.0,1586.0,3995.0,1317.0,2454.0,2836.0,1271.0,,,,0.0919197751406542,-0.458460994306897,0.638104386495936,,-1.2654925973681694,,
,4281.0,1588.0,3997.0,1317.0,2454.0,2836.0,1279.0,,,,0.0919192008733462,-0.45844131397034,0.63837374133616,,-1.2869283390428226,,
,4278.0,1586.0,3994.0,1315.0,2437.0,2842.0,1277.0,,,,0.0919196670268377,-0.458473801048705,0.638376820761347,,-1.305096444520248,,
,4278.0,1588.0,3997.0,1318.0,2438.0,2851.0,1261.0,,,,0.0919197542023667,-0.45856235685344,0.638933248730542,,-1.3210644510243483,,
2025-06-30 22:41:57,4282.0,1590.0,3998.0,1322.0,2435.0,2853.0,1260.0,,,2025/06/30 10:41:57 PM,0.0919197086206048,-0.458285821976109,0.638709588974608,,-1.3362907880931167,,
,4282.0,1592.0,3998.0,1320.0,2439.0,2850.0,1260.0,,,,0.0919208712013057,-0.458503321300071,0.639894123183503,,-1.352582692562375,,
,4281.0,1590.0,3996.0,1321.0,2447.0,2866.0,1231.0,,,,0.091920482555618,-0.458149342022114,0.639893841257411,,-1.3720196619187357,,
,4282.0,1588.0,3997.0,1319.0,2440.0,2848.0,1240.0,,,,0.0919212790551129,-0.457813856945716,0.639781125730634,,-1.39683356692327,,
,4283.0,1590.0,3997.0,1321.0,2434.0,2852.0,1244.0,,,,0.0919217884942453,-0.457677138225617,0.640490842744056,,-1.4292386187261987,,
,4282.0,1591.0,4001.0,1320.0,2432.0,2859.0,1278.0,,,,0.0919217000854913,-0.457803787672916,0.640552441464311,,-1.4712093930851353,,
,4285.0,1590.0,3998.0,1320.0,2432.0,2854.0,1272.0,,,,0.0919219672905218,-0.457853501006717,0.640103554637394,,-1.524212537973242,,
,4284.0,1591.0,3999.0,1319.0,2434.0,2866.0,1274.0,,,,0.0919221250824482,-0.457758572105755,0.63998193540526,,-1.588906777306999,,
,4284.0,1592.0,3999.0,1321.0,2434.0,2855.0,1293.0,,,,0.0919221505171276,-0.457868377165652,0.640633177918143,,-1.664835308595848,,
,4285.0,1595.0,4001.0,1321.0,2441.0,2850.0,1284.0,,,,0.0919219272138719,-0.457951046898863,0.640056374698511,,-1.7501432319326835,,
,4287.0,1592.0,4001.0,1322.0,2443.0,2848.0,1274.0,,,,0.0919219755650634,-0.458030062044841,0.640254083969377,,-1.841358508717967,,
,4286.0,1592.0,4003.0,1321.0,2439.0,2840.0,1263.0,,,,0.0919215514554208,-0.458035192404173,0.639878410193387,,-1.9332765101331582,,
,4285.0,1592.0,4004.0,1321.0,2442.0,2853.0,1237.0,,,,0.0919212150285201,-0.45824490961968,0.639227821337199,,-2.01898432256583,,
,4286.0,1593.0,4006.0,1323.0,2438.0,2849.0,1265.0,,,,0.0919205174635194,-0.458936021175273,0.638416777668638,,-2.090051138678529,,
,4288.0,1595.0,4006.0,1325.0,2441.0,2853.0,1262.0,,,,0.0919200656271733,-0.458781724418908,0.63853183442332,,-2.1368956398199277,,
,4289.0,1595.0,4005.0,1322.0,2444.0,2849.0,1247.0,,,,0.0919201099707904,-0.459032831765807,0.638523016354844,,-2.149321680441243,,
,4289.0,1591.0,4003.0,1321.0,2446.0,2847.0,1247.0,,,,0.0919193441461725,-0.459014205123678,0.637482885178242,,-2.117192234303837,,
,4288.0,1593.0,4001.0,1322.0,2444.0,2876.0,1243.0,,,,0.0919189216934949,-0.459399122843367,0.638067364746498,,-2.0311913841182356,,
,4287.0,1594.0,4005.0,1322.0,2436.0,2870.0,1245.0,,,,0.0919197681374214,-0.45906575150905,0.637932595011811,,-1.883607979093786,,
,4286.0,1592.0,4003.0,1323.0,2433.0,2870.0,1247.0,,,,0.091919615161239,-0.459265655800907,0.637756659361809,,-1.6690650216243672,,
,4285.0,1592.0,4003.0,1319.0,2434.0,2859.0,1269.0,,,,0.0919197180733402,-0.45952453098017,0.637601295916971,,-1.385118190799217,,
,4283.0,1591.0,3999.0,1319.0,2437.0,2845.0,1263.0,,,,0.0919198876269348,-0.45956519102949,0.637495456301774,,-1.0326568949973225,,
,4282.0,1591.0,4000.0,1320.0,2434.0,2863.0,1267.0,,,,0.0919202512048722,-0.459495963782937,0.637334492076377,,-0.6160621981769746,,
,4283.0,1590.0,4001.0,1319.0,2430.0,2865.0,1259.0,,,,0.0919186211217088,-0.459540763618553,0.637091461450851,,-0.1431057092105586,,
,4278.0,1586.0,3996.0,1317.0,2421.0,2855.0,1255.0,,,,0.0919180316428564,-0.459541396376183,0.636567482204461,,0.3753933927341909,,
,4276.0,1586.0,3994.0,1316.0,2424.0,2846.0,1256.0,,,,0.091917959248937,-0.459511766366166,0.636282170513159,,0.9261073371310101,,
,4276.0,1587.0,3993.0,1314.0,2424.0,2860.0,1277.0,,,,0.0919179425978773,-0.459812259011826,0.636658054071368,,1.4938714003021338,,
,4275.0,1584.0,3993.0,1316.0,2426.0,2836.0,1262.0,,,,0.0919172910041665,-0.459859681799015,0.635960439580696,,2.0624212613859845,,
,4274.0,1586.0,3991.0,1313.0,2425.0,2833.0,1265.0,,,,0.0919169985818461,-0.46005616091508,0.63541568647255,,2.6151373594094287,,
,4270.0,1582.0,3987.0,1309.0,2439.0,2837.0,1257.0,,,,0.0919163378204262,-0.460445148550036,0.635453244059496,,3.1357525400583315,,
,4272.0,1583.0,3987.0,1312.0,2438.0,2836.0,1247.0,,,,0.0919154336677121,-0.460994161445502,0.63402530579394,,3.608995543363648,,
,4270.0,1584.0,3986.0,1312.0,2438.0,2833.0,1239.0,,,,0.0919145740300955,-0.461437553780454,0.632363660516568,,4.0211562852220935,,
,4269.0,1581.0,3985.0,1312.0,2439.0,2836.0,1233.0,,,,0.0919137404873293,-0.46206490008087,0.631609307781137,,4.36056739629901,,
,4266.0,1581.0,3984.0,1309.0,2441.0,2830.0,1242.0,,,,0.0919127762467465,-0.462662447136845,0.630439187625187,,4.617999803852468,,
,4267.0,1580.0,3984.0,1311.0,2441.0,2823.0,1259.0,,,,0.0919126629874494,-0.462912845895531,0.630592153806555,,4.786969117635238,,
,4266.0,1584.0,3982.0,1312.0,2439.0,2840.0,1249.0,,,,0.0919121135202302,-0.463235588140293,0.630628073476064,,4.86394589846232,,
,4266.0,1580.0,3984.0,1310.0,2440.0,2841.0,1239.0,,,,0.0919122118899684,-0.463326054541011,0.630120507045835,,4.848458848761116,,
,4265.0,1582.0,3983.0,1311.0,2438.0,2839.0,1237.0,,,,0.0919112060688327,-0.463745147620448,0.628809341684099,,4.743077965256368,,
,4264.0,1578.0,3979.0,1307.0,2432.0,2858.0,1269.0,,,,0.0919108879018902,-0.46398399201434,0.62946507850037,,4.553266609787111,,
,4266.0,1580.0,3981.0,1309.0,2437.0,2825.0,1261.0,,,,0.091910457021149,-0.464602495422831,0.627838606057664,,4.287098197372459,,
,4266.0,1580.0,3981.0,1311.0,2435.0,2846.0,1277.0,,,,0.0919100613532277,-0.464930967507954,0.628018345018353,,3.9548443022600406,,
,4266.0,1580.0,3981.0,1309.0,2433.0,2847.0,1268.0,,,,0.0919100531728601,-0.464774410388355,0.62711662522712,,3.5684542283889638,,
,4262.0,1579.0,3978.0,1308.0,2435.0,2838.0,1261.0,,,,0.0919095830822196,-0.465144143487509,0.627267615230964,,3.140957973946914,,
,4266.0,1581.0,3981.0,1311.0,2438.0,2838.0,1250.0,,,,0.0919089609925529,-0.464907731335092,0.626643019236258,,2.685831900455532,,
,4267.0,1581.0,3980.0,1312.0,2439.0,2856.0,1244.0,,,,0.0919096224082714,-0.464711866942105,0.627226236257594,,2.216368191461705,,
,4268.0,1583.0,3981.0,1309.0,2437.0,2852.0,1249.0,,,,0.0919098025225696,-0.464369234116217,0.627441520393213,,1.7450863609956395,,
,4268.0,1582.0,3983.0,1311.0,2437.0,2834.0,1264.0,,,,0.0919100487937177,-0.464196749424871,0.627631147999814,,1.2832193964309353,,
,4264.0,1578.0,3977.0,1308.0,2442.0,2843.0,1271.0,,,,0.091910877476528,-0.463893471286709,0.628121080581058,,0.8402999271396432,,
,4266.0,1580.0,3981.0,1312.0,2440.0,2851.0,1272.0,,,,0.0919109760978444,-0.463880908629785,0.629206680699943,,0.42386390820279624,,
,4266.0,1583.0,3981.0,1313.0,2436.0,2851.0,1274.0,,,,0.0919112040526462,-0.463813908001467,0.628805493405713,,0.03928129814996009,,
,4266.0,1582.0,3982.0,1310.0,2438.0,2862.0,1273.0,,,,0.0919119312862805,-0.463447767360176,0.629699449756902,,-0.31028437799366243,,
,4264.0,1578.0,3981.0,1310.0,2437.0,2858.0,1293.0,,,,0.0919122108631942,-0.462963020468536,0.629733014925118,,-0.6237923410243077,,
,4264.0,1580.0,3980.0,1311.0,2435.0,2838.0,1299.0,,,,0.0919120139049419,-0.462980342367994,0.630359388197839,,-0.9021267737492602,,
,4264.0,1582.0,3978.0,1312.0,2436.0,2850.0,1283.0,,,,0.0919120391003728,-0.46291444163929,0.629851388701098,,-1.1477988323004102,,
,4265.0,1582.0,3982.0,1311.0,2437.0,2840.0,1276.0,,,,0.0919122302654917,-0.462445476359444,0.630722104795893,,-1.3645654844102242,,
,4265.0,1582.0,3977.0,1311.0,2425.0,2858.0,1277.0,,,,0.0919118824475245,-0.462723231304532,0.630797436595152,,-1.556985549990185,,
,4265.0,1579.0,3979.0,1311.0,2429.0,2850.0,1276.0,,,,0.0919115508531129,-0.463037341415334,0.630200010309646,,-1.7299372064515623,,
,4264.0,1580.0,3979.0,1310.0,2447.0,2842.0,1292.0,,,,0.0919116582436074,-0.463125447020685,0.629791271027601,,-1.888125201454562,,
,4265.0,1579.0,3979.0,1309.0,2439.0,2853.0,1269.0,,,,0.0919115221456608,-0.463710664647571,0.62955557293215,,-2.0356092819400016,,
,4264.0,1580.0,3978.0,1311.0,2438.0,2850.0,1256.0,,,,0.0919106181193044,-0.463996181030558,0.628827045148198,,-2.175387058871213,,
,4265.0,1580.0,3976.0,1306.0,2434.0,2848.0,1257.0,,,,0.0919099128392742,-0.464458554964338,0.627170966665949,,-2.3090638640757675,,
,4265.0,1579.0,3977.0,1309.0,2433.0,2829.0,1260.0,,,,0.0919088401326567,-0.464826051462648,0.627728853242699,,-2.4366385007516174,,
,4264.0,1578.0,3976.0,1308.0,2442.0,2836.0,1272.0,,,,0.0919086655834755,-0.465335073824037,0.626458047554901,,-2.5564269770682664,,
,4265.0,1581.0,3980.0,1311.0,2439.0,2836.0,1281.0,,,,0.0919095660508965,-0.465334702392917,0.627133543594011,,-2.665136624615142,,
,4262.0,1577.0,3974.0,1309.0,2437.0,2840.0,1279.0,,,,0.0919080941129205,-0.465576088993689,0.625934636300904,,-2.7580910244577255,,
,4262.0,1576.0,3976.0,1309.0,2443.0,2838.0,1278.0,,,,0.0919072268801532,-0.465320825977742,0.625808796713596,,-2.829592845195467,,
,4264.0,1580.0,3977.0,1310.0,2430.0,2850.0,1287.0,,,,0.0919072377664831,-0.465857463466245,0.625245700137532,,-2.873398449838663,,
,4263.0,1579.0,3977.0,1310.0,2433.0,2836.0,1280.0,,,,0.0919063839992005,-0.466290963210735,0.625211014553664,,-2.8832665158266315,,
,4264.0,1579.0,3977.0,1310.0,2436.0,2851.0,1262.0,,,,0.0919069764369861,-0.466171806344693,0.62473611666725,,-2.8535341946935215,,
,4265.0,1579.0,3975.0,1310.0,2433.0,2837.0,1243.0,,,,0.0919060803341549,-0.465998946451322,0.624625930992211,,-2.779669408112888,,
,4265.0,1580.0,3978.0,1310.0,2434.0,2826.0,1262.0,,,,0.0919059444618936,-0.465747148067016,0.624169556295306,,-2.6587474964656095,,
,4264.0,1580.0,3977.0,1311.0,2435.0,2834.0,1286.0,,,,0.0919057494239981,-0.465754470181136,0.624761126263154,,-2.489805304555588,,
,4263.0,1580.0,3978.0,1308.0,2435.0,2854.0,1280.0,,,,0.0919052058250423,-0.465803841981549,0.624569904143836,,-2.2740363702571096,,
,4264.0,1579.0,3978.0,1311.0,2438.0,2841.0,1266.0,,,,0.0919062092719499,-0.465599096099336,0.625632915753782,,-2.0148069891155638,,
,4265.0,1582.0,3977.0,1312.0,2429.0,2856.0,1259.0,,,,0.0919058993851652,-0.465362622297851,0.624391050961049,,-1.71749305131311,,
,4268.0,1582.0,3979.0,1312.0,2424.0,2856.0,1293.0,,,,0.0919067906013159,-0.46540780258622,0.625768018618497,,-1.389158566359074,,
,4268.0,1583.0,3980.0,1312.0,2429.0,2858.0,1276.0,,,,0.0919070803514653,-0.465074367684246,0.62556037856174,,-1.0381149186164256,,
,4269.0,1582.0,3981.0,1311.0,2434.0,2856.0,1262.0,,,,0.0919076573148734,-0.464928087801219,0.626298762554125,,-0.6734123128881624,,
,4268.0,1583.0,3981.0,1312.0,2437.0,2847.0,1270.0,,,,0.0919089013478818,-0.46446500844052,0.626770434058753,,-0.3043204227425013,,
,4269.0,1582.0,3981.0,1315.0,2441.0,2828.0,1251.0,,,,0.0919085842376842,-0.464384685946867,0.62728741664073,,0.06014619705139677,,
,4269.0,1582.0,3981.0,1311.0,2440.0,2852.0,1256.0,,,,0.0919090028539934,-0.463980227269301,0.627772361559185,,0.41161073246728763,,
,4271.0,1582.0,3980.0,1315.0,2435.0,2860.0,1261.0,,,,0.0919091796445499,-0.463398655259248,0.628013601182174,,0.7425924223297682,,
,4271.0,1583.0,3982.0,1312.0,2443.0,2858.0,1262.0,,,,0.0919092119205478,-0.46345637217998,0.627676704692962,,1.0466283119156037,,
,4273.0,1582.0,3983.0,1314.0,2438.0,2843.0,1273.0,,,,0.0919098338363514,-0.463420946536602,0.62788608158332,,1.3182690150244645,,
,4272.0,1585.0,3986.0,1316.0,2436.0,2855.0,1270.0,,,,0.0919098047460195,-0.463815093274548,0.628017413484722,,1.552980598857299,,
,4273.0,1584.0,3984.0,1318.0,2434.0,2858.0,1268.0,,,,0.0919099290990445,-0.46361462741622,0.628158673096925,,1.7469999506686524,,
,4274.0,1586.0,3985.0,1315.0,2420.0,2875.0,1278.0,,,,0.0919093795449757,-0.463792719579493,0.628008718467237,,1.8971955960495512,,
,4276.0,1586.0,3984.0,1316.0,2437.0,2849.0,1275.0,,,,0.0919097789554122,-0.464117237829331,0.627708860190393,,2.000978669575948,,
,4277.0,1585.0,3988.0,1317.0,2444.0,2832.0,1254.0,,,,0.0919084974969843,-0.464460514576331,0.626626043236488,,2.0562923349762547,,
,4278.0,1586.0,3986.0,1319.0,2430.0,2829.0,1243.0,,,,0.0919091971564879,-0.464202886318131,0.627519233328712,,2.0616875125285166,,
,4277.0,1586.0,3988.0,1318.0,2429.0,2830.0,1245.0,,,,0.0919084905306418,-0.464187778369183,0.626876735751503,,2.016473050705053,,
,4277.0,1586.0,3987.0,1315.0,2428.0,2844.0,1267.0,,,,0.0919088447936926,-0.464695427621724,0.627154800290517,,1.920912436762684,,
,4279.0,1585.0,3990.0,1316.0,2437.0,2829.0,1285.0,,,,0.0919086957778486,-0.464518437624456,0.626896035101431,,1.7764281938511892,,
,4281.0,1588.0,3987.0,1318.0,2434.0,2839.0,1273.0,,,,0.0919084536283283,-0.464615483325423,0.627111572354853,,1.5857698704078977,,
,4278.0,1587.0,3990.0,1319.0,2436.0,2846.0,1271.0,,,,0.0919084418014601,-0.464382665306078,0.626705459396428,,1.3531022554703909,,
,4280.0,1587.0,3990.0,1320.0,2438.0,2823.0,1262.0,,,,0.0919091285450048,-0.464210335401885,0.627928805533334,,1.0839773360902845,,
,4281.0,1587.0,3990.0,1319.0,2441.0,2866.0,1281.0,,,,0.0919090933449529,-0.464328236858694,0.627180241753366,,0.7851666077501357,,
,4282.0,1589.0,3990.0,1319.0,2432.0,2848.0,1318.0,,,,0.0919088371633379,-0.464355049644221,0.627228010916353,,0.4643490429987022,,
,4279.0,1590.0,3989.0,1318.0,2432.0,2854.0,1284.0,,,,0.0919094096562366,-0.464572491464007,0.627929312297787,,0.129672409249826,,
,4280.0,1590.0,3992.0,1317.0,2431.0,2851.0,1262.0,,,,0.091909798004426,-0.464276217316298,0.627088497044916,,-0.21077165962606395,,
,4278.0,1586.0,3989.0,1316.0,2431.0,2841.0,1268.0,,,,0.0919094270694829,-0.463895556686835,0.627689403287212,,-0.5494997666791895,,
,4276.0,1588.0,3989.0,1318.0,2430.0,2831.0,1256.0,,,,0.0919100802793199,-0.463448601689332,0.628298454946892,,-0.8801466280138799,,
,4277.0,1586.0,3989.0,1316.0,2428.0,2853.0,1290.0,,,,0.0919101356593324,-0.463411894021538,0.628306312673377,,-1.1978639114589609,,
,4274.0,1586.0,3984.0,1314.0,2429.0,2847.0,1281.0,,,,0.0919100223512707,-0.463512172700629,0.628666593110407,,-1.4995505043577895,,
,4273.0,1584.0,3983.0,1315.0,2427.0,2843.0,1274.0,,,,0.0919103543518239,-0.463794368998793,0.628027575677141,,-1.7838760364329718,,
,4271.0,1583.0,3983.0,1312.0,2428.0,2853.0,1279.0,,,,0.0919094025346642,-0.463629264672504,0.628016803431847,,-2.0510835558644747,,
,4271.0,1581.0,3983.0,1311.0,2425.0,2841.0,1264.0,,,,0.0919085381165478,-0.463703908765295,0.626899831042069,,-2.302583064098267,,
,4270.0,1583.0,3982.0,1310.0,2429.0,2841.0,1265.0,,,,0.0919078601173619,-0.464479161791147,0.625952230994693,,-2.5403725982027963,,
,4268.0,1580.0,3978.0,1311.0,2441.0,2828.0,1284.0,,,,0.091906979436476,-0.465252255902323,0.625791855762603,,-2.7663452016034444,,
,4264.0,1581.0,3978.0,1307.0,2434.0,2844.0,1277.0,,,,0.0919061249929105,-0.465533135423002,0.624799283502401,,-2.9815560607594467,,
,4266.0,1579.0,3977.0,1310.0,2444.0,2850.0,1254.0,,,,0.0919060735753871,-0.465692506313302,0.623694097064946,,-3.1855324834833785,,
,4264.0,1579.0,3975.0,1310.0,2451.0,2839.0,1252.0,,,,0.0919048187108165,-0.465835851669503,0.623015573676314,,-3.3757093768752364,,
,4264.0,1580.0,3974.0,1308.0,2446.0,2836.0,1260.0,,,,0.0919044586268857,-0.466454227555543,0.621837843796745,,-3.547064676573954,,
,4262.0,1580.0,3974.0,1308.0,2438.0,2847.0,1284.0,,,,0.0919032244417066,-0.466365777420639,0.622010352478504,,-3.6920138601115644,,
,4262.0,1578.0,3974.0,1308.0,2436.0,2842.0,1257.0,,,,0.091903586348446,-0.466715014237017,0.621277766204627,,-3.800601510444534,,
,4261.0,1578.0,3971.0,1308.0,2439.0,2860.0,1257.0,,,,0.0919032494375633,-0.466137442041699,0.621762595483551,,-3.861001937575159,,
,4265.0,1579.0,3976.0,1309.0,2435.0,2865.0,1276.0,,,,0.0919036814937064,-0.46656598835315,0.621561518169687,,-3.86031127431489,,
,4262.0,1576.0,3972.0,1308.0,2423.0,2840.0,1283.0,,,,0.0919041462789389,-0.466324948277926,0.621394053490793,,-3.7855819465316287,,
,4262.0,1576.0,3972.0,1306.0,2432.0,2840.0,1268.0,,,,0.0919042185669118,-0.46640509327834,0.622551314683397,,-3.625019308722752,,
,4264.0,1579.0,3972.0,1307.0,2432.0,2839.0,1248.0,,,,0.0919043939741833,-0.465727507546118,0.6230217392895,,-3.3692325014234976,,
,4266.0,1579.0,3971.0,1307.0,2435.0,2829.0,1251.0,,,,0.0919056099544199,-0.465519112170426,0.62444910566084,,-3.0124110156373827,,
,4264.0,1579.0,3973.0,1312.0,2432.0,2833.0,1266.0,,,,0.0919060356125486,-0.465223090117642,0.62395563412002,,-2.553289513079307,,
,4264.0,1578.0,3973.0,1307.0,2432.0,2845.0,1264.0,,,,0.0919061437309912,-0.465100982772389,0.624528458727821,,-1.9957706526783032,,
,4265.0,1579.0,3973.0,1307.0,2435.0,2848.0,1273.0,,,,0.091906712155455,-0.464682164875618,0.624834234435627,,-1.3491027441214893,,
,4266.0,1579.0,3973.0,1309.0,2437.0,2882.0,1275.0,,,,0.0919073510596572,-0.464735677595643,0.626030624915568,,-0.6275577057644521,,
,4263.0,1579.0,3972.0,1308.0,2434.0,2910.0,1285.0,,,,0.0919076263744519,-0.46431232185835,0.625626938609386,,0.15037796217185237,,
,4264.0,1578.0,3973.0,1310.0,2430.0,2871.0,1286.0,,,,0.0919087251231357,-0.464007257205797,0.626118674108135,,0.9632116186010111,,
,4264.0,1579.0,3972.0,1307.0,2438.0,2869.0,1299.0,,,,0.0919093620317554,-0.463555433823015,0.627921597990983,,1.7879005068993825,,
2025-06-30 22:41:58,4264.0,1580.0,3973.0,1309.0,2435.0,2874.0,1301.0,,,2025/06/30 10:41:58 PM,0.09191008092833,-0.463129390883684,0.627879082762267,,2.6013681348477715,,
,4265.0,1579.0,3975.0,1309.0,2437.0,2864.0,1252.0,,,,0.0919102103888308,-0.462725828289952,0.628112797465874,,3.381896293776277,,
,4264.0,1579.0,3973.0,1309.0,2436.0,2853.0,1238.0,,,,0.091910223159104,-0.462778513672698,0.628261014221469,,4.110244647685991,,
,4266.0,1579.0,3974.0,1308.0,2432.0,2817.0,1255.0,,,,0.091910231294612,-0.462486563205225,0.628956932470571,,4.77040778937967,,
,4267.0,1581.0,3975.0,1309.0,2427.0,2837.0,1275.0,,,,0.0919108393592937,-0.462775258926817,0.628528282925404,,5.3499837920226545,,
,4265.0,1582.0,3976.0,1311.0,2434.0,2825.0,1268.0,,,,0.0919107674171088,-0.462325003909539,0.6285182125214,,5.840185950359444,,
,4267.0,1581.0,3973.0,1310.0,2431.0,2830.0,1268.0,,,,0.0919103710824059,-0.4624742794843,0.628989037959956,,6.2355723416917845,,
,4262.0,1578.0,3974.0,1310.0,2444.0,2842.0,1269.0,,,,0.0919097804815834,-0.462814056302224,0.628114117233046,,6.533592022888781,,
,4264.0,1578.0,3973.0,1308.0,2442.0,2851.0,1280.0,,,,0.0919094128863245,-0.463313387967911,0.627448688534376,,6.734051598319731,,
,4263.0,1579.0,3974.0,1308.0,2434.0,2843.0,1276.0,,,,0.091908840753717,-0.464001219353221,0.627974347796703,,6.838593982866215,,
,4264.0,1580.0,3972.0,1309.0,2440.0,2839.0,1284.0,,,,0.0919090432586024,-0.463461238539147,0.627160569605188,,6.850257337315809,,
,4264.0,1578.0,3973.0,1308.0,2445.0,2842.0,1283.0,,,,0.0919085827726325,-0.463616649020068,0.627660060724572,,6.773152573894454,,
,4264.0,1579.0,3970.0,1307.0,2434.0,2846.0,1286.0,,,,0.091908091549696,-0.463794721087985,0.626664488888243,,6.612268380246007,,
,4263.0,1580.0,3970.0,1308.0,2432.0,2838.0,1267.0,,,,0.0919086083840999,-0.464318795590499,0.626686823870246,,6.3733877809950785,,
,4266.0,1578.0,3974.0,1308.0,2435.0,2832.0,1255.0,,,,0.0919083045940659,-0.464135606542824,0.626847414613922,,6.063082588464511,,
,4263.0,1577.0,3975.0,1310.0,2433.0,2842.0,1274.0,,,,0.0919073430516822,-0.463994972027649,0.626543044140567,,5.688742980759734,,
,4262.0,1580.0,3973.0,1308.0,2429.0,2864.0,1289.0,,,,0.0919081988020723,-0.464397465210446,0.62668705349387,,5.258598785800136,,
,4262.0,1581.0,3972.0,1307.0,2433.0,2868.0,1296.0,,,,0.0919079359703023,-0.463849040790781,0.626731926218716,,4.781695403980851,,
,4262.0,1579.0,3971.0,1308.0,2432.0,2844.0,1288.0,,,,0.0919085020459214,-0.463731184203151,0.626419414613726,,4.267798344455004,,
,4264.0,1577.0,3972.0,1309.0,2434.0,2845.0,1270.0,,,,0.0919085825868559,-0.463676000049189,0.627255468699415,,3.7272137281764994,,
,4263.0,1581.0,3975.0,1310.0,2430.0,2869.0,1265.0,,,,0.0919088474960635,-0.463595886692989,0.627601471361632,,3.1705260639161312,,
,4265.0,1577.0,3974.0,1309.0,2429.0,2869.0,1269.0,,,,0.0919092005489214,-0.463657231388445,0.62759453454265,,2.608267806533491,,
,4266.0,1581.0,3972.0,1308.0,2434.0,2851.0,1280.0,,,,0.0919075173133068,-0.463969926935001,0.627100677347119,,2.0505462715217706,,
,4265.0,1581.0,3976.0,1310.0,2431.0,2863.0,1271.0,,,,0.0919084065304462,-0.463616410294018,0.627572211986395,,1.5066609180457515,,
,4265.0,1581.0,3974.0,1309.0,2429.0,2855.0,1280.0,,,,0.0919086487596201,-0.463640410722882,0.627318066684564,,0.9847467652027841,,
,4264.0,1580.0,3974.0,1308.0,2423.0,2870.0,1271.0,,,,0.0919094474274775,-0.463376939430021,0.628331148815291,,0.4914776644649938,,
,4263.0,1580.0,3975.0,1309.0,2430.0,2853.0,1257.0,,,,0.0919099727528893,-0.463052309423458,0.627920909113845,,0.031857137719254455,,
,4268.0,1582.0,3976.0,1313.0,2426.0,2853.0,1253.0,,,,0.0919097511187826,-0.463307546341549,0.628836035385943,,-0.39088426589536357,,
,4269.0,1582.0,3976.0,1312.0,2428.0,2841.0,1237.0,,,,0.0919103678107556,-0.46252106699354,0.62910516947409,,-0.7752764587401141,,
,4269.0,1582.0,3978.0,1311.0,2436.0,2844.0,1241.0,,,,0.0919102664268138,-0.462404668589582,0.629827752089797,,-1.12148426880824,,
,4270.0,1583.0,3976.0,1310.0,2436.0,2853.0,1253.0,,,,0.0919102387011916,-0.462750882299017,0.629953504714815,,-1.4310809776437545,,
,4269.0,1583.0,3976.0,1313.0,2446.0,2870.0,1243.0,,,,0.0919107691542202,-0.462170380116791,0.630190037294704,,-1.7067411619742658,,
,4270.0,1583.0,3980.0,1313.0,2440.0,2861.0,1231.0,,,,0.0919109011324303,-0.462111782648302,0.630210284285532,,-1.9518784633659154,,
,4272.0,1585.0,3980.0,1316.0,2436.0,2845.0,1246.0,,,,0.091911184240463,-0.462267059492047,0.630064542107192,,-2.1702563767706717,,
,4272.0,1584.0,3981.0,1312.0,2441.0,2849.0,1252.0,,,,0.0919097702001803,-0.462150939433233,0.629507647813248,,-2.3656001063504073,,
,4272.0,1583.0,3982.0,1311.0,2434.0,2849.0,1247.0,,,,0.0919092321962932,-0.462206704041461,0.629522543693546,,-2.5412359239776636,,
,4271.0,1584.0,3980.0,1314.0,2434.0,2847.0,1253.0,,,,0.0919096310687102,-0.462643791637239,0.629734169112094,,-2.699782110136799,,
,4274.0,1587.0,3981.0,1315.0,2437.0,2846.0,1248.0,,,,0.0919096118676074,-0.462773643212643,0.629080051070876,,-2.8429125072971124,,
,4272.0,1586.0,3978.0,1314.0,2444.0,2822.0,1253.0,,,,0.0919095691345013,-0.462618579452406,0.629113844684277,,-2.9712092994942054,,
,4274.0,1585.0,3981.0,1316.0,2440.0,2839.0,1260.0,,,,0.0919098927897793,-0.462959734810877,0.629053720769545,,-3.0841152739557165,,
,4274.0,1587.0,3983.0,1315.0,2429.0,2845.0,1253.0,,,,0.0919098359340085,-0.462588911224394,0.629031924207303,,-3.1799877757506567,,
,4276.0,1588.0,3983.0,1315.0,2433.0,2839.0,1280.0,,,,0.0919101934727492,-0.462200961978829,0.628483750646396,,-3.256247906215903,,
,4276.0,1586.0,3984.0,1319.0,2439.0,2839.0,1284.0,,,,0.0919104446724631,-0.462512670470329,0.629534884430028,,-3.3096105614365183,,
,4275.0,1585.0,3982.0,1317.0,2441.0,2869.0,1269.0,,,,0.0919105177081441,-0.462364288995686,0.629580363240965,,-3.336374642240567,,
,4278.0,1587.0,3985.0,1317.0,2445.0,2857.0,1265.0,,,,0.0919104041355343,-0.462442976961582,0.629616376600099,,-3.332748497845676,,
,4279.0,1588.0,3986.0,1317.0,2441.0,2859.0,1293.0,,,,0.0919099645320779,-0.462333226556771,0.629421037639909,,-3.295183078952303,,
,4279.0,1591.0,3985.0,1318.0,2442.0,2855.0,1291.0,,,,0.091911042708254,-0.462466121531377,0.629521670773679,,-3.220684092804,,
,4278.0,1586.0,3986.0,1316.0,2443.0,2858.0,1285.0,,,,0.0919106365785536,-0.462294273310264,0.629984978941258,,-3.107075250871631,,
,4276.0,1587.0,3988.0,1316.0,2434.0,2852.0,1285.0,,,,0.0919107084565735,-0.462190035636683,0.630095467472478,,-2.953188900667504,,
,4277.0,1588.0,3987.0,1315.0,2431.0,2830.0,1275.0,,,,0.0919112675188508,-0.462106566592118,0.629351083188558,,-2.7589691106369267,,
,4274.0,1588.0,3984.0,1316.0,2435.0,2848.0,1277.0,,,,0.0919108721151866,-0.462270869791078,0.629852081135574,,-2.525485339615829,,
,4277.0,1586.0,3983.0,1316.0,2434.0,2850.0,1276.0,,,,0.0919113807746189,-0.462167843141994,0.629810291918232,,-2.2548698934616254,,
,4275.0,1585.0,3983.0,1314.0,2434.0,2831.0,1259.0,,,,0.0919116050749559,-0.461974094041208,0.630608685377325,,-1.9502055154500024,,
,4273.0,1584.0,3981.0,1313.0,2431.0,2833.0,1279.0,,,,0.0919116800939329,-0.46207797695574,0.630670356875806,,-1.6153962879754122,,
,4272.0,1584.0,3982.0,1315.0,2432.0,2831.0,1280.0,,,,0.0919116122255866,-0.462152276406331,0.629844264204165,,-1.255052677373639,,
,4271.0,1584.0,3979.0,1312.0,2432.0,2841.0,1279.0,,,,0.091910841051385,-0.461890717804773,0.629981272555174,,-0.8744105179016971,,
,4267.0,1581.0,3977.0,1312.0,2437.0,2829.0,1292.0,,,,0.0919106498897594,-0.462108768882167,0.629715397726669,,-0.4792880103096135,,
,4265.0,1582.0,3977.0,1310.0,2438.0,2836.0,1259.0,,,,0.0919094152698897,-0.462781255366517,0.629003572382125,,-0.07606986583911703,,
,4265.0,1581.0,3978.0,1310.0,2433.0,2847.0,1268.0,,,,0.0919089227013314,-0.463491381693726,0.628266018778274,,0.32830229383856674,,
,4266.0,1578.0,3975.0,1309.0,2438.0,2839.0,1244.0,,,,0.091907797222028,-0.464288281610396,0.6264358359212,,0.726357741267136,,
,4265.0,1580.0,3975.0,1309.0,2439.0,2853.0,1240.0,,,,0.0919062315312092,-0.464422898324896,0.626028726932058,,1.1101648001673048,,
,4263.0,1578.0,3971.0,1306.0,2444.0,2845.0,1245.0,,,,0.0919049117648726,-0.465156784983642,0.625014633647147,,1.4714548997240835,,
,4264.0,1580.0,3975.0,1306.0,2443.0,2853.0,1248.0,,,,0.0919041629611459,-0.465439697090362,0.624880450038437,,1.8018091647766918,,
,4264.0,1581.0,3973.0,1310.0,2449.0,2866.0,1253.0,,,,0.091904121479154,-0.465745922798859,0.624289050818331,,2.092904923385296,,
,4264.0,1580.0,3972.0,1307.0,2445.0,2870.0,1253.0,,,,0.0919042138687874,-0.466157503478922,0.624214287909598,,2.3368113393134022,,
,4260.0,1576.0,3971.0,1305.0,2442.0,2887.0,1272.0,,,,0.0919031936105792,-0.466181049862901,0.623334621921377,,2.5263170219970563,,
,4262.0,1578.0,3971.0,1307.0,2442.0,2873.0,1260.0,,,,0.0919036332416096,-0.466187751359974,0.623361555996714,,2.655268283064422,,
,4260.0,1579.0,3971.0,1306.0,2439.0,2873.0,1251.0,,,,0.0919041020440441,-0.466085032047627,0.623426157800874,,2.71889491217598,,
,4263.0,1578.0,3971.0,1308.0,2440.0,2851.0,1238.0,,,,0.0919041325443947,-0.466031385610649,0.62333946335715,,2.7141007832409567,,
,4263.0,1577.0,3970.0,1310.0,2437.0,2838.0,1261.0,,,,0.0919047265012271,-0.465877913645265,0.623815409097271,,2.6396985408139804,,
,4262.0,1577.0,3969.0,1307.0,2429.0,2841.0,1271.0,,,,0.0919051061328259,-0.465891511611738,0.623901357193088,,2.496570072311139,,
,4261.0,1578.0,3969.0,1307.0,2431.0,2842.0,1275.0,,,,0.0919051612791285,-0.465959155795111,0.624941491794837,,2.2877367912829127,,
,4264.0,1579.0,3972.0,1308.0,2435.0,2861.0,1279.0,,,,0.0919049682375867,-0.465929443347886,0.624763922424323,,2.0183260260310116,,
,4263.0,1579.0,3971.0,1310.0,2431.0,2849.0,1286.0,,,,0.0919057308060472,-0.46579607699433,0.624937028085676,,1.6954230452358676,,
,4262.0,1579.0,3970.0,1309.0,2431.0,2857.0,1284.0,,,,0.0919058037210133,-0.465542433550341,0.625273069135695,,1.3278040615751578,,
,4267.0,1580.0,3975.0,1312.0,2433.0,2851.0,1279.0,,,,0.0919050823331384,-0.465433947734344,0.625441013731352,,0.9255549263660126,,
,4265.0,1582.0,3972.0,1309.0,2429.0,2845.0,1248.0,,,,0.0919057725876906,-0.465107772743627,0.626256996014161,,0.49959237983507904,,
,4266.0,1580.0,3972.0,1308.0,2430.0,2842.0,1253.0,,,,0.0919057125898853,-0.464928577378126,0.626610535691711,,0.06111726991355644,,
,4263.0,1581.0,3973.0,1310.0,2433.0,2850.0,1282.0,,,,0.0919057400686107,-0.464960069309031,0.625845973697629,,-0.3789606226050632,,
,4263.0,1579.0,3975.0,1306.0,2436.0,2844.0,1270.0,,,,0.0919063577853246,-0.46485493777358,0.626131777856217,,-0.8105806947599468,,
,4264.0,1580.0,3973.0,1310.0,2433.0,2859.0,1266.0,,,,0.0919059614915421,-0.464980473305686,0.625982921478896,,-1.2250268250331942,,
,4264.0,1582.0,3973.0,1308.0,2435.0,2870.0,1285.0,,,,0.0919055683968454,-0.46477271141434,0.626214085751806,,-1.6153193206250618,,
,4265.0,1581.0,3974.0,1309.0,2432.0,2867.0,1277.0,,,,0.0919053849922296,-0.465373773787742,0.626547449198017,,-1.976472399125257,,
,4263.0,1577.0,3973.0,1306.0,2437.0,2859.0,1252.0,,,,0.091905663442646,-0.465248253670007,0.625522474383204,,-2.3055981349681316,,
,4262.0,1579.0,3974.0,1309.0,2440.0,2843.0,1259.0,,,,0.0919048839419766,-0.465648871452043,0.624873962535206,,-2.6018512295240925,,
,4265.0,1580.0,3973.0,1308.0,2434.0,2847.0,1266.0,,,,0.0919044707078675,-0.465857371834321,0.625177256709698,,-2.866222977019894,,
,4265.0,1580.0,3971.0,1309.0,2434.0,2856.0,1265.0,,,,0.0919041636043223,-0.466127215285822,0.624226837127297,,-3.101206386862269,,
,4264.0,1578.0,3971.0,1310.0,2445.0,2846.0,1273.0,,,,0.0919032420338565,-0.466292960095846,0.624235448417389,,-3.310366033039884,,
,4263.0,1579.0,3971.0,1307.0,2439.0,2855.0,1279.0,,,,0.0919025395635407,-0.466588200016634,0.622416047520358,,-3.497853960323718,,
,4262.0,1576.0,3971.0,1308.0,2429.0,2872.0,1260.0,,,,0.0919026982607297,-0.46668787887452,0.622655083843605,,-3.667915386299806,,
,4263.0,1579.0,3972.0,1310.0,2437.0,2839.0,1268.0,,,,0.0919023791507362,-0.467065467891086,0.622686329969559,,-3.8244247819294444,,
,4261.0,1578.0,3972.0,1309.0,2439.0,2839.0,1286.0,,,,0.0919017122786997,-0.4670558352411,0.621198316997909,,-3.9704857027862746,,
,4263.0,1578.0,3969.0,1307.0,2445.0,2842.0,1266.0,,,,0.0919020659318852,-0.467593149209914,0.621687171045288,,-4.108118982624005,,
,4264.0,1578.0,3970.0,1307.0,2435.0,2848.0,1257.0,,,,0.0919013388032302,-0.467318765586524,0.621409477071574,,-4.23805554436008,,
,4263.0,1577.0,3973.0,1310.0,2428.0,2859.0,1251.0,,,,0.0919025259933716,-0.467577680127246,0.620817351780727,,-4.359642653601653,,
,4261.0,1578.0,3971.0,1308.0,2429.0,2861.0,1248.0,,,,0.0919017499812507,-0.467750634089383,0.6212355790851,,-4.470865511697405,,
,4262.0,1578.0,3968.0,1306.0,2436.0,2845.0,1255.0,,,,0.091901742181953,-0.46791940946993,0.621476580681006,,-4.568479164396262,,
,4262.0,1579.0,3971.0,1307.0,2440.0,2854.0,1273.0,,,,0.091901782410487,-0.467393157252145,0.621458896410823,,-4.648238573614453,,
,4263.0,1580.0,3974.0,1311.0,2435.0,2862.0,1272.0,,,,0.0919010435986645,-0.467563739087332,0.621697973025647,,-4.705207533168812,,
,4264.0,1580.0,3972.0,1310.0,2436.0,2848.0,1270.0,,,,0.0919021414009173,-0.467512000803113,0.621326126203796,,-4.734120614491418,,
,4267.0,1580.0,3975.0,1308.0,2435.0,2845.0,1273.0,,,,0.0919014713034397,-0.467891380336881,0.621630556978372,,-4.729767523153892,,
,4263.0,1579.0,3972.0,1308.0,2437.0,2841.0,1265.0,,,,0.0919014832177381,-0.467774224454535,0.621418630031486,,-4.687366780321605,,
,4266.0,1581.0,3974.0,1310.0,2429.0,2859.0,1262.0,,,,0.0919008564634177,-0.468295208271292,0.621223674454208,,-4.6028955645264364,,
,4269.0,1581.0,3977.0,1310.0,2431.0,2851.0,1261.0,,,,0.0919012640974244,-0.468470735439186,0.620664171409576,,-4.473344965845793,,
,4266.0,1581.0,3977.0,1310.0,2431.0,2844.0,1256.0,,,,0.0919003033969907,-0.468820008499257,0.621404321348873,,-4.29687555524066,,
,4267.0,1582.0,3974.0,1311.0,2428.0,2830.0,1278.0,,,,0.0919001631355732,-0.468754608338941,0.620845436514717,,-4.07285797984318,,
,4264.0,1581.0,3977.0,1309.0,2432.0,2832.0,1243.0,,,,0.0918998095014718,-0.468786525140368,0.620599667839463,,-3.8017973928271758,,
,4268.0,1582.0,3978.0,1311.0,2435.0,2838.0,1256.0,,,,0.0919009194532293,-0.468424836237984,0.620646842425462,,-3.485157645804287,,
,4268.0,1584.0,3978.0,1314.0,2441.0,2845.0,1264.0,,,,0.091900837929818,-0.468930420763705,0.621001669916878,,-3.1251185477877765,,
,4269.0,1583.0,3978.0,1311.0,2441.0,2845.0,1269.0,,,,0.0919002004493503,-0.46913986694465,0.620630356624319,,-2.7243132737965765,,
,4269.0,1581.0,3978.0,1311.0,2440.0,2869.0,1271.0,,,,0.0918996379888471,-0.469086033164878,0.620819582685023,,-2.2855993634015244,,
,4271.0,1584.0,3977.0,1314.0,2438.0,2878.0,1246.0,,,,0.09189918603424,-0.469373836658745,0.620176732301991,,-1.8119133337364208,,
,4271.0,1583.0,3981.0,1315.0,2440.0,2851.0,1268.0,,,,0.0918981340279414,-0.469399425911671,0.619928331477434,,-1.3062455652952103,,
,4271.0,1584.0,3982.0,1313.0,2436.0,2846.0,1269.0,,,,0.0918980986789779,-0.469694276838882,0.619145555686679,,-0.7717503777167274,,
,4272.0,1584.0,3982.0,1313.0,2433.0,2836.0,1263.0,,,,0.0918981175195139,-0.469747072824579,0.619017593145975,,-0.21197889519030697,,
,4271.0,1586.0,3983.0,1314.0,2437.0,2846.0,1237.0,,,,0.0918977808587861,-0.470055722769922,0.618726207312598,,0.3688063566604453,,
,4274.0,1584.0,3982.0,1316.0,2439.0,2854.0,1258.0,,,,0.0918975701157249,-0.470709079266968,0.618520189579069,,0.9653003918100195,,
,4274.0,1584.0,3980.0,1315.0,2442.0,2842.0,1259.0,,,,0.0918975980960429,-0.470908675718894,0.618077490365752,,1.5708871632553727,,
,4276.0,1587.0,3984.0,1315.0,2447.0,2832.0,1250.0,,,,0.0918964487784529,-0.470965744132242,0.61743903349768,,2.1775110123784285,,
,4273.0,1584.0,3982.0,1315.0,2432.0,2826.0,1249.0,,,,0.0918961840919398,-0.471090426344156,0.617338959654984,,2.7757479935451657,,
,4276.0,1586.0,3984.0,1316.0,2434.0,2819.0,1262.0,,,,0.0918957841232795,-0.471856139742372,0.616850598046832,,3.3551043928403734,,
,4277.0,1587.0,3987.0,1315.0,2442.0,2841.0,1277.0,,,,0.0918943890468899,-0.472015786744043,0.616096811755013,,3.904527356992214,,
,4275.0,1586.0,3984.0,1317.0,2440.0,2855.0,1278.0,,,,0.0918944475595168,-0.472123790573646,0.614772926478904,,4.413068384521051,,
,4274.0,1584.0,3985.0,1314.0,2431.0,2838.0,1267.0,,,,0.0918941099710061,-0.472846291709317,0.615093306729089,,4.870605260939149,,
,4275.0,1584.0,3986.0,1316.0,2437.0,2852.0,1276.0,,,,0.0918944030271056,-0.473826894160414,0.614993648783078,,5.268512394895364,,
,4277.0,1587.0,3987.0,1317.0,2442.0,2846.0,1279.0,,,,0.0918932918050458,-0.473073886065532,0.614256023918624,,5.600179251571794,,
,4275.0,1588.0,3988.0,1317.0,2437.0,2854.0,1270.0,,,,0.0918933350609064,-0.473384554462588,0.614128673686945,,5.861309474192222,,
,4276.0,1587.0,3986.0,1317.0,2436.0,2866.0,1261.0,,,,0.0918936008209245,-0.473212201787889,0.614581298388459,,6.049979656302254,,
2025-06-30 22:41:59,4273.0,1585.0,3984.0,1314.0,2438.0,2859.0,1281.0,,,2025/06/30 10:41:59 PM,0.0918927699052022,-0.4732705737656,0.613743921005382,,6.166483402407968,,
,4272.0,1584.0,3984.0,1314.0,2429.0,2841.0,1265.0,,,,0.0918930414923868,-0.4731014782049,0.614014850431284,,6.213021441250708,,
,4268.0,1582.0,3980.0,1312.0,2436.0,2854.0,1267.0,,,,0.0918935009801089,-0.473276469822468,0.613808693627204,,6.1933149028689245,,
,4270.0,1584.0,3980.0,1312.0,2438.0,2843.0,1262.0,,,,0.0918931624677459,-0.473502513832015,0.614140488950695,,6.112214753856024,,
,4267.0,1580.0,3977.0,1312.0,2446.0,2842.0,1266.0,,,,0.0918932815041438,-0.473676591080222,0.615025903833334,,5.97535915856598,,
,4265.0,1580.0,3977.0,1310.0,2435.0,2843.0,1290.0,,,,0.0918939492511013,-0.473288173144445,0.614355699722336,,5.788899876976783,,
,4266.0,1581.0,3976.0,1310.0,2432.0,2841.0,1266.0,,,,0.0918930472517228,-0.47379245933359,0.613997392401104,,5.559289306689634,,
,4264.0,1579.0,3976.0,1308.0,2435.0,2842.0,1272.0,,,,0.0918930803456223,-0.473403564839567,0.614995810847085,,5.293101437907756,,
,4263.0,1579.0,3974.0,1308.0,2441.0,2846.0,1277.0,,,,0.0918929380753996,-0.473899910201152,0.613850443546302,,4.996857816628306,,
,4260.0,1576.0,3972.0,1306.0,2437.0,2845.0,1261.0,,,,0.0918917012152428,-0.474220259479638,0.612369672489042,,4.676841649344309,,
,4260.0,1578.0,3973.0,1308.0,2441.0,2844.0,1253.0,,,,0.0918911090431986,-0.47498418428165,0.612663689233975,,4.338902546444806,,
,4260.0,1576.0,3974.0,1307.0,2443.0,2846.0,1255.0,,,,0.0918894544869418,-0.475528564931924,0.610735743036037,,3.9882729318556285,,
,4260.0,1575.0,3970.0,1308.0,2439.0,2853.0,1247.0,,,,0.0918885026989568,-0.476622748979613,0.609580210882094,,3.629428057552978,,
,4260.0,1576.0,3966.0,1303.0,2441.0,2840.0,1247.0,,,,0.091887257775424,-0.476960104863751,0.608043039699824,,3.2660209646664264,,
,4261.0,1577.0,3970.0,1305.0,2436.0,2851.0,1261.0,,,,0.0918863022254529,-0.477197865483259,0.607720990842162,,2.900911707650513,,
,4262.0,1576.0,3971.0,1305.0,2429.0,2851.0,1283.0,,,,0.0918861069741002,-0.477784270256108,0.608078164154029,,2.5362907272197113,,
,4258.0,1574.0,3969.0,1306.0,2432.0,2865.0,1284.0,,,,0.091885327598488,-0.477926914896868,0.608131819714514,,2.1738756109466655,,
,4258.0,1575.0,3969.0,1305.0,2449.0,2874.0,1286.0,,,,0.0918857150432753,-0.477743085089555,0.606808446091235,,1.8151444530305414,,
,4257.0,1575.0,3967.0,1306.0,2440.0,2855.0,1269.0,,,,0.0918853418596539,-0.477222961509041,0.607383148115951,,1.4615614236470238,,
,4261.0,1576.0,3970.0,1304.0,2434.0,2832.0,1266.0,,,,0.091885038755845,-0.477171793492251,0.607415099860732,,1.1147522757706754,,
,4260.0,1578.0,3971.0,1305.0,2443.0,2824.0,1260.0,,,,0.0918856439488991,-0.477004433579884,0.607661317336904,,0.7765982541174479,,
,4258.0,1577.0,3970.0,1306.0,2444.0,2822.0,1259.0,,,,0.0918862143773098,-0.477064596603934,0.608110050984992,,0.4492333653872115,,
,4259.0,1576.0,3968.0,1306.0,2440.0,2841.0,1268.0,,,,0.0918865661023569,-0.477519725789185,0.607911339110909,,0.13494880687894534,,
,4260.0,1577.0,3969.0,1307.0,2439.0,2835.0,1266.0,,,,0.0918865995094321,-0.476937257463925,0.608362623950593,,-0.16397348588148605,,
,4261.0,1575.0,3973.0,1308.0,2432.0,2839.0,1270.0,,,,0.0918867568517316,-0.476670669046601,0.609116155496106,,-0.445461562238799,,
,4260.0,1575.0,3967.0,1305.0,2435.0,2846.0,1274.0,,,,0.091887251376962,-0.477074661420476,0.608551213378745,,-0.7078439419503456,,
,4259.0,1580.0,3970.0,1305.0,2441.0,2861.0,1291.0,,,,0.0918875600079513,-0.476694700923939,0.60920531365796,,-0.9499870071017551,,
,4259.0,1576.0,3971.0,1309.0,2439.0,2822.0,1296.0,,,,0.0918877619680215,-0.47634993287486,0.609626837759309,,-1.1713479568685166,,
,4260.0,1578.0,3971.0,1307.0,2440.0,2857.0,1294.0,,,,0.0918873303793973,-0.476374514041462,0.60939298145722,,-1.3719303168795343,,
,4261.0,1578.0,3971.0,1307.0,2435.0,2859.0,1274.0,,,,0.0918881196174123,-0.476321811399777,0.609583314331094,,-1.5521492532397942,,
,4261.0,1576.0,3973.0,1306.0,2431.0,2861.0,1274.0,,,,0.0918885221089449,-0.476331274601542,0.610618505879026,,-1.7126315946199198,,
,4258.0,1578.0,3973.0,1307.0,2437.0,2849.0,1271.0,,,,0.0918891506870645,-0.475665233004725,0.611110489631237,,-1.8539875367049243,,
,4258.0,1576.0,3970.0,1306.0,2438.0,2851.0,1269.0,,,,0.0918879565399359,-0.47545647574398,0.611191836267699,,-1.9765960405971201,,
,4259.0,1576.0,3970.0,1307.0,2439.0,2851.0,1269.0,,,,0.0918892029389817,-0.475678132173905,0.61128552577748,,-2.080443516574473,,
,4259.0,1578.0,3971.0,1307.0,2438.0,2853.0,1265.0,,,,0.0918887272649171,-0.475104751228774,0.610850751108446,,-2.165045827174829,,
,4260.0,1575.0,3969.0,1306.0,2440.0,2865.0,1265.0,,,,0.0918898646963874,-0.474997507792028,0.611873305061165,,-2.229468253438144,,
,4257.0,1576.0,3970.0,1304.0,2448.0,2835.0,1275.0,,,,0.0918898050459101,-0.474999714107666,0.612395794483163,,-2.2724395234653514,,
,4258.0,1575.0,3969.0,1307.0,2449.0,2847.0,1259.0,,,,0.0918900247127847,-0.475009765301895,0.612778470860023,,-2.2925381515748517,,
,4259.0,1577.0,3969.0,1306.0,2442.0,2836.0,1259.0,,,,0.091890222808755,-0.474349062604077,0.613049198669699,,-2.2884161301712234,,
,4257.0,1577.0,3967.0,1304.0,2435.0,2822.0,1261.0,,,,0.0918900144249965,-0.474178179147973,0.612755705447795,,-2.2590192088695864,,
,4255.0,1574.0,3968.0,1305.0,2444.0,2820.0,1270.0,,,,0.0918900024880968,-0.474276627011264,0.61266276282073,,-2.2037655290055955,,
,4257.0,1575.0,3970.0,1304.0,2438.0,2825.0,1275.0,,,,0.0918905245528636,-0.474345609045566,0.612783099090568,,-2.1226545555636576,,
,4259.0,1575.0,3970.0,1307.0,2439.0,2816.0,1258.0,,,,0.0918908593151476,-0.474075466777831,0.612987401598817,,-2.016294004776914,,
,4257.0,1577.0,3970.0,1307.0,2437.0,2818.0,1261.0,,,,0.0918914458983931,-0.474149629082977,0.613656972364922,,-1.8858505056668426,,
,4259.0,1575.0,3968.0,1304.0,2432.0,2822.0,1254.0,,,,0.0918902038205962,-0.474171600816344,0.612955371471679,,-1.7329458378660862,,
,4259.0,1573.0,3967.0,1305.0,2441.0,2844.0,1266.0,,,,0.0918903883619668,-0.47426050579298,0.613561165514904,,-1.5595304971618085,,
,4259.0,1576.0,3968.0,1307.0,2440.0,2845.0,1263.0,,,,0.0918896466584772,-0.474554126720169,0.612373130076591,,-1.3677671800509954,,
,4260.0,1579.0,3971.0,1307.0,2437.0,2844.0,1274.0,,,,0.0918894602284206,-0.47451471595988,0.612026037185102,,-1.1599485506512268,,
,4258.0,1576.0,3971.0,1308.0,2434.0,2847.0,1268.0,,,,0.091889471050128,-0.474747851203794,0.612183151258692,,-0.9384598326979549,,
,4259.0,1579.0,3970.0,1306.0,2435.0,2848.0,1268.0,,,,0.0918893636225434,-0.475002149030712,0.611752741441105,,-0.7057830481935538,,
,4259.0,1575.0,3969.0,1306.0,2433.0,2836.0,1262.0,,,,0.0918897933357876,-0.474923268038857,0.612033696649331,,-0.4645309863944491,,
,4260.0,1578.0,3971.0,1309.0,2436.0,2836.0,1278.0,,,,0.0918891344585834,-0.474807259031285,0.612510085240547,,-0.21749647072692735,,
,4259.0,1578.0,3970.0,1308.0,2442.0,2855.0,1287.0,,,,0.0918901683582336,-0.475372451661881,0.61153582394404,,0.032296196208688246,,
,4263.0,1579.0,3972.0,1307.0,2450.0,2848.0,1285.0,,,,0.0918897954638331,-0.475178539953697,0.61198092886915,,0.2815486450367827,,
,4261.0,1577.0,3970.0,1307.0,2440.0,2829.0,1302.0,,,,0.0918901345300623,-0.475505004176411,0.611727669471666,,0.5266639483503641,,
,4261.0,1578.0,3975.0,1307.0,2434.0,2825.0,1301.0,,,,0.0918900951430666,-0.475169561230196,0.611820179339728,,0.7637472593063043,,
,4263.0,1580.0,3975.0,1309.0,2435.0,2842.0,1253.0,,,,0.0918898825717488,-0.47455087247866,0.6130482569518,,0.988635516788693,,
,4264.0,1579.0,3973.0,1309.0,2438.0,2840.0,1274.0,,,,0.0918905951764844,-0.474363730473203,0.612695252448754,,1.196956861732094,,
,4262.0,1579.0,3975.0,1309.0,2439.0,2847.0,1260.0,,,,0.091891325646181,-0.4744441496677,0.61359068767769,,1.3842180001982887,,
,4265.0,1581.0,3977.0,1309.0,2437.0,2865.0,1265.0,,,,0.0918913923924587,-0.473906796219156,0.613763420453548,,1.5459165668164676,,
,4265.0,1581.0,3976.0,1309.0,2439.0,2865.0,1267.0,,,,0.0918915219801019,-0.474113945033341,0.613794958160907,,1.6776751120702853,,
,4266.0,1579.0,3976.0,1311.0,2437.0,2861.0,1249.0,,,,0.0918916385885228,-0.474188265838465,0.61426337082188,,1.775393113791446,,
,4264.0,1581.0,3977.0,1312.0,2424.0,2856.0,1249.0,,,,0.0918919671846532,-0.474348051781347,0.614706428834447,,1.835413235937671,,
,4264.0,1580.0,3976.0,1308.0,2432.0,2853.0,1253.0,,,,0.0918923183668073,-0.474145916758125,0.615276167699539,,1.8546977933208282,,
,4267.0,1581.0,3977.0,1314.0,2435.0,2872.0,1272.0,,,,0.0918919399485849,-0.474276610097186,0.614545498782943,,1.8310104963120084,,
,4268.0,1583.0,3979.0,1312.0,2435.0,2850.0,1273.0,,,,0.0918926279689238,-0.474416842602774,0.614727930678985,,1.7630964180838316,,
,4268.0,1583.0,3978.0,1312.0,2440.0,2838.0,1264.0,,,,0.0918921715751878,-0.474519505483305,0.61449310291432,,1.650849653128946,,
,4266.0,1581.0,3980.0,1310.0,2441.0,2850.0,1271.0,,,,0.0918909993353252,-0.474129671554132,0.61426005147602,,1.4954538826629091,,
,4269.0,1584.0,3979.0,1313.0,2437.0,2844.0,1263.0,,,,0.0918906648077449,-0.47450381364711,0.613655558740723,,1.2994770752249771,,
,4267.0,1579.0,3980.0,1312.0,2439.0,2873.0,1282.0,,,,0.0918908996811121,-0.474457202536517,0.613741140098937,,1.0668993603543757,,
,4272.0,1585.0,3984.0,1314.0,2439.0,2869.0,1276.0,,,,0.0918904526511669,-0.474912636115306,0.612972809299123,,0.8030544856621251,,
,4272.0,1585.0,3982.0,1315.0,2432.0,2845.0,1261.0,,,,0.0918906782142287,-0.475042396915505,0.612998554541041,,0.5144712851514407,,
,4271.0,1584.0,3982.0,1312.0,2433.0,2837.0,1241.0,,,,0.091890531033187,-0.47555486691517,0.612627217595049,,0.20861184557030116,,
,4272.0,1584.0,3982.0,1314.0,2448.0,2835.0,1257.0,,,,0.091890261131959,-0.475572027973069,0.61133063842652,,-0.10648411922556289,,
,4270.0,1584.0,3983.0,1313.0,2438.0,2835.0,1261.0,,,,0.0918897136892468,-0.475691967810498,0.61170605706649,,-0.42262583722732144,,
,4270.0,1583.0,3984.0,1315.0,2437.0,2849.0,1272.0,,,,0.0918900065150763,-0.47636021539003,0.610941080733648,,-0.7319340892880811,,
,4271.0,1582.0,3984.0,1314.0,2433.0,2860.0,1281.0,,,,0.0918888768699672,-0.476358694023458,0.611014047908277,,-1.0272958610596077,,
,4268.0,1584.0,3985.0,1313.0,2437.0,2864.0,1258.0,,,,0.091888687749209,-0.476329596544548,0.610847488953295,,-1.3027627711205572,,
,4270.0,1585.0,3982.0,1313.0,2440.0,2841.0,1275.0,,,,0.091888736684344,-0.476652797274151,0.610158201029524,,-1.5538473888020894,,
,4268.0,1582.0,3982.0,1312.0,2434.0,2859.0,1292.0,,,,0.0918883212534209,-0.476773911364926,0.610051760194274,,-1.7776813089705539,,
,4266.0,1581.0,3980.0,1312.0,2429.0,2850.0,1297.0,,,,0.0918883842894176,-0.476913503646366,0.609688015406775,,-1.973014923530225,,
,4264.0,1581.0,3979.0,1309.0,2437.0,2851.0,1263.0,,,,0.0918885803012112,-0.476744181462455,0.609271583234297,,-2.140058571298359,,
,4262.0,1579.0,3979.0,1308.0,2433.0,2839.0,1248.0,,,,0.0918881424046035,-0.47680237665372,0.608894687375533,,-2.280184734574827,,
,4261.0,1581.0,3977.0,1307.0,2433.0,2837.0,1250.0,,,,0.091888216785759,-0.477146938813227,0.608875055901102,,-2.3955279308722477,,
,4259.0,1578.0,3974.0,1307.0,2433.0,2836.0,1267.0,,,,0.0918876120536402,-0.477220573265687,0.608840321324864,,-2.488530597846765,,
,4257.0,1577.0,3971.0,1304.0,2438.0,2843.0,1278.0,,,,0.0918884586909622,-0.476935635984018,0.609320783363342,,-2.561488464332933,,
,4256.0,1575.0,3970.0,1303.0,2438.0,2831.0,1232.0,,,,0.0918880896967478,-0.477368539815773,0.609412246737187,,-2.6161475105746774,,
,4256.0,1578.0,3972.0,1304.0,2440.0,2825.0,1254.0,,,,0.0918874575326078,-0.477327257538139,0.609071041627696,,-2.6533972048876073,,
,4252.0,1575.0,3970.0,1304.0,2439.0,2817.0,1256.0,,,,0.0918873385048979,-0.477356651673466,0.609685660607629,,-2.6730923797898583,,
,4253.0,1574.0,3968.0,1304.0,2448.0,2817.0,1249.0,,,,0.0918877482271751,-0.477515419512015,0.609128882557347,,-2.6740204988813536,,
,4252.0,1572.0,3965.0,1301.0,2451.0,2812.0,1234.0,,,,0.0918881709199971,-0.477357034289584,0.609164355409147,,-2.6540140857275665,,
,4252.0,1575.0,3965.0,1301.0,2457.0,2801.0,1249.0,,,,0.0918869501659909,-0.477701338215803,0.608575633854336,,-2.610191596969116,,
,4250.0,1574.0,3966.0,1303.0,2453.0,2821.0,1247.0,,,,0.0918863599449441,-0.477995780447887,0.607657560024012,,-2.539295620737143,,
,4249.0,1572.0,3967.0,1301.0,2451.0,2823.0,1253.0,,,,0.0918861269530215,-0.478759047251361,0.606981671659077,,-2.438086468869927,,
,4247.0,1572.0,3963.0,1301.0,2445.0,2835.0,1258.0,,,,0.0918845209455749,-0.479543913741142,0.605766042860001,,-2.3037435330491207,,
,4250.0,1572.0,3965.0,1301.0,2441.0,2848.0,1272.0,,,,0.0918833698167376,-0.479877449900699,0.604235715788343,,-2.134227332730118,,
,4250.0,1573.0,3962.0,1303.0,2444.0,2860.0,1273.0,,,,0.0918826616065284,-0.480228850540951,0.603875466562609,,-1.9285621973262006,,
,4251.0,1574.0,3966.0,1302.0,2443.0,2852.0,1295.0,,,,0.0918822370964962,-0.480458776120346,0.603592376038817,,-1.6870121798585545,,
,4250.0,1571.0,3962.0,1300.0,2441.0,2837.0,1283.0,,,,0.0918821001960978,-0.48075923057838,0.603085432777803,,-1.4111394270969915,,
,4249.0,1571.0,3961.0,1302.0,2442.0,2836.0,1300.0,,,,0.0918824404710319,-0.480219973490627,0.603203697739948,,-1.1037522612268793,,
,4251.0,1574.0,3965.0,1302.0,2436.0,2833.0,1307.0,,,,0.091881775444454,-0.48050770167569,0.603111134998127,,-0.7687663085731818,,
,4251.0,1574.0,3964.0,1301.0,2426.0,2833.0,1288.0,,,,0.0918824557051224,-0.480210275541438,0.603360631474856,,-0.41101285764200135,,
,4251.0,1572.0,3962.0,1301.0,2432.0,2828.0,1287.0,,,,0.0918823691030061,-0.480369685415908,0.603476944454356,,-0.03603219130525827,,
,4251.0,1573.0,3965.0,1302.0,2453.0,2827.0,1264.0,,,,0.0918824770882211,-0.480410729181293,0.60405104916335,,0.35011432947886684,,
,4250.0,1574.0,3968.0,1303.0,2444.0,2844.0,1263.0,,,,0.0918828090960444,-0.480115202382043,0.60415955804638,,0.7409899637021167,,
,4252.0,1575.0,3967.0,1303.0,2438.0,2826.0,1266.0,,,,0.0918830500674381,-0.480095993242687,0.604089047039597,,1.129877364000142,,
,4253.0,1574.0,3969.0,1303.0,2427.0,2825.0,1286.0,,,,0.0918835781324473,-0.479702891609997,0.60426603537847,,1.509830463131002,,
,4251.0,1575.0,3965.0,1304.0,2430.0,2828.0,1269.0,,,,0.0918842240443779,-0.479116468515176,0.60526177062117,,1.8737067179032205,,
,4252.0,1573.0,3965.0,1303.0,2435.0,2833.0,1289.0,,,,0.0918849798930268,-0.478762073574662,0.605490896087054,,2.2142122682279632,,
,4251.0,1573.0,3965.0,1301.0,2435.0,2851.0,1300.0,,,,0.0918862004785153,-0.478696780584706,0.60699601426636,,2.5239925630329636,,
,4249.0,1574.0,3969.0,1303.0,2438.0,2842.0,1279.0,,,,0.0918864801489033,-0.478350626161143,0.6066292079773,,2.795791354933612,,
,4250.0,1574.0,3967.0,1301.0,2432.0,2838.0,1265.0,,,,0.0918865481350422,-0.478072404889224,0.607056052286093,,3.022684920330995,,
,4248.0,1573.0,3966.0,1301.0,2424.0,2855.0,1278.0,,,,0.0918869316910909,-0.477783408815965,0.607791862712491,,3.1983810504442305,,
,4249.0,1577.0,3967.0,1302.0,2435.0,2825.0,1289.0,,,,0.0918868559879283,-0.477524555161638,0.608199991476951,,3.3175584516220984,,
,4249.0,1571.0,3966.0,1303.0,2440.0,2839.0,1293.0,,,,0.0918871549647472,-0.477254339120953,0.609038755236242,,3.376214363238523,,
,4248.0,1572.0,3964.0,1303.0,2434.0,2853.0,1276.0,,,,0.0918877877086591,-0.477331727084648,0.608776531883762,,3.371986567454466,,
,4250.0,1575.0,3966.0,1302.0,2433.0,2854.0,1256.0,,,,0.0918873901427066,-0.477333400837091,0.608493622521797,,3.3044184937364802,,
,4247.0,1572.0,3965.0,1300.0,2426.0,2841.0,1253.0,,,,0.0918886766445179,-0.477102190579734,0.609310414725774,,3.1751401614713677,,
,4245.0,1571.0,3965.0,1302.0,2435.0,2816.0,1265.0,,,,0.0918890300008583,-0.476895294781606,0.609249767389568,,2.9879417739503515,,
,4248.0,1574.0,3967.0,1302.0,2438.0,2834.0,1282.0,,,,0.0918887431651892,-0.476739162206071,0.608842454601394,,2.7487211221284147,,
,4247.0,1572.0,3963.0,1302.0,2441.0,2838.0,1274.0,,,,0.0918885792475388,-0.477020900563767,0.608370176804033,,2.4652918553502263,,
,4245.0,1569.0,3966.0,1301.0,2455.0,2825.0,1278.0,,,,0.0918876213927833,-0.477333180021072,0.60844291147603,,2.147048619116108,,
,4244.0,1571.0,3965.0,1299.0,2444.0,2825.0,1259.0,,,,0.0918883980459542,-0.477155289052016,0.608583489728127,,1.8044980565938078,,
,4247.0,1574.0,3965.0,1303.0,2446.0,2859.0,1275.0,,,,0.0918879088859293,-0.477385302149323,0.608590018071074,,1.448681177461227,,
,4249.0,1572.0,3967.0,1300.0,2441.0,2832.0,1276.0,,,,0.0918876576210732,-0.477777821862953,0.607670138642947,,1.090529633283515,,
,4245.0,1574.0,3964.0,1301.0,2439.0,2843.0,1266.0,,,,0.0918877404066759,-0.477539530574118,0.608114053775574,,0.7402113856194322,,
,4245.0,1571.0,3965.0,1300.0,2440.0,2830.0,1283.0,,,,0.0918885126299903,-0.477074663283253,0.608148317695731,,0.40652634905575014,,
,4247.0,1573.0,3964.0,1302.0,2438.0,2844.0,1273.0,,,,0.091888763735842,-0.477198062669441,0.608244496362117,,0.09640883735052096,,
2025-06-30 22:42:00,4245.0,1575.0,3966.0,1304.0,2436.0,2858.0,1279.0,,,2025/06/30 10:42:00 PM,0.0918887494321272,-0.477281157560478,0.608576648339078,,-0.1854175849701605,,
,4247.0,1575.0,3969.0,1305.0,2440.0,2849.0,1275.0,,,,0.0918892346026552,-0.477090049207071,0.608437817488505,,-0.43660372896360194,,
,4250.0,1571.0,3965.0,1301.0,2448.0,2850.0,1288.0,,,,0.0918886047321809,-0.476825548776005,0.608030744173553,,-0.6571471890873924,,
,4249.0,1574.0,3971.0,1304.0,2439.0,2833.0,1291.0,,,,0.0918887771270186,-0.476752788075891,0.608033867312895,,-0.8491836128746052,,
,4247.0,1574.0,3968.0,1302.0,2439.0,2832.0,1297.0,,,,0.091888699792828,-0.476297276111526,0.608703305306698,,-1.0166243532458994,,
,4249.0,1575.0,3967.0,1302.0,2433.0,2837.0,1281.0,,,,0.0918892545791692,-0.47660294510497,0.608361747044936,,-1.1646808911836222,,
,4249.0,1575.0,3969.0,1303.0,2435.0,2834.0,1300.0,,,,0.0918893570356956,-0.476695691649127,0.609326158656517,,-1.2993233023400055,,
,4249.0,1575.0,3967.0,1303.0,2440.0,2839.0,1284.0,,,,0.0918902256458261,-0.47608851874855,0.609706687272941,,-1.4267204877978024,,
,4249.0,1575.0,3970.0,1303.0,2428.0,2850.0,1262.0,,,,0.0918902397185075,-0.476210511452176,0.609852413693065,,-1.5527046076791438,,
,4251.0,1576.0,3970.0,1305.0,2433.0,2854.0,1270.0,,,,0.091890359031722,-0.475935292835892,0.60950653871333,,-1.682293093741172,,
,4252.0,1577.0,3971.0,1303.0,2436.0,2852.0,1259.0,,,,0.0918909850154659,-0.475751186836234,0.61006851657799,,-1.8192913621774232,,
,4249.0,1577.0,3970.0,1302.0,2436.0,2841.0,1243.0,,,,0.0918909549971165,-0.475356543178731,0.610428490360942,,-1.9659901229996994,,
,4250.0,1575.0,3970.0,1303.0,2437.0,2847.0,1279.0,,,,0.0918921257101815,-0.475502202807927,0.610352195195751,,-2.122964207291434,,
,4254.0,1577.0,3974.0,1307.0,2436.0,2865.0,1271.0,,,,0.0918920316274618,-0.475416352233376,0.610891114203495,,-2.2889753617080277,,
,4253.0,1574.0,3973.0,1305.0,2440.0,2856.0,1276.0,,,,0.091891671245764,-0.475211306762994,0.610337314299502,,-2.4609790665173654,,
,4254.0,1578.0,3973.0,1309.0,2442.0,2845.0,1269.0,,,,0.0918919350318298,-0.474916739010148,0.61115645527003,,-2.634234176727734,,
,4255.0,1578.0,3970.0,1307.0,2437.0,2853.0,1311.0,,,,0.091892593485411,-0.475060407536049,0.611228357755522,,-2.80251281732839,,
,4256.0,1579.0,3975.0,1307.0,2445.0,2859.0,1293.0,,,,0.091892232027067,-0.475333531706783,0.611075490327842,,-2.9584053903426644,,
,4255.0,1579.0,3974.0,1308.0,2436.0,2851.0,1295.0,,,,0.0918927273649,-0.474909183995257,0.610915599280272,,-3.0937112460046294,,
,4255.0,1579.0,3978.0,1307.0,2435.0,2835.0,1303.0,,,,0.0918917887429059,-0.474844547680623,0.61131587221321,,-3.1998996426723507,,
,4254.0,1578.0,3977.0,1308.0,2429.0,2813.0,1302.0,,,,0.0918927396436867,-0.47494383037987,0.610950142592146,,-3.268618672798486,,
,4253.0,1579.0,3976.0,1309.0,2436.0,2827.0,1297.0,,,,0.0918923721178569,-0.474791191711317,0.610651527456453,,-3.2922227712414327,,
,4256.0,1583.0,3977.0,1310.0,2430.0,2817.0,1276.0,,,,0.0918922655639605,-0.474751859138319,0.611362962328655,,-3.264283259000385,,
,4254.0,1579.0,3980.0,1310.0,2438.0,2856.0,1283.0,,,,0.0918918724722739,-0.475184146804817,0.611017347754304,,-3.1800421450633904,,
,4257.0,1580.0,3979.0,1307.0,2439.0,2853.0,1279.0,,,,0.0918913405020179,-0.47523858330232,0.611197083173766,,-3.0367683011954347,,
,4257.0,1579.0,3979.0,1308.0,2450.0,2846.0,1276.0,,,,0.0918914588352484,-0.475550197507393,0.611043396671958,,-2.8339786276721135,,
,4259.0,1581.0,3979.0,1309.0,2443.0,2838.0,1299.0,,,,0.0918909707080216,-0.47574847129226,0.610364047889064,,-2.5734964459007657,,
,4259.0,1582.0,3979.0,1310.0,2438.0,2845.0,1283.0,,,,0.0918911740491538,-0.475803811647672,0.609605940700097,,-2.2593356293360563,,
,4257.0,1581.0,3980.0,1310.0,2439.0,2843.0,1282.0,,,,0.0918903701041051,-0.475984839171624,0.60928906804761,,-1.8974203173533097,,
,4256.0,1580.0,3978.0,1309.0,2443.0,2839.0,1274.0,,,,0.0918902462810858,-0.475879304030078,0.60948762328092,,-1.4951724609338808,,
,4257.0,1581.0,3979.0,1310.0,2443.0,2840.0,1272.0,,,,0.0918903919909392,-0.476457988936118,0.609193240155201,,-1.061017806887342,,
,4255.0,1580.0,3978.0,1308.0,2442.0,2865.0,1283.0,,,,0.0918907602892435,-0.476217089725844,0.60934791556205,,-0.6038709766534326,,
,4256.0,1578.0,3978.0,1309.0,2430.0,2862.0,1286.0,,,,0.0918910598277107,-0.476133732770718,0.609511000285861,,-0.13266008757980005,,
,4254.0,1578.0,3975.0,1308.0,2432.0,2848.0,1279.0,,,,0.0918907718421338,-0.475912015716711,0.609443306841171,,0.34405845725918655,,
,4254.0,1577.0,3974.0,1306.0,2432.0,2852.0,1253.0,,,,0.0918903961451962,-0.475996076206126,0.609219355277893,,0.8183612969858783,,
,4250.0,1577.0,3973.0,1306.0,2433.0,2853.0,1268.0,,,,0.0918907829387415,-0.475881498896327,0.609856603647696,,1.2830824790865067,,
,4250.0,1576.0,3975.0,1304.0,2415.0,2828.0,1256.0,,,,0.0918906833058718,-0.475840681953972,0.609817921356818,,1.7318087243446127,,
,4247.0,1573.0,3971.0,1304.0,2414.0,2834.0,1271.0,,,,0.0918910660205201,-0.475877566584267,0.609959412589268,,2.1587716823774112,,
,4244.0,1572.0,3972.0,1300.0,2430.0,2826.0,1280.0,,,,0.0918907959589979,-0.47565984564946,0.610681319106418,,2.5586764567763822,,
,4248.0,1573.0,3968.0,1300.0,2434.0,2832.0,1284.0,,,,0.0918907009991562,-0.475437060534035,0.610281966732337,,2.926512451487094,,
,4241.0,1575.0,3968.0,1302.0,2441.0,2842.0,1249.0,,,,0.0918917713419707,-0.475128829977806,0.610646338966216,,3.2573927208770943,,
,4241.0,1570.0,3967.0,1299.0,2433.0,2841.0,1263.0,,,,0.0918918817680037,-0.475188782845743,0.609903153967911,,3.5464621235751266,,
,4243.0,1573.0,3965.0,1298.0,2431.0,2846.0,1264.0,,,,0.091890272486879,-0.47526749779785,0.609355084230438,,3.788903491412515,,
,4240.0,1568.0,3964.0,1297.0,2436.0,2861.0,1267.0,,,,0.0918906659036765,-0.475969231206711,0.60913790341107,,3.9800554207523615,,
,4239.0,1570.0,3964.0,1298.0,2445.0,2851.0,1271.0,,,,0.0918896356919111,-0.47695791296048,0.608344456841545,,4.115636364129458,,
,4239.0,1571.0,3964.0,1298.0,2442.0,2853.0,1270.0,,,,0.0918886973567253,-0.476935353009972,0.607656755441358,,4.192050011141447,,
,4239.0,1569.0,3964.0,1299.0,2443.0,2856.0,1260.0,,,,0.0918876725357341,-0.477376948734357,0.606233066677767,,4.206730378208911,,
,4240.0,1569.0,3963.0,1297.0,2438.0,2870.0,1283.0,,,,0.0918870767356829,-0.477665934299676,0.605856082117012,,4.158475461318542,,
,4236.0,1567.0,3964.0,1298.0,2439.0,2868.0,1294.0,,,,0.0918865464826646,-0.477943614179254,0.605495486229676,,4.0477180281499585,,
,4237.0,1572.0,3962.0,1299.0,2445.0,2865.0,1297.0,,,,0.0918866773593126,-0.477880884748743,0.604771386297002,,3.8766909780623595,,
,4238.0,1572.0,3963.0,1297.0,2437.0,2850.0,1289.0,,,,0.0918862369354597,-0.478046374330072,0.604373337794162,,3.6494602292373224,,
,4240.0,1569.0,3965.0,1296.0,2432.0,2841.0,1284.0,,,,0.0918857884929863,-0.47856726263146,0.604172089941568,,3.3718164964117876,,
,4237.0,1570.0,3963.0,1299.0,2432.0,2824.0,1289.0,,,,0.0918859447496114,-0.47860449086044,0.603786676093763,,3.051034866716031,,
,4238.0,1571.0,3964.0,1297.0,2437.0,2835.0,1276.0,,,,0.0918856838540002,-0.479220656313104,0.602609736494377,,2.6955252225503457,,
,4241.0,1569.0,3964.0,1298.0,2428.0,2851.0,1242.0,,,,0.0918849893200792,-0.479320887033123,0.602905836880157,,2.3144060529273953,,
,4240.0,1569.0,3965.0,1301.0,2430.0,2857.0,1267.0,,,,0.0918839961924907,-0.479502052530389,0.602016703069875,,1.9170386384875509,,
,4238.0,1569.0,3964.0,1297.0,2436.0,2838.0,1304.0,,,,0.0918850874335618,-0.479303978101036,0.603228341790252,,1.5125583295540845,,
,4240.0,1574.0,3966.0,1300.0,2430.0,2841.0,1294.0,,,,0.0918841187783776,-0.479135578055815,0.602754233765954,,1.1094358831859967,,
,4242.0,1571.0,3966.0,1299.0,2439.0,2846.0,1317.0,,,,0.0918849591473378,-0.478925207538547,0.603510218033476,,0.7150963775125999,,
,4241.0,1572.0,3967.0,1300.0,2441.0,2860.0,1311.0,,,,0.0918856838729547,-0.478379890055216,0.605129096844607,,0.33561764612306294,,
,4240.0,1571.0,3967.0,1300.0,2445.0,2856.0,1305.0,,,,0.0918859762905007,-0.478046673959326,0.605138189375757,,-0.02447482238968276,,
,4238.0,1573.0,3967.0,1299.0,2436.0,2851.0,1292.0,,,,0.0918870705028359,-0.477474274822116,0.606793111491034,,-0.36230424666423344,,
,4241.0,1571.0,3967.0,1299.0,2443.0,2847.0,1281.0,,,,0.0918872268976816,-0.476868684034453,0.606629076955224,,-0.676623150284741,,
,4241.0,1572.0,3968.0,1301.0,2454.0,2846.0,1302.0,,,,0.0918886605633751,-0.476578374374725,0.608024256208002,,-0.9676779260819836,,
,4238.0,1572.0,3967.0,1302.0,2452.0,2832.0,1301.0,,,,0.0918893284216469,-0.475718460962272,0.608268260501705,,-1.2369655661658796,,
,4239.0,1570.0,3965.0,1300.0,2435.0,2843.0,1306.0,,,,0.0918900415779201,-0.475079744832861,0.608992470077758,,-1.4869000616329753,,
,4236.0,1570.0,3964.0,1295.0,2435.0,2834.0,1287.0,,,,0.0918907864882242,-0.474781140866521,0.609404201071584,,-1.7204146297629932,,
,4240.0,1571.0,3967.0,1300.0,2435.0,2829.0,1285.0,,,,0.0918911861173993,-0.474754102443796,0.610160797702796,,-1.9405324887431694,,
,4239.0,1571.0,3966.0,1299.0,2443.0,2851.0,1281.0,,,,0.0918916840822288,-0.474957955243075,0.610565831346857,,-2.1499422149407197,,
,4242.0,1571.0,3967.0,1300.0,2439.0,2858.0,1295.0,,,,0.0918915555109547,-0.47494350473811,0.609918075764771,,-2.3506130240458503,,
,4239.0,1568.0,3963.0,1297.0,2440.0,2846.0,1294.0,,,,0.0918908993826895,-0.474882928796123,0.610069058204666,,-2.543480598995296,,
,4240.0,1570.0,3965.0,1300.0,2441.0,2814.0,1273.0,,,,0.0918904224893597,-0.475203556986879,0.609773511898538,,-2.728226289441626,,
,4240.0,1572.0,3967.0,1297.0,2438.0,2834.0,1267.0,,,,0.0918904156367254,-0.475599604077053,0.60836014828097,,-2.9031632294329714,,
,4241.0,1569.0,3967.0,1298.0,2433.0,2844.0,1280.0,,,,0.0918897323641971,-0.47590243252866,0.608234389282462,,-3.065233871185083,,
,4237.0,1568.0,3963.0,1294.0,2437.0,2832.0,1278.0,,,,0.091889534934424,-0.476165127019226,0.607544109035053,,-3.2101159797753014,,
,4240.0,1571.0,3966.0,1297.0,2437.0,2850.0,1305.0,,,,0.0918894786267017,-0.476013219812605,0.607658627203854,,-3.332428872930389,,
,4241.0,1571.0,3968.0,1301.0,2439.0,2830.0,1292.0,,,,0.0918889575860053,-0.476252640073777,0.607257502977705,,-3.4260281850160275,,
,4241.0,1572.0,3969.0,1300.0,2441.0,2840.0,1290.0,,,,0.0918892103514315,-0.476179742881156,0.607618459193053,,-3.4843745717368844,,
,4243.0,1572.0,3966.0,1301.0,2444.0,2861.0,1272.0,,,,0.0918896872150186,-0.476419912611728,0.608413454474123,,-3.5009585873806963,,
,4240.0,1573.0,3968.0,1299.0,2438.0,2855.0,1270.0,,,,0.091889061000802,-0.476376311413726,0.60698231878978,,-3.4697601233641415,,
,4243.0,1573.0,3970.0,1304.0,2437.0,2839.0,1247.0,,,,0.091888049779363,-0.476528068248219,0.606579647537635,,-3.3857164753072966,,
,4243.0,1572.0,3968.0,1301.0,2437.0,2841.0,1240.0,,,,0.0918877377445079,-0.476920629290357,0.605906916980523,,-3.245168852513936,,
,4244.0,1573.0,3971.0,1302.0,2434.0,2860.0,1246.0,,,,0.0918877474654834,-0.477166186051621,0.606200723738062,,-3.0462539086007125,,
,4241.0,1571.0,3968.0,1303.0,2432.0,2869.0,1263.0,,,,0.0918872208108588,-0.47700373277755,0.605876564382619,,-2.7892058496816268,,
,4244.0,1573.0,3970.0,1301.0,2437.0,2876.0,1276.0,,,,0.0918878206540475,-0.477101468428856,0.606199756637832,,-2.476536920411422,,
,4243.0,1574.0,3972.0,1301.0,2432.0,2851.0,1296.0,,,,0.0918879749665543,-0.477388364941546,0.606766450591368,,-2.113070363367664,,
,4246.0,1573.0,3973.0,1304.0,2432.0,2857.0,1302.0,,,,0.0918872601821694,-0.47722919483875,0.606907397945807,,-1.70581086052115,,
,4245.0,1573.0,3972.0,1303.0,2431.0,2850.0,1315.0,,,,0.0918873117972406,-0.476480100387044,0.607538681348144,,-1.263652825298828,,
,4245.0,1574.0,3974.0,1303.0,2433.0,2855.0,1293.0,,,,0.0918882031847141,-0.47622186637362,0.606766698382122,,-0.796944901027625,,
,4247.0,1572.0,3974.0,1305.0,2436.0,2833.0,1271.0,,,,0.0918888291415518,-0.47643196296013,0.607782978978065,,-0.31694626173465845,,
,4245.0,1575.0,3973.0,1307.0,2438.0,2846.0,1271.0,,,,0.0918892918682584,-0.476087312798239,0.607935034598105,,0.1647766479557371,,
,4247.0,1576.0,3975.0,1305.0,2438.0,2854.0,1267.0,,,,0.0918896897988705,-0.47581950337332,0.608122442549327,,0.6369575858068571,,
,4248.0,1576.0,3977.0,1306.0,2441.0,2838.0,1250.0,,,,0.0918899077382488,-0.475274879460225,0.608586624478202,,1.0891870903797738,,
,4246.0,1575.0,3976.0,1304.0,2438.0,2855.0,1257.0,,,,0.0918897379475271,-0.475391412725152,0.60925751149876,,1.5123698806871415,,
,4251.0,1577.0,3979.0,1305.0,2440.0,2867.0,1257.0,,,,0.0918902954541834,-0.475056128306632,0.608845248312303,,1.8990471912691427,,
,4249.0,1578.0,3979.0,1307.0,2443.0,2867.0,1253.0,,,,0.0918901252049496,-0.475024960052552,0.609200997697712,,2.2435645655016456,,
,4249.0,1577.0,3979.0,1307.0,2444.0,2853.0,1271.0,,,,0.0918903855670236,-0.474828037635727,0.608758663900766,,2.542083989817373,,
,4248.0,1577.0,3977.0,1304.0,2436.0,2854.0,1288.0,,,,0.0918898736146463,-0.47466296041958,0.609328634274422,,2.792457147246457,,
,4253.0,1580.0,3980.0,1307.0,2434.0,2855.0,1316.0,,,,0.0918911382209397,-0.474698257499601,0.608989264284996,,2.9939914631269224,,
,4254.0,1579.0,3981.0,1309.0,2434.0,2855.0,1313.0,,,,0.0918903754616603,-0.474794496068898,0.609172177214753,,3.1471503116482884,,
,4253.0,1580.0,3986.0,1308.0,2435.0,2860.0,1291.0,,,,0.0918896334396117,-0.474921263255686,0.609033455028599,,3.2532320214762556,,
,4251.0,1579.0,3981.0,1308.0,2431.0,2852.0,1296.0,,,,0.0918901667942372,-0.475059839597563,0.609068519515086,,3.31406920399187,,
,4255.0,1580.0,3984.0,1309.0,2436.0,2832.0,1300.0,,,,0.0918902145226178,-0.475187269409986,0.608901481249592,,3.3317814306614784,,
,4253.0,1581.0,3984.0,1310.0,2433.0,2838.0,1296.0,,,,0.0918902105347671,-0.475499586880963,0.609722730907748,,3.3086019592388647,,
,4255.0,1581.0,3985.0,1312.0,2437.0,2853.0,1285.0,,,,0.0918897453590218,-0.475606215389225,0.609135228498734,,3.2467851183312204,,
,4257.0,1583.0,3987.0,1311.0,2434.0,2851.0,1272.0,,,,0.091889682148228,-0.475870516638547,0.608643343329859,,3.1485876216890123,,
,4256.0,1580.0,3989.0,1309.0,2441.0,2862.0,1271.0,,,,0.0918894418345103,-0.47562748616403,0.608024013886967,,3.0163068499753045,,
,4257.0,1580.0,3989.0,1310.0,2444.0,2861.0,1263.0,,,,0.0918889937979974,-0.475798197029277,0.607939128399889,,2.852353409793703,,
,4256.0,1580.0,3988.0,1310.0,2448.0,2870.0,1275.0,,,,0.0918887569158548,-0.47620851914916,0.607957497655834,,2.659334264699701,,
,4258.0,1580.0,3988.0,1311.0,2450.0,2886.0,1259.0,,,,0.0918884410926187,-0.475911674765469,0.608158814458911,,2.4401257465591994,,
,4259.0,1582.0,3988.0,1312.0,2448.0,2884.0,1272.0,,,,0.091888016446313,-0.475956395108488,0.607678156415553,,2.1979215465847943,,
,4258.0,1581.0,3988.0,1311.0,2444.0,2869.0,1292.0,,,,0.0918880584670579,-0.475839830435042,0.607232408124145,,1.9362477545154513,,
,4261.0,1582.0,3990.0,1313.0,2432.0,2868.0,1283.0,,,,0.0918883993114159,-0.476176632919811,0.60786745907423,,1.6589435444049174,,
,4256.0,1582.0,3988.0,1312.0,2430.0,2850.0,1285.0,,,,0.0918881541351267,-0.476211744292089,0.608260665134202,,1.3701109179181215,,
,4255.0,1582.0,3989.0,1308.0,2442.0,2828.0,1259.0,,,,0.0918878052149334,-0.476158564357804,0.607857003323475,,1.0740392443666094,,
,4254.0,1579.0,3987.0,1308.0,2432.0,2829.0,1261.0,,,,0.0918883423805568,-0.475783740146329,0.607450719063137,,0.7751100569032274,,
,4255.0,1581.0,3988.0,1308.0,2430.0,2832.0,1295.0,,,,0.0918889865954783,-0.475546879729763,0.607913869493287,,0.4776854086397189,,
,4252.0,1581.0,3990.0,1309.0,2429.0,2855.0,1296.0,,,,0.0918896654639317,-0.475547696673847,0.608246710965734,,0.1859806124413388,,
,4251.0,1580.0,3985.0,1309.0,2431.0,2867.0,1301.0,,,,0.0918883591621662,-0.475196015655886,0.608555561413227,,-0.09607879610470921,,
,4251.0,1575.0,3983.0,1304.0,2438.0,2857.0,1285.0,,,,0.0918897362579923,-0.474628981606004,0.608919443412081,,-0.36501420430915216,,
,4249.0,1577.0,3982.0,1306.0,2432.0,2828.0,1271.0,,,,0.0918898073892515,-0.474548877163814,0.6092119074585,,-0.6179586660985505,,
,4248.0,1575.0,3982.0,1304.0,2429.0,2825.0,1263.0,,,,0.0918907666039158,-0.474803102394145,0.609025881813676,,-0.852816091534896,,
,4247.0,1576.0,3981.0,1302.0,2434.0,2833.0,1255.0,,,,0.091889788635228,-0.474968104974557,0.609046165385449,,-1.0683956229348865,,
,4248.0,1576.0,3982.0,1303.0,2440.0,2842.0,1253.0,,,,0.0918888643927662,-0.475345698583389,0.608130147337467,,-1.2644987309755495,,
,4247.0,1576.0,3979.0,1300.0,2463.0,2854.0,1249.0,,,,0.0918871987322188,-0.47577560912566,0.606920000853411,,-1.4419373947140233,,
,4243.0,1575.0,3980.0,1303.0,2449.0,2843.0,1230.0,,,,0.0918867966513338,-0.476533679735722,0.606334963834991,,-1.6024662826826848,,
,4244.0,1576.0,3979.0,1303.0,2442.0,2852.0,1254.0,,,,0.0918851885962031,-0.477334343446998,0.60481790325334,,-1.7486193125166882,,
,4243.0,1574.0,3976.0,1302.0,2440.0,2852.0,1265.0,,,,0.0918849806968998,-0.47799315003574,0.604125040745808,,-1.8834507964359937,,
2025-06-30 22:42:01,4243.0,1573.0,3976.0,1300.0,2439.0,2843.0,1252.0,,,2025/06/30 10:42:01 PM,0.0918827914341808,-0.478565102005212,0.60381589601005,,-2.0101929948751405,,
,4243.0,1572.0,3980.0,1303.0,2437.0,2855.0,1269.0,,,,0.09188286571773,-0.478483887895532,0.603336994455775,,-2.1318540260276837,,
,4244.0,1573.0,3978.0,1302.0,2433.0,2860.0,1268.0,,,,0.09188229321348,-0.478889447635826,0.602816291797806,,-2.2507908203853413,,
,4245.0,1573.0,3979.0,1300.0,2430.0,2857.0,1267.0,,,,0.0918823281586358,-0.47882635861519,0.603071356549627,,-2.368299252496979,,
,4243.0,1572.0,3977.0,1303.0,2434.0,2881.0,1296.0,,,,0.0918828839343205,-0.478614791622993,0.603124300300542,,-2.484266261591695,,
,4245.0,1573.0,3977.0,1302.0,2434.0,2853.0,1281.0,,,,0.0918825907944096,-0.479037043984441,0.602366676721343,,-2.5969259156625104,,
,4245.0,1573.0,3979.0,1301.0,2434.0,2861.0,1286.0,,,,0.0918819790444899,-0.479173268379834,0.602569536308366,,-2.702753134037855,,
,4244.0,1574.0,3979.0,1302.0,2432.0,2888.0,1264.0,,,,0.0918832372339559,-0.479117218709946,0.602469292592058,,-2.7965163266572794,,
,4244.0,1572.0,3978.0,1301.0,2437.0,2881.0,1281.0,,,,0.0918840737267704,-0.479032114523743,0.603105118475958,,-2.8714953076892957,,
,4245.0,1575.0,3980.0,1300.0,2441.0,2857.0,1284.0,,,,0.0918843847479601,-0.478828368276663,0.603719612904128,,-2.919855190199014,,
,4245.0,1575.0,3982.0,1303.0,2443.0,2858.0,1269.0,,,,0.091884907800932,-0.478012010515206,0.604158226387404,,-2.9331519296010122,,
,4247.0,1578.0,3983.0,1305.0,2440.0,2848.0,1272.0,,,,0.0918850061572393,-0.477772561115234,0.603906131246187,,-2.902932092947471,,
,4248.0,1575.0,3983.0,1305.0,2434.0,2851.0,1288.0,,,,0.0918843826165858,-0.477156253947903,0.604804872331709,,-2.8213797105630225,,
,4245.0,1576.0,3981.0,1303.0,2432.0,2845.0,1271.0,,,,0.0918854673882335,-0.47669169441303,0.606105315073258,,-2.6819578332478615,,
,4249.0,1576.0,3983.0,1307.0,2431.0,2865.0,1268.0,,,,0.0918862836367586,-0.476591454065463,0.606106450934137,,-2.47999219824513,,
,4248.0,1577.0,3983.0,1303.0,2442.0,2874.0,1258.0,,,,0.0918864994071976,-0.476070593322811,0.60617887272641,,-2.213149269175387,,
,4248.0,1575.0,3984.0,1304.0,2442.0,2865.0,1282.0,,,,0.0918869726919613,-0.476087847766405,0.606899649689948,,-1.8817705293792175,,
,4247.0,1577.0,3987.0,1304.0,2442.0,2866.0,1283.0,,,,0.0918873080223194,-0.475273586701292,0.607658415375904,,-1.4890382232358519,,
,4246.0,1573.0,3982.0,1304.0,2432.0,2863.0,1275.0,,,,0.0918880849731289,-0.475616478671099,0.607645371355305,,-1.0409627918483604,,
,4248.0,1575.0,3982.0,1303.0,2428.0,2856.0,1289.0,,,,0.091888171894124,-0.475449098759018,0.607603320066217,,-0.5461967135857323,,
,4247.0,1575.0,3985.0,1304.0,2434.0,2836.0,1271.0,,,,0.0918873187709168,-0.475020286618721,0.607719411969321,,-0.015691685989524445,,
,4245.0,1576.0,3983.0,1304.0,2436.0,2849.0,1273.0,,,,0.0918874261556338,-0.474941968638295,0.607660938345684,,0.5377744466902324,,
,4245.0,1575.0,3986.0,1305.0,2429.0,2857.0,1295.0,,,,0.0918870890017557,-0.475347248639382,0.607430551900758,,1.1001679066212469,,
,4247.0,1575.0,3984.0,1304.0,2431.0,2872.0,1261.0,,,,0.0918872730775915,-0.475475124684477,0.607410307015544,,1.6568294151657992,,
,4246.0,1575.0,3983.0,1304.0,2438.0,2858.0,1256.0,,,,0.0918870254417268,-0.475854715030717,0.606672283258329,,2.1931269861459253,,
,4245.0,1575.0,3985.0,1303.0,2431.0,2851.0,1272.0,,,,0.0918861269760324,-0.476123421412006,0.606584534254621,,2.6950943154458,,
,4244.0,1573.0,3982.0,1304.0,2434.0,2861.0,1259.0,,,,0.0918856602947369,-0.477108983936418,0.605636753665495,,3.15001981207049,,
,4248.0,1575.0,3982.0,1302.0,2439.0,2846.0,1235.0,,,,0.0918844711060264,-0.47711832052373,0.604913304867402,,3.5469531522089657,,
,4245.0,1574.0,3981.0,1304.0,2438.0,2840.0,1253.0,,,,0.0918842419823407,-0.477146174066164,0.60476191495538,,3.877098778876197,,
,4245.0,1576.0,3982.0,1305.0,2435.0,2844.0,1267.0,,,,0.0918850451427628,-0.476992291079737,0.604340208415507,,4.134070771638742,,
,4247.0,1575.0,3985.0,1304.0,2433.0,2850.0,1262.0,,,,0.0918848857389454,-0.477416016923121,0.604700813761783,,4.313992820896672,,
,4246.0,1573.0,3985.0,1303.0,2439.0,2864.0,1246.0,,,,0.0918841253903172,-0.477424120927845,0.603882742278038,,4.4154414383124685,,
,4248.0,1575.0,3986.0,1301.0,2437.0,2864.0,1277.0,,,,0.0918842844237576,-0.476953212622148,0.604151123948058,,4.439248697195394,,
,4248.0,1577.0,3984.0,1306.0,2440.0,2869.0,1272.0,,,,0.091883943607404,-0.478048379154651,0.603977291511365,,4.3881989441840625,,
,4247.0,1577.0,3986.0,1305.0,2436.0,2887.0,1297.0,,,,0.0918844995504551,-0.478048692923545,0.604089467329373,,4.266666974873854,,
,4247.0,1577.0,3984.0,1306.0,2440.0,2868.0,1292.0,,,,0.0918842489843274,-0.477715764601104,0.603084452090725,,4.0802491206048455,,
,4249.0,1577.0,3986.0,1305.0,2435.0,2843.0,1275.0,,,,0.0918846119806642,-0.477631093102516,0.604313116056516,,3.83543241891646,,
,4247.0,1577.0,3987.0,1306.0,2429.0,2853.0,1288.0,,,,0.0918843526113671,-0.476824865846823,0.604877832427514,,3.5393322591177085,,
,4250.0,1579.0,3989.0,1305.0,2428.0,2854.0,1264.0,,,,0.0918847812197763,-0.476662199198547,0.604231788343509,,3.19950913763488,,
,4252.0,1579.0,3990.0,1309.0,2430.0,2851.0,1259.0,,,,0.091884742375879,-0.476655190127106,0.604923159704988,,2.8238548307639455,,
,4246.0,1577.0,3989.0,1307.0,2440.0,2847.0,1279.0,,,,0.0918851269790057,-0.476799499097308,0.604790193235091,,2.4205219557086273,,
,4251.0,1577.0,3988.0,1306.0,2432.0,2845.0,1288.0,,,,0.091885397374106,-0.476652606269026,0.605254834972639,,1.9978623922815375,,
,4249.0,1578.0,3988.0,1307.0,2431.0,2850.0,1270.0,,,,0.0918854385136772,-0.476873724120146,0.604449168355743,,1.5643414342053132,,
,4251.0,1581.0,3994.0,1308.0,2431.0,2854.0,1262.0,,,,0.0918854215034254,-0.477109503113389,0.604786328759262,,1.128405054082224,,
,4254.0,1583.0,3994.0,1309.0,2435.0,2843.0,1243.0,,,,0.0918857130409666,-0.47672549099827,0.605160569221944,,0.6982933941540795,,
,4251.0,1579.0,3990.0,1309.0,2438.0,2862.0,1258.0,,,,0.09188537719174,-0.476820519319372,0.604725005410815,,0.28180892162606086,,
,4253.0,1581.0,3994.0,1310.0,2440.0,2861.0,1268.0,,,,0.0918857185265861,-0.476494339813823,0.605454909395876,,-0.11394178608959113,,
,4255.0,1583.0,3994.0,1309.0,2436.0,2873.0,1283.0,,,,0.0918858822821382,-0.476361791382283,0.60563504023674,,-0.48280889100264684,,
,4257.0,1582.0,3999.0,1312.0,2442.0,2869.0,1282.0,,,,0.0918863618626959,-0.476366866274401,0.605783506922741,,-0.8198381143801523,,
,4254.0,1580.0,3996.0,1310.0,2430.0,2861.0,1287.0,,,,0.0918865130320099,-0.475920040385975,0.606015245422476,,-1.12146358751119,,
,4255.0,1581.0,3994.0,1310.0,2443.0,2858.0,1272.0,,,,0.0918863614254667,-0.476094308981316,0.606034696647472,,-1.3856326318990706,,
,4256.0,1581.0,3997.0,1313.0,2436.0,2856.0,1263.0,,,,0.0918861580227065,-0.476286243260291,0.606211421318508,,-1.611844281980559,,
,4254.0,1583.0,3997.0,1311.0,2426.0,2832.0,1260.0,,,,0.0918859739679041,-0.476418609018896,0.605664266567557,,-1.8010904479168401,,
,4259.0,1585.0,4001.0,1314.0,2427.0,2827.0,1246.0,,,,0.0918856994409154,-0.476456183669178,0.605840082651948,,-1.9556987429403117,,
,4260.0,1583.0,3997.0,1310.0,2432.0,2842.0,1257.0,,,,0.0918856368355562,-0.476298825958925,0.604779947934371,,-2.079087356907075,,
,4261.0,1585.0,4000.0,1313.0,2448.0,2848.0,1273.0,,,,0.0918852668400839,-0.476643310160155,0.605304591767592,,-2.1754521699741898,,
,4261.0,1584.0,4002.0,1315.0,2451.0,2855.0,1275.0,,,,0.0918854147128765,-0.477115062304261,0.605486304943187,,-2.2494122485357764,,
,4262.0,1585.0,4001.0,1314.0,2447.0,2856.0,1278.0,,,,0.0918849047232307,-0.47724320221729,0.604355758938837,,-2.30564125349272,,
,4261.0,1584.0,4001.0,1314.0,2445.0,2868.0,1292.0,,,,0.0918850327840727,-0.477301938265744,0.604928902099807,,-2.34851019711523,,
,4261.0,1585.0,4004.0,1315.0,2449.0,2865.0,1268.0,,,,0.0918846792081067,-0.477322651096963,0.604251583029088,,-2.381763345302099,,
,4264.0,1588.0,4006.0,1317.0,2449.0,2857.0,1283.0,,,,0.0918852756072156,-0.477274523905055,0.604480870037984,,-2.4082455259446287,,
,4264.0,1587.0,4007.0,1317.0,2444.0,2831.0,1247.0,,,,0.0918848605735167,-0.477634059326047,0.604220411706697,,-2.4296964930710665,,
,4263.0,1586.0,4007.0,1315.0,2436.0,2833.0,1242.0,,,,0.0918846949192341,-0.477978513941389,0.603670385684198,,-2.4466262457268666,,
,4263.0,1585.0,4009.0,1315.0,2433.0,2842.0,1279.0,,,,0.0918854186815507,-0.478041445785142,0.604073779154996,,-2.45828339804902,,
,4264.0,1587.0,4006.0,1318.0,2442.0,2851.0,1259.0,,,,0.0918843854621634,-0.477774121221528,0.603651427438074,,-2.4627254635009783,,
,4264.0,1588.0,4006.0,1318.0,2427.0,2832.0,1282.0,,,,0.091885018035177,-0.477758215920574,0.60363278053722,,-2.456994258827534,,
,4262.0,1588.0,4007.0,1315.0,2428.0,2842.0,1280.0,,,,0.0918846827822762,-0.477963963581536,0.603834005696848,,-2.4373915604214806,,
,4263.0,1584.0,4008.0,1314.0,2428.0,2853.0,1273.0,,,,0.0918858934760249,-0.477462901308137,0.604145982456427,,-2.399840443254407,,
,4263.0,1585.0,4006.0,1314.0,2429.0,2861.0,1286.0,,,,0.0918859446164929,-0.477426577895262,0.604397866993146,,-2.340307392826856,,
,4262.0,1585.0,4006.0,1312.0,2424.0,2866.0,1274.0,,,,0.0918861859798462,-0.47709463167638,0.604663212209004,,-2.255250406161099,,
,4260.0,1587.0,4005.0,1314.0,2435.0,2868.0,1289.0,,,,0.0918860804059987,-0.477327214431657,0.60484263770301,,-2.142050401641682,,
,4260.0,1585.0,4003.0,1311.0,2434.0,2865.0,1292.0,,,,0.0918859314018541,-0.477215787601633,0.604476418620144,,-1.9993792488198834,,
,4258.0,1578.0,3999.0,1310.0,2437.0,2853.0,1285.0,,,,0.0918846973870246,-0.477390327550579,0.604331642063164,,-1.8274594098169785,,
,4255.0,1580.0,3999.0,1309.0,2435.0,2865.0,1275.0,,,,0.0918848123670142,-0.477561425826261,0.603668883104868,,-1.6281787028632264,,
,4257.0,1582.0,3999.0,1309.0,2440.0,2861.0,1283.0,,,,0.0918831055933602,-0.478588169605923,0.601997090857346,,-1.4050390869901506,,
,4257.0,1579.0,4000.0,1311.0,2441.0,2848.0,1289.0,,,,0.0918811728514545,-0.479230480666894,0.60193680399653,,-1.1629389828580814,,
,4253.0,1579.0,3998.0,1308.0,2457.0,2877.0,1268.0,,,,0.0918796081120895,-0.480148214040284,0.600187266117132,,-0.9078110043154671,,
,4253.0,1579.0,3998.0,1308.0,2449.0,2879.0,1246.0,,,,0.0918795831457606,-0.480393832762124,0.598921934517423,,-0.6461566676876896,,
,4251.0,1578.0,3997.0,1307.0,2448.0,2852.0,1239.0,,,,0.0918777832097393,-0.480731209242045,0.598313933260901,,-0.3845329119611606,,
,4253.0,1582.0,3999.0,1307.0,2448.0,2837.0,1232.0,,,,0.0918774134215582,-0.481107582367926,0.597824256835218,,-0.12905003661412434,,
,4254.0,1577.0,3995.0,1308.0,2445.0,2836.0,1257.0,,,,0.0918774460932904,-0.480809142163925,0.597710343278304,,0.11506335344007239,,
,4253.0,1579.0,3994.0,1307.0,2440.0,2861.0,1269.0,,,,0.0918781161237293,-0.48089943890199,0.597736228706984,,0.3437844240882477,,
,4252.0,1579.0,3997.0,1308.0,2438.0,2858.0,1270.0,,,,0.0918781072849127,-0.481086265190359,0.598065960922512,,0.554481946351459,,
,4254.0,1580.0,3996.0,1306.0,2435.0,2857.0,1287.0,,,,0.0918788111901654,-0.480950059695546,0.598314250529684,,0.7459549999645084,,
,4255.0,1581.0,3998.0,1310.0,2435.0,2843.0,1278.0,,,,0.0918782177685086,-0.480861451271625,0.598281574321771,,0.9183323678843793,,
,4253.0,1579.0,3998.0,1310.0,2429.0,2836.0,1276.0,,,,0.0918785117411939,-0.480551821196679,0.598226817663982,,1.0728533485449172,,
,4252.0,1578.0,3998.0,1307.0,2436.0,2833.0,1284.0,,,,0.091879364947088,-0.480425105499777,0.598505582199529,,1.2115591273834148,,
,4258.0,1583.0,3997.0,1306.0,2434.0,2840.0,1270.0,,,,0.091879798787882,-0.47977383247842,0.599038091587177,,1.3369280314424132,,
,4257.0,1580.0,3998.0,1311.0,2433.0,2847.0,1264.0,,,,0.0918801966784207,-0.479140839459155,0.600648106830725,,1.4514886926746844,,
,4255.0,1579.0,4000.0,1311.0,2442.0,2842.0,1294.0,,,,0.0918816388680037,-0.478953187791717,0.600988025575631,,1.5574434678111193,,
,4255.0,1579.0,3998.0,1309.0,2444.0,2842.0,1278.0,,,,0.0918809601150375,-0.478673028111807,0.602019065727386,,1.6563315305307014,,
,4256.0,1579.0,4002.0,1310.0,2436.0,2847.0,1303.0,,,,0.0918818087300818,-0.478417662297783,0.602600316269421,,1.748757531724553,,
,4257.0,1581.0,4001.0,1313.0,2431.0,2834.0,1299.0,,,,0.0918817187971278,-0.478448082997189,0.602803664169035,,1.8342077456342778,,
,4259.0,1583.0,4002.0,1313.0,2431.0,2826.0,1298.0,,,,0.0918831975174489,-0.477944231868408,0.603352837987357,,1.9109710750667805,,
,4258.0,1581.0,4004.0,1311.0,2432.0,2844.0,1266.0,,,,0.0918826435860491,-0.477560236038918,0.603694917594195,,1.9761769003695788,,
,4259.0,1580.0,4004.0,1312.0,2441.0,2863.0,1278.0,,,,0.091883836906426,-0.47770707168448,0.603861158333966,,2.0259549137310144,,
,4258.0,1583.0,4005.0,1311.0,2434.0,2856.0,1256.0,,,,0.0918830527383625,-0.47716214763108,0.604285016801845,,2.0557131167296214,,
,4259.0,1585.0,4007.0,1314.0,2432.0,2855.0,1276.0,,,,0.0918840522732077,-0.477397517435765,0.603190777325788,,2.0605190992483076,,
,4260.0,1581.0,4006.0,1313.0,2424.0,2846.0,1275.0,,,,0.0918839493809384,-0.477298648787518,0.603560730095704,,2.0355575847452863,,
,4259.0,1581.0,4005.0,1310.0,2430.0,2842.0,1289.0,,,,0.0918831577518015,-0.477669381615778,0.603585428103997,,1.976625601969073,,
,4261.0,1583.0,4007.0,1313.0,2437.0,2832.0,1284.0,,,,0.091883697504253,-0.47782289401811,0.604099155981074,,1.8806172831984869,,
,4261.0,1582.0,4008.0,1312.0,2441.0,2840.0,1266.0,,,,0.0918830874383846,-0.477919026082839,0.603284689781649,,1.7459451765901415,,
,4262.0,1581.0,4009.0,1310.0,2439.0,2833.0,1277.0,,,,0.0918823298682629,-0.478277032134639,0.60308735969228,,1.572846097801105,,
,4261.0,1582.0,4006.0,1312.0,2449.0,2844.0,1290.0,,,,0.0918820333240962,-0.47871493435739,0.602367521052108,,1.363528156122553,,
