TimeLabel,MEAS1_PPG1,MEAS1_PPG2,MEAS1_PPG3,MEAS1_PPG4,ACCX,ACCY,ACCZ,HR_timestamp,HR_value,radar_timestamp,phase_rx0,phase_rx1,phase_rx2,timestep,n_process,original_rate,calculated_rate
2025-07-15 18:10:13,6419.0,706.0,5428.0,564.0,16.0,2631.0,2932.0,2025-07-15 18:10:13,77.0,2025/07/15 06:10:13 PM,-1.72273686630622,-3.03213227535493,-2.00111996733842,2025/07/15 06:10:13 PM,2.33323262811714,21.52080345153809,21.043512134490417
,6414.0,707.0,5421.0,564.0,22.0,2622.0,2929.0,2025-07-15 18:10:14,77.0,,-1.722873438618,-3.03210492322055,-2.00055313746115,2025/07/15 06:10:23 PM,1.8136280700112402,21.08222007751465,22.46825396825396
,6405.0,705.0,5418.0,563.0,28.0,2656.0,2958.0,2025-07-15 18:10:15,77.0,,-1.72247091157542,-3.03206391879161,-2.00113762139493,2025/07/15 06:10:33 PM,1.283869584818833,21.489971160888672,21.952861952861962
,6403.0,704.0,5413.0,564.0,18.0,2661.0,2949.0,2025-07-15 18:10:16,77.0,,-1.72199854072783,-3.03215624314389,-2.00152996809245,2025/07/15 06:10:43 PM,0.7590517098384133,21.7548942565918,21.089950707409315
,6401.0,705.0,5411.0,562.0,1.0,2657.0,2943.0,2025-07-15 18:10:17,77.0,,-1.72210941431523,-3.03210292123385,-2.00054777757975,2025/07/15 06:10:53 PM,0.25349381031977564,22.177419662475582,20.486700622524065
,6399.0,704.0,5404.0,563.0,5.0,2666.0,2944.0,2025-07-15 18:10:18,77.0,,-1.72176966943721,-3.03215339429914,-2.00113957769589,2025/07/15 06:11:03 PM,-0.2199745048760597,21.171487808227536,21.068847867503614
,6397.0,703.0,5404.0,564.0,0.0,2662.0,2958.0,2025-07-15 18:10:19,77.0,,-1.72279021608976,-3.03210438775037,-2.00030783468957,2025/07/15 06:11:13 PM,-0.6506566381235324,21.159875869750977,20.956937799043075
,6393.0,703.0,5400.0,563.0,6.0,2663.0,2919.0,2025-07-15 18:10:20,77.0,,-1.7229182608967,-3.03209217434466,-2.00047175327635,2025/07/15 06:11:23 PM,-1.0305109341393255,20.920503616333008,18.608319420950014
,6393.0,704.0,5401.0,564.0,4.0,2678.0,2944.0,2025-07-15 18:10:21,77.0,,-1.72224271214424,-3.03211571473721,-2.00085510393096,2025/07/15 06:11:33 PM,-1.3545062264833094,19.970415115356445,21.715144092770494
,6393.0,705.0,5402.0,564.0,29.0,2668.0,2974.0,2025-07-15 18:10:22,76.0,,-1.7216985153313,-3.03211047722952,-2.0005365107294,2025/07/15 06:11:43 PM,-1.620776059290493,20.49180221557617,20.132297958009776
,6390.0,704.0,5398.0,565.0,33.0,2665.0,2967.0,2025-07-15 18:10:23,76.0,,-1.72127554154935,-3.03209957248426,-2.00083164405687,2025/07/15 06:11:53 PM,-1.8305526790532058,20.134227752685547,19.9034129038443
,6387.0,703.0,5397.0,562.0,21.0,2642.0,2957.0,2025-07-15 18:10:24,76.0,,-1.72194289286519,-3.03218433308823,-2.00032965594308,2025/07/15 06:12:03 PM,-1.987882564655087,21.044427871704105,19.788650969355302
,6385.0,702.0,5394.0,563.0,23.0,2623.0,2941.0,2025-07-15 18:10:25,76.0,,-1.72042669347516,-3.03203075649018,-2.00043182887621,2025/07/15 06:12:13 PM,-2.0991472471255324,20.066888809204105,18.79243563454089
,6387.0,704.0,5398.0,563.0,21.0,2636.0,2945.0,2025-07-15 18:10:26,76.0,,-1.72255277373728,-3.03208418419586,-2.00047639182098,2025/07/15 06:12:23 PM,-2.172432515164522,19.203413009643555,21.186822856514326
,6388.0,706.0,5393.0,564.0,25.0,2647.0,2946.0,2025-07-15 18:10:27,76.0,,-1.72150760617096,-3.03213564967306,-2.00105197245147,2025/07/15 06:12:33 PM,-2.2168028586908326,19.838354110717773,20.75303200530062
,6383.0,699.0,5391.0,562.0,28.0,2641.0,2960.0,2025-07-15 18:10:28,76.0,,-1.72102940375675,-3.03212087021718,-2.00008216612713,2025/07/15 06:12:43 PM,-2.241544874825336,20.38043594360352,20.25586353944558
,6389.0,705.0,5394.0,564.0,24.0,2640.0,2962.0,2025-07-15 18:10:29,76.0,,-1.7219977792116,-3.03216406445462,-2.00097134703681,2025/07/15 06:12:53 PM,-2.25544343232814,20.61855697631836,21.448382126348246
,6385.0,700.0,5392.0,561.0,31.0,2664.0,2961.0,2025-07-15 18:10:30,76.0,,-1.72154162621945,-3.03207539722053,-2.00073538729019,2025/07/15 06:13:03 PM,-2.266148558613989,21.276596069335938,21.064814814814824
,6386.0,701.0,5391.0,564.0,37.0,2660.0,2949.0,2025-07-15 18:10:31,75.0,,-1.72093423998358,-3.03209640552141,-2.00033162047472,,-2.2796804892747216,,
,6386.0,700.0,5391.0,563.0,23.0,2645.0,2960.0,2025-07-15 18:10:32,75.0,,-1.72152490439385,-3.03210978520268,-2.0011226560351,,-2.3001062350218033,,
,6388.0,700.0,5391.0,565.0,39.0,2629.0,2951.0,2025-07-15 18:10:33,75.0,,-1.72060243627938,-3.0321325072832,-2.00047525757193,,-2.329404269251721,,
,6388.0,698.0,5394.0,563.0,35.0,2653.0,2972.0,2025-07-15 18:10:34,76.0,,-1.72072381497035,-3.03214796680652,-2.0003314872571,,-2.3675154090946258,,
,6388.0,700.0,5395.0,565.0,25.0,2662.0,2979.0,2025-07-15 18:10:35,76.0,,-1.72162122807409,-3.0321081755523,-2.00089422309654,,-2.4125590282173173,,
,6387.0,701.0,5396.0,563.0,5.0,2669.0,2950.0,2025-07-15 18:10:36,77.0,,-1.72158002839324,-3.03218730759114,-2.00101446661516,,-2.4611766884592203,,
,6386.0,702.0,5393.0,562.0,3.0,2680.0,2913.0,2025-07-15 18:10:37,77.0,,-1.72063414330855,-3.03216447345967,-2.00093462325674,,-2.508953224819114,,
,6387.0,702.0,5392.0,563.0,6.0,2642.0,2960.0,2025-07-15 18:10:38,78.0,,-1.72098123924315,-3.03215395911338,-2.00025979579574,,-2.5508611798892074,,
,6388.0,700.0,5393.0,562.0,27.0,2627.0,2968.0,2025-07-15 18:10:39,79.0,,-1.72038670763614,-3.03207082879652,-2.00079734269397,,-2.581679336116685,,
,6389.0,706.0,5395.0,564.0,23.0,2636.0,2957.0,2025-07-15 18:10:40,79.0,,-1.71979016142764,-3.03216661240446,-2.00061081993056,,-2.5963482400988513,,
,6387.0,702.0,5395.0,564.0,28.0,2642.0,2943.0,2025-07-15 18:10:41,79.0,,-1.71980821809741,-3.03209368117393,-2.00032997832531,,-2.590241339021087,,
,6386.0,701.0,5393.0,562.0,30.0,2648.0,2918.0,2025-07-15 18:10:42,78.0,,-1.72046456888944,-3.03220378107302,-2.00081413914382,,-2.5593457815530885,,
,6385.0,701.0,5391.0,563.0,24.0,2647.0,2944.0,2025-07-15 18:10:43,77.0,,-1.72029812445317,-3.03202847902909,-2.00048751074327,,-2.500359475110621,,
,6384.0,703.0,5392.0,564.0,25.0,2652.0,2941.0,2025-07-15 18:10:44,77.0,,-1.7200015278158,-3.03210039355554,-2.00092113763755,,-2.410719578453451,,
,6382.0,700.0,5390.0,564.0,35.0,2645.0,2964.0,2025-07-15 18:10:45,77.0,,-1.72028976220321,-3.03212193340192,-2.000480325342,,-2.2885823129391096,,
,6384.0,698.0,5389.0,563.0,40.0,2656.0,2943.0,2025-07-15 18:10:46,77.0,,-1.71935583881023,-3.03219741555963,-2.00026930693905,,-2.1327755575537273,,
,6385.0,702.0,5389.0,562.0,43.0,2645.0,2917.0,2025-07-15 18:10:47,77.0,,-1.72096705401534,-3.03204703684859,-2.0004286402632,,-1.942745122957502,,
,6384.0,700.0,5389.0,565.0,30.0,2639.0,2924.0,2025-07-15 18:10:48,78.0,,-1.72125204969718,-3.03208543022533,-2.0016045939198,,-1.7185134329661365,,
,6382.0,702.0,5385.0,562.0,20.0,2643.0,2928.0,2025-07-15 18:10:49,78.0,,-1.72172091642982,-3.0320658545564,-2.00094287207355,,-1.4606653660557654,,
,6385.0,701.0,5391.0,563.0,30.0,2668.0,2940.0,2025-07-15 18:10:50,78.0,,-1.7231579587837,-3.03205038804991,-2.0005867867228,,-1.17036964032932,,
,6384.0,699.0,5387.0,563.0,44.0,2645.0,2938.0,2025-07-15 18:10:51,79.0,,-1.72361919229308,-3.03216203876327,-2.00138635013533,,-0.8494353728941344,,
,6384.0,699.0,5389.0,564.0,32.0,2646.0,2925.0,2025-07-15 18:10:52,79.0,,-1.72451097144495,-3.03214959386701,-2.00136361499158,,-0.5003937438198401,,
,6383.0,700.0,5386.0,564.0,17.0,2636.0,2940.0,2025-07-15 18:10:53,79.0,,-1.72491438790589,-3.03213161904445,-2.00115625918404,,-0.12658678305175441,,
,6384.0,699.0,5390.0,563.0,32.0,2645.0,2933.0,2025-07-15 18:10:54,79.0,,-1.72554106796851,-3.03221007653717,-2.00164779581683,,0.2677581828355321,,
,6385.0,701.0,5388.0,562.0,32.0,2657.0,2927.0,2025-07-15 18:10:55,79.0,,-1.72617590481249,-3.03217053133634,-2.00188771637515,,0.6774881344682213,,
,6388.0,701.0,5392.0,564.0,29.0,2641.0,2923.0,2025-07-15 18:10:56,79.0,,-1.72611191847989,-3.03218844824146,-2.001449097011,,1.0965322394170458,,
,6385.0,700.0,5389.0,560.0,36.0,2651.0,2931.0,2025-07-15 18:10:57,79.0,,-1.72715142726137,-3.0322590063703,-2.00256384792656,,1.5179655771670324,,
,6389.0,700.0,5393.0,565.0,38.0,2663.0,2935.0,2025-07-15 18:10:58,79.0,,-1.72697780971555,-3.03220175230257,-2.00207349748908,,1.9341303716964497,,
,6390.0,702.0,5394.0,564.0,26.0,2672.0,2925.0,2025-07-15 18:10:59,80.0,,-1.72703746400791,-3.03228038595192,-2.00282282746731,,2.3368117837864526,,
,6394.0,704.0,5400.0,567.0,29.0,2652.0,2920.0,2025-07-15 18:11:00,80.0,,-1.72641310554726,-3.0322042791252,-2.00189272083286,,2.717461604421682,,
,6391.0,704.0,5395.0,565.0,26.0,2655.0,2922.0,2025-07-15 18:11:01,80.0,,-1.72674206891692,-3.03227494991956,-2.00262501681559,,3.0674598256901913,,
,6392.0,697.0,5397.0,566.0,24.0,2664.0,2951.0,2025-07-15 18:11:02,80.0,,-1.72692178788233,-3.03219321570193,-2.00240806551357,,3.378400855892699,,
,6397.0,701.0,5402.0,566.0,30.0,2686.0,2954.0,2025-07-15 18:11:03,80.0,,-1.7268044875157,-3.03223345243684,-2.00149886132888,,3.642388497544357,,
,6399.0,702.0,5404.0,569.0,35.0,2654.0,2939.0,2025-07-15 18:11:04,80.0,,-1.72626283926006,-3.0322038030881,-2.00197255566821,,3.8523227257425705,,
,6401.0,701.0,5403.0,566.0,27.0,2656.0,2932.0,2025-07-15 18:11:05,79.0,,-1.7264969085184,-3.03221868848917,-2.00209424699636,,4.002162967807647,,
,6399.0,701.0,5403.0,567.0,29.0,2653.0,2920.0,2025-07-15 18:11:06,79.0,,-1.7272094475067,-3.03223587437797,-2.00202652860038,,4.087157455961688,,
,6402.0,703.0,5405.0,567.0,21.0,2658.0,2914.0,2025-07-15 18:11:07,79.0,,-1.72571686265143,-3.03222669541269,-2.00117453377661,,4.1040351546066365,,
,6404.0,703.0,5410.0,567.0,13.0,2661.0,2945.0,2025-07-15 18:11:08,78.0,,-1.72646544503571,-3.03218488004678,-2.00197721178532,,4.051162855705692,,
,6409.0,705.0,5415.0,571.0,13.0,2665.0,2934.0,2025-07-15 18:11:09,78.0,,-1.72630346673015,-3.0322906055692,-2.00150234377891,,3.928671903027424,,
,6408.0,703.0,5412.0,568.0,12.0,2670.0,2959.0,2025-07-15 18:11:10,78.0,,-1.72566375723083,-3.03222167351923,-2.00159887469434,,3.738555011558764,,
,6412.0,702.0,5414.0,568.0,32.0,2682.0,2945.0,2025-07-15 18:11:11,77.0,,-1.72556078027277,-3.0321827674567,-2.00207458299762,,3.4847253182979108,,
,6414.0,705.0,5417.0,567.0,31.0,2655.0,2955.0,2025-07-15 18:11:12,77.0,,-1.72549250912826,-3.03221807801992,-2.00192185101767,,3.173021027908564,,
,6414.0,705.0,5419.0,571.0,22.0,2644.0,2965.0,2025-07-15 18:11:13,76.0,,-1.72440233511516,-3.03223868691891,-2.00132503312318,,2.8111338415627958,,
,6416.0,703.0,5419.0,569.0,20.0,2649.0,2951.0,2025-07-15 18:11:14,76.0,,-1.72448098205111,-3.03221639347584,-2.00203449963865,,2.408440145472582,,
,6419.0,703.0,5419.0,569.0,15.0,2648.0,2948.0,2025-07-15 18:11:15,76.0,,-1.7235600974808,-3.03218572788093,-2.00108515396589,,1.9757208326709952,,
,6421.0,706.0,5424.0,571.0,29.0,2639.0,2968.0,2025-07-15 18:11:16,77.0,,-1.72392449400461,-3.0322621391116,-2.00181569435959,,1.524767024422285,,
,6423.0,705.0,5427.0,572.0,28.0,2640.0,2960.0,2025-07-15 18:11:17,77.0,,-1.72340523867007,-3.03217309903527,-2.00184003278817,,1.0678824104299938,,
,6424.0,704.0,5425.0,571.0,31.0,2652.0,2929.0,2025-07-15 18:11:18,77.0,,-1.72258281028187,-3.03224024545427,-2.00230276796101,,0.6173062030547961,,
,6425.0,703.0,5424.0,570.0,30.0,2659.0,2943.0,2025-07-15 18:11:19,77.0,,-1.72367277636127,-3.03222491099412,-2.00237163800247,,0.18459241122615233,,
,6429.0,706.0,5430.0,570.0,15.0,2669.0,2951.0,2025-07-15 18:11:20,77.0,,-1.72212950217856,-3.03222315644989,-2.00087925560748,,-0.2200093707893742,,
,6431.0,705.0,5432.0,572.0,20.0,2681.0,2950.0,2025-07-15 18:11:21,77.0,,-1.72113383542707,-3.03223026308881,-2.00190932869618,,-0.5881198305442046,,
,6431.0,705.0,5434.0,571.0,14.0,2670.0,2931.0,2025-07-15 18:11:22,77.0,,-1.72144635030503,-3.03226996505261,-2.00118925180944,,-0.9136881466929316,,
,6431.0,706.0,5435.0,573.0,20.0,2674.0,2917.0,2025-07-15 18:11:23,77.0,,-1.72305666362434,-3.03215120016146,-2.00170222456006,,-1.1932918364264435,,
,6435.0,706.0,5438.0,569.0,4.0,2662.0,2944.0,2025-07-15 18:11:24,77.0,,-1.72152146656549,-3.03219781749392,-2.00219883499648,,-1.4262388253531957,,
,6439.0,709.0,5443.0,574.0,3.0,2652.0,2946.0,2025-07-15 18:11:25,76.0,,-1.72421441302973,-3.03215805232864,-2.00163932914979,,-1.6144510477301308,,
,6437.0,707.0,5441.0,574.0,10.0,2651.0,2942.0,2025-07-15 18:11:26,76.0,,-1.7226647142656,-3.03222798842759,-2.00117023914608,,-1.7621323407090634,,
,6439.0,706.0,5442.0,574.0,15.0,2634.0,2959.0,2025-07-15 18:11:27,76.0,,-1.72250426705127,-3.0321962911934,-2.00140649894877,,-1.8752473543640071,,
,6442.0,709.0,5445.0,574.0,23.0,2650.0,2978.0,2025-07-15 18:11:28,76.0,,-1.72358311685594,-3.03218731437789,-2.00176724910658,,-1.960858673074569,,
,6446.0,707.0,5450.0,575.0,15.0,2651.0,2958.0,2025-07-15 18:11:29,77.0,,-1.72193048229608,-3.03223518002035,-2.00178586149675,,-2.026383807987859,,
,6448.0,710.0,5451.0,574.0,14.0,2669.0,2952.0,2025-07-15 18:11:30,77.0,,-1.72351132296886,-3.03217294791482,-2.0019343480673,,-2.0788411946978274,,
,6450.0,707.0,5451.0,575.0,34.0,2648.0,2954.0,2025-07-15 18:11:31,77.0,,-1.72234111207663,-3.03220765885027,-2.00197647821287,,-2.124154854678167,,
,6454.0,711.0,5457.0,578.0,30.0,2679.0,2968.0,2025-07-15 18:11:32,77.0,,-1.72356899722449,-3.0322501467078,-2.0025268748783,,-2.166581529582496,,
,6453.0,707.0,5455.0,576.0,41.0,2685.0,2955.0,2025-07-15 18:11:33,76.0,,-1.72228119001102,-3.03225054306116,-2.00224937286886,,-2.2083126445691383,,
,6452.0,709.0,5455.0,578.0,39.0,2694.0,2956.0,2025-07-15 18:11:34,76.0,,-1.72276843340492,-3.03220236301747,-2.00208911766973,,-2.2492871263849934,,
,6457.0,705.0,5457.0,575.0,23.0,2671.0,2937.0,2025-07-15 18:11:35,76.0,,-1.72236712141463,-3.03210138023039,-2.00201128815152,,-2.287230662935796,,
,6458.0,710.0,5459.0,577.0,15.0,2655.0,2942.0,2025-07-15 18:11:36,76.0,,-1.72403100446478,-3.03221040106872,-2.00212471647815,,-2.3179137468720588,,
,6461.0,710.0,5463.0,579.0,14.0,2665.0,2930.0,2025-07-15 18:11:37,76.0,,-1.72292616726814,-3.03221035463542,-2.00104851755022,,-2.335597206399261,,
,6461.0,713.0,5464.0,579.0,26.0,2670.0,2927.0,2025-07-15 18:11:38,77.0,,-1.72296934656519,-3.03226367931855,-2.00228973443871,,-2.333613548837908,,
,6459.0,709.0,5457.0,576.0,28.0,2655.0,2934.0,2025-07-15 18:11:39,77.0,,-1.72327364580965,-3.03222375992026,-2.00120231971722,,-2.3050193660947054,,
,6458.0,710.0,5459.0,575.0,29.0,2663.0,2932.0,2025-07-15 18:11:40,77.0,,-1.72182611467085,-3.03222089552811,-2.00209720052569,,-2.2432508677994005,,
,6453.0,712.0,5460.0,574.0,23.0,2640.0,2938.0,2025-07-15 18:11:41,76.0,,-1.72216857209912,-3.03221026389583,-2.00205818977148,,-2.1427210510173413,,
,6450.0,708.0,5449.0,569.0,22.0,2661.0,2924.0,2025-07-15 18:11:42,76.0,,-1.72233612219133,-3.03231617387895,-2.00181449483344,,-1.9993103913080184,,
,6442.0,707.0,5445.0,569.0,20.0,2648.0,2929.0,2025-07-15 18:11:43,76.0,,-1.72217339173502,-3.03220091621629,-2.00106507785332,,-1.8107199039571769,,
,6436.0,705.0,5439.0,569.0,9.0,2620.0,2938.0,2025-07-15 18:11:44,75.0,,-1.72424825845715,-3.03217693468079,-2.00182481214482,,-1.5766733653358034,,
,6430.0,708.0,5431.0,567.0,11.0,2628.0,2944.0,2025-07-15 18:11:45,75.0,,-1.72230480982953,-3.03220738790942,-2.00159049175911,,-1.298972624913146,,
,6423.0,705.0,5426.0,565.0,16.0,2648.0,2949.0,2025-07-15 18:11:46,75.0,,-1.72322228892909,-3.03220285787796,-2.00161099536251,,-0.9814247149966073,,
,6418.0,703.0,5419.0,567.0,17.0,2654.0,2952.0,2025-07-15 18:11:47,75.0,,-1.72309471496124,-3.03216936213019,-2.00184702395784,,-0.6296701915215391,,
,6410.0,701.0,5409.0,562.0,22.0,2633.0,2944.0,2025-07-15 18:11:48,75.0,,-1.72296437701782,-3.03222912965848,-2.00168872143596,,-0.25094727232745684,,
,6410.0,704.0,5408.0,563.0,11.0,2663.0,2945.0,2025-07-15 18:11:49,75.0,,-1.72261902913258,-3.03222601294732,-2.0017387771596,,0.14617503501959006,,
,6401.0,701.0,5403.0,564.0,16.0,2679.0,2945.0,2025-07-15 18:11:50,76.0,,-1.72126917827243,-3.03212268397818,-2.00124385797828,,0.55206942911911,,
,6399.0,699.0,5396.0,561.0,30.0,2676.0,2931.0,2025-07-15 18:11:51,76.0,,-1.72234039146678,-3.03217656065499,-2.00169179493824,,0.9563159608767017,,
,6394.0,700.0,5392.0,561.0,19.0,2655.0,2920.0,2025-07-15 18:11:52,76.0,,-1.72300683864869,-3.03220289140204,-2.0011972812186,,1.3479635936937222,,
,6395.0,699.0,5390.0,563.0,23.0,2661.0,2943.0,2025-07-15 18:11:53,76.0,,-1.72325690541559,-3.03222096887359,-2.00132580779446,,1.7158038432840965,,
,6392.0,702.0,5388.0,563.0,23.0,2658.0,2936.0,2025-07-15 18:11:54,75.0,,-1.72334860802526,-3.0322475532139,-2.00152359782194,,2.048679643080169,,
,6389.0,700.0,5386.0,563.0,29.0,2661.0,2939.0,2025-07-15 18:11:55,75.0,,-1.7234939097723,-3.03217133723433,-2.0007640227031,,2.3358500360511085,,
,6385.0,696.0,5383.0,558.0,22.0,2674.0,2938.0,2025-07-15 18:11:56,75.0,,-1.72226660285249,-3.03215668674961,-2.00151597659596,,2.5674193324554353,,
,6388.0,700.0,5385.0,561.0,15.0,2677.0,2950.0,2025-07-15 18:11:57,74.0,,-1.72275148976088,-3.03222922919087,-2.0010812167362,,2.73482134660677,,
,6388.0,700.0,5384.0,561.0,21.0,2645.0,2954.0,2025-07-15 18:11:58,74.0,,-1.72177000276577,-3.03218170593048,-2.0014412645786,,2.8313300900146734,,
,6388.0,698.0,5381.0,563.0,27.0,2629.0,2952.0,2025-07-15 18:11:59,74.0,,-1.72176806857976,-3.03216859835635,-2.00055937507828,,2.8525522549426308,,
,6385.0,698.0,5380.0,562.0,20.0,2623.0,2937.0,2025-07-15 18:12:00,74.0,,-1.72156692639757,-3.0321810793474,-2.00184517748811,,2.796846995706851,,
,6385.0,698.0,5378.0,559.0,26.0,2631.0,2921.0,2025-07-15 18:12:01,74.0,,-1.72162280347416,-3.03219595326893,-2.00074381148733,,2.66561652470688,,
,6386.0,697.0,5379.0,561.0,18.0,2631.0,2948.0,2025-07-15 18:12:02,75.0,,-1.721581335331,-3.03217084298247,-2.00126674742082,,2.4634172868624478,,
,6386.0,700.0,5381.0,563.0,36.0,2648.0,2938.0,2025-07-15 18:12:03,75.0,,-1.72280506159915,-3.0321593520547,-2.00115932890682,,2.197855360079659,,
,6385.0,699.0,5382.0,565.0,16.0,2658.0,2940.0,2025-07-15 18:12:04,75.0,,-1.72227334040068,-3.0321429505346,-2.00160450851651,,1.8792500136575878,,
,6385.0,699.0,5382.0,561.0,17.0,2655.0,2931.0,2025-07-15 18:12:05,75.0,,-1.72203713388559,-3.03218506358714,-2.00127824487395,,1.5200743983665843,,
,6386.0,698.0,5382.0,565.0,21.0,2648.0,2965.0,2025-07-15 18:12:06,75.0,,-1.72068252783324,-3.03221219109092,-2.00152081502943,,1.1342097942730265,,
,6390.0,701.0,5383.0,564.0,34.0,2652.0,2983.0,2025-07-15 18:12:07,75.0,,-1.72105995558944,-3.03222571530417,-2.00125454506928,,0.7360760420077083,,
,6390.0,701.0,5384.0,565.0,29.0,2630.0,2971.0,2025-07-15 18:12:08,76.0,,-1.72190837239915,-3.03221482230274,-2.00149154443081,,0.3397206772943445,,
,6389.0,699.0,5384.0,562.0,23.0,2621.0,2964.0,2025-07-15 18:12:09,76.0,,-1.72159081185474,-3.03223919263665,-2.00115107373175,,-0.04204227759207308,,
,6392.0,701.0,5383.0,563.0,13.0,2638.0,2940.0,2025-07-15 18:12:10,76.0,,-1.72054615556011,-3.03213762097104,-2.00144440392852,,-0.39835882484624935,,
,6394.0,701.0,5386.0,566.0,23.0,2654.0,2937.0,2025-07-15 18:12:11,77.0,,-1.72152749070834,-3.03214817022375,-2.00094595704712,,-0.7208609414615117,,
,6393.0,701.0,5388.0,565.0,27.0,2653.0,2946.0,2025-07-15 18:12:12,77.0,,-1.72254108707879,-3.03216228349429,-2.00184407548374,,-1.0039539674382132,,
,6392.0,697.0,5386.0,564.0,26.0,2666.0,2959.0,2025-07-15 18:12:13,77.0,,-1.72193304136008,-3.03219494436524,-2.00133421112982,,-1.2448580215723395,,
,6395.0,699.0,5388.0,566.0,18.0,2654.0,2937.0,2025-07-15 18:12:14,77.0,,-1.72190295238009,-3.03211735415514,-2.00066558091042,,-1.4434240986807654,,
,6396.0,699.0,5385.0,564.0,36.0,2662.0,2945.0,2025-07-15 18:12:15,77.0,,-1.72177963016941,-3.03220586570557,-2.00080630871601,,-1.6017674960262942,,
,6394.0,699.0,5389.0,566.0,27.0,2666.0,2960.0,2025-07-15 18:12:16,77.0,,-1.72158242734844,-3.03215124615745,-2.00092168217562,,-1.7237753838852319,,
,6394.0,698.0,5388.0,564.0,24.0,2676.0,2936.0,2025-07-15 18:12:17,77.0,,-1.72212169728412,-3.03208385553921,-2.00175433251599,,-1.8145513381238223,,
,6392.0,698.0,5388.0,562.0,22.0,2679.0,2941.0,2025-07-15 18:12:18,76.0,,-1.72181447475376,-3.03212077872211,-2.00088684101771,,-1.8798580274628762,,
,6393.0,699.0,5387.0,566.0,24.0,2671.0,2941.0,2025-07-15 18:12:19,76.0,,-1.72287260552441,-3.03223873103947,-2.00153732577612,,-1.925610868269209,,
,6395.0,699.0,5386.0,566.0,24.0,2666.0,2941.0,2025-07-15 18:12:20,76.0,,-1.72170644113817,-3.03219976335617,-2.00187897062646,,-1.957461354334117,,
2025-07-15 18:10:14,6394.0,700.0,5388.0,566.0,23.0,2663.0,2941.0,2025-07-15 18:12:21,76.0,2025/07/15 06:10:14 PM,-1.72163772126023,-3.03211204581578,-2.00134377546269,,-1.9804904403817576,,
,6391.0,698.0,5383.0,565.0,25.0,2656.0,2964.0,2025-07-15 18:12:22,76.0,,-1.72356167548097,-3.03216009450898,-2.00062753146772,,-1.9990122871745009,,
,6393.0,701.0,5385.0,565.0,43.0,2659.0,2977.0,2025-07-15 18:12:23,76.0,,-1.722708524346,-3.03210154064042,-2.00130991248178,,-2.0164705078797445,,
,6390.0,699.0,5384.0,566.0,32.0,2669.0,2956.0,2025-07-15 18:12:24,76.0,,-1.72382956650045,-3.03213789337417,-2.00145657763388,,-2.0353969434629575,,
,6391.0,699.0,5381.0,566.0,28.0,2652.0,2942.0,2025-07-15 18:12:25,76.0,,-1.72416104053105,-3.03211934033315,-2.00129433387111,,-2.0573999455428194,,
,6390.0,696.0,5382.0,563.0,26.0,2666.0,2937.0,2025-07-15 18:12:26,76.0,,-1.72543103475715,-3.0321741857876,-2.00159542420747,,-2.083155304730843,,
,6391.0,698.0,5385.0,563.0,34.0,2665.0,2953.0,2025-07-15 18:12:27,76.0,,-1.72679074723568,-3.03211927097586,-2.00187762095815,,-2.112385444547613,,
,6392.0,698.0,5387.0,565.0,33.0,2669.0,2955.0,2025-07-15 18:12:28,76.0,,-1.72713249078439,-3.03210801764557,-2.00296715061088,,-2.1438270392844325,,
,6395.0,701.0,5385.0,564.0,24.0,2667.0,2945.0,2025-07-15 18:12:29,76.0,,-1.72772435770388,-3.03224997451769,-2.00237016378197,,-2.1752001062793025,,
,6395.0,697.0,5387.0,563.0,26.0,2678.0,2975.0,2025-07-15 18:12:30,76.0,,-1.72776960763052,-3.03215128967924,-2.00188022820697,,-2.203200558531009,,
,6396.0,698.0,5388.0,567.0,18.0,2693.0,2937.0,2025-07-15 18:12:31,77.0,,-1.73004071922222,-3.03215717373237,-2.00247618408142,,-2.2235420681662292,,
,6398.0,696.0,5387.0,565.0,18.0,2676.0,2919.0,2025-07-15 18:12:32,76.0,,-1.72901760560571,-3.03217409868617,-2.00268509262041,,-2.231071553306701,,
,6402.0,701.0,5392.0,568.0,21.0,2681.0,2925.0,2025-07-15 18:12:33,76.0,,-1.73010949332406,-3.03220487078014,-2.00331920757126,,-2.219975857146462,,
,6397.0,695.0,5389.0,565.0,35.0,2664.0,2916.0,2025-07-15 18:12:34,76.0,,-1.72952197776653,-3.0322760814189,-2.0030652802512,,-2.1840858186562824,,
,6402.0,696.0,5391.0,567.0,36.0,2632.0,2921.0,2025-07-15 18:12:35,76.0,,-1.73023938353784,-3.03222606722821,-2.00369560054876,,-2.117268934352762,,
,6404.0,699.0,5395.0,566.0,33.0,2628.0,2931.0,2025-07-15 18:12:36,75.0,,-1.72911398115305,-3.03225665966056,-2.00309164865822,,-2.0138849276683226,,
,6406.0,699.0,5395.0,566.0,40.0,2630.0,2931.0,2025-07-15 18:12:37,75.0,,-1.73028615144489,-3.03236099213074,-2.0032518110615,,-1.8692627035872653,,
,6405.0,698.0,5397.0,566.0,29.0,2663.0,2946.0,2025-07-15 18:12:38,74.0,,-1.72994886358564,-3.03224308254604,-2.00337688932213,,-1.6801464378842863,,
,6407.0,699.0,5398.0,569.0,29.0,2656.0,2952.0,2025-07-15 18:12:39,74.0,,-1.72929711342341,-3.03226650095995,-2.00275658996212,,-1.4450570089522874,,
,6408.0,698.0,5402.0,570.0,20.0,2686.0,2945.0,2025-07-15 18:12:40,74.0,,-1.72962431037357,-3.03224473683933,-2.00322246789069,,-1.1645245599882272,,
,6412.0,700.0,5406.0,569.0,18.0,2690.0,2952.0,2025-07-15 18:12:41,74.0,,-1.73027442195399,-3.03229443001938,-2.00300478816437,,-0.8411668203751465,,
,6414.0,697.0,5403.0,566.0,31.0,2669.0,2949.0,2025-07-15 18:12:42,74.0,,-1.72929788922462,-3.03221892477017,-2.00322449815277,,-0.4796108258423224,,
,6414.0,698.0,5404.0,569.0,28.0,2675.0,2948.0,2025-07-15 18:12:43,75.0,,-1.72964233095091,-3.0321984761724,-2.00254217590583,,-0.08627701025775078,,
,6417.0,699.0,5406.0,568.0,30.0,2640.0,2934.0,2025-07-15 18:12:44,74.0,,-1.72967222158339,-3.03224401583117,-2.00308659026148,,0.33093991228098474,,
,6421.0,701.0,5412.0,569.0,24.0,2650.0,2929.0,2025-07-15 18:12:45,74.0,,-1.72983660190528,-3.03221544704567,-2.0028587369101,,0.7630509903134535,,
,6420.0,703.0,5413.0,570.0,13.0,2641.0,2945.0,2025-07-15 18:12:46,73.0,,-1.72985828139675,-3.03225282762854,-2.00291369986647,,1.2003710655762634,,
,6421.0,703.0,5416.0,572.0,20.0,2621.0,2945.0,2025-07-15 18:12:47,73.0,,-1.72977475285646,-3.0321765054972,-2.00343138329254,,1.6328969417233792,,
,6426.0,700.0,5418.0,571.0,23.0,2653.0,2940.0,2025-07-15 18:12:48,73.0,,-1.72976056594847,-3.03224330029454,-2.00255054787468,,2.0506370337189086,,
,6429.0,703.0,5419.0,571.0,23.0,2634.0,2938.0,2025-07-15 18:12:49,73.0,,-1.72957115465098,-3.03219521421956,-2.00217107689603,,2.443875958481277,,
,6430.0,703.0,5419.0,572.0,33.0,2668.0,2929.0,2025-07-15 18:12:50,73.0,,-1.72944927224887,-3.03223768588923,-2.00323021974389,,2.8033717473432547,,
,6431.0,702.0,5423.0,571.0,32.0,2671.0,2915.0,2025-07-15 18:12:51,73.0,,-1.72839808696583,-3.0322274769681,-2.00299071572239,,3.120498398878777,,
,6435.0,702.0,5424.0,569.0,28.0,2671.0,2946.0,2025-07-15 18:12:52,72.0,,-1.72927375877605,-3.03220547973746,-2.00293227535801,,3.3873597621037836,,
,6434.0,703.0,5428.0,571.0,23.0,2677.0,2935.0,2025-07-15 18:12:53,72.0,,-1.72832975619308,-3.0322095757881,-2.00312393758916,,3.5969084396539395,,
,6436.0,703.0,5427.0,575.0,29.0,2665.0,2932.0,2025-07-15 18:12:54,71.0,,-1.72754750399162,-3.03229448661817,-2.00244939922785,,3.743101985275241,,
,6438.0,702.0,5429.0,571.0,30.0,2658.0,2955.0,2025-07-15 18:12:55,71.0,,-1.72742336771248,-3.03225374169091,-2.00311538614447,,3.82111700725917,,
,6438.0,703.0,5433.0,572.0,26.0,2655.0,2922.0,2025-07-15 18:12:56,70.0,,-1.72784467573528,-3.03227683283498,-2.0026396524855,,3.827622296962667,,
,6444.0,704.0,5435.0,575.0,19.0,2646.0,2926.0,2025-07-15 18:12:57,70.0,,-1.72658693053912,-3.03226985862077,-2.00190487839959,,3.7610898704032465,,
,6446.0,706.0,5437.0,575.0,15.0,2651.0,2941.0,2025-07-15 18:12:58,70.0,,-1.72830211681866,-3.03233207142307,-2.00309151285643,,3.6221034328596304,,
,6446.0,705.0,5440.0,575.0,30.0,2645.0,2926.0,2025-07-15 18:12:59,71.0,,-1.72829702305677,-3.03221073024466,-2.00234940458296,,3.413611492309512,,
,6448.0,703.0,5442.0,575.0,22.0,2637.0,2940.0,2025-07-15 18:13:00,71.0,,-1.72784682573609,-3.03218134963683,-2.00216709610003,,3.1410693760658286,,
,6452.0,707.0,5445.0,576.0,31.0,2649.0,2946.0,2025-07-15 18:13:01,72.0,,-1.72900566572792,-3.03228652855754,-2.00334939628581,,2.812421092829689,,
,6452.0,707.0,5446.0,577.0,22.0,2654.0,2944.0,2025-07-15 18:13:02,73.0,,-1.72986223588335,-3.03222283616302,-2.00277047161283,,2.437887208363488,,
,6452.0,705.0,5445.0,574.0,10.0,2656.0,2923.0,2025-07-15 18:13:03,73.0,,-1.72899356270661,-3.03220091674765,-2.00275250614547,,2.029546624708919,,
,6456.0,705.0,5448.0,575.0,5.0,2668.0,2946.0,2025-07-15 18:13:04,74.0,,-1.72786540365171,-3.03226765763774,-2.00250927597205,,1.6007259417199948,,
,6459.0,708.0,5451.0,578.0,21.0,2685.0,2926.0,2025-07-15 18:13:05,74.0,,-1.73035338721397,-3.03223604767213,-2.0022845702187,,1.1652371934354164,,
,6460.0,710.0,5454.0,577.0,20.0,2675.0,2933.0,2025-07-15 18:13:06,75.0,,-1.73015823054299,-3.03221892230945,-2.00274883761337,,0.736529697162833,,
,6462.0,708.0,5454.0,577.0,34.0,2671.0,2942.0,2025-07-15 18:13:07,75.0,,-1.72902252075947,-3.03222265800422,-2.00306649385822,,0.3268400715828119,,
,6466.0,707.0,5454.0,576.0,14.0,2640.0,2956.0,2025-07-15 18:13:08,75.0,,-1.73049615050027,-3.03223614345775,-2.00255212831463,,-0.05356841285081942,,
,6463.0,705.0,5456.0,578.0,15.0,2638.0,2949.0,2025-07-15 18:13:09,76.0,,-1.72971893191282,-3.03221290615925,-2.00251862816495,,-0.3969929344822411,,
,6467.0,708.0,5460.0,577.0,22.0,2643.0,2949.0,2025-07-15 18:13:10,76.0,,-1.72968008658857,-3.03229647305013,-2.00313572190017,,-0.69864085032065,,
,6464.0,707.0,5459.0,576.0,50.0,2669.0,2955.0,2025-07-15 18:13:11,76.0,,-1.72864255461884,-3.03221643515209,-2.00359428637456,,-0.956707964361205,,
,6463.0,703.0,5457.0,575.0,38.0,2684.0,2947.0,2025-07-15 18:13:12,76.0,,-1.73004591610831,-3.03224574066281,-2.00312114842363,,-1.1721844249437094,,
,6464.0,710.0,5460.0,575.0,33.0,2666.0,2936.0,,,,-1.73020274473393,-3.03223459004997,-2.00261009940079,,-1.3484184375924835,,
,6459.0,708.0,5453.0,574.0,27.0,2670.0,2946.0,,,,-1.73087411543313,-3.03227399912796,-2.00257972608692,,-1.4904930124397224,,
,6456.0,704.0,5451.0,573.0,27.0,2668.0,2951.0,,,,-1.73084217648436,-3.03229668136988,-2.00300106851262,,-1.6044877290602093,,
,6449.0,703.0,5444.0,570.0,21.0,2670.0,2955.0,,,,-1.72966927671631,-3.0322741721657,-2.0030331489134,,-1.6967052803674407,,
,6445.0,703.0,5434.0,568.0,29.0,2632.0,2970.0,,,,-1.73104089926606,-3.0322534504637,-2.00318337642428,,-1.7729416273838652,,
,6439.0,703.0,5427.0,567.0,39.0,2636.0,2955.0,,,,-1.73058217518478,-3.03221228180802,-2.00263261408873,,-1.8378696722277441,,
,6432.0,703.0,5421.0,567.0,29.0,2626.0,2952.0,,,,-1.7307344253468,-3.03228175282209,-2.00259482468121,,-1.894590343811979,,
,6426.0,702.0,5414.0,564.0,16.0,2623.0,2980.0,,,,-1.73144520911022,-3.03220910573485,-2.00286541730653,,-1.944383291142617,,
,6421.0,699.0,5407.0,566.0,10.0,2674.0,2965.0,,,,-1.73154250993678,-3.03220142850098,-2.00294820339547,,-1.9866644391110382,,
,6412.0,701.0,5400.0,563.0,16.0,2660.0,2953.0,,,,-1.73191191416352,-3.0321825917196,-2.0025401568956,,-2.0191331950301925,,
,6409.0,700.0,5397.0,564.0,16.0,2669.0,2943.0,,,,-1.73216501994759,-3.03224928346044,-2.00260981243356,,-2.0380724608226726,,
,6406.0,697.0,5389.0,561.0,12.0,2678.0,2951.0,,,,-1.73104328207805,-3.03222658570977,-2.00247066383411,,-2.0387532326718167,,
,6404.0,697.0,5386.0,560.0,-4.0,2670.0,2959.0,,,,-1.73038502156758,-3.03228913530044,-2.00317100727066,,-2.0158933349862957,,
,6400.0,699.0,5386.0,561.0,20.0,2688.0,2951.0,,,,-1.7305363948573,-3.03235185780851,-2.00246890798672,,-1.9641248427049982,,
,6399.0,695.0,5382.0,563.0,36.0,2682.0,2955.0,,,,-1.73130751598209,-3.03224112743694,-2.00215938408217,,-1.8784337575094345,,
,6395.0,695.0,5381.0,562.0,33.0,2661.0,2938.0,,,,-1.7305590825173,-3.03226345468886,-2.00245301140651,,-1.7545457811436154,,
,6396.0,699.0,5379.0,562.0,25.0,2657.0,2955.0,,,,-1.73102785902429,-3.03218087740946,-2.00238809866497,,-1.5892422139112807,,
,6393.0,698.0,5379.0,564.0,10.0,2630.0,2929.0,,,,-1.72894298984931,-3.03224698091399,-2.0022912284561,,-1.3805997702614219,,
,6393.0,696.0,5375.0,562.0,15.0,2625.0,2929.0,,,,-1.73029115985266,-3.0322497224125,-2.00210694540301,,-1.1281572709270866,,
,6393.0,698.0,5373.0,560.0,29.0,2635.0,2947.0,,,,-1.73034994570508,-3.03218919587204,-2.0021108246112,,-0.8330200118755352,,
,6391.0,693.0,5371.0,560.0,19.0,2661.0,2932.0,,,,-1.73046672227013,-3.03220500559867,-2.00217934998037,,-0.49791758960696536,,
,6394.0,697.0,5375.0,565.0,29.0,2663.0,2933.0,,,,-1.7290105489991,-3.03224847802117,-2.00264928454523,,-0.12723113287602916,,
,6394.0,697.0,5376.0,562.0,39.0,2663.0,2941.0,,,,-1.72981208937737,-3.03226037502156,-2.00219724393407,,0.27300005917663633,,
,6390.0,697.0,5372.0,562.0,20.0,2649.0,2953.0,,,,-1.72924633361913,-3.03220886192931,-2.00220703659807,,0.6950940108483994,,
,6390.0,697.0,5371.0,561.0,18.0,2618.0,2957.0,,,,-1.7304872359489,-3.03218145026329,-2.00236900993758,,1.1297793857101692,,
,6391.0,696.0,5370.0,563.0,17.0,2629.0,2940.0,,,,-1.73012574034669,-3.03220643836522,-2.00186791594044,,1.5663142228285147,,
,6390.0,697.0,5373.0,563.0,23.0,2664.0,2949.0,,,,-1.72957634548435,-3.03221089870275,-2.0021475057865,,1.992702443855431,,
,6394.0,698.0,5372.0,564.0,26.0,2666.0,2963.0,,,,-1.72964836344733,-3.03229421143362,-2.00225654854998,,2.3960354198824003,,
,6393.0,697.0,5371.0,564.0,17.0,2658.0,2946.0,,,,-1.72869260877753,-3.0322072650849,-2.00236972785293,,2.7629717456575564,,
,6396.0,694.0,5373.0,562.0,13.0,2653.0,2944.0,,,,-1.72815051823355,-3.03222177918641,-2.00231445921807,,3.0803483731737304,,
,6394.0,696.0,5374.0,562.0,12.0,2648.0,2959.0,,,,-1.72870139293812,-3.03229443264916,-2.00217175538982,,3.3358942922509307,,
,6396.0,697.0,5378.0,564.0,27.0,2647.0,2955.0,,,,-1.72798977208804,-3.03225449900472,-2.00252640656216,,3.518997381884877,,
,6395.0,697.0,5373.0,562.0,27.0,2645.0,2958.0,,,,-1.72890223851265,-3.03222284360363,-2.00206289364136,,3.621458587199509,,
,6395.0,696.0,5375.0,563.0,31.0,2659.0,2953.0,,,,-1.72808299148316,-3.03223762820193,-2.00183549397727,,3.638157488902144,,
,6396.0,698.0,5376.0,563.0,25.0,2645.0,2976.0,,,,-1.72708814267693,-3.03234246492286,-2.00270017085776,,3.5675516830419136,,
,6399.0,696.0,5376.0,566.0,23.0,2637.0,2975.0,,,,-1.72725448134108,-3.03224088247441,-2.00194992160339,,3.4119409431850705,,
,6397.0,698.0,5376.0,565.0,25.0,2644.0,2973.0,,,,-1.72780065530916,-3.03225356804783,-2.00296040313164,,3.177446894810666,,
,6397.0,698.0,5376.0,564.0,10.0,2630.0,2952.0,,,,-1.72899310846638,-3.03225814953809,-2.00191949827545,,2.8736891636868434,,
,6400.0,697.0,5379.0,564.0,7.0,2629.0,2982.0,,,,-1.72772284792356,-3.03222568033566,-2.00273894259818,,2.513176202238692,,
,6398.0,697.0,5375.0,565.0,4.0,2625.0,2980.0,,,,-1.72849697111246,-3.03220487609758,-2.00208194286018,,2.1104668762347116,,
,6398.0,696.0,5375.0,561.0,29.0,2624.0,2965.0,,,,-1.72892076334721,-3.03221483603985,-2.00274817895874,,1.6811894932888192,,
,6396.0,696.0,5377.0,565.0,17.0,2654.0,2965.0,,,,-1.72845219603057,-3.03219609647215,-2.00200706604301,,1.2410215748639213,,
,6398.0,696.0,5377.0,565.0,13.0,2683.0,2951.0,,,,-1.72875702805795,-3.03217276641341,-2.00263687200039,,0.8047334629822436,,
,6397.0,697.0,5378.0,564.0,7.0,2683.0,2941.0,,,,-1.72863767377999,-3.03215990994602,-2.00288425104241,,0.3853835055944936,,
,6396.0,696.0,5372.0,561.0,3.0,2674.0,2960.0,,,,-1.72943367117717,-3.03215865069487,-2.00250338790117,,-0.0062731688882453895,,
,6399.0,698.0,5377.0,563.0,30.0,2676.0,2941.0,,,,-1.72972487370695,-3.03226133145834,-2.00167563451467,,-0.36213084878592144,,
,6400.0,695.0,5378.0,562.0,24.0,2635.0,2933.0,,,,-1.72832909857214,-3.03223765125033,-2.00240241005541,,-0.6768335680086652,,
,6399.0,696.0,5376.0,564.0,24.0,2655.0,2944.0,,,,-1.72853448031968,-3.03225682740252,-2.0025450955305,,-0.9476557198533537,,
,6400.0,697.0,5375.0,565.0,21.0,2648.0,2935.0,,,,-1.72853645641208,-3.03217901356964,-2.00310907258191,,-1.1742099317260082,,
,6397.0,694.0,5378.0,564.0,44.0,2636.0,2961.0,,,,-1.72995482509779,-3.03232275833637,-2.00255532254343,,-1.3580421631375126,,
,6404.0,698.0,5377.0,565.0,20.0,2646.0,2964.0,,,,-1.72969015805746,-3.03226282115554,-2.00225477170511,,-1.5021781894019526,,
,6402.0,699.0,5378.0,564.0,18.0,2639.0,2959.0,,,,-1.73015740315488,-3.03224290068326,-2.0026989970609,,-1.6106807274958825,,
,6404.0,698.0,5381.0,566.0,10.0,2640.0,2941.0,,,,-1.73102469879959,-3.03225082102269,-2.00273764143066,,-1.6882630466640889,,
,6405.0,697.0,5379.0,564.0,14.0,2649.0,2955.0,,,,-1.73177761806827,-3.0323530800464,-2.00313617220946,,-1.7399850408209971,,
,6404.0,698.0,5383.0,566.0,12.0,2654.0,2960.0,,,,-1.73370837291523,-3.03232602145581,-2.00360172450484,,-1.771035189496392,,
,6410.0,699.0,5386.0,567.0,28.0,2643.0,2964.0,,,,-1.73260347463756,-3.03237898932621,-2.00415233090344,,-1.7865815826799627,,
,6410.0,697.0,5383.0,566.0,29.0,2634.0,2952.0,,,,-1.73303494593439,-3.03233714385073,-2.00330807626315,,-1.791661992800828,,
,6411.0,696.0,5387.0,565.0,22.0,2648.0,2964.0,,,,-1.7327791153682,-3.03233808743155,-2.00344798820953,,-1.7910794515917074,,
,6415.0,698.0,5390.0,568.0,20.0,2650.0,2968.0,,,,-1.73276954402579,-3.03235159440339,-2.00333362523033,,-1.7892753619559227,,
,6417.0,701.0,5393.0,568.0,16.0,2659.0,2955.0,,,,-1.73343595980444,-3.03231278415623,-2.00417582468863,,-1.7901639092870907,,
,6417.0,699.0,5394.0,567.0,18.0,2661.0,2957.0,,,,-1.73364149909801,-3.03237631849885,-2.00423766868531,,-1.796925887829385,,
,6418.0,698.0,5395.0,567.0,29.0,2645.0,2950.0,,,,-1.73443814502162,-3.03239514394857,-2.00342454371034,,-1.8117741154227323,,
,6423.0,699.0,5396.0,567.0,23.0,2638.0,2939.0,,,,-1.73315100831324,-3.03231992479214,-2.00422330421342,,-1.8357144180173723,,
,6426.0,703.0,5399.0,567.0,9.0,2656.0,2946.0,,,,-1.73414757339648,-3.03235624361655,-2.00342160353001,,-1.868334515762832,,
,6428.0,702.0,5405.0,568.0,13.0,2656.0,2953.0,,,,-1.73360263333641,-3.03233730875951,-2.00316884367701,,-1.907657253173055,,
,6429.0,701.0,5406.0,570.0,21.0,2632.0,2980.0,,,,-1.73430577925051,-3.03232245652914,-2.00292035441042,,-1.9500938711746065,,
,6428.0,698.0,5403.0,569.0,17.0,2643.0,2980.0,,,,-1.73368653524383,-3.0323415901852,-2.00372277497096,,-1.9905268613686147,,
,6435.0,701.0,5410.0,571.0,18.0,2657.0,2969.0,,,,-1.73286108102471,-3.03226810562144,-2.00297096855219,,-2.0225400636518893,,
,6436.0,704.0,5411.0,573.0,17.0,2658.0,2959.0,,,,-1.7335441359124,-3.03226485685759,-2.00397180469352,,-2.038796523961532,,
,6438.0,702.0,5412.0,570.0,24.0,2651.0,2923.0,,,,-1.73326916721101,-3.03238748180335,-2.00343061898941,,-2.031544023913047,,
,6437.0,700.0,5415.0,571.0,21.0,2644.0,2935.0,,,,-1.73309032625331,-3.03230359873103,-2.00326174098864,,-1.9932075638588136,,
,6441.0,705.0,5417.0,573.0,32.0,2668.0,2952.0,,,,-1.73363269115307,-3.03232456379625,-2.00388874042615,,-1.9170120417224532,,
,6445.0,704.0,5420.0,573.0,26.0,2667.0,2974.0,,,,-1.7316941722805,-3.03236329964968,-2.00343331056195,,-1.7975712217648003,,
,6447.0,703.0,5420.0,572.0,17.0,2652.0,2961.0,,,,-1.73240045866701,-3.03231248458362,-2.00410039373013,,-1.631382861575012,,
,6446.0,703.0,5422.0,570.0,5.0,2661.0,2932.0,,,,-1.73221255019055,-3.03227250030569,-2.00357456451307,,-1.4171833577555577,,
,6449.0,703.0,5425.0,574.0,12.0,2653.0,2932.0,,,,-1.73169702954343,-3.03236865083925,-2.00324717322764,,-1.1561348209996671,,
2025-07-15 18:10:15,6450.0,704.0,5427.0,575.0,11.0,2608.0,2936.0,,,2025/07/15 06:10:15 PM,-1.73149404223292,-3.03232904343249,-2.00315737322391,,-0.8518387171766202,,
,6454.0,706.0,5429.0,575.0,10.0,2609.0,2936.0,,,,-1.73216145089106,-3.03225318909188,-2.00329458436611,,-0.51018937457632,,
,6456.0,707.0,5431.0,574.0,30.0,2640.0,2942.0,,,,-1.73130856292733,-3.03229749537012,-2.00330584963153,,-0.1390952076429044,,
,6458.0,703.0,5433.0,573.0,20.0,2667.0,2942.0,,,,-1.73089201653885,-3.03235425648403,-2.00335466981519,,0.25189584791794273,,
,6461.0,705.0,5435.0,576.0,20.0,2673.0,2946.0,,,,-1.73301805571881,-3.03229687581348,-2.00364571800435,,0.652027634852854,,
,6464.0,706.0,5438.0,576.0,22.0,2690.0,2946.0,,,,-1.73212457915699,-3.03230370047307,-2.00387717720267,,1.0497877057986802,,
,6464.0,705.0,5441.0,575.0,13.0,2667.0,2948.0,,,,-1.73301440500221,-3.03228260692879,-2.00325703120315,,1.433351290839906,,
,6466.0,706.0,5440.0,574.0,6.0,2684.0,2940.0,,,,-1.7325779450178,-3.03228540657277,-2.00367196981924,,1.7909995393165452,,
,6467.0,707.0,5447.0,577.0,12.0,2650.0,2958.0,,,,-1.73385104349168,-3.03227304688285,-2.00319577753416,,2.111506677088837,,
,6474.0,705.0,5449.0,577.0,13.0,2654.0,2966.0,,,,-1.7344418594387,-3.03226025985744,-2.00386621787528,,2.3845020493013407,,
,6472.0,708.0,5448.0,578.0,28.0,2641.0,2940.0,,,,-1.73326985016499,-3.0322472524377,-2.00315155483971,,2.6008198061707413,,
,6474.0,705.0,5449.0,577.0,32.0,2631.0,2934.0,,,,-1.73370892148072,-3.03223008281095,-2.00416825265257,,2.7528480847522023,,
,6478.0,709.0,5456.0,576.0,15.0,2632.0,2926.0,,,,-1.7327335991192,-3.03225333609237,-2.00251338660464,,2.8348800913203713,,
,6479.0,709.0,5457.0,580.0,21.0,2648.0,2934.0,,,,-1.73382970921597,-3.03229807570877,-2.00338509687603,,2.8434541219115297,,
,6483.0,710.0,5461.0,577.0,25.0,2664.0,2927.0,,,,-1.73282641141961,-3.03229833175989,-2.00382637840125,,2.7776534343052006,,
,6482.0,707.0,5461.0,578.0,33.0,2659.0,2971.0,,,,-1.73389597952873,-3.03231916631692,-2.00253787898345,,2.63932537473815,,
,6488.0,711.0,5463.0,580.0,14.0,2665.0,2952.0,,,,-1.73449161585883,-3.03232087955741,-2.0030103322134,,2.433175859328865,,
,6488.0,709.0,5468.0,580.0,3.0,2644.0,2938.0,,,,-1.73335378726079,-3.03232055027825,-2.00292840091899,,2.166701253697599,,
,6490.0,711.0,5467.0,581.0,5.0,2643.0,2963.0,,,,-1.73375474856465,-3.03221650045425,-2.00350084527475,,1.849933617827214,,
,6491.0,710.0,5467.0,580.0,11.0,2670.0,2966.0,,,,-1.73397899200243,-3.03228482116275,-2.00357835404834,,1.4949944080997681,,
,6491.0,711.0,5471.0,581.0,7.0,2661.0,2932.0,,,,-1.73404594137411,-3.03236868036633,-2.00386598820706,,1.1154728203061006,,
,6496.0,711.0,5471.0,582.0,36.0,2660.0,2944.0,,,,-1.73300312442094,-3.03228664560564,-2.00328664747083,,0.7256652728821495,,
,6492.0,710.0,5468.0,579.0,44.0,2639.0,2948.0,,,,-1.73428088021118,-3.03238077529331,-2.00281778593178,,0.33973014856090544,,
,6490.0,711.0,5468.0,577.0,40.0,2639.0,2945.0,,,,-1.73369101787167,-3.03231972334493,-2.00411789858482,,-0.029174630709534553,,
,6486.0,710.0,5463.0,574.0,9.0,2660.0,2938.0,,,,-1.73311706273077,-3.03230373583893,-2.00289917745993,,-0.3696959262378035,,
,6480.0,710.0,5459.0,576.0,-6.0,2647.0,2958.0,,,,-1.73406958911299,-3.03228605217658,-2.00324040186502,,-0.6729563364370812,,
,6475.0,706.0,5449.0,572.0,3.0,2642.0,2973.0,,,,-1.73413770185724,-3.03223174524693,-2.00271246083331,,-0.9330259046387236,,
,6467.0,704.0,5441.0,571.0,15.0,2635.0,2960.0,,,,-1.73476819562244,-3.03230358824356,-2.00373312092132,,-1.1471476761881847,,
,6461.0,705.0,5435.0,570.0,9.0,2602.0,2953.0,,,,-1.7340293517872,-3.03231272598503,-2.0026969920315,,-1.315696501536447,,
,6460.0,707.0,5432.0,570.0,18.0,2628.0,2954.0,,,,-1.73298151651605,-3.03225348480326,-2.00311520210487,,-1.4418797562167367,,
,6452.0,705.0,5418.0,566.0,25.0,2630.0,2950.0,,,,-1.73326836123385,-3.03229307756012,-2.00263972804275,,-1.5312160039067992,,
,6445.0,703.0,5413.0,567.0,26.0,2660.0,2968.0,,,,-1.73292132123022,-3.03224087802472,-2.00338489635391,,-1.5908492040053974,,
,6439.0,701.0,5406.0,563.0,18.0,2679.0,2953.0,,,,-1.73491720673035,-3.03224086296523,-2.00288411141065,,-1.6287696965533678,,
,6439.0,704.0,5404.0,567.0,19.0,2650.0,2963.0,,,,-1.73333726868429,-3.03227449686087,-2.00292754923858,,-1.6530182982672061,,
,6436.0,701.0,5398.0,566.0,18.0,2656.0,2969.0,,,,-1.73251235090431,-3.03219346874715,-2.00300573962056,,-1.6709469898269025,,
,6432.0,702.0,5395.0,566.0,16.0,2669.0,2950.0,,,,-1.73195669698254,-3.03225343697113,-2.00281364986811,,-1.6886001011314005,,
,6429.0,698.0,5391.0,563.0,10.0,2661.0,2949.0,,,,-1.73327849251898,-3.03225672995908,-2.00263384608054,,-1.7102649667659642,,
,6427.0,700.0,5391.0,565.0,5.0,2667.0,2961.0,,,,-1.73099552907752,-3.03222310990131,-2.00264988690718,,-1.7382219333686404,,
,6425.0,700.0,5389.0,564.0,-3.0,2652.0,2946.0,,,,-1.73233331683879,-3.03233027669788,-2.00194681767594,,-1.7727016388949983,,
,6425.0,701.0,5384.0,565.0,5.0,2648.0,2964.0,,,,-1.73214085436081,-3.03233585342813,-2.00245150268564,,-1.8120345476821162,,
,6423.0,701.0,5379.0,564.0,39.0,2643.0,2952.0,,,,-1.73220559283663,-3.03222747923155,-2.00266653264336,,-1.8529566951267276,,
,6419.0,698.0,5380.0,563.0,17.0,2657.0,2936.0,,,,-1.73194468625911,-3.0323303761801,-2.00251071376393,,-1.89102011693145,,
,6422.0,701.0,5381.0,565.0,22.0,2638.0,2946.0,,,,-1.73088327754455,-3.03224587733333,-2.00339386731345,,-1.9210497728895093,,
,6420.0,700.0,5379.0,563.0,33.0,2639.0,2934.0,,,,-1.73162359316966,-3.03220800324236,-2.00245583592549,,-1.9375920980966366,,
,6418.0,696.0,5376.0,563.0,25.0,2635.0,2932.0,,,,-1.73064173644876,-3.03226023096196,-2.00226004598713,,-1.9353118013226038,,
,6417.0,698.0,5376.0,565.0,20.0,2631.0,2947.0,,,,-1.7303764839262,-3.03230214593676,-2.00244125827098,,-1.9093092751923189,,
,6419.0,699.0,5377.0,564.0,22.0,2647.0,2939.0,,,,-1.73109916486297,-3.0322399948358,-2.00187011573389,,-1.855347055554032,,
,6417.0,698.0,5377.0,564.0,13.0,2643.0,2937.0,,,,-1.73091391135261,-3.03231399612451,-2.00172885025697,,-1.7699877006332077,,
,6416.0,698.0,5375.0,560.0,1.0,2622.0,2955.0,,,,-1.73114691596027,-3.03228872372,-2.002221023448,,-1.6506563462789037,,
,6418.0,698.0,5374.0,561.0,14.0,2617.0,2955.0,,,,-1.73103591644911,-3.03228483378339,-2.00230628596329,,-1.495648991218379,,
,6417.0,700.0,5375.0,565.0,18.0,2618.0,2948.0,,,,-1.7308495318228,-3.03213488388198,-2.00236952103214,,-1.3041124175439776,,
,6418.0,699.0,5377.0,565.0,18.0,2619.0,2944.0,,,,-1.7301591809365,-3.03229527173788,-2.00310070764309,,-1.0760233726997612,,
,6417.0,698.0,5372.0,563.0,16.0,2640.0,2934.0,,,,-1.7309036505877,-3.03227676340584,-2.0023891416512,,-0.8121924551533619,,
,6418.0,696.0,5376.0,561.0,11.0,2647.0,2953.0,,,,-1.72975255551863,-3.03228111376729,-2.00318877015075,,-0.5143110114288945,,
,6422.0,700.0,5379.0,568.0,12.0,2659.0,2971.0,,,,-1.73000714732271,-3.03225497579345,-2.00210405317248,,-0.18504692348495122,,
,6420.0,700.0,5379.0,563.0,31.0,2664.0,2954.0,,,,-1.7304061622302,-3.0323153661998,-2.00176433334739,,0.17182112154524265,,
,6423.0,698.0,5378.0,566.0,17.0,2664.0,2943.0,,,,-1.72997848002035,-3.03219712500077,-2.00291816756121,,0.551257831659388,,
,6422.0,700.0,5379.0,563.0,16.0,2673.0,2955.0,,,,-1.73126622420161,-3.03224992073307,-2.00268874961628,,0.9468529680712805,,
,6422.0,699.0,5379.0,564.0,27.0,2641.0,2962.0,,,,-1.73005697238393,-3.0322629295379,-2.00197997074461,,1.3507732770912608,,
,6424.0,698.0,5378.0,566.0,35.0,2631.0,2966.0,,,,-1.73103593117492,-3.03224764224255,-2.00220187043409,,1.7538223558652808,,
,6422.0,697.0,5378.0,563.0,18.0,2640.0,2910.0,,,,-1.72991177993395,-3.03223990019489,-2.00215030879722,,2.145633966663826,,
,6421.0,696.0,5377.0,565.0,6.0,2639.0,2916.0,,,,-1.73025724571418,-3.03226549055703,-2.00183066697994,,2.515008204440643,,
,6421.0,697.0,5377.0,564.0,29.0,2642.0,2949.0,,,,-1.73004150187227,-3.03225899037111,-2.00280699844814,,2.8503823456999693,,
,6425.0,701.0,5380.0,566.0,21.0,2620.0,2951.0,,,,-1.73067224209514,-3.0323049555559,-2.00273270387633,,3.140410794055067,,
,6424.0,698.0,5379.0,566.0,21.0,2619.0,2934.0,,,,-1.73112699734268,-3.03226655947398,-2.00166541327787,,3.3746125559081706,,
,6425.0,698.0,5378.0,566.0,13.0,2628.0,2949.0,,,,-1.73105207942209,-3.03224788738092,-2.0028552265159,,3.544031559062639,,
,6425.0,699.0,5379.0,565.0,6.0,2637.0,2938.0,,,,-1.73267895812797,-3.03236991957626,-2.002688782956,,3.641846711486066,,
,6424.0,697.0,5376.0,563.0,9.0,2636.0,2927.0,,,,-1.73206783674631,-3.0322578909521,-2.00275613953639,,3.6638671230013125,,
,6423.0,698.0,5378.0,566.0,9.0,2643.0,2925.0,,,,-1.73445101380322,-3.03226020060989,-2.00255924113597,,3.6088554874957572,,
,6426.0,697.0,5377.0,562.0,13.0,2635.0,2934.0,,,,-1.73459013497491,-3.03223748479112,-2.00299203267042,,3.4786400713638534,,
,6425.0,700.0,5378.0,565.0,29.0,2633.0,2941.0,,,,-1.73501647802816,-3.03237853539595,-2.0036255138743,,3.2780013343374703,,
,6424.0,697.0,5376.0,564.0,28.0,2637.0,2955.0,,,,-1.73533051637795,-3.03232392213751,-2.00293176371201,,3.014348188073584,,
,6424.0,699.0,5379.0,565.0,35.0,2642.0,2962.0,,,,-1.736128643758,-3.03228841092786,-2.00394181746766,,2.697224748962075,,
,6426.0,698.0,5378.0,563.0,42.0,2637.0,2956.0,,,,-1.73694225424009,-3.03231617763596,-2.00364968769889,,2.337705449896269,,
,6429.0,697.0,5380.0,565.0,29.0,2653.0,2951.0,,,,-1.73630444497369,-3.0323463095738,-2.00339800737119,,1.9477420792771765,,
,6429.0,698.0,5382.0,567.0,15.0,2650.0,2959.0,,,,-1.73492022548916,-3.03239398422897,-2.00362986732609,,1.5395219466578103,,
,6433.0,700.0,5384.0,569.0,12.0,2634.0,2971.0,,,,-1.73470247555497,-3.03237276685025,-2.00364469357463,,1.124885197743226,,
,6434.0,697.0,5386.0,564.0,22.0,2635.0,2961.0,,,,-1.73544568758903,-3.03238643906538,-2.00336908896999,,0.7148346401244674,,
,6434.0,702.0,5387.0,567.0,14.0,2641.0,2980.0,,,,-1.73549437162698,-3.03239212051626,-2.00312515245123,,0.3191558601988724,,
,6436.0,702.0,5389.0,566.0,23.0,2612.0,2959.0,,,,-1.73565538444995,-3.03239657806928,-2.00354716838141,,-0.05384917015544436,,
,6435.0,700.0,5389.0,567.0,23.0,2601.0,2955.0,,,,-1.73459809880158,-3.03230878303778,-2.00378509381864,,-0.3975239110900129,,
,6438.0,702.0,5392.0,570.0,30.0,2611.0,2954.0,,,,-1.73436253938085,-3.0322637877557,-2.00380852815536,,-0.7069319343953145,,
,6441.0,700.0,5392.0,568.0,17.0,2618.0,2969.0,,,,-1.73426995975894,-3.032312271167,-2.00384855909768,,-0.9788659276228823,,
,6442.0,703.0,5396.0,570.0,30.0,2646.0,2967.0,,,,-1.73442853491199,-3.03230955777099,-2.00350690445531,,-1.2118113466946694,,
,6443.0,701.0,5398.0,567.0,32.0,2627.0,2945.0,,,,-1.73446962464313,-3.03231955953496,-2.00379767549092,,-1.4058787903471652,,
,6448.0,704.0,5401.0,570.0,21.0,2638.0,2947.0,,,,-1.73271202691046,-3.03236944620417,-2.00393968840865,,-1.5627091758264504,,
,6449.0,700.0,5399.0,569.0,15.0,2650.0,2962.0,,,,-1.73321453859702,-3.03242628914758,-2.00329363897239,,-1.6853449567376588,,
,6447.0,700.0,5403.0,569.0,10.0,2659.0,2977.0,,,,-1.73271390147631,-3.03230547055724,-2.0038836343324,,-1.7780527709275842,,
,6451.0,702.0,5404.0,572.0,22.0,2661.0,2956.0,,,,-1.73317055133278,-3.03234577092056,-2.00328395055247,,-1.846081301708294,,
,6456.0,702.0,5404.0,572.0,15.0,2657.0,2939.0,,,,-1.73216591058694,-3.03233371559973,-2.00328314428698,,-1.8953438435662886,,
,6457.0,703.0,5409.0,571.0,21.0,2656.0,2965.0,,,,-1.73176491386294,-3.03232421064478,-2.00381610870243,,-1.9320264677367045,,
,6459.0,706.0,5412.0,573.0,10.0,2639.0,2967.0,,,,-1.73280532590422,-3.03237995906478,-2.00411746139531,,-1.96213654140836,,
,6464.0,703.0,5413.0,572.0,15.0,2647.0,2959.0,,,,-1.73180577205608,-3.03236087722493,-2.00317114422482,,-1.9910194165894883,,
,6463.0,705.0,5415.0,574.0,15.0,2644.0,2966.0,,,,-1.73112620831584,-3.03235988778743,-2.00330785527806,,-2.022881096231097,,
,6464.0,702.0,5418.0,571.0,21.0,2659.0,2973.0,,,,-1.72998251607455,-3.03234056870066,-2.00333563985338,,-2.0603603746097545,,
,6468.0,707.0,5419.0,574.0,23.0,2635.0,2944.0,,,,-1.72972472575191,-3.03230714400781,-2.00370242654644,,-2.104194846120285,,
,6468.0,705.0,5422.0,574.0,21.0,2629.0,2948.0,,,,-1.72908442625788,-3.0323548688488,-2.00335566963446,,-2.1530212832419964,,
,6472.0,705.0,5424.0,576.0,25.0,2631.0,2954.0,,,,-1.72916655174652,-3.03236925330163,-2.00386497745987,,-2.2033424276341167,,
,6475.0,707.0,5427.0,575.0,3.0,2643.0,2961.0,,,,-1.72842159456381,-3.03234953487803,-2.00337230642607,,-2.2496794105162023,,
,6474.0,705.0,5427.0,573.0,22.0,2665.0,2941.0,,,,-1.72895705884279,-3.03239037487696,-2.00348105626993,,-2.284912073701476,,
,6478.0,704.0,5428.0,574.0,19.0,2646.0,2967.0,,,,-1.72960187838545,-3.0323342814236,-2.00343774159003,,-2.3007892680664237,,
,6480.0,706.0,5432.0,575.0,15.0,2653.0,2957.0,,,,-1.73049078516669,-3.03226097895539,-2.00359779780718,,-2.2885698740042604,,
,6483.0,707.0,5437.0,578.0,20.0,2646.0,2954.0,,,,-1.7294516306237,-3.03236042226517,-2.00414137346217,,-2.239736424690504,,
,6487.0,707.0,5436.0,576.0,38.0,2634.0,2959.0,,,,-1.73090684698972,-3.0323632137272,-2.00286038668558,,-2.1467113029985088,,
,6488.0,709.0,5441.0,578.0,23.0,2644.0,2956.0,,,,-1.73012638870136,-3.03239085450601,-2.00417376710871,,-2.0035041860032425,,
,6491.0,711.0,5443.0,577.0,17.0,2643.0,2948.0,,,,-1.73084855128476,-3.03228067672702,-2.00308296613897,,-1.8062296389283614,,
,6493.0,709.0,5447.0,578.0,29.0,2637.0,2963.0,,,,-1.72990122710678,-3.03237172323548,-2.00306550115186,,-1.5534530789319814,,
,6492.0,709.0,5447.0,577.0,41.0,2651.0,2952.0,,,,-1.72923066503608,-3.03235570332864,-2.00323993782153,,-1.2463471533139907,,
,6494.0,708.0,5448.0,577.0,17.0,2663.0,2963.0,,,,-1.72956085973748,-3.03225991968878,-2.00381682639001,,-0.8886640801249693,,
,6499.0,709.0,5450.0,578.0,-10.0,2662.0,2970.0,,,,-1.7297232348852,-3.03238080544219,-2.0036956115657,,-0.4865489251206964,,
,6501.0,711.0,5455.0,580.0,-2.0,2648.0,2968.0,,,,-1.73039630845928,-3.03228586351135,-2.00353175312379,,-0.04823185166030433,,
,6504.0,709.0,5457.0,581.0,13.0,2643.0,2968.0,,,,-1.72984426996676,-3.03245165002301,-2.00338035976143,,0.4163567692076612,,
,6506.0,711.0,5456.0,580.0,28.0,2626.0,2962.0,,,,-1.72856638915027,-3.03234245662109,-2.00384090027377,,0.8960054669049049,,
,6508.0,710.0,5458.0,582.0,23.0,2648.0,2964.0,,,,-1.73053396644874,-3.03237003121848,-2.004492182941,,1.3786386641872073,,
,6511.0,712.0,5465.0,583.0,19.0,2667.0,2960.0,,,,-1.73033719790146,-3.03241061730678,-2.0043474230829,,1.8517060123109317,,
,6513.0,712.0,5465.0,580.0,30.0,2650.0,2966.0,,,,-1.72932612446015,-3.03232385305145,-2.00334737355389,,2.302532142254924,,
,6516.0,712.0,5467.0,583.0,22.0,2666.0,2970.0,,,,-1.72843858463262,-3.03237605545161,-2.00341183212357,,2.718629737861851,,
,6518.0,711.0,5469.0,583.0,21.0,2664.0,2972.0,,,,-1.72953980913707,-3.03233697220502,-2.00348983283407,,3.0879924832735735,,
,6522.0,713.0,5474.0,584.0,20.0,2665.0,2960.0,,,,-1.72837069301109,-3.03234153249885,-2.00360694074592,,3.3993934785716133,,
,6521.0,712.0,5473.0,583.0,25.0,2673.0,2979.0,,,,-1.72894548232393,-3.0323478410825,-2.00396253464004,,3.6427155446036563,,
,6526.0,714.0,5477.0,583.0,7.0,2673.0,2978.0,,,,-1.72916049650342,-3.03236043123797,-2.00276356534126,,3.8093305272784583,,
,6525.0,713.0,5478.0,583.0,16.0,2648.0,2956.0,,,,-1.72796656102524,-3.03234764578768,-2.00322174312236,,3.892526617262209,,
,6527.0,712.0,5481.0,581.0,24.0,2638.0,2946.0,,,,-1.72842780766162,-3.03235466389936,-2.00378781438793,,3.887960295825597,,
,6528.0,712.0,5482.0,584.0,26.0,2624.0,2932.0,,,,-1.72913209357364,-3.03235095488449,-2.00392852790772,,3.7940886015320716,,
,6530.0,714.0,5483.0,583.0,21.0,2640.0,2926.0,,,,-1.7285536629212,-3.03232144871492,-2.0031967555747,,3.6125230911298445,,
,6530.0,714.0,5484.0,584.0,6.0,2678.0,2944.0,,,,-1.72802739684404,-3.03236152788944,-2.00337947138235,,3.3482424052936213,,
,6526.0,713.0,5482.0,581.0,10.0,2685.0,2943.0,,,,-1.72879181848035,-3.03232877712669,-2.00307545878832,,3.009606918444341,,
,6520.0,712.0,5478.0,580.0,17.0,2669.0,2954.0,,,,-1.72936104079536,-3.03237313007527,-2.0031900793874,,2.6081357566558925,,
2025-07-15 18:10:16,6517.0,712.0,5469.0,579.0,5.0,2641.0,2933.0,,,2025/07/15 06:10:16 PM,-1.7288188943588,-3.03233373021381,-2.00361831176154,,2.1580310590502245,,
,6513.0,711.0,5466.0,576.0,1.0,2650.0,2953.0,,,,-1.72815315754726,-3.03229974708188,-2.00306194655989,,1.6754632651519403,,
,6510.0,713.0,5460.0,577.0,5.0,2635.0,2956.0,,,,-1.72915132239909,-3.0322178573293,-2.00290462439252,,1.1776606954971722,,
,6502.0,710.0,5452.0,576.0,22.0,2611.0,2943.0,,,,-1.72898731774316,-3.03231062135203,-2.00312634415331,,0.6818731876430579,,
,6494.0,705.0,5444.0,573.0,8.0,2612.0,2937.0,,,,-1.72786267981814,-3.03229739781788,-2.00368763701203,,0.20429970289173463,,
,6493.0,710.0,5438.0,573.0,7.0,2611.0,2931.0,,,,-1.72721105128794,-3.03227324182545,-2.003917035654,,-0.2409195259764478,,
,6485.0,710.0,5433.0,572.0,6.0,2617.0,2954.0,,,,-1.72813529475053,-3.03235965718198,-2.00262258334915,,-0.642547221010722,,
,6481.0,707.0,5428.0,570.0,13.0,2628.0,2952.0,,,,-1.7274792278823,-3.03236056615836,-2.00296751700109,,-0.9928453945367623,,
,6478.0,707.0,5424.0,569.0,25.0,2656.0,2959.0,,,,-1.72768669332201,-3.0323027158875,-2.00324470112241,,-1.2878662662479337,,
,6477.0,708.0,5417.0,570.0,17.0,2658.0,2959.0,,,,-1.72745884940432,-3.0323395624592,-2.00346023695721,,-1.527414620204646,,
,6472.0,705.0,5413.0,570.0,18.0,2667.0,2967.0,,,,-1.72708962056461,-3.03233609820162,-2.00377601433417,,-1.7146946538874106,,
,6470.0,706.0,5412.0,569.0,18.0,2672.0,2953.0,,,,-1.72755833751602,-3.03239069305878,-2.00276163582166,,-1.8556868786431686,,
,6467.0,703.0,5410.0,569.0,18.0,2655.0,2949.0,,,,-1.72711676331586,-3.0322539640668,-2.00376069626764,,-1.9583256032748235,,
,6466.0,705.0,5408.0,568.0,19.0,2667.0,2942.0,,,,-1.72727411762842,-3.0321824178261,-2.0031727789484,,-2.0315630867536676,,
,6467.0,706.0,5406.0,567.0,22.0,2650.0,2914.0,,,,-1.7267830729475,-3.03225427983128,-2.00308962316527,,-2.084412345024502,,
,6466.0,704.0,5408.0,569.0,11.0,2654.0,2911.0,,,,-1.72646165600376,-3.03230640091218,-2.00323625118478,,-2.1250576675042305,,
,6463.0,704.0,5405.0,568.0,32.0,2651.0,2941.0,,,,-1.72536793752405,-3.03226559383468,-2.00335637264812,,-2.160111372956329,,
,6461.0,702.0,5401.0,567.0,18.0,2656.0,2943.0,,,,-1.72452664366674,-3.03228091841802,-2.00294690381495,,-2.194078363590065,,
,6465.0,705.0,5404.0,570.0,20.0,2649.0,2943.0,,,,-1.72592210203105,-3.03232012040996,-2.00399809406558,,-2.229067684150984,,
,6462.0,703.0,5400.0,567.0,22.0,2656.0,2928.0,,,,-1.72543746607974,-3.03229341782878,-2.00344562714104,,-2.264763960610003,,
,6460.0,706.0,5401.0,568.0,32.0,2659.0,2930.0,,,,-1.72601215739755,-3.03228212519772,-2.00325311105264,,-2.298643507757582,,
,6460.0,704.0,5401.0,567.0,25.0,2671.0,2954.0,,,,-1.72620610299073,-3.03229396375018,-2.00307195634373,,-2.3263933767539915,,
,6459.0,704.0,5401.0,571.0,7.0,2656.0,2968.0,,,,-1.7253038398386,-3.03228262392887,-2.00334967791751,,-2.3424708409771036,,
,6461.0,704.0,5398.0,570.0,9.0,2637.0,2964.0,,,,-1.72539914417289,-3.03224255974248,-2.00321118735306,,-2.3407296606948194,,
,6460.0,702.0,5399.0,568.0,4.0,2619.0,2976.0,,,,-1.72498436596407,-3.03236807272003,-2.00287100910037,,-2.315039681473918,,
,6461.0,703.0,5401.0,567.0,29.0,2633.0,2963.0,,,,-1.72493740399275,-3.03233777614236,-2.00401686550095,,-2.2598366140247594,,
,6464.0,702.0,5399.0,569.0,22.0,2643.0,2949.0,,,,-1.72588888308541,-3.03231059730729,-2.00271846783133,,-2.1705557973499285,,
,6466.0,704.0,5403.0,568.0,17.0,2639.0,2939.0,,,,-1.72539842700149,-3.03227536651655,-2.0026087837107,,-2.0439236766764686,,
,6463.0,705.0,5403.0,570.0,16.0,2630.0,2935.0,,,,-1.72515214734297,-3.03235011357496,-2.00366306376744,,-1.878100846218251,,
,6467.0,703.0,5402.0,569.0,24.0,2624.0,2959.0,,,,-1.7243178640132,-3.03228431379149,-2.00327725318984,,-1.6726889259898805,,
,6464.0,706.0,5405.0,571.0,32.0,2652.0,2946.0,,,,-1.72454478281186,-3.03230302276095,-2.00342726279909,,-1.4286287789316767,,
,6466.0,707.0,5406.0,570.0,28.0,2665.0,2971.0,,,,-1.72398651745173,-3.03233545783943,-2.00288871589969,,-1.1480283616924492,,
,6467.0,704.0,5405.0,567.0,33.0,2656.0,2969.0,,,,-1.72316713419725,-3.03228779855464,-2.00315571550793,,-0.8339639265364573,,
,6466.0,704.0,5407.0,569.0,33.0,2643.0,2937.0,,,,-1.72501315775057,-3.03233299540762,-2.003658480251,,-0.4902977425036588,,
,6466.0,704.0,5404.0,569.0,37.0,2623.0,2905.0,,,,-1.72542825536657,-3.03231617359511,-2.00281954850977,,-0.12154846452795254,,
,6465.0,705.0,5407.0,571.0,29.0,2650.0,2930.0,,,,-1.72555481074273,-3.03230852022082,-2.00290060873773,,0.26716338853526983,,
,6469.0,706.0,5404.0,570.0,21.0,2649.0,2926.0,,,,-1.72593187508321,-3.03227133027986,-2.00300697318209,,0.6700915994200933,,
,6468.0,705.0,5405.0,570.0,17.0,2650.0,2940.0,,,,-1.72742969534926,-3.03236480356037,-2.00360887739502,,1.0807805831015167,,
,6463.0,704.0,5403.0,571.0,3.0,2654.0,2934.0,,,,-1.72803487497436,-3.03230038707406,-2.00379452041437,,1.4919599849738747,,
,6471.0,704.0,5403.0,568.0,28.0,2614.0,2938.0,,,,-1.72855135322124,-3.03229461133381,-2.00380304078684,,1.8954678652635328,,
,6465.0,705.0,5404.0,569.0,19.0,2637.0,2945.0,,,,-1.72995004099157,-3.03235145002863,-2.00372863336177,,2.282254161321694,,
,6466.0,703.0,5405.0,570.0,12.0,2666.0,2947.0,,,,-1.73111102506572,-3.03236487380509,-2.00437823293817,,2.642506436394898,,
,6469.0,705.0,5401.0,570.0,22.0,2659.0,2960.0,,,,-1.73029443574881,-3.03248841551491,-2.00420835794216,,2.9659219575745777,,
,6466.0,704.0,5403.0,569.0,50.0,2640.0,2956.0,,,,-1.731708484882,-3.03239663645151,-2.00368977370405,,3.2421278747438844,,
,6466.0,705.0,5404.0,570.0,43.0,2647.0,2940.0,,,,-1.73247803990832,-3.03242021816435,-2.00563695592798,,3.4612282576609936,,
,6468.0,703.0,5404.0,568.0,34.0,2666.0,2928.0,,,,-1.7319664676533,-3.03235960800224,-2.00539341256291,,3.6144357161046354,,
,6467.0,705.0,5404.0,568.0,30.0,2634.0,2926.0,,,,-1.73198814965027,-3.03244437637432,-2.00472584121989,,3.6947285043814206,,
,6470.0,704.0,5405.0,570.0,6.0,2659.0,2927.0,,,,-1.73289844079367,-3.03246221945117,-2.0044449025526,,3.6974633435892663,,
,6472.0,702.0,5407.0,571.0,11.0,2666.0,2937.0,,,,-1.73297613660787,-3.03243188149303,-2.0044990941185,,3.6208713018219782,,
,6469.0,703.0,5406.0,570.0,8.0,2650.0,2950.0,,,,-1.73299383718203,-3.03247006400917,-2.00415194702581,,3.4663701750562717,,
,6472.0,701.0,5404.0,570.0,15.0,2661.0,2942.0,,,,-1.73260287237719,-3.03244211775432,-2.00408293440403,,3.238642549816748,,
,6473.0,707.0,5413.0,573.0,35.0,2654.0,2948.0,,,,-1.73196369873574,-3.03240837885656,-2.00405280126418,,2.9454536060541163,,
,6474.0,707.0,5414.0,573.0,27.0,2663.0,2945.0,,,,-1.73295485708564,-3.0323777121061,-2.00510418085693,,2.597214310935322,,
,6477.0,706.0,5414.0,572.0,9.0,2650.0,2961.0,,,,-1.73256581781623,-3.03237924061142,-2.00483853924408,,2.206329146902793,,
,6477.0,704.0,5413.0,571.0,20.0,2665.0,2952.0,,,,-1.73171710844302,-3.03239742557289,-2.0041726518936,,1.7863963174114585,,
,6482.0,705.0,5416.0,575.0,25.0,2634.0,2949.0,,,,-1.73231304330735,-3.03242662406178,-2.00353545709938,,1.3513461660439081,,
,6481.0,707.0,5421.0,571.0,15.0,2661.0,2940.0,,,,-1.73224587932414,-3.03238694847253,-2.00411829956708,,0.9146068843123226,,
,6487.0,706.0,5419.0,575.0,17.0,2668.0,2937.0,,,,-1.73237294520791,-3.03234975926681,-2.00420822321292,,0.48837618616795275,,
,6489.0,707.0,5419.0,575.0,16.0,2660.0,2959.0,,,,-1.73101009107861,-3.03240811341878,-2.00430654726919,,0.08305744416040652,,
,6488.0,708.0,5424.0,575.0,16.0,2635.0,2953.0,,,,-1.73092004377232,-3.0324030238609,-2.00383267234489,,-0.2931061873126002,,
,6491.0,711.0,5426.0,575.0,16.0,2648.0,2972.0,,,,-1.7308294567403,-3.03238225300619,-2.00380663765458,,-0.6341916103762482,,
,6492.0,708.0,5429.0,575.0,19.0,2662.0,2963.0,,,,-1.73047825893309,-3.03244594788093,-2.00476821247934,,-0.936564505615485,,
,6495.0,706.0,5428.0,576.0,9.0,2669.0,2966.0,,,,-1.73005187619013,-3.03244740024037,-2.00387715988182,,-1.198690370354196,,
,6497.0,706.0,5431.0,576.0,25.0,2666.0,2940.0,,,,-1.72901719195147,-3.03246281441958,-2.00389263099026,,-1.4208340750739,,
,6499.0,710.0,5435.0,576.0,29.0,2629.0,2927.0,,,,-1.72883118839135,-3.03242548362223,-2.00434421082455,,-1.6047002873097815,,
,6500.0,707.0,5437.0,580.0,25.0,2640.0,2935.0,,,,-1.73007495839226,-3.03240158344286,-2.00394798267168,,-1.75306601544672,,
,6501.0,708.0,5438.0,576.0,16.0,2659.0,2937.0,,,,-1.72846838770332,-3.03245721821724,-2.00405831499335,,-1.8694480281263344,,
,6502.0,711.0,5442.0,576.0,11.0,2649.0,2932.0,,,,-1.72808881433769,-3.03239584595189,-2.00447482292541,,-1.95783287578206,,
,6504.0,709.0,5444.0,579.0,15.0,2657.0,2955.0,,,,-1.72977912746911,-3.03236934693355,-2.00428183980934,,-2.022478051375685,,
,6508.0,710.0,5445.0,578.0,24.0,2653.0,2959.0,,,,-1.72805208771096,-3.03239883278288,-2.00410991392062,,-2.0677733627195845,,
,6506.0,709.0,5448.0,577.0,24.0,2644.0,2947.0,,,,-1.72893570901017,-3.03236389509738,-2.00399573366649,,-2.098136520310435,,
,6512.0,709.0,5451.0,579.0,15.0,2637.0,2964.0,,,,-1.72763257392034,-3.03245876905323,-2.00383528789331,,-2.117910180422707,,
,6516.0,710.0,5452.0,581.0,8.0,2661.0,2947.0,,,,-1.72949645136941,-3.03241091317534,-2.00382838610212,,-2.1312306603203464,,
,6517.0,711.0,5454.0,580.0,6.0,2650.0,2938.0,,,,-1.727608981828,-3.03241440595987,-2.00460351457118,,-2.1418496402758804,,
,6517.0,712.0,5455.0,578.0,21.0,2625.0,2952.0,,,,-1.7280735902376,-3.032445675614,-2.0037214701134,,-2.1529057439936405,,
,6520.0,712.0,5458.0,581.0,29.0,2631.0,2936.0,,,,-1.72925151124103,-3.03249134657479,-2.00368373017397,,-2.166659035322792,,
,6522.0,712.0,5464.0,583.0,28.0,2639.0,2939.0,,,,-1.72961634305952,-3.0324556458511,-2.0044171920006,,-2.184215205375035,,
,6525.0,713.0,5463.0,582.0,31.0,2642.0,2933.0,,,,-1.72894042328444,-3.03243864911095,-2.004063771625,,-2.205275730185674,,
,6527.0,711.0,5466.0,582.0,35.0,2658.0,2921.0,,,,-1.72873106796573,-3.0324696182312,-2.00443805367075,,-2.227954613702603,,
,6526.0,710.0,5467.0,579.0,29.0,2664.0,2922.0,,,,-1.72927705531153,-3.03231999100363,-2.00441739219694,,-2.2487011279234643,,
,6526.0,713.0,5468.0,582.0,29.0,2662.0,2943.0,,,,-1.72966465341009,-3.03245154148806,-2.00429664510859,,-2.262361183749282,,
,6534.0,714.0,5474.0,582.0,19.0,2664.0,2945.0,,,,-1.72900506926056,-3.03244263187659,-2.00477201289171,,-2.2623977479287385,,
,6535.0,712.0,5476.0,583.0,27.0,2657.0,2931.0,,,,-1.72854601566294,-3.03245490568821,-2.00481701190614,,-2.241273535579037,,
,6533.0,712.0,5476.0,581.0,21.0,2641.0,2929.0,,,,-1.72790579423831,-3.03242883131166,-2.00408165087978,,-2.1909783937861174,,
,6538.0,716.0,5478.0,584.0,15.0,2620.0,2947.0,,,,-1.72864510622686,-3.03244356012081,-2.00388317594134,,-2.1036620884130772,,
,6542.0,715.0,5482.0,585.0,6.0,2645.0,2939.0,,,,-1.72935935894074,-3.03243001519114,-2.0036318121056,,-1.9723148034839526,,
,6542.0,718.0,5486.0,584.0,3.0,2650.0,2953.0,,,,-1.72882175657614,-3.03246056347341,-2.00361993798719,,-1.791427309360842,,
,6544.0,715.0,5484.0,584.0,21.0,2658.0,2949.0,,,,-1.72899703671665,-3.03244439101487,-2.00429079787196,,-1.5575637979995491,,
,6545.0,717.0,5488.0,585.0,30.0,2656.0,2961.0,,,,-1.72778609288218,-3.03241116309061,-2.00421181708894,,-1.26979277529299,,
,6548.0,720.0,5490.0,584.0,31.0,2659.0,2939.0,,,,-1.72865167884299,-3.03244754124041,-2.00332858821751,,-0.9299414217782758,,
,6552.0,718.0,5493.0,587.0,30.0,2664.0,2941.0,,,,-1.7282269838446,-3.03241388566279,-2.00412948562143,,-0.5426609683656495,,
,6552.0,717.0,5497.0,589.0,31.0,2676.0,2945.0,,,,-1.72865311771342,-3.03232482650874,-2.00404662467348,,-0.11531014270898798,,
,6554.0,717.0,5497.0,584.0,28.0,2666.0,2980.0,,,,-1.72878275522235,-3.03236426765781,-2.00447962616308,,0.34232191404420653,,
,6555.0,721.0,5498.0,588.0,27.0,2631.0,2945.0,,,,-1.72803375495156,-3.03231858893572,-2.00358769470995,,0.8184231624775387,,
,6559.0,720.0,5503.0,589.0,28.0,2632.0,2941.0,,,,-1.72885606000957,-3.03237247989824,-2.00347396585683,,1.2996627077312795,,
,6559.0,716.0,5504.0,586.0,24.0,2652.0,2923.0,,,,-1.72863312749027,-3.03237030203941,-2.0028969792464,,1.7717572944679152,,
,6560.0,716.0,5502.0,584.0,24.0,2639.0,2958.0,,,,-1.7283324667469,-3.03240986957247,-2.00421498685977,,2.220068466603181,,
,6560.0,718.0,5505.0,589.0,16.0,2641.0,2952.0,,,,-1.72873343381993,-3.03234439939107,-2.00362892760749,,2.6302026228358706,,
,6557.0,719.0,5504.0,589.0,18.0,2665.0,2939.0,,,,-1.72830889278236,-3.03235756016412,-2.00316304372173,,2.9885915748933107,,
,6555.0,720.0,5502.0,584.0,11.0,2667.0,2962.0,,,,-1.72742803815976,-3.03231170569141,-2.00405631801225,,3.2830374054108296,,
,6551.0,718.0,5497.0,583.0,8.0,2641.0,2959.0,,,,-1.72835040738226,-3.03238847772,-2.00324421398215,,3.5032111608867753,,
,6544.0,715.0,5491.0,581.0,14.0,2612.0,2977.0,,,,-1.72707866030968,-3.03239979599332,-2.00351927300986,,3.641098174998865,,
,6541.0,716.0,5484.0,581.0,20.0,2642.0,2957.0,,,,-1.72634466824528,-3.03238808811554,-2.00366272202232,,3.6913817177395294,,
,6535.0,715.0,5478.0,580.0,23.0,2653.0,2953.0,,,,-1.72704910316169,-3.03239724462001,-2.0036208174898,,3.6517510335355556,,
,6527.0,713.0,5473.0,576.0,22.0,2650.0,2945.0,,,,-1.72675078321935,-3.03238514936725,-2.00289910167996,,3.5231120479646023,,
,6524.0,711.0,5465.0,577.0,41.0,2656.0,2949.0,,,,-1.72729793132486,-3.03241903118226,-2.00453883354489,,3.3096730876217877,,
,6521.0,712.0,5462.0,575.0,37.0,2674.0,2939.0,,,,-1.72622786715302,-3.03233012565834,-2.00321822776435,,3.018877474990851,,
,6517.0,712.0,5458.0,577.0,31.0,2676.0,2933.0,,,,-1.72679577923798,-3.03237238823869,-2.00328381744215,,2.6611615169940417,,
,6513.0,712.0,5451.0,574.0,25.0,2670.0,2938.0,,,,-1.72571350654133,-3.03232432125693,-2.00370250027496,,2.2495296443009267,,
,6508.0,710.0,5449.0,574.0,24.0,2663.0,2940.0,,,,-1.72692849104195,-3.03235946825034,-2.00366697527287,,1.7989559600318383,,
,6507.0,715.0,5447.0,577.0,28.0,2663.0,2925.0,,,,-1.72634482028352,-3.03242453777585,-2.0039180681984,,1.3256399491339557,,
,6505.0,713.0,5444.0,574.0,32.0,2661.0,2915.0,,,,-1.72627655068766,-3.03239627382107,-2.00331578606554,,0.8461603809524535,,
,6502.0,708.0,5440.0,573.0,28.0,2674.0,2937.0,,,,-1.72659594069579,-3.03235601485671,-2.00398051343212,,0.3765833764790491,,
,6503.0,710.0,5440.0,573.0,48.0,2666.0,2938.0,,,,-1.72649521041727,-3.03235044853812,-2.00356605781665,,-0.06841248929561483,,
,6501.0,711.0,5440.0,574.0,47.0,2652.0,2929.0,,,,-1.72634011599678,-3.03233272850745,-2.00337416755479,,-0.4763291366620564,,
,6497.0,713.0,5438.0,574.0,40.0,2635.0,2951.0,,,,-1.72524561472416,-3.03236243780528,-2.00334804085258,,-0.8374977818308579,,
,6499.0,710.0,5436.0,574.0,31.0,2644.0,2961.0,,,,-1.72639417738549,-3.03235259624566,-2.00389014197105,,-1.1455294194285945,,
,6498.0,711.0,5436.0,575.0,28.0,2650.0,2958.0,,,,-1.72593565908821,-3.03228517440788,-2.00336264748605,,-1.3975270152130659,,
,6501.0,711.0,5439.0,575.0,15.0,2661.0,2946.0,,,,-1.72616720121103,-3.03232568790015,-2.00392039897194,,-1.594039709670288,,
,6500.0,710.0,5439.0,575.0,31.0,2644.0,2946.0,,,,-1.72592245244679,-3.03238551851368,-2.00323332989664,,-1.7387635972325313,,
,6501.0,711.0,5439.0,576.0,32.0,2643.0,2949.0,,,,-1.72615573466216,-3.0323210588614,-2.00333792584057,,-1.8380181278154644,,
,6499.0,711.0,5439.0,576.0,38.0,2644.0,2944.0,,,,-1.72738648505091,-3.03230062908926,-2.00334127142308,,-1.9000479419536815,,
,6503.0,714.0,5441.0,576.0,22.0,2630.0,2927.0,,,,-1.72767402445956,-3.03227122877802,-2.00358881833487,,-1.9342143418510283,,
,6500.0,709.0,5439.0,574.0,16.0,2631.0,2939.0,,,,-1.72806793435148,-3.03228796030919,-2.00314664738534,,-1.9501476414534664,,
,6506.0,712.0,5442.0,577.0,17.0,2641.0,2935.0,,,,-1.72698711191666,-3.03235874911676,-2.00352614584107,,-1.9569316108376134,,
,6502.0,711.0,5442.0,574.0,20.0,2633.0,2957.0,,,,-1.7279631698495,-3.03239734022563,-2.00338377676885,,-1.9623850954089004,,
,6503.0,710.0,5446.0,578.0,24.0,2652.0,2948.0,,,,-1.72762069880037,-3.03242504496058,-2.00372879774933,,-1.9724948314066395,,
,6506.0,710.0,5444.0,577.0,27.0,2652.0,2939.0,,,,-1.72733957443658,-3.03237314118503,-2.00393364309849,,-1.9910385441739498,,
2025-07-15 18:10:17,6507.0,713.0,5447.0,577.0,24.0,2651.0,2945.0,,,2025/07/15 06:10:17 PM,-1.7269694807267,-3.03226992668324,-2.0033435481328,,-2.019419410356687,,
,6508.0,712.0,5446.0,579.0,24.0,2680.0,2945.0,,,,-1.72640922675069,-3.03234703318752,-2.00314554659636,,-2.0567127618476286,,
,6509.0,711.0,5448.0,577.0,38.0,2665.0,2955.0,,,,-1.7266413616266,-3.03235663843625,-2.00389441175857,,-2.09990499707546,,
,6507.0,713.0,5448.0,579.0,24.0,2646.0,2956.0,,,,-1.72727768099146,-3.03229604052942,-2.00326001598273,,-2.1442855476811955,,
,6510.0,713.0,5450.0,578.0,36.0,2650.0,2952.0,,,,-1.72670686354697,-3.0323430526734,-2.0033994590222,,-2.1839387478374515,,
,6510.0,714.0,5451.0,578.0,37.0,2663.0,2941.0,,,,-1.72729002054967,-3.03229007066157,-2.00321070015924,,-2.212276600465458,,
,6509.0,713.0,5452.0,577.0,27.0,2632.0,2961.0,,,,-1.7278455964499,-3.03228263410623,-2.00310379697604,,-2.222556866911032,,
,6511.0,712.0,5451.0,578.0,24.0,2632.0,2973.0,,,,-1.72738875067002,-3.03224547292981,-2.00300995801958,,-2.208342028999478,,
,6510.0,711.0,5452.0,577.0,26.0,2647.0,2972.0,,,,-1.72676140606522,-3.03223490983522,-2.00297973739655,,-2.1638699445575837,,
,6509.0,711.0,5449.0,577.0,13.0,2646.0,2951.0,,,,-1.72801038861586,-3.03226902624704,-2.00338319563606,,-2.08432278065344,,
,6509.0,712.0,5449.0,576.0,28.0,2651.0,2937.0,,,,-1.72857871988626,-3.03232812755878,-2.00324465805692,,-1.9659947019325756,,
,6510.0,715.0,5450.0,579.0,19.0,2661.0,2956.0,,,,-1.72972992174095,-3.03235628494154,-2.00375635193601,,-1.8063699562034166,,
,6509.0,711.0,5450.0,574.0,14.0,2661.0,2949.0,,,,-1.73013800274675,-3.032282656831,-2.00420339263272,,-1.6041314576867467,,
,6507.0,713.0,5451.0,576.0,6.0,2661.0,2914.0,,,,-1.73176470017619,-3.0323421152396,-2.00353758853704,,-1.359125869927854,,
,6507.0,711.0,5449.0,576.0,22.0,2664.0,2932.0,,,,-1.73300112451522,-3.03237112168473,-2.00535945567854,,-1.0723142171444924,,
,6511.0,711.0,5452.0,578.0,30.0,2656.0,2930.0,,,,-1.73156573024708,-3.03239259009891,-2.00458155247134,,-0.745736161793052,,
,6509.0,713.0,5451.0,577.0,21.0,2656.0,2942.0,,,,-1.73244562304836,-3.03242411666254,-2.00435387770295,,-0.38250992951806845,,
,6511.0,714.0,5451.0,577.0,20.0,2663.0,2932.0,,,,-1.73414908962229,-3.03240364360058,-2.00481104443585,,0.013122136779240914,,
,6510.0,712.0,5449.0,577.0,10.0,2642.0,2928.0,,,,-1.73468120206296,-3.03236971327447,-2.0050908867169,,0.4357089626836061,,
,6510.0,712.0,5451.0,577.0,21.0,2645.0,2939.0,,,,-1.73400551194112,-3.03242591978004,-2.00527119294813,,0.878491218119502,,
,6513.0,715.0,5454.0,579.0,21.0,2665.0,2928.0,,,,-1.73377027994155,-3.03245409203865,-2.0057636641311,,1.3333248114108227,,
,6516.0,713.0,5455.0,580.0,35.0,2654.0,2947.0,,,,-1.73367740468517,-3.03245335108498,-2.0048170430543,,1.7906712258755428,,
,6512.0,712.0,5456.0,576.0,25.0,2667.0,2961.0,,,,-1.7350467248261,-3.03243130427089,-2.00527219383476,,2.2396951117209385,,
,6516.0,713.0,5459.0,579.0,28.0,2664.0,2960.0,,,,-1.73498234018331,-3.03241041308841,-2.00491959404906,,2.6684982499538594,,
,6519.0,713.0,5458.0,581.0,24.0,2670.0,2962.0,,,,-1.73481576739168,-3.03241173641007,-2.00487424905248,,3.064502665018635,,
,6518.0,715.0,5463.0,580.0,37.0,2655.0,2955.0,,,,-1.73472521559778,-3.03234120550554,-2.00538081408705,,3.4149769254727955,,
,6521.0,714.0,5462.0,579.0,26.0,2654.0,2940.0,,,,-1.73407152917429,-3.03240561440534,-2.00425035728507,,3.7076803664052886,,
,6524.0,716.0,5465.0,581.0,31.0,2630.0,2949.0,,,,-1.73442047161715,-3.03235615634455,-2.00491023422605,,3.931581484390277,,
,6524.0,715.0,5467.0,582.0,27.0,2624.0,2957.0,,,,-1.73370572685073,-3.03236833900907,-2.00512843063729,,4.077590733469421,,
,6527.0,716.0,5470.0,584.0,19.0,2622.0,2970.0,,,,-1.7338329406456,-3.03237639761637,-2.00500697343841,,4.139236694039418,,
,6526.0,715.0,5469.0,581.0,23.0,2660.0,2942.0,,,,-1.73408281093771,-3.03243156361239,-2.00402298524155,,4.11321096128485,,
,6529.0,713.0,5471.0,580.0,23.0,2639.0,2932.0,,,,-1.732546278004,-3.03239830897336,-2.00512572254848,,3.999713767852366,,
,6531.0,716.0,5474.0,584.0,13.0,2648.0,2908.0,,,,-1.73305910884487,-3.03242416204632,-2.0042235395094,,3.802550531488286,,
,6533.0,719.0,5479.0,586.0,15.0,2666.0,2926.0,,,,-1.73293539030838,-3.03246131483409,-2.00468465030537,,3.528957788755519,,
,6532.0,713.0,5476.0,583.0,13.0,2657.0,2961.0,,,,-1.73219624173623,-3.0324370134126,-2.00501104749833,,3.189170810701589,,
,6536.0,718.0,5481.0,582.0,22.0,2664.0,2948.0,,,,-1.73330701101317,-3.03242517122719,-2.00451446686243,,2.795777753545023,,
,6539.0,718.0,5482.0,587.0,23.0,2652.0,2945.0,,,,-1.73110134991902,-3.03233566781284,-2.00473582293153,,2.362929594339996,,
,6540.0,718.0,5486.0,586.0,19.0,2659.0,2957.0,,,,-1.73222308971627,-3.03241219927074,-2.00482957791231,,1.9054870906989856,,
,6541.0,717.0,5488.0,587.0,22.0,2635.0,2944.0,,,,-1.73147591594038,-3.03246982831949,-2.00456617793361,,1.438185177487286,,
,6546.0,717.0,5490.0,586.0,38.0,2624.0,2935.0,,,,-1.73162435979994,-3.03242697350584,-2.00487948058975,,0.974884066354977,,
,6549.0,720.0,5494.0,586.0,28.0,2630.0,2936.0,,,,-1.73173194519372,-3.03241896841201,-2.00483931316738,,0.5279584319504205,,
,6547.0,718.0,5494.0,589.0,9.0,2657.0,2948.0,,,,-1.7303705163028,-3.03243229496998,-2.00479200245177,,0.10785491449111449,,
,6552.0,719.0,5494.0,587.0,19.0,2652.0,2946.0,,,,-1.7304810890676,-3.03240789430084,-2.00504434093098,,-0.2771733056380281,,
,6551.0,718.0,5496.0,585.0,31.0,2648.0,2948.0,,,,-1.7305350848613,-3.03241799814237,-2.00411451874485,,-0.6211655049888422,,
,6554.0,717.0,5501.0,587.0,25.0,2634.0,2947.0,,,,-1.73108666365784,-3.03236662721045,-2.00444851801278,,-0.9204120553661894,,
,6557.0,721.0,5502.0,588.0,31.0,2638.0,2973.0,,,,-1.73153215169465,-3.03245240134911,-2.00521004544107,,-1.1733086518960854,,
,6557.0,721.0,5506.0,589.0,26.0,2639.0,2952.0,,,,-1.73036614631685,-3.0323409415463,-2.00374250016274,,-1.3801451772894089,,
,6558.0,717.0,5505.0,586.0,22.0,2677.0,2942.0,,,,-1.73112693945431,-3.03241974121939,-2.004519526,,-1.5428641512590602,,
,6563.0,723.0,5509.0,589.0,23.0,2663.0,2940.0,,,,-1.73124184057035,-3.03240621181184,-2.00421716254389,,-1.6648134582234138,,
,6564.0,720.0,5511.0,590.0,22.0,2641.0,2967.0,,,,-1.73225652417513,-3.03241395713323,-2.00497555303295,,-1.7505043408599628,,
,6568.0,721.0,5514.0,591.0,25.0,2632.0,2959.0,,,,-1.73213855983083,-3.03238146311297,-2.00428133534847,,-1.8053724145872303,,
,6569.0,720.0,5514.0,589.0,18.0,2623.0,2938.0,,,,-1.73216183111744,-3.03244016475972,-2.0044278428983,,-1.835530625319046,,
,6571.0,723.0,5517.0,589.0,12.0,2638.0,2938.0,,,,-1.73302773603009,-3.03249706712652,-2.00407358701353,,-1.8475009478965805,,
,6572.0,723.0,5521.0,590.0,30.0,2653.0,2964.0,,,,-1.73202958222181,-3.03246426925925,-2.00530095806697,,-1.8479159203679927,,
,6575.0,725.0,5524.0,592.0,16.0,2641.0,2931.0,,,,-1.73258918655692,-3.03239789322279,-2.00547564278205,,-1.8431894884791533,,
,6576.0,723.0,5524.0,588.0,4.0,2666.0,2928.0,,,,-1.73197696323542,-3.0324127129959,-2.00449476002954,,-1.8391662607414057,,
,6577.0,721.0,5526.0,593.0,21.0,2682.0,2913.0,,,,-1.73268519174426,-3.03238042780978,-2.004928388127,,-1.8407670440600545,,
,6576.0,723.0,5529.0,592.0,20.0,2665.0,2949.0,,,,-1.73260116621924,-3.03245149372232,-2.00384283102571,,-1.8516552606465984,,
,6582.0,723.0,5532.0,593.0,21.0,2647.0,2963.0,,,,-1.73250720523216,-3.03240338295814,-2.00495466677326,,-1.8739529037195017,,
,6582.0,725.0,5532.0,592.0,29.0,2633.0,2942.0,,,,-1.73201470836769,-3.03243965797472,-2.00539116728556,,-1.9080356916475116,,
,6584.0,724.0,5535.0,590.0,25.0,2635.0,2959.0,,,,-1.73216842633702,-3.03238964617308,-2.00465018074602,,-1.9524347329701326,,
,6585.0,725.0,5537.0,592.0,19.0,2637.0,2948.0,,,,-1.73268911991875,-3.03244996968208,-2.00485535758904,,-2.0038659620244497,,
,6586.0,722.0,5536.0,593.0,14.0,2638.0,2960.0,,,,-1.73288695579776,-3.03246342890395,-2.00417390302441,,-2.0573985262263297,,
,6584.0,727.0,5540.0,592.0,18.0,2647.0,2944.0,,,,-1.7316628173577,-3.0323689767866,-2.00430925705822,,-2.106759398013005,,
,6585.0,723.0,5536.0,590.0,14.0,2657.0,2944.0,,,,-1.73195913838861,-3.03245051961691,-2.0045935125268,,-2.144755046603344,,
,6581.0,724.0,5535.0,588.0,18.0,2682.0,2939.0,,,,-1.7331251954805,-3.03247779777184,-2.00428718039489,,-2.1637747434848547,,
,6577.0,723.0,5530.0,588.0,2.0,2667.0,2956.0,,,,-1.73230065947639,-3.03236923923015,-2.00514218056258,,-2.1563277526915847,,
,6571.0,722.0,5527.0,588.0,6.0,2660.0,2948.0,,,,-1.73274814654096,-3.03238064149282,-2.00447723739001,,-2.115561795625539,,
,6568.0,721.0,5519.0,583.0,7.0,2651.0,2953.0,,,,-1.73173228736218,-3.03238273999393,-2.00463219062274,,-2.0357143359258605,,
,6563.0,721.0,5518.0,585.0,35.0,2632.0,2957.0,,,,-1.73209937282918,-3.03239940297551,-2.00452066255477,,-1.9124601747219072,,
,6556.0,719.0,5508.0,582.0,20.0,2633.0,2971.0,,,,-1.73289852252404,-3.03238145698964,-2.00489773761611,,-1.7431354120344658,,
,6551.0,722.0,5503.0,583.0,16.0,2630.0,2960.0,,,,-1.73158408550908,-3.03228763003942,-2.0037749390669,,-1.5268355507181917,,
,6544.0,716.0,5494.0,579.0,20.0,2653.0,2937.0,,,,-1.73178169003079,-3.03236086370725,-2.00436420019637,,-1.2644016091774395,,
,6539.0,717.0,5491.0,580.0,19.0,2642.0,2950.0,,,,-1.73246471265286,-3.03228403169288,-2.00440026207127,,-0.9583204535382724,,
,6534.0,719.0,5487.0,579.0,20.0,2650.0,2939.0,,,,-1.73163892144392,-3.03228370904929,-2.00447656401421,,-0.6125726580192786,,
,6533.0,718.0,5486.0,580.0,28.0,2637.0,2948.0,,,,-1.73221444524143,-3.03233654410006,-2.00483462215267,,-0.23246247760928931,,
,6530.0,717.0,5479.0,578.0,34.0,2623.0,2934.0,,,,-1.73203326429129,-3.03237725692601,-2.00433928326453,,0.17553973940813705,,
,6523.0,716.0,5474.0,577.0,35.0,2651.0,2931.0,,,,-1.73097452289131,-3.03234930419017,-2.00390252018682,,0.6039216214959565,,
,6522.0,714.0,5477.0,577.0,16.0,2651.0,2942.0,,,,-1.73183952289578,-3.03238768950548,-2.00470061800645,,1.0442119043124762,,
,6522.0,714.0,5470.0,578.0,23.0,2669.0,2957.0,,,,-1.73116867478679,-3.03239799801833,-2.00476196790828,,1.4870319843851305,,
,6520.0,716.0,5471.0,578.0,19.0,2650.0,2953.0,,,,-1.73116650955211,-3.03243857255434,-2.00409053359072,,1.9221425146083584,,
,6517.0,712.0,5467.0,576.0,22.0,2653.0,2964.0,,,,-1.73069854110228,-3.03233006992578,-2.0045059348945,,2.3385253446771026,,
,6516.0,712.0,5469.0,579.0,9.0,2674.0,2943.0,,,,-1.72999015915494,-3.03232226446243,-2.00345427033464,,2.7245467321976937,,
,6516.0,714.0,5467.0,578.0,38.0,2666.0,2938.0,,,,-1.73072590254816,-3.03237885817366,-2.00481150628429,,3.0682421334860166,,
,6517.0,713.0,5468.0,579.0,31.0,2659.0,2952.0,,,,-1.73094409345233,-3.03232064162877,-2.00426167801196,,3.357745873883051,,
,6515.0,713.0,5465.0,577.0,26.0,2632.0,2965.0,,,,-1.73032432346157,-3.032391712213,-2.00383036111375,,3.581863754116672,,
,6516.0,713.0,5467.0,578.0,26.0,2640.0,2945.0,,,,-1.73033595741235,-3.03232976159879,-2.00362597810247,,3.7307582187134316,,
,6518.0,717.0,5468.0,579.0,14.0,2661.0,2953.0,,,,-1.72942515060937,-3.03237302710033,-2.00375734652845,,3.7966892143203004,,
,6518.0,715.0,5469.0,579.0,16.0,2663.0,2959.0,,,,-1.72948564036723,-3.03235714285172,-2.00519469929381,,3.7747335594375317,,
,6512.0,712.0,5465.0,578.0,21.0,2643.0,2955.0,,,,-1.72925937810711,-3.03235883317195,-2.00411287925779,,3.6633948142989614,,
,6515.0,716.0,5467.0,579.0,33.0,2629.0,2963.0,,,,-1.72963785485772,-3.03228544983854,-2.00464780735293,,3.4650165313269343,,
,6518.0,719.0,5471.0,581.0,22.0,2628.0,2937.0,,,,-1.72981197322859,-3.03243880918236,-2.00430880701684,,3.1859253241266057,,
,6519.0,717.0,5472.0,580.0,26.0,2617.0,2931.0,,,,-1.73016717129124,-3.03233325518532,-2.00445105820774,,2.8362557719252153,,
,6515.0,711.0,5467.0,580.0,5.0,2647.0,2973.0,,,,-1.72963939375126,-3.03239254992706,-2.00424111718684,,2.4294443960656875,,
,6522.0,716.0,5473.0,582.0,11.0,2681.0,2960.0,,,,-1.73052271791883,-3.03234401440634,-2.00417632979704,,1.9814206127380787,,
,6521.0,717.0,5474.0,581.0,18.0,2661.0,2949.0,,,,-1.73002528381429,-3.03239572024409,-2.00485610959528,,1.5095628355335295,,
,6521.0,717.0,5475.0,582.0,15.0,2644.0,2946.0,,,,-1.73012413505533,-3.03236007583821,-2.00472130309117,,1.031520979079414,,
,6520.0,716.0,5475.0,578.0,14.0,2624.0,2944.0,,,,-1.7300102616816,-3.03236834668407,-2.00453650999697,,0.5640261289855399,,
,6521.0,712.0,5477.0,579.0,6.0,2636.0,2942.0,,,,-1.73082466686873,-3.03238344468695,-2.00393705600789,,0.12180995924375744,,
,6520.0,716.0,5478.0,582.0,20.0,2648.0,2942.0,,,,-1.72932564448589,-3.03235496679561,-2.0041735473078,,-0.28325973308507424,,
,6521.0,715.0,5475.0,579.0,19.0,2640.0,2950.0,,,,-1.72939616087098,-3.0323584989747,-2.00420285098187,,-0.6427514604134087,,
,6523.0,716.0,5479.0,581.0,20.0,2620.0,2959.0,,,,-1.73056344272281,-3.03233316171431,-2.00371097592564,,-0.9519127173809665,,
,6521.0,714.0,5476.0,580.0,9.0,2617.0,2966.0,,,,-1.72987204813702,-3.03226480535365,-2.00357154692161,,-1.2095841602020396,,
,6521.0,715.0,5477.0,578.0,15.0,2626.0,2967.0,,,,-1.73035246186728,-3.03234714045873,-2.00471597821001,,-1.4178208586917727,,
,6520.0,717.0,5476.0,577.0,14.0,2641.0,2970.0,,,,-1.73041380862615,-3.03231059001754,-2.00407274373141,,-1.5812824081688388,,
,6521.0,717.0,5480.0,579.0,15.0,2654.0,2968.0,,,,-1.7291153112681,-3.03237917262357,-2.00460847998783,,-1.7064703656459281,,
,6519.0,714.0,5475.0,577.0,9.0,2644.0,2943.0,,,,-1.73068565373477,-3.03227795633826,-2.00399503773012,,-1.80089853674333,,
,6517.0,714.0,5476.0,581.0,25.0,2644.0,2944.0,,,,-1.72971500717717,-3.03226332815633,-2.00459468933163,,-1.8722797971518197,,
,6521.0,714.0,5475.0,577.0,30.0,2645.0,2945.0,,,,-1.73090816873459,-3.03232855216325,-2.00353922103077,,-1.92780334884507,,
,6520.0,716.0,5476.0,580.0,35.0,2649.0,2944.0,,,,-1.73096926525012,-3.03241865816424,-2.00480859968631,,-1.9735596524235863,,
,6521.0,714.0,5478.0,578.0,43.0,2649.0,2981.0,,,,-1.7311647082185,-3.0323766227929,-2.00443796166165,,-2.0141482300583093,,
,6520.0,714.0,5477.0,579.0,47.0,2638.0,2965.0,,,,-1.73194358540691,-3.0323436264927,-2.00492846033886,,-2.0524784968320606,,
,6525.0,716.0,5478.0,583.0,35.0,2641.0,2947.0,,,,-1.73176818583086,-3.03242895753367,-2.0047190882384,,-2.089749309681415,,
,6521.0,717.0,5479.0,580.0,20.0,2633.0,2948.0,,,,-1.73279730603141,-3.03236138933597,-2.0044802634276,,-2.12557331971399,,
,6523.0,714.0,5480.0,579.0,16.0,2619.0,2945.0,,,,-1.73235649613457,-3.03241747412406,-2.00525267991669,,-2.158201150275073,,
,6524.0,716.0,5480.0,580.0,26.0,2632.0,2961.0,,,,-1.73389673227182,-3.03243243313752,-2.00544457708836,,-2.184799247646286,,
,6523.0,718.0,5483.0,581.0,19.0,2649.0,2955.0,,,,-1.73390071253228,-3.03248773250657,-2.00549190367066,,-2.201742302260797,,
,6526.0,717.0,5484.0,583.0,15.0,2647.0,2962.0,,,,-1.7341008301079,-3.03244835691889,-2.00536758418073,,-2.204892753626996,,
,6529.0,716.0,5484.0,584.0,26.0,2636.0,2985.0,,,,-1.73499736647896,-3.03245285765998,-2.00611911790212,,-2.1898522844383996,,
,6529.0,719.0,5485.0,583.0,23.0,2633.0,2976.0,,,,-1.73518208571358,-3.03250341305186,-2.00645286022082,,-2.152180829664288,,
,6532.0,719.0,5491.0,582.0,12.0,2632.0,2973.0,,,,-1.73493464453373,-3.03247681685738,-2.00545493884872,,-2.0875864085542926,,
,6532.0,719.0,5491.0,585.0,19.0,2636.0,2981.0,,,,-1.73498650569602,-3.03250137038514,-2.00571542970949,,-1.9920939929070927,,
,6535.0,719.0,5494.0,584.0,30.0,2653.0,2940.0,,,,-1.73565446532694,-3.03251268107255,-2.0062595660037,,-1.8622041184890334,,
,6535.0,721.0,5492.0,584.0,10.0,2660.0,2941.0,,,,-1.73548045769772,-3.03247694176962,-2.00592242626513,,-1.6950525566292334,,
,6536.0,716.0,5494.0,586.0,27.0,2641.0,2973.0,,,,-1.73553016291717,-3.03246374979007,-2.00542255389993,,-1.4885812381136392,,
,6542.0,722.0,5501.0,588.0,26.0,2618.0,2972.0,,,,-1.73595806698066,-3.03242417520509,-2.00516148223401,,-1.2417272919024553,,
,6539.0,719.0,5499.0,584.0,5.0,2666.0,2963.0,,,,-1.73442175880059,-3.03250662217013,-2.00523750218046,,-0.9546307831621077,,
,6543.0,719.0,5501.0,586.0,12.0,2655.0,2941.0,,,,-1.73405873115959,-3.03245262007522,-2.00586897243284,,-0.6288523836243768,,
2025-07-15 18:10:18,6542.0,722.0,5503.0,585.0,16.0,2640.0,2934.0,,,2025/07/15 06:10:18 PM,-1.73297619199924,-3.03243612937344,-2.00606138219393,,-0.2675811602301623,,
,6547.0,720.0,5505.0,590.0,33.0,2643.0,2950.0,,,,-1.73422049274411,-3.03248154425799,-2.00465620731329,,0.12419709635297042,,
,6548.0,721.0,5511.0,588.0,40.0,2652.0,2953.0,,,,-1.73372032915376,-3.03247331325502,-2.00563139990372,,0.539605657590929,,
,6550.0,723.0,5511.0,587.0,34.0,2641.0,2958.0,,,,-1.7327521352484,-3.0324031875686,-2.00524605749531,,0.9698898229087763,,
,6550.0,721.0,5512.0,586.0,35.0,2641.0,2946.0,,,,-1.73251563463255,-3.03241498933295,-2.00509014393605,,1.404562329755479,,
,6554.0,725.0,5515.0,590.0,21.0,2654.0,2935.0,,,,-1.73192602758138,-3.03236222411941,-2.00455187882858,,1.8316945927248016,,
,6554.0,724.0,5520.0,588.0,16.0,2662.0,2955.0,,,,-1.73238270438395,-3.03248141165792,-2.00589481876583,,2.238353398541026,,
,6555.0,721.0,5519.0,588.0,-1.0,2668.0,2966.0,,,,-1.73152042406529,-3.03236419825729,-2.00589150120424,,2.6111683700618675,,
,6558.0,722.0,5523.0,589.0,17.0,2642.0,2953.0,,,,-1.73203670470644,-3.03236886380074,-2.00516545815124,,2.9370013037450655,,
,6561.0,724.0,5523.0,589.0,25.0,2617.0,2963.0,,,,-1.73194852480221,-3.0324893870087,-2.00510292432599,,3.2036750456885157,,
,6564.0,724.0,5529.0,593.0,23.0,2629.0,2936.0,,,,-1.73133430921483,-3.03245219241674,-2.00582158477642,,3.400708026139832,,
,6563.0,724.0,5527.0,589.0,14.0,2651.0,2954.0,,,,-1.73147883314844,-3.03244985373628,-2.00490064486479,,3.5199926575226974,,
,6566.0,721.0,5528.0,589.0,28.0,2628.0,2969.0,,,,-1.73092285136541,-3.0324322111854,-2.00449776877857,,3.5563536982642114,,
,6568.0,722.0,5533.0,592.0,32.0,2626.0,2970.0,,,,-1.7303390947129,-3.03234498208706,-2.00532575382505,,3.5079284511870816,,
,6569.0,726.0,5536.0,591.0,24.0,2628.0,2961.0,,,,-1.7308242460199,-3.03248248127535,-2.00595894313567,,3.3763253581335526,,
,6574.0,723.0,5537.0,590.0,38.0,2639.0,2922.0,,,,-1.73133280578758,-3.03246949712043,-2.00574328765708,,3.1665403030614674,,
,6572.0,724.0,5539.0,591.0,25.0,2638.0,2954.0,,,,-1.7322716798782,-3.03248456670083,-2.00400169310835,,2.8866373956915816,,
,6575.0,725.0,5544.0,593.0,18.0,2650.0,2952.0,,,,-1.73164222279007,-3.03246276047316,-2.00471025430372,,2.5472278828400667,,
,6579.0,727.0,5545.0,596.0,10.0,2653.0,2943.0,,,,-1.73282031855281,-3.03246986438147,-2.00500298396174,,2.160801731968542,,
,6579.0,727.0,5548.0,594.0,19.0,2612.0,2956.0,,,,-1.73292072964891,-3.03245721602965,-2.00483878755926,,1.7409779265454435,,
,6581.0,725.0,5548.0,595.0,23.0,2612.0,2967.0,,,,-1.7316423554427,-3.03247175957589,-2.00559105565063,,1.3017410375973866,,
,6583.0,724.0,5549.0,594.0,21.0,2615.0,2975.0,,,,-1.73270618598961,-3.03246409869267,-2.00577323463054,,0.8567248773270971,,
,6585.0,728.0,5553.0,595.0,14.0,2647.0,2972.0,,,,-1.73206623801584,-3.03241485453474,-2.00535376459087,,0.41859157769149324,,
,6586.0,727.0,5556.0,595.0,29.0,2664.0,2958.0,,,,-1.73306989667293,-3.0324828122937,-2.00546241258795,,-0.0014613170921862996,,
,6591.0,728.0,5558.0,595.0,35.0,2667.0,2954.0,,,,-1.73225943943843,-3.03254947899255,-2.00547415426329,,-0.39405018435942646,,
,6591.0,727.0,5559.0,595.0,30.0,2692.0,2951.0,,,,-1.73176795954051,-3.03242536200388,-2.0051383228809,,-0.7518120047270176,,
,6594.0,728.0,5565.0,599.0,26.0,2667.0,2963.0,,,,-1.73221381813901,-3.03253518943261,-2.00549923058629,,-1.0694834252329606,,
,6592.0,725.0,5563.0,596.0,20.0,2657.0,2974.0,,,,-1.73236456568048,-3.03247391596694,-2.00557453313362,,-1.3438770913556082,,
,6598.0,728.0,5565.0,597.0,17.0,2652.0,2975.0,,,,-1.73293307640543,-3.03251858588572,-2.0049399456137,,-1.5737840486083094,,
,6599.0,729.0,5568.0,599.0,27.0,2619.0,2962.0,,,,-1.73253802644651,-3.03246577651519,-2.0047776419028,,-1.7598282322015082,,
,6598.0,730.0,5569.0,599.0,22.0,2663.0,2973.0,,,,-1.73212081974749,-3.03244680098248,-2.00477055018235,,-1.9042905053439212,,
,6598.0,728.0,5570.0,597.0,12.0,2666.0,2976.0,,,,-1.73204770900446,-3.0324612197349,-2.00548276552797,,-2.0109081909405253,,
,6598.0,729.0,5571.0,594.0,10.0,2631.0,2954.0,,,,-1.73148511798679,-3.03239952674726,-2.00554522567458,,-2.084645653979025,,
,6591.0,727.0,5565.0,592.0,3.0,2633.0,2947.0,,,,-1.73105774486251,-3.03245751219586,-2.00437932239529,,-2.131426043274759,,
,6590.0,728.0,5562.0,591.0,5.0,2627.0,2952.0,,,,-1.73263420683195,-3.03233845893207,-2.00550466807029,,-2.157815564540021,,
,6585.0,725.0,5559.0,590.0,7.0,2635.0,2944.0,,,,-1.73137640263899,-3.03244645846006,-2.00512465546533,,-2.1706586745638146,,
,6577.0,725.0,5552.0,587.0,8.0,2620.0,2932.0,,,,-1.73258143329137,-3.03245955122967,-2.00489752670814,,-2.1766725666023494,,
,6570.0,722.0,5543.0,583.0,17.0,2620.0,2945.0,,,,-1.73215314548531,-3.0324125800692,-2.00443203133544,,-2.182019268719449,,
,6563.0,724.0,5539.0,587.0,22.0,2600.0,2961.0,,,,-1.73331099490217,-3.03243098721123,-2.00471598105863,,-2.1918815555942786,,
,6554.0,724.0,5531.0,583.0,16.0,2605.0,2947.0,,,,-1.73328001501552,-3.03240904169419,-2.00536411348827,,-2.210073775883231,,
,6551.0,723.0,5526.0,584.0,12.0,2629.0,2949.0,,,,-1.7319714752592,-3.03232640526177,-2.00431622293936,,-2.2387204757213044,,
,6545.0,722.0,5520.0,582.0,15.0,2625.0,2942.0,,,,-1.73359580740681,-3.03245323225469,-2.00487818153195,,-2.278034502475,,
,6540.0,721.0,5514.0,582.0,2.0,2656.0,2951.0,,,,-1.73331958360392,-3.03235977900604,-2.00435571994986,,-2.326222162763948,,
,6536.0,723.0,5511.0,580.0,13.0,2653.0,2951.0,,,,-1.73312737334691,-3.03244023315129,-2.00499677661131,,-2.3795357356294016,,
,6531.0,720.0,5507.0,580.0,12.0,2658.0,2945.0,,,,-1.73238606534533,-3.03236398010319,-2.00480191695096,,-2.432482759219483,,
,6528.0,717.0,5504.0,577.0,12.0,2650.0,2942.0,,,,-1.73177296798504,-3.03235869944609,-2.00447523208375,,-2.478186894568524,,
,6524.0,718.0,5500.0,579.0,15.0,2630.0,2929.0,,,,-1.73351055325225,-3.03237120983259,-2.00448283686868,,-2.508877698838446,,
,6521.0,721.0,5498.0,581.0,18.0,2626.0,2943.0,,,,-1.73214513598791,-3.03236598493372,-2.00385150372627,,-2.5164686538172796,,
,6519.0,717.0,5494.0,578.0,12.0,2638.0,2944.0,,,,-1.73299069451786,-3.0323615447426,-2.00476684898032,,-2.4931680375409155,,
,6517.0,719.0,5493.0,578.0,17.0,2657.0,2907.0,,,,-1.73258492521587,-3.03236708493267,-2.00421733259286,,-2.432059850316564,,
,6516.0,716.0,5492.0,579.0,15.0,2624.0,2936.0,,,,-1.73302945088194,-3.03234790599956,-2.0047482208503,,-2.327594723820225,,
,6516.0,720.0,5493.0,579.0,24.0,2642.0,2932.0,,,,-1.73209229978508,-3.0323551901826,-2.00424604958063,,-2.175943391332196,,
,6517.0,721.0,5495.0,579.0,19.0,2634.0,2926.0,,,,-1.73187100593629,-3.03235309229658,-2.00501925939628,,-1.9751850992633793,,
,6514.0,716.0,5491.0,580.0,15.0,2626.0,2948.0,,,,-1.73272495857827,-3.03234334350763,-2.00490682026494,,-1.7253264255946714,,
,6510.0,717.0,5489.0,578.0,20.0,2647.0,2941.0,,,,-1.7319920625976,-3.03230689221394,-2.00401961181712,,-1.4281686887959466,,
,6511.0,718.0,5487.0,578.0,16.0,2646.0,2956.0,,,,-1.73238061716685,-3.03241056774462,-2.00448923514718,,-1.0870614246647408,,
,6510.0,718.0,5488.0,579.0,21.0,2651.0,2962.0,,,,-1.73224386838057,-3.03238007664297,-2.00394511940515,,-0.7065927428974683,,
,6511.0,719.0,5487.0,579.0,28.0,2630.0,2951.0,,,,-1.73223784369276,-3.03236083580009,-2.00494619539232,,-0.2922728693203686,,
,6510.0,716.0,5486.0,575.0,3.0,2618.0,2993.0,,,,-1.73260424809254,-3.03235890179449,-2.00472027384429,,0.14973605575152898,,
,6509.0,717.0,5491.0,580.0,12.0,2634.0,2954.0,,,,-1.73201849008572,-3.03231975814501,-2.0045843564255,,0.6128025498648093,,
,6512.0,718.0,5487.0,579.0,8.0,2643.0,2956.0,,,,-1.73174010754713,-3.03236965736229,-2.00494491937626,,1.0898981832913999,,
,6512.0,719.0,5489.0,579.0,-7.0,2639.0,2942.0,,,,-1.73256589313787,-3.03229390770218,-2.00430013021477,,1.5735609338838783,,
,6512.0,719.0,5490.0,579.0,21.0,2624.0,2982.0,,,,-1.73208783631938,-3.03229993922424,-2.00372350324293,,2.055776001134243,,
,6516.0,719.0,5490.0,581.0,23.0,2637.0,2973.0,,,,-1.73244827802059,-3.03239182735594,-2.00483484097984,,2.5278234202255585,,
,6515.0,717.0,5492.0,579.0,40.0,2636.0,2964.0,,,,-1.73211841436453,-3.03236996121707,-2.00417264357194,,2.9801571051951066,,
,6513.0,718.0,5494.0,580.0,32.0,2646.0,2957.0,,,,-1.73268434396185,-3.03231812274913,-2.00368772221235,,3.402383014828662,,
,6512.0,716.0,5491.0,578.0,13.0,2645.0,2953.0,,,,-1.73214680094452,-3.0323428423164,-2.00439538567946,,3.7833928314596963,,
,6514.0,717.0,5493.0,579.0,24.0,2645.0,2941.0,,,,-1.73213607077956,-3.03233157116329,-2.00437815830629,,4.111685693158901,,
,6513.0,717.0,5492.0,580.0,26.0,2627.0,2962.0,,,,-1.73276982763604,-3.0323352479288,-2.00393677062369,,4.375879192789317,,
,6516.0,720.0,5495.0,581.0,34.0,2624.0,2953.0,,,,-1.73189621654635,-3.03237179030156,-2.00411854100122,,4.565378227380345,,
,6515.0,717.0,5493.0,579.0,17.0,2604.0,2944.0,,,,-1.73133344998654,-3.03228997725246,-2.00446968809052,,4.6711417721863,,
,6514.0,720.0,5492.0,581.0,6.0,2616.0,2956.0,,,,-1.73231427351154,-3.03228910860793,-2.0042020462896,,4.686467133311998,,
,6516.0,719.0,5493.0,580.0,14.0,2610.0,2945.0,,,,-1.73035273543252,-3.03232756310265,-2.00455509328459,,4.607700985296217,,
,6514.0,720.0,5494.0,581.0,24.0,2614.0,2942.0,,,,-1.73161161913521,-3.03229589245024,-2.00354775160168,,4.434787482869777,,
,6512.0,717.0,5492.0,580.0,27.0,2633.0,2969.0,,,,-1.73193944693083,-3.03233309789881,-2.00368730904421,,4.171575872802617,,
,6512.0,717.0,5491.0,579.0,29.0,2629.0,2969.0,,,,-1.73183212657166,-3.03237542291567,-2.00377658107264,,3.825832446628655,,
,6514.0,718.0,5491.0,579.0,7.0,2645.0,2931.0,,,,-1.73340889538903,-3.03233611633387,-2.00366329084085,,3.4089326905665467,,
,6511.0,719.0,5491.0,582.0,17.0,2646.0,2936.0,,,,-1.73358607386684,-3.03232983850006,-2.00433486276716,,2.935246273831273,,
,6512.0,716.0,5489.0,578.0,5.0,2671.0,2961.0,,,,-1.734102989063,-3.03234482542487,-2.00456457396595,,2.421265614929063,,
,6512.0,718.0,5492.0,579.0,23.0,2667.0,2977.0,,,,-1.73492067825549,-3.03236399628634,-2.00510942197398,,1.8845621059130877,,
,6514.0,719.0,5494.0,581.0,16.0,2638.0,2956.0,,,,-1.73595233424659,-3.03242915460127,-2.00453513542067,,1.3426761179116702,,
,6511.0,716.0,5491.0,581.0,14.0,2656.0,2955.0,,,,-1.73597319812252,-3.03243156701647,-2.00512962372494,,0.8120529272629754,,
,6511.0,718.0,5491.0,578.0,22.0,2657.0,2960.0,,,,-1.73603316724764,-3.03243958530236,-2.00506109018629,,0.30712589081133157,,
,6512.0,716.0,5490.0,579.0,9.0,2661.0,2964.0,,,,-1.73635281661263,-3.03245601763232,-2.00541830361249,,-0.16037604227443758,,
,6514.0,717.0,5495.0,581.0,17.0,2666.0,2979.0,,,,-1.73720799868077,-3.03247240535144,-2.00545741289647,,-0.5818512733993413,,
,6513.0,719.0,5496.0,580.0,17.0,2651.0,2940.0,,,,-1.73788299109959,-3.03248700508806,-2.00556517136393,,-0.9519673673915904,,
,6515.0,720.0,5499.0,582.0,24.0,2652.0,2943.0,,,,-1.73806936720854,-3.03244124225429,-2.00551999155121,,-1.268540874139813,,
,6514.0,716.0,5497.0,580.0,30.0,2659.0,2947.0,,,,-1.73687474163697,-3.03248591545646,-2.00528248638811,,-1.532199010714037,,
,6518.0,718.0,5502.0,582.0,27.0,2676.0,2950.0,,,,-1.73746878711971,-3.03243741561919,-2.00484323910234,,-1.745884006686016,,
,6519.0,720.0,5499.0,582.0,24.0,2641.0,2972.0,,,,-1.7365435284502,-3.03242912923058,-2.00529436598784,,-1.914269395014409,,
,6524.0,721.0,5507.0,586.0,27.0,2627.0,2973.0,,,,-1.73606202619306,-3.03242391364036,-2.00600604090059,,-2.0431574584442207,,
,6521.0,718.0,5503.0,582.0,22.0,2627.0,2981.0,,,,-1.73646254501244,-3.03235882713804,-2.00509856697773,,-2.1389187213894516,,
,6526.0,718.0,5504.0,583.0,29.0,2649.0,2960.0,,,,-1.73715976027484,-3.0324626155322,-2.00484532325744,,-2.2080187446784927,,
,6527.0,718.0,5506.0,583.0,14.0,2651.0,2940.0,,,,-1.73529285620453,-3.03248264580911,-2.00502714258297,,-2.2566566300412068,,
,6527.0,719.0,5509.0,584.0,13.0,2639.0,2941.0,,,,-1.73622424475597,-3.03236032904217,-2.00526146299043,,-2.2905170853392782,,
,6530.0,721.0,5510.0,583.0,33.0,2619.0,2951.0,,,,-1.73599444609917,-3.03247840608613,-2.00499926892543,,-2.314618157196808,,
,6529.0,720.0,5514.0,587.0,33.0,2636.0,2948.0,,,,-1.73525799594725,-3.03240834260927,-2.00542318434699,,-2.333224088684716,,
,6533.0,722.0,5515.0,585.0,40.0,2650.0,2950.0,,,,-1.73597659171423,-3.03244115243563,-2.00453308654159,,-2.3497895724878837,,
,6536.0,719.0,5519.0,585.0,39.0,2655.0,2955.0,,,,-1.73471342029266,-3.03238920512104,-2.0045741120223,,-2.366907364566416,,
,6533.0,718.0,5515.0,584.0,35.0,2645.0,2951.0,,,,-1.73418870852932,-3.03242567733899,-2.00501942403353,,-2.386242794503247,,
,6541.0,723.0,5523.0,587.0,12.0,2663.0,2949.0,,,,-1.7332815219676,-3.03243113430025,-2.00428191395355,,-2.408452377504644,,
,6543.0,725.0,5525.0,587.0,17.0,2649.0,2949.0,,,,-1.73329914520456,-3.03247303896983,-2.00473619126934,,-2.433096395003817,,
,6545.0,723.0,5528.0,588.0,26.0,2657.0,2949.0,,,,-1.73226406484454,-3.0324251755482,-2.00534407411859,,-2.4585649756460874,,
,6546.0,722.0,5531.0,588.0,26.0,2642.0,2934.0,,,,-1.73182022019799,-3.03238537150384,-2.00507360377685,,-2.482042765670515,,
,6543.0,724.0,5529.0,589.0,20.0,2632.0,2929.0,,,,-1.73251022258364,-3.03238331671244,-2.00510358593498,,-2.499538247223684,,
,6549.0,723.0,5533.0,589.0,10.0,2638.0,2936.0,,,,-1.7306884621325,-3.03238092497343,-2.004890294382,,-2.5060001292145384,,
,6553.0,724.0,5535.0,592.0,10.0,2627.0,2958.0,,,,-1.73168049206887,-3.03244025881576,-2.00492481526916,,-2.4955352069984835,,
,6551.0,724.0,5536.0,589.0,24.0,2607.0,2949.0,,,,-1.73134222231905,-3.03236970830847,-2.00533268235361,,-2.461730016470289,,
,6554.0,722.0,5536.0,589.0,21.0,2645.0,2966.0,,,,-1.73059258720646,-3.03246333954012,-2.00518117987026,,-2.39806336055398,,
,6554.0,722.0,5538.0,590.0,29.0,2638.0,2955.0,,,,-1.7304697552763,-3.03242564417212,-2.00496321823274,,-2.2983803168008943,,
,6559.0,726.0,5547.0,593.0,17.0,2648.0,2964.0,,,,-1.73117373840673,-3.03240057623989,-2.0043864792396,,-2.1573839202931473,,
,6558.0,725.0,5546.0,594.0,9.0,2630.0,2956.0,,,,-1.73070695636316,-3.0324448684035,-2.00399749345664,,-1.971092408943662,,
,6561.0,721.0,5548.0,589.0,27.0,2630.0,2989.0,,,,-1.73002888932051,-3.032396687944,-2.00476962863271,,-1.7372110545497739,,
,6564.0,726.0,5551.0,592.0,21.0,2653.0,2954.0,,,,-1.72989553421894,-3.03239761937951,-2.00494103692301,,-1.4553789359836482,,
,6567.0,728.0,5555.0,594.0,29.0,2659.0,2934.0,,,,-1.72951038752009,-3.03247254244969,-2.00470954690439,,-1.1272698790352855,,
,6568.0,727.0,5556.0,595.0,20.0,2672.0,2934.0,,,,-1.73031197419838,-3.03245686579882,-2.00548417142205,,-0.7565482181440525,,
,6570.0,726.0,5555.0,589.0,11.0,2677.0,2932.0,,,,-1.72959818454886,-3.03243763477688,-2.00508167378601,,-0.34869898146087863,,
,6571.0,726.0,5557.0,593.0,18.0,2652.0,2957.0,,,,-1.73017471772524,-3.03250045901998,-2.00479853879059,,0.08923485120600395,,
,6573.0,727.0,5561.0,594.0,18.0,2624.0,2981.0,,,,-1.72957755288506,-3.03242173070994,-2.00469949635607,,0.548969535021482,,
,6576.0,727.0,5564.0,597.0,16.0,2612.0,2978.0,,,,-1.72969597176865,-3.03253558821132,-2.00498164296009,,1.0213146238456385,,
,6575.0,726.0,5565.0,594.0,32.0,2653.0,2979.0,,,,-1.73026914603988,-3.03243991151031,-2.00492472681635,,1.4964923686099723,,
,6579.0,726.0,5567.0,594.0,32.0,2643.0,2932.0,,,,-1.73019268935324,-3.03253639622691,-2.00499542184101,,1.964420075320117,,
,6583.0,729.0,5567.0,594.0,32.0,2659.0,2938.0,,,,-1.72973881362391,-3.03241621931121,-2.0043815148757,,2.414943846635577,,
,6584.0,728.0,5573.0,594.0,35.0,2665.0,2934.0,,,,-1.72964557929483,-3.03249280991399,-2.00566699938596,,2.8380237097446495,,
,6585.0,729.0,5575.0,594.0,23.0,2659.0,2934.0,,,,-1.73086735931852,-3.03245059125322,-2.00477820824585,,3.223881813734167,,
,6583.0,727.0,5575.0,594.0,13.0,2692.0,2950.0,,,,-1.72885038255369,-3.03242090739506,-2.00481368477538,,3.563135914531538,,
,6589.0,732.0,5580.0,596.0,21.0,2659.0,2950.0,,,,-1.72974025624718,-3.03236994667286,-2.00516333682931,,3.8469474674388158,,
,6593.0,731.0,5582.0,600.0,35.0,2660.0,2969.0,,,,-1.72986035749573,-3.03241554505169,-2.00484220549148,,4.067214349514218,,
2025-07-15 18:10:19,6590.0,729.0,5582.0,598.0,23.0,2671.0,2962.0,,,2025/07/15 06:10:19 PM,-1.73071104139274,-3.0324728160194,-2.00526732838785,,4.216830359904769,,
,6592.0,730.0,5583.0,597.0,18.0,2666.0,2957.0,,,,-1.72950008085845,-3.03252352059971,-2.00558583368577,,4.290017540208042,,
,6594.0,730.0,5585.0,598.0,19.0,2650.0,2937.0,,,,-1.72948690078506,-3.03241559074711,-2.00500959561523,,4.282716334652632,,
,6594.0,730.0,5587.0,598.0,20.0,2651.0,2960.0,,,,-1.73034592779094,-3.03242477384383,-2.00578627718859,,4.192997649339983,,
,6593.0,730.0,5584.0,594.0,30.0,2652.0,2973.0,,,,-1.72901966790361,-3.03241024092147,-2.00484364834213,,4.021444667472295,,
,6588.0,727.0,5579.0,592.0,12.0,2649.0,2952.0,,,,-1.72886728430309,-3.03242772917816,-2.00432143236428,,3.771444047298988,,
,6584.0,730.0,5581.0,592.0,18.0,2632.0,2980.0,,,,-1.72932228336958,-3.03242695229699,-2.00443078922292,,3.449327427659333,,
,6581.0,729.0,5574.0,590.0,17.0,2633.0,2950.0,,,,-1.72769825321565,-3.03243892387846,-2.00460950048479,,3.0643150830596793,,
,6574.0,729.0,5567.0,587.0,8.0,2627.0,2936.0,,,,-1.72850827255851,-3.03241523422098,-2.00515329335019,,2.628232859165315,,
,6565.0,727.0,5560.0,585.0,9.0,2627.0,2974.0,,,,-1.7292179044648,-3.03237712025827,-2.00525119219322,,2.1549988281795116,,
,6558.0,725.0,5554.0,585.0,23.0,2635.0,2979.0,,,,-1.72982067396796,-3.03238858210613,-2.00439204784808,,1.6599043618802516,,
,6552.0,724.0,5548.0,583.0,7.0,2638.0,2976.0,,,,-1.7286678330493,-3.03232008096581,-2.0044126538297,,1.1587420104637387,,
,6545.0,724.0,5541.0,582.0,12.0,2636.0,2965.0,,,,-1.72855761560896,-3.03233247531837,-2.0041963579015,,0.6668558538203925,,
,6537.0,721.0,5535.0,579.0,23.0,2631.0,2955.0,,,,-1.72780284700296,-3.03239855414742,-2.00505694749888,,0.1982049562751773,,
,6533.0,722.0,5531.0,578.0,42.0,2666.0,2950.0,,,,-1.72799764578805,-3.03235978818848,-2.00458621592032,,-0.23546610529247436,,
,6532.0,724.0,5528.0,580.0,20.0,2648.0,2957.0,,,,-1.72810765906118,-3.03239233936547,-2.00445077098698,,-0.6252656242736941,,
,6525.0,721.0,5520.0,580.0,11.0,2659.0,2944.0,,,,-1.7270104566185,-3.03233345384699,-2.0048101632824,,-0.9655402572383734,,
,6523.0,720.0,5515.0,578.0,21.0,2658.0,2953.0,,,,-1.72821056608343,-3.03236626400977,-2.00494131829408,,-1.2539763975699236,,
,6519.0,718.0,5512.0,576.0,30.0,2685.0,2942.0,,,,-1.72853757012683,-3.03232620289191,-2.00467579971807,,-1.491419531417282,,
,6517.0,722.0,5511.0,578.0,18.0,2700.0,2941.0,,,,-1.72804817902485,-3.03242176841286,-2.00450958110356,,-1.6814443051581076,,
,6514.0,719.0,5511.0,579.0,29.0,2692.0,2946.0,,,,-1.72697457181025,-3.03240818230039,-2.00494654364124,,-1.8297319994431145,,
,6513.0,720.0,5509.0,577.0,17.0,2664.0,2941.0,,,,-1.72734380722683,-3.03238129208662,-2.00526526241907,,-1.9433273933860402,,
,6512.0,721.0,5508.0,578.0,15.0,2635.0,2960.0,,,,-1.72703393660685,-3.03242265093132,-2.00435120328721,,-2.0298532750065994,,
,6512.0,720.0,5507.0,579.0,7.0,2654.0,2945.0,,,,-1.72747063152896,-3.03237598034354,-2.00395484847484,,-2.0967588743305434,,
,6512.0,721.0,5506.0,579.0,20.0,2654.0,2938.0,,,,-1.72763655183737,-3.03239403985956,-2.0049058739147,,-2.150669475892821,,
,6507.0,720.0,5504.0,580.0,22.0,2651.0,2955.0,,,,-1.72771890699313,-3.03234675726177,-2.00446566976274,,-2.196889582335258,,
,6507.0,721.0,5503.0,578.0,33.0,2639.0,2954.0,,,,-1.7271583002377,-3.03243200596103,-2.00446200809674,,-2.239092378607099,,
,6508.0,718.0,5506.0,577.0,45.0,2654.0,2961.0,,,,-1.72714722164295,-3.03233452269284,-2.00390322677124,,-2.2792054224844707,,
,6510.0,719.0,5504.0,579.0,45.0,2631.0,2965.0,,,,-1.72818516452248,-3.03241902678,-2.00426607225597,,-2.3174789253512493,,
,6509.0,721.0,5505.0,581.0,23.0,2621.0,2957.0,,,,-1.72872947677744,-3.03235963587445,-2.00455176577733,,-2.3527021963194383,,
,6509.0,720.0,5507.0,577.0,-3.0,2631.0,2948.0,,,,-1.72894080098328,-3.03235831479023,-2.00494986088723,,-2.3825196466840057,,
,6508.0,718.0,5505.0,578.0,-2.0,2652.0,2951.0,,,,-1.72856615378135,-3.03236462525763,-2.00441404653263,,-2.4037928353609086,,
,6511.0,718.0,5506.0,579.0,5.0,2635.0,2931.0,,,,-1.72749480461958,-3.03234396046791,-2.00358776032664,,-2.4129594293321044,,
,6508.0,719.0,5507.0,581.0,6.0,2655.0,2933.0,,,,-1.72674888360311,-3.03241189594157,-2.00489299486493,,-2.4063511113896805,,
,6511.0,718.0,5506.0,578.0,14.0,2656.0,2971.0,,,,-1.72713559702488,-3.03241345132103,-2.00387277881639,,-2.380446698428615,,
,6512.0,720.0,5506.0,579.0,26.0,2644.0,2971.0,,,,-1.72702147983072,-3.03239224086721,-2.00489519807453,,-2.3320508358501364,,
,6513.0,720.0,5509.0,579.0,18.0,2658.0,2958.0,,,,-1.72708762896194,-3.03235188195678,-2.00458761955309,,-2.2584006606139186,,
,6514.0,719.0,5508.0,580.0,19.0,2659.0,2960.0,,,,-1.72666438327922,-3.03232343789313,-2.00359842816212,,-2.1572120085420092,,
,6512.0,720.0,5506.0,579.0,5.0,2654.0,2949.0,,,,-1.72605435547926,-3.03229591568059,-2.00389885941121,,-2.026683124303123,,
,6513.0,721.0,5508.0,581.0,12.0,2640.0,2965.0,,,,-1.72548714353144,-3.03232623593157,-2.00423719816267,,-1.86547781985786,,
,6512.0,721.0,5508.0,581.0,41.0,2623.0,2945.0,,,,-1.72722137149225,-3.03239300229371,-2.00301543695558,,-1.672711777608025,,
,6513.0,720.0,5508.0,583.0,44.0,2638.0,2954.0,,,,-1.72696876620758,-3.03235436825725,-2.00402101009733,,-1.4479646474475838,,
,6512.0,722.0,5510.0,580.0,22.0,2648.0,2969.0,,,,-1.72602281950599,-3.03236550772129,-2.00429277757244,,-1.1913356668241193,,
,6511.0,722.0,5510.0,582.0,37.0,2645.0,2966.0,,,,-1.72834125827009,-3.03240520693585,-2.00389754120687,,-0.9035510789580726,,
,6511.0,719.0,5508.0,581.0,28.0,2643.0,2978.0,,,,-1.72927977464763,-3.0322919720756,-2.00435506045401,,-0.5861184549659398,,
,6512.0,719.0,5507.0,582.0,26.0,2638.0,2977.0,,,,-1.72924600047254,-3.03237893580313,-2.00502764475498,,-0.2415088724793307,,
,6510.0,721.0,5508.0,580.0,35.0,2642.0,2973.0,,,,-1.72993355614665,-3.03235532701271,-2.00471451737498,,0.12666333948202574,,
,6510.0,720.0,5509.0,579.0,20.0,2651.0,2943.0,,,,-1.72953782903837,-3.03244057734134,-2.0047621737504,,0.5134986615970818,,
,6509.0,719.0,5509.0,581.0,10.0,2670.0,2959.0,,,,-1.7306717745287,-3.03241288825937,-2.00514758857641,,0.9127416012608726,,
,6513.0,721.0,5508.0,582.0,18.0,2670.0,2971.0,,,,-1.7315992630569,-3.03239983584037,-2.0061058527186,,1.316806767930888,,
,6510.0,720.0,5507.0,580.0,17.0,2670.0,2973.0,,,,-1.73250058041619,-3.03245630016577,-2.00560603279234,,1.7169167372374636,,
,6508.0,720.0,5507.0,579.0,17.0,2655.0,2947.0,,,,-1.73213197670253,-3.03255352375418,-2.00590087871757,,2.1033548128204482,,
,6509.0,720.0,5507.0,579.0,22.0,2655.0,2946.0,,,,-1.73214841035066,-3.03249768927791,-2.00612316983107,,2.4658241439675583,,
,6508.0,720.0,5508.0,580.0,17.0,2650.0,2942.0,,,,-1.73260775016834,-3.03254643500934,-2.00593453247155,,2.7938938585294584,,
,6510.0,718.0,5505.0,580.0,17.0,2654.0,2934.0,,,,-1.73328473317528,-3.03249246738959,-2.00614600977488,,3.077503419524342,,
,6511.0,717.0,5506.0,579.0,20.0,2664.0,2957.0,,,,-1.73328263618422,-3.03251352548333,-2.00560918204862,,3.307488818539575,,
,6510.0,718.0,5508.0,579.0,20.0,2665.0,2944.0,,,,-1.73261632894149,-3.03246734352036,-2.00553101896698,,3.476089191004406,,
,6513.0,720.0,5509.0,581.0,20.0,2660.0,2958.0,,,,-1.7321645996651,-3.03251181007575,-2.00566473448798,,3.5773910004930225,,
,6515.0,720.0,5510.0,581.0,33.0,2655.0,2949.0,,,,-1.73134499705784,-3.03249643135219,-2.00596978286736,,3.6076702347179026,,
,6514.0,719.0,5510.0,581.0,43.0,2658.0,2954.0,,,,-1.73314347318863,-3.03244569999617,-2.00550619754831,,3.5656018319048126,,
,6515.0,719.0,5510.0,581.0,21.0,2683.0,2953.0,,,,-1.73129280265771,-3.03246715120559,-2.00544218856025,,3.4523194690248986,,
,6518.0,719.0,5514.0,582.0,11.0,2671.0,2959.0,,,,-1.73201498027805,-3.03249175886678,-2.00498189988041,,3.2713258688815943,,
,6519.0,723.0,5518.0,582.0,21.0,2669.0,2970.0,,,,-1.73174940536085,-3.03241082741536,-2.00546207813928,,3.028270320735273,,
,6523.0,721.0,5519.0,582.0,19.0,2664.0,2953.0,,,,-1.73117525567747,-3.03249767702637,-2.00519540415626,,2.7306223067810187,,
,6522.0,722.0,5518.0,582.0,20.0,2661.0,2977.0,,,,-1.73049081776854,-3.03246641761662,-2.00532386867476,,2.387275829703611,,
,6525.0,720.0,5520.0,582.0,37.0,2657.0,2979.0,,,,-1.73152235077807,-3.03253179633302,-2.00495935503887,,2.0081186972238387,,
,6526.0,721.0,5521.0,586.0,36.0,2664.0,2966.0,,,,-1.72984435929666,-3.03245767441665,-2.0057634345577,,1.6035967784029763,,
,6529.0,723.0,5525.0,587.0,38.0,2650.0,2959.0,,,,-1.72947176595797,-3.0324625542557,-2.00528808235456,,1.1842972789549848,,
,6529.0,724.0,5522.0,584.0,45.0,2636.0,2972.0,,,,-1.72982661111086,-3.03248361201009,-2.00561954171793,,0.7605686757223352,,
,6532.0,723.0,5527.0,586.0,26.0,2649.0,2950.0,,,,-1.73009382673599,-3.03243159490111,-2.00616409383048,,0.34218858507706645,,
,6533.0,722.0,5531.0,585.0,31.0,2670.0,2941.0,,,,-1.72957332667891,-3.03250389127762,-2.00586944556582,,-0.06191533022279685,,
,6537.0,725.0,5534.0,587.0,30.0,2674.0,2927.0,,,,-1.72766631173527,-3.03246749687634,-2.00461244010888,,-0.4438920407439722,,
,6537.0,723.0,5532.0,587.0,26.0,2667.0,2945.0,,,,-1.7290652453417,-3.03245698382505,-2.00574460108621,,-0.7971466760307833,,
,6540.0,726.0,5537.0,590.0,26.0,2668.0,2947.0,,,,-1.72771149047925,-3.03255925261269,-2.00579440250567,,-1.1164805696409832,,
,6540.0,726.0,5538.0,588.0,6.0,2657.0,2944.0,,,,-1.72834633630726,-3.03253921006981,-2.00564077898799,,-1.3981985507437185,,
,6543.0,725.0,5539.0,590.0,14.0,2664.0,2920.0,,,,-1.72815980658968,-3.03252313492677,-2.00539820686035,,-1.6401855410619153,,
,6544.0,724.0,5542.0,588.0,23.0,2651.0,2940.0,,,,-1.72894637987568,-3.03251592297059,-2.0057121204951,,-1.84194716214633,,
,6549.0,727.0,5545.0,590.0,4.0,2644.0,2939.0,,,,-1.72910735292948,-3.0324583054825,-2.00554121292972,,-2.0046015432445317,,
,6551.0,726.0,5548.0,590.0,13.0,2646.0,2958.0,,,,-1.72788395892205,-3.03247811886173,-2.00525274005487,,-2.1308051498023644,,
,6552.0,729.0,5547.0,590.0,20.0,2649.0,2951.0,,,,-1.72890689721868,-3.03256634185143,-2.00516375857577,,-2.224596788606696,,
,6551.0,727.0,5550.0,590.0,31.0,2660.0,2936.0,,,,-1.72910361213663,-3.0324634373624,-2.00565976192712,,-2.2911513286942182,,
,6552.0,727.0,5551.0,590.0,27.0,2647.0,2947.0,,,,-1.72987202996243,-3.03243894461331,-2.00595128057508,,-2.3364460782593612,,
,6557.0,727.0,5550.0,591.0,15.0,2650.0,2971.0,,,,-1.73065963716368,-3.0324642733953,-2.00594298275084,,-2.366855076277832,,
,6559.0,729.0,5555.0,591.0,17.0,2645.0,2972.0,,,,-1.73250670848375,-3.03244686674037,-2.00546681545684,,-2.388697138307994,,
,6563.0,728.0,5559.0,590.0,21.0,2632.0,2948.0,,,,-1.7330724270926,-3.03235482988591,-2.00548747675724,,-2.407770825352739,,
,6562.0,727.0,5559.0,591.0,8.0,2625.0,2947.0,,,,-1.73388832185735,-3.03234870492013,-2.00535318096254,,-2.4289131148812184,,
,6565.0,730.0,5561.0,590.0,29.0,2622.0,2950.0,,,,-1.7323361727457,-3.03249226086452,-2.00544220513481,,-2.4556186406381757,,
,6569.0,727.0,5565.0,593.0,24.0,2616.0,2957.0,,,,-1.73206788655404,-3.03248960853981,-2.00552615401507,,-2.4897533910860368,,
,6570.0,731.0,5565.0,592.0,37.0,2637.0,2960.0,,,,-1.73329032967299,-3.03230768494155,-2.00564649070099,,-2.531391036950145,,
,6570.0,728.0,5565.0,591.0,35.0,2665.0,2951.0,,,,-1.73420468617268,-3.03241167464996,-2.00503059976596,,-2.578791530632835,,
,6572.0,730.0,5570.0,593.0,39.0,2654.0,2948.0,,,,-1.73339720785509,-3.0324320994517,-2.00541655359342,,-2.628529994039714,,
,6574.0,731.0,5573.0,595.0,35.0,2660.0,2940.0,,,,-1.73415490562448,-3.03236341587941,-2.00548387048521,,-2.6757692557159465,,
,6577.0,731.0,5577.0,596.0,19.0,2655.0,2935.0,,,,-1.73498271460698,-3.03242806978241,-2.00529989329405,,-2.7146528064548883,,
,6579.0,730.0,5577.0,594.0,7.0,2651.0,2938.0,,,,-1.73316027390112,-3.03234687352834,-2.00520126327885,,-2.7387788943482487,,
,6580.0,727.0,5575.0,594.0,17.0,2661.0,2961.0,,,,-1.73362223891276,-3.03240690629657,-2.00538052872085,,-2.741704533885887,,
,6582.0,734.0,5580.0,596.0,24.0,2662.0,2949.0,,,,-1.73372412836575,-3.03236053722739,-2.00529181555678,,-2.7174237620808763,,
,6583.0,730.0,5583.0,595.0,28.0,2656.0,2925.0,,,,-1.7341896242911,-3.03232203660909,-2.00534493009743,,-2.6607691095950763,,
,6583.0,732.0,5585.0,595.0,19.0,2632.0,2942.0,,,,-1.7343574635024,-3.03233230251483,-2.00570556777616,,-2.567697862322558,,
,6583.0,732.0,5585.0,594.0,24.0,2635.0,2952.0,,,,-1.73434938213699,-3.03238748653262,-2.00525181350018,,-2.4354422550672385,,
,6585.0,731.0,5585.0,594.0,23.0,2657.0,2938.0,,,,-1.73455394728468,-3.03243075627568,-2.0050424974261,,-2.2625219842645867,,
,6582.0,731.0,5582.0,593.0,28.0,2651.0,2920.0,,,,-1.7335700121454,-3.03235688224139,-2.00583405013295,,-2.0486358368548006,,
,6579.0,728.0,5579.0,592.0,23.0,2624.0,2950.0,,,,-1.73381425015752,-3.03227765249013,-2.00439506739728,,-1.794464943538779,,
,6574.0,731.0,5578.0,593.0,12.0,2625.0,2933.0,,,,-1.73455276465751,-3.03241658265982,-2.00532967356233,,-1.5014315303316261,,
,6571.0,729.0,5572.0,589.0,2.0,2634.0,2933.0,,,,-1.73366726439193,-3.03235207255136,-2.00513559759387,,-1.1714626592180055,,
,6563.0,728.0,5564.0,588.0,5.0,2640.0,2947.0,,,,-1.7340157925245,-3.03229405960256,-2.00489652049984,,-0.806807412506206,,
,6557.0,728.0,5560.0,585.0,14.0,2652.0,2962.0,,,,-1.73334648250452,-3.03235086732384,-2.00532519647089,,-0.4099479248819888,,
,6549.0,727.0,5552.0,584.0,12.0,2649.0,2954.0,,,,-1.73380040764535,-3.03228037199765,-2.0050265890977,,0.016370212129464785,,
,6541.0,724.0,5543.0,580.0,12.0,2634.0,2949.0,,,,-1.73361864050326,-3.03234704178908,-2.00526325394787,,0.4689833079798344,,
,6538.0,725.0,5541.0,582.0,24.0,2648.0,2949.0,,,,-1.73464528122498,-3.03230482193185,-2.00493669856961,,0.9440498343293692,,
,6533.0,724.0,5532.0,581.0,13.0,2634.0,2944.0,,,,-1.73450392805969,-3.03231414990758,-2.00489992461913,,1.4367280417093644,,
,6526.0,722.0,5529.0,576.0,29.0,2631.0,2948.0,,,,-1.73341388408982,-3.03229727872712,-2.00492160083872,,1.9408510053581702,,
,6522.0,724.0,5526.0,578.0,4.0,2648.0,2947.0,,,,-1.73440473327357,-3.03229810450463,-2.00497651442957,,2.44866684098356,,
,6517.0,721.0,5523.0,580.0,21.0,2649.0,2943.0,,,,-1.73431820332687,-3.03234325100743,-2.00478845804545,,2.9507077696281647,,
,6515.0,720.0,5517.0,578.0,19.0,2648.0,2955.0,,,,-1.73412779314353,-3.03226173352975,-2.00495637784118,,3.435837135732837,,
,6512.0,719.0,5515.0,579.0,20.0,2640.0,2942.0,,,,-1.73278748824544,-3.03233872128899,-2.00465137345651,,3.8915016210963347,,
,6508.0,721.0,5515.0,580.0,36.0,2645.0,2945.0,,,,-1.73287045278514,-3.03238831880737,-2.00469620911318,,4.304190577481103,,
,6512.0,721.0,5512.0,578.0,41.0,2652.0,2948.0,,,,-1.73295148509285,-3.03231446427613,-2.00509686383404,,4.660079119847718,,
,6507.0,719.0,5511.0,578.0,42.0,2657.0,2950.0,,,,-1.73287736608707,-3.03231100660104,-2.00510911568667,,4.945809156328526,,
,6505.0,718.0,5507.0,576.0,22.0,2637.0,2943.0,,,,-1.73425567688554,-3.03228150703791,-2.00504938622646,,5.149344792564396,,
,6504.0,717.0,5508.0,575.0,22.0,2640.0,2953.0,,,,-1.73252164639935,-3.0322695436387,-2.00460641068725,,5.260826677644953,,
,6505.0,721.0,5508.0,579.0,27.0,2660.0,2948.0,,,,-1.73300365952502,-3.03227258944921,-2.00480687863216,,5.2733446503753365,,
,6508.0,723.0,5512.0,577.0,23.0,2652.0,2952.0,,,,-1.73264499000677,-3.0322757129716,-2.00489147512103,,5.183550438949584,,
,6506.0,722.0,5507.0,579.0,20.0,2656.0,2941.0,,,,-1.73284346535034,-3.03230072433062,-2.00463053849718,,4.992043262987663,,
,6504.0,719.0,5508.0,581.0,22.0,2648.0,2957.0,,,,-1.73247018095313,-3.0323318742674,-2.0048603510455,,4.703481496336006,,
,6504.0,719.0,5506.0,579.0,21.0,2632.0,2979.0,,,,-1.73212897127254,-3.03234304884668,-2.00459886457273,,4.326401799288891,,
,6508.0,723.0,5512.0,579.0,27.0,2627.0,2984.0,,,,-1.73263663758216,-3.03224052160399,-2.00538959530859,,3.872759442311399,,
,6507.0,720.0,5508.0,580.0,24.0,2637.0,2964.0,,,,-1.73263477658619,-3.03230123994671,-2.00484972353343,,3.3572340736313064,,
,6507.0,718.0,5508.0,578.0,39.0,2629.0,2971.0,,,,-1.73305414195628,-3.03236903894173,-2.00534131242287,,2.79636834888778,,
2025-07-15 18:10:20,6507.0,721.0,5513.0,579.0,22.0,2638.0,2986.0,,,2025/07/15 06:10:20 PM,-1.73189183564362,-3.03230632347255,-2.00533551851154,,2.207619527317294,,
,6509.0,722.0,5510.0,581.0,21.0,2645.0,2974.0,,,,-1.73188611496873,-3.03225630701876,-2.00443066533617,,1.6084061330643755,,
,6510.0,719.0,5511.0,579.0,35.0,2633.0,2964.0,,,,-1.73244225994893,-3.03231828121992,-2.00451108227565,,1.0152246566515069,,
,6509.0,719.0,5513.0,580.0,18.0,2648.0,2942.0,,,,-1.73186434024654,-3.03228139078445,-2.00453958051453,,0.4428971927159356,,
,6513.0,720.0,5515.0,580.0,39.0,2647.0,2964.0,,,,-1.73234852161458,-3.03234292484047,-2.00486314779031,,-0.09600783557026199,,
,6512.0,721.0,5516.0,580.0,22.0,2624.0,2961.0,,,,-1.73192782450108,-3.03227168982132,-2.00490465655321,,-0.5915607093208372,,
,6514.0,720.0,5517.0,581.0,19.0,2620.0,2956.0,,,,-1.73171387354928,-3.0322380445306,-2.00441898518036,,-1.0366607740302374,,
,6514.0,722.0,5516.0,581.0,13.0,2617.0,2961.0,,,,-1.73137925233214,-3.03230808574481,-2.00437189391354,,-1.4270496658191625,,
,6513.0,718.0,5515.0,580.0,20.0,2619.0,2950.0,,,,-1.73158100928407,-3.03233882369592,-2.0049797943917,,-1.7611778496495312,,
,6515.0,724.0,5518.0,582.0,5.0,2631.0,2966.0,,,,-1.73286068853371,-3.03233259540726,-2.00504635302447,,-2.039961000893686,,
,6514.0,721.0,5516.0,583.0,7.0,2643.0,2944.0,,,,-1.73162291252165,-3.0322666979506,-2.00457722657287,,-2.266461441810211,,
,6512.0,721.0,5515.0,579.0,24.0,2651.0,2936.0,,,,-1.73166325942998,-3.03228632980015,-2.00475299266193,,-2.4455223043111753,,
,6507.0,722.0,5513.0,580.0,15.0,2633.0,2937.0,,,,-1.73189948355587,-3.03223857950552,-2.00456575662688,,-2.583371392299569,,
,6513.0,721.0,5515.0,582.0,26.0,2636.0,2965.0,,,,-1.73303169095601,-3.03225684963542,-2.00437603005115,,-2.6872020186109915,,
,6512.0,720.0,5514.0,579.0,29.0,2643.0,2962.0,,,,-1.73272180432385,-3.03223264939373,-2.00429175921415,,-2.7647329618240346,,
,6512.0,720.0,5513.0,579.0,28.0,2637.0,2960.0,,,,-1.73471965765829,-3.03229910650503,-2.00525851442038,,-2.8237504341049044,,
,6513.0,722.0,5515.0,580.0,8.0,2644.0,2954.0,,,,-1.73500824424554,-3.03234496773677,-2.00568551461042,,-2.871640286396199,,
,6513.0,721.0,5514.0,581.0,-5.0,2635.0,2958.0,,,,-1.73578028114817,-3.0323051079367,-2.00553881636346,,-2.9149259519057886,,
,6512.0,723.0,5515.0,581.0,4.0,2646.0,2969.0,,,,-1.7372060735699,-3.03231729548667,-2.00546219475442,,-2.9588344129635336,,
