TimeLabel,MEAS1_PPG1,MEAS1_PPG2,MEAS1_PPG3,MEAS1_PPG4,ACCX,ACCY,ACCZ,HR_timestamp,HR_value,radar_timestamp,phase_rx0,phase_rx1,phase_rx2,timestep,n_process,original_rate,calculated_rate
2025-07-02 21:29:33,4972.0,862.0,6343.0,1785.0,2638.0,1934.0,2234.0,2025-07-02 21:29:33,63.0,2025/07/02 09:29:33 PM,0.0215282457722483,-1.76922035176198,0.0914152872005834,2025/07/02 09:29:33 PM,-1.4694988594843188,18.126888275146484,14.261603375527422
,4976.0,864.0,6347.0,1790.0,2641.0,1921.0,2208.0,2025-07-02 21:29:34,63.0,,0.0215974701884984,-1.76937775235914,0.091425559197066,2025/07/02 09:29:43 PM,-0.3019588553537441,15.037593841552734,17.145189980462487
,4979.0,866.0,6347.0,1789.0,2654.0,1910.0,2202.0,2025-07-02 21:29:35,63.0,,0.0215106498481586,-1.76967448594423,0.0914258869384178,2025/07/02 09:29:53 PM,0.8948818281081279,13.402829170227053,11.017520215633425
,4980.0,867.0,6347.0,1790.0,2660.0,1908.0,2200.0,2025-07-02 21:29:36,63.0,,0.021490378173291,-1.76878195797431,0.0914165675090737,2025/07/02 09:30:03 PM,2.105899958733807,14.766201972961426,15.211810012836974
,4982.0,868.0,6348.0,1790.0,2667.0,1904.0,2230.0,2025-07-02 21:29:37,63.0,,0.0214159918121017,-1.76917817985274,0.0914060029736699,2025/07/02 09:30:13 PM,3.3170902849030814,14.334470748901367,17.495854063018232
,4986.0,867.0,6348.0,1792.0,2631.0,1922.0,2194.0,2025-07-02 21:29:38,63.0,,0.021389737651294,-1.76947743063881,0.0914127574632971,2025/07/02 09:30:23 PM,4.515890822183912,14.432989120483398,16.38416356726216
,4990.0,868.0,6351.0,1793.0,2640.0,1928.0,2198.0,2025-07-02 21:29:39,63.0,,0.0214481984858385,-1.76986163652074,0.0913902301646442,2025/07/02 09:30:33 PM,5.691280344468993,16.535432815551758,16.333333333333346
,4992.0,868.0,6350.0,1794.0,2658.0,1925.0,2219.0,2025-07-02 21:29:40,63.0,,0.0213725424188252,-1.7702836538905,0.091383549223119,2025/07/02 09:30:43 PM,6.833641373982367,16.913320541381836,17.21096096096096
,4997.0,868.0,6351.0,1794.0,2652.0,1919.0,2222.0,2025-07-02 21:29:41,63.0,,0.0213071266891779,-1.77087349736689,0.0913569060131729,2025/07/02 09:30:53 PM,7.934411622986572,16.72473907470703,15.194109772423017
,4997.0,868.0,6350.0,1793.0,2636.0,1918.0,2216.0,2025-07-02 21:29:42,63.0,,0.0211436021989774,-1.77200625499551,0.0913555491106257,2025/07/02 09:31:03 PM,8.985575263562314,16.09195327758789,17.137764196587728
,5005.0,872.0,6353.0,1793.0,2637.0,1925.0,2237.0,2025-07-02 21:29:43,63.0,,0.0212153274145219,-1.77223774811803,0.0913497389877443,2025/07/02 09:31:13 PM,9.979068415833833,16.587678909301758,17.82531194295901
,5007.0,871.0,6352.0,1794.0,2662.0,1919.0,2228.0,2025-07-02 21:29:44,64.0,,0.0211509435612684,-1.77256868423519,0.0913327854607857,2025/07/02 09:31:23 PM,10.90618821237458,16.759777069091797,18.373995407577475
,5010.0,871.0,6354.0,1798.0,2651.0,1911.0,2232.0,2025-07-02 21:29:45,65.0,,0.0210830820825433,-1.77233710817791,0.0913328157756352,2025/07/02 09:31:33 PM,11.757100186603573,17.660043716430664,17.04270749395652
,5013.0,871.0,6352.0,1796.0,2645.0,1914.0,2227.0,2025-07-02 21:29:46,66.0,,0.0211751559776306,-1.77238869539426,0.0913170597448895,2025/07/02 09:31:43 PM,12.52053368169194,17.817371368408203,16.222222222222186
,5016.0,874.0,6353.0,1797.0,2649.0,1912.0,2214.0,2025-07-02 21:29:47,67.0,,0.0211189746831834,-1.77267080968185,0.0913234277828061,2025/07/02 09:31:53 PM,13.183739604634791,17.216642379760742,17.393740104737557
,5017.0,876.0,6355.0,1799.0,2655.0,1905.0,2236.0,2025-07-02 21:29:48,68.0,,0.0212317269538783,-1.77281943722775,0.0913256267807552,2025/07/02 09:32:03 PM,13.732760376603965,16.86577606201172,17.838281121863222
,5019.0,877.0,6356.0,1795.0,2647.0,1905.0,2240.0,2025-07-02 21:29:49,69.0,,0.0211897618139795,-1.77233454255283,0.0913252816802102,2025/07/02 09:32:13 PM,14.15302980153298,17.253774642944336,18.379961663543728
,5017.0,876.0,6352.0,1797.0,2640.0,1911.0,2250.0,2025-07-02 21:29:50,70.0,,0.0212397457906333,-1.77234772360465,0.0913454911240099,2025/07/02 09:32:23 PM,14.430281931653335,17.937219619750977,16.83397683397685
,5016.0,878.0,6351.0,1796.0,2611.0,1899.0,2246.0,2025-07-02 21:29:51,71.0,,0.021243469758488,-1.77243690257375,0.0913396621962954,,14.551704953543126,,
,5013.0,875.0,6351.0,1793.0,2598.0,1896.0,2218.0,2025-07-02 21:29:52,72.0,,0.0212259274926647,-1.77215597153768,0.0913482182252686,,14.507233530870538,,
,5013.0,878.0,6349.0,1792.0,2591.0,1903.0,2219.0,2025-07-02 21:29:53,72.0,,0.021185621151832,-1.77187840305195,0.0913295851584564,,14.290838456043415,,
,5007.0,877.0,6348.0,1791.0,2610.0,1909.0,2204.0,2025-07-02 21:29:54,71.0,,0.0212389229414745,-1.77186807782231,0.0913426517881119,,13.901653771283804,,
,5002.0,875.0,6344.0,1787.0,2602.0,1911.0,2213.0,2025-07-02 21:29:55,70.0,,0.0212169760980503,-1.77157885774943,0.0913534559918251,,13.34478452079889,,
,5001.0,879.0,6345.0,1787.0,2606.0,1919.0,2204.0,2025-07-02 21:29:56,69.0,,0.0213119743242549,-1.77127040656046,0.0913531584710214,,12.631665597033582,,
,4998.0,876.0,6343.0,1784.0,2603.0,1908.0,2202.0,2025-07-02 21:29:57,68.0,,0.0213205828923301,-1.77101039530633,0.0913521349215585,,11.779892722037514,,
,4992.0,878.0,6338.0,1780.0,2596.0,1914.0,2212.0,2025-07-02 21:29:58,66.0,,0.0213673150639738,-1.77110780931733,0.0913578356677955,,10.812514620935076,,
,4986.0,874.0,6339.0,1778.0,2580.0,1910.0,2199.0,2025-07-02 21:29:59,65.0,,0.0212612722316602,-1.77055504519653,0.0913664076182186,,9.756849063924356,,
,4982.0,875.0,6338.0,1774.0,2593.0,1916.0,2205.0,2025-07-02 21:30:00,65.0,,0.0212672837083748,-1.77065042327044,0.0913765455216449,,8.642948812829793,,
,4977.0,874.0,6337.0,1772.0,2585.0,1916.0,2201.0,2025-07-02 21:30:01,64.0,,0.0214678543246503,-1.77064342541919,0.0913750370400702,,7.501882725385987,,
,4977.0,875.0,6336.0,1770.0,2593.0,1919.0,2203.0,2025-07-02 21:30:02,65.0,,0.0213888913440983,-1.77081564783746,0.0913555343768554,,6.364006271353805,,
,4970.0,877.0,6333.0,1766.0,2621.0,1926.0,2200.0,2025-07-02 21:30:03,65.0,,0.0213009727125639,-1.77084528626285,0.0913612550818578,,5.257377408271786,,
,4971.0,872.0,6329.0,1767.0,2639.0,1931.0,2200.0,2025-07-02 21:30:04,66.0,,0.0212872345371321,-1.77118200501144,0.0913451675498324,,4.206437007042432,,
,4967.0,876.0,6333.0,1768.0,2627.0,1924.0,2234.0,2025-07-02 21:30:05,67.0,,0.0212550741128646,-1.77127870210713,0.0913373945386873,,3.2310285713386344,,
,4965.0,875.0,6332.0,1766.0,2655.0,1917.0,2223.0,2025-07-02 21:30:06,67.0,,0.0212671763832786,-1.77243291180656,0.0913326443135045,,2.345789337072235,,
,4963.0,876.0,6331.0,1767.0,2653.0,1920.0,2216.0,2025-07-02 21:30:07,68.0,,0.0211704947687239,-1.77258045535647,0.0913295810671449,,1.559910052987451,,
,4962.0,874.0,6329.0,1761.0,2623.0,1914.0,2230.0,2025-07-02 21:30:08,67.0,,0.0211784160601209,-1.77290459075986,0.0913296329678011,,0.8772356901841764,,
,4964.0,876.0,6328.0,1764.0,2624.0,1908.0,2222.0,2025-07-02 21:30:09,67.0,,0.0211240773648855,-1.77332752755198,0.091328301606626,,0.29666254250535734,,
,4960.0,875.0,6330.0,1763.0,2660.0,1925.0,2223.0,2025-07-02 21:30:10,66.0,,0.0211040951336252,-1.77323217650873,0.0913140983313809,,-0.1872238641215908,,
,4962.0,877.0,6329.0,1765.0,2659.0,1927.0,2230.0,2025-07-02 21:30:11,65.0,,0.0210349663862734,-1.77344051289607,0.091302654046069,,-0.5833325427136333,,
,4961.0,873.0,6328.0,1764.0,2637.0,1923.0,2255.0,2025-07-02 21:30:12,65.0,,0.0210657350400808,-1.77396787469981,0.0913053441510029,,-0.9031381167222844,,
,4961.0,876.0,6331.0,1766.0,2621.0,1916.0,2238.0,2025-07-02 21:30:13,65.0,,0.0210186530624465,-1.77422402293538,0.0912911581471275,,-1.1597041675922473,,
,4962.0,874.0,6331.0,1767.0,2644.0,1911.0,2203.0,2025-07-02 21:30:14,65.0,,0.0209940713492304,-1.77478436770516,0.0912878757286646,,-1.366719755567914,,
,4962.0,876.0,6334.0,1767.0,2656.0,1903.0,2192.0,2025-07-02 21:30:15,64.0,,0.0209757270994412,-1.77513674631963,0.0912730909471467,,-1.5376031523834448,,
,4960.0,875.0,6330.0,1764.0,2651.0,1889.0,2191.0,2025-07-02 21:30:16,63.0,,0.0209867583771459,-1.77467609857446,0.0912843827468377,,-1.684717870626585,,
,4961.0,876.0,6330.0,1760.0,2631.0,1899.0,2211.0,2025-07-02 21:30:17,62.0,,0.0210398294601955,-1.77330236255685,0.0912819230986838,,-1.8187356457254755,,
,4963.0,875.0,6327.0,1765.0,2619.0,1901.0,2239.0,2025-07-02 21:30:18,61.0,,0.0210507686192267,-1.7737899979716,0.0912986268012384,,-1.9481697696444018,,
,4962.0,873.0,6330.0,1770.0,2625.0,1905.0,2233.0,2025-07-02 21:30:19,60.0,,0.0209761949368557,-1.77334264938825,0.0913092116508428,,-2.0790908559064554,,
,4963.0,874.0,6330.0,1767.0,2636.0,1906.0,2221.0,2025-07-02 21:30:20,60.0,,0.0210746622538047,-1.77348290138516,0.0913085867696531,,-2.215026573743417,,
,4964.0,873.0,6332.0,1765.0,2627.0,1899.0,2233.0,2025-07-02 21:30:21,60.0,,0.0210589567924865,-1.77292692589445,0.0913085241327579,,-2.3570378498003217,,
,4961.0,873.0,6331.0,1767.0,2620.0,1908.0,2228.0,2025-07-02 21:30:22,61.0,,0.0210298851217137,-1.7729060395553,0.0913013022667771,,-2.5039568529483107,,
,4967.0,874.0,6333.0,1768.0,2632.0,1894.0,2212.0,2025-07-02 21:30:23,61.0,,0.0210322952348005,-1.7726796451531,0.0912893864567724,,-2.65276653844503,,
,4968.0,874.0,6330.0,1766.0,2645.0,1898.0,2208.0,2025-07-02 21:30:24,62.0,,0.0209791974794708,-1.77281798957696,0.0912949316192211,,-2.7990968030818184,,
,4968.0,873.0,6331.0,1769.0,2663.0,1888.0,2237.0,2025-07-02 21:30:25,62.0,,0.0210591383287163,-1.77303324849855,0.0912897401485554,,-2.9378070807672803,,
,4969.0,870.0,6330.0,1768.0,2677.0,1893.0,2222.0,2025-07-02 21:30:26,62.0,,0.0209437110582028,-1.77297105857364,0.091293754541908,,-3.063618210406206,,
,4969.0,871.0,6330.0,1771.0,2670.0,1900.0,2206.0,2025-07-02 21:30:27,61.0,,0.0209279408444712,-1.77390820448927,0.0912793701088901,,-3.1717475030334334,,
,4972.0,871.0,6333.0,1770.0,2629.0,1903.0,2239.0,2025-07-02 21:30:28,61.0,,0.0209169072024954,-1.77517545132466,0.091255785519375,,-3.2584921813845242,,
,4971.0,872.0,6331.0,1770.0,2611.0,1900.0,2238.0,2025-07-02 21:30:29,61.0,,0.020960353162313,-1.7754501390809,0.0912648366573785,,-3.3217016647754782,,
,4970.0,871.0,6332.0,1769.0,2625.0,1903.0,2248.0,2025-07-02 21:30:30,61.0,,0.0207598025380726,-1.77573206197359,0.0912521229365286,,-3.3610823944007167,,
,4971.0,869.0,6332.0,1771.0,2592.0,1874.0,2253.0,2025-07-02 21:30:31,61.0,,0.0208033284372253,-1.77642090736408,0.0912447618454952,,-3.3782919824798445,,
,4972.0,869.0,6333.0,1773.0,2591.0,1896.0,2229.0,2025-07-02 21:30:32,61.0,,0.0207239262117921,-1.77649004466662,0.0912351049944406,,-3.3768017180736276,,
,4972.0,870.0,6332.0,1771.0,2602.0,1904.0,2227.0,2025-07-02 21:30:33,62.0,,0.0207479927093619,-1.77646559704002,0.0912492092731696,,-3.3615347765068764,,
,4972.0,868.0,6330.0,1771.0,2622.0,1916.0,2223.0,2025-07-02 21:30:34,62.0,,0.0208457903057882,-1.77613902200764,0.0912512086100982,,-3.3383171959898195,,
,4970.0,866.0,6331.0,1772.0,2614.0,1903.0,2234.0,2025-07-02 21:30:35,62.0,,0.0208467914427913,-1.77650146301497,0.0912398694899233,,-3.3132048167675694,,
,4971.0,869.0,6334.0,1772.0,2596.0,1909.0,2208.0,2025-07-02 21:30:36,62.0,,0.0207781248994387,-1.77612532492841,0.0912368075287016,,-3.2917677686779303,,
,4973.0,868.0,6333.0,1771.0,2589.0,1904.0,2210.0,2025-07-02 21:30:37,63.0,,0.020735360120407,-1.77632989361298,0.0912362015913197,,-3.2784220305366847,,
,4971.0,867.0,6333.0,1770.0,2615.0,1905.0,2214.0,2025-07-02 21:30:38,63.0,,0.0207032357247216,-1.77656699700501,0.0912218841808008,,-3.275894018076348,,
,4974.0,866.0,6332.0,1773.0,2608.0,1893.0,2220.0,2025-07-02 21:30:39,63.0,,0.0206496342452307,-1.7772168585944,0.0912324749911746,,-3.2848896905654223,,
,4974.0,867.0,6329.0,1774.0,2574.0,1895.0,2233.0,2025-07-02 21:30:40,63.0,,0.0206567534601379,-1.77739918814633,0.0912044229273894,,-3.3040162400984014,,
,4974.0,865.0,6332.0,1773.0,2594.0,1896.0,2209.0,2025-07-02 21:30:41,62.0,,0.0206474820209477,-1.77805263622153,0.0911944628433856,,-3.329974805682422,,
,4975.0,867.0,6334.0,1774.0,2605.0,1898.0,2210.0,2025-07-02 21:30:42,62.0,,0.0205991597621698,-1.77861547280031,0.0911974001540954,,-3.3580100041864203,,
,4974.0,864.0,6331.0,1771.0,2575.0,1905.0,2196.0,2025-07-02 21:30:43,62.0,,0.0205967320605589,-1.77873773235238,0.0911934237869684,,-3.3825697138671105,,
,4975.0,865.0,6331.0,1773.0,2614.0,1890.0,2182.0,2025-07-02 21:30:44,62.0,,0.0205907217305813,-1.77877694265939,0.0911843510656571,,-3.398099962396493,,
,4978.0,866.0,6331.0,1775.0,2674.0,1913.0,2202.0,2025-07-02 21:30:45,62.0,,0.0205373407425731,-1.7791209751397,0.0911702667891718,,-3.399878825007588,,
,4980.0,865.0,6335.0,1772.0,2652.0,1909.0,2222.0,2025-07-02 21:30:46,62.0,,0.0204873227052051,-1.77967203821645,0.0911593756948517,,-3.38478386227861,,
,4979.0,864.0,6331.0,1774.0,2642.0,1904.0,2214.0,2025-07-02 21:30:47,62.0,,0.0204083365735894,-1.77977111786905,0.0911569505191318,,-3.3518923156997027,,
,4983.0,864.0,6330.0,1774.0,2665.0,1915.0,2202.0,2025-07-02 21:30:48,61.0,,0.0203613192982642,-1.78037322391098,0.0911470440722394,,-3.30283153414808,,
,4983.0,866.0,6331.0,1776.0,2671.0,1907.0,2227.0,2025-07-02 21:30:49,61.0,,0.020385097329227,-1.78063923825495,0.0911377881565674,,-3.2418255761113635,,
,4986.0,865.0,6335.0,1775.0,2664.0,1906.0,2227.0,2025-07-02 21:30:50,60.0,,0.0203752086423795,-1.78060432499459,0.0911365393675427,,-3.175418031612106,,
,4990.0,865.0,6331.0,1776.0,2663.0,1910.0,2229.0,2025-07-02 21:30:51,60.0,,0.0203304841582098,-1.78065385758389,0.0911347408971157,,-3.111886402965011,,
,4989.0,864.0,6331.0,1776.0,2652.0,1912.0,2217.0,2025-07-02 21:30:52,60.0,,0.020357984780016,-1.78029472315685,0.0911494907241547,,-3.060396060760354,,
,4990.0,865.0,6332.0,1778.0,2647.0,1915.0,2212.0,2025-07-02 21:30:53,60.0,,0.0203509937055819,-1.78111273546317,0.0911337549207677,,-3.0299687402505118,,
,4994.0,865.0,6334.0,1778.0,2628.0,1914.0,2184.0,2025-07-02 21:30:54,61.0,,0.020372235742255,-1.7811732744611,0.0911215935967335,,-3.028359565397771,,
,4994.0,865.0,6334.0,1779.0,2635.0,1918.0,2184.0,2025-07-02 21:30:55,61.0,,0.0202931433218667,-1.78156210404766,0.0911181569046233,,-3.060946638106425,,
,4995.0,865.0,6334.0,1782.0,2642.0,1910.0,2190.0,2025-07-02 21:30:56,61.0,,0.0202262472607322,-1.78200858415129,0.0911105398705138,,-3.12973840885355,,
,4997.0,862.0,6333.0,1782.0,2641.0,1920.0,2180.0,2025-07-02 21:30:57,62.0,,0.0202501571839795,-1.78192479939739,0.0910976884511629,,-3.2325971752498837,,
,5001.0,866.0,6334.0,1782.0,2626.0,1912.0,2185.0,2025-07-02 21:30:58,62.0,,0.0202224240741403,-1.7822391891872,0.0911012967839988,,-3.3627630329281524,,
,5005.0,865.0,6334.0,1784.0,2625.0,1909.0,2195.0,2025-07-02 21:30:59,62.0,,0.0202376527230172,-1.7823999596939,0.0911018665183963,,-3.508742062443084,,
,5008.0,865.0,6335.0,1784.0,2616.0,1907.0,2205.0,2025-07-02 21:31:00,63.0,,0.0201295355908284,-1.78295665639019,0.0910855212533122,,-3.6545961837391348,,
,5007.0,864.0,6335.0,1782.0,2664.0,1899.0,2204.0,2025-07-02 21:31:01,63.0,,0.0201608655076084,-1.78260972702209,0.0910965205530746,,-3.7806414625420164,,
,5008.0,864.0,6339.0,1783.0,2655.0,1900.0,2197.0,2025-07-02 21:31:02,65.0,,0.0201429707131729,-1.78306208411234,0.0910887333173831,,-3.8645293825212077,,
,5014.0,866.0,6337.0,1786.0,2664.0,1910.0,2215.0,2025-07-02 21:31:03,66.0,,0.0201025716292692,-1.78307258304243,0.0910671307054884,,-3.882654809776718,,
,5018.0,865.0,6335.0,1786.0,2670.0,1915.0,2218.0,2025-07-02 21:31:04,68.0,,0.0200574773820365,-1.78341720384891,0.0910628576526504,,-3.8118072666831795,,
,5016.0,863.0,6337.0,1785.0,2678.0,1897.0,2224.0,2025-07-02 21:31:05,69.0,,0.0200029166113252,-1.78501162502349,0.0910647863494858,,-3.6309594618862495,,
,5020.0,865.0,6340.0,1787.0,2677.0,1912.0,2213.0,2025-07-02 21:31:06,71.0,,0.0198894878883092,-1.78509401129161,0.0910227233034632,,-3.323069067897734,,
,5025.0,864.0,6337.0,1791.0,2669.0,1916.0,2203.0,2025-07-02 21:31:07,73.0,,0.0198816885159436,-1.78580726690902,0.091003844467801,,-2.8767576422877124,,
,5028.0,866.0,6339.0,1790.0,2671.0,1916.0,2200.0,2025-07-02 21:31:08,74.0,,0.019755520674064,-1.78683041783769,0.0910011807554616,,-2.2877267981401976,,
,5028.0,860.0,6338.0,1789.0,2666.0,1920.0,2201.0,2025-07-02 21:31:09,75.0,,0.019704191806012,-1.78731588445436,0.0909925325885495,,-1.559779211300095,,
,5033.0,864.0,6338.0,1791.0,2647.0,1916.0,2192.0,2025-07-02 21:31:10,74.0,,0.0196346197743741,-1.78775916229935,0.0909892875059765,,-0.7053328593760144,,
,5035.0,865.0,6339.0,1792.0,2639.0,1915.0,2187.0,2025-07-02 21:31:11,73.0,,0.0197163052812699,-1.78726653535212,0.0909997651136551,,0.2546491243620202,,
,5037.0,866.0,6341.0,1793.0,2624.0,1924.0,2211.0,2025-07-02 21:31:12,72.0,,0.0197550566524079,-1.78662149797067,0.0910053372963214,,1.2913462026837195,,
,5042.0,865.0,6340.0,1794.0,2620.0,1925.0,2214.0,2025-07-02 21:31:13,71.0,,0.0198626064316958,-1.78643338575844,0.091008285678912,,2.369368951531752,,
,5043.0,864.0,6340.0,1793.0,2658.0,1924.0,2223.0,2025-07-02 21:31:14,70.0,,0.0199918758121764,-1.78616658148663,0.0910370640279309,,3.448581207942785,,
,5045.0,864.0,6338.0,1793.0,2664.0,1919.0,2227.0,2025-07-02 21:31:15,69.0,,0.0200576174647747,-1.78517708120895,0.0910374744245501,,4.486343157088985,,
,5049.0,866.0,6343.0,1795.0,2647.0,1913.0,2235.0,2025-07-02 21:31:16,68.0,,0.0200914303612812,-1.78564165091943,0.0910530160643905,,5.440025635988003,,
,5052.0,865.0,6343.0,1795.0,2645.0,1913.0,2238.0,2025-07-02 21:31:17,68.0,,0.0201398060569752,-1.78397775557967,0.0910599296075403,,6.269619568916884,,
,5053.0,866.0,6343.0,1797.0,2643.0,1904.0,2219.0,2025-07-02 21:31:18,67.0,,0.0201899520714983,-1.78311649884813,0.0910871017911887,,6.940249386583764,,
,5056.0,864.0,6341.0,1796.0,2636.0,1915.0,2227.0,2025-07-02 21:31:19,66.0,,0.0202618591456638,-1.78350904144014,0.0910877911557882,,7.4243959931142,,
,5060.0,865.0,6343.0,1797.0,2646.0,1915.0,2218.0,2025-07-02 21:31:20,65.0,,0.020262418240342,-1.7836483138723,0.0910938271384601,,7.703645478958882,,
,5065.0,864.0,6344.0,1799.0,2643.0,1913.0,2210.0,2025-07-02 21:31:21,64.0,,0.0202346492245925,-1.78362244216927,0.0910858477841729,,7.769808368820777,,
,5066.0,868.0,6345.0,1800.0,2658.0,1900.0,2202.0,2025-07-02 21:31:22,64.0,,0.0201829762572766,-1.78381794331721,0.0910745902577839,,7.625304162671534,,
,5065.0,864.0,6344.0,1799.0,2650.0,1900.0,2222.0,2025-07-02 21:31:23,64.0,,0.0201630685373486,-1.78439154699652,0.0910620985666015,,7.282775940691666,,
,5070.0,866.0,6346.0,1803.0,2650.0,1917.0,2200.0,2025-07-02 21:31:24,65.0,,0.0201511805128223,-1.78438736532297,0.0910491192816772,,6.763980730540711,,
,5076.0,866.0,6346.0,1801.0,2643.0,1915.0,2203.0,2025-07-02 21:31:25,65.0,,0.0203002495030902,-1.78441378576485,0.0910512682321605,,6.098077609063933,,
,5077.0,865.0,6345.0,1800.0,2649.0,1918.0,2205.0,2025-07-02 21:31:26,65.0,,0.0202836644833208,-1.78478562856948,0.0910586551785497,,5.319491450395237,,
,5077.0,866.0,6343.0,1802.0,2656.0,1911.0,2202.0,2025-07-02 21:31:27,65.0,,0.0203470283541762,-1.78438167423823,0.0910737818506926,,4.465556945981251,,
,5084.0,866.0,6345.0,1804.0,2644.0,1910.0,2195.0,2025-07-02 21:31:28,64.0,,0.0204050384360972,-1.78351815084424,0.0910755131792021,,3.574145294680664,,
,5083.0,867.0,6348.0,1806.0,2639.0,1904.0,2210.0,2025-07-02 21:31:29,64.0,,0.0203556451819206,-1.78335710901184,0.0910817598753672,,2.681451748157665,,
,5086.0,869.0,6347.0,1806.0,2643.0,1903.0,2211.0,2025-07-02 21:31:30,63.0,,0.0203323634742591,-1.78366051604569,0.0910839447397184,,1.820085355409092,,
,5089.0,865.0,6346.0,1805.0,2649.0,1909.0,2217.0,2025-07-02 21:31:31,63.0,,0.020316354150577,-1.78345287287542,0.0910738162538727,,1.0175611491105052,,
,5090.0,866.0,6348.0,1804.0,2648.0,1922.0,2186.0,2025-07-02 21:31:32,63.0,,0.0202826469131055,-1.78429834246992,0.0910561110466721,,0.2952552676242257,,
,5094.0,867.0,6347.0,1808.0,2629.0,1918.0,2206.0,2025-07-02 21:31:33,64.0,,0.0201777410558218,-1.78497339930626,0.0910356691345249,,-0.33215247493317573,,
,5097.0,868.0,6349.0,1807.0,2628.0,1925.0,2218.0,2025-07-02 21:31:34,65.0,,0.0200306520287091,-1.7864425853416,0.0910299989488789,,-0.8567564034964636,,
,5099.0,866.0,6349.0,1809.0,2637.0,1927.0,2209.0,2025-07-02 21:31:35,66.0,,0.0199994756306054,-1.7866160850246,0.0910032325406925,,-1.2770607241768186,,
,5097.0,866.0,6349.0,1808.0,2637.0,1920.0,2216.0,2025-07-02 21:31:36,66.0,,0.0200092519675085,-1.78634556127789,0.0909959301724641,,-1.5972377052938556,,
,5106.0,866.0,6350.0,1809.0,2648.0,1918.0,2220.0,2025-07-02 21:31:37,66.0,,0.0200766273857149,-1.78644486819894,0.091012863361353,,-1.8260950503251254,,
,5110.0,868.0,6350.0,1809.0,2654.0,1912.0,2229.0,2025-07-02 21:31:38,66.0,,0.0200157356131558,-1.78605590726555,0.0910014557495437,,-1.9758539380931381,,
,5109.0,869.0,6350.0,1812.0,2652.0,1911.0,2220.0,2025-07-02 21:31:39,65.0,,0.0200463858075265,-1.78646140469499,0.0910038130761128,,-2.060844564400992,,
,5110.0,867.0,6352.0,1811.0,2654.0,1919.0,2196.0,2025-07-02 21:31:40,65.0,,0.0200015946204438,-1.78651627025731,0.0910123722101411,,-2.0962219751930355,,
2025-07-02 21:29:34,5115.0,866.0,6354.0,1811.0,2643.0,1904.0,2191.0,2025-07-02 21:31:41,64.0,2025/07/02 09:29:34 PM,0.0200854319182724,-1.78719991532902,0.0909885145945778,,-2.0967929802026353,,
,5116.0,866.0,6352.0,1811.0,2656.0,1906.0,2180.0,2025-07-02 21:31:42,65.0,,0.0200019894453356,-1.78858632583359,0.0909997066676461,,-2.0760271253662403,,
,5118.0,866.0,6352.0,1813.0,2652.0,1909.0,2195.0,2025-07-02 21:31:43,65.0,,0.0199248509462119,-1.7880930034031,0.0909678667150385,,-2.04530334521882,,
,5123.0,868.0,6352.0,1817.0,2627.0,1913.0,2215.0,2025-07-02 21:31:44,66.0,,0.019920500164155,-1.78869525866862,0.0909632013673224,,-2.013421151328489,,
,5125.0,865.0,6352.0,1814.0,2623.0,1907.0,2196.0,2025-07-02 21:31:45,66.0,,0.0198472757153885,-1.78955354680012,0.0909525139913586,,-1.9863829161916862,,
,5127.0,869.0,6353.0,1817.0,2640.0,1912.0,2211.0,2025-07-02 21:31:46,66.0,,0.0198006212358587,-1.79090993531892,0.0909342475530312,,-1.967433403632498,,
,5131.0,868.0,6354.0,1818.0,2665.0,1920.0,2228.0,2025-07-02 21:31:47,66.0,,0.0197563619809519,-1.79130012297426,0.0909312820166468,,-1.957325025690216,,
,5136.0,866.0,6356.0,1819.0,2672.0,1923.0,2227.0,2025-07-02 21:31:48,65.0,,0.0197284938936256,-1.79077906113346,0.0909188587262275,,-1.9547627670389558,,
,5138.0,866.0,6356.0,1817.0,2678.0,1920.0,2220.0,2025-07-02 21:31:49,65.0,,0.0197388233641085,-1.79086157696032,0.0909342381756973,,-1.9569715450671739,,
,5140.0,869.0,6353.0,1819.0,2684.0,1921.0,2233.0,2025-07-02 21:31:50,64.0,,0.0197624951606537,-1.79094463456297,0.0909344725434451,,-1.9603214444372277,,
,5143.0,868.0,6357.0,1820.0,2657.0,1921.0,2243.0,2025-07-02 21:31:51,64.0,,0.019744564535447,-1.79064788673252,0.0909293611041386,,-1.9609439114268212,,
,5143.0,869.0,6359.0,1821.0,2666.0,1919.0,2233.0,2025-07-02 21:31:52,64.0,,0.0197736707690571,-1.79072704063245,0.0909379413015915,,-1.955276311439173,,
,5144.0,869.0,6358.0,1820.0,2632.0,1924.0,2225.0,2025-07-02 21:31:53,64.0,,0.0197455953554332,-1.79046027404041,0.0909405331591634,,-1.9404843970064531,,
,5144.0,868.0,6356.0,1820.0,2594.0,1913.0,2210.0,2025-07-02 21:31:54,64.0,,0.0198509513269994,-1.78967122500359,0.0909509286388187,,-1.9147313309566234,,
,5145.0,867.0,6357.0,1821.0,2609.0,1916.0,2188.0,2025-07-02 21:31:55,64.0,,0.0199143365342548,-1.78945795790494,0.0909520781986752,,-1.8772847041524714,,
,5143.0,868.0,6354.0,1819.0,2614.0,1908.0,2170.0,2025-07-02 21:31:56,64.0,,0.0199521905841073,-1.78932454649692,0.0909562446750405,,-1.8284750498244158,,
,5138.0,869.0,6355.0,1816.0,2604.0,1918.0,2162.0,2025-07-02 21:31:57,64.0,,0.0199057192376745,-1.78939617850735,0.090953779965599,,-1.7695367434808082,,
,5134.0,867.0,6353.0,1815.0,2610.0,1921.0,2182.0,2025-07-02 21:31:58,64.0,,0.0199682730195705,-1.78924153143971,0.0909582302020347,,-1.7023725081560535,,
,5131.0,866.0,6349.0,1814.0,2622.0,1919.0,2204.0,2025-07-02 21:31:59,63.0,,0.0199022008321281,-1.78887232572561,0.0909616888635237,,-1.6292855724481472,,
,5130.0,867.0,6352.0,1814.0,2611.0,1915.0,2185.0,2025-07-02 21:32:00,63.0,,0.0199191995961882,-1.78892032609238,0.0909677043252747,,-1.552720151542309,,
,5122.0,863.0,6347.0,1812.0,2610.0,1911.0,2179.0,2025-07-02 21:32:01,63.0,,0.0199792000255324,-1.78932273373386,0.0909461312959532,,-1.4750436987656097,,
,5117.0,859.0,6341.0,1804.0,2647.0,1923.0,2149.0,2025-07-02 21:32:02,63.0,,0.0199335850590084,-1.78912711644584,0.0909588071612267,,-1.3983957017017825,,
,5112.0,862.0,6337.0,1803.0,2652.0,1913.0,2169.0,2025-07-02 21:32:03,63.0,,0.0199525358635855,-1.78901865509399,0.0909568693681775,,-1.3246190817733312,,
,5107.0,863.0,6336.0,1799.0,2660.0,1913.0,2173.0,2025-07-02 21:32:04,63.0,,0.0200152504210535,-1.78885117479006,0.0909559604620914,,-1.2552813918116708,,
,5103.0,861.0,6332.0,1798.0,2655.0,1921.0,2185.0,2025-07-02 21:32:05,63.0,,0.019962708469566,-1.7893763803294,0.0909559572604381,,-1.1917826636939326,,
,5097.0,860.0,6325.0,1798.0,2649.0,1924.0,2218.0,2025-07-02 21:32:06,63.0,,0.0200259883837248,-1.78935450090006,0.0909527357075242,,-1.1355334908058643,,
,5092.0,859.0,6321.0,1792.0,2667.0,1928.0,2175.0,2025-07-02 21:32:07,63.0,,0.0199192884616809,-1.78962744991206,0.0909576979896204,,-1.088170817040246,,
,5088.0,860.0,6319.0,1792.0,2672.0,1928.0,2177.0,2025-07-02 21:32:08,63.0,,0.0199716789776906,-1.78908960378422,0.090965185133788,,-1.0517629942285978,,
,5085.0,858.0,6309.0,1792.0,2687.0,1930.0,2187.0,2025-07-02 21:32:09,63.0,,0.0199078420325745,-1.78944462360981,0.0909492238068669,,-1.0289456805785786,,
,5084.0,857.0,6304.0,1788.0,2680.0,1934.0,2176.0,2025-07-02 21:32:10,63.0,,0.0199283061842911,-1.78900760871038,0.0909429601310443,,-1.0229316136820814,,
,5081.0,855.0,6300.0,1788.0,2681.0,1932.0,2164.0,2025-07-02 21:32:11,63.0,,0.0199742115569271,-1.78905955198526,0.09094034166177,,-1.0373520451993923,,
,5077.0,854.0,6294.0,1785.0,2694.0,1934.0,2184.0,2025-07-02 21:32:12,63.0,,0.0199811528357834,-1.78877384968339,0.090954735937195,,-1.0759126771731087,,
,5075.0,858.0,6293.0,1786.0,2683.0,1930.0,2178.0,2025-07-02 21:32:13,62.0,,0.0200533189537282,-1.78856700519932,0.0909503315988451,,-1.141876373909257,,
,5077.0,855.0,6288.0,1785.0,2695.0,1927.0,2180.0,2025-07-02 21:32:14,62.0,,0.0199861503392112,-1.78853697610748,0.0909545958879625,,-1.2374129848579003,,
,5073.0,856.0,6283.0,1786.0,2685.0,1917.0,2161.0,2025-07-02 21:32:15,62.0,,0.0199785316926389,-1.78859506786256,0.0909567577655571,,-1.3628796956010716,,
,5073.0,855.0,6279.0,1786.0,2665.0,1928.0,2183.0,2025-07-02 21:32:16,62.0,,0.0200864680018508,-1.78848849431681,0.0909578794564677,,-1.5161119122245243,,
,5074.0,854.0,6280.0,1785.0,2662.0,1919.0,2151.0,2025-07-02 21:32:17,63.0,,0.0200882774553918,-1.78837995411608,0.090963718974058,,-1.691814114111758,,
,5072.0,855.0,6274.0,1785.0,2666.0,1918.0,2158.0,2025-07-02 21:32:18,64.0,,0.0200256920366315,-1.78822008472175,0.0909659018190413,,-1.881141618136718,,
,5070.0,854.0,6274.0,1783.0,2652.0,1923.0,2159.0,2025-07-02 21:32:19,65.0,,0.0200091831529028,-1.78807830365182,0.0909647100484142,,-2.0715568503446375,,
,5070.0,852.0,6269.0,1785.0,2657.0,1920.0,2184.0,2025-07-02 21:32:20,65.0,,0.020087701642502,-1.78781153587403,0.0909666701952399,,-2.247026775177199,,
,5072.0,852.0,6268.0,1786.0,2657.0,1925.0,2187.0,2025-07-02 21:32:21,66.0,,0.0200182676311705,-1.78716666434234,0.0909801780489961,,-2.388601417958542,,
,5070.0,853.0,6268.0,1787.0,2679.0,1921.0,2192.0,2025-07-02 21:32:22,65.0,,0.0200586535089714,-1.78756846359842,0.0909833995772779,,-2.475377822665814,,
,5071.0,854.0,6268.0,1787.0,2675.0,1917.0,2197.0,2025-07-02 21:32:23,65.0,,0.0199945944869326,-1.78736107886296,0.090979431385347,,-2.485811904476992,,
,5069.0,852.0,6263.0,1786.0,2649.0,1915.0,2190.0,2025-07-02 21:32:24,64.0,,0.0201199099683854,-1.78762473719829,0.0909779931386928,,-2.3992972233589063,,
,5072.0,852.0,6263.0,1785.0,2683.0,1912.0,2179.0,2025-07-02 21:32:25,64.0,,0.0200639044556304,-1.78711751592879,0.0909749887098727,,-2.1978911167161765,,
,5073.0,851.0,6260.0,1788.0,2670.0,1920.0,2195.0,2025-07-02 21:32:26,64.0,,0.0200321314952921,-1.78789752705239,0.0909701057216628,,-1.868041229572907,,
,5074.0,852.0,6261.0,1788.0,2656.0,1918.0,2197.0,2025-07-02 21:32:27,65.0,,0.0200933797379279,-1.78829521404108,0.0909688581258307,,-1.402153635553888,,
,5074.0,850.0,6259.0,1789.0,2665.0,1909.0,2202.0,2025-07-02 21:32:28,66.0,,0.0201705048360715,-1.78848127531051,0.0909718823660691,,-0.7998490126705334,,
,5075.0,853.0,6258.0,1789.0,2661.0,1916.0,2185.0,2025-07-02 21:32:29,66.0,,0.0201262094911982,-1.78810515576375,0.0909597198468038,,-0.06877478272341879,,
,5076.0,852.0,6257.0,1790.0,2644.0,1914.0,2203.0,2025-07-02 21:32:30,66.0,,0.0200688157791613,-1.78759619936477,0.0909741564799495,,0.7751241475206438,,
,5077.0,851.0,6256.0,1789.0,2667.0,1914.0,2204.0,2025-07-02 21:32:31,66.0,,0.0201431489708215,-1.7877353201991,0.0909717945642301,,1.7079297282630002,,
,5075.0,853.0,6255.0,1791.0,2674.0,1913.0,2203.0,2025-07-02 21:32:32,65.0,,0.0202231025277633,-1.78765302707475,0.090982921782339,,2.6986762183388695,,
,5078.0,852.0,6252.0,1790.0,2684.0,1915.0,2189.0,,,,0.0202190988353829,-1.78719657665996,0.0910015794572727,,3.7108355310932977,,
,5078.0,852.0,6254.0,1790.0,2653.0,1911.0,2195.0,,,,0.0202181525292034,-1.78658004846897,0.0909884716427656,,4.704277385884357,,
,5080.0,852.0,6252.0,1791.0,2673.0,1918.0,2181.0,,,,0.0201789500532664,-1.78673036965278,0.0909866923737044,,5.637580382782913,,
,5078.0,853.0,6253.0,1791.0,2675.0,1923.0,2175.0,,,,0.0203187578660457,-1.78688073057763,0.0909871916705007,,6.47053792059115,,
,5080.0,854.0,6252.0,1790.0,2656.0,1933.0,2199.0,,,,0.0202792328597329,-1.78682427325392,0.0909992434137877,,7.166679399939367,,
,5081.0,853.0,6250.0,1790.0,2647.0,1916.0,2211.0,,,,0.0202704910576653,-1.7866409031607,0.0909889508811719,,7.695615018577183,,
,5079.0,851.0,6251.0,1792.0,2646.0,1916.0,2195.0,,,,0.0202584216264004,-1.78607789786716,0.0909871149433343,,8.035014263613155,,
,5079.0,856.0,6251.0,1793.0,2663.0,1919.0,2205.0,,,,0.020267086261208,-1.78626803633735,0.0910025830579835,,8.172046239591396,,
,5080.0,855.0,6251.0,1793.0,2660.0,1921.0,2167.0,,,,0.0202715034387654,-1.78608328896188,0.0909988326314041,,8.104146182143415,,
,5078.0,851.0,6248.0,1792.0,2672.0,1916.0,2157.0,,,,0.0202853078594589,-1.78563461207107,0.0910032617518939,,7.839027636057669,,
,5083.0,852.0,6247.0,1793.0,2654.0,1928.0,2158.0,,,,0.0202961894046258,-1.78583881137922,0.0910047201462614,,7.3939313017692925,,
,5082.0,853.0,6250.0,1795.0,2660.0,1924.0,2188.0,,,,0.0203820331781732,-1.78587601691054,0.0910094373921011,,6.7941815634864895,,
,5080.0,854.0,6249.0,1793.0,2662.0,1923.0,2196.0,,,,0.0203637348129,-1.78510079516296,0.0910160040711783,,6.071197066851423,,
,5080.0,852.0,6246.0,1792.0,2685.0,1928.0,2203.0,,,,0.0204087370445592,-1.78499632282765,0.0910240699872159,,5.260157741547905,,
,5080.0,855.0,6249.0,1794.0,2670.0,1926.0,2207.0,,,,0.0204185920323924,-1.78503221025583,0.0910361912151527,,4.3975566957293095,,
,5083.0,854.0,6247.0,1793.0,2688.0,1926.0,2182.0,,,,0.0204014498127729,-1.78522299103271,0.0910231582820646,,3.5188586540002382,,
,5083.0,851.0,6249.0,1794.0,2673.0,1929.0,2184.0,,,,0.0203502467265925,-1.78469668263038,0.0910338691572923,,2.656452117544755,,
,5082.0,852.0,6248.0,1795.0,2648.0,1911.0,2165.0,,,,0.0204115458298593,-1.78475955088417,0.0910332210583284,,1.8380299665106135,,
,5082.0,851.0,6247.0,1793.0,2663.0,1923.0,2174.0,,,,0.0204765585952786,-1.78441147354638,0.0910395383658308,,1.0854737339611111,,
,5088.0,856.0,6248.0,1794.0,2662.0,1922.0,2181.0,,,,0.0205125159280925,-1.78307143716175,0.0910742939291119,,0.41425997860074,,
,5088.0,856.0,6253.0,1796.0,2656.0,1918.0,2185.0,,,,0.0206237094609019,-1.78172622671155,0.0910808603969526,,-0.16663975833323577,,
,5087.0,853.0,6248.0,1794.0,2647.0,1911.0,2172.0,,,,0.0208099834843535,-1.78023083174468,0.0911147605645512,,-0.6544272297118322,,
,5088.0,854.0,6248.0,1797.0,2655.0,1919.0,2191.0,,,,0.0209221667706068,-1.77778927166137,0.0911488553293132,,-1.05179536424359,,
,5090.0,854.0,6248.0,1798.0,2640.0,1926.0,2167.0,,,,0.0211468481523723,-1.77615944624503,0.0911934378212962,,-1.3659857492247574,,
,5092.0,852.0,6251.0,1796.0,2630.0,1933.0,2184.0,,,,0.0212972522942955,-1.77467967963402,0.0912391274654365,,-1.6076773012259284,,
,5093.0,854.0,6250.0,1797.0,2629.0,1930.0,2188.0,,,,0.0213713996936625,-1.77276687079188,0.0912865252780725,,-1.7897951628060782,,
,5092.0,852.0,6252.0,1797.0,2653.0,1920.0,2197.0,,,,0.0216214248993606,-1.77083482994668,0.0913195875846012,,-1.9263232382767426,,
,5096.0,853.0,6250.0,1799.0,2660.0,1914.0,2183.0,,,,0.0217848126540276,-1.76947032507797,0.0913505602507619,,-2.031195101921425,,
,5099.0,855.0,6251.0,1799.0,2674.0,1913.0,2180.0,,,,0.0219156366535415,-1.76769498157002,0.0913759110163367,,-2.1173264118814523,,
,5099.0,854.0,6253.0,1800.0,2678.0,1909.0,2188.0,,,,0.0221109652239456,-1.76587705452244,0.0914118950752137,,-2.1958380821996992,,
,5101.0,857.0,6253.0,1802.0,2642.0,1918.0,2188.0,,,,0.022286048501959,-1.7633257847124,0.0914523939267542,,-2.275504190496843,,
,5101.0,855.0,6252.0,1802.0,2669.0,1928.0,2191.0,,,,0.0225065381734967,-1.76097405833681,0.0915024583125142,,-2.3624427084555015,,
,5104.0,858.0,6255.0,1802.0,2656.0,1935.0,2201.0,,,,0.0228174859303824,-1.75821062387315,0.0915670168358857,,-2.4600511709845403,,
,5106.0,858.0,6253.0,1801.0,2664.0,1920.0,2205.0,,,,0.0230515579772215,-1.75493858311417,0.0916322339443124,,-2.569173772893648,,
,5108.0,855.0,6255.0,1804.0,2667.0,1920.0,2197.0,,,,0.0232290092777961,-1.75163236525706,0.0917021762242057,,-2.6884716184236233,,
,5108.0,855.0,6254.0,1802.0,2653.0,1919.0,2198.0,,,,0.0235402564769392,-1.74840054520991,0.0917776140840633,,-2.814954560403007,,
,5111.0,856.0,6256.0,1804.0,2667.0,1920.0,2196.0,,,,0.0238426870168307,-1.74528773091217,0.0918195476294437,,-2.9446217866970112,,
,5113.0,855.0,6259.0,1807.0,2665.0,1927.0,2198.0,,,,0.0240597968255659,-1.74221982128513,0.0918793106736069,,-3.0731494775762163,,
,5116.0,857.0,6259.0,1808.0,2658.0,1927.0,2194.0,,,,0.0242442789898272,-1.74042945269209,0.0919204266528827,,-3.1965581749506904,,
,5115.0,857.0,6260.0,1808.0,2643.0,1917.0,2183.0,,,,0.0244065432620033,-1.73864097637756,0.0919702996250622,,-3.3117914522683765,,
,5120.0,857.0,6260.0,1808.0,2651.0,1924.0,2220.0,,,,0.0245599200159037,-1.73667170432382,0.0920034312717133,,-3.4171430697235876,,
,5121.0,857.0,6260.0,1809.0,2659.0,1928.0,2209.0,,,,0.0247577667052719,-1.73508830511697,0.0920255507201444,,-3.512483249673805,,
,5124.0,857.0,6262.0,1812.0,2667.0,1916.0,2210.0,,,,0.0248666586784994,-1.73413714616232,0.0920483014452327,,-3.599255081321951,,
,5125.0,857.0,6265.0,1811.0,2655.0,1911.0,2200.0,,,,0.0249932746965146,-1.73209639292549,0.0920911661890797,,-3.6802364047002567,,
,5127.0,858.0,6263.0,1809.0,2640.0,1912.0,2189.0,,,,0.0252116320961187,-1.73031534085245,0.0921260207691603,,-3.759087270327965,,
,5132.0,857.0,6264.0,1813.0,2639.0,1916.0,2196.0,,,,0.0253853191391448,-1.72915765302623,0.0921437580616401,,-3.839725470640634,,
,5134.0,857.0,6267.0,1813.0,2628.0,1918.0,2195.0,,,,0.025589923724259,-1.72780699006939,0.0921727729847184,,-3.9255911472401626,,
,5135.0,860.0,6267.0,1814.0,2646.0,1915.0,2202.0,,,,0.025686765811172,-1.72534975352462,0.0922082675746793,,-4.018875220274429,,
,5135.0,856.0,6268.0,1813.0,2645.0,1913.0,2187.0,,,,0.02574543681542,-1.72408874137733,0.0922455915498591,,-4.119794537082612,,
,5137.0,859.0,6268.0,1816.0,2653.0,1920.0,2194.0,,,,0.0258047352549388,-1.72289752395458,0.0922589240027005,,-4.2259982821861275,,
,5141.0,858.0,6273.0,1815.0,2666.0,1920.0,2213.0,,,,0.0259553503455616,-1.72105885004485,0.092292556362648,,-4.332184484837713,,
,5141.0,857.0,6272.0,1814.0,2664.0,1922.0,2204.0,,,,0.0261343989537639,-1.72009883193894,0.0923138852587819,,-4.429991738657569,,
,5147.0,859.0,6273.0,1817.0,2658.0,1925.0,2203.0,,,,0.0263144493395293,-1.71887855839926,0.0923260109653612,,-4.508209146799165,,
,5145.0,858.0,6274.0,1819.0,2674.0,1922.0,2218.0,,,,0.0264087226848948,-1.71831300474493,0.0923300265589251,,-4.553317343634731,,
,5149.0,860.0,6275.0,1819.0,2673.0,1915.0,2212.0,,,,0.0264934383432092,-1.71742450894724,0.0923452701565045,,-4.550336923994064,,
,5149.0,860.0,6277.0,1820.0,2656.0,1925.0,2204.0,,,,0.0265633566750704,-1.71715019256173,0.0923595055628217,,-4.483921554665502,,
,5152.0,860.0,6275.0,1819.0,2649.0,1921.0,2212.0,,,,0.0266285243951774,-1.71613759346485,0.0923743055036109,,-4.339597452071067,,
,5152.0,859.0,6278.0,1817.0,2646.0,1927.0,2211.0,,,,0.0265688524645297,-1.71619570641112,0.0923885050676093,,-4.105025754496088,,
,5155.0,858.0,6281.0,1822.0,2655.0,1925.0,2211.0,,,,0.0266806677122704,-1.71554897333878,0.0923836952939077,,-3.7711553655823593,,
,5158.0,861.0,6281.0,1822.0,2657.0,1922.0,2190.0,,,,0.0267408256654128,-1.71433463680381,0.0924035281117032,,-3.3331437720338966,,
,5158.0,861.0,6281.0,1821.0,2653.0,1921.0,2183.0,,,,0.0268001234056966,-1.71378156288819,0.0924216773619455,,-2.7909510660792045,,
,5158.0,860.0,6286.0,1821.0,2642.0,1924.0,2166.0,,,,0.0269003533664441,-1.71252857192625,0.092445093163708,,-2.149553528278134,,
,5161.0,860.0,6285.0,1823.0,2645.0,1924.0,2184.0,,,,0.026986954284837,-1.71164864826881,0.0924524591370603,,-1.4187707606309239,,
,5165.0,861.0,6283.0,1823.0,2641.0,1924.0,2191.0,,,,0.0271112488474969,-1.71070630728945,0.0924663824277736,,-0.6127462734554372,,
,5166.0,858.0,6288.0,1826.0,2648.0,1916.0,2206.0,,,,0.0271001466242792,-1.71013605972508,0.0924758627115892,,0.2508422059827929,,
,5167.0,859.0,6289.0,1827.0,2649.0,1910.0,2201.0,,,,0.0271497313412898,-1.7099077516966,0.0924916906296161,,1.1517449692803907,,
,5169.0,859.0,6288.0,1825.0,2642.0,1921.0,2186.0,,,,0.0271551642435373,-1.70929317837061,0.092488308573275,,2.068172403045195,,
,5174.0,863.0,6293.0,1825.0,2643.0,1917.0,2214.0,,,,0.0271891612993556,-1.70827255041259,0.0924890956591312,,2.977803933970733,,
,5174.0,861.0,6294.0,1826.0,2649.0,1920.0,2231.0,,,,0.0272929932224727,-1.70824401131235,0.0925041602949784,,3.858701535231032,,
,5177.0,861.0,6290.0,1827.0,2659.0,1915.0,2226.0,,,,0.0273366683212664,-1.70742093665579,0.0925228924107557,,4.690082513463962,,
,5177.0,859.0,6294.0,1829.0,2673.0,1921.0,2207.0,,,,0.0273645325616482,-1.70704502491169,0.0925215715757683,,5.452934844158312,,
,5184.0,859.0,6297.0,1829.0,2661.0,1917.0,2199.0,,,,0.0274497718357993,-1.70653886197666,0.092529803091244,,6.130483582025019,,
,5185.0,862.0,6299.0,1830.0,2657.0,1920.0,2214.0,,,,0.0274602150205744,-1.70605561319267,0.0925442065617599,,6.708534525904116,,
,5183.0,861.0,6300.0,1830.0,2658.0,1921.0,2228.0,,,,0.0274133099441788,-1.70643627016773,0.0925363765984849,,7.175728329907248,,
,5185.0,862.0,6297.0,1829.0,2682.0,1917.0,2230.0,,,,0.0274211343758602,-1.70635356505977,0.0925412543122722,,7.523733983523486,,
,5182.0,863.0,6301.0,1828.0,2666.0,1920.0,2239.0,,,,0.0273678853300057,-1.70609836300159,0.0925382684197247,,7.747397569131946,,
2025-07-02 21:29:35,5182.0,860.0,6302.0,1828.0,2668.0,1915.0,2219.0,,,2025/07/02 09:29:35 PM,0.0272642199135508,-1.7066420309232,0.0925164221695088,,7.84484556407866,,
,5179.0,861.0,6301.0,1826.0,2689.0,1911.0,2190.0,,,,0.0271595021379559,-1.70740311761652,0.0925229242997132,,7.817527427146195,,
,5175.0,861.0,6301.0,1829.0,2667.0,1910.0,2193.0,,,,0.0270969932496113,-1.70728792643117,0.0925092664662164,,7.670174113269913,,
,5168.0,860.0,6298.0,1825.0,2661.0,1903.0,2177.0,,,,0.0271159045160461,-1.70783382204699,0.0925085375272302,,7.410649330971414,,
,5165.0,861.0,6298.0,1824.0,2660.0,1912.0,2199.0,,,,0.0270532192312929,-1.70788830988215,0.0925130578490122,,7.049678102749482,,
,5163.0,859.0,6297.0,1820.0,2650.0,1919.0,2218.0,,,,0.027099385126348,-1.70830280114323,0.0925176556218359,,6.600449818632532,,
,5153.0,859.0,6297.0,1820.0,2655.0,1922.0,2203.0,,,,0.02709721379454,-1.70790532643706,0.0925165300096955,,6.078106719510663,,
,5146.0,857.0,6294.0,1816.0,2672.0,1918.0,2191.0,,,,0.0270421561612559,-1.70765497388821,0.092512529478648,,5.499140120998667,,
,5139.0,857.0,6294.0,1812.0,2668.0,1926.0,2188.0,,,,0.0270262855505533,-1.707542742475,0.0925118917683946,,4.880723861242656,,
,5133.0,857.0,6294.0,1810.0,2658.0,1923.0,2184.0,,,,0.0270027871278224,-1.70778869675063,0.0925020533170502,,4.240017751602702,,
,5127.0,856.0,6290.0,1808.0,2645.0,1918.0,2191.0,,,,0.0269574998838651,-1.70775157422544,0.0925048014649104,,3.5934748847111315,,
,5120.0,856.0,6289.0,1803.0,2641.0,1919.0,2202.0,,,,0.0268885531406158,-1.70711619635618,0.0925139170759743,,2.956187094690101,,
,5114.0,853.0,6285.0,1798.0,2623.0,1915.0,2215.0,,,,0.0269168298662062,-1.70639324367203,0.0925207859971396,,2.341303318375108,,
,5109.0,853.0,6282.0,1798.0,2652.0,1915.0,2226.0,,,,0.0269293470412935,-1.70655403272966,0.0925323557279136,,1.7595556156919447,,
,5105.0,854.0,6281.0,1794.0,2645.0,1920.0,2214.0,,,,0.0268143230196447,-1.70649607124105,0.0925243412202223,,1.2189255644704886,,
,5100.0,851.0,6278.0,1796.0,2646.0,1920.0,2210.0,,,,0.0268580560405359,-1.70638287390662,0.0925228341097293,,0.7244774035931484,,
,5098.0,851.0,6276.0,1789.0,2658.0,1916.0,2182.0,,,,0.0268483114710931,-1.70620063474448,0.0925333291251631,,0.278372481838101,,
,5091.0,851.0,6272.0,1791.0,2668.0,1914.0,2193.0,,,,0.0268533299546498,-1.70632303571094,0.0925367063796086,,-0.11993635071692905,,
,5090.0,853.0,6269.0,1791.0,2672.0,1919.0,2208.0,,,,0.0269348642010191,-1.70586350153935,0.0925530264616003,,-0.47334850541466156,,
,5088.0,853.0,6271.0,1790.0,2652.0,1917.0,2204.0,,,,0.0269840537177941,-1.70549837952658,0.0925598229039432,,-0.7866299927566439,,
,5087.0,852.0,6270.0,1788.0,2665.0,1923.0,2178.0,,,,0.0269563102746204,-1.70560342293381,0.0925514696221654,,-1.0658408120885106,,
,5082.0,851.0,6270.0,1786.0,2673.0,1925.0,2173.0,,,,0.0267899482235145,-1.7058169081093,0.0925548107544772,,-1.3177231122542363,,
,5081.0,850.0,6268.0,1788.0,2661.0,1923.0,2171.0,,,,0.0267685510207113,-1.70609276073057,0.0925433293473659,,-1.5490983566959229,,
,5081.0,852.0,6270.0,1791.0,2670.0,1922.0,2196.0,,,,0.0268080257627604,-1.70609270413077,0.0925379215949479,,-1.7663178164681999,,
,5078.0,850.0,6270.0,1787.0,2665.0,1911.0,2202.0,,,,0.0267500676011415,-1.70615854635033,0.0925334225811639,,-1.9748030526459908,,
,5075.0,849.0,6269.0,1787.0,2645.0,1912.0,2198.0,,,,0.026783403351939,-1.70629497151658,0.0925360460920782,,-2.1787029229675485,,
,5073.0,848.0,6270.0,1789.0,2641.0,1910.0,2200.0,,,,0.0267631360855622,-1.70620243939626,0.0925238513501632,,-2.3806827493561733,,
,5074.0,851.0,6268.0,1787.0,2645.0,1922.0,2190.0,,,,0.0267071527334704,-1.70647397484152,0.0925397750726101,,-2.5818511151994863,,
,5074.0,850.0,6269.0,1789.0,2662.0,1912.0,2184.0,,,,0.0267328360385115,-1.70647856021801,0.0925470261989603,,-2.781821087859347,,
,5071.0,849.0,6271.0,1789.0,2654.0,1914.0,2188.0,,,,0.0267515260507703,-1.70648461814466,0.0925450648218223,,-2.9788953134604297,,
,5072.0,846.0,6267.0,1788.0,2665.0,1911.0,2198.0,,,,0.0266748490610743,-1.7061517219373,0.0925480459564944,,-3.170357538810162,,
,5069.0,850.0,6269.0,1788.0,2663.0,1913.0,2214.0,,,,0.026647329589697,-1.70644985573743,0.0925345160700431,,-3.3528457247864427,,
,5069.0,850.0,6271.0,1792.0,2649.0,1889.0,2237.0,,,,0.0267098997819223,-1.70639004943586,0.0925367270236978,,-3.522773830444811,,
,5070.0,850.0,6267.0,1794.0,2645.0,1887.0,2234.0,,,,0.0265983912977595,-1.70660759329532,0.0925441398677402,,-3.67676182234322,,
,5066.0,848.0,6268.0,1789.0,2657.0,1912.0,2214.0,,,,0.0264878640237128,-1.70651876245725,0.0925379054302662,,-3.8120290596297584,,
,5067.0,849.0,6270.0,1790.0,2659.0,1902.0,2220.0,,,,0.0265060665029243,-1.70586576528395,0.092540377322973,,-3.92670743890206,,
,5068.0,850.0,6270.0,1793.0,2663.0,1913.0,2208.0,,,,0.0265840009120028,-1.70545806012802,0.092550233930862,,-4.020038347738782,,
,5069.0,849.0,6271.0,1794.0,2670.0,1916.0,2206.0,,,,0.0265713506646586,-1.70607658947482,0.0925439258002396,,-4.092430175098777,,
,5067.0,849.0,6270.0,1794.0,2667.0,1910.0,2191.0,,,,0.0265874493133793,-1.70645172442814,0.092537723101216,,-4.14536831829731,,
,5065.0,847.0,6270.0,1793.0,2683.0,1916.0,2222.0,,,,0.0265828438117302,-1.70676986949833,0.0925508293857552,,-4.1811849378950185,,
,5067.0,850.0,6272.0,1793.0,2658.0,1911.0,2222.0,,,,0.0264592430351147,-1.70685782575672,0.0925399466196789,,-4.20270949631452,,
,5067.0,848.0,6272.0,1794.0,2652.0,1924.0,2201.0,,,,0.0264507349642142,-1.70697298409158,0.092540069592762,,-4.212832362457457,,
,5066.0,849.0,6274.0,1794.0,2654.0,1923.0,2208.0,,,,0.0264325524483516,-1.70753796554937,0.0925412596860719,,-4.214021899497279,,
,5063.0,847.0,6274.0,1793.0,2654.0,1919.0,2204.0,,,,0.0264182563704891,-1.70819378684722,0.0925330751884789,,-4.207840285297424,,
,5062.0,847.0,6275.0,1794.0,2660.0,1921.0,2195.0,,,,0.026358495317704,-1.70820821342746,0.0925400519700412,,-4.194505013136774,,
,5066.0,848.0,6275.0,1795.0,2628.0,1917.0,2196.0,,,,0.0263283660276124,-1.70876250493364,0.0925304065772865,,-4.172541868603881,,
,5061.0,848.0,6276.0,1791.0,2640.0,1920.0,2201.0,,,,0.026307864426527,-1.70858128151646,0.0925364099714744,,-4.138571172562284,,
,5058.0,846.0,6275.0,1794.0,2640.0,1925.0,2216.0,,,,0.026327827279325,-1.70880726307481,0.0925209196789847,,-4.0872618000905865,,
,5059.0,848.0,6275.0,1792.0,2630.0,1912.0,2245.0,,,,0.0262546506313085,-1.70864875696955,0.0925338318251683,,-4.011476430290042,,
,5059.0,848.0,6278.0,1793.0,2656.0,1905.0,2215.0,,,,0.0262731355445691,-1.70889350119129,0.0925335741505524,,-3.9026165373839015,,
,5058.0,847.0,6278.0,1794.0,2658.0,1908.0,2195.0,,,,0.0262861821519371,-1.70832083117267,0.0925356274542367,,-3.7511573397126186,,
,5058.0,848.0,6277.0,1794.0,2645.0,1921.0,2210.0,,,,0.0263242328766557,-1.70718317006507,0.0925518733774987,,-3.5473425778549803,,
,5056.0,843.0,6276.0,1793.0,2649.0,1920.0,2207.0,,,,0.0263524140433457,-1.7070102114578,0.092547338278454,,-3.2819888167342697,,
,5058.0,848.0,6279.0,1793.0,2666.0,1911.0,2203.0,,,,0.0263726891624271,-1.70730559303389,0.0925519807090693,,-2.947332286937328,,
,5059.0,847.0,6280.0,1795.0,2665.0,1905.0,2214.0,,,,0.0263365424190942,-1.70733012001268,0.0925473233321759,,-2.5378420567467437,,
,5057.0,850.0,6282.0,1796.0,2661.0,1915.0,2200.0,,,,0.0263066053020001,-1.70768667757918,0.092558431010172,,-2.0509244217591425,,
,5055.0,846.0,6279.0,1793.0,2669.0,1906.0,2205.0,,,,0.0262115560508356,-1.70731977541324,0.092537088307788,,-1.4874546067476508,,
,5056.0,846.0,6282.0,1793.0,2665.0,1911.0,2213.0,,,,0.0261816395144234,-1.70832817999695,0.0925423967547994,,-0.8520898216585602,,
,5055.0,848.0,6285.0,1794.0,2630.0,1917.0,2222.0,,,,0.0261767836809762,-1.7095159594584,0.0925253785579804,,-0.15333804789103525,,
,5056.0,848.0,6285.0,1795.0,2629.0,1911.0,2225.0,,,,0.0261483060887157,-1.70981296243404,0.0925150342215152,,0.5966233859534564,,
,5055.0,848.0,6286.0,1793.0,2636.0,1923.0,2222.0,,,,0.0261079545762265,-1.71027049749773,0.0925022405681592,,1.3823675969354474,,
,5056.0,847.0,6287.0,1796.0,2640.0,1921.0,2233.0,,,,0.0260119664100461,-1.71134458018481,0.0925027716130656,,2.1858489612426966,,
,5059.0,848.0,6289.0,1798.0,2636.0,1908.0,2218.0,,,,0.025892579555152,-1.71192903114026,0.0924765988477243,,2.9872047041467495,,
,5057.0,847.0,6289.0,1797.0,2636.0,1915.0,2216.0,,,,0.0257834850867346,-1.71275919878249,0.092488919810518,,3.7656771397649194,,
,5059.0,849.0,6291.0,1798.0,2637.0,1920.0,2198.0,,,,0.0256664721997699,-1.71389479078607,0.092459704950645,,4.50059978344844,,
,5060.0,846.0,6292.0,1796.0,2647.0,1918.0,2200.0,,,,0.0255757854425128,-1.71496704495188,0.0924469726424056,,5.1723870628303255,,
,5061.0,847.0,6291.0,1797.0,2651.0,1920.0,2188.0,,,,0.0254233166871734,-1.71607253214393,0.09242441118366,,5.7634668332614565,,
,5063.0,850.0,6294.0,1799.0,2644.0,1918.0,2207.0,,,,0.0252499484630008,-1.7179634744932,0.0924178832640651,,6.2590974213985096,,
,5063.0,851.0,6295.0,1801.0,2647.0,1916.0,2202.0,,,,0.0251063329180046,-1.71944359498991,0.0923920515261969,,6.648016951328433,,
,5066.0,848.0,6296.0,1800.0,2646.0,1920.0,2205.0,,,,0.0249835080904,-1.72121928650057,0.0923556679840684,,6.922882915350321,,
,5067.0,846.0,6296.0,1800.0,2629.0,1919.0,2211.0,,,,0.0249114058115844,-1.72176552876323,0.0923548770103615,,7.080474616760553,,
,5068.0,848.0,6300.0,1803.0,2637.0,1903.0,2251.0,,,,0.0249360977154211,-1.72237379501177,0.0923465168714261,,7.121649502665525,,
,5066.0,847.0,6301.0,1804.0,2621.0,1912.0,2234.0,,,,0.0247981395050185,-1.72297023049407,0.0923292508938683,,7.051064476347465,,
,5070.0,849.0,6302.0,1804.0,2624.0,1924.0,2206.0,,,,0.0247711257189417,-1.72336057256687,0.092338548396575,,6.8766921236669685,,
,5072.0,848.0,6302.0,1803.0,2647.0,1927.0,2184.0,,,,0.0247022613129344,-1.72330894863052,0.0923348979382632,,6.609176867186423,,
,5072.0,847.0,6305.0,1804.0,2654.0,1930.0,2192.0,,,,0.0247305011725431,-1.72366419408984,0.092341673766824,,6.261086288249774,,
,5076.0,849.0,6306.0,1807.0,2648.0,1921.0,2204.0,,,,0.0246385224048521,-1.72371215208784,0.0923315404080737,,5.846118448420983,,
,5077.0,848.0,6308.0,1805.0,2647.0,1918.0,2209.0,,,,0.0245789589891538,-1.72441679086913,0.0923194297813211,,5.37832730731695,,
,5077.0,847.0,6307.0,1806.0,2642.0,1922.0,2213.0,,,,0.0245812572332009,-1.72438160999129,0.0923171980115525,,4.8714247094271865,,
,5079.0,849.0,6307.0,1806.0,2649.0,1926.0,2229.0,,,,0.0245852310191462,-1.7240542282775,0.0923241183269671,,4.338207836336368,,
,5081.0,848.0,6310.0,1809.0,2646.0,1917.0,2216.0,,,,0.0245851448853319,-1.72376404446528,0.0923368179969772,,3.7901454135444586,,
,5082.0,850.0,6314.0,1809.0,2640.0,1923.0,2209.0,,,,0.0245728407395763,-1.7233323182888,0.0923361945228422,,3.2371362865536444,,
,5079.0,850.0,6313.0,1808.0,2645.0,1926.0,2220.0,,,,0.0246589668563627,-1.72343096615806,0.0923449314284484,,2.68743369868499,,
,5085.0,848.0,6312.0,1811.0,2643.0,1933.0,2252.0,,,,0.0246550025896223,-1.72301127336158,0.0923678356957902,,2.1477110573436557,,
,5085.0,849.0,6314.0,1810.0,2646.0,1925.0,2225.0,,,,0.0248063690428345,-1.7221005531023,0.0923688100533603,,1.6232322415592861,,
,5085.0,849.0,6314.0,1811.0,2616.0,1909.0,2207.0,,,,0.024711103650207,-1.72154345346213,0.0923851631466613,,1.1180824153301214,,
,5087.0,849.0,6317.0,1814.0,2636.0,1909.0,2211.0,,,,0.0248064150246259,-1.72139649380062,0.0923960961630583,,0.6354140801606883,,
,5089.0,850.0,6317.0,1812.0,2636.0,1905.0,2216.0,,,,0.0247746197912808,-1.72150307093874,0.0924108420902904,,0.17766765642507276,,
,5088.0,849.0,6319.0,1812.0,2652.0,1922.0,2205.0,,,,0.0248296907667209,-1.72050039086294,0.0924066242250757,,-0.2532642209462662,,
,5095.0,850.0,6323.0,1814.0,2646.0,1925.0,2227.0,,,,0.0248314539431071,-1.71973495592457,0.0924307095314443,,-0.655945305130122,,
,5097.0,851.0,6321.0,1813.0,2637.0,1913.0,2215.0,,,,0.0248095716936192,-1.72009673878216,0.0924199121380513,,-1.0293771919052512,,
,5095.0,854.0,6322.0,1814.0,2629.0,1912.0,2191.0,,,,0.0246936963091682,-1.72045845206026,0.0924002250887776,,-1.373037391486304,,
,5094.0,849.0,6327.0,1814.0,2635.0,1913.0,2187.0,,,,0.0247606537164742,-1.72063755177882,0.0924009601441124,,-1.6869458430782716,,
,5099.0,849.0,6324.0,1816.0,2630.0,1917.0,2198.0,,,,0.0247008536782946,-1.72073987823838,0.0924001066378152,,-1.9717272417815621,,
,5099.0,850.0,6324.0,1817.0,2643.0,1915.0,2202.0,,,,0.0246262254843486,-1.72215904769986,0.0923907135466343,,-2.2286403914952935,,
,5100.0,850.0,6327.0,1817.0,2633.0,1911.0,2206.0,,,,0.0246136524106909,-1.72219976880208,0.0923870311171337,,-2.4595558050484727,,
,5104.0,850.0,6326.0,1817.0,2631.0,1908.0,2200.0,,,,0.0245175877334806,-1.72256065047607,0.092362120732273,,-2.666875295487432,,
,5105.0,851.0,6328.0,1820.0,2646.0,1919.0,2206.0,,,,0.0245220071020735,-1.72335728853853,0.0923626227263051,,-2.8533990673566874,,
,5108.0,850.0,6330.0,1819.0,2635.0,1918.0,2217.0,,,,0.0244517463454961,-1.72398593917411,0.0923441940242391,,-3.0221547704192595,,
,5111.0,852.0,6331.0,1818.0,2641.0,1913.0,2215.0,,,,0.0242905304088576,-1.72513725226721,0.0923327436882367,,-3.1762081924857783,,
,5110.0,851.0,6331.0,1819.0,2653.0,1920.0,2189.0,,,,0.0241957697623387,-1.72537935654953,0.092313816920935,,-3.3184766738587586,,
,5114.0,851.0,6329.0,1819.0,2657.0,1913.0,2208.0,,,,0.0241687363016331,-1.72560320495147,0.0923119719372646,,-3.4515645394212573,,
,5116.0,853.0,6337.0,1819.0,2656.0,1916.0,2219.0,,,,0.0242032009258967,-1.72562045624976,0.0923120157173834,,-3.5776359140072462,,
,5115.0,852.0,6336.0,1824.0,2668.0,1916.0,2218.0,,,,0.0241880118438149,-1.72608049235718,0.0923071464226505,,-3.698335298956129,,
,5116.0,851.0,6336.0,1822.0,2670.0,1917.0,2232.0,,,,0.0242437278970414,-1.72599851257246,0.0923006628233139,,-3.8147610400765495,,
,5118.0,851.0,6337.0,1823.0,2656.0,1921.0,2222.0,,,,0.0243071138595431,-1.72667085587404,0.0923043569414305,,-3.927491726378144,,
,5122.0,853.0,6336.0,1824.0,2648.0,1914.0,2201.0,,,,0.0242503186136866,-1.72659351924483,0.0923033450876854,,-4.036660714232411,,
,5122.0,855.0,6336.0,1827.0,2638.0,1916.0,2231.0,,,,0.0242967428723425,-1.72586102322129,0.0923042338729575,,-4.142069195338404,,
,5125.0,854.0,6339.0,1826.0,2639.0,1912.0,2222.0,,,,0.0243561526950081,-1.72535651530061,0.0923188331535631,,-4.243323180591784,,
,5127.0,855.0,6338.0,1826.0,2662.0,1919.0,2215.0,,,,0.0244601954094517,-1.72402494270798,0.0923349624271111,,-4.339974253036335,,
,5130.0,853.0,6339.0,1825.0,2642.0,1922.0,2228.0,,,,0.0244934623584746,-1.7231854257742,0.0923441394459489,,-4.431638445635271,,
,5132.0,855.0,6341.0,1829.0,2644.0,1912.0,2216.0,,,,0.0245457559930807,-1.72233486550505,0.0923509515278323,,-4.518063852396439,,
,5133.0,855.0,6340.0,1826.0,2637.0,1917.0,2185.0,,,,0.0245377415820491,-1.72231720383651,0.0923719161934719,,-4.5991182868112785,,
,5136.0,856.0,6343.0,1830.0,2629.0,1922.0,2182.0,,,,0.0245804128084566,-1.72184124977674,0.0923705464077244,,-4.674675661999199,,
,5139.0,857.0,6344.0,1827.0,2627.0,1917.0,2200.0,,,,0.0246142683670807,-1.72182153415552,0.0923819983457788,,-4.744393820250724,,
,5138.0,855.0,6347.0,1830.0,2624.0,1917.0,2211.0,,,,0.0246201389885423,-1.72158588816863,0.0923794700912179,,-4.807394944651239,,
,5144.0,858.0,6346.0,1832.0,2617.0,1920.0,2201.0,,,,0.0246543588426732,-1.72121979843807,0.0923826419108142,,-4.861879082414488,,
,5145.0,858.0,6346.0,1832.0,2631.0,1929.0,2209.0,,,,0.0247179423041399,-1.7211209935231,0.0923974918900261,,-4.904718707448769,,
,5148.0,857.0,6348.0,1831.0,2645.0,1926.0,2203.0,,,,0.024681955882352,-1.72073583755827,0.0923879863781283,,-4.931095324365218,,
,5148.0,856.0,6346.0,1830.0,2646.0,1927.0,2211.0,,,,0.0247408142681699,-1.72082627885472,0.092389844852849,,-4.9342458093132375,,
,5152.0,859.0,6349.0,1834.0,2661.0,1928.0,2193.0,,,,0.024735395723137,-1.72094499129673,0.0923907760668551,,-4.9053845632448745,,
,5154.0,857.0,6350.0,1834.0,2671.0,1917.0,2215.0,,,,0.024734698443508,-1.72070090992782,0.0924012081625448,,-4.833856390855847,,
,5156.0,858.0,6350.0,1835.0,2655.0,1918.0,2231.0,,,,0.0247161659359557,-1.72034675606415,0.0923957954239933,,-4.707554634109095,,
,5156.0,857.0,6350.0,1832.0,2653.0,1910.0,2232.0,,,,0.0247408833344227,-1.72001579339291,0.0924001157156592,,-4.51361157894564,,
,5158.0,859.0,6352.0,1835.0,2644.0,1910.0,2244.0,,,,0.0245964664468877,-1.7205324592292,0.0924079644091748,,-4.239336765783078,,
,5159.0,862.0,6352.0,1835.0,2643.0,1916.0,2243.0,,,,0.0247058986575127,-1.72075207037947,0.0923866064741612,,-3.8733471841944764,,
,5155.0,861.0,6352.0,1834.0,2640.0,1914.0,2256.0,,,,0.0247715277973833,-1.72163422670848,0.0923901235312005,,-3.4068049323936065,,
,5150.0,859.0,6350.0,1830.0,2635.0,1906.0,2265.0,,,,0.0247078090434183,-1.7218534565757,0.0923827242704029,,-2.8346558144976863,,
2025-07-02 21:29:36,5147.0,856.0,6347.0,1830.0,2641.0,1896.0,2224.0,,,2025/07/02 09:29:36 PM,0.0247382492684033,-1.72245403050653,0.0923700502318462,,-2.1567487486695387,,
,5142.0,857.0,6348.0,1829.0,2639.0,1900.0,2241.0,,,,0.0247373067443436,-1.72320624405841,0.0923733897212659,,-1.3787122767299913,,
,5133.0,857.0,6346.0,1828.0,2629.0,1923.0,2233.0,,,,0.0246809365514092,-1.72259024274687,0.0923900799774595,,-0.5124724575096806,,
,5129.0,859.0,6344.0,1824.0,2625.0,1922.0,2221.0,,,,0.0246830605131312,-1.72229652883536,0.0923883449085855,,0.42368209860844047,,
,5120.0,855.0,6342.0,1821.0,2611.0,1908.0,2204.0,,,,0.0247897503309679,-1.7223441497359,0.0923978551107361,,1.4055465184050324,,
,5117.0,856.0,6340.0,1818.0,2611.0,1925.0,2184.0,,,,0.0248218184683586,-1.72160664194735,0.0924083218099941,,2.403968283096389,,
,5108.0,856.0,6339.0,1813.0,2622.0,1924.0,2194.0,,,,0.0248359984726279,-1.7212881979468,0.0924045855590259,,3.3862965976039563,,
,5100.0,857.0,6338.0,1810.0,2626.0,1916.0,2207.0,,,,0.0247843492746932,-1.72131786121453,0.0924036118571531,,4.3182211602593545,,
,5091.0,853.0,6336.0,1806.0,2650.0,1902.0,2215.0,,,,0.0247588647049201,-1.72167717188775,0.0923999740995206,,5.165867976369489,,
,5083.0,854.0,6335.0,1803.0,2651.0,1916.0,2231.0,,,,0.0246787967847413,-1.72217189592434,0.0923959659162039,,5.897990601307437,,
,5078.0,853.0,6332.0,1801.0,2619.0,1921.0,2235.0,,,,0.0246676999977677,-1.72282449019341,0.0923731142197147,,6.488079102361285,,
,5073.0,853.0,6330.0,1799.0,2647.0,1928.0,2238.0,,,,0.024553623861178,-1.72334773352648,0.092374483867171,,6.916207358073794,,
,5068.0,853.0,6330.0,1798.0,2656.0,1931.0,2223.0,,,,0.0244929612210947,-1.72441352057394,0.0923390598169354,,7.170453158884938,,
,5060.0,852.0,6329.0,1793.0,2662.0,1913.0,2225.0,,,,0.0244507043401328,-1.72468894659432,0.0923365378525658,,7.247755181916834,,
,5056.0,853.0,6327.0,1791.0,2686.0,1925.0,2219.0,,,,0.0244497902778632,-1.72529083623449,0.0923267225787514,,7.15411536056104,,
,5057.0,852.0,6327.0,1793.0,2680.0,1923.0,2208.0,,,,0.0243781841791662,-1.72535412826108,0.0923270825761647,,6.904112237216039,,
,5052.0,850.0,6327.0,1794.0,2679.0,1920.0,2198.0,,,,0.0243556509392847,-1.72553413289743,0.0923233360329937,,6.519756626374622,,
,5047.0,853.0,6329.0,1789.0,2651.0,1929.0,2190.0,,,,0.0243804694932646,-1.72649270642354,0.0923144917404629,,6.02878882833117,,
,5045.0,853.0,6326.0,1789.0,2661.0,1928.0,2185.0,,,,0.0242480462242669,-1.72694196614254,0.0923029583188538,,5.462577363123375,,
,5046.0,852.0,6325.0,1790.0,2635.0,1918.0,2167.0,,,,0.0242084074212232,-1.72800204206105,0.092293327419423,,4.853822149011246,,
,5044.0,852.0,6328.0,1790.0,2658.0,1919.0,2161.0,,,,0.0241749977848229,-1.72853277942618,0.0922868879888938,,4.234281922723877,,
,5043.0,852.0,6326.0,1791.0,2660.0,1910.0,2170.0,,,,0.0240545036993566,-1.72979106528124,0.0922482315983493,,3.632733515325608,,
,5039.0,851.0,6325.0,1789.0,2659.0,1913.0,2195.0,,,,0.0238541035949263,-1.73099097130873,0.0922301637918546,,3.0733323634734493,,
,5036.0,853.0,6324.0,1790.0,2686.0,1911.0,2217.0,,,,0.0237625782142393,-1.73237839300004,0.0921985165337038,,2.5744870583137165,,
,5037.0,856.0,6328.0,1793.0,2677.0,1908.0,2236.0,,,,0.023790189358709,-1.73359840077373,0.0921892706971135,,2.148296158169646,,
,5036.0,855.0,6329.0,1791.0,2678.0,1913.0,2237.0,,,,0.0237984561129551,-1.73435051466014,0.0921734283196229,,1.8005334461949252,,
,5037.0,855.0,6328.0,1789.0,2638.0,1905.0,2256.0,,,,0.0236752087564067,-1.73572328826187,0.0921445321187566,,1.5311166912095164,,
,5034.0,856.0,6327.0,1791.0,2603.0,1913.0,2219.0,,,,0.0235509566403281,-1.73698606772853,0.0921324304447603,,1.3349596690079708,,
,5034.0,856.0,6329.0,1791.0,2613.0,1907.0,2189.0,,,,0.023486797189267,-1.73788251594369,0.0921178096023022,,1.203088993005434,,
,5035.0,856.0,6328.0,1792.0,2609.0,1902.0,2193.0,,,,0.0233942893983782,-1.7390788396903,0.0920950845985486,,1.1239044611175326,,
,5033.0,855.0,6324.0,1789.0,2631.0,1907.0,2193.0,,,,0.0232311945404522,-1.74083057910964,0.0920620479064311,,1.0844703390482435,,
,5030.0,854.0,6326.0,1787.0,2616.0,1919.0,2185.0,,,,0.0231588688374317,-1.74145802165299,0.0920510318821492,,1.071740402445728,,
,5031.0,857.0,6326.0,1791.0,2628.0,1909.0,2189.0,,,,0.022939565890766,-1.74247449519177,0.0920302164524141,,1.0736370956879306,,
,5030.0,858.0,6329.0,1792.0,2664.0,1902.0,2205.0,,,,0.0228340068927355,-1.74322958114646,0.0920111756664312,,1.0799221632018636,,
,5028.0,854.0,6330.0,1791.0,2664.0,1912.0,2212.0,,,,0.0227800972128867,-1.74410638186153,0.0920027525740251,,1.0828124525785765,,
,5029.0,855.0,6327.0,1792.0,2656.0,1915.0,2242.0,,,,0.0227590881092605,-1.74548529770462,0.0919674947636543,,1.0773116645736267,,
,5027.0,856.0,6332.0,1792.0,2666.0,1911.0,2248.0,,,,0.0226648175270135,-1.74592360589113,0.0919587177907526,,1.0612477969965697,,
,5027.0,856.0,6332.0,1792.0,2651.0,1905.0,2244.0,,,,0.0225705272768696,-1.7474380835058,0.0919322857214099,,1.0350269986309246,,
,5031.0,857.0,6333.0,1793.0,2650.0,1908.0,2233.0,,,,0.0224977727738138,-1.74841549061005,0.0919234774843307,,1.0011367201881338,,
,5028.0,858.0,6330.0,1791.0,2645.0,1899.0,2245.0,,,,0.0224554676021383,-1.74938464725606,0.0919103301425639,,0.9634530591617018,,
,5026.0,855.0,6333.0,1792.0,2635.0,1906.0,2239.0,,,,0.0224475990278054,-1.74979422685669,0.0918996782905306,,0.9264271417873129,,
,5026.0,858.0,6332.0,1794.0,2644.0,1915.0,2248.0,,,,0.0223142141444443,-1.75125964744423,0.0918875324924096,,0.8942406512405098,,
,5025.0,858.0,6333.0,1793.0,2634.0,1929.0,2219.0,,,,0.0222593252611615,-1.75140700029384,0.0918659243547005,,0.8700279529432615,,
,5026.0,857.0,6333.0,1793.0,2643.0,1922.0,2223.0,,,,0.022204773450264,-1.75324161553177,0.0918521990025878,,0.8552586214955521,,
,5023.0,858.0,6331.0,1792.0,2625.0,1915.0,2242.0,,,,0.0221549355305174,-1.75365810966159,0.0918339845634607,,0.8493579794460292,,
,5027.0,857.0,6333.0,1794.0,2639.0,1924.0,2213.0,,,,0.0220907949110371,-1.75410450067814,0.0918253479652225,,0.8496154496042301,,
,5023.0,857.0,6334.0,1792.0,2634.0,1919.0,2212.0,,,,0.0221232724719533,-1.75408772240672,0.0918159508394129,,0.8513945143401931,,
,5021.0,856.0,6335.0,1792.0,2646.0,1920.0,2218.0,,,,0.0221750611439579,-1.75430038653468,0.0918128553499745,,0.8486188550827903,,
,5023.0,859.0,6334.0,1793.0,2635.0,1897.0,2217.0,,,,0.0220758042706347,-1.7541218441028,0.091796370599976,,0.8344722196462566,,
,5024.0,855.0,6332.0,1794.0,2621.0,1909.0,2251.0,,,,0.0220925703561926,-1.75437515921607,0.0918157726842283,,0.8022197206200323,,
,5026.0,857.0,6330.0,1794.0,2618.0,1900.0,2251.0,,,,0.0220353139323372,-1.75489925238699,0.091788740177469,,0.7460397631987473,,
,5024.0,859.0,6336.0,1792.0,2606.0,1911.0,2243.0,,,,0.0220354013290621,-1.75532363563344,0.091799910455115,,0.6617517706370969,,
,5021.0,858.0,6335.0,1795.0,2612.0,1915.0,2238.0,,,,0.0219473750869378,-1.75579965212468,0.0917761716287914,,0.5473371846833344,,
,5022.0,858.0,6334.0,1791.0,2629.0,1922.0,2201.0,,,,0.0219243425544761,-1.75689701073061,0.0917760420553407,,0.4031799597064506,,
,5022.0,860.0,6334.0,1795.0,2600.0,1916.0,2205.0,,,,0.0217885204305127,-1.757502443541,0.0917548304996635,,0.23199541236007593,,
,5023.0,860.0,6338.0,1796.0,2606.0,1912.0,2216.0,,,,0.0218033722673674,-1.75776451859035,0.091758320654281,,0.03846673240901995,,
,5025.0,862.0,6339.0,1796.0,2605.0,1918.0,2202.0,,,,0.0217647002255456,-1.75801182621703,0.091742138173153,,-0.17134308460304365,,
,5022.0,859.0,6334.0,1796.0,2642.0,1908.0,2204.0,,,,0.0217542174231016,-1.75797026204874,0.0917374099560557,,-0.3907011387983018,,
,5026.0,858.0,6337.0,1796.0,2642.0,1921.0,2199.0,,,,0.0218093982185696,-1.75785989772371,0.0917345458780614,,-0.6129210660798755,,
,5026.0,861.0,6338.0,1795.0,2648.0,1911.0,2218.0,,,,0.0217711136048796,-1.75795393055775,0.0917370632659723,,-0.8319828094100087,,
,5026.0,861.0,6339.0,1799.0,2633.0,1916.0,2211.0,,,,0.0217617448339142,-1.75802251480499,0.0917293289423127,,-1.0429834533025482,,
,5027.0,860.0,6338.0,1797.0,2608.0,1922.0,2213.0,,,,0.0216495766367658,-1.75825300514588,0.0917334912207383,,-1.2423857053695617,,
,5031.0,859.0,6337.0,1796.0,2632.0,1919.0,2217.0,,,,0.0216855168520618,-1.75935359819008,0.0917158472413121,,-1.4280665026904147,,
,5030.0,859.0,6340.0,1798.0,2663.0,1921.0,2219.0,,,,0.0215872890172521,-1.75977577180047,0.0917051271473291,,-1.5991946509075483,,
,5030.0,861.0,6339.0,1800.0,2655.0,1917.0,2225.0,,,,0.0215100733168266,-1.76048088644093,0.0916850672947723,,-1.7559821472582904,,
,5031.0,860.0,6340.0,1800.0,2643.0,1913.0,2222.0,,,,0.0215017767388337,-1.76083593181249,0.0916589459164113,,-1.8993608407807157,,
,5031.0,860.0,6342.0,1798.0,2647.0,1920.0,2239.0,,,,0.0214918688005992,-1.76129910316374,0.0916559648078847,,-2.0306367419886744,,
,5035.0,860.0,6342.0,1799.0,2643.0,1916.0,2233.0,,,,0.0214689998452526,-1.7619335920512,0.0916599007848873,,-2.1511701163070645,,
,5035.0,862.0,6342.0,1801.0,2649.0,1920.0,2220.0,,,,0.0214009460014487,-1.76343529428503,0.0916382723093215,,-2.2621211987847056,,
,5037.0,861.0,6344.0,1804.0,2655.0,1920.0,2204.0,,,,0.0213278331635486,-1.76366447109532,0.0916314356434486,,-2.3642894703457893,,
,5037.0,860.0,6345.0,1800.0,2660.0,1903.0,2189.0,,,,0.0211973181047964,-1.76499797670755,0.0916083496374197,,-2.458059700659366,,
,5037.0,860.0,6342.0,1803.0,2655.0,1913.0,2199.0,,,,0.0211236419537896,-1.76568485582518,0.0915868815558761,,-2.5434516465565316,,
,5040.0,859.0,6348.0,1805.0,2667.0,1908.0,2197.0,,,,0.020991909079587,-1.76677482670459,0.0915617731001333,,-2.6202543272701173,,
,5045.0,862.0,6346.0,1805.0,2666.0,1909.0,2204.0,,,,0.0209414399950294,-1.76806556799177,0.0915291115310355,,-2.6882128238055003,,
,5044.0,861.0,6349.0,1805.0,2653.0,1905.0,2205.0,,,,0.0207754952832323,-1.76917211717754,0.0915176173416086,,-2.747228394198084,,
,5043.0,861.0,6346.0,1805.0,2645.0,1905.0,2223.0,,,,0.0208168378784241,-1.77023758796049,0.0915048769161315,,-2.7975330604044184,,
,5047.0,860.0,6347.0,1807.0,2661.0,1903.0,2224.0,,,,0.0207084901547145,-1.77175409468475,0.0914844049184442,,-2.839807161407782,,
,5049.0,861.0,6350.0,1808.0,2673.0,1905.0,2227.0,,,,0.0207206105702388,-1.77202748604076,0.0914643428325681,,-2.875220202390591,,
,5050.0,865.0,6350.0,1806.0,2675.0,1910.0,2215.0,,,,0.0205821522308008,-1.77273851762083,0.0914504709369666,,-2.905388762567442,,
,5050.0,861.0,6349.0,1806.0,2662.0,1904.0,2228.0,,,,0.0205412030393505,-1.77311125924188,0.0914479541794816,,-2.932258134147834,,
,5054.0,862.0,6350.0,1808.0,2653.0,1902.0,2224.0,,,,0.020595335146092,-1.77343745271657,0.0914369935519537,,-2.957925472023217,,
,5057.0,864.0,6351.0,1811.0,2629.0,1915.0,2216.0,,,,0.0205759127590752,-1.77305174719138,0.0914367406086359,,-2.9844305809846725,,
,5057.0,862.0,6350.0,1808.0,2623.0,1920.0,2208.0,,,,0.020610569776796,-1.77287842256072,0.0914466019223765,,-3.013545144867231,,
,5059.0,862.0,6352.0,1810.0,2652.0,1920.0,2201.0,,,,0.0205868984365461,-1.77206525060315,0.0914446686668168,,-3.046591497398117,,
,5061.0,864.0,6351.0,1810.0,2633.0,1912.0,2186.0,,,,0.0206007231267983,-1.77211433404037,0.0914580155148429,,-3.0843177347106043,,
,5063.0,862.0,6353.0,1814.0,2630.0,1920.0,2184.0,,,,0.0205861003416455,-1.77238676110319,0.0914553653965785,,-3.1268475823842232,,
,5064.0,865.0,6354.0,1812.0,2612.0,1927.0,2192.0,,,,0.0206258995436362,-1.77256755439922,0.091450423232246,,-3.1737121840493487,,
,5064.0,864.0,6355.0,1813.0,2614.0,1926.0,2208.0,,,,0.0206472368105663,-1.77299189707785,0.0914403462453507,,-3.22395848267089,,
,5067.0,863.0,6353.0,1816.0,2645.0,1924.0,2205.0,,,,0.0206169678672795,-1.77284982516003,0.0914394215898725,,-3.276316608041775,,
,5068.0,863.0,6354.0,1815.0,2637.0,1927.0,2225.0,,,,0.0206137436791087,-1.77376326779689,0.0914433674277529,,-3.329397911563759,,
,5069.0,865.0,6358.0,1813.0,2632.0,1928.0,2233.0,,,,0.0205757478695999,-1.77421919120761,0.091415969457778,,-3.381887479262675,,
,5073.0,865.0,6359.0,1816.0,2640.0,1927.0,2228.0,,,,0.0204656927479616,-1.7743462274329,0.0914185123435632,,-3.4326921713463814,,
,5076.0,866.0,6360.0,1817.0,2627.0,1929.0,2233.0,,,,0.0204468414039742,-1.77402616572359,0.0914193455186151,,-3.4810094207646842,,
,5074.0,863.0,6357.0,1816.0,2643.0,1933.0,2211.0,,,,0.0204646743001569,-1.77392393574372,0.0914173590169752,,-3.526293483663627,,
,5078.0,866.0,6358.0,1819.0,2640.0,1926.0,2197.0,,,,0.0205321050863581,-1.77448175297015,0.0914120313275472,,-3.5681125080195937,,
,5081.0,863.0,6361.0,1818.0,2646.0,1913.0,2188.0,,,,0.0205555048253263,-1.7744705977856,0.0914135604931038,,-3.60590811837126,,
,5082.0,866.0,6360.0,1818.0,2641.0,1904.0,2177.0,,,,0.0205040317371828,-1.77408688551813,0.0914177664890866,,-3.6386857674611113,,
,5083.0,864.0,6359.0,1819.0,2625.0,1890.0,2190.0,,,,0.0205836569575805,-1.77393525568175,0.0914170549937475,,-3.6646765484211365,,
,5084.0,864.0,6359.0,1822.0,2623.0,1901.0,2177.0,,,,0.0205063078982869,-1.77378581344318,0.0914213029811401,,-3.6810182816373516,,
,5085.0,865.0,6362.0,1822.0,2631.0,1918.0,2185.0,,,,0.0205493618702004,-1.77393412934046,0.0914110079548046,,-3.6835049976724368,,
,5091.0,867.0,6363.0,1823.0,2638.0,1928.0,2191.0,,,,0.0204602343887193,-1.7743031150392,0.0914000133771822,,-3.6664494575161846,,
,5090.0,866.0,6365.0,1823.0,2643.0,1935.0,2181.0,,,,0.0205222277605379,-1.77504838117318,0.091388029574728,,-3.6226936560082743,,
,5092.0,865.0,6364.0,1822.0,2652.0,1916.0,2211.0,,,,0.0205393174062322,-1.77562864935274,0.0913819325019086,,-3.543788399743259,,
,5096.0,865.0,6364.0,1823.0,2638.0,1903.0,2238.0,,,,0.0204678456810205,-1.77534993831694,0.0913907081633328,,-3.420346359680731,,
,5097.0,866.0,6367.0,1826.0,2627.0,1916.0,2231.0,,,,0.0204766552800337,-1.77566682504702,0.0913739853464151,,-3.2425549362213535,,
,5097.0,864.0,6365.0,1825.0,2641.0,1927.0,2227.0,,,,0.0204747827277242,-1.77606530389056,0.0913830837656045,,-3.0008174714607354,,
,5097.0,862.0,6367.0,1824.0,2642.0,1923.0,2215.0,,,,0.0204838713356104,-1.77555376560704,0.091388454290903,,-2.686475562340277,,
,5097.0,867.0,6365.0,1826.0,2680.0,1916.0,2209.0,,,,0.0205134412449751,-1.77567069174321,0.0913859045023937,,-2.2925533350519802,,
,5094.0,867.0,6367.0,1826.0,2659.0,1921.0,2193.0,,,,0.0204853473841445,-1.77563628987935,0.0913702322824557,,-1.8144587002815584,,
,5093.0,867.0,6365.0,1823.0,2660.0,1919.0,2194.0,,,,0.0203958834416504,-1.77555301748008,0.0913754130915264,,-1.2505791401094757,,
,5087.0,863.0,6363.0,1820.0,2646.0,1912.0,2206.0,,,,0.0204227309921601,-1.77683464563406,0.0913565807177136,,-0.6027214645183606,,
,5084.0,864.0,6361.0,1820.0,2650.0,1913.0,2204.0,,,,0.0203606329816888,-1.77693149718595,0.0913571622354434,,0.12363616387050207,,
,5080.0,865.0,6362.0,1819.0,2660.0,1921.0,2187.0,,,,0.0203569150597444,-1.77902517387962,0.0913601756624927,,0.9192914130278721,,
,5078.0,865.0,6362.0,1819.0,2653.0,1924.0,2190.0,,,,0.0203746630893312,-1.77739790186316,0.0913408697442214,,1.771459790119308,,
,5068.0,862.0,6359.0,1814.0,2642.0,1916.0,2227.0,,,,0.020294851107596,-1.77799320640281,0.091326841107271,,2.6640982360597234,,
,5061.0,861.0,6357.0,1811.0,2655.0,1924.0,2212.0,,,,0.0202323315807287,-1.77881160484945,0.0913242907776407,,3.578394151169292,,
,5054.0,860.0,6355.0,1811.0,2617.0,1912.0,2196.0,,,,0.0203082671125793,-1.77899358706089,0.0913109628870043,,4.493403532576935,,
,5047.0,862.0,6354.0,1809.0,2625.0,1915.0,2219.0,,,,0.0202794049658226,-1.77903101916689,0.0913147867895961,,5.386821026484475,,
,5039.0,859.0,6353.0,1803.0,2627.0,1915.0,2216.0,,,,0.0203138025336199,-1.77967702047566,0.0913065781544385,,6.235860618505642,,
,5034.0,856.0,6349.0,1796.0,2659.0,1916.0,2219.0,,,,0.0202832686685664,-1.77967974895216,0.0913088008627146,,7.018217533320943,,
,5025.0,858.0,6350.0,1797.0,2657.0,1912.0,2194.0,,,,0.0202512508632535,-1.78065064467771,0.0912913777168679,,7.713070488272535,,
,5019.0,859.0,6346.0,1795.0,2652.0,1911.0,2189.0,,,,0.0201451917397976,-1.78075527349381,0.0912956204572644,,8.30207073084539,,
,5014.0,855.0,6346.0,1793.0,2646.0,1908.0,2194.0,,,,0.0200694251026679,-1.78127707811148,0.0912689957924391,,8.770252982344184,,
,5008.0,857.0,6347.0,1790.0,2659.0,1920.0,2186.0,,,,0.0199843895978457,-1.78161633559488,0.0912537542241755,,9.106796755924504,,
,5005.0,855.0,6346.0,1789.0,2654.0,1922.0,2193.0,,,,0.019996135707016,-1.78203486982992,0.0912700193502051,,9.305567918609526,,
,4999.0,858.0,6340.0,1787.0,2661.0,1908.0,2199.0,,,,0.019997519344144,-1.78180795917956,0.0912611258325582,,9.365382252294904,,
,4999.0,858.0,6343.0,1788.0,2650.0,1921.0,2207.0,,,,0.0199693120797924,-1.78206175195155,0.0912596584627905,,9.289955414109356,,
,4993.0,857.0,6344.0,1785.0,2644.0,1921.0,2207.0,,,,0.0199594956270577,-1.78216970737188,0.0912503096853065,,9.087534930576027,,
2025-07-02 21:29:37,4992.0,855.0,6339.0,1786.0,2640.0,1921.0,2202.0,,,2025/07/02 09:29:37 PM,0.0200215579345186,-1.78168154352853,0.0912532994678756,,8.770245415711187,,
,4990.0,857.0,6341.0,1783.0,2671.0,1921.0,2222.0,,,,0.0199711462897861,-1.78121403918938,0.0912627290954821,,8.353212088476683,,
,4987.0,853.0,6343.0,1785.0,2667.0,1911.0,2200.0,,,,0.0200670746230377,-1.78137101250451,0.0912690717063414,,7.853553047197464,,
,4985.0,858.0,6342.0,1787.0,2681.0,1911.0,2212.0,,,,0.0200703036523176,-1.7811035649322,0.0912888469139775,,7.28934204737599,,
,4981.0,856.0,6341.0,1785.0,2687.0,1917.0,2221.0,,,,0.0201631638832062,-1.78048780125358,0.0912873332279797,,6.678638667291847,,
,4980.0,857.0,6341.0,1785.0,2669.0,1909.0,2200.0,,,,0.0202965939314682,-1.78051261538808,0.0912854309342326,,6.0386639008932335,,
,4981.0,855.0,6343.0,1787.0,2657.0,1912.0,2193.0,,,,0.0202401510868252,-1.77999064306579,0.0913056757924708,,5.385171501601076,,
,4979.0,856.0,6343.0,1787.0,2645.0,1905.0,2185.0,,,,0.0202652478567829,-1.77898384145579,0.0913094474505871,,4.732034783829862,,
,4980.0,857.0,6342.0,1786.0,2651.0,1897.0,2177.0,,,,0.0202653479372011,-1.77890978813479,0.0913042246830783,,4.091040233982434,,
,4976.0,854.0,6341.0,1784.0,2653.0,1912.0,2202.0,,,,0.02032567896025,-1.77913984840932,0.09130468279264,,3.4718567590958203,,
,4977.0,855.0,6342.0,1786.0,2638.0,1909.0,2198.0,,,,0.0203038017895228,-1.77821829919802,0.0913329564401916,,2.8821346752344734,,
,4975.0,855.0,6343.0,1786.0,2658.0,1908.0,2194.0,,,,0.0202770772991984,-1.77837681734603,0.0913225674708827,,2.3276823790471353,,
,4975.0,855.0,6345.0,1787.0,2650.0,1904.0,2181.0,,,,0.0203281774374465,-1.77827714694716,0.0913082234180187,,1.8126710013074845,,
,4973.0,853.0,6342.0,1784.0,2611.0,1904.0,2227.0,,,,0.0202046157466238,-1.77892164845764,0.0912949873802891,,1.3398273833659062,,
,4972.0,856.0,6343.0,1784.0,2588.0,1908.0,2217.0,,,,0.020185822417467,-1.77925634772294,0.0912827600700563,,0.9105915544937109,,
,4973.0,853.0,6344.0,1787.0,2633.0,1908.0,2219.0,,,,0.0201119224238998,-1.7795148642742,0.0912613247370659,,0.5252332002020804,,
,4972.0,855.0,6347.0,1787.0,2646.0,1902.0,2217.0,,,,0.0200576455484356,-1.78109728861829,0.0912584273139533,,0.1829379314230953,,
,4972.0,856.0,6346.0,1788.0,2634.0,1908.0,2222.0,,,,0.0200644646568353,-1.78194088954207,0.0912454668103221,,-0.11811563418042527,,
,4970.0,855.0,6346.0,1784.0,2639.0,1912.0,2239.0,,,,0.0200855542823465,-1.78280868348985,0.0912326472642816,,-0.3806647558785811,,
,4972.0,855.0,6345.0,1789.0,2612.0,1909.0,2239.0,,,,0.0199821975787079,-1.78283955055501,0.0912236565851908,,-0.608238889145323,,
,4973.0,855.0,6346.0,1788.0,2630.0,1902.0,2228.0,,,,0.0198170011885416,-1.7847992692734,0.0911909488311929,,-0.8049935461384389,,
,4969.0,854.0,6348.0,1789.0,2635.0,1915.0,2215.0,,,,0.0198261055922431,-1.7851099377549,0.0911950750660931,,-0.9755013377799585,,
,4971.0,854.0,6348.0,1787.0,2639.0,1918.0,2200.0,,,,0.0198184186988879,-1.78576778419031,0.0911683571597886,,-1.124508297206936,,
,4969.0,855.0,6347.0,1787.0,2655.0,1910.0,2203.0,,,,0.0196958744558586,-1.78634324256395,0.0911533617346109,,-1.256670110100522,,
,4971.0,852.0,6348.0,1790.0,2659.0,1910.0,2206.0,,,,0.019667976785982,-1.7869740820964,0.0911321179893002,,-1.3762872402624564,,
,4970.0,855.0,6348.0,1789.0,2659.0,1913.0,2197.0,,,,0.0196013713543016,-1.78741015320459,0.0911224952620915,,-1.487060163941501,,
,4968.0,855.0,6349.0,1790.0,2670.0,1913.0,2206.0,,,,0.0196430333834493,-1.78795510028655,0.0911265116884415,,-1.5918861459927793,,
,4968.0,856.0,6347.0,1789.0,2644.0,1906.0,2211.0,,,,0.0197034037093229,-1.78816756056181,0.0911267170218892,,-1.692717343052602,,
,4966.0,855.0,6348.0,1789.0,2620.0,1905.0,2192.0,,,,0.0196625214030862,-1.78854746901213,0.0911180475240169,,-1.7904965631064145,,
,4969.0,854.0,6350.0,1790.0,2661.0,1907.0,2213.0,,,,0.0196586854402426,-1.78831267236955,0.0911099052804533,,-1.8851817321996907,,
,4970.0,857.0,6351.0,1790.0,2668.0,1900.0,2210.0,,,,0.0196558003955774,-1.78766087819031,0.0911062089784866,,-1.975862970706157,,
,4967.0,855.0,6349.0,1791.0,2656.0,1903.0,2206.0,,,,0.0196167505544572,-1.78804616908723,0.0911176165927091,,-2.060967142838728,,
,4968.0,857.0,6351.0,1789.0,2641.0,1912.0,2194.0,,,,0.0196951070932582,-1.78708651558936,0.09112502416146,,-2.1385341052425835,,
,4968.0,856.0,6350.0,1791.0,2657.0,1908.0,2187.0,,,,0.01973223030915,-1.78650145145834,0.0911264695023207,,-2.206537853472986,,
,4970.0,856.0,6350.0,1791.0,2645.0,1897.0,2195.0,,,,0.0196639454526783,-1.7873133192089,0.0911245611453952,,-2.2632168256979512,,
,4967.0,855.0,6350.0,1793.0,2624.0,1903.0,2197.0,,,,0.0196738374724647,-1.78776842924258,0.0911168179050848,,-2.307373757291661,,
,4967.0,855.0,6350.0,1792.0,2653.0,1911.0,2187.0,,,,0.0195785316665612,-1.78862117706679,0.0911054852455797,,-2.3386084859725016,,
,4970.0,856.0,6351.0,1793.0,2644.0,1919.0,2214.0,,,,0.0195467557570917,-1.78846796560619,0.0910943930682363,,-2.3574563903405497,,
,4971.0,855.0,6355.0,1791.0,2629.0,1913.0,2214.0,,,,0.0195374944230633,-1.78904148711099,0.0910932830543809,,-2.3654181425531573,,
,4969.0,855.0,6353.0,1794.0,2639.0,1915.0,2202.0,,,,0.0194742071051097,-1.78948841090011,0.0910772409509909,,-2.3648801638358727,,
,4970.0,855.0,6350.0,1791.0,2643.0,1920.0,2216.0,,,,0.0194665274432542,-1.79005199838221,0.091064123587147,,-2.358937354577923,,
,4970.0,857.0,6355.0,1795.0,2634.0,1909.0,2227.0,,,,0.0194016054346652,-1.79051493740188,0.0910640586345453,,-2.3511391249905813,,
,4974.0,857.0,6356.0,1795.0,2632.0,1900.0,2212.0,,,,0.019441171583239,-1.79109688446064,0.0910466478088083,,-2.3451860216193343,,
,4974.0,857.0,6355.0,1793.0,2634.0,1903.0,2218.0,,,,0.0193818140489525,-1.79030165556428,0.0910588343598282,,-2.3446073271050847,,
,4972.0,855.0,6354.0,1796.0,2634.0,1915.0,2216.0,,,,0.0194179394393929,-1.79072646159397,0.0910600473334915,,-2.3524502134987633,,
,4976.0,858.0,6356.0,1797.0,2653.0,1920.0,2228.0,,,,0.0193823846705123,-1.78997309271328,0.0910717415999732,,-2.3710088833946505,,
,4975.0,855.0,6354.0,1796.0,2643.0,1921.0,2223.0,,,,0.019353930925158,-1.79025326989004,0.0910646778318038,,-2.401618232228298,,
,4979.0,855.0,6357.0,1799.0,2634.0,1918.0,2218.0,,,,0.0194898242908322,-1.78988406191866,0.0910785717494237,,-2.444531352072854,,
,4980.0,858.0,6358.0,1796.0,2626.0,1911.0,2227.0,,,,0.019420099968548,-1.79010727469179,0.0910667566537132,,-2.4988938128312355,,
,4981.0,855.0,6358.0,1795.0,2612.0,1915.0,2226.0,,,,0.019354241916672,-1.79009381753985,0.0910670714335899,,-2.5628199314434834,,
,4983.0,856.0,6357.0,1800.0,2627.0,1913.0,2207.0,,,,0.0193233856671238,-1.78996952573211,0.0910633567220101,,-2.633566902622237,,
,4985.0,858.0,6359.0,1798.0,2630.0,1909.0,2208.0,,,,0.0193532119722944,-1.78977284182727,0.0910641809707015,,-2.707791884071853,,
,4986.0,860.0,6360.0,1800.0,2651.0,1909.0,2206.0,,,,0.0193953875693069,-1.79016279858849,0.0910616460123283,,-2.781866229597923,,
,4986.0,858.0,6360.0,1798.0,2648.0,1908.0,2206.0,,,,0.0194416799021528,-1.789473660266,0.0910750086308281,,-2.852212676682638,,
,4990.0,860.0,6362.0,1804.0,2623.0,1909.0,2196.0,,,,0.0195113716154974,-1.78881753662336,0.0910893691219739,,-2.915628226915062,,
,4993.0,858.0,6362.0,1804.0,2662.0,1910.0,2207.0,,,,0.0196429608054185,-1.78764909182226,0.0911211412978872,,-2.9695588625462164,,
,4995.0,860.0,6361.0,1804.0,2656.0,1913.0,2203.0,,,,0.019808798374739,-1.78544519205078,0.0911519599693027,,-3.0123008441741823,,
,4996.0,858.0,6363.0,1806.0,2666.0,1917.0,2209.0,,,,0.0198693729006087,-1.7845921393572,0.0911813589474348,,-3.0431144333984657,,
,4996.0,857.0,6364.0,1802.0,2637.0,1910.0,2213.0,,,,0.0200181087675384,-1.78238813193063,0.0912032713627828,,-3.0622469468649336,,
,5001.0,859.0,6364.0,1806.0,2654.0,1897.0,2218.0,,,,0.0201074227654223,-1.78184951442664,0.0912389552169051,,-3.0708714837574727,,
,5001.0,860.0,6366.0,1805.0,2652.0,1919.0,2219.0,,,,0.020147946919098,-1.78153359935373,0.0912554509684512,,-3.0709546921678466,,
,5003.0,860.0,6368.0,1808.0,2655.0,1919.0,2224.0,,,,0.0201498252795263,-1.78105448276804,0.091247978911765,,-3.065071216021528,,
,5003.0,860.0,6364.0,1807.0,2660.0,1917.0,2228.0,,,,0.0202098137370221,-1.78124329060666,0.0912510691934399,,-3.0561840247671075,,
,5007.0,859.0,6366.0,1808.0,2647.0,1918.0,2202.0,,,,0.0201753701543774,-1.78103285401988,0.0912495997558304,,-3.0474091723033494,,
,5008.0,860.0,6369.0,1808.0,2637.0,1921.0,2200.0,,,,0.0201293214906209,-1.78159510320319,0.0912441235056255,,-3.0417815424397885,,
,5009.0,859.0,6370.0,1810.0,2650.0,1914.0,2216.0,,,,0.0201027017885169,-1.78190564572324,0.0912339593209764,,-3.0420357192398972,,
,5011.0,859.0,6368.0,1809.0,2655.0,1919.0,2242.0,,,,0.020037973286481,-1.78268048682078,0.0912199129584822,,-3.050413845896735,,
,5016.0,860.0,6371.0,1810.0,2660.0,1915.0,2212.0,,,,0.0200238115816328,-1.7827697852775,0.091204998676843,,-3.068510319289085,,
,5015.0,860.0,6369.0,1811.0,2624.0,1915.0,2212.0,,,,0.0199823398615634,-1.78427782443593,0.0911965062303525,,-3.097161071272157,,
,5020.0,859.0,6370.0,1811.0,2640.0,1916.0,2213.0,,,,0.0199072827893472,-1.78448847440248,0.0911755035615036,,-3.1363822894988718,,
,5019.0,861.0,6372.0,1814.0,2656.0,1912.0,2227.0,,,,0.0198952719375328,-1.7848855919909,0.0911786514117488,,-3.1853588746246846,,
,5023.0,860.0,6369.0,1812.0,2657.0,1911.0,2229.0,,,,0.0197779705951109,-1.7856070082028,0.091156899666857,,-3.2424763429241845,,
,5026.0,861.0,6376.0,1815.0,2650.0,1917.0,2209.0,,,,0.0198119278073774,-1.78679636905411,0.0911471070560225,,-3.305382214241396,,
,5025.0,862.0,6376.0,1816.0,2640.0,1919.0,2218.0,,,,0.0197120893017281,-1.7875187818008,0.0911277772061177,,-3.3710567722666194,,
,5025.0,861.0,6372.0,1816.0,2646.0,1906.0,2218.0,,,,0.0196253404087597,-1.78790410435523,0.0910981123660916,,-3.435871605894736,,
,5027.0,859.0,6374.0,1816.0,2642.0,1910.0,2205.0,,,,0.0196254605372608,-1.78838521684838,0.0911044240008583,,-3.495619159757722,,
,5030.0,862.0,6376.0,1817.0,2664.0,1924.0,2202.0,,,,0.0195516781528429,-1.78860636156074,0.0910829949693812,,-3.5455065183701486,,
,5036.0,861.0,6379.0,1818.0,2647.0,1921.0,2224.0,,,,0.0194601497746663,-1.78903637847612,0.0910818520135719,,-3.5801188016175987,,
,5037.0,863.0,6377.0,1817.0,2642.0,1914.0,2212.0,,,,0.0194852019706687,-1.78891728702174,0.0910696519785044,,-3.59336875602986,,
,5034.0,859.0,6376.0,1821.0,2641.0,1919.0,2222.0,,,,0.0195864661454523,-1.78902249485453,0.0910751674598039,,-3.578457292527618,,
,5036.0,861.0,6375.0,1818.0,2661.0,1910.0,2234.0,,,,0.0196193740245098,-1.79001569040059,0.0910829343859479,,-3.527873775245432,,
,5039.0,861.0,6380.0,1818.0,2672.0,1922.0,2212.0,,,,0.0196175152096017,-1.78965322579913,0.0910774256225714,,-3.433464414859892,,
,5040.0,862.0,6380.0,1820.0,2666.0,1914.0,2214.0,,,,0.019604762506981,-1.7895442878124,0.0910845873456593,,-3.2865923382716367,,
,5039.0,863.0,6378.0,1820.0,2648.0,1924.0,2216.0,,,,0.0195979373656316,-1.78886737101278,0.09109259972675,,-3.0784045990328583,,
,5036.0,860.0,6378.0,1820.0,2648.0,1912.0,2236.0,,,,0.0196307668513688,-1.78850202900396,0.0910879677351455,,-2.800210918848439,,
,5032.0,860.0,6381.0,1820.0,2634.0,1910.0,2238.0,,,,0.0196854898639597,-1.78775375697155,0.0911081822275536,,-2.4439679414582947,,
,5031.0,860.0,6376.0,1816.0,2631.0,1910.0,2209.0,,,,0.0198678529088549,-1.78648288512618,0.0911380287770378,,-2.0028527409273025,,
,5026.0,864.0,6374.0,1815.0,2642.0,1912.0,2206.0,,,,0.0199927443541339,-1.78495491218925,0.0911618665919361,,-1.4719011159957611,,
,5021.0,860.0,6372.0,1813.0,2644.0,1914.0,2204.0,,,,0.0202131001617895,-1.78277460608562,0.0912022582374534,,-0.8486794903344793,,
,5015.0,860.0,6373.0,1812.0,2646.0,1920.0,2214.0,,,,0.0204060256520579,-1.78025370765757,0.0912425938821894,,-0.1339524144967464,,
,5010.0,859.0,6370.0,1808.0,2634.0,1922.0,2218.0,,,,0.0205700188748494,-1.77858652676204,0.0912686313257072,,0.6677011697541407,,
,5004.0,859.0,6368.0,1806.0,2620.0,1914.0,2210.0,,,,0.0206717536832017,-1.77718490788865,0.0913137940260197,,1.5473807981081866,,
,4994.0,858.0,6367.0,1803.0,2618.0,1912.0,2216.0,,,,0.020846199994672,-1.77556440467449,0.091340148577914,,2.491534692636623,,
,4987.0,857.0,6364.0,1801.0,2643.0,1909.0,2205.0,,,,0.0210585917466216,-1.7730583348546,0.0913741045764763,,3.4818797438191167,,
,4980.0,858.0,6365.0,1796.0,2619.0,1921.0,2213.0,,,,0.0211457208318075,-1.77235113955303,0.091395358266531,,4.495637107962801,,
,4976.0,860.0,6363.0,1792.0,2633.0,1911.0,2209.0,,,,0.0213014119979366,-1.77136308645194,0.0914238697293185,,5.506130461866822,,
,4970.0,857.0,6360.0,1792.0,2627.0,1905.0,2211.0,,,,0.0213612409029953,-1.76997482076219,0.0914306690467515,,6.483764975110676,,
,4963.0,855.0,6358.0,1790.0,2624.0,1905.0,2214.0,,,,0.0215471036199094,-1.76845647583473,0.0914646092282089,,7.397369203515178,,
,4957.0,855.0,6357.0,1786.0,2649.0,1912.0,2212.0,,,,0.0217050541215654,-1.76767307181631,0.0914947395698606,,8.215842161194109,,
,4955.0,857.0,6358.0,1785.0,2642.0,1903.0,2226.0,,,,0.0217674140155306,-1.76664964303723,0.0915239185515049,,8.910006274003125,,
,4952.0,855.0,6356.0,1786.0,2643.0,1910.0,2187.0,,,,0.0219445910446131,-1.76484625686015,0.0915587295031608,,9.454527449151954,,
,4946.0,855.0,6356.0,1784.0,2652.0,1906.0,2196.0,,,,0.022037565712625,-1.7632934025857,0.0915681519548902,,9.82973209361163,,
,4942.0,853.0,6354.0,1781.0,2646.0,1916.0,2190.0,,,,0.0221646576932966,-1.76229196568953,0.0915883911409938,,10.023135295152535,,
,4940.0,854.0,6353.0,1781.0,2643.0,1917.0,2200.0,,,,0.0221427364807432,-1.76224338564101,0.0915837951068312,,10.030501827726797,,
,4937.0,855.0,6357.0,1784.0,2630.0,1911.0,2198.0,,,,0.0221562181160463,-1.76191581067078,0.0915900387818286,,9.856296152811675,,
,4936.0,855.0,6355.0,1781.0,2641.0,1918.0,2201.0,,,,0.0221905756234386,-1.76181408650881,0.0915920856514087,,9.513437710036758,,
,4934.0,854.0,6354.0,1781.0,2650.0,1914.0,2233.0,,,,0.0221447320599815,-1.76239861833463,0.0915957312958039,,9.022356294186862,,
,4934.0,854.0,6356.0,1781.0,2652.0,1909.0,2235.0,,,,0.0221614037384743,-1.76230768300241,0.0915905781266515,,8.409427682636654,,
,4934.0,854.0,6354.0,1783.0,2656.0,1921.0,2216.0,,,,0.0221358120297062,-1.76265870123645,0.0915819448489551,,7.704948227080189,,
,4930.0,852.0,6353.0,1781.0,2639.0,1925.0,2220.0,,,,0.0221373512341776,-1.76229112405716,0.0915959577017227,,6.940864999910058,,
,4928.0,854.0,6356.0,1781.0,2673.0,1913.0,2226.0,,,,0.0221879007540494,-1.76187351595214,0.091603938920293,,6.1485038606068905,,
,4927.0,852.0,6354.0,1780.0,2630.0,1913.0,2210.0,,,,0.0222058881096203,-1.76143320499723,0.0916097801460948,,5.356526202359792,,
,4927.0,855.0,6356.0,1780.0,2625.0,1918.0,2206.0,,,,0.0222693724652693,-1.76095840804615,0.0916174555385015,,4.5892998301774695,,
,4926.0,855.0,6357.0,1782.0,2632.0,1912.0,2236.0,,,,0.0222757101935011,-1.76134691242793,0.091616897701171,,3.865802078727704,,
,4927.0,855.0,6357.0,1783.0,2631.0,1906.0,2238.0,,,,0.0222313920052716,-1.76091487376671,0.0916089916744941,,3.1990989172710482,,
,4926.0,851.0,6354.0,1780.0,2623.0,1903.0,2213.0,,,,0.0222801653604057,-1.76041940656404,0.0916268152477903,,2.596375588683697,,
,4925.0,853.0,6358.0,1783.0,2634.0,1908.0,2210.0,,,,0.0224334563580536,-1.76035713480365,0.0916245462138507,,2.0594408023688953,,
,4925.0,855.0,6358.0,1784.0,2647.0,1917.0,2216.0,,,,0.0225111725056068,-1.75993619584677,0.091643915557754,,1.5855913674357747,,
,4927.0,854.0,6358.0,1783.0,2642.0,1920.0,2222.0,,,,0.0225948053551259,-1.75827842959763,0.0916571277284395,,1.1687074908970918,,
,4924.0,854.0,6358.0,1785.0,2644.0,1901.0,2227.0,,,,0.0226007624998202,-1.75818525929993,0.0916445622858454,,0.8004484602969962,,
,4925.0,853.0,6359.0,1783.0,2622.0,1923.0,2222.0,,,,0.022488642381383,-1.75796353396562,0.0916571234703084,,0.4714304264102107,,
,4925.0,852.0,6357.0,1785.0,2629.0,1915.0,2224.0,,,,0.0225962186893286,-1.75801126376461,0.0916676004840358,,0.1722883622537552,,
,4926.0,853.0,6360.0,1783.0,2639.0,1913.0,2225.0,,,,0.0226279360180052,-1.7568043139953,0.0916766270649291,,-0.10545094713625897,,
,4926.0,855.0,6360.0,1788.0,2639.0,1907.0,2223.0,,,,0.0227067179951577,-1.75487217994438,0.0917153931631339,,-0.36873204192351583,,
,4923.0,852.0,6359.0,1786.0,2639.0,1892.0,2235.0,,,,0.022821226188923,-1.75439184762313,0.0917312309827107,,-0.6225920911352745,,
,4925.0,855.0,6360.0,1785.0,2654.0,1907.0,2235.0,,,,0.0228395357204995,-1.75416590976214,0.0917332446034885,,-0.8700390652513601,,
,4925.0,853.0,6361.0,1785.0,2651.0,1914.0,2228.0,,,,0.0229354275830512,-1.75355546261885,0.0917436099716882,,-1.1121641694745317,,
,4926.0,855.0,6363.0,1788.0,2642.0,1913.0,2229.0,,,,0.0228983380179988,-1.75380684875629,0.0917346023465355,,-1.3484471253783792,,
2025-07-02 21:29:38,4926.0,853.0,6362.0,1787.0,2624.0,1902.0,2218.0,,,2025/07/02 09:29:38 PM,0.0228844924998669,-1.75435936688306,0.0917260677865394,,-1.577197962006022,,
,4923.0,851.0,6361.0,1787.0,2613.0,1912.0,2232.0,,,,0.0227776438514903,-1.75523786268775,0.0917269393577811,,-1.7960699062301215,,
,4924.0,854.0,6361.0,1785.0,2639.0,1913.0,2228.0,,,,0.0227164353242054,-1.75594383617103,0.0917045886294799,,-2.0025762666119977,,
,4924.0,854.0,6360.0,1788.0,2632.0,1923.0,2237.0,,,,0.022686323203513,-1.75702875154673,0.0916971202483435,,-2.1945500905921267,,
,4924.0,853.0,6361.0,1787.0,2637.0,1923.0,2227.0,,,,0.0226393070735304,-1.75802490073118,0.091677713656157,,-2.3704977523898836,,
,4923.0,851.0,6356.0,1787.0,2631.0,1914.0,2218.0,,,,0.0225240891403764,-1.75779293867877,0.0916840201714744,,-2.529814664274768,,
,4926.0,855.0,6363.0,1788.0,2655.0,1916.0,2221.0,,,,0.022458229297533,-1.7593956876631,0.0916635851917123,,-2.672850820736934,,
,4927.0,853.0,6361.0,1788.0,2628.0,1923.0,2211.0,,,,0.0223896110190269,-1.75986199342506,0.0916511765323677,,-2.8008335041720613,,
,4925.0,855.0,6362.0,1787.0,2631.0,1928.0,2209.0,,,,0.0223107094468714,-1.76088155717256,0.0916263672946073,,-2.9156717959414364,,
,4925.0,852.0,6363.0,1789.0,2657.0,1915.0,2214.0,,,,0.0222595844458142,-1.76216896854566,0.09162009777514,,-3.019680469478523,,
,4926.0,853.0,6363.0,1785.0,2646.0,1917.0,2218.0,,,,0.0221256110696689,-1.76288146251539,0.0915836137490344,,-3.115268046306639,,
,4927.0,856.0,6362.0,1789.0,2639.0,1912.0,2219.0,,,,0.0220469783154326,-1.7634756381286,0.0915723767402223,,-3.2046349100351113,,
,4928.0,857.0,6363.0,1790.0,2637.0,1914.0,2207.0,,,,0.0219524698238707,-1.76396880932867,0.0915506445218928,,-3.2895229601172487,,
,4929.0,855.0,6364.0,1787.0,2642.0,1912.0,2214.0,,,,0.0218509239060692,-1.76493863664585,0.0915260098877003,,-3.3710494602676637,,
,4928.0,854.0,6363.0,1788.0,2663.0,1910.0,2217.0,,,,0.0217154778065566,-1.76584151088163,0.0915116731376371,,-3.4496456975773975,,
,4929.0,857.0,6362.0,1789.0,2661.0,1921.0,2197.0,,,,0.0218074895927122,-1.76696435448171,0.0914947956703532,,-3.525106838747807,,
,4932.0,855.0,6365.0,1789.0,2658.0,1920.0,2228.0,,,,0.0217530696909762,-1.76783583786159,0.0914912217523197,,-3.596743883867433,,
,4934.0,857.0,6367.0,1790.0,2654.0,1919.0,2230.0,,,,0.0215714175849557,-1.76844453048461,0.0914727611032661,,-3.663613157262626,,
,4933.0,856.0,6364.0,1789.0,2641.0,1918.0,2221.0,,,,0.0214943754589369,-1.7688430185462,0.0914666264767978,,-3.7247854600804713,,
,4935.0,857.0,6365.0,1792.0,2643.0,1912.0,2221.0,,,,0.0214952154565529,-1.76892927330856,0.0914572676552689,,-3.7796087450832534,,
,4939.0,857.0,6368.0,1793.0,2635.0,1913.0,2222.0,,,,0.0213940695025475,-1.76968930870749,0.0914577844785361,,-3.8279175489679362,,
,4942.0,858.0,6369.0,1795.0,2654.0,1913.0,2232.0,,,,0.0213951252476123,-1.76946560850128,0.0914366884822449,,-3.8701501061226327,,
,4941.0,857.0,6366.0,1793.0,2640.0,1907.0,2221.0,,,,0.0214108424295036,-1.76937614166747,0.0914465409793825,,-3.9073482190192057,,
,4943.0,857.0,6367.0,1793.0,2643.0,1908.0,2227.0,,,,0.0213327026474279,-1.76954687405651,0.09145599024952,,-3.941032225437276,,
,4946.0,859.0,6366.0,1794.0,2626.0,1899.0,2239.0,,,,0.0213832022482061,-1.76964601644654,0.0914575779176384,,-3.972960556177536,,
,4949.0,859.0,6370.0,1796.0,2643.0,1905.0,2231.0,,,,0.0213081503986258,-1.77008215823841,0.0914514506109795,,-4.0047982206800254,,
,4949.0,861.0,6367.0,1795.0,2644.0,1908.0,2230.0,,,,0.0213052067496823,-1.76996775734465,0.0914451520444576,,-4.0377298805641155,,
,4953.0,860.0,6369.0,1796.0,2638.0,1907.0,2212.0,,,,0.0213137028243198,-1.76948138742609,0.0914493166561746,,-4.072060332541714,,
,4954.0,858.0,6367.0,1798.0,2647.0,1910.0,2205.0,,,,0.0213818984884613,-1.76991363109989,0.0914535646418938,,-4.106847913248149,,
,4959.0,861.0,6371.0,1798.0,2613.0,1904.0,2184.0,,,,0.0213000468099555,-1.77017340597839,0.0914481770793616,,-4.139614601981093,,
,4963.0,862.0,6372.0,1800.0,2644.0,1902.0,2176.0,,,,0.0212383643935708,-1.77085733167159,0.0914277775242653,,-4.166170832592588,,
,4965.0,860.0,6371.0,1800.0,2658.0,1902.0,2173.0,,,,0.0211790325467606,-1.77183831837941,0.0914270811635469,,-4.180583840402212,,
,4968.0,860.0,6370.0,1801.0,2661.0,1909.0,2192.0,,,,0.0211881341154371,-1.77100464834654,0.0914165572759408,,-4.1753064602035055,,
,4971.0,863.0,6371.0,1804.0,2621.0,1919.0,2203.0,,,,0.0211003014805479,-1.77158524196773,0.0914080581756044,,-4.14146947341021,,
,4973.0,864.0,6374.0,1803.0,2637.0,1913.0,2184.0,,,,0.0211447924829016,-1.77187398759908,0.0914004894834706,,-4.069325825435901,,
,4976.0,864.0,6371.0,1805.0,2639.0,1920.0,2194.0,,,,0.0210761892157825,-1.77239811094097,0.0914111875830227,,-3.948820238446344,,
,4978.0,865.0,6372.0,1803.0,2642.0,1915.0,2255.0,,,,0.0211017514597594,-1.77219042220467,0.0914046507258783,,-3.770243825762233,,
,4981.0,864.0,6374.0,1806.0,2656.0,1920.0,2240.0,,,,0.0211207005283814,-1.7723934802801,0.0914028864683767,,-3.5249215702892416,,
,4987.0,867.0,6375.0,1808.0,2653.0,1921.0,2231.0,,,,0.0210970143278681,-1.7725219970008,0.0914106023856579,,-3.2058732695343304,,
,4992.0,867.0,6375.0,1809.0,2665.0,1915.0,2227.0,,,,0.0211339261856739,-1.77264680633473,0.0914076310669482,,-2.8083888065324962,,
,4994.0,869.0,6376.0,1810.0,2665.0,1920.0,2229.0,,,,0.0210843676712144,-1.77271747594668,0.0913994589683629,,-2.3304684418105133,,
,4997.0,868.0,6374.0,1807.0,2659.0,1924.0,2201.0,,,,0.0210814274303499,-1.77324802742076,0.0913910759321882,,-1.773097387337904,,
,5001.0,870.0,6376.0,1810.0,2658.0,1909.0,2206.0,,,,0.021082002683746,-1.77352837229428,0.091373867378433,,-1.1403471044016025,,
,5008.0,869.0,6377.0,1811.0,2649.0,1905.0,2219.0,,,,0.0210252812802601,-1.77377188737652,0.0913574517864108,,-0.43931781471481385,,
,5007.0,870.0,6379.0,1810.0,2650.0,1902.0,2228.0,,,,0.0209517936873794,-1.77451871937807,0.0913694487952992,,0.3200474708554259,,
,5011.0,872.0,6377.0,1813.0,2661.0,1905.0,2228.0,,,,0.020864203330585,-1.77493132883678,0.0913604953020355,,1.1252404359708617,,
,5013.0,871.0,6379.0,1815.0,2665.0,1906.0,2221.0,,,,0.0209269110822611,-1.77477577357241,0.0913559370556818,,1.9615223361381626,,
,5019.0,871.0,6380.0,1813.0,2665.0,1903.0,2219.0,,,,0.0208921030983343,-1.77457209447918,0.09136020450412,,2.8122927694966613,,
,5023.0,874.0,6379.0,1815.0,2656.0,1906.0,2214.0,,,,0.0209178272779423,-1.77406038959333,0.0913633892701723,,3.659483999763964,,
,5025.0,873.0,6380.0,1817.0,2641.0,1900.0,2224.0,,,,0.0209006542738689,-1.77480275988352,0.091369133162271,,4.483988040517611,,
,5027.0,874.0,6379.0,1817.0,2618.0,1908.0,2211.0,,,,0.0209132344393264,-1.77528177868073,0.0913670845851503,,5.26613524875357,,
,5031.0,874.0,6383.0,1818.0,2602.0,1901.0,2221.0,,,,0.02086000014605,-1.7752739846657,0.0913501917216736,,5.986247013521516,,
,5037.0,875.0,6383.0,1820.0,2610.0,1892.0,2201.0,,,,0.0207479697619065,-1.77587596432434,0.0913411264439156,,6.625279296572196,,
,5038.0,875.0,6385.0,1822.0,2617.0,1883.0,2208.0,,,,0.0206956882594931,-1.77646018243248,0.0913238536965408,,7.165558583793955,,
,5041.0,874.0,6385.0,1819.0,2624.0,1900.0,2209.0,,,,0.020672345804398,-1.77771766046877,0.0913169136136007,,7.591589698427112,,
,5044.0,874.0,6386.0,1819.0,2628.0,1901.0,2209.0,,,,0.0206181795151991,-1.77819754162734,0.0913061664540763,,7.890890059909361,,
,5049.0,873.0,6386.0,1823.0,2648.0,1904.0,2222.0,,,,0.0205690959659219,-1.77862224621869,0.0912813367908127,,8.054782460728012,,
,5051.0,877.0,6386.0,1823.0,2659.0,1912.0,2237.0,,,,0.0205323005359459,-1.77925036484036,0.0912823121175772,,8.07906323970985,,
,5052.0,877.0,6385.0,1824.0,2664.0,1926.0,2210.0,,,,0.0205709290873949,-1.77962754717824,0.0912699288873029,,7.964458564598193,,
,5056.0,874.0,6385.0,1823.0,2679.0,1913.0,2215.0,,,,0.0204273283030829,-1.7797148656756,0.0912635718825144,,7.716790578355932,,
,5058.0,876.0,6387.0,1826.0,2653.0,1912.0,2242.0,,,,0.0205177658771696,-1.77943302863851,0.0912708308081946,,7.346798344225755,,
,5060.0,879.0,6385.0,1827.0,2663.0,1914.0,2228.0,,,,0.0205333322153645,-1.77907390696495,0.0912723999095262,,6.86959509371941,,
,5061.0,880.0,6387.0,1825.0,2649.0,1915.0,2217.0,,,,0.0206519937593955,-1.77810037960911,0.0912841647921182,,6.303789267272075,,
,5060.0,877.0,6383.0,1822.0,2629.0,1918.0,2234.0,,,,0.0206217499219453,-1.77803605741011,0.0913034670224472,,5.670343996894279,,
,5057.0,877.0,6385.0,1823.0,2642.0,1914.0,2238.0,,,,0.0207005859804132,-1.77776614879402,0.091299452881789,,4.991287164660629,,
,5055.0,879.0,6383.0,1822.0,2627.0,1915.0,2233.0,,,,0.0207715236807851,-1.77713011914226,0.0913155814668127,,4.288402940313734,,
,5051.0,879.0,6381.0,1823.0,2611.0,1915.0,2227.0,,,,0.0207730376372662,-1.77703179956824,0.0913123260935159,,3.5820325491488987,,
,5046.0,879.0,6382.0,1817.0,2622.0,1918.0,2227.0,,,,0.0207565433962548,-1.77706935938732,0.0913081867543833,,2.890090072792246,,
,5038.0,875.0,6377.0,1815.0,2607.0,1912.0,2205.0,,,,0.0208734172872147,-1.7769525483328,0.0913261172955665,,2.22736510005053,,
,5036.0,876.0,6376.0,1814.0,2624.0,1907.0,2187.0,,,,0.0209535253602895,-1.77697070513545,0.0913285703351371,,1.6051452382854725,,
,5029.0,878.0,6376.0,1815.0,2625.0,1896.0,2195.0,,,,0.0209780530380057,-1.77722376010609,0.0913199301563878,,1.0311537562003141,,
,5027.0,876.0,6374.0,1810.0,2614.0,1902.0,2205.0,,,,0.0209245033658857,-1.7766607633174,0.0913162771161477,,0.509765128882829,,
,5017.0,874.0,6372.0,1805.0,2638.0,1912.0,2197.0,,,,0.0209414333100729,-1.77653727225479,0.0913225614435069,,0.042436684344827155,,
,5012.0,874.0,6369.0,1803.0,2647.0,1906.0,2225.0,,,,0.0211059822815254,-1.77590283088169,0.0913302281868306,,-0.37172051254473343,,
,5009.0,873.0,6370.0,1802.0,2641.0,1918.0,2221.0,,,,0.0211305034505297,-1.77541691081682,0.0913494849852493,,-0.7353131578552279,,
,5004.0,874.0,6369.0,1801.0,2629.0,1920.0,2218.0,,,,0.0211689936783455,-1.77511872883943,0.0913559614180677,,-1.052055575376653,,
,5000.0,872.0,6367.0,1797.0,2639.0,1914.0,2197.0,,,,0.0211712868814236,-1.77367750378529,0.0913761782011022,,-1.3262389402695771,,
,4996.0,874.0,6363.0,1794.0,2645.0,1906.0,2205.0,,,,0.0212865363663884,-1.77285456292348,0.0913939993375758,,-1.5623191707526864,,
,4990.0,873.0,6363.0,1795.0,2637.0,1897.0,2218.0,,,,0.02133955732909,-1.77200203206005,0.0913993519927633,,-1.7646388148106396,,
,4989.0,873.0,6366.0,1795.0,2634.0,1915.0,2209.0,,,,0.0214751396158379,-1.77203392755729,0.0914087587389233,,-1.9372768175965114,,
,4987.0,871.0,6363.0,1795.0,2645.0,1923.0,2218.0,,,,0.0214617822999492,-1.77168458344625,0.0914149275674303,,-2.0840046089952957,,
,4985.0,873.0,6363.0,1793.0,2654.0,1914.0,2213.0,,,,0.0214668440999351,-1.77152130125009,0.0914235620429482,,-2.208318474754747,,
,4985.0,870.0,6361.0,1794.0,2640.0,1912.0,2209.0,,,,0.02148031356915,-1.77155601298792,0.0914250911056155,,-2.313515658755052,,
,4982.0,871.0,6362.0,1793.0,2652.0,1906.0,2186.0,,,,0.0214159854059674,-1.7712629873424,0.0914375726343547,,-2.4027834181931547,,
,4982.0,869.0,6363.0,1792.0,2652.0,1909.0,2183.0,,,,0.0214437304573446,-1.77102784710485,0.0914254504831853,,-2.4792749475502918,,
,4981.0,869.0,6363.0,1793.0,2669.0,1904.0,2206.0,,,,0.0214974720313663,-1.77122084016101,0.0914420095088933,,-2.5461527802450052,,
,4980.0,872.0,6361.0,1794.0,2636.0,1904.0,2187.0,,,,0.0214852763393508,-1.77159685645324,0.0914335988458103,,-2.6065881729442926,,
,4981.0,870.0,6363.0,1792.0,2621.0,1901.0,2200.0,,,,0.0215197024714203,-1.77129352125338,0.0914397017990544,,-2.663713158503448,,
,4980.0,873.0,6363.0,1794.0,2630.0,1890.0,2203.0,,,,0.0215301056316386,-1.7702853586688,0.0914458273285252,,-2.720529497194023,,
,4982.0,870.0,6360.0,1794.0,2645.0,1893.0,2209.0,,,,0.0215266369582036,-1.77021603395249,0.091458179678596,,-2.7797850161496753,,
,4980.0,871.0,6364.0,1792.0,2635.0,1912.0,2188.0,,,,0.0215700280766957,-1.77072476889506,0.091465018772228,,-2.8438324800699477,,
,4983.0,870.0,6365.0,1794.0,2605.0,1916.0,2194.0,,,,0.021498895047379,-1.77082656507802,0.0914537263517097,,-2.914488977861382,,
,4982.0,872.0,6363.0,1797.0,2637.0,1917.0,2197.0,,,,0.0215116170248384,-1.77027978817029,0.0914575702607729,,-2.992914626299253,,
,4984.0,871.0,6366.0,1798.0,2633.0,1921.0,2193.0,,,,0.0215123114868933,-1.7705528106441,0.0914530373004713,,-3.0795280199007062,,
,4983.0,868.0,6365.0,1797.0,2635.0,1927.0,2206.0,,,,0.0215476328274727,-1.77056931223058,0.0914665808341512,,-3.1739722713071865,,
,4985.0,868.0,6366.0,1797.0,2619.0,1909.0,2214.0,,,,0.0215555295483324,-1.7694604395877,0.0914582251361733,,-3.275139842822955,,
,4985.0,871.0,6367.0,1797.0,2642.0,1911.0,2227.0,,,,0.0215695044586468,-1.76984951654687,0.091467887937828,,-3.381257029762857,,
,4986.0,874.0,6368.0,1799.0,2639.0,1907.0,2213.0,,,,0.0215996329711342,-1.76911641513427,0.0914679849233287,,-3.4900204953430203,,
,4988.0,870.0,6366.0,1798.0,2640.0,1903.0,2212.0,,,,0.021658319310536,-1.76906118808441,0.0914762882796137,,-3.598769520381084,,
,4987.0,869.0,6369.0,1798.0,2654.0,1903.0,2231.0,,,,0.0216873193932847,-1.76915485182478,0.0914874245760373,,-3.70466999335897,,
,4988.0,870.0,6369.0,1801.0,2646.0,1907.0,2221.0,,,,0.0216957803634637,-1.76761513111925,0.0914923934555098,,-3.804881698543529,,
,4989.0,872.0,6369.0,1800.0,2628.0,1908.0,2213.0,,,,0.0217985618530641,-1.76731879251662,0.0915097545340924,,-3.8966812813793696,,
,4990.0,873.0,6368.0,1799.0,2624.0,1914.0,2219.0,,,,0.0217773133706559,-1.76664539075188,0.091515714641629,,-3.9775201437065815,,
,4987.0,871.0,6368.0,1802.0,2617.0,1908.0,2206.0,,,,0.0218094252463952,-1.76644795299175,0.0915310740277223,,-4.045008039144666,,
,4992.0,870.0,6370.0,1799.0,2645.0,1907.0,2217.0,,,,0.0218080506845806,-1.76609263289649,0.0915368046402329,,-4.096826435880452,,
,4990.0,871.0,6371.0,1802.0,2624.0,1914.0,2198.0,,,,0.0218491943989225,-1.76572131505888,0.0915382317251889,,-4.130587906082111,,
,4988.0,870.0,6371.0,1800.0,2630.0,1920.0,2204.0,,,,0.0220119887975675,-1.76523317829006,0.0915476834300044,,-4.143666894638554,,
,4985.0,868.0,6370.0,1800.0,2622.0,1909.0,2207.0,,,,0.0219841944262134,-1.7655135705742,0.0915445889515617,,-4.133032224114928,,
,4987.0,869.0,6371.0,1802.0,2599.0,1903.0,2188.0,,,,0.021931909195303,-1.76513995308503,0.0915471442836866,,-4.09511234249561,,
,4987.0,870.0,6370.0,1801.0,2638.0,1913.0,2219.0,,,,0.0219158040550948,-1.76479366343253,0.0915520808083014,,-4.025720780015222,,
,4986.0,870.0,6371.0,1803.0,2654.0,1913.0,2237.0,,,,0.0220078216425524,-1.76414939906726,0.0915435738003307,,-3.920062044144913,,
,4985.0,870.0,6371.0,1802.0,2655.0,1912.0,2246.0,,,,0.0220134091893008,-1.76431751147808,0.0915577259480581,,-3.7728282017880637,,
,4984.0,866.0,6372.0,1801.0,2667.0,1918.0,2229.0,,,,0.0220417570501109,-1.7635684668214,0.0915658568297651,,-3.5783852627282093,,
,4984.0,867.0,6372.0,1800.0,2648.0,1926.0,2222.0,,,,0.0220698132531028,-1.76360432124611,0.0915552003920925,,-3.3310383115118984,,
,4984.0,868.0,6372.0,1803.0,2658.0,1924.0,2222.0,,,,0.022088505554149,-1.76410493002135,0.0915588677753984,,-3.0253572856833233,,
,4984.0,863.0,6373.0,1805.0,2660.0,1916.0,2231.0,,,,0.0221077000874606,-1.76341879897396,0.0915652705173246,,-2.6565428011953016,,
,4980.0,867.0,6374.0,1802.0,2644.0,1918.0,2215.0,,,,0.0220623341523096,-1.76366317829372,0.0915718622335815,,-2.2208135435508716,,
,4980.0,864.0,6371.0,1801.0,2639.0,1918.0,2224.0,,,,0.0220744011016595,-1.76343763879377,0.0915506887178532,,-1.7158018453791346,,
,4980.0,865.0,6371.0,1803.0,2624.0,1917.0,2241.0,,,,0.0220011027747891,-1.76359453042056,0.0915600767873232,,-1.140949086634104,,
,4981.0,866.0,6372.0,1804.0,2638.0,1927.0,2211.0,,,,0.0219960682301341,-1.76441526447357,0.091547471529264,,-0.49789400657768945,,
,4982.0,865.0,6373.0,1801.0,2634.0,1923.0,2210.0,,,,0.0220741087269347,-1.7640737252762,0.0915500362796861,,0.2091573435839261,,
,4982.0,864.0,6374.0,1799.0,2644.0,1924.0,2213.0,,,,0.0219895517765082,-1.76442159036591,0.0915444076839813,,0.973101117365591,,
,4983.0,864.0,6375.0,1800.0,2603.0,1914.0,2220.0,,,,0.0220166352086129,-1.7644866691845,0.0915370668719013,,1.7836781129409045,,
,4986.0,865.0,6378.0,1805.0,2629.0,1903.0,2205.0,,,,0.0219552546310037,-1.7648593862856,0.0915364658409664,,2.6273332590048524,,
,4983.0,863.0,6374.0,1804.0,2624.0,1911.0,2201.0,,,,0.0218356697166036,-1.76491040639467,0.0915207718295847,,3.4872416888615274,,
,4983.0,865.0,6377.0,1806.0,2626.0,1908.0,2197.0,,,,0.0217164023390433,-1.76575220010584,0.0915178184156627,,4.343549010506697,,
,4985.0,863.0,6379.0,1805.0,2604.0,1918.0,2210.0,,,,0.021715389826593,-1.76608121042647,0.0915008705256613,,5.173863254162853,,
,4989.0,865.0,6379.0,1805.0,2616.0,1920.0,2205.0,,,,0.0215796437383212,-1.76685572153231,0.0914969168063179,,5.9540177194571395,,
2025-07-02 21:29:39,4985.0,862.0,6378.0,1806.0,2626.0,1922.0,2196.0,,,2025/07/02 09:29:39 PM,0.0215953259576682,-1.76759053804206,0.0914879659240479,,6.659098483403538,,
,4988.0,862.0,6380.0,1809.0,2626.0,1926.0,2218.0,,,,0.0215561893446667,-1.76751571166991,0.0914782453715551,,7.264699646858825,,
,4989.0,860.0,6381.0,1806.0,2639.0,1918.0,2214.0,,,,0.0215126929503193,-1.7678798434129,0.091475129688094,,7.748336634830995,,
,4991.0,861.0,6382.0,1807.0,2629.0,1916.0,2224.0,,,,0.0214948031240343,-1.76782110741186,0.0914792708760634,,8.090917155773948,,
,4992.0,864.0,6383.0,1810.0,2638.0,1909.0,2223.0,,,,0.0216822707883257,-1.76833550183464,0.0914830662670096,,8.278145328831355,,
,4993.0,862.0,6386.0,1808.0,2635.0,1912.0,2217.0,,,,0.0216383716217801,-1.76745208787093,0.0914747071864408,,8.301721348710263,,
,4993.0,862.0,6387.0,1811.0,2648.0,1924.0,2199.0,,,,0.0216738391917283,-1.76830212840541,0.0914722173490185,,8.160200555572253,,
,4996.0,860.0,6385.0,1809.0,2658.0,1916.0,2187.0,,,,0.0216052996225906,-1.7684083891933,0.091472840203203,,7.859394552804053,,
,4998.0,863.0,6385.0,1810.0,2658.0,1918.0,2206.0,,,,0.0215642171150276,-1.76936389464442,0.0914497784488863,,7.412234033029749,,
,4997.0,861.0,6388.0,1811.0,2656.0,1919.0,2190.0,,,,0.0214745723598107,-1.76962553198388,0.0914381727543388,,6.838066534503425,,
,5002.0,861.0,6390.0,1814.0,2656.0,1923.0,2179.0,,,,0.0214006374919658,-1.77052887121742,0.0914146165890764,,6.161426993948261,,
,5002.0,862.0,6387.0,1810.0,2685.0,1914.0,2195.0,,,,0.0213244671178918,-1.77145705908955,0.0914116947762695,,5.4103850235369855,,
,5007.0,861.0,6391.0,1815.0,2660.0,1914.0,2212.0,,,,0.0213236655890678,-1.77250075141945,0.0913910325205393,,4.614627909462691,,
,5005.0,862.0,6389.0,1814.0,2654.0,1926.0,2204.0,,,,0.0212647872937291,-1.77297687467359,0.091394349041858,,3.8034709546998458,,
,5007.0,861.0,6391.0,1814.0,2641.0,1932.0,2206.0,,,,0.0213206187869938,-1.77262249401247,0.0913794382919675,,3.003990707838294,,
,5008.0,862.0,6392.0,1816.0,2633.0,1924.0,2187.0,,,,0.0212886857272289,-1.77254505133818,0.0913772435723573,,2.2394528205825015,,
,5011.0,861.0,6390.0,1816.0,2650.0,1918.0,2195.0,,,,0.0212170713302917,-1.77318933967513,0.0913813647259717,,1.528161737360516,,
,5013.0,862.0,6393.0,1818.0,2614.0,1916.0,2214.0,,,,0.0212117895884292,-1.77352331969486,0.0913661702194063,,0.8828038826210399,,
,5015.0,862.0,6397.0,1819.0,2614.0,1918.0,2216.0,,,,0.0211890201367208,-1.77392236316145,0.091369769422818,,0.3102988935707913,,
,5016.0,863.0,6395.0,1819.0,2628.0,1921.0,2219.0,,,,0.0211597903869934,-1.77491835031711,0.0913543104816966,,-0.18787792523230604,,
,5018.0,861.0,6395.0,1818.0,2650.0,1906.0,2224.0,,,,0.0211782757441276,-1.77481024827134,0.091339129676269,,-0.6149795793789323,,
,5021.0,862.0,6394.0,1821.0,2653.0,1908.0,2219.0,,,,0.0209867375580652,-1.7755176327481,0.0913407760880448,,-0.9779832008375524,,
,5024.0,861.0,6394.0,1821.0,2641.0,1919.0,2190.0,,,,0.0209858077479819,-1.77588661693026,0.0913255763461549,,-1.286417116046453,,
,5021.0,863.0,6399.0,1820.0,2636.0,1916.0,2185.0,,,,0.0209448135212232,-1.77598720222506,0.0913332905692792,,-1.5511397077060076,,
,5024.0,860.0,6399.0,1820.0,2620.0,1907.0,2206.0,,,,0.0209033213289846,-1.7762415998713,0.0913254181367334,,-1.7831808814701633,,
,5026.0,862.0,6397.0,1822.0,2624.0,1913.0,2206.0,,,,0.0209330784994967,-1.77639173699398,0.0913250515900228,,-1.9927390318952716,,
,5028.0,859.0,6399.0,1821.0,2635.0,1920.0,2211.0,,,,0.0209263220749442,-1.7762995551413,0.091328107424726,,-2.188403121106367,,
,5033.0,863.0,6401.0,1825.0,2629.0,1906.0,2213.0,,,,0.0208990282257938,-1.77628149986948,0.0913225002012963,,-2.376643401027316,,
,5031.0,862.0,6400.0,1824.0,2639.0,1904.0,2201.0,,,,0.0209404499933478,-1.7765602496547,0.0913098409462211,,-2.5615874588719074,,
,5031.0,858.0,6397.0,1824.0,2652.0,1910.0,2211.0,,,,0.0209173485393234,-1.77697415314967,0.0913172119465805,,-2.7450720598700697,,
,5035.0,860.0,6402.0,1826.0,2649.0,1923.0,2217.0,,,,0.0208571481706355,-1.77744365215568,0.0912992122138231,,-2.9269366844588802,,
,5037.0,860.0,6400.0,1826.0,2656.0,1931.0,2212.0,,,,0.0208588687263046,-1.77875503052149,0.0913008019509494,,-3.1055028303383496,,
,5037.0,861.0,6401.0,1822.0,2660.0,1931.0,2217.0,,,,0.020770693007214,-1.77902205990722,0.0912941081094473,,-3.2781660465154863,,
,5038.0,860.0,6403.0,1829.0,2663.0,1919.0,2230.0,,,,0.0208871477141531,-1.77856089779447,0.0912899944742067,,-3.442018167050717,,
,5037.0,860.0,6402.0,1825.0,2646.0,1908.0,2230.0,,,,0.0208738454564598,-1.778347753241,0.0912874661738467,,-3.594417886733967,,
,5036.0,860.0,6402.0,1826.0,2630.0,1909.0,2227.0,,,,0.0208951656580841,-1.77736199797824,0.0913023748859348,,-3.733439203877761,,
,5039.0,860.0,6401.0,1825.0,2661.0,1914.0,2221.0,,,,0.0209499361112866,-1.77698441621611,0.0913204016018705,,-3.85814720207217,,
,5032.0,858.0,6403.0,1824.0,2666.0,1917.0,2232.0,,,,0.0210572127682345,-1.77621071048801,0.091320461396248,,-3.968675312314595,,
,5027.0,858.0,6399.0,1824.0,2650.0,1915.0,2209.0,,,,0.0211772739393525,-1.77514781149026,0.0913385933296977,,-4.0661036667247945,,
,5026.0,858.0,6398.0,1822.0,2639.0,1899.0,2225.0,,,,0.0211685827792716,-1.77471726200896,0.0913451023418841,,-4.152161447826434,,
,5018.0,857.0,6399.0,1821.0,2624.0,1901.0,2216.0,,,,0.0213006453749437,-1.77436516202325,0.0913622484520875,,-4.228795346346363,,
,5013.0,856.0,6398.0,1819.0,2622.0,1913.0,2201.0,,,,0.0213052090248417,-1.77434806616082,0.0913578925383676,,-4.297660190193255,,
,5007.0,854.0,6394.0,1817.0,2620.0,1908.0,2216.0,,,,0.0212766143591771,-1.77389320281403,0.0913465957511198,,-4.359595739990431,,
,4998.0,853.0,6392.0,1810.0,2635.0,1912.0,2192.0,,,,0.021297354559313,-1.77381851877143,0.0913727590950584,,-4.414155109688199,,
,4994.0,854.0,6391.0,1809.0,2622.0,1909.0,2208.0,,,,0.0213037298507919,-1.77372751299921,0.0913626946518716,,-4.459245157798477,,
,4982.0,852.0,6390.0,1805.0,2606.0,1907.0,2188.0,,,,0.0213044360955144,-1.77376791612399,0.0913609632157154,,-4.490927885330142,,
,4978.0,855.0,6390.0,1803.0,2621.0,1913.0,2194.0,,,,0.0213510859251054,-1.77337828014939,0.0913697842060343,,-4.503415399011836,,
,4971.0,849.0,6383.0,1799.0,2627.0,1916.0,2217.0,,,,0.021357926329068,-1.77328269795415,0.0913744130625595,,-4.489271016977446,,
,4965.0,850.0,6385.0,1796.0,2621.0,1914.0,2220.0,,,,0.0212848874230793,-1.77335586402669,0.0913749535168924,,-4.439807625883257,,
,4961.0,850.0,6385.0,1795.0,2639.0,1914.0,2195.0,,,,0.0214155662618632,-1.77291828214131,0.0913947299984065,,-4.345653450628648,,
,4957.0,849.0,6385.0,1793.0,2630.0,1914.0,2201.0,,,,0.0214516263852762,-1.77229597717567,0.0913850626529106,,-4.197436778618805,,
,4950.0,849.0,6383.0,1791.0,2611.0,1920.0,2209.0,,,,0.0214568593312828,-1.77249619017037,0.0913879216850753,,-3.9865266547305103,,
,4948.0,850.0,6383.0,1788.0,2664.0,1927.0,2201.0,,,,0.0214401224679334,-1.77254064201333,0.09138310779384,,-3.7057582590836513,,
,4943.0,850.0,6383.0,1789.0,2639.0,1919.0,2197.0,,,,0.021476665465993,-1.77244155818651,0.091390523884698,,-3.3500720428132222,,
,4942.0,849.0,6384.0,1790.0,2630.0,1916.0,2209.0,,,,0.0214456091747738,-1.77264793543656,0.0913908923936252,,-2.9170063276680387,,
,4939.0,848.0,6381.0,1787.0,2615.0,1916.0,2218.0,,,,0.0213930144337114,-1.77295872638799,0.0913812980434732,,-2.407003121462562,,
,4935.0,845.0,6380.0,1785.0,2648.0,1926.0,2212.0,,,,0.0214598342501605,-1.77321460162637,0.0913822321069309,,-1.8235125894966666,,
,4934.0,845.0,6383.0,1785.0,2654.0,1912.0,2218.0,,,,0.0213850733458567,-1.77296636961319,0.0913744907271554,,-1.1729075456789575,,
,4934.0,847.0,6383.0,1789.0,2629.0,1917.0,2205.0,,,,0.0214021436073851,-1.77316540797805,0.0913820191303688,,-0.46424048425431463,,
,4931.0,846.0,6384.0,1785.0,2631.0,1919.0,2188.0,,,,0.02148942902639,-1.77269850744925,0.0913881157791838,,0.29111120685161174,,
,4931.0,846.0,6382.0,1787.0,2665.0,1908.0,2208.0,,,,0.0213567158443825,-1.77267122858302,0.0913911853387685,,1.079862494022037,,
,4930.0,846.0,6385.0,1785.0,2646.0,1908.0,2208.0,,,,0.0214728741279962,-1.7719465416327,0.0913857992227604,,1.8872564894563413,,
,4930.0,848.0,6384.0,1788.0,2643.0,1901.0,2196.0,,,,0.0214396009706785,-1.77225976395549,0.0913807489467172,,2.6974877261775316,,
,4928.0,847.0,6384.0,1784.0,2633.0,1907.0,2194.0,,,,0.0214228205011962,-1.77206429237979,0.0913834058349714,,3.4940990538087493,,
,4928.0,846.0,6388.0,1788.0,2640.0,1904.0,2190.0,,,,0.0214223551806875,-1.77238556290938,0.0913848282503865,,4.260355881234691,,
,4930.0,844.0,6384.0,1785.0,2640.0,1912.0,2221.0,,,,0.0213787223045085,-1.77241981295099,0.0913660172418887,,4.9796153600793875,,
,4930.0,848.0,6389.0,1788.0,2663.0,1923.0,2204.0,,,,0.0214481860139247,-1.77287979764872,0.0913797911810862,,5.635714819886607,,
,4929.0,848.0,6390.0,1787.0,2647.0,1923.0,2191.0,,,,0.0213559710170779,-1.77302926886996,0.0913802238218236,,6.213401581927701,,
,4926.0,847.0,6391.0,1787.0,2643.0,1925.0,2180.0,,,,0.0213715163118057,-1.77317169590705,0.0913711145147228,,6.698815789701148,,
,4927.0,846.0,6390.0,1788.0,2628.0,1926.0,2196.0,,,,0.021356145740632,-1.77339303285926,0.0913675703395321,,7.080021633328439,,
,4929.0,847.0,6392.0,1790.0,2628.0,1908.0,2209.0,,,,0.0213615657494228,-1.77308377021967,0.0913645519444491,,7.347563454364258,,
,4930.0,850.0,6393.0,1789.0,2635.0,1908.0,2214.0,,,,0.0214009847067127,-1.77349636179388,0.0913751654459542,,7.495004513288018,,
,4929.0,848.0,6392.0,1788.0,2633.0,1903.0,2216.0,,,,0.0213925128127883,-1.77250118975485,0.0913822861283771,,7.519390557568201,,
,4931.0,848.0,6392.0,1789.0,2663.0,1909.0,2221.0,,,,0.0214433097437408,-1.77160681758633,0.091381492757161,,7.421571526038281,,
,4928.0,847.0,6394.0,1788.0,2658.0,1902.0,2233.0,,,,0.02152207180192,-1.77093501059814,0.0914098639609072,,7.206317135807059,,
,4929.0,847.0,6394.0,1791.0,2651.0,1893.0,2228.0,,,,0.0216476055733865,-1.77014339196679,0.0914268924251756,,6.882178825327734,,
,4930.0,847.0,6394.0,1790.0,2655.0,1911.0,2219.0,,,,0.0216961428106045,-1.76945378869019,0.09144572198609,,6.461081168664725,,
,4933.0,847.0,6395.0,1790.0,2647.0,1915.0,2210.0,,,,0.0215618287729197,-1.76896502315689,0.0914484681190537,,5.957665246747698,,
,4929.0,846.0,6391.0,1790.0,2638.0,1924.0,2218.0,,,,0.0218005201654249,-1.76775817680325,0.0914758336352399,,5.388445277855844,,
,4928.0,848.0,6393.0,1792.0,2644.0,1924.0,2226.0,,,,0.0217831071393363,-1.76745446047719,0.091482804082805,,4.770867802081571,,
,4931.0,848.0,6396.0,1792.0,2636.0,1920.0,2226.0,,,,0.0218388514646486,-1.76714159439847,0.0915012794084054,,4.1223729867294345,,
,4929.0,848.0,6394.0,1791.0,2628.0,1922.0,2228.0,,,,0.0219268136212105,-1.76642003200966,0.0914962355566286,,3.459549303254018,,
,4928.0,846.0,6392.0,1794.0,2636.0,1924.0,2220.0,,,,0.0219469894541256,-1.76635142194729,0.0915041567717898,,2.7974502539443638,,
,4928.0,847.0,6393.0,1790.0,2627.0,1897.0,2234.0,,,,0.021982634741792,-1.76620311167965,0.0915062582200178,,2.1491116940871224,,
,4927.0,846.0,6393.0,1790.0,2627.0,1898.0,2211.0,,,,0.0220157678486154,-1.7652257156552,0.0915173422781147,,1.5252773070438845,,
,4927.0,848.0,6393.0,1793.0,2647.0,1903.0,2197.0,,,,0.0220817635499036,-1.76478047745298,0.0915204453000005,,0.9343135534076734,,
,4928.0,848.0,6394.0,1792.0,2657.0,1904.0,2210.0,,,,0.0221377109898232,-1.76429879747432,0.0915256104773801,,0.38227790670645456,,
,4927.0,847.0,6391.0,1789.0,2661.0,1920.0,2239.0,,,,0.0221358174960801,-1.76399406986749,0.0915417788607102,,-0.126902863928398,,
,4927.0,847.0,6393.0,1791.0,2650.0,1923.0,2229.0,,,,0.0221725089509066,-1.76370459015021,0.0915500707689208,,-0.5911852960278767,,
,4928.0,848.0,6393.0,1791.0,2628.0,1911.0,2226.0,,,,0.022224643381391,-1.76319144361173,0.0915633376742155,,-1.0101256431260204,,
,4929.0,847.0,6392.0,1793.0,2624.0,1899.0,2231.0,,,,0.022332090672465,-1.76260866564788,0.0915808441266073,,-1.3845838472788026,,
,4927.0,846.0,6391.0,1790.0,2619.0,1909.0,2225.0,,,,0.0222928446515983,-1.76214755188242,0.0915881917684319,,-1.7164316856885111,,
,4928.0,847.0,6393.0,1790.0,2617.0,1915.0,2199.0,,,,0.0223180525501199,-1.76227260223544,0.0915955098941316,,-2.008277256936037,,
,4929.0,848.0,6394.0,1793.0,2604.0,1909.0,2202.0,,,,0.0224187589250065,-1.76168876685909,0.0916000194927973,,-2.263215136396848,,
,4932.0,848.0,6395.0,1793.0,2621.0,1914.0,2180.0,,,,0.0224315203365073,-1.76097839339318,0.0916126148897253,,-2.484609045308468,,
,4931.0,847.0,6397.0,1794.0,2616.0,1912.0,2193.0,,,,0.0224467905540007,-1.76056780808888,0.0916280506400467,,-2.6759112965216425,,
,4931.0,847.0,6394.0,1793.0,2625.0,1902.0,2211.0,,,,0.0225801147748009,-1.75960305996484,0.091634542632817,,-2.8405208286696526,,
,4934.0,850.0,6394.0,1793.0,2672.0,1912.0,2218.0,,,,0.022596511893471,-1.75944443308145,0.091648335875911,,-2.9816796053975074,,
,4935.0,848.0,6398.0,1795.0,2653.0,1917.0,2234.0,,,,0.0225647758617618,-1.75881471090415,0.0916567985604666,,-3.102405547855448,,
,4938.0,850.0,6397.0,1796.0,2649.0,1920.0,2224.0,,,,0.0226770843127089,-1.75798435602323,0.0916728839435051,,-3.2054588041696834,,
,4937.0,847.0,6393.0,1794.0,2646.0,1916.0,2221.0,,,,0.0228097064860763,-1.75757277245373,0.0916808909275209,,-3.2933368920417023,,
,4937.0,846.0,6395.0,1795.0,2634.0,1922.0,2226.0,,,,0.0228638600220234,-1.75690823820636,0.0916820458757882,,-3.368293117843039,,
,4941.0,848.0,6397.0,1799.0,2642.0,1911.0,2228.0,,,,0.0229611011502527,-1.75546306628615,0.0917027956556626,,-3.432371906099984,,
,4943.0,852.0,6400.0,1800.0,2627.0,1917.0,2221.0,,,,0.0229855138919975,-1.75407709400541,0.0917433872615546,,-3.487454544349456,,
,4945.0,847.0,6397.0,1797.0,2627.0,1894.0,2237.0,,,,0.0231216170162468,-1.75309246113246,0.0917553850627062,,-3.5353094009504016,,
,4945.0,847.0,6395.0,1797.0,2651.0,1897.0,2232.0,,,,0.0231672914813426,-1.75200736541602,0.0917764406717966,,-3.5776413635896467,,
,4946.0,849.0,6398.0,1799.0,2622.0,1906.0,2244.0,,,,0.0232624587101481,-1.75128979939372,0.0917914308495972,,-3.6161348598015057,,
,4949.0,851.0,6400.0,1801.0,2636.0,1906.0,2235.0,,,,0.0234011302853525,-1.75018876001784,0.0918029636610197,,-3.6524822082605,,
,4952.0,850.0,6397.0,1801.0,2638.0,1911.0,2226.0,,,,0.0235118664431438,-1.74984463096176,0.091823689307951,,-3.6883845969503777,,
,4955.0,851.0,6402.0,1803.0,2628.0,1904.0,2210.0,,,,0.0235889883711315,-1.74860437063846,0.0918221090187488,,-3.72550933163509,,
,4956.0,850.0,6402.0,1803.0,2622.0,1905.0,2218.0,,,,0.0236160704036839,-1.74798597649891,0.0918368749479779,,-3.7653876711916836,,
,4960.0,852.0,6403.0,1804.0,2651.0,1918.0,2218.0,,,,0.0236631468240889,-1.74723968540881,0.0918521289914738,,-3.809244555912013,,
