TimeLabel,MEAS1_PPG1,MEAS1_PPG2,MEAS1_PPG3,MEAS1_PPG4,ACCX,ACCY,ACCZ,HR_timestamp,HR_value,radar_timestamp,phase_rx0,phase_rx1,phase_rx2,timestep,n_process,original_rate,calculated_rate
2025-07-21 22:19:34,6429.0,950.0,6750.0,869.0,2269.0,2450.0,2047.0,2025-07-21 22:19:52,61.0,2025/07/21 10:19:34 PM,0.130843302899439,0.0240409710890323,2.60786990065566,2025/07/21 10:19:34 PM,5.015455791769611,13.177160263061523,20.354581925778607
,6430.0,952.0,6749.0,867.0,2277.0,2447.0,2038.0,2025-07-21 22:19:52,61.0,,0.130881022627486,0.0242880261127891,2.60944909877205,2025/07/21 10:19:44 PM,5.0388995520298145,18.590240478515625,14.54598883338231
,6433.0,953.0,6752.0,871.0,2274.0,2446.0,2042.0,2025-07-21 22:19:53,61.0,,0.13089181889378,0.0244953620146025,2.61091163871995,2025/07/21 10:19:54 PM,4.964930924709026,18.23708152770996,15.814838442511942
,6437.0,956.0,6755.0,873.0,2280.0,2452.0,2040.0,2025-07-21 22:19:54,61.0,,0.130943452001039,0.0246516165659855,2.61271441842425,2025/07/21 10:20:04 PM,4.812717832017868,16.701461791992188,14.84265905814331
,6436.0,955.0,6753.0,872.0,2275.0,2450.0,2057.0,2025-07-21 22:19:55,61.0,,0.131078917323675,0.024936892061579,2.61395346729933,2025/07/21 10:20:14 PM,4.604609141605849,15.0,16.985645933014354
,6440.0,957.0,6754.0,872.0,2281.0,2452.0,2051.0,2025-07-21 22:19:56,60.0,,0.131116390910407,0.025121402194587,2.61512909318228,2025/07/21 10:20:24 PM,4.364181114195223,15.909090995788574,19.567117026282194
,6442.0,955.0,6754.0,873.0,2291.0,2452.0,2063.0,2025-07-21 22:19:57,60.0,,0.131151026947773,0.0252709545736487,2.61701348501424,2025/07/21 10:20:34 PM,4.114262682695872,16.901409149169922,17.337159564675936
,6445.0,959.0,6757.0,874.0,2283.0,2449.0,2042.0,2025-07-21 22:19:58,59.0,,0.131208102764659,0.0254660316202874,2.61799878482363,2025/07/21 10:20:44 PM,3.8751411563342124,17.857141494750977,17.80229707058975
,6449.0,956.0,6759.0,871.0,2290.0,2443.0,2048.0,2025-07-21 22:20:00,58.0,,0.131275413439723,0.0257189197439163,2.62011921801264,2025/07/21 10:20:54 PM,3.6631075048911845,18.617021560668945,13.146853146853164
,6451.0,956.0,6758.0,876.0,2302.0,2441.0,2060.0,2025-07-21 22:20:01,57.0,,0.131298144103547,0.0258522699081241,2.62189022099542,2025/07/21 10:21:04 PM,3.489439717666422,15.173410415649414,14.673659673659676
,6452.0,957.0,6760.0,874.0,2268.0,2443.0,2054.0,2025-07-21 22:20:01,57.0,,0.131371998471095,0.0260574719314967,2.6231482220789,2025/07/21 10:21:14 PM,3.359861447909042,13.74045753479004,17.631917631917638
,6456.0,959.0,6764.0,876.0,2299.0,2448.0,2054.0,2025-07-21 22:20:03,57.0,,0.13140363789783,0.0263668512946918,2.62522488306797,2025/07/21 10:21:24 PM,3.2744655749461877,14.716187477111816,17.16199173733418
,6457.0,961.0,6763.0,877.0,2299.0,2443.0,2054.0,2025-07-21 22:20:04,57.0,,0.131501574088535,0.026660777950449,2.62785463740995,2025/07/21 10:21:34 PM,3.2280639282481665,16.291698455810547,14.664177882568675
,6460.0,960.0,6764.0,876.0,2300.0,2436.0,2062.0,2025-07-21 22:20:04,57.0,,0.131574564657701,0.0269217181899589,2.6299218040251,2025/07/21 10:21:44 PM,3.2109111037655453,16.613924026489258,14.476744186046538
,6461.0,962.0,6763.0,878.0,2302.0,2439.0,2044.0,2025-07-21 22:20:06,57.0,,0.13152714857521,0.0268992892322373,2.63045258134904,2025/07/21 10:21:54 PM,3.209742601189952,15.373353004455566,16.6177259953901
,6466.0,964.0,6767.0,880.0,2297.0,2442.0,2051.0,2025-07-21 22:20:06,57.0,,0.131619261420022,0.0272087447728011,2.63252947560746,2025/07/21 10:22:04 PM,3.209056974285175,15.195369720458984,17.833333333333325
,6467.0,963.0,6767.0,880.0,2274.0,2437.0,2035.0,2025-07-21 22:20:08,58.0,,0.131707797318269,0.0277460335471876,2.63618189544835,2025/07/21 10:22:14 PM,3.192555351101652,16.116653442382812,16.968053044002424
,6471.0,962.0,6767.0,881.0,2272.0,2424.0,2034.0,2025-07-21 22:20:09,58.0,,0.131848562865055,0.0281550694130089,2.64006731941054,2025/07/21 10:22:24 PM,3.144632382299503,17.26618766784668,14.823852371511368
,6471.0,962.0,6769.0,881.0,2273.0,2426.0,2025.0,2025-07-21 22:20:09,58.0,,0.13195359312678,0.0285639932061406,2.64346317961535,,3.0517963589390074,,
,6477.0,965.0,6769.0,884.0,2276.0,2430.0,2043.0,2025-07-21 22:20:10,57.0,,0.132034675190808,0.0289855461112608,2.64620483494106,,2.9038893477022123,,
,6482.0,969.0,6771.0,883.0,2270.0,2439.0,2071.0,2025-07-21 22:20:11,57.0,,0.132179664184735,0.0294726523948593,2.64998128536514,,2.6949863685921924,,
,6483.0,968.0,6772.0,883.0,2283.0,2439.0,2071.0,2025-07-21 22:20:12,57.0,,0.132262686930581,0.0298510852631507,2.65261264761061,,2.423879297608808,,
,6485.0,967.0,6773.0,881.0,2249.0,2424.0,2063.0,2025-07-21 22:20:13,58.0,,0.132315939197585,0.0302397461429946,2.65557178415673,,2.0940951901081077,,
,6487.0,970.0,6776.0,884.0,2268.0,2442.0,2060.0,2025-07-21 22:20:14,58.0,,0.132438660233202,0.0305420097777736,2.65777157963409,,1.7134533753458494,,
,6492.0,972.0,6776.0,884.0,2269.0,2454.0,2047.0,2025-07-21 22:20:15,58.0,,0.132501297966888,0.0308777640333692,2.65991047694687,,1.293220889323985,,
,6498.0,973.0,6779.0,887.0,2273.0,2455.0,2060.0,2025-07-21 22:20:16,59.0,,0.132602111555585,0.0312069904044632,2.66189526965904,,0.8469722766995731,,
,6497.0,971.0,6780.0,886.0,2320.0,2466.0,2084.0,2025-07-21 22:20:18,59.0,,0.132621295708696,0.031395981870118,2.66412673052344,,0.38929158776914413,,
,6499.0,972.0,6779.0,888.0,2305.0,2449.0,2075.0,2025-07-21 22:20:19,59.0,,0.13268720252513,0.0316274645571717,2.66558526972518,,-0.06553118840309531,,
,6502.0,972.0,6780.0,887.0,2294.0,2453.0,2070.0,2025-07-21 22:20:19,60.0,,0.132708061385392,0.0317807522463927,2.66609173884337,,-0.5046607997875426,,
,6499.0,974.0,6781.0,887.0,2303.0,2450.0,2065.0,2025-07-21 22:20:21,60.0,,0.132726967933236,0.0318655965967898,2.66672036851705,,-0.9176074405920758,,
,6496.0,973.0,6778.0,889.0,2278.0,2458.0,2073.0,2025-07-21 22:20:21,60.0,,0.132713951860963,0.0318452520641093,2.66653775255714,,-1.2967568917784433,,
,6493.0,966.0,6771.0,884.0,2274.0,2460.0,2061.0,2025-07-21 22:20:22,60.0,,0.132764584677144,0.0318539116799599,2.66696379779137,,-1.6374963784016543,,
,6488.0,967.0,6766.0,886.0,2258.0,2464.0,2045.0,2025-07-21 22:20:23,60.0,,0.132755514856986,0.0318382164963433,2.66679347569194,,-1.9379434159141276,,
,6479.0,964.0,6755.0,883.0,2248.0,2455.0,2045.0,2025-07-21 22:20:25,61.0,,0.132760223348105,0.0317438641996099,2.66652766442728,,-2.19833323869577,,
,6469.0,958.0,6747.0,880.0,2246.0,2457.0,2050.0,2025-07-21 22:20:25,61.0,,0.132767909156777,0.0317276493728479,2.66570186693623,,-2.4201601121906102,,
,6456.0,955.0,6734.0,875.0,2247.0,2438.0,2043.0,2025-07-21 22:20:26,61.0,,0.132744361831436,0.031647311262817,2.66568686322752,,-2.6051946500245258,,
,6446.0,951.0,6724.0,873.0,2251.0,2443.0,2038.0,2025-07-21 22:20:28,62.0,,0.132732473195519,0.0314878569533377,2.66467251041975,,-2.754510852556623,,
,6436.0,950.0,6714.0,872.0,2249.0,2443.0,2053.0,2025-07-21 22:20:28,63.0,,0.132759402438638,0.031450743907335,2.66502764481754,,-2.8676525143014,,
,6423.0,945.0,6703.0,868.0,2241.0,2442.0,2047.0,2025-07-21 22:20:30,64.0,,0.132769306392259,0.0313536517134097,2.66481053931482,,-2.942050377176396,,
,6413.0,939.0,6698.0,863.0,2228.0,2444.0,2049.0,2025-07-21 22:20:30,65.0,,0.132748486637816,0.0312648600375632,2.66440932339438,,-2.9727720866421086,,
,6404.0,939.0,6690.0,861.0,2232.0,2438.0,2025.0,2025-07-21 22:20:31,66.0,,0.132679755812682,0.0312532110325902,2.6635018616846,,-2.9526505546268593,,
,6395.0,938.0,6684.0,860.0,2238.0,2432.0,2032.0,2025-07-21 22:20:33,67.0,,0.13268932746545,0.0311309059533902,2.66236267359698,,-2.872796244992193,,
,6387.0,935.0,6681.0,859.0,2237.0,2440.0,2037.0,2025-07-21 22:20:33,68.0,,0.132658897440518,0.0309105196467507,2.66119532702745,,-2.7234579811197857,,
,6377.0,934.0,6672.0,856.0,2262.0,2439.0,2044.0,2025-07-21 22:20:34,68.0,,0.132559011567319,0.0308004423563269,2.66040145064258,,-2.495158034884694,,
,6370.0,933.0,6670.0,856.0,2294.0,2448.0,2037.0,2025-07-21 22:20:36,67.0,,0.132571138877779,0.030662901451933,2.65925174480346,,-2.1799941460860497,,
,6366.0,932.0,6672.0,855.0,2271.0,2444.0,2050.0,2025-07-21 22:20:37,67.0,,0.132537800372974,0.0305450525927824,2.65895515466233,,-1.7729777572954797,,
,6363.0,927.0,6670.0,854.0,2262.0,2447.0,2045.0,2025-07-21 22:20:37,66.0,,0.132496687489485,0.0305550043585659,2.65847819078441,,-1.2732674179948087,,
,6359.0,929.0,6667.0,852.0,2283.0,2445.0,2052.0,2025-07-21 22:20:38,65.0,,0.132511106894263,0.0305457121797641,2.6580293326961,,-0.6851606327336373,,
,6354.0,928.0,6666.0,849.0,2293.0,2452.0,2035.0,2025-07-21 22:20:39,64.0,,0.132503616798297,0.0305467391306705,2.65815505931748,,-0.01872601628319582,,
,6352.0,931.0,6670.0,850.0,2295.0,2452.0,2046.0,2025-07-21 22:20:40,63.0,,0.132492740703599,0.0303471392932565,2.65703686058701,,0.7100117526326157,,
,6351.0,930.0,6670.0,849.0,2292.0,2449.0,2046.0,2025-07-21 22:20:42,62.0,,0.132473002778557,0.0301481121216114,2.65597496806563,,1.4793826625301598,,
,6351.0,927.0,6669.0,849.0,2295.0,2435.0,2057.0,2025-07-21 22:20:42,61.0,,0.132458300795327,0.0300472259490179,2.65470563741997,,2.262883231166644,,
,6349.0,925.0,6667.0,847.0,2286.0,2434.0,2075.0,2025-07-21 22:20:43,60.0,,0.132457500143064,0.0303975160678739,2.65697485041274,,3.0304521009960346,,
,6348.0,928.0,6673.0,851.0,2279.0,2433.0,2036.0,2025-07-21 22:20:45,59.0,,0.132497100281322,0.0305384834182676,2.65760138338105,,3.750132481208584,,
,6346.0,925.0,6670.0,851.0,2279.0,2430.0,2049.0,2025-07-21 22:20:46,58.0,,0.132510225305201,0.0306230232959331,2.65811389598591,,4.390010145419088,,
,6346.0,927.0,6671.0,849.0,2290.0,2428.0,2057.0,2025-07-21 22:20:47,58.0,,0.132505252360162,0.0307343006040344,2.65897796880436,,4.92028716468699,,
,6343.0,924.0,6671.0,847.0,2295.0,2427.0,2065.0,2025-07-21 22:20:48,57.0,,0.132529666188571,0.0309595492728618,2.65969739778441,,5.3153300447154255,,
,6344.0,926.0,6674.0,848.0,2283.0,2437.0,2064.0,2025-07-21 22:20:49,57.0,,0.132528211254402,0.0310640348389153,2.66107775849646,,5.55551919344968,,
,6343.0,928.0,6676.0,847.0,2285.0,2426.0,2063.0,2025-07-21 22:20:50,56.0,,0.132611532017722,0.0311684556182263,2.66213092657678,,5.628728985593158,,
,6340.0,928.0,6677.0,849.0,2283.0,2429.0,2067.0,2025-07-21 22:20:51,56.0,,0.132639429100541,0.0314506552068571,2.66433427685895,,5.531288339134638,,
,6343.0,927.0,6678.0,846.0,2267.0,2428.0,2071.0,2025-07-21 22:20:52,56.0,,0.132718198190852,0.0316050702455234,2.66598720261005,,5.268312602128089,,
,6342.0,927.0,6683.0,848.0,2266.0,2419.0,2074.0,2025-07-21 22:20:52,56.0,,0.132781112091595,0.031909414305793,2.66782345862657,,4.853356737076084,,
,6343.0,930.0,6685.0,850.0,2240.0,2422.0,2082.0,2025-07-21 22:20:53,56.0,,0.132852191344641,0.0322336868077308,2.67026800799559,,4.307410942508295,,
,6342.0,927.0,6683.0,849.0,2258.0,2426.0,2079.0,2025-07-21 22:20:55,57.0,,0.132899948186104,0.0325355662821369,2.67199351108244,,3.6573326766296392,,
,6340.0,928.0,6683.0,849.0,2255.0,2417.0,2071.0,2025-07-21 22:20:55,58.0,,0.133022517604507,0.0329089320622023,2.67474431084857,,2.933871248589594,,
,6340.0,928.0,6684.0,850.0,2251.0,2422.0,2069.0,2025-07-21 22:20:56,58.0,,0.133072191852737,0.0332984141795304,2.67782805936872,,2.1694818360950174,,
,6342.0,929.0,6686.0,849.0,2264.0,2430.0,2067.0,2025-07-21 22:20:57,59.0,,0.133159425138602,0.0336916150648629,2.68057845071744,,1.3961388440504272,,
,6339.0,926.0,6688.0,848.0,2279.0,2425.0,2070.0,2025-07-21 22:20:59,58.0,,0.13328480491557,0.0340244297645917,2.6833027416778,,0.6433438794870671,,
,6339.0,928.0,6685.0,851.0,2287.0,2413.0,2101.0,2025-07-21 22:20:59,58.0,,0.133369213457308,0.0344756771715756,2.68606416049502,,-0.06351359994367502,,
,6337.0,927.0,6687.0,846.0,2294.0,2427.0,2085.0,2025-07-21 22:21:01,57.0,,0.133447246127786,0.0348580209972672,2.68915768450373,,-0.7043363308931232,,
,6338.0,926.0,6689.0,850.0,2301.0,2435.0,2096.0,2025-07-21 22:21:01,56.0,,0.133608341777341,0.0354365838254815,2.69230927921273,,-1.2649895720146742,,
,6337.0,927.0,6686.0,848.0,2322.0,2419.0,2094.0,2025-07-21 22:21:02,56.0,,0.133603518805657,0.0356530890715098,2.69367973116453,,-1.7374642380492287,,
,6335.0,925.0,6683.0,847.0,2314.0,2421.0,2092.0,2025-07-21 22:21:04,55.0,,0.133568223197371,0.0355793356297276,2.69309144438161,,-2.119579885891727,,
,6333.0,927.0,6683.0,846.0,2299.0,2423.0,2099.0,2025-07-21 22:21:05,56.0,,0.133604868486461,0.035867840062448,2.69487345132503,,-2.4143084344006995,,
,6333.0,924.0,6683.0,847.0,2297.0,2425.0,2113.0,2025-07-21 22:21:06,56.0,,0.133666853711367,0.0359390849851758,2.69549957785797,,-2.6288218834995773,,
,6331.0,926.0,6686.0,846.0,2249.0,2424.0,2108.0,2025-07-21 22:21:07,56.0,,0.133695205091389,0.0361325920343742,2.69697790795935,,-2.7733779809737564,,
,6326.0,925.0,6683.0,847.0,2249.0,2422.0,2093.0,2025-07-21 22:21:07,57.0,,0.133663671919992,0.0359981508545062,2.69567087196896,,-2.8601570206651603,,
,6326.0,925.0,6681.0,845.0,2258.0,2425.0,2069.0,2025-07-21 22:21:09,58.0,,0.133577896223764,0.0356326704369267,2.69433495284546,,-2.902151830715034,,
,6325.0,923.0,6680.0,846.0,2267.0,2431.0,2034.0,2025-07-21 22:21:10,58.0,,0.13347801585851,0.0352552413434137,2.69163863706411,,-2.9121935388487565,,
,6325.0,924.0,6681.0,849.0,2247.0,2437.0,2041.0,2025-07-21 22:21:11,59.0,,0.133379498674715,0.0347957026327816,2.68787838572769,,-2.9021706774214495,,
,6325.0,925.0,6683.0,845.0,2242.0,2434.0,2042.0,2025-07-21 22:21:12,59.0,,0.133210230604809,0.0341880750500933,2.68423705036528,,-2.882471950750748,,
,6321.0,924.0,6681.0,842.0,2244.0,2430.0,2072.0,2025-07-21 22:21:12,59.0,,0.13310811347536,0.0336605753975079,2.67994979981191,,-2.8616570559069476,,
,6323.0,924.0,6682.0,846.0,2229.0,2417.0,2045.0,2025-07-21 22:21:13,59.0,,0.132911671005479,0.0329652802158716,2.67451487483728,,-2.8463384598731523,,
,6321.0,924.0,6684.0,845.0,2230.0,2411.0,2057.0,2025-07-21 22:21:15,59.0,,0.132737470133363,0.0323012653320942,2.66982128699675,,-2.8412419517853524,,
,6323.0,924.0,6684.0,846.0,2232.0,2417.0,2056.0,2025-07-21 22:21:15,59.0,,0.132605068434252,0.0316692649986593,2.66507118086993,,-2.849405227437806,,
,6323.0,925.0,6684.0,846.0,2220.0,2424.0,2083.0,2025-07-21 22:21:16,60.0,,0.132458959354458,0.0311312795370091,2.66107333365919,,-2.8724699888975973,,
,6320.0,921.0,6685.0,844.0,2213.0,2421.0,2057.0,2025-07-21 22:21:18,60.0,,0.13235207521362,0.030771678998061,2.65791214123432,,-2.9110214665910465,,
,6321.0,925.0,6683.0,843.0,2223.0,2425.0,2054.0,2025-07-21 22:21:19,61.0,,0.132283369235486,0.0303999685314776,2.65565475750876,,-2.964928154744753,,
,6324.0,921.0,6687.0,845.0,2220.0,2426.0,2079.0,2025-07-21 22:21:19,61.0,,0.13222996251709,0.0302190955747476,2.65430181197169,,-3.0336343503783714,,
,6325.0,925.0,6692.0,848.0,2236.0,2419.0,2067.0,2025-07-21 22:21:21,61.0,,0.132204513680469,0.0300999025135985,2.65336528392106,,-3.116361310031944,,
,6321.0,922.0,6689.0,846.0,2243.0,2447.0,2068.0,2025-07-21 22:21:21,60.0,,0.13218968226676,0.0300087876580009,2.65244021372875,,-3.212182212529974,,
,6326.0,926.0,6692.0,845.0,2265.0,2441.0,2061.0,2025-07-21 22:21:22,59.0,,0.132201012361491,0.0300087093480312,2.65320393424152,,-3.319952352990365,,
,6326.0,926.0,6692.0,848.0,2309.0,2447.0,2082.0,2025-07-21 22:21:24,59.0,,0.132225781951714,0.0300247405664719,2.65376310564339,,-3.438097061946154,,
,6328.0,928.0,6695.0,849.0,2298.0,2444.0,2083.0,2025-07-21 22:21:25,58.0,,0.132176614575167,0.0300640415458941,2.65330254032367,,-3.564282200193218,,
,6325.0,923.0,6695.0,846.0,2277.0,2446.0,2057.0,2025-07-21 22:21:25,58.0,,0.132141315390231,0.0299086869235043,2.65337069088373,,-3.69501238456654,,
,6329.0,928.0,6696.0,846.0,2306.0,2459.0,2069.0,2025-07-21 22:21:26,57.0,,0.13208769787498,0.0297972011263044,2.65219787320214,,-3.825217940071307,,
,6333.0,927.0,6700.0,848.0,2345.0,2459.0,2059.0,2025-07-21 22:21:27,57.0,,0.132041653410671,0.0296420009447968,2.65116487831199,,-3.947901222342295,,
,6332.0,927.0,6702.0,848.0,2360.0,2457.0,2057.0,2025-07-21 22:21:28,58.0,,0.131939557097774,0.0293573151490214,2.64923523688341,,-4.053915048576206,,
,6336.0,927.0,6702.0,848.0,2364.0,2442.0,2072.0,2025-07-21 22:21:30,58.0,,0.131915685899468,0.0293569874460224,2.6487738436839,,-4.131939635014308,,
,6338.0,929.0,6703.0,847.0,2346.0,2455.0,2058.0,2025-07-21 22:21:31,58.0,,0.131902777514013,0.0292783167739261,2.64880067006438,,-4.168709591332992,,
,6340.0,928.0,6703.0,851.0,2346.0,2454.0,2038.0,2025-07-21 22:21:31,58.0,,0.131840879626987,0.0292441129409071,2.64842002212291,,-4.14952000940005,,
,6343.0,932.0,6704.0,849.0,2346.0,2455.0,2035.0,2025-07-21 22:21:33,58.0,,0.131850220599828,0.0292417085111821,2.64851428328569,,-4.059012177589323,,
,6344.0,931.0,6709.0,849.0,2346.0,2453.0,2035.0,2025-07-21 22:21:34,58.0,,0.131837992197783,0.0292226655924111,2.64858009796142,,-3.882207442541449,,
,6346.0,930.0,6708.0,850.0,2307.0,2446.0,2044.0,2025-07-21 22:21:34,57.0,,0.131840483247399,0.0292575317307191,2.6488427732936,,-3.6057255353495106,,
,6352.0,933.0,6712.0,853.0,2299.0,2409.0,2044.0,2025-07-21 22:21:36,57.0,,0.131822383685609,0.0293312844331587,2.64820533728985,,-3.2190950887812417,,
,6353.0,934.0,6711.0,853.0,2320.0,2418.0,2037.0,2025-07-21 22:21:37,57.0,,0.131788568919482,0.0292791949543932,2.64862088417614,,-2.7160428736410176,,
,6355.0,932.0,6715.0,855.0,2339.0,2469.0,2048.0,2025-07-21 22:21:38,58.0,,0.131803187985592,0.0291076554949811,2.64804663117969,,-2.0956378851855404,,
,6356.0,930.0,6713.0,851.0,2341.0,2471.0,2045.0,2025-07-21 22:21:38,58.0,,0.13177529407503,0.0289996152887696,2.64719798712122,,-1.3631694667685001,,
,6357.0,934.0,6715.0,853.0,2317.0,2440.0,2035.0,2025-07-21 22:21:40,58.0,,0.131730073658962,0.0288284388249407,2.64542259150155,,-0.5306558866333986,,
,6360.0,934.0,6717.0,852.0,2310.0,2429.0,2044.0,2025-07-21 22:21:40,58.0,,0.131627375730433,0.0286238402618876,2.64446615716948,,0.3830913195510956,,
,6362.0,935.0,6714.0,855.0,2316.0,2433.0,2045.0,2025-07-21 22:21:41,58.0,,0.131606737845002,0.0284270026999687,2.6422875434007,,1.3528864770125877,,
,6365.0,935.0,6715.0,855.0,2328.0,2443.0,2044.0,2025-07-21 22:21:42,58.0,,0.131561485587444,0.0282371587019789,2.64095427568804,,2.34807462692621,,
,6369.0,936.0,6718.0,854.0,2316.0,2432.0,2051.0,2025-07-21 22:21:43,58.0,,0.131457717766128,0.0280246939967674,2.640130567908,,3.333888655896514,,
,6371.0,938.0,6724.0,855.0,2323.0,2412.0,2062.0,2025-07-21 22:21:44,57.0,,0.131443861191657,0.0279025789484857,2.63862817221497,,4.273191692597281,,
,6371.0,936.0,6725.0,856.0,2322.0,2406.0,2061.0,2025-07-21 22:21:45,56.0,,0.131462956633579,0.0278692467017139,2.63811927344414,,5.1285068842682255,,
,6374.0,938.0,6719.0,853.0,2335.0,2425.0,2066.0,2025-07-21 22:21:46,55.0,,0.131407077589121,0.0278004474798952,2.63732653539655,,5.864209612378644,,
,6374.0,938.0,6723.0,855.0,2311.0,2423.0,2065.0,2025-07-21 22:21:48,55.0,,0.131378831950175,0.0278152712833788,2.63717487553187,,6.4487358747938535,,
,6378.0,938.0,6724.0,858.0,2287.0,2432.0,2056.0,2025-07-21 22:21:48,56.0,,0.131345023922756,0.0277416712656292,2.63685631383965,,6.856647288646057,,
,6380.0,939.0,6727.0,858.0,2286.0,2431.0,2056.0,2025-07-21 22:21:49,57.0,,0.131364616058618,0.0277976711983463,2.63676161533959,,7.070390241913289,,
,6382.0,942.0,6726.0,857.0,2305.0,2435.0,2064.0,2025-07-21 22:21:50,57.0,,0.131325285945323,0.0278115639234296,2.63696989894814,,7.081595951906859,,
,6383.0,940.0,6725.0,858.0,2288.0,2429.0,2056.0,2025-07-21 22:21:52,57.0,,0.131339161199589,0.0277817491029701,2.6366173440745,,6.891790883629152,,
,6387.0,941.0,6730.0,857.0,2284.0,2430.0,2066.0,2025-07-21 22:21:52,57.0,,0.131345693690578,0.0277261409583029,2.63599053305186,,6.512424150852205,,
,6389.0,942.0,6730.0,860.0,2283.0,2440.0,2071.0,2025-07-21 22:21:54,57.0,,0.13128903986367,0.0276474001264401,2.63534764262116,,5.9641706152796035,,
,6391.0,944.0,6729.0,861.0,2283.0,2442.0,2068.0,2025-07-21 22:21:55,57.0,,0.13126384914226,0.027635264771265,2.63551626981145,,5.275534112542222,,
,6390.0,940.0,6732.0,860.0,2276.0,2443.0,2066.0,2025-07-21 22:21:55,57.0,,0.131241362562077,0.0276354512684915,2.6346017313668,,4.48084961212586,,
,6391.0,940.0,6732.0,862.0,2298.0,2445.0,2097.0,2025-07-21 22:21:57,57.0,,0.131241591045168,0.0274301945883431,2.63404855396844,,3.6178560119851606,,
,6398.0,945.0,6734.0,861.0,2250.0,2429.0,2067.0,2025-07-21 22:21:58,56.0,,0.131189992816476,0.027424371107329,2.63325449203044,,2.725068198060121,,
,6398.0,943.0,6734.0,861.0,2235.0,2441.0,2078.0,2025-07-21 22:21:58,57.0,,0.131160616959831,0.0272918234599439,2.63206341188829,,1.8392037055743404,,
2025-07-21 22:19:35,6398.0,943.0,6734.0,862.0,2290.0,2420.0,2060.0,2025-07-21 22:21:59,57.0,2025/07/21 10:19:35 PM,0.131137964902204,0.0271369079417658,2.63160611192308,,0.9929081192939204,,
,6405.0,945.0,6738.0,863.0,2293.0,2427.0,2047.0,2025-07-21 22:22:01,57.0,,0.131086060926392,0.0270733984903459,2.63088640158018,,0.21297698405494717,,
,6404.0,946.0,6737.0,863.0,2241.0,2440.0,2058.0,2025-07-21 22:22:01,57.0,,0.131020189833019,0.0269086592310412,2.62941645707407,,-0.48079789607121665,,
,6405.0,944.0,6737.0,861.0,2259.0,2434.0,2049.0,2025-07-21 22:22:02,57.0,,0.130934633043109,0.0268283061357699,2.62890136730343,,-1.0761083276248358,,
,6408.0,946.0,6739.0,864.0,2257.0,2421.0,2029.0,2025-07-21 22:22:04,57.0,,0.130888657801611,0.0267917460113067,2.62764888173617,,-1.5679604492856234,,
,6412.0,946.0,6740.0,863.0,2260.0,2442.0,2031.0,2025-07-21 22:22:04,57.0,,0.130926460779734,0.0267135593256142,2.6272146158608,,-1.9579426149740575,,
,6413.0,945.0,6742.0,864.0,2289.0,2451.0,2027.0,2025-07-21 22:22:05,57.0,,0.130882363897985,0.0265962571244499,2.62670904376649,,-2.253062045203803,,
,6416.0,949.0,6742.0,864.0,2296.0,2448.0,2040.0,2025-07-21 22:22:07,57.0,,0.130911879663168,0.026535678209449,2.62622624143205,,-2.4643096635848813,,
,6417.0,947.0,6743.0,863.0,2312.0,2431.0,2075.0,2025-07-21 22:22:07,57.0,,0.13091696252797,0.0265082889413808,2.62657008739787,,-2.605122732668423,,
,6419.0,949.0,6743.0,866.0,2307.0,2440.0,2072.0,2025-07-21 22:22:09,57.0,,0.130905311673664,0.0265205296163931,2.62634458184762,,-2.6899076755359133,,
,6422.0,950.0,6745.0,868.0,2269.0,2445.0,2083.0,2025-07-21 22:22:09,58.0,,0.130897529664098,0.0265214425282374,2.62561845506988,,-2.7327616954920244,,
,6426.0,952.0,6746.0,869.0,2269.0,2453.0,2089.0,2025-07-21 22:22:11,58.0,,0.130935091113269,0.0264924569105054,2.62694508609595,,-2.7464939090973806,,
,6428.0,952.0,6748.0,868.0,2250.0,2446.0,2095.0,2025-07-21 22:22:12,59.0,,0.130939419698709,0.0265362177512085,2.62714406586312,,-2.7419991497794443,,
,6428.0,950.0,6745.0,871.0,2260.0,2440.0,2097.0,2025-07-21 22:22:12,60.0,,0.130985554090073,0.0266365647784646,2.6274885152817,,-2.727986711904173,,
,6433.0,954.0,6749.0,869.0,2245.0,2443.0,2081.0,2025-07-21 22:22:13,61.0,,0.131067913339206,0.0267502274307639,2.6286388468012,,-2.7110195867908202,,
,6436.0,954.0,6753.0,870.0,2249.0,2446.0,2082.0,2025-07-21 22:22:14,60.0,,0.131049635096383,0.0268828208574986,2.62952270634992,,-2.6957845279701007,,
,6438.0,954.0,6752.0,871.0,2253.0,2448.0,2072.0,2025-07-21 22:22:16,60.0,,0.131085827585764,0.0269972649878651,2.63008825886101,,-2.6854947286783926,,
,6441.0,956.0,6752.0,871.0,2257.0,2445.0,2040.0,2025-07-21 22:22:16,59.0,,0.131120292131782,0.0271077281681498,2.63150260899763,,-2.682326122157333,,
,6443.0,954.0,6757.0,872.0,2265.0,2449.0,2049.0,2025-07-21 22:22:17,58.0,,0.131189085338269,0.0272852499665177,2.63299683403442,,-2.687802144549028,,
,6447.0,960.0,6760.0,873.0,2294.0,2441.0,2042.0,2025-07-21 22:22:18,58.0,,0.13121927084734,0.0273904279394234,2.633370299446,,-2.70306452044968,,
,6450.0,957.0,6762.0,873.0,2297.0,2435.0,2034.0,2025-07-21 22:22:19,58.0,,0.131236667618556,0.027473937777555,2.63481652796132,,-2.7289936166340167,,
,6451.0,957.0,6759.0,874.0,2309.0,2423.0,2048.0,2025-07-21 22:22:20,58.0,,0.131258998128937,0.0275730029943461,2.63538673190918,,-2.7661673613469793,,
,6452.0,957.0,6761.0,873.0,2309.0,2392.0,2062.0,2025-07-21 22:22:21,59.0,,0.131300207514114,0.0276202586227623,2.63539099338803,,-2.8146708242119565,,
,6453.0,961.0,6762.0,876.0,2303.0,2374.0,2059.0,2025-07-21 22:22:23,59.0,,0.131326458400245,0.0277799996808249,2.63691722482514,,-2.873788601015167,,
,6453.0,958.0,6761.0,876.0,2303.0,2384.0,2065.0,2025-07-21 22:22:23,60.0,,0.13136317667557,0.0278452227821844,2.63729976501035,,-2.9416287038043762,,
,6446.0,960.0,6756.0,873.0,2289.0,2399.0,2089.0,2025-07-21 22:22:25,60.0,,0.131383398208766,0.0279594627012763,2.63828778444295,,-3.0147390304237556,,
,6442.0,953.0,6750.0,873.0,2246.0,2401.0,2100.0,2025-07-21 22:22:25,61.0,,0.131401590595276,0.0280275984286777,2.63831865353065,,-3.0877845105220225,,
,6433.0,952.0,6744.0,869.0,2251.0,2399.0,2129.0,2025-07-21 22:22:27,61.0,,0.131389072978406,0.0280016468611081,2.63821224186741,,-3.153353070209624,,
,6422.0,947.0,6734.0,866.0,2260.0,2406.0,2147.0,2025-07-21 22:22:28,61.0,,0.131400252585155,0.0279849186097398,2.63832196136653,,-3.2019500613941014,,
,6412.0,945.0,6722.0,866.0,2235.0,2404.0,2123.0,2025-07-21 22:22:28,61.0,,0.131357247582155,0.027810660714645,2.6369725088363,,-3.222223211055225,,
,6399.0,941.0,6713.0,863.0,2235.0,2409.0,2120.0,2025-07-21 22:22:30,61.0,,0.131337954016,0.027804636493848,2.63646879061402,,-3.2014346285913087,,
,6390.0,939.0,6703.0,860.0,2248.0,2418.0,2116.0,2025-07-21 22:22:31,60.0,,0.131324798818075,0.0276508365678451,2.63590086618317,,-3.126165884605401,,
,6380.0,934.0,6698.0,858.0,2246.0,2408.0,2113.0,2025-07-21 22:22:31,60.0,,0.131259905805258,0.0274272853569497,2.63397495673341,,-2.9832109698603335,,
,6370.0,933.0,6690.0,856.0,2258.0,2425.0,2115.0,2025-07-21 22:22:33,60.0,,0.131209728042006,0.027224816680176,2.63233675400592,,-2.7605853023832276,,
,6357.0,929.0,6681.0,853.0,2241.0,2419.0,2088.0,2025-07-21 22:22:34,59.0,,0.13114663538365,0.0269793669914928,2.63062915490231,,-2.4485619069121536,,
,6348.0,929.0,6675.0,850.0,2231.0,2409.0,2058.0,2025-07-21 22:22:34,59.0,,0.131067483596243,0.0267830577725904,2.62853782225228,,-2.0406414335815213,,
,6338.0,925.0,6671.0,850.0,2219.0,2423.0,2069.0,2025-07-21 22:22:36,58.0,,0.130975666973897,0.0265353075109343,2.62735453352473,,-1.5343704046477604,,
,6334.0,922.0,6667.0,848.0,2220.0,2430.0,2062.0,2025-07-21 22:22:37,58.0,,0.130930586965024,0.0263414024316218,2.62531869893675,,-0.9319385011049768,,
,6325.0,919.0,6662.0,845.0,2257.0,2443.0,2069.0,2025-07-21 22:22:37,58.0,,0.130895508662681,0.0261680600282751,2.62404593264153,,-0.24050612898566268,,
,6320.0,922.0,6663.0,844.0,2252.0,2439.0,2072.0,2025-07-21 22:22:38,58.0,,0.130893839183044,0.0260967785025308,2.62339115354688,,0.5277657880971274,,
,6314.0,921.0,6661.0,844.0,2261.0,2451.0,2067.0,2025-07-21 22:22:39,58.0,,0.130886953549045,0.0259860257789038,2.62340682142075,,1.355992395600364,,
,6311.0,918.0,6659.0,843.0,2258.0,2453.0,2062.0,2025-07-21 22:22:41,58.0,,0.130881231112619,0.0259540092701154,2.62272478883297,,2.223138047156186,,
,6307.0,915.0,6659.0,842.0,2294.0,2453.0,2063.0,2025-07-21 22:22:41,59.0,,0.130929906906491,0.0259225475418721,2.62286328541668,,3.1048582536024907,,
,6304.0,917.0,6658.0,840.0,2296.0,2446.0,2091.0,2025-07-21 22:22:43,59.0,,0.130896161978576,0.0258865175827181,2.62237335595977,,3.97456583140168,,
,6304.0,919.0,6657.0,841.0,2293.0,2448.0,2093.0,2025-07-21 22:22:43,59.0,,0.130868992428434,0.0258579838491157,2.62197535201861,,4.804662351791429,,
,6300.0,915.0,6662.0,839.0,2284.0,2448.0,2090.0,2025-07-21 22:22:44,59.0,,0.130858511252167,0.025790472332759,2.62205375926892,,5.567865722230999,,
,6296.0,916.0,6658.0,839.0,2287.0,2450.0,2073.0,2025-07-21 22:22:45,59.0,,0.130840415257837,0.0256867066476742,2.62072207525558,,6.238559006508101,,
,6296.0,917.0,6663.0,838.0,2296.0,2443.0,2061.0,2025-07-21 22:22:47,59.0,,0.130771274114584,0.0255786594462879,2.6201277855221,,6.794084198100729,,
,6299.0,918.0,6664.0,839.0,2250.0,2420.0,2081.0,2025-07-21 22:22:47,59.0,,0.130733808536792,0.0255035585274046,2.61922993363922,,7.215907144794419,,
,6296.0,918.0,6667.0,841.0,2250.0,2431.0,2078.0,2025-07-21 22:22:48,58.0,,0.130687744632445,0.0253783890880928,2.61832681471927,,7.490585553599666,,
,6296.0,917.0,6666.0,837.0,2257.0,2435.0,2071.0,2025-07-21 22:22:49,58.0,,0.13069306462845,0.0252493880456404,2.61762399914648,,7.610480159582803,,
,6294.0,915.0,6667.0,838.0,2246.0,2441.0,2048.0,2025-07-21 22:22:50,59.0,,0.130656246574507,0.0252687141928297,2.61746008841845,,7.574159187879956,,
,6295.0,916.0,6666.0,840.0,2239.0,2401.0,2048.0,,,,0.130645235963401,0.0252413317719413,2.61691920743414,,7.386458769323635,,
,6294.0,916.0,6669.0,839.0,2229.0,2404.0,2049.0,,,,0.130605222797326,0.025253502208521,2.61679423761653,,7.058178937684971,,
,6294.0,918.0,6668.0,840.0,2220.0,2398.0,2040.0,,,,0.130648226705735,0.0252840811599651,2.61657196822515,,6.6054184493132775,,
,6295.0,918.0,6669.0,837.0,2212.0,2426.0,2052.0,,,,0.130676481223515,0.0253042236555539,2.61776843507242,,6.04858234804353,,
,6294.0,919.0,6673.0,841.0,2230.0,2427.0,2065.0,,,,0.130742478967036,0.0253642555333948,2.61881209930244,,5.411130851496735,,
,6297.0,919.0,6677.0,842.0,2216.0,2424.0,2094.0,,,,0.130730475340775,0.0255393459420135,2.61936818849453,,4.718169987914327,,
,6300.0,921.0,6680.0,842.0,2217.0,2415.0,2108.0,,,,0.130764542623817,0.0256309758846603,2.6200673970042,,3.9950051631922032,,
,6296.0,919.0,6679.0,840.0,2207.0,2421.0,2089.0,,,,0.130794043044501,0.0257219488364016,2.62051701765348,,3.265782339084923,,
,6297.0,922.0,6682.0,841.0,2221.0,2433.0,2124.0,,,,0.130806766340816,0.0257918929498952,2.62179278874363,,2.5523265561739286,,
,6298.0,919.0,6683.0,841.0,2218.0,2433.0,2125.0,,,,0.130858435273861,0.0258295407263724,2.62195025734134,,1.8732578712660508,,
,6297.0,919.0,6682.0,841.0,2232.0,2433.0,2115.0,,,,0.130825795225387,0.0259417723570105,2.62238066302332,,1.2434269162397231,,
,6296.0,923.0,6681.0,838.0,2238.0,2446.0,2103.0,,,,0.13085729506682,0.0259420951111859,2.62284511226017,,0.6736732132878883,,
,6297.0,919.0,6684.0,841.0,2258.0,2440.0,2090.0,,,,0.130875369836656,0.0260728930720547,2.62297218454051,,0.1708750975167259,,
,6298.0,920.0,6684.0,840.0,2263.0,2441.0,2110.0,,,,0.130853052296833,0.026032862419758,2.62333344371097,,-0.2617650668247591,,
,6296.0,922.0,6684.0,843.0,2259.0,2450.0,2112.0,,,,0.130878059079798,0.0260233987573158,2.62406967695665,,-0.6242702873649951,,
,6296.0,919.0,6683.0,842.0,2248.0,2453.0,2086.0,,,,0.130881683185299,0.0260746254367949,2.62389559133899,,-0.9193444526661838,,
,6293.0,920.0,6681.0,841.0,2238.0,2442.0,2084.0,,,,0.130899916321078,0.0261109794310427,2.62382219236365,,-1.151796762479227,,
,6292.0,919.0,6684.0,841.0,2248.0,2446.0,2087.0,,,,0.13089851878584,0.0260993305211272,2.62409192135753,,-1.327982802152556,,
,6292.0,917.0,6682.0,839.0,2245.0,2451.0,2080.0,,,,0.130864202472137,0.0260784225276831,2.62321172161347,,-1.4552932240546308,,
,6292.0,917.0,6679.0,840.0,2262.0,2443.0,2068.0,,,,0.130858636925385,0.0259586249294196,2.62270138695606,,-1.5417062785522175,,
,6286.0,917.0,6677.0,840.0,2236.0,2437.0,2053.0,,,,0.130849075228819,0.0258796714842024,2.62205557713891,,-1.5954092946876852,,
,6288.0,917.0,6682.0,841.0,2237.0,2442.0,2054.0,,,,0.130815122486654,0.0258536342062423,2.62136575610041,,-1.6244864972869155,,
,6286.0,918.0,6683.0,840.0,2228.0,2442.0,2060.0,,,,0.130738818930838,0.0256544511335621,2.61977540301611,,-1.636665611742518,,
,6288.0,918.0,6681.0,840.0,2244.0,2435.0,2065.0,,,,0.130733296302219,0.0254376632048542,2.61910563273047,,-1.6391130735059634,,
,6286.0,916.0,6680.0,836.0,2264.0,2435.0,2075.0,,,,0.130645610612376,0.0252060746008594,2.61685725423399,,-1.6382670473471619,,
,6286.0,917.0,6682.0,839.0,2284.0,2450.0,2051.0,,,,0.130537091062363,0.0249600883486106,2.6150359786858,,-1.6396986380017649,,
,6287.0,918.0,6682.0,841.0,2289.0,2451.0,2059.0,,,,0.130496096714187,0.0247090297070331,2.61256473303651,,-1.6479943815589955,,
,6285.0,918.0,6685.0,839.0,2284.0,2449.0,2055.0,,,,0.130401646466273,0.0245359462618172,2.61098302253029,,-1.666657006157262,,
,6285.0,916.0,6682.0,839.0,2294.0,2447.0,2061.0,,,,0.130295714833658,0.0242486743160514,2.60911182591165,,-1.6980260280789736,,
,6285.0,916.0,6683.0,837.0,2283.0,2447.0,2050.0,,,,0.130243780669729,0.024082397838424,2.60815656807733,,-1.7432243185074845,,
,6290.0,917.0,6687.0,840.0,2265.0,2442.0,2042.0,,,,0.13017910645626,0.0239178448723228,2.6062360209471,,-1.8021405814764415,,
,6289.0,920.0,6686.0,840.0,2250.0,2436.0,2045.0,,,,0.130107707198906,0.0236902492682404,2.60527149185563,,-1.8734599536531853,,
,6290.0,918.0,6688.0,839.0,2273.0,2431.0,2068.0,,,,0.13005629484594,0.0235575342092113,2.60395184784509,,-1.9547548773540402,,
,6289.0,919.0,6690.0,842.0,2286.0,2427.0,2061.0,,,,0.129998333267729,0.0234280671947109,2.60250301971732,,-2.0426452876942673,,
,6292.0,921.0,6692.0,842.0,2260.0,2433.0,2035.0,,,,0.129903209840077,0.0231816810707587,2.60119472028437,,-2.133030610586097,,
,6296.0,921.0,6693.0,841.0,2252.0,2422.0,2038.0,,,,0.129856007389554,0.0230828749579935,2.59988457082019,,-2.221386475037756,,
,6297.0,923.0,6697.0,844.0,2258.0,2399.0,2047.0,,,,0.129786528114881,0.0228066979445621,2.5982082302635,,-2.3031080451975123,,
,6298.0,922.0,6697.0,842.0,2255.0,2414.0,2060.0,,,,0.129717295444207,0.0224419167459554,2.59664232505225,,-2.3738723916077444,,
,6300.0,922.0,6699.0,844.0,2249.0,2421.0,2077.0,,,,0.129641369759669,0.0220954451401592,2.59453899177032,,-2.4299873854477005,,
,6303.0,924.0,6703.0,847.0,2268.0,2425.0,2051.0,,,,0.129570223300533,0.0216383543913412,2.59295155541087,,-2.4686955626632217,,
,6307.0,925.0,6706.0,846.0,2276.0,2438.0,2059.0,,,,0.129492355649976,0.0213433357298495,2.59093469332662,,-2.488407173644927,,
,6307.0,923.0,6703.0,843.0,2268.0,2447.0,2109.0,,,,0.129378412077693,0.0209549609946199,2.58898103426518,,-2.488844745464792,,
,6311.0,927.0,6709.0,847.0,2290.0,2439.0,2128.0,,,,0.129365805489189,0.02061022614447,2.58742657514369,,-2.4710897612131855,,
,6310.0,927.0,6711.0,848.0,2284.0,2445.0,2100.0,,,,0.129275622646145,0.0206160283974564,2.58590234916598,,-2.437529389811867,,
,6312.0,929.0,6714.0,847.0,2281.0,2443.0,2104.0,,,,0.129265725773604,0.0204466164159722,2.58532633288966,,-2.391707311798387,,
,6315.0,925.0,6711.0,849.0,2285.0,2441.0,2109.0,,,,0.129219989952717,0.020132398073435,2.58396686382332,,-2.3380876933704533,,
,6316.0,927.0,6717.0,848.0,2287.0,2443.0,2090.0,,,,0.129182815409947,0.0198947734098698,2.58337198541556,,-2.281745526831994,,
,6320.0,928.0,6716.0,850.0,2269.0,2431.0,2077.0,,,,0.129145297141702,0.0197116235737563,2.58235360491017,,-2.2280002389462465,,
,6323.0,931.0,6720.0,851.0,2277.0,2427.0,2083.0,,,,0.129041301879274,0.0196148563845356,2.58113532790668,,-2.182012950105226,,
,6322.0,929.0,6720.0,849.0,2262.0,2420.0,2079.0,,,,0.128977387049862,0.0193824621226104,2.58049393393578,,-2.148370978575576,,
,6325.0,931.0,6720.0,850.0,2265.0,2420.0,2061.0,,,,0.128935384329245,0.0191264958770454,2.57934806292426,,-2.130685664313963,,
,6326.0,933.0,6723.0,853.0,2254.0,2412.0,2073.0,,,,0.128945797670737,0.0187725230926839,2.5774354274074,,-2.131230771287683,,
,6331.0,933.0,6724.0,853.0,2262.0,2410.0,2061.0,,,,0.128867866582467,0.0185442303950914,2.57613921747101,,-2.150648213049156,,
,6331.0,933.0,6725.0,851.0,2272.0,2412.0,2054.0,,,,0.128806861907259,0.0180927959950464,2.5740829561521,,-2.1877453339729174,,
,6334.0,934.0,6725.0,852.0,2286.0,2436.0,2067.0,,,,0.12876338195743,0.017859610308694,2.57321953834336,,-2.2394030996154086,,
,6336.0,934.0,6726.0,857.0,2269.0,2432.0,2070.0,,,,0.128682950139075,0.0175638613244336,2.57148837875523,,-2.3006069771591893,,
,6341.0,935.0,6729.0,856.0,2266.0,2421.0,2073.0,,,,0.12865235613792,0.0171277453375917,2.56961458788392,,-2.364602250142524,,
,6343.0,935.0,6732.0,855.0,2256.0,2424.0,2078.0,,,,0.128580775482083,0.0169807198843953,2.56841947256435,,-2.423164392555268,,
,6342.0,935.0,6732.0,854.0,2263.0,2416.0,2087.0,,,,0.128498374027816,0.0166811590229623,2.56668337563863,,-2.4669653776069462,,
,6345.0,938.0,6731.0,857.0,2283.0,2419.0,2107.0,,,,0.128464809527811,0.0164801378980884,2.56527332505058,,-2.4860107343539317,,
,6346.0,939.0,6732.0,859.0,2272.0,2425.0,2089.0,,,,0.128401553894232,0.0160531661391167,2.56392931972156,,-2.47012051249744,,
,6348.0,938.0,6734.0,856.0,2283.0,2417.0,2106.0,,,,0.128342853721531,0.0156845968363071,2.56214064178212,,-2.409428905071153,,
,6348.0,937.0,6734.0,858.0,2270.0,2423.0,2087.0,,,,0.12829923381468,0.0154559401005966,2.5610125745515,,-2.2948801689471923,,
,6353.0,939.0,6738.0,858.0,2268.0,2423.0,2062.0,,,,0.128271739283431,0.0151134845688626,2.55914495334868,,-2.1187013107822703,,
,6354.0,938.0,6738.0,859.0,2280.0,2421.0,2066.0,,,,0.12818481922866,0.0149455438361451,2.55802863573385,,-1.8748344358975348,,
,6356.0,939.0,6736.0,857.0,2272.0,2419.0,2067.0,,,,0.128128125552254,0.0146597898766536,2.55616011192543,,-1.5593139289947962,,
,6355.0,940.0,6739.0,858.0,2278.0,2431.0,2058.0,,,,0.128052966042282,0.0144415159911281,2.55523186243551,,-1.1705760156817762,,
,6357.0,939.0,6741.0,859.0,2254.0,2436.0,2047.0,,,,0.12804235586288,0.0142943334043823,2.55388879007169,,-0.7096908615583017,,
,6362.0,940.0,6742.0,861.0,2287.0,2438.0,2055.0,,,,0.127988678226286,0.0140767361893769,2.55334708799069,,-0.1805101408017029,,
,6363.0,942.0,6743.0,862.0,2272.0,2442.0,2048.0,,,,0.127981418217702,0.0139813935740769,2.5519716500374,,0.41027437108762377,,
,6364.0,943.0,6742.0,862.0,2255.0,2445.0,2060.0,,,,0.127942268388443,0.0136578340910145,2.55154964817871,,1.053163671190782,,
,6365.0,941.0,6741.0,862.0,2260.0,2440.0,2084.0,,,,0.127938177698661,0.0135279401352508,2.5512099348025,,1.7359774824560885,,
,6369.0,943.0,6745.0,862.0,2255.0,2443.0,2088.0,,,,0.127903674227977,0.013444443190515,2.55083708715045,,2.444075132993019,,
,6369.0,944.0,6748.0,863.0,2262.0,2446.0,2077.0,,,,0.127845167252796,0.0131835609260499,2.55055939451639,,3.1606742440089053,,
,6373.0,944.0,6747.0,863.0,2247.0,2440.0,2091.0,,,,0.127830771864139,0.0132115612463031,2.54996262894787,,3.8672714589918797,,
,6374.0,941.0,6745.0,862.0,2247.0,2438.0,2086.0,,,,0.127837156647948,0.013183193196275,2.55005044470382,,4.544170399135498,,
2025-07-21 22:19:36,6377.0,944.0,6747.0,865.0,2245.0,2434.0,2071.0,,,2025/07/21 10:19:36 PM,0.12781677681013,0.013113176631103,2.5497597357429,,5.171121352841257,,
,6381.0,945.0,6750.0,866.0,2246.0,2428.0,2062.0,,,,0.127818918979669,0.0130740544078171,2.54897168420214,,5.728073007268391,,
,6383.0,943.0,6749.0,864.0,2242.0,2432.0,2054.0,,,,0.127782083514839,0.0129976765073451,2.54775889874823,,6.196026761568095,,
,6383.0,943.0,6750.0,865.0,2251.0,2439.0,2055.0,,,,0.127725440024207,0.0128047325668953,2.54747968469396,,6.557967874753665,,
,6386.0,947.0,6752.0,865.0,2283.0,2454.0,2050.0,,,,0.127720958320449,0.0125935380390696,2.54671048003732,,6.799826399218822,,
,6391.0,947.0,6752.0,867.0,2269.0,2457.0,2049.0,,,,0.127713765375135,0.0124450609783642,2.54626295981702,,6.911398847395135,,
,6391.0,949.0,6754.0,867.0,2283.0,2455.0,2056.0,,,,0.127679004685744,0.012318832251889,2.54574515161564,,6.887144708317386,,
,6392.0,948.0,6754.0,865.0,2261.0,2453.0,2049.0,,,,0.127637865953733,0.0122023598842187,2.54473967604794,,6.726765574993543,,
,6392.0,949.0,6753.0,868.0,2276.0,2447.0,2069.0,,,,0.127638623226101,0.0120943800365858,2.54407916815103,,6.435481987240261,,
,6390.0,946.0,6752.0,867.0,2273.0,2441.0,2102.0,,,,0.127590234733338,0.012085962866113,2.54384953595724,,6.023945070825428,,
,6385.0,947.0,6748.0,866.0,2260.0,2439.0,2081.0,,,,0.127587957875427,0.0119118100032517,2.54325105966725,,5.507755506795025,,
,6382.0,943.0,6743.0,867.0,2261.0,2452.0,2080.0,,,,0.12757494827179,0.0119985844470703,2.54356922940819,,4.906607599798279,,
,6374.0,941.0,6730.0,863.0,2269.0,2446.0,2083.0,,,,0.127594912033167,0.0118962715744556,2.5430241785302,,4.243124273487964,,
,6367.0,937.0,6726.0,862.0,2255.0,2448.0,2068.0,,,,0.127592643140307,0.0117070124906901,2.54225747056451,,3.5414901123573665,,
,6357.0,935.0,6715.0,857.0,2259.0,2443.0,2071.0,,,,0.127563926913484,0.0116406700662079,2.54162262817838,,2.8260147248200433,,
,6346.0,930.0,6703.0,856.0,2268.0,2434.0,2079.0,,,,0.127500545416614,0.0113851552498338,2.54068879468696,,2.119762302655822,,
,6335.0,929.0,6697.0,852.0,2277.0,2440.0,2071.0,,,,0.127458184234924,0.0112895286315921,2.54015873905178,,1.4433658362416364,,
,6325.0,925.0,6686.0,849.0,2268.0,2440.0,2069.0,,,,0.127473329470644,0.0111402951209292,2.53917582439197,,0.8141116642416655,,
,6316.0,924.0,6681.0,848.0,2258.0,2448.0,2047.0,,,,0.12739315264578,0.0110674036072243,2.53831934388835,,0.24534008695595247,,
,6306.0,921.0,6677.0,845.0,2258.0,2450.0,2044.0,,,,0.127376698905428,0.0108428772519433,2.53773423786075,,-0.2538312027002363,,
,6297.0,918.0,6669.0,842.0,2257.0,2446.0,2049.0,,,,0.127371239942138,0.0106721004618284,2.53708846845022,,-0.6784858704877758,,
,6289.0,917.0,6664.0,840.0,2268.0,2442.0,2038.0,,,,0.127319760200342,0.0105621920681948,2.53623906034741,,-1.0276361178234206,,
,6284.0,914.0,6662.0,839.0,2264.0,2450.0,2050.0,,,,0.127310287271883,0.0105303813127902,2.53565254883656,,-1.3037552440442215,,
,6279.0,914.0,6660.0,839.0,2271.0,2447.0,2049.0,,,,0.127289519504119,0.0102532766425912,2.53449350612563,,-1.512175295040923,,
,6274.0,911.0,6656.0,837.0,2242.0,2448.0,2060.0,,,,0.127235505685694,0.0100707145677223,2.53333172190355,,-1.660407610875251,,
,6267.0,912.0,6654.0,836.0,2258.0,2442.0,2059.0,,,,0.127176347068708,0.0095694205223185,2.53185831494996,,-1.7574397938356472,,
,6265.0,914.0,6656.0,838.0,2247.0,2437.0,2046.0,,,,0.127111027141145,0.0092814480927461,2.53069263226799,,-1.8130564237111328,,
,6264.0,913.0,6655.0,835.0,2247.0,2444.0,2055.0,,,,0.127070283408503,0.0091570412157272,2.52918025866973,,-1.8372224592055257,,
,6259.0,913.0,6656.0,834.0,2240.0,2446.0,2084.0,,,,0.126992019584074,0.0088250337764471,2.52830145441868,,-1.8395578274623356,,
,6262.0,911.0,6656.0,834.0,2231.0,2428.0,2084.0,,,,0.126922886976075,0.0086553978677502,2.52676675003987,,-1.8289201582438728,,
,6259.0,911.0,6657.0,833.0,2256.0,2444.0,2069.0,,,,0.126898222632523,0.0085597361041213,2.52581405570018,,-1.8131012827215254,,
,6258.0,912.0,6659.0,835.0,2267.0,2447.0,2073.0,,,,0.126852803135652,0.0082359735379982,2.52450421704929,,-1.7986331650916187,,
,6256.0,913.0,6660.0,834.0,2248.0,2429.0,2090.0,,,,0.126864045038431,0.0081449367079472,2.52423388847675,,-1.7906911973608068,,
,6255.0,910.0,6662.0,834.0,2243.0,2427.0,2067.0,,,,0.126852676313578,0.008187441387543,2.52432628246797,,-1.7930777904247999,,
,6253.0,913.0,6665.0,834.0,2234.0,2438.0,2091.0,,,,0.126875726229845,0.0082819993569918,2.52473801401362,,-1.808267208223523,,
,6253.0,910.0,6664.0,831.0,2261.0,2444.0,2082.0,,,,0.126871990664364,0.0082034873820289,2.52474571973626,,-1.8374935767951412,,
,6254.0,909.0,6663.0,832.0,2253.0,2440.0,2081.0,,,,0.126816129803965,0.0081430949849105,2.52399848973607,,-1.8808675357611828,,
,6253.0,912.0,6663.0,833.0,2232.0,2442.0,2104.0,,,,0.126828715172386,0.0081151170101513,2.52388316316431,,-1.937512271758364,,
,6256.0,912.0,6668.0,835.0,2216.0,2435.0,2091.0,,,,0.126791619097913,0.0079750751531998,2.52353914301108,,-2.0057155099476622,,
,6256.0,913.0,6672.0,835.0,2222.0,2441.0,2065.0,,,,0.126760291684368,0.0077731919992237,2.52248763077753,,-2.0830989877016757,,
,6256.0,914.0,6673.0,834.0,2236.0,2445.0,2079.0,,,,0.126694796676944,0.0076445274260782,2.52177932268336,,-2.1668094698957088,,
,6256.0,914.0,6673.0,838.0,2221.0,2449.0,2085.0,,,,0.12665959392742,0.0074064236355556,2.52106727499732,,-2.2537343203020788,,
,6258.0,915.0,6676.0,836.0,2223.0,2423.0,2093.0,,,,0.126638094642591,0.0072142291232576,2.51981083589789,,-2.3407397297769625,,
,6259.0,913.0,6678.0,836.0,2222.0,2424.0,2099.0,,,,0.126578832303072,0.0070742724904076,2.51833892009503,,-2.4249219197305427,,
,6258.0,915.0,6679.0,837.0,2231.0,2424.0,2109.0,,,,0.126536557342241,0.0069143917884142,2.51756719385057,,-2.5038533470099544,,
,6258.0,915.0,6680.0,837.0,2215.0,2442.0,2096.0,,,,0.126508072164059,0.0068896232694593,2.51703327761873,,-2.575800198121388,,
,6260.0,918.0,6682.0,837.0,2227.0,2441.0,2075.0,,,,0.126446966075929,0.006667304734418,2.51651571782032,,-2.6398865937441416,,
,6259.0,917.0,6682.0,839.0,2228.0,2442.0,2100.0,,,,0.126410824307356,0.0065203627214795,2.51506205883463,,-2.69618515061353,,
,6258.0,913.0,6683.0,837.0,2242.0,2443.0,2082.0,,,,0.126356151708699,0.0063900196769773,2.51515683903034,,-2.7457210202413704,,
,6256.0,915.0,6681.0,836.0,2235.0,2431.0,2099.0,,,,0.126365707469116,0.0063982513981626,2.51495526631124,,-2.7903847662292405,,
,6255.0,913.0,6681.0,836.0,2239.0,2438.0,2109.0,,,,0.126368978278254,0.006287370581674,2.51491942301947,,-2.832756833906363,,
,6257.0,913.0,6679.0,837.0,2260.0,2444.0,2090.0,,,,0.126376716204292,0.0062388248323411,2.51428309333573,,-2.875852541129728,,
,6255.0,914.0,6682.0,838.0,2244.0,2436.0,2088.0,,,,0.126354213599451,0.0063456748617467,2.51448013089799,,-2.922801829739776,,
,6254.0,914.0,6683.0,838.0,2249.0,2437.0,2074.0,,,,0.126286243897419,0.0062419039497216,2.51434951920091,,-2.9764828643252756,,
,6251.0,913.0,6678.0,836.0,2233.0,2441.0,2064.0,,,,0.126361592995373,0.0063525014400253,2.51367687614403,,-3.039133061563115,,
,6252.0,913.0,6679.0,837.0,2237.0,2441.0,2076.0,,,,0.126322869657741,0.0062035337665494,2.51271305993538,,-3.1119650869270754,,
,6253.0,912.0,6681.0,836.0,2243.0,2439.0,2054.0,,,,0.126315255374391,0.0060874172498329,2.51318058432851,,-3.1948183820856397,,
,6247.0,912.0,6678.0,836.0,2253.0,2434.0,2040.0,,,,0.126261551600014,0.0059500011662068,2.51233428148271,,-3.2858783995691296,,
,6246.0,913.0,6677.0,833.0,2245.0,2429.0,2061.0,,,,0.126223663533843,0.0059400187776794,2.5116511933692,,-3.381495335749754,,
,6249.0,912.0,6679.0,836.0,2235.0,2432.0,2069.0,,,,0.126178827162666,0.0058266983540367,2.51141084011702,,-3.476131064552414,,
,6247.0,913.0,6682.0,837.0,2262.0,2437.0,2044.0,,,,0.126192573852957,0.0056411942455752,2.51130133830203,,-3.562456425614051,,
,6248.0,913.0,6682.0,839.0,2269.0,2435.0,2045.0,,,,0.126157332388382,0.0056997233184401,2.51180358886632,,-3.6316104142542587,,
,6246.0,911.0,6682.0,836.0,2255.0,2429.0,2069.0,,,,0.126186197003983,0.0058499852015757,2.51152964158706,,-3.6736181012292914,,
,6246.0,912.0,6683.0,836.0,2260.0,2435.0,2050.0,,,,0.126241037441836,0.0058583396467705,2.51243337772642,,-3.677946235361779,,
,6247.0,912.0,6685.0,837.0,2264.0,2453.0,2060.0,,,,0.12626857889914,0.0059926663962264,2.5130149152433,,-3.634156718746063,,
,6249.0,912.0,6683.0,837.0,2269.0,2449.0,2069.0,,,,0.126275334496213,0.0061971456574381,2.51387676670263,,-3.5326019647999107,,
,6252.0,913.0,6690.0,838.0,2289.0,2427.0,2065.0,,,,0.126314278876211,0.0063131387888068,2.51426935873672,,-3.3650966186168514,,
,6254.0,914.0,6689.0,834.0,2256.0,2440.0,2068.0,,,,0.126311098247095,0.0066107779131464,2.5151903247533,,-3.125500613193926,,
,6254.0,916.0,6692.0,841.0,2278.0,2443.0,2072.0,,,,0.126395537817799,0.0067656178889994,2.51626547316259,,-2.8101600343956297,,
,6257.0,914.0,6693.0,839.0,2281.0,2445.0,2080.0,,,,0.126392607141965,0.006945406657917,2.51719785664786,,-2.4181723824334185,,
,6257.0,916.0,6696.0,839.0,2263.0,2444.0,2072.0,,,,0.126457723935713,0.007132906043545,2.51834952302299,,-1.9514666709272224,,
,6258.0,915.0,6694.0,837.0,2263.0,2440.0,2052.0,,,,0.126454590757517,0.0074742376357181,2.51983239789514,,-1.414711304114102,,
,6262.0,918.0,6701.0,844.0,2267.0,2438.0,2059.0,,,,0.126515113582963,0.0075705184828769,2.52097724480404,,-0.8150803436205422,,
,6267.0,919.0,6701.0,842.0,2249.0,2442.0,2082.0,,,,0.126576689727301,0.0077855341303852,2.52200718279856,,-0.1619199352040758,,
,6268.0,919.0,6705.0,843.0,2243.0,2444.0,2081.0,,,,0.126681409976336,0.0082393150958966,2.52388752541642,,0.5336394049352405,,
,6271.0,918.0,6702.0,839.0,2265.0,2449.0,2059.0,,,,0.126756481619238,0.008650471253141,2.52607395332028,,1.259082380786501,,
,6272.0,922.0,6708.0,842.0,2246.0,2447.0,2043.0,,,,0.126850117942953,0.0089643066842931,2.52804607122609,,2.0008880561737192,,
,6274.0,925.0,6709.0,844.0,2240.0,2436.0,2050.0,,,,0.126896956760846,0.0093203015022211,2.5300421335782,,2.7448704416696774,,
,6277.0,923.0,6712.0,845.0,2229.0,2439.0,2048.0,,,,0.126983066047013,0.0096722126835772,2.53210182608742,,3.476477835517163,,
,6282.0,922.0,6713.0,846.0,2221.0,2452.0,2058.0,,,,0.127059754933308,0.0101349519286318,2.53396968803234,,4.1810617300500015,,
,6281.0,923.0,6714.0,845.0,2222.0,2441.0,2052.0,,,,0.127128369266899,0.0105637111575553,2.53577076205842,,4.844135318884097,,
,6285.0,927.0,6716.0,849.0,2220.0,2440.0,2087.0,,,,0.127176337107533,0.0108235004098201,2.53719474943903,,5.451645165539798,,
,6287.0,928.0,6720.0,849.0,2221.0,2443.0,2092.0,,,,0.127193280570992,0.0110752010041271,2.53872020960611,,5.99027706993089,,
,6289.0,925.0,6720.0,846.0,2228.0,2453.0,2077.0,,,,0.12725206395562,0.0111827829625866,2.53962347725047,,6.447809367621293,,
,6294.0,929.0,6724.0,850.0,2232.0,2443.0,2072.0,,,,0.127247665500889,0.0114185815698617,2.54046103000123,,6.813515468792135,,
,6295.0,928.0,6727.0,849.0,2246.0,2440.0,2073.0,,,,0.127244899713006,0.0114389195706795,2.54094179750019,,7.07860430047111,,
,6300.0,931.0,6728.0,850.0,2250.0,2443.0,2077.0,,,,0.127280082773779,0.0115176829336852,2.54026035934471,,7.236674019427166,,
,6300.0,931.0,6727.0,851.0,2246.0,2443.0,2087.0,,,,0.127253060648683,0.0115665691203839,2.54107547056464,,7.284142055237381,,
,6303.0,930.0,6728.0,852.0,2241.0,2432.0,2094.0,,,,0.127282555592187,0.011583171342377,2.54167539059395,,7.2206045272383514,,
,6307.0,932.0,6731.0,854.0,2249.0,2438.0,2101.0,,,,0.127289222416999,0.0116125254769275,2.54205595159518,,7.049072454509084,,
,6309.0,934.0,6734.0,851.0,2249.0,2443.0,2090.0,,,,0.127283221664215,0.0116538911544217,2.54204618129064,,6.7760336753187005,,
,6312.0,933.0,6735.0,852.0,2262.0,2438.0,2095.0,,,,0.127286609312217,0.011539245665741,2.54149383177232,,6.411300313237614,,
,6312.0,933.0,6737.0,855.0,2248.0,2440.0,2079.0,,,,0.127292226760895,0.0118072696702554,2.54175016265603,,5.967622578651336,,
,6317.0,935.0,6735.0,855.0,2256.0,2448.0,2057.0,,,,0.127297789707995,0.0116523097678103,2.54133980008819,,5.460078713011679,,
,6319.0,936.0,6739.0,855.0,2225.0,2433.0,2066.0,,,,0.12723554486071,0.0115385222520639,2.54037168299176,,4.905283180933696,,
,6322.0,937.0,6738.0,856.0,2228.0,2434.0,2064.0,,,,0.127192105612248,0.011322915904663,2.54002184311426,,4.320483936541388,,
,6325.0,937.0,6741.0,856.0,2221.0,2436.0,2076.0,,,,0.127182097610333,0.0110564171549137,2.53865771596174,,3.722637830790464,,
,6328.0,940.0,6742.0,860.0,2239.0,2444.0,2065.0,,,,0.127100620218316,0.0108528903736434,2.53693774699191,,3.127556541961624,,
,6329.0,937.0,6742.0,860.0,2234.0,2443.0,2061.0,,,,0.127049874032966,0.0106108809576063,2.5360234454964,,2.5492033466249633,,
,6332.0,940.0,6745.0,861.0,2239.0,2440.0,2072.0,,,,0.127007889378545,0.0103420980139368,2.5337718644689,,1.9991968567242908,,
,6333.0,939.0,6745.0,859.0,2261.0,2443.0,2079.0,,,,0.126905995252238,0.0100943891736804,2.53323163231875,,1.4865468974745046,,
,6333.0,938.0,6744.0,859.0,2242.0,2443.0,2093.0,,,,0.126879693830788,0.0097310062122433,2.53250607515149,,1.0176157790970868,,
,6339.0,941.0,6746.0,862.0,2241.0,2444.0,2093.0,,,,0.126856240542482,0.009630802872482,2.53093155952461,,0.5962705210531354,,
,6341.0,942.0,6748.0,862.0,2228.0,2436.0,2074.0,,,,0.126808118640951,0.0094137309737399,2.53029307099955,,0.22417223561563088,,
,6344.0,942.0,6747.0,864.0,2224.0,2435.0,2073.0,,,,0.126822574306969,0.0094014331786246,2.53056746811564,,-0.09885954965506455,,
,6344.0,940.0,6747.0,862.0,2223.0,2439.0,2064.0,,,,0.126828515691929,0.009431819390724,2.53050507523847,,-0.37446678168663977,,
,6349.0,943.0,6751.0,863.0,2213.0,2438.0,2060.0,,,,0.126802841333214,0.0095051377074401,2.53073787548569,,-0.605403251928238,,
,6354.0,945.0,6752.0,864.0,2231.0,2442.0,2063.0,,,,0.126791315871279,0.0095890701104669,2.53086134500934,,-0.7952427779321091,,
,6357.0,947.0,6755.0,867.0,2238.0,2441.0,2061.0,,,,0.126839929791156,0.0096024594026903,2.53088883968257,,-0.9481525902720092,,
,6359.0,943.0,6754.0,863.0,2242.0,2446.0,2077.0,,,,0.126810255942742,0.0095748260675473,2.53132298079777,,-1.0687232065500807,,
,6360.0,945.0,6756.0,863.0,2247.0,2434.0,2073.0,,,,0.126835089087569,0.0097810842930111,2.53215874994829,,-1.161836730147939,,
,6366.0,949.0,6758.0,867.0,2261.0,2431.0,2064.0,,,,0.126871428428509,0.0098910544008321,2.53277453733014,,-1.2325533629226513,,
,6367.0,950.0,6760.0,869.0,2247.0,2432.0,2062.0,,,,0.126911648579963,0.0101204208289647,2.53334214459293,,-1.2859995570438758,,
,6368.0,948.0,6760.0,869.0,2248.0,2458.0,2080.0,,,,0.126928112948919,0.0102085550163554,2.53434343226359,,-1.32724838470388,,
,6367.0,948.0,6757.0,867.0,2246.0,2453.0,2082.0,,,,0.12695031948702,0.0104308547489688,2.53506736722841,,-1.3611907726890384,,
,6366.0,946.0,6757.0,868.0,2244.0,2436.0,2082.0,,,,0.126989703052478,0.0107235432852553,2.53645440387621,,-1.3924026931395854,,
,6361.0,944.0,6751.0,867.0,2236.0,2439.0,2088.0,,,,0.12705231028255,0.0108365218216297,2.53718538112317,,-1.4250164956904006,,
,6355.0,942.0,6745.0,865.0,2232.0,2456.0,2079.0,,,,0.127105572204275,0.0111749794360306,2.53899761438585,,-1.4626041017057196,,
,6347.0,937.0,6734.0,860.0,2229.0,2453.0,2109.0,,,,0.127212863930697,0.0115208992376457,2.54074174913105,,-1.5080770271414,,
,6336.0,935.0,6725.0,861.0,2225.0,2442.0,2092.0,,,,0.127267250574792,0.0119394869033514,2.54235527500517,,-1.563605097973737,,
,6327.0,932.0,6714.0,859.0,2237.0,2430.0,2076.0,,,,0.127314432296377,0.0121503027807135,2.54396277313498,,-1.6305539421824229,,
,6317.0,927.0,6706.0,857.0,2239.0,2436.0,2076.0,,,,0.127408658580956,0.0124978013534301,2.54588788988447,,-1.7094416955514586,,
,6305.0,926.0,6696.0,852.0,2242.0,2448.0,2071.0,,,,0.127477843127746,0.0128275846806972,2.5475287534794,,-1.7999176432071937,,
,6297.0,924.0,6690.0,850.0,2236.0,2444.0,2078.0,,,,0.127522574349319,0.0133523830858692,2.54967966211662,,-1.9007687235944746,,
,6290.0,923.0,6682.0,850.0,2255.0,2432.0,2068.0,,,,0.127565235407154,0.0134989017815938,2.55086568968066,,-2.009962535406495,,
,6278.0,919.0,6675.0,843.0,2255.0,2430.0,2070.0,,,,0.127643913043492,0.0137814757373609,2.55207617982864,,-2.1247363045948364,,
,6270.0,916.0,6671.0,842.0,2256.0,2427.0,2071.0,,,,0.12772300250064,0.013975390925539,2.55278610614606,,-2.241739094160185,,
,6264.0,912.0,6668.0,841.0,2256.0,2443.0,2075.0,,,,0.127760247630962,0.0142932434912586,2.55481902504043,,-2.3572289185318143,,
2025-07-21 22:19:37,6258.0,916.0,6667.0,841.0,2252.0,2444.0,2054.0,,,2025/07/21 10:19:37 PM,0.127782506872291,0.0142384903792089,2.55532934824302,,-2.467317971703725,,
,6252.0,912.0,6663.0,841.0,2252.0,2439.0,2062.0,,,,0.127799975537592,0.0144972348815507,2.5566821297331,,-2.5682498474888065,,
,6244.0,910.0,6660.0,836.0,2258.0,2435.0,2053.0,,,,0.127855012765831,0.0147209937925461,2.5577988312262,,-2.65668524065428,,
,6242.0,910.0,6656.0,835.0,2245.0,2449.0,2063.0,,,,0.127884621393983,0.0149977728928016,2.55941496984376,,-2.729969500752098,,
,6240.0,909.0,6657.0,834.0,2263.0,2445.0,2072.0,,,,0.127929403455613,0.0152063975229955,2.56091707882266,,-2.786357110267107,,
,6237.0,908.0,6660.0,836.0,2254.0,2437.0,2075.0,,,,0.127949781444234,0.015566173209533,2.56163014455119,,-2.8251733694109094,,
,6236.0,909.0,6658.0,831.0,2271.0,2425.0,2084.0,,,,0.128002822853583,0.015843420804475,2.56298972431823,,-2.846900258113714,,
,6236.0,908.0,6660.0,835.0,2259.0,2438.0,2062.0,,,,0.12805486057838,0.0160232977216874,2.56380849698364,,-2.8531799912125906,,
,6235.0,907.0,6663.0,833.0,2266.0,2433.0,2054.0,,,,0.12809951829439,0.0160726801118996,2.56489551486976,,-2.8467353507049737,,
,6231.0,909.0,6664.0,835.0,2239.0,2426.0,2059.0,,,,0.128152799995276,0.0163317284897,2.56514684305132,,-2.831210221826368,,
,6234.0,909.0,6665.0,834.0,2244.0,2426.0,2059.0,,,,0.128132558781423,0.0163076347469635,2.56582868427081,,-2.8109369621182845,,
,6228.0,906.0,6662.0,830.0,2244.0,2427.0,2055.0,,,,0.128144708497344,0.0164975810376321,2.56604837327705,,-2.790639629840915,,
,6230.0,909.0,6664.0,834.0,2234.0,2424.0,2070.0,,,,0.128099280316241,0.0166511333152165,2.56684014146422,,-2.7750842759527834,,
,6231.0,908.0,6665.0,834.0,2224.0,2430.0,2041.0,,,,0.128147090538731,0.0167328133113683,2.56710237987754,,-2.768690178673126,,
,6229.0,910.0,6671.0,835.0,2225.0,2429.0,2047.0,,,,0.12823166733341,0.0170121629167534,2.56872189983026,,-2.7751196281967543,,
,6228.0,909.0,6668.0,832.0,2232.0,2447.0,2063.0,,,,0.128280260908305,0.0171981038081741,2.56935491954208,,-2.7968687371012813,,
,6234.0,908.0,6669.0,833.0,2225.0,2421.0,2056.0,,,,0.128330467092461,0.0173250549683295,2.57085900968531,,-2.8348872021100893,,
,6232.0,911.0,6670.0,835.0,2212.0,2436.0,2048.0,,,,0.128352878386581,0.0176693722131122,2.57241756779204,,-2.8882598195026046,,
,6233.0,910.0,6671.0,833.0,2228.0,2445.0,2068.0,,,,0.128414409108858,0.0179323894506521,2.57327959832235,,-2.953985336448628,,
,6234.0,912.0,6676.0,834.0,2224.0,2446.0,2063.0,,,,0.128507701509415,0.0181744807190047,2.57510517388974,,-3.02688727801667,,
,6234.0,911.0,6675.0,834.0,2251.0,2435.0,2074.0,,,,0.12855004395795,0.0184825103345943,2.57628344451968,,-3.099685239991224,,
,6234.0,912.0,6677.0,837.0,2245.0,2438.0,2068.0,,,,0.128602642205629,0.0186964094878821,2.57741743970207,,-3.1632428869164637,,
,6235.0,909.0,6676.0,836.0,2239.0,2437.0,2072.0,,,,0.128625782164396,0.0190057503352041,2.57852565144297,,-3.206991004965509,,
,6237.0,912.0,6679.0,835.0,2222.0,2443.0,2044.0,,,,0.128646050377481,0.0191472963620842,2.57958959167691,,-3.2195028794180613,,
,6238.0,908.0,6680.0,834.0,2237.0,2439.0,2055.0,,,,0.128690464442328,0.0192462304315314,2.58066921306129,,-3.1891791959031712,,
,6238.0,912.0,6681.0,837.0,2260.0,2446.0,2062.0,,,,0.128685207125335,0.0195453345578798,2.581577949918,,-3.10498514756034,,
,6235.0,913.0,6681.0,837.0,2262.0,2447.0,2058.0,,,,0.128733551584753,0.0198121260930354,2.58240156222492,,-2.957176465724334,,
,6236.0,910.0,6683.0,836.0,2257.0,2442.0,2050.0,,,,0.128795412881939,0.0199033088711866,2.58360419949596,,-2.737954125368244,,
,6237.0,913.0,6678.0,833.0,2269.0,2444.0,2060.0,,,,0.128826630223656,0.0199916504293824,2.58399553412943,,-2.44199795451535,,
,6232.0,910.0,6680.0,836.0,2270.0,2451.0,2056.0,,,,0.12883346619846,0.0199427476812313,2.58513347465567,,-2.066845016573723,,
,6232.0,912.0,6684.0,835.0,2264.0,2445.0,2068.0,,,,0.128850181126278,0.020318234743223,2.58595512238029,,-1.6130971035313857,,
,6234.0,913.0,6680.0,836.0,2281.0,2440.0,2061.0,,,,0.128855973756796,0.0204293301382038,2.58617081986402,,-1.0844603989047492,,
,6231.0,912.0,6680.0,835.0,2270.0,2448.0,2055.0,,,,0.128863714777377,0.0204966579514589,2.58668803944787,,-0.4876363312532098,,
,6229.0,910.0,6675.0,835.0,2246.0,2454.0,2062.0,,,,0.1288479082234,0.0204710228859688,2.58714460873332,,0.16790694513886245,,
,6230.0,911.0,6679.0,835.0,2252.0,2450.0,2063.0,,,,0.128850789743204,0.0205976004898147,2.5872371398809,,0.870249565308796,,
,6231.0,909.0,6680.0,835.0,2253.0,2443.0,2058.0,,,,0.128849221251897,0.0207540330728278,2.58728296832546,,1.6053917199816548,,
,6228.0,910.0,6678.0,834.0,2237.0,2445.0,2069.0,,,,0.128839548245045,0.0207572585714118,2.58789765120626,,2.3576604064370064,,
,6227.0,911.0,6679.0,836.0,2224.0,2446.0,2074.0,,,,0.128871710961913,0.02096101275029,2.58811170493021,,3.110139867367543,,
,6228.0,912.0,6681.0,837.0,2229.0,2434.0,2088.0,,,,0.128869148104086,0.0210135081662048,2.58914921288096,,3.8451247543260156,,
,6229.0,910.0,6680.0,834.0,2222.0,2432.0,2085.0,,,,0.128875715813297,0.0213240142222044,2.59026306759716,,4.544602613807794,,
,6229.0,909.0,6682.0,832.0,2212.0,2432.0,2099.0,,,,0.128977980861751,0.0215399449196685,2.59133793434424,,5.190774995467992,,
,6229.0,909.0,6684.0,833.0,2195.0,2429.0,2098.0,,,,0.12897759302452,0.0217427616368864,2.59248916999908,,5.766623437421292,,
,6229.0,911.0,6686.0,838.0,2208.0,2430.0,2092.0,,,,0.129012466341701,0.0218736781879169,2.59377998857387,,6.2565184240572105,,
,6231.0,913.0,6686.0,836.0,2210.0,2426.0,2082.0,,,,0.129035532298767,0.0220852162529314,2.59414668281028,,6.646857955401554,,
,6232.0,912.0,6687.0,836.0,2222.0,2426.0,2114.0,,,,0.129029916939478,0.0222961189861324,2.59498924712917,,6.926709741634758,,
,6231.0,910.0,6688.0,836.0,2232.0,2432.0,2109.0,,,,0.129058918975157,0.0224415040006621,2.5962278815514,,7.088418851816756,,
,6234.0,912.0,6690.0,836.0,2229.0,2426.0,2111.0,,,,0.129111135063044,0.0224715642680953,2.59644989719793,,7.128131958642385,,
,6239.0,915.0,6693.0,837.0,2229.0,2432.0,2095.0,,,,0.129101663971465,0.0225318203703961,2.59687617182772,,7.046181484987501,,
,6241.0,915.0,6697.0,840.0,2230.0,2423.0,2097.0,,,,0.129103710712769,0.0224599778440513,2.59624299538548,,6.847270432431047,,
,6241.0,915.0,6699.0,836.0,2226.0,2433.0,2105.0,,,,0.129122707202781,0.0225306003188118,2.59667727039175,,6.54040471199355,,
,6243.0,918.0,6699.0,841.0,2249.0,2439.0,2093.0,,,,0.129082955065249,0.0224606472245714,2.59606249236356,,6.1385370490385744,,
,6248.0,918.0,6703.0,839.0,2240.0,2430.0,2062.0,,,,0.129098431844788,0.0226397557696058,2.59653124008908,,5.657915407517553,,
,6248.0,918.0,6704.0,841.0,2232.0,2431.0,2079.0,,,,0.129079286440994,0.0226312292161779,2.59616076147917,,5.117166336048518,,
,6251.0,920.0,6710.0,842.0,2237.0,2427.0,2092.0,,,,0.129087915905126,0.0225406313758477,2.59673755754938,,4.5361829375050275,,
,6256.0,919.0,6710.0,841.0,2222.0,2428.0,2091.0,,,,0.129095458561041,0.0227618571254212,2.59718102076378,,3.9349193278929824,,
,6258.0,922.0,6711.0,844.0,2231.0,2425.0,2095.0,,,,0.129092704984441,0.0228083889151268,2.59745347370547,,3.3322104157537726,,
,6260.0,921.0,6714.0,844.0,2230.0,2435.0,2106.0,,,,0.129155243998057,0.0229624331664472,2.59756988924391,,2.7447336336818453,,
,6259.0,920.0,6713.0,843.0,2237.0,2442.0,2096.0,,,,0.129158221205665,0.0230129259395383,2.59830769003673,,2.1862092054915205,,
,6264.0,924.0,6716.0,845.0,2236.0,2441.0,2084.0,,,,0.129173010027555,0.0229778746000652,2.59879386232807,,1.6669029085056677,,
,6270.0,924.0,6721.0,850.0,2230.0,2435.0,2080.0,,,,0.129224258951741,0.0230174414044381,2.59901474484002,,1.193456782025665,,
,6272.0,924.0,6721.0,844.0,2234.0,2438.0,2075.0,,,,0.129225358667373,0.023107849673409,2.59973936929582,,0.7690348721832008,,
,6273.0,926.0,6723.0,851.0,2222.0,2428.0,2065.0,,,,0.129215326529032,0.0231264821347377,2.60038798659657,,0.3937374383840247,,
,6274.0,922.0,6722.0,845.0,2225.0,2435.0,2068.0,,,,0.129266478800162,0.0230936845333508,2.6007474794202,,0.06521136198537544,,
,6278.0,927.0,6726.0,849.0,2236.0,2431.0,2066.0,,,,0.129271513068558,0.0232920691710792,2.60132929612544,,-0.22063072693611271,,
,6278.0,929.0,6730.0,849.0,2234.0,2425.0,2060.0,,,,0.129263157330832,0.0233010529492168,2.60140263412311,,-0.4688731749172949,,
,6283.0,928.0,6729.0,851.0,2238.0,2428.0,2069.0,,,,0.12928117945292,0.023233085128023,2.60167315272828,,-0.6849231009348737,,
,6285.0,927.0,6729.0,851.0,2225.0,2426.0,2070.0,,,,0.129292619839413,0.0232607789132203,2.60192566680024,,-0.8739605798834054,,
,6289.0,928.0,6732.0,851.0,2233.0,2426.0,2087.0,,,,0.12926553296826,0.023244840957714,2.6013088894169,,-1.040548421818796,,
,6293.0,931.0,6732.0,855.0,2226.0,2437.0,2098.0,,,,0.129261806355874,0.0232350643505965,2.60086956410872,,-1.1884101756390388,,
,6294.0,931.0,6733.0,852.0,2232.0,2440.0,2094.0,,,,0.129227037525934,0.0231748235765005,2.60059748307101,,-1.320362944320776,,
,6296.0,931.0,6737.0,853.0,2246.0,2426.0,2081.0,,,,0.129237131834263,0.0231540791568856,2.60016475953427,,-1.4383766642676763,,
,6298.0,932.0,6736.0,854.0,2258.0,2420.0,2077.0,,,,0.129197527598547,0.0231042651042884,2.59964634811285,,-1.543723726969124,,
,6303.0,933.0,6741.0,856.0,2258.0,2428.0,2101.0,,,,0.129252357948442,0.0231247915618721,2.59972904186998,,-1.6371809364957277,,
,6306.0,933.0,6738.0,856.0,2260.0,2434.0,2098.0,,,,0.129206921799708,0.0231209651662098,2.60015203019322,,-1.719248325510304,,
,6307.0,933.0,6741.0,855.0,2236.0,2446.0,2083.0,,,,0.129230209255467,0.0231119151658484,2.59997481827263,,-1.7903549279922848,,
,6311.0,936.0,6742.0,854.0,2232.0,2450.0,2083.0,,,,0.129233480687062,0.0231695362563702,2.59998882425212,,-1.85102887267103,,
,6312.0,935.0,6742.0,857.0,2257.0,2449.0,2078.0,,,,0.129244721834547,0.0232228697114625,2.60026575771968,,-1.90201688567981,,
,6320.0,936.0,6745.0,858.0,2258.0,2448.0,2093.0,,,,0.129259551508384,0.0231749899441945,2.60014872116033,,-1.9443456749837449,,
,6316.0,936.0,6742.0,856.0,2244.0,2433.0,2095.0,,,,0.129234617249929,0.0232394624027148,2.60059896897621,,-1.9793244323911874,,
,6320.0,937.0,6747.0,858.0,2247.0,2446.0,2067.0,,,,0.129269844713441,0.0232004241697616,2.6007779443368,,-2.0084938474729905,,
,6324.0,937.0,6749.0,859.0,2235.0,2435.0,2062.0,,,,0.129227351431207,0.0232096015879444,2.60084997220856,,-2.0335326334326123,,
,6324.0,939.0,6749.0,859.0,2252.0,2430.0,2062.0,,,,0.129221020359724,0.0231096329982894,2.59993498282585,,-2.0561375296759437,,
,6330.0,940.0,6750.0,862.0,2242.0,2435.0,2074.0,,,,0.129222951237873,0.0230009553227508,2.59893023265679,,-2.0778966801280063,,
,6329.0,939.0,6749.0,858.0,2234.0,2427.0,2062.0,,,,0.129190295659722,0.0228079205929211,2.59858830723589,,-2.100178399026101,,
,6334.0,943.0,6752.0,862.0,2234.0,2434.0,2057.0,,,,0.129149413317057,0.0225506909823105,2.59676589361887,,-2.1240565267264397,,
,6337.0,941.0,6755.0,864.0,2245.0,2448.0,2078.0,,,,0.129081469388418,0.0222671194827692,2.59595871433025,,-2.150288790851375,,
,6340.0,942.0,6753.0,862.0,2225.0,2451.0,2081.0,,,,0.129061093015575,0.0218300092550239,2.59461939786011,,-2.1793553990961696,,
,6341.0,941.0,6753.0,863.0,2228.0,2453.0,2064.0,,,,0.128998384285709,0.0217984233414144,2.59341445039317,,-2.2115523331914613,,
,6344.0,947.0,6756.0,863.0,2227.0,2440.0,2061.0,,,,0.128930921205304,0.0216428956813259,2.59202400846077,,-2.2471199015311356,,
,6347.0,946.0,6757.0,865.0,2243.0,2441.0,2084.0,,,,0.128876604078909,0.0213648072443225,2.59071520964789,,-2.286375706219638,,
,6349.0,948.0,6756.0,863.0,2238.0,2436.0,2074.0,,,,0.128869892075063,0.0210552676226486,2.58952983681297,,-2.3298160175651876,,
,6348.0,945.0,6755.0,864.0,2230.0,2433.0,2072.0,,,,0.128829677452856,0.0209331013472683,2.58828402031822,,-2.378152698351773,,
,6346.0,942.0,6750.0,863.0,2241.0,2422.0,2070.0,,,,0.128806979101431,0.0207497227036146,2.58806450264466,,-2.4322635840314595,,
,6341.0,940.0,6747.0,864.0,2249.0,2432.0,2069.0,,,,0.128735092776258,0.0204313072708893,2.58645422139484,,-2.493049623228924,,
,6334.0,938.0,6737.0,863.0,2245.0,2435.0,2053.0,,,,0.128738993067342,0.0202060110938029,2.58468168422321,,-2.561208522287383,,
,6321.0,932.0,6727.0,861.0,2229.0,2423.0,2065.0,,,,0.128638064888655,0.0199755973750685,2.58364770897188,,-2.63694928109591,,
,6315.0,930.0,6714.0,855.0,2217.0,2440.0,2058.0,,,,0.128641430631238,0.0196918765753286,2.58234314217845,,-2.7196830210884686,,
,6304.0,928.0,6709.0,854.0,2224.0,2441.0,2049.0,,,,0.128599576322901,0.0193376140595869,2.58010876814312,,-2.807731680337253,,
,6296.0,924.0,6697.0,850.0,2223.0,2436.0,2059.0,,,,0.128511071386269,0.0189959134505218,2.57852966210036,,-2.898096707045719,,
,6282.0,920.0,6690.0,849.0,2230.0,2436.0,2069.0,,,,0.128446650642959,0.0186926662879179,2.57671428075036,,-2.986324657437266,,
,6271.0,917.0,6680.0,844.0,2233.0,2432.0,2056.0,,,,0.12836302235714,0.0183205627165819,2.57447668698951,,-3.066496276501558,,
,6268.0,916.0,6679.0,843.0,2235.0,2432.0,2052.0,,,,0.128312661765711,0.017877588600437,2.57276425356067,,-3.131351694262674,,
,6258.0,916.0,6674.0,841.0,2248.0,2432.0,2047.0,,,,0.12826437181751,0.0174977034921952,2.57131875803013,,-3.172548799065004,,
,6247.0,913.0,6667.0,838.0,2231.0,2433.0,2051.0,,,,0.128192054983525,0.0172483300376747,2.56988633595594,,-3.1810368737205517,,
,6242.0,910.0,6662.0,835.0,2217.0,2438.0,2046.0,,,,0.128090452617451,0.0169854205296376,2.56838405411912,,-3.147515515976862,,
,6235.0,910.0,6660.0,835.0,2231.0,2452.0,2045.0,,,,0.128032289220281,0.0166419969350266,2.56715687240494,,-3.0629418702978644,,
,6232.0,910.0,6658.0,834.0,2215.0,2448.0,2044.0,,,,0.127964318760418,0.0162410341828782,2.56510180246441,,-2.919048591653952,,
,6228.0,910.0,6659.0,832.0,2226.0,2447.0,2046.0,,,,0.127902574614628,0.0160614883560945,2.56393441540273,,-2.708840327434074,,
,6222.0,903.0,6652.0,830.0,2247.0,2450.0,2059.0,,,,0.127876209825529,0.0156820641367052,2.56240923756749,,-2.427045365060523,,
,6221.0,906.0,6656.0,832.0,2257.0,2455.0,2070.0,,,,0.127861290414958,0.0154386598371299,2.56046244875219,,-2.0705078682861826,,
,6218.0,907.0,6656.0,832.0,2261.0,2447.0,2055.0,,,,0.127784509110485,0.0150618014729119,2.55924237293658,,-1.638512072325425,,
,6216.0,906.0,6654.0,830.0,2267.0,2448.0,2067.0,,,,0.127776618408872,0.0148818283359044,2.55849178864169,,-1.133032451308152,,
,6215.0,905.0,6656.0,829.0,2250.0,2445.0,2088.0,,,,0.127710525087226,0.0147250177437276,2.55679270717885,,-0.5589045608334415,,
,6214.0,905.0,6658.0,830.0,2234.0,2439.0,2082.0,,,,0.127711517821272,0.0144245622935729,2.55538830143311,,0.07608864156745318,,
,6214.0,906.0,6660.0,830.0,2231.0,2447.0,2066.0,,,,0.127672430491928,0.0142369333085516,2.55416648786646,,0.7612205846258951,,
,6215.0,904.0,6658.0,829.0,2238.0,2448.0,2075.0,,,,0.127612292391205,0.0139636475870547,2.55366249987126,,1.4829221951877838,,
,6213.0,905.0,6661.0,830.0,2221.0,2446.0,2101.0,,,,0.127578141823098,0.013804416252045,2.55207993776365,,2.224990637029359,,
,6214.0,905.0,6661.0,828.0,2245.0,2451.0,2076.0,,,,0.1275475978759,0.0135594956349234,2.55064788036891,,2.9689194392901426,,
,6213.0,904.0,6663.0,830.0,2222.0,2426.0,2065.0,,,,0.127517612774847,0.0132541554915079,2.55017410958276,,3.694365596950283,,
,6216.0,905.0,6666.0,833.0,2231.0,2423.0,2064.0,,,,0.127505690382403,0.0131536066516881,2.54942550050965,,4.379767315746145,,
,6217.0,907.0,6667.0,828.0,2228.0,2424.0,2074.0,,,,0.127478013556597,0.0130817735490026,2.54897978220417,,5.003118819100092,,
,6216.0,906.0,6668.0,832.0,2221.0,2436.0,2058.0,,,,0.127456254723006,0.0130280530146541,2.54821068647859,,5.542895223701645,,
,6221.0,908.0,6672.0,832.0,2224.0,2423.0,2078.0,,,,0.127437205520226,0.012998278457627,2.54801927931774,,5.979101325990851,,
,6221.0,910.0,6674.0,832.0,2245.0,2435.0,2075.0,,,,0.127427201334218,0.0128578505825648,2.5478299498073,,6.294395132055797,,
,6221.0,910.0,6673.0,834.0,2232.0,2433.0,2080.0,,,,0.127418233826046,0.0126271863976696,2.54696868239166,,6.475213311001002,,
,6220.0,904.0,6673.0,830.0,2250.0,2436.0,2078.0,,,,0.127392098326601,0.0126631577672049,2.54657174007882,,6.512805397974323,,
,6221.0,908.0,6676.0,832.0,2243.0,2436.0,2075.0,,,,0.127322657895754,0.0124230369451073,2.54573511900224,,6.404070743101908,,
,6223.0,909.0,6681.0,834.0,2246.0,2445.0,2080.0,,,,0.12729014370584,0.0123324847295666,2.545385171017,,6.152091062592436,,
2025-07-21 22:19:38,6224.0,908.0,6677.0,833.0,2243.0,2441.0,2070.0,,,2025/07/21 10:19:38 PM,0.12729179731593,0.0122278842681321,2.54483224916476,,5.766265505333193,,
,6219.0,908.0,6676.0,832.0,2227.0,2440.0,2064.0,,,,0.127357671969097,0.0121812036570164,2.54496882034372,,5.2619861943708655,,
,6225.0,909.0,6680.0,834.0,2233.0,2445.0,2078.0,,,,0.127343291823851,0.0124036673700695,2.54550525351507,,4.659838978362097,,
,6225.0,909.0,6679.0,834.0,2221.0,2448.0,2078.0,,,,0.127374555172903,0.0124477021663622,2.54612851414752,,3.984371245310361,,
,6221.0,909.0,6679.0,831.0,2233.0,2449.0,2081.0,,,,0.127400115687931,0.0124536623139518,2.54585871564341,,3.2625266097807017,,
,6218.0,906.0,6678.0,831.0,2267.0,2444.0,2062.0,,,,0.127372578745625,0.0125422122569166,2.54613286111966,,2.5218933088262636,,
,6221.0,908.0,6675.0,832.0,2262.0,2434.0,2078.0,,,,0.127370849501867,0.0123705146282004,2.54570303419885,,1.7889386989832712,,
,6218.0,909.0,6674.0,834.0,2235.0,2443.0,2062.0,,,,0.127356815858986,0.012320541860211,2.54484554602159,,1.0874008833599607,,
,6216.0,908.0,6676.0,830.0,2240.0,2436.0,2063.0,,,,0.127278115500558,0.0120261427083041,2.54384190629445,,0.43698193329196766,,
,6218.0,908.0,6677.0,830.0,2241.0,2432.0,2055.0,,,,0.127220611643406,0.0118723731479397,2.54274066614358,,-0.1475567643251521,,
,6214.0,905.0,6675.0,830.0,2237.0,2434.0,2053.0,,,,0.127120693073365,0.0116686694895808,2.54230324569512,,-0.6568474844226377,,
,6214.0,906.0,6674.0,830.0,2229.0,2424.0,2050.0,,,,0.127109132510716,0.0114873881478683,2.54118153134254,,-1.086916954998276,,
,6213.0,905.0,6673.0,830.0,2247.0,2432.0,2063.0,,,,0.127105279280516,0.0114712852915234,2.54109985203275,,-1.4387759094650663,,
,6210.0,904.0,6675.0,829.0,2255.0,2437.0,2059.0,,,,0.127070353250453,0.0114480253395089,2.54025934050366,,-1.7176699002127023,,
,6210.0,904.0,6674.0,830.0,2265.0,2442.0,2070.0,,,,0.12710400074093,0.0113746523768566,2.53988892329985,,-1.9320852612934656,,
,6213.0,906.0,6675.0,829.0,2266.0,2430.0,2052.0,,,,0.127052341773671,0.011323401545383,2.54026058729095,,-2.0926158547575517,,
,6213.0,909.0,6676.0,831.0,2256.0,2450.0,2062.0,,,,0.127070543367421,0.0112658898120015,2.54001008110423,,-2.210799036475931,,
,6211.0,904.0,6675.0,832.0,2246.0,2443.0,2064.0,,,,0.127033485037141,0.0112251160362973,2.5398150340645,,-2.2980238491300846,,
,6211.0,904.0,6675.0,832.0,2251.0,2446.0,2075.0,,,,0.127001932074181,0.0112159132094692,2.5396452441373,,-2.3646015068474706,,
,6212.0,907.0,6677.0,832.0,2232.0,2451.0,2075.0,,,,0.12704129457765,0.0112610253724065,2.53999159923927,,-2.419068637963482,,
,6216.0,908.0,6678.0,834.0,2243.0,2451.0,2054.0,,,,0.127022057371465,0.0112219811048134,2.53943272565937,,-2.4677687055342696,,
,6215.0,908.0,6683.0,832.0,2249.0,2449.0,2060.0,,,,0.126982260719535,0.0110993408720194,2.53888139324323,,-2.514728110978149,,
,6217.0,905.0,6680.0,831.0,2263.0,2453.0,2061.0,,,,0.126926834672575,0.0109437272604292,2.53818690042138,,-2.5618126751802404,,
,6219.0,908.0,6682.0,832.0,2253.0,2449.0,2059.0,,,,0.126924497654106,0.0109058861599701,2.53724432090596,,-2.609120127181274,,
,6220.0,909.0,6684.0,832.0,2237.0,2443.0,2061.0,,,,0.126887039696046,0.0107190308061364,2.53615120798162,,-2.6555385536051492,,
,6222.0,909.0,6688.0,836.0,2235.0,2449.0,2058.0,,,,0.126851056730368,0.0105005664175743,2.53461489999363,,-2.6993836930313373,,
,6224.0,911.0,6690.0,834.0,2245.0,2447.0,2072.0,,,,0.126812186241116,0.0101882025184428,2.53405417165835,,-2.7390227941661522,,
,6228.0,910.0,6691.0,835.0,2256.0,2441.0,2065.0,,,,0.126769872773023,0.0099963032902081,2.5325827411093,,-2.773400235149258,,
,6230.0,911.0,6692.0,833.0,2238.0,2439.0,2049.0,,,,0.126679131468352,0.0096710405706699,2.53167126241373,,-2.802398106507728,,
,6232.0,914.0,6698.0,835.0,2229.0,2448.0,2042.0,,,,0.126625865037258,0.0095975497970791,2.53034446644398,,-2.8269897140679956,,
,6233.0,914.0,6696.0,836.0,2241.0,2447.0,2053.0,,,,0.126612739374025,0.0094234525863718,2.52993125744781,,-2.84917148016485,,
,6237.0,912.0,6697.0,835.0,2244.0,2447.0,2057.0,,,,0.126607624495377,0.0092629071521949,2.52998067696637,,-2.871685572647724,,
,6239.0,914.0,6703.0,836.0,2263.0,2452.0,2074.0,,,,0.126581924297367,0.0091763806021933,2.52900686013655,,-2.897569054355542,,
,6243.0,914.0,6702.0,839.0,2242.0,2451.0,2073.0,,,,0.126599499903357,0.0090788677811019,2.52852631747438,,-2.929583531925788,,
,6246.0,916.0,6705.0,838.0,2242.0,2446.0,2056.0,,,,0.126630183911734,0.0091501522467182,2.52842174413548,,-2.969591216259117,,
,6248.0,916.0,6708.0,839.0,2248.0,2440.0,2066.0,,,,0.126597770829809,0.0091731068326222,2.52876061011043,,-3.01794881042703,,
,6248.0,917.0,6709.0,842.0,2247.0,2445.0,2071.0,,,,0.126561536169674,0.0091274060896044,2.52906566620341,,-3.072990030096524,,
,6253.0,919.0,6711.0,839.0,2259.0,2439.0,2065.0,,,,0.126612113685488,0.00904989542026,2.5290995241559,,-3.1306613157786423,,
,6255.0,916.0,6715.0,840.0,2263.0,2437.0,2065.0,,,,0.126657277431538,0.0092095627422021,2.52963944841273,,-3.1843638358130595,,
,6255.0,919.0,6715.0,842.0,2246.0,2439.0,2083.0,,,,0.126651260697886,0.0092356586577501,2.52957477810288,,-3.2250385340694883,,
,6261.0,917.0,6715.0,840.0,2245.0,2446.0,2071.0,,,,0.126651855845412,0.0091095369636437,2.5293350680718,,-3.241510177049835,,
,6264.0,921.0,6719.0,843.0,2241.0,2439.0,2066.0,,,,0.126628501941878,0.0090749008519619,2.52874357463304,,-3.221081982111856,,
,6267.0,921.0,6721.0,845.0,2242.0,2439.0,2071.0,,,,0.126605205604578,0.0090321816482654,2.52858634506356,,-3.150346227154654,,
,6269.0,925.0,6722.0,844.0,2249.0,2436.0,2055.0,,,,0.126607425916401,0.0089463093295137,2.52824496991665,,-3.016151250750202,,
,6271.0,922.0,6721.0,843.0,2242.0,2448.0,2053.0,,,,0.126574038336177,0.0088977841763038,2.52697043914956,,-2.806645436693252,,
,6273.0,926.0,6724.0,848.0,2232.0,2438.0,2053.0,,,,0.126560287433326,0.0087331054175552,2.52627041585705,,-2.5123079190098254,,
,6277.0,926.0,6728.0,849.0,2244.0,2439.0,2079.0,,,,0.126498731183578,0.0086130677128233,2.52565052090409,,-2.1268759093795926,,
,6280.0,924.0,6727.0,847.0,2246.0,2442.0,2064.0,,,,0.126520092027714,0.0085041386426157,2.5251836018515,,-1.6480893630596356,,
,6280.0,926.0,6727.0,848.0,2261.0,2441.0,2078.0,,,,0.126466390297514,0.0082801993860513,2.52468425155391,,-1.0781927224549541,,
,6285.0,927.0,6730.0,850.0,2236.0,2445.0,2056.0,,,,0.126414579203643,0.0081748127841629,2.52307918205089,,-0.42415718180839784,,
,6287.0,929.0,6733.0,849.0,2250.0,2445.0,2077.0,,,,0.126451409547032,0.0079738093814308,2.5226770999104,,0.3023883765803491,,
,6290.0,929.0,6733.0,852.0,2257.0,2444.0,2066.0,,,,0.126393613340526,0.0078808070047035,2.52248505181555,,1.0855071442449684,,
,6291.0,930.0,6734.0,851.0,2261.0,2443.0,2076.0,,,,0.126400747001074,0.0077787569631563,2.52177187035483,,1.9055563557353203,,
,6296.0,929.0,6738.0,853.0,2253.0,2446.0,2091.0,,,,0.12639005773225,0.0077428104535286,2.52175652049868,,2.740000918443725,,
,6296.0,932.0,6739.0,853.0,2271.0,2440.0,2068.0,,,,0.126384251772358,0.0076777246794028,2.521765003296,,3.564391669906669,,
,6298.0,932.0,6739.0,852.0,2259.0,2437.0,2055.0,,,,0.126361906122936,0.0075712061349016,2.52095404319644,,4.353458836444431,,
,6302.0,931.0,6739.0,852.0,2220.0,2406.0,2049.0,,,,0.126369244256634,0.0075181992542684,2.52092304736332,,5.082270789263595,,
,6302.0,932.0,6742.0,851.0,2236.0,2432.0,2067.0,,,,0.126369642300037,0.0074630762676759,2.52058790805773,,5.727407505614807,,
,6309.0,933.0,6743.0,854.0,2230.0,2432.0,2067.0,,,,0.126332030874911,0.0075105224336716,2.52054779690386,,6.268096002179922,,
,6310.0,935.0,6746.0,855.0,2251.0,2447.0,2090.0,,,,0.126356943471175,0.0075261376949284,2.52077108469798,,6.6872516190628115,,
,6313.0,936.0,6743.0,856.0,2251.0,2449.0,2095.0,,,,0.126339838839015,0.0074632965808836,2.52014258694582,,6.972365936483372,,
,6314.0,934.0,6745.0,855.0,2258.0,2440.0,2068.0,,,,0.126295651760411,0.0073855348235629,2.52004847486447,,7.116181454737491,,
,6315.0,936.0,6748.0,857.0,2243.0,2447.0,2057.0,,,,0.126343596686005,0.0073903413629357,2.52011254920741,,7.117096878048198,,
,6320.0,935.0,6750.0,857.0,2256.0,2440.0,2075.0,,,,0.126321445095974,0.0074490443197814,2.52001693636466,,6.97925619861265,,
,6324.0,939.0,6752.0,858.0,2260.0,2438.0,2067.0,,,,0.126283304500069,0.0073643098006635,2.52020119640356,,6.7122907603183695,,
,6322.0,937.0,6750.0,857.0,2269.0,2447.0,2078.0,,,,0.126297943403242,0.0074165263216741,2.52045739824938,,6.330707267679658,,
,6327.0,937.0,6751.0,859.0,2254.0,2440.0,2088.0,,,,0.126283018355521,0.0074140512406073,2.52049353649498,,5.852946958841486,,
,6327.0,938.0,6748.0,857.0,2241.0,2440.0,2087.0,,,,0.126302031463785,0.0073643270359129,2.51985803622339,,5.300179730225754,,
,6322.0,937.0,6746.0,860.0,2234.0,2438.0,2079.0,,,,0.126258296304061,0.0073716170566045,2.52011418491399,,4.694935037096168,,
,6314.0,932.0,6738.0,856.0,2238.0,2448.0,2072.0,,,,0.126308043537537,0.0073452865776701,2.52003249616544,,4.059698628257282,,
,6306.0,927.0,6728.0,853.0,2227.0,2448.0,2065.0,,,,0.126285062014231,0.0072864922624648,2.51952124208227,,3.4156115293990816,,
,6298.0,925.0,6718.0,853.0,2223.0,2443.0,2070.0,,,,0.126254953798851,0.007256684481688,2.51900318117414,,2.7813920968323402,,
,6289.0,925.0,6710.0,850.0,2225.0,2441.0,2061.0,,,,0.126251001789843,0.0071485865626966,2.51904467016806,,2.1725675994297786,,
,6283.0,921.0,6704.0,849.0,2230.0,2438.0,2051.0,,,,0.126231127988308,0.0068963937499728,2.51841350761052,,1.6010572417930489,,
,6269.0,918.0,6693.0,841.0,2239.0,2450.0,2066.0,,,,0.126210790254416,0.0068462282133238,2.51740746164314,,1.0751028644357756,,
,6263.0,917.0,6687.0,844.0,2248.0,2451.0,2060.0,,,,0.126184588103348,0.0067702743378718,2.51657818683128,,0.5995038764468426,,
,6254.0,914.0,6681.0,840.0,2238.0,2444.0,2060.0,,,,0.126143614375336,0.0065869912079285,2.5157823473011,,0.17608387834472652,,
,6245.0,912.0,6676.0,838.0,2237.0,2439.0,2072.0,,,,0.126105957705893,0.0065145861967215,2.51545076319606,,-0.19569985071046442,,
,6233.0,908.0,6670.0,835.0,2242.0,2434.0,2059.0,,,,0.126139899426507,0.00651670021845,2.5152805035234,,-0.518095969413084,,
,6229.0,908.0,6667.0,835.0,2243.0,2446.0,2058.0,,,,0.126146618275431,0.0065544373893117,2.51531399900345,,-0.7944308628258796,,
,6224.0,906.0,6661.0,833.0,2224.0,2451.0,2077.0,,,,0.126121723505314,0.0064860789716749,2.51484968103369,,-1.0285769662116768,,
,6218.0,905.0,6659.0,832.0,2229.0,2449.0,2064.0,,,,0.126132808652306,0.0063242536388861,2.514619390025,,-1.2245568469594759,,
,6214.0,903.0,6656.0,831.0,2248.0,2446.0,2052.0,,,,0.126131350077881,0.0063332694119986,2.51471914077529,,-1.3862951825181995,,
,6205.0,903.0,6657.0,830.0,2252.0,2446.0,2059.0,,,,0.126111022674174,0.0061797305305733,2.51425308523289,,-1.5175067168955498,,
,6209.0,904.0,6656.0,830.0,2261.0,2455.0,2057.0,,,,0.126094542588477,0.0062112261098954,2.51396853769629,,-1.6216912416703464,,
,6207.0,905.0,6657.0,832.0,2256.0,2455.0,2065.0,,,,0.126067107769475,0.0061838950837807,2.51335414709583,,-1.7021982279156418,,
,6204.0,904.0,6659.0,828.0,2246.0,2432.0,2040.0,,,,0.126052806853468,0.005989369727083,2.51314123967056,,-1.7623230040760762,,
,6202.0,901.0,6658.0,827.0,2262.0,2446.0,2074.0,,,,0.125970699024162,0.0056640148117943,2.51197947215346,,-1.8054010240539848,,
,6202.0,903.0,6663.0,828.0,2256.0,2444.0,2074.0,,,,0.125927853460409,0.0056319891402153,2.51145254191693,,-1.8348744111795894,,
,6202.0,901.0,6663.0,830.0,2247.0,2442.0,2068.0,,,,0.125870073498005,0.0054478233006559,2.50980789964335,,-1.8543137563889038,,
,6202.0,902.0,6666.0,828.0,2246.0,2442.0,2070.0,,,,0.125864249172156,0.0051141348273949,2.50891028102666,,-1.8673868602034833,,
,6202.0,903.0,6666.0,829.0,2248.0,2435.0,2075.0,,,,0.125846634943249,0.0050714053366282,2.50823499220163,,-1.8777740093888238,,
,6201.0,901.0,6669.0,828.0,2267.0,2443.0,2052.0,,,,0.125803922379719,0.0049097175502176,2.50712987900232,,-1.88903614554603,,
,6205.0,901.0,6670.0,830.0,2235.0,2448.0,2050.0,,,,0.125782745270132,0.0048535322705693,2.50612531912147,,-1.9044478594264296,,
,6206.0,905.0,6674.0,832.0,2237.0,2440.0,2066.0,,,,0.125782683391596,0.0048299584374195,2.50683879245026,,-1.9268115558836285,,
,6204.0,904.0,6673.0,830.0,2218.0,2435.0,2065.0,,,,0.125793632823728,0.0048919225293037,2.50697503102012,,-1.9582723204439532,,
,6205.0,905.0,6676.0,828.0,2229.0,2444.0,2062.0,,,,0.125747056308712,0.0046834925837358,2.50664739405765,,-2.000154788727862,,
,6210.0,906.0,6680.0,831.0,2244.0,2431.0,2057.0,,,,0.125736043890479,0.0047485954424909,2.50627407088433,,-2.0528434028520914,,
,6211.0,907.0,6680.0,833.0,2233.0,2434.0,2061.0,,,,0.125724533071768,0.0046500394178295,2.50624480542827,,-2.11572554990223,,
,6212.0,909.0,6683.0,831.0,2240.0,2437.0,2042.0,,,,0.12572693900755,0.0045657652853866,2.50588759095987,,-2.1872129678925303,,
,6214.0,908.0,6683.0,833.0,2253.0,2440.0,2055.0,,,,0.125701747190042,0.0045350980670409,2.50528590113713,,-2.2648502875711993,,
,6217.0,909.0,6688.0,835.0,2259.0,2444.0,2052.0,,,,0.125698601130603,0.0044799283118064,2.50505814214204,,-2.345510592917165,,
,6217.0,909.0,6686.0,834.0,2258.0,2446.0,2050.0,,,,0.125710557978845,0.0045860900444208,2.50491133413059,,-2.4256668163038455,,
,6217.0,912.0,6690.0,834.0,2247.0,2445.0,2063.0,,,,0.125697244410286,0.0045159934447986,2.50494704003403,,-2.5017160673249803,,
,6217.0,909.0,6690.0,832.0,2250.0,2442.0,2067.0,,,,0.125685847376455,0.0044868307921363,2.504601383858,,-2.570324267036345,,
,6219.0,909.0,6689.0,833.0,2256.0,2444.0,2075.0,,,,0.125666344196922,0.0044982776820518,2.50446432645037,,-2.628753566976744,,
,6218.0,909.0,6691.0,834.0,2259.0,2437.0,2062.0,,,,0.125632676430602,0.0044011454695789,2.50408213390782,,-2.675136412371199,,
,6219.0,909.0,6690.0,835.0,2257.0,2433.0,2074.0,,,,0.125644605298186,0.0043402513644401,2.50398576910771,,-2.7086670401537027,,
,6218.0,906.0,6690.0,832.0,2232.0,2440.0,2062.0,,,,0.125641845231626,0.0044527335609771,2.50400890278146,,-2.7296914980317872,,
,6217.0,907.0,6691.0,832.0,2252.0,2449.0,2056.0,,,,0.12557125765469,0.0042590130518271,2.50352351788716,,-2.7396885700785885,,
,6217.0,908.0,6690.0,834.0,2251.0,2438.0,2068.0,,,,0.125604428087353,0.0040478753340489,2.50319821828294,,-2.7411445742390548,,
,6218.0,908.0,6691.0,835.0,2249.0,2438.0,2073.0,,,,0.125531335521318,0.0040071379890958,2.50224987614664,,-2.7373338399281173,,
,6217.0,906.0,6688.0,833.0,2239.0,2442.0,2088.0,,,,0.125489728315807,0.0038128623022889,2.50088908840225,,-2.7320232350180937,,
,6211.0,907.0,6687.0,831.0,2234.0,2438.0,2066.0,,,,0.125468315192389,0.0035456677034388,2.50069518762442,,-2.7291232372167094,,
,6213.0,908.0,6689.0,833.0,2235.0,2439.0,2063.0,,,,0.125498527308602,0.0036188161764045,2.49920278209208,,-2.7323100212774016,,
,6215.0,907.0,6686.0,834.0,2261.0,2431.0,2048.0,,,,0.12543811478425,0.0035558961999677,2.49901651775243,,-2.7446434631283023,,
,6213.0,906.0,6687.0,832.0,2252.0,2424.0,2049.0,,,,0.125441484487619,0.003486069084217,2.49907034271929,,-2.7682054333185384,,
,6216.0,906.0,6687.0,832.0,2222.0,2442.0,2057.0,,,,0.125435171585307,0.0033738050151607,2.49877247837712,,-2.803781609276475,,
,6217.0,910.0,6690.0,833.0,2251.0,2443.0,2065.0,,,,0.125424290340773,0.0033283390054723,2.49836394817093,,-2.850608395527687,,
,6216.0,909.0,6689.0,835.0,2276.0,2427.0,2066.0,,,,0.125334808142362,0.0032051609881348,2.49697841544809,,-2.9062043854742066,,
,6218.0,909.0,6691.0,835.0,2271.0,2434.0,2064.0,,,,0.125303385594371,0.0029153001361746,2.49662024747261,,-2.966303007700936,,
,6216.0,908.0,6690.0,834.0,2248.0,2443.0,2050.0,,,,0.125268330963296,0.0027017811754606,2.49513709629856,,-3.0248993532764423,,
,6219.0,911.0,6695.0,835.0,2252.0,2438.0,2057.0,,,,0.125168423528912,0.0024584219632085,2.49411421147,,-3.0744193452776996,,
,6223.0,909.0,6698.0,834.0,2272.0,2438.0,2076.0,,,,0.125153091213207,0.0022604837765319,2.49265308657972,,-3.1060129284241524,,
,6223.0,910.0,6698.0,835.0,2265.0,2443.0,2080.0,,,,0.12510071863463,0.001930283763572,2.49176022861097,,-3.1099643398550576,,
,6225.0,909.0,6700.0,835.0,2253.0,2440.0,2076.0,,,,0.125049537444371,0.0018347932266599,2.49180682488049,,-3.0762016509973185,,
,6227.0,911.0,6702.0,837.0,2241.0,2439.0,2059.0,,,,0.125049979929689,0.0019144599943664,2.49112496044385,,-2.9948755670081,,
,6228.0,912.0,6706.0,837.0,2246.0,2446.0,2046.0,,,,0.125083372950028,0.0018815959387901,2.491850539375,,-2.856966331569338,,
2025-07-21 22:19:39,6230.0,912.0,6705.0,837.0,2251.0,2443.0,2060.0,,,2025/07/21 10:19:39 PM,0.125028437119692,0.0020472496918421,2.49205243883325,,-2.6548707199475943,,
,6234.0,913.0,6707.0,838.0,2265.0,2431.0,2071.0,,,,0.125097265427129,0.0020177680209219,2.49207294231383,,-2.382920861967402,,
,6235.0,913.0,6708.0,838.0,2267.0,2440.0,2064.0,,,,0.125136548436699,0.0021043551664869,2.49258185586193,,-2.037793297192717,,
,6242.0,915.0,6712.0,840.0,2252.0,2445.0,2054.0,,,,0.125136658105732,0.0021873168283383,2.49265913720084,,-1.6187787319590632,,
,6244.0,918.0,6716.0,841.0,2257.0,2450.0,2055.0,,,,0.125173739566268,0.0022373831359287,2.49268924188615,,-1.1278982673409998,,
,6249.0,919.0,6720.0,844.0,2256.0,2450.0,2070.0,,,,0.12514918858454,0.0022624301615168,2.49267556008273,,-0.5698681860638646,,
,6250.0,918.0,6715.0,839.0,2252.0,2447.0,2085.0,,,,0.125158276691291,0.0022440389607993,2.49302907846873,,0.048069559519009354,,
,6254.0,919.0,6722.0,843.0,2263.0,2448.0,2082.0,,,,0.12511929786407,0.0022497087974561,2.49299134313897,,0.7164226189777122,,
,6256.0,922.0,6724.0,844.0,2248.0,2441.0,2053.0,,,,0.125124672665094,0.0023653122032839,2.49409996600542,,1.423794970081618,,
,6260.0,919.0,6725.0,845.0,2239.0,2440.0,2062.0,,,,0.125179419166339,0.0024786053319473,2.49424444342032,,2.1572713429906814,,
,6261.0,922.0,6727.0,844.0,2244.0,2450.0,2080.0,,,,0.12523186425307,0.0025246323056372,2.49398214602165,,2.9028113990546816,,
,6266.0,923.0,6728.0,845.0,2228.0,2452.0,2090.0,,,,0.125198651696899,0.002622782157279,2.49464521505081,,3.645634543503856,,
,6267.0,923.0,6729.0,847.0,2219.0,2449.0,2066.0,,,,0.12516268423286,0.0027394904601955,2.49486483437687,,4.370585749479607,,
,6272.0,924.0,6733.0,846.0,2235.0,2445.0,2061.0,,,,0.125228964650808,0.0027039417182878,2.49526007860206,,5.062481384622188,,
,6274.0,925.0,6734.0,848.0,2239.0,2446.0,2074.0,,,,0.12520211659907,0.0026894502717245,2.49505914224054,,5.706440951164887,,
,6277.0,924.0,6736.0,848.0,2219.0,2448.0,2063.0,,,,0.125228236071514,0.0027504800795903,2.49480870362031,,6.288215230845185,,
,6281.0,927.0,6740.0,850.0,2221.0,2437.0,2070.0,,,,0.125255745589164,0.0028588265912721,2.49558174895023,,6.79452280425806,,
,6285.0,928.0,6740.0,851.0,2228.0,2443.0,2069.0,,,,0.125281525809312,0.0026620254798059,2.49568541647548,,7.213404744911489,,
,6288.0,932.0,6742.0,853.0,2231.0,2441.0,2078.0,,,,0.125254268817565,0.0027181387067869,2.49557263800696,,7.534601484265015,,
,6290.0,928.0,6743.0,850.0,2238.0,2443.0,2066.0,,,,0.125272227748743,0.0025966112898594,2.49498562512908,,7.7499468025205305,,
,6293.0,929.0,6747.0,853.0,2235.0,2442.0,2052.0,,,,0.125287915337729,0.0028406530019668,2.49546274000143,,7.8537621142912695,,
,6297.0,931.0,6746.0,852.0,2229.0,2435.0,2060.0,,,,0.125246384713936,0.0027724937994493,2.49527083211825,,7.843220645624717,,
,6302.0,932.0,6748.0,854.0,2224.0,2432.0,2058.0,,,,0.125297875330128,0.0028381881845028,2.49508747465469,,7.718638157490252,,
,6304.0,931.0,6748.0,855.0,2239.0,2446.0,2065.0,,,,0.12527921452139,0.0027845202988951,2.49482446704528,,7.483638927397177,,
,6305.0,933.0,6750.0,854.0,2237.0,2444.0,2059.0,,,,0.125266137139524,0.0027773041134188,2.49463716098625,,7.145147835414839,,
,6310.0,934.0,6754.0,858.0,2227.0,2450.0,2055.0,,,,0.1252260793509,0.0024568298156398,2.49412223400165,,6.71317468934525,,
,6311.0,933.0,6750.0,854.0,2238.0,2455.0,2049.0,,,,0.125223195969316,0.0025095527160722,2.49404131591998,,6.200384002079391,,
,6315.0,936.0,6754.0,856.0,2250.0,2450.0,2076.0,,,,0.125193267248113,0.0024695078860702,2.49323582530718,,5.621476101840995,,
,6317.0,938.0,6752.0,856.0,2239.0,2440.0,2062.0,,,,0.12517814071038,0.002330096475831,2.49303934761568,,4.992434929377782,,
,6319.0,938.0,6758.0,858.0,2231.0,2432.0,2070.0,,,,0.125139161659118,0.0020746680176965,2.49161536754859,,4.3297166847182265,,
,6324.0,939.0,6757.0,863.0,2238.0,2433.0,2077.0,,,,0.125146425067377,0.0018599499845756,2.4911066933143,,3.649458462475895,,
,6326.0,936.0,6757.0,859.0,2235.0,2427.0,2080.0,,,,0.125068598912545,0.0016454637689221,2.49030236130799,,2.966778378576541,,
,6330.0,938.0,6758.0,859.0,2248.0,2437.0,2080.0,,,,0.125016546965377,0.0014337965276694,2.48911788748891,,2.2952219611292044,,
,6332.0,940.0,6759.0,861.0,2237.0,2447.0,2070.0,,,,0.125001024040674,0.0014104308510285,2.4882517224651,,1.6463875692342014,,
,6334.0,941.0,6763.0,863.0,2238.0,2444.0,2061.0,,,,0.124990003475853,0.0012240386543368,2.48783459059718,,1.0297396853046006,,
,6336.0,941.0,6762.0,863.0,2234.0,2448.0,2066.0,,,,0.124988348098898,0.0011399368134215,2.48725384761176,,0.45259612383592246,,
,6340.0,942.0,6762.0,864.0,2232.0,2452.0,2067.0,,,,0.12491402620839,0.0011831701593639,2.48727459900088,,-0.07974370235284106,,
,6342.0,944.0,6764.0,864.0,2227.0,2442.0,2082.0,,,,0.124940931983733,0.0011314565686376,2.48687807109849,,-0.563774985138261,,
,6349.0,945.0,6768.0,867.0,2241.0,2439.0,2061.0,,,,0.124938315248745,0.001071232831255,2.48660728302334,,-0.9975185987202128,,
,6350.0,945.0,6768.0,865.0,2256.0,2441.0,2052.0,,,,0.124929002581014,0.001098136793121,2.48667359701658,,-1.3802540339839344,,
,6354.0,946.0,6765.0,867.0,2260.0,2427.0,2058.0,,,,0.124906394617048,0.0010324018319687,2.48635616135072,,-1.7122902570769951,,
,6354.0,946.0,6766.0,866.0,2228.0,2426.0,2062.0,,,,0.12493788576201,0.0008856018875127,2.48579001005279,,-1.994794559664066,,
,6357.0,948.0,6770.0,867.0,2225.0,2439.0,2070.0,,,,0.124926818003511,0.0010678453085966,2.48666736255432,,-2.2296821867780277,,
,6363.0,948.0,6772.0,870.0,2219.0,2448.0,2076.0,,,,0.124904138457022,0.0009694304361872,2.48598756016315,,-2.419555052696122,,
,6365.0,950.0,6770.0,868.0,2220.0,2436.0,2056.0,,,,0.124928717117817,0.0008211347319188,2.48582235087017,,-2.567668965104701,,
,6370.0,950.0,6771.0,871.0,2226.0,2436.0,2081.0,,,,0.124898904024659,0.0008521924761517,2.48558164449991,,-2.6779060513170125,,
,6374.0,952.0,6773.0,873.0,2242.0,2441.0,2074.0,,,,0.12486271844407,0.0007701255783664,2.48525468163162,,-2.7547313304698653,,
,6378.0,953.0,6774.0,871.0,2251.0,2434.0,2082.0,,,,0.124870976297542,0.000839140240299,2.4855206941702,,-2.8031178194393327,,
,6380.0,953.0,6777.0,874.0,2255.0,2436.0,2084.0,,,,0.124897776469479,0.0009349361391441,2.48663248593916,,-2.828431682898933,,
,6383.0,952.0,6778.0,870.0,2247.0,2451.0,2078.0,,,,0.124912866005257,0.0010932251631701,2.48724275569294,,-2.8362766124427004,,
,6382.0,955.0,6778.0,876.0,2250.0,2456.0,2073.0,,,,0.124956337504221,0.0011107019649501,2.4863050587666,,-2.8323038238505056,,
,6387.0,956.0,6779.0,875.0,2269.0,2451.0,2081.0,,,,0.124951847128093,0.0011409761030742,2.4874029463656,,-2.8219997808832424,,
,6385.0,955.0,6776.0,874.0,2263.0,2445.0,2093.0,,,,0.124958494980295,0.0011194476424163,2.48693573608984,,-2.8104672647536617,,
,6378.0,950.0,6771.0,873.0,2248.0,2432.0,2090.0,,,,0.124980588279164,0.0012059185816597,2.48669024900399,,-2.8022165837260276,,
,6374.0,949.0,6765.0,869.0,2241.0,2435.0,2100.0,,,,0.124914304832471,0.0011693036026091,2.48607037129472,,-2.8009829707725373,,
,6364.0,945.0,6756.0,869.0,2221.0,2434.0,2104.0,,,,0.124924365966116,0.0010543740887069,2.48602875157708,,-2.8095841625391547,,
,6351.0,939.0,6742.0,868.0,2227.0,2436.0,2113.0,,,,0.124917073668938,0.0009000066308094,2.48548893435479,,-2.829829302420808,,
,6340.0,935.0,6732.0,863.0,2233.0,2453.0,2084.0,,,,0.124902894911433,0.0009798741833586,2.48544209697053,,-2.8624869553347647,,
,6329.0,932.0,6719.0,857.0,2250.0,2450.0,2091.0,,,,0.124861729685441,0.0009689473808316,2.48539485989395,,-2.9073162474665804,,
,6317.0,929.0,6711.0,857.0,2257.0,2446.0,2087.0,,,,0.124870362195605,0.0009504399349866,2.4859013753452,,-2.9631609039580824,,
,6307.0,926.0,6705.0,854.0,2243.0,2438.0,2095.0,,,,0.124875986776226,0.0008793959714641,2.48552037822849,,-3.0281011251379257,,
,6295.0,923.0,6698.0,854.0,2229.0,2441.0,2091.0,,,,0.124892329678857,0.0009023453317032,2.48517583015324,,-3.099652657368114,,
,6287.0,920.0,6690.0,849.0,2232.0,2436.0,2071.0,,,,0.124887025989978,0.000876187254514,2.48540980971874,,-3.1749960863042737,,
,6280.0,918.0,6687.0,848.0,2239.0,2448.0,2068.0,,,,0.124917165241507,0.000908711948842,2.48578695442549,,-3.251212951969754,,
,6272.0,916.0,6680.0,844.0,2238.0,2445.0,2061.0,,,,0.124890873950952,0.0009207723807546,2.48556991940935,,-3.3255004511339656,,
,6265.0,915.0,6675.0,842.0,2240.0,2450.0,2062.0,,,,0.124883089265007,0.0009076461430906,2.48568152991563,,-3.395335673075687,,
,6260.0,914.0,6675.0,838.0,2240.0,2439.0,2088.0,,,,0.12489029056567,0.000849072078576,2.48589825990993,,-3.458565333126079,,
,6253.0,913.0,6675.0,841.0,2258.0,2439.0,2068.0,,,,0.124925288130409,0.0007342794373605,2.48597434449012,,-3.5134076541299155,,
,6250.0,912.0,6672.0,841.0,2258.0,2444.0,2092.0,,,,0.124907218996339,0.0007314431058665,2.48576244232701,,-3.558367097555795,,
,6248.0,913.0,6672.0,838.0,2245.0,2446.0,2095.0,,,,0.124900854080386,0.0007634255409048,2.48574761335928,,-3.5920768405806736,,
,6247.0,912.0,6671.0,837.0,2247.0,2459.0,2079.0,,,,0.124924041003302,0.0007530050586115,2.48508216219446,,-3.613095429858082,,
,6245.0,911.0,6673.0,837.0,2272.0,2444.0,2073.0,,,,0.124898340530302,0.0006869939385676,2.48567188146754,,-3.6196910988207858,,
,6246.0,910.0,6675.0,837.0,2260.0,2454.0,2065.0,,,,0.124917472183388,0.0008203791952139,2.48537080043911,,-3.6096489432367544,,
,6244.0,910.0,6677.0,838.0,2257.0,2457.0,2062.0,,,,0.124908356232108,0.0007646811150849,2.48537874817403,,-3.5801324774337164,,
,6241.0,911.0,6680.0,836.0,2271.0,2444.0,2069.0,,,,0.124917472999234,0.0007314405477805,2.48513682802163,,-3.5276228522605986,,
,6241.0,909.0,6678.0,835.0,2249.0,2436.0,2058.0,,,,0.124901206816501,0.0006963047581501,2.48523363471494,,-3.447947816288466,,
,6243.0,911.0,6681.0,839.0,2248.0,2433.0,2071.0,,,,0.124899610473524,0.0006252331177295,2.48524725934868,,-3.336400466100603,,
,6243.0,911.0,6684.0,839.0,2248.0,2441.0,2071.0,,,,0.124882498729905,0.0007868263585628,2.48502202795074,,-3.1879370977742845,,
,6245.0,914.0,6686.0,838.0,2247.0,2446.0,2078.0,,,,0.124914886673815,0.0007126065140874,2.4852295647951,,-2.997435739963968,,
,6243.0,912.0,6686.0,841.0,2243.0,2449.0,2076.0,,,,0.124926250923599,0.0007768640812497,2.4848953326882,,-2.7599932333302744,,
,6246.0,913.0,6687.0,838.0,2219.0,2438.0,2082.0,,,,0.124852444769495,0.0008366329758014,2.4855546137084,,-2.471239225454292,,
,6249.0,916.0,6689.0,839.0,2257.0,2439.0,2078.0,,,,0.124895182973467,0.0008125244289407,2.48604026806295,,-2.1276494858954007,,
,6246.0,913.0,6690.0,840.0,2256.0,2439.0,2085.0,,,,0.124843167721347,0.0008417336387452,2.48554188589863,,-1.7268470028035956,,
,6247.0,913.0,6694.0,839.0,2242.0,2438.0,2069.0,,,,0.124867170768485,0.0008967358991798,2.48585027719634,,-1.2678853599860422,,
,6251.0,916.0,6697.0,840.0,2249.0,2440.0,2074.0,,,,0.124896566484568,0.0009685543297532,2.48622178982142,,-0.751512740055786,,
,6252.0,915.0,6698.0,840.0,2248.0,2440.0,2085.0,,,,0.124899601569195,0.0009818387397311,2.48592749174674,,-0.1804148390565174,,
,6253.0,917.0,6702.0,841.0,2251.0,2440.0,2090.0,,,,0.124908193865431,0.0010148198699043,2.48634759059156,,0.44056936422547655,,
,6253.0,917.0,6701.0,841.0,2263.0,2451.0,2070.0,,,,0.124957028593284,0.000994096715745,2.48645296293732,,1.104272146721776,,
,6252.0,917.0,6703.0,841.0,2244.0,2449.0,2065.0,,,,0.12497749497428,0.0007976675805778,2.48595025374806,,1.8010822589758164,,
,6256.0,919.0,6704.0,842.0,2235.0,2447.0,2072.0,,,,0.124931850360075,0.0006613808468026,2.48466936028281,,2.518916394625467,,
,6256.0,918.0,6706.0,844.0,2235.0,2447.0,2074.0,,,,0.124881753776266,0.00069082530202,2.48479050336378,,3.2433050062685234,,
,6256.0,916.0,6703.0,843.0,2249.0,2450.0,2080.0,,,,0.124853435783702,0.0005238636032189,2.48423044726454,,3.9576204379000535,,
,6255.0,915.0,6703.0,840.0,2269.0,2448.0,2102.0,,,,0.1248306348685,0.0005433862285813,2.48387198260458,,4.6434720423308695,,
,6254.0,916.0,6704.0,843.0,2253.0,2442.0,2086.0,,,,0.124819220067068,0.0003140798342621,2.48359981801424,,5.281285102926959,,
,6253.0,916.0,6704.0,843.0,2241.0,2446.0,2071.0,,,,0.12480873817254,0.0002591537693274,2.48318207371206,,5.851066699352581,,
,6251.0,917.0,6702.0,840.0,2241.0,2451.0,2069.0,,,,0.12481186240527,0.0002549493119004,2.4823370735888,,6.33334212055229,,
,6248.0,914.0,6699.0,840.0,2245.0,2444.0,2066.0,,,,0.124750926851299,0.0002937038051229,2.48295350536619,,6.710221625725835,,
,6251.0,915.0,6700.0,837.0,2235.0,2448.0,2074.0,,,,0.124777236664798,0.0002022783549668,2.48237821631801,,6.966532036290235,,
,6251.0,916.0,6701.0,841.0,2245.0,2450.0,2077.0,,,,0.12479868771349,0.0002059318767982,2.48244580425411,,7.090924399885398,,
,6250.0,917.0,6699.0,842.0,2252.0,2449.0,2083.0,,,,0.124792872369269,0.0001519256863097,2.48195935770735,,7.076852242000217,,
,6249.0,914.0,6702.0,841.0,2249.0,2432.0,2083.0,,,,0.124781984729474,6.35152205244446e-05,2.48155864440499,,6.923309364867119,,
,6250.0,914.0,6702.0,841.0,2249.0,2440.0,2078.0,,,,0.124775291838584,0.0002029514621159,2.4819877462503,,6.635225313251076,,
,6250.0,915.0,6702.0,842.0,2254.0,2437.0,2081.0,,,,0.124761363895613,0.0001741567771915,2.48174626314717,,6.223442045717217,,
,6250.0,914.0,6703.0,841.0,2252.0,2444.0,2074.0,,,,0.124763912891002,0.0002294370985663,2.48190712181188,,5.704236077470295,,
,6249.0,916.0,6703.0,841.0,2245.0,2441.0,2060.0,,,,0.124774032536722,0.0001151576071769,2.4817313229258,,5.098402100962709,,
,6249.0,914.0,6701.0,840.0,2254.0,2438.0,2064.0,,,,0.12475203342006,0.0001253470363882,2.48168502999625,,4.429968708007807,,
,6251.0,914.0,6704.0,842.0,2267.0,2441.0,2075.0,,,,0.124717811034314,0.0002184443172223,2.48253551830293,,3.724663827526431,,
,6251.0,917.0,6706.0,844.0,2239.0,2432.0,2046.0,,,,0.124740951368767,0.0002839395776416,2.4824551825888,,3.0082774036701903,,
,6255.0,918.0,6709.0,844.0,2232.0,2433.0,2038.0,,,,0.124726596334351,0.0002912865425517,2.48236083623736,,2.3050765826685296,,
,6257.0,916.0,6707.0,842.0,2231.0,2439.0,2059.0,,,,0.124738863011966,0.000273139392198,2.48316872784562,,1.6364147538211606,,
,6258.0,917.0,6712.0,843.0,2238.0,2444.0,2071.0,,,,0.1247585101081,0.0003158671261282,2.48299785942565,,1.0196452005483645,,
,6258.0,918.0,6716.0,845.0,2248.0,2444.0,2083.0,,,,0.124761652996103,0.0004676617137992,2.48275067187161,,0.46741006476492314,,
,6261.0,919.0,6713.0,845.0,2263.0,2436.0,2074.0,,,,0.12482009846386,0.0005186419995498,2.48359220314813,,-0.012667055257825074,,
,6262.0,921.0,6719.0,845.0,2265.0,2429.0,2066.0,,,,0.124819740161807,0.0005262137323712,2.48420287878315,,-0.41789572610514447,,
,6263.0,921.0,6720.0,844.0,2243.0,2437.0,2068.0,,,,0.124808909617904,0.0007345808440618,2.48521395531642,,-0.7500839361711905,,
,6269.0,921.0,6723.0,848.0,2242.0,2437.0,2069.0,,,,0.124879630149955,0.0009694814559301,2.48625593080918,,-1.014821824740067,,
,6270.0,923.0,6723.0,844.0,2250.0,2443.0,2064.0,,,,0.124924697672745,0.0012542760936288,2.48773403906137,,-1.2205676253484745,,
,6275.0,924.0,6727.0,846.0,2235.0,2438.0,2052.0,,,,0.124920774470163,0.0014918904132474,2.48866958723552,,-1.3776271217413432,,
,6277.0,923.0,6727.0,848.0,2246.0,2438.0,2072.0,,,,0.125024866403967,0.0016508852781774,2.49052996559995,,-1.4971175388205933,,
,6279.0,925.0,6728.0,848.0,2230.0,2440.0,2074.0,,,,0.125040721800065,0.0018233984296895,2.49178565251897,,-1.5899992337423015,,
,6282.0,924.0,6733.0,849.0,2243.0,2449.0,2071.0,,,,0.125135665780103,0.0021559211194336,2.49317763026695,,-1.666245088145325,,
,6285.0,927.0,6736.0,848.0,2251.0,2453.0,2069.0,,,,0.125112773558906,0.0025192279697672,2.4939664876937,,-1.7341998983276352,,
,6287.0,927.0,6736.0,850.0,2249.0,2449.0,2057.0,,,,0.125256811655675,0.0028889162143283,2.49608440607071,,-1.8001622258892906,,
,6293.0,928.0,6738.0,850.0,2252.0,2438.0,2056.0,,,,0.125254217063794,0.0030939223813331,2.49793289028988,,-1.8682007300636216,,
,6297.0,931.0,6742.0,853.0,2243.0,2428.0,2084.0,,,,0.12537829176718,0.0034511900831967,2.49923028455189,,-1.9401970802214947,,
,6302.0,930.0,6743.0,851.0,2241.0,2433.0,2075.0,,,,0.125445835658962,0.0037721828998622,2.50084835852625,,-2.0160888926669447,,
,6299.0,929.0,6745.0,852.0,2245.0,2446.0,2065.0,,,,0.125474879116098,0.0041524888940757,2.50242483940376,,-2.09426960774733,,
,6304.0,932.0,6747.0,854.0,2262.0,2441.0,2097.0,,,,0.125510244303743,0.0043179405817844,2.50293880289953,,-2.1720894580870853,,
2025-07-21 22:19:40,6306.0,932.0,6748.0,855.0,2266.0,2436.0,2101.0,,,2025/07/21 10:19:40 PM,0.125532537784627,0.0045278562274913,2.50452907018643,,-2.246395170188497,,
,6311.0,935.0,6749.0,857.0,2264.0,2442.0,2094.0,,,,0.125570222337361,0.0048267151344781,2.50602774138625,,-2.3140479316524316,,
,6313.0,935.0,6753.0,856.0,2248.0,2435.0,2083.0,,,,0.125620068912986,0.0050504335247634,2.50658612049226,,-2.372369479998896,,
,6316.0,935.0,6754.0,855.0,2241.0,2439.0,2088.0,,,,0.125676653953028,0.0053112663375764,2.50932023087487,,-2.4194822388141977,,
,6319.0,937.0,6755.0,859.0,2253.0,2446.0,2079.0,,,,0.125765664375124,0.0054659554950105,2.51011395325568,,-2.454527016125093,,
,6321.0,936.0,6757.0,860.0,2236.0,2449.0,2069.0,,,,0.125781733886199,0.0057862704095407,2.51070152407353,,-2.477757112833238,,
,6327.0,936.0,6758.0,858.0,2261.0,2447.0,2073.0,,,,0.125829220965065,0.0058916695442177,2.51253106576675,,-2.490518750554377,,
,6328.0,937.0,6758.0,858.0,2241.0,2451.0,2063.0,,,,0.125913151436922,0.0061720594128071,2.51356914246658,,-2.495134265162809,,
,6330.0,938.0,6761.0,859.0,2244.0,2448.0,2051.0,,,,0.125959275718391,0.0064927361668217,2.51456384974252,,-2.4947072788509757,,
,6334.0,939.0,6761.0,860.0,2254.0,2438.0,2085.0,,,,0.126021026989574,0.0067446881149701,2.51632608498858,,-2.4928691974093167,,
,6335.0,940.0,6759.0,862.0,2268.0,2437.0,2090.0,,,,0.126090789695236,0.0069231840589781,2.51729507195989,,-2.493485178585167,,
,6339.0,940.0,6760.0,859.0,2267.0,2431.0,2056.0,,,,0.126149837136657,0.0072852186673255,2.51913976154621,,-2.5003364805476647,,
,6343.0,941.0,6764.0,863.0,2253.0,2434.0,2074.0,,,,0.126267645223926,0.0075085019884233,2.52067204935887,,-2.5167957817559494,,
,6344.0,942.0,6767.0,863.0,2242.0,2444.0,2072.0,,,,0.12621772683557,0.0077326243142315,2.52120736778018,,-2.545512910809707,,
,6348.0,943.0,6765.0,865.0,2245.0,2448.0,2073.0,,,,0.126302640869361,0.0079125338051634,2.52229510542295,,-2.5881298771679884,,
,6348.0,943.0,6766.0,864.0,2226.0,2451.0,2068.0,,,,0.126319239197229,0.0081043903314762,2.52365676466348,,-2.6450450349194026,,
,6354.0,944.0,6769.0,867.0,2230.0,2448.0,2062.0,,,,0.12633628573197,0.0082500578497293,2.52490912726356,,-2.7152454189020534,,
,6357.0,946.0,6771.0,868.0,2236.0,2450.0,2085.0,,,,0.126362325066454,0.0084454297315009,2.52548261637028,,-2.79622288346649,,
,6361.0,947.0,6769.0,866.0,2233.0,2444.0,2077.0,,,,0.126438379083206,0.0086368382312135,2.52673615663558,,-2.8839834658066343,,
,6363.0,947.0,6770.0,867.0,2238.0,2441.0,2071.0,,,,0.126456165186281,0.0088150380169561,2.52785959037821,,-2.973151183326646,,
,6364.0,948.0,6771.0,867.0,2237.0,2441.0,2051.0,,,,0.126538932792454,0.0091432860531919,2.52929005133557,,-3.057159061207956,,
,6368.0,949.0,6773.0,869.0,2229.0,2441.0,2069.0,,,,0.126552869914103,0.0093696154077399,2.52989243072118,,-3.12851373385153,,
,6369.0,949.0,6775.0,870.0,2236.0,2435.0,2060.0,,,,0.126600724557036,0.0095501164742389,2.53108021008271,,-3.1791167130735385,,
,6374.0,953.0,6777.0,871.0,2252.0,2445.0,2087.0,,,,0.126676214624908,0.0098691844972137,2.53248808186518,,-3.200624828120562,,
,6379.0,950.0,6775.0,868.0,2263.0,2442.0,2089.0,,,,0.126702814512714,0.0101336460624413,2.533669954641,,-3.1848326451229996,,
,6381.0,950.0,6777.0,873.0,2242.0,2447.0,2073.0,,,,0.126837588155411,0.0103666075322383,2.53540618264929,,-3.12405931855947,,
,6382.0,953.0,6779.0,872.0,2224.0,2445.0,2085.0,,,,0.126869341152763,0.0107018761794503,2.53710632652744,,-3.011520950687025,,
,6386.0,955.0,6782.0,872.0,2236.0,2442.0,2085.0,,,,0.12688191311644,0.0110203908271707,2.53835215458923,,-2.8416678270862903,,
,6387.0,955.0,6778.0,873.0,2261.0,2430.0,2068.0,,,,0.126977127904867,0.0113381799590945,2.54000164747881,,-2.610464969409197,,
,6391.0,957.0,6781.0,874.0,2241.0,2442.0,2067.0,,,,0.1269944126704,0.0116013821369581,2.54172418738944,,-2.315595409036196,,
,6395.0,955.0,6781.0,875.0,2245.0,2445.0,2085.0,,,,0.127056683060742,0.0117359382475872,2.54248522766853,,-1.956569477472171,,
,6397.0,955.0,6783.0,874.0,2237.0,2445.0,2078.0,,,,0.127065044542984,0.0120652878546597,2.54355683808074,,-1.5347311661823833,,
,6401.0,955.0,6784.0,876.0,2244.0,2440.0,2053.0,,,,0.12708754231606,0.0121661376219049,2.54412163477899,,-1.0531646218335946,,
,6406.0,957.0,6787.0,878.0,2258.0,2443.0,2054.0,,,,0.127143324352365,0.0123550860476475,2.54453488965368,,-0.5165190900333997,,
,6409.0,960.0,6788.0,878.0,2239.0,2450.0,2060.0,,,,0.127134278777037,0.0125133503684203,2.54508023482419,,0.0692139864298855,,
,6413.0,959.0,6791.0,879.0,2247.0,2449.0,2063.0,,,,0.127136878975692,0.0123669058959645,2.54567144864186,,0.6969272007470572,,
,6416.0,963.0,6790.0,880.0,2241.0,2441.0,2077.0,,,,0.127139342803885,0.0126543502909018,2.54692244127307,,1.3585806894348085,,
,6419.0,963.0,6791.0,880.0,2248.0,2453.0,2065.0,,,,0.127234278525025,0.0128091020600548,2.54678943930532,,2.045307074344592,,
,6422.0,964.0,6793.0,882.0,2250.0,2450.0,2065.0,,,,0.127234447311249,0.0130202233669759,2.54822271632298,,2.7474229446046894,,
,6423.0,964.0,6792.0,882.0,2257.0,2443.0,2072.0,,,,0.127291929655247,0.0132336995642706,2.54932352753517,,3.454359126313618,,
,6421.0,962.0,6788.0,880.0,2256.0,2447.0,2071.0,,,,0.127371644532717,0.0135117240822602,2.5508169945671,,4.154548567316256,,
,6416.0,959.0,6786.0,876.0,2245.0,2451.0,2060.0,,,,0.127429473319096,0.013683395678112,2.55199515456171,,4.8353298688943065,,
,6414.0,958.0,6784.0,880.0,2237.0,2449.0,2067.0,,,,0.127459688249232,0.0139549551708771,2.5530773637334,,5.482931844541266,,
,6407.0,957.0,6775.0,879.0,2220.0,2447.0,2062.0,,,,0.127463773248279,0.0141788833349668,2.55368015039367,,6.082599079004212,,
,6396.0,949.0,6763.0,873.0,2236.0,2451.0,2066.0,,,,0.127532441125611,0.0142836946068118,2.55491350908228,,6.618902295090643,,
,6384.0,945.0,6752.0,870.0,2250.0,2450.0,2084.0,,,,0.127560811881032,0.0145498137372412,2.55574291207589,,7.076253486746727,,
,6375.0,942.0,6741.0,869.0,2234.0,2444.0,2083.0,,,,0.127593123811554,0.0146355964797689,2.5569317252731,,7.439617120285311,,
,6364.0,941.0,6731.0,866.0,2223.0,2435.0,2060.0,,,,0.127653837288741,0.0149698373369992,2.55842389017187,,7.6953779578466985,,
,6355.0,937.0,6725.0,866.0,2227.0,2427.0,2056.0,,,,0.127735778573936,0.0151184053777416,2.55915687682872,,7.832296471197636,,
,6342.0,933.0,6714.0,860.0,2247.0,2435.0,2088.0,,,,0.12776326360636,0.0154309034079382,2.56091952156653,,7.84245849317114,,
,6333.0,930.0,6709.0,856.0,2237.0,2431.0,2065.0,,,,0.127785167989061,0.0156326526940149,2.56202039584795,,7.722111222487474,,
,6326.0,927.0,6702.0,859.0,2233.0,2438.0,2081.0,,,,0.127843557948151,0.0158825290433136,2.56263767418164,,7.472277004664247,,
,6316.0,925.0,6697.0,854.0,2225.0,2430.0,2077.0,,,,0.127871516208762,0.0161060355218365,2.56398946125976,,7.099051970108386,,
,6307.0,924.0,6695.0,853.0,2231.0,2433.0,2074.0,,,,0.127882462017628,0.0161280987304353,2.56508296948472,,6.613528430832712,,
,6303.0,923.0,6692.0,850.0,2220.0,2437.0,2071.0,,,,0.127921787366528,0.0163985969873058,2.56547023946187,,6.0313240133103445,,
,6300.0,923.0,6689.0,849.0,2254.0,2438.0,2068.0,,,,0.127953525568442,0.0164475218324682,2.56623190898461,,5.3717492335289005,,
,6295.0,922.0,6690.0,849.0,2256.0,2441.0,2063.0,,,,0.127985352890123,0.0164092211355945,2.56638260144293,,4.656689259302515,,
,6293.0,922.0,6688.0,848.0,2251.0,2444.0,2070.0,,,,0.127973741506474,0.0165450066099643,2.56648876068819,,3.9093071734748723,,
,6287.0,919.0,6686.0,845.0,2236.0,2437.0,2068.0,,,,0.127984839248148,0.0166975414350822,2.56720100710434,,3.1526912725010874,,
,6289.0,922.0,6694.0,848.0,2256.0,2440.0,2081.0,,,,0.128010121992539,0.0165655784281986,2.56695124840253,,2.4085676912627263,,
,6289.0,921.0,6692.0,847.0,2278.0,2440.0,2080.0,,,,0.128062812172524,0.0165943419351556,2.56749841180962,,1.6961840661579424,,
,6290.0,920.0,6693.0,848.0,2271.0,2442.0,2071.0,,,,0.128047357022932,0.0166506698409495,2.56752972878874,,1.0314434753239545,,
,6288.0,922.0,6693.0,845.0,2243.0,2443.0,2057.0,,,,0.127974621119548,0.0166914900336392,2.5674917613452,,0.4263351626506409,,
,6289.0,920.0,6696.0,846.0,2273.0,2438.0,2070.0,,,,0.128007283718159,0.0167103068183339,2.56728553907932,,-0.11132501310381859,,
,6288.0,921.0,6695.0,846.0,2264.0,2435.0,2077.0,,,,0.127988658946394,0.0167128989196109,2.56729121119876,,-0.5778608567494691,,
,6291.0,923.0,6699.0,846.0,2251.0,2441.0,2078.0,,,,0.127982367828948,0.0167566699946246,2.56743537067839,,-0.9734472680111685,,
,6291.0,922.0,6696.0,842.0,2253.0,2439.0,2075.0,,,,0.127975073406425,0.0166811952721415,2.56682021852547,,-1.3016187826931485,,
,6291.0,922.0,6702.0,848.0,2249.0,2436.0,2064.0,,,,0.128001824342335,0.0166424136536683,2.56660609368076,,-1.568632940997357,,
,6292.0,923.0,6705.0,848.0,2236.0,2440.0,2064.0,,,,0.12797893656938,0.0165144644288594,2.56630035754986,,-1.7827457472615806,,
,6294.0,924.0,6707.0,850.0,2240.0,2441.0,2070.0,,,,0.127952628925493,0.0164464904004697,2.56537572654758,,-1.9534518125646707,,
,6297.0,925.0,6707.0,847.0,2231.0,2425.0,2071.0,,,,0.127946679006751,0.016342190500899,2.56470063509337,,-2.090735027528737,,
,6295.0,926.0,6712.0,848.0,2255.0,2427.0,2084.0,,,,0.127912529263011,0.0162048883836576,2.56445682418909,,-2.204368650085017,,
,6298.0,926.0,6714.0,847.0,2254.0,2443.0,2070.0,,,,0.127911994489044,0.0161808673926788,2.56409185210406,,-2.303297584802043,,
,6300.0,927.0,6717.0,852.0,2272.0,2449.0,2074.0,,,,0.127866528268937,0.0160639014368058,2.56396358785383,,-2.3951304810394918,,
,6302.0,927.0,6718.0,847.0,2271.0,2455.0,2066.0,,,,0.127868207607198,0.0160849635934403,2.56416939772575,,-2.4857644388673434,,
,6302.0,925.0,6717.0,848.0,2266.0,2440.0,2065.0,,,,0.127875690041924,0.0159005837087728,2.56371475935468,,-2.5791596267963643,,
,6303.0,927.0,6718.0,854.0,2251.0,2447.0,2064.0,,,,0.127886645586799,0.0160317974621979,2.56432025516498,,-2.6772740840663953,,
,6303.0,927.0,6720.0,852.0,2274.0,2444.0,2070.0,,,,0.127890344023608,0.0160525548608966,2.56403299361003,,-2.7801597683680974,,
,6306.0,929.0,6721.0,853.0,2266.0,2438.0,2077.0,,,,0.127890191042005,0.0160957351858216,2.56426630554629,,-2.886209403795674,,
,6303.0,926.0,6720.0,849.0,2253.0,2450.0,2073.0,,,,0.127882303385908,0.0160700905277977,2.56451853163841,,-2.992530715795268,,
,6304.0,929.0,6721.0,852.0,2260.0,2450.0,2070.0,,,,0.127917873249406,0.0161645809453344,2.56476899670403,,-3.0954122690515424,,
,6304.0,930.0,6722.0,851.0,2235.0,2437.0,2079.0,,,,0.127907511374356,0.0162684811625943,2.56547311623634,,-3.190836124445063,,
,6308.0,926.0,6721.0,851.0,2230.0,2443.0,2092.0,,,,0.127891763916548,0.0162651597112042,2.56462403380266,,-3.274989008308934,,
,6304.0,926.0,6718.0,847.0,2225.0,2443.0,2058.0,,,,0.1278960180127,0.0160510180873744,2.56446040527691,,-3.3447259567192886,,
,6304.0,925.0,6717.0,850.0,2241.0,2447.0,2087.0,,,,0.127901477222857,0.0161908624571496,2.56428860377658,,-3.397947200943687,,
,6303.0,928.0,6719.0,850.0,2224.0,2437.0,2067.0,,,,0.127919371651318,0.0160158562405335,2.5638167949815,,-3.4338586741316264,,
,6302.0,925.0,6717.0,850.0,2223.0,2440.0,2064.0,,,,0.127864935717998,0.0157258386135408,2.56257130671823,,-3.4530975553998773,,
,6299.0,925.0,6714.0,846.0,2228.0,2430.0,2073.0,,,,0.127767977656593,0.0154939508938286,2.56157106727354,,-3.457715730132861,,
,6299.0,924.0,6715.0,848.0,2210.0,2426.0,2069.0,,,,0.127738999539625,0.0153368130222247,2.56080445705128,,-3.4510250807651723,,
,6299.0,925.0,6715.0,850.0,2224.0,2439.0,2056.0,,,,0.12774282758397,0.0151431953093094,2.55960736304287,,-3.4373183632060837,,
,6300.0,926.0,6716.0,851.0,2224.0,2446.0,2054.0,,,,0.127717383510712,0.0150783661751072,2.55918254562849,,-3.421487587946514,,
,6300.0,926.0,6714.0,848.0,2235.0,2443.0,2085.0,,,,0.127705506505446,0.0150549897644263,2.55835852627552,,-3.408568239797879,,
,6302.0,924.0,6713.0,848.0,2228.0,2445.0,2068.0,,,,0.127716674280569,0.0150610285101595,2.55828715963797,,-3.403242510688616,,
,6299.0,924.0,6716.0,850.0,2251.0,2432.0,2055.0,,,,0.127720956541097,0.015019089365305,2.55858421608414,,-3.4093381184019713,,
,6301.0,925.0,6716.0,849.0,2253.0,2431.0,2061.0,,,,0.127703738747056,0.0149569035553753,2.55826590504902,,-3.4293611580726973,,
,6301.0,925.0,6718.0,849.0,2250.0,2433.0,2064.0,,,,0.127674549124426,0.0148720915587563,2.55751058642022,,-3.4641014447937652,,
,6301.0,925.0,6717.0,848.0,2229.0,2436.0,2074.0,,,,0.127649156926613,0.0145868521649635,2.55694382889249,,-3.512346389121702,,
,6302.0,925.0,6720.0,849.0,2256.0,2435.0,2060.0,,,,0.127629725234315,0.0144617721240214,2.55606588743997,,-3.570733931408427,,
,6307.0,926.0,6727.0,853.0,2275.0,2445.0,2064.0,,,,0.127573497321678,0.0142817537516921,2.55519146263476,,-3.6337659220446406,,
,6309.0,928.0,6724.0,851.0,2270.0,2449.0,2061.0,,,,0.127486776863691,0.0138741774998083,2.55385006697223,,-3.6939905932293415,,
,6306.0,926.0,6723.0,847.0,2246.0,2461.0,2053.0,,,,0.127410025311886,0.0136841877432209,2.55170945921203,,-3.742347482345176,,
,6311.0,927.0,6726.0,851.0,2233.0,2457.0,2042.0,,,,0.127363891031301,0.0132920361928913,2.55032956855733,,-3.7686526276006522,,
,6314.0,929.0,6727.0,851.0,2265.0,2444.0,2047.0,,,,0.127266501259978,0.0129734754099039,2.54842713305836,,-3.7621888962942505,,
,6315.0,929.0,6732.0,853.0,2265.0,2445.0,2052.0,,,,0.127204122173586,0.0127117698650692,2.54715907441851,,-3.712357932518391,,
,6318.0,927.0,6733.0,851.0,2268.0,2440.0,2071.0,,,,0.127161500116954,0.0123801822684203,2.54536492654346,,-3.609346744613395,,
,6320.0,928.0,6732.0,851.0,2259.0,2441.0,2050.0,,,,0.127100309723671,0.0120982649645403,2.54356609543297,,-3.4447624824940277,,
,6324.0,932.0,6737.0,855.0,2273.0,2443.0,2046.0,,,,0.127050822278966,0.011856741745896,2.5421806018779,,-3.2121925001495084,,
,6327.0,934.0,6739.0,853.0,2249.0,2434.0,2047.0,,,,0.126974244748183,0.0115281637130846,2.54116242408532,,-2.90765292666547,,
,6328.0,933.0,6740.0,856.0,2245.0,2439.0,2059.0,,,,0.12690051933926,0.0112550296213463,2.53968862901341,,-2.5298975042802128,,
,6331.0,933.0,6738.0,854.0,2262.0,2450.0,2063.0,,,,0.126834520199271,0.0107225064804802,2.53753087548617,,-2.0805689935115006,,
,6335.0,935.0,6744.0,856.0,2261.0,2451.0,2059.0,,,,0.126754451767929,0.0104124154309751,2.53561342515545,,-1.564187332822447,,
,6338.0,936.0,6745.0,855.0,2249.0,2442.0,2034.0,,,,0.12666107966257,0.0100593007786881,2.53384027575817,,-0.9879812527164102,,
,6342.0,937.0,6750.0,859.0,2226.0,2434.0,2031.0,,,,0.126586305600586,0.0095429553545575,2.53186432844059,,-0.36158237324034803,,
,6343.0,936.0,6746.0,856.0,2235.0,2440.0,2052.0,,,,0.126523469806811,0.0092228245913519,2.52972860743073,,0.3033881096717089,,
,6348.0,938.0,6749.0,858.0,2250.0,2447.0,2071.0,,,,0.126454333657454,0.0087615972171672,2.52734527777162,,0.9938015558854727,,
,6352.0,939.0,6755.0,859.0,2240.0,2449.0,2064.0,,,,0.126343564951582,0.0084126676697134,2.52596195891669,,1.6955298471882407,,
,6354.0,940.0,6754.0,862.0,2229.0,2453.0,2050.0,,,,0.126270088575508,0.0080295547832023,2.52348074231559,,2.393937465257307,,
,6353.0,940.0,6755.0,861.0,2237.0,2461.0,2035.0,,,,0.12621973570172,0.0076370431576487,2.52213091750738,,3.0743239030595406,,
,6358.0,940.0,6756.0,862.0,2244.0,2437.0,2064.0,,,,0.126131628693635,0.0073363786812301,2.52021135380972,,3.7222967387703503,,
,6361.0,942.0,6760.0,862.0,2251.0,2438.0,2074.0,,,,0.126089472489045,0.0070810599031945,2.51887486943035,,4.324073400908296,,
,6363.0,942.0,6759.0,862.0,2257.0,2442.0,2074.0,,,,0.126008009352923,0.0068794505427158,2.5179312668188,,4.866726962665829,,
,6365.0,942.0,6760.0,862.0,2261.0,2449.0,2077.0,,,,0.125971912154297,0.0065568782811204,2.51668439288757,,5.338403928274773,,
,6366.0,941.0,6760.0,863.0,2252.0,2440.0,2068.0,,,,0.125935041829375,0.006354906062741,2.51586958897294,,5.728546299491624,,
,6372.0,945.0,6761.0,866.0,2250.0,2446.0,2055.0,,,,0.125876891958445,0.0061590559168736,2.51384906185064,,6.028144432938821,,
,6375.0,944.0,6764.0,864.0,2250.0,2451.0,2049.0,,,,0.125840307015529,0.0059733093048241,2.51263323415082,,6.230032313507281,,
,6376.0,944.0,6767.0,868.0,2247.0,2452.0,2049.0,,,,0.125821546213866,0.0056925722527552,2.5122894115679,,6.329216480453996,,
,6380.0,945.0,6765.0,867.0,2242.0,2435.0,2050.0,,,,0.125805742484728,0.0054375162538686,2.51057628278614,,6.323208834320438,,
,6382.0,947.0,6765.0,866.0,2267.0,2441.0,2054.0,,,,0.125768686520296,0.0052165516429955,2.50926306927306,,6.212316923067608,,
2025-07-21 22:19:41,6386.0,946.0,6765.0,866.0,2244.0,2445.0,2048.0,,,2025/07/21 10:19:41 PM,0.125689210647277,0.0048403853480913,2.50779697563189,,5.99983769612742,,
,6385.0,952.0,6769.0,869.0,2239.0,2446.0,2050.0,,,,0.125573862236164,0.0045348793817283,2.50578652770677,,5.6921055719135705,,
,6388.0,948.0,6769.0,868.0,2247.0,2456.0,2050.0,,,,0.125499065192702,0.0041802407678226,2.50372809248267,,5.29836338684181,,
,6391.0,948.0,6770.0,867.0,2253.0,2455.0,2042.0,,,,0.12543300043911,0.0037506431520618,2.50192477585116,,4.830451189588896,,
,6393.0,950.0,6772.0,869.0,2249.0,2456.0,2067.0,,,,0.125370704846923,0.0034615132676545,2.50034225857679,,4.302334949559477,,
