TimeLabel,MEAS1_PPG1,MEAS1_PPG2,MEAS1_PPG3,MEAS1_PPG4,ACCX,ACCY,ACCZ,HR_timestamp,HR_value,radar_timestamp,phase_rx0,phase_rx1,phase_rx2,timestep,n_process,original_rate,calculated_rate
2025-08-01 18:41:13,6509.0,765.0,3583.0,619.0,-44.0,865.0,3884.0,2025-08-01 18:41:44,82.0,2025/08/01 06:41:13 PM,-0.972168693217728,-2.96661652019571,-1.04660329977363,2025/08/01 06:41:13 PM,-1.0900042415282738,21.5982723236084,21.79937304075235
,6513.0,766.0,3587.0,619.0,-51.0,862.0,3870.0,2025-08-01 18:41:45,82.0,,-0.972944851251751,-2.96672454931524,-1.04777297746555,2025/08/01 06:41:23 PM,-1.157896370001511,22.01467704772949,22.800346553715837
,6514.0,767.0,3587.0,619.0,-53.0,865.0,3866.0,2025-08-01 18:41:46,82.0,,-0.973352876147988,-2.96669838664743,-1.04735497866074,2025/08/01 06:41:33 PM,-1.2194932864093964,21.770681381225582,20.01130582249859
,6518.0,767.0,3588.0,620.0,-49.0,854.0,3889.0,2025-08-01 18:41:47,82.0,,-0.974268880734714,-2.96673475054587,-1.04718060892721,2025/08/01 06:41:43 PM,-1.274418189734485,21.660650253295895,19.35819630161247
,6520.0,765.0,3585.0,619.0,-38.0,887.0,3916.0,2025-08-01 18:41:48,82.0,,-0.97434137398717,-2.96664786343761,-1.04831339873354,2025/08/01 06:41:53 PM,-1.3214308785716962,20.7325496673584,22.169689547315947
,6520.0,766.0,3589.0,617.0,-57.0,888.0,3922.0,2025-08-01 18:41:49,82.0,,-0.974979700151823,-2.96678950592917,-1.0487358744332,2025/08/01 06:42:03 PM,-1.3585434898815352,20.61855697631836,22.852021920824782
,6523.0,769.0,3590.0,619.0,-60.0,875.0,3903.0,2025-08-01 18:41:50,83.0,,-0.974565375523453,-2.96675434287586,-1.04843908682315,2025/08/01 06:42:13 PM,-1.3831740745338361,22.01467704772949,19.719156762874913
,6525.0,769.0,3592.0,620.0,-65.0,850.0,3884.0,2025-08-01 18:41:51,83.0,,-0.97516735523411,-2.96667074019122,-1.04759341539229,2025/08/01 06:42:23 PM,-1.392321370577554,21.613832473754883,21.641238602509716
,6526.0,768.0,3593.0,617.0,-65.0,829.0,3881.0,2025-08-01 18:41:52,83.0,,-0.975078313114788,-2.96678749750297,-1.04843284522989,2025/08/01 06:42:33 PM,-1.3827493417201817,21.489971160888672,19.742063492063483
,6531.0,768.0,3597.0,620.0,-49.0,856.0,3885.0,2025-08-01 18:41:53,83.0,,-0.975438224772335,-2.96683246629997,-1.0486136933439,2025/08/01 06:42:43 PM,-1.3511747835243761,20.3389835357666,22.128631326744546
,6534.0,769.0,3597.0,619.0,-40.0,880.0,3888.0,2025-08-01 18:41:54,83.0,,-0.974666236517263,-2.96682904443084,-1.04826128260451,2025/08/01 06:42:53 PM,-1.2944546163668504,21.226415634155277,24.540969899665523
,6533.0,768.0,3598.0,619.0,-46.0,875.0,3891.0,2025-08-01 18:41:55,83.0,,-0.975144421141955,-2.96666653583927,-1.04845273493026,2025/08/01 06:43:03 PM,-1.2097712138312984,21.834060668945312,22.548562548562533
,6534.0,770.0,3599.0,619.0,-59.0,846.0,3897.0,2025-08-01 18:41:56,83.0,,-0.975665565930886,-2.96680515228664,-1.04803366018306,2025/08/01 06:43:13 PM,-1.094814611271988,23.239437103271484,20.755572034771173
,6539.0,772.0,3604.0,621.0,-57.0,859.0,3898.0,2025-08-01 18:41:57,82.0,,-0.975254091353862,-2.96681230907541,-1.04838976125997,2025/08/01 06:43:23 PM,-0.9479602838768562,22.774326324462887,19.573250065053365
,6541.0,771.0,3604.0,621.0,-49.0,869.0,3900.0,2025-08-01 18:41:58,82.0,,-0.975761065642437,-2.9668296375042,-1.04787648761515,2025/08/01 06:43:33 PM,-0.7684408205361959,21.14164924621582,19.36251920122887
,6541.0,771.0,3605.0,621.0,-44.0,877.0,3908.0,2025-08-01 18:41:59,82.0,,-0.975878392618803,-2.96682663316083,-1.04912043110967,2025/08/01 06:43:43 PM,-0.5565092016634693,19.838354110717773,19.606625258799163
,6546.0,772.0,3607.0,622.0,-50.0,883.0,3903.0,2025-08-01 18:42:00,81.0,,-0.975292558524456,-2.9667720319866,-1.04859792988398,2025/08/01 06:43:53 PM,-0.3135899269101551,19.926198959350582,22.227304491455453
,6545.0,773.0,3608.0,624.0,-50.0,863.0,3884.0,2025-08-01 18:42:01,81.0,,-0.975943567984016,-2.9669316299516,-1.0496196937303,2025/08/01 06:44:03 PM,-0.04241122435878894,20.34664535522461,20.11213357153289
,6550.0,774.0,3611.0,622.0,-39.0,856.0,3858.0,2025-08-01 18:42:02,80.0,,-0.976096613291573,-2.96709965973733,-1.04936084997287,,0.2528931130525582,,
,6553.0,775.0,3612.0,625.0,-47.0,881.0,3875.0,2025-08-01 18:42:03,80.0,,-0.976374650371333,-2.96700421357153,-1.04930675670526,,0.5667290551328689,,
,6555.0,774.0,3614.0,624.0,-44.0,874.0,3889.0,2025-08-01 18:42:04,79.0,,-0.976302790946914,-2.96690325993822,-1.04930375717303,,0.8920555555990429,,
,6556.0,774.0,3615.0,623.0,-48.0,886.0,3904.0,2025-08-01 18:42:05,80.0,,-0.975275044072045,-2.96682321827732,-1.04884495847093,,1.2204867941174857,,
,6559.0,774.0,3616.0,624.0,-53.0,881.0,3886.0,2025-08-01 18:42:06,80.0,,-0.974749399981888,-2.96687997429058,-1.04912206800433,,1.5425003455276431,,
,6563.0,776.0,3619.0,625.0,-58.0,858.0,3867.0,2025-08-01 18:42:07,80.0,,-0.974950720828682,-2.96692777165658,-1.04839234391591,,1.8477597546306306,,
,6565.0,777.0,3619.0,624.0,-59.0,858.0,3876.0,2025-08-01 18:42:08,80.0,,-0.975655052635516,-2.96700458769361,-1.04897283099169,,2.125548715633477,,
,6567.0,775.0,3620.0,626.0,-62.0,859.0,3884.0,2025-08-01 18:42:09,80.0,,-0.975492302034462,-2.96692003995287,-1.04850284229111,,2.3653013523101154,,
,6569.0,774.0,3620.0,625.0,-56.0,874.0,3886.0,2025-08-01 18:42:10,80.0,,-0.975551652721904,-2.96700129251643,-1.04852008260565,,2.55720006048573,,
,6571.0,778.0,3622.0,625.0,-45.0,881.0,3884.0,2025-08-01 18:42:11,79.0,,-0.976027273053029,-2.96691889930665,-1.04904471410082,,2.692800021322435,,
,6574.0,778.0,3625.0,625.0,-45.0,869.0,3880.0,2025-08-01 18:42:12,79.0,,-0.976550208874205,-2.96701748183923,-1.04923869452546,,2.7656291978626504,,
,6576.0,778.0,3626.0,628.0,-52.0,858.0,3880.0,2025-08-01 18:42:13,79.0,,-0.978200913188841,-2.9671600952145,-1.05081416100496,,2.7717062129028047,,
,6576.0,778.0,3627.0,626.0,-41.0,861.0,3892.0,2025-08-01 18:42:14,79.0,,-0.979956142662354,-2.96724636133404,-1.05091378030868,,2.7099179309669252,,
,6580.0,778.0,3628.0,627.0,-46.0,871.0,3896.0,2025-08-01 18:42:15,79.0,,-0.981605076001349,-2.9674134027013,-1.0525767648603,,2.582205480526126,,
,6580.0,777.0,3631.0,628.0,-51.0,865.0,3905.0,2025-08-01 18:42:16,79.0,,-0.98346926906499,-2.9675693986061,-1.05318584179338,,2.3935227584120664,,
,6579.0,776.0,3629.0,627.0,-55.0,869.0,3894.0,2025-08-01 18:42:17,79.0,,-0.985151306072999,-2.96757488810048,-1.05448849913129,,2.151554783196265,,
,6574.0,774.0,3626.0,626.0,-55.0,885.0,3870.0,2025-08-01 18:42:18,78.0,,-0.987367361106836,-2.96785469475392,-1.05577618806269,,1.866212275314133,,
,6569.0,774.0,3626.0,626.0,-49.0,867.0,3879.0,2025-08-01 18:42:19,78.0,,-0.990164755828585,-2.9679640534459,-1.05647187700974,,1.5489488022982216,,
,6564.0,775.0,3623.0,624.0,-37.0,877.0,3896.0,2025-08-01 18:42:20,78.0,,-0.991704088645139,-2.96815705222753,-1.05769286460683,,1.2119713203017868,,
,6560.0,773.0,3622.0,623.0,-48.0,888.0,3882.0,2025-08-01 18:42:21,77.0,,-0.993698797088236,-2.9681560731633,-1.05828555362719,,0.8674281461678731,,
,6552.0,773.0,3619.0,625.0,-48.0,884.0,3897.0,2025-08-01 18:42:22,77.0,,-0.993867373253445,-2.96825924159316,-1.05871179491393,,0.5266576066658564,,
,6542.0,770.0,3616.0,622.0,-45.0,869.0,3908.0,2025-08-01 18:42:23,76.0,,-0.993861622331365,-2.96835938039387,-1.05799515506632,,0.19956712724485418,,
,6541.0,770.0,3617.0,620.0,-60.0,860.0,3890.0,2025-08-01 18:42:24,76.0,,-0.994324277140481,-2.9683068536616,-1.05876198161466,,-0.10580954676885845,,
,6532.0,769.0,3611.0,620.0,-51.0,862.0,3891.0,2025-08-01 18:42:25,76.0,,-0.993991532691782,-2.96831274023919,-1.05788933696149,,-0.3835550204809911,,
,6527.0,766.0,3612.0,622.0,-50.0,870.0,3884.0,2025-08-01 18:42:26,76.0,,-0.99403450668827,-2.96832690814667,-1.05855801871875,,-0.6299138878398074,,
,6521.0,767.0,3610.0,620.0,-53.0,879.0,3872.0,2025-08-01 18:42:27,77.0,,-0.993152026230258,-2.96824883344824,-1.05827594581415,,-0.8431656457346001,,
,6516.0,765.0,3608.0,618.0,-52.0,887.0,3886.0,2025-08-01 18:42:28,77.0,,-0.991991615516303,-2.96821901592593,-1.05777841381034,,-1.0233646020525815,,
,6515.0,764.0,3609.0,621.0,-62.0,895.0,3892.0,2025-08-01 18:42:29,77.0,,-0.991690743412898,-2.96816948504331,-1.05720540276938,,-1.1719951216351916,,
,6509.0,763.0,3606.0,621.0,-54.0,892.0,3889.0,2025-08-01 18:42:30,78.0,,-0.991688957667903,-2.96816324700798,-1.05635085657647,,-1.2915922877775414,,
,6507.0,763.0,3604.0,618.0,-49.0,909.0,3897.0,2025-08-01 18:42:31,77.0,,-0.991505752249972,-2.96807519348987,-1.05673547714677,,-1.3853734445802062,,
,6502.0,762.0,3603.0,618.0,-49.0,897.0,3883.0,2025-08-01 18:42:32,77.0,,-0.990977655495496,-2.96810098830009,-1.05615546987764,,-1.4569161818334624,,
,6502.0,764.0,3601.0,619.0,-43.0,878.0,3876.0,2025-08-01 18:42:33,78.0,,-0.990230394812789,-2.96792192524564,-1.05674151273528,,-1.5099046422719562,,
,6501.0,764.0,3602.0,619.0,-46.0,861.0,3874.0,2025-08-01 18:42:34,78.0,,-0.989725807117251,-2.96795145654364,-1.05654543082481,,-1.5479505739781463,,
,6499.0,765.0,3600.0,617.0,-49.0,857.0,3879.0,2025-08-01 18:42:35,78.0,,-0.990137936901964,-2.96798560060032,-1.05622015641574,,-1.5744808559682089,,
,6498.0,763.0,3601.0,614.0,-59.0,870.0,3879.0,2025-08-01 18:42:36,78.0,,-0.99085238170835,-2.96801955581281,-1.05674062941686,,-1.592672095926178,,
,6499.0,766.0,3600.0,617.0,-59.0,875.0,3888.0,2025-08-01 18:42:37,79.0,,-0.990704376871452,-2.96800175625256,-1.05576613954215,,-1.6054075431586055,,
,6498.0,763.0,3601.0,616.0,-45.0,890.0,3888.0,2025-08-01 18:42:38,79.0,,-0.991160923280192,-2.9680306590368,-1.05602983841191,,-1.6152326092670226,,
,6498.0,762.0,3601.0,617.0,-51.0,891.0,3890.0,2025-08-01 18:42:39,79.0,,-0.991285415381161,-2.96798845213411,-1.05713523525928,,-1.6242916066517425,,
,6497.0,765.0,3601.0,618.0,-57.0,867.0,3894.0,2025-08-01 18:42:40,79.0,,-0.991009847900418,-2.96796540803983,-1.05656460796613,,-1.6342377559269141,,
,6497.0,764.0,3599.0,617.0,-55.0,861.0,3883.0,2025-08-01 18:42:41,79.0,,-0.991837128740044,-2.96811035206611,-1.05674609549075,,-1.6461189093223911,,
,6496.0,762.0,3600.0,616.0,-55.0,874.0,3896.0,2025-08-01 18:42:42,79.0,,-0.991944475516024,-2.96815417864333,-1.05679840058951,,-1.6602510892960298,,
,6497.0,763.0,3599.0,616.0,-50.0,875.0,3884.0,2025-08-01 18:42:43,79.0,,-0.991828122726511,-2.96815952919478,-1.05720827319073,,-1.676099571640679,,
,6496.0,763.0,3602.0,619.0,-57.0,881.0,3885.0,2025-08-01 18:42:44,79.0,,-0.991584191766638,-2.96817763810936,-1.05671539410795,,-1.6921918276825738,,
,6493.0,760.0,3599.0,617.0,-55.0,859.0,3906.0,2025-08-01 18:42:45,79.0,,-0.991469968769044,-2.9681125579546,-1.05654207909512,,-1.7060874342587702,,
,6493.0,763.0,3600.0,617.0,-53.0,862.0,3916.0,2025-08-01 18:42:46,79.0,,-0.991304497444681,-2.96808521815556,-1.05677538647184,,-1.7144267041025398,,
,6501.0,763.0,3601.0,617.0,-51.0,842.0,3888.0,2025-08-01 18:42:47,79.0,,-0.991716994384435,-2.96817769230411,-1.05692747548082,,-1.7130723389364522,,
,6500.0,765.0,3601.0,618.0,-48.0,844.0,3888.0,2025-08-01 18:42:48,79.0,,-0.990972851453197,-2.96805246094242,-1.05703484156899,,-1.6973473262368481,,
,6498.0,763.0,3603.0,618.0,-45.0,860.0,3898.0,2025-08-01 18:42:49,79.0,,-0.991324909472766,-2.96803175967257,-1.05701537177935,,-1.6623585613187102,,
,6497.0,763.0,3600.0,618.0,-48.0,874.0,3871.0,2025-08-01 18:42:50,79.0,,-0.992019676360716,-2.9681189758693,-1.05662164119435,,-1.6033810139808424,,
,6499.0,766.0,3605.0,617.0,-53.0,883.0,3888.0,2025-08-01 18:42:51,78.0,,-0.99243121465178,-2.96822957647934,-1.05630162772255,,-1.5162643837393954,,
,6502.0,764.0,3604.0,617.0,-57.0,875.0,3897.0,2025-08-01 18:42:52,78.0,,-0.992525697778516,-2.96816222845093,-1.05774317355782,,-1.3978164497372518,,
,6502.0,763.0,3603.0,618.0,-58.0,873.0,3904.0,2025-08-01 18:42:53,78.0,,-0.993535078695591,-2.96817792847299,-1.05753499713204,,-1.2461174955184484,,
,6501.0,763.0,3601.0,616.0,-51.0,875.0,3889.0,2025-08-01 18:42:54,78.0,,-0.993986895222511,-2.96820168058869,-1.05782861302872,,-1.0607290145252746,,
,6500.0,765.0,3603.0,618.0,-54.0,875.0,3917.0,2025-08-01 18:42:55,78.0,,-0.99422427024752,-2.96820485090633,-1.05742419116071,,-0.8427755445142038,,
,6503.0,764.0,3606.0,619.0,-59.0,867.0,3904.0,2025-08-01 18:42:56,78.0,,-0.994613935367301,-2.96833929924515,-1.05788101229034,,-0.5948973030883226,,
,6501.0,764.0,3605.0,617.0,-58.0,868.0,3908.0,2025-08-01 18:42:57,78.0,,-0.994888379401564,-2.96839843296075,-1.05825766562559,,-0.32108927870174453,,
,6496.0,762.0,3602.0,617.0,-46.0,878.0,3913.0,2025-08-01 18:42:58,78.0,,-0.994907453878872,-2.96839362066495,-1.05800498649208,,-0.02645632788121388,,
,6499.0,761.0,3606.0,617.0,-53.0,878.0,3905.0,2025-08-01 18:42:59,78.0,,-0.994895874101928,-2.96835155629082,-1.05805630278873,,0.28307826492270066,,
,6498.0,767.0,3602.0,620.0,-57.0,855.0,3896.0,2025-08-01 18:43:00,79.0,,-0.994691120414368,-2.96838800008847,-1.05762324486765,,0.60107191645372,,
,6500.0,765.0,3605.0,619.0,-53.0,858.0,3894.0,2025-08-01 18:43:01,78.0,,-0.994592497567853,-2.96835579562596,-1.05762681131391,,0.9208352534744254,,
,6497.0,765.0,3603.0,617.0,-52.0,868.0,3891.0,2025-08-01 18:43:02,78.0,,-0.994464936569982,-2.96828565222138,-1.05781334033964,,1.2356528787969054,,
,6497.0,764.0,3605.0,614.0,-46.0,872.0,3904.0,2025-08-01 18:43:03,78.0,,-0.994888007370687,-2.96844058549519,-1.05684519126095,,1.538939492695117,,
,6496.0,763.0,3603.0,620.0,-49.0,875.0,3891.0,2025-08-01 18:43:04,78.0,,-0.994693222476886,-2.96829113749337,-1.05825242311653,,1.8243320440791213,,
,6498.0,765.0,3604.0,618.0,-51.0,866.0,3890.0,2025-08-01 18:43:05,78.0,,-0.993999891737982,-2.96839949328939,-1.05790994291527,,2.0857318647256595,,
,6498.0,765.0,3605.0,617.0,-48.0,867.0,3893.0,2025-08-01 18:43:06,79.0,,-0.993839667678152,-2.96824728300424,-1.0580989490195,,2.3173219071281266,,
,6496.0,765.0,3604.0,618.0,-43.0,854.0,3901.0,2025-08-01 18:43:07,79.0,,-0.993974880641955,-2.96818902519129,-1.05742607746274,,2.513591031124595,,
,6499.0,760.0,3603.0,617.0,-50.0,862.0,3909.0,2025-08-01 18:43:08,79.0,,-0.992965660571557,-2.96832742428333,-1.05681313476205,,2.669397454918834,,
,6498.0,765.0,3607.0,619.0,-52.0,865.0,3892.0,2025-08-01 18:43:09,79.0,,-0.99350918215841,-2.96825440455102,-1.05719590554003,,2.78009578921308,,
,6499.0,764.0,3606.0,619.0,-53.0,858.0,3893.0,2025-08-01 18:43:10,79.0,,-0.992576603824498,-2.96823712743119,-1.05716635470093,,2.8417375004777927,,
,6500.0,765.0,3608.0,618.0,-58.0,856.0,3874.0,2025-08-01 18:43:11,79.0,,-0.992903617006412,-2.96825416297682,-1.0571162971367,,2.8513363102589495,,
,6504.0,763.0,3609.0,619.0,-55.0,881.0,3901.0,2025-08-01 18:43:12,80.0,,-0.992525326892792,-2.96817188103822,-1.05681378300485,,2.807171952319108,,
,6503.0,767.0,3609.0,619.0,-53.0,895.0,3902.0,2025-08-01 18:43:13,80.0,,-0.992189439835783,-2.96821129266739,-1.05645996387919,,2.7090915041785126,,
,6508.0,767.0,3613.0,619.0,-46.0,890.0,3921.0,2025-08-01 18:43:14,80.0,,-0.991783714506929,-2.96824722469203,-1.05700304533227,,2.5587597561501694,,
,6507.0,770.0,3611.0,619.0,-48.0,881.0,3923.0,2025-08-01 18:43:15,80.0,,-0.992293988756306,-2.9682054064128,-1.05695085208824,,2.3598102062034885,,
,6507.0,764.0,3611.0,618.0,-43.0,874.0,3904.0,2025-08-01 18:43:16,80.0,,-0.991708977895886,-2.96811131228983,-1.05653648509634,,2.1178565505449303,,
,6512.0,766.0,3614.0,620.0,-56.0,867.0,3901.0,2025-08-01 18:43:17,80.0,,-0.991168261351464,-2.96810953071478,-1.05603135098072,,1.8403400012117852,,
,6514.0,766.0,3615.0,622.0,-54.0,887.0,3890.0,2025-08-01 18:43:18,81.0,,-0.99121293659109,-2.96802288252869,-1.05623568203838,,1.5362082041414427,,
,6515.0,770.0,3618.0,621.0,-50.0,891.0,3888.0,2025-08-01 18:43:19,80.0,,-0.989872831009589,-2.96801782670807,-1.05570804428593,,1.215443887286259,,
,6518.0,770.0,3617.0,623.0,-50.0,883.0,3882.0,2025-08-01 18:43:20,80.0,,-0.989437105248297,-2.96802454822207,-1.05565269334432,,0.8884822499243711,,
,6519.0,769.0,3618.0,622.0,-48.0,886.0,3889.0,2025-08-01 18:43:21,80.0,,-0.989661033022843,-2.96793558513022,-1.05567542637875,,0.5655722980686986,,
,6521.0,770.0,3621.0,622.0,-48.0,884.0,3898.0,2025-08-01 18:43:22,80.0,,-0.989491195491062,-2.96794705256241,-1.05571974558933,,0.2561461762195139,,
,6523.0,770.0,3623.0,620.0,-40.0,884.0,3914.0,2025-08-01 18:43:23,79.0,,-0.98989300464307,-2.9680480382466,-1.05612978185477,,-0.03173964671380025,,
,6524.0,770.0,3626.0,622.0,-46.0,889.0,3912.0,2025-08-01 18:43:24,79.0,,-0.99014282427394,-2.9679549975879,-1.05551078347723,,-0.2918368550383318,,
,6525.0,769.0,3621.0,620.0,-51.0,896.0,3924.0,2025-08-01 18:43:25,78.0,,-0.99049872538762,-2.96813262647689,-1.05563698951491,,-0.5199737145880428,,
,6531.0,772.0,3623.0,622.0,-48.0,889.0,3890.0,2025-08-01 18:43:26,77.0,,-0.989898160741954,-2.96803431472478,-1.05617630728377,,-0.7141425478630554,,
,6530.0,771.0,3627.0,623.0,-61.0,863.0,3881.0,2025-08-01 18:43:27,77.0,,-0.990658892337037,-2.96808735478233,-1.05557261461733,,-0.8744104125693126,,
,6534.0,772.0,3628.0,624.0,-56.0,842.0,3876.0,2025-08-01 18:43:28,76.0,,-0.989568219194338,-2.96806575330812,-1.05617039388764,,-1.0026753687127314,,
,6536.0,773.0,3630.0,623.0,-46.0,859.0,3880.0,2025-08-01 18:43:29,76.0,,-0.989733542914325,-2.96801704812232,-1.05612346217297,,-1.1023042296132177,,
,6537.0,770.0,3629.0,625.0,-42.0,892.0,3901.0,2025-08-01 18:43:30,76.0,,-0.989134603810634,-2.96801291679177,-1.05627439923186,,-1.177695694521605,,
,6540.0,774.0,3630.0,625.0,-44.0,881.0,3905.0,2025-08-01 18:43:31,76.0,,-0.987491031207701,-2.96787146069075,-1.05387074744729,,-1.2338152785795566,,
,6543.0,772.0,3633.0,624.0,-44.0,884.0,3884.0,2025-08-01 18:43:32,76.0,,-0.987898425638105,-2.96779968167258,-1.05481502253309,,-1.2757460516214243,,
,6544.0,772.0,3635.0,624.0,-41.0,871.0,3900.0,2025-08-01 18:43:33,76.0,,-0.987975760414626,-2.96786219802246,-1.05456267914331,,-1.3082926763734009,,
,6546.0,774.0,3635.0,624.0,-48.0,877.0,3903.0,2025-08-01 18:43:34,76.0,,-0.987909290024884,-2.96794963600782,-1.05450498199627,,-1.3356664187163143,,
,6549.0,774.0,3637.0,626.0,-45.0,880.0,3891.0,2025-08-01 18:43:35,76.0,,-0.988443707578282,-2.96787437976014,-1.05481950730319,,-1.3612665495914515,,
,6549.0,773.0,3636.0,625.0,-52.0,886.0,3864.0,2025-08-01 18:43:36,76.0,,-0.988477248968444,-2.96794497396997,-1.05530428931604,,-1.387560051129278,,
,6553.0,774.0,3639.0,629.0,-51.0,878.0,3873.0,2025-08-01 18:43:37,76.0,,-0.988894593640321,-2.96784479139599,-1.05563153309696,,-1.4160485641786733,,
,6555.0,776.0,3641.0,628.0,-47.0,884.0,3882.0,2025-08-01 18:43:38,76.0,,-0.988803187118211,-2.9678688324254,-1.05491089989834,,-1.447301415143884,,
,6556.0,775.0,3641.0,626.0,-49.0,889.0,3885.0,2025-08-01 18:43:39,76.0,,-0.988150593784849,-2.96783233346701,-1.05512942728264,,-1.4810285824340443,,
,6560.0,777.0,3640.0,626.0,-51.0,891.0,3924.0,2025-08-01 18:43:40,76.0,,-0.987811166188703,-2.96779498616641,-1.05507131433063,,-1.5161686715611284,,
,6561.0,777.0,3644.0,625.0,-47.0,894.0,3937.0,2025-08-01 18:43:41,75.0,,-0.985996288502315,-2.96758414619004,-1.05385396446506,,-1.550973567123425,,
,6564.0,779.0,3642.0,630.0,-47.0,887.0,3924.0,2025-08-01 18:43:42,75.0,,-0.985152937913651,-2.96751749886036,-1.05295378146777,,-1.5830811506519633,,
,6562.0,776.0,3643.0,627.0,-48.0,870.0,3900.0,2025-08-01 18:43:43,75.0,,-0.984534455727596,-2.96748105165334,-1.05240080879075,,-1.6095776807551638,,
,6568.0,775.0,3643.0,628.0,-50.0,859.0,3877.0,2025-08-01 18:43:44,75.0,,-0.984445658500996,-2.96750039338081,-1.0520301593448,,-1.627060004541247,,
,6566.0,779.0,3645.0,631.0,-40.0,880.0,3890.0,2025-08-01 18:43:45,75.0,,-0.983573702459306,-2.96754881159868,-1.05231561254409,,-1.6317133072656724,,
,6569.0,777.0,3645.0,630.0,-47.0,890.0,3898.0,2025-08-01 18:43:46,74.0,,-0.984168639632279,-2.96757959609947,-1.05312552966205,,-1.619421801629065,,
,6569.0,778.0,3645.0,627.0,-50.0,891.0,3897.0,2025-08-01 18:43:47,74.0,,-0.98440881125599,-2.96752263973572,-1.05310177005096,,-1.5859273366795281,,
,6574.0,780.0,3648.0,629.0,-54.0,878.0,3879.0,2025-08-01 18:43:48,74.0,,-0.984408464646822,-2.96757548947085,-1.05293205525068,,-1.5270446714045183,,
,6576.0,779.0,3649.0,628.0,-49.0,870.0,3903.0,2025-08-01 18:43:49,74.0,,-0.985352688822991,-2.96750877136846,-1.05322887618436,,-1.4389329539478974,,
,6577.0,780.0,3651.0,631.0,-56.0,857.0,3906.0,2025-08-01 18:43:50,75.0,,-0.985797095353311,-2.96776164763777,-1.05399795914875,,-1.3184120448838066,,
,6576.0,778.0,3650.0,629.0,-54.0,862.0,3909.0,2025-08-01 18:43:51,75.0,,-0.986989165945682,-2.96770958876301,-1.05476356698864,,-1.1633013198233404,,
2025-08-01 18:41:14,6580.0,781.0,3652.0,630.0,-52.0,877.0,3904.0,2025-08-01 18:43:52,76.0,2025/08/01 06:41:14 PM,-0.987899319734172,-2.96769398830841,-1.05512865528769,,-0.9727493446180845,,
,6584.0,780.0,3656.0,633.0,-47.0,888.0,3880.0,2025-08-01 18:43:53,76.0,,-0.988979356462499,-2.96791493996294,-1.05581347392491,,-0.7475173346420125,,
,6583.0,779.0,3654.0,632.0,-49.0,862.0,3864.0,2025-08-01 18:43:54,77.0,,-0.990568213369618,-2.96797860720607,-1.05625118149407,,-0.4901792958530453,,
,6588.0,782.0,3654.0,632.0,-52.0,869.0,3860.0,2025-08-01 18:43:55,78.0,,-0.992552839151757,-2.96810943198513,-1.05756313557134,,-0.205207811653639,,
,6587.0,779.0,3654.0,632.0,-53.0,876.0,3901.0,2025-08-01 18:43:56,78.0,,-0.993558318659341,-2.96828339012352,-1.05784910089835,,0.1010745045711639,,
,6593.0,782.0,3655.0,632.0,-50.0,886.0,3920.0,2025-08-01 18:43:57,79.0,,-0.994674601052666,-2.96831822607479,-1.05871250125079,,0.4206842620103064,,
,6595.0,781.0,3657.0,632.0,-51.0,881.0,3914.0,2025-08-01 18:43:58,79.0,,-0.995237195811172,-2.96831695149213,-1.0584054637448,,0.7443000523825921,,
,6598.0,781.0,3656.0,634.0,-51.0,872.0,3906.0,2025-08-01 18:43:59,79.0,,-0.996629557463431,-2.96832007279987,-1.05944836027765,,1.0616997043884802,,
,6600.0,783.0,3658.0,635.0,-39.0,864.0,3865.0,2025-08-01 18:44:00,79.0,,-0.996944402983661,-2.96845793528862,-1.06064180735016,,1.3622835827366133,,
,6598.0,779.0,3657.0,630.0,-46.0,878.0,3874.0,2025-08-01 18:44:01,80.0,,-0.997246824165207,-2.96873056667042,-1.0595440867159,,1.6356484194482226,,
,6597.0,782.0,3657.0,633.0,-46.0,900.0,3890.0,2025-08-01 18:44:02,80.0,,-0.997253059908576,-2.96848573511553,-1.05950702167044,,1.872171388341517,,
,6596.0,780.0,3657.0,634.0,-54.0,901.0,3890.0,2025-08-01 18:44:03,80.0,,-0.996014182727553,-2.96848612498429,-1.05945830203427,,2.063561764996219,,
,6591.0,779.0,3656.0,636.0,-49.0,902.0,3884.0,2025-08-01 18:44:04,80.0,,-0.995993365232489,-2.96845163963519,-1.05884495817624,,2.2033379658954564,,
,6581.0,779.0,3653.0,632.0,-41.0,866.0,3880.0,2025-08-01 18:44:05,80.0,,-0.995103115281598,-2.96829085972473,-1.05829352710632,,2.2871916494094733,,
,6575.0,774.0,3650.0,630.0,-44.0,865.0,3858.0,2025-08-01 18:44:06,80.0,,-0.994346924537649,-2.96826015885527,-1.05852976562636,,2.313208441610216,,
,6569.0,776.0,3647.0,632.0,-40.0,874.0,3892.0,2025-08-01 18:44:07,81.0,,-0.993376222281847,-2.968289494923,-1.05889248448266,,2.2819267834127817,,
,6561.0,774.0,3643.0,629.0,-36.0,884.0,3898.0,2025-08-01 18:44:08,81.0,,-0.991735851583749,-2.96814344996418,-1.05714848711551,,2.196231502996448,,
,6551.0,774.0,3640.0,631.0,-48.0,876.0,3908.0,2025-08-01 18:44:09,81.0,,-0.990890664805017,-2.96815608243107,-1.05673797763139,,2.061094992502242,,
,6546.0,774.0,3638.0,628.0,-50.0,869.0,3885.0,2025-08-01 18:44:10,81.0,,-0.990148252156991,-2.96800145747543,-1.0568175497024,,1.8831936282131425,,
,6536.0,770.0,3635.0,629.0,-45.0,851.0,3910.0,2025-08-01 18:44:11,81.0,,-0.990359212553327,-2.96802829494538,-1.05573215489855,,1.6704379722473472,,
,6531.0,771.0,3634.0,629.0,-43.0,875.0,3910.0,2025-08-01 18:44:12,82.0,,-0.989479911562324,-2.96800603128269,-1.05577879748254,,1.43146108890152,,
,6525.0,769.0,3633.0,626.0,-44.0,884.0,3904.0,2025-08-01 18:44:13,82.0,,-0.989394194842303,-2.96789560727255,-1.05572379325284,,1.1751098020806323,,
,6519.0,767.0,3629.0,624.0,-40.0,890.0,3885.0,2025-08-01 18:44:14,82.0,,-0.988055436665267,-2.96790106491602,-1.05507212918754,,0.9099792851968058,,
,6514.0,766.0,3629.0,624.0,-44.0,886.0,3860.0,2025-08-01 18:44:15,82.0,,-0.988453900309681,-2.96783353193062,-1.05593311833596,,0.644022735106627,,
,6509.0,765.0,3625.0,624.0,-52.0,874.0,3860.0,2025-08-01 18:44:16,82.0,,-0.988127747966281,-2.96787348946439,-1.05564093526157,,0.38425618442531817,,
,6506.0,764.0,3625.0,625.0,-56.0,854.0,3862.0,2025-08-01 18:44:17,82.0,,-0.988313596610875,-2.9680082320483,-1.05566339256543,,0.13656536235254965,,
,6504.0,767.0,3624.0,625.0,-53.0,865.0,3884.0,2025-08-01 18:44:18,83.0,,-0.987897247303582,-2.96787795285086,-1.05457141525158,,-0.0943911532545727,,
,6501.0,763.0,3620.0,623.0,-42.0,877.0,3915.0,2025-08-01 18:44:19,83.0,,-0.987448303916565,-2.96780041277705,-1.05475265696623,,-0.30519846553859736,,
,6501.0,766.0,3621.0,624.0,-47.0,881.0,3915.0,2025-08-01 18:44:20,83.0,,-0.986546566562284,-2.96770941809979,-1.05485907694021,,-0.49364359707729055,,
,6496.0,765.0,3620.0,622.0,-55.0,878.0,3904.0,2025-08-01 18:44:21,83.0,,-0.986373193862708,-2.96763091177001,-1.05454374385841,,-0.6586383011255019,,
,6496.0,765.0,3620.0,625.0,-56.0,862.0,3892.0,2025-08-01 18:44:22,83.0,,-0.985573140216321,-2.96761431588688,-1.05425267938107,,-0.8001249141534772,,
,6494.0,763.0,3616.0,622.0,-58.0,873.0,3902.0,2025-08-01 18:44:23,83.0,,-0.984542213005733,-2.96757615072548,-1.05395007770929,,-0.9189753664409682,,
,6494.0,762.0,3616.0,624.0,-47.0,883.0,3901.0,2025-08-01 18:44:24,83.0,,-0.983688759219429,-2.96746938829652,-1.05324093655225,,-1.0168837179997605,,
,6493.0,764.0,3619.0,624.0,-45.0,890.0,3890.0,2025-08-01 18:44:25,83.0,,-0.982551075903272,-2.96741783782573,-1.05194451215003,,-1.0962446598590012,,
,6492.0,763.0,3618.0,622.0,-41.0,881.0,3878.0,2025-08-01 18:44:26,83.0,,-0.982483871597375,-2.96735405078486,-1.05229308505301,,-1.160006860354309,,
,6491.0,764.0,3616.0,623.0,-41.0,885.0,3880.0,2025-08-01 18:44:27,83.0,,-0.982484539744229,-2.96736277820831,-1.05261675541877,,-1.211491566142353,,
,6488.0,762.0,3614.0,622.0,-52.0,860.0,3890.0,2025-08-01 18:44:28,83.0,,-0.981758242777223,-2.96736198854656,-1.05170507253725,,-1.2541724519682085,,
,6489.0,765.0,3614.0,624.0,-48.0,886.0,3903.0,2025-08-01 18:44:29,83.0,,-0.980812825752575,-2.96721647571515,-1.05127112440109,,-1.2914205349281314,,
,6492.0,764.0,3617.0,625.0,-51.0,898.0,3901.0,2025-08-01 18:44:30,83.0,,-0.980487499104888,-2.9672867154045,-1.05161302455339,,-1.3262262956705009,,
,6489.0,763.0,3615.0,623.0,-52.0,891.0,3882.0,2025-08-01 18:44:31,84.0,,-0.979807828253452,-2.96731237978803,-1.0508682343113,,-1.3609186162702362,,
,6487.0,762.0,3613.0,621.0,-58.0,876.0,3882.0,2025-08-01 18:44:32,84.0,,-0.979755742486641,-2.967230820703,-1.05138403455038,,-1.396905684128627,,
,6490.0,764.0,3612.0,622.0,-50.0,864.0,3881.0,2025-08-01 18:44:33,84.0,,-0.979418268230904,-2.96723459112462,-1.05114679961952,,-1.4344657778399368,,
,6492.0,765.0,3616.0,625.0,-43.0,890.0,3908.0,2025-08-01 18:44:34,84.0,,-0.97887971963755,-2.96722014522232,-1.05040871937992,,-1.4726152542611417,,
,6492.0,765.0,3616.0,621.0,-46.0,897.0,3913.0,2025-08-01 18:44:35,85.0,,-0.978108047261401,-2.96702947642366,-1.05120869616347,,-1.5090767971546224,,
,6493.0,762.0,3615.0,623.0,-40.0,882.0,3910.0,2025-08-01 18:44:36,85.0,,-0.977316994834707,-2.96703305041736,-1.04933447884692,,-1.5403630650165805,,
,6492.0,761.0,3614.0,622.0,-29.0,887.0,3886.0,2025-08-01 18:44:37,86.0,,-0.976244209450187,-2.96700011305904,-1.04885319470987,,-1.5619796460305218,,
,6491.0,767.0,3615.0,624.0,-37.0,874.0,3881.0,2025-08-01 18:44:38,86.0,,-0.975682016866097,-2.96693766942394,-1.04910003423058,,-1.5687375872634113,,
,6493.0,763.0,3614.0,624.0,-40.0,859.0,3890.0,2025-08-01 18:44:39,87.0,,-0.975899488969868,-2.96694771347398,-1.04913205219629,,-1.5551514197962046,,
,6493.0,763.0,3614.0,622.0,-47.0,877.0,3898.0,2025-08-01 18:44:40,87.0,,-0.975056779367892,-2.96692795183766,-1.0486079455608,,-1.5158861667539316,,
,6490.0,761.0,3611.0,625.0,-50.0,903.0,3884.0,2025-08-01 18:44:41,87.0,,-0.975104077841305,-2.96688671137544,-1.04971647700899,,-1.4462092398208153,,
,6489.0,763.0,3614.0,622.0,-49.0,891.0,3904.0,2025-08-01 18:44:42,87.0,,-0.974714773526172,-2.96693372473771,-1.04853801517445,,-1.3424024082662498,,
,6488.0,761.0,3612.0,624.0,-51.0,880.0,3890.0,2025-08-01 18:44:43,86.0,,-0.97540334065128,-2.96685270310527,-1.04947635526067,,-1.2020952548971116,,
,6487.0,762.0,3610.0,623.0,-49.0,880.0,3890.0,,,,-0.975375050107618,-2.9668722817725,-1.04940911518551,,-1.0244930493323796,,
,6485.0,761.0,3611.0,624.0,-35.0,872.0,3895.0,,,,-0.974742913537092,-2.96687333779118,-1.0491535901762,,-0.8104862813358233,,
,6485.0,763.0,3609.0,621.0,-39.0,884.0,3880.0,,,,-0.975155217737282,-2.96690044871884,-1.04905191206548,,-0.5626437189684258,,
,6482.0,763.0,3610.0,624.0,-52.0,891.0,3881.0,,,,-0.974743731608267,-2.96679844821421,-1.04931129339025,,-0.28510367340097414,,
,6484.0,762.0,3611.0,626.0,-50.0,891.0,3862.0,,,,-0.975033079140961,-2.96677828910698,-1.04837236696267,,0.016612485712759854,,
,6482.0,763.0,3611.0,624.0,-52.0,879.0,3861.0,,,,-0.975275528353539,-2.96684570486296,-1.04916308801571,,0.3358357651636616,,
,6482.0,760.0,3608.0,624.0,-58.0,885.0,3875.0,,,,-0.975783753369702,-2.96692115980988,-1.04867305646179,,0.6650055559414934,,
,6481.0,763.0,3610.0,623.0,-37.0,896.0,3904.0,,,,-0.97577688495618,-2.96691481481235,-1.04848143389253,,0.9959232736224267,,
,6482.0,761.0,3611.0,625.0,-44.0,893.0,3922.0,,,,-0.975375012580882,-2.96689283448182,-1.04812754727048,,1.3199901354784882,,
,6481.0,762.0,3609.0,623.0,-52.0,889.0,3916.0,,,,-0.975636601483964,-2.9668571975009,-1.04896252196528,,1.628427209880309,,
,6482.0,763.0,3608.0,625.0,-56.0,874.0,3886.0,,,,-0.975966714821514,-2.96697714736045,-1.04932434650298,,1.9124872200383338,,
,6480.0,760.0,3608.0,622.0,-46.0,863.0,3888.0,,,,-0.97688347930379,-2.96699123055949,-1.04946631068746,,2.163675757459434,,
,6481.0,758.0,3608.0,623.0,-46.0,880.0,3885.0,,,,-0.976332859438654,-2.96695244993842,-1.04921390156813,,2.3740017851324953,,
,6483.0,762.0,3609.0,624.0,-39.0,897.0,3905.0,,,,-0.976580220405691,-2.96705906921986,-1.04920697491187,,2.5362719384311987,,
,6484.0,762.0,3608.0,621.0,-37.0,904.0,3898.0,,,,-0.976671811953729,-2.96698013692778,-1.05010226731787,,2.644430677292601,,
,6486.0,761.0,3608.0,624.0,-50.0,884.0,3889.0,,,,-0.97693286509024,-2.96697659672752,-1.04957014455205,,2.693931617284499,,
,6486.0,763.0,3607.0,623.0,-52.0,877.0,3902.0,,,,-0.977028236375279,-2.96707592125781,-1.04998746472769,,2.6821084577046057,,
,6488.0,763.0,3608.0,622.0,-49.0,865.0,3893.0,,,,-0.977487028589326,-2.96707126270122,-1.05004469001189,,2.608500824926822,,
,6488.0,763.0,3613.0,626.0,-48.0,885.0,3907.0,,,,-0.976960125691629,-2.96703907352479,-1.04985134931323,,2.475084109845838,,
,6490.0,763.0,3610.0,625.0,-36.0,890.0,3916.0,,,,-0.976102656821119,-2.96693043095486,-1.04899197112373,,2.2863548440234385,,
,6488.0,762.0,3611.0,624.0,-38.0,889.0,3881.0,,,,-0.975865382559524,-2.96689567607972,-1.04937554643883,,2.0492348098904323,,
,6492.0,764.0,3612.0,626.0,-43.0,864.0,3884.0,,,,-0.975543838678794,-2.96694451277123,-1.04951996667517,,1.7727767631233788,,
,6496.0,765.0,3613.0,625.0,-47.0,887.0,3895.0,,,,-0.975001006466057,-2.96699443509081,-1.04805382015915,,1.467679470724883,,
,6495.0,764.0,3615.0,625.0,-48.0,888.0,3895.0,,,,-0.974407065762175,-2.96690270546615,-1.04835309697595,,1.1456455380565036,,
,6495.0,763.0,3612.0,625.0,-31.0,890.0,3893.0,,,,-0.973642823076733,-2.96672196952209,-1.04800276504947,,0.8186376875338708,,
,6497.0,764.0,3615.0,627.0,-40.0,893.0,3885.0,,,,-0.972595075412434,-2.96685555034941,-1.04823576803516,,0.49810401937097426,,
,6501.0,763.0,3615.0,625.0,-49.0,874.0,3868.0,,,,-0.972651721041224,-2.96666581038409,-1.04793419971127,,0.19424806003806078,,
,6501.0,766.0,3616.0,628.0,-45.0,868.0,3875.0,,,,-0.971695400891541,-2.96661248214881,-1.04701398792815,,-0.08458555249733608,,
,6506.0,766.0,3613.0,628.0,-49.0,874.0,3873.0,,,,-0.970631976872825,-2.96665482606788,-1.04715251866123,,-0.3323531091850797,,
,6503.0,764.0,3614.0,627.0,-45.0,897.0,3884.0,,,,-0.970264469419781,-2.96647914828733,-1.04621261096048,,-0.5455458887358255,,
,6505.0,765.0,3618.0,627.0,-39.0,903.0,3881.0,,,,-0.969338257457373,-2.96640265778091,-1.04556347703413,,-0.7232045161727636,,
,6507.0,766.0,3616.0,629.0,-56.0,878.0,3885.0,,,,-0.969452337259719,-2.9664440323241,-1.04610449536914,,-0.86672512298695,,
,6510.0,766.0,3620.0,629.0,-58.0,866.0,3891.0,,,,-0.969518908487238,-2.96629669574523,-1.04581961026961,,-0.9794882961345609,,
,6508.0,766.0,3619.0,627.0,-41.0,851.0,3874.0,,,,-0.96822367298861,-2.96634155444556,-1.04549267559424,,-1.0663559225092185,,
,6510.0,767.0,3618.0,626.0,-39.0,892.0,3872.0,,,,-0.967460155643984,-2.96626946164936,-1.04536340772467,,-1.1330892901661178,,
,6517.0,768.0,3620.0,629.0,-35.0,900.0,3902.0,,,,-0.966978186979751,-2.96624358700609,-1.04463624099904,,-1.1857443449888319,,
,6516.0,769.0,3622.0,629.0,-26.0,897.0,3901.0,,,,-0.967086543082057,-2.96627901761623,-1.04510835264848,,-1.230097295532624,,
,6519.0,766.0,3620.0,630.0,-36.0,899.0,3891.0,,,,-0.966511163492976,-2.96615389471249,-1.04497782916312,,-1.2711465256195198,,
,6516.0,766.0,3619.0,628.0,-55.0,879.0,3907.0,,,,-0.966841882534944,-2.96626475619065,-1.0447035458038,,-1.3127259436301504,,
,6519.0,768.0,3623.0,630.0,-47.0,877.0,3899.0,,,,-0.967698657177583,-2.96635299878066,-1.04492421679426,,-1.3572515482171994,,
,6522.0,768.0,3624.0,629.0,-38.0,884.0,3925.0,,,,-0.966455910334432,-2.96617597415201,-1.04376682930461,,-1.4056083356878353,,
,6524.0,768.0,3623.0,632.0,-37.0,884.0,3914.0,,,,-0.965460431838533,-2.96613392773228,-1.04371170786315,,-1.4571702038231895,,
,6521.0,768.0,3624.0,632.0,-46.0,872.0,3862.0,,,,-0.963777829436773,-2.96625221732058,-1.04391108614313,,-1.5099331390573445,,
,6524.0,768.0,3622.0,629.0,-41.0,855.0,3899.0,,,,-0.963855737184963,-2.96603493283072,-1.0435099455374,,-1.560733750277591,,
,6528.0,770.0,3624.0,631.0,-44.0,861.0,3889.0,,,,-0.964197363778856,-2.96601296946358,-1.04269378494974,,-1.6055223780922427,,
,6529.0,769.0,3624.0,631.0,-44.0,874.0,3898.0,,,,-0.964577470350761,-2.96608608765919,-1.04340172463804,,-1.6396622393954836,,
,6529.0,773.0,3627.0,633.0,-49.0,891.0,3903.0,,,,-0.965443888205886,-2.96609549798951,-1.0446026185212,,-1.6582316791852003,,
,6532.0,769.0,3627.0,630.0,-50.0,892.0,3883.0,,,,-0.966988446981536,-2.96633278301036,-1.04463416619693,,-1.656313498133003,,
,6532.0,771.0,3629.0,631.0,-55.0,875.0,3871.0,,,,-0.968861070911206,-2.96643474130472,-1.04577672053458,,-1.6292618056533632,,
,6535.0,769.0,3630.0,632.0,-52.0,864.0,3904.0,,,,-0.970778864305085,-2.96660120760673,-1.04745493912456,,-1.572941894219115,,
,6535.0,772.0,3631.0,633.0,-47.0,870.0,3904.0,,,,-0.972315558018879,-2.96669339105738,-1.04777688814105,,-1.4839418898621999,,
,6540.0,770.0,3632.0,633.0,-42.0,875.0,3897.0,,,,-0.973235553268404,-2.96669069236976,-1.04848500264874,,-1.3597566435255852,,
,6538.0,770.0,3631.0,633.0,-44.0,896.0,3889.0,,,,-0.973613677081545,-2.96681454370169,-1.04831494761888,,-1.198945077411719,,
,6542.0,773.0,3632.0,635.0,-51.0,892.0,3897.0,,,,-0.973811064702185,-2.96682280338802,-1.04911059635108,,-1.0012624558869994,,
,6545.0,772.0,3636.0,635.0,-51.0,885.0,3898.0,,,,-0.974662167130278,-2.9668600872402,-1.04897523044971,,-0.7677687111802018,,
,6548.0,770.0,3637.0,635.0,-43.0,876.0,3879.0,,,,-0.974166962047865,-2.96687185855176,-1.04826150670062,,-0.5009123611245836,,
,6545.0,773.0,3638.0,632.0,-46.0,880.0,3895.0,,,,-0.97457924819266,-2.96682547196623,-1.04908674371959,,-0.2045860805362093,,
,6551.0,773.0,3637.0,634.0,-31.0,893.0,3917.0,,,,-0.974637026089652,-2.96678067889959,-1.04905837461851,,0.11585512810973854,,
,6551.0,771.0,3638.0,637.0,-42.0,889.0,3892.0,,,,-0.974553467225265,-2.96689424615467,-1.04952020504973,,0.4536274168058837,,
,6551.0,773.0,3637.0,636.0,-42.0,888.0,3885.0,,,,-0.97422982699958,-2.96677061755535,-1.04881207907831,,0.8006204274478945,,
,6553.0,773.0,3638.0,634.0,-44.0,875.0,3883.0,,,,-0.974620114959152,-2.96681723484926,-1.04927435016934,,1.1475845892411207,,
,6550.0,773.0,3638.0,635.0,-33.0,880.0,3914.0,,,,-0.973593076740378,-2.96670275232543,-1.04902016937848,,1.484414037956688,,
,6546.0,773.0,3639.0,636.0,-39.0,894.0,3909.0,,,,-0.973216676471743,-2.96678968020256,-1.04815761770011,,1.8005269454676252,,
,6539.0,769.0,3639.0,634.0,-42.0,885.0,3909.0,,,,-0.972978111299033,-2.9666199884706,-1.04800756657606,,2.0853340816184436,,
,6534.0,768.0,3636.0,635.0,-44.0,861.0,3916.0,,,,-0.97234987890283,-2.96661910596718,-1.04825674228322,,2.3287745541162512,,
,6528.0,767.0,3630.0,633.0,-48.0,879.0,3897.0,,,,-0.972324698249166,-2.96654810457268,-1.04789209580742,,2.5218859855056106,,
,6518.0,768.0,3630.0,634.0,-43.0,875.0,3918.0,,,,-0.971739927264783,-2.96662346165981,-1.04791377613967,,2.6573661756997344,,
,6509.0,764.0,3626.0,632.0,-41.0,886.0,3884.0,,,,-0.972590735066803,-2.9666638753389,-1.04756575451638,,2.730076133842132,,
,6504.0,765.0,3626.0,633.0,-33.0,888.0,3894.0,,,,-0.972664751781271,-2.96677843435033,-1.04783619108963,,2.7374319816280197,,
,6496.0,760.0,3624.0,631.0,-40.0,886.0,3898.0,,,,-0.973442028642367,-2.96667735702056,-1.04787782986834,,2.6796373098736175,,
,6490.0,760.0,3623.0,630.0,-41.0,875.0,3872.0,,,,-0.973728165960888,-2.96678574618238,-1.04851964658433,,2.5597193310253554,,
,6483.0,762.0,3621.0,630.0,-42.0,878.0,3881.0,,,,-0.9738313572124,-2.96674320099796,-1.04923946885782,,2.383351670511484,,
,6479.0,762.0,3619.0,630.0,-52.0,885.0,3890.0,,,,-0.973634230919288,-2.96663318693246,-1.04832167093571,,2.158471927963975,,
,6473.0,759.0,3620.0,627.0,-51.0,872.0,3893.0,,,,-0.972632947008577,-2.96672441893912,-1.04773072129986,,1.894728917416359,,
,6470.0,759.0,3617.0,628.0,-40.0,884.0,3891.0,,,,-0.973246471347258,-2.96664597899055,-1.04775203619752,,1.6028170378949744,,
,6469.0,762.0,3618.0,627.0,-42.0,889.0,3876.0,,,,-0.973443182817068,-2.96669640343483,-1.04806111971687,,1.2937684633068443,,
2025-08-01 18:41:15,6466.0,761.0,3617.0,628.0,-37.0,876.0,3894.0,,,2025/08/01 06:41:15 PM,-0.973838123761918,-2.96667550265921,-1.04825634336829,,0.9782753595862037,,
,6462.0,761.0,3618.0,628.0,-34.0,875.0,3882.0,,,,-0.973689919643587,-2.96668385000434,-1.04812730734429,,0.6661049327327054,,
,6459.0,758.0,3614.0,627.0,-48.0,882.0,3884.0,,,,-0.973290558558702,-2.96666604922323,-1.0482744319253,,0.3656528015542527,,
,6460.0,760.0,3616.0,627.0,-57.0,875.0,3887.0,,,,-0.973621287098033,-2.96667844852882,-1.04798372890626,,0.08365878542435685,,
,6458.0,760.0,3616.0,627.0,-45.0,863.0,3887.0,,,,-0.97411642604192,-2.96683097269921,-1.04785262725453,,-0.17491264911199514,,
,6459.0,759.0,3615.0,626.0,-41.0,867.0,3879.0,,,,-0.973055426278595,-2.96675323800744,-1.04859342609148,,-0.40684428332603356,,
,6458.0,759.0,3614.0,628.0,-47.0,888.0,3881.0,,,,-0.973108740995881,-2.96669720758538,-1.04809543657524,,-0.6105218140846369,,
,6458.0,760.0,3615.0,627.0,-50.0,895.0,3889.0,,,,-0.972932383821976,-2.96669483019773,-1.04789212530398,,-0.7857130528232227,,
,6459.0,759.0,3617.0,628.0,-43.0,898.0,3908.0,,,,-0.97274850864602,-2.96671551746027,-1.04786965259788,,-0.9333121891190206,,
,6460.0,761.0,3618.0,630.0,-36.0,900.0,3913.0,,,,-0.973177808336074,-2.96674312645781,-1.04834767665353,,-1.0550861332100827,,
,6461.0,760.0,3617.0,631.0,-38.0,897.0,3904.0,,,,-0.973167062677263,-2.96667472073681,-1.04803705534633,,-1.153450080580611,,
,6460.0,758.0,3619.0,628.0,-51.0,888.0,3882.0,,,,-0.974017756874254,-2.96683571542177,-1.04835177169421,,-1.2312859815893529,,
,6460.0,762.0,3619.0,628.0,-29.0,862.0,3914.0,,,,-0.974798943004885,-2.96679687564594,-1.04904459303071,,-1.2918032513036337,,
,6462.0,761.0,3620.0,629.0,-38.0,884.0,3898.0,,,,-0.976465325026666,-2.96690203877978,-1.04950660239641,,-1.3384290911172316,,
,6465.0,761.0,3619.0,629.0,-45.0,873.0,3873.0,,,,-0.97689804720649,-2.96699403872802,-1.04957305619751,,-1.3747089614933006,,
,6464.0,763.0,3621.0,629.0,-36.0,869.0,3890.0,,,,-0.97670676394783,-2.96710982974437,-1.05019592668036,,-1.4041971036920757,,
,6463.0,761.0,3621.0,631.0,-42.0,873.0,3907.0,,,,-0.976373791000898,-2.96696376954709,-1.04910037387647,,-1.4303217158010428,,
,6467.0,762.0,3622.0,629.0,-54.0,882.0,3898.0,,,,-0.975899508040791,-2.96691842655532,-1.04919833870986,,-1.4562175289062123,,
,6467.0,761.0,3621.0,629.0,-47.0,867.0,3891.0,,,,-0.975464142565023,-2.96675977398129,-1.04928204876006,,-1.4845281101498395,,
,6467.0,763.0,3623.0,629.0,-52.0,876.0,3890.0,,,,-0.974999605328049,-2.96676355073555,-1.04906720961615,,-1.5171896264305265,,
,6466.0,764.0,3625.0,629.0,-46.0,876.0,3871.0,,,,-0.974867524569642,-2.96674109901437,-1.04880715834669,,-1.5552157823497175,,
,6466.0,760.0,3623.0,628.0,-29.0,875.0,3884.0,,,,-0.973986404585678,-2.96669593586509,-1.04854544117718,,-1.5985092326779695,,
,6466.0,762.0,3624.0,630.0,-35.0,892.0,3873.0,,,,-0.973554618341435,-2.96686372713836,-1.04754458556555,,-1.6457272735745971,,
,6468.0,763.0,3626.0,629.0,-37.0,888.0,3873.0,,,,-0.973742400928515,-2.96676667573295,-1.04905601164917,,-1.6942285496748326,,
,6463.0,761.0,3627.0,630.0,-45.0,873.0,3902.0,,,,-0.973263249784167,-2.96664547831432,-1.04787357594532,,-1.7401225103955125,,
,6462.0,763.0,3627.0,628.0,-42.0,884.0,3923.0,,,,-0.972563966252446,-2.96682395359701,-1.04797838801756,,-1.7784342873922452,,
,6464.0,762.0,3626.0,631.0,-42.0,896.0,3901.0,,,,-0.97207761591719,-2.96658509528517,-1.04741039139574,,-1.8033849903394774,,
,6464.0,762.0,3628.0,633.0,-44.0,881.0,3897.0,,,,-0.971261358566674,-2.96661241754721,-1.04710218090233,,-1.80877249585961,,
,6462.0,763.0,3628.0,628.0,-50.0,881.0,3894.0,,,,-0.970660943953747,-2.96662209083072,-1.04655647997445,,-1.7884230908590475,,
,6461.0,761.0,3628.0,630.0,-53.0,864.0,3895.0,,,,-0.970043829829063,-2.9664981863043,-1.04650317872698,,-1.7366729516711665,,
,6459.0,760.0,3628.0,630.0,-57.0,878.0,3878.0,,,,-0.969395137323873,-2.96656604953849,-1.04589822378328,,-1.6488330406969396,,
,6459.0,762.0,3627.0,629.0,-57.0,888.0,3919.0,,,,-0.968643376710383,-2.9664730265309,-1.04617346593372,,-1.521592649537163,,
,6458.0,762.0,3630.0,629.0,-54.0,887.0,3919.0,,,,-0.968253388385562,-2.9663638866233,-1.04573153346987,,-1.3533248608661257,,
,6461.0,760.0,3628.0,631.0,-30.0,881.0,3898.0,,,,-0.967409905846336,-2.96629909143935,-1.04518205390773,,-1.1442699293969174,,
,6459.0,759.0,3628.0,627.0,-41.0,882.0,3891.0,,,,-0.966029591703535,-2.96623158579361,-1.04424760462684,,-0.8965878258012737,,
,6460.0,763.0,3630.0,631.0,-51.0,862.0,3898.0,,,,-0.96551569486268,-2.96605981954952,-1.04419364569939,,-0.6142865478065884,,
,6459.0,763.0,3632.0,631.0,-46.0,872.0,3903.0,,,,-0.965637402726349,-2.96614537525818,-1.04362750844158,,-0.3030458472134864,,
,6461.0,764.0,3632.0,630.0,-39.0,876.0,3899.0,,,,-0.964970629444854,-2.96618631419757,-1.04385918822018,,0.03003531857728887,,
,6463.0,761.0,3636.0,631.0,-49.0,859.0,3897.0,,,,-0.96524564826129,-2.96615377389076,-1.04350902841916,,0.37673630115599593,,
,6463.0,761.0,3630.0,631.0,-47.0,881.0,3866.0,,,,-0.965267319963421,-2.96613664671683,-1.04403582909644,,0.7280288291444945,,
,6466.0,764.0,3634.0,632.0,-46.0,878.0,3867.0,,,,-0.965421314680262,-2.96601313872542,-1.04394919619948,,1.074387171438844,,
,6467.0,764.0,3634.0,631.0,-44.0,882.0,3884.0,,,,-0.965879015214557,-2.96626905667011,-1.04478589537889,,1.4060851039451239,,
,6468.0,766.0,3637.0,632.0,-53.0,883.0,3884.0,,,,-0.965177754260596,-2.96614368653162,-1.04393513646297,,1.713482063533227,,
,6467.0,764.0,3638.0,632.0,-56.0,888.0,3914.0,,,,-0.96481084710817,-2.96605841187045,-1.04353121077692,,1.9873098116689176,,
,6470.0,767.0,3639.0,633.0,-46.0,857.0,3881.0,,,,-0.963547078844034,-2.96598032948227,-1.0430914239141,,2.218974079497648,,
,6474.0,767.0,3641.0,633.0,-48.0,876.0,3877.0,,,,-0.96328147465872,-2.96603933038016,-1.04370895552425,,2.400881358776459,,
,6475.0,769.0,3641.0,633.0,-52.0,877.0,3874.0,,,,-0.963521655264015,-2.96599366532671,-1.04282619442044,,2.5267899475927917,,
,6479.0,765.0,3641.0,631.0,-41.0,888.0,3893.0,,,,-0.96417066547427,-2.96599452970151,-1.04334460350011,,2.592169528892828,,
,6479.0,766.0,3643.0,634.0,-47.0,899.0,3894.0,,,,-0.963973620976343,-2.96607476583083,-1.04314218208232,,2.5945389649867234,,
,6483.0,770.0,3646.0,633.0,-56.0,897.0,3879.0,,,,-0.963990813327236,-2.9660677507401,-1.04336457902882,,2.5337413280457786,,
,6485.0,769.0,3647.0,634.0,-53.0,889.0,3882.0,,,,-0.964545579115965,-2.96601998832663,-1.04365450861918,,2.4121111384810483,,
,6485.0,769.0,3646.0,635.0,-53.0,879.0,3876.0,,,,-0.964729785938384,-2.96611129704814,-1.04388044154573,,2.2344928389235603,,
,6484.0,769.0,3650.0,633.0,-50.0,879.0,3905.0,,,,-0.965013862340769,-2.9661668464384,-1.04413822756103,,2.008081823507907,,
,6487.0,768.0,3648.0,636.0,-42.0,880.0,3908.0,,,,-0.965302893447953,-2.9660740580559,-1.04422685085728,,1.7420784487996104,,
,6494.0,770.0,3653.0,637.0,-45.0,876.0,3903.0,,,,-0.964868606460715,-2.96615142381781,-1.04360766862535,,1.4471684952046613,,
,6495.0,770.0,3653.0,635.0,-49.0,868.0,3902.0,,,,-0.965132329974709,-2.96616171922439,-1.04271569132835,,1.1348667575948206,,
,6495.0,770.0,3655.0,636.0,-52.0,875.0,3871.0,,,,-0.965128301431983,-2.96617419143254,-1.04349582949139,,0.8167800167796487,,
,6499.0,770.0,3653.0,637.0,-45.0,880.0,3898.0,,,,-0.965409391735998,-2.96605767170006,-1.04421381553411,,0.5038584700543582,,
,6501.0,773.0,3656.0,638.0,-40.0,899.0,3910.0,,,,-0.96612347050271,-2.96615408722825,-1.04439583823762,,0.20570870030226673,,
,6502.0,773.0,3659.0,635.0,-43.0,899.0,3909.0,,,,-0.966152320041992,-2.9662672081616,-1.04474109049027,,-0.06996444015730369,,
,6502.0,772.0,3659.0,636.0,-62.0,868.0,3881.0,,,,-0.966151192095587,-2.96622879151073,-1.04468222419296,,-0.31773438847584873,,
,6503.0,770.0,3658.0,639.0,-55.0,855.0,3898.0,,,,-0.966029837432744,-2.96615358523797,-1.0438919066602,,-0.5346165429372237,,
,6507.0,774.0,3661.0,640.0,-50.0,880.0,3892.0,,,,-0.965913918951219,-2.96611192072873,-1.04406413910402,,-0.7200119035833782,,
,6511.0,773.0,3662.0,639.0,-53.0,878.0,3885.0,,,,-0.966103651963205,-2.96628233289929,-1.04399754256335,,-0.8754467926427171,,
,6515.0,774.0,3666.0,638.0,-49.0,882.0,3883.0,,,,-0.966192983363649,-2.96631435361592,-1.04427426684796,,-1.0041441897744614,,
,6511.0,774.0,3663.0,638.0,-51.0,867.0,3893.0,,,,-0.966368376765463,-2.96611446711016,-1.04427553793065,,-1.1104761719860383,,
,6516.0,776.0,3666.0,639.0,-46.0,860.0,3888.0,,,,-0.965900515378578,-2.96626365154932,-1.044426975535,,-1.199354873756765,,
,6519.0,777.0,3666.0,641.0,-49.0,865.0,3899.0,,,,-0.966802695355601,-2.9663690539654,-1.04415935006991,,-1.27562144282203,,
,6520.0,776.0,3669.0,641.0,-46.0,875.0,3897.0,,,,-0.966905923341703,-2.96617084309042,-1.04508755472191,,-1.3434892091688322,,
,6521.0,777.0,3670.0,639.0,-43.0,885.0,3888.0,,,,-0.966951409882278,-2.96634758150255,-1.04482410381474,,-1.406089362747669,,
,6523.0,777.0,3670.0,638.0,-46.0,881.0,3866.0,,,,-0.967741271581429,-2.96628672011507,-1.04488455592019,,-1.4651554830763234,,
,6524.0,777.0,3672.0,641.0,-52.0,860.0,3897.0,,,,-0.967515061357573,-2.96639352223026,-1.04541052767541,,-1.5208680416184734,,
,6526.0,777.0,3673.0,643.0,-48.0,876.0,3901.0,,,,-0.966675949361479,-2.96619178215838,-1.04433664979832,,-1.5718627705387576,,
,6528.0,777.0,3676.0,640.0,-55.0,884.0,3897.0,,,,-0.967129201586236,-2.96628617161321,-1.04540305864561,,-1.6153896329311836,,
,6529.0,777.0,3674.0,642.0,-50.0,875.0,3913.0,,,,-0.968367016219909,-2.96635059816037,-1.04561700914435,,-1.647594695401254,,
,6531.0,779.0,3677.0,643.0,-54.0,860.0,3900.0,,,,-0.969632564082387,-2.96650358888658,-1.04680184211443,,-1.6638878027492812,,
,6534.0,779.0,3683.0,643.0,-42.0,840.0,3895.0,,,,-0.970955118625736,-2.96655353525761,-1.04739886711124,,-1.6593554869810194,,
,6537.0,781.0,3680.0,644.0,-42.0,848.0,3905.0,,,,-0.973502291407624,-2.96681224323115,-1.04823056334239,,-1.6291802575274932,,
,6540.0,781.0,3679.0,645.0,-44.0,880.0,3916.0,,,,-0.976234144035924,-2.96700026321917,-1.04959438086702,,-1.5690327017234285,,
,6538.0,780.0,3681.0,642.0,-45.0,884.0,3908.0,,,,-0.979384885808279,-2.96717291493957,-1.05217979456202,,-1.4754101854634347,,
,6543.0,780.0,3686.0,645.0,-56.0,883.0,3896.0,,,,-0.982587058647068,-2.96737546540588,-1.05307410300948,,-1.345904412550616,,
,6544.0,781.0,3687.0,644.0,-55.0,869.0,3903.0,,,,-0.985369758311924,-2.96752166269097,-1.05441293492129,,-1.1793890628967298,,
,6546.0,782.0,3685.0,645.0,-54.0,866.0,3899.0,,,,-0.985939029702808,-2.96752131966813,-1.05446398711495,,-0.9761276162196647,,
,6547.0,781.0,3687.0,642.0,-44.0,867.0,3921.0,,,,-0.986703302995675,-2.96768984757711,-1.05564461012836,,-0.7378094553212607,,
,6550.0,782.0,3690.0,646.0,-49.0,886.0,3905.0,,,,-0.986898371625794,-2.96769586450502,-1.05540332209719,,-0.467528165161123,,
,6553.0,785.0,3690.0,646.0,-51.0,884.0,3888.0,,,,-0.987238943446873,-2.96765577439117,-1.05598712554466,,-0.16971811680409482,,
,6550.0,783.0,3690.0,645.0,-54.0,871.0,3882.0,,,,-0.986863066251339,-2.96773270559902,-1.05484123817652,,0.14993702863500555,,
,6542.0,781.0,3688.0,645.0,-57.0,864.0,3879.0,,,,-0.986516724254409,-2.96764415911409,-1.05477935806428,,0.48461700388757534,,
,6536.0,778.0,3685.0,642.0,-54.0,883.0,3900.0,,,,-0.986474527531347,-2.96761494098015,-1.05473010099395,,0.8265009763417499,,
,6530.0,780.0,3683.0,643.0,-45.0,898.0,3894.0,,,,-0.98668063917382,-2.96772507183753,-1.05518114351462,,1.1669373763053634,,
,6521.0,782.0,3686.0,644.0,-42.0,898.0,3892.0,,,,-0.986983013661504,-2.96771730546963,-1.05475594653981,,1.4966623358003373,,
,6517.0,777.0,3681.0,642.0,-46.0,885.0,3883.0,,,,-0.987273716099752,-2.96776820687211,-1.05552472713629,,1.806080368132708,,
,6503.0,775.0,3677.0,641.0,-52.0,867.0,3878.0,,,,-0.986241675862506,-2.96770513602325,-1.05498231342641,,2.0856142885501754,,
,6496.0,772.0,3677.0,642.0,-43.0,864.0,3880.0,,,,-0.986876271924828,-2.9675993921028,-1.05483265285783,,2.3261207561468655,,
,6488.0,774.0,3676.0,641.0,-46.0,886.0,3891.0,,,,-0.986185718000293,-2.96764498981669,-1.05485265563416,,2.519355052447537,,
,6479.0,774.0,3671.0,642.0,-54.0,887.0,3884.0,,,,-0.986426901964422,-2.96764294576274,-1.05519957427015,,2.6584556377074224,,
,6472.0,770.0,3671.0,637.0,-48.0,871.0,3867.0,,,,-0.985632349091053,-2.96779771380208,-1.05455320445067,,2.7384075649592607,,
,6465.0,769.0,3667.0,636.0,-52.0,866.0,3879.0,,,,-0.985286517138641,-2.9676845402943,-1.05465984716894,,2.7564361137715343,,
,6461.0,770.0,3667.0,638.0,-58.0,866.0,3884.0,,,,-0.984668170966679,-2.96769665521505,-1.05418426761252,,2.7122801864209034,,
,6456.0,769.0,3666.0,638.0,-38.0,877.0,3909.0,,,,-0.985416557022905,-2.96763632955654,-1.05417429459372,,2.60830083060152,,
,6452.0,769.0,3666.0,636.0,-38.0,884.0,3903.0,,,,-0.985056995018944,-2.9677160762332,-1.0542983179778,,2.4493944981072073,,
,6448.0,765.0,3665.0,637.0,-58.0,880.0,3905.0,,,,-0.986402399584119,-2.96779560878614,-1.05500250609162,,2.242702575312033,,
,6446.0,767.0,3663.0,636.0,-59.0,874.0,3894.0,,,,-0.985755687928571,-2.96769796863184,-1.05519931134247,,1.997135552659012,,
,6444.0,766.0,3662.0,637.0,-54.0,866.0,3905.0,,,,-0.985423308331167,-2.96768113880854,-1.05462057625598,,1.722757032078987,,
,6444.0,767.0,3662.0,637.0,-46.0,863.0,3916.0,,,,-0.985546974896782,-2.96767907706592,-1.05476448262045,,1.4300935512656603,,
,6439.0,768.0,3661.0,633.0,-48.0,873.0,3899.0,,,,-0.98587151145235,-2.96763289166936,-1.05453115275703,,1.1294459048137317,,
,6439.0,765.0,3659.0,635.0,-62.0,871.0,3875.0,,,,-0.985347209213142,-2.96768531572103,-1.05546535525354,,0.8302743571606042,,
,6439.0,767.0,3661.0,635.0,-61.0,846.0,3871.0,,,,-0.985831022548111,-2.96762412495413,-1.05485803066088,,0.5407155476827489,,
,6438.0,767.0,3659.0,635.0,-58.0,863.0,3886.0,,,,-0.9849636630067,-2.96762752989765,-1.05353739667171,,0.2672670079373876,,
,6439.0,768.0,3662.0,637.0,-52.0,867.0,3895.0,,,,-0.985112158363702,-2.96766601475202,-1.05416565839989,,0.014650696510977857,,
,6436.0,767.0,3660.0,636.0,-51.0,889.0,3917.0,,,,-0.984853767428828,-2.96762718035952,-1.05415338895256,,-0.2141561054601123,,
,6436.0,767.0,3660.0,632.0,-57.0,882.0,3884.0,,,,-0.985466569785533,-2.96762934135378,-1.05440524795929,,-0.4177528093985785,,
,6435.0,769.0,3660.0,634.0,-56.0,868.0,3865.0,,,,-0.985683830461732,-2.96761375210808,-1.05382816690477,,-0.5960530930574051,,
,6435.0,767.0,3661.0,634.0,-57.0,855.0,3872.0,,,,-0.986012757931346,-2.96777159330832,-1.05444975787093,,-0.7499760879024128,,
,6433.0,767.0,3659.0,634.0,-55.0,845.0,3890.0,,,,-0.985616938415372,-2.96772946131917,-1.05447197246795,,-0.8811376947354281,,
,6434.0,767.0,3659.0,633.0,-47.0,865.0,3894.0,,,,-0.986106634139391,-2.9676759730333,-1.05424949355186,,-0.9915806256637564,,
,6435.0,766.0,3661.0,636.0,-51.0,883.0,3890.0,,,,-0.986891239720277,-2.96775928424415,-1.05510806247472,,-1.0835686723772906,,
,6437.0,767.0,3661.0,635.0,-49.0,860.0,3881.0,,,,-0.987878778482178,-2.96781822512268,-1.05613210795669,,-1.1594544959893316,,
,6436.0,769.0,3660.0,638.0,-53.0,858.0,3875.0,,,,-0.98900363335651,-2.96796714617655,-1.05640402257144,,-1.221613955327998,,
,6436.0,766.0,3658.0,635.0,-51.0,869.0,3909.0,,,,-0.989131220792059,-2.96797088164934,-1.05572611398017,,-1.2724270919710452,,
,6437.0,767.0,3661.0,636.0,-48.0,876.0,3916.0,,,,-0.989232165266856,-2.96786609317721,-1.05556825963304,,-1.314279042232055,,
,6438.0,770.0,3662.0,636.0,-50.0,887.0,3887.0,,,,-0.989324274859752,-2.96803540695116,-1.0566237199136,,-1.3495541082292484,,
,6436.0,770.0,3665.0,638.0,-51.0,877.0,3884.0,,,,-0.989578332050053,-2.96800335663988,-1.0570771089344,,-1.3806017728967164,,
,6436.0,765.0,3661.0,636.0,-52.0,886.0,3897.0,,,,-0.989425704737814,-2.96796652709202,-1.05634334757722,,-1.4096624098342776,,
,6434.0,769.0,3662.0,634.0,-51.0,869.0,3880.0,,,,-0.989270761947176,-2.96797799210149,-1.05585734566566,,-1.4387507634108736,,
,6433.0,767.0,3663.0,637.0,-56.0,879.0,3919.0,,,,-0.988583248782932,-2.96781429261463,-1.05550209666507,,-1.4695053810938763,,
,6436.0,768.0,3661.0,635.0,-55.0,871.0,3917.0,,,,-0.988391707812688,-2.96788503254286,-1.05550089050809,,-1.503020811898637,,
,6435.0,766.0,3661.0,637.0,-58.0,872.0,3911.0,,,,-0.988890695399546,-2.96786126053372,-1.05570840214921,,-1.5396854906530353,,
2025-08-01 18:41:16,6434.0,769.0,3658.0,636.0,-58.0,844.0,3878.0,,,2025/08/01 06:41:16 PM,-0.989030197343187,-2.96791920161672,-1.05641488123363,,-1.5790510197270358,,
,6433.0,770.0,3661.0,636.0,-58.0,832.0,3886.0,,,,-0.989287817907412,-2.96795576496381,-1.05580653135086,,-1.6197575511023214,,
,6432.0,769.0,3661.0,638.0,-63.0,858.0,3911.0,,,,-0.988853906115564,-2.96803254793126,-1.05590697659406,,-1.659534963134506,,
,6431.0,770.0,3660.0,636.0,-59.0,871.0,3904.0,,,,-0.988787731850257,-2.96799495986497,-1.05571614394138,,-1.6952907182785595,,
,6429.0,768.0,3660.0,636.0,-57.0,869.0,3904.0,,,,-0.988923019214548,-2.96788278273453,-1.05546589650179,,-1.7232835798564576,,
,6433.0,768.0,3662.0,639.0,-52.0,868.0,3898.0,,,,-0.988416329756326,-2.96784143371434,-1.05579898443472,,-1.7393696355444177,,
,6431.0,767.0,3661.0,636.0,-40.0,878.0,3899.0,,,,-0.988194088095183,-2.96783916337199,-1.05517151520495,,-1.7392959870062266,,
,6430.0,769.0,3661.0,636.0,-42.0,870.0,3912.0,,,,-0.987732370058315,-2.96780926196058,-1.05452018390023,,-1.719010537941787,,
,6428.0,767.0,3661.0,637.0,-54.0,870.0,3904.0,,,,-0.986124315028291,-2.96778478249595,-1.05420071216267,,-1.6749547857047267,,
,6431.0,768.0,3661.0,637.0,-54.0,858.0,3891.0,,,,-0.985912971970236,-2.96770795617948,-1.05436975298428,,-1.604310005198883,,
,6430.0,767.0,3662.0,637.0,-57.0,845.0,3885.0,,,,-0.985975342587631,-2.96772719800824,-1.05393473553218,,-1.505174368645973,,
,6430.0,770.0,3664.0,637.0,-56.0,849.0,3875.0,,,,-0.986974058723975,-2.96777584548463,-1.05508453833391,,-1.3766580065245935,,
,6431.0,768.0,3663.0,638.0,-53.0,873.0,3889.0,,,,-0.987693785598899,-2.96786125165771,-1.05455305074764,,-1.2188937462275078,,
,6432.0,767.0,3663.0,637.0,-46.0,902.0,3893.0,,,,-0.987542118450765,-2.96782895998811,-1.05504317269641,,-1.0329722977375428,,
,6435.0,769.0,3664.0,638.0,-44.0,888.0,3904.0,,,,-0.987833040838061,-2.9677769542775,-1.05514070738517,,-0.8208207557238416,,
,6436.0,769.0,3665.0,639.0,-44.0,874.0,3892.0,,,,-0.987929213967668,-2.96780669904918,-1.05519142746496,,-0.5850509224462297,,
,6437.0,770.0,3666.0,637.0,-43.0,876.0,3899.0,,,,-0.988192176220525,-2.96774053442154,-1.05509035194225,,-0.3288075401799461,,
,6437.0,772.0,3668.0,639.0,-58.0,875.0,3903.0,,,,-0.98796829518007,-2.96778656136323,-1.05546632799632,,-0.05564480578553257,,
,6440.0,769.0,3667.0,638.0,-54.0,877.0,3912.0,,,,-0.988150008744429,-2.96781190480694,-1.05438779706144,,0.2305479303711544,,
,6443.0,772.0,3669.0,639.0,-52.0,868.0,3887.0,,,,-0.987643016934861,-2.96782005815213,-1.05446815992207,,0.5255628422464552,,
,6445.0,772.0,3671.0,641.0,-50.0,869.0,3887.0,,,,-0.987828073951708,-2.96783127606933,-1.05371897913394,,0.8248395144744306,,
,6445.0,773.0,3671.0,640.0,-48.0,865.0,3894.0,,,,-0.987800542016065,-2.96780387513425,-1.05556387181625,,1.1234015636586787,,
,6446.0,772.0,3670.0,639.0,-54.0,877.0,3913.0,,,,-0.987963230678682,-2.96779480941761,-1.05535537353369,,1.4157959671108802,,
,6449.0,772.0,3675.0,641.0,-53.0,894.0,3902.0,,,,-0.988336990439202,-2.96782578880358,-1.05516370600822,,1.6960706955684863,,
,6451.0,775.0,3675.0,641.0,-54.0,873.0,3887.0,,,,-0.988194315439796,-2.96775739233542,-1.05511862557723,,1.957822502801262,,
,6454.0,771.0,3672.0,640.0,-55.0,862.0,3889.0,,,,-0.987931227668223,-2.96787504997124,-1.05513165192066,,2.1943368454309606,,
,6457.0,774.0,3674.0,641.0,-47.0,860.0,3878.0,,,,-0.988587623804638,-2.96787816904763,-1.05506359270106,,2.398827912853338,,
,6459.0,775.0,3677.0,643.0,-47.0,860.0,3893.0,,,,-0.989204902905592,-2.96794950895476,-1.0547761938625,,2.564770723522652,,
,6460.0,775.0,3679.0,642.0,-54.0,870.0,3916.0,,,,-0.989461147358369,-2.96800914373882,-1.05590764475881,,2.6863012301051463,,
,6462.0,778.0,3681.0,641.0,-56.0,876.0,3928.0,,,,-0.989556035176302,-2.96797567513945,-1.05523326040201,,2.758646450626944,,
,6467.0,776.0,3682.0,642.0,-43.0,877.0,3915.0,,,,-0.989291203499509,-2.9679560940182,-1.05606776538814,,2.7785367936467655,,
,6467.0,775.0,3680.0,643.0,-44.0,860.0,3891.0,,,,-0.9889341936226,-2.96795841355799,-1.05616758875737,,2.7445486803597814,,
,6469.0,778.0,3684.0,642.0,-50.0,871.0,3902.0,,,,-0.989556775966255,-2.96795286446206,-1.05608238552723,,2.657328608529022,,
,6470.0,779.0,3685.0,643.0,-51.0,883.0,3907.0,,,,-0.990010810945488,-2.96802767917391,-1.05572421476447,,2.519660650558703,,
,6472.0,776.0,3684.0,643.0,-54.0,876.0,3901.0,,,,-0.989822589714076,-2.96791231852108,-1.05623475555741,,2.3363575890150146,,
,6475.0,779.0,3686.0,642.0,-58.0,853.0,3889.0,,,,-0.989546212218212,-2.96794489731418,-1.05542195876201,,2.11397930796654,,
,6478.0,779.0,3687.0,642.0,-54.0,864.0,3904.0,,,,-0.988930703896409,-2.96798222290215,-1.05578458016016,,1.8604066245262725,,
,6479.0,780.0,3689.0,645.0,-55.0,884.0,3903.0,,,,-0.987944013187274,-2.96791227353684,-1.05529997745744,,1.5843192645546689,,
,6481.0,780.0,3689.0,645.0,-53.0,883.0,3902.0,,,,-0.987990653423557,-2.96770650298591,-1.05519060684143,,1.2946385492972703,,
,6483.0,778.0,3687.0,643.0,-40.0,859.0,3896.0,,,,-0.987785648639862,-2.96764705265872,-1.05483868615749,,0.9999963627892612,,
,6484.0,776.0,3688.0,642.0,-39.0,877.0,3880.0,,,,-0.986447890252949,-2.96777639999751,-1.05436826892655,,0.7082829626618525,,
,6488.0,782.0,3692.0,644.0,-49.0,873.0,3882.0,,,,-0.986685852961969,-2.96765900909586,-1.05453920756225,,0.4263102328566906,,
,6491.0,780.0,3696.0,648.0,-52.0,878.0,3884.0,,,,-0.986564001029383,-2.96757387953241,-1.05389549384189,,0.15960784838265768,,
,6489.0,781.0,3695.0,646.0,-53.0,890.0,3886.0,,,,-0.985797487131978,-2.967625980973,-1.05437605718339,,-0.08764905212647482,,
,6492.0,779.0,3697.0,646.0,-50.0,869.0,3897.0,,,,-0.986456825467508,-2.9677161944236,-1.05451724424474,,-0.31259814667745317,,
,6495.0,781.0,3698.0,646.0,-44.0,872.0,3898.0,,,,-0.985764649890225,-2.96766483590749,-1.05360884628031,,-0.5135631854847587,,
,6497.0,786.0,3700.0,648.0,-46.0,875.0,3896.0,,,,-0.985293738604336,-2.96754319906878,-1.05350459752337,,-0.6898773662718609,,
,6500.0,782.0,3702.0,648.0,-42.0,864.0,3884.0,,,,-0.984515133211864,-2.96760618897455,-1.05382034994495,,-0.8416922946191044,,
,6502.0,782.0,3702.0,646.0,-50.0,870.0,3882.0,,,,-0.984775892090824,-2.96756000347312,-1.053765246884,,-0.9698027319952878,,
,6505.0,780.0,3703.0,647.0,-54.0,865.0,3894.0,,,,-0.986039657557546,-2.96776903232873,-1.05376612803528,,-1.0755074254242365,,
,6507.0,783.0,3706.0,649.0,-41.0,874.0,3905.0,,,,-0.987314451649004,-2.96768923711744,-1.05476202799812,,-1.1605135857636417,,
,6510.0,785.0,3705.0,649.0,-46.0,883.0,3887.0,,,,-0.98959731914444,-2.96795196235126,-1.05639012560154,,-1.2268797304733596,,
,6512.0,785.0,3706.0,649.0,-48.0,878.0,3881.0,,,,-0.990900388481527,-2.96806906273545,-1.05772847674963,,-1.276981626660456,,
,6511.0,784.0,3704.0,646.0,-57.0,867.0,3887.0,,,,-0.992082468210081,-2.9680707832082,-1.05814696040661,,-1.3134811324955238,,
,6513.0,785.0,3707.0,650.0,-55.0,876.0,3892.0,,,,-0.99377820734943,-2.96840648478004,-1.05857921731612,,-1.339278294318787,,
,6515.0,786.0,3709.0,650.0,-47.0,872.0,3900.0,,,,-0.995500008463436,-2.9684041363812,-1.05898458081578,,-1.357431987379024,,
,6518.0,787.0,3710.0,649.0,-46.0,873.0,3898.0,,,,-0.995993192774982,-2.96840100253508,-1.06014949701884,,-1.3710418815391334,,
,6519.0,786.0,3708.0,650.0,-58.0,867.0,3908.0,,,,-0.996094835832569,-2.96834796323229,-1.05965617045392,,-1.3830928655898618,,
,6522.0,785.0,3712.0,649.0,-53.0,872.0,3917.0,,,,-0.995949228273287,-2.96835946974082,-1.05939835993908,,-1.3962709573746768,,
,6522.0,785.0,3713.0,651.0,-48.0,880.0,3909.0,,,,-0.995455784871634,-2.96842625954764,-1.05945196761185,,-1.4127662006481978,,
,6518.0,785.0,3712.0,648.0,-54.0,878.0,3906.0,,,,-0.994870416601095,-2.96826011691911,-1.05891916846146,,-1.4340824417238898,,
,6513.0,785.0,3713.0,648.0,-53.0,880.0,3880.0,,,,-0.994161079962041,-2.96830516110979,-1.05852057378898,,-1.460875792115736,,
,6506.0,781.0,3707.0,648.0,-49.0,871.0,3883.0,,,,-0.994265073015947,-2.96828652201539,-1.05942688134407,,-1.4928427883249804,,
,6496.0,780.0,3707.0,649.0,-51.0,875.0,3882.0,,,,-0.993468163659964,-2.96816850182656,-1.05856552086168,,-1.5286755927594708,,
,6491.0,781.0,3702.0,648.0,-59.0,885.0,3884.0,,,,-0.992839766934669,-2.9681781196114,-1.0581100405385,,-1.5660950148405963,,
,6483.0,779.0,3701.0,645.0,-61.0,881.0,3868.0,,,,-0.99210941391084,-2.96805442884038,-1.05792319904823,,-1.601963093159024,,
,6472.0,777.0,3698.0,645.0,-47.0,883.0,3881.0,,,,-0.99049987576363,-2.96804917288134,-1.05744129040944,,-1.632466729942886,,
,6466.0,778.0,3695.0,645.0,-58.0,862.0,3900.0,,,,-0.989355106547604,-2.96792811781794,-1.0565153013704,,-1.6533545716815667,,
,6458.0,774.0,3694.0,644.0,-51.0,868.0,3895.0,,,,-0.988825052288487,-2.96807763477765,-1.05635005277408,,-1.6602033450151492,,
,6452.0,773.0,3692.0,643.0,-49.0,868.0,3902.0,,,,-0.989026777934561,-2.9678483652129,-1.05575245571528,,-1.648688486679107,,
,6444.0,773.0,3687.0,643.0,-53.0,873.0,3915.0,,,,-0.988211805157039,-2.96775379856478,-1.05537971458179,,-1.614836693927692,,
,6441.0,772.0,3686.0,643.0,-49.0,876.0,3902.0,,,,-0.987499072814167,-2.96783132924987,-1.05541370252293,,-1.5552433222179265,,
,6436.0,772.0,3683.0,641.0,-47.0,885.0,3902.0,,,,-0.987118808079789,-2.96769851344251,-1.05522523202596,,-1.4672437098453817,,
,6433.0,775.0,3685.0,640.0,-61.0,873.0,3899.0,,,,-0.987463506295914,-2.96778748012465,-1.05544537038845,,-1.349033542129574,,
,6431.0,772.0,3683.0,643.0,-56.0,865.0,3903.0,,,,-0.987038706801722,-2.96777042865617,-1.05536840369881,,-1.1997389524481397,,
,6424.0,771.0,3679.0,638.0,-52.0,845.0,3920.0,,,,-0.986681074636076,-2.9677450380061,-1.05522581371394,,-1.0194421146237425,,
,6421.0,772.0,3677.0,638.0,-55.0,871.0,3917.0,,,,-0.986833063496226,-2.96777731052784,-1.05517160497244,,-0.8091724145431328,,
,6422.0,771.0,3679.0,641.0,-56.0,869.0,3888.0,,,,-0.986172161904589,-2.96779652844678,-1.05445093031172,,-0.5708763673129398,,
,6424.0,769.0,3676.0,640.0,-58.0,864.0,3883.0,,,,-0.985529882429881,-2.9677042298154,-1.054267608863,,-0.30738037578498717,,
,6419.0,773.0,3676.0,639.0,-61.0,850.0,3892.0,,,,-0.984417927141209,-2.96759480610857,-1.05435098351029,,-0.022358218980901078,,
,6418.0,768.0,3674.0,638.0,-53.0,856.0,3898.0,,,,-0.984025994498154,-2.96762409535302,-1.0538995233165,,0.2796906851059206,,
,6420.0,771.0,3673.0,638.0,-51.0,883.0,3910.0,,,,-0.983146082871678,-2.96755923753564,-1.05293066623856,,0.5934550337496525,,
,6424.0,772.0,3674.0,641.0,-46.0,878.0,3921.0,,,,-0.98253025233768,-2.96748716067436,-1.05334389106712,,0.912829960543897,,
,6420.0,773.0,3675.0,639.0,-48.0,874.0,3907.0,,,,-0.981993040097572,-2.96733747383331,-1.05302176372293,,1.2309601823186775,,
,6419.0,771.0,3672.0,638.0,-52.0,873.0,3886.0,,,,-0.982051216537487,-2.96744067103125,-1.05322671255883,,1.54033127435383,,
,6419.0,771.0,3673.0,638.0,-39.0,875.0,3867.0,,,,-0.982047018474448,-2.96741003769571,-1.05334064283999,,1.8329296747416144,,
,6421.0,772.0,3672.0,638.0,-50.0,872.0,3895.0,,,,-0.982079461436321,-2.96739720935671,-1.05291214747987,,2.100484233760953,,
,6420.0,772.0,3671.0,641.0,-56.0,870.0,3905.0,,,,-0.982267325030644,-2.96748439640293,-1.05235249915105,,2.3347908891539713,,
,6420.0,770.0,3669.0,640.0,-54.0,865.0,3909.0,,,,-0.982733324252509,-2.96746605974349,-1.05288559421741,,2.528109102824465,,
,6423.0,772.0,3671.0,637.0,-46.0,868.0,3907.0,,,,-0.982738774378313,-2.96741447460938,-1.05199750015788,,2.6736055853481355,,
,6423.0,769.0,3669.0,641.0,-45.0,872.0,3903.0,,,,-0.981984521467098,-2.96743405646825,-1.05269615739952,,2.7658090726316584,,
,6424.0,772.0,3669.0,640.0,-44.0,877.0,3894.0,,,,-0.982200698307373,-2.96741100579199,-1.05281433197508,,2.8010311488346478,,
,6423.0,772.0,3671.0,642.0,-47.0,878.0,3883.0,,,,-0.981896575782703,-2.96736963704209,-1.05274498487894,,2.7777040740333057,,
,6423.0,768.0,3667.0,638.0,-48.0,889.0,3891.0,,,,-0.98123241657514,-2.96753803437823,-1.05256311473243,,2.6965889214249774,,
,6426.0,770.0,3667.0,642.0,-42.0,865.0,3881.0,,,,-0.98165439341227,-2.9674377055048,-1.05243231369185,,2.5608172725753193,,
,6425.0,771.0,3671.0,640.0,-51.0,854.0,3897.0,,,,-0.981068574806229,-2.96730041285926,-1.05221078768868,,2.375747436671485,,
,6425.0,772.0,3665.0,639.0,-52.0,863.0,3890.0,,,,-0.980888305993482,-2.96718192129182,-1.05198454076296,,2.1486399235992386,,
,6428.0,770.0,3667.0,639.0,-48.0,864.0,3911.0,,,,-0.980594074499306,-2.96728858966792,-1.05228147536317,,1.8881825224488693,,
,6425.0,771.0,3666.0,639.0,-61.0,865.0,3918.0,,,,-0.980090558469497,-2.96730970218205,-1.05156349729532,,1.60391691455735,,
,6424.0,773.0,3665.0,642.0,-50.0,850.0,3899.0,,,,-0.980368426626525,-2.9672390497509,-1.0518404801292,,1.3056309364000998,,
,6425.0,770.0,3666.0,641.0,-48.0,853.0,3907.0,,,,-0.980728904119183,-2.96726144486867,-1.05180482510533,,1.0027809702840464,,
,6425.0,771.0,3665.0,643.0,-58.0,849.0,3886.0,,,,-0.980434401563646,-2.96727994797137,-1.05196677610939,,0.7039986737062739,,
,6424.0,770.0,3663.0,640.0,-52.0,881.0,3902.0,,,,-0.979757923972273,-2.96726171562045,-1.05139575232128,,0.4167190362575875,,
,6424.0,769.0,3662.0,641.0,-53.0,875.0,3881.0,,,,-0.979392677888669,-2.96719356452703,-1.05165455318694,,0.14694689328236157,,
,6423.0,770.0,3661.0,638.0,-58.0,877.0,3885.0,,,,-0.979437538206676,-2.9671621237587,-1.05149597601319,,-0.10083986287541737,,
,6423.0,771.0,3662.0,641.0,-55.0,875.0,3882.0,,,,-0.978949981963591,-2.9671145344532,-1.05052014072482,,-0.3236676243969545,,
,6421.0,770.0,3660.0,639.0,-50.0,881.0,3895.0,,,,-0.977757122503342,-2.96709687118006,-1.05131196719945,,-0.5199529386314065,,
,6420.0,769.0,3660.0,637.0,-47.0,882.0,3903.0,,,,-0.976903168729592,-2.96705806810016,-1.05013590158341,,-0.6893302103511523,,
,6422.0,769.0,3659.0,639.0,-50.0,891.0,3907.0,,,,-0.97635662468697,-2.96703310429335,-1.04996097099128,,-0.8324543166512061,,
,6422.0,771.0,3660.0,642.0,-51.0,878.0,3891.0,,,,-0.976607108247603,-2.96718066920991,-1.04994506060661,,-0.9508057726027235,,
,6417.0,770.0,3660.0,640.0,-50.0,854.0,3875.0,,,,-0.976897480586169,-2.96709870440779,-1.05009753457804,,-1.0465164396452347,,
,6423.0,769.0,3661.0,637.0,-49.0,865.0,3855.0,,,,-0.976560535473773,-2.96695002588035,-1.05073557951321,,-1.1222218964720783,,
,6423.0,771.0,3660.0,639.0,-46.0,872.0,3882.0,,,,-0.976014276466817,-2.96691824627743,-1.05005608658094,,-1.18093535320774,,
,6425.0,771.0,3660.0,641.0,-52.0,879.0,3903.0,,,,-0.975133015561588,-2.96685040349942,-1.04898089053555,,-1.2259303300557425,,
,6425.0,771.0,3659.0,642.0,-53.0,867.0,3918.0,,,,-0.974971848310722,-2.96688711407694,-1.04859172564799,,-1.2606170218373756,,
,6424.0,770.0,3658.0,638.0,-58.0,860.0,3901.0,,,,-0.975395759445828,-2.9668755882273,-1.04935537290472,,-1.2884001934726828,,
,6427.0,770.0,3661.0,640.0,-58.0,868.0,3889.0,,,,-0.974700951215968,-2.96696735515604,-1.0496328209331,,-1.3125129358718912,,
,6429.0,770.0,3657.0,640.0,-49.0,880.0,3895.0,,,,-0.975063760738833,-2.96684277346468,-1.05002629198895,,-1.3358285623952164,,
,6432.0,771.0,3661.0,639.0,-42.0,886.0,3892.0,,,,-0.97401096755958,-2.96683903104229,-1.04930239916583,,-1.360660657525957,,
,6434.0,771.0,3662.0,639.0,-41.0,883.0,3876.0,,,,-0.97494084610441,-2.96690349677972,-1.0490397282108,,-1.3885676882805538,,
,6433.0,770.0,3657.0,637.0,-49.0,888.0,3883.0,,,,-0.974461261930215,-2.96691019011487,-1.04937874879079,,-1.420182907466174,,
,6441.0,773.0,3660.0,643.0,-45.0,887.0,3895.0,,,,-0.974430028956792,-2.96684266406213,-1.04948390097746,,-1.4550919708239942,,
,6440.0,774.0,3663.0,644.0,-41.0,878.0,3918.0,,,,-0.974834014508953,-2.96691550843472,-1.04903972869867,,-1.4917793638731576,,
,6441.0,773.0,3664.0,641.0,-44.0,875.0,3907.0,,,,-0.974558763532103,-2.966880526886,-1.04855463914082,,-1.5276601291363914,,
,6443.0,772.0,3661.0,641.0,-48.0,881.0,3912.0,,,,-0.974619470076372,-2.96671633019995,-1.04901373745494,,-1.5592054525239827,,
,6444.0,773.0,3661.0,640.0,-41.0,846.0,3888.0,,,,-0.974466588216072,-2.96681085704329,-1.04905514427933,,-1.582159852714345,,
,6447.0,775.0,3662.0,642.0,-39.0,869.0,3877.0,,,,-0.974258874699948,-2.96678109800434,-1.04855066620991,,-1.5918353412470636,,
,6449.0,774.0,3661.0,645.0,-39.0,881.0,3880.0,,,,-0.974405483590927,-2.96673364196101,-1.04822665132597,,-1.5834563179336325,,
2025-08-01 18:41:17,6451.0,774.0,3662.0,643.0,-43.0,890.0,3926.0,,,2025/08/01 06:41:17 PM,-0.974593813629512,-2.9667896406951,-1.04856852228237,,-1.552520904640777,,
,6453.0,774.0,3664.0,642.0,-46.0,884.0,3915.0,,,,-0.973209260572276,-2.9667501850748,-1.04930385742614,,-1.4951418798757359,,
,6457.0,774.0,3667.0,641.0,-49.0,884.0,3905.0,,,,-0.973800570290919,-2.96677802576508,-1.04859930600439,,-1.4083336481954967,,
,6458.0,774.0,3666.0,643.0,-43.0,877.0,3901.0,,,,-0.97444901179113,-2.96693118145787,-1.04834458361509,,-1.2902196127158407,,
,6462.0,777.0,3665.0,645.0,-39.0,869.0,3894.0,,,,-0.973864489644975,-2.96677112855826,-1.04822209103174,,-1.1401452609788332,,
,6462.0,775.0,3665.0,644.0,-51.0,869.0,3886.0,,,,-0.973269704242389,-2.96680835736137,-1.04886216070251,,-0.9586946721204397,,
,6464.0,777.0,3667.0,644.0,-46.0,868.0,3886.0,,,,-0.973210916930535,-2.96673654642319,-1.04833204854543,,-0.7476205513400106,,
,6470.0,777.0,3665.0,644.0,-45.0,861.0,3877.0,,,,-0.972650284926247,-2.96678126940744,-1.04817807843079,,-0.5097087403642655,,
,6471.0,778.0,3666.0,645.0,-47.0,859.0,3898.0,,,,-0.972759033199018,-2.96683899932519,-1.04845150675657,,-0.24860578642893133,,
,6470.0,775.0,3669.0,643.0,-46.0,881.0,3918.0,,,,-0.972965601827758,-2.9668029801274,-1.04776021623609,,0.03135892697519308,,
,6473.0,779.0,3666.0,643.0,-51.0,895.0,3917.0,,,,-0.972264288571502,-2.96680008886571,-1.04796804197819,,0.3253277679773842,,
,6478.0,777.0,3670.0,647.0,-60.0,878.0,3915.0,,,,-0.97287929142986,-2.9666829479088,-1.04772304399658,,0.628026040523103,,
,6481.0,778.0,3671.0,646.0,-60.0,874.0,3899.0,,,,-0.972393360199271,-2.9666813136413,-1.04691320301809,,0.9338229815895999,,
,6480.0,778.0,3671.0,647.0,-52.0,855.0,3883.0,,,,-0.97288021553079,-2.96675308867318,-1.04782740035252,,1.2367514593758402,,
,6482.0,779.0,3669.0,645.0,-42.0,871.0,3892.0,,,,-0.971916064372494,-2.966636554367,-1.0472215846648,,1.53050970560347,,
,6484.0,780.0,3670.0,646.0,-42.0,890.0,3899.0,,,,-0.970907488888491,-2.96664795748289,-1.04722570340564,,1.8084777830932024,,
,6487.0,781.0,3670.0,645.0,-54.0,881.0,3900.0,,,,-0.97046425385385,-2.96645349532099,-1.04663306517396,,2.063783071326054,,
,6486.0,779.0,3671.0,646.0,-57.0,875.0,3883.0,,,,-0.969848897816424,-2.96657432816855,-1.04662433171308,,2.2894424151945554,,
,6491.0,779.0,3673.0,646.0,-50.0,857.0,3882.0,,,,-0.970429066034945,-2.96642916339817,-1.04683313827147,,2.478595492518674,,
,6493.0,778.0,3674.0,646.0,-47.0,870.0,3887.0,,,,-0.969912173052506,-2.966544103295,-1.04667965549165,,2.6248272515381306,,
,6495.0,780.0,3673.0,646.0,-47.0,883.0,3886.0,,,,-0.970060559228008,-2.96655860271036,-1.04702509511402,,2.7225597521930336,,
,6498.0,780.0,3674.0,649.0,-45.0,878.0,3882.0,,,,-0.970902454431613,-2.96651277699817,-1.04727330848602,,2.7674778163485194,,
,6500.0,777.0,3674.0,646.0,-42.0,869.0,3876.0,,,,-0.971738807648943,-2.96675803006571,-1.04753356723408,,2.7569406908098326,,
,6501.0,781.0,3676.0,646.0,-52.0,870.0,3883.0,,,,-0.974549896741938,-2.96674536770665,-1.04901839489858,,2.6903254247953083,,
,6502.0,783.0,3677.0,647.0,-53.0,886.0,3896.0,,,,-0.975977752836913,-2.96701547399064,-1.05084551427926,,2.569248543808224,,
,6504.0,783.0,3677.0,648.0,-44.0,887.0,3902.0,,,,-0.977726965908458,-2.96706939820718,-1.05178578855288,,2.3976219688186995,,
,6508.0,782.0,3676.0,649.0,-48.0,887.0,3895.0,,,,-0.978611231391393,-2.96721576205802,-1.05121654391299,,2.1815170264024277,,
,6509.0,778.0,3676.0,648.0,-59.0,871.0,3872.0,,,,-0.979432747535128,-2.96725631867846,-1.05096457306393,,1.9288351645632522,,
,6514.0,783.0,3678.0,650.0,-50.0,873.0,3870.0,,,,-0.980483573998265,-2.96744409716518,-1.05293952039934,,1.6488118109813468,,
,6517.0,784.0,3678.0,649.0,-44.0,878.0,3899.0,,,,-0.980959819173079,-2.9674058596931,-1.05275290868274,,1.351405040325683,,
,6517.0,784.0,3679.0,650.0,-38.0,882.0,3917.0,,,,-0.982339336953627,-2.96742592123213,-1.05320011668049,,1.0466375012836358,,
,6520.0,783.0,3679.0,649.0,-50.0,889.0,3899.0,,,,-0.982405312777948,-2.96745587493452,-1.05356572032973,,0.7439647003497809,,
,6520.0,782.0,3679.0,649.0,-58.0,872.0,3887.0,,,,-0.982702269163792,-2.96745962600962,-1.05345012134804,,0.4517351803980697,,
,6525.0,784.0,3681.0,653.0,-51.0,874.0,3887.0,,,,-0.983109214082827,-2.96746847431577,-1.05404284332537,,0.17679136638380755,,
,6525.0,783.0,3683.0,652.0,-45.0,884.0,3921.0,,,,-0.983410696363608,-2.96749883752592,-1.05360331675777,,-0.07576186390218297,,
,6527.0,784.0,3682.0,652.0,-49.0,881.0,3920.0,,,,-0.98291961219233,-2.96748990018253,-1.05415029034483,,-0.3026165033876862,,
,6526.0,780.0,3680.0,651.0,-51.0,867.0,3893.0,,,,-0.98290901937157,-2.96750363117766,-1.05448964417786,,-0.5021647965373175,,
,6521.0,783.0,3679.0,651.0,-59.0,853.0,3898.0,,,,-0.981755966380183,-2.96742038089378,-1.05330016565397,,-0.6742790704156383,,
,6517.0,781.0,3678.0,650.0,-48.0,857.0,3878.0,,,,-0.98132709782816,-2.96736865165651,-1.05245211045805,,-0.8200109600888743,,
,6512.0,781.0,3674.0,649.0,-33.0,869.0,3884.0,,,,-0.980357464760366,-2.96730109651746,-1.05205726572347,,-0.9412571907745093,,
,6504.0,776.0,3672.0,648.0,-40.0,863.0,3899.0,,,,-0.97958030097876,-2.96718207903636,-1.05158940906925,,-1.0404368919538705,,
,6496.0,776.0,3669.0,648.0,-38.0,890.0,3903.0,,,,-0.978034610091996,-2.96708936678955,-1.05135971464974,,-1.1202172734538984,,
,6492.0,777.0,3665.0,647.0,-49.0,865.0,3902.0,,,,-0.978390875534648,-2.96724427676699,-1.05085728901603,,-1.1833114927431598,,
,6483.0,775.0,3661.0,646.0,-54.0,863.0,3896.0,,,,-0.978305956968237,-2.96714260643998,-1.05132001984361,,-1.2323566965062296,,
,6473.0,774.0,3664.0,644.0,-42.0,854.0,3892.0,,,,-0.977438683732762,-2.96706705717832,-1.05096309936742,,-1.2698644654437123,,
,6468.0,772.0,3657.0,644.0,-46.0,863.0,3895.0,,,,-0.97704329785944,-2.96705688416303,-1.05018285577882,,-1.298223476166886,,
,6460.0,770.0,3654.0,644.0,-46.0,877.0,3893.0,,,,-0.976966738976322,-2.96708965380588,-1.05074663104911,,-1.319727496222185,,
,6455.0,770.0,3651.0,644.0,-46.0,874.0,3872.0,,,,-0.976782158462208,-2.96698554634335,-1.05005105107224,,-1.3366014210226413,,
,6453.0,771.0,3649.0,640.0,-53.0,865.0,3878.0,,,,-0.976829233476769,-2.96711165618891,-1.0512079638187,,-1.3510028153307099,,
,6447.0,771.0,3648.0,640.0,-46.0,881.0,3895.0,,,,-0.977151787879794,-2.96711354595315,-1.05039862264684,,-1.3649844637604513,,
,6445.0,770.0,3647.0,639.0,-45.0,895.0,3905.0,,,,-0.978024230994208,-2.96706590425521,-1.05102423083218,,-1.3804130161213861,,
,6443.0,769.0,3646.0,641.0,-53.0,874.0,3896.0,,,,-0.977965888116098,-2.96711708608006,-1.05053351260456,,-1.3988485319404778,,
,6441.0,769.0,3645.0,641.0,-51.0,878.0,3900.0,,,,-0.977919595804703,-2.96703882319536,-1.05143751445974,,-1.421398390632917,,
,6441.0,767.0,3641.0,639.0,-53.0,875.0,3904.0,,,,-0.978661508956165,-2.96704751269638,-1.05163073446806,,-1.448565607691197,,
,6438.0,765.0,3641.0,638.0,-57.0,873.0,3915.0,,,,-0.978607594468596,-2.96713949354874,-1.05138268154952,,-1.4801152851950239,,
,6436.0,767.0,3640.0,639.0,-47.0,875.0,3918.0,,,,-0.979112088107834,-2.96706426435581,-1.05123503504924,,-1.5149831963476759,,
,6440.0,768.0,3641.0,640.0,-53.0,871.0,3913.0,,,,-0.978715283796283,-2.96715689709549,-1.05077022759555,,-1.5512470928169695,,
,6437.0,768.0,3637.0,640.0,-56.0,873.0,3899.0,,,,-0.978202346227433,-2.96710267162598,-1.05074527729548,,-1.58617429714842,,
,6438.0,767.0,3638.0,636.0,-55.0,863.0,3890.0,,,,-0.97882596617722,-2.96713519861649,-1.05057155247115,,-1.6163491143673328,,
,6438.0,766.0,3640.0,638.0,-58.0,865.0,3897.0,,,,-0.979259710614526,-2.96709637554954,-1.05147053159966,,-1.6378720387341896,,
,6439.0,770.0,3637.0,638.0,-47.0,884.0,3912.0,,,,-0.980134159111541,-2.96732872401007,-1.0523666939003,,-1.646611986034943,,
,6441.0,768.0,3638.0,641.0,-46.0,889.0,3908.0,,,,-0.980355252679848,-2.96732100247521,-1.05198148095386,,-1.6384853239437838,,
,6440.0,769.0,3636.0,639.0,-57.0,867.0,3889.0,,,,-0.980589119524805,-2.96729554132689,-1.05200530168785,,-1.6097327414703035,,
,6441.0,767.0,3636.0,637.0,-63.0,874.0,3891.0,,,,-0.981379258723479,-2.96732191383112,-1.0526049104184,,-1.5571668282824764,,
,6443.0,769.0,3634.0,639.0,-53.0,858.0,3891.0,,,,-0.980907499891935,-2.96730643191252,-1.05256003726603,,-1.4783683898451823,,
,6444.0,768.0,3637.0,640.0,-46.0,870.0,3893.0,,,,-0.981666094947889,-2.96736062034775,-1.05234704510996,,-1.3718166820625155,,
,6447.0,769.0,3637.0,642.0,-47.0,876.0,3888.0,,,,-0.980750432749008,-2.96741693463175,-1.05199682902328,,-1.2369470115910224,,
,6445.0,767.0,3633.0,638.0,-51.0,874.0,3883.0,,,,-0.979790053923678,-2.96736822686469,-1.051456644052,,-1.0741379042953,,
,6448.0,766.0,3635.0,638.0,-51.0,868.0,3870.0,,,,-0.979645715280835,-2.96714322752002,-1.05210288333744,,-0.8846386485977271,,
,6449.0,767.0,3636.0,637.0,-46.0,877.0,3866.0,,,,-0.979249799308816,-2.96727309856133,-1.05197576468737,,-0.6704556138963946,,
,6447.0,770.0,3635.0,637.0,-48.0,874.0,3870.0,,,,-0.979760479160636,-2.96721464046541,-1.05185631053045,,-0.43422118360514134,,
,6451.0,769.0,3637.0,639.0,-63.0,881.0,3892.0,,,,-0.978781575992739,-2.96716682141902,-1.05138508222468,,-0.17907105566950057,,
,6449.0,769.0,3632.0,640.0,-52.0,872.0,3882.0,,,,-0.978503814330291,-2.9671800585573,-1.05073799234184,,0.09144717248120447,,
,6452.0,770.0,3635.0,640.0,-45.0,866.0,3865.0,,,,-0.978832890775852,-2.96711390167479,-1.05160369814788,,0.3734192207035831,,
,6449.0,768.0,3634.0,641.0,-54.0,858.0,3878.0,,,,-0.97823745567661,-2.96712317996467,-1.05107465906374,,0.6625604691485795,,
,6452.0,769.0,3634.0,638.0,-54.0,863.0,3879.0,,,,-0.977277090886549,-2.9670614454739,-1.05002637839543,,0.9541748333397401,,
,6450.0,767.0,3633.0,636.0,-48.0,871.0,3883.0,,,,-0.975787341549126,-2.96702517790331,-1.04976800724836,,1.2431001128743278,,
,6450.0,765.0,3631.0,638.0,-57.0,889.0,3884.0,,,,-0.975316253395948,-2.96689683264074,-1.04917383500377,,1.5236714423319275,,
,6449.0,770.0,3631.0,638.0,-56.0,874.0,3897.0,,,,-0.974206004241431,-2.96686261742256,-1.04892443249515,,1.7897353805492773,,
,6448.0,766.0,3631.0,638.0,-59.0,881.0,3894.0,,,,-0.974812383999647,-2.96684849137796,-1.04876173562563,,2.034741361166433,,
,6450.0,767.0,3631.0,639.0,-58.0,891.0,3901.0,,,,-0.974751236222512,-2.96686671188876,-1.049419159749,,2.2519262684451347,,
,6447.0,765.0,3628.0,637.0,-55.0,882.0,3896.0,,,,-0.975237592659449,-2.96686432497138,-1.04959387783166,,2.434593885855251,,
,6448.0,768.0,3627.0,637.0,-53.0,882.0,3905.0,,,,-0.974390747686212,-2.96688107268712,-1.04927800489952,,2.576475819670552,,
,6445.0,768.0,3627.0,638.0,-44.0,880.0,3867.0,,,,-0.973334427658945,-2.96670794862838,-1.04905248598463,,2.6721459427990375,,
,6447.0,768.0,3626.0,637.0,-51.0,885.0,3858.0,,,,-0.972896568882329,-2.96678472965048,-1.04843539289423,,2.717448161849723,,
,6445.0,764.0,3625.0,636.0,-52.0,897.0,3887.0,,,,-0.972043765153387,-2.96665310557344,-1.04846642545727,,2.7098891888204175,,
,6444.0,766.0,3626.0,637.0,-46.0,885.0,3903.0,,,,-0.970923040339979,-2.96651476705653,-1.04736009775451,,2.6489456691656357,,
,6448.0,769.0,3626.0,639.0,-51.0,878.0,3884.0,,,,-0.970929517755611,-2.96650788515123,-1.04768596584972,,2.5362396648088286,,
,6446.0,769.0,3625.0,639.0,-46.0,881.0,3882.0,,,,-0.969866722287227,-2.96658600183954,-1.04673842202305,,2.3755485298735866,,
,6451.0,766.0,3623.0,637.0,-59.0,886.0,3873.0,,,,-0.970458382678777,-2.96654827825052,-1.04703137292201,,2.1726340414404017,,
,6450.0,767.0,3622.0,637.0,-51.0,887.0,3872.0,,,,-0.970841741584765,-2.96651713594213,-1.04705146624483,,1.9348991832892504,,
,6452.0,768.0,3624.0,638.0,-40.0,895.0,3859.0,,,,-0.970736349065302,-2.96658190361653,-1.04709430309248,,1.6709053382900318,,
,6453.0,768.0,3625.0,637.0,-43.0,897.0,3859.0,,,,-0.969963625479535,-2.96649987769831,-1.04661437390256,,1.3898026991445418,,
,6453.0,769.0,3625.0,637.0,-41.0,876.0,3881.0,,,,-0.969376339807176,-2.96647221025269,-1.04663625462477,,1.1007378632974527,,
,6455.0,766.0,3621.0,636.0,-37.0,873.0,3870.0,,,,-0.968962777511761,-2.96643631179809,-1.04649665719121,,0.812302698311596,,
,6458.0,767.0,3623.0,639.0,-35.0,889.0,3874.0,,,,-0.969245536105251,-2.96642330231764,-1.04697226864161,,0.5320786033609615,,
,6460.0,770.0,3624.0,637.0,-47.0,892.0,3875.0,,,,-0.969356226648458,-2.96652558032654,-1.04641311973268,,0.2663133510623907,,
,6463.0,771.0,3626.0,639.0,-52.0,891.0,3878.0,,,,-0.96995893866811,-2.96644002757741,-1.04699630521071,,0.01974753436948884,,
,6462.0,765.0,3624.0,637.0,-55.0,886.0,3868.0,,,,-0.969331228655195,-2.96640956490743,-1.04685838134477,,-0.20441232319807837,,
,6468.0,769.0,3626.0,635.0,-51.0,879.0,3888.0,,,,-0.968880758915235,-2.96639158339415,-1.0467553767812,,-0.40439407118437215,,
,6469.0,770.0,3628.0,638.0,-35.0,882.0,3909.0,,,,-0.969446047249109,-2.96650520446335,-1.04694360520127,,-0.5796662757431713,,
,6472.0,771.0,3627.0,638.0,-45.0,882.0,3901.0,,,,-0.969471664840237,-2.96648763954699,-1.04677894638366,,-0.7306902427611047,,
,6472.0,769.0,3627.0,637.0,-52.0,873.0,3887.0,,,,-0.968837667662695,-2.96660070848336,-1.04660933609788,,-0.858658493929333,,
,6475.0,769.0,3626.0,638.0,-55.0,861.0,3885.0,,,,-0.969050424465683,-2.96644863905101,-1.0469329405627,,-0.9652558443083801,,
,6475.0,770.0,3628.0,638.0,-53.0,877.0,3882.0,,,,-0.968780403402252,-2.96641528124825,-1.04679634370554,,-1.0524695219232039,,
,6479.0,773.0,3627.0,640.0,-54.0,880.0,3880.0,,,,-0.968801049521516,-2.9664492134155,-1.04620293760208,,-1.1224614289012227,,
,6482.0,771.0,3630.0,640.0,-49.0,874.0,3884.0,,,,-0.968315546210206,-2.96642702204197,-1.04642065522459,,-1.1775010036403606,,
,6480.0,770.0,3627.0,637.0,-44.0,888.0,3883.0,,,,-0.968485978355325,-2.96643520268844,-1.0467010033264,,-1.2199441531494386,,
,6485.0,770.0,3630.0,639.0,-48.0,886.0,3900.0,,,,-0.968133338162299,-2.9664038505637,-1.0458817959074,,-1.2522351359471267,,
,6487.0,772.0,3630.0,640.0,-54.0,874.0,3893.0,,,,-0.967747712459939,-2.96641902626705,-1.04531212991644,,-1.27690559975118,,
,6490.0,774.0,3631.0,639.0,-55.0,874.0,3870.0,,,,-0.96766296124013,-2.96635126192047,-1.04564734197188,,-1.2965479760288485,,
,6491.0,773.0,3631.0,641.0,-41.0,862.0,3866.0,,,,-0.967480709739178,-2.96644463564586,-1.04638142682708,,-1.3137475658460833,,
,6493.0,771.0,3631.0,637.0,-46.0,856.0,3877.0,,,,-0.968000283493357,-2.96638036235158,-1.04605184178358,,-1.3309670206083404,,
,6497.0,775.0,3633.0,640.0,-54.0,866.0,3908.0,,,,-0.967503791610312,-2.96643595382777,-1.04586864992812,,-1.3503869057521294,,
,6495.0,773.0,3634.0,640.0,-44.0,876.0,3890.0,,,,-0.966622384576002,-2.96631929819315,-1.04563595664881,,-1.3737153610720398,,
,6499.0,772.0,3633.0,643.0,-46.0,869.0,3884.0,,,,-0.966161130089487,-2.96629580658793,-1.04491303110403,,-1.4019874868038442,,
,6500.0,772.0,3634.0,640.0,-42.0,873.0,3899.0,,,,-0.966164454909029,-2.96625779359924,-1.04488945400097,,-1.4353801576047052,,
,6504.0,774.0,3636.0,640.0,-47.0,858.0,3899.0,,,,-0.966044513030867,-2.96629860864702,-1.04550398677873,,-1.4730699125548645,,
,6503.0,775.0,3636.0,640.0,-58.0,879.0,3883.0,,,,-0.965846361572412,-2.96633539370122,-1.04540384862794,,-1.513159977926494,,
,6507.0,776.0,3640.0,643.0,-55.0,875.0,3879.0,,,,-0.966810626658969,-2.96634008250187,-1.04549234040426,,-1.5526970682843464,,
,6509.0,774.0,3637.0,642.0,-43.0,869.0,3881.0,,,,-0.9659234290617,-2.96620015005106,-1.04540362663357,,-1.587789394030468,,
,6511.0,774.0,3638.0,642.0,-49.0,871.0,3889.0,,,,-0.966082900470257,-2.96632705716963,-1.04529245329005,,-1.6138249657615806,,
,6511.0,773.0,3638.0,642.0,-58.0,875.0,3902.0,,,,-0.966244764516206,-2.96634979926756,-1.04484587227026,,-1.6257755369344222,,
,6514.0,777.0,3641.0,644.0,-44.0,872.0,3909.0,,,,-0.967430387588509,-2.96636338966672,-1.04619233765588,,-1.6185589896006027,,
,6516.0,778.0,3637.0,644.0,-46.0,873.0,3914.0,,,,-0.968171782443204,-2.96637525937254,-1.04640664822696,,-1.5874243308887777,,
,6518.0,777.0,3642.0,643.0,-43.0,900.0,3885.0,,,,-0.970123670463302,-2.96654852981987,-1.04734905984711,,-1.5283203366850873,,
,6522.0,778.0,3644.0,644.0,-50.0,894.0,3876.0,,,,-0.972134556390853,-2.96674090868166,-1.04814469855246,,-1.4382112723877678,,
,6524.0,778.0,3644.0,643.0,-50.0,885.0,3885.0,,,,-0.974166173563119,-2.96672960932362,-1.04967374238602,,-1.3153099814950817,,
2025-08-01 18:41:18,6527.0,776.0,3644.0,645.0,-47.0,882.0,3895.0,,,2025/08/01 06:41:18 PM,-0.976142408397491,-2.96697185612567,-1.05119653924703,,-1.1592087229324135,,
,6528.0,776.0,3644.0,645.0,-43.0,889.0,3915.0,,,,-0.978082474860534,-2.96709623344039,-1.05103338227744,,-0.9709004095925658,,
,6527.0,778.0,3648.0,643.0,-55.0,883.0,3885.0,,,,-0.978548693668146,-2.96718734206643,-1.0516979551015,,-0.7526961830046148,,
,6530.0,777.0,3648.0,645.0,-57.0,882.0,3894.0,,,,-0.979479264346456,-2.96725569593408,-1.05140194802325,,-0.5080579062034961,,
,6532.0,779.0,3650.0,644.0,-46.0,881.0,3880.0,,,,-0.980158893038653,-2.96726545142579,-1.05220755134177,,-0.24137417780032866,,
,6531.0,778.0,3648.0,643.0,-47.0,878.0,3883.0,,,,-0.979389929508031,-2.96726057659007,-1.05262291048921,,0.04228599535337615,,
,6529.0,777.0,3647.0,643.0,-44.0,880.0,3883.0,,,,-0.97874060948562,-2.96723414749627,-1.0515151719095,,0.33740794968716536,,
,6525.0,776.0,3646.0,645.0,-45.0,888.0,3888.0,,,,-0.977866658467161,-2.96710067593281,-1.05124996401866,,0.6382269536923687,,
,6522.0,776.0,3645.0,645.0,-49.0,875.0,3879.0,,,,-0.977870335362627,-2.96722339397826,-1.05107289949984,,0.9388687184190141,,
,6515.0,776.0,3642.0,643.0,-51.0,875.0,3884.0,,,,-0.977212375501701,-2.96694067201148,-1.05140931642772,,1.233433884107958,,
,6507.0,772.0,3641.0,640.0,-50.0,866.0,3900.0,,,,-0.977156366808558,-2.96712382300648,-1.05122013662713,,1.5160405329403681,,
,6497.0,772.0,3633.0,640.0,-40.0,875.0,3909.0,,,,-0.977570949421721,-2.96706752040648,-1.05156664988503,,1.7808499672426759,,
,6495.0,773.0,3633.0,641.0,-45.0,871.0,3897.0,,,,-0.977615552865027,-2.96704651448255,-1.05065297940335,,2.0221054156988614,,
,6486.0,772.0,3633.0,638.0,-53.0,849.0,3873.0,,,,-0.977688619947132,-2.96711392725919,-1.05146079809302,,2.234210196878602,,
,6479.0,770.0,3628.0,636.0,-57.0,854.0,3865.0,,,,-0.977063128494084,-2.96707951490664,-1.05183937418402,,2.4118626121095037,,
,6471.0,768.0,3625.0,635.0,-45.0,863.0,3881.0,,,,-0.976371472987305,-2.96704696528036,-1.05109125884546,,2.5502519998543125,,
,6467.0,765.0,3622.0,635.0,-52.0,886.0,3895.0,,,,-0.976841567434095,-2.96697045053247,-1.05049077238039,,2.6453064437797273,,
,6464.0,766.0,3620.0,633.0,-51.0,879.0,3887.0,,,,-0.975700011939574,-2.96688094600092,-1.05043879117997,,2.6939696133423823,,
,6461.0,766.0,3621.0,636.0,-47.0,887.0,3884.0,,,,-0.975448255342291,-2.96684043725955,-1.04973683333002,,2.6944739007928145,,
,6460.0,766.0,3620.0,634.0,-53.0,861.0,3906.0,,,,-0.975805845638559,-2.9667900927136,-1.04990675137868,,2.646571042541069,,
,6456.0,762.0,3616.0,630.0,-41.0,875.0,3904.0,,,,-0.976660551867964,-2.96693520566985,-1.05015012543846,,2.551681070956384,,
,6453.0,765.0,3615.0,634.0,-51.0,877.0,3916.0,,,,-0.976463483310604,-2.96710858958151,-1.05028237823843,,2.4129264133313124,,
,6452.0,765.0,3614.0,631.0,-45.0,887.0,3891.0,,,,-0.977763088482255,-2.96698604409842,-1.05042511052694,,2.235030165489052,,
,6453.0,766.0,3614.0,633.0,-48.0,879.0,3894.0,,,,-0.978026002097095,-2.96707818902566,-1.05163709684151,,2.0240750274330166,,
,6451.0,761.0,3611.0,631.0,-44.0,860.0,3880.0,,,,-0.977697424819593,-2.96695927543708,-1.050593392308,,1.7871398427501122,,
,6451.0,766.0,3610.0,632.0,-51.0,871.0,3881.0,,,,-0.97807788374786,-2.96705963160315,-1.05092855744001,,1.5318504224828324,,
,6450.0,765.0,3614.0,631.0,-46.0,876.0,3901.0,,,,-0.977838455887018,-2.96710458741851,-1.05058799961831,,1.2658958187344949,,
,6453.0,767.0,3612.0,631.0,-46.0,879.0,3906.0,,,,-0.977464046422649,-2.96709905490643,-1.05102700648897,,0.9965666736982636,,
,6452.0,765.0,3611.0,632.0,-48.0,872.0,3900.0,,,,-0.976989210844732,-2.96707506233369,-1.05012385003266,,0.7303673643219926,,
,6453.0,766.0,3612.0,632.0,-56.0,876.0,3889.0,,,,-0.976256228020505,-2.96705134114015,-1.05045008820152,,0.47273995791851936,,
,6452.0,765.0,3611.0,631.0,-55.0,859.0,3892.0,,,,-0.976874605299758,-2.96713208310298,-1.05003363557191,,0.227919043259726,,
,6456.0,765.0,3609.0,632.0,-46.0,872.0,3895.0,,,,-0.977525165109305,-2.967139883634,-1.05102207081003,,-0.0010835873262382656,,
,6453.0,767.0,3609.0,630.0,-44.0,885.0,3897.0,,,,-0.977534313072181,-2.96722836677361,-1.05148505190194,,-0.21238308503853226,,
,6453.0,766.0,3609.0,631.0,-47.0,872.0,3907.0,,,,-0.978060529524172,-2.96722588773354,-1.05155144706736,,-0.40504595248195185,,
,6459.0,764.0,3608.0,632.0,-47.0,872.0,3892.0,,,,-0.979121671841959,-2.96728938911348,-1.05156555461715,,-0.5788727889900284,,
,6459.0,767.0,3611.0,633.0,-54.0,861.0,3911.0,,,,-0.979123608689634,-2.96720989357507,-1.05152225813429,,-0.7341779069158579,,
,6461.0,769.0,3610.0,633.0,-47.0,874.0,3906.0,,,,-0.979868022033069,-2.96719284565922,-1.051682124634,,-0.8715992940762309,,
,6462.0,768.0,3612.0,631.0,-55.0,867.0,3891.0,,,,-0.979612927155352,-2.96723676679703,-1.05263649130189,,-0.991962894532603,,
,6463.0,766.0,3611.0,631.0,-54.0,882.0,3887.0,,,,-0.979492053484013,-2.96733760803603,-1.05237578750632,,-1.0962125619657626,,
,6462.0,769.0,3612.0,631.0,-42.0,866.0,3868.0,,,,-0.979016435112543,-2.96724606451037,-1.05186038361683,,-1.1854030021505595,,
,6463.0,766.0,3611.0,633.0,-57.0,862.0,3875.0,,,,-0.979660238867177,-2.96720588886552,-1.05226385762173,,-1.260739791768844,,
,6465.0,768.0,3610.0,632.0,-56.0,873.0,3899.0,,,,-0.979502362962748,-2.96731137067974,-1.05190416134516,,-1.3236407463170874,,
,6463.0,767.0,3610.0,631.0,-51.0,894.0,3900.0,,,,-0.979858042735788,-2.96729076097406,-1.05203101078341,,-1.3757887233044825,,
,6465.0,767.0,3609.0,632.0,-51.0,886.0,3897.0,,,,-0.979607654654783,-2.96728402178052,-1.05218459866107,,-1.4191481953759044,,
,6464.0,768.0,3612.0,631.0,-48.0,884.0,3887.0,,,,-0.979319424665415,-2.96733010429449,-1.05206995798675,,-1.4559256343832279,,
,6463.0,768.0,3608.0,632.0,-48.0,872.0,3884.0,,,,-0.979405938711408,-2.96731829680763,-1.05219738593715,,-1.488464755871945,,
,6460.0,766.0,3610.0,630.0,-50.0,873.0,3898.0,,,,-0.979156732554268,-2.96729122875987,-1.05176655362336,,-1.5190796554857482,,
,6460.0,766.0,3609.0,626.0,-48.0,881.0,3899.0,,,,-0.979418847118205,-2.96732899174118,-1.05195903340672,,-1.54983997114932,,
,6462.0,765.0,3607.0,630.0,-54.0,887.0,3914.0,,,,-0.978940134444826,-2.9672723472801,-1.05200918328354,,-1.5823311514702272,,
,6462.0,766.0,3609.0,630.0,-37.0,865.0,3900.0,,,,-0.97944703259774,-2.96720576673868,-1.05258513400985,,-1.617418860836295,,
,6461.0,767.0,3608.0,629.0,-31.0,861.0,3903.0,,,,-0.979626423554365,-2.9672125318978,-1.05222721411107,,-1.6550489795258654,,
,6459.0,766.0,3607.0,628.0,-51.0,862.0,3889.0,,,,-0.979814284805477,-2.96729925538306,-1.05243309311907,,-1.694113268479194,,
,6462.0,768.0,3609.0,629.0,-51.0,884.0,3909.0,,,,-0.979052952449524,-2.96737470834982,-1.05154184507145,,-1.7324054412728742,,
,6460.0,767.0,3611.0,632.0,-45.0,887.0,3904.0,,,,-0.978659650683023,-2.96733028204688,-1.05106850560618,,-1.766683236370916,,
,6461.0,766.0,3609.0,628.0,-42.0,876.0,3892.0,,,,-0.977071628345317,-2.96710215632134,-1.0507177164507,,-1.7928396957231936,,
,6460.0,767.0,3611.0,630.0,-50.0,874.0,3869.0,,,,-0.977182522399116,-2.96711355199455,-1.05086708286208,,-1.8061725827139696,,
,6462.0,769.0,3610.0,629.0,-49.0,864.0,3887.0,,,,-0.976590938556595,-2.96709584417501,-1.05044525028261,,-1.8017269900956876,,
,6463.0,769.0,3610.0,630.0,-55.0,884.0,3898.0,,,,-0.975860617523224,-2.96700161091779,-1.05098196871557,,-1.7746755356067399,,
,6466.0,768.0,3613.0,631.0,-55.0,877.0,3921.0,,,,-0.976212244587655,-2.96700051548615,-1.04997073534782,,-1.7206954742208784,,
,6465.0,767.0,3612.0,628.0,-54.0,876.0,3919.0,,,,-0.976538011291094,-2.96714055519299,-1.05047139135685,,-1.6363033991781233,,
,6466.0,770.0,3611.0,629.0,-46.0,861.0,3904.0,,,,-0.977222184736291,-2.96702308783937,-1.05090855226603,,-1.5191151532541154,,
,6467.0,768.0,3611.0,630.0,-45.0,876.0,3930.0,,,,-0.97827816061206,-2.96712592578635,-1.05122500956289,,-1.3680094661256172,,
,6472.0,772.0,3613.0,631.0,-48.0,883.0,3916.0,,,,-0.978028464530535,-2.96706825043898,-1.05068060875372,,-1.1831869214402222,,
,6473.0,773.0,3614.0,632.0,-45.0,891.0,3904.0,,,,-0.977529217100332,-2.96706850581817,-1.05055166327077,,-0.9661294773328182,,
,6473.0,770.0,3614.0,631.0,-54.0,882.0,3896.0,,,,-0.977102514349779,-2.96701998664861,-1.05034667829235,,-0.7194781966122239,,
,6476.0,770.0,3616.0,628.0,-61.0,864.0,3891.0,,,,-0.976528704738507,-2.96701237828057,-1.05019236367648,,-0.44685633924556767,,
,6479.0,769.0,3615.0,632.0,-57.0,861.0,3888.0,,,,-0.976062360662921,-2.96707223880094,-1.05014296498325,,-0.15267005911683926,,
,6480.0,771.0,3617.0,633.0,-53.0,879.0,3914.0,,,,-0.976527684789539,-2.96713135034927,-1.05034100590482,,0.15808126748666046,,
,6480.0,773.0,3618.0,632.0,-53.0,887.0,3913.0,,,,-0.976892063348944,-2.96716525032132,-1.05007939664682,,0.47995877458364267,,
,6484.0,770.0,3617.0,630.0,-53.0,875.0,3901.0,,,,-0.97713357316995,-2.96711701643854,-1.05012206880941,,0.8071862771928402,,
,6487.0,770.0,3621.0,632.0,-57.0,871.0,3886.0,,,,-0.978120761688984,-2.9671138997174,-1.05052413739402,,1.1336994982268143,,
,6488.0,773.0,3624.0,632.0,-49.0,884.0,3896.0,,,,-0.97798311151241,-2.96708920848036,-1.05138537787263,,1.4531563319879754,,
,6492.0,772.0,3625.0,632.0,-52.0,884.0,3910.0,,,,-0.978486888378143,-2.96719660857064,-1.05083526028206,,1.7589352368740145,,
,6492.0,773.0,3626.0,631.0,-58.0,876.0,3916.0,,,,-0.978028348881749,-2.96718866479795,-1.05122607410839,,2.044156239464596,,
,6493.0,773.0,3625.0,631.0,-49.0,869.0,3896.0,,,,-0.977639431125635,-2.96719469405689,-1.05063125826844,,2.3017585535587384,,
,6494.0,776.0,3624.0,632.0,-56.0,849.0,3898.0,,,,-0.977803746378432,-2.96721069467958,-1.05119231828426,,2.5246605804289826,,
,6499.0,773.0,3627.0,633.0,-54.0,852.0,3902.0,,,,-0.977850346679396,-2.96711690425252,-1.0511439016408,,2.7060140285680743,,
,6503.0,774.0,3627.0,633.0,-51.0,872.0,3916.0,,,,-0.978136591017156,-2.96709013573443,-1.05098581499393,,2.8395467453134096,,
,6503.0,773.0,3628.0,634.0,-51.0,894.0,3908.0,,,,-0.977733180433687,-2.96710224596542,-1.0505384224122,,2.9199711617374238,,
,6505.0,777.0,3633.0,633.0,-48.0,886.0,3890.0,,,,-0.977748776167737,-2.96712071723245,-1.0508167523657,,2.943419364356137,,
,6512.0,776.0,3634.0,635.0,-52.0,877.0,3893.0,,,,-0.977467607657467,-2.96710180096962,-1.05055611117804,,2.9078539799760246,,
,6513.0,778.0,3636.0,639.0,-50.0,875.0,3901.0,,,,-0.978272559547484,-2.96707235952112,-1.05110734463851,,2.8133984382638535,,
,6513.0,776.0,3634.0,634.0,-54.0,862.0,3925.0,,,,-0.978670608779327,-2.96722607024103,-1.05116602350779,,2.6625325430301796,,
,6516.0,776.0,3637.0,634.0,-50.0,884.0,3900.0,,,,-0.978589609721253,-2.96731980039302,-1.05106781230231,,2.460110638237345,,
,6516.0,777.0,3635.0,633.0,-52.0,887.0,3897.0,,,,-0.97826403091722,-2.96715550505293,-1.05087259845623,,2.2131796582725496,,
,6524.0,778.0,3641.0,637.0,-61.0,870.0,3905.0,,,,-0.977432279442133,-2.96702420252001,-1.05053416905328,,1.930600750905362,,
,6522.0,778.0,3641.0,634.0,-62.0,858.0,3908.0,,,,-0.977495864092648,-2.96705933412359,-1.05097362847715,,1.6225065464165762,,
,6525.0,778.0,3641.0,634.0,-45.0,868.0,3922.0,,,,-0.977232013984419,-2.9670933678738,-1.0505312436425,,1.2996505942615046,,
,6526.0,779.0,3643.0,636.0,-46.0,878.0,3903.0,,,,-0.976969912641962,-2.9670144300134,-1.05031876221867,,0.9727203786661075,,
,6530.0,781.0,3645.0,638.0,-58.0,885.0,3885.0,,,,-0.976706705580004,-2.96701396956695,-1.0506564352418,,0.6516875779915958,,
,6531.0,782.0,3647.0,638.0,-62.0,881.0,3879.0,,,,-0.976594763000186,-2.9669834017841,-1.0499570827826,,0.34525945410698566,,
,6532.0,780.0,3648.0,636.0,-64.0,854.0,3885.0,,,,-0.977333008218005,-2.96697401397836,-1.05053650970669,,0.06047698141195034,,
,6536.0,781.0,3649.0,637.0,-66.0,857.0,3901.0,,,,-0.977161374532421,-2.96700275079002,-1.05074160627897,,-0.1975168732141028,,
,6536.0,785.0,3651.0,638.0,-59.0,880.0,3910.0,,,,-0.976981198185968,-2.96705845334998,-1.05052075107328,,-0.4255373859302266,,
,6537.0,782.0,3651.0,638.0,-52.0,886.0,3903.0,,,,-0.976953471081162,-2.96712386101048,-1.05064405975076,,-0.6222645299802259,,
,6542.0,781.0,3652.0,638.0,-49.0,870.0,3885.0,,,,-0.976898090706141,-2.96705935533724,-1.05032703460961,,-0.788027519665225,,
,6543.0,782.0,3653.0,638.0,-41.0,852.0,3875.0,,,,-0.977453905571412,-2.96712711701226,-1.05043482264202,,-0.9245077228977671,,
,6548.0,783.0,3653.0,637.0,-42.0,846.0,3893.0,,,,-0.978131996903033,-2.96707477902397,-1.05078168282401,,-1.034402679094136,,
,6548.0,782.0,3656.0,638.0,-47.0,871.0,3897.0,,,,-0.977934874417191,-2.96715321883308,-1.05114851323691,,-1.1210907132534826,,
,6547.0,782.0,3658.0,637.0,-51.0,870.0,3893.0,,,,-0.978971106637861,-2.96719700408395,-1.05176072238146,,-1.1883273121793,,
,6552.0,784.0,3659.0,638.0,-54.0,859.0,3892.0,,,,-0.980882278543618,-2.96738808797182,-1.05196848203845,,-1.2399922792943874,,
,6553.0,782.0,3658.0,637.0,-51.0,874.0,3880.0,,,,-0.982435028123323,-2.96748484737761,-1.05343107885449,,-1.2798928546480846,,
,6554.0,783.0,3660.0,638.0,-38.0,881.0,3894.0,,,,-0.984618742738899,-2.96769890650791,-1.05436169011492,,-1.3116153972288802,,
,6553.0,783.0,3661.0,638.0,-45.0,886.0,3904.0,,,,-0.986923408443987,-2.96774148093256,-1.05562452497375,,-1.3384098161889888,,
,6547.0,782.0,3659.0,636.0,-52.0,876.0,3898.0,,,,-0.988624924764804,-2.96804060598198,-1.05652220409195,,-1.3630884520572466,,
,6544.0,783.0,3656.0,635.0,-45.0,859.0,3876.0,,,,-0.989692318060948,-2.9680093934396,-1.05686739999843,,-1.3879243433077637,,
,6537.0,778.0,3654.0,634.0,-56.0,846.0,3869.0,,,,-0.991519375362662,-2.96817659871162,-1.05758714179953,,-1.4145410028537775,,
,6530.0,779.0,3653.0,635.0,-47.0,866.0,3877.0,,,,-0.99227080827923,-2.96815988008359,-1.0583971491896,,-1.44379472155986,,
,6526.0,778.0,3650.0,634.0,-45.0,878.0,3883.0,,,,-0.992845524862467,-2.96818574504196,-1.05899927717319,,-1.4756590785706007,,
,6514.0,778.0,3646.0,630.0,-38.0,887.0,3889.0,,,,-0.992496324202168,-2.9681779092929,-1.05882162369696,,-1.5091283630277927,,
,6506.0,775.0,3641.0,632.0,-55.0,878.0,3917.0,,,,-0.992050934651263,-2.96807912553134,-1.05829241685478,,-1.5421609993220298,,
,6500.0,775.0,3641.0,629.0,-55.0,861.0,3909.0,,,,-0.991373312413331,-2.96808684546778,-1.05853584464665,,-1.5716851125982398,,
,6494.0,774.0,3637.0,632.0,-52.0,863.0,3891.0,,,,-0.990680699179809,-2.96802577571793,-1.05815507107688,,-1.593685641768148,,
,6484.0,773.0,3632.0,631.0,-44.0,871.0,3885.0,,,,-0.990621164676793,-2.96806384925515,-1.05788911566756,,-1.6033857828963742,,
,6480.0,769.0,3631.0,627.0,-39.0,884.0,3896.0,,,,-0.990099937802255,-2.96805583639387,-1.05699734576674,,-1.5955252997197855,,
,6471.0,768.0,3626.0,626.0,-51.0,884.0,3877.0,,,,-0.989061132451182,-2.96796700081491,-1.0569975264529,,-1.5647252046286575,,
,6469.0,771.0,3627.0,626.0,-55.0,885.0,3884.0,,,,-0.9888822529494,-2.96789261654263,-1.05642149822136,,-1.5059141259249944,,
,6466.0,768.0,3623.0,624.0,-58.0,886.0,3879.0,,,,-0.98875525841684,-2.96791301235927,-1.05637529810178,,-1.4147789164623266,,
,6462.0,767.0,3619.0,623.0,-47.0,882.0,3910.0,,,,-0.988036293582344,-2.96781116016416,-1.05649429784295,,-1.2881939147169135,,
,6464.0,766.0,3616.0,622.0,-48.0,882.0,3908.0,,,,-0.988130460485912,-2.96782459033128,-1.05615694144649,,-1.1245824111463048,,
,6459.0,769.0,3621.0,626.0,-53.0,881.0,3919.0,,,,-0.987684705643652,-2.96783832361002,-1.05553076498754,,-0.9241710455666324,,
,6456.0,771.0,3617.0,623.0,-55.0,871.0,3905.0,,,,-0.987916979464953,-2.96780228325947,-1.05621757654173,,-0.6891113801836931,,
,6455.0,769.0,3618.0,624.0,-53.0,867.0,3882.0,,,,-0.987953050160719,-2.96787638628209,-1.05576554187888,,-0.423459492743197,,
,6453.0,768.0,3614.0,623.0,-42.0,875.0,3876.0,,,,-0.988200493377928,-2.96781926633873,-1.05617975424005,,-0.1330206735854015,,
,6455.0,765.0,3615.0,622.0,-45.0,868.0,3898.0,,,,-0.988420092832586,-2.96773720249128,-1.05576206157822,,0.17492043100161409,,
,6453.0,767.0,3615.0,623.0,-46.0,862.0,3893.0,,,,-0.987564748169642,-2.96780031817884,-1.05612942074252,,0.4919550470462787,,
,6451.0,768.0,3614.0,623.0,-45.0,868.0,3897.0,,,,-0.987554267462019,-2.96766651006058,-1.05577296208112,,0.8089576004559348,,
,6454.0,767.0,3611.0,622.0,-48.0,853.0,3891.0,,,,-0.986893831603606,-2.96767858660551,-1.05588463160829,,1.116512077319321,,
2025-08-01 18:41:19,6448.0,767.0,3614.0,621.0,-50.0,868.0,3891.0,,,2025/08/01 06:41:19 PM,-0.985985592857393,-2.96777304373019,-1.05541619884292,,1.4053280374373711,,
,6451.0,769.0,3611.0,620.0,-48.0,863.0,3899.0,,,,-0.985926197470494,-2.96762949271715,-1.05463670325932,,1.666623226146074,,
,6451.0,767.0,3612.0,621.0,-54.0,850.0,3889.0,,,,-0.984987358201205,-2.9676366765712,-1.05519260054867,,1.8924578667724217,,
,6452.0,767.0,3611.0,620.0,-51.0,858.0,3876.0,,,,-0.984668189544231,-2.96757587889134,-1.05390097413983,,2.076014544202543,,
,6450.0,764.0,3608.0,619.0,-59.0,864.0,3869.0,,,,-0.984490993927286,-2.96750160593096,-1.05473339580639,,2.211825303778958,,
,6451.0,769.0,3610.0,621.0,-56.0,863.0,3895.0,,,,-0.984109463063819,-2.96767853312384,-1.05457196630944,,2.2959519429149897,,
,6451.0,768.0,3610.0,621.0,-43.0,860.0,3895.0,,,,-0.985058633343078,-2.96755032363276,-1.0541390533738,,2.3261249459822184,,
,6451.0,768.0,3609.0,620.0,-45.0,865.0,3884.0,,,,-0.984291738920539,-2.96754248018223,-1.05430134652673,,2.301841540757748,,
,6452.0,769.0,3609.0,619.0,-46.0,862.0,3883.0,,,,-0.984249456095318,-2.96762983064341,-1.05394576364305,,2.224416387028147,,
,6453.0,767.0,3608.0,618.0,-54.0,863.0,3883.0,,,,-0.984494622388801,-2.96761540739924,-1.05429718664477,,2.0969726729200966,,
,6455.0,768.0,3610.0,621.0,-48.0,884.0,3873.0,,,,-0.984757703806409,-2.96758788129202,-1.05404930108084,,1.9243593809371162,,
,6453.0,768.0,3607.0,621.0,-55.0,894.0,3888.0,,,,-0.985070827651591,-2.96768772227541,-1.05450214755669,,1.7129831382725706,,
,6453.0,766.0,3608.0,617.0,-56.0,893.0,3891.0,,,,-0.984992916334325,-2.9676275898845,-1.05430434905894,,1.470549846816058,,
,6453.0,767.0,3607.0,619.0,-57.0,877.0,3900.0,,,,-0.985012687428093,-2.96761028445308,-1.05519029587719,,1.2057206470699604,,
,6455.0,767.0,3608.0,619.0,-50.0,867.0,3897.0,,,,-0.985333178982427,-2.96768462179603,-1.05475977798514,,0.9276966809240911,,
,6454.0,767.0,3610.0,621.0,-52.0,871.0,3874.0,,,,-0.984575998630132,-2.9675880570271,-1.05494313501707,,0.6457557002791721,,
,6452.0,766.0,3609.0,620.0,-59.0,868.0,3874.0,,,,-0.985212238828594,-2.96761555174714,-1.05509074951205,,0.3687697119877873,,
,6451.0,769.0,3607.0,619.0,-59.0,865.0,3886.0,,,,-0.985141377967768,-2.96759986991421,-1.05459884268209,,0.10473643550859928,,
,6451.0,766.0,3606.0,619.0,-54.0,865.0,3887.0,,,,-0.985034281035908,-2.96768947988465,-1.0557099100984,,-0.13964121947904562,,
,6452.0,767.0,3606.0,619.0,-45.0,869.0,3881.0,,,,-0.986079064932362,-2.96773802390214,-1.0548627588018,,-0.3592941043332481,,
,6448.0,769.0,3602.0,618.0,-40.0,873.0,3896.0,,,,-0.986382445461083,-2.96769252653127,-1.05558388039008,,-0.5510141077026127,,
,6449.0,768.0,3605.0,621.0,-39.0,874.0,3899.0,,,,-0.985872728134403,-2.96780339499758,-1.0553627133289,,-0.7135468204886063,,
,6449.0,767.0,3604.0,617.0,-52.0,872.0,3915.0,,,,-0.986039441814806,-2.96760836911519,-1.05507119564514,,-0.8475376113178916,,
,6452.0,767.0,3606.0,618.0,-47.0,866.0,3898.0,,,,-0.986281256580457,-2.96767852386299,-1.05566294420546,,-0.9553325769011015,,
,6450.0,767.0,3606.0,619.0,-46.0,874.0,3892.0,,,,-0.985615398590239,-2.96763377903761,-1.05435220034388,,-1.0406496145334798,,
,6448.0,767.0,3603.0,618.0,-45.0,871.0,3895.0,,,,-0.98494401539061,-2.96764867901145,-1.05434479930453,,-1.1081469948439602,,
,6449.0,769.0,3604.0,617.0,-42.0,861.0,3898.0,,,,-0.984764354070222,-2.96758200153358,-1.05427818466199,,-1.1629260120512457,,
,6450.0,767.0,3606.0,617.0,-50.0,874.0,3900.0,,,,-0.984592518766606,-2.96750524806856,-1.05382216103055,,-1.2100099166813012,,
,6451.0,769.0,3604.0,620.0,-57.0,867.0,3892.0,,,,-0.983757302750687,-2.96747539754093,-1.05384145011323,,-1.2538431464383466,,
,6454.0,769.0,3607.0,618.0,-55.0,872.0,3894.0,,,,-0.983826910005817,-2.96751101670647,-1.05371308747987,,-1.297852931535576,,
,6451.0,767.0,3606.0,617.0,-56.0,872.0,3899.0,,,,-0.982954692655349,-2.96745178207832,-1.05270665901217,,-1.3441099851568712,,
,6454.0,766.0,3605.0,617.0,-61.0,874.0,3893.0,,,,-0.983019333199823,-2.96753802802753,-1.05348747839081,,-1.3931166097888525,,
,6455.0,769.0,3606.0,618.0,-50.0,868.0,3880.0,,,,-0.983012725850422,-2.96749175472194,-1.05377377860518,,-1.4437395408373572,,
,6457.0,770.0,3607.0,618.0,-51.0,880.0,3902.0,,,,-0.982776572311551,-2.96746996614635,-1.0528211811878,,-1.4932917069727936,,
,6457.0,770.0,3608.0,620.0,-53.0,875.0,3892.0,,,,-0.982624088015308,-2.96736123237473,-1.05277774463138,,-1.537752801805809,,
,6459.0,769.0,3608.0,618.0,-58.0,875.0,3879.0,,,,-0.982376402046363,-2.96747099863478,-1.05323882832893,,-1.5721049475654232,,
,6461.0,769.0,3606.0,618.0,-57.0,890.0,3888.0,,,,-0.982109620540587,-2.96723143655815,-1.05289583905448,,-1.5907491607572197,,
,6464.0,772.0,3610.0,619.0,-54.0,865.0,3880.0,,,,-0.982148567855583,-2.96736302698807,-1.05228785375502,,-1.5879626980840629,,
,6465.0,769.0,3608.0,618.0,-50.0,865.0,3885.0,,,,-0.98252109689494,-2.96724436617416,-1.0525887512365,,-1.5583571019393774,,
,6467.0,770.0,3613.0,620.0,-48.0,871.0,3875.0,,,,-0.981992410388462,-2.96726955182755,-1.05200427944687,,-1.4973008903716774,,
,6469.0,769.0,3607.0,618.0,-38.0,888.0,3868.0,,,,-0.982225173781301,-2.96740508335164,-1.05240195839857,,-1.401277848292165,,
,6471.0,770.0,3613.0,618.0,-50.0,888.0,3868.0,,,,-0.982106668054725,-2.96733977820979,-1.05253344172599,,-1.2681605683807935,,
,6472.0,772.0,3613.0,618.0,-52.0,890.0,3870.0,,,,-0.982426377505321,-2.9674286092593,-1.05256740600684,,-1.0973884526691051,,
,6478.0,771.0,3615.0,621.0,-58.0,887.0,3870.0,,,,-0.982622398331623,-2.96726295344202,-1.05293203277229,,-0.8900490473563083,,
,6479.0,773.0,3614.0,621.0,-45.0,868.0,3900.0,,,,-0.983042884990184,-2.96735575524271,-1.05282900436807,,-0.6488703251331885,,
,6479.0,769.0,3616.0,620.0,-46.0,869.0,3890.0,,,,-0.98255381907005,-2.96742827791784,-1.05293778001513,,-0.37813812490248644,,
,6481.0,772.0,3615.0,620.0,-47.0,878.0,3885.0,,,,-0.983011188348188,-2.96748362884103,-1.05338972807598,,-0.0835562417828626,,
,6484.0,772.0,3618.0,622.0,-58.0,875.0,3898.0,,,,-0.983679063002345,-2.96750410678354,-1.05378409065593,,0.22793410031571698,,
,6487.0,772.0,3618.0,621.0,-58.0,869.0,3899.0,,,,-0.983527206507615,-2.96754946780357,-1.05322161978589,,0.5483633530926068,,
,6487.0,772.0,3617.0,619.0,-53.0,870.0,3896.0,,,,-0.983702177303825,-2.96754707669483,-1.05352509278285,,0.8689666644371885,,
,6489.0,774.0,3621.0,621.0,-50.0,869.0,3891.0,,,,-0.983505181575669,-2.96740987736214,-1.05325964215124,,1.1804438663574883,,
,6494.0,777.0,3620.0,623.0,-55.0,870.0,3899.0,,,,-0.983143277199393,-2.96746408121482,-1.05287161284772,,1.4732545747992742,,
,6496.0,776.0,3624.0,622.0,-64.0,859.0,3890.0,,,,-0.982913349813352,-2.96743560799195,-1.0528978456344,,1.7379565690164451,,
,6495.0,775.0,3622.0,624.0,-60.0,840.0,3897.0,,,,-0.982800311721542,-2.96752991677167,-1.05284506858827,,1.965589820045227,,
,6498.0,776.0,3621.0,622.0,-48.0,862.0,3909.0,,,,-0.982464718521395,-2.96738099856226,-1.05262538166711,,2.1480982303744938,,
,6501.0,777.0,3627.0,627.0,-46.0,872.0,3901.0,,,,-0.981282164660641,-2.96737037031136,-1.05194371193757,,2.2787689112376386,,
,6502.0,777.0,3627.0,626.0,-52.0,864.0,3889.0,,,,-0.98083815219031,-2.96725355974682,-1.05158218859594,,2.3526573873924432,,
,6503.0,776.0,3625.0,623.0,-48.0,866.0,3894.0,,,,-0.97949453961293,-2.96722025845703,-1.05151830867302,,2.3669587871257765,,
,6506.0,778.0,3624.0,624.0,-49.0,862.0,3904.0,,,,-0.979696553771683,-2.96709022552759,-1.05158826753969,,2.3212816803188696,,
,6506.0,778.0,3627.0,623.0,-50.0,881.0,3910.0,,,,-0.978420726025717,-2.96712351375665,-1.05103619173262,,2.217784055737634,,
,6507.0,778.0,3630.0,623.0,-51.0,887.0,3931.0,,,,-0.977624076550803,-2.96711668059091,-1.05005019330255,,2.0611404159542213,,
,6510.0,780.0,3629.0,621.0,-48.0,893.0,3904.0,,,,-0.976758935262395,-2.96696390064752,-1.05078232744147,,1.8583244242527024,,
,6510.0,777.0,3630.0,624.0,-49.0,879.0,3885.0,,,,-0.976364465206463,-2.96687254833778,-1.04994507484129,,1.6182111776384074,,
,6510.0,777.0,3630.0,623.0,-58.0,864.0,3878.0,,,,-0.975813643903663,-2.96693121830528,-1.05004904641489,,1.3510244395458635,,
,6515.0,778.0,3630.0,626.0,-53.0,854.0,3906.0,,,,-0.975699996462599,-2.96683020500236,-1.05009873074785,,1.0676740553076134,,
,6514.0,778.0,3633.0,626.0,-52.0,867.0,3914.0,,,,-0.974815255844241,-2.96688083234229,-1.04885933747101,,0.7790441289547823,,
,6519.0,782.0,3633.0,626.0,-46.0,870.0,3914.0,,,,-0.97459948806352,-2.96675118998013,-1.04844514496487,,0.4953003798994431,,
,6519.0,779.0,3633.0,624.0,-50.0,867.0,3893.0,,,,-0.974593630278046,-2.96674132950494,-1.04960699227382,,0.2252833930115738,,
,6524.0,782.0,3635.0,624.0,-55.0,867.0,3905.0,,,,-0.974219254665838,-2.96694620245794,-1.04962568457741,,-0.023956872210437054,,
,6526.0,780.0,3637.0,626.0,-42.0,863.0,3892.0,,,,-0.975777935227554,-2.96686137882086,-1.05039544460261,,-0.24744870459875745,,
,6528.0,783.0,3638.0,626.0,-40.0,863.0,3898.0,,,,-0.976559488486668,-2.96707100063178,-1.05012430730403,,-0.4423941174117948,,
,6528.0,781.0,3637.0,624.0,-45.0,863.0,3867.0,,,,-0.978757502703934,-2.96703284274701,-1.05151116991336,,-0.6080798000202392,,
,6532.0,781.0,3637.0,626.0,-53.0,865.0,3881.0,,,,-0.979928390954144,-2.96723370731761,-1.05285074292109,,-0.7456296178246286,,
,6533.0,782.0,3641.0,628.0,-52.0,875.0,3907.0,,,,-0.981571689287891,-2.96738970119919,-1.05314386044097,,-0.857637997174408,,
,6532.0,781.0,3638.0,627.0,-47.0,873.0,3890.0,,,,-0.983479879070556,-2.9675616261818,-1.05444541975095,,-0.947730933528312,,
,6531.0,781.0,3640.0,625.0,-47.0,883.0,3891.0,,,,-0.985112464820093,-2.96771179726284,-1.05488599813771,,-1.0201029995987878,,
,6527.0,779.0,3636.0,625.0,-51.0,884.0,3885.0,,,,-0.985096091284184,-2.96767122008172,-1.05494195958753,,-1.0790752582053162,,
,6522.0,779.0,3638.0,624.0,-59.0,861.0,3871.0,,,,-0.985816368676238,-2.96769618295833,-1.05580729439518,,-1.128711349637391,,
,6514.0,779.0,3633.0,624.0,-55.0,866.0,3897.0,,,,-0.985233069053756,-2.96759812479428,-1.05587039630455,,-1.1725182451524467,,
,6509.0,777.0,3630.0,622.0,-53.0,879.0,3905.0,,,,-0.984583887982848,-2.96764569191466,-1.05474888749322,,-1.2132453068171032,,
,6498.0,775.0,3626.0,623.0,-42.0,890.0,3928.0,,,,-0.98337352273654,-2.96761051481232,-1.05439755232048,,-1.2527816827265177,,
,6490.0,773.0,3621.0,618.0,-55.0,879.0,3921.0,,,,-0.982788009589014,-2.96756245669927,-1.05396329929016,,-1.2921394829569557,,
,6483.0,773.0,3619.0,619.0,-61.0,857.0,3886.0,,,,-0.981727539535479,-2.96744983412446,-1.0533216535385,,-1.3315008258467147,,
,6474.0,770.0,3616.0,619.0,-58.0,845.0,3885.0,,,,-0.981836805422051,-2.9673064409276,-1.05269475387857,,-1.3703026747455476,,
,6468.0,770.0,3611.0,617.0,-56.0,859.0,3895.0,,,,-0.980529624205424,-2.9674634030227,-1.05296206598837,,-1.4073351056073264,,
,6460.0,768.0,3605.0,614.0,-47.0,869.0,3912.0,,,,-0.980064568339798,-2.96731422824282,-1.05310017108748,,-1.4408351879134225,,
,6455.0,768.0,3605.0,617.0,-54.0,866.0,3906.0,,,,-0.979204667288985,-2.96734647081359,-1.05189115222586,,-1.4685677149450977,,
,6450.0,767.0,3601.0,615.0,-47.0,874.0,3875.0,,,,-0.97974810312764,-2.96722901852757,-1.05152802142865,,-1.487893133183645,,
,6447.0,766.0,3601.0,615.0,-47.0,876.0,3883.0,,,,-0.979195386748338,-2.96725138263153,-1.05229635785365,,-1.4958303811088858,,
,6442.0,766.0,3599.0,613.0,-54.0,867.0,3893.0,,,,-0.978809414938398,-2.9673323350154,-1.05152119370572,,-1.4891269176921653,,
,6442.0,766.0,3596.0,613.0,-53.0,881.0,3912.0,,,,-0.978314633205884,-2.96721571957891,-1.05151503838053,,-1.4643495769801766,,
,6438.0,765.0,3594.0,613.0,-55.0,883.0,3902.0,,,,-0.978389888821437,-2.96714044963519,-1.05168765452767,,-1.4180080933484691,,
,6436.0,765.0,3592.0,614.0,-61.0,884.0,3875.0,,,,-0.978693379472992,-2.96715323187672,-1.05151015887997,,-1.3467186860120919,,
,6434.0,763.0,3591.0,611.0,-53.0,863.0,3883.0,,,,-0.97847673371594,-2.96722919853484,-1.0517808783508,,-1.2474087480502583,,
,6433.0,761.0,3588.0,611.0,-37.0,859.0,3883.0,,,,-0.978895039720792,-2.9672093957659,-1.05207904920202,,-1.1175563306385032,,
,6433.0,765.0,3590.0,610.0,-41.0,864.0,3897.0,,,,-0.97851451225264,-2.96729417350324,-1.05071696280128,,-0.9554505670648588,,
,6432.0,765.0,3585.0,611.0,-55.0,869.0,3901.0,,,,-0.978820859160793,-2.96715563927037,-1.05188829489421,,-0.760452278125517,,
,6429.0,763.0,3585.0,610.0,-59.0,868.0,3892.0,,,,-0.978654639084671,-2.96717394512242,-1.0518417384376,,-0.5332288785985982,,
,6427.0,764.0,3584.0,608.0,-63.0,865.0,3896.0,,,,-0.979045635723349,-2.96726568562384,-1.05207357040764,,-0.2759358117096791,,
,6431.0,764.0,3583.0,612.0,-53.0,847.0,3892.0,,,,-0.979467769924946,-2.96723425035044,-1.05137030773239,,0.007680872671984198,,
,6430.0,762.0,3581.0,609.0,-47.0,850.0,3900.0,,,,-0.979379790047712,-2.96715416626884,-1.05138794277153,,0.3122797320478903,,
,6427.0,763.0,3579.0,611.0,-49.0,857.0,3889.0,,,,-0.979469790780579,-2.96722144975401,-1.051041365443,,0.6310268949828449,,
,6428.0,763.0,3579.0,609.0,-53.0,850.0,3885.0,,,,-0.979886970878913,-2.96721185605276,-1.05166379427986,,0.9558071405293788,,
,6425.0,761.0,3579.0,611.0,-61.0,843.0,3878.0,,,,-0.980036556450603,-2.96722103726073,-1.05164419052356,,1.277534593027949,,
,6428.0,759.0,3576.0,607.0,-53.0,851.0,3875.0,,,,-0.980360665435297,-2.96725057266555,-1.0512981413682,,1.5865468801192408,,
,6427.0,764.0,3579.0,610.0,-54.0,882.0,3879.0,,,,-0.980878223596497,-2.96717226082595,-1.05191478864148,,1.87306015713118,,
,6429.0,763.0,3578.0,609.0,-53.0,890.0,3896.0,,,,-0.980556368523063,-2.967209018927,-1.05228789134795,,2.127657114507333,,
,6428.0,762.0,3577.0,606.0,-43.0,871.0,3898.0,,,,-0.980699881535227,-2.967401635481,-1.05236246642816,,2.3417761196651323,,
,6429.0,763.0,3577.0,609.0,-41.0,877.0,3878.0,,,,-0.98115154793209,-2.9673097821264,-1.05309816656436,,2.508167469790096,,
,6429.0,763.0,3578.0,609.0,-50.0,878.0,3889.0,,,,-0.980560074578142,-2.96737924967447,-1.05231080654769,,2.6212831215585863,,
,6430.0,765.0,3576.0,610.0,-52.0,879.0,3903.0,,,,-0.980342711575669,-2.96727771059443,-1.05245104679094,,2.677570069605545,,
,6429.0,762.0,3577.0,610.0,-47.0,888.0,3901.0,,,,-0.980216623829616,-2.96739215981609,-1.05193983448901,,2.6756451307690865,,
,6428.0,760.0,3574.0,607.0,-53.0,891.0,3889.0,,,,-0.980526475142099,-2.9672557039808,-1.05234760748176,,2.6163395051934533,,
,6428.0,763.0,3574.0,609.0,-54.0,876.0,3884.0,,,,-0.980506434927962,-2.96727345298966,-1.05285328673965,,2.5026132326581543,,
,6431.0,762.0,3573.0,610.0,-43.0,865.0,3892.0,,,,-0.979360668378814,-2.96722948694173,-1.05156665236783,,2.339350389221519,,
,6428.0,761.0,3575.0,606.0,-38.0,863.0,3898.0,,,,-0.978775676934114,-2.96718545571011,-1.05184916473623,,2.1330543105505906,,
,6426.0,760.0,3571.0,608.0,-46.0,872.0,3885.0,,,,-0.978585096245178,-2.96717692911305,-1.05134605859862,,1.8914681848215982,,
,6426.0,762.0,3571.0,607.0,-52.0,874.0,3890.0,,,,-0.978737327611389,-2.96724060794315,-1.05134924506339,,1.6231502977551506,,
,6425.0,763.0,3572.0,607.0,-56.0,859.0,3878.0,,,,-0.978378193301047,-2.96720495593099,-1.05143585044633,,1.3370348424968688,,
,6424.0,761.0,3569.0,608.0,-48.0,865.0,3864.0,,,,-0.978732764042075,-2.9672492292313,-1.05172589698715,,1.0420079439566268,,
,6425.0,761.0,3569.0,609.0,-44.0,877.0,3869.0,,,,-0.977915303757678,-2.96726770909648,-1.05088463052594,,0.746524133009353,,
,6421.0,759.0,3566.0,608.0,-43.0,878.0,3892.0,,,,-0.97733646117649,-2.96705069509555,-1.05117061597602,,0.4582815153959811,,
,6420.0,758.0,3565.0,607.0,-43.0,882.0,3885.0,,,,-0.976596410684493,-2.96707527607541,-1.05063425432167,,0.18396563155227258,,
,6423.0,764.0,3567.0,608.0,-54.0,856.0,3872.0,,,,-0.976499616487787,-2.96701054946618,-1.05017055205599,,-0.07093585039112954,,
,6424.0,761.0,3567.0,608.0,-59.0,861.0,3870.0,,,,-0.975973609991009,-2.96704576380869,-1.05002655411108,,-0.30225133862482256,,
,6422.0,761.0,3567.0,606.0,-48.0,871.0,3890.0,,,,-0.975945273852407,-2.96693765326582,-1.05019089564103,,-0.5071829241953743,,
,6423.0,756.0,3565.0,605.0,-47.0,884.0,3910.0,,,,-0.9746204765293,-2.96690756247408,-1.04979031288322,,-0.6843094397872505,,
,6423.0,760.0,3564.0,606.0,-50.0,875.0,3911.0,,,,-0.974506852949002,-2.96679344262153,-1.04903581199172,,-0.833538534050676,,
2025-08-01 18:41:20,6421.0,760.0,3565.0,607.0,-50.0,858.0,3880.0,,,2025/08/01 06:41:20 PM,-0.974296088228939,-2.96687272302343,-1.04915842042924,,-0.9560089508632155,,
,6422.0,761.0,3564.0,605.0,-51.0,858.0,3868.0,,,,-0.973967495389288,-2.96687709686806,-1.04884225305881,,-1.0539437992006038,,
,6424.0,759.0,3562.0,605.0,-45.0,866.0,3870.0,,,,-0.973428207554805,-2.96678657995725,-1.04805770351554,,-1.1304576395656118,,
,6424.0,761.0,3564.0,605.0,-42.0,891.0,3896.0,,,,-0.972758790951856,-2.96676240949755,-1.04868790921743,,-1.1893238139668116,,
,6428.0,759.0,3564.0,607.0,-53.0,885.0,3869.0,,,,-0.972363189423165,-2.96676228572658,-1.04846798997676,,-1.2347122746928039,,
,6426.0,761.0,3563.0,608.0,-62.0,886.0,3877.0,,,,-0.972162735678378,-2.96676831244986,-1.04860377637904,,-1.2709112422794981,,
,6426.0,761.0,3566.0,607.0,-41.0,875.0,3890.0,,,,-0.972030450103899,-2.96672635925957,-1.04831128191471,,-1.3020479291761522,,
,6431.0,762.0,3563.0,609.0,-43.0,887.0,3891.0,,,,-0.972061638326499,-2.96664978474166,-1.04819995000344,,-1.3318242734107266,,
,6431.0,762.0,3565.0,607.0,-47.0,894.0,3899.0,,,,-0.972062508036876,-2.96668276905198,-1.04870044912308,,-1.3632832618731578,,
,6432.0,761.0,3564.0,609.0,-42.0,889.0,3881.0,,,,-0.971392052295283,-2.96664761428151,-1.04810871713406,,-1.3986200819006955,,
