TimeLabel,MEAS1_PPG1,MEAS1_PPG2,MEAS1_PPG3,MEAS1_PPG4,ACCX,ACCY,ACCZ,HR_timestamp,HR_value,radar_timestamp,phase_rx0,phase_rx1,phase_rx2,timestep,n_process,original_rate,calculated_rate
2025-06-30 19:02:27,5437.0,721.0,4772.0,678.0,2311.0,1957.0,2487.0,2025-06-30 19:02:27,65.0,2025/06/30 07:02:27 PM,-0.218470323375453,-2.72986961285149,-0.604584390561928,2025/06/30 07:02:27 PM,5.11048798584763,16.216215133666992,15.292207792207797
,5419.0,723.0,4760.0,677.0,2304.0,1956.0,2489.0,2025-06-30 19:02:28,65.0,,-0.218376502158138,-2.72976674780172,-0.605215561929657,2025/06/30 07:02:37 PM,5.537395996495049,16.415868759155273,16.111111111111107
,5404.0,720.0,4751.0,675.0,2301.0,1958.0,2488.0,2025-06-30 19:02:29,65.0,,-0.218437997220336,-2.7297960797441,-0.605300475828557,2025/06/30 07:02:47 PM,5.9021149245077105,16.150739669799805,16.167318548775555
,5389.0,719.0,4737.0,670.0,2296.0,1962.0,2491.0,2025-06-30 19:02:30,64.0,,-0.218439719016498,-2.72964435148563,-0.605034519622081,2025/06/30 07:02:57 PM,6.194549952152618,16.17873764038086,15.084852294154622
,5379.0,718.0,4731.0,671.0,2315.0,1965.0,2482.0,2025-06-30 19:02:31,63.0,,-0.21823088732866,-2.72963770553084,-0.604858077721583,2025/06/30 07:03:07 PM,6.404885467070016,15.92115306854248,13.809523809523816
,5364.0,716.0,4725.0,667.0,2333.0,1965.0,2489.0,2025-06-30 19:02:32,63.0,,-0.217977594510671,-2.72968430880391,-0.605253494850884,2025/06/30 07:03:17 PM,6.524260228316171,15.021459579467772,13.567571459428327
,5359.0,713.0,4723.0,667.0,2314.0,1957.0,2478.0,2025-06-30 19:02:33,62.0,,-0.218083815791825,-2.72937240349502,-0.604294927729352,2025/06/30 07:03:27 PM,6.545556101169188,13.9751558303833,13.977774802517061
,5354.0,717.0,4719.0,668.0,2307.0,1961.0,2474.0,2025-06-30 19:02:34,62.0,,-0.218002649844664,-2.72950674916951,-0.603963194183605,2025/06/30 07:03:37 PM,6.464205934076407,14.009339332580566,14.000814000813989
,5346.0,713.0,4718.0,666.0,2309.0,1957.0,2473.0,2025-06-30 19:02:35,62.0,,-0.21847267963485,-2.72960109942669,-0.604471225054235,2025/06/30 07:03:47 PM,6.2789139289046805,13.953488349914553,13.758103575350097
,5343.0,713.0,4718.0,664.0,2309.0,1958.0,2486.0,2025-06-30 19:02:36,61.0,,-0.218315742811689,-2.72954559353775,-0.605566817355866,2025/06/30 07:03:57 PM,5.992185438191024,13.899613380432127,14.851031321619569
,5340.0,714.0,4720.0,664.0,2311.0,1965.0,2510.0,2025-06-30 19:02:37,61.0,,-0.21843883567738,-2.72974992222512,-0.605007600432566,2025/06/30 07:04:07 PM,5.610582867444263,14.189188957214355,16.592819578450456
,5338.0,711.0,4719.0,664.0,2331.0,1961.0,2488.0,2025-06-30 19:02:38,61.0,,-0.21836704201404,-2.72970271843565,-0.605209624820324,2025/06/30 07:04:17 PM,5.1446572927521,14.622258186340332,13.428357089272293
,5337.0,713.0,4722.0,665.0,2334.0,1960.0,2498.0,2025-06-30 19:02:39,61.0,,-0.218627461802293,-2.72982201725302,-0.605302007557368,2025/06/30 07:04:27 PM,4.608545512843567,14.989293098449709,14.080303852414584
,5335.0,713.0,4723.0,664.0,2301.0,1961.0,2508.0,2025-06-30 19:02:40,61.0,,-0.218716596715652,-2.72991699008055,-0.605849308384759,2025/06/30 07:04:37 PM,4.019262115557189,14.716187477111816,13.625562201511563
,5338.0,712.0,4724.0,663.0,2308.0,1963.0,2510.0,2025-06-30 19:02:41,61.0,,-0.218776334207611,-2.72991481094953,-0.605868651620324,2025/06/30 07:04:47 PM,3.39574932920131,13.803681373596191,15.094936708860782
,5339.0,714.0,4729.0,667.0,2334.0,1954.0,2505.0,2025-06-30 19:02:42,61.0,,-0.218674345926388,-2.73000751397604,-0.606560251550841,2025/06/30 07:04:57 PM,2.757770377976029,14.065639495849608,14.158576051779908
,5341.0,711.0,4730.0,663.0,2326.0,1951.0,2499.0,2025-06-30 19:02:43,61.0,,-0.218698473735237,-2.73003084225956,-0.605379216604161,2025/06/30 07:05:07 PM,2.124744135741735,14.150943756103516,14.788317356111731
,5341.0,711.0,4730.0,663.0,2301.0,1948.0,2507.0,2025-06-30 19:02:44,60.0,,-0.218552711293936,-2.72999079260124,-0.60639550700058,2025/06/30 07:05:17 PM,1.5146209248017595,14.634146690368652,16.01272534464479
,5343.0,710.0,4733.0,664.0,2299.0,1954.0,2490.0,2025-06-30 19:02:45,59.0,,-0.218997523593018,-2.73006198109585,-0.606729120994432,,0.9428921679501812,,
,5345.0,712.0,4737.0,666.0,2291.0,1957.0,2489.0,2025-06-30 19:02:46,59.0,,-0.219129501671633,-2.73032806463837,-0.606848987561903,,0.42181091863106823,,
,5347.0,712.0,4741.0,665.0,2300.0,1956.0,2487.0,2025-06-30 19:02:47,59.0,,-0.21925722197089,-2.73042226487972,-0.60691788839607,,-0.040122495574555994,,
,5349.0,713.0,4743.0,665.0,2313.0,1954.0,2489.0,2025-06-30 19:02:48,59.0,,-0.219228449700506,-2.73045720757549,-0.606827722067167,,-0.4383825238768802,,
,5352.0,713.0,4745.0,662.0,2334.0,1950.0,2499.0,2025-06-30 19:02:49,60.0,,-0.219138947844622,-2.73049487759591,-0.60755150687426,,-0.7723485543012109,,
,5354.0,709.0,4750.0,666.0,2342.0,1956.0,2496.0,2025-06-30 19:02:50,61.0,,-0.219342261508186,-2.73041979740596,-0.606741987230893,,-1.0449683720748368,,
,5358.0,713.0,4753.0,665.0,2327.0,1962.0,2500.0,2025-06-30 19:02:51,61.0,,-0.219421044312316,-2.73043458926686,-0.607169595586549,,-1.262199672442445,,
,5362.0,713.0,4753.0,665.0,2317.0,1958.0,2503.0,2025-06-30 19:02:52,63.0,,-0.219508920448905,-2.73046550761852,-0.607173517495868,,-1.432287684554765,,
,5366.0,712.0,4759.0,665.0,2320.0,1967.0,2485.0,2025-06-30 19:02:53,64.0,,-0.219630264779515,-2.73048975223765,-0.607189991734393,,-1.5649439902796818,,
,5369.0,713.0,4762.0,666.0,2305.0,1963.0,2497.0,2025-06-30 19:02:54,65.0,,-0.219498659765429,-2.73044782384986,-0.607847774819896,,-1.6704930410086833,,
,5371.0,713.0,4764.0,668.0,2301.0,1956.0,2495.0,2025-06-30 19:02:55,67.0,,-0.21944730317739,-2.73038740547473,-0.606826101360261,,-1.7590496317159356,,
,5371.0,715.0,4766.0,668.0,2305.0,1957.0,2489.0,2025-06-30 19:02:56,68.0,,-0.219518520952637,-2.73069766926073,-0.607159747191589,,-1.8397836972360104,,
,5373.0,715.0,4766.0,666.0,2300.0,1954.0,2506.0,2025-06-30 19:02:57,68.0,,-0.219527907628501,-2.73040232552681,-0.607965378895656,,-1.9203192105392766,,
,5376.0,713.0,4769.0,668.0,2312.0,1961.0,2498.0,2025-06-30 19:02:58,68.0,,-0.219909401477838,-2.73079355104509,-0.60826115909644,,-2.006302497511423,,
,5377.0,716.0,4769.0,669.0,2328.0,1957.0,2482.0,2025-06-30 19:02:59,68.0,,-0.219820718779884,-2.73087821303721,-0.607830060929429,,-2.1011625339903985,,
,5380.0,714.0,4770.0,667.0,2322.0,1953.0,2491.0,2025-06-30 19:03:00,68.0,,-0.220002305694523,-2.73118081214143,-0.608892044416591,,-2.2060721154241585,,
,5382.0,713.0,4771.0,668.0,2308.0,1959.0,2498.0,2025-06-30 19:03:01,68.0,,-0.220514586039553,-2.73082550200058,-0.608832416182875,,-2.320104351953764,,
,5377.0,712.0,4771.0,666.0,2320.0,1973.0,2502.0,2025-06-30 19:03:02,68.0,,-0.220567967288544,-2.73127570066935,-0.609935675991338,,-2.4405639404793917,,
,5379.0,714.0,4772.0,670.0,2315.0,1960.0,2511.0,2025-06-30 19:03:03,68.0,,-0.220615101802279,-2.73107655831308,-0.609494940763675,,-2.563457792713107,,
,5381.0,714.0,4772.0,667.0,2296.0,1952.0,2492.0,2025-06-30 19:03:04,67.0,,-0.220640019496778,-2.73112410986806,-0.610082144295066,,-2.6840565093833377,,
,5379.0,712.0,4770.0,666.0,2294.0,1947.0,2491.0,2025-06-30 19:03:05,66.0,,-0.220709901838948,-2.73155666062526,-0.610548232854908,,-2.7974894267559587,,
,5379.0,711.0,4768.0,665.0,2303.0,1949.0,2476.0,2025-06-30 19:03:06,65.0,,-0.221328684926287,-2.73192363367412,-0.610957484679142,,-2.8993139129107064,,
,5381.0,712.0,4770.0,665.0,2309.0,1956.0,2477.0,2025-06-30 19:03:07,65.0,,-0.221967775558429,-2.73265185441513,-0.613834178842569,,-2.986005049610466,,
,5379.0,711.0,4768.0,666.0,2303.0,1956.0,2485.0,2025-06-30 19:03:08,64.0,,-0.222737735064359,-2.73359140780712,-0.615620378865739,,-3.0553234452604032,,
,5377.0,714.0,4766.0,665.0,2305.0,1961.0,2495.0,2025-06-30 19:03:09,64.0,,-0.223391859417896,-2.73425013305651,-0.617940796878701,,-3.1065340080997195,,
,5374.0,710.0,4766.0,665.0,2331.0,1962.0,2498.0,2025-06-30 19:03:10,63.0,,-0.223971934718056,-2.73463930514051,-0.619791225607631,,-3.140464355374388,,
,5378.0,711.0,4767.0,666.0,2318.0,1957.0,2493.0,2025-06-30 19:03:11,63.0,,-0.224265880045207,-2.735000855815,-0.620997866583235,,-3.159406194536067,,
,5377.0,712.0,4768.0,666.0,2302.0,1950.0,2501.0,2025-06-30 19:03:12,62.0,,-0.22462674932173,-2.7352444202081,-0.621367478645394,,-3.1668754447244307,,
,5378.0,713.0,4768.0,666.0,2298.0,1951.0,2500.0,2025-06-30 19:03:13,61.0,,-0.224862456712009,-2.73554293942207,-0.622206643265174,,-3.167256671374792,,
,5379.0,713.0,4769.0,668.0,2320.0,1953.0,2464.0,2025-06-30 19:03:14,61.0,,-0.2249718315324,-2.73575622674184,-0.622840161296638,,-3.1653644872597617,,
,5379.0,713.0,4772.0,668.0,2308.0,1966.0,2496.0,2025-06-30 19:03:15,60.0,,-0.225109466576113,-2.73584155059499,-0.62363999623552,,-3.1659589933314436,,
,5381.0,711.0,4772.0,666.0,2309.0,1958.0,2491.0,2025-06-30 19:03:16,60.0,,-0.225159258890614,-2.73554192967032,-0.623567775887942,,-3.173254328075136,,
,5383.0,714.0,4774.0,668.0,2293.0,1950.0,2490.0,2025-06-30 19:03:17,59.0,,-0.224743968795491,-2.73563548784772,-0.621912976843326,,-3.1904593201311506,,
,5385.0,716.0,4778.0,669.0,2275.0,1952.0,2489.0,2025-06-30 19:03:18,59.0,,-0.224385467765187,-2.73554394492428,-0.622840423577757,,-3.219387370446736,,
,5386.0,712.0,4777.0,666.0,2277.0,1961.0,2500.0,2025-06-30 19:03:19,58.0,,-0.223989391079526,-2.7352159059778,-0.621275948018616,,-3.2601689850578204,,
,5387.0,713.0,4781.0,665.0,2298.0,1956.0,2486.0,2025-06-30 19:03:20,58.0,,-0.223586768624957,-2.73504703642232,-0.61991456894218,,-3.311094412075564,,
,5392.0,714.0,4784.0,667.0,2307.0,1957.0,2482.0,2025-06-30 19:03:21,58.0,,-0.22321002928743,-2.73435359282724,-0.619454766246509,,-3.368605030370511,,
,5393.0,715.0,4786.0,667.0,2294.0,1960.0,2485.0,2025-06-30 19:03:22,58.0,,-0.22281063384386,-2.7341530772115,-0.618764018728289,,-3.4274402260356367,,
,5398.0,715.0,4788.0,666.0,2302.0,1954.0,2484.0,2025-06-30 19:03:23,59.0,,-0.222285227288326,-2.73371229655695,-0.615514655418592,,-3.480932014306276,,
,5402.0,714.0,4795.0,668.0,2288.0,1958.0,2467.0,2025-06-30 19:03:24,59.0,,-0.22188588564043,-2.73331488310947,-0.616255533211647,,-3.521424291936447,,
,5405.0,716.0,4799.0,669.0,2297.0,1955.0,2472.0,2025-06-30 19:03:25,59.0,,-0.221665071179635,-2.73282216781293,-0.615224922035767,,-3.5407800075556493,,
,5409.0,715.0,4804.0,671.0,2289.0,1951.0,2475.0,2025-06-30 19:03:26,59.0,,-0.221408175426868,-2.73271545035715,-0.614317268945018,,-3.5309305035499117,,
,5411.0,715.0,4805.0,673.0,2298.0,1955.0,2492.0,2025-06-30 19:03:27,59.0,,-0.221006254226488,-2.73229138945363,-0.613442336877576,,-3.4844184305229997,,
,5415.0,716.0,4808.0,670.0,2290.0,1965.0,2482.0,2025-06-30 19:03:28,59.0,,-0.220657679345563,-2.7322582093689,-0.612605661040947,,-3.3948886818380415,,
,5420.0,716.0,4809.0,672.0,2310.0,1955.0,2491.0,2025-06-30 19:03:29,60.0,,-0.220530493157508,-2.73194623042852,-0.612444657861189,,-3.2574889798813738,,
,5423.0,718.0,4817.0,672.0,2319.0,1953.0,2496.0,2025-06-30 19:03:30,60.0,,-0.220443999980155,-2.73176704537916,-0.611917244376071,,-3.0691510069594656,,
,5426.0,717.0,4818.0,674.0,2309.0,1959.0,2478.0,2025-06-30 19:03:31,59.0,,-0.220306385678177,-2.73179539083278,-0.611863300107086,,-2.8287330385856015,,
,5429.0,717.0,4822.0,673.0,2309.0,1951.0,2478.0,2025-06-30 19:03:32,59.0,,-0.219947351196702,-2.73158066652749,-0.611999472167618,,-2.5370157396973076,,
,5436.0,718.0,4824.0,674.0,2316.0,1955.0,2485.0,2025-06-30 19:03:33,59.0,,-0.219760730928044,-2.73129781869383,-0.610288245731666,,-2.1965545320372484,,
,5439.0,719.0,4831.0,676.0,2304.0,1953.0,2467.0,2025-06-30 19:03:34,58.0,,-0.219686205638731,-2.7314571513094,-0.609215765972408,,-1.8114048960519453,,
,5441.0,718.0,4832.0,674.0,2312.0,1965.0,2476.0,2025-06-30 19:03:35,58.0,,-0.219868233677016,-2.73130562965105,-0.608072617802534,,-1.3867505364682597,,
,5448.0,718.0,4836.0,674.0,2332.0,1958.0,2481.0,2025-06-30 19:03:36,58.0,,-0.219923296278242,-2.73121938340637,-0.60981025579469,,-0.9284770239934155,,
,5450.0,720.0,4840.0,677.0,2317.0,1952.0,2471.0,2025-06-30 19:03:37,59.0,,-0.220057238392834,-2.73117115230619,-0.609457295938439,,-0.4427430807474449,,
,5455.0,720.0,4844.0,678.0,2334.0,1951.0,2486.0,2025-06-30 19:03:38,59.0,,-0.219809924692992,-2.73110382608926,-0.610116008349216,,0.06439442092803863,,
,5460.0,720.0,4847.0,679.0,2324.0,1953.0,2483.0,2025-06-30 19:03:39,59.0,,-0.219831580583646,-2.73111562333115,-0.608591649508938,,0.5872494632888908,,
,5461.0,720.0,4849.0,678.0,2300.0,1948.0,2491.0,2025-06-30 19:03:40,60.0,,-0.219410615129467,-2.73131290642963,-0.609453957431347,,1.1206298708855182,,
,5464.0,721.0,4853.0,680.0,2318.0,1951.0,2495.0,2025-06-30 19:03:41,60.0,,-0.219361278704192,-2.73098594800562,-0.608420081913313,,1.6597941425346388,,
,5469.0,725.0,4858.0,681.0,2322.0,1960.0,2486.0,2025-06-30 19:03:42,59.0,,-0.219560664745878,-2.73110546993213,-0.608091791206329,,2.2002470423227742,,
,5475.0,724.0,4858.0,680.0,2307.0,1961.0,2492.0,2025-06-30 19:03:43,59.0,,-0.219205485401077,-2.73123038663582,-0.60743205409602,,2.737405358739192,,
,5478.0,722.0,4862.0,685.0,2306.0,1960.0,2487.0,2025-06-30 19:03:44,59.0,,-0.219289620246111,-2.73088073205396,-0.607933981427812,,3.266188680041569,,
,5479.0,722.0,4865.0,681.0,2298.0,1951.0,2494.0,2025-06-30 19:03:45,59.0,,-0.219386595148838,-2.7310445069743,-0.60744133859735,,3.780606085924284,,
,5480.0,721.0,4869.0,682.0,2302.0,1960.0,2495.0,2025-06-30 19:03:46,59.0,,-0.219277392064371,-2.73086814733036,-0.608375463145538,,4.273415413101142,,
,5488.0,724.0,4872.0,683.0,2315.0,1953.0,2468.0,2025-06-30 19:03:47,59.0,,-0.219255722538163,-2.73077980656429,-0.607050627509904,,4.735926550154639,,
,5491.0,725.0,4876.0,683.0,2326.0,1953.0,2485.0,2025-06-30 19:03:48,60.0,,-0.21946596299722,-2.73059935581056,-0.606849385845856,,5.158005360296883,,
,5490.0,724.0,4878.0,683.0,2314.0,1955.0,2489.0,2025-06-30 19:03:49,60.0,,-0.219085989832219,-2.73045467513262,-0.60699975792563,,5.528312624364758,,
,5496.0,725.0,4882.0,685.0,2324.0,1958.0,2494.0,2025-06-30 19:03:50,60.0,,-0.2188846848695,-2.73038292388856,-0.60716436377159,,5.834785380865728,,
,5501.0,727.0,4886.0,687.0,2330.0,1955.0,2503.0,2025-06-30 19:03:51,60.0,,-0.218952815867818,-2.73054850500537,-0.606679018320582,,6.065338785216044,,
,5504.0,730.0,4889.0,687.0,2325.0,1956.0,2499.0,2025-06-30 19:03:52,60.0,,-0.218649984429614,-2.73035423923531,-0.606560104436019,,6.208737806558995,,
,5507.0,725.0,4888.0,685.0,2305.0,1961.0,2488.0,2025-06-30 19:03:53,60.0,,-0.218652125332358,-2.73039290639322,-0.605211034025744,,6.255562603593844,,
,5511.0,725.0,4892.0,688.0,2297.0,1955.0,2484.0,2025-06-30 19:03:54,60.0,,-0.218608587054843,-2.73003570942927,-0.606661576824112,,6.199172215240904,,
,5514.0,729.0,4900.0,689.0,2318.0,1949.0,2477.0,2025-06-30 19:03:55,60.0,,-0.218406333398004,-2.73007093015607,-0.605796287201364,,6.036561025821491,,
,5516.0,728.0,4900.0,687.0,2316.0,1955.0,2485.0,2025-06-30 19:03:56,60.0,,-0.218661618357724,-2.72973333420377,-0.605263936541338,,5.769003653065981,,
,5518.0,728.0,4902.0,688.0,2315.0,1967.0,2496.0,2025-06-30 19:03:57,60.0,,-0.218360270917509,-2.73010496107218,-0.605391766010695,,5.402398075539207,,
,5519.0,729.0,4905.0,691.0,2307.0,1956.0,2475.0,2025-06-30 19:03:58,60.0,,-0.218642183759667,-2.72989940471828,-0.60456140414016,,4.947244181706634,,
,5525.0,729.0,4909.0,691.0,2311.0,1957.0,2480.0,2025-06-30 19:03:59,60.0,,-0.218708091966531,-2.72988753113124,-0.605374900279342,,4.418233362642278,,
,5528.0,731.0,4912.0,692.0,2314.0,1957.0,2491.0,2025-06-30 19:04:00,60.0,,-0.21861279221131,-2.73003799770615,-0.605221280203198,,3.833469433769408,,
,5531.0,732.0,4913.0,693.0,2298.0,1952.0,2497.0,2025-06-30 19:04:01,60.0,,-0.218568804485575,-2.72970856649242,-0.603542678021092,,3.213385277600455,,
,5533.0,730.0,4914.0,689.0,2307.0,1961.0,2486.0,2025-06-30 19:04:02,60.0,,-0.218375632469253,-2.72955426743104,-0.604240928043466,,2.5794560361969174,,
,5534.0,732.0,4918.0,694.0,2323.0,1961.0,2478.0,2025-06-30 19:04:03,60.0,,-0.218179158946732,-2.72937603745131,-0.603706605225087,,1.9528326183969682,,
,5541.0,733.0,4922.0,696.0,2305.0,1959.0,2488.0,2025-06-30 19:04:04,60.0,,-0.217879879934385,-2.72926648727595,-0.603332454546612,,1.3530254584317505,,
,5545.0,733.0,4925.0,695.0,2296.0,1954.0,2483.0,2025-06-30 19:04:05,60.0,,-0.2178902114187,-2.72913417639504,-0.604223469264829,,0.7967579108655305,,
,5547.0,733.0,4928.0,696.0,2308.0,1951.0,2493.0,2025-06-30 19:04:06,60.0,,-0.217898596009429,-2.7292277580223,-0.602345320357126,,0.2970845060017034,,
,5547.0,731.0,4931.0,695.0,2295.0,1951.0,2488.0,2025-06-30 19:04:07,61.0,,-0.21784764792304,-2.7289614601469,-0.602940765283097,,-0.1371635194948751,,
,5550.0,737.0,4933.0,697.0,2296.0,1959.0,2486.0,2025-06-30 19:04:08,61.0,,-0.217643127316945,-2.7291194169572,-0.60269256988595,,-0.501579142463485,,
,5555.0,734.0,4939.0,699.0,2296.0,1955.0,2492.0,2025-06-30 19:04:09,61.0,,-0.217539899683022,-2.7292494117911,-0.601663266779195,,-0.7960354919028253,,
,5558.0,735.0,4942.0,696.0,2293.0,1955.0,2500.0,2025-06-30 19:04:10,60.0,,-0.217864271988217,-2.72897384136218,-0.602121562780949,,-1.024235458383335,,
,5560.0,735.0,4941.0,697.0,2315.0,1958.0,2503.0,2025-06-30 19:04:11,60.0,,-0.217599303976587,-2.72881625059844,-0.601575953459481,,-1.1930167366735362,,
,5564.0,738.0,4944.0,700.0,2294.0,1962.0,2504.0,2025-06-30 19:04:12,60.0,,-0.217597555468569,-2.72872261339042,-0.601324769247936,,-1.311489101799802,,
,5569.0,736.0,4949.0,701.0,2289.0,1963.0,2484.0,2025-06-30 19:04:13,60.0,,-0.217160211643024,-2.72870230670333,-0.601755797139006,,-1.3900875362904768,,
,5571.0,737.0,4952.0,699.0,2281.0,1960.0,2499.0,2025-06-30 19:04:14,61.0,,-0.216965735143332,-2.72838438831499,-0.600048296000183,,-1.4396240909663662,,
,5571.0,738.0,4953.0,700.0,2302.0,1957.0,2507.0,2025-06-30 19:04:15,62.0,,-0.216806586722572,-2.72832153374391,-0.600192891372751,,-1.4704143531777834,,
,5568.0,738.0,4951.0,702.0,2292.0,1959.0,2506.0,2025-06-30 19:04:16,62.0,,-0.216753334381563,-2.72791312838012,-0.598701927197171,,-1.4915426631556705,,
,5566.0,734.0,4946.0,699.0,2289.0,1958.0,2510.0,2025-06-30 19:04:17,62.0,,-0.216612012567219,-2.72798720761781,-0.600307091073835,,-1.5103151487897328,,
,5557.0,732.0,4935.0,700.0,2281.0,1961.0,2502.0,2025-06-30 19:04:18,62.0,,-0.216674562443177,-2.72784026147193,-0.598911896350641,,-1.5319321360170575,,
,5539.0,731.0,4914.0,695.0,2289.0,1951.0,2492.0,2025-06-30 19:04:19,62.0,,-0.216671984454429,-2.72799766075848,-0.599956612948247,,-1.5593919334243318,,
,5522.0,730.0,4896.0,692.0,2288.0,1954.0,2506.0,2025-06-30 19:04:20,62.0,,-0.216814795137437,-2.72796093054053,-0.601350964282363,,-1.5936167970285284,,
,5507.0,728.0,4876.0,692.0,2317.0,1960.0,2491.0,2025-06-30 19:04:21,61.0,,-0.216740918563046,-2.72795981892709,-0.599794862207437,,-1.6337703871526814,,
,5487.0,726.0,4858.0,689.0,2294.0,1962.0,2491.0,2025-06-30 19:04:22,61.0,,-0.217008425886133,-2.72825925954493,-0.599714217116743,,-1.6777170706433921,,
,5466.0,724.0,4837.0,683.0,2309.0,1949.0,2507.0,2025-06-30 19:04:23,61.0,,-0.216936260481601,-2.72823737306341,-0.599535523542468,,-1.7225607042137245,,
,5447.0,724.0,4826.0,682.0,2303.0,1956.0,2499.0,2025-06-30 19:04:24,62.0,,-0.21696856634401,-2.72795563091439,-0.599722746758463,,-1.765196850879745,,
,5427.0,719.0,4807.0,682.0,2281.0,1955.0,2497.0,2025-06-30 19:04:25,63.0,,-0.216894323744634,-2.72788467785321,-0.599673731202662,,-1.8028180345215115,,
,5409.0,718.0,4790.0,678.0,2281.0,1963.0,2500.0,2025-06-30 19:04:26,63.0,,-0.21671700081594,-2.72783491371193,-0.599783915884014,,-1.8333243958908598,,
,5389.0,716.0,4776.0,675.0,2270.0,1969.0,2493.0,2025-06-30 19:04:27,63.0,,-0.2166489653837,-2.7276797389393,-0.59845527674615,,-1.8556085457190432,,
,5375.0,715.0,4764.0,675.0,2290.0,1965.0,2508.0,2025-06-30 19:04:28,62.0,,-0.216526450021929,-2.72762386733419,-0.597848428823899,,-1.8697003291694063,,
,5358.0,714.0,4753.0,672.0,2285.0,1964.0,2510.0,2025-06-30 19:04:29,61.0,,-0.216176123384211,-2.72747107214966,-0.598199484022312,,-1.8767723631596407,,
,5347.0,711.0,4747.0,670.0,2282.0,1970.0,2512.0,2025-06-30 19:04:30,61.0,,-0.216097020152888,-2.72725214050837,-0.596521400914856,,-1.8790192895082294,,
,5336.0,713.0,4742.0,669.0,2297.0,1961.0,2503.0,2025-06-30 19:04:31,60.0,,-0.215974733973293,-2.72717381601935,-0.596690333698443,,-1.8794321873952795,,
,5325.0,710.0,4733.0,666.0,2307.0,1955.0,2492.0,2025-06-30 19:04:32,60.0,,-0.216039875328635,-2.72714681501431,-0.597084216699786,,-1.8814946213855244,,
,5319.0,708.0,4734.0,667.0,2303.0,1953.0,2497.0,2025-06-30 19:04:33,59.0,,-0.216009619088226,-2.72715565834866,-0.597706175878621,,-1.8888289796647357,,
,5312.0,710.0,4730.0,666.0,2287.0,1949.0,2493.0,2025-06-30 19:04:34,60.0,,-0.216080930407876,-2.72701465358787,-0.59656952943562,,-1.9048219717593171,,
2025-06-30 19:02:28,5308.0,709.0,4729.0,666.0,2287.0,1949.0,2502.0,2025-06-30 19:04:35,60.0,2025/06/30 07:02:28 PM,-0.216105883299627,-2.7272031391884,-0.596890095890284,,-1.9322572532691003,,
,5305.0,706.0,4730.0,663.0,2313.0,1963.0,2498.0,2025-06-30 19:04:36,60.0,,-0.215886940965354,-2.72726846808256,-0.59613495979426,,-1.972981663510814,,
,5301.0,705.0,4730.0,663.0,2294.0,1956.0,2500.0,2025-06-30 19:04:37,61.0,,-0.216057289037678,-2.72707989469111,-0.596453938640927,,-2.027629609083188,,
,5301.0,706.0,4731.0,664.0,2289.0,1949.0,2498.0,2025-06-30 19:04:38,61.0,,-0.215939427249111,-2.72702307672449,-0.595311635805039,,-2.0954273807820307,,
,5300.0,708.0,4732.0,663.0,2285.0,1953.0,2492.0,2025-06-30 19:04:39,61.0,,-0.215901379586925,-2.72687843737458,-0.596369849044572,,-2.174095004095545,,
,5299.0,706.0,4735.0,662.0,2287.0,1954.0,2480.0,2025-06-30 19:04:40,60.0,,-0.216087873907888,-2.72688605638192,-0.596070601712615,,-2.259856910526317,,
,5301.0,707.0,4738.0,661.0,2285.0,1958.0,2503.0,2025-06-30 19:04:41,59.0,,-0.215957565734103,-2.72687246785812,-0.595785482200771,,-2.3475640612605893,,
,5302.0,708.0,4739.0,663.0,2307.0,1955.0,2513.0,2025-06-30 19:04:42,59.0,,-0.216213670440249,-2.72697591441476,-0.594213891675396,,-2.430919925882893,,
,5304.0,709.0,4744.0,666.0,2312.0,1953.0,2508.0,2025-06-30 19:04:43,59.0,,-0.215915308701226,-2.72704103414427,-0.596448541646957,,-2.5027927725310475,,
,5303.0,704.0,4747.0,663.0,2322.0,1955.0,2502.0,2025-06-30 19:04:44,60.0,,-0.215637149371221,-2.72680451145406,-0.59598726535748,,-2.555589299232558,,
,5307.0,708.0,4748.0,664.0,2304.0,1956.0,2497.0,2025-06-30 19:04:45,60.0,,-0.215861904755959,-2.72695798379932,-0.595189258516226,,-2.581661130713928,,
,5311.0,705.0,4752.0,663.0,2288.0,1954.0,2494.0,2025-06-30 19:04:46,60.0,,-0.21594331402839,-2.72704877692875,-0.595576382908755,,-2.5737159324151633,,
,5314.0,707.0,4754.0,663.0,2301.0,1949.0,2510.0,2025-06-30 19:04:47,59.0,,-0.215990233580257,-2.7272447049395,-0.596033286056801,,-2.525207438746025,,
,5315.0,708.0,4760.0,663.0,2316.0,1953.0,2510.0,2025-06-30 19:04:48,59.0,,-0.21629756010031,-2.72713067343893,-0.596165684650514,,-2.4306820048889377,,
,5317.0,705.0,4763.0,663.0,2301.0,1952.0,2503.0,2025-06-30 19:04:49,59.0,,-0.216212610536901,-2.72719814591919,-0.596486767210473,,-2.2860625774643046,,
,5320.0,710.0,4763.0,663.0,2311.0,1953.0,2510.0,2025-06-30 19:04:50,58.0,,-0.216431668484824,-2.72754957390685,-0.596506193202403,,-2.0888543635260404,,
,5327.0,710.0,4772.0,667.0,2318.0,1952.0,2499.0,2025-06-30 19:04:51,58.0,,-0.216725128284019,-2.72775127121347,-0.597273079293342,,-1.8382605836832278,,
,5328.0,709.0,4776.0,664.0,2319.0,1953.0,2493.0,2025-06-30 19:04:52,58.0,,-0.216772264823966,-2.72788718634982,-0.598348398623227,,-1.5352021584780844,,
,5332.0,707.0,4775.0,666.0,2300.0,1958.0,2504.0,2025-06-30 19:04:53,58.0,,-0.217132095804719,-2.7281600881366,-0.597549543043418,,-1.182242385253435,,
,5334.0,709.0,4781.0,667.0,2298.0,1957.0,2516.0,2025-06-30 19:04:54,58.0,,-0.217090832029235,-2.72803860886844,-0.597237694358375,,-0.7834265778489135,,
,5340.0,709.0,4784.0,667.0,2312.0,1962.0,2523.0,2025-06-30 19:04:55,58.0,,-0.217089592203371,-2.72796675221845,-0.59948633436098,,-0.3440564915078357,,
,5340.0,708.0,4787.0,666.0,2323.0,1964.0,2515.0,2025-06-30 19:04:56,58.0,,-0.216995614612753,-2.72795460318714,-0.598016798843048,,0.12957158731432247,,
,5340.0,712.0,4789.0,666.0,2290.0,1965.0,2513.0,2025-06-30 19:04:57,58.0,,-0.217065316963665,-2.72774467787064,-0.597343452268561,,0.6304303249498009,,
,5342.0,708.0,4788.0,664.0,2285.0,1955.0,2515.0,2025-06-30 19:04:58,58.0,,-0.216910807158453,-2.72790837309582,-0.596713600815749,,1.150991142767922,,
,5345.0,711.0,4792.0,666.0,2290.0,1964.0,2514.0,2025-06-30 19:04:59,58.0,,-0.216909800396519,-2.72738282603631,-0.596223518461616,,1.683391197723774,,
,5347.0,711.0,4794.0,668.0,2298.0,1955.0,2501.0,2025-06-30 19:05:00,58.0,,-0.216678903724962,-2.72764524166193,-0.595836546616227,,2.2195209803806573,,
,5351.0,713.0,4795.0,668.0,2288.0,1960.0,2499.0,2025-06-30 19:05:01,57.0,,-0.216263365863987,-2.72727750240789,-0.594893608962656,,2.751033418762275,,
,5348.0,707.0,4794.0,666.0,2292.0,1957.0,2495.0,2025-06-30 19:05:02,57.0,,-0.216277566768971,-2.72714386078764,-0.59442571309296,,3.26929461767504,,
,5347.0,708.0,4793.0,664.0,2285.0,1955.0,2505.0,2025-06-30 19:05:03,57.0,,-0.216229441218935,-2.72680580498392,-0.594069203028357,,3.7653131225025813,,
,5349.0,712.0,4795.0,664.0,2282.0,1953.0,2500.0,2025-06-30 19:05:04,57.0,,-0.216038309781776,-2.72664015359356,-0.593666438561368,,4.229694551655567,,
,5350.0,710.0,4795.0,667.0,2287.0,1949.0,2503.0,2025-06-30 19:05:05,58.0,,-0.215763330838289,-2.72663452487134,-0.59386557421934,,4.652668924781884,,
,5346.0,709.0,4794.0,666.0,2322.0,1948.0,2490.0,2025-06-30 19:05:06,58.0,,-0.215520714677228,-2.72662755529652,-0.593020692295243,,5.024229018063237,,
,5349.0,712.0,4793.0,665.0,2311.0,1961.0,2488.0,2025-06-30 19:05:07,59.0,,-0.215304677097621,-2.72651983760277,-0.59249138740891,,5.334401803939058,,
,5350.0,710.0,4793.0,667.0,2289.0,1959.0,2474.0,2025-06-30 19:05:08,59.0,,-0.215205594476618,-2.72624074753122,-0.592769716113132,,5.573654600325267,,
,5348.0,711.0,4794.0,666.0,2290.0,1957.0,2481.0,2025-06-30 19:05:09,59.0,,-0.215098988880259,-2.72621041555669,-0.592216818769031,,5.733415976610973,,
,5347.0,710.0,4794.0,667.0,2299.0,1950.0,2495.0,2025-06-30 19:05:10,59.0,,-0.215291569003226,-2.72627569992742,-0.59212932770209,,5.80667128249804,,
,5347.0,709.0,4792.0,664.0,2293.0,1957.0,2488.0,2025-06-30 19:05:11,58.0,,-0.215137440191586,-2.72652517678677,-0.592812659731688,,5.788576067346909,,
,5349.0,710.0,4796.0,667.0,2318.0,1961.0,2503.0,2025-06-30 19:05:12,58.0,,-0.215334361637146,-2.72641369243117,-0.593152684988367,,5.677019742238041,,
,5350.0,713.0,4797.0,667.0,2306.0,1956.0,2509.0,2025-06-30 19:05:13,58.0,,-0.215181526992219,-2.72658141710665,-0.592082429067831,,5.473068655065781,,
,5352.0,711.0,4798.0,666.0,2291.0,1956.0,2514.0,2025-06-30 19:05:14,59.0,,-0.215574319287637,-2.72675749451368,-0.59288460432758,,5.1812238983255,,
,5353.0,710.0,4800.0,665.0,2297.0,1949.0,2504.0,2025-06-30 19:05:15,59.0,,-0.215650037412311,-2.72673315527205,-0.592814316394311,,4.809445095168263,,
,5352.0,711.0,4803.0,667.0,2290.0,1962.0,2509.0,2025-06-30 19:05:16,60.0,,-0.215939591704982,-2.72699735532474,-0.594213155568007,,4.368915686613654,,
,5357.0,714.0,4808.0,670.0,2309.0,1958.0,2504.0,2025-06-30 19:05:17,60.0,,-0.216076310469201,-2.72704105429012,-0.594381275916402,,3.873554277453748,,
,5358.0,711.0,4808.0,665.0,2295.0,1957.0,2504.0,2025-06-30 19:05:18,60.0,,-0.215994251826098,-2.72727317089161,-0.59589783433315,,3.339305335968198,,
,5359.0,711.0,4810.0,667.0,2278.0,1956.0,2492.0,2025-06-30 19:05:19,60.0,,-0.2165039814153,-2.72763680074852,-0.595293474299001,,2.7832661838655315,,
,5362.0,713.0,4815.0,670.0,2287.0,1952.0,2493.0,2025-06-30 19:05:20,60.0,,-0.217307503927496,-2.72806901993987,-0.597371239455733,,2.2227228761380284,,
,5365.0,714.0,4817.0,668.0,2286.0,1964.0,2503.0,2025-06-30 19:05:21,60.0,,-0.217747155075324,-2.72860312916674,-0.599506350493002,,1.6741746554223917,,
,5371.0,712.0,4821.0,669.0,2291.0,1965.0,2509.0,2025-06-30 19:05:22,60.0,,-0.21877096125076,-2.72948113179513,-0.601530158559469,,1.1524258373440692,,
,5373.0,714.0,4825.0,671.0,2316.0,1960.0,2499.0,2025-06-30 19:05:23,60.0,,-0.21932401461163,-2.73005378274906,-0.604264230367697,,0.6698160056264637,,
,5377.0,714.0,4826.0,667.0,2299.0,1953.0,2517.0,2025-06-30 19:05:24,60.0,,-0.219747796396978,-2.7303850030629,-0.604815451989053,,0.23564498329229416,,
,5382.0,714.0,4831.0,672.0,2300.0,1951.0,2504.0,2025-06-30 19:05:25,60.0,,-0.219991556332774,-2.73043571669684,-0.604160770182996,,-0.14417044350173044,,
,5387.0,717.0,4836.0,672.0,2279.0,1949.0,2501.0,2025-06-30 19:05:26,61.0,,-0.219825874471428,-2.73059739294116,-0.606446910032345,,-0.46719325801223777,,
,5389.0,716.0,4840.0,674.0,2281.0,1951.0,2489.0,,,,-0.219942294181258,-2.73083762748489,-0.607047916055414,,-0.7343235849032601,,
,5393.0,715.0,4842.0,671.0,2290.0,1961.0,2495.0,,,,-0.219779416380174,-2.73077298486424,-0.606173232561702,,-0.9494430480485929,,
,5398.0,717.0,4847.0,673.0,2282.0,1959.0,2494.0,,,,-0.219644176958922,-2.73067617763356,-0.606269913699234,,-1.1188870265622504,,
,5401.0,718.0,4851.0,674.0,2309.0,1953.0,2508.0,,,,-0.219411350212144,-2.73055512385584,-0.604888353483618,,-1.250794842669871,,
,5406.0,718.0,4855.0,675.0,2311.0,1952.0,2509.0,,,,-0.219533580169586,-2.73048159113168,-0.604934949997029,,-1.3543916241228227,,
,5408.0,717.0,4857.0,674.0,2304.0,1946.0,2497.0,,,,-0.219159657802306,-2.73059106315321,-0.604639923344,,-1.4392546083971585,,
,5414.0,718.0,4863.0,674.0,2310.0,1957.0,2488.0,,,,-0.21901309774295,-2.73048307043228,-0.604806865115755,,-1.5146121375702164,,
,5417.0,720.0,4866.0,678.0,2312.0,1953.0,2503.0,,,,-0.218887999524866,-2.7302513352162,-0.603660564075348,,-1.588716790500017,,
,5420.0,720.0,4871.0,677.0,2304.0,1953.0,2513.0,,,,-0.218824325113466,-2.73038642118892,-0.603883252150645,,-1.668326146500466,,
,5426.0,719.0,4873.0,678.0,2308.0,1956.0,2502.0,,,,-0.218422454955797,-2.73025690943466,-0.602733477992956,,-1.7583164324917984,,
,5431.0,720.0,4878.0,677.0,2293.0,1948.0,2504.0,,,,-0.218248591950262,-2.7300770822676,-0.602187856861024,,-1.8614462867544326,,
,5434.0,724.0,4881.0,680.0,2315.0,1956.0,2514.0,,,,-0.218138424072017,-2.7295245360714,-0.601226164840116,,-1.9782801978068634,,
,5438.0,723.0,4887.0,681.0,2317.0,1956.0,2501.0,,,,-0.217656085175466,-2.72913284961402,-0.600644900497723,,-2.107273571009539,,
,5443.0,723.0,4889.0,681.0,2304.0,1958.0,2487.0,,,,-0.217211793262462,-2.72905059090557,-0.598714216126103,,-2.2450132577004562,,
,5447.0,724.0,4891.0,681.0,2312.0,1956.0,2478.0,,,,-0.216842146446309,-2.72875170644358,-0.599273685895424,,-2.3865981133934584,,
,5447.0,723.0,4895.0,682.0,2303.0,1948.0,2493.0,,,,-0.216853348134639,-2.72880844446399,-0.599282747338255,,-2.526133493181002,,
,5453.0,726.0,4898.0,684.0,2304.0,1952.0,2485.0,,,,-0.216623003122155,-2.72868913929002,-0.598679240717462,,-2.657302309757474,,
,5458.0,726.0,4903.0,685.0,2307.0,1950.0,2493.0,,,,-0.216953069712057,-2.72858219496401,-0.599059562948127,,-2.7739654943193544,,
,5464.0,725.0,4902.0,682.0,2308.0,1950.0,2502.0,,,,-0.216900891490507,-2.72852923985259,-0.598147050564729,,-2.870739315289184,,
,5467.0,728.0,4908.0,685.0,2302.0,1955.0,2502.0,,,,-0.216930945496184,-2.7285290369974,-0.598630605151711,,-2.943498173251236,,
,5473.0,726.0,4911.0,684.0,2292.0,1959.0,2504.0,,,,-0.216712002634417,-2.72842902514823,-0.598500806096848,,-2.9897593114565626,,
,5478.0,731.0,4917.0,688.0,2297.0,1958.0,2503.0,,,,-0.216564346729824,-2.72834680795798,-0.598271714779276,,-3.0089185378835346,,
,5479.0,727.0,4917.0,685.0,2302.0,1944.0,2505.0,,,,-0.216492292893018,-2.72815113468967,-0.596747704970849,,-3.0023209404001534,,
,5486.0,728.0,4923.0,688.0,2301.0,1943.0,2509.0,,,,-0.216535505694163,-2.72805977131865,-0.597420984320616,,-2.9731653526127206,,
,5490.0,733.0,4926.0,689.0,2297.0,1952.0,2502.0,,,,-0.216121312016119,-2.72775817655217,-0.596923989857768,,-2.9262543796376987,,
,5492.0,730.0,4927.0,691.0,2288.0,1957.0,2509.0,,,,-0.21599660169759,-2.72776059131034,-0.59504352739565,,-2.8676122481325055,,
,5498.0,731.0,4932.0,689.0,2285.0,1958.0,2508.0,,,,-0.216026014241211,-2.72766889589055,-0.596052540904517,,-2.804000336141399,,
,5499.0,731.0,4934.0,689.0,2284.0,1960.0,2514.0,,,,-0.216248742741999,-2.72757934531992,-0.596478695514184,,-2.742365167927707,,
,5505.0,734.0,4940.0,692.0,2323.0,1955.0,2505.0,,,,-0.216174502807667,-2.72760625934332,-0.594376728257839,,-2.6892564550614795,,
,5513.0,734.0,4944.0,692.0,2299.0,1956.0,2506.0,,,,-0.216182696881714,-2.72766134011877,-0.59499036747796,,-2.650254058636571,,
,5512.0,735.0,4946.0,695.0,2306.0,1962.0,2507.0,,,,-0.216010991021514,-2.72750383524559,-0.594240721618493,,-2.629443005417725,,
,5518.0,733.0,4948.0,694.0,2316.0,1964.0,2512.0,,,,-0.216152959453509,-2.72753879495699,-0.594326479939447,,-2.6289749998385727,,
,5520.0,738.0,4953.0,694.0,2332.0,1963.0,2500.0,,,,-0.215801722027545,-2.72731434130307,-0.59379405133136,,-2.6487528285552453,,
,5527.0,738.0,4956.0,695.0,2310.0,1950.0,2484.0,,,,-0.215615071915166,-2.7272939325632,-0.592784199908217,,-2.6862697851076316,,
,5532.0,737.0,4960.0,694.0,2289.0,1951.0,2491.0,,,,-0.21533352998509,-2.72708862321228,-0.591564420793401,,-2.736628641678344,,
,5533.0,738.0,4959.0,694.0,2296.0,1962.0,2499.0,,,,-0.21556831214338,-2.72717875795297,-0.593213827918762,,-2.7927528591295383,,
,5535.0,737.0,4963.0,695.0,2292.0,1966.0,2499.0,,,,-0.215359049164429,-2.72699973525378,-0.592783769849062,,-2.845786534234438,,
,5543.0,740.0,4968.0,699.0,2278.0,1957.0,2490.0,,,,-0.215269418173925,-2.72695647496637,-0.592169650553729,,-2.885660245272875,,
,5547.0,740.0,4970.0,697.0,2283.0,1955.0,2499.0,,,,-0.215230428974108,-2.72671520910065,-0.592307337156475,,-2.9017802377219746,,
,5550.0,740.0,4971.0,699.0,2297.0,1951.0,2502.0,,,,-0.21489766652019,-2.7264869353361,-0.591801633834326,,-2.883782085137776,,
,5555.0,739.0,4978.0,699.0,2302.0,1954.0,2506.0,,,,-0.214843684515443,-2.72653468973057,-0.591094211495371,,-2.822280547568293,,
,5559.0,742.0,4979.0,698.0,2302.0,1953.0,2491.0,,,,-0.214856993880123,-2.72623571027772,-0.591192121114039,,-2.7095465999101607,,
,5560.0,744.0,4981.0,700.0,2309.0,1949.0,2482.0,,,,-0.214912920411135,-2.72651169977586,-0.590813396140316,,-2.5400502148633994,,
,5564.0,741.0,4985.0,699.0,2282.0,1956.0,2495.0,,,,-0.214934305231885,-2.72638141995281,-0.59019233286555,,-2.310821902595849,,
,5569.0,743.0,4987.0,701.0,2283.0,1960.0,2494.0,,,,-0.214532927153289,-2.72626142119183,-0.590020426770715,,-2.0216053951763726,,
,5573.0,745.0,4991.0,702.0,2295.0,1955.0,2506.0,,,,-0.214648001536111,-2.72614847111773,-0.591812160995725,,-1.6747963673609287,,
,5577.0,746.0,4992.0,706.0,2282.0,1964.0,2515.0,,,,-0.214517553866252,-2.72605945696189,-0.590550455375579,,-1.2751854760240144,,
,5581.0,745.0,4996.0,703.0,2281.0,1961.0,2512.0,,,,-0.21447018676182,-2.72582692616266,-0.589476773905617,,-0.8295453533744588,,
,5584.0,746.0,4996.0,704.0,2281.0,1954.0,2501.0,,,,-0.214230827859828,-2.72593986322565,-0.589049141927132,,-0.34611722000463724,,
,5589.0,747.0,4999.0,706.0,2302.0,1960.0,2494.0,,,,-0.214579983929074,-2.72588216361597,-0.589125258882371,,0.16593917321848706,,
,5593.0,749.0,5006.0,709.0,2299.0,1958.0,2505.0,,,,-0.214380727347541,-2.72570089428207,-0.58888069558331,,0.6970695905823021,,
,5596.0,746.0,5009.0,708.0,2304.0,1962.0,2514.0,,,,-0.214320123015865,-2.72574411171193,-0.58850915242363,,1.2377699494843113,,
,5596.0,749.0,5006.0,708.0,2303.0,1963.0,2522.0,,,,-0.213931501136366,-2.72547328507003,-0.587348173071622,,1.7789135022586713,,
,5595.0,750.0,5005.0,707.0,2301.0,1961.0,2497.0,,,,-0.213806155331665,-2.72554953008504,-0.587467239223771,,2.311941187324691,,
,5594.0,747.0,5002.0,708.0,2289.0,1968.0,2511.0,,,,-0.213511351688772,-2.72522226432124,-0.586850585869805,,2.8289152946484717,,
,5582.0,747.0,4993.0,705.0,2288.0,1959.0,2502.0,,,,-0.213706042971139,-2.72508236181441,-0.586551775483198,,3.322455068038471,,
,5572.0,745.0,4974.0,705.0,2290.0,1953.0,2494.0,,,,-0.21374219461123,-2.72546196719193,-0.586967566399218,,3.7855888973656846,,
,5553.0,739.0,4952.0,698.0,2289.0,1951.0,2497.0,,,,-0.213814171744568,-2.72521258209761,-0.587459422260713,,4.2115699537001285,,
,5534.0,741.0,4932.0,699.0,2296.0,1949.0,2507.0,,,,-0.213693325481139,-2.72546038918899,-0.587327577816135,,4.593708673713367,,
,5514.0,739.0,4911.0,697.0,2294.0,1952.0,2514.0,,,,-0.213713980666472,-2.72549519662019,-0.587352543616983,,4.92527436146513,,
,5492.0,734.0,4889.0,691.0,2289.0,1952.0,2520.0,,,,-0.2139957351297,-2.72551592153547,-0.586700186030189,,5.199508193802968,,
,5468.0,732.0,4867.0,688.0,2288.0,1952.0,2511.0,,,,-0.214225273128346,-2.72558004457929,-0.58738623582081,,5.409771997186448,,
,5448.0,731.0,4849.0,687.0,2313.0,1952.0,2501.0,,,,-0.214351754291057,-2.72549799537597,-0.586892220811537,,5.549834263383032,,
,5427.0,728.0,4832.0,683.0,2274.0,1952.0,2504.0,,,,-0.21442201840276,-2.72578205483865,-0.587803287897881,,5.614270867940625,,
,5406.0,725.0,4818.0,681.0,2269.0,1951.0,2483.0,,,,-0.214425004859101,-2.72572716051578,-0.588311509213176,,5.598936595251862,,
,5385.0,722.0,4802.0,677.0,2276.0,1957.0,2502.0,,,,-0.214495422596206,-2.72555850286055,-0.587927561429132,,5.501448111469433,,
,5368.0,722.0,4789.0,677.0,2274.0,1956.0,2499.0,,,,-0.214479762646776,-2.72585140295425,-0.588180552359788,,5.321612198955447,,
,5351.0,721.0,4779.0,674.0,2299.0,1957.0,2504.0,,,,-0.214433464730005,-2.72562452981815,-0.58667685011228,,5.061736810144815,,
,5341.0,719.0,4771.0,671.0,2287.0,1955.0,2504.0,,,,-0.214613990406531,-2.72590049502443,-0.587498365807403,,4.7267770581156805,,
,5328.0,717.0,4763.0,672.0,2295.0,1953.0,2487.0,,,,-0.214696737745301,-2.72590848451561,-0.588653796846948,,4.324291090377934,,
,5317.0,715.0,4760.0,667.0,2288.0,1959.0,2496.0,,,,-0.214787143494649,-2.72623357505278,-0.58907327314219,,3.864206569038452,,
,5311.0,719.0,4759.0,669.0,2298.0,1959.0,2496.0,,,,-0.215099233960025,-2.72618774250266,-0.589732191706259,,3.35842099170282,,
,5303.0,716.0,4755.0,669.0,2309.0,1955.0,2505.0,,,,-0.215447048120743,-2.72635111780174,-0.590926851359831,,2.820273896582629,,
,5298.0,716.0,4751.0,668.0,2315.0,1962.0,2485.0,,,,-0.215848915012301,-2.72648347691786,-0.591611975645479,,2.2639350413106065,,
,5295.0,715.0,4752.0,665.0,2317.0,1962.0,2488.0,,,,-0.216146270053413,-2.72673006189327,-0.591497816207176,,1.7037519964509926,,
,5291.0,716.0,4754.0,665.0,2298.0,1964.0,2479.0,,,,-0.216347992248737,-2.72723798824937,-0.591671755555496,,1.1535968502891067,,
2025-06-30 19:02:29,5292.0,715.0,4753.0,664.0,2283.0,1962.0,2496.0,,,2025/06/30 07:02:29 PM,-0.216160122524399,-2.72717417599368,-0.591734070611222,,0.6262480068336617,,
,5291.0,715.0,4756.0,666.0,2278.0,1964.0,2501.0,,,,-0.216159916708602,-2.72707307735805,-0.591303978510675,,0.13284051710364664,,
,5287.0,715.0,4753.0,663.0,2268.0,1966.0,2502.0,,,,-0.216210824933815,-2.72719151239071,-0.591403941944238,,-0.3175840592002034,,
,5290.0,715.0,4757.0,664.0,2284.0,1958.0,2499.0,,,,-0.216323060541401,-2.72714845204792,-0.59180170231533,,-0.7184016281032424,,
,5288.0,716.0,4759.0,664.0,2294.0,1954.0,2487.0,,,,-0.21642695748282,-2.7272779796921,-0.593273105170302,,-1.0655842034844718,,
,5289.0,714.0,4760.0,663.0,2298.0,1954.0,2499.0,,,,-0.216648632702515,-2.72728392120338,-0.59284050861094,,-1.3577241676350773,,
,5289.0,713.0,4760.0,664.0,2283.0,1964.0,2500.0,,,,-0.217001343334076,-2.72768824388617,-0.59391313406243,,-1.595906366701598,,
,5288.0,713.0,4761.0,664.0,2266.0,1958.0,2509.0,,,,-0.217013585322719,-2.72790048197549,-0.594647919482753,,-1.7834411115012987,,
,5291.0,714.0,4765.0,665.0,2276.0,1950.0,2506.0,,,,-0.216934292354319,-2.72772564719956,-0.5944953793219,,-1.9254805549307947,,
,5294.0,715.0,4766.0,664.0,2279.0,1953.0,2496.0,,,,-0.217071987033478,-2.72783674333019,-0.59383710017134,,-2.0285483307250796,,
,5292.0,712.0,4766.0,662.0,2268.0,1963.0,2498.0,,,,-0.217183526447376,-2.72780633752115,-0.594524835129258,,-2.1000174397929365,,
,5294.0,712.0,4768.0,662.0,2297.0,1958.0,2499.0,,,,-0.217086581017165,-2.72757399224837,-0.594003945330733,,-2.1475738240603675,,
,5298.0,715.0,4772.0,664.0,2298.0,1955.0,2500.0,,,,-0.216915715463508,-2.72775760684345,-0.5937048813326,,-2.178702629057152,,
,5299.0,716.0,4774.0,666.0,2287.0,1956.0,2502.0,,,,-0.216959361739851,-2.72770112113614,-0.59426413412136,,-2.200230956944123,,
,5300.0,715.0,4779.0,663.0,2294.0,1958.0,2503.0,,,,-0.217224108087699,-2.72774926094062,-0.594417084955857,,-2.217955542387231,,
,5301.0,713.0,4780.0,664.0,2288.0,1951.0,2503.0,,,,-0.217393169602704,-2.72805864097554,-0.594393977571463,,-2.2363770444196396,,
,5304.0,714.0,4784.0,664.0,2287.0,1957.0,2507.0,,,,-0.217468635555809,-2.72811437383069,-0.594869899919857,,-2.258555174532219,,
,5310.0,714.0,4784.0,666.0,2304.0,1958.0,2504.0,,,,-0.217741334541878,-2.72817817304065,-0.596181594706196,,-2.2860908791094388,,
,5309.0,715.0,4787.0,664.0,2301.0,1957.0,2512.0,,,,-0.217868629477719,-2.72868711265967,-0.596385210503855,,-2.3192329929516484,,
,5310.0,714.0,4786.0,663.0,2284.0,1960.0,2517.0,,,,-0.218107617551289,-2.728611199747,-0.598229278812223,,-2.3570967369547073,,
,5310.0,715.0,4789.0,664.0,2263.0,1965.0,2509.0,,,,-0.218268008126183,-2.72849913787944,-0.596681494837937,,-2.3979702205183746,,
,5312.0,715.0,4793.0,666.0,2269.0,1964.0,2514.0,,,,-0.218187422127493,-2.72858080280163,-0.59691980625363,,-2.4396740779585104,,
,5311.0,715.0,4792.0,666.0,2267.0,1968.0,2519.0,,,,-0.218258866264563,-2.72869283342519,-0.597900826315399,,-2.4799311980770726,,
,5311.0,714.0,4794.0,664.0,2265.0,1959.0,2534.0,,,,-0.218400531896769,-2.72901654256667,-0.59798089658686,,-2.5167010528940192,,
,5311.0,713.0,4790.0,663.0,2287.0,1962.0,2512.0,,,,-0.218783791398206,-2.72909677857665,-0.599188487988498,,-2.548437775182546,,
,5315.0,716.0,4795.0,666.0,2263.0,1960.0,2496.0,,,,-0.218832746059365,-2.72932171945581,-0.598177878180244,,-2.574242011957601,,
,5313.0,714.0,4794.0,665.0,2265.0,1959.0,2499.0,,,,-0.21944522948308,-2.72960077988112,-0.599571269088144,,-2.5938912144060096,,
,5314.0,714.0,4794.0,665.0,2306.0,1960.0,2498.0,,,,-0.219570578558367,-2.7298648328448,-0.601042658435193,,-2.607748598341657,,
,5314.0,713.0,4792.0,663.0,2302.0,1960.0,2503.0,,,,-0.219717713300814,-2.73005105894817,-0.601802473874218,,-2.616565319760841,,
,5314.0,713.0,4792.0,664.0,2276.0,1952.0,2506.0,,,,-0.219777854776042,-2.73002182235244,-0.600874660630247,,-2.621202122324899,,
,5313.0,713.0,4791.0,663.0,2274.0,1950.0,2489.0,,,,-0.219773123649271,-2.7302675624348,-0.601979175854595,,-2.622305136173431,,
,5314.0,715.0,4794.0,665.0,2268.0,1950.0,2493.0,,,,-0.219953389576616,-2.73023668797657,-0.601893671661781,,-2.619975281591592,,
,5313.0,714.0,4791.0,665.0,2274.0,1949.0,2500.0,,,,-0.219924256586313,-2.73030014758385,-0.60176295258936,,-2.613471687687806,,
,5314.0,714.0,4792.0,664.0,2274.0,1950.0,2505.0,,,,-0.220154850960481,-2.73056633877991,-0.603225268755147,,-2.60098670971684,,
,5315.0,716.0,4794.0,663.0,2302.0,1958.0,2500.0,,,,-0.220331953031067,-2.73068247121805,-0.602329848029717,,-2.579523787562057,,
,5316.0,714.0,4795.0,665.0,2308.0,1959.0,2494.0,,,,-0.220859270502376,-2.73124234280157,-0.604366486733724,,-2.544900011443282,,
,5317.0,714.0,4795.0,664.0,2302.0,1951.0,2492.0,,,,-0.221821635797908,-2.73186255031903,-0.606290323825176,,-2.491883465914261,,
,5314.0,712.0,4796.0,663.0,2281.0,1949.0,2479.0,,,,-0.222921057175401,-2.73280824551969,-0.60962248142992,,-2.4144618967219884,,
,5320.0,713.0,4800.0,664.0,2292.0,1950.0,2483.0,,,,-0.22367058055875,-2.73398770018114,-0.612301738011183,,-2.306224808066851,,
,5320.0,717.0,4803.0,668.0,2291.0,1951.0,2498.0,,,,-0.224363698086406,-2.73459239654222,-0.613005403560498,,-2.160826978064841,,
,5323.0,715.0,4801.0,665.0,2300.0,1953.0,2493.0,,,,-0.224850136749603,-2.73490599628588,-0.61563144415681,,-1.9724895700558995,,
,5327.0,715.0,4805.0,665.0,2270.0,1953.0,2503.0,,,,-0.225146150136282,-2.73540474249248,-0.616456259960836,,-1.7364883324546811,,
,5328.0,716.0,4809.0,666.0,2271.0,1955.0,2514.0,,,,-0.225310614454657,-2.73552812305491,-0.616826672838452,,-1.4495796713647833,,
,5330.0,718.0,4811.0,666.0,2282.0,1952.0,2505.0,,,,-0.225484751327716,-2.73562285237211,-0.616979196790923,,-1.1103258305295876,,
,5332.0,713.0,4817.0,664.0,2291.0,1953.0,2504.0,,,,-0.225385709795526,-2.73576714927045,-0.6190745144124,,-0.7192980645159626,,
,5338.0,716.0,4821.0,667.0,2267.0,1951.0,2498.0,,,,-0.225431538173611,-2.73552994598708,-0.618293590551869,,-0.27915674174873567,,
,5339.0,716.0,4819.0,666.0,2306.0,1953.0,2499.0,,,,-0.225668904416652,-2.7359202532638,-0.618569917531187,,0.20537578900694656,,
,5341.0,718.0,4826.0,670.0,2296.0,1953.0,2487.0,,,,-0.22580759662341,-2.7359442697201,-0.619987882571415,,0.727623980786933,,
,5347.0,719.0,4829.0,666.0,2306.0,1956.0,2492.0,,,,-0.22550428776438,-2.73615454167429,-0.619592085876884,,1.279122606821337,,
,5347.0,718.0,4832.0,669.0,2298.0,1953.0,2504.0,,,,-0.225720623852301,-2.73581383741563,-0.61952597509273,,1.84981403847761,,
,5354.0,719.0,4836.0,670.0,2273.0,1950.0,2510.0,,,,-0.225173039882209,-2.73587388844828,-0.619357251441169,,2.4282688411171507,,
,5357.0,719.0,4839.0,669.0,2286.0,1950.0,2506.0,,,,-0.225073517388879,-2.73581484230917,-0.617795036406318,,3.0019311269706423,,
,5362.0,724.0,4844.0,671.0,2280.0,1955.0,2507.0,,,,-0.225142735302194,-2.73564195120347,-0.617413234833504,,3.55740005146669,,
,5366.0,718.0,4847.0,668.0,2273.0,1967.0,2502.0,,,,-0.224807589832806,-2.73561481763048,-0.618344465736845,,4.080764052628991,,
,5368.0,722.0,4853.0,671.0,2267.0,1957.0,2515.0,,,,-0.224806942644082,-2.73537686598524,-0.617540170640656,,4.55800318447528,,
,5373.0,723.0,4856.0,672.0,2266.0,1949.0,2509.0,,,,-0.22473277245425,-2.73535704838768,-0.617172033189262,,4.975467003916435,,
,5378.0,723.0,4860.0,675.0,2271.0,1949.0,2514.0,,,,-0.224705831874511,-2.73539966406034,-0.61637309513895,,5.3204224006273915,,
,5382.0,722.0,4863.0,674.0,2275.0,1949.0,2517.0,,,,-0.22485753116887,-2.73521208394192,-0.616977779719959,,5.581650244534282,,
,5385.0,721.0,4866.0,672.0,2276.0,1950.0,2508.0,,,,-0.224736345627263,-2.73541478982346,-0.617882875684118,,5.750054965783788,,
,5388.0,724.0,4872.0,675.0,2258.0,1952.0,2524.0,,,,-0.224913383504929,-2.73555383196541,-0.616810145943611,,5.819239851080573,,
,5393.0,723.0,4873.0,675.0,2287.0,1958.0,2516.0,,,,-0.224900063768695,-2.73550153618198,-0.616094108185726,,5.78599443613102,,
,5399.0,723.0,4878.0,675.0,2291.0,1956.0,2511.0,,,,-0.225114667386114,-2.73563310333284,-0.617075795048547,,5.650639529924048,,
,5403.0,724.0,4880.0,675.0,2292.0,1966.0,2487.0,,,,-0.225020922728281,-2.73559627778735,-0.619074695541568,,5.41718094104309,,
,5407.0,725.0,4883.0,676.0,2275.0,1957.0,2502.0,,,,-0.224981610774204,-2.73554090154157,-0.618482260950768,,5.0932362178648445,,
,5410.0,726.0,4888.0,680.0,2285.0,1949.0,2501.0,,,,-0.224848172144309,-2.73558727298885,-0.618150554268842,,4.6897201571933085,,
,5414.0,727.0,4893.0,679.0,2284.0,1951.0,2502.0,,,,-0.225067397239951,-2.73562432792724,-0.618348960118544,,4.220302312629491,,
,5420.0,728.0,4896.0,679.0,2299.0,1967.0,2503.0,,,,-0.224919779663634,-2.73574833287013,-0.618454179462022,,3.7006780860219397,,
,5421.0,727.0,4894.0,679.0,2279.0,1964.0,2498.0,,,,-0.22532557631786,-2.73579898010825,-0.617737281666653,,3.147717804202399,,
,5427.0,725.0,4903.0,681.0,2295.0,1956.0,2505.0,,,,-0.225269925490739,-2.73559710577728,-0.618066496804736,,2.5785704847682065,,
,5431.0,729.0,4904.0,682.0,2286.0,1952.0,2512.0,,,,-0.225265097870501,-2.73604630259813,-0.619344550833073,,2.00979903880444,,
,5437.0,731.0,4907.0,684.0,2277.0,1949.0,2503.0,,,,-0.225289906161504,-2.73594586796572,-0.618749717703358,,1.4566129559494516,,
,5437.0,729.0,4909.0,683.0,2288.0,1944.0,2487.0,,,,-0.225451995446327,-2.73595523518511,-0.618194680197016,,0.9322465769611837,,
,5442.0,731.0,4916.0,683.0,2290.0,1951.0,2493.0,,,,-0.225251981603463,-2.73594917068067,-0.618684266331368,,0.4475100244364661,,
,5445.0,732.0,4920.0,686.0,2299.0,1959.0,2501.0,,,,-0.225220417227539,-2.73580752000588,-0.617173447808965,,0.010519615475319674,,
,5450.0,733.0,4922.0,685.0,2309.0,1957.0,2507.0,,,,-0.225540347630062,-2.73596719310985,-0.618484436055241,,-0.3734017652926693,,
,5454.0,732.0,4925.0,688.0,2301.0,1956.0,2506.0,,,,-0.225461609644657,-2.735965221411,-0.618965422649442,,-0.7016742874405657,,
,5459.0,732.0,4928.0,686.0,2285.0,1948.0,2510.0,,,,-0.225341684245602,-2.73581554983737,-0.618377168912146,,-0.9742846554996911,,
,5463.0,734.0,4930.0,686.0,2313.0,1952.0,2508.0,,,,-0.225261942612486,-2.73570476653364,-0.617943498214209,,-1.1935058093544004,,
,5465.0,734.0,4934.0,687.0,2312.0,1952.0,2500.0,,,,-0.224858019511319,-2.73554902226661,-0.618303241018314,,-1.3635312398617168,,
,5468.0,734.0,4936.0,688.0,2298.0,1963.0,2497.0,,,,-0.224902567403127,-2.73545896840997,-0.619022773859985,,-1.4900398848020457,,
,5473.0,734.0,4939.0,691.0,2288.0,1954.0,2482.0,,,,-0.224653091296389,-2.73537662552986,-0.617379829072914,,-1.5797097961018014,,
,5478.0,733.0,4944.0,691.0,2283.0,1948.0,2493.0,,,,-0.224976339979744,-2.73543540159603,-0.617400240395163,,-1.6397060103833119,,
,5481.0,739.0,4946.0,692.0,2295.0,1958.0,2511.0,,,,-0.224996371084771,-2.73574476058112,-0.618155029234541,,-1.6771775063288183,,
,5485.0,738.0,4950.0,692.0,2284.0,1960.0,2513.0,,,,-0.225118698557415,-2.73570801515745,-0.619390729939062,,-1.698805136617745,,
,5488.0,738.0,4950.0,691.0,2288.0,1965.0,2494.0,,,,-0.225330222126305,-2.73592019265363,-0.619405065656429,,-1.7104426385155818,,
,5494.0,737.0,4955.0,692.0,2293.0,1952.0,2490.0,,,,-0.225137066521352,-2.73614338041137,-0.619486549470427,,-1.7168841832167039,,
,5499.0,739.0,4959.0,693.0,2321.0,1950.0,2492.0,,,,-0.225215915371707,-2.73615077961366,-0.618727524883007,,-1.7217754741719387,,
,5504.0,742.0,4961.0,692.0,2317.0,1957.0,2489.0,,,,-0.225112515100942,-2.73594390918547,-0.618820574456711,,-1.727664813370562,,
,5504.0,739.0,4964.0,693.0,2289.0,1965.0,2496.0,,,,-0.225088436449858,-2.73595833540236,-0.617825835144707,,-1.7361707017352903,,
,5509.0,740.0,4969.0,696.0,2304.0,1952.0,2497.0,,,,-0.225180251281916,-2.73575101381533,-0.619131061369255,,-1.7482279968116228,,
,5512.0,740.0,4971.0,698.0,2300.0,1968.0,2493.0,,,,-0.225144780400731,-2.73598618505264,-0.620147724279278,,-1.764368411970455,,
,5518.0,743.0,4974.0,697.0,2315.0,1965.0,2496.0,,,,-0.225192808176843,-2.73580458435963,-0.619502693092776,,-1.784993719802408,,
,5521.0,742.0,4973.0,698.0,2328.0,1967.0,2505.0,,,,-0.22528854465412,-2.73585775812381,-0.620234368450632,,-1.810609195496705,,
,5523.0,742.0,4979.0,697.0,2290.0,1960.0,2504.0,,,,-0.225140569507872,-2.73597385469158,-0.618776754375396,,-1.8419964467193617,,
,5529.0,744.0,4981.0,700.0,2288.0,1956.0,2501.0,,,,-0.224949105574522,-2.73594442594648,-0.618805095543078,,-1.8803145420139509,,
,5531.0,746.0,4985.0,700.0,2273.0,1957.0,2496.0,,,,-0.22480392171087,-2.73596437520501,-0.617682936421486,,-1.9271238789888092,,
,5539.0,743.0,4988.0,700.0,2281.0,1958.0,2499.0,,,,-0.22475584884692,-2.73561566768169,-0.616648916711974,,-1.9843291048638467,,
,5542.0,745.0,4988.0,700.0,2301.0,1961.0,2491.0,,,,-0.224528975762238,-2.73543413017921,-0.617613810901089,,-2.0540384502475257,,
,5546.0,745.0,4994.0,700.0,2283.0,1954.0,2490.0,,,,-0.224235826198709,-2.73516712261312,-0.617974928803117,,-2.138339999317689,,
,5549.0,746.0,4998.0,705.0,2301.0,1955.0,2501.0,,,,-0.224236447571707,-2.7351044323813,-0.616712214175097,,-2.23900191203548,,
,5554.0,748.0,5002.0,703.0,2306.0,1954.0,2489.0,,,,-0.224358615667487,-2.73508304515485,-0.617238776880544,,-2.3571127795740514,,
,5556.0,748.0,5000.0,702.0,2289.0,1953.0,2488.0,,,,-0.224542700902954,-2.73498158422605,-0.615991137385509,,-2.4926884955485593,,
,5558.0,748.0,5002.0,706.0,2317.0,1974.0,2508.0,,,,-0.22414024904222,-2.73518058014892,-0.61690961766952,,-2.6442813913564365,,
,5563.0,748.0,5007.0,707.0,2365.0,2060.0,2532.0,,,,-0.224453448123461,-2.73528676511865,-0.617788944287217,,-2.808634214033134,,
,5566.0,752.0,5006.0,708.0,2344.0,2001.0,2511.0,,,,-0.224605257638372,-2.73512010703945,-0.616043720691759,,-2.9804245741360407,,
,5565.0,750.0,5004.0,708.0,2282.0,1919.0,2523.0,,,,-0.22452093924106,-2.73497186732037,-0.615877115412139,,-3.152144070976609,,
,5556.0,750.0,4993.0,705.0,2305.0,1957.0,2521.0,,,,-0.224235276020813,-2.73494230389897,-0.616174755749855,,-3.3141501729080614,,
,5547.0,744.0,4981.0,701.0,2287.0,1967.0,2511.0,,,,-0.224193962483616,-2.73499377958788,-0.616018479186966,,-3.454918090312872,,
,5531.0,743.0,4962.0,704.0,2280.0,1960.0,2488.0,,,,-0.224391349025685,-2.73496320635411,-0.616076045662033,,-3.5615043931613646,,
,5513.0,741.0,4940.0,699.0,2291.0,1963.0,2490.0,,,,-0.22423149334806,-2.73504334524809,-0.616100190170663,,-3.62021420358853,,
,5492.0,737.0,4917.0,694.0,2271.0,1955.0,2502.0,,,,-0.22462785962274,-2.73517369088962,-0.616630341741355,,-3.6174402411135897,,
,5472.0,740.0,4896.0,691.0,2246.0,1955.0,2507.0,,,,-0.224676710393409,-2.73501667965012,-0.616611446188795,,-3.540616833986253,,
,5451.0,733.0,4876.0,688.0,2273.0,1962.0,2517.0,,,,-0.224610556407293,-2.73537803478897,-0.617491852513389,,-3.379208897271202,,
,5431.0,734.0,4856.0,685.0,2262.0,1960.0,2517.0,,,,-0.224788950590236,-2.73552335353063,-0.6164786262778,,-3.125639878195213,,
,5410.0,731.0,4839.0,683.0,2275.0,1947.0,2522.0,,,,-0.225018118076983,-2.73525412195513,-0.616533881761225,,-2.776058939211493,,
,5387.0,730.0,4821.0,680.0,2260.0,1946.0,2502.0,,,,-0.225029764558747,-2.73552419404316,-0.616648099237667,,-2.3308594381870456,,
,5369.0,728.0,4807.0,679.0,2257.0,1951.0,2510.0,,,,-0.224907796587382,-2.7353593132742,-0.617585398684962,,-1.7948878157098824,,
,5350.0,725.0,4795.0,676.0,2276.0,1952.0,2516.0,,,,-0.22506207083163,-2.73529371966245,-0.617712934583337,,-1.1773201629645977,,
,5336.0,724.0,4784.0,676.0,2279.0,1955.0,2509.0,,,,-0.224917389621108,-2.73558894861398,-0.617095147584325,,-0.49122583603580483,,
,5321.0,721.0,4773.0,672.0,2259.0,1953.0,2500.0,,,,-0.22493328020305,-2.73545441978801,-0.616232850770267,,0.24712484436681004,,
,5310.0,721.0,4768.0,671.0,2282.0,1960.0,2494.0,,,,-0.224963333670806,-2.73530797103688,-0.617216368579941,,1.019125607258418,,
,5302.0,721.0,4761.0,669.0,2290.0,1962.0,2517.0,,,,-0.224629616105136,-2.73517254375075,-0.616871049637147,,1.8047780324023683,,
,5294.0,720.0,4758.0,667.0,2308.0,1966.0,2522.0,,,,-0.224509014723679,-2.73494203226608,-0.617254465955597,,2.583625133678124,,
,5286.0,719.0,4753.0,665.0,2287.0,1957.0,2506.0,,,,-0.224799543258003,-2.73497520532533,-0.615972618175863,,3.335603425764843,,
,5282.0,721.0,4752.0,667.0,2289.0,1955.0,2509.0,,,,-0.224714684725223,-2.73488034680296,-0.615560163957485,,4.041767794313337,,
,5281.0,717.0,4751.0,666.0,2291.0,1952.0,2493.0,,,,-0.22477020290004,-2.73513844172556,-0.616340822037803,,4.684871341600901,,
,5277.0,716.0,4751.0,665.0,2292.0,1963.0,2500.0,,,,-0.224938314471833,-2.73514733053285,-0.61712288197719,,5.24980709532197,,
,5274.0,716.0,4751.0,664.0,2291.0,1975.0,2490.0,,,,-0.225003685921647,-2.73517161465963,-0.615927291596979,,5.723935775245146,,
2025-06-30 19:02:30,5275.0,716.0,4753.0,664.0,2304.0,1969.0,2485.0,,,2025/06/30 07:02:30 PM,-0.224943968914761,-2.73543303753255,-0.61770311601078,,6.09733093183508,,
,5273.0,717.0,4753.0,663.0,2288.0,1960.0,2497.0,,,,-0.225034915415292,-2.73535004790065,-0.617319262272045,,6.362968844944213,,
,5274.0,718.0,4755.0,663.0,2294.0,1960.0,2502.0,,,,-0.224900854162487,-2.73546311700242,-0.616398829523433,,6.516877298464272,,
,5275.0,718.0,4757.0,667.0,2305.0,1955.0,2506.0,,,,-0.224725221161675,-2.73532180592944,-0.616914298190497,,6.558239120636811,,
,5272.0,714.0,4759.0,661.0,2287.0,1952.0,2497.0,,,,-0.224821999311294,-2.73514605444554,-0.616278231215855,,6.489429207508986,,
,5276.0,716.0,4760.0,664.0,2280.0,1960.0,2496.0,,,,-0.22477285495547,-2.73512081812123,-0.615645036070022,,6.315953367446225,,
,5274.0,716.0,4762.0,664.0,2287.0,1960.0,2514.0,,,,-0.224819418496456,-2.73531489876522,-0.616599875918315,,6.0462574535744835,,
,5276.0,715.0,4764.0,664.0,2284.0,1961.0,2517.0,,,,-0.225048828604465,-2.73520273012073,-0.616184755998356,,5.691386411387733,,
,5276.0,716.0,4765.0,664.0,2267.0,1957.0,2506.0,,,,-0.225126930910441,-2.7352970898166,-0.617808586786093,,5.264492097133751,,
,5280.0,719.0,4765.0,663.0,2270.0,1952.0,2509.0,,,,-0.225205844519972,-2.73570914697056,-0.617124423924065,,4.780210662242181,,
,5281.0,716.0,4767.0,664.0,2274.0,1956.0,2505.0,,,,-0.225387726417893,-2.73592160127307,-0.618732935224383,,4.253949463839837,,
,5283.0,716.0,4770.0,662.0,2273.0,1958.0,2505.0,,,,-0.226104812104382,-2.7364427175354,-0.620092740839509,,3.701136214694201,,
,5285.0,717.0,4773.0,663.0,2253.0,1960.0,2511.0,,,,-0.225923176681674,-2.73622140807525,-0.619384748073205,,3.136488125766747,,
,5288.0,717.0,4773.0,661.0,2260.0,1949.0,2508.0,,,,-0.226122716398322,-2.73603550270229,-0.61919926783291,,2.573356524998149,,
,5292.0,716.0,4779.0,665.0,2256.0,1952.0,2501.0,,,,-0.225975073631429,-2.73600241426912,-0.617905656093317,,2.0231942572084396,,
,5292.0,718.0,4781.0,665.0,2277.0,1956.0,2501.0,,,,-0.225894275215771,-2.73583983268927,-0.619513097530407,,1.4951809364558064,,
,5295.0,718.0,4783.0,663.0,2284.0,1965.0,2485.0,,,,-0.225625956038984,-2.73561371183964,-0.617175045989212,,0.9960265134566161,,
,5297.0,715.0,4784.0,663.0,2275.0,1956.0,2478.0,,,,-0.225595487514676,-2.73542049621111,-0.617025545454128,,0.5299577432367697,,
,5298.0,716.0,4786.0,663.0,2289.0,1947.0,2496.0,,,,-0.225671046745328,-2.73566587921055,-0.617013938922078,,0.09887594528507013,,
,5301.0,717.0,4789.0,664.0,2309.0,1947.0,2507.0,,,,-0.225716598057259,-2.73536758158752,-0.6187276307539,,-0.2973404716344261,,
,5300.0,717.0,4788.0,664.0,2298.0,1953.0,2524.0,,,,-0.225557292354751,-2.73566531231086,-0.618978373229979,,-0.6604267073394072,,
,5302.0,716.0,4789.0,661.0,2285.0,1959.0,2522.0,,,,-0.225605985157571,-2.73588620044479,-0.618925163406192,,-0.9932597136745849,,
,5302.0,717.0,4787.0,666.0,2280.0,1967.0,2518.0,,,,-0.225965817908373,-2.73596072867617,-0.618613860793924,,-1.299368604281535,,
,5304.0,716.0,4789.0,665.0,2295.0,1963.0,2506.0,,,,-0.225983100533549,-2.73618714700815,-0.618931041394588,,-1.582468074092457,,
,5305.0,718.0,4790.0,666.0,2293.0,1958.0,2503.0,,,,-0.226017069321264,-2.73601037081289,-0.619273089198034,,-1.8460485021915716,,
,5303.0,716.0,4789.0,665.0,2288.0,1958.0,2529.0,,,,-0.225988292348003,-2.73604251109546,-0.619168926030998,,-2.0930480060859837,,
,5306.0,718.0,4786.0,664.0,2261.0,1951.0,2520.0,,,,-0.226148003224359,-2.73613943193183,-0.619312156987022,,-2.3256231680400496,,
,5305.0,719.0,4788.0,666.0,2262.0,1949.0,2503.0,,,,-0.22624105230888,-2.73624327248705,-0.619994186393413,,-2.5450271600311987,,
,5306.0,718.0,4788.0,664.0,2255.0,1952.0,2502.0,,,,-0.226373703287575,-2.73669361684412,-0.620739524429374,,-2.7515968872991152,,
,5305.0,716.0,4787.0,664.0,2266.0,1954.0,2498.0,,,,-0.226712591861908,-2.7366243503644,-0.62001536061838,,-2.944844543134147,,
,5306.0,715.0,4787.0,664.0,2293.0,1953.0,2491.0,,,,-0.227108917504423,-2.73699832816801,-0.620685069678436,,-3.12364319118478,,
,5305.0,718.0,4790.0,664.0,2276.0,1961.0,2505.0,,,,-0.22796342832854,-2.73767284019671,-0.622991945720564,,-3.2864899221032475,,
,5307.0,717.0,4788.0,664.0,2290.0,1960.0,2508.0,,,,-0.22845612159871,-2.73848787757984,-0.625853782157335,,-3.4318231529142507,,
,5308.0,717.0,4790.0,666.0,2296.0,1962.0,2507.0,,,,-0.229387725735382,-2.73920097811496,-0.627661642370553,,-3.5583629704861743,,
,5308.0,717.0,4789.0,661.0,2310.0,1950.0,2503.0,,,,-0.230299923162081,-2.74019680399387,-0.629571427129356,,-3.665436683590092,,
,5311.0,720.0,4794.0,663.0,2282.0,1945.0,2510.0,,,,-0.231094772932463,-2.74077586893316,-0.632466871786405,,-3.7532486010468165,,
,5311.0,715.0,4792.0,665.0,2277.0,1954.0,2508.0,,,,-0.231091377281309,-2.74092107565851,-0.635086290284928,,-3.823055722169693,,
,5318.0,718.0,4797.0,665.0,2284.0,1952.0,2508.0,,,,-0.231384764103017,-2.74119504749467,-0.634801883076437,,-3.877219886521739,,
,5313.0,715.0,4797.0,663.0,2271.0,1959.0,2502.0,,,,-0.231394778680467,-2.74123976018667,-0.634667857134831,,-3.9191204240424966,,
,5319.0,717.0,4802.0,664.0,2272.0,1957.0,2501.0,,,,-0.231411109323094,-2.74154134103638,-0.634616361910017,,-3.9529269989394424,,
,5321.0,720.0,4802.0,668.0,2298.0,1962.0,2505.0,,,,-0.231504878135817,-2.74143363431761,-0.634581370822944,,-3.9832477994845568,,
,5325.0,717.0,4803.0,666.0,2304.0,1968.0,2509.0,,,,-0.231525862290965,-2.74162939415932,-0.635715664398007,,-4.014681734662723,,
,5326.0,719.0,4808.0,665.0,2303.0,1968.0,2500.0,,,,-0.231299218316829,-2.74157153832832,-0.634934486642358,,-4.051313688031398,,
,5329.0,716.0,4809.0,666.0,2277.0,1967.0,2503.0,,,,-0.231329220711609,-2.74131993928845,-0.634486098508169,,-4.096198418950924,,
,5333.0,718.0,4813.0,665.0,2292.0,1959.0,2502.0,,,,-0.230988460773114,-2.74116308699921,-0.634747319989701,,-4.15088106568527,,
,5338.0,719.0,4817.0,667.0,2266.0,1956.0,2500.0,,,,-0.230994869171149,-2.74114805738814,-0.63429776699427,,-4.215000491539135,,
,5343.0,720.0,4823.0,666.0,2259.0,1957.0,2504.0,,,,-0.230634883370712,-2.7407084711028,-0.632072652381842,,-4.28601632321597,,
,5346.0,720.0,4826.0,667.0,2281.0,1955.0,2500.0,,,,-0.230530645786987,-2.74096301854054,-0.633476505696779,,-4.359091895561605,,
,5347.0,722.0,4829.0,669.0,2274.0,1952.0,2490.0,,,,-0.230050744629255,-2.74067762941821,-0.632214046159585,,-4.4271536980256085,,
,5353.0,722.0,4830.0,669.0,2277.0,1961.0,2501.0,,,,-0.229972770511605,-2.74024741033796,-0.630927201333098,,-4.481133442839688,,
,5358.0,723.0,4834.0,670.0,2292.0,1956.0,2509.0,,,,-0.229472574470946,-2.74026800725763,-0.63080591524309,,-4.510381955447141,,
,5360.0,724.0,4837.0,670.0,2288.0,1948.0,2515.0,,,,-0.229626293875002,-2.74002260009753,-0.630252576491244,,-4.503226121526277,,
,5367.0,722.0,4842.0,671.0,2283.0,1962.0,2504.0,,,,-0.229254382464233,-2.74001455600094,-0.629486723442904,,-4.447623972298839,,
,5372.0,725.0,4846.0,672.0,2256.0,1960.0,2496.0,,,,-0.229178678911626,-2.73993408927868,-0.630279525937447,,-4.33186243729619,,
,5377.0,724.0,4851.0,673.0,2275.0,1963.0,2513.0,,,,-0.229307512885263,-2.74001190979589,-0.630043212407748,,-4.145240410649262,,
,5380.0,725.0,4854.0,674.0,2285.0,1971.0,2512.0,,,,-0.229411993573659,-2.73999556582254,-0.629964723655954,,-3.878687347291472,,
,5386.0,724.0,4856.0,671.0,2272.0,1958.0,2500.0,,,,-0.229653491017334,-2.74011267403871,-0.629865178688082,,-3.525282792715072,,
,5388.0,726.0,4860.0,677.0,2289.0,1950.0,2502.0,,,,-0.229746053794617,-2.74018401846719,-0.629659104782235,,-3.080661328878448,,
,5392.0,725.0,4865.0,674.0,2295.0,1960.0,2518.0,,,,-0.229831228852473,-2.74005028413233,-0.62932298085962,,-2.5433057923296922,,
,5397.0,728.0,4868.0,676.0,2284.0,1961.0,2522.0,,,,-0.229764806309043,-2.74045110300886,-0.630591352938854,,-1.914744838304394,,
,5402.0,726.0,4872.0,678.0,2268.0,1969.0,2511.0,,,,-0.229826214472247,-2.74026652756722,-0.631202467839267,,-1.1996758095957831,,
,5405.0,727.0,4873.0,677.0,2261.0,1958.0,2489.0,,,,-0.229661773086091,-2.74013136914438,-0.630241669556176,,-0.4060295852142633,,
,5412.0,729.0,4880.0,677.0,2265.0,1958.0,2497.0,,,,-0.229449089460448,-2.74015387894182,-0.629440111379839,,0.4550174875881921,,
,5417.0,727.0,4880.0,678.0,2270.0,1965.0,2499.0,,,,-0.229258329462947,-2.7398128080705,-0.629561993863937,,1.3690945434110307,,
,5421.0,727.0,4887.0,680.0,2291.0,1964.0,2507.0,,,,-0.229388056754601,-2.73982551268441,-0.630077635986907,,2.318774386415092,,
,5425.0,732.0,4888.0,679.0,2266.0,1952.0,2507.0,,,,-0.229400818381107,-2.73996207888708,-0.629085165623577,,3.283833485083462,,
,5431.0,732.0,4893.0,680.0,2278.0,1958.0,2513.0,,,,-0.229506777607307,-2.74022376490686,-0.629952852717418,,4.241671687779833,,
,5435.0,731.0,4899.0,684.0,2286.0,1952.0,2503.0,,,,-0.229414206999389,-2.74025441238122,-0.63014291496327,,5.167923991929929,,
,5440.0,732.0,4901.0,684.0,2279.0,1958.0,2504.0,,,,-0.2295066395061,-2.73992681242493,-0.629127334247621,,6.037281016960115,,
,5444.0,729.0,4903.0,684.0,2287.0,1960.0,2503.0,,,,-0.229480007043455,-2.74020853578669,-0.629204557609944,,6.824509479064743,,
,5446.0,733.0,4904.0,683.0,2296.0,1968.0,2499.0,,,,-0.229716272614313,-2.74026214449939,-0.629741630426667,,7.505631912704861,,
,5455.0,734.0,4907.0,685.0,2288.0,1953.0,2506.0,,,,-0.229726828096023,-2.74012754447027,-0.630323226194603,,8.059191935754884,,
,5458.0,734.0,4912.0,686.0,2298.0,1952.0,2506.0,,,,-0.230039374534997,-2.74030967887696,-0.631544600272223,,8.467504809915715,,
,5461.0,734.0,4914.0,686.0,2274.0,1961.0,2509.0,,,,-0.229689821390012,-2.74016564536308,-0.631037483753297,,8.717779043770575,,
,5464.0,735.0,4919.0,685.0,2273.0,1958.0,2522.0,,,,-0.22955809169253,-2.73996620696314,-0.628525648645107,,8.80299625911654,,
,5469.0,734.0,4923.0,686.0,2272.0,1952.0,2509.0,,,,-0.229484387914455,-2.73982246019942,-0.62951281886255,,8.722453094383994,,
,5476.0,738.0,4923.0,688.0,2280.0,1949.0,2509.0,,,,-0.229536724351757,-2.73988068294661,-0.628826119834502,,8.481898010333381,,
,5480.0,736.0,4929.0,687.0,2285.0,1947.0,2506.0,,,,-0.229183833727682,-2.73986185493831,-0.628635256508,,8.093233997377185,,
,5479.0,737.0,4929.0,688.0,2279.0,1953.0,2501.0,,,,-0.229227416042568,-2.73977372954204,-0.628728685197709,,7.573801339071459,,
,5485.0,737.0,4932.0,690.0,2289.0,1958.0,2491.0,,,,-0.229648209675893,-2.73955569699721,-0.629234948623199,,6.94529785353875,,
,5492.0,740.0,4939.0,690.0,2291.0,1957.0,2505.0,,,,-0.229510164251673,-2.73970624216814,-0.628657552462316,,6.2324312820107535,,
,5499.0,738.0,4944.0,692.0,2297.0,1958.0,2513.0,,,,-0.22960944601895,-2.73980411370055,-0.628778462679943,,5.461423353260104,,
,5500.0,741.0,4944.0,692.0,2290.0,1958.0,2502.0,,,,-0.229431941239006,-2.73979948326207,-0.629126921440273,,4.658493358304627,,
,5507.0,740.0,4949.0,690.0,2303.0,1953.0,2506.0,,,,-0.229639814273399,-2.74010416351041,-0.629104726147078,,3.8484409614389956,,
,5508.0,741.0,4952.0,695.0,2306.0,1953.0,2509.0,,,,-0.229663287815188,-2.74009080278914,-0.629551448770606,,3.0534277465747923,,
,5516.0,742.0,4954.0,695.0,2298.0,1960.0,2501.0,,,,-0.229835607958774,-2.73990297091597,-0.629677397942705,,2.292030599129777,,
,5518.0,742.0,4956.0,694.0,2285.0,1953.0,2503.0,,,,-0.22964475959906,-2.73987865359363,-0.628458624780073,,1.5786120806069472,,
,5522.0,742.0,4958.0,696.0,2290.0,1951.0,2506.0,,,,-0.229448120508992,-2.73981264364528,-0.629363296190682,,0.9230256124190167,,
,5529.0,745.0,4961.0,695.0,2307.0,1953.0,2495.0,,,,-0.229316903521216,-2.73940838439876,-0.62906199116823,,0.3306472827985505,,
,5532.0,744.0,4966.0,697.0,2302.0,1952.0,2495.0,,,,-0.229249835422416,-2.73960945925805,-0.629027465495509,,-0.1972976440473467,,
,5538.0,744.0,4968.0,698.0,2296.0,1965.0,2485.0,,,,-0.229179691274428,-2.73947791116265,-0.628648843464815,,-0.6631652753452868,,
,5540.0,743.0,4971.0,698.0,2312.0,1962.0,2506.0,,,,-0.228925738902943,-2.73972347388052,-0.628240758526425,,-1.072146715448801,,
,5544.0,745.0,4974.0,699.0,2295.0,1958.0,2507.0,,,,-0.228962429925109,-2.73944502752722,-0.628661638129159,,-1.4314185389088694,,
,5548.0,746.0,4979.0,701.0,2281.0,1970.0,2494.0,,,,-0.229076474578588,-2.73953829130249,-0.627733430930693,,-1.7492651118659113,,
,5553.0,748.0,4981.0,701.0,2295.0,1961.0,2506.0,,,,-0.229075905532336,-2.73957856070887,-0.628309109102666,,-2.0342431333802,,
,5557.0,746.0,4980.0,700.0,2303.0,1955.0,2504.0,,,,-0.228811691015471,-2.73926402805427,-0.628036040040215,,-2.2944492204304625,,
,5563.0,750.0,4985.0,705.0,2269.0,1968.0,2498.0,,,,-0.228608894904678,-2.73914582192532,-0.627365148871083,,-2.5369379543822563,,
,5567.0,751.0,4990.0,704.0,2291.0,1959.0,2492.0,,,,-0.228446893603288,-2.73883024127254,-0.625748291730381,,-2.7673217727880206,,
,5571.0,751.0,4990.0,706.0,2293.0,1958.0,2495.0,,,,-0.228131490382735,-2.73862195525103,-0.626413686203514,,-2.9895668626490823,,
,5574.0,750.0,4995.0,701.0,2293.0,1958.0,2475.0,,,,-0.228145383276304,-2.73853808393797,-0.624917548347824,,-3.2059822253809114,,
,5580.0,753.0,4998.0,705.0,2285.0,1965.0,2482.0,,,,-0.228043516574177,-2.73850307890276,-0.626334288870393,,-3.4173834317789575,,
,5586.0,750.0,5003.0,705.0,2260.0,1976.0,2485.0,,,,-0.227885118436102,-2.73836495110228,-0.625307750875439,,-3.6233988146822043,,
,5589.0,754.0,5003.0,709.0,2271.0,1968.0,2484.0,,,,-0.227848731572799,-2.73855930821902,-0.624489257703962,,-3.8228741211399897,,
,5593.0,755.0,5009.0,709.0,2292.0,1959.0,2495.0,,,,-0.227983165527462,-2.73815333080979,-0.624359494734383,,-4.014322306407437,,
,5599.0,754.0,5007.0,708.0,2310.0,1969.0,2497.0,,,,-0.228075727849104,-2.73844487404962,-0.624929040803245,,-4.196359382284108,,
,5600.0,756.0,5012.0,710.0,2316.0,1966.0,2493.0,,,,-0.22815686091059,-2.73815656973102,-0.624336545190139,,-4.368067098755616,,
,5608.0,756.0,5013.0,711.0,2310.0,1974.0,2501.0,,,,-0.227999563611194,-2.73844947332717,-0.624929304987015,,-4.529230607123784,,
,5607.0,757.0,5012.0,712.0,2307.0,1965.0,2498.0,,,,-0.227958004591895,-2.73832563883658,-0.625303984647522,,-4.680414278342524,,
,5601.0,752.0,5006.0,708.0,2286.0,1963.0,2505.0,,,,-0.228125436344806,-2.73846600605817,-0.62533376734017,,-4.822859478563581,,
,5597.0,755.0,4995.0,707.0,2295.0,1959.0,2514.0,,,,-0.227971564471367,-2.73846418318548,-0.624586737759995,,-4.958210993071234,,
,5582.0,751.0,4982.0,708.0,2295.0,1956.0,2492.0,,,,-0.227742250457412,-2.73830739182857,-0.62481034934073,,-5.088100606017504,,
,5572.0,748.0,4965.0,702.0,2296.0,1961.0,2493.0,,,,-0.227985546176739,-2.7382167293445,-0.624728766395697,,-5.213634510980614,,
,5549.0,745.0,4940.0,702.0,2282.0,1956.0,2497.0,,,,-0.227882344296288,-2.73826576357603,-0.624257330288758,,-5.334844096099965,,
,5529.0,742.0,4920.0,697.0,2276.0,1957.0,2506.0,,,,-0.228160743881325,-2.73810073004445,-0.624339875573826,,-5.450166361332174,,
,5515.0,745.0,4903.0,696.0,2276.0,1953.0,2481.0,,,,-0.22807339153452,-2.73805145813164,-0.624781318342242,,-5.556020502664103,,
,5494.0,741.0,4882.0,693.0,2274.0,1953.0,2484.0,,,,-0.22811274304409,-2.73816317748007,-0.624399891858037,,-5.646541148797759,,
,5475.0,742.0,4862.0,690.0,2261.0,1958.0,2481.0,,,,-0.228083270370248,-2.73799629173891,-0.625824470429869,,-5.713516762926345,,
,5454.0,739.0,4844.0,688.0,2278.0,1963.0,2502.0,,,,-0.227599442415295,-2.73799581123637,-0.623904140078815,,-5.7465645154310065,,
,5438.0,736.0,4829.0,687.0,2279.0,1959.0,2499.0,,,,-0.227591467278666,-2.73812816369657,-0.624081683018208,,-5.733551502296396,,
,5420.0,735.0,4817.0,685.0,2260.0,1958.0,2501.0,,,,-0.227632710181561,-2.73773351706343,-0.622529776158063,,-5.661247892071951,,
,5405.0,733.0,4804.0,683.0,2277.0,1963.0,2498.0,,,,-0.227530702904082,-2.7378075746578,-0.623814898797628,,-5.5161723135913165,,
,5390.0,731.0,4793.0,679.0,2287.0,1967.0,2482.0,,,,-0.227790994596074,-2.73818403243676,-0.624015234420653,,-5.285566319049258,,
,5379.0,732.0,4786.0,679.0,2305.0,1965.0,2478.0,,,,-0.227742297483339,-2.73806880861903,-0.623885846153482,,-4.958416859332651,,
,5370.0,729.0,4782.0,677.0,2309.0,1966.0,2489.0,,,,-0.227979294184662,-2.73810482189658,-0.62453211620644,,-4.526437313133275,,
,5362.0,728.0,4776.0,676.0,2294.0,1966.0,2490.0,,,,-0.227650131005788,-2.73822642485878,-0.624626802931334,,-3.984920897650466,,
,5356.0,728.0,4771.0,675.0,2304.0,1957.0,2505.0,,,,-0.22799220497404,-2.73808095230862,-0.624154007623832,,-3.3333941612745055,,
,5349.0,729.0,4771.0,674.0,2309.0,1963.0,2495.0,,,,-0.227939840970543,-2.73847088766557,-0.624591051440597,,-2.576018660043136,,
,5346.0,730.0,4769.0,672.0,2289.0,1968.0,2489.0,,,,-0.227975592953732,-2.73827717608056,-0.624855520118508,,-1.7217109906522206,,
2025-06-30 19:02:31,5342.0,727.0,4770.0,675.0,2301.0,1971.0,2481.0,,,2025/06/30 07:02:31 PM,-0.228273373579723,-2.73851512977915,-0.625050849620745,,-0.7839719285213997,,
,5343.0,725.0,4769.0,671.0,2304.0,1983.0,2471.0,,,,-0.228315757488597,-2.73875549616615,-0.625543902032802,,0.21956585730551106,,
,5340.0,725.0,4769.0,672.0,2307.0,1964.0,2473.0,,,,-0.228340821186791,-2.73856250015539,-0.624686179698403,,1.267843694388436,,
,5341.0,727.0,4773.0,672.0,2309.0,1967.0,2486.0,,,,-0.228514295868903,-2.7385337303926,-0.625591843783334,,2.3372896503902743,,
,5343.0,726.0,4774.0,673.0,2314.0,1967.0,2483.0,,,,-0.228458783794059,-2.73843404676161,-0.623979086512187,,3.4028734087239996,,
,5341.0,725.0,4776.0,672.0,2306.0,1961.0,2485.0,,,,-0.228445457330629,-2.73845286076034,-0.624349839986065,,4.439225617381963,,
,5342.0,726.0,4778.0,672.0,2313.0,1971.0,2500.0,,,,-0.228469183352151,-2.73847175543207,-0.625207688038901,,5.421740498874307,,
,5346.0,724.0,4782.0,673.0,2314.0,1962.0,2486.0,,,,-0.228508854630689,-2.73867511100352,-0.625012717207487,,6.3275882992305394,,
,5351.0,726.0,4786.0,674.0,2313.0,1966.0,2502.0,,,,-0.228665520468746,-2.73883754712312,-0.624665100210242,,7.136581752107547,,
,5353.0,728.0,4785.0,672.0,2308.0,1964.0,2497.0,,,,-0.228635848063743,-2.73876810487651,-0.625274986913573,,7.83186383912062,,
,5354.0,726.0,4785.0,673.0,2301.0,1961.0,2492.0,,,,-0.22888389245527,-2.73895658167802,-0.626263851126673,,8.400407089931969,,
,5351.0,726.0,4793.0,673.0,2291.0,1958.0,2487.0,,,,-0.229051338249307,-2.73928594104798,-0.626619902596825,,8.833331936199226,,
,5359.0,727.0,4795.0,673.0,2305.0,1964.0,2489.0,,,,-0.229382340623049,-2.73926295475285,-0.62708073698816,,9.126059432570607,,
,5360.0,728.0,4793.0,674.0,2301.0,1960.0,2487.0,,,,-0.229642604942133,-2.73918076954896,-0.628014443385312,,9.278311612885215,,
,5364.0,728.0,4800.0,674.0,2316.0,1957.0,2485.0,,,,-0.229883272046009,-2.73926752285624,-0.627334235189299,,9.293964430841722,,
,5365.0,726.0,4801.0,670.0,2291.0,1955.0,2460.0,,,,-0.229721832050277,-2.73923859870849,-0.626430117803214,,9.180749885029208,,
,5369.0,728.0,4806.0,675.0,2308.0,1949.0,2490.0,,,,-0.229645725418486,-2.73920826871655,-0.627168711317795,,8.9498018332839,,
,5374.0,731.0,4810.0,674.0,2299.0,1950.0,2494.0,,,,-0.229594866565754,-2.73921629909981,-0.627281509421883,,8.615047744847752,,
,5377.0,728.0,4813.0,674.0,2300.0,1950.0,2491.0,,,,-0.22948302400871,-2.73914234113859,-0.626493251196862,,8.192465541602871,,
,5378.0,725.0,4813.0,673.0,2293.0,1952.0,2498.0,,,,-0.229346065603825,-2.73928664974245,-0.626655357184799,,7.699246038898738,,
,5382.0,727.0,4815.0,674.0,2296.0,1949.0,2491.0,,,,-0.229320693244293,-2.73929498515407,-0.626385993449051,,7.152920412794573,,
,5385.0,727.0,4818.0,676.0,2321.0,1954.0,2483.0,,,,-0.229549022210373,-2.73924647032323,-0.626405032549786,,6.570522191434778,,
,5381.0,729.0,4818.0,675.0,2314.0,1953.0,2491.0,,,,-0.229474733708997,-2.73941782328765,-0.626886715608928,,5.967851039623347,,
,5383.0,728.0,4819.0,677.0,2287.0,1950.0,2506.0,,,,-0.229734732881534,-2.73915182100966,-0.62736738124412,,5.3588915565770545,,
,5384.0,729.0,4819.0,677.0,2294.0,1958.0,2497.0,,,,-0.229561274044698,-2.73932278492954,-0.627330571039621,,4.755418111202868,,
,5385.0,727.0,4818.0,677.0,2319.0,1957.0,2492.0,,,,-0.229941684610563,-2.73953854345037,-0.627753176308184,,4.166791802611359,,
,5385.0,729.0,4818.0,676.0,2313.0,1954.0,2492.0,,,,-0.230047965164041,-2.73950410241377,-0.627772643015197,,3.599933642276558,,
,5386.0,727.0,4817.0,675.0,2315.0,1953.0,2495.0,,,,-0.230190894087931,-2.73976100694972,-0.629225936398883,,3.059443326570796,,
,5383.0,726.0,4816.0,670.0,2293.0,1958.0,2488.0,,,,-0.230295668631732,-2.74017983790201,-0.6292254656993,,2.5478269134073943,,
,5387.0,729.0,4817.0,675.0,2297.0,1960.0,2486.0,,,,-0.230587318457697,-2.7403312632941,-0.629507756496809,,2.0657977117168045,,
,5388.0,729.0,4817.0,673.0,2288.0,1961.0,2492.0,,,,-0.231137964960102,-2.7409509197037,-0.631515196435809,,1.6126196831355153,,
,5387.0,728.0,4816.0,674.0,2281.0,1968.0,2490.0,,,,-0.231358981297711,-2.74105432655626,-0.630891841359788,,1.1864689110704378,,
,5387.0,727.0,4815.0,673.0,2311.0,1969.0,2473.0,,,,-0.232208375300935,-2.74199517698742,-0.633650013242529,,0.784794431813649,,
,5387.0,726.0,4814.0,672.0,2317.0,1959.0,2484.0,,,,-0.232646865780814,-2.74238846599962,-0.635588957483755,,0.4046639735469153,,
,5386.0,727.0,4814.0,674.0,2331.0,1961.0,2493.0,,,,-0.232487375171777,-2.74240484601444,-0.634806667906548,,0.04308260567131522,,
,5389.0,729.0,4817.0,674.0,2323.0,1956.0,2494.0,,,,-0.232236612551301,-2.74193260818642,-0.635105148992025,,-0.3027267124713289,,
,5386.0,730.0,4816.0,674.0,2273.0,1957.0,2498.0,,,,-0.232012506377988,-2.74193437308148,-0.634681195120895,,-0.6350913723067935,,
,5387.0,728.0,4812.0,673.0,2316.0,1958.0,2477.0,,,,-0.232505220126453,-2.74223688719015,-0.635739335397439,,-0.9557162706327769,,
,5390.0,730.0,4820.0,675.0,2315.0,1959.0,2493.0,,,,-0.232057448401352,-2.74201685076631,-0.634947288790025,,-1.2655786144411063,,
,5390.0,730.0,4818.0,675.0,2314.0,1955.0,2489.0,,,,-0.232206966094864,-2.74230517489361,-0.637020441094231,,-1.5648967534181613,,
,5391.0,727.0,4820.0,675.0,2298.0,1953.0,2493.0,,,,-0.232315845138544,-2.74261966191583,-0.637833843962451,,-1.8531760865342835,,
,5394.0,728.0,4822.0,673.0,2314.0,1953.0,2494.0,,,,-0.232086653112578,-2.74246976903761,-0.635284784196486,,-2.12933058564424,,
,5396.0,730.0,4825.0,676.0,2307.0,1971.0,2487.0,,,,-0.231649811281901,-2.74235616926574,-0.634421075020188,,-2.3918723876247285,,
,5402.0,728.0,4826.0,677.0,2311.0,1963.0,2467.0,,,,-0.231575413399126,-2.74190138340373,-0.634124892074381,,-2.6391540402388864,,
,5403.0,729.0,4830.0,677.0,2289.0,1968.0,2480.0,,,,-0.230914666740571,-2.74157784394912,-0.634175391104886,,-2.8696390783033805,,
,5407.0,729.0,4832.0,675.0,2292.0,1966.0,2489.0,,,,-0.230713734075147,-2.74097285311283,-0.634090863044829,,-3.0821686846236043,,
,5408.0,729.0,4834.0,677.0,2282.0,1971.0,2489.0,,,,-0.23028937280897,-2.7405354400528,-0.631234462699197,,-3.2761880774970167,,
,5413.0,729.0,4839.0,678.0,2299.0,1963.0,2487.0,,,,-0.230029571536692,-2.74026239815896,-0.632113931261268,,-3.451898245377715,,
,5416.0,731.0,4840.0,677.0,2301.0,1966.0,2476.0,,,,-0.229619437268933,-2.74046204053517,-0.630764178134238,,-3.6103071926806285,,
,5421.0,733.0,4845.0,678.0,2280.0,1967.0,2484.0,,,,-0.229625256302278,-2.7405075163243,-0.629876606525468,,-3.7531684293636838,,
,5423.0,730.0,4846.0,678.0,2272.0,1968.0,2503.0,,,,-0.229697696433562,-2.74031294478164,-0.630463164568715,,-3.882810326240655,,
,5429.0,733.0,4852.0,678.0,2285.0,1965.0,2503.0,,,,-0.229702642567557,-2.74048406456638,-0.630284467557926,,-4.001875339242679,,
,5433.0,734.0,4856.0,681.0,2304.0,1969.0,2503.0,,,,-0.229772868046989,-2.7405341445467,-0.630563743597188,,-4.113000673339394,,
,5436.0,733.0,4857.0,680.0,2335.0,1964.0,2492.0,,,,-0.229912647126623,-2.74049268324189,-0.629806582253762,,-4.218480182676947,,
,5440.0,734.0,4861.0,681.0,2304.0,1966.0,2494.0,,,,-0.230084671517283,-2.74053953585792,-0.629337926805266,,-4.319950451894715,,
,5445.0,732.0,4865.0,680.0,2309.0,1957.0,2485.0,,,,-0.229888272104749,-2.7400438132043,-0.629867718892239,,-4.418142016931501,,
,5450.0,735.0,4868.0,681.0,2299.0,1956.0,2497.0,,,,-0.229491329320495,-2.73991148727253,-0.629763405851942,,-4.512730044503695,,
,5453.0,735.0,4870.0,682.0,2303.0,1957.0,2492.0,,,,-0.229414754014915,-2.73987981403598,-0.629171970547275,,-4.602308386914052,,
,5457.0,736.0,4874.0,683.0,2284.0,1967.0,2492.0,,,,-0.229321170794811,-2.73982858146494,-0.629233775813572,,-4.684497889361173,,
,5461.0,735.0,4877.0,683.0,2285.0,1964.0,2494.0,,,,-0.229285003616992,-2.73957595018643,-0.627579864694404,,-4.756185304634172,,
,5466.0,737.0,4881.0,684.0,2295.0,1959.0,2486.0,,,,-0.229284011122971,-2.739713740589,-0.628574060936176,,-4.813874165082922,,
,5472.0,733.0,4886.0,685.0,2287.0,1959.0,2488.0,,,,-0.229278610155474,-2.73927761956928,-0.627675388973051,,-4.854114296590738,,
,5473.0,737.0,4886.0,685.0,2325.0,1960.0,2487.0,,,,-0.229118717578693,-2.73944409640628,-0.627111487152145,,-4.873963242641345,,
,5480.0,737.0,4891.0,686.0,2286.0,1962.0,2477.0,,,,-0.228882268210051,-2.73939415795447,-0.626206272286715,,-4.8714222051315605,,
,5483.0,741.0,4897.0,689.0,2289.0,1959.0,2480.0,,,,-0.229297784169115,-2.73939697048471,-0.627446497424225,,-4.84578368950892,,
,5486.0,737.0,4898.0,687.0,2281.0,1965.0,2489.0,,,,-0.229151102159653,-2.7393586184369,-0.628356692720303,,-4.797830979072015,,
,5491.0,738.0,4903.0,687.0,2301.0,1966.0,2496.0,,,,-0.229265355485314,-2.73932099231717,-0.627963847381841,,-4.729843279894139,,
,5495.0,737.0,4902.0,688.0,2313.0,1962.0,2505.0,,,,-0.229370656526876,-2.73947498875494,-0.627172317987965,,-4.645384990870563,,
,5501.0,740.0,4908.0,690.0,2330.0,1950.0,2495.0,,,,-0.229519468338069,-2.7393591532119,-0.628075430803631,,-4.548889936054465,,
,5504.0,741.0,4911.0,691.0,2314.0,1963.0,2474.0,,,,-0.229491466792858,-2.7394604831955,-0.628111109604209,,-4.445085330015246,,
,5510.0,743.0,4914.0,694.0,2313.0,1965.0,2477.0,,,,-0.229323801783843,-2.73943953122986,-0.628004922630391,,-4.338327841498137,,
,5513.0,739.0,4916.0,689.0,2314.0,1963.0,2460.0,,,,-0.229322841381979,-2.73948744209337,-0.628166119554269,,-4.231938555500044,,
,5519.0,741.0,4921.0,693.0,2289.0,1965.0,2491.0,,,,-0.2293458104576,-2.73952200602889,-0.627373346705549,,-4.1276220573770726,,
,5520.0,744.0,4922.0,694.0,2309.0,1962.0,2497.0,,,,-0.229658813235279,-2.73932078868951,-0.628408286668275,,-4.025039435391575,,
,5526.0,743.0,4926.0,693.0,2300.0,1966.0,2503.0,,,,-0.229666021400683,-2.73922894003365,-0.627852834038399,,-3.9215813486893425,,
,5528.0,741.0,4929.0,692.0,2299.0,1974.0,2508.0,,,,-0.229603906951937,-2.73920213510139,-0.626523017103519,,-3.812361680723192,,
,5531.0,739.0,4931.0,693.0,2301.0,1956.0,2498.0,,,,-0.229508520506551,-2.73940145259623,-0.62606583384588,,-3.690429252977119,,
,5536.0,743.0,4936.0,695.0,2304.0,1956.0,2502.0,,,,-0.229641697090569,-2.7394032025486,-0.627684351985569,,-3.5471766900951134,,
,5537.0,746.0,4937.0,697.0,2310.0,1958.0,2507.0,,,,-0.229538335595864,-2.73929542613079,-0.626463874940428,,-3.3729119569655737,,
,5545.0,745.0,4940.0,697.0,2308.0,1962.0,2475.0,,,,-0.229277983218817,-2.73953383170657,-0.626645985554164,,-3.157548658324647,,
,5548.0,744.0,4942.0,697.0,2309.0,1958.0,2476.0,,,,-0.229363801230905,-2.73937894428862,-0.627112607935183,,-2.8913651718168416,,
,5552.0,748.0,4947.0,699.0,2292.0,1956.0,2476.0,,,,-0.229321185091722,-2.73963600788146,-0.62683818063893,,-2.5657794562573404,,
,5554.0,751.0,4950.0,700.0,2307.0,1960.0,2502.0,,,,-0.229440114630275,-2.73972780570081,-0.627937150896565,,-2.1740855263928256,,
,5560.0,748.0,4953.0,700.0,2309.0,1952.0,2483.0,,,,-0.229661338888856,-2.73959919091024,-0.627209578494037,,-1.7120992881689066,,
,5560.0,747.0,4953.0,698.0,2319.0,1954.0,2463.0,,,,-0.22932550692839,-2.73949053324667,-0.626327588698036,,-1.1786665889459416,,
,5568.0,749.0,4958.0,702.0,2317.0,1952.0,2482.0,,,,-0.229254550260312,-2.73935069098539,-0.626242297289807,,-0.5759958868909704,,
,5568.0,749.0,4963.0,701.0,2310.0,1957.0,2479.0,,,,-0.229276500925878,-2.73933650198372,-0.625965830808446,,0.09020830756795442,,
,5573.0,750.0,4963.0,702.0,2321.0,1955.0,2487.0,,,,-0.229002493586513,-2.73930927880769,-0.62655606378779,,0.8108188561918721,,
,5576.0,748.0,4962.0,702.0,2300.0,1961.0,2498.0,,,,-0.228955896078531,-2.73917595906838,-0.62628892972033,,1.573557774692343,,
,5579.0,752.0,4969.0,702.0,2281.0,1958.0,2504.0,,,,-0.228681561487908,-2.73904174660323,-0.624922583105998,,2.363443991076763,,
,5584.0,752.0,4968.0,706.0,2293.0,1964.0,2486.0,,,,-0.228708577819883,-2.73896225606278,-0.625284443355049,,3.163384544151851,,
,5586.0,750.0,4974.0,706.0,2291.0,1964.0,2492.0,,,,-0.229019246300729,-2.73901345000411,-0.625507396872419,,3.9548710036931136,,
,5588.0,754.0,4976.0,704.0,2304.0,1968.0,2488.0,,,,-0.228985795826761,-2.73929051229946,-0.626191933649877,,4.718741712861203,,
,5594.0,753.0,4978.0,706.0,2314.0,1958.0,2493.0,,,,-0.229150947394957,-2.73941509133464,-0.627294103270209,,5.435972776234105,,
,5598.0,755.0,4985.0,708.0,2298.0,1970.0,2494.0,,,,-0.228990609976079,-2.73934268473233,-0.624920407200075,,6.088464570610049,,
,5601.0,753.0,4986.0,709.0,2302.0,1968.0,2485.0,,,,-0.228779979478097,-2.73883271886482,-0.625271648528894,,6.6597937942550525,,
,5604.0,754.0,4988.0,708.0,2303.0,1967.0,2487.0,,,,-0.228592765889059,-2.73869971996152,-0.624581404749065,,7.135902436606803,,
,5605.0,754.0,4989.0,705.0,2322.0,1978.0,2497.0,,,,-0.228596045017457,-2.73845729165009,-0.624628869779142,,7.505694646850749,,
,5606.0,753.0,4988.0,709.0,2308.0,1972.0,2508.0,,,,-0.228512023386007,-2.73831108473561,-0.624676161026097,,7.761511444436159,,
,5604.0,755.0,4984.0,708.0,2311.0,1970.0,2507.0,,,,-0.228372746843489,-2.73824586756936,-0.623084827586376,,7.899453134444875,,
,5593.0,754.0,4972.0,707.0,2295.0,1966.0,2504.0,,,,-0.228240892608261,-2.73800474750285,-0.622311634919034,,7.9195218168136226,,
,5581.0,750.0,4958.0,702.0,2281.0,1963.0,2505.0,,,,-0.228146872679776,-2.73782447914457,-0.622284172180323,,7.825562932512353,,
,5568.0,749.0,4941.0,704.0,2269.0,1956.0,2506.0,,,,-0.228060902111039,-2.73813897714932,-0.621530246712402,,7.624996096469551,,
,5549.0,746.0,4922.0,698.0,2257.0,1956.0,2499.0,,,,-0.228111010994309,-2.73776139651813,-0.621597476693131,,7.328341170627575,,
,5531.0,745.0,4901.0,698.0,2251.0,1959.0,2503.0,,,,-0.228169970407766,-2.73790919021841,-0.621932663976874,,6.94856429762374,,
,5512.0,744.0,4882.0,694.0,2265.0,1971.0,2487.0,,,,-0.227946446539231,-2.73778664586272,-0.621504786446122,,6.500288369022672,,
,5494.0,740.0,4862.0,691.0,2290.0,1967.0,2492.0,,,,-0.227751369788076,-2.73750445948865,-0.620378066721298,,5.9989301734125995,,
,5473.0,741.0,4848.0,690.0,2290.0,1953.0,2489.0,,,,-0.227592873015345,-2.73778292438166,-0.621017535390874,,5.459838450309848,,
,5456.0,740.0,4832.0,686.0,2292.0,1962.0,2499.0,,,,-0.227416986561556,-2.73711093600642,-0.619751419049289,,4.897509725962693,,
,5438.0,736.0,4818.0,683.0,2285.0,1970.0,2500.0,,,,-0.227198302488004,-2.73717908808402,-0.619843681128527,,4.324950454282979,,
,5421.0,732.0,4804.0,682.0,2295.0,1969.0,2492.0,,,,-0.226947027002139,-2.73722951974497,-0.619277768350542,,3.753235521804117,,
,5406.0,735.0,4795.0,681.0,2301.0,1964.0,2470.0,,,,-0.226853832961416,-2.73688105455901,-0.619513038028335,,3.191287593437084,,
,5398.0,731.0,4788.0,682.0,2289.0,1970.0,2471.0,,,,-0.226514420217107,-2.73693393826459,-0.617979677424993,,2.6458734211914994,,
,5383.0,730.0,4783.0,681.0,2292.0,1967.0,2483.0,,,,-0.226785054624324,-2.73680051073397,-0.61952221208618,,2.1217871041745817,,
,5374.0,728.0,4776.0,676.0,2301.0,1960.0,2486.0,,,,-0.226877445846398,-2.73687019876205,-0.619313070955569,,1.6221708559208547,,
,5368.0,729.0,4770.0,676.0,2303.0,1963.0,2486.0,,,,-0.226749582249439,-2.73703281204639,-0.618795106697305,,1.148913590281496,,
,5361.0,727.0,4768.0,678.0,2302.0,1969.0,2505.0,,,,-0.226805311253431,-2.7371022744997,-0.619329043882436,,0.7030664865014808,,
,5357.0,728.0,4769.0,674.0,2292.0,1974.0,2505.0,,,,-0.226851258137281,-2.73694879441574,-0.619340183690772,,0.28522089981334575,,
,5353.0,726.0,4767.0,676.0,2288.0,1961.0,2506.0,,,,-0.226895701433278,-2.73693262140538,-0.618834780258237,,-0.10419439408922943,,
,5351.0,725.0,4768.0,672.0,2286.0,1963.0,2502.0,,,,-0.226776531932483,-2.73690741568202,-0.618986824300857,,-0.4647240962291692,,
,5349.0,727.0,4769.0,674.0,2278.0,1961.0,2497.0,,,,-0.226694632443633,-2.73683481571872,-0.61891999813012,,-0.795814928159897,,
,5349.0,727.0,4769.0,674.0,2281.0,1960.0,2493.0,,,,-0.226708957177036,-2.73698890795298,-0.619053620052307,,-1.0968531587985213,,
,5350.0,726.0,4773.0,673.0,2290.0,1962.0,2490.0,,,,-0.226754507488198,-2.73677574821191,-0.617508234177976,,-1.3672871627937913,,
,5348.0,724.0,4772.0,671.0,2309.0,1966.0,2486.0,,,,-0.226637889798048,-2.73690812393921,-0.61772440828406,,-1.6068014603745888,,
,5353.0,728.0,4777.0,673.0,2310.0,1960.0,2503.0,,,,-0.226486709666567,-2.73669505945809,-0.61866182395249,,-1.815505910265593,,
,5352.0,728.0,4781.0,675.0,2300.0,1960.0,2500.0,,,,-0.226634202956212,-2.73690849703727,-0.617542701125562,,-1.994106885277137,,
,5354.0,726.0,4782.0,675.0,2290.0,1964.0,2491.0,,,,-0.226990157204777,-2.73708944389807,-0.619483024981773,,-2.1440343012818888,,
,5357.0,727.0,4788.0,673.0,2279.0,1979.0,2498.0,,,,-0.227204641310347,-2.73713985865364,-0.619558195050975,,-2.267507141600699,,
2025-06-30 19:02:32,5359.0,724.0,4787.0,672.0,2298.0,1961.0,2506.0,,,2025/06/30 07:02:32 PM,-0.227220431572771,-2.73710208808279,-0.619388689613601,,-2.3675289700814326,,
,5362.0,728.0,4792.0,675.0,2296.0,1958.0,2494.0,,,,-0.227195832599302,-2.73734758684906,-0.620141592739065,,-2.4478127982360447,,
,5365.0,729.0,4797.0,675.0,2294.0,1963.0,2501.0,,,,-0.227592354604163,-2.73745305878206,-0.61880569544571,,-2.512640947921605,,
,5369.0,728.0,4799.0,674.0,2293.0,1976.0,2499.0,,,,-0.22760574062571,-2.73732783393341,-0.619937869825457,,-2.566669999574793,,
,5369.0,727.0,4801.0,674.0,2284.0,1962.0,2506.0,,,,-0.22759539447154,-2.73748851988226,-0.621179633526578,,-2.614693775062942,,
,5371.0,729.0,4810.0,675.0,2305.0,1952.0,2513.0,,,,-0.227731614332343,-2.7378889588246,-0.619032012853375,,-2.6613792331259343,,
,5378.0,730.0,4811.0,674.0,2309.0,1961.0,2503.0,,,,-0.227751048297243,-2.73782536411855,-0.620673676885986,,-2.710991909737803,,
,5383.0,727.0,4816.0,676.0,2302.0,1970.0,2503.0,,,,-0.227936154931459,-2.73796684908253,-0.621066489151284,,-2.767129535792466,,
,5386.0,728.0,4817.0,675.0,2309.0,1962.0,2494.0,,,,-0.228072129668808,-2.73789436766527,-0.621954515532367,,-2.83248443930676,,
,5387.0,730.0,4821.0,675.0,2291.0,1958.0,2495.0,,,,-0.228094333693352,-2.73815366618993,-0.621766624092166,,-2.908656172755862,,
,5389.0,729.0,4824.0,677.0,2303.0,1959.0,2488.0,,,,-0.228120150540298,-2.73824538026476,-0.620353455307867,,-2.9960338167327447,,
,5393.0,729.0,4827.0,676.0,2306.0,1960.0,2498.0,,,,-0.228316869545076,-2.73859073867667,-0.621725105458641,,-3.093761224352906,,
,5393.0,728.0,4826.0,678.0,2295.0,1966.0,2504.0,,,,-0.2281990771746,-2.73826599332684,-0.621826455834492,,-3.199788190360616,,
,5397.0,731.0,4830.0,679.0,2312.0,1957.0,2505.0,,,,-0.228609096651408,-2.73834174543109,-0.622345212267224,,-3.3109983691409184,,
,5395.0,730.0,4830.0,676.0,2299.0,1960.0,2497.0,,,,-0.228662235895286,-2.73824885849224,-0.621055554895286,,-3.4233942960993082,,
,5397.0,730.0,4829.0,675.0,2294.0,1962.0,2491.0,,,,-0.228291660297063,-2.73827136544065,-0.621423908737625,,-3.532314113942142,,
,5397.0,729.0,4832.0,679.0,2284.0,1965.0,2503.0,,,,-0.228181174469543,-2.73838087994893,-0.6225377356028,,-3.632654566567474,,
,5394.0,728.0,4830.0,675.0,2277.0,1969.0,2499.0,,,,-0.228130702532396,-2.73812469260608,-0.622111904834023,,-3.719079509456061,,
,5395.0,729.0,4828.0,677.0,2288.0,1960.0,2496.0,,,,-0.228278967084159,-2.73813686366959,-0.62198645261674,,-3.7862006297506783,,
,5397.0,728.0,4832.0,679.0,2293.0,1966.0,2507.0,,,,-0.228464392548856,-2.73852715867228,-0.621499622525389,,-3.8287252073393607,,
,5397.0,730.0,4828.0,678.0,2293.0,1969.0,2498.0,,,,-0.228376172966109,-2.73855904791046,-0.622818935656669,,-3.8415728530154403,,
,5394.0,727.0,4829.0,675.0,2288.0,1964.0,2497.0,,,,-0.228564490761353,-2.73860367057518,-0.622101231086369,,-3.8199680377851966,,
,5391.0,730.0,4829.0,676.0,2296.0,1955.0,2479.0,,,,-0.22858442060522,-2.73856451681858,-0.621374539198713,,-3.7595173491007166,,
,5393.0,730.0,4830.0,677.0,2311.0,1961.0,2507.0,,,,-0.228713384301037,-2.73854634967787,-0.621084794018708,,-3.656279986417081,,
,5394.0,730.0,4831.0,677.0,2282.0,1965.0,2506.0,,,,-0.228543898640751,-2.73865276477149,-0.621609452229227,,-3.5068378923253802,,
,5395.0,728.0,4829.0,678.0,2264.0,1966.0,2509.0,,,,-0.22884751184595,-2.73876799103858,-0.62283217871878,,-3.3083692520695176,,
,5396.0,730.0,4829.0,677.0,2294.0,1965.0,2511.0,,,,-0.228782510864499,-2.73893645744813,-0.621981904923141,,-3.058726888200434,,
,5397.0,729.0,4831.0,680.0,2303.0,1962.0,2497.0,,,,-0.229009117517535,-2.73917136849259,-0.621834748856113,,-2.7565219033343293,,
,5396.0,729.0,4830.0,678.0,2294.0,1960.0,2496.0,,,,-0.22924219422027,-2.73907417933605,-0.622833023688141,,-2.4012128292469144,,
,5398.0,731.0,4833.0,676.0,2270.0,1951.0,2500.0,,,,-0.229456986810994,-2.73930508670646,-0.623525075828794,,-1.993201045074323,,
,5399.0,729.0,4836.0,675.0,2273.0,1954.0,2500.0,,,,-0.229633858130202,-2.739607700741,-0.623136204158809,,-1.5339334482130962,,
,5401.0,731.0,4839.0,678.0,2277.0,1955.0,2494.0,,,,-0.23007467333092,-2.73993365306806,-0.624559904771384,,-1.026012411463033,,
,5403.0,732.0,4842.0,680.0,2300.0,1961.0,2478.0,,,,-0.23038445246003,-2.74029832915482,-0.625726356651904,,-0.4733106034594769,,
,5406.0,732.0,4846.0,679.0,2295.0,1958.0,2483.0,,,,-0.231538987822837,-2.74066311277987,-0.626678701343927,,0.1189153431208609,,
,5409.0,732.0,4846.0,677.0,2283.0,1949.0,2512.0,,,,-0.232129437423,-2.74144878063433,-0.628928096133074,,0.7439224900365313,,
,5413.0,729.0,4852.0,679.0,2278.0,1959.0,2502.0,,,,-0.232814808116194,-2.74230918342986,-0.631688298382425,,1.3934052186980215,,
,5415.0,733.0,4854.0,680.0,2298.0,1958.0,2501.0,,,,-0.233134221036773,-2.74264534809874,-0.632842787642607,,2.0574640677777882,,
,5418.0,733.0,4857.0,681.0,2290.0,1956.0,2497.0,,,,-0.2332107913477,-2.74273904060525,-0.632851004965172,,2.724643076699055,,
,5420.0,733.0,4860.0,679.0,2288.0,1960.0,2482.0,,,,-0.233136085140857,-2.7426856942009,-0.633083890671349,,3.382061013840653,,
,5424.0,730.0,4864.0,679.0,2309.0,1961.0,2504.0,,,,-0.233280941247652,-2.7427661599688,-0.63248533161232,,4.015660355872936,,
,5429.0,734.0,4869.0,682.0,2314.0,1968.0,2488.0,,,,-0.233025963957346,-2.74280498175862,-0.634496914277428,,4.6105915592091105,,
,5435.0,735.0,4872.0,683.0,2286.0,1959.0,2504.0,,,,-0.233003475011947,-2.7427609167638,-0.6335660427203,,5.151738626181179,,
,5437.0,734.0,4876.0,685.0,2285.0,1959.0,2504.0,,,,-0.232794090442402,-2.74250442179095,-0.632731656146592,,5.624375730579651,,
,5437.0,733.0,4879.0,682.0,2288.0,1962.0,2517.0,,,,-0.232541928875155,-2.74230905975611,-0.633747144418945,,6.0149251427742945,,
,5447.0,736.0,4882.0,685.0,2271.0,1968.0,2511.0,,,,-0.23215235050737,-2.74212983966251,-0.633110330602368,,6.311766189577938,,
,5451.0,738.0,4888.0,686.0,2273.0,1959.0,2512.0,,,,-0.231673997978883,-2.74196156437564,-0.631973032232773,,6.506026627486207,,
,5452.0,735.0,4892.0,685.0,2286.0,1957.0,2510.0,,,,-0.231392587984937,-2.74127559890974,-0.630575209892647,,6.5922752961719855,,
,5457.0,736.0,4893.0,684.0,2289.0,1957.0,2501.0,,,,-0.230887944113007,-2.74114804944102,-0.629645674968763,,6.569031994238868,,
,5460.0,739.0,4898.0,689.0,2298.0,1956.0,2501.0,,,,-0.230836023220597,-2.74062866698394,-0.627841094353291,,6.439020103152832,,
,5466.0,738.0,4903.0,690.0,2316.0,1953.0,2483.0,,,,-0.230437981087717,-2.74045658463831,-0.62772641264309,,6.209110475450624,,
,5470.0,741.0,4906.0,689.0,2307.0,1957.0,2496.0,,,,-0.230115447614941,-2.74049832799212,-0.627053154885959,,5.889939266996664,,
,5474.0,739.0,4910.0,688.0,2296.0,1961.0,2500.0,,,,-0.229864102803549,-2.74015415208549,-0.626309598535394,,5.495222283547814,,
,5479.0,739.0,4913.0,688.0,2294.0,1960.0,2517.0,,,,-0.229900377123321,-2.74034628052667,-0.626075531609146,,5.040826866070955,,
,5484.0,742.0,4918.0,689.0,2301.0,1959.0,2508.0,,,,-0.22983841417531,-2.74013769015551,-0.62546921321999,,4.543692746031483,,
,5486.0,742.0,4924.0,691.0,2292.0,1961.0,2498.0,,,,-0.229864905219192,-2.74014968756296,-0.625756757619977,,4.020711126546033,,
,5492.0,742.0,4924.0,691.0,2295.0,1970.0,2496.0,,,,-0.230100505243647,-2.74014079771188,-0.625460542158904,,3.487674364983607,,
,5495.0,740.0,4927.0,692.0,2282.0,1971.0,2515.0,,,,-0.229808639883224,-2.74019009218936,-0.625815572130679,,2.9583971853013344,,
,5500.0,741.0,4932.0,695.0,2268.0,1958.0,2506.0,,,,-0.229727660596758,-2.74015588318176,-0.625505379427013,,2.444086536126619,,
,5505.0,744.0,4935.0,696.0,2262.0,1955.0,2495.0,,,,-0.229760241337364,-2.7402160994704,-0.625054337961479,,1.9530049038870088,,
,5510.0,743.0,4940.0,697.0,2260.0,1952.0,2492.0,,,,-0.229673097928424,-2.73991729122415,-0.625667308758718,,1.4904359357227583,,
,5512.0,745.0,4943.0,694.0,2259.0,1953.0,2501.0,,,,-0.229768540840434,-2.73972707231158,-0.625651459915177,,1.0589266012181489,,
,5517.0,745.0,4946.0,698.0,2278.0,1955.0,2507.0,,,,-0.229538584802688,-2.73946159864352,-0.625782512728681,,0.6587511451749358,,
,5520.0,746.0,4950.0,697.0,2279.0,1955.0,2511.0,,,,-0.229576988539231,-2.73952384509518,-0.624783957141732,,0.28852186005876673,,
,5525.0,746.0,4950.0,699.0,2284.0,1954.0,2502.0,,,,-0.229612222443113,-2.73937564226525,-0.62379695966512,,-0.05413814394459313,,
,5529.0,745.0,4953.0,697.0,2287.0,1952.0,2490.0,,,,-0.229330191062575,-2.73919280484792,-0.623177918375848,,-0.37194431027845876,,
,5532.0,745.0,4955.0,698.0,2280.0,1957.0,2486.0,,,,-0.229397736512181,-2.73923443543029,-0.62417266497347,,-0.6673960647784751,,
,5536.0,747.0,4960.0,700.0,2287.0,1958.0,2493.0,,,,-0.22926220963652,-2.73928770953742,-0.623421077053526,,-0.9423741754757934,,
,5541.0,748.0,4963.0,702.0,2291.0,1961.0,2500.0,,,,-0.228953438080749,-2.73917372968594,-0.623758904983241,,-1.1979222553313513,,
,5547.0,750.0,4966.0,702.0,2294.0,1965.0,2500.0,,,,-0.229024400725294,-2.73899023254014,-0.622592061729629,,-1.4342181472602122,,
,5552.0,750.0,4969.0,702.0,2294.0,1956.0,2488.0,,,,-0.228953495083209,-2.73886047306576,-0.622008425420904,,-1.6507152876597446,,
,5555.0,752.0,4975.0,703.0,2286.0,1959.0,2486.0,,,,-0.228842446954665,-2.73873335426185,-0.622473973301389,,-1.8464133738911976,,
,5559.0,749.0,4977.0,708.0,2286.0,1955.0,2499.0,,,,-0.228631581944858,-2.73841606805603,-0.621442329861119,,-2.0202048775295163,,
,5561.0,751.0,4978.0,705.0,2301.0,1953.0,2499.0,,,,-0.228633199377512,-2.7384003300549,-0.621736998406648,,-2.1712401303117135,,
,5564.0,750.0,4980.0,705.0,2293.0,1952.0,2502.0,,,,-0.228282367415266,-2.7383598915419,-0.621441345443783,,-2.2992577815982713,,
,5570.0,751.0,4983.0,705.0,2298.0,1958.0,2507.0,,,,-0.228342621235185,-2.73799373773879,-0.620651305649767,,-2.4048372789411707,,
,5575.0,753.0,4988.0,706.0,2305.0,1956.0,2507.0,,,,-0.22829603022938,-2.73815981358714,-0.62104291668698,,-2.489543419879717,,
,5578.0,755.0,4989.0,709.0,2290.0,1958.0,2508.0,,,,-0.22818360616154,-2.73786661215503,-0.619914052644166,,-2.555947934434741,,
,5583.0,755.0,4991.0,709.0,2269.0,1950.0,2497.0,,,,-0.227999526685472,-2.73794704218616,-0.621732307537423,,-2.6075277528089917,,
,5586.0,754.0,4997.0,709.0,2298.0,1968.0,2515.0,,,,-0.22817053441858,-2.73769811595135,-0.620489560869669,,-2.648452737589399,,
,5588.0,756.0,4998.0,712.0,2305.0,1972.0,2510.0,,,,-0.22784343727982,-2.7376584682691,-0.619234448125452,,-2.683286319296987,,
,5594.0,758.0,5003.0,710.0,2286.0,1963.0,2502.0,,,,-0.22782077879173,-2.73752234312656,-0.620445883249215,,-2.7166302355517224,,
,5599.0,757.0,5003.0,711.0,2293.0,1965.0,2505.0,,,,-0.227730604054597,-2.7373598222913,-0.619330611330296,,-2.752749315787675,,
,5602.0,757.0,5007.0,708.0,2289.0,1958.0,2502.0,,,,-0.227447764955134,-2.73719160375094,-0.618931035248077,,-2.7952139537306904,,
,5607.0,757.0,5011.0,712.0,2284.0,1960.0,2495.0,,,,-0.227200109054472,-2.7371800805069,-0.617401642567321,,-2.8465965688516857,,
,5610.0,760.0,5014.0,714.0,2292.0,1961.0,2505.0,,,,-0.226932894336447,-2.73687113290034,-0.618344489609995,,-2.908254054644232,,
,5615.0,760.0,5018.0,715.0,2283.0,1959.0,2509.0,,,,-0.226921753207455,-2.73697187044869,-0.61771106288127,,-2.98022112431315,,
,5617.0,758.0,5019.0,715.0,2301.0,1960.0,2519.0,,,,-0.226855321109594,-2.73666325335406,-0.617076040153097,,-3.0612298046962314,,
,5620.0,761.0,5022.0,713.0,2294.0,1963.0,2505.0,,,,-0.226722971536968,-2.73650226916114,-0.617344176909326,,-3.148858320875519,,
,5625.0,761.0,5026.0,715.0,2302.0,1957.0,2502.0,,,,-0.226465196710461,-2.73640560578975,-0.615895339415482,,-3.23979866982068,,
,5630.0,762.0,5028.0,718.0,2301.0,1965.0,2500.0,,,,-0.226089869472957,-2.73620078271485,-0.616495712974284,,-3.330217332098392,,
,5635.0,764.0,5030.0,719.0,2305.0,1957.0,2536.0,,,,-0.226184510627757,-2.73617792557565,-0.615947841294648,,-3.416169920574696,,
,5637.0,763.0,5031.0,717.0,2290.0,1969.0,2519.0,,,,-0.226305576393441,-2.73608497706986,-0.615867749630182,,-3.4940211390136215,,
,5638.0,762.0,5029.0,717.0,2308.0,1958.0,2513.0,,,,-0.226167496094192,-2.73615036385115,-0.614655010923998,,-3.5608189929205816,,
,5636.0,762.0,5026.0,717.0,2307.0,1962.0,2523.0,,,,-0.226163733149021,-2.73602804718437,-0.614994471747738,,-3.6145777725614017,,
,5627.0,760.0,5017.0,720.0,2315.0,1961.0,2523.0,,,,-0.22594960961221,-2.73581940698881,-0.61501268215478,,-3.6544366012044316,,
,5615.0,758.0,4999.0,713.0,2294.0,1954.0,2514.0,,,,-0.225822266143291,-2.73571143213397,-0.613695448124102,,-3.680676443673237,,
,5597.0,755.0,4979.0,712.0,2290.0,1952.0,2511.0,,,,-0.225631561738329,-2.73578788415814,-0.613231206840612,,-3.694595317911729,,
,5579.0,753.0,4957.0,707.0,2300.0,1957.0,2497.0,,,,-0.22542625906726,-2.7352229429416,-0.612697419378435,,-3.6982567098022066,,
,5561.0,753.0,4934.0,709.0,2306.0,1960.0,2499.0,,,,-0.225431717392716,-2.73545295174409,-0.612154282397936,,-3.6941385322116744,,
,5544.0,752.0,4910.0,703.0,2296.0,1976.0,2496.0,,,,-0.22516257575737,-2.7354689098017,-0.612435154584161,,-3.6847188369614705,,
,5521.0,747.0,4894.0,700.0,2272.0,1968.0,2501.0,,,,-0.225602404611394,-2.73534282368793,-0.61230070513702,,-3.6720397277500845,,
,5502.0,747.0,4876.0,699.0,2278.0,1968.0,2498.0,,,,-0.225464186729171,-2.7353451506185,-0.612300638426195,,-3.6572925574992334,,
,5484.0,745.0,4858.0,695.0,2269.0,1964.0,2495.0,,,,-0.225504198163125,-2.7351091902392,-0.612377137355355,,-3.6404657006190724,,
,5464.0,742.0,4841.0,692.0,2274.0,1964.0,2500.0,,,,-0.225432161749589,-2.73533666867082,-0.612729478459311,,-3.620091309534266,,
,5444.0,742.0,4825.0,688.0,2276.0,1959.0,2505.0,,,,-0.225281077118244,-2.7352274886109,-0.612239981072511,,-3.5931199382175083,,
,5429.0,741.0,4814.0,691.0,2264.0,1957.0,2512.0,,,,-0.225411912001532,-2.73530910589238,-0.612225965070602,,-3.5549421807348307,,
,5418.0,739.0,4805.0,685.0,2254.0,1956.0,2501.0,,,,-0.225498440354027,-2.73520670755954,-0.611327726764357,,-3.4995649000806033,,
,5403.0,739.0,4796.0,685.0,2264.0,1962.0,2494.0,,,,-0.225206103269007,-2.73500272628771,-0.612363210913309,,-3.4199365456205872,,
,5389.0,735.0,4788.0,682.0,2280.0,1983.0,2492.0,,,,-0.224917671100439,-2.73487056750306,-0.611666786517593,,-3.3084019045592528,,
,5384.0,734.0,4783.0,680.0,2278.0,1975.0,2483.0,,,,-0.225218224168687,-2.73494030598291,-0.611523597679503,,-3.157252171484496,,
,5377.0,733.0,4781.0,681.0,2282.0,1974.0,2496.0,,,,-0.224907447718385,-2.73474292766359,-0.610571951149494,,-2.959322898591081,,
,5369.0,734.0,4778.0,680.0,2284.0,1986.0,2505.0,,,,-0.224992948142575,-2.73492320100086,-0.610883730695863,,-2.708582636745587,,
,5365.0,733.0,4772.0,680.0,2280.0,1970.0,2494.0,,,,-0.225273407892319,-2.73469032324175,-0.611319336754172,,-2.400652153987176,,
,5363.0,730.0,4773.0,681.0,2311.0,1968.0,2496.0,,,,-0.225014051829142,-2.73501389411787,-0.612257132744966,,-2.033200933732843,,
,5362.0,730.0,4774.0,680.0,2312.0,1980.0,2504.0,,,,-0.225292382213114,-2.73505357290595,-0.612252699002772,,-1.6061847306804011,,
,5358.0,729.0,4773.0,679.0,2297.0,1973.0,2501.0,,,,-0.225360551366986,-2.73538478844654,-0.612507270887413,,-1.121912094786311,,
,5356.0,728.0,4774.0,678.0,2319.0,1972.0,2495.0,,,,-0.225433762409838,-2.73512964387224,-0.613508068674206,,-0.5849528981646901,,
,5355.0,729.0,4776.0,677.0,2284.0,1969.0,2502.0,,,,-0.225887087477521,-2.73536401831928,-0.61362358250051,,-0.0019217112004787735,,
,5358.0,729.0,4779.0,679.0,2305.0,1965.0,2512.0,,,,-0.225868037924501,-2.73565454375068,-0.612859829040341,,0.6188206338378048,,
,5358.0,729.0,4781.0,680.0,2291.0,1971.0,2511.0,,,,-0.226104673892106,-2.73577587920636,-0.614720070171232,,1.2675034778688623,,
,5356.0,729.0,4780.0,677.0,2289.0,1965.0,2509.0,,,,-0.226129939619296,-2.73571544916113,-0.614230456659699,,1.9332845582522078,,
,5358.0,725.0,4783.0,677.0,2319.0,1958.0,2505.0,,,,-0.226058344703039,-2.73570591065882,-0.613717058370285,,2.6045663512891957,,
,5361.0,728.0,4786.0,677.0,2292.0,1956.0,2492.0,,,,-0.226125385211814,-2.73584184190751,-0.613959324346056,,3.269281108919888,,
,5360.0,725.0,4788.0,677.0,2281.0,1960.0,2491.0,,,,-0.2262608577054,-2.73576660726849,-0.614135028028663,,3.9151482324958007,,
,5362.0,728.0,4789.0,677.0,2280.0,1960.0,2483.0,,,,-0.22616542557925,-2.73592431607962,-0.613155410674889,,4.529917192830586,,
,5362.0,725.0,4791.0,676.0,2300.0,1950.0,2492.0,,,,-0.226303375299702,-2.73588270879079,-0.61373448496743,,5.101613782921626,,
,5364.0,727.0,4794.0,675.0,2306.0,1951.0,2491.0,,,,-0.226628280912406,-2.73619213383228,-0.614425675780955,,5.618806650753112,,
,5369.0,728.0,4798.0,677.0,2296.0,1958.0,2500.0,,,,-0.226768965923635,-2.73642609728827,-0.615462779411294,,6.070905360144648,,
2025-06-30 19:02:33,5371.0,724.0,4798.0,677.0,2298.0,1956.0,2499.0,,,2025/06/30 07:02:33 PM,-0.227107877891024,-2.73676898863955,-0.615077094131769,,6.448491965781125,,
,5373.0,727.0,4801.0,678.0,2260.0,1957.0,2490.0,,,,-0.227451154542759,-2.73692791852491,-0.615882667382272,,6.743677091719645,,
,5376.0,726.0,4804.0,678.0,2292.0,1963.0,2497.0,,,,-0.227654479126014,-2.73708890849341,-0.618097455608767,,6.950460774478489,,
,5376.0,726.0,4805.0,679.0,2302.0,1963.0,2490.0,,,,-0.227956488274174,-2.73737171123048,-0.618213005817628,,7.06506943817137,,
,5382.0,729.0,4811.0,679.0,2298.0,1950.0,2495.0,,,,-0.227958913067897,-2.73755107807223,-0.618745826667195,,7.086234089723537,,
,5383.0,729.0,4813.0,679.0,2301.0,1948.0,2492.0,,,,-0.228220804141258,-2.73769127936726,-0.618742809735621,,7.015371732500594,,
,5381.0,724.0,4813.0,678.0,2293.0,1957.0,2490.0,,,,-0.228321445536872,-2.73802010121731,-0.618273786642396,,6.856633487377828,,
,5385.0,728.0,4815.0,678.0,2299.0,1963.0,2499.0,,,,-0.228435399578471,-2.73782729626326,-0.619436827510656,,6.616791135081016,,
,5384.0,729.0,4817.0,680.0,2297.0,1956.0,2494.0,,,,-0.22857845880384,-2.73819676336812,-0.619905738632405,,6.30495002578185,,
,5388.0,728.0,4817.0,682.0,2290.0,1956.0,2495.0,,,,-0.228814193690127,-2.7385560109868,-0.620654864902761,,5.93209904815826,,
,5386.0,728.0,4815.0,680.0,2270.0,1952.0,2510.0,,,,-0.229311543005004,-2.73871011559938,-0.620447446407718,,5.510532925445321,,
,5389.0,730.0,4817.0,679.0,2272.0,1962.0,2513.0,,,,-0.229544602057375,-2.73916320470117,-0.622400685387195,,5.05320221509618,,
,5389.0,729.0,4818.0,681.0,2287.0,1963.0,2501.0,,,,-0.229926144447618,-2.73949924077932,-0.623154539883601,,4.573056808848235,,
,5388.0,730.0,4815.0,679.0,2276.0,1961.0,2508.0,,,,-0.230366313056453,-2.73995783759743,-0.624027109078874,,4.082447315182456,,
,5388.0,728.0,4818.0,678.0,2267.0,1963.0,2496.0,,,,-0.230778347007932,-2.74006357940197,-0.62464312703691,,3.5926365770806457,,
,5387.0,726.0,4815.0,675.0,2282.0,1958.0,2495.0,,,,-0.230996926311472,-2.74027198323193,-0.62652993838757,,3.1134540040307406,,
,5389.0,727.0,4817.0,676.0,2302.0,1960.0,2483.0,,,,-0.231237259598157,-2.7407009819394,-0.626621789016262,,2.653102541392633,,
,5389.0,729.0,4817.0,680.0,2286.0,1955.0,2490.0,,,,-0.231190919435756,-2.74046270397382,-0.626531727561753,,2.2181061497102137,,
,5389.0,730.0,4819.0,679.0,2280.0,1958.0,2495.0,,,,-0.231407214899847,-2.74060074214611,-0.626560706695444,,1.8133682488618654,,
,5387.0,731.0,4817.0,676.0,2289.0,1951.0,2503.0,,,,-0.231408118138064,-2.74086773149512,-0.626871097057255,,1.4423013558265942,,
,5390.0,730.0,4816.0,679.0,2286.0,1969.0,2517.0,,,,-0.231357093132494,-2.7409095350586,-0.625713142974301,,1.106986534807873,,
,5395.0,729.0,4817.0,677.0,2302.0,1967.0,2511.0,,,,-0.231975563249778,-2.74147417678431,-0.627471777553608,,0.8083281746681548,,
,5394.0,729.0,4819.0,680.0,2295.0,1963.0,2511.0,,,,-0.2324445980385,-2.74202601609155,-0.628329414626498,,0.5461829501709058,,
,5393.0,729.0,4819.0,679.0,2282.0,1960.0,2496.0,,,,-0.233024860310007,-2.74254677213908,-0.63049064779847,,0.3194575892062962,,
,5395.0,728.0,4819.0,678.0,2272.0,1954.0,2503.0,,,,-0.23401398417388,-2.74338108514261,-0.633184782748121,,0.12618343324427753,,
,5394.0,730.0,4821.0,678.0,2283.0,1961.0,2505.0,,,,-0.234828350536582,-2.74410468867646,-0.635331323082064,,-0.03641677588120288,,
,5400.0,731.0,4824.0,678.0,2282.0,1959.0,2506.0,,,,-0.2353160154055,-2.7445360204793,-0.636302618244013,,-0.1718535477815676,,
,5402.0,727.0,4825.0,678.0,2299.0,1971.0,2505.0,,,,-0.235723418634887,-2.7451457552278,-0.639862735973709,,-0.2842740296382873,,
,5404.0,731.0,4828.0,678.0,2272.0,1970.0,2492.0,,,,-0.235802651784291,-2.74525902430959,-0.638971774917162,,-0.37833671943588076,,
,5406.0,731.0,4833.0,681.0,2289.0,1957.0,2493.0,,,,-0.236280854271534,-2.74549971444037,-0.640349567723555,,-0.4590550415271834,,
,5411.0,734.0,4835.0,681.0,2274.0,1956.0,2496.0,,,,-0.236179608975486,-2.74584009554602,-0.640976139086538,,-0.5316112446914041,,
,5413.0,731.0,4838.0,679.0,2265.0,1958.0,2487.0,,,,-0.236229905177914,-2.74568939943073,-0.641474576174975,,-0.6011452255497693,,
,5416.0,731.0,4839.0,679.0,2286.0,1955.0,2495.0,,,,-0.23620874481242,-2.74576300523418,-0.641170587442696,,-0.6725257016384774,,
,5419.0,733.0,4844.0,681.0,2284.0,1954.0,2490.0,,,,-0.23617489246048,-2.74610314633863,-0.640671390914323,,-0.7501139196775863,,
,5423.0,731.0,4847.0,683.0,2273.0,1973.0,2498.0,,,,-0.23624633110185,-2.74619476978957,-0.641647486283142,,-0.8375327436894412,,
,5429.0,734.0,4850.0,682.0,2262.0,1972.0,2498.0,,,,-0.236563773935889,-2.7464076736825,-0.642668581446769,,-0.9374562765833706,,
,5429.0,731.0,4852.0,683.0,2259.0,1952.0,2506.0,,,,-0.236535552971306,-2.74640686066922,-0.642895941671333,,-1.0514367930388953,,
,5434.0,732.0,4857.0,683.0,2263.0,1965.0,2505.0,,,,-0.236308797055438,-2.74667358981933,-0.642298776121194,,-1.1797863302600518,,
,5435.0,735.0,4863.0,685.0,2268.0,1964.0,2497.0,,,,-0.236361385981508,-2.74645416817565,-0.640984267770297,,-1.3215293897451883,,
,5440.0,735.0,4865.0,686.0,2273.0,1967.0,2504.0,,,,-0.236464532279726,-2.74638085544795,-0.642948574642618,,-1.474440375014735,,
,5446.0,735.0,4868.0,688.0,2281.0,1966.0,2503.0,,,,-0.236196301227909,-2.74639788771941,-0.641303974422721,,-1.6351740898621427,,
,5450.0,736.0,4873.0,687.0,2302.0,1959.0,2491.0,,,,-0.235886596604578,-2.74634629749003,-0.640350181878147,,-1.7994894797576253,,
,5453.0,735.0,4873.0,685.0,2287.0,1962.0,2498.0,,,,-0.235927485565467,-2.74618470863948,-0.640967163483584,,-1.9625561616553637,,
,5459.0,738.0,4879.0,690.0,2273.0,1951.0,2508.0,,,,-0.235847445246988,-2.74625803151847,-0.640167801561956,,-2.1193217303927714,,
,5465.0,736.0,4882.0,689.0,2277.0,1950.0,2506.0,,,,-0.235771804281704,-2.7460565417859,-0.639279055649389,,-2.2649080412033795,,
,5466.0,736.0,4886.0,687.0,2292.0,1955.0,2500.0,,,,-0.235747203160253,-2.74622338740233,-0.640205661944085,,-2.3949994125268153,,
,5470.0,739.0,4890.0,689.0,2277.0,1960.0,2508.0,,,,-0.235883399587177,-2.74614045582012,-0.640726082008173,,-2.5061864117441672,,
,5477.0,740.0,4894.0,691.0,2267.0,1956.0,2500.0,,,,-0.236061267134814,-2.74608634141333,-0.640390064623132,,-2.596235040052945,,
,5480.0,739.0,4899.0,691.0,2270.0,1964.0,2501.0,,,,-0.235942596971632,-2.74620390725396,-0.640260669326381,,-2.6642607339578257,,
,5483.0,739.0,4900.0,691.0,2281.0,1960.0,2494.0,,,,-0.23624231569436,-2.74633666410746,-0.640145162112137,,-2.710797259124222,,
,5488.0,738.0,4904.0,691.0,2277.0,1945.0,2496.0,,,,-0.236152022029934,-2.74623938975213,-0.640431343314209,,-2.737760308914675,,
,5492.0,742.0,4905.0,691.0,2286.0,1949.0,2506.0,,,,-0.236236910421049,-2.74648227816278,-0.639797778187656,,-2.748313256345631,,
,5495.0,741.0,4910.0,692.0,2290.0,1952.0,2502.0,,,,-0.236144230738506,-2.74648747790832,-0.640905989327236,,-2.746647684565977,,
,5501.0,743.0,4914.0,695.0,2281.0,1950.0,2518.0,,,,-0.236458735837869,-2.74645221340637,-0.641718163813508,,-2.7376943054012615,,
,5502.0,742.0,4918.0,694.0,2286.0,1959.0,2502.0,,,,-0.236388686881633,-2.74659959578263,-0.641423132039401,,-2.726781347816604,,
,5510.0,743.0,4920.0,694.0,2297.0,1961.0,2500.0,,,,-0.236298788799184,-2.74654111849918,-0.641219513437172,,-2.7192583122774314,,
,5512.0,745.0,4926.0,696.0,2272.0,1951.0,2508.0,,,,-0.236141550709671,-2.74672705493445,-0.639768062015709,,-2.7201038769272823,,
,5517.0,748.0,4929.0,697.0,2288.0,1949.0,2516.0,,,,-0.236219535641305,-2.74624585180675,-0.640258277199676,,-2.7335380916378713,,
,5520.0,744.0,4930.0,695.0,2260.0,1965.0,2505.0,,,,-0.236105468840864,-2.74644603732291,-0.639549819024843,,-2.7626607699911325,,
,5524.0,746.0,4932.0,696.0,2262.0,1961.0,2506.0,,,,-0.236182935517373,-2.74644905839911,-0.640601043632234,,-2.809139739285469,,
,5530.0,746.0,4937.0,699.0,2277.0,1961.0,2513.0,,,,-0.235938375904291,-2.74608797130753,-0.640817002268591,,-2.8729735011409594,,
,5534.0,744.0,4940.0,700.0,2278.0,1958.0,2508.0,,,,-0.23580450980712,-2.74653105807756,-0.64022936736958,,-2.95235178561978,,
,5537.0,746.0,4941.0,699.0,2271.0,1954.0,2497.0,,,,-0.235936727748415,-2.74648463494831,-0.639930141847967,,-3.043633349482943,,
,5541.0,747.0,4946.0,704.0,2304.0,1950.0,2508.0,,,,-0.23618550423231,-2.74625840279429,-0.641260435925747,,-3.14145248887416,,
,5544.0,749.0,4950.0,702.0,2271.0,1954.0,2513.0,,,,-0.236512243110935,-2.74628696725352,-0.640918723454303,,-3.238954320403499,,
,5550.0,750.0,4953.0,704.0,2284.0,1954.0,2504.0,,,,-0.236448654195215,-2.7462738804126,-0.64200152561099,,-3.3281454360895855,,
,5555.0,748.0,4954.0,702.0,2290.0,1962.0,2501.0,,,,-0.236762875014638,-2.74640567363923,-0.641303782766537,,-3.4003337469812025,,
,5557.0,749.0,4957.0,701.0,2279.0,1971.0,2501.0,,,,-0.236720798640891,-2.74657705928778,-0.642057875643942,,-3.446622090274981,,
,5560.0,752.0,4963.0,705.0,2293.0,1960.0,2490.0,,,,-0.236816330726679,-2.74656030950152,-0.640995916524912,,-3.4584161432591274,,
,5566.0,751.0,4964.0,704.0,2285.0,1962.0,2504.0,,,,-0.236718459689962,-2.74654582362053,-0.641236975499423,,-3.42790809156669,,
,5567.0,750.0,4968.0,704.0,2278.0,1957.0,2509.0,,,,-0.237011815420857,-2.74693004218769,-0.641870706526392,,-3.3485017922467146,,
,5573.0,750.0,4968.0,705.0,2279.0,1964.0,2509.0,,,,-0.236884657473339,-2.74675873586362,-0.641608861251099,,-3.215151312679071,,
,5575.0,755.0,4975.0,708.0,2280.0,1955.0,2508.0,,,,-0.237002564088402,-2.74682181509509,-0.642073456510385,,-3.0245919795197884,,
,5581.0,755.0,4976.0,710.0,2285.0,1955.0,2516.0,,,,-0.237036422261435,-2.74696757874724,-0.642515312411193,,-2.7754514450760586,,
,5584.0,753.0,4983.0,711.0,2271.0,1956.0,2518.0,,,,-0.236779918449349,-2.74672139559862,-0.642542798415089,,-2.468237953554892,,
,5588.0,754.0,4982.0,707.0,2261.0,1964.0,2497.0,,,,-0.236635680719526,-2.74682596785628,-0.642214949630734,,-2.105213810263788,,
,5591.0,754.0,4983.0,711.0,2276.0,1966.0,2504.0,,,,-0.236528651363085,-2.74648976152126,-0.642033694567972,,-1.690173303437651,,
,5596.0,756.0,4988.0,712.0,2277.0,1967.0,2495.0,,,,-0.236556025065814,-2.74641552297785,-0.641991773923602,,-1.2281546998428363,,
,5600.0,755.0,4991.0,712.0,2269.0,1963.0,2499.0,,,,-0.236385776042704,-2.7462327456391,-0.641947358975133,,-0.7251237289043588,,
,5603.0,756.0,4994.0,713.0,2279.0,1962.0,2497.0,,,,-0.236365559852673,-2.746161652892,-0.641064645278985,,-0.18766950599030022,,
,5607.0,754.0,4994.0,712.0,2284.0,1953.0,2501.0,,,,-0.23610907382757,-2.74618445268259,-0.639868857512136,,0.3772480302245548,,
,5611.0,757.0,5001.0,713.0,2311.0,1957.0,2489.0,,,,-0.235863459937211,-2.74594371163367,-0.640337760484708,,0.9624677001513822,,
,5618.0,759.0,5006.0,716.0,2325.0,1959.0,2502.0,,,,-0.235670009501309,-2.74573944291419,-0.639666590639351,,1.5606950222205593,,
,5617.0,759.0,5009.0,716.0,2313.0,1961.0,2496.0,,,,-0.235934774067176,-2.74583043649528,-0.639356302828022,,2.164466567472923,,
,5621.0,759.0,5009.0,714.0,2291.0,1960.0,2490.0,,,,-0.235643806945402,-2.74552676390192,-0.639388121105578,,2.7660275338817595,,
,5625.0,760.0,5013.0,716.0,2280.0,1955.0,2502.0,,,,-0.235473549715712,-2.74542025209719,-0.639082700858601,,3.3571575798662545,,
,5630.0,761.0,5017.0,717.0,2308.0,1959.0,2501.0,,,,-0.235431740535999,-2.74515845671446,-0.636864567582819,,3.92899446844238,,
,5635.0,761.0,5020.0,720.0,2303.0,1960.0,2506.0,,,,-0.235284802932177,-2.74522985990787,-0.637973749553053,,4.471912404618924,,
,5640.0,761.0,5022.0,719.0,2272.0,1959.0,2502.0,,,,-0.235307706864705,-2.74518388856308,-0.637611638209717,,4.975509656013781,,
,5643.0,762.0,5025.0,720.0,2290.0,1954.0,2496.0,,,,-0.235221040266041,-2.74494768157877,-0.636091810570134,,5.42874794234367,,
,5650.0,763.0,5030.0,723.0,2275.0,1956.0,2498.0,,,,-0.235188249054905,-2.74481884174713,-0.6373146726352,,5.820266200247544,,
,5651.0,765.0,5028.0,721.0,2271.0,1953.0,2488.0,,,,-0.235161334657597,-2.74453423644572,-0.636684606266508,,6.138866785598975,,
,5655.0,766.0,5033.0,722.0,2265.0,1953.0,2503.0,,,,-0.234837407050241,-2.74454611769572,-0.636934667572102,,6.374146155976025,,
,5655.0,766.0,5034.0,722.0,2281.0,1958.0,2501.0,,,,-0.234839122413292,-2.74451335517237,-0.636115630389055,,6.517217653426403,,
,5659.0,766.0,5035.0,723.0,2289.0,1964.0,2510.0,,,,-0.234696674202135,-2.74436885900045,-0.634836577885346,,6.561454348722918,,
,5657.0,766.0,5031.0,724.0,2294.0,1967.0,2504.0,,,,-0.23462388715955,-2.74423614009289,-0.635499649872134,,6.503168274874889,,
,5649.0,761.0,5019.0,720.0,2306.0,1961.0,2510.0,,,,-0.234656763950593,-2.74453449486587,-0.634745542912798,,6.342141555128928,,
,5636.0,761.0,5005.0,719.0,2285.0,1955.0,2507.0,,,,-0.234614845560549,-2.74442594016636,-0.636383749860011,,6.081936264330341,,
,5624.0,758.0,4986.0,716.0,2281.0,1959.0,2496.0,,,,-0.234598433911813,-2.74415329458344,-0.636277098610819,,5.729932523017371,,
,5605.0,761.0,4966.0,715.0,2271.0,1963.0,2506.0,,,,-0.234911125822486,-2.74427146792091,-0.635937873252599,,5.297075173135154,,
,5586.0,756.0,4942.0,711.0,2267.0,1957.0,2498.0,,,,-0.234697964274835,-2.74421174457799,-0.635939152504447,,4.7973433954530735,,
,5569.0,754.0,4920.0,708.0,2261.0,1962.0,2496.0,,,,-0.234530759703777,-2.74429325458612,-0.6354924783441,,4.246988949046675,,
,5544.0,750.0,4896.0,704.0,2262.0,1959.0,2484.0,,,,-0.234626624412203,-2.74446352121778,-0.634787045661428,,3.663612376839649,,
,5527.0,750.0,4880.0,701.0,2247.0,1959.0,2494.0,,,,-0.234548742187091,-2.744430753683,-0.634944227032377,,3.0651599726911707,,
,5508.0,748.0,4861.0,701.0,2234.0,1959.0,2504.0,,,,-0.234754000214568,-2.74422221602551,-0.635822614071252,,2.4689276364654376,,
,5487.0,744.0,4844.0,696.0,2251.0,1952.0,2504.0,,,,-0.234710203054009,-2.74417067621724,-0.635908834407638,,1.8906525342204825,,
,5466.0,742.0,4827.0,692.0,2254.0,1954.0,2491.0,,,,-0.23449089905265,-2.74399638152253,-0.634893056321222,,1.3437612857132697,,
,5451.0,743.0,4818.0,693.0,2261.0,1956.0,2499.0,,,,-0.234476757415651,-2.74399030851372,-0.634536912740792,,0.8388252324002949,,
,5437.0,740.0,4805.0,692.0,2265.0,1963.0,2495.0,,,,-0.234434491933084,-2.74400765323507,-0.634111589990481,,0.38325052475331095,,
,5422.0,738.0,4797.0,689.0,2266.0,1957.0,2498.0,,,,-0.234832118015458,-2.74373008926617,-0.634393979988592,,-0.018794019594768396,,
,5410.0,739.0,4788.0,687.0,2293.0,1949.0,2502.0,,,,-0.234752783926761,-2.74376870285867,-0.634435116373627,,-0.3662312896607915,,
,5402.0,739.0,4787.0,686.0,2280.0,1954.0,2499.0,,,,-0.234726764492977,-2.74399810680547,-0.634892061200657,,-0.6607500172364756,,
,5395.0,739.0,4781.0,686.0,2269.0,1955.0,2499.0,,,,-0.234555711131379,-2.74388717389396,-0.634210726496242,,-0.9063462526713518,,
,5388.0,736.0,4779.0,685.0,2284.0,1956.0,2493.0,,,,-0.234658362376092,-2.74416790406685,-0.634285314789494,,-1.1087823059137676,,
,5385.0,735.0,4774.0,682.0,2298.0,1957.0,2492.0,,,,-0.234640418881629,-2.74374618164911,-0.63484166745761,,-1.2750099345749282,,
,5382.0,736.0,4777.0,682.0,2307.0,1971.0,2503.0,,,,-0.234412034708175,-2.74387519002649,-0.633389719772119,,-1.412597632978031,,
,5377.0,736.0,4775.0,682.0,2297.0,1977.0,2487.0,,,,-0.234437058096467,-2.74370131721271,-0.634110467052034,,-1.5291935034672668,,
,5378.0,735.0,4777.0,681.0,2286.0,1965.0,2512.0,,,,-0.234493890472754,-2.74359140049669,-0.633094345920333,,-1.632046922507089,,
,5377.0,735.0,4779.0,683.0,2302.0,1961.0,2513.0,,,,-0.234354500507506,-2.7436258348728,-0.634335073601323,,-1.7276050265762397,,
,5376.0,733.0,4778.0,682.0,2302.0,1958.0,2503.0,,,,-0.234393227672081,-2.74371781930152,-0.633833141536001,,-1.8211944895354295,,
