TimeLabel,MEAS1_PPG1,MEAS1_PPG2,MEAS1_PPG3,MEAS1_PPG4,ACCX,ACCY,ACCZ,HR_timestamp,HR_value,radar_timestamp,phase_rx0,phase_rx1,phase_rx2,timestep,n_process,original_rate,calculated_rate
2025-08-19 20:51:03,9630.0,1577.0,6434.0,1955.0,144.0,1565.0,3628.0,2025-08-19 20:51:03,89.0,2025/08/19 08:51:03 PM,-1.30292223848999,-2.97415558892004,-1.51113674857709,2025/08/19 08:51:03 PM,-1.020828225016501,19.751279830932617,18.753052503052505
,9626.0,1577.0,6431.0,1956.0,146.0,1570.0,3619.0,2025-08-19 20:51:04,89.0,,-1.30249136954004,-2.97412376316262,-1.51074740932419,2025/08/19 08:51:13 PM,-0.5854998166485671,19.736841201782227,19.399604227190434
,9622.0,1573.0,6426.0,1956.0,149.0,1558.0,3625.0,2025-08-19 20:51:05,88.0,,-1.3025720256895,-2.97431780389603,-1.51122651611096,2025/08/19 08:51:23 PM,-0.13218230958015514,19.06779670715332,19.58333333333333
,9621.0,1576.0,6426.0,1958.0,150.0,1557.0,3627.0,2025-08-19 20:51:06,88.0,,-1.30228175510165,-2.97415350447485,-1.5115214962934,2025/08/19 08:51:33 PM,0.33268861842649317,19.28571510314941,19.69106101931282
,9621.0,1572.0,6422.0,1958.0,138.0,1557.0,3630.0,2025-08-19 20:51:07,88.0,,-1.30163657237617,-2.97424750385505,-1.51092298306222,2025/08/19 08:51:43 PM,0.8029476603780584,19.29949951171875,19.16971916971917
,9616.0,1576.0,6419.0,1959.0,140.0,1553.0,3635.0,2025-08-19 20:51:08,87.0,,-1.30196519408258,-2.97421038909528,-1.51122809475627,2025/08/19 08:51:53 PM,1.2727709079143146,20.013341903686523,20.463871543264947
,9614.0,1572.0,6417.0,1957.0,134.0,1536.0,3636.0,2025-08-19 20:51:09,87.0,,-1.30277611572416,-2.97426813232392,-1.51158115978176,2025/08/19 08:52:03 PM,1.736624087114708,19.751279830932617,18.583965844402268
,9611.0,1572.0,6418.0,1960.0,141.0,1536.0,3637.0,2025-08-19 20:51:10,88.0,,-1.30294530876902,-2.97426664172611,-1.51146677984235,2025/08/19 08:52:13 PM,2.189121869992779,19.313304901123047,20.291461412151047
,9611.0,1574.0,6415.0,1962.0,153.0,1550.0,3626.0,2025-08-19 20:51:11,88.0,,-1.30279457123509,-2.97424942367916,-1.51180294117791,2025/08/19 08:52:23 PM,2.62484726074453,19.579404830932617,19.156583398386694
,9611.0,1574.0,6412.0,1959.0,153.0,1558.0,3621.0,2025-08-19 20:51:12,88.0,,-1.30223617010543,-2.97426489458664,-1.51253425644669,2025/08/19 08:52:33 PM,3.038184040774791,19.679300308227536,18.968491462770636
,9607.0,1573.0,6412.0,1960.0,145.0,1554.0,3624.0,2025-08-19 20:51:13,88.0,,-1.30344218018005,-2.97433018396183,-1.51208076768355,2025/08/19 08:52:43 PM,3.4232090485013322,19.551050186157227,18.593576144202917
,9605.0,1574.0,6411.0,1958.0,142.0,1553.0,3620.0,2025-08-19 20:51:14,88.0,,-1.30338333053644,-2.9742895203438,-1.51302124763989,2025/08/19 08:52:53 PM,3.7736779210407705,19.027484893798828,19.166666666666714
,9607.0,1574.0,6410.0,1961.0,148.0,1567.0,3636.0,2025-08-19 20:51:15,87.0,,-1.30235198059906,-2.97422321568061,-1.51289525177327,2025/08/19 08:53:03 PM,4.083121256996834,18.711017608642575,20.087524312308943
,9605.0,1575.0,6408.0,1961.0,147.0,1562.0,3640.0,2025-08-19 20:51:16,87.0,,-1.30311716232574,-2.97426098587078,-1.51305175480729,2025/08/19 08:53:13 PM,4.345050463678106,19.271947860717773,19.98395047575379
,9602.0,1573.0,6405.0,1961.0,151.0,1565.0,3640.0,2025-08-19 20:51:17,87.0,,-1.30277379010879,-2.97429295329307,-1.51199602148375,2025/08/19 08:53:23 PM,4.553255620787589,20.02670288085937,20.28940886699507
,9601.0,1575.0,6404.0,1959.0,154.0,1556.0,3629.0,2025-08-19 20:51:18,87.0,,-1.30238611847842,-2.9742421162453,-1.51216868281958,2025/08/19 08:53:33 PM,4.702163363777366,20.285499572753903,19.88497644974506
,9601.0,1572.0,6407.0,1962.0,129.0,1556.0,3637.0,2025-08-19 20:51:19,88.0,,-1.30222162633739,-2.97437982488628,-1.51115811526384,2025/08/19 08:53:43 PM,4.787213234862224,20.119224548339844,19.784946236559094
,9601.0,1576.0,6404.0,1962.0,133.0,1538.0,3629.0,2025-08-19 20:51:20,88.0,,-1.30186838762956,-2.97416261837205,-1.51108120398765,2025/08/19 08:53:53 PM,4.805208162179313,20.013341903686523,18.86798310978642
,9600.0,1574.0,6403.0,1962.0,144.0,1533.0,3636.0,2025-08-19 20:51:21,89.0,,-1.30135651083951,-2.97412735642674,-1.51199659439806,,4.754599526786097,,
,9599.0,1573.0,6401.0,1961.0,138.0,1528.0,3627.0,2025-08-19 20:51:22,89.0,,-1.30133864255208,-2.9740980840292,-1.51158826518284,,4.635678344258894,,
,9598.0,1573.0,6405.0,1962.0,165.0,1530.0,3629.0,2025-08-19 20:51:23,89.0,,-1.30091394959046,-2.97417641585269,-1.51064856470206,,4.450657920682381,,
,9598.0,1575.0,6401.0,1962.0,174.0,1530.0,3632.0,2025-08-19 20:51:24,89.0,,-1.3014454931259,-2.97412153651828,-1.51134951547799,,4.2036458803808125,,
,9594.0,1575.0,6405.0,1963.0,166.0,1572.0,3621.0,2025-08-19 20:51:25,89.0,,-1.30047940826161,-2.97418065030215,-1.51041193807752,,3.9005123796213947,,
,9598.0,1572.0,6403.0,1964.0,147.0,1572.0,3615.0,2025-08-19 20:51:26,89.0,,-1.30095363711962,-2.97403241338239,-1.51063811135495,,3.548666818438407,,
,9596.0,1575.0,6401.0,1963.0,136.0,1565.0,3616.0,2025-08-19 20:51:27,90.0,,-1.30079530375856,-2.97397451274193,-1.51037950880012,,3.1567589077799116,,
,9598.0,1575.0,6402.0,1964.0,146.0,1546.0,3631.0,2025-08-19 20:51:28,91.0,,-1.29998265307831,-2.97415171762696,-1.50986325813079,,2.7343225456178057,,
,9595.0,1574.0,6400.0,1964.0,152.0,1543.0,3627.0,2025-08-19 20:51:29,91.0,,-1.30001252979743,-2.97406026565222,-1.5091739622483,,2.291382516566793,,
,9594.0,1575.0,6400.0,1963.0,145.0,1550.0,3623.0,2025-08-19 20:51:30,92.0,,-1.29867901749132,-2.97400286395533,-1.50874204088308,,1.8380440238312143,,
,9595.0,1575.0,6401.0,1963.0,143.0,1541.0,3631.0,2025-08-19 20:51:31,92.0,,-1.29870014607882,-2.97413186823395,-1.508647033761,,1.3840835538137066,,
,9597.0,1578.0,6402.0,1964.0,167.0,1551.0,3623.0,2025-08-19 20:51:32,92.0,,-1.29826206505659,-2.973896277086,-1.50772999392037,,0.9385576440960993,,
,9595.0,1577.0,6402.0,1962.0,166.0,1550.0,3626.0,2025-08-19 20:51:33,92.0,,-1.29793728296979,-2.97397510062528,-1.50753397147611,,0.509445346045318,,
,9594.0,1575.0,6399.0,1964.0,176.0,1565.0,3619.0,2025-08-19 20:51:34,92.0,,-1.29812791955999,-2.97384644536065,-1.50756440300499,,0.10334148376276216,,
,9596.0,1574.0,6401.0,1964.0,166.0,1559.0,3627.0,2025-08-19 20:51:35,91.0,,-1.29769093851524,-2.97391198459117,-1.50770237813238,,-0.27477955939610904,,
,9596.0,1577.0,6402.0,1965.0,142.0,1564.0,3625.0,2025-08-19 20:51:36,91.0,,-1.29719716671205,-2.97396726027448,-1.50802717059141,,-0.6217084844020474,,
,9594.0,1574.0,6403.0,1965.0,139.0,1572.0,3632.0,2025-08-19 20:51:37,91.0,,-1.29803835836019,-2.97406832128539,-1.50788588365238,,-0.936036135452675,,
,9594.0,1575.0,6403.0,1965.0,138.0,1554.0,3634.0,2025-08-19 20:51:38,91.0,,-1.2973866138287,-2.97403739212677,-1.50725529464612,,-1.2180694441514486,,
,9596.0,1577.0,6401.0,1965.0,132.0,1570.0,3620.0,2025-08-19 20:51:39,91.0,,-1.29765503767338,-2.97405011863623,-1.5071748199774,,-1.4696310069099092,,
,9597.0,1579.0,6400.0,1965.0,136.0,1580.0,3624.0,2025-08-19 20:51:40,91.0,,-1.2999331800829,-2.97401788908654,-1.50811864181346,,-1.6937579719778626,,
,9593.0,1579.0,6401.0,1968.0,137.0,1578.0,3634.0,2025-08-19 20:51:41,91.0,,-1.30032773349731,-2.97401629151137,-1.50783845773004,,-1.8943267537310242,,
,9595.0,1579.0,6399.0,1966.0,149.0,1562.0,3621.0,2025-08-19 20:51:42,91.0,,-1.30060979905078,-2.97418257603164,-1.5078703795747,,-2.0756374027365037,,
,9595.0,1576.0,6401.0,1963.0,157.0,1553.0,3630.0,2025-08-19 20:51:43,91.0,,-1.30204476391302,-2.97423411945126,-1.50929157365475,,-2.24199488640946,,
,9594.0,1576.0,6400.0,1965.0,153.0,1551.0,3647.0,2025-08-19 20:51:44,91.0,,-1.30285137384992,-2.97405494867569,-1.50984854748611,,-2.39732413132018,,
,9591.0,1577.0,6401.0,1968.0,138.0,1548.0,3629.0,2025-08-19 20:51:45,91.0,,-1.30386707040902,-2.97427595624964,-1.51052390752303,,-2.5448514015144177,,
,9592.0,1578.0,6400.0,1968.0,142.0,1539.0,3627.0,2025-08-19 20:51:46,92.0,,-1.3041198366311,-2.9741686852459,-1.51042836021445,,-2.686876307266396,,
,9592.0,1576.0,6401.0,1967.0,154.0,1552.0,3633.0,2025-08-19 20:51:47,92.0,,-1.30446687956282,-2.97430953860062,-1.50950979910275,,-2.8246466879086842,,
,9593.0,1577.0,6403.0,1970.0,161.0,1559.0,3627.0,2025-08-19 20:51:48,93.0,,-1.30511514704375,-2.97418286925096,-1.50931953201666,,-2.9583340470106885,,
,9596.0,1578.0,6402.0,1968.0,166.0,1543.0,3616.0,2025-08-19 20:51:49,94.0,,-1.30504023454872,-2.97396667241875,-1.509765895677,,-3.087092894904964,,
,9596.0,1579.0,6405.0,1968.0,170.0,1539.0,3612.0,2025-08-19 20:51:50,94.0,,-1.30484631025787,-2.9741619908121,-1.50959394086708,,-3.209177115299656,,
,9595.0,1577.0,6401.0,1967.0,153.0,1557.0,3629.0,2025-08-19 20:51:51,93.0,,-1.3046008270284,-2.97419171106501,-1.50877199810513,,-3.3220835764127967,,
,9595.0,1577.0,6404.0,1969.0,137.0,1553.0,3637.0,2025-08-19 20:51:52,92.0,,-1.30455612385414,-2.97427174788368,-1.50828751549661,,-3.4226983535388062,,
,9597.0,1579.0,6404.0,1968.0,134.0,1554.0,3629.0,2025-08-19 20:51:53,92.0,,-1.30436696793065,-2.97425906448707,-1.50811178314314,,-3.507431745555287,,
,9598.0,1579.0,6406.0,1973.0,136.0,1559.0,3639.0,2025-08-19 20:51:54,91.0,,-1.30476824861464,-2.9742832284558,-1.50881813557052,,-3.5723407286698223,,
,9598.0,1579.0,6406.0,1969.0,156.0,1575.0,3629.0,2025-08-19 20:51:55,90.0,,-1.30455583260331,-2.97419879098629,-1.5075251749215,,-3.613247931221376,,
,9598.0,1581.0,6406.0,1970.0,150.0,1563.0,3621.0,2025-08-19 20:51:56,89.0,,-1.30370861138709,-2.97420080345573,-1.50755948534635,,-3.6258724280740497,,
,9603.0,1583.0,6411.0,1974.0,144.0,1555.0,3623.0,2025-08-19 20:51:57,88.0,,-1.30357345671041,-2.97408200273013,-1.5080844797997,,-3.6059887968430733,,
,9603.0,1583.0,6407.0,1972.0,138.0,1554.0,3622.0,2025-08-19 20:51:58,87.0,,-1.30351093773851,-2.97410207941205,-1.50739728009249,,-3.549626859443937,,
,9602.0,1580.0,6407.0,1973.0,143.0,1561.0,3624.0,2025-08-19 20:51:59,86.0,,-1.30252116574544,-2.9739939219391,-1.50690143299451,,-3.453315719351115,,
,9603.0,1581.0,6410.0,1975.0,151.0,1560.0,3621.0,2025-08-19 20:52:00,85.0,,-1.30164111419478,-2.97394077695561,-1.5061909522434,,-3.3143631109991123,,
,9604.0,1583.0,6411.0,1974.0,146.0,1547.0,3621.0,2025-08-19 20:52:01,85.0,,-1.30133140407626,-2.9739165917576,-1.50611167089931,,-3.1311466538894304,,
,9605.0,1583.0,6413.0,1977.0,148.0,1552.0,3630.0,2025-08-19 20:52:02,86.0,,-1.30156632076903,-2.97384284440729,-1.50579602797186,,-2.903380400746283,,
,9607.0,1582.0,6413.0,1975.0,151.0,1555.0,3615.0,2025-08-19 20:52:03,86.0,,-1.30065112131148,-2.97388838370007,-1.50522737231628,,-2.6323121004230177,,
,9605.0,1581.0,6415.0,1978.0,133.0,1558.0,3628.0,2025-08-19 20:52:04,87.0,,-1.30055149947715,-2.9738065251015,-1.50604138069629,,-2.3208078749945833,,
,9608.0,1585.0,6418.0,1978.0,129.0,1556.0,3634.0,2025-08-19 20:52:05,87.0,,-1.30006740665693,-2.97398751748573,-1.5050752850011,,-1.9732935266729004,,
,9611.0,1585.0,6417.0,1979.0,134.0,1561.0,3634.0,2025-08-19 20:52:06,88.0,,-1.3003691590507,-2.97392869555967,-1.50544165010392,,-1.5955435405855147,,
,9610.0,1586.0,6421.0,1980.0,139.0,1570.0,3632.0,2025-08-19 20:52:07,88.0,,-1.30081390486403,-2.97388930653217,-1.50479373736975,,-1.1943344703765932,,
,9613.0,1586.0,6417.0,1978.0,121.0,1554.0,3643.0,2025-08-19 20:52:08,88.0,,-1.2993724298955,-2.97409708973745,-1.50374532662136,,-0.7770021821092271,,
,9616.0,1587.0,6421.0,1980.0,139.0,1556.0,3641.0,2025-08-19 20:52:09,88.0,,-1.30003990481685,-2.97395002832675,-1.50493357040754,,-0.3509576813384364,,
,9615.0,1588.0,6420.0,1981.0,128.0,1544.0,3645.0,2025-08-19 20:52:10,88.0,,-1.29998600687679,-2.97394465832196,-1.50442275957335,,0.07677774370265257,,
,9618.0,1589.0,6422.0,1983.0,133.0,1541.0,3644.0,2025-08-19 20:52:11,88.0,,-1.29930054271324,-2.97391065690337,-1.50375137979753,,0.49996010019790443,,
,9619.0,1587.0,6422.0,1983.0,149.0,1550.0,3619.0,2025-08-19 20:52:12,87.0,,-1.29851623498054,-2.9739023062482,-1.50368144516605,,0.9133852950732058,,
,9620.0,1590.0,6425.0,1983.0,136.0,1548.0,3630.0,2025-08-19 20:52:13,87.0,,-1.29859874110091,-2.9738619737775,-1.50273151498324,,1.3129954181708314,,
,9622.0,1589.0,6425.0,1984.0,156.0,1561.0,3616.0,2025-08-19 20:52:14,88.0,,-1.29901785957118,-2.97386705379983,-1.50354345731779,,1.6958182614623463,,
,9623.0,1592.0,6427.0,1985.0,156.0,1569.0,3626.0,2025-08-19 20:52:15,88.0,,-1.29885272225021,-2.97379273280229,-1.50392503278073,,2.0597532404481225,,
,9626.0,1591.0,6426.0,1987.0,164.0,1566.0,3650.0,2025-08-19 20:52:16,88.0,,-1.29945254217713,-2.97391171671595,-1.5048227917707,,2.40324053588788,,
,9626.0,1589.0,6428.0,1987.0,146.0,1560.0,3649.0,2025-08-19 20:52:17,88.0,,-1.29963417350636,-2.97400340398581,-1.5054272311922,,2.7248700130879535,,
,9629.0,1592.0,6430.0,1988.0,148.0,1570.0,3624.0,2025-08-19 20:52:18,88.0,,-1.29994812219442,-2.9740003763012,-1.5053886644017,,3.022997577789866,,
,9630.0,1593.0,6427.0,1987.0,151.0,1555.0,3618.0,2025-08-19 20:52:19,88.0,,-1.30140546311366,-2.97400720147125,-1.50657212488506,,3.2954356273562295,,
,9632.0,1590.0,6423.0,1979.0,161.0,1556.0,3628.0,2025-08-19 20:52:20,87.0,,-1.30107635239973,-2.97417679364267,-1.50610593538307,,3.5392710673961365,,
,9629.0,1587.0,6422.0,1974.0,152.0,1562.0,3626.0,2025-08-19 20:52:21,87.0,,-1.30145387665707,-2.97400657218875,-1.50658402600029,,3.7508424260818365,,
,9628.0,1591.0,6420.0,1970.0,140.0,1574.0,3621.0,2025-08-19 20:52:22,87.0,,-1.30117158123723,-2.97401061419236,-1.50658482944707,,3.9258819254909736,,
,9624.0,1588.0,6418.0,1963.0,137.0,1571.0,3632.0,2025-08-19 20:52:23,87.0,,-1.30223470515356,-2.97400171620303,-1.50666736320792,,4.059803419237887,,
,9619.0,1585.0,6411.0,1960.0,146.0,1552.0,3631.0,2025-08-19 20:52:24,87.0,,-1.30129681874993,-2.97404639058864,-1.50672211502946,,4.148096011004198,,
,9616.0,1582.0,6404.0,1955.0,150.0,1541.0,3627.0,2025-08-19 20:52:25,87.0,,-1.30216703022763,-2.97401784766804,-1.5072884552688,,4.186768157378692,,
,9611.0,1582.0,6401.0,1955.0,148.0,1543.0,3626.0,2025-08-19 20:52:26,87.0,,-1.30174139195318,-2.97398430279953,-1.50680123501594,,4.172779989798951,,
,9604.0,1582.0,6396.0,1955.0,150.0,1548.0,3625.0,2025-08-19 20:52:27,87.0,,-1.301650602871,-2.97403630363109,-1.50685031297995,,4.104403922387983,,
,9601.0,1582.0,6388.0,1954.0,153.0,1552.0,3626.0,2025-08-19 20:52:28,87.0,,-1.30204643727835,-2.97411263900061,-1.50669682882574,,3.9814658509006007,,
,9599.0,1581.0,6383.0,1953.0,166.0,1562.0,3620.0,2025-08-19 20:52:29,88.0,,-1.30258468273779,-2.97420819933156,-1.50783585666602,,3.805440084845618,,
,9591.0,1580.0,6378.0,1955.0,147.0,1565.0,3625.0,2025-08-19 20:52:30,88.0,,-1.3023951165194,-2.97395797673778,-1.50768668163712,,3.579396641941538,,
,9589.0,1581.0,6376.0,1955.0,165.0,1565.0,3624.0,2025-08-19 20:52:31,88.0,,-1.30222016714311,-2.97408637307598,-1.50709611015192,,3.3078234243755666,,
,9585.0,1582.0,6370.0,1956.0,162.0,1560.0,3632.0,2025-08-19 20:52:32,87.0,,-1.30203604444742,-2.97404155853227,-1.50802261664733,,2.996361939036466,,
,9584.0,1580.0,6364.0,1954.0,148.0,1564.0,3623.0,2025-08-19 20:52:33,87.0,,-1.30210940414141,-2.974035223351,-1.50820488059138,,2.6515005821824436,,
,9579.0,1579.0,6363.0,1953.0,147.0,1560.0,3629.0,2025-08-19 20:52:34,87.0,,-1.30249264518358,-2.97412623751748,-1.50843955212259,,2.2802651403386864,,
,9577.0,1581.0,6361.0,1956.0,152.0,1550.0,3618.0,2025-08-19 20:52:35,86.0,,-1.30285428818365,-2.97418130554511,-1.50897869623483,,1.8899356029228338,,
,9577.0,1579.0,6359.0,1956.0,144.0,1539.0,3627.0,2025-08-19 20:52:36,86.0,,-1.30304480085858,-2.97410315676371,-1.50996475254565,,1.4878053680179435,,
,9578.0,1579.0,6357.0,1955.0,149.0,1546.0,3624.0,2025-08-19 20:52:37,86.0,,-1.30276537708454,-2.97413583906992,-1.50910018392877,,1.0809862190851816,,
,9573.0,1578.0,6354.0,1955.0,142.0,1550.0,3628.0,2025-08-19 20:52:38,86.0,,-1.30349253435616,-2.97426660477282,-1.50999482053109,,0.6762519861519334,,
,9573.0,1579.0,6355.0,1957.0,147.0,1562.0,3621.0,2025-08-19 20:52:39,86.0,,-1.30336880954937,-2.97413188145994,-1.51032857866821,,0.2799070535539777,,
,9572.0,1575.0,6351.0,1959.0,153.0,1554.0,3629.0,2025-08-19 20:52:40,86.0,,-1.30385446178302,-2.97420523588267,-1.50997925413265,,-0.10233618622046103,,
,9573.0,1578.0,6350.0,1959.0,154.0,1553.0,3612.0,2025-08-19 20:52:41,86.0,,-1.30338244617839,-2.97417991017911,-1.51045416012839,,-0.4654838920829595,,
,9572.0,1578.0,6350.0,1959.0,155.0,1551.0,3616.0,2025-08-19 20:52:42,87.0,,-1.30243487783641,-2.97424723551012,-1.51062423709529,,-0.8053966861637661,,
,9566.0,1578.0,6350.0,1960.0,157.0,1540.0,3621.0,2025-08-19 20:52:43,87.0,,-1.30298591367435,-2.97421109185739,-1.50992662319304,,-1.118929151978995,,
,9569.0,1581.0,6345.0,1959.0,154.0,1551.0,3620.0,2025-08-19 20:52:44,88.0,,-1.30358202835802,-2.97422389691166,-1.51041357380837,,-1.4040552322708897,,
,9566.0,1580.0,6348.0,1958.0,153.0,1565.0,3633.0,2025-08-19 20:52:45,88.0,,-1.30243826192237,-2.97413850817482,-1.50951982889801,,-1.65995308006391,,
,9567.0,1578.0,6345.0,1960.0,142.0,1575.0,3624.0,2025-08-19 20:52:46,88.0,,-1.30212211953397,-2.97410651021419,-1.50973047140923,,-1.887020848637699,,
,9567.0,1580.0,6346.0,1960.0,128.0,1546.0,3626.0,2025-08-19 20:52:47,89.0,,-1.30185306518967,-2.97407000073512,-1.50970858296673,,-2.086800574830044,,
,9565.0,1579.0,6342.0,1959.0,135.0,1540.0,3639.0,2025-08-19 20:52:48,88.0,,-1.30166876946561,-2.97416398724472,-1.50934816233662,,-2.2617989760082975,,
,9566.0,1581.0,6342.0,1961.0,145.0,1542.0,3637.0,2025-08-19 20:52:49,88.0,,-1.30148738302926,-2.97400661682225,-1.50946084709663,,-2.4152085930817555,,
,9563.0,1581.0,6341.0,1960.0,162.0,1535.0,3631.0,2025-08-19 20:52:50,88.0,,-1.30117515319985,-2.97407961234478,-1.50940477508327,,-2.5505474753580972,,
,9566.0,1580.0,6344.0,1961.0,151.0,1556.0,3628.0,2025-08-19 20:52:51,88.0,,-1.3012241332088,-2.97412548077658,-1.50917629708864,,-2.6712485434404027,,
,9566.0,1581.0,6346.0,1963.0,144.0,1565.0,3613.0,2025-08-19 20:52:52,88.0,,-1.30078410344396,-2.97421119446315,-1.51006491516595,,-2.7802394775807264,,
,9565.0,1583.0,6343.0,1962.0,156.0,1562.0,3614.0,2025-08-19 20:52:53,88.0,,-1.301124883665,-2.97414368121797,-1.50933052394438,,-2.8795592644789267,,
,9567.0,1580.0,6343.0,1962.0,149.0,1577.0,3613.0,2025-08-19 20:52:54,88.0,,-1.30088748959451,-2.97415353850805,-1.50908447743881,,-2.9700573848785496,,
,9564.0,1582.0,6341.0,1962.0,136.0,1569.0,3628.0,2025-08-19 20:52:55,87.0,,-1.30104561953572,-2.97402190438199,-1.50868349109014,,-3.0512153919214193,,
,9567.0,1582.0,6345.0,1963.0,157.0,1551.0,3649.0,2025-08-19 20:52:56,87.0,,-1.30060690531346,-2.97408821057247,-1.50883571744158,,-3.1211181948396303,,
,9565.0,1582.0,6343.0,1965.0,149.0,1551.0,3634.0,2025-08-19 20:52:57,87.0,,-1.30047627904595,-2.97390592020996,-1.50810957561621,,-3.1765844675589094,,
,9564.0,1580.0,6341.0,1963.0,138.0,1546.0,3631.0,2025-08-19 20:52:58,86.0,,-1.30004601877976,-2.97390256752485,-1.50739314591486,,-3.213444471498964,,
,9563.0,1582.0,6342.0,1960.0,131.0,1545.0,3617.0,2025-08-19 20:52:59,86.0,,-1.29997303783544,-2.97402031041295,-1.50734762282367,,-3.226933112475638,,
,9567.0,1584.0,6343.0,1963.0,147.0,1559.0,3618.0,2025-08-19 20:53:00,86.0,,-1.30019268915795,-2.97395860747364,-1.5073780214238,,-3.21215073247208,,
,9564.0,1582.0,6343.0,1961.0,142.0,1552.0,3625.0,2025-08-19 20:53:01,85.0,,-1.29849254598398,-2.97395782724795,-1.50801668909859,,-3.1645370819261696,,
,9564.0,1580.0,6340.0,1962.0,158.0,1558.0,3624.0,2025-08-19 20:53:02,85.0,,-1.29879537939699,-2.97399795934758,-1.50790841509699,,-3.080305568292277,,
,9562.0,1582.0,6341.0,1964.0,164.0,1565.0,3632.0,2025-08-19 20:53:03,84.0,,-1.29811111567697,-2.97392576000815,-1.50784161029925,,-2.9567934067535617,,
,9564.0,1584.0,6339.0,1962.0,164.0,1570.0,3614.0,2025-08-19 20:53:04,84.0,,-1.29915860928135,-2.97398383150461,-1.50804228625374,,-2.792696128826583,,
,9562.0,1584.0,6340.0,1965.0,145.0,1578.0,3608.0,2025-08-19 20:53:05,84.0,,-1.29989374508051,-2.97394532697635,-1.50752339518562,,-2.588169920395313,,
,9563.0,1584.0,6340.0,1963.0,143.0,1572.0,3604.0,2025-08-19 20:53:06,84.0,,-1.29919603219287,-2.97403784557842,-1.5084066851482,,-2.3448010035251743,,
,9561.0,1581.0,6336.0,1961.0,148.0,1556.0,3607.0,2025-08-19 20:53:07,84.0,,-1.30142585683009,-2.97419619737912,-1.50880041372845,,-2.0654564673341804,,
,9563.0,1585.0,6341.0,1964.0,163.0,1574.0,3622.0,2025-08-19 20:53:08,84.0,,-1.30247729219224,-2.97416993559799,-1.50917747720758,,-1.7540441117700456,,
,9564.0,1585.0,6338.0,1964.0,154.0,1572.0,3626.0,2025-08-19 20:53:09,84.0,,-1.30278064655039,-2.97429174169331,-1.50939835075308,,-1.4152182802232522,,
,9564.0,1585.0,6343.0,1966.0,152.0,1566.0,3624.0,2025-08-19 20:53:10,85.0,,-1.30416703196515,-2.97435915129881,-1.51158188230987,,-1.0540725469155061,,
2025-08-19 20:51:04,9565.0,1583.0,6339.0,1964.0,160.0,1562.0,3629.0,2025-08-19 20:53:11,85.0,2025/08/19 08:51:04 PM,-1.30484331422127,-2.97431876986171,-1.51176998906772,,-0.6758571504396854,,
,9566.0,1583.0,6338.0,1965.0,156.0,1558.0,3630.0,2025-08-19 20:53:12,86.0,,-1.30596900495009,-2.97426885909395,-1.51136018508123,,-0.28574931985563257,,
,9564.0,1587.0,6340.0,1965.0,146.0,1569.0,3621.0,2025-08-19 20:53:13,86.0,,-1.3065234657115,-2.9743485014189,-1.51214362834957,,0.11130943083808197,,
,9565.0,1584.0,6340.0,1963.0,142.0,1569.0,3609.0,2025-08-19 20:53:14,86.0,,-1.30711238833748,-2.9743788003621,-1.51234202879055,,0.5107089856965243,,
,9562.0,1584.0,6340.0,1963.0,149.0,1542.0,3617.0,2025-08-19 20:53:15,86.0,,-1.30781121791661,-2.97442636615137,-1.51220850452031,,0.9082090234938058,,
,9564.0,1584.0,6343.0,1964.0,136.0,1551.0,3619.0,2025-08-19 20:53:16,86.0,,-1.30743441487698,-2.97441332075679,-1.51236763812782,,1.2999337153538764,,
,9564.0,1584.0,6344.0,1966.0,139.0,1559.0,3621.0,2025-08-19 20:53:17,86.0,,-1.30733067733765,-2.97440363549,-1.51177580284537,,1.6823354143280866,,
,9567.0,1587.0,6340.0,1965.0,151.0,1574.0,3617.0,2025-08-19 20:53:18,86.0,,-1.3080971168926,-2.97440887338218,-1.51116102487747,,2.052136942882166,,
,9565.0,1585.0,6343.0,1965.0,146.0,1580.0,3629.0,2025-08-19 20:53:19,86.0,,-1.30844537175988,-2.97447787641885,-1.5121875480363,,2.406258946279378,,
,9566.0,1585.0,6344.0,1966.0,141.0,1560.0,3628.0,2025-08-19 20:53:20,85.0,,-1.30840403967215,-2.9744442691826,-1.51227890793941,,2.7417366021844045,,
,9566.0,1585.0,6347.0,1968.0,157.0,1553.0,3633.0,2025-08-19 20:53:21,85.0,,-1.30846139457642,-2.97439811240051,-1.51303102350245,,3.055629020804561,,
,9568.0,1587.0,6348.0,1971.0,150.0,1555.0,3614.0,2025-08-19 20:53:22,84.0,,-1.3086330862842,-2.97446527181057,-1.51332430663787,,3.344925081326449,,
,9570.0,1589.0,6348.0,1969.0,145.0,1554.0,3605.0,2025-08-19 20:53:23,84.0,,-1.30820184211132,-2.97437644406859,-1.51289623762437,,3.6064514993667385,,
,9568.0,1584.0,6348.0,1967.0,128.0,1565.0,3616.0,2025-08-19 20:53:24,84.0,,-1.30778274348993,-2.97439066169863,-1.5124168068544,,3.836792817155685,,
,9574.0,1587.0,6348.0,1970.0,138.0,1575.0,3622.0,2025-08-19 20:53:25,83.0,,-1.30680985598431,-2.97442172177646,-1.51285528133552,,4.0322384678186705,,
,9570.0,1589.0,6350.0,1971.0,150.0,1581.0,3619.0,2025-08-19 20:53:26,83.0,,-1.30651373366954,-2.97440282195602,-1.51216847060342,,4.188777622864026,,
,9574.0,1586.0,6349.0,1972.0,148.0,1569.0,3617.0,2025-08-19 20:53:27,83.0,,-1.30544474530853,-2.97429679307207,-1.51168371311768,,4.302165154129907,,
,9572.0,1588.0,6351.0,1970.0,150.0,1558.0,3628.0,2025-08-19 20:53:28,83.0,,-1.30664782165449,-2.9742645081568,-1.51154662915635,,4.368078144031671,,
,9575.0,1589.0,6349.0,1971.0,157.0,1556.0,3635.0,2025-08-19 20:53:29,83.0,,-1.30589391393129,-2.97425127235768,-1.51198668828242,,4.382370225429621,,
,9577.0,1591.0,6354.0,1973.0,168.0,1549.0,3624.0,2025-08-19 20:53:30,83.0,,-1.30576270269686,-2.97421838850288,-1.51172294038874,,4.341412525590848,,
,9577.0,1591.0,6352.0,1972.0,167.0,1546.0,3625.0,2025-08-19 20:53:31,83.0,,-1.30575216398961,-2.97421235871416,-1.51096101090185,,4.242490006626428,,
,9579.0,1590.0,6355.0,1971.0,141.0,1551.0,3633.0,2025-08-19 20:53:32,83.0,,-1.30594175171804,-2.97425128158546,-1.511545712388,,4.0842059134567075,,
,9578.0,1589.0,6352.0,1973.0,141.0,1553.0,3627.0,2025-08-19 20:53:33,83.0,,-1.30505391371529,-2.97423709900096,-1.51093475936752,,3.86683862187319,,
,9582.0,1589.0,6354.0,1973.0,151.0,1567.0,3613.0,2025-08-19 20:53:34,84.0,,-1.30508759952742,-2.97418741468275,-1.51025689096522,,3.592596009749598,,
,9582.0,1592.0,6357.0,1977.0,144.0,1579.0,3606.0,2025-08-19 20:53:35,84.0,,-1.3053692199148,-2.97419925653991,-1.51053635091129,,3.265722407932481,,
,9584.0,1592.0,6357.0,1976.0,147.0,1585.0,3602.0,2025-08-19 20:53:36,83.0,,-1.30435764441945,-2.9742082286823,-1.50940905106832,,2.892430839369652,,
,9584.0,1592.0,6355.0,1979.0,144.0,1568.0,3620.0,2025-08-19 20:53:37,83.0,,-1.3044210710891,-2.97395460833179,-1.51022176223602,,2.480656239641526,,
,9587.0,1591.0,6356.0,1978.0,157.0,1552.0,3624.0,2025-08-19 20:53:38,83.0,,-1.30389540956496,-2.97406194994973,-1.50866543121766,,2.0396504079415636,,
,9589.0,1594.0,6361.0,1979.0,148.0,1556.0,3624.0,2025-08-19 20:53:39,83.0,,-1.30368890862897,-2.97404012614404,-1.50908673184825,,1.5794624736417813,,
,9589.0,1594.0,6357.0,1979.0,142.0,1548.0,3623.0,2025-08-19 20:53:40,83.0,,-1.30405615653773,-2.9742531010735,-1.50950849767165,,1.1103649821118797,,
,9590.0,1593.0,6358.0,1979.0,145.0,1557.0,3629.0,2025-08-19 20:53:41,83.0,,-1.30423446130535,-2.97418752838876,-1.50983721513797,,0.6422912244294643,,
,9592.0,1593.0,6356.0,1979.0,147.0,1554.0,3617.0,2025-08-19 20:53:42,83.0,,-1.30492453765561,-2.97416363111103,-1.50964399894417,,0.18434283491555292,,
,9594.0,1593.0,6358.0,1975.0,163.0,1555.0,3612.0,2025-08-19 20:53:43,84.0,,-1.30598999210322,-2.9741943111387,-1.51073298421433,,-0.25558953007873114,,
,9593.0,1592.0,6356.0,1969.0,154.0,1553.0,3613.0,2025-08-19 20:53:44,84.0,,-1.30556936321355,-2.97423057485908,-1.51138765719205,,-0.6710704633132584,,
,9592.0,1589.0,6353.0,1961.0,143.0,1561.0,3623.0,2025-08-19 20:53:45,84.0,,-1.30616496246804,-2.97429003941223,-1.51139364087006,,-1.057227602682284,,
,9587.0,1590.0,6350.0,1958.0,134.0,1573.0,3618.0,2025-08-19 20:53:46,84.0,,-1.30537471734719,-2.97429068929257,-1.51062497451109,,-1.4107384254212745,,
,9587.0,1589.0,6347.0,1954.0,142.0,1565.0,3609.0,2025-08-19 20:53:47,83.0,,-1.30609546510255,-2.974237714605,-1.51040107629578,,-1.7297231228474301,,
,9580.0,1590.0,6341.0,1951.0,138.0,1562.0,3616.0,2025-08-19 20:53:48,83.0,,-1.30571980219936,-2.97427199026787,-1.5098688978038,,-2.013576445911295,,
,9574.0,1584.0,6332.0,1950.0,139.0,1555.0,3626.0,2025-08-19 20:53:49,83.0,,-1.30541091297209,-2.97429733364373,-1.5098729581972,,-2.2627715594772173,,
,9568.0,1586.0,6326.0,1950.0,153.0,1544.0,3623.0,2025-08-19 20:53:50,83.0,,-1.30612120643057,-2.97432770729189,-1.50860740336688,,-2.4786640178739257,,
,9569.0,1586.0,6321.0,1950.0,143.0,1549.0,3618.0,2025-08-19 20:53:51,82.0,,-1.30561362099594,-2.97423589018793,-1.50981945310308,,-2.6633148796852977,,
,9563.0,1585.0,6317.0,1949.0,145.0,1554.0,3623.0,2025-08-19 20:53:52,83.0,,-1.30509485961808,-2.97430417630275,-1.51031944305989,,-2.8193399702659083,,
,9558.0,1584.0,6309.0,1947.0,142.0,1577.0,3628.0,2025-08-19 20:53:53,83.0,,-1.30589139234175,-2.97443239977704,-1.51024468488702,,-2.9497794287725694,,
,9553.0,1581.0,6306.0,1948.0,155.0,1567.0,3638.0,2025-08-19 20:53:54,84.0,,-1.30605804764809,-2.97444190643599,-1.5099470053825,,-3.057971150552791,,
,9550.0,1580.0,6301.0,1950.0,153.0,1557.0,3613.0,2025-08-19 20:53:55,84.0,,-1.30636638923295,-2.97442402759444,-1.51016262487858,,-3.147407087069978,,
,9550.0,1581.0,6299.0,1947.0,159.0,1553.0,3612.0,2025-08-19 20:53:56,85.0,,-1.30573908867414,-2.97435050232721,-1.51084589247363,,-3.2215545031813364,,
,9543.0,1579.0,6297.0,1952.0,162.0,1544.0,3627.0,2025-08-19 20:53:57,85.0,,-1.30678701733087,-2.97425703839898,-1.5105845692602,,-3.283634255436418,,
,9541.0,1579.0,6291.0,1947.0,153.0,1552.0,3620.0,2025-08-19 20:53:58,85.0,,-1.30658273812136,-2.9741900711664,-1.51046595120241,,-3.3363618281083336,,
,9541.0,1582.0,6291.0,1949.0,135.0,1559.0,3624.0,2025-08-19 20:53:59,85.0,,-1.30610237700405,-2.97425125215599,-1.51135218496984,,-3.381670720549591,,
,9540.0,1581.0,6287.0,1950.0,142.0,1565.0,3630.0,2025-08-19 20:54:00,84.0,,-1.30575548477675,-2.97422284200962,-1.51144049859173,,-3.420449095934643,,
,9537.0,1579.0,6286.0,1952.0,164.0,1558.0,3624.0,2025-08-19 20:54:01,84.0,,-1.30579854226037,-2.97436401785281,-1.51045632305774,,-3.4523276067251434,,
,9533.0,1579.0,6283.0,1948.0,152.0,1553.0,3626.0,2025-08-19 20:54:02,84.0,,-1.30570917304196,-2.9743232607169,-1.51170888812098,,-3.4755577603599748,,
,9535.0,1580.0,6283.0,1951.0,140.0,1554.0,3622.0,,,,-1.30602405806038,-2.97427598523283,-1.51097011037032,,-3.4870151210521882,,
,9533.0,1579.0,6285.0,1954.0,150.0,1561.0,3615.0,,,,-1.30573036477987,-2.97423782271558,-1.51045309066483,,-3.482349665414459,,
,9533.0,1578.0,6281.0,1953.0,156.0,1562.0,3611.0,,,,-1.30521638778617,-2.97429262252665,-1.51118881764902,,-3.456287355823555,,
,9528.0,1579.0,6279.0,1952.0,162.0,1552.0,3620.0,,,,-1.30543804969899,-2.97431255887979,-1.51086606258003,,-3.403064489174865,,
,9530.0,1580.0,6280.0,1952.0,162.0,1577.0,3621.0,,,,-1.30623036408802,-2.97434507939418,-1.51124209568398,,-3.316953271346047,,
,9527.0,1580.0,6282.0,1952.0,147.0,1577.0,3622.0,,,,-1.30563022928236,-2.97431920165043,-1.51150883068708,,-3.1928184062711167,,
,9528.0,1579.0,6279.0,1957.0,149.0,1565.0,3612.0,,,,-1.30589620920787,-2.97435183048961,-1.51179102916625,,-3.0266353621355373,,
,9527.0,1576.0,6277.0,1953.0,164.0,1568.0,3627.0,,,,-1.30589001046258,-2.9743630058087,-1.51142441657874,,-2.8159043683262386,,
,9528.0,1580.0,6273.0,1955.0,162.0,1560.0,3641.0,,,,-1.30592310041017,-2.97437436702698,-1.51175317670292,,-2.5599096302378532,,
,9529.0,1582.0,6279.0,1957.0,158.0,1554.0,3631.0,,,,-1.30585034217472,-2.97425748160808,-1.51108783913203,,-2.2597972580392365,,
,9527.0,1582.0,6275.0,1958.0,164.0,1555.0,3629.0,,,,-1.30509158234868,-2.97432574398156,-1.51142537713322,,-1.9184730655045101,,
,9526.0,1580.0,6276.0,1957.0,155.0,1549.0,3627.0,,,,-1.30469956233104,-2.97433886902411,-1.51003512086832,,-1.5403476693862352,,
,9523.0,1579.0,6275.0,1956.0,152.0,1574.0,3617.0,,,,-1.30431268151177,-2.97423544543068,-1.51015414839528,,-1.1309768979439176,,
,9525.0,1582.0,6280.0,1957.0,140.0,1581.0,3622.0,,,,-1.30405561605706,-2.97411542542663,-1.50993222063148,,-0.6966574103918132,,
,9526.0,1580.0,6277.0,1956.0,154.0,1582.0,3618.0,,,,-1.303683763037,-2.97421998645335,-1.50946165037487,,-0.2440392138272352,,
,9527.0,1578.0,6275.0,1957.0,152.0,1584.0,3631.0,,,,-1.30407085036046,-2.97412783412451,-1.50853299366994,,0.22019164007608025,,
,9524.0,1580.0,6273.0,1956.0,145.0,1581.0,3625.0,,,,-1.30311926033189,-2.97432218363622,-1.50932611681679,,0.689524326943931,,
,9524.0,1580.0,6275.0,1956.0,137.0,1573.0,3618.0,,,,-1.3030843630791,-2.97414136337912,-1.50891861816709,,1.1577162128997944,,
,9524.0,1580.0,6277.0,1957.0,138.0,1561.0,3626.0,,,,-1.30253131059068,-2.97419952902741,-1.50877002013375,,1.618779996960729,,
,9523.0,1581.0,6276.0,1954.0,140.0,1548.0,3634.0,,,,-1.30286693526739,-2.97428281240601,-1.50894971448186,,2.0668974952602865,,
,9523.0,1579.0,6275.0,1953.0,138.0,1554.0,3627.0,,,,-1.30300833120518,-2.97407005049322,-1.50851691515357,,2.496303220021881,,
,9525.0,1579.0,6276.0,1955.0,151.0,1555.0,3621.0,,,,-1.3028104822985,-2.97410373661278,-1.50866564717243,,2.901181330925385,,
,9521.0,1581.0,6275.0,1956.0,145.0,1544.0,3627.0,,,,-1.30302930889942,-2.97409681959069,-1.50844305604362,,3.275611886415772,,
,9522.0,1580.0,6274.0,1956.0,145.0,1562.0,3631.0,,,,-1.30280684523612,-2.97406670452504,-1.50783783699286,,3.613589911504891,,
,9522.0,1577.0,6276.0,1953.0,144.0,1562.0,3632.0,,,,-1.30300554897473,-2.97396318581007,-1.50897777233529,,3.90912638134053,,
,9520.0,1578.0,6274.0,1957.0,147.0,1577.0,3623.0,,,,-1.30277901974366,-2.97397107056834,-1.50893439521393,,4.156425708815403,,
,9520.0,1578.0,6273.0,1956.0,146.0,1582.0,3625.0,,,,-1.30263895902358,-2.97416420421913,-1.50820329539381,,4.350121420783327,,
,9519.0,1580.0,6274.0,1957.0,142.0,1582.0,3631.0,,,,-1.3020287849881,-2.97418097915066,-1.50898091545467,,4.4855423575989075,,
,9519.0,1580.0,6276.0,1956.0,150.0,1577.0,3637.0,,,,-1.30315315610672,-2.97416605959798,-1.50954282387874,,4.558977831351964,,
,9519.0,1579.0,6272.0,1956.0,161.0,1566.0,3633.0,,,,-1.3030673212352,-2.97413621946287,-1.50978727724522,,4.567912737643461,,
,9519.0,1580.0,6276.0,1957.0,156.0,1567.0,3610.0,,,,-1.30339084926406,-2.974170288902,-1.50944985555128,,4.511211787547838,,
,9519.0,1579.0,6277.0,1957.0,156.0,1565.0,3610.0,,,,-1.30441648264743,-2.97426346296885,-1.50979549455796,,4.389242728501884,,
,9519.0,1580.0,6278.0,1959.0,142.0,1572.0,3603.0,,,,-1.30446972533212,-2.97427007916582,-1.51017858826936,,4.20393752171933,,
,9517.0,1578.0,6276.0,1958.0,137.0,1560.0,3615.0,,,,-1.30618025634257,-2.97435633303582,-1.50973280208782,,3.9587951308091385,,
,9519.0,1578.0,6275.0,1957.0,151.0,1570.0,3618.0,,,,-1.30668783979682,-2.97439194890298,-1.51154439242715,,3.658829834578419,,
,9519.0,1578.0,6278.0,1960.0,144.0,1567.0,3614.0,,,,-1.30894990200666,-2.97442446188842,-1.51120010979468,,3.3104668441990035,,
,9516.0,1578.0,6273.0,1958.0,152.0,1574.0,3622.0,,,,-1.30909804166565,-2.97444984846117,-1.51200468956107,,2.9213847238909723,,
,9515.0,1576.0,6276.0,1958.0,158.0,1584.0,3635.0,,,,-1.30983165613347,-2.97434576092813,-1.51113996962315,,2.5003030050622455,,
,9517.0,1578.0,6278.0,1960.0,168.0,1575.0,3626.0,,,,-1.31073778691538,-2.97440741174735,-1.51209254024301,,2.05671397450164,,
,9515.0,1577.0,6280.0,1959.0,159.0,1577.0,3626.0,,,,-1.3112905164744,-2.97445919670012,-1.51156805002825,,1.6005602251566176,,
,9516.0,1577.0,6279.0,1959.0,166.0,1574.0,3624.0,,,,-1.31098030019335,-2.97445641141376,-1.50975355822447,,1.1418644684288919,,
,9514.0,1578.0,6278.0,1959.0,173.0,1557.0,3617.0,,,,-1.31155166864031,-2.97440968955736,-1.51125037504131,,0.690325307687597,,
,9514.0,1578.0,6280.0,1959.0,147.0,1552.0,3617.0,,,,-1.311891075205,-2.97441177263934,-1.51003276819067,,0.2549014564045107,,
,9519.0,1580.0,6282.0,1962.0,151.0,1560.0,3625.0,,,,-1.31114231804976,-2.97446043902825,-1.51095391327364,,-0.1565845812757564,,
,9519.0,1579.0,6285.0,1963.0,146.0,1567.0,3628.0,,,,-1.31227647229153,-2.97440344160613,-1.5109588571088,,-0.5377870533302723,,
,9519.0,1578.0,6283.0,1963.0,149.0,1545.0,3630.0,,,,-1.31221749215349,-2.97445282742181,-1.51153212565521,,-0.8840863333941726,,
,9516.0,1578.0,6286.0,1961.0,152.0,1562.0,3643.0,,,,-1.31180351182423,-2.97448298491346,-1.5120296510414,,-1.192719901377366,,
,9519.0,1580.0,6285.0,1965.0,140.0,1565.0,3632.0,,,,-1.31175987698452,-2.97457816947865,-1.51171929391537,,-1.4627813727894026,,
,9522.0,1577.0,6286.0,1966.0,146.0,1557.0,3633.0,,,,-1.31123684475431,-2.97460453408596,-1.51165217560951,,-1.695089781483237,,
,9523.0,1578.0,6286.0,1965.0,142.0,1566.0,3639.0,,,,-1.31057314527122,-2.97439467290987,-1.51226362858029,,-1.8919459387163229,,
,9522.0,1579.0,6285.0,1964.0,141.0,1588.0,3625.0,,,,-1.31079636777771,-2.97432169978736,-1.51118344642619,,-2.0568040836095802,,
,9524.0,1579.0,6288.0,1965.0,136.0,1571.0,3627.0,,,,-1.30927917470224,-2.97442849791165,-1.50969913967366,,-2.19389425103373,,
,9525.0,1578.0,6291.0,1968.0,131.0,1562.0,3614.0,,,,-1.30814477600354,-2.97434139850987,-1.50984528549628,,-2.3078334471894912,,
,9525.0,1581.0,6292.0,1970.0,122.0,1561.0,3610.0,,,,-1.30854375435477,-2.97430416326824,-1.50862492263511,,-2.4032616696252087,,
,9526.0,1581.0,6290.0,1967.0,134.0,1584.0,3616.0,,,,-1.30773303122329,-2.97420490847037,-1.50766462353126,,-2.48453206077432,,
,9525.0,1580.0,6291.0,1968.0,147.0,1553.0,3619.0,,,,-1.30649312101112,-2.97415464715153,-1.50862464813012,,-2.555473533595565,,
,9528.0,1581.0,6294.0,1970.0,143.0,1557.0,3613.0,,,,-1.30751940278013,-2.97417337500086,-1.50812987611571,,-2.6192304836341584,,
,9530.0,1583.0,6296.0,1970.0,133.0,1560.0,3612.0,,,,-1.30771946924878,-2.97425652082156,-1.50745467506936,,-2.6781704943777918,,
,9534.0,1581.0,6293.0,1970.0,148.0,1567.0,3631.0,,,,-1.30747697959548,-2.97406741676564,-1.50696673133537,,-2.733841001280573,,
,9530.0,1580.0,6295.0,1970.0,141.0,1552.0,3635.0,,,,-1.30675779291073,-2.97409694696538,-1.50688871895049,,-2.786952766027917,,
,9532.0,1582.0,6297.0,1971.0,151.0,1561.0,3622.0,,,,-1.30686617116931,-2.9741734350411,-1.50675870170742,,-2.8373723005876172,,
,9534.0,1581.0,6299.0,1971.0,154.0,1565.0,3624.0,,,,-1.3060064633381,-2.97416057692014,-1.5066184727718,,-2.884114883597522,,
,9532.0,1580.0,6295.0,1968.0,147.0,1567.0,3621.0,,,,-1.30594612798436,-2.97411271400005,-1.50634148735344,,-2.925341026964052,,
,9531.0,1579.0,6291.0,1963.0,151.0,1574.0,3628.0,,,,-1.30637809288978,-2.97412639788072,-1.50618367124532,,-2.9583690744847795,,
,9531.0,1579.0,6292.0,1959.0,143.0,1571.0,3615.0,,,,-1.30531426034536,-2.97400726535229,-1.50646031176779,,-2.9797230541551896,,
,9534.0,1578.0,6290.0,1954.0,147.0,1565.0,3614.0,,,,-1.30591228511397,-2.97407877529037,-1.50664992128128,,-2.985236803448492,,
,9524.0,1576.0,6284.0,1949.0,164.0,1575.0,3616.0,,,,-1.30596551209217,-2.9740507421597,-1.50646579554882,,-2.9702319845701135,,
,9520.0,1575.0,6279.0,1945.0,145.0,1559.0,3615.0,,,,-1.30540282771031,-2.97417824548112,-1.50608379989288,,-2.9297785791778863,,
,9515.0,1575.0,6272.0,1942.0,141.0,1562.0,3621.0,,,,-1.30602862297586,-2.97428995952666,-1.50629356126474,,-2.8590323287650037,,
,9510.0,1569.0,6268.0,1941.0,153.0,1541.0,3629.0,,,,-1.30625984910442,-2.97408004386758,-1.50633349843835,,-2.753626210453096,,
,9506.0,1570.0,6261.0,1938.0,153.0,1549.0,3629.0,,,,-1.30618716704013,-2.97404976015632,-1.50613267313312,,-2.6100758631939103,,
,9496.0,1566.0,6250.0,1936.0,153.0,1545.0,3646.0,,,,-1.30676029900318,-2.97418624356125,-1.50676105351805,,-2.426146733588353,,
,9492.0,1567.0,6247.0,1940.0,166.0,1543.0,3643.0,,,,-1.30667056271222,-2.97409097317357,-1.50671254182387,,-2.2011284078690765,,
,9486.0,1562.0,6243.0,1940.0,155.0,1564.0,3622.0,,,,-1.30660389276487,-2.97406071429718,-1.5065352423849,,-1.9359716392946562,,
,9482.0,1567.0,6240.0,1940.0,148.0,1570.0,3627.0,,,,-1.30745964079966,-2.97416594355841,-1.50717634152671,,-1.6332644976161013,,
,9477.0,1560.0,6233.0,1938.0,152.0,1572.0,3633.0,,,,-1.3072896365863,-2.97428115238445,-1.50703853576244,,-1.297050839954919,,
2025-08-19 20:51:05,9472.0,1563.0,6229.0,1938.0,149.0,1578.0,3621.0,,,2025/08/19 08:51:05 PM,-1.30835677447192,-2.97422767801377,-1.50736481303252,,-0.932520577654188,,
,9473.0,1562.0,6229.0,1940.0,141.0,1564.0,3619.0,,,,-1.30833013806654,-2.97418360061089,-1.50718749464122,,-0.5456215944088858,,
,9469.0,1561.0,6225.0,1941.0,143.0,1557.0,3616.0,,,,-1.30842438508413,-2.97428413089983,-1.50842514495392,,-0.1426542970130931,,
,9466.0,1561.0,6221.0,1940.0,151.0,1553.0,3638.0,,,,-1.30952080680695,-2.97424227854961,-1.50858685185003,,0.2700896383442791,,
,9463.0,1559.0,6216.0,1938.0,153.0,1554.0,3626.0,,,,-1.30875038730705,-2.97431771687093,-1.50887245585738,,0.686592274957273,,
,9463.0,1560.0,6219.0,1943.0,144.0,1555.0,3624.0,,,,-1.30967895192679,-2.97441877757981,-1.5093319512547,,1.1012440451370291,,
,9458.0,1561.0,6218.0,1943.0,143.0,1551.0,3628.0,,,,-1.30942316927913,-2.9743451812878,-1.50956582415709,,1.5088377386208858,,
,9456.0,1559.0,6216.0,1942.0,143.0,1550.0,3623.0,,,,-1.3097895441716,-2.97424551377621,-1.50981682329747,,1.904438187295925,,
,9453.0,1556.0,6212.0,1942.0,147.0,1550.0,3635.0,,,,-1.31038088188699,-2.97437549544202,-1.50960672129414,,2.2831687873847044,,
,9453.0,1558.0,6214.0,1941.0,130.0,1546.0,3622.0,,,,-1.31003582224537,-2.97427167798479,-1.50990658687722,,2.639973545056451,,
,9452.0,1558.0,6212.0,1941.0,130.0,1552.0,3617.0,,,,-1.30918262584848,-2.97430092404198,-1.50981973641183,,2.9694192408947733,,
,9448.0,1557.0,6208.0,1941.0,136.0,1569.0,3624.0,,,,-1.31050924918825,-2.97436501709821,-1.51006112357625,,3.2655955073880993,,
,9445.0,1555.0,6208.0,1942.0,151.0,1555.0,3627.0,,,,-1.31043682727129,-2.97444161133781,-1.51127654046917,,3.5221535286450734,,
,9445.0,1554.0,6204.0,1941.0,143.0,1565.0,3624.0,,,,-1.31053949516669,-2.97426577467639,-1.5115260069998,,3.7325008384480363,,
,9445.0,1555.0,6208.0,1943.0,140.0,1597.0,3637.0,,,,-1.3121765541427,-2.97436368059603,-1.5119177874867,,3.8901442705361724,,
,9448.0,1553.0,6204.0,1943.0,150.0,1576.0,3630.0,,,,-1.31119716552908,-2.97433032680151,-1.51157899782214,,3.9891486581702886,,
,9442.0,1554.0,6204.0,1944.0,155.0,1553.0,3639.0,,,,-1.31141309716757,-2.97433977315524,-1.51204296242233,,4.024658160903878,,
,9442.0,1555.0,6205.0,1944.0,151.0,1546.0,3633.0,,,,-1.31087053994608,-2.9744258858312,-1.51161712205871,,3.993412930258437,,
,9440.0,1555.0,6205.0,1944.0,157.0,1541.0,3631.0,,,,-1.31193517442088,-2.97450376624484,-1.51176769402868,,3.8941888555859188,,
,9441.0,1554.0,6203.0,1944.0,156.0,1537.0,3630.0,,,,-1.31110321435126,-2.9744557104847,-1.51215367867835,,3.728094242863065,,
,9439.0,1555.0,6204.0,1945.0,147.0,1562.0,3641.0,,,,-1.31073383833085,-2.9744188471555,-1.51156603042973,,3.498674945652294,,
,9437.0,1552.0,6205.0,1942.0,160.0,1568.0,3615.0,,,,-1.31129752621302,-2.97437777860639,-1.51195675089808,,3.211806776310634,,
,9438.0,1554.0,6205.0,1943.0,146.0,1571.0,3612.0,,,,-1.31086864903795,-2.97442754366404,-1.5122134220446,,2.8753857966594634,,
,9438.0,1555.0,6203.0,1945.0,143.0,1571.0,3619.0,,,,-1.31109545325184,-2.97436044863242,-1.5113575386173,,2.498855777828587,,
,9436.0,1554.0,6204.0,1944.0,138.0,1569.0,3611.0,,,,-1.31041148230961,-2.97452769394087,-1.51170865280126,,2.092631093798577,,
,9436.0,1552.0,6201.0,1945.0,139.0,1566.0,3626.0,,,,-1.31006769251428,-2.97433818006039,-1.51074831604616,,1.6674799737149044,,
,9433.0,1553.0,6202.0,1944.0,152.0,1557.0,3617.0,,,,-1.30991578076092,-2.97428489909566,-1.51125214272069,,1.2339290267028213,,
,9435.0,1552.0,6203.0,1945.0,143.0,1556.0,3633.0,,,,-1.30928134790851,-2.97434278161484,-1.5102992797382,,0.8017389103244392,,
,9434.0,1552.0,6200.0,1944.0,137.0,1556.0,3633.0,,,,-1.30919678788456,-2.97421999039803,-1.50975324073382,,0.3794863679807513,,
,9433.0,1552.0,6199.0,1945.0,140.0,1557.0,3630.0,,,,-1.30827829333381,-2.97430290173894,-1.50910793847483,,-0.025727947505440434,,
,9432.0,1552.0,6200.0,1944.0,165.0,1564.0,3627.0,,,,-1.30807878859858,-2.97427103934757,-1.50839806155806,,-0.40844159014900067,,
,9435.0,1554.0,6200.0,1947.0,156.0,1586.0,3629.0,,,,-1.30823679704684,-2.97438918631791,-1.50931261550863,,-0.7648708340143077,,
,9434.0,1551.0,6200.0,1945.0,150.0,1579.0,3621.0,,,,-1.3073393190662,-2.9742778275923,-1.50976040562489,,-1.09284668188702,,
,9431.0,1549.0,6198.0,1944.0,140.0,1557.0,3620.0,,,,-1.307740090705,-2.9743379287414,-1.50991579045366,,-1.391666907893089,,
,9426.0,1549.0,6196.0,1943.0,133.0,1555.0,3619.0,,,,-1.30746770609833,-2.97424713226279,-1.51014520507302,,-1.6618830265033053,,
,9432.0,1550.0,6198.0,1947.0,138.0,1546.0,3636.0,,,,-1.30809847110324,-2.97419055172271,-1.5094226027613,,-1.9050361745036386,,
,9429.0,1550.0,6198.0,1947.0,138.0,1543.0,3635.0,,,,-1.30820874042486,-2.97424787044281,-1.50963640785196,,-2.123351009058877,,
,9432.0,1550.0,6197.0,1946.0,146.0,1554.0,3632.0,,,,-1.30787522747275,-2.97423813217218,-1.50894507889453,,-2.3193951533843484,,
,9427.0,1548.0,6198.0,1943.0,145.0,1551.0,3618.0,,,,-1.30734458218092,-2.97428468316493,-1.5092562291524,,-2.4957148692543996,,
,9428.0,1552.0,6201.0,1947.0,156.0,1556.0,3621.0,,,,-1.30778641754304,-2.97422448710293,-1.50977820205577,,-2.6544643788963462,,
,9427.0,1549.0,6203.0,1947.0,138.0,1575.0,3619.0,,,,-1.30921470621933,-2.97441857037233,-1.50944240462718,,-2.797054020488817,,
,9428.0,1548.0,6200.0,1947.0,140.0,1563.0,3629.0,,,,-1.30969964105675,-2.97436688950694,-1.50942801925444,,-2.923848683776225,,
,9426.0,1548.0,6199.0,1945.0,145.0,1551.0,3640.0,,,,-1.31126406952745,-2.97448309796228,-1.5098073522115,,-3.033951000681932,,
,9424.0,1548.0,6203.0,1947.0,165.0,1559.0,3640.0,,,,-1.31170473586756,-2.974415720492,-1.50990825777513,,-3.1251025042394023,,
,9429.0,1546.0,6202.0,1948.0,152.0,1556.0,3633.0,,,,-1.31187406256755,-2.97441848913283,-1.51031109493769,,-3.1937297141320924,,
,9428.0,1548.0,6204.0,1949.0,159.0,1550.0,3639.0,,,,-1.31222065375026,-2.97446480035429,-1.50997135446575,,-3.23515045910356,,
,9426.0,1548.0,6205.0,1947.0,153.0,1545.0,3631.0,,,,-1.31201487806712,-2.97437812308972,-1.50963509939652,,-3.243938873493566,,
,9425.0,1548.0,6207.0,1949.0,151.0,1546.0,3619.0,,,,-1.31231432094792,-2.97421271548474,-1.50898288950564,,-3.2144265340192058,,
,9427.0,1549.0,6209.0,1949.0,162.0,1559.0,3621.0,,,,-1.31259890966855,-2.97429876305865,-1.50860338766241,,-3.1412946933722243,,
,9430.0,1550.0,6209.0,1951.0,164.0,1556.0,3630.0,,,,-1.31258891172668,-2.97429360501581,-1.50772470066257,,-3.0201928088062595,,
,9427.0,1548.0,6208.0,1951.0,152.0,1561.0,3621.0,,,,-1.31175640446668,-2.97431903911809,-1.50813537525472,,-2.8483069253485787,,
,9431.0,1549.0,6209.0,1951.0,153.0,1545.0,3615.0,,,,-1.31243841336065,-2.97430374179579,-1.50899728344016,,-2.6248024014234774,,
,9427.0,1547.0,6210.0,1953.0,149.0,1554.0,3627.0,,,,-1.31224918692601,-2.97435802297565,-1.50923922651864,,-2.351080187295234,,
,9431.0,1548.0,6213.0,1955.0,143.0,1576.0,3630.0,,,,-1.31199957526688,-2.97414032628094,-1.5089851506261,,-2.030811627236688,,
,9431.0,1546.0,6212.0,1953.0,145.0,1555.0,3631.0,,,,-1.31110144999919,-2.9742866358409,-1.50918562167751,,-1.6697481382409396,,
,9430.0,1546.0,6216.0,1952.0,155.0,1561.0,3632.0,,,,-1.3116273747774,-2.97437585050463,-1.50904412176987,,-1.2753331840349234,,
,9433.0,1550.0,6218.0,1955.0,136.0,1556.0,3627.0,,,,-1.31088688204011,-2.97422969026312,-1.5086128381273,,-0.8561697210732591,,
,9434.0,1551.0,6217.0,1955.0,135.0,1542.0,3624.0,,,,-1.31087797660288,-2.9742914239818,-1.50974287728375,,-0.4214131836973105,,
,9434.0,1547.0,6218.0,1955.0,133.0,1555.0,3624.0,,,,-1.31051779253285,-2.97423286250243,-1.50842692753022,,0.01983394157105469,,
,9433.0,1548.0,6216.0,1957.0,162.0,1556.0,3622.0,,,,-1.3102134020865,-2.97415492288568,-1.50882853103364,,0.45905527185777756,,
,9436.0,1548.0,6222.0,1956.0,152.0,1551.0,3622.0,,,,-1.30954970400427,-2.97422524132549,-1.50815625039707,,0.8887263195895881,,
,9439.0,1549.0,6223.0,1958.0,156.0,1545.0,3626.0,,,,-1.30853442632142,-2.97421400615343,-1.50774108328534,,1.3025609495923853,,
,9438.0,1550.0,6222.0,1957.0,161.0,1545.0,3627.0,,,,-1.30878370240838,-2.97416044167478,-1.50753136603058,,1.6955928656594716,,
,9436.0,1549.0,6224.0,1955.0,159.0,1572.0,3634.0,,,,-1.308824590512,-2.97413856694415,-1.50694367131583,,2.0641105107246234,,
,9439.0,1551.0,6227.0,1957.0,140.0,1557.0,3636.0,,,,-1.30868632165551,-2.97410939745557,-1.50715095896166,,2.4054805670849775,,
,9439.0,1553.0,6229.0,1960.0,146.0,1551.0,3635.0,,,,-1.30866399021402,-2.97411395906876,-1.50688779798553,,2.7179027362741066,,
,9440.0,1550.0,6230.0,1959.0,162.0,1554.0,3647.0,,,,-1.30846206525959,-2.97407116962551,-1.50706003290445,,3.000137862091119,,
,9443.0,1551.0,6231.0,1960.0,159.0,1565.0,3625.0,,,,-1.30848491123572,-2.97406615085593,-1.5067586503403,,3.2512456549990274,,
,9444.0,1550.0,6231.0,1959.0,154.0,1564.0,3610.0,,,,-1.30815420890221,-2.97392419118008,-1.50650347962726,,3.4703599765143798,,
,9444.0,1550.0,6233.0,1961.0,153.0,1580.0,3627.0,,,,-1.30739974552486,-2.97400392220373,-1.5069503563371,,3.6565204748293523,,
,9447.0,1552.0,6236.0,1961.0,154.0,1580.0,3627.0,,,,-1.30782162261907,-2.97410883160164,-1.50618450025243,,3.808570217071199,,
,9448.0,1552.0,6237.0,1963.0,157.0,1564.0,3632.0,,,,-1.30768771098642,-2.97420242503983,-1.50661105376798,,3.925120658595994,,
,9451.0,1549.0,6236.0,1961.0,146.0,1559.0,3646.0,,,,-1.30804054325073,-2.97433590268495,-1.50758680259631,,4.0045788464048595,,
,9452.0,1551.0,6238.0,1962.0,148.0,1559.0,3636.0,,,,-1.30906085434522,-2.97409999728017,-1.50775800465983,,4.045228128375974,,
,9451.0,1551.0,6236.0,1959.0,135.0,1571.0,3629.0,,,,-1.3091649181519,-2.97435008434309,-1.50832395180451,,4.045353041106858,,
,9449.0,1550.0,6237.0,1958.0,144.0,1586.0,3631.0,,,,-1.30910306939078,-2.97428616739565,-1.50860383347387,,4.003400214977406,,
,9449.0,1547.0,6233.0,1946.0,147.0,1579.0,3621.0,,,,-1.30952720390889,-2.97434882127163,-1.50973407831276,,3.91816753546325,,
,9446.0,1545.0,6229.0,1942.0,134.0,1584.0,3618.0,,,,-1.31010376578796,-2.97426343073625,-1.51017302922318,,3.789011310402347,,
,9441.0,1546.0,6226.0,1940.0,133.0,1568.0,3624.0,,,,-1.31009668816762,-2.97435391589129,-1.51047889605722,,3.6160559220962054,,
,9437.0,1542.0,6221.0,1937.0,130.0,1550.0,3626.0,,,,-1.31021334545877,-2.97428072116376,-1.51052286769527,,3.4003847082004026,,
,9431.0,1541.0,6215.0,1931.0,140.0,1545.0,3626.0,,,,-1.31026065874061,-2.97431525510471,-1.5114850538789,,3.1441873311801296,,
,9425.0,1539.0,6207.0,1930.0,138.0,1533.0,3627.0,,,,-1.31147007421937,-2.9744880721742,-1.511500379581,,2.8508392003216985,,
,9421.0,1538.0,6204.0,1931.0,140.0,1546.0,3614.0,,,,-1.31146990401977,-2.97437665193036,-1.51278640379373,,2.5248928459259408,,
,9414.0,1535.0,6194.0,1929.0,139.0,1547.0,3629.0,,,,-1.31243697899507,-2.97449394628324,-1.51314950710073,,2.1719691217243233,,
,9410.0,1532.0,6189.0,1929.0,134.0,1542.0,3626.0,,,,-1.31279387410822,-2.9744560993436,-1.51431485185805,,1.7985470869596343,,
,9405.0,1532.0,6183.0,1929.0,130.0,1550.0,3620.0,,,,-1.31304392497532,-2.97449865668197,-1.51465067029177,,1.4116644622040173,,
,9397.0,1530.0,6178.0,1928.0,137.0,1566.0,3626.0,,,,-1.31354817814086,-2.97472964567208,-1.51580693981677,,1.018554272776243,,
,9396.0,1530.0,6174.0,1926.0,133.0,1573.0,3627.0,,,,-1.31441057202354,-2.97458400168885,-1.5160925252109,,0.6262555016172772,,
,9390.0,1528.0,6173.0,1928.0,130.0,1566.0,3628.0,,,,-1.31474874097541,-2.97464543894523,-1.51689556022085,,0.24124306033367315,,
,9387.0,1528.0,6168.0,1928.0,134.0,1558.0,3614.0,,,,-1.31520249150364,-2.97470492802424,-1.51691489156882,,-0.13087809563297126,,
,9382.0,1527.0,6165.0,1929.0,140.0,1552.0,3626.0,,,,-1.31479042286557,-2.97471163214366,-1.51714777618768,,-0.48557946796392054,,
,9378.0,1526.0,6164.0,1930.0,143.0,1550.0,3619.0,,,,-1.31538584460185,-2.97483634227727,-1.51772866156452,,-0.8194974336908062,,
,9377.0,1524.0,6163.0,1929.0,140.0,1547.0,3623.0,,,,-1.31478294249714,-2.97483269221645,-1.51767335120737,,-1.1304041390828397,,
,9375.0,1523.0,6162.0,1928.0,139.0,1545.0,3631.0,,,,-1.31473868234334,-2.97480125277599,-1.51837402822888,,-1.4170791885152059,,
,9373.0,1522.0,6159.0,1930.0,142.0,1554.0,3615.0,,,,-1.31551608332261,-2.97462791076603,-1.51886367916735,,-1.6791137105849316,,
,9371.0,1523.0,6159.0,1928.0,148.0,1548.0,3626.0,,,,-1.31435235480694,-2.97486971864369,-1.51882749285607,,-1.916685502146077,,
,9367.0,1524.0,6158.0,1929.0,149.0,1546.0,3625.0,,,,-1.31428124971045,-2.97476841816768,-1.51912013285037,,-2.130344398413015,,
,9363.0,1519.0,6154.0,1927.0,163.0,1554.0,3623.0,,,,-1.31534186650367,-2.97482368178632,-1.51958294176956,,-2.320841104783149,,
,9364.0,1520.0,6153.0,1930.0,147.0,1553.0,3627.0,,,,-1.3152918002251,-2.97471067123205,-1.51968861455065,,-2.4890213799074266,,
,9362.0,1522.0,6153.0,1930.0,161.0,1553.0,3620.0,,,,-1.3154255095053,-2.974793539863,-1.52050110228085,,-2.6357921248745346,,
,9359.0,1520.0,6152.0,1928.0,156.0,1547.0,3622.0,,,,-1.31558183269852,-2.97479016058538,-1.52053990251946,,-2.7621487059460947,,
,9356.0,1519.0,6152.0,1927.0,148.0,1562.0,3618.0,,,,-1.31525968944361,-2.97482977510415,-1.52009332530352,,-2.869236817999028,,
,9354.0,1518.0,6148.0,1928.0,140.0,1564.0,3596.0,,,,-1.31518468503217,-2.97484691267808,-1.51976180410229,,-2.9584114251956457,,
,9356.0,1519.0,6150.0,1929.0,131.0,1564.0,3599.0,,,,-1.31508479868544,-2.9748160025199,-1.51992629827578,,-3.0312535008213524,,
,9349.0,1518.0,6150.0,1933.0,138.0,1560.0,3627.0,,,,-1.31486162230957,-2.97483803529561,-1.5193409647995,,-3.08951381794512,,
,9347.0,1517.0,6151.0,1930.0,148.0,1542.0,3644.0,,,,-1.31389724557951,-2.97478368001938,-1.51901295618923,,-3.1349700167472805,,
,9346.0,1514.0,6147.0,1931.0,144.0,1536.0,3638.0,,,,-1.31326532911887,-2.97466787403905,-1.51736399462331,,-3.169204329035806,,
,9345.0,1516.0,6148.0,1931.0,144.0,1543.0,3634.0,,,,-1.3128300290076,-2.97473462678274,-1.51825895261138,,-3.1933299383616456,,
,9348.0,1517.0,6150.0,1933.0,153.0,1556.0,3633.0,,,,-1.31293417150111,-2.97465180754111,-1.51745403540035,,-3.2077101135554678,,
,9345.0,1515.0,6148.0,1933.0,148.0,1561.0,3631.0,,,,-1.31138000183535,-2.97454544230335,-1.51702163013289,,-3.2117231626271447,,
,9346.0,1514.0,6145.0,1932.0,151.0,1568.0,3618.0,,,,-1.31167835400381,-2.97456011422538,-1.51669422944931,,-3.2036259663838718,,
,9344.0,1516.0,6146.0,1932.0,157.0,1575.0,3616.0,,,,-1.3123545434963,-2.97455991579612,-1.51657648420599,,-3.1805584782067875,,
,9343.0,1514.0,6148.0,1932.0,161.0,1552.0,3611.0,,,,-1.31178205753208,-2.97458765482862,-1.51735780619798,,-3.138711799913399,,
,9342.0,1514.0,6148.0,1933.0,157.0,1567.0,3615.0,,,,-1.31070451277215,-2.97448472376073,-1.51726793310026,,-3.073655845427529,,
,9341.0,1512.0,6147.0,1929.0,162.0,1575.0,3613.0,,,,-1.31056704557749,-2.97455060685865,-1.51680757003836,,-2.9807937319172337,,
,9339.0,1513.0,6147.0,1932.0,151.0,1555.0,3633.0,,,,-1.30947274561454,-2.97452850262748,-1.51644419090551,,-2.855885046911819,,
,9341.0,1515.0,6149.0,1933.0,150.0,1559.0,3639.0,,,,-1.30946999227842,-2.97443806497276,-1.51670436585929,,-2.6955652387791593,,
,9342.0,1512.0,6149.0,1933.0,147.0,1558.0,3635.0,,,,-1.30920225103947,-2.9746460322074,-1.51664694113204,,-2.4977872438343187,,
,9341.0,1514.0,6147.0,1933.0,146.0,1560.0,3623.0,,,,-1.30957894781884,-2.9745038696565,-1.51615633457693,,-2.2621237111982406,,
,9336.0,1511.0,6145.0,1929.0,146.0,1537.0,3625.0,,,,-1.30898834933529,-2.97461801644101,-1.51690600362049,,-1.9898903413023712,,
,9340.0,1512.0,6146.0,1931.0,138.0,1547.0,3634.0,,,,-1.30967685477938,-2.97463251318668,-1.51611747061392,,-1.6840784612557238,,
,9338.0,1513.0,6147.0,1933.0,139.0,1549.0,3630.0,,,,-1.30995808372484,-2.9745695325813,-1.51685865785955,,-1.3491137448411872,,
,9340.0,1512.0,6147.0,1933.0,138.0,1562.0,3623.0,,,,-1.31052287149359,-2.97453050879156,-1.51603229594789,,-0.9904837758583431,,
,9335.0,1511.0,6147.0,1932.0,141.0,1561.0,3620.0,,,,-1.31135252143981,-2.97462765696005,-1.51726483582274,,-0.614295707277232,,
,9335.0,1510.0,6144.0,1932.0,152.0,1575.0,3626.0,,,,-1.31188263843679,-2.97467005141321,-1.51775036481928,,-0.22683291763741106,,
,9337.0,1512.0,6147.0,1935.0,156.0,1557.0,3633.0,,,,-1.31318023423186,-2.97488769096699,-1.51775035044973,,0.1658254945567067,,
,9337.0,1511.0,6149.0,1935.0,156.0,1547.0,3633.0,,,,-1.31344676559816,-2.97473806694527,-1.51817220871577,,0.5580752416523667,,
,9334.0,1510.0,6148.0,1932.0,152.0,1549.0,3632.0,,,,-1.31424307050125,-2.97478743341012,-1.5189468755715,,0.944924540151378,,
2025-08-19 20:51:06,9334.0,1509.0,6148.0,1934.0,163.0,1570.0,3616.0,,,2025/08/19 08:51:06 PM,-1.3146826802702,-2.97471889088516,-1.51862388997048,,1.3220018186480842,,
,9334.0,1510.0,6149.0,1936.0,151.0,1586.0,3617.0,,,,-1.31543003760896,-2.97466876792652,-1.5176397117828,,1.685457370767288,,
,9337.0,1511.0,6151.0,1937.0,140.0,1575.0,3617.0,,,,-1.31537016795621,-2.97476071941953,-1.51752989990056,,2.0317956730949334,,
,9334.0,1510.0,6151.0,1936.0,137.0,1558.0,3627.0,,,,-1.31462265334137,-2.97463248391162,-1.51702119563744,,2.3576792924099665,,
,9335.0,1508.0,6153.0,1934.0,135.0,1553.0,3628.0,,,,-1.31494254501661,-2.97460968834913,-1.51715495931999,,2.6597429003481237,,
,9336.0,1511.0,6153.0,1936.0,151.0,1564.0,3627.0,,,,-1.31460084529243,-2.97467370118428,-1.51663365238974,,2.934449296524441,,
,9334.0,1510.0,6155.0,1936.0,150.0,1564.0,3621.0,,,,-1.31523725570132,-2.97475348357818,-1.51766783781809,,3.178010264788303,,
,9334.0,1510.0,6155.0,1936.0,143.0,1561.0,3627.0,,,,-1.31394438126652,-2.97475938578431,-1.51673899025263,,3.386384785786965,,
,9338.0,1508.0,6155.0,1936.0,137.0,1559.0,3621.0,,,,-1.31437363445566,-2.97465605781195,-1.5169910632128,,3.555356936111564,,
,9337.0,1509.0,6157.0,1938.0,149.0,1543.0,3622.0,,,,-1.31434816948947,-2.97467659842774,-1.51717944893157,,3.680687311665592,,
,9339.0,1508.0,6161.0,1938.0,153.0,1545.0,3630.0,,,,-1.31403489698501,-2.97458195206754,-1.51713383788278,,3.758326237910741,,
,9337.0,1509.0,6159.0,1940.0,144.0,1539.0,3632.0,,,,-1.31379168128212,-2.97466297079265,-1.51623501939424,,3.7846742076712863,,
,9339.0,1508.0,6163.0,1940.0,141.0,1548.0,3639.0,,,,-1.31272113478192,-2.97475912665847,-1.51509259256706,,3.75687303643415,,
,9342.0,1510.0,6164.0,1940.0,152.0,1565.0,3633.0,,,,-1.31262606569228,-2.97459535836778,-1.51538924257799,,3.673107834887923,,
,9341.0,1510.0,6166.0,1943.0,168.0,1543.0,3642.0,,,,-1.31190293883001,-2.97453469118985,-1.51540317839738,,3.532894511262026,,
,9344.0,1511.0,6165.0,1940.0,164.0,1540.0,3638.0,,,,-1.31148234406138,-2.97450542328007,-1.51443980292339,,3.3373221684543664,,
,9340.0,1507.0,6165.0,1942.0,154.0,1550.0,3639.0,,,,-1.31091300861577,-2.97455629026559,-1.51448257509577,,3.0892175798266788,,
,9344.0,1508.0,6169.0,1942.0,132.0,1556.0,3620.0,,,,-1.31065071372865,-2.97455039637551,-1.51411523939445,,2.7932018633725932,,
,9344.0,1510.0,6173.0,1942.0,138.0,1548.0,3633.0,,,,-1.31047469819176,-2.97462644702223,-1.51407489621467,,2.4556174385999654,,
,9348.0,1510.0,6173.0,1943.0,145.0,1542.0,3630.0,,,,-1.31038824330688,-2.97437217397968,-1.51423617740184,,2.0843150913112765,,
,9348.0,1508.0,6174.0,1943.0,146.0,1559.0,3613.0,,,,-1.31021435489322,-2.97456474911796,-1.5134633914097,,1.688305231826794,,
,9347.0,1510.0,6175.0,1943.0,127.0,1567.0,3626.0,,,,-1.31001911914585,-2.97441237193051,-1.51399268754417,,1.2772931885817513,,
,9349.0,1512.0,6178.0,1945.0,146.0,1564.0,3626.0,,,,-1.31004155319109,-2.97447497931906,-1.51369440786619,,0.8611343173510572,,
,9351.0,1509.0,6181.0,1945.0,146.0,1564.0,3627.0,,,,-1.30950831609127,-2.9744267724405,-1.51293850363302,,0.44925862402375755,,
,9353.0,1512.0,6181.0,1946.0,144.0,1553.0,3634.0,,,,-1.30924741474344,-2.97438584330586,-1.51243670277046,,0.05012329104502784,,
,9354.0,1512.0,6182.0,1944.0,132.0,1538.0,3633.0,,,,-1.30898440987032,-2.97436622927771,-1.51161918311599,,-0.32924827082832225,,
,9355.0,1509.0,6185.0,1948.0,149.0,1540.0,3637.0,,,,-1.30808549316616,-2.97428389043329,-1.51176800392739,,-0.683591814519382,,
,9359.0,1514.0,6187.0,1949.0,154.0,1547.0,3624.0,,,,-1.30833461598414,-2.97438346875483,-1.51207861063917,,-1.0095607318984858,,
,9359.0,1515.0,6185.0,1949.0,142.0,1551.0,3614.0,,,,-1.30747174898306,-2.97444312023227,-1.51269634949269,,-1.3057079519150436,,
,9359.0,1512.0,6185.0,1946.0,155.0,1551.0,3623.0,,,,-1.30857315409387,-2.97444274466381,-1.51283720977776,,-1.5723030270171239,,
,9363.0,1510.0,6189.0,1950.0,154.0,1546.0,3616.0,,,,-1.31004431008912,-2.97443095098339,-1.51405039083349,,-1.8110142447207276,,
,9364.0,1514.0,6193.0,1950.0,141.0,1543.0,3625.0,,,,-1.30998082103849,-2.97458692075727,-1.51511254119997,,-2.0244986121773145,,
,9366.0,1511.0,6191.0,1950.0,139.0,1561.0,3632.0,,,,-1.31065410804287,-2.97444538199409,-1.51411464183561,,-2.2159496167532486,,
,9367.0,1513.0,6194.0,1953.0,145.0,1551.0,3641.0,,,,-1.31093948262076,-2.97451501270512,-1.51472231629631,,-2.3886532578364723,,
,9366.0,1512.0,6194.0,1951.0,145.0,1565.0,3633.0,,,,-1.31021944659592,-2.97456396286123,-1.51492134889978,,-2.545596863168849,,
,9369.0,1514.0,6194.0,1948.0,139.0,1550.0,3614.0,,,,-1.31066241263867,-2.97443323058148,-1.51534477232704,,-2.6891632087571553,,
,9370.0,1512.0,6193.0,1941.0,137.0,1552.0,3610.0,,,,-1.31095249151592,-2.97453375102283,-1.51517657825621,,-2.8209261504484053,,
,9367.0,1509.0,6190.0,1935.0,147.0,1552.0,3609.0,,,,-1.31074494806646,-2.97457581605287,-1.51453382358878,,-2.941546606629966,,
,9361.0,1509.0,6186.0,1931.0,149.0,1557.0,3618.0,,,,-1.31107258945224,-2.9745194346727,-1.51430774754006,,-3.0507536544422846,,
,9358.0,1507.0,6181.0,1925.0,156.0,1553.0,3639.0,,,,-1.3108548548449,-2.97445544294207,-1.51514911633686,,-3.1473882876611246,,
,9354.0,1506.0,6177.0,1924.0,150.0,1552.0,3633.0,,,,-1.31034256792256,-2.9746704436129,-1.51502804979685,,-3.229487885415312,,
,9346.0,1503.0,6171.0,1924.0,151.0,1550.0,3626.0,,,,-1.30990085903958,-2.97457884207096,-1.5149832074162,,-3.294395610358719,,
,9343.0,1500.0,6164.0,1918.0,148.0,1564.0,3622.0,,,,-1.31050257668303,-2.97452573809141,-1.51521481884226,,-3.3388873969748207,,
,9338.0,1499.0,6160.0,1919.0,142.0,1558.0,3618.0,,,,-1.31051777748443,-2.97447885452369,-1.51585804266546,,-3.359316893874523,,
,9332.0,1500.0,6156.0,1920.0,155.0,1554.0,3648.0,,,,-1.31084383628709,-2.97451332510452,-1.51571560229355,,-3.351783831282968,,
,9326.0,1496.0,6148.0,1920.0,145.0,1553.0,3634.0,,,,-1.31073955301362,-2.97461560006702,-1.5161014316652,,-3.3123328822854177,,
,9319.0,1493.0,6144.0,1919.0,136.0,1571.0,3633.0,,,,-1.31069678021539,-2.9746530962106,-1.51607458160179,,-3.23718772713174,,
,9315.0,1495.0,6142.0,1917.0,140.0,1576.0,3641.0,,,,-1.31168034760106,-2.97463014967947,-1.51680087045341,,-3.1230186538551608,,
,9315.0,1492.0,6141.0,1919.0,144.0,1580.0,3631.0,,,,-1.3115551979133,-2.9747691280342,-1.51735148783671,,-2.967232271049515,,
,9309.0,1492.0,6137.0,1917.0,138.0,1555.0,3628.0,,,,-1.31130989275754,-2.9745636888272,-1.51724055892861,,-2.7682604309554635,,
,9307.0,1488.0,6132.0,1918.0,142.0,1547.0,3624.0,,,,-1.31170124109261,-2.97459632152636,-1.51707325461937,,-2.525815126817314,,
,9303.0,1489.0,6132.0,1919.0,139.0,1537.0,3613.0,,,,-1.31127308859247,-2.97463480363152,-1.51749996735885,,-2.241070778466983,,
,9303.0,1489.0,6132.0,1920.0,144.0,1539.0,3612.0,,,,-1.31075219098232,-2.97455221763985,-1.51716914263331,,-1.916738519866785,,
,9300.0,1488.0,6128.0,1917.0,148.0,1536.0,3613.0,,,,-1.31107828715137,-2.97474967247751,-1.51794577217927,,-1.5570099893860712,,
,9296.0,1487.0,6126.0,1920.0,148.0,1534.0,3628.0,,,,-1.31044299948585,-2.97459781558071,-1.51743699411407,,-1.1673681032717624,,
,9295.0,1486.0,6125.0,1919.0,147.0,1546.0,3616.0,,,,-1.31101758129696,-2.97466948374364,-1.51776499960822,,-0.754284098130478,,
,9295.0,1485.0,6123.0,1919.0,158.0,1548.0,3626.0,,,,-1.31084734977714,-2.97457151213946,-1.51845561040272,,-0.3248384311337698,,
,9293.0,1485.0,6125.0,1920.0,160.0,1558.0,3628.0,,,,-1.31056970768183,-2.97466423066321,-1.51750966819303,,0.11368542613564576,,
,9291.0,1484.0,6123.0,1920.0,147.0,1547.0,3630.0,,,,-1.31106756410737,-2.9747170405773,-1.51809303353779,,0.5541817745464024,,
,9289.0,1485.0,6122.0,1919.0,145.0,1546.0,3629.0,,,,-1.31082461900464,-2.97471900145046,-1.51806744305813,,0.9900298040785904,,
,9289.0,1484.0,6120.0,1919.0,151.0,1565.0,3618.0,,,,-1.31087071083387,-2.974633453472,-1.51861002763076,,1.415290197414668,,
,9286.0,1485.0,6121.0,1919.0,148.0,1565.0,3626.0,,,,-1.31106640177019,-2.9747059631974,-1.51840504153949,,1.8247719387591221,,
,9287.0,1485.0,6120.0,1920.0,139.0,1560.0,3622.0,,,,-1.31085805930225,-2.97467133947317,-1.51752451608493,,2.2139719985850532,,
,9281.0,1483.0,6116.0,1921.0,146.0,1547.0,3625.0,,,,-1.31010820780394,-2.97464899746289,-1.51795141104281,,2.5789137645709106,,
,9282.0,1482.0,6116.0,1920.0,156.0,1545.0,3639.0,,,,-1.31007469946438,-2.97459629976816,-1.51748220922228,,2.9159297858888418,,
,9284.0,1483.0,6118.0,1923.0,152.0,1544.0,3630.0,,,,-1.30909645429316,-2.97459709762349,-1.51707071752272,,3.2214453235799234,,
,9285.0,1484.0,6120.0,1923.0,147.0,1538.0,3626.0,,,,-1.30932336414166,-2.97450114826381,-1.5163739265432,,3.4918179603260913,,
,9281.0,1481.0,6117.0,1920.0,156.0,1557.0,3621.0,,,,-1.30852655342469,-2.97457443522697,-1.51560187733051,,3.7232755138516858,,
,9282.0,1482.0,6118.0,1922.0,157.0,1552.0,3626.0,,,,-1.30773059684274,-2.97447509907994,-1.51569017057546,,3.9119735673116374,,
,9281.0,1483.0,6121.0,1923.0,154.0,1583.0,3629.0,,,,-1.30881176823588,-2.97447119121193,-1.51528280706302,,4.05417020125574,,
,9282.0,1483.0,6119.0,1925.0,147.0,1560.0,3634.0,,,,-1.30884187350616,-2.97447794515948,-1.5165165307603,,4.146493384168424,,
,9282.0,1480.0,6118.0,1924.0,144.0,1549.0,3633.0,,,,-1.30861723314704,-2.97457001944611,-1.51661855576223,,4.186259103008374,,
,9280.0,1479.0,6119.0,1921.0,149.0,1580.0,3618.0,,,,-1.30810287469707,-2.97448365553274,-1.51719811675103,,4.1717880819010125,,
,9282.0,1482.0,6121.0,1925.0,140.0,1559.0,3621.0,,,,-1.30868948871162,-2.97450763971319,-1.51716656468007,,4.102667738492855,,
,9283.0,1481.0,6120.0,1925.0,142.0,1557.0,3626.0,,,,-1.30767619357121,-2.97447222430731,-1.51707262498791,,3.979914773880786,,
,9281.0,1481.0,6121.0,1924.0,145.0,1569.0,3605.0,,,,-1.30809699986671,-2.97454120255864,-1.51671407890684,,3.806011578645525,,
,9280.0,1480.0,6120.0,1924.0,141.0,1548.0,3634.0,,,,-1.30785037372567,-2.97440496619844,-1.51695349341612,,3.5848130601332,,
,9283.0,1480.0,6121.0,1924.0,143.0,1539.0,3655.0,,,,-1.30807999482301,-2.97449405217266,-1.51661019908147,,3.321343724289756,,
,9281.0,1480.0,6122.0,1924.0,145.0,1541.0,3636.0,,,,-1.30767721315412,-2.97453940504422,-1.51739296707254,,3.0215214068911607,,
,9281.0,1482.0,6122.0,1922.0,150.0,1544.0,3632.0,,,,-1.30812484616639,-2.97451100445232,-1.51654253172637,,2.6918499821131348,,
,9281.0,1479.0,6120.0,1925.0,153.0,1547.0,3626.0,,,,-1.30843263375175,-2.97450545503887,-1.5169499113717,,2.3391191496392905,,
,9282.0,1481.0,6122.0,1924.0,149.0,1549.0,3628.0,,,,-1.30802980818428,-2.974516531319,-1.51641203872539,,1.9701387476456578,,
,9279.0,1479.0,6121.0,1925.0,145.0,1545.0,3624.0,,,,-1.3096206600987,-2.97469586851741,-1.51702892824971,,1.59152218152549,,
,9283.0,1482.0,6120.0,1925.0,141.0,1554.0,3620.0,,,,-1.31139936040541,-2.97474314750013,-1.51794429041806,,1.2095214484566652,,
,9279.0,1477.0,6120.0,1923.0,144.0,1575.0,3617.0,,,,-1.31230515712942,-2.97487230406508,-1.51933221575205,,0.8299065383381921,,
,9279.0,1481.0,6122.0,1922.0,148.0,1548.0,3633.0,,,,-1.31371731122153,-2.97488163193049,-1.52019153320874,,0.4578757708841267,,
,9279.0,1479.0,6122.0,1925.0,155.0,1558.0,3633.0,,,,-1.31527560139513,-2.97485371425934,-1.52072113977438,,0.0979816977326804,,
,9281.0,1481.0,6123.0,1925.0,149.0,1559.0,3637.0,,,,-1.31593124767887,-2.97496335102546,-1.52078953339191,,-0.2459400218340584,,
,9282.0,1481.0,6123.0,1928.0,138.0,1548.0,3632.0,,,,-1.31639676349463,-2.97492236940319,-1.52091572858775,,-0.5708441038454977,,
,9283.0,1480.0,6124.0,1928.0,142.0,1555.0,3632.0,,,,-1.31647520975065,-2.97489255228513,-1.52083458107904,,-0.8745463720841228,,
,9286.0,1478.0,6124.0,1925.0,167.0,1558.0,3623.0,,,,-1.31625786896678,-2.97491795570645,-1.51949299360914,,-1.155775832263679,,
,9284.0,1480.0,6124.0,1929.0,155.0,1559.0,3627.0,,,,-1.31603932431957,-2.97496373377301,-1.51954902135309,,-1.4141850177899307,,
,9284.0,1478.0,6130.0,1928.0,149.0,1556.0,3626.0,,,,-1.31633573950746,-2.97499977959703,-1.52011091965802,,-1.6502953955458872,,
,9284.0,1478.0,6128.0,1928.0,157.0,1560.0,3602.0,,,,-1.3167689520277,-2.97502956825771,-1.52072019899847,,-1.8653622315944256,,
,9287.0,1481.0,6131.0,1931.0,145.0,1583.0,3621.0,,,,-1.31676137379769,-2.97498113180493,-1.52098810120751,,-2.061156420348579,,
,9288.0,1483.0,6132.0,1929.0,137.0,1556.0,3621.0,,,,-1.31763515122793,-2.97499197696924,-1.52088843987945,,-2.239675726524178,,
,9286.0,1479.0,6131.0,1927.0,141.0,1554.0,3622.0,,,,-1.31752369669769,-2.97502712488554,-1.5223771061525,,-2.40281145311849,,
,9288.0,1481.0,6133.0,1930.0,148.0,1566.0,3621.0,,,,-1.31761428672565,-2.97500050254946,-1.52080998444255,,-2.552006625542571,,
,9287.0,1479.0,6135.0,1929.0,143.0,1577.0,3635.0,,,,-1.31694333696659,-2.97498575162366,-1.52236331707976,,-2.687947141146045,,
,9291.0,1481.0,6139.0,1931.0,135.0,1561.0,3634.0,,,,-1.31661078655338,-2.97504061455203,-1.52059406900094,,-2.810327207516981,,
,9290.0,1481.0,6138.0,1931.0,142.0,1545.0,3635.0,,,,-1.31539822319639,-2.97494535117361,-1.52076713413467,,-2.9177243498307432,,
,9292.0,1480.0,6139.0,1931.0,169.0,1541.0,3619.0,,,,-1.3157088253464,-2.97492947704696,-1.52030635563048,,-3.0076073640966605,,
,9293.0,1481.0,6138.0,1933.0,158.0,1561.0,3620.0,,,,-1.31534257985585,-2.97484398892562,-1.52090145647567,,-3.076483706603637,,
,9296.0,1481.0,6141.0,1933.0,172.0,1568.0,3652.0,,,,-1.31489461588495,-2.97483459098518,-1.52054857475798,,-3.1201731063915283,,
,9298.0,1481.0,6141.0,1935.0,171.0,1575.0,3652.0,,,,-1.31428969316245,-2.9748743849441,-1.52057504291663,,-3.1341753199603835,,
,9295.0,1481.0,6143.0,1934.0,145.0,1584.0,3635.0,,,,-1.31497813069081,-2.97498132393168,-1.51985719212833,,-3.1140862042583555,,
,9301.0,1483.0,6147.0,1934.0,152.0,1565.0,3620.0,,,,-1.315094386457,-2.9749699715847,-1.5214613436576,,-3.0560107218010253,,
,9301.0,1481.0,6146.0,1934.0,141.0,1551.0,3623.0,,,,-1.31574665151454,-2.97506636884805,-1.52127690177205,,-2.956924499003765,,
,9304.0,1483.0,6152.0,1936.0,134.0,1566.0,3638.0,,,,-1.31562771202824,-2.97485814270528,-1.52178472499067,,-2.8149452260451224,,
,9306.0,1484.0,6153.0,1937.0,135.0,1571.0,3637.0,,,,-1.31602975690898,-2.97491860569585,-1.52232459905026,,-2.629489000805212,,
,9306.0,1482.0,6150.0,1934.0,129.0,1578.0,3640.0,,,,-1.3163392248191,-2.97504492245628,-1.52135293553316,,-2.401302792691909,,
,9306.0,1481.0,6153.0,1937.0,150.0,1550.0,3627.0,,,,-1.31636039443971,-2.975116617637,-1.52257518516121,,-2.132381098157591,,
,9309.0,1487.0,6154.0,1937.0,155.0,1552.0,3616.0,,,,-1.31580181574145,-2.97493399906493,-1.52204980378795,,-1.8257907691742534,,
,9311.0,1484.0,6155.0,1940.0,149.0,1554.0,3630.0,,,,-1.31508915055273,-2.97487412234253,-1.52163381600977,,-1.485440414797821,,
,9311.0,1485.0,6156.0,1937.0,133.0,1545.0,3633.0,,,,-1.3146930159825,-2.97485025046045,-1.52089218199005,,-1.11583695693561,,
,9312.0,1485.0,6157.0,1942.0,145.0,1554.0,3634.0,,,,-1.31391783845449,-2.97495903376914,-1.52037258160692,,-0.7218697641179107,,
,9312.0,1487.0,6161.0,1941.0,136.0,1550.0,3624.0,,,,-1.31382633480089,-2.97483388109027,-1.52053147432331,,-0.30865197667719063,,
,9317.0,1489.0,6163.0,1941.0,125.0,1544.0,3624.0,,,,-1.31430520618294,-2.97473927643087,-1.52032914621208,,0.1185683333274179,,
,9316.0,1486.0,6164.0,1941.0,121.0,1547.0,3630.0,,,,-1.31510968110722,-2.97492953153041,-1.52008494984237,,0.5544325571459882,,
,9316.0,1486.0,6164.0,1942.0,137.0,1555.0,3641.0,,,,-1.31532007565572,-2.97498079340395,-1.52117137055525,,0.9934504859325216,,
,9324.0,1486.0,6169.0,1944.0,124.0,1580.0,3632.0,,,,-1.31563567779143,-2.97475506460848,-1.52133061248879,,1.4299589254731089,,
,9323.0,1489.0,6170.0,1944.0,132.0,1571.0,3629.0,,,,-1.31543674030972,-2.97501567431448,-1.52110298983053,,1.8580843803831035,,
,9326.0,1488.0,6168.0,1941.0,144.0,1570.0,3630.0,,,,-1.31531678205001,-2.9749534104121,-1.52106141903015,,2.271729218251165,,
,9328.0,1489.0,6170.0,1941.0,151.0,1557.0,3625.0,,,,-1.31596319514042,-2.97492983995066,-1.52177209997051,,2.6645940997057673,,
,9329.0,1487.0,6175.0,1945.0,144.0,1550.0,3624.0,,,,-1.31529540098596,-2.97489506132433,-1.52123486105739,,3.030242698197173,,
,9331.0,1491.0,6174.0,1944.0,144.0,1546.0,3619.0,,,,-1.31480968090423,-2.97491085632447,-1.52175002485669,,3.3622085555841044,,
,9335.0,1489.0,6173.0,1944.0,145.0,1553.0,3622.0,,,,-1.31496127785401,-2.97491473594514,-1.5209540459701,,3.654138952819844,,
,9332.0,1488.0,6171.0,1942.0,140.0,1569.0,3621.0,,,,-1.31547016569544,-2.97483177781337,-1.52036177686299,,3.8999677135750517,,
2025-08-19 20:51:07,9336.0,1488.0,6168.0,1937.0,138.0,1547.0,3634.0,,,2025/08/19 08:51:07 PM,-1.31511423760968,-2.97483319203174,-1.51991732436382,,4.094108521244749,,
,9336.0,1488.0,6167.0,1930.0,119.0,1554.0,3636.0,,,,-1.3148920035707,-2.97484102451931,-1.5205415930201,,4.23166231877288,,
,9334.0,1486.0,6165.0,1927.0,130.0,1560.0,3626.0,,,,-1.31480015514395,-2.97476873488178,-1.52181859259391,,4.3086348143914215,,
,9329.0,1486.0,6160.0,1923.0,145.0,1569.0,3620.0,,,,-1.31460760712327,-2.97484502644828,-1.52040239218711,,4.322160082295129,,
,9324.0,1481.0,6155.0,1918.0,152.0,1562.0,3624.0,,,,-1.31635201954047,-2.97489811184352,-1.52096700788568,,4.270721752177031,,
,9318.0,1482.0,6149.0,1917.0,142.0,1567.0,3628.0,,,,-1.31493985931282,-2.97494345730253,-1.52126341232638,,4.154355321191656,,
,9314.0,1478.0,6146.0,1915.0,142.0,1552.0,3628.0,,,,-1.31499124153395,-2.97497768989257,-1.52020172839663,,3.9748073282815954,,
,9309.0,1478.0,6142.0,1916.0,126.0,1542.0,3620.0,,,,-1.31508997508849,-2.97485772719826,-1.52120261345435,,3.735623356332608,,
,9306.0,1475.0,6138.0,1912.0,152.0,1537.0,3620.0,,,,-1.31406039650231,-2.97491467674544,-1.52055120457886,,3.442138954543383,,
,9303.0,1475.0,6133.0,1915.0,161.0,1556.0,3627.0,,,,-1.31475166021227,-2.97495577067455,-1.52142415166767,,3.1013551590290853,,
,9298.0,1475.0,6130.0,1914.0,155.0,1561.0,3624.0,,,,-1.31505114527559,-2.97482212651395,-1.52199200588549,,2.7216917017176403,,
,9295.0,1471.0,6127.0,1915.0,163.0,1547.0,3633.0,,,,-1.31467199095759,-2.97482506911037,-1.52179912161261,,2.3126245968632646,,
,9292.0,1470.0,6123.0,1914.0,152.0,1571.0,3625.0,,,,-1.31513608795511,-2.97495475047709,-1.52267530078368,,1.8842292638007865,,
,9290.0,1472.0,6123.0,1915.0,149.0,1576.0,3624.0,,,,-1.31402577385977,-2.97484770165705,-1.5222590708956,,1.4466643339915572,,
,9290.0,1474.0,6118.0,1918.0,144.0,1567.0,3626.0,,,,-1.3147380556819,-2.97492005170024,-1.52137873887416,,1.009642819223265,,
,9285.0,1472.0,6122.0,1918.0,151.0,1556.0,3626.0,,,,-1.3141392604233,-2.97482080136166,-1.52123767894448,,0.5819435021526125,,
,9285.0,1469.0,6118.0,1914.0,149.0,1566.0,3614.0,,,,-1.31363897784539,-2.97484447011171,-1.52132009028509,,0.17101336679257448,,
,9279.0,1469.0,6115.0,1915.0,150.0,1551.0,3611.0,,,,-1.31411567411353,-2.9747533729359,-1.52120967828718,,-0.2172993596498717,,
,9283.0,1471.0,6115.0,1915.0,144.0,1558.0,3603.0,,,,-1.31301341888967,-2.97478384275048,-1.52081967553725,,-0.5788603695504213,,
,9279.0,1469.0,6117.0,1918.0,139.0,1570.0,3606.0,,,,-1.31316412982261,-2.97470961618813,-1.52010514181486,,-0.9112127875570825,,
,9275.0,1464.0,6111.0,1916.0,142.0,1546.0,3639.0,,,,-1.31296798545224,-2.97483582861233,-1.52079720832149,,-1.2134090950700196,,
,9278.0,1467.0,6115.0,1916.0,149.0,1547.0,3643.0,,,,-1.31220269151251,-2.97485573570472,-1.52069212767854,,-1.4857469019336278,,
,9280.0,1469.0,6114.0,1917.0,141.0,1539.0,3631.0,,,,-1.31223561903303,-2.97472715420005,-1.51936969051487,,-1.7294531477538158,,
,9278.0,1468.0,6113.0,1918.0,138.0,1537.0,3633.0,,,,-1.31176247675044,-2.97477422305171,-1.51838530136215,,-1.9463635779778392,,
,9275.0,1466.0,6112.0,1916.0,141.0,1559.0,3630.0,,,,-1.31164718695762,-2.97472530659846,-1.51938834357667,,-2.138639683004427,,
,9274.0,1465.0,6114.0,1917.0,141.0,1555.0,3629.0,,,,-1.31173147811089,-2.97471200960578,-1.52012933978733,,-2.3085542068324596,,
,9275.0,1466.0,6113.0,1919.0,144.0,1551.0,3630.0,,,,-1.31140297154434,-2.97476361253318,-1.52018777971305,,-2.458360037165953,,
,9277.0,1467.0,6112.0,1919.0,146.0,1553.0,3626.0,,,,-1.31155822802896,-2.97473364244365,-1.51955333161268,,-2.5902381166535586,,
,9276.0,1466.0,6113.0,1920.0,142.0,1553.0,3632.0,,,,-1.31081955459222,-2.97478079900697,-1.51861560202731,,-2.7063017783133776,,
,9276.0,1466.0,6110.0,1919.0,161.0,1548.0,3624.0,,,,-1.31084576442853,-2.97474458247392,-1.51922817053426,,-2.8086223550814635,,
,9276.0,1467.0,6114.0,1921.0,159.0,1545.0,3623.0,,,,-1.31037404956854,-2.97457651038752,-1.5186720694196,,-2.899237800125351,,
,9275.0,1467.0,6116.0,1922.0,160.0,1537.0,3621.0,,,,-1.30961107956999,-2.97464530394109,-1.51859588690516,,-2.980113094316243,,
,9276.0,1466.0,6116.0,1920.0,156.0,1537.0,3621.0,,,,-1.30885969467265,-2.97458940376677,-1.51829316674904,,-3.053035822833582,,
,9276.0,1466.0,6115.0,1922.0,143.0,1551.0,3619.0,,,,-1.30930601403245,-2.97460925836781,-1.51815480806754,,-3.119448254690505,,
,9277.0,1466.0,6115.0,1923.0,135.0,1580.0,3608.0,,,,-1.30907911975179,-2.97452101727031,-1.51760139619955,,-3.1802346410014173,,
,9277.0,1466.0,6121.0,1922.0,136.0,1566.0,3631.0,,,,-1.30850173831608,-2.97458753531299,-1.51827263964786,,-3.2354964709964613,,
,9276.0,1470.0,6118.0,1924.0,147.0,1559.0,3629.0,,,,-1.30827511943018,-2.974563188927,-1.51757726692145,,-3.2843571639380174,,
,9278.0,1466.0,6116.0,1921.0,140.0,1558.0,3632.0,,,,-1.30820301852172,-2.97453480827606,-1.51842467532841,,-3.3248396364039525,,
,9277.0,1467.0,6115.0,1924.0,139.0,1556.0,3624.0,,,,-1.30876142735332,-2.97465087221932,-1.51735596853614,,-3.3538543622110706,,
,9278.0,1469.0,6116.0,1922.0,141.0,1559.0,3627.0,,,,-1.30843862050492,-2.97460431914122,-1.51805634466686,,-3.367321841799832,,
,9275.0,1467.0,6117.0,1920.0,158.0,1559.0,3622.0,,,,-1.30974526260898,-2.97472455640293,-1.51801453193945,,-3.360433092038611,,
,9277.0,1465.0,6117.0,1922.0,149.0,1554.0,3627.0,,,,-1.31032369868908,-2.97471363498588,-1.51911316112476,,-3.328027921135136,,
,9276.0,1466.0,6116.0,1921.0,160.0,1560.0,3630.0,,,,-1.31184890183031,-2.97477335172156,-1.51981193827846,,-3.26504828171625,,
,9276.0,1464.0,6117.0,1922.0,146.0,1563.0,3631.0,,,,-1.31221867729863,-2.9747220807755,-1.52056953644732,,-3.167008525956855,,
,9278.0,1467.0,6115.0,1921.0,152.0,1552.0,3627.0,,,,-1.31287364738303,-2.97483734971996,-1.52096340210577,,-3.0304199600777455,,
,9276.0,1464.0,6117.0,1922.0,163.0,1573.0,3615.0,,,,-1.31352942077917,-2.9747559805148,-1.52165723618165,,-2.8531144238261366,,
,9275.0,1467.0,6116.0,1919.0,152.0,1553.0,3626.0,,,,-1.31557241395552,-2.97472924107694,-1.52286505003919,,-2.634428387310959,,
,9277.0,1466.0,6120.0,1924.0,153.0,1553.0,3628.0,,,,-1.31620185151067,-2.97512369683576,-1.52238909129867,,-2.375231561008855,,
,9276.0,1465.0,6122.0,1924.0,152.0,1542.0,3638.0,,,,-1.31617988205285,-2.97491708445211,-1.5220754846652,,-2.077808420608594,,
,9278.0,1465.0,6121.0,1924.0,144.0,1543.0,3634.0,,,,-1.31673985943839,-2.97483259452091,-1.52138218266797,,-1.7456235879178306,,
,9276.0,1465.0,6120.0,1923.0,146.0,1536.0,3623.0,,,,-1.31687782536133,-2.97493269490856,-1.52194198708745,,-1.3830188579546558,,
,9278.0,1463.0,6121.0,1924.0,135.0,1541.0,3630.0,,,,-1.31712822624592,-2.97496263931386,-1.5221960962741,,-0.9948974418546437,,
,9281.0,1463.0,6123.0,1923.0,140.0,1569.0,3615.0,,,,-1.31735395955336,-2.97500455805547,-1.52110462080464,,-0.5864478650705082,,
,9278.0,1465.0,6125.0,1924.0,141.0,1570.0,3611.0,,,,-1.31749343365257,-2.975042415345,-1.52212857612032,,-0.16294649283781568,,
,9280.0,1463.0,6125.0,1924.0,141.0,1568.0,3616.0,,,,-1.31734650377067,-2.97492111359038,-1.52262661970898,,0.27034299325575945,,
,9277.0,1465.0,6128.0,1925.0,147.0,1554.0,3606.0,,,,-1.3173166431164,-2.97485863255995,-1.52231600400798,,0.7081774973638946,,
,9281.0,1468.0,6131.0,1927.0,140.0,1554.0,3603.0,,,,-1.31744961883632,-2.97499858640391,-1.52259522672649,,1.1452730623379308,,
,9282.0,1465.0,6131.0,1927.0,139.0,1569.0,3608.0,,,,-1.31731243569088,-2.97493961634192,-1.52205988195928,,1.57620847630209,,
,9282.0,1465.0,6132.0,1928.0,150.0,1571.0,3625.0,,,,-1.31630993313838,-2.97497134044843,-1.5217778398515,,1.9953306664385106,,
,9282.0,1465.0,6132.0,1928.0,151.0,1559.0,3625.0,,,,-1.31622369554554,-2.97499276943688,-1.5206134728163,,2.3966938891476137,,
,9284.0,1465.0,6134.0,1927.0,158.0,1558.0,3621.0,,,,-1.31523292607471,-2.97490140627425,-1.52091351417432,,2.7740557058985416,,
,9281.0,1466.0,6134.0,1928.0,171.0,1554.0,3616.0,,,,-1.3142382632471,-2.97479207006038,-1.52013056390566,,3.1209417719265553,,
,9284.0,1466.0,6137.0,1929.0,149.0,1565.0,3619.0,,,,-1.31434119536853,-2.97484709926301,-1.51958437876463,,3.430780223719289,,
,9287.0,1464.0,6139.0,1928.0,140.0,1563.0,3620.0,,,,-1.31404875438072,-2.97468596797612,-1.51828426156917,,3.697096317018703,,
,9288.0,1468.0,6142.0,1930.0,144.0,1565.0,3621.0,,,,-1.31355130547417,-2.97475688622408,-1.51862126712539,,3.9137503361058488,,
,9291.0,1468.0,6141.0,1930.0,161.0,1574.0,3619.0,,,,-1.31373540286681,-2.9745502450476,-1.51866197574443,,4.075197911954916,,
,9290.0,1468.0,6145.0,1930.0,157.0,1563.0,3611.0,,,,-1.31352577469408,-2.97476109414374,-1.51862410786016,,4.1767523650756635,,
,9291.0,1465.0,6144.0,1930.0,146.0,1548.0,3608.0,,,,-1.3133031870079,-2.9746706177163,-1.51793219301908,,4.214832827153073,,
,9295.0,1467.0,6147.0,1933.0,145.0,1559.0,3601.0,,,,-1.31320440046402,-2.97462401180766,-1.5186249619389,,4.18718726199546,,
,9295.0,1469.0,6146.0,1932.0,146.0,1556.0,3611.0,,,,-1.31300842017549,-2.9745876809877,-1.51660700747496,,4.0930828899567695,,
,9296.0,1470.0,6148.0,1935.0,151.0,1557.0,3616.0,,,,-1.31234945079014,-2.97458812860794,-1.51669491856757,,3.933456186762212,,
,9296.0,1469.0,6149.0,1933.0,141.0,1557.0,3629.0,,,,-1.31144630137068,-2.97459895303249,-1.51579871193124,,3.7110116353344225,,
,9299.0,1468.0,6153.0,1935.0,148.0,1543.0,3624.0,,,,-1.31144217108299,-2.97455097500494,-1.51652887407889,,3.4302554396999305,,
,9298.0,1471.0,6154.0,1933.0,151.0,1554.0,3614.0,,,,-1.31127905480161,-2.97449220801538,-1.51564704694928,,3.0974496040565986,,
,9301.0,1468.0,6155.0,1935.0,153.0,1560.0,3616.0,,,,-1.31139669733872,-2.97428724427823,-1.51500365486289,,2.7204738035003064,,
,9301.0,1469.0,6155.0,1936.0,154.0,1555.0,3607.0,,,,-1.31132981199634,-2.97444629675626,-1.51452449151805,,2.3085870813985485,,
,9304.0,1469.0,6157.0,1934.0,149.0,1582.0,3606.0,,,,-1.31101405712131,-2.97451694717185,-1.51527048813275,,1.8720883352346214,,
,9304.0,1470.0,6158.0,1939.0,141.0,1572.0,3619.0,,,,-1.31073391748506,-2.97446513807022,-1.51431579513297,,1.421883786380601,,
,9308.0,1468.0,6163.0,1940.0,148.0,1578.0,3618.0,,,,-1.31138588787685,-2.97451410304764,-1.51617130079461,,0.9689810439116433,,
,9309.0,1472.0,6165.0,1939.0,147.0,1572.0,3627.0,,,,-1.31151894342623,-2.97465638935367,-1.51599376087636,,0.5239420933106046,,
,9311.0,1472.0,6166.0,1937.0,145.0,1567.0,3623.0,,,,-1.31201135429589,-2.97473494529053,-1.51620653908019,,0.09633933489225567,,
,9317.0,1472.0,6169.0,1938.0,142.0,1564.0,3637.0,,,,-1.31221691108587,-2.97464700588522,-1.51640047498297,,-0.30573389432919235,,
,9317.0,1473.0,6169.0,1941.0,139.0,1563.0,3629.0,,,,-1.31229120161768,-2.97461198190205,-1.51579666335813,,-0.6760475145765009,,
,9315.0,1474.0,6170.0,1940.0,134.0,1556.0,3623.0,,,,-1.31154250381591,-2.97451651011183,-1.51565586929379,,-1.0104725998011714,,
,9317.0,1472.0,6167.0,1936.0,135.0,1550.0,3616.0,,,,-1.31163424032327,-2.97458234416621,-1.51529316270652,,-1.3070490060869586,,
,9320.0,1471.0,6168.0,1935.0,147.0,1564.0,3633.0,,,,-1.31209386035808,-2.97454489464943,-1.51472582098834,,-1.5658792169796578,,
,9321.0,1470.0,6169.0,1930.0,147.0,1572.0,3617.0,,,,-1.31187149337606,-2.97448922588481,-1.51381099032268,,-1.788864858323826,,
,9318.0,1471.0,6164.0,1922.0,150.0,1571.0,3616.0,,,,-1.31112295009043,-2.97439500645212,-1.51424417278981,,-1.9793189600111187,,
,9317.0,1467.0,6160.0,1917.0,152.0,1561.0,3644.0,,,,-1.31153206789272,-2.97447284518947,-1.51459356367505,,-2.1414985996311673,,
,9309.0,1470.0,6158.0,1915.0,139.0,1554.0,3640.0,,,,-1.31155155286343,-2.97452087585846,-1.51491277968833,,-2.2801081259087868,,
,9308.0,1467.0,6152.0,1913.0,156.0,1557.0,3632.0,,,,-1.31244313591593,-2.97451721929116,-1.51476560465625,,-2.3998223865405253,,
,9305.0,1463.0,6148.0,1913.0,163.0,1555.0,3637.0,,,,-1.31114960630189,-2.97457110013163,-1.51462453951234,,-2.5048724857313602,,
,9294.0,1462.0,6142.0,1910.0,165.0,1548.0,3636.0,,,,-1.31194021928197,-2.9745301593564,-1.51450929890659,,-2.598724374870582,,
,9291.0,1462.0,6139.0,1908.0,157.0,1562.0,3631.0,,,,-1.31197824823178,-2.97455204778203,-1.51457727065914,,-2.6838646985814814,,
,9289.0,1459.0,6138.0,1911.0,160.0,1557.0,3650.0,,,,-1.31156611615586,-2.97451644282938,-1.51431472931376,,-2.761691719061818,,
,9287.0,1459.0,6133.0,1909.0,146.0,1559.0,3651.0,,,,-1.31150040180218,-2.97453835390305,-1.51535870076546,,-2.8324957606686305,,
,9278.0,1458.0,6131.0,1910.0,143.0,1566.0,3624.0,,,,-1.31139987007198,-2.97451940099868,-1.51460145816607,,-2.895506786238324,,
,9275.0,1457.0,6128.0,1908.0,139.0,1568.0,3622.0,,,,-1.31091178928087,-2.97454767126529,-1.51534412053744,,-2.9489873090692904,,
,9277.0,1459.0,6128.0,1911.0,151.0,1564.0,3627.0,,,,-1.31182846192779,-2.97451809693754,-1.51593736137311,,-2.990354928999282,,
,9273.0,1457.0,6125.0,1913.0,162.0,1556.0,3617.0,,,,-1.31164044466666,-2.97468186141945,-1.51504635112087,,-3.016327019635532,,
,9271.0,1456.0,6128.0,1912.0,148.0,1552.0,3626.0,,,,-1.31108646497819,-2.9745970866517,-1.51544573908834,,-3.0230874857502683,,
,9266.0,1453.0,6126.0,1914.0,134.0,1561.0,3619.0,,,,-1.31165280057773,-2.97475173345131,-1.51584338419794,,-3.00648020462383,,
,9266.0,1453.0,6125.0,1913.0,136.0,1556.0,3620.0,,,,-1.31204289247978,-2.97466262705379,-1.51698756880361,,-2.962234846100101,,
,9268.0,1451.0,6125.0,1914.0,136.0,1547.0,3629.0,,,,-1.31217961613751,-2.97478131928198,-1.5179402604262,,-2.886227812911334,,
,9263.0,1453.0,6124.0,1914.0,146.0,1547.0,3624.0,,,,-1.31221954240399,-2.97466768152687,-1.51720413298998,,-2.774774129517823,,
,9264.0,1453.0,6122.0,1912.0,137.0,1568.0,3612.0,,,,-1.31212446724602,-2.97471829332758,-1.51748584161598,,-2.624936103384309,,
,9264.0,1450.0,6125.0,1913.0,135.0,1553.0,3615.0,,,,-1.31181094794404,-2.97464080465578,-1.51692011575982,,-2.434823359889856,,
,9260.0,1453.0,6128.0,1916.0,151.0,1539.0,3620.0,,,,-1.31150388667533,-2.97471875314899,-1.51561330763877,,-2.20384934337022,,
,9262.0,1452.0,6127.0,1916.0,162.0,1539.0,3623.0,,,,-1.31102326434397,-2.97460765165651,-1.51618328057223,,-1.932905315769876,,
,9261.0,1453.0,6127.0,1916.0,155.0,1543.0,3620.0,,,,-1.31064042023789,-2.97463687161008,-1.51630065935257,,-1.624417601318247,,
,9261.0,1452.0,6129.0,1914.0,152.0,1574.0,3614.0,,,,-1.31104541093311,-2.97461403384234,-1.51553499856942,,-1.282268168428191,,
,9262.0,1449.0,6128.0,1918.0,137.0,1576.0,3622.0,,,,-1.31095241207176,-2.97465360946711,-1.51529799886051,,-0.9115797374234429,,
,9259.0,1451.0,6129.0,1917.0,130.0,1564.0,3621.0,,,,-1.31142932274166,-2.97471933618712,-1.51577963095633,,-0.5183889779573736,,
,9261.0,1453.0,6127.0,1915.0,146.0,1540.0,3621.0,,,,-1.31134108388627,-2.97464778634476,-1.51554838286633,,-0.10924956259189465,,
,9259.0,1452.0,6130.0,1917.0,146.0,1554.0,3631.0,,,,-1.3116145199911,-2.97463074999096,-1.51584891856103,,0.30918249583551716,,
,9261.0,1451.0,6131.0,1920.0,140.0,1561.0,3626.0,,,,-1.31106089623797,-2.97469198624584,-1.51583370137446,,0.7305265980389217,,
,9262.0,1452.0,6135.0,1918.0,144.0,1558.0,3623.0,,,,-1.31135545483938,-2.97465104165625,-1.51563169282917,,1.1489694173185097,,
,9260.0,1452.0,6133.0,1919.0,148.0,1556.0,3619.0,,,,-1.31115793517567,-2.97460600098932,-1.51558537973483,,1.5594341862156007,,
,9256.0,1450.0,6133.0,1915.0,142.0,1561.0,3617.0,,,,-1.31090171906231,-2.97453237013482,-1.51513164525664,,1.9576084135415475,,
,9259.0,1452.0,6136.0,1917.0,135.0,1589.0,3625.0,,,,-1.31011311523115,-2.97451441276005,-1.51438906239779,,2.3398325289619586,,
,9259.0,1451.0,6134.0,1919.0,149.0,1588.0,3608.0,,,,-1.31079321850715,-2.97458090605482,-1.51497950006554,,2.7028749796679894,,
,9261.0,1450.0,6137.0,1921.0,155.0,1579.0,3609.0,,,,-1.31067374117721,-2.97464824244017,-1.51326684493847,,3.0436402800557287,,
,9260.0,1451.0,6135.0,1920.0,159.0,1564.0,3615.0,,,,-1.31018161810774,-2.97463541853993,-1.51492239262622,,3.358870657437595,,
,9261.0,1450.0,6139.0,1916.0,140.0,1551.0,3623.0,,,,-1.30949785501376,-2.97454339457133,-1.51374710198062,,3.6449049234486415,,
,9261.0,1450.0,6140.0,1921.0,143.0,1537.0,3635.0,,,,-1.30958401776137,-2.97452870541239,-1.51389739419974,,3.89754860441699,,
,9262.0,1453.0,6141.0,1919.0,145.0,1541.0,3630.0,,,,-1.30977126375615,-2.97468164179564,-1.51323474970546,,4.112089571832929,,
,9260.0,1452.0,6141.0,1918.0,140.0,1549.0,3620.0,,,,-1.31032205934064,-2.97451238886022,-1.51416971336417,,4.283468164206568,,
,9258.0,1450.0,6139.0,1914.0,137.0,1553.0,3620.0,,,,-1.31009081598079,-2.97463102833152,-1.51465643258436,,4.406584958215332,,
2025-08-19 20:51:08,9262.0,1452.0,6142.0,1919.0,137.0,1579.0,3617.0,,,2025/08/19 08:51:08 PM,-1.31022181840391,-2.97461006907315,-1.51509908756738,,4.4767067767274495,,
,9261.0,1453.0,6143.0,1919.0,142.0,1587.0,3624.0,,,,-1.31022601216546,-2.97457804854182,-1.51442577762497,,4.489915113603717,,
,9261.0,1450.0,6145.0,1921.0,138.0,1600.0,3630.0,,,,-1.31009715334464,-2.97463998755574,-1.51521040459984,,4.443533297653347,,
,9259.0,1448.0,6143.0,1918.0,140.0,1579.0,3626.0,,,,-1.31000110846721,-2.97457001146048,-1.51468290876786,,4.336471222155457,,
,9258.0,1449.0,6148.0,1919.0,153.0,1555.0,3621.0,,,,-1.31073642995367,-2.97458097754618,-1.51556313369652,,4.169439820050311,,
,9257.0,1452.0,6144.0,1921.0,150.0,1553.0,3615.0,,,,-1.31183785635059,-2.97462902176323,-1.51496108111015,,3.94500976606577,,
,9259.0,1448.0,6148.0,1921.0,155.0,1559.0,3624.0,,,,-1.31206466289668,-2.97476808705553,-1.5153268202291,,3.6675152299059914,,
,9258.0,1446.0,6149.0,1920.0,148.0,1558.0,3629.0,,,,-1.31236380536295,-2.97466803103969,-1.51574836768055,,3.3428270510359885,,
,9261.0,1449.0,6149.0,1922.0,137.0,1546.0,3625.0,,,,-1.3139964996875,-2.97477744013957,-1.51577882661694,,2.9780346772531034,,
,9260.0,1449.0,6150.0,1921.0,132.0,1550.0,3621.0,,,,-1.31447186390518,-2.97476592372004,-1.51658477061327,,2.581080615104877,,
,9260.0,1450.0,6150.0,1923.0,138.0,1554.0,3622.0,,,,-1.31468392402093,-2.97466839902895,-1.51585168627165,,2.1603868525543604,,
,9259.0,1447.0,6153.0,1921.0,143.0,1561.0,3621.0,,,,-1.3153217704344,-2.97462595381354,-1.5157607366603,,1.7245033095457278,,
,9259.0,1449.0,6155.0,1924.0,137.0,1564.0,3632.0,,,,-1.31530114264013,-2.97475787864234,-1.51416492829409,,1.2817970116561088,,
,9259.0,1449.0,6157.0,1922.0,131.0,1563.0,3612.0,,,,-1.3147233561579,-2.97469996184494,-1.5140898876755,,0.8401894813081818,,
,9262.0,1446.0,6159.0,1924.0,134.0,1562.0,3623.0,,,,-1.31492199919681,-2.97467799331627,-1.51326771226454,,0.4069404313559729,,
,9260.0,1448.0,6158.0,1921.0,148.0,1554.0,3616.0,,,,-1.31443525473475,-2.97465663607258,-1.51337147866105,,-0.011530132809606611,,
,9260.0,1447.0,6158.0,1924.0,143.0,1548.0,3627.0,,,,-1.31458993687787,-2.97458558718251,-1.51421202040201,,-0.40979049248674,,
,9262.0,1447.0,6164.0,1925.0,147.0,1557.0,3639.0,,,,-1.31527444255334,-2.97460940507279,-1.51436076256062,,-0.7835216167075202,,
,9261.0,1449.0,6163.0,1926.0,146.0,1554.0,3643.0,,,,-1.31513097960879,-2.97469636165839,-1.51424855755165,,-1.1296146423624536,,
,9264.0,1449.0,6167.0,1924.0,162.0,1545.0,3645.0,,,,-1.31500334964937,-2.97465954344975,-1.51428093358653,,-1.4462298399335682,,
,9263.0,1448.0,6169.0,1927.0,146.0,1541.0,3634.0,,,,-1.31484811284923,-2.9746880699647,-1.51367767045645,,-1.732799568451471,,
,9266.0,1450.0,6172.0,1928.0,148.0,1540.0,3625.0,,,,-1.31436136704355,-2.97460968964056,-1.51422787033017,,-1.9899577092780314,,
,9269.0,1451.0,6173.0,1928.0,153.0,1538.0,3622.0,,,,-1.31318667315898,-2.97465565836235,-1.51388201270743,,-2.2193842782800273,,
,9266.0,1450.0,6172.0,1928.0,154.0,1548.0,3622.0,,,,-1.31328173396055,-2.97452907955942,-1.51355893850187,,-2.423564349112878,,
,9269.0,1448.0,6173.0,1929.0,140.0,1575.0,3626.0,,,,-1.31273082381174,-2.97457381039276,-1.51215717086447,,-2.605472442689383,,
,9271.0,1452.0,6176.0,1928.0,155.0,1562.0,3635.0,,,,-1.31237502897763,-2.97461220878446,-1.51262363162722,,-2.768205117188858,,
,9271.0,1452.0,6178.0,1930.0,149.0,1565.0,3635.0,,,,-1.31251325687447,-2.9744991953992,-1.51222715490231,,-2.9145942003299243,,
,9274.0,1452.0,6181.0,1933.0,142.0,1569.0,3635.0,,,,-1.31139269931686,-2.97443875749917,-1.51177810010058,,-3.0468396397945874,,
,9274.0,1453.0,6178.0,1930.0,145.0,1559.0,3619.0,,,,-1.31196119964061,-2.97444821329737,-1.51102388012155,,-3.1662029555215088,,
,9277.0,1452.0,6181.0,1932.0,142.0,1568.0,3616.0,,,,-1.3111510716354,-2.97452825501029,-1.51102104982787,,-3.272798597904504,,
,9278.0,1453.0,6186.0,1932.0,136.0,1579.0,3618.0,,,,-1.31090812988811,-2.97439884287726,-1.51000930806541,,-3.3655106332617306,,
,9280.0,1454.0,6186.0,1935.0,140.0,1564.0,3626.0,,,,-1.3109258267749,-2.97435062218203,-1.51026453434111,,-3.442046730646872,,
,9280.0,1453.0,6187.0,1933.0,147.0,1547.0,3627.0,,,,-1.3109580191933,-2.97436543869415,-1.51046319923191,,-3.499122696875328,,
,9282.0,1456.0,6188.0,1933.0,165.0,1548.0,3623.0,,,,-1.31049252787448,-2.97437264513689,-1.50985062769034,,-3.5327527456930463,,
,9284.0,1453.0,6190.0,1934.0,147.0,1543.0,3619.0,,,,-1.30939004058832,-2.97435162476519,-1.51012913841617,,-3.538607682437113,,
,9287.0,1455.0,6195.0,1935.0,142.0,1539.0,3624.0,,,,-1.31013888047672,-2.97439025859868,-1.50895427898883,,-3.5123979252522592,,
,9288.0,1453.0,6194.0,1935.0,128.0,1569.0,3639.0,,,,-1.30986740320635,-2.97427578571367,-1.50961812187257,,-3.450240477828129,,
,9286.0,1455.0,6197.0,1934.0,147.0,1581.0,3621.0,,,,-1.30988358452945,-2.97434871080204,-1.50939789185831,,-3.3489761560631233,,
,9289.0,1454.0,6200.0,1939.0,157.0,1566.0,3614.0,,,,-1.30954859388832,-2.97436291535694,-1.50901193857908,,-3.2064128728517383,,
,9292.0,1454.0,6199.0,1939.0,144.0,1573.0,3617.0,,,,-1.30997172977131,-2.97434917270811,-1.50852149250074,,-3.021481045515946,,
,9293.0,1455.0,6204.0,1939.0,141.0,1571.0,3628.0,,,,-1.31036472027342,-2.97432915046119,-1.50955917585829,,-2.7942977231167303,,
,9296.0,1455.0,6203.0,1937.0,151.0,1577.0,3631.0,,,,-1.31075652410889,-2.97440776589346,-1.51046955751392,,-2.526146435089656,,
,9295.0,1457.0,6205.0,1940.0,145.0,1564.0,3617.0,,,,-1.3115333509518,-2.97439036025536,-1.51083048862363,,-2.2193888719962374,,
,9299.0,1456.0,6206.0,1940.0,140.0,1550.0,3640.0,,,,-1.31137321302947,-2.97437835699989,-1.51125653518399,,-1.8773303945071753,,
,9298.0,1456.0,6208.0,1941.0,140.0,1539.0,3637.0,,,,-1.31117901413347,-2.97434066368939,-1.51070605651845,,-1.5040622298625783,,
,9299.0,1456.0,6208.0,1937.0,135.0,1566.0,3627.0,,,,-1.31088413020881,-2.97449114714722,-1.51039530358751,,-1.1042987810816183,,
,9300.0,1457.0,6206.0,1935.0,143.0,1569.0,3628.0,,,,-1.31201328519708,-2.97434273948541,-1.5105178191684,,-0.6832208857649031,,
,9302.0,1457.0,6203.0,1930.0,154.0,1562.0,3622.0,,,,-1.31119153445431,-2.97439303911152,-1.5105764704604,,-0.24632884496535506,,
,9298.0,1455.0,6202.0,1924.0,150.0,1566.0,3625.0,,,,-1.31173827520411,-2.97444073978847,-1.51080837721939,,0.20069442780257654,,
,9295.0,1452.0,6199.0,1916.0,143.0,1555.0,3627.0,,,,-1.31274136280696,-2.97439058150937,-1.51150948126868,,0.6521092647419152,,
,9289.0,1452.0,6197.0,1916.0,132.0,1553.0,3617.0,,,,-1.31253984529041,-2.97443236393561,-1.51083950999484,,1.1022304551473847,,
,9287.0,1449.0,6190.0,1914.0,140.0,1562.0,3639.0,,,,-1.31321363062708,-2.97445873315498,-1.51218431316075,,1.5455173287970125,,
,9280.0,1449.0,6188.0,1913.0,150.0,1552.0,3634.0,,,,-1.31403675141407,-2.9745093245215,-1.51240793558494,,1.9766348100083766,,
,9274.0,1445.0,6183.0,1911.0,151.0,1545.0,3635.0,,,,-1.31372799701194,-2.9746566090589,-1.51285062133273,,2.390478177684774,,
,9270.0,1445.0,6177.0,1908.0,138.0,1549.0,3637.0,,,,-1.31390010290767,-2.97444281945305,-1.51228723155689,,2.782157302614249,,
,9265.0,1445.0,6175.0,1908.0,142.0,1557.0,3620.0,,,,-1.31341711598317,-2.97450761886791,-1.51295509815181,,3.1469417980928673,,
,9263.0,1445.0,6174.0,1909.0,163.0,1557.0,3616.0,,,,-1.31401523599228,-2.97453240521998,-1.51247366153561,,3.480176706544594,,
,9255.0,1440.0,6172.0,1908.0,165.0,1555.0,3619.0,,,,-1.31406065535759,-2.97446064920955,-1.51233638366427,,3.77718826110832,,
,9250.0,1438.0,6166.0,1907.0,142.0,1555.0,3625.0,,,,-1.31411203962064,-2.97450910870562,-1.51323280717352,,4.033208980441649,,
,9249.0,1440.0,6166.0,1907.0,141.0,1552.0,3623.0,,,,-1.31435965334641,-2.97466370039355,-1.51421895749471,,4.243357456110898,,
,9246.0,1440.0,6165.0,1909.0,146.0,1544.0,3621.0,,,,-1.31429428977534,-2.97469691111269,-1.51535250945575,,4.402706536420595,,
,9244.0,1438.0,6164.0,1914.0,139.0,1544.0,3623.0,,,,-1.3155430689819,-2.97464617199694,-1.51477613916034,,4.5064617297867855,,
,9238.0,1434.0,6164.0,1910.0,154.0,1552.0,3618.0,,,,-1.31528812213494,-2.97476302591132,-1.51557020089762,,4.5502509248111584,,
,9241.0,1436.0,6162.0,1914.0,154.0,1549.0,3618.0,,,,-1.31539229828612,-2.97478203354515,-1.51588234652763,,4.530501932123035,,
,9236.0,1437.0,6165.0,1910.0,152.0,1539.0,3635.0,,,,-1.31569297136397,-2.97485716206102,-1.51659243715343,,4.444862118745379,,
,9234.0,1436.0,6165.0,1914.0,151.0,1537.0,3632.0,,,,-1.31589437193723,-2.97475259756682,-1.51592881755545,,4.292599655339425,,
,9232.0,1435.0,6162.0,1909.0,135.0,1544.0,3619.0,,,,-1.31623606952029,-2.97469871271509,-1.51682548910045,,4.074921657908564,,
,9231.0,1434.0,6163.0,1912.0,138.0,1542.0,3612.0,,,,-1.31557216665625,-2.97463285104701,-1.51634477419179,,3.7951517982885674,,
,9231.0,1434.0,6162.0,1914.0,150.0,1546.0,3619.0,,,,-1.31448540826597,-2.97483401366186,-1.51514274929816,,3.4587280330508667,,
,9228.0,1436.0,6162.0,1913.0,138.0,1550.0,3622.0,,,,-1.31471977914913,-2.97461701486305,-1.51523446071486,,3.073007428760662,,
,9225.0,1433.0,6161.0,1911.0,158.0,1564.0,3629.0,,,,-1.31428248531112,-2.97467101622083,-1.51441342557228,,2.6468953640311255,,
,9224.0,1431.0,6164.0,1910.0,146.0,1577.0,3617.0,,,,-1.31421834004131,-2.97467729674477,-1.51497421896933,,2.190344848298967,,
,9226.0,1434.0,6163.0,1914.0,139.0,1576.0,3634.0,,,,-1.31385703580865,-2.97467945175663,-1.5140891602645,,1.7137916953220826,,
,9222.0,1432.0,6165.0,1913.0,133.0,1566.0,3634.0,,,,-1.31412926914968,-2.97448364939849,-1.5141975540531,,1.227597585995775,,
,9221.0,1432.0,6165.0,1914.0,138.0,1546.0,3647.0,,,,-1.31341935332662,-2.97465988083039,-1.51441020218116,,0.7415646192219598,,
,9221.0,1430.0,6161.0,1911.0,143.0,1553.0,3641.0,,,,-1.31361713970573,-2.97458607652977,-1.51434820035473,,0.2645655494576126,,
,9224.0,1432.0,6166.0,1915.0,127.0,1536.0,3625.0,,,,-1.31301901918723,-2.97463408202745,-1.51293710342654,,-0.19569032638470482,,
,9223.0,1431.0,6166.0,1916.0,140.0,1540.0,3616.0,,,,-1.31306441474972,-2.97446588682049,-1.51361262465461,,-0.6327591506843483,,
,9219.0,1432.0,6165.0,1914.0,146.0,1543.0,3610.0,,,,-1.31323061008315,-2.97451144828171,-1.51252845271309,,-1.041454844072808,,
,9219.0,1430.0,6166.0,1914.0,150.0,1562.0,3608.0,,,,-1.31202793245348,-2.97449574473406,-1.5130203641224,,-1.4177667474673528,,
,9217.0,1431.0,6165.0,1917.0,147.0,1569.0,3621.0,,,,-1.3112704411774,-2.97465710877463,-1.5115677498791,,-1.7587426625108604,,
,9219.0,1433.0,6171.0,1917.0,157.0,1566.0,3621.0,,,,-1.31146879600871,-2.97446883356702,-1.5126965221703,,-2.0623752099437884,,
,9218.0,1428.0,6170.0,1916.0,153.0,1572.0,3622.0,,,,-1.31229862527238,-2.97445790702877,-1.51322890031543,,-2.3275204931428743,,
,9218.0,1430.0,6169.0,1916.0,145.0,1585.0,3633.0,,,,-1.31204336162084,-2.97450640852666,-1.51328265841747,,-2.5538635906959706,,
,9219.0,1431.0,6169.0,1917.0,152.0,1564.0,3632.0,,,,-1.31165577459957,-2.9745424705807,-1.51288140147049,,-2.741927727397551,,
,9217.0,1432.0,6171.0,1917.0,145.0,1544.0,3630.0,,,,-1.31132340658265,-2.97459324203858,-1.51460276265823,,-2.8931068893158596,,
,9220.0,1430.0,6173.0,1916.0,151.0,1541.0,3632.0,,,,-1.31230384540011,-2.97446323898203,-1.51384147519934,,-3.009689755023835,,
,9219.0,1431.0,6171.0,1915.0,148.0,1563.0,3625.0,,,,-1.31138227474564,-2.97451959384351,-1.51314373070117,,-3.094839562992016,,
,9219.0,1430.0,6171.0,1917.0,129.0,1540.0,3628.0,,,,-1.3118321468914,-2.97453442194078,-1.51332814386496,,-3.1525004885131405,,
,9220.0,1432.0,6172.0,1916.0,136.0,1551.0,3632.0,,,,-1.31121805840608,-2.97445186760008,-1.51363842143669,,-3.1872139805957853,,
,9220.0,1432.0,6175.0,1917.0,152.0,1561.0,3641.0,,,,-1.31257937086512,-2.97455701050436,-1.51401753356548,,-3.2038447945194646,,
,9220.0,1432.0,6174.0,1918.0,171.0,1572.0,3627.0,,,,-1.31317750516432,-2.97450460692481,-1.51313629278613,,-3.2072330175008936,,
,9215.0,1430.0,6171.0,1916.0,164.0,1575.0,3628.0,,,,-1.31346550551709,-2.97466986381204,-1.51396702863027,,-3.201802999357063,,
,9218.0,1429.0,6175.0,1919.0,150.0,1580.0,3616.0,,,,-1.31438480006621,-2.97467922489267,-1.51395192553173,,-3.191171035644959,,
,9218.0,1431.0,6175.0,1917.0,143.0,1565.0,3624.0,,,,-1.31428977835198,-2.97453577001981,-1.51391366875101,,-3.1777991580375256,,
,9217.0,1431.0,6175.0,1917.0,148.0,1554.0,3632.0,,,,-1.31482450209277,-2.97457518400251,-1.51379333963607,,-3.1627407420810414,,
,9215.0,1430.0,6178.0,1917.0,152.0,1542.0,3661.0,,,,-1.31576200211426,-2.97462071656652,-1.51335994859668,,-3.1455138279492716,,
,9216.0,1431.0,6179.0,1921.0,152.0,1535.0,3640.0,,,,-1.31636050561629,-2.97469275006541,-1.51452977039335,,-3.1241208389469963,,
,9217.0,1431.0,6179.0,1919.0,161.0,1556.0,3627.0,,,,-1.31609130623032,-2.97474613960516,-1.5140611286492,,-3.0952122015063486,,
,9218.0,1430.0,6180.0,1922.0,146.0,1546.0,3622.0,,,,-1.31609372475745,-2.97470471349835,-1.5142785991838,,-3.054371677721098,,
,9220.0,1431.0,6180.0,1918.0,149.0,1550.0,3633.0,,,,-1.31613397328669,-2.97463231003956,-1.51412386048711,,-2.9964879753085776,,
,9219.0,1431.0,6184.0,1920.0,133.0,1547.0,3629.0,,,,-1.31616458260053,-2.97472205525013,-1.51387754906833,,-2.9161722966578756,,
,9219.0,1431.0,6184.0,1922.0,148.0,1556.0,3624.0,,,,-1.31590348112868,-2.97472298713228,-1.51413065627875,,-2.808183451504646,,
,9221.0,1431.0,6187.0,1921.0,151.0,1561.0,3623.0,,,,-1.31580213531122,-2.97464107426307,-1.51307162272057,,-2.667827956099818,,
,9220.0,1432.0,6189.0,1920.0,155.0,1563.0,3623.0,,,,-1.31580091947483,-2.97457749066893,-1.51387835662169,,-2.4913096193559103,,
,9219.0,1429.0,6189.0,1922.0,176.0,1557.0,3610.0,,,,-1.31488287165027,-2.97461044677489,-1.51424413402635,,-2.2760102076651756,,
,9219.0,1429.0,6188.0,1924.0,162.0,1585.0,3614.0,,,,-1.31407305934658,-2.97464434177779,-1.51286353247851,,-2.0206895427577196,,
,9220.0,1430.0,6192.0,1922.0,153.0,1583.0,3625.0,,,,-1.31402278158052,-2.97464361637764,-1.51334599412489,,-1.7255997292136873,,
,9225.0,1432.0,6194.0,1924.0,151.0,1580.0,3628.0,,,,-1.31405588869119,-2.97445214565155,-1.51388362099289,,-1.3925138858288026,,
,9222.0,1432.0,6193.0,1924.0,149.0,1554.0,3625.0,,,,-1.31301090770745,-2.97465202119782,-1.51343533837798,,-1.0246743171541264,,
,9225.0,1434.0,6199.0,1924.0,140.0,1547.0,3625.0,,,,-1.31297046181917,-2.97456854946781,-1.51282861277249,,-0.6266682745506553,,
,9227.0,1431.0,6198.0,1927.0,149.0,1549.0,3615.0,,,,-1.31284593302111,-2.97456649323846,-1.51375910426924,,-0.20424194292408107,,
,9226.0,1435.0,6202.0,1928.0,150.0,1547.0,3617.0,,,,-1.31282526854504,-2.97453694291272,-1.51295082367947,,0.23593368128170472,,
,9228.0,1433.0,6199.0,1926.0,151.0,1544.0,3621.0,,,,-1.31258689506494,-2.97451693248776,-1.51258281955059,,0.6865272267642047,,
,9230.0,1434.0,6201.0,1928.0,134.0,1543.0,3630.0,,,,-1.31303590413891,-2.97446869954013,-1.51383886023025,,1.139819813357443,,
,9229.0,1432.0,6205.0,1930.0,133.0,1554.0,3646.0,,,,-1.31201757566463,-2.97444550762972,-1.51311149503364,,1.587962555062245,,
,9232.0,1435.0,6207.0,1929.0,134.0,1561.0,3645.0,,,,-1.3126733674763,-2.97456265329953,-1.51228244853405,,2.0231967950073377,,
,9233.0,1431.0,6208.0,1928.0,135.0,1536.0,3642.0,,,,-1.31244606863805,-2.9744670955483,-1.51245551292104,,2.4380210503788344,,
,9237.0,1436.0,6209.0,1930.0,141.0,1552.0,3650.0,,,,-1.31218148904144,-2.9744966171334,-1.51297070117242,,2.825297600725752,,
,9237.0,1434.0,6212.0,1934.0,158.0,1548.0,3634.0,,,,-1.31155396298297,-2.97447406039481,-1.51289437401526,,3.1783024240543427,,
,9238.0,1437.0,6214.0,1932.0,167.0,1546.0,3630.0,,,,-1.31232270905942,-2.97447687177711,-1.51262043814023,,3.490733588408278,,
,9240.0,1434.0,6212.0,1933.0,151.0,1532.0,3630.0,,,,-1.31133907219324,-2.97441677723742,-1.51253290700018,,3.7567038072258496,,
,9240.0,1434.0,6216.0,1932.0,141.0,1550.0,3623.0,,,,-1.31262909224012,-2.97459125076021,-1.5125429671467,,3.970750327571345,,
,9243.0,1438.0,6217.0,1934.0,171.0,1563.0,3628.0,,,,-1.31250140291431,-2.9744512946716,-1.51284700912655,,4.1278963405315325,,
,9246.0,1438.0,6220.0,1935.0,162.0,1557.0,3640.0,,,,-1.3125959402566,-2.97463497859661,-1.51496912121818,,4.223789828902348,,
,9247.0,1440.0,6221.0,1935.0,153.0,1557.0,3635.0,,,,-1.31322567891924,-2.97472810890543,-1.51552251557786,,4.254928137998832,,
,9248.0,1436.0,6223.0,1932.0,145.0,1551.0,3618.0,,,,-1.31421568218584,-2.97462586536522,-1.51574480670306,,4.218953358242398,,
,9252.0,1439.0,6223.0,1938.0,148.0,1554.0,3617.0,,,,-1.31470861649903,-2.97464417304966,-1.51581582064765,,4.114980979017677,,
2025-08-19 20:51:09,9252.0,1439.0,6226.0,1937.0,159.0,1571.0,3628.0,,,2025/08/19 08:51:09 PM,-1.31452066800016,-2.97463108400898,-1.51618913354487,,3.943908032389128,,
,9254.0,1440.0,6226.0,1938.0,155.0,1569.0,3630.0,,,,-1.3139952533607,-2.97470511463816,-1.51692865139249,,3.708640807743153,,
,9256.0,1437.0,6229.0,1938.0,144.0,1555.0,3603.0,,,,-1.31483581749689,-2.97472718339006,-1.51692519771086,,3.4141874787021558,,
,9255.0,1438.0,6231.0,1940.0,152.0,1553.0,3631.0,,,,-1.31450216609141,-2.97474969548443,-1.5160240831103,,3.0675769923962526,,
,9256.0,1440.0,6231.0,1942.0,146.0,1539.0,3632.0,,,,-1.31520927618347,-2.9746606736021,-1.51774319580571,,2.677590091616524,,
,9262.0,1441.0,6236.0,1943.0,139.0,1537.0,3619.0,,,,-1.31545262000324,-2.97463698997899,-1.51784175577488,,2.2543175086194536,,
,9263.0,1442.0,6237.0,1943.0,162.0,1537.0,3629.0,,,,-1.31607285169432,-2.97478860006444,-1.51834233181877,,1.80858871999409,,
,9266.0,1441.0,6238.0,1942.0,164.0,1550.0,3639.0,,,,-1.31678260676379,-2.97485993308189,-1.51953821883568,,1.3513359218008263,,
,9266.0,1443.0,6237.0,1943.0,139.0,1567.0,3631.0,,,,-1.31758039222076,-2.97497464302607,-1.51936184295685,,0.892966993082929,,
,9270.0,1441.0,6236.0,1938.0,143.0,1573.0,3632.0,,,,-1.31756632884857,-2.97496003215819,-1.52066294150388,,0.44281656673859837,,
,9269.0,1442.0,6233.0,1933.0,160.0,1572.0,3617.0,,,,-1.31691982915343,-2.97501066293839,-1.52021781161275,,0.008728454897034723,,
,9265.0,1440.0,6233.0,1923.0,145.0,1568.0,3612.0,,,,-1.31688689024112,-2.97489203258445,-1.52014037757638,,-0.40319943752906817,,
,9266.0,1440.0,6230.0,1924.0,148.0,1567.0,3627.0,,,,-1.31660276619122,-2.97488500988416,-1.52002960644338,,-0.7886998941526039,,
,9258.0,1437.0,6224.0,1918.0,155.0,1561.0,3626.0,,,,-1.31685410541244,-2.97495683852886,-1.52070095696196,,-1.1452638238030428,,
,9255.0,1434.0,6221.0,1915.0,159.0,1559.0,3618.0,,,,-1.3169033381642,-2.97495641011023,-1.52044773927676,,-1.4719392059143575,,
,9248.0,1431.0,6216.0,1912.0,158.0,1556.0,3626.0,,,,-1.31597920146545,-2.97496103935736,-1.52063208408651,,-1.7690400057263733,,
,9243.0,1433.0,6215.0,1911.0,139.0,1549.0,3621.0,,,,-1.31620374675799,-2.9749525418113,-1.51972012806652,,-2.0378061308002446,,
,9240.0,1431.0,6211.0,1911.0,138.0,1548.0,3635.0,,,,-1.31634204020678,-2.97500819630467,-1.5210605070128,,-2.280051315489029,,
,9233.0,1430.0,6206.0,1911.0,145.0,1544.0,3634.0,,,,-1.31702470294257,-2.97493708369239,-1.52091567580139,,-2.4978264306805515,,
,9227.0,1427.0,6203.0,1910.0,147.0,1559.0,3629.0,,,,-1.31544364131393,-2.974993517761,-1.52115529612385,,-2.693114321437079,,
,9225.0,1429.0,6201.0,1912.0,139.0,1545.0,3631.0,,,,-1.31638594161176,-2.9751397825367,-1.52106108171635,,-2.867562930996056,,
,9221.0,1427.0,6198.0,1911.0,157.0,1572.0,3626.0,,,,-1.31595050189401,-2.9750116676013,-1.52172097933702,,-3.022259192409981,,
,9219.0,1426.0,6197.0,1911.0,147.0,1578.0,3642.0,,,,-1.31609639925812,-2.97500764063487,-1.52180113043651,,-3.157547269396534,,
,9215.0,1423.0,6196.0,1909.0,128.0,1567.0,3628.0,,,,-1.31613384374061,-2.97494541115183,-1.52079855218018,,-3.272898971883146,,
,9209.0,1423.0,6194.0,1909.0,136.0,1573.0,3618.0,,,,-1.31525105301846,-2.97487130062547,-1.52054567657071,,-3.366848463257269,,
,9209.0,1424.0,6198.0,1914.0,147.0,1576.0,3623.0,,,,-1.31454850691006,-2.97482821651106,-1.52052041065421,,-3.4370053436593078,,
,9210.0,1424.0,6192.0,1912.0,153.0,1575.0,3626.0,,,,-1.31435961993594,-2.97488674916875,-1.51949792129828,,-3.4801586812109697,,
,9206.0,1422.0,6194.0,1911.0,165.0,1572.0,3630.0,,,,-1.31399347307282,-2.97474191707589,-1.51938469249621,,-3.49247922121903,,
,9204.0,1421.0,6193.0,1913.0,141.0,1551.0,3634.0,,,,-1.3131221975097,-2.97478711190365,-1.51924566624422,,-3.4698178110499023,,
,9203.0,1422.0,6195.0,1914.0,150.0,1530.0,3624.0,,,,-1.31296940072333,-2.97471050804425,-1.51940492805061,,-3.4080853962812623,,
,9200.0,1420.0,6192.0,1913.0,156.0,1541.0,3626.0,,,,-1.3134336581808,-2.97471482353591,-1.51905847975658,,-3.3036849858572155,,
,9200.0,1422.0,6194.0,1915.0,161.0,1559.0,3627.0,,,,-1.31244198157096,-2.97484655532702,-1.51913489002941,,-3.1539512892218755,,
,9196.0,1420.0,6193.0,1915.0,155.0,1541.0,3614.0,,,,-1.31237757269147,-2.97469550969962,-1.51869753651531,,-2.957543237601981,,
,9200.0,1420.0,6193.0,1913.0,149.0,1556.0,3612.0,,,,-1.31249373961975,-2.97476539036961,-1.51876598555699,,-2.71473279704808,,
,9198.0,1421.0,6195.0,1914.0,138.0,1574.0,3629.0,,,,-1.31223185279955,-2.97473504657538,-1.5181603492006,,-2.427543354801409,,
,9199.0,1423.0,6194.0,1914.0,137.0,1575.0,3635.0,,,,-1.31136089469432,-2.97484069503617,-1.51857125495916,,-2.0997118981631626,,
,9196.0,1420.0,6193.0,1914.0,155.0,1571.0,3641.0,,,,-1.3116144105667,-2.97474936816352,-1.51866288342241,,-1.7364766746699303,,
,9194.0,1422.0,6193.0,1915.0,144.0,1561.0,3635.0,,,,-1.31080479750715,-2.97471292544937,-1.51837262266308,,-1.3442195622473252,,
,9196.0,1423.0,6194.0,1914.0,142.0,1553.0,3637.0,,,,-1.31125466455173,-2.97483303241178,-1.51824809459106,,-0.9300142460436805,,
,9192.0,1419.0,6195.0,1917.0,144.0,1544.0,3637.0,,,,-1.31042011478984,-2.97472875877294,-1.51830676228331,,-0.5011439809095115,,
,9194.0,1419.0,6196.0,1915.0,128.0,1544.0,3646.0,,,,-1.31021595022069,-2.97470407588561,-1.51799826169765,,-0.06465498144776098,,
,9193.0,1422.0,6199.0,1920.0,133.0,1538.0,3625.0,,,,-1.3095277011941,-2.97479505575215,-1.51808341778917,,0.37299626129364244,,
,9194.0,1421.0,6197.0,1919.0,135.0,1544.0,3627.0,,,,-1.30980470282511,-2.97463070486686,-1.51798573508559,,0.8061597359162275,,
,9197.0,1423.0,6199.0,1919.0,144.0,1544.0,3634.0,,,,-1.30934739764931,-2.97474653385273,-1.51763985133757,,1.2300534241469754,,
,9193.0,1420.0,6197.0,1918.0,130.0,1559.0,3629.0,,,,-1.30870823172546,-2.97479014504496,-1.51761828653185,,1.6406762921498572,,
,9193.0,1421.0,6201.0,1920.0,141.0,1564.0,3621.0,,,,-1.30922185397196,-2.97460872814891,-1.5186915593083,,2.0346045237989117,,
,9194.0,1422.0,6198.0,1920.0,153.0,1566.0,3607.0,,,,-1.30972882977994,-2.97470687281137,-1.51892461264755,,2.4087215398570523,,
,9195.0,1421.0,6201.0,1921.0,139.0,1566.0,3605.0,,,,-1.30921702368068,-2.97474447362753,-1.51848720528626,,2.759940626839971,,
,9194.0,1422.0,6203.0,1920.0,154.0,1559.0,3621.0,,,,-1.30957756962202,-2.9746591100309,-1.51848413774647,,3.0849757157605393,,
,9194.0,1420.0,6201.0,1918.0,139.0,1557.0,3621.0,,,,-1.309992729587,-2.97464671079474,-1.51843679150413,,3.3802032866884337,,
,9195.0,1420.0,6202.0,1921.0,145.0,1553.0,3630.0,,,,-1.31025079556648,-2.97460454047586,-1.51900061852695,,3.6416403876373415,,
,9197.0,1421.0,6203.0,1920.0,137.0,1557.0,3629.0,,,,-1.31048163432433,-2.97470787883189,-1.51839341993037,,3.8650438954991078,,
,9196.0,1421.0,6204.0,1920.0,130.0,1543.0,3619.0,,,,-1.31134158676015,-2.97468276363699,-1.51885412078144,,4.046116998035108,,
,9197.0,1421.0,6202.0,1921.0,145.0,1548.0,3618.0,,,,-1.31240753492442,-2.97472322700749,-1.51903003359427,,4.180792509345711,,
,9197.0,1421.0,6205.0,1921.0,148.0,1552.0,3629.0,,,,-1.31223546695008,-2.9747389353026,-1.51917072909982,,4.265551137476112,,
,9198.0,1421.0,6206.0,1921.0,132.0,1560.0,3618.0,,,,-1.31359611197193,-2.97481174163461,-1.5190058176248,,4.297728215150123,,
,9199.0,1421.0,6205.0,1921.0,138.0,1557.0,3610.0,,,,-1.31465743611414,-2.97474278669281,-1.51975513613829,,4.27576603469918,,
,9198.0,1421.0,6207.0,1920.0,148.0,1549.0,3645.0,,,,-1.31432125114578,-2.97477114489099,-1.51978078196125,,4.199380717607997,,
,9198.0,1420.0,6209.0,1921.0,141.0,1556.0,3641.0,,,,-1.31416830571954,-2.9748230482289,-1.51907801394572,,4.069630138164448,,
,9200.0,1420.0,6210.0,1924.0,136.0,1549.0,3617.0,,,,-1.31428058959829,-2.97478728682653,-1.51836015327558,,3.8888879806447467,,
,9201.0,1422.0,6211.0,1923.0,139.0,1554.0,3621.0,,,,-1.31386131204318,-2.97461514693107,-1.51901416576816,,3.6607429024837,,
,9199.0,1421.0,6211.0,1921.0,147.0,1557.0,3616.0,,,,-1.31476677333424,-2.97480003981553,-1.51834665586325,,3.3898475286231626,,
,9203.0,1423.0,6216.0,1927.0,145.0,1552.0,3627.0,,,,-1.31405170594481,-2.9748254085352,-1.51788073515378,,3.0817399706402737,,
,9202.0,1425.0,6214.0,1927.0,137.0,1559.0,3632.0,,,,-1.31516391204987,-2.97482425620331,-1.51919028457841,,2.7426538303012404,,
,9205.0,1426.0,6216.0,1926.0,132.0,1549.0,3634.0,,,,-1.31533084515408,-2.97484654038299,-1.51929508549086,,2.379324658682285,,
,9202.0,1421.0,6215.0,1928.0,140.0,1547.0,3622.0,,,,-1.31525122881904,-2.9748688810122,-1.51921673617023,,1.9987939344890062,,
,9204.0,1423.0,6216.0,1927.0,142.0,1552.0,3620.0,,,,-1.3145081887109,-2.97468428219777,-1.51926515058464,,1.6082069802790226,,
,9207.0,1424.0,6218.0,1928.0,150.0,1549.0,3626.0,,,,-1.31388700336796,-2.97479129882782,-1.51738620199594,,1.2145995328739363,,
,9207.0,1423.0,6220.0,1929.0,151.0,1565.0,3623.0,,,,-1.31271239045868,-2.9747590738622,-1.51811653795626,,0.824669512080857,,
,9208.0,1425.0,6222.0,1929.0,136.0,1560.0,3639.0,,,,-1.31336337360533,-2.97472241686971,-1.51784421278924,,0.4445361828854329,,
,9209.0,1421.0,6222.0,1925.0,140.0,1553.0,3637.0,,,,-1.31232174554111,-2.9746058238096,-1.51727860610481,,0.07949772550296819,,
,9209.0,1426.0,6224.0,1926.0,143.0,1555.0,3628.0,,,,-1.3123657735941,-2.97459896898577,-1.51817489316163,,-0.26619207259522715,,
,9212.0,1426.0,6226.0,1930.0,145.0,1559.0,3629.0,,,,-1.31205858184637,-2.97489101191192,-1.51770926490781,,-0.58950042663003,,
,9215.0,1427.0,6226.0,1929.0,157.0,1558.0,3635.0,,,,-1.31193456680708,-2.97451750377102,-1.51699197711487,,-0.888717247465824,,
,9216.0,1426.0,6228.0,1928.0,149.0,1562.0,3632.0,,,,-1.31230682537889,-2.97469461378537,-1.51784002450389,,-1.1634601704853862,,
,9217.0,1428.0,6232.0,1930.0,158.0,1566.0,3622.0,,,,-1.31176346583035,-2.97464270982774,-1.51749645945723,,-1.4145727774212498,,
,9217.0,1430.0,6232.0,1933.0,146.0,1572.0,3610.0,,,,-1.31100589289556,-2.97466587698421,-1.51849190867023,,-1.6439193582066298,,
,9219.0,1427.0,6233.0,1931.0,151.0,1570.0,3605.0,,,,-1.31082763656507,-2.974688908353,-1.51757839244315,,-1.854092265833548,,
,9221.0,1429.0,6234.0,1933.0,140.0,1558.0,3625.0,,,,-1.31068909293009,-2.97466471122725,-1.51738589607069,,-2.0480583604979254,,
,9225.0,1430.0,6235.0,1934.0,140.0,1542.0,3630.0,,,,-1.31003023439157,-2.9747029576145,-1.51742977100941,,-2.228778433658668,,
,9228.0,1428.0,6239.0,1935.0,146.0,1541.0,3621.0,,,,-1.3101793178146,-2.97476248718907,-1.51679586570398,,-2.3988371540084246,,
,9226.0,1431.0,6238.0,1935.0,138.0,1542.0,3621.0,,,,-1.31017136359421,-2.97467299250905,-1.51545906403913,,-2.5601203368562917,,
,9227.0,1430.0,6241.0,1938.0,142.0,1544.0,3618.0,,,,-1.30987968483483,-2.97467436009715,-1.51651688654089,,-2.7135708558049894,,
,9231.0,1432.0,6243.0,1937.0,146.0,1557.0,3620.0,,,,-1.30901613061042,-2.9746875359565,-1.51638292444367,,-2.859044445597035,,
,9234.0,1433.0,6244.0,1937.0,146.0,1553.0,3635.0,,,,-1.30879447915052,-2.97459565210738,-1.51712925343471,,-2.9952730479028165,,
,9239.0,1432.0,6245.0,1940.0,149.0,1557.0,3636.0,,,,-1.30963762709374,-2.97463288017516,-1.51724823263954,,-3.1199287575484544,,
,9239.0,1435.0,6249.0,1939.0,157.0,1566.0,3630.0,,,,-1.31027065722453,-2.9746695838062,-1.51808555264482,,-3.2297695267719875,,
,9240.0,1432.0,6249.0,1940.0,145.0,1560.0,3628.0,,,,-1.31104241246269,-2.97474783591503,-1.5184490171608,,-3.320841661478251,,
,9245.0,1434.0,6250.0,1940.0,124.0,1558.0,3627.0,,,,-1.31085185453458,-2.9747538129695,-1.51815701680963,,-3.388714423440825,,
,9247.0,1435.0,6255.0,1945.0,125.0,1565.0,3632.0,,,,-1.31072471904408,-2.97459812822337,-1.51862984371468,,-3.428726823453981,,
,9247.0,1438.0,6255.0,1940.0,148.0,1566.0,3646.0,,,,-1.31020247102901,-2.97474942265962,-1.51799778668378,,-3.436233057754519,,
,9251.0,1435.0,6254.0,1943.0,129.0,1558.0,3639.0,,,,-1.31059710796209,-2.9747102164707,-1.51826142763873,,-3.4068387500465565,,
,9255.0,1438.0,6262.0,1944.0,147.0,1537.0,3616.0,,,,-1.31007378626737,-2.97465904012033,-1.51687769643057,,-3.3366241858903587,,
,9259.0,1438.0,6261.0,1946.0,144.0,1550.0,3613.0,,,,-1.31057199795748,-2.97468462605451,-1.51760055592703,,-3.2223528650789506,,
,9261.0,1440.0,6262.0,1945.0,148.0,1548.0,3620.0,,,,-1.31055734645825,-2.97463179229765,-1.51804939118691,,-3.0616639967876287,,
,9260.0,1437.0,6264.0,1945.0,173.0,1560.0,3630.0,,,,-1.31026190747722,-2.97478368919185,-1.51834725481738,,-2.853246162194525,,
,9266.0,1439.0,6266.0,1946.0,159.0,1566.0,3637.0,,,,-1.31111149043641,-2.97471304646469,-1.51820185193637,,-2.5969866397788546,,
,9269.0,1444.0,6269.0,1948.0,146.0,1552.0,3628.0,,,,-1.31070795349373,-2.97470968733598,-1.51875655197918,,-2.2940874882927886,,
,9271.0,1442.0,6270.0,1950.0,140.0,1554.0,3624.0,,,,-1.31111599320342,-2.9747354961359,-1.51904748758011,,-1.9471364237630595,,
,9271.0,1442.0,6271.0,1946.0,154.0,1564.0,3617.0,,,,-1.31159137332858,-2.97478063444073,-1.52080176187259,,-1.560119312544477,,
,9276.0,1441.0,6275.0,1950.0,154.0,1560.0,3619.0,,,,-1.31279623015724,-2.97474680654023,-1.52036902530486,,-1.1383633846275298,,
,9279.0,1443.0,6276.0,1951.0,138.0,1569.0,3636.0,,,,-1.31225514770282,-2.97477767467284,-1.52002184585613,,-0.688406718364118,,
,9280.0,1442.0,6275.0,1948.0,133.0,1565.0,3642.0,,,,-1.31222645433276,-2.97485016001749,-1.51992021651536,,-0.21779891988496033,,
,9283.0,1442.0,6272.0,1946.0,146.0,1576.0,3654.0,,,,-1.31140585244056,-2.97479978423797,-1.51933580275698,,0.265152456596494,,
,9281.0,1443.0,6275.0,1937.0,144.0,1558.0,3635.0,,,,-1.31087933462215,-2.97461759520777,-1.51862609987664,,0.7516679516384859,,
,9279.0,1443.0,6269.0,1931.0,141.0,1571.0,3629.0,,,,-1.31000287445464,-2.97458152110174,-1.51891811162149,,1.2327894773018464,,
,9280.0,1444.0,6267.0,1926.0,145.0,1566.0,3631.0,,,,-1.31021523965321,-2.97470111114233,-1.51808147621972,,1.6996561605232006,,
,9279.0,1440.0,6262.0,1924.0,171.0,1574.0,3625.0,,,,-1.31022069644794,-2.97484350175895,-1.5190563494522,,2.143742143960415,,
,9271.0,1437.0,6259.0,1918.0,153.0,1556.0,3629.0,,,,-1.31034377969661,-2.97474750183116,-1.5182077831608,,2.5570426095211354,,
,9270.0,1437.0,6258.0,1920.0,164.0,1555.0,3633.0,,,,-1.31017458210993,-2.97468411877741,-1.51889282568341,,2.9322032337322383,,
,9267.0,1437.0,6253.0,1917.0,144.0,1532.0,3631.0,,,,-1.31007948542936,-2.97467077463628,-1.51937164096706,,3.2625984452532553,,
,9262.0,1438.0,6251.0,1917.0,136.0,1547.0,3631.0,,,,-1.31015126271801,-2.9746053560211,-1.51971443867496,,3.542374100795962,,
,9258.0,1435.0,6246.0,1917.0,130.0,1559.0,3631.0,,,,-1.31121073888682,-2.97472450505151,-1.52020146515767,,3.766478570719073,,
,9258.0,1433.0,6246.0,1917.0,151.0,1593.0,3619.0,,,,-1.31097789397385,-2.97476408952602,-1.52006564817209,,3.930709635129159,,
,9255.0,1434.0,6244.0,1919.0,142.0,1590.0,3613.0,,,,-1.31035956751264,-2.97463424837553,-1.52008037226856,,4.031800036839205,,
,9253.0,1433.0,6242.0,1918.0,129.0,1578.0,3613.0,,,,-1.30972684419924,-2.97472288460465,-1.51916280320678,,4.067551623783084,,
,9247.0,1430.0,6241.0,1920.0,138.0,1568.0,3628.0,,,,-1.30989368732919,-2.97471970570953,-1.51973925224773,,4.037010165095046,,
,9250.0,1431.0,6238.0,1918.0,149.0,1563.0,3648.0,,,,-1.30974041660657,-2.97474447972201,-1.51946157945612,,3.9406557605085735,,
,9249.0,1434.0,6240.0,1921.0,149.0,1553.0,3635.0,,,,-1.30905743165392,-2.97469535948847,-1.51857021365676,,3.7805722093465657,,
,9249.0,1433.0,6239.0,1922.0,151.0,1540.0,3638.0,,,,-1.30853364484161,-2.97463439274107,-1.51880765608219,,3.5605552000774034,,
,9243.0,1430.0,6239.0,1921.0,133.0,1545.0,3630.0,,,,-1.30826817284928,-2.97470251797085,-1.5188389754925,,3.286123639282949,,
,9243.0,1432.0,6237.0,1920.0,132.0,1547.0,3635.0,,,,-1.30890166883937,-2.97468864978612,-1.51905550881188,,2.964409294290419,,
,9247.0,1432.0,6240.0,1924.0,137.0,1566.0,3625.0,,,,-1.30854176144618,-2.97469557978091,-1.51870404096018,,2.603915236340295,,
,9245.0,1432.0,6242.0,1924.0,143.0,1560.0,3634.0,,,,-1.30890409194889,-2.97465057996834,-1.51783088833737,,2.2141515346329554,,
,9243.0,1434.0,6238.0,1923.0,138.0,1570.0,3620.0,,,,-1.30793641372474,-2.97456495658736,-1.51840915390062,,1.805175304764115,,
,9247.0,1431.0,6236.0,1922.0,147.0,1569.0,3617.0,,,,-1.30846015674835,-2.97458014449893,-1.51801010921038,,1.3870786611553054,,
