TimeLabel,MEAS1_PPG1,MEAS1_PPG2,MEAS1_PPG3,MEAS1_PPG4,ACCX,ACCY,ACCZ,HR_timestamp,HR_value,radar_timestamp,phase_rx0,phase_rx1,phase_rx2,timestep,n_process,original_rate,calculated_rate
2025-08-05 20:54:51,8967.0,1705.0,9128.0,1320.0,2778.0,2943.0,-81.0,2025-08-05 20:55:26,104.0,2025/08/05 08:54:51 PM,-0.199663171825205,-2.67602310572513,-0.371033954249453,2025/08/05 08:54:51 PM,-8.463892855870933,9.942005157470703,12.246173070915338
,8969.0,1706.0,9125.0,1321.0,2776.0,2916.0,-77.0,2025-08-05 20:55:27,104.0,,-0.199424337196171,-2.67566509961479,-0.369919179159687,2025/08/05 08:55:01 PM,-8.81573497765396,12.45847225189209,11.942959001782533
,8967.0,1704.0,9120.0,1321.0,2785.0,2939.0,-105.0,2025-08-05 20:55:28,105.0,,-0.199444787627223,-2.67547575536088,-0.370131095803582,2025/08/05 08:55:11 PM,-9.126496681108657,11.838990211486816,13.289760348583883
,8965.0,1703.0,9117.0,1319.0,2778.0,2947.0,-105.0,2025-08-05 20:55:29,105.0,,-0.199193607299624,-2.67597360109049,-0.370746795501612,2025/08/05 08:55:21 PM,-9.398323608031136,11.942675590515137,10.73102155576382
,8962.0,1701.0,9117.0,1317.0,2775.0,2953.0,-111.0,2025-08-05 20:55:30,106.0,,-0.199489606503953,-2.67578514802213,-0.37049007702314,2025/08/05 08:55:31 PM,-9.634268636257975,12.541805267333984,12.0
,8965.0,1701.0,9116.0,1319.0,2784.0,2937.0,-114.0,2025-08-05 20:55:31,106.0,,-0.199422996379506,-2.67579528999302,-0.369977861598336,2025/08/05 08:55:41 PM,-9.838009661061406,11.682243347167969,11.669004207573629
,8963.0,1702.0,9117.0,1319.0,2783.0,2943.0,-96.0,2025-08-05 20:55:32,107.0,,-0.19943509719465,-2.67603800582652,-0.371187222608132,2025/08/05 08:55:51 PM,-10.013496502303393,11.227544784545898,10.620300751879704
,8966.0,1704.0,9123.0,1321.0,2790.0,2943.0,-96.0,2025-08-05 20:55:33,107.0,,-0.199595508190076,-2.67601776092138,-0.371101014442819,2025/08/05 08:56:01 PM,-10.1645563809296,11.21914768218994,11.400535236396083
,8962.0,1700.0,9123.0,1319.0,2811.0,2940.0,-110.0,2025-08-05 20:55:34,107.0,,-0.199779754175963,-2.67595579331712,-0.371145562936476,2025/08/05 08:56:11 PM,-10.294493153626842,10.940918922424316,10.454545454545453
,8964.0,1704.0,9123.0,1320.0,2788.0,2933.0,-107.0,2025-08-05 20:55:35,107.0,,-0.199690472823723,-2.67591966506212,-0.37151416992756,2025/08/05 08:56:21 PM,-10.405716625291076,10.72386074066162,11.669004207573625
,8967.0,1706.0,9127.0,1321.0,2780.0,2932.0,-115.0,2025-08-05 20:55:36,107.0,,-0.199667790026592,-2.67608794333865,-0.370232871419606,2025/08/05 08:56:31 PM,-10.499434770378654,10.877447128295898,12.0
,8968.0,1705.0,9129.0,1322.0,2783.0,2937.0,-96.0,2025-08-05 20:55:37,106.0,,-0.199779846794228,-2.6760008943201,-0.371874401042174,2025/08/05 08:56:41 PM,-10.575434672367528,11.152416229248049,11.814584511023167
,8968.0,1708.0,9135.0,1322.0,2784.0,2930.0,-77.0,2025-08-05 20:55:38,106.0,,-0.199912379041054,-2.67585531866228,-0.37133715570801,2025/08/05 08:56:51 PM,-10.63196891906836,11.664073944091797,10.92353525322742
,8970.0,1704.0,9134.0,1322.0,2783.0,2932.0,-65.0,2025-08-05 20:55:39,106.0,,-0.199897017496315,-2.67609946749878,-0.371880894937363,2025/08/05 08:57:01 PM,-10.665754411726098,11.303692817687988,11.539528432732311
,8974.0,1708.0,9142.0,1325.0,2791.0,2939.0,-96.0,2025-08-05 20:55:40,105.0,,-0.200111145544383,-2.67666304356627,-0.371200156482376,2025/08/05 08:57:11 PM,-10.672081159956914,11.6913480758667,10.909988481158456
,8974.0,1711.0,9143.0,1324.0,2789.0,2942.0,-104.0,2025-08-05 20:55:41,105.0,,-0.200580777439046,-2.6766048519058,-0.37134441482009,2025/08/05 08:57:21 PM,-10.645020733253899,11.152416229248049,10.818713450292403
,8975.0,1712.0,9148.0,1323.0,2790.0,2941.0,-97.0,2025-08-05 20:55:42,104.0,,-0.200618985466545,-2.67676158103307,-0.371194777841417,2025/08/05 08:57:31 PM,-10.577718752806387,11.16279125213623,10.526315789473704
,8978.0,1708.0,9151.0,1322.0,2794.0,2952.0,-101.0,2025-08-05 20:55:43,104.0,,-0.200752895080682,-2.67683177546399,-0.372010284106247,2025/08/05 08:57:41 PM,-10.462753800100174,10.563380241394045,9.561904761904753
,8981.0,1714.0,9157.0,1324.0,2778.0,2944.0,-94.0,2025-08-05 20:55:44,103.0,,-0.200751871655158,-2.6771611975863,-0.372130498116375,,-10.292545877771113,,
,8984.0,1711.0,9158.0,1325.0,2788.0,2949.0,-78.0,2025-08-05 20:55:45,103.0,,-0.200890910946075,-2.6774436636498,-0.372025796609455,,-10.059799308519443,,
,8984.0,1713.0,9163.0,1326.0,2781.0,2948.0,-92.0,2025-08-05 20:55:46,103.0,,-0.201004148156601,-2.67719261545447,-0.371913925588593,,-9.75796550389867,,
,8987.0,1715.0,9167.0,1328.0,2767.0,2916.0,-102.0,2025-08-05 20:55:47,103.0,,-0.201054333273695,-2.67741671454273,-0.371914735066755,,-9.38170885582146,,
,8991.0,1716.0,9168.0,1328.0,2764.0,2911.0,-87.0,2025-08-05 20:55:48,103.0,,-0.201190324573194,-2.67751762953082,-0.372505128618845,,-8.927353895220437,,
,8989.0,1715.0,9170.0,1326.0,2768.0,2926.0,-99.0,2025-08-05 20:55:49,104.0,,-0.201505221449391,-2.67782220268396,-0.372149431982579,,-8.39328505910758,,
,8995.0,1717.0,9172.0,1328.0,2757.0,2905.0,-85.0,2025-08-05 20:55:50,104.0,,-0.201619299756821,-2.67756458382336,-0.372915689756281,,-7.780264346373134,,
,8994.0,1718.0,9174.0,1326.0,2754.0,2928.0,-91.0,2025-08-05 20:55:51,104.0,,-0.201781596282824,-2.67783918897464,-0.373362442801959,,-7.09162983574983,,
,8993.0,1716.0,9173.0,1327.0,2761.0,2924.0,-99.0,2025-08-05 20:55:52,104.0,,-0.201724290291447,-2.67818191244703,-0.372975141685364,,-6.333342054465226,,
,8995.0,1718.0,9174.0,1329.0,2772.0,2952.0,-80.0,2025-08-05 20:55:53,104.0,,-0.202022298489817,-2.67800949522249,-0.372977550966299,,-5.513856542820812,,
,8996.0,1717.0,9175.0,1328.0,2774.0,2951.0,-66.0,2025-08-05 20:55:54,104.0,,-0.202228414404968,-2.67821880932876,-0.371614567374941,,-4.643818450639701,,
,8997.0,1718.0,9173.0,1328.0,2780.0,2946.0,-83.0,2025-08-05 20:55:55,103.0,,-0.202227476217505,-2.67806021360977,-0.373086286213458,,-3.7355953827087425,,
,8996.0,1718.0,9172.0,1327.0,2776.0,2971.0,-94.0,2025-08-05 20:55:56,103.0,,-0.202328785788095,-2.67807277573983,-0.372573809873002,,-2.8026838257756115,,
,8997.0,1716.0,9176.0,1327.0,2774.0,2920.0,-81.0,2025-08-05 20:55:57,102.0,,-0.202646840532831,-2.6781692935042,-0.372222640848858,,-1.8590387981145677,,
,9000.0,1717.0,9176.0,1329.0,2772.0,2920.0,-75.0,2025-08-05 20:55:58,102.0,,-0.20286597165678,-2.67804751407424,-0.371724844389345,,-0.9183840161461678,,
,9000.0,1716.0,9178.0,1330.0,2778.0,2936.0,-89.0,2025-08-05 20:55:59,102.0,,-0.202769228797048,-2.67807057601854,-0.372831435962125,,0.00643923859133225,,
,8999.0,1717.0,9178.0,1328.0,2777.0,2923.0,-86.0,2025-08-05 20:56:00,102.0,,-0.202943964326289,-2.6786584723894,-0.37288268494118,,0.90403144915117,,
,9002.0,1719.0,9178.0,1325.0,2787.0,2944.0,-100.0,2025-08-05 20:56:01,102.0,,-0.203211518920623,-2.67890765763196,-0.372797712119671,,1.764859490186261,,
,9003.0,1719.0,9179.0,1327.0,2791.0,2939.0,-100.0,2025-08-05 20:56:02,103.0,,-0.203303462037465,-2.67889419537094,-0.373427784058452,,2.5815182084466364,,
,9005.0,1719.0,9181.0,1328.0,2795.0,2923.0,-114.0,2025-08-05 20:56:03,104.0,,-0.203298574742871,-2.6791433183738,-0.373803408892425,,3.3488183356051535,,
,9004.0,1717.0,9182.0,1328.0,2800.0,2932.0,-114.0,2025-08-05 20:56:04,104.0,,-0.203420689199625,-2.67930604393145,-0.374471201421748,,4.063708983654952,,
,9003.0,1720.0,9184.0,1326.0,2785.0,2931.0,-92.0,2025-08-05 20:56:05,104.0,,-0.203822601843635,-2.6798655649475,-0.37489870807342,,4.725060313911089,,
,9007.0,1721.0,9188.0,1330.0,2782.0,2922.0,-91.0,2025-08-05 20:56:06,104.0,,-0.204374544952313,-2.67997786789243,-0.375512326651507,,5.333345212099724,,
,9009.0,1721.0,9189.0,1330.0,2783.0,2919.0,-91.0,2025-08-05 20:56:07,105.0,,-0.204394971587243,-2.68023502800812,-0.374854173409334,,5.890266279116779,,
,9010.0,1721.0,9193.0,1330.0,2777.0,2920.0,-84.0,2025-08-05 20:56:08,106.0,,-0.204686532646623,-2.68028018495597,-0.375283496354196,,6.398375605196899,,
,9010.0,1719.0,9194.0,1331.0,2787.0,2929.0,-86.0,2025-08-05 20:56:09,107.0,,-0.204898998559399,-2.68047277709027,-0.375476634878054,,6.860729944758876,,
,9014.0,1722.0,9197.0,1331.0,2777.0,2920.0,-93.0,2025-08-05 20:56:10,107.0,,-0.204987519610935,-2.68100668792323,-0.375903243878402,,7.280614062714733,,
,9012.0,1722.0,9199.0,1331.0,2777.0,2905.0,-103.0,2025-08-05 20:56:11,107.0,,-0.205334800109213,-2.68090017247688,-0.375812519451355,,7.661351877954617,,
,9014.0,1722.0,9205.0,1334.0,2774.0,2917.0,-105.0,2025-08-05 20:56:12,106.0,,-0.205000627188899,-2.68086161719766,-0.376633527219682,,8.006210784145614,,
,9017.0,1723.0,9208.0,1334.0,2782.0,2903.0,-69.0,2025-08-05 20:56:13,106.0,,-0.205064494655282,-2.68088910438919,-0.37675537217102,,8.31839141594409,,
,9016.0,1723.0,9210.0,1333.0,2789.0,2892.0,-66.0,2025-08-05 20:56:14,104.0,,-0.205032598912852,-2.68110218988254,-0.376745997861119,,8.601084788175678,,
,9019.0,1725.0,9213.0,1333.0,2793.0,2911.0,-92.0,2025-08-05 20:56:15,103.0,,-0.204980840198056,-2.68129338715389,-0.375990798455242,,8.857571658368306,,
,9020.0,1727.0,9217.0,1334.0,2796.0,2921.0,-110.0,2025-08-05 20:56:16,102.0,,-0.205013931345728,-2.68103692265076,-0.376934035800761,,9.091334545531733,,
,9024.0,1726.0,9221.0,1332.0,2798.0,2929.0,-107.0,2025-08-05 20:56:17,101.0,,-0.205166511183403,-2.68134462712059,-0.37617853393116,,9.306150375214813,,
,9025.0,1726.0,9223.0,1332.0,2779.0,2943.0,-107.0,2025-08-05 20:56:18,102.0,,-0.205301624519878,-2.68145023805325,-0.376926230670729,,9.506131523652162,,
,9028.0,1727.0,9227.0,1336.0,2785.0,2939.0,-97.0,2025-08-05 20:56:19,102.0,,-0.205325672198231,-2.68166906848775,-0.376497057378719,,9.695686264363493,,
,9029.0,1731.0,9231.0,1336.0,2777.0,2946.0,-88.0,2025-08-05 20:56:20,103.0,,-0.20545879498604,-2.68182937627299,-0.376746083104048,,9.879377088157817,,
,9031.0,1731.0,9233.0,1338.0,2776.0,2941.0,-100.0,2025-08-05 20:56:21,104.0,,-0.205488921254756,-2.68155333237822,-0.376175635685978,,10.061667043161668,,
,9032.0,1730.0,9238.0,1334.0,2775.0,2938.0,-106.0,2025-08-05 20:56:22,105.0,,-0.205506219863957,-2.68188049704912,-0.37652709968418,,10.24655979058711,,
,9034.0,1731.0,9240.0,1336.0,2785.0,2944.0,-88.0,2025-08-05 20:56:23,106.0,,-0.205733382411678,-2.68178366933448,-0.376664573714558,,10.437157828942668,,
,9037.0,1735.0,9246.0,1337.0,2790.0,2919.0,-74.0,2025-08-05 20:56:24,106.0,,-0.205777408799553,-2.68173498320468,-0.376345232676103,,10.635183188412283,,
,9038.0,1732.0,9247.0,1341.0,2792.0,2923.0,-77.0,2025-08-05 20:56:25,106.0,,-0.205945161927914,-2.68134422672051,-0.377200626364457,,10.840521473242609,,
,9040.0,1735.0,9251.0,1336.0,2787.0,2928.0,-76.0,2025-08-05 20:56:26,105.0,,-0.205616037762428,-2.68124371746404,-0.377462873005693,,11.050857736090313,,
,9039.0,1732.0,9255.0,1338.0,2771.0,2934.0,-68.0,2025-08-05 20:56:27,105.0,,-0.205707289828292,-2.68127728329873,-0.37613782279179,,11.261467047833394,,
,9048.0,1734.0,9257.0,1339.0,2772.0,2932.0,-93.0,2025-08-05 20:56:28,105.0,,-0.205740887579333,-2.68155898760635,-0.376354730565347,,11.465204111816295,,
,9047.0,1737.0,9263.0,1340.0,2771.0,2943.0,-74.0,2025-08-05 20:56:29,105.0,,-0.205712089377067,-2.68115259659575,-0.375956453710261,,11.652710304098113,,
,9045.0,1737.0,9262.0,1341.0,2767.0,2937.0,-72.0,2025-08-05 20:56:30,105.0,,-0.205441587430762,-2.68122835776114,-0.376286962155526,,11.812830156571687,,
,9047.0,1736.0,9258.0,1342.0,2785.0,2935.0,-95.0,2025-08-05 20:56:31,104.0,,-0.205446650462891,-2.6814030008025,-0.3772443816895,,11.933206985726168,,
,9048.0,1738.0,9257.0,1339.0,2773.0,2962.0,-107.0,2025-08-05 20:56:32,104.0,,-0.205441327112194,-2.68139977970555,-0.377127435136876,,12.001010255110808,,
,9049.0,1736.0,9251.0,1342.0,2766.0,2963.0,-97.0,2025-08-05 20:56:33,104.0,,-0.205385379694927,-2.68132240268264,-0.376699273717503,,12.003735540000113,,
,9045.0,1733.0,9246.0,1341.0,2766.0,2955.0,-89.0,2025-08-05 20:56:34,104.0,,-0.205430630828925,-2.68154975777065,-0.375954779529662,,11.930012506491854,,
,9043.0,1729.0,9238.0,1337.0,2771.0,2945.0,-79.0,2025-08-05 20:56:35,103.0,,-0.205242467229839,-2.68154413959728,-0.376510941370885,,11.770357973432873,,
,9039.0,1729.0,9229.0,1336.0,2755.0,2936.0,-91.0,2025-08-05 20:56:36,102.0,,-0.205363921615331,-2.68181095177601,-0.375364269497082,,11.517819268141675,,
,9038.0,1727.0,9223.0,1336.0,2770.0,2927.0,-76.0,2025-08-05 20:56:37,100.0,,-0.205606798607254,-2.68136997692792,-0.37640985934038,,11.168465181654176,,
,9030.0,1725.0,9213.0,1333.0,2768.0,2911.0,-80.0,2025-08-05 20:56:38,99.0,,-0.20539899201391,-2.68150946078621,-0.37661104717973,,10.721694496396507,,
,9027.0,1723.0,9206.0,1333.0,2756.0,2918.0,-77.0,2025-08-05 20:56:39,98.0,,-0.205133199728587,-2.68156585568443,-0.377289684729518,,10.180343142365622,,
,9023.0,1720.0,9198.0,1331.0,2768.0,2920.0,-82.0,2025-08-05 20:56:40,98.0,,-0.205313679552387,-2.68144392647488,-0.376695198696571,,9.550581136458467,,
,9022.0,1718.0,9191.0,1332.0,2775.0,2929.0,-76.0,2025-08-05 20:56:41,98.0,,-0.205372488739198,-2.68129846342362,-0.377808139028214,,8.841602017174065,,
,9019.0,1718.0,9189.0,1330.0,2770.0,2912.0,-75.0,2025-08-05 20:56:42,99.0,,-0.20532048976658,-2.68122419034525,-0.377268815686373,,8.065121905275367,,
,9017.0,1718.0,9187.0,1329.0,2773.0,2918.0,-82.0,2025-08-05 20:56:43,99.0,,-0.205141660244125,-2.68120202125874,-0.375985942275232,,7.234721234686443,,
,9014.0,1717.0,9179.0,1330.0,2776.0,2925.0,-79.0,2025-08-05 20:56:44,99.0,,-0.205320757436592,-2.68101590590531,-0.375940329315398,,6.3650766005113555,,
,9015.0,1714.0,9180.0,1330.0,2767.0,2933.0,-74.0,2025-08-05 20:56:45,100.0,,-0.205131731513032,-2.68110414005085,-0.375313424530062,,5.471140618853206,,
,9014.0,1714.0,9177.0,1327.0,2766.0,2933.0,-80.0,2025-08-05 20:56:46,100.0,,-0.20542485436126,-2.681184605598,-0.376925795247897,,4.567333302355723,,
,9015.0,1714.0,9179.0,1330.0,2781.0,2941.0,-85.0,2025-08-05 20:56:47,101.0,,-0.205379235920603,-2.68159170806863,-0.375488579757207,,3.6668093460763136,,
,9013.0,1714.0,9177.0,1330.0,2777.0,2923.0,-86.0,2025-08-05 20:56:48,101.0,,-0.205351232970734,-2.68141622572888,-0.376239526354063,,2.780861821655878,,
,9013.0,1714.0,9176.0,1327.0,2783.0,2931.0,-89.0,2025-08-05 20:56:49,102.0,,-0.205529387835795,-2.68136767186838,-0.376220316801058,,1.9185131074567707,,
,9014.0,1716.0,9178.0,1328.0,2781.0,2956.0,-102.0,2025-08-05 20:56:50,102.0,,-0.205497258304796,-2.68144047567992,-0.377340600064224,,1.086327131590925,,
,9014.0,1714.0,9182.0,1330.0,2774.0,2960.0,-93.0,2025-08-05 20:56:51,102.0,,-0.20575879677872,-2.68163153105055,-0.377086566512936,,0.2884533871508881,,
,9014.0,1716.0,9182.0,1329.0,2789.0,2942.0,-106.0,2025-08-05 20:56:52,101.0,,-0.205650702903871,-2.68166634119331,-0.377743194544791,,-0.4731140992350418,,
,9017.0,1717.0,9186.0,1330.0,2781.0,2953.0,-81.0,2025-08-05 20:56:53,100.0,,-0.205737797179335,-2.68166800811112,-0.376639428378605,,-1.1981051758934522,,
,9016.0,1718.0,9189.0,1332.0,2786.0,2972.0,-93.0,2025-08-05 20:56:54,100.0,,-0.205545207522874,-2.68182027704406,-0.378063448577098,,-1.8874304106696165,,
,9021.0,1717.0,9191.0,1332.0,2785.0,2963.0,-98.0,2025-08-05 20:56:55,100.0,,-0.205871770512395,-2.68167253076491,-0.378083362837488,,-2.5425967710186623,,
,9021.0,1717.0,9195.0,1333.0,2780.0,2939.0,-85.0,2025-08-05 20:56:56,100.0,,-0.205855446925325,-2.68173617732805,-0.378217239242743,,-3.1651522792522586,,
,9021.0,1717.0,9200.0,1332.0,2770.0,2940.0,-107.0,2025-08-05 20:56:57,101.0,,-0.205821001543633,-2.68165599424517,-0.378621327274631,,-3.7562210545514634,,
,9026.0,1722.0,9204.0,1334.0,2770.0,2931.0,-117.0,2025-08-05 20:56:58,101.0,,-0.205743442970714,-2.68194830464699,-0.378798839350806,,-4.316174688925738,,
,9028.0,1719.0,9206.0,1334.0,2772.0,2919.0,-118.0,2025-08-05 20:56:59,101.0,,-0.205731115555887,-2.68168491816394,-0.378499685498878,,-4.844465901908657,,
,9029.0,1719.0,9209.0,1334.0,2772.0,2925.0,-113.0,2025-08-05 20:57:00,102.0,,-0.205806441200926,-2.68178310915946,-0.377680135048111,,-5.33962872355609,,
,9027.0,1721.0,9210.0,1331.0,2771.0,2938.0,-108.0,2025-08-05 20:57:01,103.0,,-0.205732433790133,-2.68177532837205,-0.378084852377369,,-5.799429520414039,,
,9031.0,1724.0,9216.0,1332.0,2770.0,2960.0,-94.0,2025-08-05 20:57:02,102.0,,-0.205496925336813,-2.68155540615667,-0.377157399201759,,-6.2211382620337305,,
,9033.0,1725.0,9218.0,1333.0,2787.0,2950.0,-92.0,2025-08-05 20:57:03,102.0,,-0.205403485194128,-2.68129725300384,-0.377018691324485,,-6.601881226907627,,
,9034.0,1724.0,9220.0,1336.0,2795.0,2935.0,-102.0,2025-08-05 20:57:04,101.0,,-0.20535233529125,-2.68115566802892,-0.377868900316088,,-6.93903426931443,,
,9034.0,1723.0,9220.0,1336.0,2781.0,2922.0,-103.0,2025-08-05 20:57:05,101.0,,-0.205410873494866,-2.68138844790223,-0.377183733385078,,-7.230617658478043,,
,9037.0,1723.0,9225.0,1336.0,2766.0,2915.0,-95.0,2025-08-05 20:57:06,101.0,,-0.205684143516378,-2.68118919138884,-0.376730211106922,,-7.475657228425525,,
,9038.0,1724.0,9223.0,1337.0,2765.0,2932.0,-83.0,2025-08-05 20:57:07,101.0,,-0.205884204504346,-2.68113299539507,-0.376791580145226,,-7.674481056314121,,
,9038.0,1725.0,9224.0,1337.0,2765.0,2933.0,-69.0,2025-08-05 20:57:08,100.0,,-0.205695926993385,-2.6814214907024,-0.37797798533917,,-7.828925971261399,,
,9037.0,1726.0,9227.0,1337.0,2772.0,2941.0,-84.0,2025-08-05 20:57:09,100.0,,-0.205884476194223,-2.68136166300034,-0.377396231824847,,-7.94243395399729,,
,9037.0,1727.0,9226.0,1336.0,2772.0,2929.0,-61.0,2025-08-05 20:57:10,99.0,,-0.205963037174495,-2.68109451596578,-0.377858937211781,,-8.020024664778504,,
,9040.0,1725.0,9227.0,1335.0,2771.0,2915.0,-87.0,2025-08-05 20:57:11,99.0,,-0.205979947567874,-2.6810570199456,-0.375424044993809,,-8.068136575923651,,
,9040.0,1728.0,9224.0,1336.0,2769.0,2936.0,-80.0,2025-08-05 20:57:12,98.0,,-0.20651536049554,-2.68104803167103,-0.37552049049278,,-8.094335982739175,,
,9039.0,1727.0,9225.0,1335.0,2762.0,2931.0,-74.0,2025-08-05 20:57:13,97.0,,-0.206618987119938,-2.68104354208512,-0.375621130353183,,-8.106902403308048,,
,9041.0,1723.0,9227.0,1337.0,2776.0,2916.0,-77.0,2025-08-05 20:57:14,96.0,,-0.206806048069078,-2.68161381976618,-0.375390902341037,,-8.114312568892318,,
,9041.0,1725.0,9226.0,1339.0,2779.0,2923.0,-75.0,2025-08-05 20:57:15,96.0,,-0.206848921802981,-2.68181001623404,-0.376240185469513,,-8.124662964952515,,
,9042.0,1727.0,9231.0,1339.0,2774.0,2948.0,-95.0,2025-08-05 20:57:16,96.0,,-0.206627041133461,-2.68125748309758,-0.376201930272739,,-8.145088456847818,,
,9044.0,1728.0,9229.0,1338.0,2776.0,2939.0,-75.0,2025-08-05 20:57:17,96.0,,-0.206877697732173,-2.68129173144611,-0.376087521641058,,-8.18124509146689,,
,9041.0,1726.0,9234.0,1337.0,2812.0,2931.0,-102.0,2025-08-05 20:57:18,97.0,,-0.206985493685784,-2.68188199239877,-0.3769529565678,,-8.236922558252033,,
,9047.0,1726.0,9231.0,1336.0,2807.0,2933.0,-88.0,2025-08-05 20:57:19,98.0,,-0.206822844379437,-2.68180253096423,-0.375421528752468,,-8.313833825707492,,
,9044.0,1728.0,9236.0,1339.0,2810.0,2932.0,-81.0,2025-08-05 20:57:20,99.0,,-0.206981523186431,-2.68209012856527,-0.376849071744168,,-8.411599613192395,,
,9049.0,1727.0,9236.0,1339.0,2807.0,2942.0,-92.0,2025-08-05 20:57:21,99.0,,-0.20715509978525,-2.68243579027147,-0.376399078068312,,-8.527911780733591,,
,9047.0,1729.0,9239.0,1340.0,2784.0,2934.0,-97.0,2025-08-05 20:57:22,100.0,,-0.207257307618258,-2.68293733562346,-0.376587105094742,,-8.658831656003905,,
,9049.0,1727.0,9241.0,1337.0,2763.0,2943.0,-106.0,2025-08-05 20:57:23,100.0,,-0.20769984404845,-2.68297307284346,-0.377847914834285,,-8.799163162301777,,
,9051.0,1730.0,9245.0,1341.0,2770.0,2932.0,-97.0,2025-08-05 20:57:24,100.0,,-0.207771267149058,-2.68312976052977,-0.37801483937233,,-8.942838418265646,,
,9052.0,1731.0,9245.0,1341.0,2768.0,2929.0,-109.0,2025-08-05 20:57:25,100.0,,-0.207734807253231,-2.68320181224724,-0.378722877216067,,-9.083263736384625,,
,9056.0,1731.0,9249.0,1340.0,2783.0,2919.0,-102.0,2025-08-05 20:57:26,99.0,,-0.207914535265776,-2.68315787840002,-0.376929201894497,,-9.213592763248997,,
,9055.0,1731.0,9251.0,1339.0,2791.0,2936.0,-94.0,2025-08-05 20:57:27,99.0,,-0.208294327254023,-2.68337969150476,-0.378221360180227,,-9.326915579306224,,
,9058.0,1729.0,9255.0,1340.0,2774.0,2952.0,-83.0,2025-08-05 20:57:28,99.0,,-0.207912187800821,-2.6832069643903,-0.379196368259245,,-9.416372558151322,,
,9059.0,1732.0,9260.0,1342.0,2770.0,2953.0,-84.0,2025-08-05 20:57:29,100.0,,-0.208302528575881,-2.68333230218547,-0.378116190666652,,-9.475215925732956,,
,9062.0,1735.0,9263.0,1343.0,2774.0,2941.0,-74.0,2025-08-05 20:57:30,101.0,,-0.208237338147222,-2.68324391815904,-0.378894881790413,,-9.49684893598456,,
,9062.0,1735.0,9264.0,1343.0,2780.0,2937.0,-88.0,2025-08-05 20:57:31,101.0,,-0.208092998358957,-2.68328764931545,-0.376699977543579,,-9.474872950415337,,
,9065.0,1737.0,9269.0,1344.0,2779.0,2934.0,-99.0,2025-08-05 20:57:32,102.0,,-0.207848598021995,-2.68285998431285,-0.376670802413554,,-9.403167755099812,,
,9065.0,1737.0,9272.0,1345.0,2780.0,2941.0,-88.0,2025-08-05 20:57:33,103.0,,-0.207887346116623,-2.68297833789787,-0.377962491617477,,-9.276021395532283,,
2025-08-05 20:54:52,9070.0,1740.0,9275.0,1343.0,2775.0,2947.0,-70.0,2025-08-05 20:57:34,104.0,2025/08/05 08:54:52 PM,-0.208005390334305,-2.68275209243402,-0.377119032233381,,-9.08831373517788,,
,9071.0,1739.0,9277.0,1345.0,2771.0,2953.0,-79.0,2025-08-05 20:57:35,104.0,,-0.207949926285208,-2.68274254062503,-0.377436776572901,,-8.835744185266849,,
,9071.0,1740.0,9282.0,1344.0,2779.0,2940.0,-105.0,2025-08-05 20:57:36,104.0,,-0.207889119048411,-2.68274201781562,-0.377289455746486,,-8.515080839225595,,
,9076.0,1740.0,9287.0,1345.0,2775.0,2952.0,-97.0,2025-08-05 20:57:37,104.0,,-0.207878347830275,-2.68255919270419,-0.377567495218314,,-8.124398868536572,,
,9077.0,1743.0,9291.0,1348.0,2781.0,2948.0,-95.0,2025-08-05 20:57:38,105.0,,-0.207745614929687,-2.68273314064957,-0.37635501849078,,-7.663273771812719,,
,9081.0,1745.0,9294.0,1346.0,2787.0,2947.0,-91.0,2025-08-05 20:57:39,105.0,,-0.207640709300409,-2.68259920863183,-0.378169008292303,,-7.1329011547851096,,
,9079.0,1743.0,9294.0,1345.0,2786.0,2947.0,-89.0,2025-08-05 20:57:40,105.0,,-0.207694735927771,-2.68233487012053,-0.376734531484403,,-6.5361271977716004,,
,9081.0,1746.0,9299.0,1347.0,2789.0,2941.0,-77.0,2025-08-05 20:57:41,105.0,,-0.207434440018265,-2.68201119363841,-0.377056745278669,,-5.877388687161321,,
,9086.0,1746.0,9306.0,1351.0,2779.0,2943.0,-86.0,2025-08-05 20:57:42,104.0,,-0.207610092058151,-2.68130239797354,-0.375380688853697,,-5.162574341649793,,
,9087.0,1748.0,9310.0,1349.0,2774.0,2944.0,-82.0,2025-08-05 20:57:43,104.0,,-0.207276753858336,-2.68165234051327,-0.375548297924391,,-4.39882755424623,,
,9089.0,1745.0,9309.0,1349.0,2797.0,2943.0,-88.0,2025-08-05 20:57:44,103.0,,-0.207222594416729,-2.68161773497935,-0.375764256552193,,-3.5943135561709907,,
,9089.0,1747.0,9312.0,1350.0,2785.0,2964.0,-115.0,2025-08-05 20:57:45,103.0,,-0.207362658735969,-2.68148798501815,-0.37649693415966,,-2.7579714534104314,,
,9094.0,1747.0,9311.0,1351.0,2773.0,2974.0,-113.0,2025-08-05 20:57:46,103.0,,-0.207095531438716,-2.68146083028123,-0.374424708252721,,-1.8992646491934708,,
,9093.0,1748.0,9309.0,1353.0,2772.0,2978.0,-113.0,2025-08-05 20:57:47,103.0,,-0.207030452824326,-2.68114123620699,-0.375107040902307,,-1.0279340883283399,,
,9090.0,1748.0,9306.0,1350.0,2776.0,2962.0,-77.0,2025-08-05 20:57:48,103.0,,-0.207222575177126,-2.6812906537301,-0.375802049537866,,-0.1537508044751035,,
,9087.0,1745.0,9296.0,1347.0,2770.0,2945.0,-75.0,2025-08-05 20:57:49,103.0,,-0.206994726988266,-2.68113201654243,-0.375670526128032,,0.7137394603579607,,
,9089.0,1745.0,9287.0,1349.0,2761.0,2921.0,-72.0,2025-08-05 20:57:50,104.0,,-0.206871317701663,-2.68117944998092,-0.374961569419065,,1.5654849785548188,,
,9087.0,1741.0,9282.0,1348.0,2774.0,2928.0,-78.0,2025-08-05 20:57:51,105.0,,-0.207244020655768,-2.68123312575167,-0.376218141601649,,2.393209337449606,,
,9082.0,1739.0,9271.0,1346.0,2781.0,2920.0,-70.0,2025-08-05 20:57:52,106.0,,-0.207124642848693,-2.68113642885143,-0.375561495536903,,3.1896964610718856,,
,9078.0,1735.0,9263.0,1345.0,2759.0,2912.0,-65.0,2025-08-05 20:57:53,107.0,,-0.20696090315846,-2.68110352021959,-0.375771250349458,,3.94906260985969,,
,9073.0,1734.0,9257.0,1345.0,2766.0,2917.0,-71.0,2025-08-05 20:57:54,107.0,,-0.206756145162273,-2.68083696113368,-0.374845136434133,,4.6669921679246755,,
,9074.0,1733.0,9246.0,1344.0,2769.0,2929.0,-85.0,2025-08-05 20:57:55,107.0,,-0.206496330247251,-2.68048216904762,-0.37426082172606,,5.340909828220094,,
,9067.0,1732.0,9244.0,1343.0,2768.0,2919.0,-80.0,2025-08-05 20:57:56,106.0,,-0.20646000897533,-2.68042273623156,-0.374738729381958,,5.970060745597773,,
,9067.0,1731.0,9238.0,1339.0,2769.0,2929.0,-75.0,2025-08-05 20:57:57,105.0,,-0.206680625137495,-2.68071219740768,-0.374741112534038,,6.5554732557961986,,
,9065.0,1728.0,9232.0,1340.0,2772.0,2957.0,-67.0,2025-08-05 20:57:58,105.0,,-0.206628240684043,-2.68016769982093,-0.375578956315207,,7.099786040576075,,
,9065.0,1731.0,9230.0,1341.0,2774.0,2955.0,-70.0,2025-08-05 20:57:59,104.0,,-0.206511059021313,-2.68022817261997,-0.37310905993917,,7.606932165536682,,
,9064.0,1728.0,9231.0,1340.0,2776.0,2955.0,-77.0,2025-08-05 20:58:00,103.0,,-0.206604176555305,-2.68009682701353,-0.373790914323969,,8.081684801557813,,
,9061.0,1727.0,9226.0,1340.0,2784.0,2958.0,-73.0,2025-08-05 20:58:01,103.0,,-0.20638521140044,-2.6801011123589,-0.373740176495688,,8.529083107796383,,
,9059.0,1725.0,9225.0,1336.0,2785.0,2943.0,-87.0,2025-08-05 20:58:02,102.0,,-0.206317412490142,-2.67995569700735,-0.372872203684026,,8.953772087853746,,
,9059.0,1726.0,9228.0,1339.0,2791.0,2958.0,-99.0,2025-08-05 20:58:03,101.0,,-0.206253735846318,-2.6798840955168,-0.373440375083419,,9.359306868542557,,
,9066.0,1727.0,9229.0,1338.0,2783.0,2953.0,-94.0,2025-08-05 20:58:04,100.0,,-0.206321845602751,-2.67990578435776,-0.373134484950147,,9.747487038743916,,
,9062.0,1728.0,9230.0,1339.0,2776.0,2958.0,-102.0,2025-08-05 20:58:05,99.0,,-0.206269480019212,-2.6798433525101,-0.373264813116065,,10.1177958199794,,
,9061.0,1725.0,9232.0,1338.0,2784.0,2950.0,-99.0,2025-08-05 20:58:06,99.0,,-0.206129617903005,-2.67997025201329,-0.373846063401177,,10.467018061819473,,
,9062.0,1725.0,9233.0,1339.0,2779.0,2945.0,-101.0,2025-08-05 20:58:07,98.0,,-0.206004642023888,-2.68003673312143,-0.372932253817159,,10.789099396852139,,
,9065.0,1732.0,9236.0,1339.0,2772.0,2953.0,-109.0,2025-08-05 20:58:08,98.0,,-0.205884352633011,-2.67985487241718,-0.373047217380316,,11.075287997337453,,
,9063.0,1730.0,9237.0,1338.0,2772.0,2963.0,-110.0,2025-08-05 20:58:09,98.0,,-0.205893939755577,-2.67965817214839,-0.372293185152939,,11.31457266866223,,
,9069.0,1727.0,9243.0,1339.0,2798.0,2939.0,-102.0,2025-08-05 20:58:10,98.0,,-0.205844968426826,-2.67986698986602,-0.373608278943489,,11.494398700001792,,
,9067.0,1729.0,9247.0,1341.0,2775.0,2929.0,-110.0,2025-08-05 20:58:11,98.0,,-0.206077319915088,-2.67972579873936,-0.372268761450153,,11.601608808469472,,
,9072.0,1731.0,9250.0,1340.0,2776.0,2927.0,-93.0,2025-08-05 20:58:12,97.0,,-0.206066598506932,-2.67977005355222,-0.372583805297591,,11.623525268815323,,
,9072.0,1732.0,9253.0,1342.0,2787.0,2933.0,-97.0,2025-08-05 20:58:13,97.0,,-0.205944386892866,-2.67965595986847,-0.371924083470896,,11.54906667043845,,
,9075.0,1733.0,9258.0,1343.0,2813.0,2940.0,-71.0,2025-08-05 20:58:14,97.0,,-0.205674035388506,-2.67950987605497,-0.371415060328916,,11.369783411414247,,
,9076.0,1733.0,9260.0,1342.0,2794.0,2954.0,-86.0,2025-08-05 20:58:15,97.0,,-0.205638754014943,-2.67941356256649,-0.371151961185873,,11.080702146948827,,
,9079.0,1736.0,9265.0,1345.0,2777.0,2942.0,-76.0,2025-08-05 20:58:16,97.0,,-0.20558091317119,-2.67951220337994,-0.372034330632085,,10.680890444233412,,
,9081.0,1736.0,9269.0,1345.0,2779.0,2921.0,-76.0,2025-08-05 20:58:17,97.0,,-0.205676810567266,-2.67920909117126,-0.371871150635055,,10.173686124725075,,
,9082.0,1740.0,9270.0,1348.0,2792.0,2914.0,-79.0,2025-08-05 20:58:18,96.0,,-0.205664189883072,-2.67957010734103,-0.372270653101272,,9.566576332342162,,
,9082.0,1735.0,9273.0,1345.0,2793.0,2918.0,-81.0,2025-08-05 20:58:19,96.0,,-0.205663292435417,-2.67976024831043,-0.371117109172581,,8.870752590579368,,
,9087.0,1739.0,9277.0,1345.0,2764.0,2941.0,-78.0,2025-08-05 20:58:20,96.0,,-0.205371996888257,-2.67914600235585,-0.370977266863837,,8.10040281757083,,
,9088.0,1739.0,9278.0,1346.0,2764.0,2944.0,-78.0,2025-08-05 20:58:21,97.0,,-0.205697169604271,-2.67911073773683,-0.371683904874481,,7.271823852467973,,
,9089.0,1739.0,9280.0,1347.0,2777.0,2949.0,-78.0,2025-08-05 20:58:22,98.0,,-0.205840948373624,-2.67966870345543,-0.372220319279316,,6.402446465906792,,
,9089.0,1742.0,9279.0,1347.0,2781.0,2915.0,-76.0,2025-08-05 20:58:23,99.0,,-0.205555004355161,-2.67918956216497,-0.371861939963682,,5.509860992181945,,
,9089.0,1739.0,9277.0,1344.0,2769.0,2936.0,-71.0,2025-08-05 20:58:24,100.0,,-0.205722749592016,-2.67887490545206,-0.370625826352452,,4.61091971901613,,
,9092.0,1740.0,9282.0,1345.0,2762.0,2939.0,-77.0,2025-08-05 20:58:25,100.0,,-0.205360300580918,-2.67904002961714,-0.37177525906875,,3.720975646289556,,
,9094.0,1740.0,9282.0,1347.0,2768.0,2941.0,-77.0,,,,-0.20546751871034,-2.67884189722489,-0.371694548418243,,2.8532982374271447,,
,9093.0,1741.0,9280.0,1345.0,2758.0,2940.0,-113.0,,,,-0.205582246808072,-2.67909417581414,-0.370924782011038,,2.0186869042019,,
,9092.0,1742.0,9281.0,1345.0,2783.0,2932.0,-82.0,,,,-0.205815213276479,-2.67904702637207,-0.371060544622881,,1.2252844605827193,,
,9096.0,1741.0,9281.0,1346.0,2765.0,2929.0,-83.0,,,,-0.205870831663658,-2.67932781072966,-0.370385517490948,,0.47857791477415423,,
,9095.0,1740.0,9282.0,1347.0,2773.0,2922.0,-84.0,,,,-0.20596592272955,-2.67918197681129,-0.371182613131289,,-0.2184365379406012,,
,9095.0,1742.0,9281.0,1347.0,2794.0,2922.0,-76.0,,,,-0.205993136154924,-2.67914719481594,-0.369300772143763,,-0.8649546451401009,,
,9095.0,1741.0,9282.0,1347.0,2796.0,2949.0,-64.0,,,,-0.20619998536773,-2.67926221407756,-0.369958109117025,,-1.4619670406105414,,
,9096.0,1739.0,9285.0,1346.0,2779.0,2926.0,-90.0,,,,-0.206174495116214,-2.67923700428519,-0.369650385769227,,-2.0118036931734493,,
,9100.0,1743.0,9288.0,1348.0,2777.0,2944.0,-89.0,,,,-0.206207426946348,-2.67951457509875,-0.370132687544625,,-2.517661282763044,,
,9101.0,1744.0,9288.0,1347.0,2789.0,2951.0,-95.0,,,,-0.206368631749628,-2.67971720464049,-0.370776131963907,,-2.983153210502234,,
,9100.0,1742.0,9285.0,1347.0,2801.0,2938.0,-81.0,,,,-0.206389287550099,-2.68045131152017,-0.372277597228889,,-3.411916496063929,,
,9101.0,1743.0,9291.0,1348.0,2793.0,2953.0,-96.0,,,,-0.206185693371815,-2.6796183754923,-0.370645755233207,,-3.8073012699545394,,
,9102.0,1745.0,9293.0,1351.0,2777.0,2953.0,-107.0,,,,-0.205995542504158,-2.67967345086064,-0.370352934269873,,-4.172157938272919,,
,9105.0,1743.0,9295.0,1349.0,2772.0,2953.0,-99.0,,,,-0.206126368013554,-2.67965435724484,-0.371053412134383,,-4.508725458974085,,
,9109.0,1748.0,9300.0,1349.0,2763.0,2956.0,-113.0,,,,-0.206135653941902,-2.67975321153539,-0.371344366208705,,-4.8186128010060125,,
,9107.0,1746.0,9300.0,1348.0,2768.0,2958.0,-101.0,,,,-0.206214975826639,-2.67935945230131,-0.372100755956515,,-5.102856201806004,,
,9112.0,1749.0,9303.0,1351.0,2775.0,2947.0,-102.0,,,,-0.206035848378576,-2.67898678292487,-0.371325607206647,,-5.36202905553228,,
,9114.0,1747.0,9303.0,1350.0,2773.0,2960.0,-101.0,,,,-0.206204476250735,-2.67926738137783,-0.369529062369865,,-5.596380240811119,,
,9115.0,1751.0,9308.0,1352.0,2772.0,2955.0,-94.0,,,,-0.20600123335403,-2.67890790977281,-0.371245143949945,,-5.805980007284471,,
,9115.0,1750.0,9306.0,1351.0,2779.0,2929.0,-91.0,,,,-0.206091409959936,-2.67884112653962,-0.370756346560985,,-5.990858274206,,
,9119.0,1753.0,9313.0,1353.0,2782.0,2913.0,-96.0,,,,-0.206109960315379,-2.67872902083279,-0.369493275635898,,-6.151126017818242,,
,9120.0,1751.0,9317.0,1354.0,2779.0,2945.0,-88.0,,,,-0.206011323459002,-2.67870741451935,-0.36906157463052,,-6.28707475169413,,
,9120.0,1751.0,9317.0,1353.0,2770.0,2952.0,-97.0,,,,-0.2058223124339,-2.6785818660226,-0.369279801349109,,-6.399251460259347,,
,9124.0,1752.0,9318.0,1351.0,2751.0,2934.0,-74.0,,,,-0.206004468995973,-2.67841881174173,-0.368509857836914,,-6.4885069806147655,,
,9126.0,1755.0,9323.0,1355.0,2769.0,2922.0,-66.0,,,,-0.205898650165808,-2.67835274138557,-0.368719037315135,,-6.556015284175408,,
,9129.0,1753.0,9325.0,1352.0,2776.0,2925.0,-74.0,,,,-0.205822482959056,-2.67803152865195,-0.368567186979534,,-6.6032601416299554,,
,9130.0,1756.0,9329.0,1354.0,2791.0,2935.0,-72.0,,,,-0.205759973525623,-2.6781231724332,-0.368515077811162,,-6.631985325651098,,
,9134.0,1757.0,9329.0,1354.0,2780.0,2941.0,-87.0,,,,-0.205659696752314,-2.67799322084928,-0.3681192325302,,-6.644106056929008,,
,9134.0,1756.0,9329.0,1353.0,2779.0,2947.0,-101.0,,,,-0.205754643567215,-2.67771204479773,-0.367962712648388,,-6.64158362498392,,
,9138.0,1757.0,9335.0,1354.0,2761.0,2964.0,-73.0,,,,-0.205610633328915,-2.67746297365958,-0.367782355281932,,-6.626271561136899,,
,9139.0,1759.0,9339.0,1356.0,2786.0,2951.0,-98.0,,,,-0.205431308796681,-2.67761779588747,-0.36756992053831,,-6.599748593841371,,
,9143.0,1759.0,9339.0,1359.0,2787.0,2939.0,-99.0,,,,-0.205488492317354,-2.67740680161359,-0.366180719343406,,-6.563158614829874,,
,9144.0,1759.0,9341.0,1353.0,2771.0,2962.0,-85.0,,,,-0.205596092412965,-2.67751362318524,-0.367545853436194,,-6.517079423783153,,
,9146.0,1761.0,9343.0,1358.0,2783.0,2961.0,-81.0,,,,-0.20580596440703,-2.6771570530239,-0.367067648406383,,-6.4614396024104686,,
,9145.0,1761.0,9346.0,1357.0,2774.0,2957.0,-71.0,,,,-0.20550719725848,-2.67707805455789,-0.367048054734689,,-6.395496947631816,,
,9147.0,1761.0,9340.0,1358.0,2763.0,2958.0,-70.0,,,,-0.20542675409136,-2.67701774855061,-0.366597831702649,,-6.3178835135368745,,
,9147.0,1761.0,9337.0,1357.0,2773.0,2958.0,-67.0,,,,-0.205387037353387,-2.67736939756041,-0.367490623939511,,-6.2267128146355954,,
,9146.0,1760.0,9329.0,1355.0,2785.0,2966.0,-84.0,,,,-0.205517807239973,-2.67731554410099,-0.36777290499925,,-6.119735680939135,,
,9145.0,1757.0,9325.0,1353.0,2776.0,2946.0,-103.0,,,,-0.205565819831033,-2.67722159544594,-0.366958903743638,,-5.994524422014847,,
,9144.0,1753.0,9316.0,1353.0,2768.0,2944.0,-82.0,,,,-0.20541107900845,-2.67756868892473,-0.366546034161887,,-5.848662080946295,,
,9137.0,1753.0,9307.0,1353.0,2756.0,2927.0,-77.0,,,,-0.20548529679272,-2.67754849982963,-0.367385786504987,,-5.6799154542906924,,
,9134.0,1748.0,9297.0,1350.0,2758.0,2909.0,-95.0,,,,-0.205497091259006,-2.67741431107207,-0.367053117787491,,-5.486376376691025,,
,9130.0,1751.0,9288.0,1348.0,2743.0,2920.0,-66.0,,,,-0.205370051967832,-2.67747754752095,-0.367720496030698,,-5.266563331748512,,
,9130.0,1747.0,9281.0,1348.0,2758.0,2922.0,-68.0,,,,-0.205552454691665,-2.67732225847232,-0.366938359933887,,-5.019482520690519,,
,9127.0,1746.0,9274.0,1347.0,2757.0,2918.0,-64.0,,,,-0.205206819678368,-2.67749754976481,-0.368190174896134,,-4.744652865681825,,
,9123.0,1743.0,9266.0,1345.0,2761.0,2911.0,-97.0,,,,-0.205222682643623,-2.67767529260334,-0.366819448159972,,-4.442102787957918,,
,9120.0,1743.0,9263.0,1346.0,2769.0,2911.0,-77.0,,,,-0.205544350424592,-2.67786025748051,-0.366749809469396,,-4.112348056653974,,
,9119.0,1743.0,9256.0,1345.0,2768.0,2905.0,-87.0,,,,-0.20569254366667,-2.67732565905539,-0.367106614669099,,-3.756359550745763,,
,9119.0,1742.0,9254.0,1344.0,2769.0,2925.0,-92.0,,,,-0.205753757072566,-2.67745690043018,-0.366747601796571,,-3.3755274893234564,,
,9118.0,1742.0,9252.0,1344.0,2790.0,2948.0,-82.0,,,,-0.205747664052596,-2.67757132262855,-0.367608807577284,,-2.971625201353092,,
,9116.0,1740.0,9247.0,1340.0,2786.0,2946.0,-70.0,,,,-0.20565294840529,-2.67758469658505,-0.366969761532491,,-2.5467722196052405,,
,9113.0,1739.0,9245.0,1343.0,2771.0,2960.0,-92.0,,,,-0.205678138569741,-2.6774343989578,-0.366522892452885,,-2.1033949224565553,,
,9117.0,1741.0,9244.0,1343.0,2792.0,2941.0,-101.0,,,,-0.205498492426105,-2.67731479815825,-0.367933635814646,,-1.644183700864594,,
,9118.0,1739.0,9246.0,1345.0,2796.0,2945.0,-107.0,,,,-0.205564683872279,-2.67772314186034,-0.367365003453555,,-1.1720479172562184,,
,9119.0,1740.0,9244.0,1342.0,2796.0,2965.0,-91.0,,,,-0.205495564607122,-2.67713349402995,-0.366863073960171,,-0.6900722527214148,,
,9117.0,1740.0,9244.0,1343.0,2785.0,2957.0,-82.0,,,,-0.20544712150844,-2.67702027423874,-0.365717527556399,,-0.20147914804385844,,
,9121.0,1740.0,9244.0,1344.0,2784.0,2943.0,-105.0,,,,-0.205333114634851,-2.67711406190287,-0.366016620885955,,0.29039871136290624,,
,9121.0,1741.0,9246.0,1344.0,2787.0,2945.0,-104.0,,,,-0.205291353380769,-2.67683764593587,-0.366748564823074,,0.782134688644025,,
,9121.0,1742.0,9247.0,1343.0,2797.0,2933.0,-100.0,,,,-0.205392525887028,-2.67674314744981,-0.365916786768794,,1.2702166094370764,,
,9123.0,1743.0,9248.0,1344.0,2796.0,2947.0,-85.0,,,,-0.205291931872496,-2.67654043765248,-0.365567106199987,,1.7510560576908327,,
,9127.0,1743.0,9252.0,1344.0,2785.0,2955.0,-94.0,,,,-0.205260207054765,-2.67675675265522,-0.366395114003409,,2.2210120343713218,,
,9128.0,1744.0,9256.0,1345.0,2788.0,2948.0,-96.0,,,,-0.205236508256722,-2.67648966251102,-0.365816701989958,,2.6764443051895825,,
,9130.0,1745.0,9256.0,1347.0,2786.0,2929.0,-82.0,,,,-0.205001872970404,-2.67654005133812,-0.36687658818732,,3.1138088135031854,,
,9130.0,1744.0,9258.0,1345.0,2770.0,2910.0,-101.0,,,,-0.205323370067032,-2.67658267913845,-0.366606924862771,,3.529799455073624,,
,9133.0,1746.0,9258.0,1347.0,2794.0,2924.0,-82.0,,,,-0.205224800023682,-2.67695871524933,-0.366762313944746,,3.9215292457718687,,
,9136.0,1748.0,9263.0,1349.0,2781.0,2940.0,-84.0,,,,-0.205234821271393,-2.67704265764856,-0.366584755157629,,4.286732821993971,,
,9136.0,1747.0,9266.0,1347.0,2786.0,2930.0,-94.0,,,,-0.20553670865432,-2.67687189217413,-0.366983637092008,,4.62396436642104,,
,9137.0,1746.0,9261.0,1346.0,2778.0,2926.0,-100.0,,,,-0.205369368120224,-2.67693960374694,-0.366769260353414,,4.932762119857984,,
,9140.0,1747.0,9264.0,1345.0,2784.0,2947.0,-97.0,,,,-0.205445238534943,-2.6766829220457,-0.365286399472005,,5.213752853899089,,
,9141.0,1750.0,9265.0,1348.0,2775.0,2951.0,-95.0,,,,-0.205211114898353,-2.67712568381432,-0.36670844082244,,5.468676297482875,,
,9139.0,1748.0,9265.0,1347.0,2774.0,2969.0,-79.0,,,,-0.205029446026509,-2.67713618061382,-0.36650519126277,,5.7003191919996805,,
,9145.0,1748.0,9267.0,1349.0,2769.0,2956.0,-84.0,,,,-0.205299970528977,-2.67687986516069,-0.366350072292634,,5.9123595795127395,,
,9143.0,1748.0,9264.0,1345.0,2759.0,2956.0,-87.0,,,,-0.205188336690462,-2.67698090595074,-0.366792458696874,,6.109131936724631,,
,9146.0,1748.0,9264.0,1349.0,2759.0,2938.0,-92.0,,,,-0.205144749753211,-2.67702427519646,-0.366602998574167,,6.295330825790796,,
,9146.0,1748.0,9264.0,1345.0,2770.0,2940.0,-89.0,,,,-0.205090650745903,-2.67736519228967,-0.366516234811203,,6.4756739271655,,
,9147.0,1748.0,9263.0,1347.0,2773.0,2930.0,-87.0,,,,-0.205319397293378,-2.67719910401283,-0.365530256417569,,6.65454558590245,,
2025-08-05 20:54:53,9145.0,1746.0,9260.0,1345.0,2773.0,2909.0,-83.0,,,2025/08/05 08:54:53 PM,-0.205572525050234,-2.67717729266062,-0.366102497511469,,6.835641510485664,,
,9147.0,1748.0,9260.0,1349.0,2769.0,2929.0,-85.0,,,,-0.205662004881511,-2.67703161919546,-0.366655583554233,,7.0216355505026256,,
,9147.0,1748.0,9259.0,1347.0,2778.0,2942.0,-96.0,,,,-0.205713537596553,-2.67704730433963,-0.365956596152922,,7.213890226004845,,
,9148.0,1747.0,9258.0,1346.0,2787.0,2941.0,-102.0,,,,-0.205722740875936,-2.67707362723217,-0.36529030119609,,7.4122324559013615,,
,9148.0,1747.0,9255.0,1346.0,2776.0,2930.0,-81.0,,,,-0.205718723083655,-2.67681310678508,-0.365601875767164,,7.614813822111581,,
,9150.0,1749.0,9258.0,1344.0,2797.0,2917.0,-81.0,,,,-0.20591035960303,-2.67726811005378,-0.365915732880924,,7.818070921113202,,
,9151.0,1745.0,9259.0,1348.0,2781.0,2932.0,-86.0,,,,-0.205915805473921,-2.6773664278401,-0.36525015743258,,8.016796496961307,,
,9152.0,1748.0,9259.0,1347.0,2775.0,2927.0,-100.0,,,,-0.206070883148169,-2.67715888519914,-0.366209983741473,,8.20432617778571,,
,9151.0,1746.0,9258.0,1346.0,2765.0,2936.0,-104.0,,,,-0.205901388758814,-2.67736084917616,-0.36616552903355,,8.372838154615316,,
,9151.0,1747.0,9261.0,1345.0,2768.0,2954.0,-86.0,,,,-0.2059460198418,-2.67759745413417,-0.366198188061227,,8.51375360846112,,
,9154.0,1749.0,9260.0,1347.0,2796.0,2953.0,-96.0,,,,-0.205748881797177,-2.67764188802038,-0.366877041038908,,8.618214779501455,,
,9157.0,1751.0,9262.0,1347.0,2800.0,2928.0,-112.0,,,,-0.205850577360225,-2.67729988313196,-0.366685313401824,,8.67760713482674,,
,9156.0,1749.0,9264.0,1346.0,2813.0,2939.0,-114.0,,,,-0.205563552966106,-2.67770197668199,-0.367406916661321,,8.684084210413392,,
,9157.0,1750.0,9265.0,1345.0,2802.0,2961.0,-111.0,,,,-0.205804934647714,-2.67761032721374,-0.367632813818,,8.631049765024882,,
,9158.0,1749.0,9266.0,1346.0,2790.0,2955.0,-95.0,,,,-0.205759211189075,-2.67739806856792,-0.367003430531975,,8.513552656207766,,
,9158.0,1750.0,9269.0,1350.0,2783.0,2944.0,-101.0,,,,-0.205957695636613,-2.67775266777,-0.366669049001245,,8.328556075059023,,
,9158.0,1753.0,9271.0,1349.0,2785.0,2948.0,-107.0,,,,-0.205857735397563,-2.67723680025337,-0.366524240452885,,8.075055085176183,,
,9162.0,1750.0,9275.0,1347.0,2775.0,2933.0,-77.0,,,,-0.205911126906118,-2.67756573653692,-0.366388844802345,,7.75403437642027,,
,9163.0,1750.0,9275.0,1347.0,2775.0,2941.0,-74.0,,,,-0.205916247715734,-2.67747175477133,-0.366564210942366,,7.368279445247433,,
,9166.0,1754.0,9281.0,1351.0,2782.0,2939.0,-93.0,,,,-0.205819551528523,-2.6771319772224,-0.365758074657823,,6.922074848242285,,
,9167.0,1754.0,9281.0,1349.0,2782.0,2950.0,-99.0,,,,-0.205612033351414,-2.67672837464753,-0.365575752109683,,6.420837728984091,,
,9168.0,1754.0,9283.0,1347.0,2788.0,2923.0,-71.0,,,,-0.205576787957034,-2.67650300782097,-0.365104201623031,,5.8707396259799545,,
,9172.0,1755.0,9285.0,1349.0,2780.0,2939.0,-66.0,,,,-0.205833520128395,-2.67671896955073,-0.365430279262889,,5.278363801227002,,
,9173.0,1754.0,9287.0,1352.0,2779.0,2941.0,-66.0,,,,-0.205612618425672,-2.67679023498061,-0.365092400858377,,4.650431507129399,,
,9173.0,1758.0,9288.0,1353.0,2776.0,2960.0,-79.0,,,,-0.205735290859152,-2.67657774682659,-0.36582085259524,,3.9936130105175245,,
,9178.0,1757.0,9290.0,1350.0,2774.0,2962.0,-75.0,,,,-0.20577084802843,-2.67643950210075,-0.365624421101992,,3.3144217662006006,,
,9178.0,1755.0,9291.0,1350.0,2780.0,2960.0,-73.0,,,,-0.205820415984346,-2.67650445806979,-0.365486473185977,,2.619175595287463,,
,9179.0,1759.0,9294.0,1351.0,2784.0,2966.0,-102.0,,,,-0.205855588652208,-2.67652527725219,-0.365162912308179,,1.9139989339087442,,
,9183.0,1762.0,9297.0,1352.0,2781.0,2950.0,-85.0,,,,-0.205835078337053,-2.67654429942822,-0.364879469966505,,1.2048366242312427,,
,9184.0,1758.0,9300.0,1354.0,2779.0,2954.0,-88.0,,,,-0.20554805121577,-2.6765195867808,-0.366359524100926,,0.4974530723725511,,
,9183.0,1758.0,9298.0,1350.0,2761.0,2956.0,-73.0,,,,-0.20552636720724,-2.6768634579786,-0.365517562151961,,-0.20259975183669846,,
,9185.0,1760.0,9298.0,1351.0,2780.0,2947.0,-67.0,,,,-0.205800800016227,-2.67691493238243,-0.365974583842265,,-0.8900485616792706,,
,9185.0,1759.0,9298.0,1352.0,2770.0,2932.0,-81.0,,,,-0.205787106155306,-2.67682541018151,-0.366606698962554,,-1.559989249339879,,
,9187.0,1760.0,9293.0,1351.0,2764.0,2932.0,-90.0,,,,-0.206111763856766,-2.67691781670758,-0.366685674834275,,-2.2079833430787916,,
,9184.0,1758.0,9290.0,1352.0,2759.0,2914.0,-78.0,,,,-0.205956831526012,-2.67687827271617,-0.367593029301218,,-2.83014122811466,,
,9182.0,1755.0,9284.0,1349.0,2753.0,2908.0,-84.0,,,,-0.205988125467027,-2.67729672554034,-0.366141595575489,,-3.423178579757013,,
,9177.0,1752.0,9274.0,1347.0,2757.0,2913.0,-93.0,,,,-0.206104467922156,-2.67766935094641,-0.367498475500488,,-3.9844411008974214,,
,9178.0,1753.0,9267.0,1348.0,2766.0,2938.0,-108.0,,,,-0.206021207242615,-2.67753677228701,-0.366710533946417,,-4.5119004623813845,,
,9171.0,1750.0,9256.0,1347.0,2768.0,2934.0,-111.0,,,,-0.20603868393023,-2.67727034569484,-0.367500073114338,,-5.00412923517081,,
,9170.0,1746.0,9247.0,1343.0,2763.0,2943.0,-95.0,,,,-0.205897489243417,-2.67769371583123,-0.366908752137318,,-5.460264474275194,,
,9166.0,1745.0,9241.0,1341.0,2777.0,2921.0,-90.0,,,,-0.206071196524899,-2.67746586771864,-0.367299497176288,,-5.8799692900122205,,
,9163.0,1744.0,9232.0,1342.0,2762.0,2937.0,-114.0,,,,-0.2058305062072,-2.67727247259309,-0.365965328248309,,-6.263399863243056,,
,9160.0,1743.0,9228.0,1342.0,2764.0,2934.0,-117.0,,,,-0.205845306702394,-2.67721967817691,-0.36663124170931,,-6.611182044230471,,
,9159.0,1740.0,9223.0,1340.0,2758.0,2928.0,-104.0,,,,-0.205807603977225,-2.67705990501502,-0.367071464273461,,-6.924397057266316,,
,9156.0,1737.0,9217.0,1341.0,2775.0,2949.0,-81.0,,,,-0.205614671959553,-2.676966361484,-0.366287899022017,,-7.204570822944688,,
,9156.0,1738.0,9213.0,1343.0,2821.0,2951.0,-87.0,,,,-0.205597445615636,-2.6770815211881,-0.366640323097193,,-7.453657760557426,,
,9155.0,1738.0,9210.0,1340.0,2810.0,2955.0,-109.0,,,,-0.205771339627222,-2.67716231229301,-0.365469685379633,,-7.6740093572109,,
,9153.0,1735.0,9207.0,1340.0,2806.0,2948.0,-122.0,,,,-0.205533003781035,-2.67644742998427,-0.365522912725163,,-7.8683206978390015,,
,9151.0,1733.0,9206.0,1337.0,2811.0,2951.0,-121.0,,,,-0.205549507254572,-2.6762164800173,-0.366438786044496,,-8.039553175112387,,
,9154.0,1735.0,9204.0,1340.0,2817.0,2955.0,-142.0,,,,-0.205225287234445,-2.67612615341003,-0.365606612262798,,-8.190836469165351,,
,9154.0,1736.0,9206.0,1338.0,2815.0,2946.0,-119.0,,,,-0.205110778387884,-2.67634388089924,-0.365401507833065,,-8.325355828229103,,
,9154.0,1735.0,9205.0,1342.0,2807.0,2951.0,-118.0,,,,-0.205298469775372,-2.67657236379322,-0.366219370182535,,-8.446231184585818,,
,9152.0,1733.0,9204.0,1338.0,2802.0,2938.0,-135.0,,,,-0.205310629849718,-2.67635242018422,-0.364924157383483,,-8.556393299198993,,
,9154.0,1736.0,9205.0,1339.0,2805.0,2934.0,-129.0,,,,-0.205073008033598,-2.67640379760407,-0.36465323024097,,-8.658459940092227,,
,9154.0,1735.0,9207.0,1341.0,2775.0,2941.0,-123.0,,,,-0.205411795102153,-2.67634834375041,-0.364969190345071,,-8.754612833857282,,
,9156.0,1739.0,9208.0,1340.0,2775.0,2951.0,-111.0,,,,-0.20513755613987,-2.67628282050418,-0.364442681623834,,-8.846474216898471,,
,9156.0,1736.0,9211.0,1337.0,2801.0,2953.0,-123.0,,,,-0.205093662422075,-2.67622289352564,-0.364809917869108,,-8.934980732500033,,
,9158.0,1739.0,9214.0,1340.0,2785.0,2969.0,-101.0,,,,-0.205046768674292,-2.67577616215037,-0.364358235693159,,-9.020253044564457,,
,9160.0,1739.0,9219.0,1343.0,2786.0,2951.0,-92.0,,,,-0.204855595601736,-2.67578678541833,-0.364698872399896,,-9.101462812263684,,
,9160.0,1742.0,9217.0,1344.0,2782.0,2939.0,-91.0,,,,-0.204708841275295,-2.6756167543513,-0.364603324136263,,-9.176704658990236,,
,9164.0,1741.0,9220.0,1343.0,2775.0,2932.0,-91.0,,,,-0.204720881265536,-2.67576209155593,-0.364670511371566,,-9.242888035993873,,
,9165.0,1739.0,9221.0,1343.0,2780.0,2924.0,-71.0,,,,-0.204619605727748,-2.67562101602027,-0.362804113064448,,-9.295669996241319,,
,9165.0,1742.0,9223.0,1341.0,2770.0,2901.0,-76.0,,,,-0.204352775963638,-2.67531110918494,-0.365454230641279,,-9.329452695569083,,
,9167.0,1742.0,9223.0,1344.0,2778.0,2904.0,-70.0,,,,-0.204344510282632,-2.67544241678256,-0.363421124250122,,-9.337467921959067,,
,9170.0,1744.0,9228.0,1345.0,2777.0,2918.0,-62.0,,,,-0.204509961985268,-2.67543244996984,-0.363358397529434,,-9.311965283739497,,
,9169.0,1743.0,9225.0,1341.0,2760.0,2927.0,-70.0,,,,-0.204507405110335,-2.67548319151608,-0.363868244345223,,-9.244511704259246,,
,9170.0,1745.0,9227.0,1345.0,2768.0,2960.0,-75.0,,,,-0.204240120842859,-2.67547486786259,-0.364241260292273,,-9.126398617780458,,
,9172.0,1744.0,9227.0,1345.0,2763.0,2938.0,-86.0,,,,-0.204043235884033,-2.67527107371904,-0.364389192557319,,-8.94914073148888,,
,9174.0,1748.0,9226.0,1343.0,2762.0,2917.0,-85.0,,,,-0.204273143789203,-2.6751055701703,-0.363999893834713,,-8.70503739942875,,
,9175.0,1742.0,9228.0,1344.0,2777.0,2932.0,-90.0,,,,-0.204379184947776,-2.67529615782671,-0.364070066227267,,-8.387755913207,,
,9172.0,1743.0,9225.0,1342.0,2775.0,2943.0,-76.0,,,,-0.204208949682821,-2.6752968027044,-0.363328950795284,,-7.992887438034666,,
,9176.0,1746.0,9224.0,1343.0,2784.0,2944.0,-111.0,,,,-0.204118314543336,-2.67497672369779,-0.363107179418887,,-7.518423301691157,,
,9172.0,1744.0,9225.0,1343.0,2782.0,2943.0,-105.0,,,,-0.204207211372573,-2.67492423962638,-0.362386016950361,,-6.965103336700939,,
,9173.0,1743.0,9224.0,1345.0,2787.0,2939.0,-101.0,,,,-0.20394768107934,-2.67495712695225,-0.362699077820974,,-6.336598500355762,,
,9173.0,1744.0,9221.0,1341.0,2794.0,2947.0,-111.0,,,,-0.203826052463966,-2.67451860435131,-0.363470016760192,,-5.6395048995857655,,
,9175.0,1742.0,9222.0,1342.0,2795.0,2956.0,-100.0,,,,-0.203671945567256,-2.6745374512454,-0.362854488481013,,-4.883143058409394,,
,9175.0,1745.0,9221.0,1343.0,2788.0,2945.0,-91.0,,,,-0.203771836617359,-2.67483895018193,-0.361650005902661,,-4.079172798565325,,
,9177.0,1744.0,9223.0,1343.0,2773.0,2944.0,-91.0,,,,-0.203984610795519,-2.67459819669403,-0.362055419249601,,-3.241049140189767,,
,9174.0,1742.0,9219.0,1343.0,2783.0,2925.0,-86.0,,,,-0.203933024496515,-2.67510751167897,-0.363184060727072,,-2.38335713074775,,
,9175.0,1744.0,9221.0,1344.0,2772.0,2947.0,-114.0,,,,-0.204108126901426,-2.6750525769182,-0.362530721650881,,-1.5210725525951825,,
,9185.0,1743.0,9224.0,1344.0,2766.0,2936.0,-95.0,,,,-0.204025327887354,-2.67516803443145,-0.363438200327371,,-0.6688004837468723,,
,9179.0,1745.0,9223.0,1344.0,2778.0,2950.0,-90.0,,,,-0.204129701639047,-2.67514356381551,-0.363259190413348,,0.15995512347053958,,
,9182.0,1746.0,9227.0,1344.0,2803.0,2948.0,-92.0,,,,-0.203899282805214,-2.67542768859973,-0.362996228682038,,0.9534394787551753,,
,9180.0,1743.0,9223.0,1342.0,2792.0,2943.0,-96.0,,,,-0.204020656209856,-2.67539332839142,-0.363918818244613,,1.7021654013085155,,
,9181.0,1744.0,9227.0,1345.0,2782.0,2923.0,-86.0,,,,-0.203964820803961,-2.67537148189277,-0.364671297152722,,2.3992620745494553,,
,9185.0,1749.0,9228.0,1344.0,2769.0,2927.0,-82.0,,,,-0.204142136942392,-2.67593585481498,-0.365545497522357,,3.040625555365155,,
,9183.0,1745.0,9229.0,1341.0,2782.0,2919.0,-86.0,,,,-0.204171670561383,-2.6758127241491,-0.365842459479694,,3.6248594455021568,,
,9185.0,1743.0,9227.0,1342.0,2794.0,2914.0,-95.0,,,,-0.204177715063543,-2.67603918591531,-0.366494013895305,,4.153015559057713,,
,9188.0,1748.0,9231.0,1345.0,2779.0,2944.0,-98.0,,,,-0.204179280609205,-2.67593038733902,-0.366462823901225,,4.628167280169738,,
,9190.0,1747.0,9234.0,1346.0,2792.0,2947.0,-116.0,,,,-0.204099787961708,-2.6762487207894,-0.36614345170416,,5.054868291324587,,
,9192.0,1750.0,9234.0,1345.0,2794.0,2946.0,-111.0,,,,-0.203592813614855,-2.67641773042501,-0.366479373985182,,5.43856231080358,,
,9191.0,1747.0,9236.0,1348.0,2789.0,2950.0,-102.0,,,,-0.203847302713558,-2.67635660153686,-0.367232456760387,,5.785013001067506,,
,9193.0,1748.0,9236.0,1344.0,2777.0,2957.0,-111.0,,,,-0.203875477002107,-2.67619455794027,-0.366898974919855,,6.099817321486387,,
,9194.0,1750.0,9239.0,1346.0,2770.0,2919.0,-109.0,,,,-0.203738749964092,-2.6765593567715,-0.367106248803981,,6.388051848501175,,
,9198.0,1752.0,9243.0,1345.0,2769.0,2928.0,-113.0,,,,-0.203636336412604,-2.67630557414433,-0.367382324589662,,6.654081759760888,,
,9198.0,1752.0,9243.0,1349.0,2802.0,2911.0,-103.0,,,,-0.203814743672472,-2.67674487272878,-0.366358071335403,,6.901538193506799,,
,9198.0,1751.0,9243.0,1346.0,2794.0,2925.0,-110.0,,,,-0.203786551499994,-2.67668227865477,-0.366668213254751,,7.133444290809934,,
,9200.0,1753.0,9250.0,1350.0,2783.0,2935.0,-113.0,,,,-0.203804064822669,-2.67664808270025,-0.365804434811688,,7.35244706266516,,
,9203.0,1754.0,9251.0,1349.0,2812.0,2966.0,-90.0,,,,-0.203696675659639,-2.67658264941349,-0.365994678376961,,7.561095109874592,,
,9203.0,1752.0,9252.0,1348.0,2805.0,2965.0,-97.0,,,,-0.203643967287902,-2.67644417222051,-0.36613128323521,,7.762094202293544,,
,9205.0,1755.0,9255.0,1347.0,2812.0,2954.0,-104.0,,,,-0.203646522300166,-2.67639381812832,-0.365130946531247,,7.958475423713063,,
,9205.0,1757.0,9252.0,1349.0,2807.0,2932.0,-108.0,,,,-0.203270898516993,-2.67640260175342,-0.365672803643087,,8.153623988342606,,
,9207.0,1754.0,9255.0,1348.0,2787.0,2929.0,-94.0,,,,-0.203021532169926,-2.67609131239589,-0.365077796436146,,8.351139395852984,,
,9207.0,1757.0,9256.0,1350.0,2793.0,2947.0,-93.0,,,,-0.203065426280806,-2.67606104418334,-0.364557819524178,,8.554526385035537,,
,9210.0,1757.0,9252.0,1348.0,2778.0,2942.0,-100.0,,,,-0.202712031641324,-2.67583629742321,-0.364452493390633,,8.76674664851771,,
,9208.0,1756.0,9246.0,1346.0,2775.0,2904.0,-100.0,,,,-0.202688577063558,-2.67553773751559,-0.36475055222659,,8.98968753551212,,
,9206.0,1753.0,9244.0,1348.0,2766.0,2891.0,-98.0,,,,-0.202610656600545,-2.67532683888895,-0.364436180975099,,9.223620300772325,,
,9205.0,1749.0,9233.0,1348.0,2765.0,2866.0,-89.0,,,,-0.202663110491875,-2.67556426253062,-0.365085863024676,,9.466724011893035,,
,9202.0,1749.0,9223.0,1347.0,2761.0,2871.0,-94.0,,,,-0.202411085620745,-2.67536813663394,-0.365731841983338,,9.714743191505884,,
,9198.0,1747.0,9217.0,1342.0,2759.0,2907.0,-91.0,,,,-0.202603017320437,-2.67555789161875,-0.36487391946709,,9.96083136369034,,
,9193.0,1747.0,9207.0,1344.0,2769.0,2916.0,-82.0,,,,-0.202304471445074,-2.6755197973414,-0.364885794689608,,10.195612493227646,,
,9192.0,1744.0,9198.0,1345.0,2770.0,2925.0,-80.0,,,,-0.202370436610824,-2.67567552255639,-0.365098667732881,,10.407470065896577,,
,9189.0,1743.0,9191.0,1342.0,2781.0,2920.0,-92.0,,,,-0.202342574717694,-2.67541223582194,-0.364807805172244,,10.583050842966415,,
,9183.0,1738.0,9181.0,1339.0,2768.0,2913.0,-97.0,,,,-0.202187791885913,-2.67531475618794,-0.365016832134011,,10.707949220396648,,
,9184.0,1737.0,9176.0,1339.0,2771.0,2908.0,-84.0,,,,-0.201954664157358,-2.67507971523031,-0.364514434914697,,10.767521133118349,,
,9181.0,1734.0,9170.0,1337.0,2773.0,2926.0,-83.0,,,,-0.202030491075075,-2.67508740270265,-0.36437617304698,,10.747765349904078,,
,9178.0,1734.0,9165.0,1339.0,2766.0,2943.0,-84.0,,,,-0.201878851909745,-2.67501620250737,-0.364438733612139,,10.636205038802352,,
,9177.0,1734.0,9161.0,1340.0,2794.0,2943.0,-91.0,,,,-0.202111634520226,-2.67529412806661,-0.365111607465168,,10.4227028488631,,
,9176.0,1733.0,9157.0,1335.0,2791.0,2953.0,-98.0,,,,-0.202319062824805,-2.67532448435676,-0.365066595121871,,10.100148023044738,,
,9178.0,1733.0,9155.0,1335.0,2797.0,2952.0,-125.0,,,,-0.202061200978057,-2.67527073202772,-0.365344250585541,,9.664964597274206,,
,9176.0,1730.0,9155.0,1338.0,2816.0,2944.0,-143.0,,,,-0.202126458335843,-2.67519890458444,-0.364141684986049,,9.117405418561939,,
,9172.0,1733.0,9153.0,1338.0,2819.0,2933.0,-141.0,,,,-0.201992351529738,-2.67526962529327,-0.364706647052285,,8.461615742604426,,
,9173.0,1729.0,9154.0,1337.0,2799.0,2963.0,-151.0,,,,-0.201907137231822,-2.67477498846739,-0.364036402605134,,7.70546973706027,,
,9173.0,1730.0,9152.0,1334.0,2807.0,2974.0,-149.0,,,,-0.202108159971996,-2.67511544128375,-0.365113952619277,,6.860200867278826,,
,9175.0,1731.0,9155.0,1335.0,2809.0,2948.0,-120.0,,,,-0.20173766998203,-2.67461421814395,-0.364774721527958,,5.939861317418974,,
,9172.0,1730.0,9155.0,1336.0,2813.0,2938.0,-128.0,,,,-0.202050238553409,-2.67468396487014,-0.364673581860263,,4.960655443162465,,
,9175.0,1729.0,9157.0,1335.0,2792.0,2936.0,-126.0,,,,-0.202124019033456,-2.67454484199344,-0.363558258116134,,3.940197322156679,,
,9176.0,1728.0,9160.0,1337.0,2804.0,2932.0,-121.0,,,,-0.201871798673054,-2.67450965210358,-0.364509124160876,,2.8967424563865762,,
2025-08-05 20:54:54,9177.0,1733.0,9164.0,1340.0,2786.0,2937.0,-123.0,,,2025/08/05 08:54:54 PM,-0.202072658887035,-2.67448270531493,-0.364069612767013,,1.8484385478365042,,
,9181.0,1731.0,9166.0,1341.0,2790.0,2921.0,-114.0,,,,-0.201678260803522,-2.67464072805699,-0.364416762834174,,0.8126312154038174,,
,9179.0,1734.0,9168.0,1340.0,2787.0,2908.0,-118.0,,,,-0.201569402530856,-2.67448561205239,-0.364515159154946,,-0.1947494333180131,,
,9182.0,1732.0,9172.0,1339.0,2788.0,2923.0,-96.0,,,,-0.201683132475762,-2.67446083025817,-0.36465919347106,,-1.1597029423655256,,
,9180.0,1736.0,9177.0,1340.0,2786.0,2906.0,-95.0,,,,-0.201648380649561,-2.67449145961615,-0.365002213667603,,-2.070558744920419,,
,9185.0,1736.0,9177.0,1341.0,2776.0,2880.0,-84.0,,,,-0.201950641308108,-2.67425432780911,-0.36511806318168,,-2.9182497734979242,,
,9187.0,1737.0,9180.0,1339.0,2777.0,2893.0,-76.0,,,,-0.201900146287159,-2.67456742292066,-0.36566323504633,,-3.6964495286187167,,
,9186.0,1740.0,9179.0,1342.0,2789.0,2883.0,-72.0,,,,-0.20203604231574,-2.67479083474888,-0.365124941425362,,-4.401568222122138,,
,9186.0,1737.0,9181.0,1343.0,2798.0,2897.0,-78.0,,,,-0.202076766210959,-2.67470249573708,-0.366545965920084,,-5.032611908319754,,
,9191.0,1743.0,9185.0,1343.0,2812.0,2884.0,-78.0,,,,-0.201843572638001,-2.67463833507259,-0.36708093442515,,-5.590918375240749,,
,9193.0,1741.0,9185.0,1344.0,2816.0,2889.0,-75.0,,,,-0.201936374790518,-2.67517852108674,-0.366740698071398,,-6.079793395446871,,
,9190.0,1741.0,9185.0,1341.0,2794.0,2871.0,-83.0,,,,-0.202081744479163,-2.67492889026171,-0.367235400702278,,-6.50407938658364,,
,9193.0,1738.0,9186.0,1342.0,2806.0,2908.0,-83.0,,,,-0.202081353088019,-2.67500289508198,-0.367664787921239,,-6.86969448697052,,
,9191.0,1743.0,9184.0,1344.0,2831.0,2903.0,-69.0,,,,-0.202162808976244,-2.67530037685847,-0.366828139700773,,-7.183182227785631,,
,9194.0,1743.0,9185.0,1343.0,2804.0,2913.0,-105.0,,,,-0.202037237326463,-2.67519320775604,-0.366841586448905,,-7.451309141415774,,
,9193.0,1743.0,9183.0,1343.0,2794.0,2918.0,-105.0,,,,-0.20214678712068,-2.6752462321121,-0.367411707059981,,-7.680739524005677,,
,9195.0,1742.0,9183.0,1342.0,2808.0,2926.0,-97.0,,,,-0.20205978482845,-2.67536255234515,-0.367379053936928,,-7.87780446404356,,
,9195.0,1739.0,9180.0,1341.0,2807.0,2935.0,-97.0,,,,-0.201863410916712,-2.67499729249124,-0.366303525755118,,-8.04836849305723,,
,9191.0,1742.0,9183.0,1343.0,2821.0,2956.0,-90.0,,,,-0.201809076536871,-2.67458556164317,-0.366402581008658,,-8.197784084765981,,
,9195.0,1741.0,9183.0,1342.0,2825.0,2943.0,-88.0,,,,-0.201616377494208,-2.67442344568922,-0.366836034496395,,-8.330913200341135,,
,9194.0,1740.0,9183.0,1342.0,2827.0,2924.0,-89.0,,,,-0.201781871392369,-2.67419223862867,-0.3658949982276,,-8.452186841919044,,
,9193.0,1739.0,9181.0,1343.0,2815.0,2938.0,-99.0,,,,-0.20147562701592,-2.67442107834996,-0.364801424250207,,-8.565668648146534,,
,9198.0,1744.0,9184.0,1342.0,2808.0,2941.0,-107.0,,,,-0.2015444237069,-2.67443502714539,-0.364607907012718,,-8.67508795882406,,
,9198.0,1743.0,9184.0,1345.0,2808.0,2928.0,-110.0,,,,-0.201761494966563,-2.67451257600429,-0.366643931413178,,-8.783812920850814,,
,9198.0,1742.0,9187.0,1344.0,2800.0,2943.0,-112.0,,,,-0.201456470671093,-2.67438322878541,-0.365734176962735,,-8.894745682141627,,
,9197.0,1739.0,9187.0,1341.0,2798.0,2954.0,-126.0,,,,-0.201823470630114,-2.67468692305556,-0.367007060798468,,-9.010137800824428,,
,9198.0,1742.0,9190.0,1346.0,2798.0,2944.0,-119.0,,,,-0.201651424126245,-2.67462706521559,-0.365756493641605,,-9.131340690452596,,
,9200.0,1743.0,9192.0,1342.0,2800.0,2928.0,-115.0,,,,-0.201609253159876,-2.67460200769538,-0.36611328380899,,-9.258518872335816,,
,9201.0,1745.0,9195.0,1343.0,2802.0,2939.0,-114.0,,,,-0.201536397730439,-2.67463533218208,-0.367548883253421,,-9.390360654912746,,
,9200.0,1743.0,9193.0,1343.0,2815.0,2942.0,-108.0,,,,-0.201400140785111,-2.67471548220678,-0.366332186722519,,-9.523822114402853,,
,9204.0,1746.0,9201.0,1343.0,2811.0,2923.0,-103.0,,,,-0.201450518736879,-2.67470418393996,-0.367186292499414,,-9.653938069222049,,
,9204.0,1743.0,9200.0,1345.0,2799.0,2915.0,-105.0,,,,-0.201398258013002,-2.67471671571604,-0.367514091763427,,-9.77372990412477,,
,9204.0,1743.0,9199.0,1344.0,2795.0,2895.0,-99.0,,,,-0.201494319954861,-2.67468068843197,-0.366271007277407,,-9.874234913799436,,
,9203.0,1745.0,9202.0,1344.0,2811.0,2902.0,-131.0,,,,-0.201349945689055,-2.67446606356169,-0.367307539203247,,-9.944674682495705,,
,9205.0,1746.0,9205.0,1343.0,2800.0,2911.0,-117.0,,,,-0.201460494640449,-2.6745691894947,-0.366923133323953,,-9.972770728100802,,
,9208.0,1746.0,9209.0,1347.0,2797.0,2873.0,-110.0,,,,-0.201413497381319,-2.67484790694182,-0.367811502155086,,-9.945204964062262,,
,9208.0,1743.0,9210.0,1345.0,2793.0,2887.0,-116.0,,,,-0.201558342678537,-2.67474431407852,-0.368192230627418,,-9.848211194867433,,
,9206.0,1744.0,9211.0,1345.0,2792.0,2874.0,-112.0,,,,-0.201412178962579,-2.6749204720737,-0.368004188553266,,-9.668271821907492,,
,9208.0,1745.0,9217.0,1348.0,2794.0,2883.0,-113.0,,,,-0.201674687806624,-2.67497825411706,-0.36733077315752,,-9.39288116720118,,
,9209.0,1747.0,9217.0,1346.0,2784.0,2941.0,-106.0,,,,-0.201882544321942,-2.6752477421168,-0.367962035089176,,-9.011324638537577,,
,9213.0,1749.0,9224.0,1345.0,2794.0,2948.0,-116.0,,,,-0.201909569170491,-2.67526138291027,-0.367997186049103,,-8.515414267089616,,
,9211.0,1749.0,9222.0,1345.0,2801.0,2951.0,-116.0,,,,-0.202120141547272,-2.67519976220823,-0.368819253332965,,-7.9001191893839415,,
,9212.0,1749.0,9225.0,1347.0,2808.0,2968.0,-122.0,,,,-0.201899385555191,-2.67538117743419,-0.367082800602726,,-7.16403608049272,,
,9212.0,1746.0,9228.0,1348.0,2811.0,2981.0,-126.0,,,,-0.202265257307805,-2.67522288821393,-0.367797474488259,,-6.309658311544897,,
,9215.0,1750.0,9231.0,1350.0,2814.0,2975.0,-125.0,,,,-0.20209522808899,-2.67529217962296,-0.367504226805569,,-5.343420610277245,,
,9215.0,1750.0,9231.0,1348.0,2814.0,2969.0,-105.0,,,,-0.202281678361983,-2.67540518402338,-0.368145563293143,,-4.27551507459068,,
,9217.0,1752.0,9234.0,1350.0,2830.0,2941.0,-79.0,,,,-0.202392874228835,-2.67552443401463,-0.368168664859611,,-3.1194925711010137,,
,9216.0,1752.0,9232.0,1350.0,2817.0,2923.0,-75.0,,,,-0.202306664515808,-2.67548807378105,-0.368574523938931,,-1.8916797568844441,,
,9214.0,1753.0,9227.0,1352.0,2797.0,2914.0,-83.0,,,,-0.202390263055123,-2.67525590095911,-0.368102454376512,,-0.6104550424263213,,
,9217.0,1749.0,9223.0,1349.0,2793.0,2907.0,-64.0,,,,-0.202366825237525,-2.67531448100963,-0.368305984746831,,0.7045644726315474,,
,9214.0,1750.0,9214.0,1347.0,2793.0,2901.0,-61.0,,,,-0.202296108984563,-2.67529472046347,-0.367855333385493,,2.033369321265034,,
,9210.0,1747.0,9208.0,1345.0,2779.0,2876.0,-72.0,,,,-0.201973336582747,-2.67538439273006,-0.368127365146067,,3.3563824253046275,,
,9209.0,1744.0,9200.0,1345.0,2765.0,2869.0,-77.0,,,,-0.202015547903611,-2.67549523046516,-0.367450890169793,,4.6552123235576,,
,9207.0,1746.0,9196.0,1344.0,2751.0,2896.0,-81.0,,,,-0.202224712431457,-2.6753680088407,-0.368020514421636,,5.913292751011562,,
,9201.0,1743.0,9184.0,1347.0,2750.0,2909.0,-78.0,,,,-0.202096814965081,-2.67550522953768,-0.367731036731671,,7.116376014689023,,
,9198.0,1740.0,9176.0,1343.0,2761.0,2940.0,-84.0,,,,-0.202194406769766,-2.67553770108748,-0.368904156869716,,8.252857143678906,,
,9194.0,1738.0,9169.0,1342.0,2770.0,2951.0,-74.0,,,,-0.20201719866055,-2.67526418054723,-0.368068862780103,,9.313913557509427,,
,9190.0,1738.0,9163.0,1343.0,2770.0,2944.0,-41.0,,,,-0.202120054025619,-2.6752195978451,-0.368161746320834,,10.29345083344495,,
,9191.0,1738.0,9154.0,1341.0,2781.0,2962.0,-45.0,,,,-0.202022913703805,-2.67538688676275,-0.368220978888696,,11.187851796499768,,
,9188.0,1737.0,9153.0,1340.0,2791.0,2967.0,-49.0,,,,-0.202068281146501,-2.67524962385394,-0.368479672189958,,11.995537993978937,,
,9188.0,1734.0,9148.0,1341.0,2791.0,2943.0,-62.0,,,,-0.201849038559386,-2.67528548034471,-0.368712970456419,,12.71637177249576,,
,9183.0,1737.0,9146.0,1341.0,2784.0,2960.0,-60.0,,,,-0.202082642072558,-2.67556661375077,-0.369517857725626,,13.350950707744468,,
,9185.0,1735.0,9146.0,1340.0,2780.0,2947.0,-65.0,,,,-0.201814970856387,-2.67522712950415,-0.369765787933982,,13.899867406262944,,
,9181.0,1734.0,9146.0,1340.0,2772.0,2945.0,-72.0,,,,-0.201481209046389,-2.67500769656351,-0.368787190862517,,14.363020301893814,,
,9183.0,1732.0,9141.0,1338.0,2786.0,2948.0,-83.0,,,,-0.201150642666615,-2.67478284243861,-0.368755022277622,,14.73906177332157,,
,9181.0,1733.0,9140.0,1338.0,2776.0,2944.0,-98.0,,,,-0.201308107062678,-2.67525052513337,-0.369269874803417,,15.025058954610357,,
,9184.0,1736.0,9144.0,1338.0,2773.0,2959.0,-105.0,,,,-0.201445760866249,-2.67540760915867,-0.369178229884753,,15.216422038639966,,
,9185.0,1736.0,9144.0,1341.0,2774.0,2950.0,-121.0,,,,-0.201620982623024,-2.67560922432578,-0.369776362180234,,15.307126645375847,,
,9184.0,1735.0,9147.0,1337.0,2774.0,2962.0,-118.0,,,,-0.201649812404607,-2.6758414651319,-0.369537355434308,,15.290222515424622,,
,9185.0,1736.0,9143.0,1339.0,2777.0,2964.0,-88.0,,,,-0.201392585985614,-2.67547544263004,-0.3698183732927,,15.158582949788356,,
,9183.0,1735.0,9146.0,1340.0,2772.0,2945.0,-92.0,,,,-0.201443656488936,-2.67510911578285,-0.370562554683233,,14.905812848560428,,
,9187.0,1737.0,9153.0,1343.0,2790.0,2946.0,-93.0,,,,-0.201493004970664,-2.67524963105878,-0.370017421178878,,14.527204484839347,,
,9185.0,1737.0,9153.0,1340.0,2794.0,2936.0,-90.0,,,,-0.201296706734605,-2.67514389050635,-0.369083704694025,,14.020615791675079,,
,9185.0,1737.0,9152.0,1343.0,2794.0,2916.0,-89.0,,,,-0.200833282606373,-2.67515828661095,-0.369632040065108,,13.387150531983254,,
,9188.0,1737.0,9156.0,1342.0,2790.0,2906.0,-86.0,,,,-0.201116951998093,-2.67518334546812,-0.369386508457531,,12.631544701315802,,
,9188.0,1739.0,9159.0,1342.0,2775.0,2938.0,-82.0,,,,-0.201202558970067,-2.67515449904906,-0.369535825936739,,11.762206172096183,,
,9191.0,1743.0,9158.0,1343.0,2768.0,2941.0,-90.0,,,,-0.200787385248689,-2.67485552775607,-0.369466006958489,,10.790907495041871,,
,9190.0,1742.0,9161.0,1344.0,2764.0,2916.0,-106.0,,,,-0.200777717669039,-2.67524576343203,-0.369693341777153,,9.732183762811252,,
,9190.0,1738.0,9161.0,1341.0,2745.0,2917.0,-103.0,,,,-0.201015089239006,-2.67572082642689,-0.36971539676799,,8.602526871203025,,
,9193.0,1744.0,9162.0,1344.0,2742.0,2947.0,-87.0,,,,-0.200963038746914,-2.67527447435637,-0.371011264710905,,7.419486613964758,,
,9193.0,1745.0,9162.0,1345.0,2750.0,2970.0,-71.0,,,,-0.200862692481045,-2.67551298706993,-0.370798949447545,,6.20078667286179,,
,9196.0,1745.0,9165.0,1345.0,2753.0,2961.0,-72.0,,,,-0.20089727222607,-2.67568133922617,-0.369898502376647,,4.96354445491427,,
,9195.0,1742.0,9161.0,1342.0,2762.0,2960.0,-74.0,,,,-0.201069552572358,-2.67557461745344,-0.370462197721918,,3.723655175587298,,
,9195.0,1743.0,9160.0,1345.0,2774.0,2956.0,-72.0,,,,-0.201258431222843,-2.67574713350468,-0.370809430104311,,2.4953693249545488,,
,9195.0,1742.0,9161.0,1343.0,2766.0,2925.0,-69.0,,,,-0.201085240723274,-2.67557761332575,-0.369895315675958,,1.2910636462497767,,
,9198.0,1743.0,9159.0,1343.0,2768.0,2920.0,-73.0,,,,-0.201032797962127,-2.67571222526289,-0.370651979381598,,0.12118237976972997,,
,9197.0,1744.0,9159.0,1343.0,2776.0,2963.0,-72.0,,,,-0.201118890264342,-2.67602593387116,-0.370426584722538,,-1.0056899619621666,,
,9195.0,1744.0,9158.0,1343.0,2767.0,2953.0,-78.0,,,,-0.201166691431536,-2.6759057584074,-0.371029081386505,,-2.082669478724209,,
,9197.0,1744.0,9159.0,1343.0,2784.0,2950.0,-70.0,,,,-0.201299983302742,-2.67618602125088,-0.370948264990613,,-3.104370594823254,,
,9198.0,1742.0,9155.0,1342.0,2788.0,2952.0,-66.0,,,,-0.201428414286,-2.67587714562793,-0.37146617749263,,-4.066695791960274,,
,9197.0,1744.0,9153.0,1340.0,2784.0,2961.0,-92.0,,,,-0.201316788023891,-2.67589694514107,-0.370120123164917,,-4.966642162839924,,
,9196.0,1742.0,9153.0,1340.0,2781.0,2966.0,-69.0,,,,-0.201790161396493,-2.67584094087873,-0.371049840571759,,-5.802139599186934,,
,9194.0,1742.0,9153.0,1341.0,2773.0,2957.0,-68.0,,,,-0.201843313170897,-2.67577458079792,-0.371073319313137,,-6.571927085848187,,
,9194.0,1743.0,9155.0,1345.0,2784.0,2954.0,-59.0,,,,-0.20193548468902,-2.6758227904158,-0.370952626019475,,-7.275467045967144,,
,9197.0,1743.0,9154.0,1343.0,2772.0,2936.0,-72.0,,,,-0.201800826843926,-2.67608626188315,-0.370763357359445,,-7.912892957504912,,
,9195.0,1742.0,9152.0,1341.0,2779.0,2933.0,-78.0,,,,-0.201654136125054,-2.67602085883167,-0.3710174899708,,-8.484982581021642,,
,9196.0,1742.0,9153.0,1344.0,2770.0,2934.0,-70.0,,,,-0.201853895615492,-2.67618137152042,-0.370560804382187,,-8.993147920806418,,
,9197.0,1743.0,9153.0,1344.0,2774.0,2934.0,-74.0,,,,-0.201757586438454,-2.67654571857352,-0.370335161246798,,-9.439432929402612,,
,9198.0,1745.0,9154.0,1343.0,2765.0,2937.0,-67.0,,,,-0.201656783971222,-2.67652369051844,-0.370744727959477,,-9.826510285296624,,
,9197.0,1745.0,9157.0,1342.0,2756.0,2948.0,-82.0,,,,-0.201623634978491,-2.67657361141468,-0.37145160074077,,-10.157669019882352,,
,9200.0,1745.0,9154.0,1340.0,2766.0,2960.0,-69.0,,,,-0.201909872097663,-2.67686421189772,-0.372302007408624,,-10.43678569188812,,
,9202.0,1745.0,9157.0,1343.0,2759.0,2962.0,-75.0,,,,-0.202323863730345,-2.67739990777723,-0.37271263830819,,-10.668273820266888,,
,9204.0,1747.0,9158.0,1345.0,2773.0,2954.0,-89.0,,,,-0.202294274310857,-2.67768614557541,-0.373577988476108,,-10.857009361849707,,
,9202.0,1746.0,9160.0,1344.0,2786.0,2946.0,-95.0,,,,-0.202716909360129,-2.67832819792601,-0.373445780361256,,-11.008233105136814,,
,9204.0,1746.0,9157.0,1344.0,2782.0,2961.0,-100.0,,,,-0.202580891137809,-2.67836274014762,-0.373961358482965,,-11.127432639586079,,
,9204.0,1749.0,9160.0,1345.0,2785.0,2954.0,-99.0,,,,-0.202733057139446,-2.67815223589421,-0.373677901677029,,-11.220206558618036,,
,9205.0,1748.0,9161.0,1346.0,2793.0,2947.0,-88.0,,,,-0.202529067845159,-2.67798811559099,-0.373996233896818,,-11.292112319667746,,
,9207.0,1751.0,9160.0,1343.0,2784.0,2946.0,-91.0,,,,-0.20254745399466,-2.67778082240598,-0.372678222122224,,-11.34849772663265,,
,9205.0,1747.0,9157.0,1343.0,2761.0,2919.0,-95.0,,,,-0.202406739900902,-2.6778739688201,-0.37339860966365,,-11.394315133522875,,
,9208.0,1748.0,9159.0,1344.0,2760.0,2930.0,-87.0,,,,-0.202522601378027,-2.67791648226099,-0.372532307225961,,-11.433917615069248,,
,9210.0,1753.0,9163.0,1348.0,2765.0,2947.0,-89.0,,,,-0.202328755417877,-2.67724355530587,-0.371516812992068,,-11.470837775124501,,
,9214.0,1752.0,9162.0,1347.0,2765.0,2952.0,-88.0,,,,-0.202147941772014,-2.67700277954674,-0.371527922574136,,-11.50755296677744,,
,9214.0,1752.0,9158.0,1347.0,2772.0,2953.0,-64.0,,,,-0.202092026207657,-2.67681737521243,-0.370803753150416,,-11.54524590904136,,
,9213.0,1752.0,9160.0,1347.0,2786.0,2962.0,-83.0,,,,-0.202176747824495,-2.6767169590369,-0.370596033370766,,-11.583576807471196,,
,9216.0,1753.0,9164.0,1348.0,2789.0,2987.0,-89.0,,,,-0.202073900778009,-2.67665344556081,-0.370508438656905,,-11.62049066152754,,
,9219.0,1755.0,9160.0,1350.0,2810.0,3005.0,-97.0,,,,-0.202261234606129,-2.67665676695554,-0.37061449730688,,-11.652089059829821,,
,9219.0,1755.0,9161.0,1347.0,2801.0,2998.0,-107.0,,,,-0.202065323787668,-2.67689459769651,-0.370880530977269,,-11.672597303074111,,
,9221.0,1755.0,9158.0,1346.0,2790.0,2988.0,-91.0,,,,-0.202539430519496,-2.67686405118509,-0.372318931084773,,-11.6744542887641,,
,9221.0,1754.0,9154.0,1346.0,2788.0,2972.0,-71.0,,,,-0.202690053431057,-2.67735031110685,-0.372004595503175,,-11.648544540535518,,
,9219.0,1756.0,9153.0,1346.0,2779.0,2975.0,-68.0,,,,-0.202814553040178,-2.67757916288131,-0.372464968084636,,-11.584579841022531,,
,9222.0,1757.0,9143.0,1346.0,2776.0,2960.0,-75.0,,,,-0.202945876277444,-2.67814950599327,-0.37262386603052,,-11.471622918732386,,
,9217.0,1755.0,9135.0,1348.0,2766.0,2921.0,-78.0,,,,-0.203386026932863,-2.67835478194267,-0.373196519144283,,-11.298728460302337,,
,9216.0,1751.0,9124.0,1345.0,2760.0,2900.0,-71.0,,,,-0.203371586234576,-2.67907792757184,-0.374876904460432,,-11.055658948609924,,
,9209.0,1751.0,9116.0,1343.0,2739.0,2927.0,-73.0,,,,-0.203583614630439,-2.6793097108673,-0.374871399440694,,-10.733617144771896,,
,9210.0,1748.0,9103.0,1342.0,2736.0,2935.0,-71.0,,,,-0.203646684451404,-2.67964006399242,-0.376106718599377,,-10.325926903412158,,
,9208.0,1747.0,9095.0,1341.0,2734.0,2916.0,-67.0,,,,-0.203749596621149,-2.67954566367277,-0.376935688703252,,-9.828592442840602,,
,9200.0,1744.0,9080.0,1338.0,2758.0,2942.0,-70.0,,,,-0.203544402593758,-2.67987512011457,-0.377414155257652,,-9.240674354957573,,
,9199.0,1742.0,9075.0,1339.0,2737.0,2942.0,-55.0,,,,-0.203444423551538,-2.68054670445722,-0.377064714948292,,-8.564437585714165,,
2025-08-05 20:54:55,9197.0,1741.0,9066.0,1337.0,2747.0,2952.0,-56.0,,,2025/08/05 08:54:55 PM,-0.203490988542421,-2.68021059370687,-0.378509167177956,,-7.80525025285659,,
,9193.0,1741.0,9059.0,1334.0,2744.0,2964.0,-62.0,,,,-0.203838827070136,-2.68068244753215,-0.379031503648178,,-6.971240161678684,,
,9189.0,1737.0,9050.0,1334.0,2748.0,2965.0,-65.0,,,,-0.204133480729753,-2.68087319429034,-0.379546076499995,,-6.072745391233076,,
,9191.0,1737.0,9045.0,1337.0,2747.0,2981.0,-66.0,,,,-0.204231812352899,-2.68129149056972,-0.380303588247844,,-5.121622027417095,,
,9192.0,1739.0,9041.0,1337.0,2765.0,2981.0,-73.0,,,,-0.204275099216607,-2.68169141823493,-0.380873116168139,,-4.1304901414984085,,
,9191.0,1738.0,9036.0,1336.0,2776.0,2968.0,-78.0,,,,-0.20477409399247,-2.68161627742484,-0.380053221855942,,-3.112003213920456,,
,9188.0,1734.0,9031.0,1335.0,2758.0,2959.0,-65.0,,,,-0.204498348654756,-2.68188309648394,-0.379951657502581,,-2.0782151885352893,,
,9188.0,1735.0,9031.0,1335.0,2753.0,2960.0,-68.0,,,,-0.204461750439664,-2.68178830142014,-0.37976548835866,,-1.0400972559929218,,
,9188.0,1739.0,9030.0,1335.0,2760.0,2962.0,-77.0,,,,-0.204641997602118,-2.68160585368362,-0.379607568878176,,-0.0072300180300306285,,
,9189.0,1736.0,9031.0,1336.0,2772.0,2954.0,-100.0,,,,-0.204397723984373,-2.68173179026689,-0.378854701342854,,1.012328311299709,,
,9190.0,1737.0,9028.0,1334.0,2771.0,2946.0,-88.0,,,,-0.204511028461569,-2.68143405327121,-0.378718679700129,,2.012017182283026,,
,9187.0,1735.0,9028.0,1334.0,2768.0,2937.0,-74.0,,,,-0.204162536556592,-2.68112282803772,-0.378592688483765,,2.986625947293803,,
,9189.0,1737.0,9026.0,1332.0,2770.0,2955.0,-80.0,,,,-0.204046638649634,-2.68096496483985,-0.378080017848968,,3.9320639285687213,,
,9189.0,1736.0,9027.0,1334.0,2772.0,2959.0,-67.0,,,,-0.204079906478623,-2.68103973885132,-0.378514686363504,,4.845090059588156,,
,9193.0,1739.0,9028.0,1336.0,2773.0,2960.0,-74.0,,,,-0.204044153498079,-2.68057233352001,-0.377545477882056,,5.723039005557157,,
,9189.0,1736.0,9029.0,1334.0,2790.0,2936.0,-82.0,,,,-0.203886338269813,-2.68062170403155,-0.377327268572482,,6.563572226699211,,
,9193.0,1738.0,9031.0,1335.0,2781.0,2968.0,-75.0,,,,-0.20338438104325,-2.68015277795015,-0.377291366127285,,7.364473597362744,,
,9194.0,1739.0,9034.0,1336.0,2772.0,2970.0,-68.0,,,,-0.203013032562762,-2.67987781365773,-0.37603068681565,,8.123502699660078,,
,9193.0,1741.0,9034.0,1338.0,2767.0,2979.0,-66.0,,,,-0.202637345729543,-2.6795320564192,-0.37525452312799,,8.838315330265358,,
,9197.0,1739.0,9035.0,1338.0,2766.0,2973.0,-72.0,,,,-0.202465554333527,-2.67870767761348,-0.373908216547167,,9.50645811583806,,
,9198.0,1739.0,9036.0,1336.0,2756.0,2963.0,-63.0,,,,-0.201910480810812,-2.67819953099742,-0.373601740174165,,10.125439652362907,,
,9197.0,1742.0,9036.0,1333.0,2754.0,2970.0,-52.0,,,,-0.201430865049382,-2.67787352289441,-0.374290493065965,,10.692873113628629,,
,9197.0,1742.0,9038.0,1337.0,2761.0,2948.0,-53.0,,,,-0.201373184837574,-2.67764188136433,-0.372994471536917,,11.206676110946377,,
,9200.0,1742.0,9040.0,1338.0,2755.0,2948.0,-59.0,,,,-0.201417948677895,-2.67742387544728,-0.373791410269394,,11.665305110508681,,
,9201.0,1739.0,9036.0,1336.0,2764.0,2947.0,-62.0,,,,-0.201204482664443,-2.67748128543658,-0.37317886021472,,12.067995656274546,,
,9200.0,1740.0,9035.0,1337.0,2759.0,2959.0,-65.0,,,,-0.201123807178267,-2.67773702271491,-0.374463016755498,,12.414976723516094,,
,9200.0,1740.0,9036.0,1336.0,2759.0,2952.0,-68.0,,,,-0.200982819464155,-2.67762810636152,-0.37484887493733,,12.70762809060931,,
,9200.0,1742.0,9033.0,1336.0,2758.0,2948.0,-64.0,,,,-0.201038232053727,-2.67771054785984,-0.373927653780513,,12.948553969046513,,
,9201.0,1738.0,9034.0,1335.0,2769.0,2925.0,-72.0,,,,-0.201148216122829,-2.67772283923043,-0.373578696943934,,13.141554106534949,,
,9198.0,1737.0,9030.0,1334.0,2771.0,2927.0,-82.0,,,,-0.201436462410427,-2.677897435022,-0.375345433863957,,13.291483955997677,,
,9199.0,1737.0,9027.0,1337.0,2781.0,2946.0,-81.0,,,,-0.201747573797107,-2.67824176972599,-0.375576188554033,,13.404006124276323,,
,9200.0,1739.0,9028.0,1334.0,2772.0,2946.0,-87.0,,,,-0.202176623625821,-2.67886054356073,-0.376513428652618,,13.485244179521807,,
,9197.0,1737.0,9029.0,1334.0,2765.0,2952.0,-91.0,,,,-0.202640847680681,-2.6791469295466,-0.377005101337118,,13.5413564747502,,
,9193.0,1735.0,9024.0,1334.0,2759.0,2969.0,-100.0,,,,-0.202760770477831,-2.67979396169113,-0.37780922347873,,13.578053052468123,,
,9196.0,1737.0,9028.0,1336.0,2765.0,2974.0,-60.0,,,,-0.203728132083245,-2.68044404836141,-0.378749633609001,,13.60008447740413,,
,9194.0,1736.0,9029.0,1336.0,2769.0,2981.0,-69.0,,,,-0.20400313480145,-2.68082774685016,-0.379151035238192,,13.61073825032083,,
,9193.0,1736.0,9026.0,1335.0,2774.0,2977.0,-70.0,,,,-0.203962793102836,-2.68125728041282,-0.379845253898492,,13.611385709995597,,
,9193.0,1733.0,9026.0,1333.0,2764.0,2967.0,-95.0,,,,-0.204251738690124,-2.68201116963794,-0.381093345978291,,13.601128502163732,,
,9196.0,1734.0,9028.0,1333.0,2768.0,2963.0,-100.0,,,,-0.204573847330308,-2.68254019665978,-0.381813177428218,,13.576596397575678,,
,9200.0,1735.0,9028.0,1337.0,2776.0,2967.0,-92.0,,,,-0.20503876774333,-2.683162193488,-0.383504197280687,,13.531944445735784,,
,9193.0,1735.0,9030.0,1332.0,2775.0,2960.0,-92.0,,,,-0.20525438803929,-2.68369790757182,-0.384461709203339,,13.459084461388978,,
,9198.0,1736.0,9031.0,1335.0,2772.0,2953.0,-97.0,,,,-0.205578636648471,-2.68444133610296,-0.385595026540496,,13.348162831031907,,
,9197.0,1733.0,9034.0,1335.0,2763.0,2941.0,-88.0,,,,-0.205852028987997,-2.6852083467564,-0.386478564915187,,13.188265797231672,,
,9196.0,1737.0,9034.0,1336.0,2781.0,2962.0,-102.0,,,,-0.206273248140388,-2.68547572672039,-0.387022740201309,,12.968299917924998,,
,9198.0,1738.0,9038.0,1335.0,2775.0,2958.0,-96.0,,,,-0.206493120751154,-2.68581844321263,-0.388118495231811,,12.677965969670824,,
,9202.0,1739.0,9038.0,1337.0,2778.0,2952.0,-93.0,,,,-0.206946726232875,-2.6859203032955,-0.387575287802151,,12.308725071059285,,
,9198.0,1735.0,9038.0,1336.0,2780.0,2948.0,-93.0,,,,-0.20687722190105,-2.68627608322273,-0.387563359356506,,11.854650016937748,,
,9201.0,1737.0,9039.0,1337.0,2773.0,2949.0,-78.0,,,,-0.207168622955927,-2.68599586825631,-0.386750300413836,,11.313064439801037,,
,9201.0,1740.0,9045.0,1339.0,2768.0,2950.0,-78.0,,,,-0.207113426225539,-2.68612095217807,-0.388146555444273,,10.684897248210019,,
,9201.0,1738.0,9046.0,1337.0,2770.0,2956.0,-78.0,,,,-0.207366146129741,-2.68618463869265,-0.388203229827323,,9.974716962225258,,
,9203.0,1737.0,9048.0,1338.0,2762.0,2954.0,-71.0,,,,-0.207378583603218,-2.68679791949446,-0.389227647552227,,9.190453882392562,,
,9204.0,1739.0,9052.0,1337.0,2779.0,2953.0,-78.0,,,,-0.207494404790809,-2.6868318966754,-0.389562168516178,,8.342858865122423,,
,9203.0,1739.0,9054.0,1338.0,2792.0,2940.0,-76.0,,,,-0.207725705001915,-2.68698636691228,-0.389019546046814,,7.44477723204384,,
,9205.0,1738.0,9056.0,1340.0,2786.0,2935.0,-65.0,,,,-0.207711279680479,-2.68736027988226,-0.388412770891107,,6.510329517567635,,
,9204.0,1738.0,9061.0,1339.0,2774.0,2947.0,-57.0,,,,-0.207429190898714,-2.68702731880131,-0.389480641483539,,5.554087157213022,,
,9208.0,1739.0,9060.0,1336.0,2794.0,2945.0,-80.0,,,,-0.207649866089226,-2.68745979507868,-0.388766723962369,,4.590315587981171,,
,9207.0,1741.0,9069.0,1341.0,2777.0,2925.0,-78.0,,,,-0.207512010588859,-2.68663300768737,-0.388210980633255,,3.6323362192026822,,
,9208.0,1740.0,9070.0,1342.0,2779.0,2907.0,-66.0,,,,-0.207196424839505,-2.68646062436713,-0.389088503046961,,2.6920374113544208,,
,9210.0,1742.0,9070.0,1341.0,2785.0,2925.0,-61.0,,,,-0.207039243858282,-2.68609532499969,-0.389237394251692,,1.779545317201408,,
,9212.0,1740.0,9071.0,1341.0,2800.0,2952.0,-95.0,,,,-0.207345978582581,-2.6859662043946,-0.387944507957391,,0.9030491791015705,,
,9209.0,1742.0,9073.0,1342.0,2791.0,2965.0,-99.0,,,,-0.206687349367104,-2.68569334981854,-0.388689868635354,,0.0687635811115992,,
,9212.0,1745.0,9076.0,1343.0,2789.0,2968.0,-114.0,,,,-0.206573025483481,-2.68583513151939,-0.387860093780012,,-0.7189966561938271,,
,9212.0,1741.0,9077.0,1342.0,2787.0,2968.0,-97.0,,,,-0.206227806032378,-2.68569034241686,-0.387575826204874,,-1.4576549030575212,,
,9213.0,1743.0,9075.0,1343.0,2789.0,2975.0,-103.0,,,,-0.206061281427617,-2.68575473139999,-0.388003944395869,,-2.146148737177986,,
,9211.0,1743.0,9070.0,1342.0,2791.0,2969.0,-110.0,,,,-0.205845314719352,-2.68570132086704,-0.388236742383532,,-2.7846653312259435,,
,9210.0,1741.0,9067.0,1342.0,2784.0,2958.0,-103.0,,,,-0.206106244836256,-2.68560631533187,-0.388426033943996,,-3.374356625114043,,
,9209.0,1739.0,9060.0,1342.0,2770.0,2960.0,-86.0,,,,-0.20609714185247,-2.68572051650513,-0.388430628306399,,-3.917054685172708,,
,9203.0,1738.0,9051.0,1341.0,2764.0,2970.0,-80.0,,,,-0.206178236925778,-2.68591106386309,-0.389462936838643,,-4.41500757467212,,
,9198.0,1733.0,9041.0,1336.0,2765.0,2937.0,-63.0,,,,-0.206316652464227,-2.68635333191959,-0.388446595885053,,-4.870654058622387,,
,9197.0,1732.0,9034.0,1337.0,2756.0,2938.0,-46.0,,,,-0.206498196215677,-2.68666313288083,-0.388772656513901,,-5.286450690079887,,
,9190.0,1732.0,9025.0,1337.0,2744.0,2942.0,-41.0,,,,-0.20662560309671,-2.68646891906459,-0.389161180393383,,-5.66475785352392,,
,9187.0,1730.0,9017.0,1335.0,2750.0,2949.0,-52.0,,,,-0.206878910204148,-2.68680290220973,-0.390718696257146,,-6.007783590576542,,
,9187.0,1727.0,9007.0,1334.0,2748.0,2927.0,-58.0,,,,-0.207100032777972,-2.68652608291271,-0.390042149204096,,-6.317576955868487,,
,9181.0,1725.0,8998.0,1334.0,2743.0,2932.0,-55.0,,,,-0.206879836014634,-2.68666486778476,-0.391341498539742,,-6.59605729484552,,
,9178.0,1723.0,8996.0,1331.0,2754.0,2932.0,-56.0,,,,-0.207025071787626,-2.68710428078212,-0.390663871387189,,-6.845062897725409,,
,9175.0,1725.0,8990.0,1334.0,2759.0,2936.0,-53.0,,,,-0.20683653388472,-2.68658062096638,-0.392344871880345,,-7.066402495848139,,
,9176.0,1724.0,8986.0,1332.0,2766.0,2920.0,-62.0,,,,-0.206556171060547,-2.68677644538942,-0.391282758338438,,-7.2618962114036805,,
,9173.0,1722.0,8981.0,1330.0,2755.0,2939.0,-68.0,,,,-0.206592147493935,-2.68669562676,-0.391427320472542,,-7.433398158449256,,
,9172.0,1722.0,8979.0,1332.0,2743.0,2951.0,-72.0,,,,-0.206574322723152,-2.68649976059139,-0.391460110529496,,-7.5827992088504566,,
,9172.0,1722.0,8980.0,1331.0,2745.0,2967.0,-83.0,,,,-0.206693108331441,-2.68639062098685,-0.390700896994531,,-7.712013504923338,,
,9169.0,1721.0,8978.0,1332.0,2749.0,2970.0,-92.0,,,,-0.206563335592327,-2.68619510132931,-0.391971688256923,,-7.822954992765463,,
,9169.0,1720.0,8978.0,1331.0,2764.0,2980.0,-76.0,,,,-0.206695223913205,-2.68625804593951,-0.390613219636725,,-7.9175106645604485,,
,9171.0,1722.0,8977.0,1331.0,2762.0,2963.0,-87.0,,,,-0.206828712106783,-2.6862823731215,-0.391824860830235,,-7.9975160952903135,,
,9170.0,1721.0,8980.0,1333.0,2764.0,2953.0,-108.0,,,,-0.206725774300049,-2.68613352275392,-0.391004085145424,,-8.064736944483286,,
,9172.0,1720.0,8980.0,1334.0,2757.0,2967.0,-110.0,,,,-0.206169213024315,-2.68631251725825,-0.390770905625467,,-8.120857763453419,,
,9170.0,1722.0,8981.0,1332.0,2748.0,2954.0,-99.0,,,,-0.206170796413829,-2.68608169598706,-0.391073139289557,,-8.16747694977581,,
,9168.0,1719.0,8982.0,1332.0,2772.0,2973.0,-104.0,,,,-0.206313928016778,-2.68618500913265,-0.391661104870669,,-8.206104422980097,,
,9172.0,1720.0,8986.0,1332.0,2765.0,2969.0,-103.0,,,,-0.206279503070395,-2.68614282332454,-0.390011311772658,,-8.238157267621071,,
,9173.0,1719.0,8989.0,1332.0,2760.0,2982.0,-97.0,,,,-0.206003265326722,-2.68610372641656,-0.390914941804427,,-8.264948921764107,,
,9175.0,1726.0,8996.0,1334.0,2758.0,2982.0,-87.0,,,,-0.205900923073001,-2.68573681392415,-0.390584778262135,,-8.287669590771099,,
,9173.0,1722.0,8994.0,1333.0,2754.0,2989.0,-99.0,,,,-0.205742048502191,-2.68575051803844,-0.390752500198683,,-8.307358677326317,,
,9175.0,1721.0,8998.0,1334.0,2768.0,2958.0,-94.0,,,,-0.205686337815766,-2.68562075125072,-0.390013618574333,,-8.324872974458037,,
,9173.0,1721.0,8997.0,1336.0,2757.0,2946.0,-100.0,,,,-0.205524731973556,-2.68575824436786,-0.3911256724038,,-8.340856327280635,,
,9175.0,1725.0,9003.0,1336.0,2759.0,2939.0,-107.0,,,,-0.205451181359342,-2.68524792787853,-0.389673676525169,,-8.355717210776266,,
,9178.0,1722.0,9005.0,1334.0,2752.0,2943.0,-89.0,,,,-0.205172296140524,-2.6852330329799,-0.388961046259261,,-8.369620316263045,,
,9175.0,1722.0,9003.0,1335.0,2762.0,2937.0,-76.0,,,,-0.205176255087722,-2.68496341711057,-0.389787526362495,,-8.382496805413169,,
,9176.0,1723.0,9004.0,1334.0,2764.0,2939.0,-85.0,,,,-0.204929299378775,-2.68514982381695,-0.388607187534118,,-8.39407520143836,,
,9178.0,1726.0,9007.0,1336.0,2760.0,2950.0,-78.0,,,,-0.204801646303651,-2.68486886999401,-0.388940931413955,,-8.403930980782494,,
,9177.0,1725.0,9009.0,1336.0,2764.0,2958.0,-77.0,,,,-0.204731470946364,-2.68492159993189,-0.389062059884836,,-8.411548547820642,,
,9178.0,1722.0,9006.0,1334.0,2757.0,2974.0,-80.0,,,,-0.204536539219254,-2.684954706691,-0.388432105637799,,-8.416385843353986,,
,9176.0,1726.0,9008.0,1335.0,2759.0,2964.0,-89.0,,,,-0.204780632678798,-2.68494289207534,-0.388180992380354,,-8.417930735133151,,
,9178.0,1724.0,9007.0,1336.0,2759.0,2955.0,-80.0,,,,-0.204722828591161,-2.68566166922844,-0.388946448497366,,-8.415739954049087,,
,9176.0,1724.0,9008.0,1334.0,2755.0,2950.0,-73.0,,,,-0.204754476309313,-2.68509972291975,-0.387485798351406,,-8.409454768585132,,
,9173.0,1723.0,9004.0,1334.0,2767.0,2948.0,-84.0,,,,-0.204741692857683,-2.68502020621017,-0.38756883953006,,-8.398791341583724,,
,9175.0,1723.0,9007.0,1334.0,2771.0,2951.0,-76.0,,,,-0.204703039744506,-2.68497316626654,-0.387206190941555,,-8.383506734965843,,
,9175.0,1725.0,9009.0,1335.0,2762.0,2943.0,-83.0,,,,-0.204767076004185,-2.68478378130753,-0.387414197289178,,-8.36334361557049,,
,9176.0,1726.0,9009.0,1336.0,2780.0,2947.0,-71.0,,,,-0.205100703633475,-2.68484620489225,-0.387837036704563,,-8.337958175668467,,
,9179.0,1725.0,9007.0,1337.0,2785.0,2951.0,-88.0,,,,-0.205010978676201,-2.68479341839573,-0.386657073234105,,-8.306836899893009,,
,9176.0,1723.0,9006.0,1333.0,2782.0,2954.0,-97.0,,,,-0.205113881946759,-2.68532714811205,-0.385730140684762,,-8.269208620676443,,
,9178.0,1727.0,9009.0,1337.0,2769.0,2960.0,-75.0,,,,-0.20499580838497,-2.68499937433951,-0.386186513104801,,-8.223958749064234,,
,9179.0,1728.0,9010.0,1335.0,2770.0,2958.0,-81.0,,,,-0.205100699765936,-2.68547913379191,-0.387261606332186,,-8.169552793352425,,
,9177.0,1726.0,9012.0,1337.0,2775.0,2955.0,-82.0,,,,-0.20514962834069,-2.68554114458468,-0.387588381447442,,-8.103976726532393,,
,9178.0,1725.0,9011.0,1337.0,2774.0,2960.0,-66.0,,,,-0.205322811526597,-2.68622280304709,-0.387091652208631,,-8.024702830416405,,
,9180.0,1727.0,9012.0,1338.0,2781.0,2964.0,-72.0,,,,-0.205656378204194,-2.68652701608074,-0.388390027801422,,-7.928691067319958,,
,9180.0,1728.0,9016.0,1337.0,2759.0,2956.0,-82.0,,,,-0.205965207990089,-2.6866227938555,-0.388848822678732,,-7.812436660310274,,
,9179.0,1725.0,9018.0,1337.0,2764.0,2943.0,-85.0,,,,-0.206192509742201,-2.6869826234168,-0.389260792701249,,-7.67207295847098,,
,9183.0,1728.0,9020.0,1338.0,2782.0,2941.0,-82.0,,,,-0.206209068276245,-2.6874352303182,-0.389953945117263,,-7.5035340489236795,,
,9181.0,1725.0,9022.0,1336.0,2788.0,2943.0,-71.0,,,,-0.206153883991081,-2.68733547530953,-0.389680303279397,,-7.302774325125515,,
,9183.0,1730.0,9026.0,1338.0,2792.0,2955.0,-70.0,,,,-0.206394887403088,-2.68734582749237,-0.389647092358819,,-7.066033574828638,,
,9184.0,1729.0,9030.0,1339.0,2778.0,2943.0,-92.0,,,,-0.206170369457615,-2.6874068765656,-0.388757049365906,,-6.790127588803625,,
,9184.0,1729.0,9027.0,1339.0,2772.0,2948.0,-92.0,,,,-0.206235711751776,-2.68736341162209,-0.38900423138614,,-6.472737105236165,,
,9184.0,1731.0,9032.0,1338.0,2785.0,2944.0,-76.0,,,,-0.206611335466216,-2.68718768770267,-0.389198728862266,,-6.112663241001558,,
,9187.0,1732.0,9040.0,1339.0,2782.0,2929.0,-74.0,,,,-0.206629936688066,-2.6875064713089,-0.389716236253878,,-5.710016640991987,,
,9190.0,1733.0,9040.0,1340.0,2784.0,2917.0,-88.0,,,,-0.206699766133747,-2.68778307354486,-0.390255889896979,,-5.266311589459636,,
,9190.0,1734.0,9039.0,1340.0,2777.0,2922.0,-95.0,,,,-0.206783600194813,-2.68763099615396,-0.390103153009909,,-4.784445771227436,,
,9191.0,1732.0,9045.0,1342.0,2781.0,2922.0,-81.0,,,,-0.206954334810483,-2.68758963766818,-0.389931261128128,,-4.268560291939935,,
,9190.0,1734.0,9047.0,1342.0,2769.0,2922.0,-88.0,,,,-0.206899632395849,-2.68741489062949,-0.389917082897016,,-3.7237905556987245,,
,9193.0,1737.0,9050.0,1341.0,2763.0,2924.0,-91.0,,,,-0.206960122790646,-2.68739700796183,-0.390373823445048,,-3.1559337157618463,,
2025-08-05 20:54:56,9196.0,1736.0,9051.0,1344.0,2778.0,2933.0,-78.0,,,2025/08/05 08:54:56 PM,-0.206848981816514,-2.68742841640286,-0.388975913898211,,-2.5710701433547487,,
,9195.0,1735.0,9055.0,1342.0,2773.0,2944.0,-71.0,,,,-0.206738268277459,-2.68759372735814,-0.389228268316249,,-1.9751828874073483,,
,9196.0,1738.0,9057.0,1344.0,2770.0,2946.0,-76.0,,,,-0.206799188275562,-2.68708235361775,-0.38917363456739,,-1.3738192722964468,,
,9197.0,1738.0,9061.0,1343.0,2783.0,2972.0,-78.0,,,,-0.206841046530286,-2.68721244477663,-0.388271246391946,,-0.7718322871466263,,
,9200.0,1738.0,9064.0,1344.0,2762.0,2968.0,-75.0,,,,-0.206829445594741,-2.68711099189857,-0.388411617402682,,-0.1732271119921025,,
,9205.0,1741.0,9072.0,1346.0,2763.0,2971.0,-75.0,,,,-0.206726953152832,-2.68717395967684,-0.387645225957451,,0.4188778316430412,,
,9205.0,1739.0,9071.0,1346.0,2777.0,2963.0,-103.0,,,,-0.207028643499063,-2.68689849680571,-0.388170019444451,,1.0021823896379631,,
,9203.0,1740.0,9072.0,1345.0,2776.0,2972.0,-89.0,,,,-0.207087352807836,-2.68695495369985,-0.388822156871134,,1.5750496858023493,,
,9206.0,1740.0,9074.0,1346.0,2779.0,2967.0,-90.0,,,,-0.207479161264051,-2.68692345482495,-0.388617971862525,,2.136294913099272,,
,9206.0,1743.0,9076.0,1347.0,2784.0,2976.0,-94.0,,,,-0.207607366689222,-2.68713152744899,-0.388922085659783,,2.6849528143690504,,
,9206.0,1742.0,9074.0,1347.0,2774.0,2983.0,-102.0,,,,-0.207778872139041,-2.68702565689289,-0.388196226614849,,3.220059511182247,,
,9203.0,1741.0,9070.0,1342.0,2763.0,2977.0,-88.0,,,,-0.207758525036049,-2.68710801531236,-0.388271525654905,,3.7404818104914948,,
,9201.0,1739.0,9065.0,1345.0,2757.0,2994.0,-90.0,,,,-0.207686575047727,-2.68741815663108,-0.389905687707934,,4.244821190677781,,
,9200.0,1739.0,9056.0,1345.0,2770.0,2971.0,-99.0,,,,-0.2077009988035,-2.68776928082158,-0.388642980815282,,4.731410167079263,,
,9197.0,1734.0,9052.0,1341.0,2755.0,2962.0,-86.0,,,,-0.207678300325398,-2.68757108905464,-0.388299637152751,,5.198406364789769,,
,9192.0,1733.0,9042.0,1341.0,2740.0,2965.0,-62.0,,,,-0.207747511482514,-2.6875238310637,-0.38943322813725,,5.643976082978755,,
,9189.0,1734.0,9036.0,1341.0,2744.0,2954.0,-63.0,,,,-0.207690048983703,-2.68725878918784,-0.389309520254816,,6.066546323679377,,
,9187.0,1730.0,9027.0,1341.0,2748.0,2969.0,-69.0,,,,-0.207660073207185,-2.68715974745736,-0.38861592653799,,6.465093416319482,,
,9178.0,1733.0,9020.0,1339.0,2748.0,2968.0,-66.0,,,,-0.207637278133306,-2.6867602778534,-0.388471178865784,,6.839428115343036,,
,9180.0,1729.0,9014.0,1338.0,2751.0,2951.0,-64.0,,,,-0.207771333699636,-2.68684437750195,-0.38869353805789,,7.190432404693669,,
,9175.0,1727.0,9008.0,1334.0,2750.0,2953.0,-63.0,,,,-0.207840016160369,-2.6869596180495,-0.387934087818829,,7.520204280922413,,
,9175.0,1725.0,9007.0,1336.0,2751.0,2948.0,-52.0,,,,-0.207847523806282,-2.68659591916654,-0.387726516679973,,7.832075573025017,,
,9173.0,1726.0,9001.0,1337.0,2744.0,2949.0,-57.0,,,,-0.207773693127674,-2.68620522619863,-0.387675304861038,,8.130484341147136,,
,9168.0,1727.0,9001.0,1339.0,2751.0,2951.0,-53.0,,,,-0.207711253250384,-2.68635061261773,-0.386860494737134,,8.420704336745779,,
,9170.0,1724.0,8998.0,1335.0,2750.0,2961.0,-61.0,,,,-0.207689857502967,-2.68653999266168,-0.385729326562831,,8.708454227786785,,
,9168.0,1726.0,8996.0,1337.0,2754.0,2964.0,-65.0,,,,-0.207881258689622,-2.68664523216599,-0.387109870462711,,8.999424405686593,,
,9169.0,1726.0,8999.0,1339.0,2745.0,2977.0,-86.0,,,,-0.207960476576011,-2.68628439075865,-0.387865600783474,,9.29876753120059,,
,9167.0,1728.0,8999.0,1337.0,2745.0,2978.0,-80.0,,,,-0.208074577753531,-2.68651347441852,-0.387099051077904,,9.610601278122775,,
,9168.0,1723.0,9000.0,1338.0,2761.0,2953.0,-63.0,,,,-0.208229630691147,-2.68683855268356,-0.387883957281062,,9.937569226651284,,
,9166.0,1726.0,9002.0,1337.0,2757.0,2973.0,-71.0,,,,-0.208286003170152,-2.68720943305843,-0.387791389540461,,10.280498838641051,,
,9171.0,1729.0,9007.0,1337.0,2764.0,2973.0,-71.0,,,,-0.208384816953004,-2.68728245848314,-0.387561050971799,,10.63818375197969,,
,9170.0,1727.0,9004.0,1339.0,2759.0,2974.0,-92.0,,,,-0.208610980220068,-2.6869573482254,-0.388679051579102,,11.007302299629018,,
,9172.0,1729.0,9009.0,1340.0,2759.0,2965.0,-93.0,,,,-0.208428166736572,-2.6873874837389,-0.388526196246613,,11.382468057184894,,
,9172.0,1727.0,9011.0,1339.0,2774.0,2961.0,-82.0,,,,-0.208622957252911,-2.68713500272976,-0.387878241883611,,11.756394780884763,,
,9174.0,1732.0,9014.0,1341.0,2761.0,2948.0,-96.0,,,,-0.208566155423263,-2.68742887797634,-0.388879813799801,,12.120149733303071,,
,9174.0,1731.0,9020.0,1342.0,2772.0,2942.0,-90.0,,,,-0.208647344839374,-2.68754859549857,-0.389006639974237,,12.463467119938707,,
,9173.0,1731.0,9022.0,1339.0,2770.0,2939.0,-102.0,,,,-0.208740858486967,-2.68766047829189,-0.389364506652332,,12.775097131457102,,
,9178.0,1729.0,9026.0,1341.0,2772.0,2925.0,-119.0,,,,-0.208705176604469,-2.68766006812978,-0.389554880345076,,13.04317484763499,,
,9179.0,1731.0,9030.0,1343.0,2763.0,2944.0,-102.0,,,,-0.20879859679533,-2.68733970740018,-0.389472778047001,,13.255604614038104,,
,9178.0,1732.0,9035.0,1343.0,2774.0,2939.0,-99.0,,,,-0.208790828392204,-2.68758672024386,-0.388800196229756,,13.400465656144723,,
,9181.0,1734.0,9036.0,1345.0,2780.0,2944.0,-101.0,,,,-0.208760825925022,-2.68749252760371,-0.388678883257738,,13.466449371430857,,
,9182.0,1733.0,9038.0,1344.0,2774.0,2951.0,-103.0,,,,-0.208905148944798,-2.68737568320261,-0.3894066926595,,13.443335144417999,,
,9182.0,1736.0,9038.0,1340.0,2760.0,2942.0,-105.0,,,,-0.208909010354028,-2.68722020809396,-0.38881400563042,,13.322500022297975,,
,9182.0,1739.0,9046.0,1344.0,2771.0,2935.0,-77.0,,,,-0.209086537941949,-2.68772422473173,-0.388193269717742,,13.097441357561326,,
,9182.0,1735.0,9044.0,1345.0,2768.0,2950.0,-84.0,,,,-0.20930003738167,-2.687955608758,-0.389200023100579,,12.76427469593524,,
,9182.0,1738.0,9046.0,1345.0,2764.0,2950.0,-80.0,,,,-0.209608481677117,-2.68773568215873,-0.388997682136032,,12.322155575192756,,
,9182.0,1735.0,9045.0,1342.0,2764.0,2946.0,-61.0,,,,-0.209527686234518,-2.6881697280696,-0.389908298814455,,11.773567096956583,,
,9183.0,1737.0,9045.0,1346.0,2783.0,2973.0,-73.0,,,,-0.209818027493936,-2.68783805487293,-0.389867616182405,,11.124418449544521,,
,9185.0,1738.0,9049.0,1345.0,2781.0,2959.0,-81.0,,,,-0.209892283733818,-2.68792651486664,-0.388805544990761,,10.383914840510247,,
,9187.0,1737.0,9048.0,1346.0,2771.0,2944.0,-81.0,,,,-0.209811241797755,-2.68772328456291,-0.388560940860467,,9.564185495478304,,
,9183.0,1738.0,9049.0,1345.0,2781.0,2935.0,-82.0,,,,-0.209926652083962,-2.68768361786261,-0.388156260254661,,8.679688934543119,,
,9185.0,1737.0,9048.0,1343.0,2791.0,2916.0,-92.0,,,,-0.210201712556883,-2.68774307558707,-0.386863527279871,,7.746446246078275,,
,9184.0,1738.0,9049.0,1343.0,2771.0,2905.0,-91.0,,,,-0.210309070933082,-2.68786806666888,-0.387518818628737,,6.781175772251299,,
,9182.0,1737.0,9052.0,1345.0,2764.0,2928.0,-65.0,,,,-0.210457055565912,-2.68788125649869,-0.38653090473394,,5.800411998755317,,
,9184.0,1739.0,9054.0,1345.0,2770.0,2912.0,-72.0,,,,-0.210673277015387,-2.68793074017019,-0.386946753797145,,4.8196880745052955,,
,9184.0,1736.0,9053.0,1345.0,2773.0,2926.0,-82.0,,,,-0.210959496160639,-2.68825868470067,-0.386778854231154,,3.8528489143837463,,
,9185.0,1740.0,9056.0,1345.0,2771.0,2918.0,-96.0,,,,-0.210840073856268,-2.68840833580388,-0.38734856250988,,2.911543638798287,,
,9190.0,1737.0,9056.0,1343.0,2773.0,2936.0,-70.0,,,,-0.211296166923777,-2.68904260136108,-0.387284938746235,,2.0049243402199073,,
,9187.0,1739.0,9060.0,1347.0,2766.0,2935.0,-71.0,,,,-0.21151850213772,-2.68950559049364,-0.387239432704318,,1.1395550241203984,,
,9189.0,1740.0,9064.0,1348.0,2779.0,2941.0,-80.0,,,,-0.211544689563452,-2.68982900248786,-0.389196321269167,,0.3195130148865328,,
,9188.0,1740.0,9062.0,1346.0,2791.0,2947.0,-80.0,,,,-0.211878234037127,-2.68985321442613,-0.388822207321036,,-0.45335176493154483,,
,9191.0,1742.0,9069.0,1350.0,2782.0,2950.0,-84.0,,,,-0.212126294255453,-2.69004687022993,-0.388728831015284,,-1.1790442849240694,,
,9191.0,1743.0,9069.0,1348.0,2778.0,2960.0,-85.0,,,,-0.211886519362471,-2.69056861989054,-0.389982818802775,,-1.8589860370494757,,
,9190.0,1741.0,9075.0,1347.0,2783.0,2949.0,-76.0,,,,-0.212032123882548,-2.69060720184177,-0.389792032454152,,-2.495555030072891,,
,9193.0,1742.0,9073.0,1347.0,2769.0,2950.0,-77.0,,,,-0.211988145396297,-2.69041398788209,-0.389756240176989,,-3.0916421470322697,,
,9192.0,1743.0,9078.0,1349.0,2778.0,2959.0,-85.0,,,,-0.211819602224682,-2.69030116569178,-0.389315470757193,,-3.6502550464044137,,
,9196.0,1746.0,9082.0,1350.0,2791.0,2955.0,-110.0,,,,-0.212050637463235,-2.69032196134862,-0.389044185417926,,-4.174194068965537,,
,9195.0,1746.0,9086.0,1349.0,2789.0,2945.0,-112.0,,,,-0.211897242962617,-2.68999014911526,-0.388789701367011,,-4.6658171357355664,,
,9191.0,1743.0,9084.0,1348.0,2770.0,2939.0,-97.0,,,,-0.211845953793384,-2.68969525021842,-0.388485589777079,,-5.12690167896931,,
,9197.0,1746.0,9090.0,1351.0,2781.0,2921.0,-91.0,,,,-0.21184022286363,-2.68958448552377,-0.388568060325593,,-5.5586019291595266,,
,9201.0,1747.0,9096.0,1353.0,2781.0,2940.0,-76.0,,,,-0.211808887266843,-2.68939760740871,-0.387427879024446,,-5.961491115813836,,
,9200.0,1750.0,9100.0,1350.0,2788.0,2944.0,-79.0,,,,-0.211496891943008,-2.68944904192546,-0.387564412816496,,-6.335671795581969,,
,9200.0,1748.0,9098.0,1349.0,2769.0,2924.0,-84.0,,,,-0.211389405991337,-2.68941539426356,-0.38766075644773,,-6.680933952663413,,
,9202.0,1748.0,9104.0,1351.0,2766.0,2950.0,-93.0,,,,-0.21126514960462,-2.68894153597473,-0.386674931482541,,-6.996939139234163,,
,9205.0,1750.0,9107.0,1352.0,2753.0,2934.0,-91.0,,,,-0.211267903861773,-2.68861485580869,-0.386502024551602,,-7.28340895095481,,
,9206.0,1751.0,9110.0,1354.0,2759.0,2938.0,-86.0,,,,-0.210900126251644,-2.68830238346097,-0.386235473219787,,-7.540297201065283,,
,9210.0,1751.0,9117.0,1352.0,2761.0,2933.0,-109.0,,,,-0.211112924217109,-2.68796167582036,-0.38499011443113,,-7.767927542622384,,
,9208.0,1750.0,9117.0,1353.0,2747.0,2927.0,-100.0,,,,-0.210838101747939,-2.68766741738665,-0.385434087124024,,-7.967082652705656,,
,9206.0,1754.0,9119.0,1356.0,2750.0,2932.0,-84.0,,,,-0.210882231090483,-2.68759449319801,-0.384811157330694,,-8.139037755562363,,
,9209.0,1752.0,9123.0,1357.0,2754.0,2936.0,-55.0,,,,-0.210600382083076,-2.68752253022545,-0.384990827109216,,-8.285539422530066,,
,9212.0,1755.0,9127.0,1354.0,2758.0,2950.0,-62.0,,,,-0.210598655363865,-2.68725386072947,-0.385171338002482,,-8.408738331893828,,
,9215.0,1755.0,9132.0,1356.0,2759.0,2952.0,-87.0,,,,-0.21054497758524,-2.68712207047931,-0.384127396520627,,-8.511089991533325,,
,9214.0,1757.0,9133.0,1358.0,2762.0,2953.0,-90.0,,,,-0.210538647922736,-2.68701848495168,-0.384663759592636,,-8.59523927700306,,
,9217.0,1758.0,9138.0,1358.0,2758.0,2946.0,-83.0,,,,-0.210643640489031,-2.68743766226369,-0.386184796202579,,-8.663903165767822,,
,9216.0,1758.0,9139.0,1359.0,2753.0,2952.0,-80.0,,,,-0.21067701882976,-2.68741855518354,-0.385542044821386,,-8.719762159695431,,
,9219.0,1761.0,9138.0,1357.0,2760.0,2966.0,-85.0,,,,-0.21081568987166,-2.68801290451196,-0.385700567098741,,-8.765365728803328,,
,9217.0,1757.0,9136.0,1358.0,2774.0,2979.0,-78.0,,,,-0.210898926819695,-2.68794252032801,-0.38581299264939,,-8.803051722450041,,
,9215.0,1759.0,9133.0,1358.0,2756.0,2961.0,-83.0,,,,-0.210903042382315,-2.68754974729745,-0.385491458705599,,-8.834874874281411,,
,9216.0,1759.0,9129.0,1358.0,2756.0,2956.0,-93.0,,,,-0.211183132013333,-2.68802632645903,-0.386875193901777,,-8.862535897080685,,
,9210.0,1754.0,9122.0,1356.0,2756.0,2953.0,-92.0,,,,-0.21103287692733,-2.68789396872507,-0.386734891571527,,-8.887300888427632,,
,9208.0,1751.0,9113.0,1353.0,2766.0,2971.0,-76.0,,,,-0.211086672445606,-2.68790847573037,-0.386643850794952,,-8.909901668006096,,
,9202.0,1750.0,9106.0,1353.0,2763.0,2955.0,-88.0,,,,-0.211287855456952,-2.688239237504,-0.386488734130448,,-8.930411983279567,,
,9198.0,1750.0,9098.0,1355.0,2769.0,2948.0,-86.0,,,,-0.211375637746154,-2.68830258461062,-0.386225831604496,,-8.948102285671093,,
,9198.0,1749.0,9091.0,1352.0,2768.0,2961.0,-76.0,,,,-0.211448712878889,-2.68834141837353,-0.38697405918237,,-8.96128570330302,,
,9192.0,1746.0,9081.0,1349.0,2764.0,2935.0,-64.0,,,,-0.211315277366011,-2.68821731381909,-0.38720905930811,,-8.967177424812956,,
,9187.0,1744.0,9077.0,1346.0,2758.0,2941.0,-66.0,,,,-0.211295200564869,-2.68845551874767,-0.388062889635957,,-8.961796288973241,,
,9187.0,1743.0,9075.0,1351.0,2754.0,2942.0,-94.0,,,,-0.211472157382451,-2.68846365407254,-0.38740906191445,,-8.939939177372027,,
,9182.0,1744.0,9068.0,1351.0,2751.0,2931.0,-90.0,,,,-0.211339348292858,-2.68858662284726,-0.387301973546345,,-8.895255281212155,,
,9182.0,1743.0,9065.0,1350.0,2757.0,2946.0,-79.0,,,,-0.21134491517352,-2.688763258782,-0.38753743419704,,-8.82043881089061,,
,9178.0,1740.0,9064.0,1349.0,2762.0,2948.0,-107.0,,,,-0.211637956008476,-2.68867075518911,-0.387204575092621,,-8.707546148657869,,
,9176.0,1739.0,9060.0,1349.0,2760.0,2954.0,-95.0,,,,-0.211566027764538,-2.68852423436872,-0.387817133336201,,-8.548428136857346,,
,9175.0,1739.0,9061.0,1350.0,2762.0,2962.0,-91.0,,,,-0.211698217924148,-2.68866209688152,-0.386785525483437,,-8.335251844240155,,
,9178.0,1742.0,9062.0,1350.0,2750.0,2952.0,-90.0,,,,-0.211806378668523,-2.68847705449283,-0.387396237217042,,-8.06107082136631,,
,9175.0,1741.0,9062.0,1348.0,2759.0,2966.0,-103.0,,,,-0.211652123224634,-2.68850224023657,-0.386939634167722,,-7.720390987482875,,
,9176.0,1738.0,9061.0,1348.0,2775.0,2960.0,-108.0,,,,-0.21180388015289,-2.6887208871444,-0.388290211765104,,-7.309673538115346,,
,9175.0,1741.0,9065.0,1349.0,2764.0,2954.0,-91.0,,,,-0.211638335571335,-2.68869307676165,-0.38790186220178,,-6.827718801015839,,
,9173.0,1742.0,9064.0,1350.0,2780.0,2959.0,-84.0,,,,-0.211500684217848,-2.68882888928178,-0.388295937198978,,-6.275886401170131,,
,9177.0,1740.0,9068.0,1350.0,2772.0,2960.0,-80.0,,,,-0.211916398661054,-2.68865351535191,-0.388234256446919,,-5.658125703859781,,
,9176.0,1742.0,9070.0,1348.0,2774.0,2948.0,-66.0,,,,-0.211691554309282,-2.68880145318238,-0.387744430297336,,-4.980812693820734,,
,9179.0,1744.0,9073.0,1350.0,2773.0,2926.0,-58.0,,,,-0.211717471177271,-2.68862795816744,-0.387961536907514,,-4.2524112434682415,,
,9178.0,1745.0,9076.0,1350.0,2773.0,2951.0,-63.0,,,,-0.211813979519342,-2.68870388529738,-0.388445967754216,,-3.4829950981400657,,
,9180.0,1745.0,9080.0,1351.0,2768.0,2956.0,-62.0,,,,-0.21182368158009,-2.68866379757355,-0.388564210852934,,-2.6836800990540914,,
,9180.0,1746.0,9083.0,1350.0,2775.0,2961.0,-80.0,,,,-0.211750681713762,-2.68857465740901,-0.387316293557245,,-1.8660232671955235,,
,9182.0,1745.0,9086.0,1354.0,2787.0,2954.0,-77.0,,,,-0.21192736729129,-2.68876277180975,-0.38789562365272,,-1.0414458449349508,,
,9186.0,1748.0,9090.0,1353.0,2766.0,2966.0,-79.0,,,,-0.211357277993208,-2.68886787469582,-0.3876422450003,,-0.22073089651235966,,
,9185.0,1747.0,9096.0,1354.0,2767.0,2960.0,-70.0,,,,-0.21141088304564,-2.6885059338975,-0.387473718230128,,0.5863671965818884,,
,9186.0,1749.0,9096.0,1356.0,2770.0,2950.0,-76.0,,,,-0.2114190330635,-2.68845559787857,-0.387017211067002,,1.3713825702365516,,
,9185.0,1750.0,9097.0,1353.0,2773.0,2945.0,-69.0,,,,-0.211498709692396,-2.68844620185338,-0.387390877621731,,2.127268850922335,,
,9186.0,1749.0,9097.0,1356.0,2769.0,2957.0,-54.0,,,,-0.211563872402621,-2.68869486763961,-0.388069890710813,,2.8484210640138534,,
,9189.0,1750.0,9100.0,1356.0,2761.0,2933.0,-42.0,,,,-0.211703862504913,-2.68873497520328,-0.386736955584176,,3.530619406031783,,
,9184.0,1750.0,9099.0,1357.0,2770.0,2938.0,-35.0,,,,-0.212001554934006,-2.68883626662581,-0.38804203814149,,4.170928269417325,,
,9184.0,1752.0,9098.0,1354.0,2763.0,2923.0,-40.0,,,,-0.212108119296752,-2.68854210022148,-0.387439800138969,,4.767579065307564,,
,9188.0,1751.0,9100.0,1352.0,2764.0,2924.0,-49.0,,,,-0.212107132111609,-2.68887621690245,-0.387337909426113,,5.319856400205848,,
,9184.0,1750.0,9099.0,1354.0,2763.0,2926.0,-56.0,,,,-0.212096618986055,-2.68923414981644,-0.387752127178015,,5.827996880663809,,
,9188.0,1751.0,9101.0,1356.0,2763.0,2922.0,-64.0,,,,-0.212178475430019,-2.68907485792645,-0.387526012187571,,6.2931000623126145,,
,9183.0,1750.0,9100.0,1358.0,2770.0,2945.0,-78.0,,,,-0.212403527167566,-2.68933203735971,-0.387013943736293,,6.717043243857356,,
,9184.0,1750.0,9099.0,1357.0,2757.0,2975.0,-79.0,,,,-0.212771096582947,-2.68963998140341,-0.387444796915484,,7.102387339738906,,
,9184.0,1752.0,9101.0,1355.0,2764.0,2975.0,-79.0,,,,-0.213206277531265,-2.69018758190329,-0.387909295241847,,7.452260755658054,,
2025-08-05 20:54:57,9182.0,1750.0,9100.0,1356.0,2787.0,2969.0,-69.0,,,2025/08/05 08:54:57 PM,-0.213290864605608,-2.69040698381303,-0.387937621490184,,7.770211567873222,,
,9183.0,1750.0,9099.0,1356.0,2779.0,2964.0,-79.0,,,,-0.213541032940576,-2.69029760133041,-0.389454895691675,,8.060023611132534,,
,9181.0,1748.0,9100.0,1355.0,2774.0,2954.0,-82.0,,,,-0.213507264683346,-2.69063970095352,-0.388792250208698,,8.325496947787459,,
,9182.0,1748.0,9102.0,1353.0,2772.0,2979.0,-86.0,,,,-0.213769223323926,-2.69063370300848,-0.389636836301102,,8.570195960200936,,
,9182.0,1751.0,9103.0,1356.0,2777.0,2952.0,-82.0,,,,-0.213850738113766,-2.69103651912707,-0.389401599520508,,8.797169274851107,,
,9182.0,1750.0,9101.0,1354.0,2783.0,2952.0,-80.0,,,,-0.214064931397501,-2.69120477793659,-0.389815952492397,,9.008646987531499,,
,9182.0,1750.0,9103.0,1354.0,2808.0,2952.0,-90.0,,,,-0.214189722188451,-2.69129308581271,-0.390121372961785,,9.205724407267263,,
,9181.0,1751.0,9104.0,1355.0,2789.0,2937.0,-77.0,,,,-0.214316935141748,-2.69171188332513,-0.390574767040214,,9.388048476973957,,
,9182.0,1753.0,9108.0,1357.0,2773.0,2947.0,-82.0,,,,-0.214352241139691,-2.69159912878234,-0.391529302895403,,9.55353225518827,,
,9180.0,1752.0,9110.0,1357.0,2769.0,2961.0,-101.0,,,,-0.214574520288422,-2.69147373860722,-0.392634467052635,,9.698132605932809,,
,9182.0,1751.0,9110.0,1354.0,2771.0,2954.0,-97.0,,,,-0.214551923434561,-2.6921472569592,-0.392564050654308,,9.81573436418013,,
,9180.0,1752.0,9113.0,1357.0,2757.0,2960.0,-88.0,,,,-0.21454507193007,-2.69198749440201,-0.392196828128101,,9.89818792400234,,
,9183.0,1753.0,9116.0,1359.0,2767.0,2954.0,-91.0,,,,-0.214363589054753,-2.69218704330821,-0.392564165642948,,9.935542988974353,,
,9185.0,1754.0,9118.0,1358.0,2772.0,2952.0,-110.0,,,,-0.214507765341822,-2.69210916090792,-0.392451364028189,,9.916506003369719,,
,9185.0,1755.0,9121.0,1358.0,2771.0,2954.0,-122.0,,,,-0.214341111158725,-2.69171545858573,-0.392449890610297,,9.829121713423566,,
,9183.0,1751.0,9123.0,1357.0,2757.0,2959.0,-118.0,,,,-0.214287019674753,-2.69200000529561,-0.392102335319623,,9.661643672527836,,
,9184.0,1754.0,9126.0,1358.0,2759.0,2962.0,-86.0,,,,-0.214414848115233,-2.69161869110069,-0.391655821482636,,9.403521758383285,,
,9186.0,1754.0,9128.0,1358.0,2753.0,2952.0,-78.0,,,,-0.214312225010225,-2.69152586479306,-0.391772854740691,,9.046406172657127,,
,9188.0,1756.0,9136.0,1362.0,2763.0,2965.0,-78.0,,,,-0.21418690152639,-2.69128130802178,-0.391907222608972,,8.585054469526584,,
,9187.0,1756.0,9137.0,1363.0,2765.0,2961.0,-77.0,,,,-0.214006268136933,-2.69115770316788,-0.39083352921671,,8.018034210237063,,
,9188.0,1758.0,9139.0,1359.0,2767.0,2960.0,-91.0,,,,-0.213831957764147,-2.69128710060402,-0.389949160206652,,7.348137483216785,,
,9190.0,1758.0,9143.0,1361.0,2756.0,2964.0,-76.0,,,,-0.213709264372245,-2.69100115027472,-0.391350768826405,,6.5824596222140945,,
,9194.0,1757.0,9147.0,1360.0,2745.0,2966.0,-75.0,,,,-0.213528837920426,-2.69088595123099,-0.38973451692962,,5.732135739624319,,
,9194.0,1760.0,9152.0,1364.0,2741.0,2969.0,-68.0,,,,-0.2133745031992,-2.69061449006647,-0.390051594000805,,4.81176791233265,,
,9194.0,1760.0,9155.0,1363.0,2759.0,2957.0,-62.0,,,,-0.213429538204849,-2.69026212040741,-0.389583192815844,,3.8386076119253345,,
,9195.0,1761.0,9157.0,1364.0,2765.0,2967.0,-69.0,,,,-0.213294350893693,-2.6902355138823,-0.389776554109923,,2.8315791937685497,,
,9198.0,1764.0,9160.0,1366.0,2764.0,2969.0,-74.0,,,,-0.213354484003304,-2.69034021673432,-0.389323307973939,,1.8102394724268127,,
,9200.0,1765.0,9166.0,1367.0,2764.0,2944.0,-86.0,,,,-0.213254467628188,-2.69035727545622,-0.390179452282553,,0.7937653522498169,,
,9200.0,1764.0,9170.0,1365.0,2774.0,2940.0,-89.0,,,,-0.21320320584429,-2.69026651413511,-0.389467411844119,,-0.19995224662416636,,
,9201.0,1763.0,9170.0,1364.0,2781.0,2967.0,-87.0,,,,-0.213596935209561,-2.69031632996444,-0.389658374440843,,-1.1550506719960985,,
,9202.0,1767.0,9177.0,1368.0,2764.0,2962.0,-84.0,,,,-0.213589770763967,-2.69054247670631,-0.389572126130009,,-2.0582399288837636,,
,9202.0,1768.0,9180.0,1367.0,2777.0,2974.0,-81.0,,,,-0.213513320330683,-2.69042897155829,-0.391407292721862,,-2.8991376073607986,,
,9202.0,1766.0,9182.0,1368.0,2774.0,2964.0,-79.0,,,,-0.21353424264155,-2.69104489819281,-0.390106129464504,,-3.6704021784432905,,
,9203.0,1769.0,9180.0,1367.0,2752.0,2959.0,-66.0,,,,-0.213375949204483,-2.6905184220965,-0.390125035893351,,-4.367687143626321,,
,9205.0,1770.0,9183.0,1368.0,2755.0,2975.0,-62.0,,,,-0.213652218766261,-2.69063464899836,-0.389516811011033,,-4.989447325071982,,
,9203.0,1767.0,9180.0,1367.0,2748.0,2961.0,-67.0,,,,-0.213451208958496,-2.69044200590283,-0.390434618380982,,-5.536631275119687,,
,9198.0,1766.0,9175.0,1367.0,2741.0,2964.0,-73.0,,,,-0.213192122115864,-2.69007499068697,-0.390131027866382,,-6.012291425584941,,
,9196.0,1764.0,9170.0,1366.0,2760.0,2956.0,-61.0,,,,-0.213242432349362,-2.69006906896481,-0.389996369720053,,-6.421138653148625,,
,9194.0,1762.0,9162.0,1365.0,2755.0,2971.0,-84.0,,,,-0.212761680491911,-2.69028208881482,-0.389207250308918,,-6.769063641811816,,
,9192.0,1762.0,9155.0,1368.0,2767.0,2979.0,-82.0,,,,-0.212985778604171,-2.6902495151515,-0.390427988745858,,-7.062646272251382,,
,9186.0,1760.0,9147.0,1364.0,2766.0,2987.0,-85.0,,,,-0.21291180610995,-2.68977962990973,-0.390269766631464,,-7.308676460058086,,
,9181.0,1758.0,9140.0,1365.0,2748.0,2964.0,-79.0,,,,-0.212971403409455,-2.68964049353873,-0.389396076499558,,-7.513713256272024,,
,9176.0,1756.0,9133.0,1361.0,2750.0,2956.0,-84.0,,,,-0.212943105807617,-2.68960051463951,-0.390079249026758,,-7.683710791639211,,
,9176.0,1756.0,9127.0,1361.0,2767.0,2973.0,-62.0,,,,-0.213057300498757,-2.69004535734429,-0.389839147961036,,-7.823737918804684,,
,9171.0,1753.0,9123.0,1364.0,2766.0,2939.0,-45.0,,,,-0.212899546958453,-2.68980906576378,-0.389196090498934,,-7.937812587917918,,
,9168.0,1754.0,9117.0,1362.0,2749.0,2941.0,-45.0,,,,-0.212762158225055,-2.68975813824778,-0.389247997537998,,-8.02886235312474,,
,9164.0,1750.0,9110.0,1360.0,2740.0,2914.0,-48.0,,,,-0.212652362157193,-2.6901453449935,-0.389452781880223,,-8.09880982767974,,
,9165.0,1747.0,9112.0,1358.0,2740.0,2964.0,-54.0,,,,-0.212612371747211,-2.68985139472491,-0.388349500554061,,-8.148767793724925,,
,9159.0,1748.0,9112.0,1358.0,2745.0,2966.0,-43.0,,,,-0.212459778751042,-2.68935710245449,-0.388948669524848,,-8.179314920973214,,
,9162.0,1753.0,9112.0,1359.0,2742.0,2973.0,-49.0,,,,-0.212527471681062,-2.68929783923777,-0.389164617241705,,-8.190811998348261,,
,9161.0,1751.0,9108.0,1357.0,2750.0,2981.0,-61.0,,,,-0.212429415929766,-2.68953755765328,-0.389130336474024,,-8.183712784296901,,
,9159.0,1747.0,9110.0,1357.0,2764.0,2978.0,-62.0,,,,-0.2125353241951,-2.68976792760926,-0.388871494746167,,-8.158824972934474,,
,9158.0,1748.0,9112.0,1361.0,2771.0,2989.0,-68.0,,,,-0.212358927651797,-2.68955359220506,-0.387945999822553,,-8.117485555254445,,
,9160.0,1753.0,9115.0,1363.0,2786.0,2989.0,-71.0,,,,-0.212354456333628,-2.68912529276233,-0.388102204141683,,-8.061629091238212,,
,9159.0,1750.0,9115.0,1362.0,2776.0,2981.0,-64.0,,,,-0.212178041438538,-2.68936404992084,-0.388625025958972,,-7.9937438421019245,,
,9159.0,1748.0,9117.0,1360.0,2772.0,2987.0,-74.0,,,,-0.212376369325564,-2.68902148732359,-0.388502561223191,,-7.916726008351052,,
,9160.0,1751.0,9118.0,1362.0,2777.0,2978.0,-82.0,,,,-0.21198788341998,-2.68919474155878,-0.388023897688098,,-7.833653899555481,,
,9163.0,1753.0,9122.0,1362.0,2771.0,2982.0,-100.0,,,,-0.212022952587104,-2.68917867232036,-0.388623653482924,,-7.747510359702381,,
,9162.0,1753.0,9128.0,1362.0,2771.0,2993.0,-99.0,,,,-0.212033651972524,-2.68904371166073,-0.388093220954074,,-7.660883249357822,,
,9162.0,1753.0,9131.0,1364.0,2740.0,2981.0,-96.0,,,,-0.212112473660377,-2.68902552137585,-0.387849791717235,,-7.575671410643045,,
,9161.0,1752.0,9132.0,1364.0,2768.0,2959.0,-106.0,,,,-0.211982453098334,-2.68886822817081,-0.388041527429427,,-7.492818833491792,,
,9164.0,1756.0,9136.0,1365.0,2768.0,2960.0,-125.0,,,,-0.211986153211321,-2.68854071690507,-0.387996237796984,,-7.41209412034704,,
,9168.0,1755.0,9140.0,1364.0,2778.0,2947.0,-119.0,,,,-0.211872137030008,-2.68882225752228,-0.387434938900902,,-7.331927234517593,,
,9169.0,1758.0,9143.0,1366.0,2760.0,2953.0,-111.0,,,,-0.212038373734252,-2.68880790721229,-0.387774691262751,,-7.249312285345581,,
,9167.0,1754.0,9144.0,1363.0,2762.0,2928.0,-97.0,,,,-0.211952140303405,-2.688961685396,-0.387670570673927,,-7.1597843071125515,,
,9169.0,1755.0,9149.0,1365.0,2764.0,2959.0,-81.0,,,,-0.212156153920659,-2.68896544670281,-0.386286122312421,,-7.057478620751918,,
,9170.0,1760.0,9152.0,1366.0,2756.0,2957.0,-82.0,,,,-0.21227330853392,-2.68915967505588,-0.387059428526508,,-6.935281220960257,,
,9172.0,1760.0,9152.0,1367.0,2750.0,2954.0,-85.0,,,,-0.212363297384151,-2.68921162930182,-0.387645840584031,,-6.785075672380271,,
,9172.0,1757.0,9152.0,1366.0,2766.0,2946.0,-68.0,,,,-0.212799317458513,-2.68985461038918,-0.388376791613965,,-6.598085556956719,,
,9172.0,1759.0,9153.0,1368.0,2763.0,2947.0,-72.0,,,,-0.212772883108179,-2.68978445757775,-0.387068209056057,,-6.365302471464506,,
,9175.0,1759.0,9155.0,1367.0,2765.0,2956.0,-60.0,,,,-0.212749125951982,-2.68927239771491,-0.387861067721794,,-6.077979735400997,,
,9173.0,1762.0,9156.0,1369.0,2774.0,2965.0,-56.0,,,,-0.212950566328953,-2.68995563829283,-0.388290917514481,,-5.728163205406672,,
,9172.0,1760.0,9157.0,1369.0,2775.0,2964.0,-77.0,,,,-0.21296626573801,-2.68998435166929,-0.388490136263764,,-5.309224166476351,,
,9172.0,1759.0,9157.0,1367.0,2749.0,2950.0,-67.0,,,,-0.213237044273683,-2.6901531245356,-0.389520678854088,,-4.816355690347622,,
,9173.0,1761.0,9158.0,1369.0,2763.0,2969.0,-69.0,,,,-0.21363428867662,-2.69023573028466,-0.387778558764809,,-4.246993341828596,,
,9173.0,1761.0,9157.0,1370.0,2774.0,2962.0,-85.0,,,,-0.213640326187194,-2.69062213045764,-0.389204347308224,,-3.601124131989704,,
,9173.0,1763.0,9161.0,1371.0,2772.0,2953.0,-84.0,,,,-0.213644034510331,-2.69061235012257,-0.389352299965172,,-2.881454657748416,,
,9175.0,1761.0,9158.0,1369.0,2767.0,2958.0,-63.0,,,,-0.213649571028664,-2.69071521368094,-0.38830471422476,,-2.093420208528948,,
,9175.0,1761.0,9159.0,1369.0,2768.0,2947.0,-75.0,,,,-0.213713708530797,-2.69095318227201,-0.390462954768173,,-1.2450299473874287,,
,9172.0,1763.0,9162.0,1370.0,2765.0,2976.0,-69.0,,,,-0.213681306727667,-2.69072122828735,-0.390177756822544,,-0.34655711772884795,,
,9174.0,1761.0,9164.0,1369.0,2759.0,2987.0,-66.0,,,,-0.21369476375388,-2.69111446250364,-0.390877940568248,,0.5899042678300138,,
,9174.0,1763.0,9164.0,1368.0,2765.0,2979.0,-84.0,,,,-0.213768540828789,-2.69137011869029,-0.39090039899169,,1.5509849140182732,,
,9176.0,1761.0,9163.0,1369.0,2770.0,2988.0,-69.0,,,,-0.213762980587777,-2.6912970752577,-0.391476823852476,,2.5226499998446323,,
,9174.0,1765.0,9168.0,1374.0,2763.0,2975.0,-65.0,,,,-0.21363899931136,-2.6914553495543,-0.390976186286305,,3.4908323989757544,,
,9175.0,1764.0,9172.0,1371.0,2755.0,2950.0,-57.0,,,,-0.213534593029612,-2.69109501667356,-0.390709861605766,,4.442049401719399,,
,9178.0,1765.0,9173.0,1373.0,2770.0,2933.0,-57.0,,,,-0.213391131840496,-2.69082730109597,-0.391331659446776,,5.363967270363208,,
,9178.0,1767.0,9172.0,1371.0,2778.0,2949.0,-74.0,,,,-0.213321570216635,-2.6904003017651,-0.390766508883714,,6.245884728081929,,
,9178.0,1765.0,9177.0,1372.0,2772.0,2962.0,-73.0,,,,-0.212892286227576,-2.69039858182684,-0.390138385438531,,7.07911401551575,,
,9178.0,1764.0,9180.0,1373.0,2763.0,2956.0,-72.0,,,,-0.213106829377429,-2.69023040411321,-0.38945693379417,,7.857244628233824,,
,9177.0,1770.0,9181.0,1372.0,2752.0,2970.0,-85.0,,,,-0.21305434950392,-2.69006133615773,-0.390510704165143,,8.576279413885455,,
,9181.0,1767.0,9188.0,1373.0,2764.0,2972.0,-117.0,,,,-0.212982809274523,-2.6900917576239,-0.38978142683517,,9.234635927160571,,
,9183.0,1767.0,9187.0,1374.0,2765.0,2967.0,-102.0,,,,-0.212811819296995,-2.69035638501102,-0.390871170251835,,9.833009171696954,,
,9185.0,1773.0,9192.0,1374.0,2764.0,2965.0,-112.0,,,,-0.212840170625315,-2.68988330242223,-0.38996148813116,,10.374096381607629,,
,9186.0,1771.0,9193.0,1377.0,2771.0,2962.0,-102.0,,,,-0.212986692466098,-2.69000013463074,-0.389960846299888,,10.862191260025998,,
,9187.0,1771.0,9196.0,1375.0,2769.0,2960.0,-97.0,,,,-0.213165397650015,-2.68997202145869,-0.388922096868956,,11.30266465120224,,
,9185.0,1769.0,9199.0,1376.0,2758.0,2975.0,-80.0,,,,-0.213254612531514,-2.68986652260333,-0.389343616024499,,11.7013605879235,,
,9190.0,1770.0,9202.0,1377.0,2765.0,2961.0,-76.0,,,,-0.213087754105568,-2.68992003426868,-0.38989892266367,,12.063949114076541,,
,9189.0,1771.0,9210.0,1376.0,2755.0,2960.0,-77.0,,,,-0.212780505981369,-2.68982206663198,-0.389536457198795,,12.395287096143319,,
,9193.0,1773.0,9212.0,1377.0,2762.0,2961.0,-90.0,,,,-0.21284945052294,-2.68977384956491,-0.390281078294993,,12.698842218724417,,
,9193.0,1772.0,9214.0,1375.0,2770.0,2954.0,-63.0,,,,-0.212410849678974,-2.68971333278976,-0.390041134025416,,12.976231569964865,,
,9193.0,1773.0,9219.0,1378.0,2754.0,2965.0,-56.0,,,,-0.212055530327441,-2.68942487880231,-0.389215129018162,,13.226914920414776,,
,9196.0,1776.0,9223.0,1379.0,2771.0,2946.0,-68.0,,,,-0.212290195937884,-2.68912207737466,-0.388455974340485,,13.448066606933557,,
,9195.0,1776.0,9223.0,1381.0,2777.0,2955.0,-64.0,,,,-0.212355581346156,-2.6890208163804,-0.388711141932556,,13.63463280867723,,
,9200.0,1778.0,9230.0,1378.0,2794.0,2954.0,-76.0,,,,-0.212046899766295,-2.68848369393216,-0.388020347070975,,13.779566490003353,,
,9199.0,1776.0,9231.0,1382.0,2784.0,2967.0,-96.0,,,,-0.212153373484727,-2.68910572919302,-0.387030979146599,,13.874222233587169,,
,9202.0,1780.0,9236.0,1385.0,2756.0,2966.0,-70.0,,,,-0.2118833058366,-2.68928994067391,-0.387883833205406,,13.908887354071002,,
,9203.0,1780.0,9238.0,1384.0,2772.0,2962.0,-69.0,,,,-0.211708383224703,-2.68914297948155,-0.387712875545459,,13.87342201988242,,
,9204.0,1779.0,9241.0,1384.0,2775.0,2951.0,-80.0,,,,-0.211839648154608,-2.6888521227453,-0.387043836134133,,13.757976857821538,,
,9203.0,1778.0,9243.0,1380.0,2764.0,2960.0,-92.0,,,,-0.211757404907102,-2.68866165938696,-0.387874271665586,,13.553749912140352,,
,9207.0,1782.0,9246.0,1383.0,2750.0,2979.0,-95.0,,,,-0.21133573228085,-2.68817017049681,-0.387281435282333,,13.253736168718678,,
,9206.0,1782.0,9246.0,1382.0,2755.0,2972.0,-86.0,,,,-0.211301514189813,-2.68822061716364,-0.387709534383869,,12.853414123832636,,
,9203.0,1782.0,9241.0,1382.0,2761.0,2968.0,-84.0,,,,-0.21107355977604,-2.68810955596329,-0.387229606243435,,12.351308035962285,,
,9202.0,1777.0,9238.0,1382.0,2760.0,2951.0,-92.0,,,,-0.210866096339955,-2.68802602480675,-0.386364174570493,,11.74936512311448,,
