TimeLabel,MEAS1_PPG1,MEAS1_PPG2,MEAS1_PPG3,MEAS1_PPG4,ACCX,ACCY,ACCZ,HR_timestamp,HR_value,radar_timestamp,phase_rx0,phase_rx1,phase_rx2,timestep,n_process,original_rate,calculated_rate
2025-07-01 22:03:21,6227.0,1871.0,5847.0,1687.0,3013.0,2392.0,1068.0,2025-07-01 22:03:22,101.0,2025/07/01 10:03:21 PM,0.0031331687145869,-2.1067843966319,0.0355120534407001,2025/07/01 10:03:21 PM,1.4725563579599872,12.626262664794922,22.890301318267415
,6229.0,1871.0,5848.0,1688.0,3014.0,2389.0,1073.0,2025-07-01 22:03:22,101.0,,0.0032568720920721,-2.10653084713998,0.035470717832113,2025/07/01 10:03:31 PM,1.955413092615308,14.598539352416992,22.54856254856255
,6231.0,1871.0,5849.0,1687.0,3012.0,2389.0,1096.0,2025-07-01 22:03:23,101.0,,0.0031090148207178,-2.10657252436396,0.0354023182596352,2025/07/01 10:03:41 PM,2.408793315912769,19.176136016845703,20.609765338856754
,6228.0,1871.0,5846.0,1691.0,3011.0,2370.0,1087.0,2025-07-01 22:03:25,101.0,,0.0032388071282509,-2.10629738020019,0.0353913431378835,2025/07/01 10:03:51 PM,2.8175531271651986,18.26792907714844,22.30237154150198
,6231.0,1871.0,5846.0,1688.0,3002.0,2353.0,1107.0,2025-07-01 22:03:26,101.0,,0.003326960751117,-2.10615315331668,0.035560627843801,2025/07/01 10:04:01 PM,3.1674252287056675,17.045455932617188,19.974701644393104
,6231.0,1871.0,5846.0,1687.0,3005.0,2335.0,1102.0,2025-07-01 22:03:26,101.0,,0.0032882559146776,-2.10682850796343,0.035582690624643,2025/07/01 10:04:11 PM,3.445715244128841,18.447347640991207,20.266086519956506
,6229.0,1873.0,5848.0,1690.0,3004.0,2355.0,1095.0,2025-07-01 22:03:28,101.0,,0.0033607109503344,-2.1067683038419,0.0352759450094906,2025/07/01 10:04:21 PM,3.641983764788842,18.763029098510746,22.139512496991777
,6232.0,1874.0,5849.0,1691.0,3009.0,2352.0,1095.0,2025-07-01 22:03:29,101.0,,0.0032432438554501,-2.10636859569298,0.0355406293982007,2025/07/01 10:04:31 PM,3.7486687778287116,18.58224296569824,23.713786213786204
,6232.0,1874.0,5849.0,1689.0,3010.0,2359.0,1093.0,2025-07-01 22:03:29,101.0,,0.0032944643523656,-2.10637264188539,0.0354865260906504,2025/07/01 10:04:41 PM,3.7615979820388965,20.120723724365234,22.495027221022546
,6230.0,1871.0,5848.0,1687.0,3002.0,2365.0,1116.0,2025-07-01 22:03:30,101.0,,0.003174092391007,-2.10689246137758,0.0354594679065123,2025/07/01 10:04:51 PM,3.680340551534109,16.17873764038086,21.879376116664247
,6234.0,1874.0,5848.0,1687.0,3007.0,2386.0,1127.0,2025-07-01 22:03:32,101.0,,0.0031723615929207,-2.10688858053763,0.0353984634221066,2025/07/01 10:05:01 PM,3.50835379246628,17.617450714111328,20.64777327935225
,6231.0,1874.0,5849.0,1688.0,3009.0,2361.0,1110.0,2025-07-01 22:03:32,101.0,,0.003146289070183,-2.10678409533965,0.0355440782758102,2025/07/01 10:05:11 PM,3.2528917629273746,19.160585403442383,22.565656565656553
,6232.0,1871.0,5850.0,1687.0,3009.0,2369.0,1100.0,2025-07-01 22:03:34,101.0,,0.0030943015554099,-2.10681390210947,0.0352305536526289,2025/07/01 10:05:21 PM,2.9246599835816145,21.52080345153809,21.134152585765467
,6232.0,1876.0,5848.0,1689.0,3008.0,2348.0,1085.0,2025-07-01 22:03:35,101.0,,0.0030376707644728,-2.10698856118098,0.0352345883316161,2025/07/01 10:05:31 PM,2.537222489244376,21.352313995361328,24.708624708624757
,6230.0,1873.0,5848.0,1689.0,3002.0,2378.0,1095.0,2025-07-01 22:03:35,101.0,,0.0030328557870068,-2.10726888383222,0.034985084896876,2025/07/01 10:05:41 PM,2.1061933965562636,22.46256256103516,21.409532087498196
,6231.0,1871.0,5846.0,1685.0,3006.0,2373.0,1100.0,2025-07-01 22:03:36,101.0,,0.002958399616698,-2.10690430629603,0.0352775206707371,2025/07/01 10:05:51 PM,1.6482715492277746,20.05943489074707,21.26754385964909
,6229.0,1874.0,5845.0,1689.0,3011.0,2366.0,1089.0,2025-07-01 22:03:37,101.0,,0.0028484515480299,-2.10720834480381,0.0351542386178348,2025/07/01 10:06:01 PM,1.1801983791475301,22.372880935668945,23.95964762716678
,6228.0,1873.0,5845.0,1688.0,3018.0,2368.0,1085.0,2025-07-01 22:03:39,101.0,,0.0028524928419799,-2.10668202655349,0.0350310926978478,2025/07/01 10:06:11 PM,0.7177307287020132,20.2020206451416,21.496655354134656
,6229.0,1873.0,5847.0,1688.0,3012.0,2393.0,1087.0,2025-07-01 22:03:39,100.0,,0.0027887003275764,-2.107422136594,0.0353004896024425,,0.2747193995981133,,
,6230.0,1874.0,5845.0,1687.0,3009.0,2367.0,1097.0,2025-07-01 22:03:40,99.0,,0.0028399235195888,-2.10753058346205,0.0350627527262421,,-0.1376285273536624,,
,6230.0,1875.0,5846.0,1688.0,3012.0,2352.0,1102.0,2025-07-01 22:03:41,98.0,,0.0027644310743247,-2.1071743066715,0.0350080813338133,,-0.511246617580885,,
,6229.0,1874.0,5847.0,1686.0,3012.0,2358.0,1087.0,2025-07-01 22:03:42,98.0,,0.0029482343487666,-2.10708437778842,0.0351767402844575,,-0.8414334197772438,,
,6230.0,1875.0,5846.0,1685.0,3009.0,2376.0,1087.0,2025-07-01 22:03:43,97.0,,0.0028715524275972,-2.10689176588059,0.0350420429151446,,-1.1267980472122288,,
,6228.0,1871.0,5844.0,1685.0,3009.0,2398.0,1062.0,2025-07-01 22:03:45,97.0,,0.0029584925504994,-2.10732913373718,0.0350739842252645,,-1.3689448151406391,,
,6229.0,1872.0,5843.0,1687.0,3010.0,2381.0,1051.0,2025-07-01 22:03:45,98.0,,0.0028517661850947,-2.10725087923291,0.0349795981095513,,-1.571935785337757,,
,6232.0,1875.0,5845.0,1688.0,3009.0,2381.0,1062.0,2025-07-01 22:03:46,98.0,,0.0028232671611091,-2.10699469324684,0.0351915093493125,,-1.7415870111468703,,
,6230.0,1874.0,5844.0,1687.0,3005.0,2359.0,1086.0,2025-07-01 22:03:47,97.0,,0.0028469573642628,-2.10726490423106,0.0350327377463933,,-1.8846658674479893,,
,6229.0,1875.0,5846.0,1687.0,3006.0,2372.0,1079.0,2025-07-01 22:03:49,96.0,,0.0028763194559005,-2.10699684346494,0.0351965387790114,,-2.008062203924775,,
,6230.0,1877.0,5844.0,1687.0,3002.0,2394.0,1096.0,2025-07-01 22:03:50,95.0,,0.0027988085357613,-2.10779500285059,0.0350123396343991,,-2.118004959264821,,
,6234.0,1876.0,5848.0,1690.0,3003.0,2382.0,1095.0,2025-07-01 22:03:50,94.0,,0.0027497221566037,-2.10742359275984,0.0349310721011738,,-2.2193886901615856,,
,6233.0,1875.0,5846.0,1687.0,3009.0,2382.0,1074.0,2025-07-01 22:03:51,93.0,,0.0027022221852143,-2.10756999787264,0.0344703884505979,,-2.3152621068349237,,
,6232.0,1875.0,5848.0,1686.0,3001.0,2380.0,1098.0,2025-07-01 22:03:52,93.0,,0.0026520406894879,-2.10815702665404,0.0347422841532904,,-2.406514553424221,,
,6233.0,1876.0,5851.0,1687.0,2995.0,2371.0,1108.0,2025-07-01 22:03:53,94.0,,0.0023352019837718,-2.10820516766542,0.0344971508622629,,-2.491777972489918,,
,6236.0,1876.0,5851.0,1689.0,3001.0,2384.0,1099.0,2025-07-01 22:03:54,95.0,,0.0021812895186221,-2.10848455944748,0.0346066563814889,,-2.56754266609251,,
,6236.0,1876.0,5850.0,1687.0,3001.0,2373.0,1093.0,2025-07-01 22:03:55,96.0,,0.0022238063057318,-2.10841232793231,0.0339735156702761,,-2.628466635621457,,
,6237.0,1876.0,5852.0,1689.0,2999.0,2392.0,1058.0,2025-07-01 22:03:56,97.0,,0.0023985242562284,-2.10866989568954,0.0341848169704174,,-2.66784241355977,,
,6237.0,1879.0,5855.0,1689.0,3001.0,2405.0,1059.0,2025-07-01 22:03:58,97.0,,0.0023320726661174,-2.10790458240377,0.0345644453019148,,-2.678174120120123,,
,6239.0,1880.0,5858.0,1689.0,2999.0,2392.0,1093.0,2025-07-01 22:03:58,97.0,,0.0023040500833346,-2.10787750681224,0.0343308191374358,,-2.6518122090963816,,
,6238.0,1878.0,5853.0,1689.0,3008.0,2385.0,1090.0,2025-07-01 22:03:59,97.0,,0.0023448397442087,-2.1073561454654,0.0343861816768195,,-2.581594048963658,,
,6240.0,1880.0,5856.0,1690.0,3004.0,2340.0,1093.0,2025-07-01 22:04:01,96.0,,0.0023571419179251,-2.10771291961386,0.0345263604076507,,-2.4614442376893737,,
,6243.0,1879.0,5859.0,1691.0,3007.0,2350.0,1098.0,2025-07-01 22:04:01,97.0,,0.0022324532106435,-2.10730996926977,0.0344051537917953,,-2.2868978505611697,,
,6242.0,1881.0,5861.0,1690.0,3006.0,2368.0,1084.0,2025-07-01 22:04:02,97.0,,0.0023287305731446,-2.1074412960088,0.0340371312384674,,-2.0555207055714333,,
,6245.0,1882.0,5863.0,1690.0,3009.0,2363.0,1079.0,2025-07-01 22:04:04,98.0,,0.0023524662984347,-2.1074625653552,0.0345181030015825,,-1.7672113360847481,,
,6244.0,1880.0,5862.0,1692.0,3003.0,2374.0,1079.0,2025-07-01 22:04:04,99.0,,0.0023726363869655,-2.10726516304047,0.0343573707741974,,-1.424378538951979,,
,6242.0,1880.0,5865.0,1691.0,3003.0,2387.0,1067.0,2025-07-01 22:04:05,99.0,,0.0022833841888218,-2.10721586043786,0.0344693479822351,,-1.031995645228745,,
,6247.0,1883.0,5865.0,1692.0,3006.0,2390.0,1060.0,2025-07-01 22:04:06,100.0,,0.0022585460999133,-2.10790871314135,0.0344729929984787,,-0.5975376531171543,,
,6247.0,1884.0,5869.0,1692.0,3019.0,2402.0,1083.0,2025-07-01 22:04:08,100.0,,0.002163218030893,-2.10836168465486,0.0341188616883264,,-0.1308096381720088,,
,6248.0,1883.0,5870.0,1695.0,3012.0,2395.0,1089.0,2025-07-01 22:04:08,100.0,,0.0019638895885698,-2.10858005032585,0.0337272079164895,,0.35632539420565734,,
,6249.0,1884.0,5870.0,1693.0,3010.0,2349.0,1097.0,2025-07-01 22:04:09,100.0,,0.0018713738386232,-2.10945947443744,0.033733034586079,,0.8503125711144747,,
,6251.0,1886.0,5873.0,1694.0,3004.0,2372.0,1096.0,2025-07-01 22:04:11,100.0,,0.0017013431214694,-2.10957596354061,0.0333369159093954,,1.3363595911305908,,
,6252.0,1886.0,5874.0,1695.0,3009.0,2365.0,1087.0,2025-07-01 22:04:12,99.0,,0.0015684003032873,-2.11052049239415,0.0332801036298455,,1.7989735155952002,,
,6256.0,1888.0,5878.0,1695.0,3008.0,2354.0,1085.0,2025-07-01 22:04:12,99.0,,0.001553641380124,-2.1111186051967,0.0330252346595424,,2.2225712706770033,,
,6254.0,1887.0,5878.0,1696.0,3007.0,2331.0,1066.0,2025-07-01 22:04:13,100.0,,0.0013693845505656,-2.1115167617354,0.0327683439548876,,2.592150053266136,,
,6254.0,1885.0,5878.0,1696.0,3014.0,2373.0,1073.0,2025-07-01 22:04:14,100.0,,0.0012073476217312,-2.11219486508154,0.0325201881226401,,2.8939958047583176,,
,6253.0,1886.0,5878.0,1697.0,3014.0,2382.0,1053.0,2025-07-01 22:04:15,101.0,,0.0011417870402455,-2.1125016927865,0.0328138561189978,,3.1163975055975763,,
,6250.0,1884.0,5875.0,1696.0,3016.0,2380.0,1060.0,2025-07-01 22:04:17,101.0,,0.0010156959113544,-2.11283250856818,0.0324442980627972,,3.25032402615835,,
,6246.0,1884.0,5870.0,1693.0,3010.0,2373.0,1075.0,2025-07-01 22:04:17,101.0,,0.0009342543241209,-2.11340758512716,0.0320570733075532,,3.290011400797408,,
,6242.0,1877.0,5862.0,1691.0,3006.0,2392.0,1088.0,2025-07-01 22:04:19,102.0,,0.0009564677733432,-2.11377849847677,0.0322658649634466,,3.233404587912596,,
,6239.0,1876.0,5862.0,1687.0,3002.0,2379.0,1097.0,2025-07-01 22:04:20,101.0,,0.000878172343832,-2.11443449728687,0.0320434648507866,,3.0824012185738714,,
,6236.0,1878.0,5853.0,1684.0,2999.0,2358.0,1085.0,2025-07-01 22:04:20,101.0,,0.0008622934353482,-2.11495311222442,0.0322020395153854,,2.8428562379012647,,
,6229.0,1875.0,5846.0,1685.0,3000.0,2369.0,1087.0,2025-07-01 22:04:22,100.0,,0.0007994566342519,-2.114597278914,0.0319898991256984,,2.524324881069581,,
,6227.0,1872.0,5841.0,1682.0,3003.0,2367.0,1067.0,2025-07-01 22:04:22,99.0,,0.0006854084886487,-2.11491117499503,0.0318696371493663,,2.139545318880167,,
,6223.0,1870.0,5836.0,1681.0,2995.0,2346.0,1082.0,2025-07-01 22:04:24,99.0,,0.0006278784567344,-2.11493323234115,0.031541173354766,,1.7036891510242307,,
,6220.0,1870.0,5833.0,1682.0,2998.0,2360.0,1090.0,2025-07-01 22:04:24,99.0,,0.0005636071550749,-2.11521801341736,0.0316385928265084,,1.233434210407399,,
,6215.0,1869.0,5828.0,1678.0,3001.0,2352.0,1084.0,2025-07-01 22:04:26,99.0,,0.0006157632412468,-2.1155219396975,0.0318203146655325,,0.7459350807671393,,
,6215.0,1866.0,5822.0,1678.0,3003.0,2364.0,1070.0,2025-07-01 22:04:26,99.0,,0.0006068149033365,-2.11462105859402,0.0320224085574892,,0.2577777876987339,,
,6212.0,1865.0,5820.0,1672.0,3005.0,2380.0,1068.0,2025-07-01 22:04:27,100.0,,0.0006182665304183,-2.11450860441778,0.032051979081086,,-0.21599548974046537,,
,6211.0,1865.0,5817.0,1676.0,3012.0,2363.0,1065.0,2025-07-01 22:04:29,100.0,,0.0006916383424578,-2.11387371852454,0.0320950631763833,,-0.6627162530659438,,
,6208.0,1865.0,5817.0,1674.0,3011.0,2353.0,1056.0,2025-07-01 22:04:29,100.0,,0.0006515548562941,-2.11396699759679,0.0320907658277166,,-1.07271493787255,,
,6206.0,1864.0,5813.0,1674.0,3016.0,2359.0,1058.0,2025-07-01 22:04:31,100.0,,0.000804236818444,-2.11375935632576,0.0322973481950011,,-1.4397010846329783,,
,6205.0,1861.0,5809.0,1670.0,3017.0,2364.0,1067.0,2025-07-01 22:04:32,100.0,,0.0011470305756219,-2.11394482102392,0.0322629486619063,,-1.7608768461479687,,
,6206.0,1865.0,5808.0,1674.0,3011.0,2373.0,1059.0,2025-07-01 22:04:32,99.0,,0.0011307984309314,-2.11299791539491,0.032607200267874,,-2.0367809259306613,,
,6205.0,1863.0,5812.0,1673.0,3017.0,2368.0,1053.0,2025-07-01 22:04:33,99.0,,0.0012527362372495,-2.11271323624142,0.0329347670164335,,-2.270878540982581,,
,6206.0,1862.0,5807.0,1672.0,3022.0,2381.0,1054.0,2025-07-01 22:04:35,98.0,,0.0012797854875905,-2.11256661036714,0.0327642201478799,,-2.4689310322810116,,
,6204.0,1863.0,5810.0,1671.0,3019.0,2391.0,1054.0,2025-07-01 22:04:35,98.0,,0.0013491100148744,-2.11227990639463,0.0328489575578018,,-2.638195299276999,,
,6201.0,1863.0,5808.0,1671.0,3016.0,2387.0,1058.0,2025-07-01 22:04:37,98.0,,0.0013012758933546,-2.11244967942442,0.0329734588292129,,-2.786516933497224,,
,6202.0,1863.0,5812.0,1671.0,3008.0,2390.0,1058.0,2025-07-01 22:04:37,98.0,,0.0014524892035506,-2.11222221590889,0.0328932998013536,,-2.921390382759845,,
,6204.0,1863.0,5806.0,1672.0,3011.0,2384.0,1071.0,2025-07-01 22:04:38,98.0,,0.0012270669201313,-2.1121406605628,0.0328141383121769,,-3.049063415227989,,
,6204.0,1864.0,5808.0,1669.0,3005.0,2386.0,1085.0,2025-07-01 22:04:39,98.0,,0.001215153172842,-2.11263637776574,0.0327587849128378,,-3.1737606771451827,,
,6201.0,1865.0,5809.0,1672.0,2996.0,2391.0,1101.0,2025-07-01 22:04:40,98.0,,0.0011788446193512,-2.11250575718625,0.0324824443021364,,-3.2970921270570077,,
,6203.0,1865.0,5811.0,1673.0,3007.0,2374.0,1091.0,2025-07-01 22:04:42,97.0,,0.0012367411491991,-2.11314444768003,0.0329220885764704,,-3.417697233330785,,
,6202.0,1867.0,5810.0,1672.0,3008.0,2369.0,1091.0,2025-07-01 22:04:42,97.0,,0.0011147634462492,-2.11338518962349,0.032522108987837,,-3.531156158529054,,
,6203.0,1863.0,5808.0,1672.0,3012.0,2380.0,1093.0,2025-07-01 22:04:43,97.0,,0.0011629763988983,-2.11354061130907,0.032249880560987,,-3.6301763193352805,,
,6201.0,1864.0,5809.0,1671.0,3006.0,2382.0,1104.0,2025-07-01 22:04:44,97.0,,0.0009608122236612,-2.11329417105447,0.0322839026456201,,-3.7050390160047364,,
,6207.0,1865.0,5812.0,1672.0,2996.0,2394.0,1095.0,2025-07-01 22:04:45,97.0,,0.0010177728838795,-2.11373597441247,0.0320595854544157,,-3.7442689840961103,,
,6204.0,1866.0,5813.0,1671.0,3006.0,2356.0,1110.0,2025-07-01 22:04:46,98.0,,0.0008227304155849,-2.11423106850084,0.031916547558895,,-3.735471985127938,,
,6207.0,1866.0,5810.0,1669.0,3004.0,2361.0,1104.0,2025-07-01 22:04:47,99.0,,0.0008796338660331,-2.11461856639051,0.0315825873558571,,-3.666273227459719,,
,6202.0,1864.0,5811.0,1667.0,3004.0,2379.0,1093.0,2025-07-01 22:04:48,99.0,,0.0007344113320383,-2.11477920563456,0.0317652565220658,,-3.525283116849702,,
,6203.0,1867.0,5810.0,1669.0,3007.0,2374.0,1110.0,2025-07-01 22:04:49,99.0,,0.0006935354857746,-2.11469440956791,0.0313105695482932,,-3.3030169176454667,,
,6202.0,1864.0,5811.0,1671.0,3008.0,2377.0,1099.0,2025-07-01 22:04:50,98.0,,0.0005386717889741,-2.11534215189106,0.031483401661307,,-2.9927014215843966,,
,6202.0,1866.0,5810.0,1669.0,3004.0,2383.0,1093.0,2025-07-01 22:04:51,98.0,,0.0002378989562133,-2.11436309602926,0.0314946934676517,,-2.5909141313962136,,
,6200.0,1861.0,5808.0,1668.0,3009.0,2385.0,1075.0,2025-07-01 22:04:52,97.0,,0.0003127159479536,-2.1152448332568,0.0309598534077977,,-2.0980172959085124,,
,6198.0,1866.0,5808.0,1670.0,3010.0,2400.0,1083.0,2025-07-01 22:04:53,97.0,,0.000384089389033,-2.11481023248581,0.0311518198690563,,-1.518367946775141,,
,6202.0,1862.0,5810.0,1669.0,3010.0,2369.0,1064.0,2025-07-01 22:04:55,98.0,,0.0003177185172388,-2.11485712587482,0.0309301899404585,,-0.8603029877660416,,
,6199.0,1864.0,5809.0,1672.0,3010.0,2364.0,1068.0,2025-07-01 22:04:56,98.0,,0.0004106432947685,-2.11596425832693,0.0314473462888426,,-0.13591294802271786,,
,6199.0,1865.0,5807.0,1667.0,3009.0,2365.0,1059.0,2025-07-01 22:04:56,99.0,,0.0003076408822801,-2.11583764962792,0.0312741880694759,,0.6393718471370443,,
,6196.0,1862.0,5808.0,1668.0,3016.0,2377.0,1079.0,2025-07-01 22:04:57,99.0,,0.0003054891184199,-2.11528968621858,0.030946000525622,,1.447352751984416,,
,6197.0,1863.0,5808.0,1669.0,3015.0,2375.0,1057.0,2025-07-01 22:04:58,100.0,,0.0002050307588791,-2.11530426323833,0.0309368286747905,,2.2677585279632115,,
,6198.0,1863.0,5808.0,1669.0,3016.0,2384.0,1088.0,2025-07-01 22:04:59,100.0,,0.0004082545484743,-2.11529855102885,0.0307231230758216,,3.0790301876310275,,
,6197.0,1864.0,5806.0,1667.0,3017.0,2386.0,1116.0,2025-07-01 22:05:01,100.0,,0.0004259831931355,-2.11597109642731,0.0308319686738578,,3.8591592827230503,,
,6197.0,1862.0,5809.0,1665.0,3008.0,2381.0,1080.0,2025-07-01 22:05:01,100.0,,0.0003669547243824,-2.11530836162828,0.0308523145039738,,4.586544214587382,,
,6202.0,1862.0,5810.0,1667.0,3008.0,2386.0,1064.0,2025-07-01 22:05:03,100.0,,0.0003407266008097,-2.1153229392197,0.0309361029997754,,5.240829771237136,,
,6199.0,1863.0,5809.0,1667.0,3008.0,2378.0,1088.0,2025-07-01 22:05:03,99.0,,0.0004683149010549,-2.11530359217084,0.0307743502796108,,5.803696052985224,,
,6199.0,1864.0,5812.0,1668.0,3007.0,2380.0,1093.0,2025-07-01 22:05:05,99.0,,0.000344563886198,-2.11539216730713,0.0308937046847863,,6.259564602535706,,
,6197.0,1863.0,5811.0,1667.0,3012.0,2356.0,1090.0,2025-07-01 22:05:05,99.0,,0.0002894944853809,-2.11560436740588,0.0307933220652723,,6.596192267566476,,
,6198.0,1863.0,5810.0,1667.0,3010.0,2359.0,1086.0,2025-07-01 22:05:07,99.0,,0.0002991966223397,-2.11537115374546,0.0306184808544229,,6.805127361706511,,
,6199.0,1867.0,5814.0,1668.0,3003.0,2371.0,1094.0,2025-07-01 22:05:07,100.0,,0.0002327428816687,-2.11614150939735,0.0302849047937536,,6.882008390723492,,
,6197.0,1865.0,5813.0,1669.0,3005.0,2372.0,1107.0,2025-07-01 22:05:09,100.0,,0.0002657224236275,-2.11604910972158,0.0307414549021054,,6.826692941538198,,
,6202.0,1865.0,5814.0,1668.0,3007.0,2359.0,1104.0,2025-07-01 22:05:10,101.0,,0.0001495881532484,-2.11595049610922,0.0304856017336357,,6.64321237747066,,
,6201.0,1866.0,5814.0,1667.0,3008.0,2353.0,1085.0,2025-07-01 22:05:10,101.0,,0.000170341157674,-2.11652445875528,0.029915047321559,,6.33955558323491,,
,6202.0,1868.0,5816.0,1666.0,3006.0,2333.0,1089.0,2025-07-01 22:05:11,101.0,,7.11748990118886e-05,-2.11653026796894,0.0303965629178085,,5.927291769213376,,
,6202.0,1868.0,5819.0,1670.0,3008.0,2334.0,1082.0,2025-07-01 22:05:12,101.0,,5.79232733000153e-05,-2.1162149864314,0.030118442813566,,5.421048541249301,,
,6203.0,1867.0,5821.0,1670.0,3009.0,2359.0,1060.0,2025-07-01 22:05:14,100.0,,9.42646386307479e-06,-2.11617384207023,0.0300173242291127,,4.837867192327407,,
,6205.0,1865.0,5822.0,1665.0,3006.0,2362.0,1055.0,2025-07-01 22:05:14,100.0,,0.0001604521668221,-2.11559795502987,0.030259342267925,,4.196462318448542,,
,6207.0,1869.0,5821.0,1668.0,3011.0,2381.0,1073.0,2025-07-01 22:05:15,99.0,,0.0002958343730438,-2.11581187402083,0.0303941185286736,,3.516417376213894,,
,6207.0,1867.0,5825.0,1669.0,3014.0,2367.0,1094.0,2025-07-01 22:05:17,99.0,,0.0002233188079443,-2.11575718756063,0.0306314528007116,,2.817351844314201,,
,6207.0,1868.0,5825.0,1670.0,3013.0,2358.0,1099.0,2025-07-01 22:05:17,100.0,,0.0002309081318218,-2.11564130747768,0.0305948342492907,,2.1180992316913576,,
,6205.0,1869.0,5826.0,1668.0,3007.0,2360.0,1096.0,2025-07-01 22:05:18,101.0,,0.0004180002645709,-2.11563903073161,0.0307281213284813,,1.435937891670928,,
,6209.0,1871.0,5831.0,1671.0,3004.0,2377.0,1073.0,2025-07-01 22:05:19,101.0,,0.0003746504603231,-2.11522883803503,0.0310957448251214,,0.7859175208053758,,
,6210.0,1870.0,5832.0,1671.0,3006.0,2375.0,1051.0,2025-07-01 22:05:20,102.0,,0.0004812258964779,-2.11479680001573,0.0307989754330793,,0.180321924614984,,
,6209.0,1871.0,5832.0,1671.0,3005.0,2388.0,1060.0,2025-07-01 22:05:21,102.0,,0.0004346245917942,-2.11499984457277,0.0314580582136692,,-0.3716981332695647,,
,6207.0,1870.0,5834.0,1671.0,3014.0,2385.0,1089.0,2025-07-01 22:05:23,102.0,,0.0005270395752128,-2.11376113863719,0.0312764749333954,,-0.8642994911460398,,
,6210.0,1872.0,5835.0,1671.0,3012.0,2382.0,1102.0,2025-07-01 22:05:23,102.0,,0.0005560220469228,-2.1140581900677,0.031481091457904,,-1.2949205646130286,,
,6213.0,1875.0,5839.0,1672.0,3014.0,2397.0,1086.0,2025-07-01 22:05:25,102.0,,0.0005696224136444,-2.11446756974543,0.0311517948800761,,-1.664062558318701,,
,6214.0,1874.0,5839.0,1672.0,3011.0,2391.0,1087.0,2025-07-01 22:05:26,102.0,,0.0005728761545291,-2.11510967228261,0.0311421010683521,,-1.9749011689880032,,
,6214.0,1873.0,5839.0,1670.0,3015.0,2387.0,1107.0,2025-07-01 22:05:26,102.0,,0.0003976772861154,-2.11533406037532,0.0307638502541875,,-2.2327655679895817,,
,6214.0,1873.0,5842.0,1670.0,3016.0,2375.0,1092.0,2025-07-01 22:05:27,103.0,,0.0003524547877494,-2.11607208606337,0.0311257558718125,,-2.4445314396589133,,
,6217.0,1873.0,5843.0,1672.0,3012.0,2398.0,1089.0,2025-07-01 22:05:28,103.0,,0.0003727481979233,-2.11610006014782,0.0308818126901958,,-2.61797973883985,,
2025-07-01 22:03:22,6217.0,1876.0,5844.0,1675.0,3014.0,2397.0,1072.0,2025-07-01 22:05:29,103.0,2025/07/01 10:03:22 PM,0.0003111874580862,-2.116660651894,0.0310666882655693,,-2.761171688434771,,
,6220.0,1877.0,5847.0,1675.0,3008.0,2397.0,1068.0,2025-07-01 22:05:31,103.0,,0.0003592632934005,-2.11660916165914,0.0309545676811847,,-2.881883444868377,,
,6217.0,1876.0,5844.0,1672.0,3014.0,2386.0,1060.0,2025-07-01 22:05:31,102.0,,0.0002784542992511,-2.11643857539005,0.0309070711571744,,-2.987132088820313,,
,6217.0,1876.0,5846.0,1673.0,3013.0,2384.0,1057.0,2025-07-01 22:05:32,101.0,,0.0002543310434667,-2.11672118667297,0.0306282306462602,,-3.0828105720789147,,
,6213.0,1873.0,5843.0,1672.0,3009.0,2396.0,1098.0,2025-07-01 22:05:34,101.0,,0.0001488987496521,-2.11713798755894,0.0306687826636918,,-3.1734358899493236,,
,6209.0,1874.0,5838.0,1672.0,3010.0,2393.0,1097.0,2025-07-01 22:05:34,101.0,,0.0001054025533531,-2.1173277615015,0.0308009237536663,,-3.2620043319499437,,
,6206.0,1869.0,5832.0,1670.0,3010.0,2369.0,1073.0,2025-07-01 22:05:35,101.0,,-6.9433964019406e-08,-2.11749279313472,0.0304023276586779,,-3.3499411515147264,,
,6199.0,1866.0,5827.0,1668.0,3004.0,2352.0,1088.0,2025-07-01 22:05:36,101.0,,9.80626531180491e-07,-2.1177672778953,0.0304476811814985,,-3.4371292531496813,,
,6198.0,1868.0,5823.0,1666.0,2992.0,2338.0,1110.0,2025-07-01 22:05:37,102.0,,-0.0001173826423737,-2.11826188830502,0.0298806520225788,,-3.5220017780715436,,
,6193.0,1865.0,5819.0,1666.0,2999.0,2341.0,1118.0,2025-07-01 22:05:38,102.0,,-0.0002922808946629,-2.11838415936667,0.0297747734684478,,-3.6016856801740813,,
,6189.0,1863.0,5813.0,1660.0,2996.0,2342.0,1121.0,2025-07-01 22:05:40,103.0,,-0.0003995526007232,-2.12008225098792,0.0298469877305884,,-3.672186282007265,,
,6184.0,1858.0,5810.0,1659.0,2991.0,2355.0,1089.0,2025-07-01 22:05:40,103.0,,-0.000526625648334,-2.12007816480334,0.0297373824414638,,-3.728605251648181,,
,6183.0,1860.0,5804.0,1660.0,3004.0,2362.0,1093.0,2025-07-01 22:05:42,102.0,,-0.0004677105546606,-2.11925755080194,0.029594583744615,,-3.765385590283839,,
,6179.0,1856.0,5799.0,1656.0,3007.0,2383.0,1068.0,2025-07-01 22:05:43,102.0,,-0.0006336823332348,-2.11925197897042,0.029657591891059,,-3.7765766579316153,,
,6177.0,1858.0,5799.0,1657.0,3005.0,2376.0,1062.0,2025-07-01 22:05:43,102.0,,-0.0005950523397399,-2.11960117832977,0.0294970718897134,,-3.7561103443761374,,
,6174.0,1854.0,5791.0,1652.0,3016.0,2373.0,1089.0,2025-07-01 22:05:44,102.0,,-0.0005912551001174,-2.11943743602833,0.0294750068977968,,-3.698077511506825,,
,6172.0,1853.0,5792.0,1655.0,3015.0,2364.0,1058.0,2025-07-01 22:05:46,102.0,,-0.0005480294983217,-2.11916362392529,0.0296233914104359,,-3.5969935434866627,,
,6172.0,1854.0,5790.0,1654.0,3020.0,2374.0,1064.0,2025-07-01 22:05:47,102.0,,-0.0004349200046689,-2.11894293660892,0.0298456541751824,,-3.448044388379125,,
,6167.0,1854.0,5789.0,1652.0,3017.0,2368.0,1071.0,2025-07-01 22:05:47,102.0,,-0.0004329337254583,-2.11883337103443,0.0299173881623719,,-3.2473096133518298,,
,6166.0,1853.0,5787.0,1650.0,3015.0,2381.0,1086.0,2025-07-01 22:05:49,102.0,,-0.0003065202826603,-2.11903053363913,0.0303448481265342,,-2.9919651077969145,,
,6170.0,1853.0,5786.0,1649.0,3020.0,2378.0,1074.0,2025-07-01 22:05:49,101.0,,-0.0002005589312739,-2.11778546057667,0.0302501177428082,,-2.680472787100336,,
,6167.0,1853.0,5786.0,1651.0,3023.0,2386.0,1080.0,2025-07-01 22:05:50,101.0,,-0.0001482026361292,-2.11785861823304,0.0302771982173257,,-2.312765679174572,,
,6168.0,1854.0,5786.0,1650.0,3023.0,2391.0,1096.0,2025-07-01 22:05:52,100.0,,-0.0001925418642752,-2.11742904608599,0.030671543974554,,-1.89043256547204,,
,6164.0,1853.0,5784.0,1650.0,3014.0,2388.0,1074.0,2025-07-01 22:05:52,100.0,,-0.0001365297112207,-2.11718213669406,0.0301390775097912,,-1.4168965895372143,,
,6166.0,1852.0,5787.0,1650.0,3014.0,2399.0,1074.0,2025-07-01 22:05:53,100.0,,-0.0001373047271824,-2.11748218718418,0.0305906864381652,,-0.8975686415096431,,
,6166.0,1853.0,5786.0,1649.0,3008.0,2385.0,1083.0,2025-07-01 22:05:54,101.0,,-7.44477196064507e-05,-2.11736651973497,0.0305082326186823,,-0.339943310004565,,
,6165.0,1853.0,5787.0,1651.0,3003.0,2384.0,1079.0,2025-07-01 22:05:55,101.0,,-0.0001833460082601,-2.11782954663441,0.0304076582417989,,0.24640118132889416,,
,6167.0,1855.0,5786.0,1652.0,3008.0,2375.0,1080.0,2025-07-01 22:05:56,102.0,,-0.0002773058297655,-2.11784485187794,0.0300289803296585,,0.849933251064144,,
,6165.0,1850.0,5785.0,1650.0,3005.0,2370.0,1080.0,2025-07-01 22:05:57,102.0,,-0.0003458727638357,-2.11893399211692,0.0300769292342828,,1.4574483510629457,,
,6167.0,1852.0,5788.0,1649.0,3008.0,2352.0,1077.0,2025-07-01 22:05:58,102.0,,-0.000313338857821,-2.11912541262473,0.0297595281845989,,2.054500063319356,,
,6165.0,1856.0,5789.0,1650.0,3010.0,2362.0,1093.0,2025-07-01 22:05:59,101.0,,-0.0003729664399066,-2.11940978578035,0.0297644627618501,,2.6259634315514093,,
,6168.0,1855.0,5787.0,1649.0,3012.0,2359.0,1093.0,2025-07-01 22:06:01,101.0,,-0.0003989361635431,-2.11942383839761,0.0299368167606262,,3.156696285874571,,
,6165.0,1852.0,5789.0,1647.0,3009.0,2351.0,1098.0,2025-07-01 22:06:01,101.0,,-0.0004833202799779,-2.11902004281872,0.0298283545937783,,3.6322528183610845,,
,6168.0,1852.0,5792.0,1650.0,3002.0,2358.0,1104.0,2025-07-01 22:06:02,100.0,,-0.0005563055289763,-2.11967498342088,0.0295341133195699,,4.039596607034868,,
,6168.0,1854.0,5790.0,1650.0,3005.0,2365.0,1104.0,2025-07-01 22:06:04,100.0,,-0.0005754024199666,-2.12029448347554,0.0297329411310345,,4.367757884573932,,
,6162.0,1856.0,5789.0,1651.0,3006.0,2360.0,1113.0,2025-07-01 22:06:04,100.0,,-0.000688001836244,-2.12022228747534,0.0296267776947709,,4.608382640097773,,
,6166.0,1853.0,5790.0,1648.0,3007.0,2363.0,1092.0,2025-07-01 22:06:05,101.0,,-0.0007105050662697,-2.1200359986303,0.0294492379945039,,4.756129796274711,,
,6166.0,1855.0,5791.0,1650.0,3007.0,2367.0,1096.0,2025-07-01 22:06:07,101.0,,-0.0006278365444077,-2.11997537620761,0.0294035539604525,,4.808887283624046,,
,6164.0,1855.0,5794.0,1648.0,3007.0,2367.0,1076.0,2025-07-01 22:06:07,101.0,,-0.000617052372226,-2.11966546867679,0.029904205991433,,4.767796760050748,,
,6164.0,1854.0,5791.0,1650.0,3007.0,2362.0,1084.0,2025-07-01 22:06:08,101.0,,-0.0006404851653877,-2.11964874113116,0.0297064651363091,,4.637096463555281,,
,6162.0,1854.0,5789.0,1648.0,3004.0,2361.0,1087.0,2025-07-01 22:06:10,102.0,,-0.0006430404629401,-2.11950715815938,0.0297736654923423,,4.423807991027768,,
,6159.0,1851.0,5788.0,1647.0,3000.0,2368.0,1083.0,2025-07-01 22:06:10,102.0,,-0.0006048151568572,-2.11955842956528,0.0296309945680732,,4.137302713838605,,
,6163.0,1853.0,5790.0,1648.0,3008.0,2386.0,1061.0,2025-07-01 22:06:11,103.0,,-0.000624808727798,-2.11968852193708,0.029354335083614,,3.7887864854732767,,
,6162.0,1853.0,5788.0,1648.0,3006.0,2388.0,1062.0,2025-07-01 22:06:12,103.0,,-0.0006040131660972,-2.11905328709575,0.0294186090399426,,3.3907386716445527,,
,6159.0,1853.0,5787.0,1647.0,3010.0,2380.0,1079.0,2025-07-01 22:06:13,103.0,,-0.0006729304486237,-2.11962541794663,0.0295944239666151,,2.9563358276495353,,
,6158.0,1850.0,5785.0,1645.0,3008.0,2384.0,1097.0,2025-07-01 22:06:14,103.0,,-0.0005907493936502,-2.11971535064338,0.0293362146537154,,2.4988842817286265,,
,6161.0,1850.0,5788.0,1647.0,3011.0,2376.0,1084.0,2025-07-01 22:06:15,103.0,,-0.0006927919577916,-2.12058386086533,0.0293863891797632,,2.0312815017943904,,
,6160.0,1853.0,5786.0,1647.0,3013.0,2377.0,1102.0,2025-07-01 22:06:16,102.0,,-0.0007549210304463,-2.1204461821518,0.0294592692465992,,1.5655240897766003,,
,6156.0,1851.0,5789.0,1647.0,3014.0,2373.0,1098.0,2025-07-01 22:06:18,102.0,,-0.000771951019434,-2.12049025778317,0.0295370869396699,,1.1122798526792064,,
,6160.0,1852.0,5786.0,1645.0,3008.0,2370.0,1073.0,2025-07-01 22:06:19,102.0,,-0.000749922044109,-2.12060116190859,0.029264992999466,,0.6805411480105243,,
,6158.0,1851.0,5789.0,1647.0,3009.0,2358.0,1075.0,2025-07-01 22:06:19,103.0,,-0.0007608673129388,-2.12031810014043,0.0293142827925856,,0.277375030387809,,
,6160.0,1854.0,5789.0,1646.0,3004.0,2354.0,1091.0,2025-07-01 22:06:21,103.0,,-0.0008453786204144,-2.12074843725549,0.0294485137385711,,-0.09221826187186563,,
,6159.0,1853.0,5790.0,1647.0,3006.0,2354.0,1096.0,,,,-0.0009184877035908,-2.12082060224934,0.0293254250147005,,-0.4253329999936927,,
,6160.0,1851.0,5791.0,1644.0,3011.0,2359.0,1081.0,,,,-0.0009735028481563,-2.12001932323917,0.0294592329179836,,-0.7210734452606693,,
,6159.0,1852.0,5792.0,1646.0,3009.0,2373.0,1096.0,,,,-0.0009039042086234,-2.12121325467052,0.0294107705220711,,-0.9803658707638867,,
,6160.0,1854.0,5792.0,1645.0,3014.0,2355.0,1084.0,,,,-0.0010337897028225,-2.12099412586748,0.0296061069254175,,-1.2056824855733028,,
,6159.0,1854.0,5795.0,1648.0,3009.0,2351.0,1073.0,,,,-0.0010465960747092,-2.12124362742972,0.0291988110945193,,-1.4006980672366303,,
,6162.0,1855.0,5795.0,1646.0,3009.0,2324.0,1091.0,,,,-0.0009589658527023,-2.12127621438664,0.029040885608214,,-1.5699035936548398,,
,6161.0,1854.0,5797.0,1645.0,3007.0,2338.0,1063.0,,,,-0.0011402086414218,-2.12172374903343,0.0291308387447881,,-1.7182021531312524,,
,6163.0,1856.0,5799.0,1648.0,3008.0,2343.0,1064.0,,,,-0.0011577417921754,-2.12126703275136,0.0294608512784248,,-1.8505109492898195,,
,6163.0,1856.0,5802.0,1648.0,3012.0,2366.0,1048.0,,,,-0.00122282833015,-2.12134454832005,0.0290943605655499,,-1.971389785212515,,
,6167.0,1856.0,5803.0,1649.0,3013.0,2378.0,1065.0,,,,-0.001106299777356,-2.1216840062063,0.0289452713803879,,-2.084711758145119,,
,6163.0,1854.0,5802.0,1648.0,3006.0,2371.0,1083.0,,,,-0.0011137080483763,-2.12159177477291,0.0290525368802755,,-2.1933870810389875,,
,6166.0,1860.0,5803.0,1649.0,3003.0,2352.0,1078.0,,,,-0.0011820008491187,-2.1213929445639,0.029201120114243,,-2.299147088258982,,
,6167.0,1859.0,5809.0,1649.0,3005.0,2376.0,1061.0,,,,-0.0010961799434935,-2.12118730709933,0.0294027873977259,,-2.4023931954972197,,
,6168.0,1858.0,5809.0,1651.0,3008.0,2398.0,1055.0,,,,-0.0010796350279525,-2.12120086764329,0.0292552591864392,,-2.5021148120717984,,
,6164.0,1858.0,5810.0,1650.0,3008.0,2380.0,1072.0,,,,-0.0011677951001071,-2.12116213290662,0.0294420393651414,,-2.595880526270393,,
,6170.0,1858.0,5808.0,1649.0,3011.0,2346.0,1082.0,,,,-0.001137315112986,-2.12122016818455,0.0294274290559967,,-2.67990761844449,,
,6173.0,1860.0,5812.0,1652.0,3012.0,2352.0,1088.0,,,,-0.0011530604283864,-2.12160970495343,0.0296637590428999,,-2.7492150035640277,,
,6171.0,1860.0,5815.0,1652.0,3011.0,2350.0,1104.0,,,,-0.0011606997219874,-2.12118862286686,0.0295742051486896,,-2.7978627655438193,,
,6170.0,1861.0,5815.0,1649.0,3010.0,2373.0,1084.0,,,,-0.0011684007579074,-2.12142961189382,0.02934343527487,,-2.819276648225588,,
,6169.0,1858.0,5815.0,1650.0,3011.0,2362.0,1089.0,,,,-0.0011649595321434,-2.12150453025244,0.0295682755166637,,-2.806648191718328,,
,6174.0,1862.0,5819.0,1651.0,3010.0,2390.0,1104.0,,,,-0.0011993395303001,-2.12220098273376,0.029136780768317,,-2.7533914853665866,,
,6173.0,1863.0,5821.0,1653.0,3012.0,2370.0,1079.0,,,,-0.0013471875100771,-2.12257037546177,0.0294002524441984,,-2.6536273975703457,,
,6176.0,1862.0,5824.0,1651.0,3013.0,2367.0,1095.0,,,,-0.0015598010763427,-2.12304891742157,0.0290564928601554,,-2.502657998552709,,
,6175.0,1860.0,5820.0,1653.0,3013.0,2356.0,1074.0,,,,-0.0017114997978441,-2.12341926743743,0.0287610939287111,,-2.297390180889332,,
,6179.0,1864.0,5825.0,1654.0,3013.0,2361.0,1070.0,,,,-0.0017024419485528,-2.12388974489547,0.0285984921097883,,-2.0366697577559254,,
,6178.0,1862.0,5827.0,1656.0,3019.0,2368.0,1087.0,,,,-0.0018441859499714,-2.12445333993555,0.0283072963423199,,-1.7214955992149215,,
,6177.0,1866.0,5830.0,1654.0,3018.0,2360.0,1087.0,,,,-0.0020323707264041,-2.1254586876904,0.028429600803529,,-1.3550963195097887,,
,6180.0,1862.0,5831.0,1653.0,3022.0,2364.0,1075.0,,,,-0.0022076446175307,-2.12604810779974,0.0284161464306533,,-0.9428675634783006,,
,6177.0,1863.0,5827.0,1651.0,3015.0,2364.0,1072.0,,,,-0.0023915614456992,-2.12650919302124,0.0279512501491331,,-0.49218368119043326,,
,6175.0,1861.0,5826.0,1652.0,3008.0,2372.0,1077.0,,,,-0.002480287276806,-2.12670101615222,0.0277387184591662,,-0.012111021244512844,,
,6172.0,1862.0,5821.0,1653.0,3007.0,2381.0,1090.0,,,,-0.0026047060062659,-2.12727613861658,0.0279837748272293,,0.48694135745074774,,
,6169.0,1858.0,5816.0,1648.0,3000.0,2365.0,1101.0,,,,-0.0027174417889911,-2.12773127577785,0.0273226601113289,,0.9935962744386346,,
,6166.0,1857.0,5810.0,1649.0,3002.0,2373.0,1090.0,,,,-0.0027264909572449,-2.12823953379409,0.0270531720479628,,1.4958775107000708,,
,6159.0,1853.0,5808.0,1647.0,3005.0,2376.0,1071.0,,,,-0.0028111251866985,-2.12858655115094,0.0271652536867337,,1.9815554857524913,,
,6156.0,1852.0,5803.0,1647.0,3007.0,2375.0,1076.0,,,,-0.0028604272741107,-2.12889281827858,0.0271202009776438,,2.438467015388122,,
,6151.0,1848.0,5796.0,1643.0,3005.0,2365.0,1091.0,,,,-0.0029860549492329,-2.12899129640696,0.0268199024147167,,2.854819611061076,,
,6146.0,1847.0,5792.0,1639.0,3007.0,2349.0,1118.0,,,,-0.003121790170881,-2.12920908689979,0.0266629339185237,,3.2194975812393327,,
,6143.0,1848.0,5789.0,1640.0,2997.0,2363.0,1088.0,,,,-0.0030640638913957,-2.12952250178303,0.0269555966573876,,3.5223863206121107,,
,6140.0,1846.0,5788.0,1639.0,2995.0,2371.0,1089.0,,,,-0.0031106234460001,-2.12933201458376,0.0266339831371112,,3.7547232036118334,,
,6136.0,1845.0,5782.0,1638.0,2995.0,2360.0,1076.0,,,,-0.0030723096446115,-2.12958010978318,0.0270285367666479,,3.9094704068647537,,
,6135.0,1844.0,5776.0,1636.0,3007.0,2360.0,1082.0,,,,-0.0030488928388455,-2.12901643426624,0.0267618740343481,,3.9816896559363655,,
,6133.0,1842.0,5777.0,1635.0,3013.0,2373.0,1072.0,,,,-0.0029423534852807,-2.12868713031086,0.0268917187899627,,3.968884809974694,,
,6131.0,1841.0,5774.0,1633.0,3015.0,2372.0,1086.0,,,,-0.0027566992150985,-2.12823374038755,0.0268534613338643,,3.871268983604154,,
,6130.0,1841.0,5775.0,1633.0,3012.0,2377.0,1096.0,,,,-0.0025934079435604,-2.12794699517823,0.027806599908644,,3.6919115376094847,,
,6128.0,1840.0,5771.0,1629.0,3012.0,2386.0,1084.0,,,,-0.0025852340839856,-2.12739142041534,0.0279358099473646,,3.4367281082964154,,
,6126.0,1837.0,5772.0,1632.0,3015.0,2350.0,1066.0,,,,-0.0023132342962894,-2.1263793076798,0.0279715212609948,,3.1142928400447034,,
,6127.0,1841.0,5771.0,1631.0,3016.0,2368.0,1053.0,,,,-0.0022321063901068,-2.12550971232132,0.0282677907730341,,2.73547273324836,,
,6126.0,1841.0,5772.0,1631.0,3017.0,2383.0,1047.0,,,,-0.0020093680060193,-2.12559918898796,0.0286031500864786,,2.3129050594440583,,
,6124.0,1840.0,5769.0,1631.0,3007.0,2392.0,1057.0,,,,-0.0018803263236693,-2.12528265274615,0.0289119595620147,,1.8603563792503122,,
,6126.0,1840.0,5771.0,1629.0,3006.0,2371.0,1054.0,,,,-0.0019548022672434,-2.12508413306356,0.0289896566193875,,1.3920136281234934,,
,6129.0,1842.0,5772.0,1633.0,3011.0,2367.0,1069.0,,,,-0.0019541993042678,-2.12435459808065,0.0289790987865261,,0.9217630427146856,,
,6127.0,1838.0,5770.0,1631.0,3011.0,2354.0,1091.0,,,,-0.0018803665400074,-2.12444334766949,0.0289805326403228,,0.4625112936797398,,
,6126.0,1841.0,5769.0,1631.0,3013.0,2356.0,1087.0,,,,-0.0019699179727287,-2.12459731167083,0.0289606975443206,,0.025595958872492074,,
,6126.0,1840.0,5770.0,1629.0,3007.0,2369.0,1095.0,,,,-0.0018974156436887,-2.12548534877426,0.0285606994179145,,-0.3796787758541035,,
,6127.0,1841.0,5773.0,1631.0,3002.0,2348.0,1087.0,,,,-0.0021323602253226,-2.12566367008246,0.0283209441478016,,-0.7463583717584088,,
,6128.0,1844.0,5772.0,1631.0,3004.0,2353.0,1080.0,,,,-0.0020561386407403,-2.12631336495322,0.028506187813403,,-1.069996201308588,,
,6130.0,1844.0,5775.0,1631.0,3004.0,2364.0,1083.0,,,,-0.0021570031273448,-2.12553358454984,0.0287344991874851,,-1.3486549804546213,,
,6129.0,1840.0,5774.0,1630.0,3008.0,2381.0,1088.0,,,,-0.0021109995012014,-2.12589333684548,0.0287041003166913,,-1.5827610414762068,,
,6128.0,1843.0,5775.0,1630.0,3002.0,2388.0,1076.0,,,,-0.002192459147773,-2.12572054651165,0.0284815235561377,,-1.774827197408996,,
,6130.0,1843.0,5776.0,1629.0,3000.0,2391.0,1089.0,,,,-0.0021596534527888,-2.12610681866158,0.0281658977147491,,-1.929064575051597,,
,6128.0,1842.0,5775.0,1630.0,2999.0,2377.0,1083.0,,,,-0.0021373290092183,-2.12576490305478,0.0282382382070092,,-2.0509080420011,,
,6129.0,1843.0,5778.0,1632.0,2995.0,2361.0,1093.0,,,,-0.0022013747603601,-2.12606601140322,0.0284949914582726,,-2.1464841646190065,,
,6129.0,1839.0,5775.0,1628.0,3002.0,2385.0,1102.0,,,,-0.0023212108266349,-2.1252777650807,0.0287317908345424,,-2.22205469162763,,
,6130.0,1841.0,5779.0,1631.0,3007.0,2377.0,1103.0,,,,-0.0021536144322392,-2.12532612861077,0.0287636342369275,,-2.283471619404097,,
,6129.0,1843.0,5780.0,1630.0,3003.0,2361.0,1089.0,,,,-0.0021537992852995,-2.12550150862453,0.0282088361032296,,-2.3356811093089167,,
,6127.0,1842.0,5778.0,1629.0,3001.0,2364.0,1102.0,,,,-0.0020628922818414,-2.12486577301369,0.0288670459436126,,-2.3823121535541416,,
,6123.0,1841.0,5775.0,1627.0,3007.0,2367.0,1106.0,,,,-0.0021107978974673,-2.1253185353572,0.0285781231828185,,-2.425381480277705,,
,6126.0,1841.0,5774.0,1629.0,3011.0,2371.0,1095.0,,,,-0.0020137765424659,-2.12540514909143,0.0287200322594235,,-2.4651386569592186,,
,6126.0,1841.0,5778.0,1632.0,3006.0,2372.0,1082.0,,,,-0.0020652238268495,-2.12552416647839,0.0290406709133329,,-2.5000648468095283,,
,6126.0,1840.0,5777.0,1628.0,3008.0,2375.0,1074.0,,,,-0.0020212165612083,-2.12464692912048,0.0289622943379056,,-2.5270255982722785,,
,6122.0,1841.0,5775.0,1629.0,3009.0,2378.0,1083.0,,,,-0.0019867937627751,-2.12488140972575,0.028809241419511,,-2.541563417171724,,
,6123.0,1840.0,5774.0,1629.0,3006.0,2374.0,1063.0,,,,-0.0019673784365611,-2.12456775495912,0.0288331231860448,,-2.5383017297405384,,
,6125.0,1842.0,5775.0,1629.0,3008.0,2362.0,1069.0,,,,-0.0019904316311295,-2.12466382688371,0.0290384176688531,,-2.51142096158227,,
,6123.0,1844.0,5778.0,1628.0,3004.0,2366.0,1061.0,,,,-0.0019115210405859,-2.12494900951864,0.0289688055640584,,-2.4551621349507196,,
,6123.0,1840.0,5777.0,1627.0,3006.0,2362.0,1083.0,,,,-0.0019098328371806,-2.12558014998248,0.029021181745353,,-2.3643144275921992,,
,6124.0,1841.0,5778.0,1627.0,3002.0,2369.0,1087.0,,,,-0.0019532179357791,-2.1249784239543,0.0290501939323826,,-2.234649792091687,,
2025-07-01 22:03:23,6126.0,1841.0,5776.0,1626.0,3011.0,2366.0,1081.0,,,2025/07/01 10:03:23 PM,-0.0020346997924013,-2.12531601960771,0.0291834943702891,,-2.063278214593532,,
,6123.0,1841.0,5778.0,1627.0,3011.0,2372.0,1074.0,,,,-0.0020312950757932,-2.12548079607761,0.0289264261744232,,-1.8489091672197806,,
,6127.0,1841.0,5779.0,1629.0,3008.0,2349.0,1082.0,,,,-0.0021336441244455,-2.12548988108838,0.028988260438772,,-1.5920160014076326,,
,6124.0,1842.0,5781.0,1628.0,3013.0,2368.0,1087.0,,,,-0.0020219439394059,-2.12561475035372,0.0290672058513749,,-1.294908832801248,,
,6127.0,1843.0,5784.0,1631.0,3005.0,2373.0,1081.0,,,,-0.002111947804293,-2.1260483745415,0.0290703073524345,,-0.9617270651932742,,
,6130.0,1843.0,5785.0,1626.0,3003.0,2361.0,1096.0,,,,-0.0020925675354589,-2.12523865504186,0.0288216587049159,,-0.5983646412286909,,
,6129.0,1843.0,5787.0,1628.0,3004.0,2366.0,1096.0,,,,-0.0021867933428849,-2.12633189851137,0.0287707400452515,,-0.21233918190628978,,
,6130.0,1842.0,5784.0,1627.0,3008.0,2387.0,1097.0,,,,-0.0022592546413249,-2.12642355913276,0.0286172763672728,,0.18738894660170602,,
,6130.0,1844.0,5787.0,1630.0,3010.0,2362.0,1089.0,,,,-0.0022435137246866,-2.12567147547848,0.0286374085446949,,0.590647875825997,,
,6132.0,1844.0,5793.0,1630.0,3005.0,2341.0,1094.0,,,,-0.0023554490706699,-2.12554522748744,0.0286843336197837,,0.9863407240414694,,
,6129.0,1845.0,5793.0,1629.0,3002.0,2339.0,1090.0,,,,-0.0023164131589637,-2.12622241958597,0.0286734629832267,,1.3627934125733643,,
,6134.0,1845.0,5791.0,1631.0,3007.0,2373.0,1069.0,,,,-0.0024141219793317,-2.1258117347542,0.0288418972674093,,1.7081670199699723,,
,6133.0,1845.0,5795.0,1633.0,3012.0,2375.0,1084.0,,,,-0.002337985171729,-2.12633306551434,0.0286745376144697,,2.0109316417935412,,
,6134.0,1845.0,5797.0,1633.0,3006.0,2381.0,1082.0,,,,-0.0022355159668635,-2.12596509242953,0.0287131248009919,,2.2603900187835024,,
,6135.0,1850.0,5798.0,1633.0,3007.0,2388.0,1090.0,,,,-0.002345503912165,-2.12540030315276,0.0285773846789042,,2.4472288811865903,,
,6135.0,1846.0,5801.0,1633.0,3015.0,2375.0,1055.0,,,,-0.0022289706494334,-2.12539213940891,0.0286524366837593,,2.5640651143418167,,
,6139.0,1848.0,5803.0,1631.0,3011.0,2369.0,1061.0,,,,-0.00218330896774,-2.12522411813252,0.0290176383222348,,2.605944140440555,,
,6141.0,1848.0,5805.0,1633.0,3012.0,2384.0,1090.0,,,,-0.0021023553332836,-2.12466457643743,0.0290231359491927,,2.570741566839039,,
,6143.0,1851.0,5806.0,1635.0,3013.0,2384.0,1078.0,,,,-0.0020406959507783,-2.12414093706446,0.0293817803034947,,2.459418615771861,,
,6143.0,1850.0,5810.0,1632.0,3007.0,2374.0,1068.0,,,,-0.002060829149053,-2.1243037639046,0.0294508027948288,,2.2760891305753113,,
,6142.0,1849.0,5810.0,1632.0,3010.0,2368.0,1069.0,,,,-0.0019379352545491,-2.12418241953601,0.0295988666265127,,2.0278717288199406,,
,6143.0,1850.0,5810.0,1634.0,3017.0,2353.0,1114.0,,,,-0.0019766673638757,-2.1242713553772,0.0294820041332383,,1.7245234860678575,,
,6147.0,1851.0,5814.0,1635.0,3008.0,2366.0,1108.0,,,,-0.0020564887966797,-2.12512838245031,0.0290674393908126,,1.3778776930958123,,
,6146.0,1850.0,5816.0,1638.0,3000.0,2354.0,1101.0,,,,-0.0022209792186854,-2.12584331390692,0.0293490297440014,,1.00113269436527,,
,6149.0,1852.0,5817.0,1637.0,3005.0,2341.0,1099.0,,,,-0.0023347317661477,-2.12571416054672,0.0291408266833393,,0.6080566033857794,,
,6152.0,1854.0,5820.0,1637.0,3001.0,2354.0,1088.0,,,,-0.0023847874201377,-2.12651409275895,0.0289161821164101,,0.21218021963472516,,
,6155.0,1855.0,5822.0,1638.0,3006.0,2375.0,1088.0,,,,-0.0024926995107579,-2.12669387217105,0.028522583714106,,-0.17395335508576493,,
,6153.0,1856.0,5824.0,1638.0,3011.0,2382.0,1074.0,,,,-0.0026882066410909,-2.12744654368379,0.0287683292382148,,-0.5394272527115369,,
,6154.0,1854.0,5823.0,1636.0,3019.0,2381.0,1044.0,,,,-0.0027921815297983,-2.1279076698548,0.0283727457202821,,-0.8754412289501559,,
,6153.0,1855.0,5824.0,1638.0,3014.0,2375.0,1051.0,,,,-0.0028789044475774,-2.12786394584903,0.0281502830075917,,-1.1756373488336178,,
,6151.0,1857.0,5822.0,1638.0,3014.0,2370.0,1071.0,,,,-0.002983549555276,-2.12838611442108,0.0278410836826799,,-1.4362612129428445,,
,6149.0,1852.0,5817.0,1637.0,3013.0,2383.0,1081.0,,,,-0.0031062605838849,-2.12904123499973,0.0279540915105769,,-1.6561703777010623,,
,6145.0,1850.0,5813.0,1636.0,3003.0,2383.0,1075.0,,,,-0.0031461242682831,-2.12954417349908,0.0277961421400737,,-1.836706743024745,,
,6140.0,1846.0,5807.0,1634.0,3002.0,2389.0,1075.0,,,,-0.0032467204042456,-2.12918609548299,0.027692695741456,,-1.9814494003679857,,
,6136.0,1847.0,5803.0,1632.0,3005.0,2378.0,1057.0,,,,-0.0032624428501949,-2.12917493615366,0.0282222098428385,,-2.095861290793854,,
,6133.0,1843.0,5799.0,1631.0,3008.0,2372.0,1084.0,,,,-0.0032185977686394,-2.12955180448507,0.0279686172729968,,-2.1868401860649573,,
,6129.0,1843.0,5796.0,1629.0,3008.0,2392.0,1069.0,,,,-0.0032442575688927,-2.12919877356344,0.0275218370387067,,-2.2621843537514126,,
,6124.0,1838.0,5787.0,1623.0,3004.0,2359.0,1091.0,,,,-0.0032438532103563,-2.12927912033801,0.0275164738567583,,-2.3299866930527355,,
,6119.0,1836.0,5784.0,1625.0,2993.0,2321.0,1124.0,,,,-0.003320239227453,-2.1288072913146,0.0280607484554324,,-2.3979777939832303,,
,6117.0,1838.0,5781.0,1622.0,2997.0,2321.0,1100.0,,,,-0.0032487044475539,-2.12956453386276,0.0273763409218531,,-2.472847126249124,,
,6112.0,1835.0,5776.0,1622.0,3004.0,2335.0,1097.0,,,,-0.003239411783851,-2.12932691004294,0.0273970261568192,,-2.5595806670188392,,
,6108.0,1834.0,5773.0,1618.0,3004.0,2364.0,1078.0,,,,-0.0033048772288547,-2.12931858729762,0.027833726413263,,-2.6608607674495324,,
,6108.0,1833.0,5772.0,1618.0,3011.0,2370.0,1076.0,,,,-0.0032447179542554,-2.12862543576106,0.0278612193626146,,-2.776578242852891,,
,6108.0,1832.0,5767.0,1616.0,3011.0,2386.0,1073.0,,,,-0.0031950775944245,-2.12922267452551,0.0278437602276844,,-2.903506347440913,,
,6105.0,1832.0,5767.0,1615.0,3014.0,2391.0,1054.0,,,,-0.0031778242268914,-2.12938073877734,0.0276081510337286,,-3.0351807120369028,,
,6104.0,1830.0,5766.0,1614.0,3009.0,2378.0,1072.0,,,,-0.0032520582468413,-2.12896522413024,0.0275735866902031,,-3.162018297041295,,
,6104.0,1829.0,5766.0,1616.0,3010.0,2363.0,1065.0,,,,-0.0030855360327856,-2.12921870772685,0.0280543919104211,,-3.2716925708865445,,
,6102.0,1829.0,5763.0,1615.0,3011.0,2387.0,1064.0,,,,-0.0029632096417667,-2.12874212808728,0.0282818462355582,,-3.3497628027868593,,
,6102.0,1830.0,5766.0,1612.0,3012.0,2388.0,1078.0,,,,-0.0028730395213994,-2.12857103987922,0.0282440816034217,,-3.3805341028807776,,
,6103.0,1829.0,5762.0,1612.0,3014.0,2382.0,1072.0,,,,-0.0026855091765696,-2.12811007672769,0.028498976714829,,-3.348103101690926,,
,6100.0,1827.0,5762.0,1609.0,3018.0,2395.0,1069.0,,,,-0.0028464860474134,-2.12848874123017,0.0285564086892225,,-3.2375234501461936,,
,6101.0,1830.0,5765.0,1613.0,3015.0,2375.0,1073.0,,,,-0.0027754689647292,-2.12780565279701,0.0289132625021564,,-3.0360075077784536,,
,6099.0,1833.0,5764.0,1610.0,3010.0,2347.0,1073.0,,,,-0.0025460050048601,-2.1277122911128,0.0286891615630959,,-2.7340680233825236,,
,6102.0,1831.0,5763.0,1613.0,3005.0,2344.0,1088.0,,,,-0.0025936718453476,-2.12766886833156,0.0285969440747794,,-2.3264990657309905,,
,6099.0,1830.0,5762.0,1610.0,3006.0,2330.0,1095.0,,,,-0.0024981742269731,-2.12726648406312,0.0288363950651891,,-1.8131016180480488,,
,6099.0,1830.0,5764.0,1612.0,3010.0,2341.0,1087.0,,,,-0.0025130804752679,-2.12772044995376,0.0286449266899034,,-1.1990777262127397,,
,6103.0,1832.0,5767.0,1614.0,3008.0,2368.0,1083.0,,,,-0.0026159445772927,-2.1280674194102,0.0284142426914422,,-0.49504735792387916,,
,6102.0,1832.0,5766.0,1613.0,3007.0,2375.0,1091.0,,,,-0.0025758290175799,-2.12787101040691,0.0287829741131118,,0.28331916087203574,,
,6103.0,1833.0,5767.0,1613.0,3007.0,2365.0,1091.0,,,,-0.0025795475071248,-2.12801696792946,0.0283472418282876,,1.1160192963121867,,
,6101.0,1828.0,5767.0,1611.0,3004.0,2358.0,1078.0,,,,-0.002607929218288,-2.12826687354989,0.0284884777013537,,1.9797178883799067,,
,6103.0,1831.0,5768.0,1613.0,3007.0,2362.0,1090.0,,,,-0.0026485065606766,-2.1282385916194,0.0284551084762485,,2.848936362226811,,
,6103.0,1831.0,5769.0,1612.0,3006.0,2372.0,1104.0,,,,-0.0025962704427343,-2.12835442744345,0.0283502830740403,,3.6973328658595435,,
,6101.0,1832.0,5769.0,1611.0,3003.0,2383.0,1099.0,,,,-0.0026694640105858,-2.12816727172815,0.0282942696019336,,4.498981438487133,,
,6099.0,1830.0,5768.0,1610.0,3007.0,2370.0,1117.0,,,,-0.0026987224901565,-2.12844763690192,0.0281726927643945,,5.229573446049309,,
,6101.0,1833.0,5772.0,1613.0,3005.0,2376.0,1109.0,,,,-0.0027015298832482,-2.12814879214141,0.0285104762119003,,5.867482318282776,,
,6101.0,1832.0,5769.0,1611.0,3008.0,2382.0,1106.0,,,,-0.0026027697571453,-2.12839436128052,0.0283255441813888,,6.394649220227173,,
,6098.0,1831.0,5770.0,1611.0,3007.0,2392.0,1110.0,,,,-0.0025387149877393,-2.12808794826489,0.0286185862011092,,6.797260998702979,,
,6099.0,1831.0,5767.0,1610.0,2999.0,2379.0,1101.0,,,,-0.0026201288687772,-2.12808288263277,0.0285476296608106,,7.066202601062944,,
,6097.0,1832.0,5768.0,1610.0,3004.0,2378.0,1099.0,,,,-0.0024510731897869,-2.12801728589803,0.0287795748251139,,7.197275421868507,,
,6097.0,1831.0,5767.0,1611.0,3005.0,2364.0,1085.0,,,,-0.0023259364549951,-2.12744379146216,0.0285291019030399,,7.19118237847592,,
,6094.0,1831.0,5768.0,1609.0,3004.0,2364.0,1085.0,,,,-0.0024252101359304,-2.12718885349902,0.0286449993860473,,7.053290868284017,,
,6097.0,1831.0,5766.0,1607.0,3004.0,2355.0,1075.0,,,,-0.0024857393130396,-2.12662885233484,0.0285309483637477,,6.793195527315387,,
,6095.0,1829.0,5768.0,1610.0,3012.0,2371.0,1072.0,,,,-0.0024394304167568,-2.1269311810238,0.0288754680191999,,6.424112377104697,,
,6096.0,1831.0,5768.0,1608.0,3014.0,2368.0,1053.0,,,,-0.0024566561636585,-2.12689215201063,0.0286217661067865,,5.962143249680795,,
,6093.0,1831.0,5768.0,1610.0,3018.0,2342.0,1053.0,,,,-0.0024186764703698,-2.12658489772421,0.0288723019109729,,5.425453696613196,,
,6095.0,1831.0,5767.0,1610.0,3007.0,2344.0,1079.0,,,,-0.0023111656876025,-2.12639884227258,0.0286544666886933,,4.833408691889504,,
,6096.0,1829.0,5768.0,1609.0,3009.0,2371.0,1084.0,,,,-0.0023561918207364,-2.12671923938235,0.0287364620784612,,4.205708615228295,,
,6099.0,1831.0,5772.0,1609.0,3002.0,2380.0,1068.0,,,,-0.0023385735789854,-2.12670969931577,0.0284462531375181,,3.5615643044740946,,
,6097.0,1832.0,5769.0,1606.0,3011.0,2351.0,1070.0,,,,-0.0023231052501449,-2.12642261602754,0.0287433352239327,,2.918945665200084,,
,6097.0,1831.0,5771.0,1608.0,3016.0,2361.0,1080.0,,,,-0.0022638814530448,-2.12658267117626,0.0284597394397851,,2.2939339284655933,,
,6099.0,1828.0,5771.0,1610.0,3009.0,2386.0,1100.0,,,,-0.0022997518593906,-2.12662278146564,0.0284267085983365,,1.7002027268583926,,
,6098.0,1830.0,5774.0,1607.0,3005.0,2365.0,1100.0,,,,-0.0022911735144579,-2.12692242676565,0.0282721344321573,,1.1486470730765947,,
,6097.0,1830.0,5775.0,1609.0,3007.0,2369.0,1110.0,,,,-0.0023195889785102,-2.12683830434919,0.0283654329168521,,0.6471717866170863,,
,6100.0,1833.0,5774.0,1608.0,3006.0,2364.0,1115.0,,,,-0.0023293527064285,-2.12710677065058,0.0283596172621792,,0.20064207678500787,,
,6100.0,1832.0,5775.0,1609.0,3012.0,2390.0,1096.0,,,,-0.0023956249153875,-2.12731017931835,0.0283416328260085,,-0.18901052037721738,,
,6102.0,1834.0,5779.0,1611.0,3007.0,2373.0,1106.0,,,,-0.002398141920515,-2.12728870475262,0.0284701339982594,,-0.5225428459861072,,
,6104.0,1836.0,5780.0,1611.0,3005.0,2358.0,1094.0,,,,-0.0024552249423513,-2.12692865106383,0.0284303364332447,,-0.803039448078857,,
,6105.0,1836.0,5782.0,1611.0,3007.0,2360.0,1099.0,,,,-0.0022963505388508,-2.1266148539234,0.0282099472102873,,-1.0354668138687886,,
,6104.0,1835.0,5782.0,1610.0,3005.0,2356.0,1109.0,,,,-0.0022836452583569,-2.12659949311698,0.0284596498369238,,-1.226176867066599,,
,6104.0,1834.0,5784.0,1612.0,3004.0,2363.0,1073.0,,,,-0.0022758710228178,-2.12609552706031,0.0286199284393033,,-1.3823950655724309,,
,6108.0,1836.0,5787.0,1612.0,3004.0,2365.0,1087.0,,,,-0.0022756304762103,-2.12616416453219,0.0283257279489383,,-1.5117253966064228,,
,6109.0,1836.0,5788.0,1614.0,3003.0,2351.0,1091.0,,,,-0.0022718679399671,-2.12603799206223,0.0286715733695128,,-1.621697433470542,,
,6112.0,1838.0,5792.0,1615.0,3001.0,2362.0,1088.0,,,,-0.0023687835143547,-2.12615522810148,0.0282968466227222,,-1.7193704793482605,,
,6111.0,1840.0,5791.0,1612.0,3003.0,2388.0,1089.0,,,,-0.0023112477970333,-2.12629920023067,0.0281810577679032,,-1.8109988056687958,,
,6113.0,1840.0,5792.0,1614.0,3007.0,2383.0,1077.0,,,,-0.0024164361840124,-2.12642752469634,0.0283281964177277,,-1.9017529035066474,,
,6116.0,1842.0,5796.0,1614.0,3010.0,2378.0,1081.0,,,,-0.0023137328042268,-2.12598495670407,0.0281579492891115,,-1.9954871739813154,,
,6115.0,1840.0,5798.0,1615.0,3011.0,2369.0,1097.0,,,,-0.0023273310701516,-2.12573071351682,0.0280865050241057,,-2.0945458577014,,
,6116.0,1840.0,5800.0,1615.0,3012.0,2380.0,1066.0,,,,-0.0022916232936523,-2.12584543705326,0.0282548202075498,,-2.19960544698734,,
,6118.0,1840.0,5801.0,1617.0,3006.0,2369.0,1074.0,,,,-0.0024757312630167,-2.12593734802471,0.0281887830067169,,-2.309561052833389,,
,6120.0,1843.0,5805.0,1620.0,3015.0,2388.0,1087.0,,,,-0.0026039431515397,-2.12663618843969,0.0277730837837441,,-2.42147346886797,,
,6122.0,1842.0,5805.0,1617.0,3013.0,2382.0,1093.0,,,,-0.0026639745446363,-2.12692208380001,0.0276841125267634,,-2.530600373335724,,
,6123.0,1845.0,5808.0,1616.0,3020.0,2387.0,1105.0,,,,-0.0027932229306414,-2.12750474388906,0.0276687124211173,,-2.630537080483825,,
,6122.0,1846.0,5809.0,1619.0,3016.0,2364.0,1084.0,,,,-0.002921473628944,-2.12823025699206,0.0273969200480349,,-2.713488218805179,,
,6126.0,1848.0,5814.0,1620.0,3003.0,2343.0,1079.0,,,,-0.0030722890455388,-2.12907226645381,0.0274587342444163,,-2.7706815399567857,,
,6128.0,1846.0,5814.0,1618.0,3005.0,2331.0,1083.0,,,,-0.003064298391607,-2.12978356222204,0.0270321321715446,,-2.7929196594639327,,
,6128.0,1847.0,5815.0,1621.0,3021.0,2334.0,1064.0,,,,-0.0031497781789224,-2.12975569265146,0.0268282269945704,,-2.7712467540404804,,
,6129.0,1842.0,5816.0,1620.0,3023.0,2344.0,1080.0,,,,-0.0032318009083238,-2.13062690303951,0.0267402329807762,,-2.697687924827697,,
,6128.0,1848.0,5818.0,1623.0,3024.0,2363.0,1092.0,,,,-0.0035531206855953,-2.1310173516443,0.0266330126754633,,-2.566002558730533,,
,6128.0,1847.0,5815.0,1622.0,3015.0,2376.0,1085.0,,,,-0.0036220935623091,-2.13053979015856,0.0265315383361774,,-2.3723827727745403,,
,6125.0,1847.0,5812.0,1621.0,3015.0,2376.0,1079.0,,,,-0.0036314897959063,-2.13118633100702,0.0265255424701258,,-2.1160259724218053,,
,6120.0,1841.0,5809.0,1616.0,3012.0,2380.0,1077.0,,,,-0.0036109348907158,-2.13177842861807,0.0261845349047834,,-1.7995174614721878,,
,6116.0,1838.0,5804.0,1615.0,3009.0,2356.0,1093.0,,,,-0.0036932801242686,-2.13174921832378,0.0263620665753817,,-1.4289745700580325,,
,6113.0,1840.0,5800.0,1615.0,3012.0,2368.0,1090.0,,,,-0.0037973816456737,-2.13209771162747,0.0259521979162261,,-1.0139264939753816,,
,6109.0,1838.0,5793.0,1612.0,3009.0,2371.0,1100.0,,,,-0.0038129698992811,-2.13209346053386,0.0263712157871995,,-0.5669312447247389,,
,6103.0,1834.0,5788.0,1606.0,3006.0,2377.0,1104.0,,,,-0.0039610378663229,-2.13228969478324,0.0258799996119949,,-0.10295869764309373,,
,6100.0,1830.0,5785.0,1607.0,3003.0,2352.0,1106.0,,,,-0.0040592611868767,-2.13257088877905,0.0261139082388674,,0.36140816379706675,,
,6096.0,1830.0,5780.0,1604.0,3001.0,2365.0,1096.0,,,,-0.0038457452780993,-2.13264937163523,0.0257606586391218,,0.8088871471336827,,
,6093.0,1830.0,5776.0,1603.0,3000.0,2361.0,1090.0,,,,-0.0039678601006702,-2.1323525799095,0.0261617362378012,,1.2224547972572481,,
,6091.0,1826.0,5773.0,1600.0,2999.0,2367.0,1089.0,,,,-0.0037880482402429,-2.13224761981295,0.0262129815946376,,1.5862814996666095,,
,6086.0,1825.0,5770.0,1598.0,3004.0,2373.0,1106.0,,,,-0.0039009664066396,-2.13261085264194,0.0262659377392243,,1.8865862684264934,,
,6085.0,1825.0,5767.0,1599.0,3009.0,2372.0,1088.0,,,,-0.0038296286047823,-2.13143978709752,0.0262890116331559,,2.1123649490661873,,
,6083.0,1825.0,5767.0,1599.0,3013.0,2353.0,1080.0,,,,-0.0037101128799733,-2.13165006697655,0.0266246662041327,,2.2559563230480184,,
,6083.0,1826.0,5764.0,1596.0,3019.0,2340.0,1077.0,,,,-0.0035645093109131,-2.13118463955187,0.0270768611872995,,2.313419800931499,,
,6080.0,1821.0,5761.0,1594.0,3016.0,2365.0,1074.0,,,,-0.003465386017624,-2.13095042556022,0.0268378428025294,,2.284705766076517,,
,6080.0,1823.0,5762.0,1594.0,3011.0,2385.0,1055.0,,,,-0.0033340137334909,-2.13054261914219,0.0268064281705201,,2.173606032898714,,
,6082.0,1823.0,5764.0,1596.0,3013.0,2384.0,1043.0,,,,-0.003290037054747,-2.12973964170488,0.0273682402776283,,1.9874793878456827,,
,6078.0,1824.0,5761.0,1595.0,3017.0,2388.0,1030.0,,,,-0.0031739350281433,-2.12963685660935,0.0272511347108004,,1.7367581637237086,,
,6078.0,1821.0,5760.0,1593.0,3010.0,2383.0,1057.0,,,,-0.0031710977908708,-2.13013119804593,0.0275743060737239,,1.4342574512624193,,
2025-07-01 22:03:24,6079.0,1823.0,5762.0,1591.0,3015.0,2388.0,1073.0,,,2025/07/01 10:03:24 PM,-0.0030801371821752,-2.12992094376629,0.0273667341683369,,1.0943278489290482,,
,6080.0,1822.0,5761.0,1593.0,3005.0,2382.0,1069.0,,,,-0.0030114247223736,-2.12995743899763,0.027807507979358,,0.7319122659372255,,
,6078.0,1824.0,5762.0,1595.0,3004.0,2375.0,1067.0,,,,-0.0030620157607307,-2.12997917585242,0.0274428309817646,,0.36158247894320567,,
,6075.0,1823.0,5760.0,1592.0,3003.0,2363.0,1095.0,,,,-0.0031144795693907,-2.1301672324816,0.0272198128691402,,-0.0033625969325922762,,
,6079.0,1822.0,5760.0,1591.0,3005.0,2362.0,1087.0,,,,-0.0032461722767905,-2.13001715440752,0.0272907105386939,,-0.3516599832257545,,
,6080.0,1824.0,5762.0,1592.0,3002.0,2350.0,1099.0,,,,-0.0032429027923695,-2.12974160879879,0.0272422148923641,,-0.6746456032491313,,
,6084.0,1825.0,5764.0,1594.0,3005.0,2334.0,1093.0,,,,-0.0032768634251717,-2.13042855619517,0.0272134775133731,,-0.9665782251342161,,
,6080.0,1825.0,5761.0,1594.0,3006.0,2343.0,1090.0,,,,-0.0032677058434099,-2.13047544034315,0.0266732567603681,,-1.2247107487635005,,
,6080.0,1824.0,5766.0,1592.0,3005.0,2369.0,1089.0,,,,-0.0034369729497896,-2.13060329419681,0.0268458076469104,,-1.4491193868471892,,
,6082.0,1824.0,5766.0,1594.0,3003.0,2382.0,1074.0,,,,-0.0034871072498521,-2.13108370657319,0.026743282057379,,-1.6423216575487,,
,6085.0,1827.0,5766.0,1596.0,3009.0,2402.0,1103.0,,,,-0.003344199532389,-2.13130611153505,0.0266879017208107,,-1.808729149874586,,
,6084.0,1824.0,5768.0,1593.0,3008.0,2387.0,1100.0,,,,-0.0035085034356815,-2.1313020293162,0.0268282708555425,,-1.9539903535878425,,
,6080.0,1823.0,5767.0,1594.0,2995.0,2371.0,1111.0,,,,-0.0035321628394049,-2.1314756881746,0.0267111112659511,,-2.0842828002594653,,
,6083.0,1825.0,5769.0,1593.0,2999.0,2369.0,1110.0,,,,-0.0034532195751997,-2.1309897947552,0.0268712328416159,,-2.2056128687062664,,
,6085.0,1826.0,5769.0,1596.0,3003.0,2347.0,1095.0,,,,-0.0034771224213346,-2.13128775024732,0.026908917923839,,-2.32317631829965,,
,6084.0,1826.0,5765.0,1596.0,2999.0,2349.0,1097.0,,,,-0.0035327134207954,-2.13148523557281,0.0267506246827339,,-2.440823510202005,,
,6083.0,1825.0,5769.0,1592.0,3006.0,2354.0,1099.0,,,,-0.0035261063704297,-2.13150309854775,0.0267982648024846,,-2.5606614959573064,,
,6081.0,1824.0,5766.0,1592.0,3007.0,2368.0,1107.0,,,,-0.0034504313001429,-2.13106810718776,0.0266996449832177,,-2.682812429754949,,
,6080.0,1827.0,5766.0,1591.0,3011.0,2355.0,1082.0,,,,-0.003405027093372,-2.13123812957096,0.0265026957227227,,-2.8053357831053316,,
,6081.0,1823.0,5766.0,1592.0,3015.0,2350.0,1095.0,,,,-0.0033747960891817,-2.13101903034331,0.0264530106504563,,-2.9243115140796987,,
,6081.0,1823.0,5766.0,1593.0,3013.0,2368.0,1096.0,,,,-0.003537487887578,-2.13138459496188,0.0265291701922493,,-3.034072754849737,,
,6080.0,1822.0,5765.0,1591.0,3011.0,2386.0,1082.0,,,,-0.0035186096478808,-2.13156455777925,0.0266116058995953,,-3.1275694859575625,,
,6079.0,1824.0,5767.0,1592.0,3014.0,2399.0,1096.0,,,,-0.0035220474634231,-2.13144864524945,0.0266626942143287,,-3.1968387855367695,,
,6080.0,1825.0,5766.0,1590.0,3017.0,2385.0,1100.0,,,,-0.0034952706940847,-2.13144333783266,0.0262274107514756,,-3.233552271388069,,
,6081.0,1828.0,5766.0,1593.0,3012.0,2396.0,1094.0,,,,-0.0034622366277718,-2.13131801280111,0.0263699007990141,,-3.229607023421374,,
,6081.0,1825.0,5766.0,1591.0,3006.0,2379.0,1084.0,,,,-0.0035170094015963,-2.13137236495854,0.0261756764271362,,-3.1777225097807347,,
,6081.0,1825.0,5770.0,1592.0,3012.0,2371.0,1089.0,,,,-0.0035204398107693,-2.13162055940097,0.0262936718452135,,-3.072003039725138,,
,6082.0,1825.0,5770.0,1592.0,3010.0,2384.0,1074.0,,,,-0.0035214191172062,-2.13125254358861,0.0260261030299779,,-2.9084235260742006,,
,6082.0,1826.0,5770.0,1593.0,3010.0,2370.0,1096.0,,,,-0.0034680810153356,-2.13104549516553,0.0262087966673971,,-2.685196775210382,,
,6082.0,1824.0,5769.0,1590.0,3009.0,2376.0,1086.0,,,,-0.0035008182054649,-2.13099775260845,0.0264307951048579,,-2.4029846064846963,,
,6082.0,1824.0,5773.0,1591.0,3006.0,2367.0,1086.0,,,,-0.0033334073608074,-2.1303309513615,0.0264757364973939,,-2.0649246414411184,,
,6081.0,1826.0,5773.0,1592.0,3007.0,2366.0,1088.0,,,,-0.0033759907151486,-2.13032248270097,0.0265365332520586,,-1.6764607385618853,,
,6085.0,1826.0,5775.0,1593.0,3010.0,2375.0,1079.0,,,,-0.003409947845181,-2.1302504050317,0.0266730083607915,,-1.2449868493942708,,
,6087.0,1828.0,5775.0,1594.0,3012.0,2367.0,1070.0,,,,-0.0033208545147985,-2.13001620959259,0.0265544834286944,,-0.7793380307619953,,
,6089.0,1827.0,5776.0,1594.0,3006.0,2362.0,1083.0,,,,-0.0033299126219595,-2.13069595739681,0.0263693846410761,,-0.2891835649277076,,
,6087.0,1827.0,5777.0,1593.0,3010.0,2369.0,1072.0,,,,-0.0033414484444958,-2.13100727486911,0.0261695575099877,,0.2156087490430425,,
,6091.0,1829.0,5780.0,1595.0,3004.0,2359.0,1069.0,,,,-0.0032291441988535,-2.13081378878506,0.0263401566957824,,0.7255635955418471,,
,6089.0,1829.0,5781.0,1595.0,3008.0,2356.0,1074.0,,,,-0.0032795679614081,-2.13076853973301,0.0264081830887165,,1.232076435447113,,
,6089.0,1831.0,5781.0,1597.0,3012.0,2358.0,1092.0,,,,-0.0032423715805426,-2.13054954388981,0.0262215686806491,,1.727725248016364,,
,6093.0,1830.0,5784.0,1595.0,3009.0,2352.0,1079.0,,,,-0.0031559141477294,-2.13056861903435,0.0263474331253362,,2.2063824806752037,,
,6093.0,1832.0,5787.0,1595.0,3002.0,2352.0,1099.0,,,,-0.0031576872698902,-2.13100470933221,0.0266626600234534,,2.663119153084538,,
,6095.0,1832.0,5788.0,1596.0,3005.0,2370.0,1093.0,,,,-0.0032501320401423,-2.13042303522112,0.0261714906177858,,3.093921290757642,,
,6097.0,1832.0,5788.0,1596.0,3003.0,2369.0,1081.0,,,,-0.0031114287650203,-2.1299257350089,0.0268962474876089,,3.4952676617958605,,
,6097.0,1830.0,5789.0,1596.0,3008.0,2373.0,1070.0,,,,-0.0030496295261297,-2.12967778239864,0.0269581329247469,,3.863642723997571,,
,6102.0,1831.0,5790.0,1599.0,3010.0,2378.0,1066.0,,,,-0.0029342811906883,-2.12904202696562,0.0271934760484217,,4.195074034049246,,
,6101.0,1836.0,5795.0,1599.0,3011.0,2341.0,1072.0,,,,-0.0028591911506809,-2.12904563920467,0.0270246105148958,,4.484784353744003,,
,6101.0,1836.0,5795.0,1599.0,3001.0,2326.0,1058.0,,,,-0.0027528796957692,-2.12870282851936,0.027322561575783,,4.727033765972685,,
,6102.0,1835.0,5797.0,1598.0,3004.0,2351.0,1069.0,,,,-0.00273612358714,-2.12876368609883,0.0271674470660831,,4.915198642621143,,
,6102.0,1838.0,5800.0,1599.0,3009.0,2356.0,1084.0,,,,-0.0027779688238648,-2.12908124405673,0.0269823438735149,,5.042097413230586,,
,6107.0,1835.0,5800.0,1601.0,3014.0,2368.0,1085.0,,,,-0.0029147698095992,-2.12955017144186,0.0272542522923084,,5.10053407012697,,
,6108.0,1838.0,5802.0,1600.0,3013.0,2363.0,1096.0,,,,-0.0029013168939927,-2.12984363094221,0.0266456755968906,,5.083995628333043,,
,6108.0,1837.0,5804.0,1602.0,3003.0,2363.0,1085.0,,,,-0.0028473256555288,-2.13078764442742,0.0270109680083712,,4.987414937393845,,
,6111.0,1838.0,5809.0,1599.0,3002.0,2376.0,1107.0,,,,-0.0029345441238849,-2.13089965434177,0.0266740068187101,,4.807898995765613,,
,6115.0,1839.0,5810.0,1603.0,3010.0,2401.0,1092.0,,,,-0.0029593564293993,-2.13064201499475,0.0271473200374955,,4.545326362301585,,
,6117.0,1840.0,5811.0,1603.0,3013.0,2400.0,1088.0,,,,-0.0030369373545999,-2.13119644403342,0.0268998834591553,,4.202734171277632,,
,6116.0,1843.0,5813.0,1604.0,3020.0,2382.0,1070.0,,,,-0.0029909754686009,-2.13172988486224,0.0267632843944904,,3.7864426076616655,,
,6113.0,1840.0,5812.0,1604.0,3017.0,2376.0,1070.0,,,,-0.0030286724460976,-2.13159624562981,0.0267372099357261,,3.305897977206585,,
,6115.0,1841.0,5813.0,1603.0,3015.0,2373.0,1097.0,,,,-0.0031458536813827,-2.13129433719414,0.0270052303425744,,2.7732492560016664,,
,6115.0,1840.0,5812.0,1604.0,3013.0,2370.0,1094.0,,,,-0.0032583011826025,-2.13222866767093,0.0266250366856548,,2.202702121522928,,
,6109.0,1838.0,5807.0,1602.0,3012.0,2366.0,1077.0,,,,-0.0033192632503952,-2.13252199573132,0.0267557281379235,,1.6097155845706672,,
,6105.0,1836.0,5800.0,1600.0,3008.0,2356.0,1095.0,,,,-0.0032398318031754,-2.13297386833955,0.0265715767726037,,1.0101180284080424,,
,6103.0,1834.0,5799.0,1598.0,3003.0,2355.0,1094.0,,,,-0.0034002182751368,-2.13276015377119,0.0263433573488836,,0.4192214393169061,,
,6099.0,1830.0,5793.0,1594.0,3001.0,2372.0,1108.0,,,,-0.0034807257638751,-2.13298071526912,0.0263009349566269,,-0.1489945126592424,,
,6094.0,1829.0,5788.0,1595.0,3005.0,2364.0,1111.0,,,,-0.0035050212764049,-2.13341523132083,0.0263116492999636,,-0.6825711345029556,,
,6089.0,1828.0,5782.0,1590.0,3002.0,2367.0,1102.0,,,,-0.0035669249605194,-2.13372385056725,0.0259681528855111,,-1.1720927986771725,,
,6086.0,1825.0,5777.0,1588.0,3004.0,2377.0,1109.0,,,,-0.0037011101716293,-2.13380961284244,0.0258910128507194,,-1.6110215351386588,,
,6085.0,1826.0,5775.0,1591.0,3001.0,2368.0,1113.0,,,,-0.0036362144162196,-2.13368055010812,0.0259334076487158,,-1.9958391199486851,,
,6081.0,1823.0,5772.0,1585.0,3003.0,2370.0,1106.0,,,,-0.0036584590654308,-2.13368859473777,0.0257844486103689,,-2.3260036281198118,,
,6080.0,1821.0,5770.0,1585.0,3008.0,2358.0,1098.0,,,,-0.0036959033645347,-2.13332689063116,0.0260030955689958,,-2.6037354087713966,,
,6077.0,1822.0,5762.0,1584.0,3006.0,2367.0,1094.0,,,,-0.0035013180404872,-2.13335077761142,0.02642953728989,,-2.833652607337895,,
,6077.0,1821.0,5763.0,1583.0,3011.0,2344.0,1080.0,,,,-0.0035194782744175,-2.1330731709861,0.0260018447151309,,-3.022280389960561,,
,6073.0,1823.0,5762.0,1581.0,3014.0,2309.0,1068.0,,,,-0.0033953992236134,-2.13299322392131,0.0263170251038276,,-3.1774621552181914,,
,6074.0,1817.0,5758.0,1580.0,3013.0,2319.0,1083.0,,,,-0.0034561960646325,-2.13312825689813,0.026486928628062,,-3.307705384445379,,
,6072.0,1820.0,5756.0,1580.0,3016.0,2353.0,1090.0,,,,-0.0032958423829852,-2.1328991676994,0.0265104985601137,,-3.4214987093022735,,
,6072.0,1822.0,5759.0,1579.0,3013.0,2366.0,1075.0,,,,-0.0031781010269322,-2.13274655068113,0.0266209135953183,,-3.526639563869616,,
,6070.0,1820.0,5758.0,1581.0,3015.0,2388.0,1073.0,,,,-0.0031399051259532,-2.13224386963903,0.026722180901217,,-3.629613011320061,,
,6072.0,1818.0,5757.0,1578.0,3016.0,2402.0,1071.0,,,,-0.0031994819238605,-2.13270934567496,0.0264718966320356,,-3.7350615815372623,,
,6068.0,1818.0,5756.0,1578.0,3017.0,2421.0,1061.0,,,,-0.0031812693838397,-2.1329700013801,0.0265937534496458,,-3.845382723586284,,
,6071.0,1820.0,5759.0,1576.0,3010.0,2401.0,1072.0,,,,-0.003236309506737,-2.13288517964836,0.0266420288685662,,-3.960484425109974,,
,6074.0,1819.0,5760.0,1579.0,3008.0,2382.0,1098.0,,,,-0.0032476568564951,-2.13269393769405,0.0268451752979352,,-4.077720677726642,,
,6074.0,1819.0,5758.0,1579.0,3007.0,2355.0,1108.0,,,,-0.0031951808257207,-2.13235044770111,0.0266205032885346,,-4.192016995378575,,
,6075.0,1821.0,5760.0,1580.0,3004.0,2314.0,1090.0,,,,-0.0031560455622843,-2.13301203781699,0.0265827328742518,,-4.296182543840261,,
,6072.0,1819.0,5759.0,1582.0,3001.0,2337.0,1121.0,,,,-0.0032250089097227,-2.13251525823472,0.0270089304434612,,-4.3813905684583405,,
,6074.0,1820.0,5763.0,1580.0,3001.0,2341.0,1072.0,,,,-0.0031628859142785,-2.13273730501484,0.0270923058346117,,-4.4377943265602795,,
,6076.0,1826.0,5762.0,1581.0,3012.0,2361.0,1101.0,,,,-0.0031375317573023,-2.13257372289069,0.026481067033107,,-4.4552332989471415,,
,6078.0,1823.0,5764.0,1581.0,3014.0,2373.0,1121.0,,,,-0.0031309770733972,-2.13265439970131,0.0269812026263496,,-4.423975086375133,,
,6077.0,1821.0,5764.0,1579.0,3014.0,2369.0,1124.0,,,,-0.0032195572554625,-2.13249991512461,0.0268795473612969,,-4.33543260790722,,
,6077.0,1823.0,5766.0,1579.0,3005.0,2347.0,1114.0,,,,-0.0030873486691561,-2.13298856929921,0.0267505546070205,,-4.182794627413988,,
,6079.0,1823.0,5768.0,1583.0,3004.0,2361.0,1114.0,,,,-0.0031795813309982,-2.13319890339645,0.026602826178301,,-3.9615111542880035,,
,6078.0,1823.0,5769.0,1581.0,3008.0,2356.0,1109.0,,,,-0.0031988380953562,-2.13261025624082,0.0268586209304191,,-3.669584922058474,,
,6079.0,1823.0,5764.0,1578.0,3007.0,2378.0,1094.0,,,,-0.0031757661408229,-2.13255949599303,0.0269172234873137,,-3.3076369859917967,,
,6075.0,1823.0,5767.0,1581.0,3009.0,2360.0,1084.0,,,,-0.0031765384323938,-2.13259097234262,0.0266722503986152,,-2.8787392847389626,,
,6079.0,1825.0,5765.0,1579.0,3010.0,2380.0,1112.0,,,,-0.0031174672195912,-2.13254570644252,0.026893448591175,,-2.3880391622343597,,
,6078.0,1822.0,5766.0,1581.0,3010.0,2387.0,1125.0,,,,-0.0030330156218525,-2.13274819040366,0.0269027755333713,,-1.8422362799926635,,
,6078.0,1822.0,5765.0,1580.0,3002.0,2355.0,1149.0,,,,-0.0032163967150587,-2.13224612562162,0.026738968769204,,-1.2490024449253383,,
,6078.0,1825.0,5764.0,1580.0,3009.0,2379.0,1122.0,,,,-0.003156127739961,-2.13225953530303,0.0270430544165901,,-0.6164489870046008,,
,6079.0,1822.0,5768.0,1580.0,3008.0,2399.0,1090.0,,,,-0.0029869839191493,-2.13259020196028,0.0270096929914607,,0.047262445373668575,,
,6077.0,1822.0,5767.0,1579.0,3007.0,2392.0,1097.0,,,,-0.0030588732925887,-2.13259893822354,0.0270081202875947,,0.7341004582793232,,
,6076.0,1819.0,5763.0,1580.0,3004.0,2377.0,1128.0,,,,-0.0030053977425384,-2.13236654202592,0.0271924099396727,,1.4361154342402167,,
,6073.0,1822.0,5762.0,1580.0,3007.0,2387.0,1110.0,,,,-0.0030052779250405,-2.13240337687653,0.0269262245182638,,2.1451901428776536,,
,6079.0,1823.0,5767.0,1581.0,3008.0,2367.0,1114.0,,,,-0.0030862856791799,-2.13208697417115,0.0272271066211555,,2.85266012346608,,
,6078.0,1825.0,5767.0,1580.0,3009.0,2350.0,1106.0,,,,-0.0031013804937235,-2.1320160168408,0.027283029484755,,3.5489033765917144,,
,6077.0,1823.0,5766.0,1579.0,3010.0,2354.0,1112.0,,,,-0.0028833362943528,-2.1320291293733,0.0267937763279315,,4.223009215406632,,
,6075.0,1820.0,5766.0,1578.0,3009.0,2356.0,1096.0,,,,-0.0030379217747434,-2.13223061208244,0.0272134058236602,,4.862626141545339,,
,6076.0,1822.0,5764.0,1579.0,3007.0,2357.0,1070.0,,,,-0.0030956414690171,-2.13226370019656,0.0270278117648197,,5.454059662508817,,
,6081.0,1822.0,5768.0,1577.0,3009.0,2372.0,1078.0,,,,-0.0031213994653416,-2.13254210354964,0.0270943100833177,,5.9826478617417695,,
,6079.0,1823.0,5766.0,1581.0,3011.0,2365.0,1079.0,,,,-0.002976628867382,-2.13252240481503,0.0271507457101968,,6.433393999784682,,
,6081.0,1822.0,5769.0,1578.0,3008.0,2370.0,1086.0,,,,-0.0031137751052004,-2.13301635841425,0.0270615138950175,,6.791792648006338,,
,6080.0,1824.0,5769.0,1581.0,3010.0,2356.0,1109.0,,,,-0.003151219344401,-2.13294492435408,0.0268382986693423,,7.044758204998567,,
,6081.0,1825.0,5774.0,1583.0,3014.0,2364.0,1083.0,,,,-0.0031656982892313,-2.13308904706999,0.0270536226083306,,7.1815555558262885,,
,6085.0,1826.0,5773.0,1581.0,3008.0,2356.0,1079.0,,,,-0.0032496251188964,-2.1329107405534,0.0270349766390529,,7.194639269513885,,
,6084.0,1824.0,5773.0,1580.0,3000.0,2354.0,1105.0,,,,-0.0031905000495111,-2.13323753507209,0.0267687316040371,,7.080324108426096,,
,6084.0,1825.0,5776.0,1582.0,3003.0,2347.0,1104.0,,,,-0.0032112446799871,-2.1336343402042,0.0267678324031,,6.83923006356104,,
,6088.0,1829.0,5776.0,1584.0,3007.0,2365.0,1071.0,,,,-0.0032732370117879,-2.13333982534957,0.0268649939544034,,6.476466037429596,,
,6090.0,1830.0,5778.0,1582.0,3008.0,2358.0,1088.0,,,,-0.0032178762460543,-2.13325761172548,0.0271691885099889,,6.001536340976709,,
,6088.0,1828.0,5780.0,1584.0,3007.0,2357.0,1094.0,,,,-0.0032451947691007,-2.13296094214392,0.0270675048657876,,5.4279734712033,,
,6092.0,1826.0,5783.0,1583.0,3009.0,2366.0,1096.0,,,,-0.0032434592721344,-2.13313896732472,0.0269191056154933,,4.77271952606856,,
,6093.0,1829.0,5784.0,1585.0,3008.0,2342.0,1105.0,,,,-0.0031651146639085,-2.13267103273199,0.0269572087402668,,4.055296752977393,,
,6093.0,1830.0,5786.0,1585.0,3007.0,2358.0,1103.0,,,,-0.0031230834465372,-2.13282520800292,0.0273901655466016,,3.2968239924535347,,
,6093.0,1831.0,5790.0,1583.0,3006.0,2351.0,1109.0,,,,-0.003011051806288,-2.13248587988369,0.0274021367173889,,2.5189485408355625,,
,6096.0,1831.0,5791.0,1583.0,3016.0,2355.0,1122.0,,,,-0.0028860047514814,-2.13233511043151,0.0273238229192707,,1.742770305491152,,
,6099.0,1833.0,5792.0,1587.0,3019.0,2355.0,1121.0,,,,-0.0029043116634809,-2.13254086809913,0.0273679121868248,,0.9878352810629757,,
,6099.0,1834.0,5792.0,1589.0,3018.0,2340.0,1087.0,,,,-0.0029158141946662,-2.13242649816999,0.0277317604984673,,0.2712675020245729,,
,6098.0,1833.0,5795.0,1590.0,3015.0,2354.0,1069.0,,,,-0.0029474749495237,-2.13242003055259,0.0276685233826672,,-0.39290643892752736,,
,6105.0,1833.0,5795.0,1588.0,3019.0,2356.0,1075.0,,,,-0.0032793312458414,-2.13262417827127,0.027509951538551,,-0.9942060053678395,,
,6101.0,1834.0,5797.0,1587.0,3013.0,2370.0,1076.0,,,,-0.0031346184269151,-2.13364696967182,0.0273299445160145,,-1.5259053964853728,,
,6106.0,1836.0,5798.0,1590.0,3016.0,2349.0,1096.0,,,,-0.0032930801058618,-2.13401396079921,0.0271981656984031,,-1.9850088707023597,,
,6107.0,1834.0,5802.0,1591.0,3006.0,2348.0,1112.0,,,,-0.003411237361412,-2.13498793610476,0.0267488189544588,,-2.3720151536323346,,
2025-07-01 22:03:25,6108.0,1837.0,5802.0,1592.0,3005.0,2357.0,1108.0,,,2025/07/01 10:03:25 PM,-0.003491373320653,-2.13529046341616,0.0267122920892237,,-2.690504129717576,,
,6110.0,1839.0,5805.0,1593.0,3007.0,2360.0,1087.0,,,,-0.0036898977411195,-2.13594063530883,0.0262618186099686,,-2.9465844171482964,,
,6112.0,1840.0,5809.0,1593.0,3006.0,2367.0,1076.0,,,,-0.0039154259067019,-2.13622236768291,0.0264235130971169,,-3.1482415596257165,,
,6112.0,1840.0,5809.0,1592.0,3012.0,2358.0,1102.0,,,,-0.0039987429762375,-2.13695339972297,0.0258312102320114,,-3.304625485318387,,
,6115.0,1838.0,5810.0,1594.0,3012.0,2373.0,1096.0,,,,-0.0041000601247162,-2.13690532836898,0.0259757155123783,,-3.4253145047891453,,
,6114.0,1840.0,5813.0,1593.0,3014.0,2379.0,1083.0,,,,-0.0041813233048781,-2.1377031813451,0.0259416871136457,,-3.519592400733066,,
,6113.0,1838.0,5809.0,1593.0,3013.0,2359.0,1083.0,,,,-0.0041947678944205,-2.13729281804281,0.025844660693912,,-3.595774984130009,,
,6110.0,1839.0,5806.0,1592.0,3012.0,2349.0,1072.0,,,,-0.0043530773101495,-2.13772477940452,0.0258758316184266,,-3.660622109611959,,
,6110.0,1837.0,5804.0,1591.0,3013.0,2368.0,1074.0,,,,-0.0044055451772943,-2.1383897154857,0.0256915027215613,,-3.7188697523723095,,
,6107.0,1836.0,5801.0,1589.0,3006.0,2351.0,1110.0,,,,-0.0044142841301497,-2.13845231513316,0.0252526607711902,,-3.7729136800504066,,
,6099.0,1830.0,5793.0,1585.0,3006.0,2363.0,1095.0,,,,-0.0044110374490791,-2.13836708075307,0.0254345305516154,,-3.8226708202836983,,
,6099.0,1832.0,5789.0,1587.0,3006.0,2326.0,1116.0,,,,-0.0044117380735987,-2.13903022971268,0.0252674136983963,,-3.8656359322854956,,
,6094.0,1829.0,5788.0,1583.0,3007.0,2349.0,1120.0,,,,-0.0045185322316193,-2.13819486070482,0.0252348681326299,,-3.897139238615795,,
,6092.0,1826.0,5783.0,1582.0,3006.0,2344.0,1115.0,,,,-0.004270179413932,-2.13821974730121,0.0255223244991521,,-3.9107954065543855,,
,6088.0,1828.0,5774.0,1578.0,3003.0,2352.0,1128.0,,,,-0.0042999352351833,-2.13797366575683,0.0253894580686868,,-3.899116437813792,,
,6084.0,1822.0,5770.0,1576.0,2998.0,2356.0,1120.0,,,,-0.0042641405154767,-2.13788547741272,0.0255268202219734,,-3.8542421418404107,,
,6080.0,1824.0,5767.0,1577.0,3003.0,2376.0,1093.0,,,,-0.0041623043251227,-2.13785759186882,0.0259359708551646,,-3.7687244929215162,,
,6077.0,1822.0,5765.0,1575.0,3004.0,2374.0,1098.0,,,,-0.0040414937330522,-2.1371708111031,0.0258762608227947,,-3.636289794566179,,
,6074.0,1820.0,5763.0,1571.0,3008.0,2367.0,1093.0,,,,-0.004124167754608,-2.13718649584756,0.0265373024942611,,-3.4524987166199983,,
,6076.0,1818.0,5760.0,1573.0,3010.0,2356.0,1097.0,,,,-0.0040552586994906,-2.13682743903048,0.0259479521539842,,-3.2152313295878767,,
,6074.0,1819.0,5758.0,1573.0,3010.0,2343.0,1092.0,,,,-0.0038296621973864,-2.13611166543723,0.0265784732170771,,-2.924942816625632,,
,6071.0,1818.0,5754.0,1572.0,3012.0,2337.0,1085.0,,,,-0.0036840048462079,-2.13624320546941,0.026732829240233,,-2.5846640801578653,,
,6073.0,1819.0,5757.0,1572.0,3016.0,2336.0,1085.0,,,,-0.0035886148932812,-2.13542408952398,0.0270262837456881,,-2.199756154710537,,
,6071.0,1818.0,5754.0,1572.0,3011.0,2368.0,1074.0,,,,-0.0035488004177315,-2.13500847863393,0.0266198397318386,,-1.7774621434627473,,
,6071.0,1818.0,5752.0,1571.0,3010.0,2390.0,1056.0,,,,-0.003468162636841,-2.13497104805046,0.0269666291497047,,-1.326328054864824,,
,6071.0,1816.0,5753.0,1572.0,3014.0,2378.0,1090.0,,,,-0.003433469606561,-2.1348939688207,0.0268662921118554,,-0.8555780289158287,,
,6073.0,1820.0,5757.0,1570.0,3014.0,2378.0,1082.0,,,,-0.0033248138180043,-2.1343725030089,0.0269653759454759,,-0.37452675902418125,,
,6073.0,1818.0,5753.0,1569.0,3008.0,2379.0,1054.0,,,,-0.0033674563122517,-2.13459443199916,0.0273069266692734,,0.10790622640139194,,
,6073.0,1821.0,5753.0,1568.0,3010.0,2361.0,1067.0,,,,-0.0032917511175979,-2.13470134449107,0.0271698983566257,,0.5835433996504672,,
,6072.0,1818.0,5754.0,1570.0,3009.0,2348.0,1064.0,,,,-0.0034169608894321,-2.13480171312178,0.026890271297726,,1.045148649154839,,
,6077.0,1817.0,5757.0,1570.0,3007.0,2359.0,1079.0,,,,-0.0032695544343686,-2.1347935352578,0.027285548563433,,1.4864927249704811,,
,6074.0,1820.0,5755.0,1569.0,3002.0,2335.0,1104.0,,,,-0.003368986420927,-2.13486943416991,0.0270798907694048,,1.902311414018435,,
,6076.0,1821.0,5759.0,1570.0,3004.0,2362.0,1087.0,,,,-0.0032247895014819,-2.13521037814732,0.0270829615362286,,2.2881902481139003,,
,6081.0,1820.0,5762.0,1573.0,3010.0,2354.0,1105.0,,,,-0.0035376733000689,-2.13517497867921,0.0271366435468311,,2.640413486209265,,
,6077.0,1821.0,5762.0,1572.0,3003.0,2351.0,1096.0,,,,-0.003486128669144,-2.13534046544771,0.0268939876270288,,2.955815573006162,,
,6080.0,1823.0,5763.0,1572.0,3012.0,2360.0,1082.0,,,,-0.0035759548047845,-2.13564759805368,0.0268008160324891,,3.231667619247678,,
,6082.0,1822.0,5763.0,1572.0,3004.0,2371.0,1088.0,,,,-0.0036327188066698,-2.13602905022853,0.0269545290427846,,3.465618735790596,,
,6083.0,1824.0,5762.0,1573.0,3003.0,2351.0,1110.0,,,,-0.0037582318503844,-2.13606199456802,0.0270969548518893,,3.6556956127565234,,
,6084.0,1825.0,5763.0,1573.0,2999.0,2333.0,1093.0,,,,-0.0036886062531705,-2.13654947561548,0.026531251422666,,3.800349519544372,,
,6078.0,1822.0,5763.0,1572.0,3002.0,2348.0,1086.0,,,,-0.0038203788216465,-2.1361621876555,0.0266669473887208,,3.8985322770012014,,
,6082.0,1821.0,5762.0,1572.0,3002.0,2376.0,1122.0,,,,-0.0038100034181457,-2.13653850737249,0.0263843338248104,,3.949782051574634,,
,6085.0,1824.0,5763.0,1575.0,3004.0,2374.0,1096.0,,,,-0.0038102607867718,-2.13622655945135,0.0264931639345006,,3.954303542242203,,
,6084.0,1822.0,5766.0,1574.0,3006.0,2360.0,1113.0,,,,-0.0038683610492651,-2.13639507106681,0.0268597720262362,,3.9130323892471517,,
,6083.0,1823.0,5764.0,1572.0,3008.0,2343.0,1117.0,,,,-0.0038449507214195,-2.13643258465036,0.0266888346853641,,3.8276781696032924,,
,6081.0,1820.0,5763.0,1572.0,3008.0,2364.0,1120.0,,,,-0.0038563705755962,-2.13660179412304,0.0267307793524652,,3.700742468689103,,
,6083.0,1826.0,5763.0,1573.0,3013.0,2367.0,1092.0,,,,-0.0037292883568089,-2.13669471627929,0.0266790920756238,,3.535507640415682,,
,6084.0,1823.0,5763.0,1575.0,3017.0,2350.0,1116.0,,,,-0.0037574328815601,-2.13649706214526,0.0274508451403993,,3.3359893335488473,,
,6084.0,1823.0,5765.0,1572.0,3016.0,2361.0,1102.0,,,,-0.0037461126788262,-2.13730136341105,0.0266879703101819,,3.106844453886198,,
,6084.0,1821.0,5763.0,1572.0,3011.0,2358.0,1089.0,,,,-0.0038394369944855,-2.13640104215633,0.026789628380349,,2.853228407326284,,
,6080.0,1823.0,5763.0,1571.0,3014.0,2369.0,1100.0,,,,-0.0036924456161746,-2.13596573665463,0.0268177247300907,,2.5806020281937476,,
,6085.0,1825.0,5766.0,1573.0,3009.0,2354.0,1116.0,,,,-0.0037960000911886,-2.13626277840948,0.0269283438841345,,2.2944985034773855,,
,6085.0,1823.0,5766.0,1574.0,3014.0,2344.0,1101.0,,,,-0.0038773949603732,-2.13601310201844,0.0269551406900946,,2.000271240859648,,
,6086.0,1823.0,5764.0,1576.0,3011.0,2337.0,1106.0,,,,-0.0037256748834104,-2.13626409868085,0.0269970943473157,,1.7028514049460584,,
,6086.0,1824.0,5765.0,1572.0,3004.0,2341.0,1093.0,,,,-0.00371168646586,-2.13602632157163,0.0269731852992154,,1.4065456883030738,,
,6088.0,1825.0,5768.0,1573.0,3009.0,2352.0,1089.0,,,,-0.0039057032149596,-2.13654109302666,0.0271262459635938,,1.1148999106398172,,
,6088.0,1822.0,5766.0,1574.0,3006.0,2339.0,1104.0,,,,-0.003827274999398,-2.13657428343028,0.0268581222714382,,0.830643804644991,,
,6089.0,1826.0,5769.0,1573.0,3006.0,2349.0,1112.0,,,,-0.003904536358798,-2.13647963781394,0.0269570190198084,,0.5557195386036452,,
,6088.0,1827.0,5768.0,1573.0,3000.0,2376.0,1100.0,,,,-0.0040600115319051,-2.13662235518477,0.026892269929232,,0.2913836866151925,,
,6091.0,1827.0,5770.0,1575.0,3009.0,2356.0,1109.0,,,,-0.0042309145135873,-2.13679145929182,0.0264566119331737,,0.038361606898598584,,
,6093.0,1826.0,5774.0,1575.0,3012.0,2364.0,1099.0,,,,-0.0042348746414319,-2.13704557062108,0.0265939166572465,,-0.2029736171869685,,
,6093.0,1828.0,5776.0,1575.0,3011.0,2380.0,1097.0,,,,-0.0041784639508024,-2.13675041271911,0.0263492551980042,,-0.43242701564230823,,
,6095.0,1828.0,5772.0,1575.0,3010.0,2368.0,1110.0,,,,-0.0042420382450961,-2.13690525044783,0.0265724535381243,,-0.6498375768600873,,
,6098.0,1827.0,5777.0,1576.0,3003.0,2354.0,1125.0,,,,-0.0043344421846491,-2.13731477125394,0.0262626814177393,,-0.8549807219112252,,
,6099.0,1829.0,5779.0,1577.0,2997.0,2356.0,1119.0,,,,-0.0042985371599216,-2.13695513424341,0.0266488844489712,,-1.0475233095875738,,
,6099.0,1830.0,5782.0,1579.0,3003.0,2351.0,1095.0,,,,-0.0043016694936303,-2.13684227825112,0.0266895419026705,,-1.227027109589255,,
,6101.0,1829.0,5783.0,1577.0,3005.0,2345.0,1079.0,,,,-0.0043079994290304,-2.13706328011163,0.0267237222180336,,-1.3929897588679498,,
,6102.0,1827.0,5784.0,1578.0,3004.0,2373.0,1101.0,,,,-0.0043305946108028,-2.13661288483561,0.0265265299405832,,-1.5449092230384234,,
,6107.0,1830.0,5786.0,1580.0,3008.0,2344.0,1099.0,,,,-0.0043623080309698,-2.13683505986919,0.0267728011366218,,-1.682358284466688,,
,6106.0,1833.0,5787.0,1578.0,3009.0,2349.0,1092.0,,,,-0.0043458211303484,-2.13732651745495,0.0265277869108519,,-1.8050585199053828,,
,6109.0,1833.0,5789.0,1583.0,3012.0,2361.0,1091.0,,,,-0.004393342342864,-2.13728656512512,0.0266566243524592,,-1.9129474644360067,,
,6109.0,1832.0,5793.0,1582.0,3012.0,2396.0,1087.0,,,,-0.0043348262853501,-2.13713299512219,0.0267347195103267,,-2.006236950810356,,
,6113.0,1834.0,5793.0,1581.0,3014.0,2380.0,1093.0,,,,-0.0042110746313713,-2.13664646819749,0.0267546233482612,,-2.0854636206431327,,
,6111.0,1834.0,5797.0,1582.0,3014.0,2351.0,1089.0,,,,-0.0042319226254064,-2.13702615344232,0.0267910573138002,,-2.151533222405215,,
,6115.0,1834.0,5797.0,1583.0,3013.0,2362.0,1100.0,,,,-0.0042927346394131,-2.13704166058804,0.0270246572699018,,-2.2057581532037864,,
,6116.0,1835.0,5798.0,1584.0,3009.0,2386.0,1093.0,,,,-0.0044377745547688,-2.13804655485821,0.0267807650430443,,-2.249883279021558,,
,6119.0,1837.0,5799.0,1584.0,3010.0,2379.0,1109.0,,,,-0.004596078792348,-2.13847878569675,0.0266195413991484,,-2.2860897088571845,,
,6119.0,1839.0,5805.0,1587.0,3009.0,2374.0,1100.0,,,,-0.0047581971010573,-2.13903886788972,0.0262078430341448,,-2.3169618312998965,,
,6121.0,1839.0,5804.0,1589.0,3008.0,2365.0,1104.0,,,,-0.0048218907257417,-2.14015230341347,0.0260363821154639,,-2.345401533057421,,
,6123.0,1838.0,5809.0,1585.0,3008.0,2363.0,1092.0,,,,-0.0049395594654682,-2.14046829065498,0.026104255441385,,-2.3744762984136942,,
,6128.0,1839.0,5810.0,1587.0,3010.0,2375.0,1111.0,,,,-0.0051257040095523,-2.14146212298152,0.0260232720374662,,-2.4071947633224986,,
,6127.0,1841.0,5811.0,1587.0,3005.0,2367.0,1098.0,,,,-0.0052970932149753,-2.14152298706524,0.0257846669993822,,-2.4462132755924912,,
,6130.0,1841.0,5811.0,1588.0,3010.0,2384.0,1085.0,,,,-0.0052732298296414,-2.14205822299724,0.0253931848267588,,-2.493488784453178,,
,6126.0,1841.0,5813.0,1588.0,3018.0,2384.0,1077.0,,,,-0.0054638341748075,-2.1422886708413,0.0252327776530456,,-2.5499054955338054,,
,6127.0,1841.0,5811.0,1587.0,3013.0,2382.0,1075.0,,,,-0.0055018090684423,-2.1429805518501,0.0252915894847939,,-2.61491344415371,,
,6124.0,1838.0,5809.0,1589.0,3006.0,2390.0,1070.0,,,,-0.0057302249573941,-2.14361932876937,0.0248793461614167,,-2.686224493508577,,
,6122.0,1838.0,5804.0,1586.0,3011.0,2383.0,1102.0,,,,-0.0057111457455934,-2.1438138954309,0.0248298584431675,,-2.7596134234829544,,
,6120.0,1836.0,5799.0,1585.0,3007.0,2397.0,1118.0,,,,-0.0057672681067908,-2.14369303305924,0.0249962257649214,,-2.8288674875665043,,
,6114.0,1831.0,5792.0,1582.0,3003.0,2398.0,1133.0,,,,-0.0058159298686594,-2.14399277016969,0.0247790193074257,,-2.885916744716645,,
,6110.0,1831.0,5788.0,1579.0,3003.0,2375.0,1125.0,,,,-0.0059905846693515,-2.14409156858967,0.0247611924342313,,-2.921160449857901,,
,6104.0,1827.0,5782.0,1576.0,3003.0,2369.0,1111.0,,,,-0.0059922811002353,-2.14410686734528,0.0246891189435502,,-2.923983884583584,,
,6104.0,1828.0,5775.0,1579.0,3004.0,2359.0,1125.0,,,,-0.0059106999949827,-2.14390484830485,0.0249435987090277,,-2.883438119519117,,
,6102.0,1826.0,5771.0,1575.0,3001.0,2362.0,1139.0,,,,-0.0059800666862656,-2.14468886483741,0.024968045443118,,-2.789035121988707,,
,6096.0,1825.0,5765.0,1572.0,3007.0,2363.0,1119.0,,,,-0.0060538441692135,-2.14438076041443,0.0249520123599908,,-2.6315944919015557,,
,6092.0,1822.0,5764.0,1572.0,3003.0,2349.0,1112.0,,,,-0.0060840650513771,-2.14372259409659,0.0249241106158866,,-2.4040676480440757,,
,6092.0,1822.0,5758.0,1572.0,3002.0,2327.0,1109.0,,,,-0.0059302644145324,-2.143663079727,0.024988080468234,,-2.1022621981552625,,
,6091.0,1821.0,5758.0,1569.0,3003.0,2332.0,1110.0,,,,-0.0060189332284874,-2.14391153679069,0.0250931794232473,,-1.7253949970718214,,
,6089.0,1819.0,5753.0,1566.0,3002.0,2366.0,1067.0,,,,-0.0057878072161905,-2.14415258142408,0.0251883364084059,,-1.2764176954117894,,
,6088.0,1821.0,5751.0,1566.0,3010.0,2366.0,1077.0,,,,-0.0057187173566084,-2.14367375055909,0.0253761517747583,,-0.7620824901460004,,
,6086.0,1819.0,5750.0,1564.0,3014.0,2376.0,1063.0,,,,-0.0057955117896152,-2.14297426742481,0.0255483746296571,,-0.19274495985288131,,
,6084.0,1817.0,5748.0,1564.0,3015.0,2369.0,1066.0,,,,-0.0056711059263711,-2.14316579504348,0.0254192601332412,,0.4180705614061452,,
,6084.0,1816.0,5747.0,1562.0,3019.0,2357.0,1061.0,,,,-0.0055752913169148,-2.14309988394949,0.0258982783268907,,1.0542961392907153,,
,6088.0,1817.0,5742.0,1565.0,3016.0,2378.0,1079.0,,,,-0.0055114379300718,-2.14235725344366,0.0256348317165397,,1.6980784752602156,,
,6087.0,1817.0,5747.0,1568.0,3024.0,2375.0,1071.0,,,,-0.0054549422196795,-2.14226877355803,0.026131313077299,,2.3306125712595094,,
,6087.0,1819.0,5746.0,1563.0,3018.0,2375.0,1063.0,,,,-0.0056662130061497,-2.1422059695191,0.0257447648273416,,2.9329993477591887,,
,6087.0,1819.0,5746.0,1565.0,3006.0,2373.0,1082.0,,,,-0.0055277757090668,-2.1420272878676,0.0259379177043369,,3.4870840422676754,,
,6082.0,1817.0,5745.0,1563.0,3009.0,2376.0,1077.0,,,,-0.0055136052553993,-2.14225298185386,0.0257554606116465,,3.9762399949293337,,
,6086.0,1821.0,5746.0,1566.0,3007.0,2356.0,1077.0,,,,-0.0054972980426416,-2.14265042738116,0.0257704049850702,,4.386068619973327,,
,6088.0,1819.0,5746.0,1564.0,3010.0,2337.0,1097.0,,,,-0.0055048206852237,-2.14242141124512,0.0255160931479123,,4.704990705033181,,
,6087.0,1820.0,5745.0,1565.0,3010.0,2325.0,1108.0,,,,-0.0054727867934257,-2.14265171774306,0.025951765478936,,4.924706919899696,,
,6087.0,1820.0,5746.0,1565.0,3007.0,2356.0,1101.0,,,,-0.0054189799807839,-2.14228353023658,0.0257998909893718,,5.040507383020984,,
,6091.0,1821.0,5748.0,1566.0,3008.0,2367.0,1092.0,,,,-0.0054913453744741,-2.1421494099668,0.0260656260519478,,5.051412607270646,,
,6090.0,1822.0,5749.0,1564.0,3000.0,2380.0,1100.0,,,,-0.0055242894019979,-2.14230081785113,0.0257287937928511,,4.960132598161049,,
,6091.0,1821.0,5751.0,1567.0,3003.0,2373.0,1086.0,,,,-0.0055018019618538,-2.14210857499195,0.0257613082876764,,4.772838806819206,,
,6092.0,1819.0,5749.0,1566.0,3005.0,2369.0,1085.0,,,,-0.0055391315955772,-2.14212782424176,0.0258373756875997,,4.4987560332294665,,
,6092.0,1822.0,5752.0,1570.0,3004.0,2339.0,1108.0,,,,-0.0054465110774107,-2.14269899250567,0.0259082542167262,,4.149597559308564,,
,6098.0,1822.0,5751.0,1569.0,3006.0,2345.0,1092.0,,,,-0.0055577557657681,-2.14158369660886,0.0258401409312731,,3.738883711537678,,
,6096.0,1822.0,5749.0,1568.0,3009.0,2346.0,1103.0,,,,-0.0055356757906685,-2.14218556610915,0.0255559448840286,,3.2811972702873757,,
,6093.0,1821.0,5750.0,1566.0,3009.0,2349.0,1116.0,,,,-0.0055178784524469,-2.14186907359988,0.0255686291312787,,2.7914350751669454,,
,6096.0,1822.0,5753.0,1567.0,3007.0,2341.0,1093.0,,,,-0.0055067844846368,-2.14198572793091,0.0256804236546035,,2.284112546142831,,
,6095.0,1825.0,5754.0,1567.0,2993.0,2380.0,1095.0,,,,-0.0054229398027353,-2.14193797454011,0.0258112576307477,,1.772767466397187,,
,6094.0,1822.0,5749.0,1568.0,2999.0,2398.0,1112.0,,,,-0.0054666869970029,-2.14228945404879,0.0256800187547284,,1.269493452494093,,
,6096.0,1823.0,5749.0,1564.0,3008.0,2364.0,1095.0,,,,-0.0053113470193458,-2.14188410317807,0.0256603161521898,,0.7846152623806069,,
,6095.0,1824.0,5749.0,1568.0,3010.0,2384.0,1087.0,,,,-0.0054305875722694,-2.14243918691946,0.0255730903996828,,0.3265010411339547,,
,6094.0,1819.0,5752.0,1569.0,3013.0,2390.0,1088.0,,,,-0.0053837833706937,-2.14210301350863,0.0256450189064208,,-0.09850628999852366,,
,6095.0,1824.0,5748.0,1568.0,3002.0,2373.0,1089.0,,,,-0.0053863288418058,-2.14208177107853,0.0255634439823601,,-0.48606341186693386,,
,6094.0,1824.0,5751.0,1568.0,3005.0,2369.0,1102.0,,,,-0.0054939320174752,-2.14259033338626,0.0254050333180975,,-0.833732613553772,,
,6094.0,1818.0,5746.0,1562.0,3005.0,2366.0,1106.0,,,,-0.005530535080958,-2.14209728668791,0.0257614578872399,,-1.1408407352214203,,
,6093.0,1823.0,5748.0,1565.0,3002.0,2354.0,1118.0,,,,-0.0053586531177178,-2.1415605459044,0.0256085796996231,,-1.4083041632486388,,
2025-07-01 22:03:26,6095.0,1821.0,5749.0,1565.0,3005.0,2352.0,1111.0,,,2025/07/01 10:03:26 PM,-0.0052816263743515,-2.14165506793989,0.025418385973373,,-1.6384241110458124,,
,6097.0,1820.0,5747.0,1568.0,3009.0,2377.0,1095.0,,,,-0.0053626742348499,-2.14145800428091,0.0253379602324986,,-1.8346499510409209,,
,6097.0,1823.0,5747.0,1564.0,3001.0,2399.0,1092.0,,,,-0.0052923956688987,-2.1416211162572,0.0256230695210403,,-2.0013063106063185,,
,6097.0,1823.0,5749.0,1567.0,3006.0,2360.0,1074.0,,,,-0.0053906069176326,-2.14188485958423,0.0253264802299468,,-2.1432823159084116,,
,6099.0,1821.0,5751.0,1568.0,3014.0,2359.0,1075.0,,,,-0.0054362337750557,-2.14207355739864,0.0251096548343503,,-2.265687621112232,,
,6100.0,1824.0,5750.0,1569.0,3015.0,2369.0,1075.0,,,,-0.005433229993208,-2.14189174561282,0.0253884478515265,,-2.373487719520545,,
,6101.0,1823.0,5753.0,1565.0,3025.0,2376.0,1113.0,,,,-0.0053584950988591,-2.14142886007882,0.0253558878851264,,-2.4711383578372432,,
,6102.0,1823.0,5751.0,1568.0,3016.0,2398.0,1112.0,,,,-0.0052765344977976,-2.14121687522935,0.0255700849822464,,-2.5622439285327494,,
,6104.0,1827.0,5756.0,1569.0,3008.0,2387.0,1093.0,,,,-0.0053337100341373,-2.14057988209785,0.0253369178519146,,-2.6492664367923475,,
,6106.0,1824.0,5753.0,1567.0,3007.0,2359.0,1092.0,,,,-0.0052264675163337,-2.14052710985399,0.0254184227487248,,-2.73330960858764,,
,6106.0,1825.0,5757.0,1569.0,3008.0,2347.0,1079.0,,,,-0.0051316355184903,-2.13973581872923,0.0256017116362305,,-2.8139971265585673,,
,6109.0,1824.0,5756.0,1567.0,3008.0,2369.0,1082.0,,,,-0.0051474198327523,-2.13958804300485,0.0257620678663794,,-2.8894558358620954,,
,6110.0,1827.0,5760.0,1570.0,3008.0,2376.0,1064.0,,,,-0.005018269891986,-2.13868314042531,0.025579495330292,,-2.9564057634675738,,
,6110.0,1829.0,5760.0,1571.0,3004.0,2353.0,1067.0,,,,-0.0049539148550322,-2.13882184489623,0.0260785015880853,,-3.010350676534153,,
,6113.0,1829.0,5765.0,1572.0,3006.0,2341.0,1066.0,,,,-0.0048061815558458,-2.13887288089494,0.0260293416495392,,-3.045856556267077,,
,6113.0,1828.0,5762.0,1570.0,3004.0,2331.0,1087.0,,,,-0.0047182804270118,-2.13824960138608,0.0260452052097794,,-3.0569006715054456,,
,6116.0,1831.0,5765.0,1573.0,3005.0,2357.0,1102.0,,,,-0.0046271732676374,-2.13852343014314,0.0263856352850631,,-3.0372703700974992,,
,6119.0,1831.0,5766.0,1573.0,3008.0,2356.0,1105.0,,,,-0.004431519007299,-2.13850675601307,0.0262091532306782,,-2.980987861747515,,
,6120.0,1835.0,5768.0,1576.0,3008.0,2374.0,1095.0,,,,-0.0044783538340677,-2.13798134031981,0.0267796464539338,,-2.8827350341173537,,
,6118.0,1832.0,5769.0,1574.0,3004.0,2368.0,1093.0,,,,-0.0043574486703354,-2.13778756175996,0.0264060923579013,,-2.7382509750191613,,
,6122.0,1833.0,5772.0,1575.0,3007.0,2385.0,1083.0,,,,-0.0042932960757255,-2.13711282029981,0.0269101668986166,,-2.544675066358088,,
,6124.0,1833.0,5776.0,1576.0,3003.0,2386.0,1103.0,,,,-0.0041573457106108,-2.13673221582866,0.0268261630458223,,-2.300811283494654,,
,6129.0,1835.0,5777.0,1575.0,3009.0,2374.0,1109.0,,,,-0.0040307045242505,-2.13637868079421,0.0271638687494745,,-2.00729552146983,,
,6126.0,1835.0,5778.0,1577.0,3009.0,2399.0,1102.0,,,,-0.0041466435126441,-2.13620124558307,0.0270756962782079,,-1.6666574443703748,,
,6128.0,1836.0,5778.0,1577.0,3005.0,2397.0,1090.0,,,,-0.004123173151367,-2.13587490798571,0.0270364703340287,,-1.2832803692948742,,
,6130.0,1836.0,5780.0,1579.0,3001.0,2376.0,1095.0,,,,-0.0040589522474849,-2.13605324274528,0.0271712641809503,,-0.8632745976373739,,
,6137.0,1841.0,5785.0,1580.0,3005.0,2338.0,1103.0,,,,-0.0041836111409649,-2.13649493037053,0.0269986572892303,,-0.4142880661618917,,
,6136.0,1839.0,5787.0,1581.0,3003.0,2324.0,1110.0,,,,-0.004208884594116,-2.13678758005061,0.0268363768904313,,0.054719873790752147,,
,6138.0,1837.0,5786.0,1578.0,3003.0,2323.0,1127.0,,,,-0.0042650849506267,-2.13724660681581,0.0268245849873943,,0.5337215572811516,,
,6141.0,1839.0,5790.0,1581.0,3008.0,2335.0,1111.0,,,,-0.0044052403122795,-2.13810592722898,0.0267878736526538,,1.0118725612011257,,
,6139.0,1840.0,5793.0,1583.0,3009.0,2362.0,1099.0,,,,-0.0045525120547084,-2.13867394493479,0.02639557903735,,1.4777754597794113,,
,6142.0,1842.0,5792.0,1583.0,3006.0,2377.0,1092.0,,,,-0.0045697892069534,-2.1393250658015,0.0261687631320079,,1.9197665080095758,,
,6147.0,1842.0,5795.0,1581.0,3011.0,2379.0,1077.0,,,,-0.0047129655385306,-2.1397809978537,0.0263848375433459,,2.3262350257112074,,
,6150.0,1844.0,5797.0,1584.0,3012.0,2388.0,1074.0,,,,-0.0047259785184177,-2.14006000903693,0.0262312941978788,,2.685978323498209,,
,6148.0,1845.0,5800.0,1585.0,3015.0,2394.0,1067.0,,,,-0.0048747500274791,-2.13986404265482,0.02581679370912,,2.988586640932866,,
,6148.0,1844.0,5799.0,1583.0,3014.0,2391.0,1068.0,,,,-0.004892449414269,-2.14012220541474,0.0258139779434651,,3.2248461470150995,,
,6145.0,1839.0,5797.0,1585.0,3019.0,2378.0,1072.0,,,,-0.0048724046307483,-2.14032113399421,0.0257155551701561,,3.387144045609854,,
,6141.0,1837.0,5792.0,1581.0,3010.0,2375.0,1063.0,,,,-0.0048951067158577,-2.14047375914865,0.0259422944390438,,3.469856769463424,,
,6136.0,1839.0,5786.0,1580.0,3010.0,2347.0,1098.0,,,,-0.0048838585043151,-2.14043152403314,0.0259647215155791,,3.4696987659829586,,
,6135.0,1836.0,5782.0,1579.0,3008.0,2365.0,1119.0,,,,-0.0049159077499923,-2.14031340659214,0.0258552262873851,,3.3860054452566373,,
,6131.0,1834.0,5776.0,1579.0,3009.0,2374.0,1111.0,,,,-0.0049364648058908,-2.14039877806179,0.0260026717174198,,3.2209207315681057,,
,6127.0,1828.0,5771.0,1575.0,2999.0,2383.0,1084.0,,,,-0.0048804517574321,-2.14049713559103,0.0258651537926082,,2.9794590922839634,,
,6123.0,1829.0,5766.0,1575.0,2988.0,2357.0,1118.0,,,,-0.0049373099976774,-2.14043279046691,0.025806258175442,,2.669415468341269,,
,6124.0,1831.0,5763.0,1574.0,2998.0,2353.0,1118.0,,,,-0.0050246952493806,-2.14008588126561,0.0259304417919112,,2.3011050948852616,,
,6116.0,1827.0,5755.0,1569.0,2997.0,2348.0,1124.0,,,,-0.0049638106965114,-2.14006772132498,0.02607799895958,,1.8869286521753732,,
,6113.0,1824.0,5749.0,1565.0,3008.0,2341.0,1129.0,,,,-0.0049771445217469,-2.13999888303175,0.0262180585551775,,1.4407752991833798,,
,6114.0,1825.0,5747.0,1565.0,3004.0,2375.0,1121.0,,,,-0.0048939600150643,-2.13958305387675,0.0262452903534476,,0.977294859685433,,
,6111.0,1824.0,5744.0,1567.0,3006.0,2391.0,1103.0,,,,-0.0047941022489662,-2.13939196648246,0.0266557360062802,,0.5110881078745365,,
,6110.0,1824.0,5743.0,1565.0,3009.0,2377.0,1091.0,,,,-0.0044366065554942,-2.13914968309863,0.0264993646857508,,0.055877703598372686,,
,6106.0,1822.0,5740.0,1563.0,3020.0,2361.0,1085.0,,,,-0.0043993573020732,-2.13890311757439,0.0263776150341043,,-0.3762708685227696,,
,6106.0,1823.0,5739.0,1561.0,3015.0,2388.0,1096.0,,,,-0.0042535314131391,-2.13850282657845,0.0269692825601879,,-0.7756102729442442,,
,6106.0,1821.0,5736.0,1564.0,3012.0,2370.0,1118.0,,,,-0.004055427210958,-2.13804689016658,0.0271392081467424,,-1.1351948287065228,,
,6104.0,1821.0,5736.0,1563.0,3012.0,2365.0,1091.0,,,,-0.0039990639464418,-2.13773184173055,0.0270707574975743,,-1.4511415845024704,,
,6107.0,1821.0,5734.0,1563.0,3013.0,2359.0,1084.0,,,,-0.0039844254581167,-2.13672306766849,0.0275700564734975,,-1.7226425044932914,,
,6104.0,1821.0,5734.0,1561.0,3007.0,2375.0,1081.0,,,,-0.0039722794069685,-2.13673742295989,0.0275467026307254,,-1.9517224935664386,,
,6108.0,1822.0,5736.0,1564.0,3009.0,2378.0,1072.0,,,,-0.0037227298576614,-2.13634850689207,0.0277920504112373,,-2.1427601363819,,
,6109.0,1821.0,5735.0,1561.0,3018.0,2380.0,1070.0,,,,-0.0036928372458766,-2.13633329693194,0.0277708878785796,,-2.3018089490012006,,
,6109.0,1824.0,5737.0,1564.0,3012.0,2372.0,1074.0,,,,-0.0036169938106475,-2.13643684523889,0.0279282173616441,,-2.4357745870440746,,
,6108.0,1821.0,5734.0,1561.0,3004.0,2356.0,1082.0,,,,-0.0037083595944451,-2.13610295857504,0.0278492724117335,,-2.5515164541430804,,
,6108.0,1822.0,5734.0,1564.0,2997.0,2367.0,1091.0,,,,-0.0036050349417886,-2.13636393035489,0.0279329720347778,,-2.65494984776605,,
,6112.0,1822.0,5740.0,1564.0,3001.0,2358.0,1089.0,,,,-0.0036892757152081,-2.13637853003563,0.0278574712157318,,-2.7502268300781414,,
,6112.0,1825.0,5739.0,1562.0,2995.0,2354.0,1093.0,,,,-0.0037030899412177,-2.1364499238394,0.0278903122648771,,-2.839070144315033,,
,6114.0,1823.0,5737.0,1565.0,3003.0,2353.0,1092.0,,,,-0.0036404712717914,-2.13618821017138,0.0277737859834986,,-2.9203246367565576,,
,6111.0,1823.0,5742.0,1565.0,3006.0,2369.0,1071.0,,,,-0.0037634645057637,-2.13651920653569,0.0276845711658022,,-2.9897752592964766,,
,6113.0,1825.0,5740.0,1567.0,3007.0,2371.0,1093.0,,,,-0.0036587038396288,-2.13620453263293,0.0281942383874267,,-3.0402608975416996,,
,6116.0,1826.0,5743.0,1565.0,3009.0,2369.0,1115.0,,,,-0.0038214883993897,-2.13671171952203,0.0278280989796339,,-3.0620903110456825,,
,6116.0,1827.0,5741.0,1566.0,3007.0,2391.0,1102.0,,,,-0.0038085450371984,-2.13652421259351,0.0275485302096688,,-3.0437415535880907,,
,6116.0,1827.0,5741.0,1565.0,3000.0,2389.0,1118.0,,,,-0.003768107558094,-2.13646870424852,0.0274842371794213,,-2.972800477151982,,
,6115.0,1825.0,5743.0,1564.0,3001.0,2392.0,1104.0,,,,-0.003772411589162,-2.13654355099376,0.0276702983937055,,-2.837068878300269,,
,6119.0,1828.0,5743.0,1568.0,3009.0,2383.0,1108.0,,,,-0.0038101219564603,-2.1368766726971,0.0275770922875155,,-2.6257509338482636,,
,6119.0,1826.0,5744.0,1565.0,3003.0,2377.0,1119.0,,,,-0.0037377111890107,-2.13518486011307,0.0276464238414999,,-2.3306110809739575,,
,6116.0,1825.0,5741.0,1563.0,2991.0,2378.0,1109.0,,,,-0.0037065904294835,-2.13628826456974,0.0277572328188469,,-1.9469913709813336,,
,6119.0,1826.0,5742.0,1565.0,3003.0,2363.0,1103.0,,,,-0.0036067972196535,-2.13672541829398,0.0276201480661253,,-1.4745854724510374,,
,6119.0,1824.0,5740.0,1566.0,2998.0,2361.0,1110.0,,,,-0.0037232774809867,-2.13636339859427,0.0279941108203581,,-0.9178917710494237,,
,6118.0,1827.0,5742.0,1566.0,3003.0,2361.0,1109.0,,,,-0.0036791341716164,-2.13552460857313,0.0279410305991929,,-0.28630634494296664,,
,6118.0,1824.0,5740.0,1564.0,3008.0,2338.0,1093.0,,,,-0.0034797269637867,-2.13517092830503,0.0276215903841752,,0.4061406911422278,,
,6118.0,1824.0,5742.0,1563.0,3006.0,2354.0,1094.0,,,,-0.0036285315110828,-2.135597404263,0.0278183264041316,,1.1413654595382505,,
,6117.0,1825.0,5741.0,1565.0,3002.0,2343.0,1102.0,,,,-0.0035554963001292,-2.13492695845965,0.0279365505305341,,1.8980637619509266,,
,6117.0,1825.0,5742.0,1566.0,3004.0,2372.0,1094.0,,,,-0.0036042777096172,-2.13499755858101,0.0283650496064569,,2.6527245371340142,,
,6119.0,1825.0,5742.0,1564.0,3003.0,2368.0,1066.0,,,,-0.0034542831062611,-2.13458188407332,0.0281116490919542,,3.380750480661369,,
,6118.0,1827.0,5743.0,1565.0,3002.0,2357.0,1070.0,,,,-0.0034708339231219,-2.13467578397519,0.0280674822595021,,4.057618694039502,,
,6119.0,1826.0,5742.0,1565.0,3009.0,2394.0,1096.0,,,,-0.0034910032608259,-2.13421168748953,0.0283612119752412,,4.660022164831567,,
,6120.0,1827.0,5742.0,1566.0,3015.0,2393.0,1104.0,,,,-0.0034433050935179,-2.13411974730837,0.0284809690469856,,5.1669415240094745,,
,6122.0,1827.0,5742.0,1565.0,3016.0,2381.0,1106.0,,,,-0.003464067317952,-2.13420518965044,0.0279631730061803,,5.56060514439759,,
,6123.0,1827.0,5740.0,1567.0,3007.0,2374.0,1125.0,,,,-0.0035821017495064,-2.13441939496387,0.0283277275652803,,5.827303098364247,,
,6126.0,1829.0,5747.0,1568.0,2997.0,2363.0,1098.0,,,,-0.0035377976279535,-2.13439661601223,0.0282964957006427,,5.958025240146182,,
,6125.0,1829.0,5748.0,1568.0,3006.0,2382.0,1096.0,,,,-0.0035656635740631,-2.13408140772078,0.028314926593113,,5.948895226310076,,
,6128.0,1830.0,5752.0,1569.0,3003.0,2394.0,1092.0,,,,-0.0034778894497262,-2.13406823247696,0.0284657575953003,,5.801372402783511,,
,6126.0,1828.0,5747.0,1569.0,2995.0,2384.0,1106.0,,,,-0.0035580706735209,-2.13405444457366,0.0281004621042151,,5.5221956736881594,,
,6127.0,1829.0,5748.0,1569.0,3000.0,2364.0,1109.0,,,,-0.0034631037650609,-2.13459771427057,0.0283234435259476,,5.123051379400402,,
,6130.0,1832.0,5754.0,1569.0,2999.0,2379.0,1114.0,,,,-0.003497695414774,-2.13479214352746,0.0283339543805503,,4.6199631450915515,,
,6134.0,1833.0,5754.0,1570.0,2996.0,2386.0,1100.0,,,,-0.0035783976904012,-2.13493813725733,0.0284124704393159,,4.032425235949396,,
,6133.0,1833.0,5753.0,1572.0,2994.0,2385.0,1100.0,,,,-0.0035141835509618,-2.13429701707997,0.028359057426521,,3.382328248475095,,
,6134.0,1835.0,5760.0,1570.0,3002.0,2371.0,1116.0,,,,-0.0034322342019243,-2.13450629886514,0.0283443471358953,,2.6927504477076347,,
,6138.0,1834.0,5758.0,1572.0,3007.0,2388.0,1114.0,,,,-0.0034159773799192,-2.1343812882905,0.0284626276160314,,1.9867036751370142,,
,6139.0,1834.0,5762.0,1571.0,3006.0,2361.0,1110.0,,,,-0.0033796179962781,-2.13424836474868,0.0281711632889986,,1.2859268697250874,,
,6140.0,1834.0,5759.0,1573.0,3009.0,2367.0,1117.0,,,,-0.0032875446645384,-2.13364061821246,0.0282645747471516,,0.6098140042326008,,
,6141.0,1834.0,5761.0,1573.0,3007.0,2368.0,1121.0,,,,-0.0032809484808964,-2.13342526855426,0.0284027893898085,,-0.025450334475063823,,
,6145.0,1837.0,5765.0,1575.0,3005.0,2367.0,1093.0,,,,-0.0032519721777699,-2.13355531083126,0.0288820837347996,,-0.607492538436832,,
,6145.0,1837.0,5765.0,1577.0,3005.0,2358.0,1097.0,,,,-0.0031336538340574,-2.13326043448053,0.0287408767045245,,-1.1280543329375705,,
,6146.0,1838.0,5770.0,1577.0,3003.0,2351.0,1093.0,,,,-0.0032179916860312,-2.13319782134166,0.0292682335968169,,-1.5829881575739386,,
,6147.0,1837.0,5770.0,1575.0,2998.0,2352.0,1090.0,,,,-0.0031650859165692,-2.13340501822783,0.0289488669815594,,-1.9719556763215524,,
,6151.0,1838.0,5773.0,1576.0,3007.0,2358.0,1105.0,,,,-0.0032468315763437,-2.13335676237835,0.0289187703176755,,-2.2978649832357974,,
,6151.0,1840.0,5774.0,1580.0,3008.0,2369.0,1115.0,,,,-0.0033254349674151,-2.13324391435748,0.0285886193419606,,-2.5661027210888077,,
,6150.0,1840.0,5773.0,1578.0,3011.0,2382.0,1102.0,,,,-0.0034008916374299,-2.13355642789048,0.0287817508772018,,-2.7836325680056744,,
,6155.0,1843.0,5776.0,1576.0,3009.0,2400.0,1118.0,,,,-0.0034024458139865,-2.1338157438943,0.0290826497853445,,-2.9580395924143907,,
,6157.0,1843.0,5777.0,1578.0,3000.0,2395.0,1102.0,,,,-0.003374982166719,-2.13437915102935,0.0286540812645406,,-3.096600442410302,,
,6158.0,1841.0,5782.0,1581.0,3004.0,2381.0,1115.0,,,,-0.0033252115553387,-2.13401145697784,0.0290346622042204,,-3.205453241583969,,
,6161.0,1844.0,5784.0,1582.0,3005.0,2378.0,1115.0,,,,-0.0034007401987627,-2.13439536352078,0.0286802774578838,,-3.2889302422185804,,
,6159.0,1843.0,5785.0,1583.0,3012.0,2396.0,1072.0,,,,-0.0034166534272726,-2.13492217396185,0.0287487441585291,,-3.3491023849946258,,
,6160.0,1842.0,5786.0,1581.0,3015.0,2399.0,1079.0,,,,-0.0035289744451485,-2.13542561833291,0.0283149175078793,,-3.3855687800783443,,
,6164.0,1845.0,5788.0,1584.0,3013.0,2398.0,1088.0,,,,-0.0035847801897893,-2.13599131436466,0.028632703153407,,-3.395506122871386,,
,6162.0,1844.0,5788.0,1584.0,3007.0,2390.0,1097.0,,,,-0.0037480316432425,-2.13654351866404,0.0283095328113576,,-3.373973742932922,,
,6165.0,1844.0,5786.0,1585.0,3006.0,2395.0,1095.0,,,,-0.0038694542717056,-2.13724063577693,0.0281033760590761,,-3.3144502862463576,,
,6159.0,1841.0,5785.0,1579.0,3003.0,2389.0,1129.0,,,,-0.003964676683457,-2.13777578581629,0.0279755387086633,,-3.209559018666059,,
,6155.0,1842.0,5782.0,1581.0,2998.0,2355.0,1117.0,,,,-0.0041119580824354,-2.13811305747695,0.0275714048626325,,-3.0519215592879805,,
,6151.0,1840.0,5776.0,1578.0,2989.0,2360.0,1143.0,,,,-0.0042066343622204,-2.13881750100538,0.0277038301716934,,-2.835065943053876,,
,6148.0,1836.0,5772.0,1579.0,2990.0,2364.0,1146.0,,,,-0.0043624453636163,-2.13890419915768,0.0272811356934079,,-2.5543061047007223,,
,6147.0,1835.0,5765.0,1574.0,2990.0,2369.0,1121.0,,,,-0.004339190764255,-2.13910591564845,0.0274618366850199,,-2.2075082453324213,,
,6141.0,1835.0,5758.0,1572.0,2994.0,2358.0,1118.0,,,,-0.0044036474848894,-2.13939504485722,0.0273997496649456,,-1.795667055306114,,
,6140.0,1832.0,5758.0,1572.0,2989.0,2352.0,1114.0,,,,-0.0044524039642755,-2.13965286415142,0.0272666273049288,,-1.3232325418627737,,
,6137.0,1831.0,5751.0,1572.0,2996.0,2339.0,1125.0,,,,-0.0044906793496287,-2.13894627053974,0.0272207953256064,,-0.7981552695016313,,
,6135.0,1832.0,5749.0,1571.0,2997.0,2366.0,1140.0,,,,-0.0045170389103625,-2.13864667676275,0.027462630358026,,-0.23165013324811878,,
,6135.0,1828.0,5745.0,1568.0,3005.0,2359.0,1110.0,,,,-0.0044197301891091,-2.13864069538954,0.0273473921209416,,0.3622900762577677,,
,6133.0,1827.0,5740.0,1567.0,3005.0,2377.0,1125.0,,,,-0.0043880345566107,-2.13846497384946,0.0276360341742771,,0.9675764050125965,,
,6128.0,1828.0,5738.0,1568.0,3010.0,2388.0,1085.0,,,,-0.0042631714579635,-2.13846902202825,0.0279179164784022,,1.5668331815940137,,
,6129.0,1829.0,5736.0,1566.0,3011.0,2396.0,1088.0,,,,-0.0042186149008237,-2.13797683374887,0.0279490336439062,,2.142265706178046,,
,6126.0,1826.0,5730.0,1562.0,3011.0,2401.0,1091.0,,,,-0.00419083965801,-2.13778605023049,0.0280483196006516,,2.676523024566695,,
2025-07-01 22:03:27,6127.0,1824.0,5731.0,1565.0,3011.0,2390.0,1080.0,,,2025/07/01 10:03:27 PM,-0.0044709905970331,-2.13725664895873,0.0276721551937129,,3.153504002972205,,
,6127.0,1826.0,5733.0,1565.0,3008.0,2389.0,1093.0,,,,-0.0043165096840105,-2.13728000319951,0.0278519566446392,,3.5590685209595923,,
,6127.0,1827.0,5733.0,1565.0,3009.0,2401.0,1082.0,,,,-0.0044536657393004,-2.13770824799517,0.0279780253859948,,3.8816288642026455,,
,6129.0,1825.0,5729.0,1564.0,3012.0,2389.0,1049.0,,,,-0.00415109920207,-2.13730624573321,0.027988260689548,,4.112607068848832,,
,6128.0,1828.0,5731.0,1565.0,3008.0,2377.0,1055.0,,,,-0.0042151719229518,-2.13762613232747,0.0279301747213993,,4.2467506428854636,,
,6127.0,1825.0,5732.0,1565.0,3010.0,2361.0,1067.0,,,,-0.004254157049298,-2.13753574736705,0.0279829244642011,,4.282301921716884,,
,6129.0,1830.0,5734.0,1568.0,3006.0,2351.0,1083.0,,,,-0.0043751500826519,-2.13794313006574,0.0279286817537553,,4.221017134474391,,
,6128.0,1826.0,5734.0,1564.0,3004.0,2341.0,1092.0,,,,-0.0043257064855505,-2.13829124297273,0.0276993833775147,,4.068032569812065,,
,6132.0,1828.0,5733.0,1566.0,2998.0,2350.0,1114.0,,,,-0.0044800169016092,-2.13864629177937,0.0275932424661519,,3.831578710904184,,
,6132.0,1827.0,5738.0,1566.0,2994.0,2372.0,1108.0,,,,-0.0045081190940792,-2.13910019226585,0.0273114370067105,,3.5225491150048978,,
,6136.0,1829.0,5739.0,1569.0,2994.0,2374.0,1102.0,,,,-0.0045912190438294,-2.13883142666257,0.027305855459071,,3.153938662925955,,
,6134.0,1831.0,5739.0,1568.0,3000.0,2368.0,1089.0,,,,-0.0046092088631341,-2.13932339761932,0.0272050826576176,,2.7401751647589716,,
,6135.0,1828.0,5737.0,1568.0,3002.0,2381.0,1111.0,,,,-0.0046343940865123,-2.13959767632097,0.0270855032643535,,2.29637875131604,,
,6137.0,1832.0,5741.0,1569.0,3008.0,2379.0,1118.0,,,,-0.0046274148778733,-2.13978677586352,0.0271910475871383,,1.837593964828577,,
,6137.0,1834.0,5742.0,1570.0,3005.0,2378.0,1108.0,,,,-0.0046715145065523,-2.13976531368724,0.0272487190339408,,1.3780477995497298,,
,6139.0,1830.0,5742.0,1571.0,3009.0,2366.0,1107.0,,,,-0.0046968311542467,-2.13982112427227,0.0269835179171084,,0.9304900159748328,,
,6139.0,1831.0,5742.0,1570.0,3009.0,2350.0,1116.0,,,,-0.0046650913239252,-2.13960753724978,0.0270918460630217,,0.5056672073217761,,
,6138.0,1832.0,5742.0,1570.0,3001.0,2332.0,1137.0,,,,-0.0046149415289243,-2.13965721968384,0.026976610188967,,0.111968932681423,,
,6140.0,1833.0,5743.0,1570.0,3005.0,2357.0,1109.0,,,,-0.0046916091560786,-2.1397437725962,0.0269054136698317,,-0.24473488619411984,,
,6138.0,1833.0,5745.0,1571.0,3007.0,2340.0,1106.0,,,,-0.0047095298875379,-2.1398664815876,0.027282701508002,,-0.5610673342343847,,
,6138.0,1829.0,5745.0,1570.0,2999.0,2349.0,1098.0,,,,-0.0047519986305843,-2.14025305194859,0.0270604244347158,,-0.8359504220817088,,
,6137.0,1829.0,5743.0,1570.0,3000.0,2361.0,1115.0,,,,-0.0047641057930391,-2.14025422247293,0.0270991357654249,,-1.0702810523470516,,
,6140.0,1832.0,5744.0,1570.0,3002.0,2358.0,1112.0,,,,-0.0048148186360639,-2.14026211160563,0.0269694340419589,,-1.2665244944408902,,
,6140.0,1831.0,5741.0,1572.0,3006.0,2363.0,1100.0,,,,-0.0048220743476797,-2.13977798994753,0.0268126934075074,,-1.428276020656321,,
,6138.0,1833.0,5743.0,1572.0,3011.0,2373.0,1101.0,,,,-0.0049419052375315,-2.13990781013205,0.0267519551627941,,-1.559837583331362,,
,6139.0,1833.0,5742.0,1568.0,3012.0,2395.0,1098.0,,,,-0.0048005610007242,-2.1402699419427,0.0267677831546464,,-1.6658464984999874,,
,6139.0,1832.0,5743.0,1571.0,3011.0,2375.0,1088.0,,,,-0.0048396917490023,-2.14022389448982,0.0270313199982443,,-1.750978952691586,,
,6140.0,1833.0,5745.0,1572.0,3009.0,2398.0,1103.0,,,,-0.0047246542643388,-2.13941612151306,0.0269511796687458,,-1.8197355818806302,,
,6139.0,1833.0,5744.0,1570.0,3008.0,2402.0,1100.0,,,,-0.0047032692292018,-2.13944153029882,0.0269786537854963,,-1.8763024058720934,,
,6139.0,1832.0,5740.0,1568.0,3011.0,2378.0,1101.0,,,,-0.0046497728967455,-2.13922513540249,0.0271720926046328,,-1.924470278058921,,
,6140.0,1831.0,5742.0,1570.0,3018.0,2371.0,1101.0,,,,-0.0046327808689636,-2.13955925170618,0.0272094898952679,,-1.9675907508464188,,
,6140.0,1832.0,5744.0,1571.0,3009.0,2371.0,1113.0,,,,-0.0046608760428402,-2.13957575514922,0.0269809873608769,,-2.0085459578099205,,
,6142.0,1836.0,5745.0,1572.0,3008.0,2379.0,1104.0,,,,-0.0047553374802368,-2.13948504964295,0.0273292004338701,,-2.049714205317983,,
,6142.0,1834.0,5743.0,1571.0,3000.0,2379.0,1091.0,,,,-0.0047592377767087,-2.13994594571718,0.0269525106476008,,-2.0929201026551825,,
,6142.0,1832.0,5745.0,1573.0,3004.0,2353.0,1100.0,,,,-0.0047987418002421,-2.13998620544191,0.0274133996053133,,-2.139366265453057,,
,6143.0,1834.0,5745.0,1572.0,3009.0,2358.0,1102.0,,,,-0.0048367875372211,-2.1400858632332,0.026855928757177,,-2.1895510009356958,,
,6144.0,1836.0,5748.0,1573.0,3009.0,2362.0,1136.0,,,,-0.0048089983123995,-2.13980765636138,0.0270676505996414,,-2.243181707877766,,
,6146.0,1834.0,5746.0,1574.0,3008.0,2368.0,1128.0,,,,-0.0049000013988721,-2.13977733739966,0.0269935000044479,,-2.299096540600785,,
,6144.0,1834.0,5745.0,1571.0,3003.0,2369.0,1112.0,,,,-0.0047878496936363,-2.13987971877995,0.0269005262934899,,-2.3552074119899045,,
,6149.0,1835.0,5751.0,1574.0,3001.0,2352.0,1103.0,,,,-0.0048237637365562,-2.13994340982005,0.0271452179559655,,-2.408476496797899,,
,6149.0,1837.0,5752.0,1576.0,3002.0,2348.0,1110.0,,,,-0.0047934723799618,-2.13983804348238,0.0272662809576471,,-2.4549371268423363,,
,6149.0,1837.0,5754.0,1575.0,3003.0,2354.0,1105.0,,,,-0.0046390331761868,-2.13958380782367,0.0269868411535629,,-2.4897689573772324,,
,6150.0,1836.0,5753.0,1577.0,3006.0,2373.0,1137.0,,,,-0.004613069193414,-2.13955049629743,0.0272040696170532,,-2.5074363630328502,,
,6152.0,1841.0,5757.0,1578.0,3008.0,2377.0,1138.0,,,,-0.0044428451617808,-2.13971809976917,0.0272868787966499,,-2.5018974822517492,,
,6154.0,1841.0,5760.0,1577.0,3010.0,2347.0,1111.0,,,,-0.0044337597693887,-2.13994969895897,0.0271860169419055,,-2.4668882211014083,,
,6156.0,1843.0,5761.0,1580.0,3008.0,2368.0,1113.0,,,,-0.0043692868999875,-2.1392775569859,0.0273858639241149,,-2.3962799243001798,,
,6157.0,1843.0,5763.0,1578.0,3002.0,2350.0,1089.0,,,,-0.0043050231391295,-2.13943906225356,0.0273871472450365,,-2.2845008508990503,,
,6157.0,1842.0,5762.0,1578.0,3006.0,2317.0,1103.0,,,,-0.004314915036498,-2.13927607248206,0.0273323619174036,,-2.1270004836950016,,
,6161.0,1841.0,5767.0,1579.0,3001.0,2333.0,1102.0,,,,-0.0044100454933413,-2.13940389085985,0.0275049859470026,,-1.920723616750034,,
,6161.0,1842.0,5769.0,1580.0,3010.0,2361.0,1101.0,,,,-0.0045137376256326,-2.14013544003487,0.0273617805982937,,-1.6645508912583482,,
,6161.0,1844.0,5770.0,1582.0,3011.0,2368.0,1090.0,,,,-0.0046407224730562,-2.14058018322646,0.027400269565595,,-1.3596576460582948,,
,6162.0,1843.0,5768.0,1580.0,3003.0,2372.0,1086.0,,,,-0.0047545633743773,-2.14061220785541,0.0269893836722858,,-1.0097464818335165,,
,6164.0,1847.0,5772.0,1583.0,3015.0,2351.0,1119.0,,,,-0.0048054509096092,-2.14140502732343,0.0268984036634043,,-0.6211204662374706,,
,6166.0,1846.0,5775.0,1585.0,3011.0,2355.0,1115.0,,,,-0.0049311300257665,-2.14198426370306,0.0266535308119331,,-0.20257949356064922,,
,6167.0,1845.0,5777.0,1583.0,3012.0,2368.0,1111.0,,,,-0.0049804306680304,-2.1426690363251,0.0267939233437513,,0.23486260883827845,,
,6168.0,1846.0,5778.0,1587.0,3017.0,2384.0,1080.0,,,,-0.0051779294339435,-2.14301331526524,0.0265888938256895,,0.6784297611405119,,
,6171.0,1849.0,5779.0,1585.0,3014.0,2391.0,1075.0,,,,-0.0051729702461205,-2.14319993625954,0.026756718436015,,1.1141813848407436,,
,6172.0,1847.0,5781.0,1586.0,3018.0,2383.0,1088.0,,,,-0.0053748472988207,-2.14387560135904,0.0265343648798682,,1.5277199733787128,,
,6172.0,1850.0,5782.0,1587.0,3012.0,2379.0,1093.0,,,,-0.0054396299662522,-2.1444826853577,0.0261314518049362,,1.9049583768830365,,
,6170.0,1847.0,5784.0,1587.0,3008.0,2344.0,1094.0,,,,-0.0056179749665727,-2.14479319147339,0.0263452535789579,,2.2328866651463937,,
,6167.0,1846.0,5780.0,1585.0,3007.0,2354.0,1119.0,,,,-0.0058472879034637,-2.14530797671999,0.025829216328813,,2.5002764290158486,,
,6167.0,1848.0,5776.0,1585.0,2999.0,2343.0,1124.0,,,,-0.0058260921632393,-2.14496942534164,0.0254257772779198,,2.6982677410894933,,
,6163.0,1844.0,5773.0,1584.0,2996.0,2365.0,1128.0,,,,-0.0060282987653425,-2.14587573651754,0.0253298213050792,,2.820798742596526,,
,6159.0,1843.0,5767.0,1582.0,2996.0,2374.0,1122.0,,,,-0.0059655708616479,-2.14637470837378,0.0252575620825955,,2.8648560882779446,,
,6157.0,1840.0,5762.0,1582.0,2993.0,2358.0,1123.0,,,,-0.0061190830738245,-2.14586512971327,0.0252193109330632,,2.8305422968317364,,
,6153.0,1839.0,5756.0,1580.0,2999.0,2358.0,1139.0,,,,-0.0061405159841437,-2.14612370185455,0.0249632810186714,,2.7209707107021393,,
,6150.0,1837.0,5753.0,1578.0,3002.0,2354.0,1113.0,,,,-0.0062036157461789,-2.14644601909833,0.0250765314690557,,2.5420091663701587,,
,6147.0,1836.0,5748.0,1577.0,3001.0,2360.0,1111.0,,,,-0.0062028268116543,-2.1470837444702,0.0251526420716208,,2.301899550949845,,
,6142.0,1834.0,5743.0,1574.0,3002.0,2366.0,1135.0,,,,-0.0061885569195973,-2.14624527896791,0.0247877907166077,,2.0107826409826304,,
,6139.0,1832.0,5739.0,1573.0,3003.0,2362.0,1127.0,,,,-0.006156570556213,-2.14639054380001,0.0251464193419503,,1.6801570612990755,,
,6139.0,1831.0,5736.0,1573.0,3004.0,2374.0,1130.0,,,,-0.0060284874871344,-2.14569478781524,0.0253597826771194,,1.32229954595431,,
,6136.0,1827.0,5731.0,1569.0,3009.0,2371.0,1130.0,,,,-0.0059935407522321,-2.14532651286656,0.0252654523581097,,0.9496725869982001,,
,6135.0,1832.0,5729.0,1569.0,3006.0,2373.0,1105.0,,,,-0.0060110988387338,-2.14576569048435,0.0254696084167604,,0.5743458652078729,,
,6133.0,1830.0,5728.0,1566.0,3000.0,2372.0,1098.0,,,,-0.0058262410215759,-2.14473556632595,0.0255325792821693,,0.20745925411589297,,
,6132.0,1827.0,5727.0,1568.0,3010.0,2369.0,1090.0,,,,-0.0056878462114752,-2.14469800575999,0.0259927515627887,,-0.14124372595478094,,
,6130.0,1827.0,5728.0,1567.0,3009.0,2376.0,1100.0,,,,-0.0055540944301525,-2.14451058169401,0.0259961957474405,,-0.46378440136984744,,
,6131.0,1826.0,5724.0,1566.0,3012.0,2371.0,1088.0,,,,-0.0054477955422293,-2.143972474426,0.0262655433475275,,-0.7541971035496726,,
,6127.0,1828.0,5724.0,1566.0,3017.0,2369.0,1086.0,,,,-0.0054117204403695,-2.14382965870789,0.0261562976959889,,-1.0086442208274065,,
,6131.0,1828.0,5724.0,1568.0,3013.0,2376.0,1069.0,,,,-0.0053006566970479,-2.14416666088069,0.0262436987517854,,-1.2253974328451624,,
,6132.0,1828.0,5722.0,1567.0,3014.0,2380.0,1066.0,,,,-0.0054020728058308,-2.14336014587756,0.026405621369932,,-1.4046966032718236,,
,6133.0,1827.0,5723.0,1567.0,3013.0,2363.0,1071.0,,,,-0.0054918089444296,-2.14348359488735,0.0264341210443317,,-1.5485081130492597,,
,6132.0,1827.0,5725.0,1566.0,3015.0,2362.0,1067.0,,,,-0.0054291185948835,-2.14347706269738,0.0264866189411537,,-1.6602115773549628,,
,6131.0,1827.0,5725.0,1567.0,3006.0,2346.0,1105.0,,,,-0.0054050078932511,-2.14355770717196,0.026328118686807,,-1.7442470762826225,,
,6132.0,1827.0,5727.0,1569.0,3003.0,2354.0,1100.0,,,,-0.0053607733167608,-2.14342458537535,0.0261242777898216,,-1.8057538094833108,,
,6134.0,1830.0,5727.0,1569.0,2995.0,2361.0,1101.0,,,,-0.005380569723643,-2.14393141283629,0.0264243284231216,,-1.8502257311005985,,
,6137.0,1830.0,5728.0,1569.0,2990.0,2362.0,1098.0,,,,-0.0054282476948609,-2.14429743649894,0.0263191541608216,,-1.88320123639141,,
,6135.0,1830.0,5727.0,1567.0,2993.0,2377.0,1111.0,,,,-0.0054176227145166,-2.14418893942892,0.0261221625770247,,-1.909993812998637,,
,6136.0,1833.0,5730.0,1569.0,2993.0,2362.0,1132.0,,,,-0.00537921605869,-2.14449882893077,0.0262433339670676,,-1.935460615816495,,
,6138.0,1833.0,5733.0,1571.0,2991.0,2372.0,1125.0,,,,-0.0054260685032174,-2.14475570944752,0.0261560657080935,,-1.9637984669729642,,
,6138.0,1832.0,5732.0,1572.0,2992.0,2374.0,1126.0,,,,-0.0054740191055911,-2.14474786342939,0.0262219198417446,,-1.9983538410186092,,
,6140.0,1831.0,5731.0,1571.0,3007.0,2374.0,1131.0,,,,-0.0055466272201345,-2.14450432582695,0.0258509573205834,,-2.0414357250093365,,
,6138.0,1832.0,5731.0,1572.0,3010.0,2362.0,1134.0,,,,-0.0055863908906504,-2.1444780304968,0.0261703200295767,,-2.094127130572277,,
,6137.0,1833.0,5738.0,1572.0,3004.0,2361.0,1127.0,,,,-0.0054305927378388,-2.14459435113604,0.0261234271622357,,-2.1561008761284706,,
,6141.0,1831.0,5735.0,1573.0,3002.0,2355.0,1117.0,,,,-0.0054092292217177,-2.14395312524037,0.0265135451248145,,-2.2254560291933823,,
,6138.0,1832.0,5734.0,1573.0,3005.0,2365.0,1122.0,,,,-0.0053714572306134,-2.14406991301244,0.0264388287809688,,-2.2986008508962654,,
,6140.0,1832.0,5734.0,1572.0,3011.0,2350.0,1098.0,,,,-0.005401796801218,-2.14366627899275,0.02670902817676,,-2.370214077658619,,
,6139.0,1831.0,5737.0,1572.0,3004.0,2338.0,1103.0,,,,-0.0053051441413279,-2.14382462151643,0.0268758053043607,,-2.4333173044546594,,
,6140.0,1832.0,5735.0,1573.0,3002.0,2368.0,1105.0,,,,-0.0052618393471349,-2.14350722505354,0.0267699942937023,,-2.4794861957358276,,
,6141.0,1834.0,5731.0,1571.0,3002.0,2358.0,1096.0,,,,-0.005279656227721,-2.14359964662406,0.0271736193576081,,-2.4992170483098466,,
