TimeLabel,MEAS1_PPG1,MEAS1_PPG2,MEAS1_PPG3,MEAS1_PPG4,ACCX,ACCY,ACCZ,HR_timestamp,HR_value,radar_timestamp,phase_rx0,phase_rx1,phase_rx2,timestep,n_process,original_rate,calculated_rate
2025-07-01 20:34:30,4918.0,538.0,4308.0,710.0,72.0,1268.0,3722.0,2025-07-01 20:34:30,107.0,2025/07/01 08:34:30 PM,0.0979531729402576,-0.15499003816518,1.62627599062856,2025/07/01 08:34:30 PM,0.9359417557650769,23.25581359863281,20.827067669172926
,4918.0,538.0,4308.0,708.0,71.0,1248.0,3736.0,2025-07-01 20:34:31,106.0,,0.0979766299779013,-0.154485635696529,1.62786077609565,2025/07/01 08:34:40 PM,0.5459907554600512,20.013341903686523,20.589184826472962
,4922.0,543.0,4309.0,710.0,66.0,1288.0,3738.0,2025-07-01 20:34:32,106.0,,0.0979939815114145,-0.154064705896913,1.6292230778406,2025/07/01 08:34:50 PM,0.1775166038052466,20.761245727539062,20.047421406739968
,4921.0,539.0,4308.0,712.0,69.0,1288.0,3749.0,2025-07-01 20:34:33,105.0,,0.0980105906928679,-0.153912253814306,1.63066917252565,2025/07/01 08:35:00 PM,-0.1632675019130543,20.361989974975582,21.001877453490355
,4926.0,539.0,4306.0,708.0,60.0,1269.0,3760.0,2025-07-01 20:34:34,104.0,,0.098020839125106,-0.153559209972408,1.63282749127209,2025/07/01 08:35:10 PM,-0.47188616663167576,20.57613182067871,20.175192342700573
,4924.0,538.0,4306.0,708.0,72.0,1294.0,3748.0,2025-07-01 20:34:35,103.0,,0.0980354336572135,-0.153104021793887,1.63474581149128,2025/07/01 08:35:20 PM,-0.7456484089350358,20.485584259033203,20.003704732796148
,4926.0,541.0,4306.0,707.0,69.0,1266.0,3720.0,2025-07-01 20:34:36,102.0,,0.0980580450534834,-0.152904997870558,1.63558544546578,2025/07/01 08:35:30 PM,-0.9835739406571998,20.68965530395508,21.562998405103645
,4929.0,542.0,4306.0,709.0,72.0,1284.0,3740.0,2025-07-01 20:34:37,102.0,,0.098068766122642,-0.152531288305313,1.63728023890556,2025/07/01 08:35:40 PM,-1.186220267108608,20.439062118530277,21.943902262705116
,4927.0,541.0,4303.0,710.0,78.0,1284.0,3736.0,2025-07-01 20:34:38,101.0,,0.0980727508912633,-0.152536390981169,1.63725828680509,2025/07/01 08:35:50 PM,-1.3554409507918848,21.246458053588867,22.641509433962277
,4929.0,539.0,4305.0,707.0,75.0,1273.0,3741.0,2025-07-01 20:34:39,101.0,,0.098079428156604,-0.152514342044441,1.63906942155085,2025/07/01 08:36:00 PM,-1.4941089601627418,22.357723236083984,22.583912611717963
,4930.0,539.0,4305.0,709.0,78.0,1243.0,3737.0,2025-07-01 20:34:40,101.0,,0.0980850496826819,-0.152260654701818,1.63944559851348,2025/07/01 08:36:10 PM,-1.6058371058486596,22.388059616088867,21.485411140583533
,4933.0,539.0,4303.0,709.0,75.0,1256.0,3743.0,2025-07-01 20:34:41,101.0,,0.0980970248249548,-0.1521348791483,1.63974397259651,2025/07/01 08:36:20 PM,-1.694720521935832,22.633745193481445,21.338004101161996
,4934.0,539.0,4304.0,710.0,69.0,1259.0,3738.0,2025-07-01 20:34:42,101.0,,0.0981060289122358,-0.151980680594913,1.64133520024694,2025/07/01 08:36:30 PM,-1.765114797906112,21.849964141845703,22.68810554524842
,4935.0,541.0,4302.0,710.0,66.0,1280.0,3730.0,2025-07-01 20:34:43,101.0,,0.0981290565174207,-0.151601207365887,1.64232419686151,2025/07/01 08:36:40 PM,-1.8214497599550297,21.834060668945312,23.345803133037183
,4938.0,540.0,4302.0,706.0,66.0,1293.0,3740.0,2025-07-01 20:34:44,101.0,,0.0981533804205109,-0.151458723727482,1.6441074581835,2025/07/01 08:36:50 PM,-1.8680667110078086,17.977527618408203,22.114922813036006
,4940.0,541.0,4308.0,714.0,68.0,1245.0,3749.0,2025-07-01 20:34:45,101.0,,0.0981655748822508,-0.151056695181074,1.64529910379937,2025/07/01 08:37:00 PM,-1.9090603367002195,18.392370223999023,23.59017346570797
,4943.0,541.0,4308.0,713.0,51.0,1253.0,3744.0,2025-07-01 20:34:46,101.0,,0.0981711038341665,-0.150747947784852,1.64623300349094,2025/07/01 08:37:10 PM,-1.9481078899999236,22.996515274047848,22.976370035193586
,4946.0,543.0,4307.0,714.0,57.0,1263.0,3738.0,2025-07-01 20:34:47,101.0,,0.0981862604539993,-0.150424422815631,1.64759454720958,2025/07/01 08:37:20 PM,-1.9882768884012678,23.521026611328125,23.409090909090878
,4948.0,543.0,4310.0,711.0,64.0,1277.0,3735.0,2025-07-01 20:34:48,101.0,,0.0982051973156523,-0.150209875673858,1.64907369115825,,-2.031815057238677,,
,4951.0,541.0,4309.0,711.0,51.0,1263.0,3746.0,2025-07-01 20:34:49,102.0,,0.0982209455824161,-0.149699677748129,1.65016187560219,,-2.0799387569076546,,
,4949.0,543.0,4314.0,713.0,64.0,1251.0,3731.0,2025-07-01 20:34:50,102.0,,0.0982419245242194,-0.149304761449805,1.65181168919274,,-2.132645756219832,,
,4954.0,542.0,4314.0,715.0,73.0,1262.0,3722.0,2025-07-01 20:34:51,103.0,,0.0982562749794772,-0.148874281649602,1.65469583858176,,-2.1885832803374816,,
,4956.0,541.0,4315.0,710.0,84.0,1255.0,3732.0,2025-07-01 20:34:52,103.0,,0.0982761850045021,-0.148640361104697,1.65621204898619,,-2.245001772006974,,
,4959.0,543.0,4317.0,712.0,77.0,1262.0,3732.0,2025-07-01 20:34:53,103.0,,0.0983039167177948,-0.148300511953479,1.65744795996133,,-2.2978180997153066,,
,4962.0,544.0,4317.0,715.0,63.0,1285.0,3744.0,2025-07-01 20:34:54,103.0,,0.098312340574203,-0.147641253965149,1.65898620854307,,-2.3417990713488757,,
,4965.0,543.0,4321.0,715.0,58.0,1295.0,3748.0,2025-07-01 20:34:55,103.0,,0.0983267444880844,-0.147614408481849,1.66015919281148,,-2.3708587430103503,,
,4966.0,544.0,4323.0,716.0,71.0,1267.0,3758.0,2025-07-01 20:34:56,103.0,,0.0983455851272169,-0.14728319591171,1.66211006464372,,-2.3784449699294345,,
,4965.0,541.0,4323.0,713.0,84.0,1260.0,3739.0,2025-07-01 20:34:57,103.0,,0.0983590791168419,-0.14705297210445,1.66351893298163,,-2.3579768733486213,,
,4967.0,543.0,4326.0,715.0,76.0,1263.0,3747.0,2025-07-01 20:34:58,103.0,,0.0983632557742245,-0.14685928640137,1.66451240097057,,-2.30328909771889,,
,4973.0,546.0,4329.0,717.0,60.0,1239.0,3760.0,2025-07-01 20:34:59,104.0,,0.0983823067618535,-0.146413560298757,1.66629782270356,,-2.209041513403602,,
,4977.0,545.0,4332.0,717.0,58.0,1240.0,3759.0,2025-07-01 20:35:00,104.0,,0.0983977058051107,-0.146087904896497,1.66637942697614,,-2.0710621929433053,,
,4978.0,544.0,4332.0,717.0,55.0,1237.0,3765.0,2025-07-01 20:35:01,104.0,,0.0984109207124711,-0.145762722011506,1.66820014822546,,-1.8866039893584343,,
,4981.0,545.0,4334.0,716.0,68.0,1241.0,3769.0,2025-07-01 20:35:02,104.0,,0.0984288680329991,-0.145127678746745,1.67028159152617,,-1.6545083941625238,,
,4981.0,547.0,4337.0,718.0,74.0,1251.0,3749.0,2025-07-01 20:35:03,104.0,,0.0984476734649452,-0.144767287936007,1.67145838181856,,-1.3752826272738226,,
,4986.0,548.0,4341.0,719.0,62.0,1260.0,3745.0,2025-07-01 20:35:04,104.0,,0.098427795649848,-0.144639523502558,1.67289086321752,,-1.0511051144707986,,
,4988.0,547.0,4342.0,721.0,57.0,1285.0,3726.0,2025-07-01 20:35:05,104.0,,0.0984545423771515,-0.144403965191062,1.67272689155862,,-0.6857785818614739,,
,4985.0,544.0,4338.0,714.0,62.0,1264.0,3730.0,2025-07-01 20:35:06,104.0,,0.0984572721632283,-0.144429302028915,1.67312022377661,,-0.28464776828774346,,
,4986.0,544.0,4332.0,717.0,63.0,1281.0,3745.0,2025-07-01 20:35:07,103.0,,0.0984653380219128,-0.144314607161243,1.67415026180737,,0.14550877547852145,,
,4982.0,545.0,4322.0,715.0,51.0,1270.0,3726.0,2025-07-01 20:35:08,103.0,,0.0984706540375107,-0.144112461125304,1.67492831621961,,0.5966126605773738,,
,4978.0,544.0,4310.0,712.0,46.0,1278.0,3737.0,2025-07-01 20:35:09,103.0,,0.0984878905848775,-0.143866034079995,1.67665884562225,,1.0594520401718484,,
,4971.0,542.0,4295.0,710.0,64.0,1260.0,3739.0,2025-07-01 20:35:10,103.0,,0.098509357458962,-0.143179169826838,1.67890836145312,,1.5238887649238377,,
,4969.0,541.0,4282.0,710.0,75.0,1246.0,3752.0,2025-07-01 20:35:11,102.0,,0.098544799656155,-0.142420207514839,1.6813840033436,,1.9791119743131136,,
,4964.0,539.0,4266.0,707.0,58.0,1234.0,3735.0,2025-07-01 20:35:12,102.0,,0.0985671495839992,-0.141989235368353,1.68386325215579,,2.4139389129096065,,
,4954.0,539.0,4256.0,704.0,71.0,1238.0,3743.0,2025-07-01 20:35:13,102.0,,0.0985598452065317,-0.14208386026062,1.68381707313968,,2.8171585100264434,,
,4950.0,539.0,4242.0,703.0,75.0,1245.0,3754.0,2025-07-01 20:35:14,102.0,,0.0985457385253464,-0.142396709921588,1.68312524052191,,3.1779081833092304,,
,4941.0,535.0,4228.0,699.0,69.0,1269.0,3769.0,2025-07-01 20:35:15,102.0,,0.0985251896799797,-0.143305537620306,1.67981465371864,,3.486069571989279,,
,4938.0,535.0,4217.0,699.0,58.0,1253.0,3728.0,2025-07-01 20:35:16,102.0,,0.0984814203398056,-0.143956816808991,1.67678288542056,,3.732665110693019,,
,4936.0,536.0,4212.0,699.0,67.0,1253.0,3721.0,2025-07-01 20:35:17,102.0,,0.0984429098043674,-0.14463127194108,1.67295908204994,,3.910235582681663,,
,4933.0,534.0,4202.0,696.0,66.0,1260.0,3716.0,2025-07-01 20:35:18,102.0,,0.0984130316980563,-0.14537033005159,1.66986485451312,,4.013179630204015,,
,4931.0,535.0,4198.0,695.0,69.0,1277.0,3728.0,2025-07-01 20:35:19,102.0,,0.0983822672661263,-0.145998940441848,1.66775353186645,,4.038038755799755,,
,4928.0,532.0,4192.0,694.0,73.0,1285.0,3741.0,2025-07-01 20:35:20,102.0,,0.0983598623081164,-0.146594726744355,1.66500215344579,,3.983713365314688,,
,4928.0,536.0,4192.0,696.0,57.0,1266.0,3764.0,2025-07-01 20:35:21,101.0,,0.0983290514137897,-0.147289005296212,1.66217534996237,,3.8515951601731473,,
,4927.0,532.0,4190.0,695.0,70.0,1264.0,3752.0,2025-07-01 20:35:22,101.0,,0.0982955628440295,-0.148058757615783,1.65909006571529,,3.645599508366714,,
,4926.0,536.0,4188.0,697.0,77.0,1251.0,3749.0,2025-07-01 20:35:23,102.0,,0.0982895060325003,-0.148800863980126,1.6569770125955,,3.37208130558152,,
,4928.0,531.0,4185.0,693.0,72.0,1241.0,3767.0,2025-07-01 20:35:24,102.0,,0.0982543634391442,-0.149062612232224,1.65457243753354,,3.0396219764504457,,
,4928.0,537.0,4187.0,697.0,62.0,1241.0,3748.0,2025-07-01 20:35:25,102.0,,0.0982353809038025,-0.14953038412993,1.65194853833484,,2.658684210690491,,
,4929.0,535.0,4185.0,695.0,55.0,1249.0,3767.0,2025-07-01 20:35:26,102.0,,0.0982079976000995,-0.149996232462916,1.64952785553075,,2.2411433555233606,,
,4931.0,535.0,4187.0,696.0,66.0,1249.0,3753.0,2025-07-01 20:35:27,102.0,,0.0981771239633057,-0.150471090660011,1.64756729769592,,1.799717945385852,,
,4931.0,534.0,4189.0,694.0,60.0,1243.0,3731.0,2025-07-01 20:35:28,102.0,,0.098162536975506,-0.15088119536807,1.64477552654911,,1.3473347459698128,,
,4933.0,534.0,4192.0,697.0,61.0,1222.0,3718.0,2025-07-01 20:35:29,102.0,,0.0981275460796315,-0.15127430053536,1.64386885211394,,0.8964744339622636,,
,4933.0,534.0,4197.0,698.0,75.0,1229.0,3720.0,2025-07-01 20:35:30,101.0,,0.0981089351351506,-0.151518256041251,1.64165304070443,,0.4585510363672718,,
,4936.0,535.0,4198.0,699.0,83.0,1232.0,3745.0,2025-07-01 20:35:31,101.0,,0.0980955694304777,-0.151936381285618,1.64016309743502,,0.04337936371951597,,
,4939.0,536.0,4200.0,697.0,79.0,1248.0,3778.0,2025-07-01 20:35:32,101.0,,0.0980891826582102,-0.151939638401192,1.63920064778529,,-0.3412222548821457,,
,4940.0,534.0,4201.0,698.0,72.0,1253.0,3759.0,2025-07-01 20:35:33,101.0,,0.0980769230340101,-0.152416799149835,1.63815629341252,,-0.6896620083556141,,
,4944.0,535.0,4207.0,698.0,63.0,1246.0,3730.0,2025-07-01 20:35:34,101.0,,0.098085438719703,-0.152067246121307,1.63835197212821,,-0.9986266815577522,,
,4946.0,540.0,4211.0,700.0,75.0,1259.0,3768.0,2025-07-01 20:35:35,101.0,,0.0980853779818054,-0.152197731948944,1.63874639528493,,-1.2669671797541333,,
,4949.0,537.0,4214.0,701.0,79.0,1255.0,3755.0,2025-07-01 20:35:36,101.0,,0.0980893242855323,-0.15190725815153,1.63922768719988,,-1.4954473039373053,,
,4950.0,537.0,4211.0,697.0,62.0,1269.0,3748.0,2025-07-01 20:35:37,101.0,,0.0980904772137909,-0.151708217763329,1.64043082427993,,-1.6863974931497656,,
,4953.0,538.0,4217.0,699.0,64.0,1252.0,3749.0,2025-07-01 20:35:38,101.0,,0.0981042445216834,-0.151477565291886,1.64217405618019,,-1.8433198259477062,,
,4956.0,540.0,4221.0,704.0,69.0,1251.0,3742.0,2025-07-01 20:35:39,101.0,,0.0981244542962471,-0.151177378307412,1.64430687367007,,-1.9704880703951277,,
,4960.0,539.0,4220.0,704.0,54.0,1244.0,3733.0,2025-07-01 20:35:40,101.0,,0.0981625721005407,-0.150488740404384,1.64639437703086,,-2.072577837515193,,
,4961.0,539.0,4224.0,703.0,55.0,1255.0,3728.0,2025-07-01 20:35:41,101.0,,0.0982078303100779,-0.14977365423263,1.6491553658739,,-2.154348400736129,,
,4959.0,538.0,4223.0,700.0,64.0,1264.0,3725.0,2025-07-01 20:35:42,101.0,,0.0982445965578507,-0.149306656610297,1.65206856620597,,-2.2203820570932638,,
,4963.0,537.0,4227.0,701.0,59.0,1255.0,3754.0,2025-07-01 20:35:43,101.0,,0.0982673708225405,-0.148857737009634,1.65430192734823,,-2.274872889508723,,
,4968.0,542.0,4226.0,702.0,74.0,1236.0,3746.0,2025-07-01 20:35:44,101.0,,0.0982976973596293,-0.148522213482129,1.65660150332578,,-2.321448580168953,,
,4966.0,540.0,4230.0,702.0,75.0,1232.0,3749.0,2025-07-01 20:35:45,101.0,,0.0983124501874292,-0.148057614144556,1.65885214792766,,-2.363008830447268,,
,4969.0,541.0,4227.0,703.0,62.0,1252.0,3739.0,2025-07-01 20:35:46,101.0,,0.098315443665751,-0.147627355255584,1.659815822316,,-2.401571061136396,,
,4970.0,538.0,4226.0,701.0,68.0,1240.0,3730.0,2025-07-01 20:35:47,102.0,,0.0983324834641388,-0.147234626186708,1.66290106697668,,-2.438125037281154,,
,4970.0,539.0,4225.0,702.0,73.0,1220.0,3721.0,2025-07-01 20:35:48,102.0,,0.0983589895258623,-0.14700405289504,1.66337033476133,,-2.472509116811961,,
,4973.0,541.0,4227.0,703.0,63.0,1239.0,3722.0,2025-07-01 20:35:49,102.0,,0.0983731173525808,-0.146582422061759,1.66457090774522,,-2.503329181443246,,
,4975.0,543.0,4227.0,701.0,62.0,1267.0,3733.0,2025-07-01 20:35:50,102.0,,0.0983851939458761,-0.146215361179613,1.66570881148421,,-2.527945213147348,,
,4974.0,540.0,4225.0,701.0,59.0,1270.0,3736.0,2025-07-01 20:35:51,102.0,,0.0983896461436233,-0.146066335428687,1.66629550447552,,-2.542548718708673,,
,4976.0,539.0,4228.0,702.0,51.0,1266.0,3726.0,2025-07-01 20:35:52,102.0,,0.0984008134736183,-0.146054969766714,1.6674691962323,,-2.5423460699059306,,
,4979.0,540.0,4227.0,703.0,70.0,1260.0,3730.0,2025-07-01 20:35:53,102.0,,0.0984104856772108,-0.145771545688292,1.6689797949841,,-2.5218487055553984,,
,4981.0,541.0,4227.0,703.0,62.0,1250.0,3737.0,2025-07-01 20:35:54,102.0,,0.0984273706238949,-0.145503813212597,1.66866029764712,,-2.4752533601358344,,
,4979.0,540.0,4228.0,701.0,72.0,1256.0,3753.0,2025-07-01 20:35:55,103.0,,0.098431231500586,-0.145362344988319,1.67064328704029,,-2.3968784825937437,,
,4984.0,542.0,4228.0,702.0,76.0,1269.0,3751.0,2025-07-01 20:35:56,103.0,,0.0984445647857287,-0.145037653347052,1.67205383139159,,-2.281611968106274,,
,4983.0,540.0,4232.0,705.0,84.0,1283.0,3748.0,2025-07-01 20:35:57,103.0,,0.0984544833879008,-0.144548979199605,1.67303203334806,,-2.125323685527939,,
,4987.0,543.0,4231.0,702.0,85.0,1258.0,3749.0,2025-07-01 20:35:58,103.0,,0.0984675355029407,-0.144557020571066,1.67387742113595,,-1.9252040506290418,,
,4986.0,542.0,4230.0,703.0,75.0,1272.0,3711.0,2025-07-01 20:35:59,102.0,,0.0984611887577408,-0.144502008277229,1.67365051672764,,-1.6800040960309868,,
,4988.0,542.0,4229.0,702.0,90.0,1267.0,3728.0,2025-07-01 20:36:00,102.0,,0.0984751466999762,-0.144124387471653,1.67487362948458,,-1.3901690538889584,,
,4990.0,541.0,4233.0,705.0,72.0,1267.0,3750.0,2025-07-01 20:36:01,102.0,,0.0984729978172202,-0.144304435698293,1.67525857099224,,-1.0578727664070047,,
,4991.0,542.0,4235.0,704.0,76.0,1253.0,3745.0,2025-07-01 20:36:02,101.0,,0.0984680581752723,-0.144143185007458,1.67641950833306,,-0.686971479432908,,
,4995.0,543.0,4235.0,705.0,67.0,1264.0,3736.0,2025-07-01 20:36:03,101.0,,0.0984938032139779,-0.143772039216373,1.67654203867429,,-0.282900714965022,,
,4998.0,541.0,4236.0,703.0,72.0,1267.0,3769.0,2025-07-01 20:36:04,101.0,,0.0985054790848272,-0.143838952147389,1.67755216634894,,0.1474630548651346,,
,4998.0,542.0,4238.0,707.0,62.0,1250.0,3724.0,2025-07-01 20:36:05,102.0,,0.0985077974197296,-0.143711109068475,1.67821438755011,,0.5959625441327537,,
,5003.0,545.0,4243.0,705.0,52.0,1280.0,3719.0,2025-07-01 20:36:06,102.0,,0.0985331549772414,-0.143388695479432,1.67864035181472,,1.0533398187246745,,
,5003.0,544.0,4242.0,706.0,71.0,1282.0,3730.0,2025-07-01 20:36:07,102.0,,0.0985412552710629,-0.143119068497881,1.68071520739179,,1.5094448353455374,,
,5006.0,542.0,4244.0,707.0,74.0,1266.0,3743.0,2025-07-01 20:36:08,102.0,,0.0985541093110555,-0.142612941427137,1.68129410705233,,1.9534852083574652,,
,5004.0,543.0,4247.0,706.0,68.0,1260.0,3723.0,2025-07-01 20:36:09,102.0,,0.0985656350526968,-0.142336272764664,1.68272180048739,,2.3743277390286504,,
,5011.0,544.0,4248.0,706.0,58.0,1251.0,3724.0,2025-07-01 20:36:10,102.0,,0.0985621098400513,-0.142516803587815,1.68314341152371,,2.7608548645620132,,
,5015.0,546.0,4252.0,706.0,54.0,1249.0,3748.0,2025-07-01 20:36:11,102.0,,0.0985815744356802,-0.141883095096477,1.68445053835034,,3.102369517556443,,
,5013.0,544.0,4252.0,707.0,40.0,1275.0,3762.0,2025-07-01 20:36:12,101.0,,0.0985970994274678,-0.141849127026421,1.68539522260069,,3.389031974613909,,
,5017.0,544.0,4254.0,708.0,75.0,1253.0,3737.0,2025-07-01 20:36:13,101.0,,0.0985886384138233,-0.141319445505823,1.68625808724729,,3.6123033900061974,,
,5018.0,544.0,4257.0,707.0,80.0,1253.0,3735.0,2025-07-01 20:36:14,101.0,,0.0985945717834061,-0.141370259665746,1.68687327288514,,3.7653642002486607,,
,5021.0,545.0,4262.0,710.0,74.0,1257.0,3738.0,2025-07-01 20:36:15,101.0,,0.0986214147311227,-0.141090743570334,1.68770084787692,,3.8434731845309584,,
,5024.0,546.0,4262.0,709.0,57.0,1259.0,3746.0,2025-07-01 20:36:16,101.0,,0.0986144021122784,-0.140948398688776,1.6882152842324,,3.844236135167522,,
,5028.0,547.0,4270.0,708.0,66.0,1250.0,3740.0,2025-07-01 20:36:17,100.0,,0.0986285316917081,-0.140856781595314,1.68835722554381,,3.767761791947452,,
,5028.0,548.0,4267.0,709.0,70.0,1234.0,3760.0,2025-07-01 20:36:18,100.0,,0.098639276077501,-0.140647163873803,1.68945674710478,,3.6166945508381816,,
,5030.0,545.0,4271.0,711.0,70.0,1250.0,3771.0,2025-07-01 20:36:19,100.0,,0.098643085501393,-0.140330421555453,1.69025981917047,,3.3961245609961526,,
,5034.0,549.0,4277.0,710.0,70.0,1254.0,3753.0,2025-07-01 20:36:20,100.0,,0.0986418420924596,-0.140286694971806,1.69080852649257,,3.1133832321656625,,
,5037.0,548.0,4278.0,710.0,77.0,1245.0,3740.0,2025-07-01 20:36:21,100.0,,0.0986452590352101,-0.140235954055429,1.69107813027404,,2.77773585262734,,
,5039.0,547.0,4278.0,711.0,72.0,1270.0,3772.0,2025-07-01 20:36:22,100.0,,0.0986615094472461,-0.140401723494962,1.69083103791176,,2.3999850931781896,,
,5039.0,547.0,4279.0,711.0,72.0,1273.0,3760.0,2025-07-01 20:36:23,100.0,,0.0986515568490419,-0.140194459492566,1.69195769124005,,1.9920015816329997,,
,5037.0,548.0,4274.0,708.0,74.0,1272.0,3722.0,2025-07-01 20:36:24,100.0,,0.098662977994675,-0.140090154403891,1.69235515866555,,1.5662009265349222,,
,5037.0,545.0,4266.0,709.0,58.0,1274.0,3751.0,2025-07-01 20:36:25,100.0,,0.0986829173178816,-0.139715924580245,1.69407144305515,,1.1349900562297823,,
,5034.0,547.0,4257.0,706.0,58.0,1285.0,3751.0,2025-07-01 20:36:26,100.0,,0.0987036097455992,-0.139126775327665,1.69588438990532,,0.7102091410555373,,
,5029.0,544.0,4242.0,704.0,58.0,1286.0,3737.0,2025-07-01 20:36:27,100.0,,0.0987372434062239,-0.138650390093272,1.69881114605006,,0.3025987023677472,,
,5022.0,543.0,4231.0,700.0,71.0,1244.0,3744.0,2025-07-01 20:36:28,100.0,,0.0987512434413986,-0.138477367736723,1.6996736178145,,-0.07867538708303184,,
,5014.0,544.0,4216.0,700.0,75.0,1266.0,3734.0,2025-07-01 20:36:29,100.0,,0.0987314298821436,-0.1387180629461,1.69736125928797,,-0.42640462344534463,,
,5012.0,541.0,4206.0,699.0,67.0,1267.0,3725.0,2025-07-01 20:36:30,100.0,,0.0986997046498618,-0.139262193581913,1.69502462094649,,-0.735596005110563,,
,5004.0,538.0,4192.0,695.0,71.0,1266.0,3710.0,2025-07-01 20:36:31,101.0,,0.0986686597639759,-0.139768431750098,1.69325644779349,,-1.0035813237223947,,
,4999.0,537.0,4181.0,690.0,61.0,1248.0,3728.0,2025-07-01 20:36:32,101.0,,0.0986303261978252,-0.14042340083245,1.69078221370912,,-1.2299673480802906,,
,4995.0,538.0,4174.0,694.0,41.0,1239.0,3756.0,2025-07-01 20:36:33,101.0,,0.0985930255538785,-0.141421340979371,1.68663020878214,,-1.416433656428186,,
,4993.0,540.0,4166.0,694.0,55.0,1266.0,3736.0,2025-07-01 20:36:34,101.0,,0.0985544828724162,-0.141827113154843,1.68510060485879,,-1.566400915097078,,
,4989.0,538.0,4160.0,688.0,60.0,1280.0,3727.0,2025-07-01 20:36:35,102.0,,0.0985266807206841,-0.142711832209847,1.68112687169934,,-1.6846045440528286,,
,4987.0,537.0,4154.0,687.0,76.0,1297.0,3737.0,2025-07-01 20:36:36,102.0,,0.0985033902517798,-0.143430407524719,1.67811103355275,,-1.7766156992972846,,
,4984.0,534.0,4151.0,689.0,74.0,1280.0,3762.0,2025-07-01 20:36:37,102.0,,0.0984696502466028,-0.144015153144099,1.67554727078062,,-1.8483531074313317,,
2025-07-01 20:34:31,4985.0,535.0,4147.0,689.0,78.0,1255.0,3751.0,2025-07-01 20:36:38,103.0,2025/07/01 08:34:31 PM,0.0984629463743999,-0.144541236902969,1.67417945906297,,-1.9056256736766737,,
,4982.0,535.0,4146.0,686.0,89.0,1251.0,3749.0,2025-07-01 20:36:39,103.0,,0.0984457265612513,-0.144935488707489,1.67231388370573,,-1.9537373655534644,,
,4984.0,537.0,4146.0,686.0,81.0,1256.0,3739.0,2025-07-01 20:36:40,103.0,,0.098428094760977,-0.145277066525609,1.67119260256373,,-1.997173623846173,,
,4983.0,535.0,4146.0,688.0,64.0,1252.0,3736.0,2025-07-01 20:36:41,103.0,,0.0984039270841851,-0.145676468628712,1.66792423500094,,-2.039374606996278,,
,4983.0,536.0,4146.0,688.0,69.0,1230.0,3761.0,2025-07-01 20:36:42,103.0,,0.0983859680675733,-0.146535451235708,1.6662772048676,,-2.0825884227586458,,
,4987.0,537.0,4148.0,687.0,74.0,1231.0,3762.0,2025-07-01 20:36:43,103.0,,0.0983434133191932,-0.14704386748313,1.66293183142397,,-2.127790775088992,,
,4987.0,536.0,4150.0,689.0,66.0,1234.0,3758.0,2025-07-01 20:36:44,103.0,,0.0983222231581743,-0.147858913430896,1.65997691629088,,-2.174657703643867,,
,4984.0,535.0,4150.0,685.0,53.0,1258.0,3735.0,2025-07-01 20:36:45,102.0,,0.0982918683604068,-0.148421591723427,1.65697594666127,,-2.2215836709067465,,
,4986.0,537.0,4153.0,689.0,61.0,1266.0,3729.0,2025-07-01 20:36:46,101.0,,0.098256481434761,-0.149022206272748,1.65533501114797,,-2.265744589003082,,
,4990.0,538.0,4158.0,689.0,58.0,1246.0,3723.0,2025-07-01 20:36:47,101.0,,0.0982331445654713,-0.149327099303711,1.65298488045696,,-2.3032112168862944,,
,4993.0,538.0,4161.0,690.0,53.0,1235.0,3724.0,2025-07-01 20:36:48,100.0,,0.0982143000801575,-0.149547220269626,1.65124381305629,,-2.3291209299019493,,
,4990.0,536.0,4160.0,688.0,64.0,1220.0,3750.0,2025-07-01 20:36:49,100.0,,0.0982127876363152,-0.149565595061639,1.65178691861589,,-2.337914687496126,,
,4995.0,539.0,4165.0,690.0,64.0,1228.0,3744.0,2025-07-01 20:36:50,99.0,,0.0982151179886318,-0.149488449812775,1.65087827744562,,-2.323641173722868,,
,4997.0,538.0,4170.0,689.0,51.0,1233.0,3746.0,2025-07-01 20:36:51,99.0,,0.0982476172501583,-0.149309996925808,1.65323565807091,,-2.280321739890164,,
,4999.0,539.0,4175.0,691.0,53.0,1269.0,3758.0,2025-07-01 20:36:52,99.0,,0.0982626365810995,-0.149066126980143,1.65410275635386,,-2.2023585211272523,,
,5002.0,541.0,4180.0,694.0,52.0,1276.0,3766.0,2025-07-01 20:36:53,99.0,,0.0982745803596001,-0.148446754852305,1.65539457014229,,-2.0849558187049206,,
,5003.0,540.0,4180.0,692.0,45.0,1252.0,3761.0,2025-07-01 20:36:54,99.0,,0.0982899428592397,-0.148470528336032,1.65715761425338,,-1.9245152917937778,,
,5007.0,539.0,4186.0,693.0,62.0,1270.0,3754.0,2025-07-01 20:36:55,99.0,,0.098311281822993,-0.147879662721351,1.65877284615613,,-1.7189631632004883,,
,5008.0,541.0,4189.0,695.0,73.0,1260.0,3745.0,2025-07-01 20:36:56,99.0,,0.0983422622322366,-0.14756125172256,1.66166291602442,,-1.4679749569949074,,
,5010.0,542.0,4193.0,695.0,70.0,1262.0,3754.0,2025-07-01 20:36:57,99.0,,0.0983680095701536,-0.146685892746166,1.66447194709157,,-1.173078682624781,,
,5013.0,542.0,4193.0,695.0,80.0,1255.0,3739.0,2025-07-01 20:36:58,99.0,,0.0983882289834941,-0.145964818994538,1.66764875598162,,-0.8376361355589359,,
,5015.0,541.0,4195.0,692.0,78.0,1268.0,3720.0,2025-07-01 20:36:59,99.0,,0.0984229403075676,-0.145559110931456,1.66936974577145,,-0.466718929050448,,
,5017.0,541.0,4198.0,695.0,69.0,1254.0,3732.0,2025-07-01 20:37:00,99.0,,0.0984415058674148,-0.14522474771333,1.67078289565641,,-0.06690745306277542,,
,5019.0,540.0,4199.0,692.0,75.0,1236.0,3747.0,2025-07-01 20:37:01,99.0,,0.0984579510851684,-0.144962840591846,1.67139204676894,,0.35395440204738277,,
,5021.0,543.0,4199.0,693.0,65.0,1221.0,3752.0,2025-07-01 20:37:02,99.0,,0.0984644146236016,-0.14475079626362,1.67295556939412,,0.7870184264257204,,
,5018.0,541.0,4202.0,694.0,68.0,1229.0,3727.0,2025-07-01 20:37:03,99.0,,0.0984699331124086,-0.144555285945121,1.67278781098303,,1.222683812009345,,
,5019.0,543.0,4202.0,694.0,56.0,1268.0,3752.0,2025-07-01 20:37:04,98.0,,0.0984632382010224,-0.144561259527175,1.6736353544765,,1.6508337511880302,,
,5021.0,542.0,4203.0,691.0,55.0,1261.0,3758.0,2025-07-01 20:37:05,99.0,,0.0984652325105979,-0.144545015732103,1.67414302882239,,2.061064413393453,,
,5023.0,544.0,4203.0,694.0,61.0,1250.0,3744.0,2025-07-01 20:37:06,99.0,,0.0984610114462765,-0.144516336189478,1.67414203972313,,2.442925605002155,,
,5023.0,541.0,4203.0,693.0,67.0,1260.0,3741.0,2025-07-01 20:37:07,99.0,,0.0984787468405006,-0.144163198644067,1.67423358410303,,2.786196100899947,,
,5023.0,542.0,4203.0,695.0,78.0,1244.0,3724.0,2025-07-01 20:37:08,100.0,,0.098484689463751,-0.144087798989099,1.67566852841561,,3.0812102482656685,,
,5026.0,545.0,4203.0,693.0,78.0,1246.0,3715.0,2025-07-01 20:37:09,100.0,,0.0984933882091341,-0.143917338428126,1.67561850161646,,3.3192381465049237,,
,5028.0,542.0,4207.0,695.0,69.0,1260.0,3730.0,2025-07-01 20:37:10,101.0,,0.0984969917366192,-0.143757800894238,1.67710911526133,,3.4929040989136895,,
,5028.0,544.0,4208.0,696.0,81.0,1275.0,3728.0,2025-07-01 20:37:11,101.0,,0.098510908606646,-0.143465180788778,1.67722950553488,,3.5966114716503452,,
,5026.0,541.0,4207.0,694.0,75.0,1289.0,3739.0,2025-07-01 20:37:12,101.0,,0.0985180644482951,-0.143378771472318,1.67840657751345,,3.6269296434298757,,
,5029.0,542.0,4209.0,695.0,68.0,1266.0,3770.0,2025-07-01 20:37:13,101.0,,0.0985230062144387,-0.143210115075624,1.67880476111612,,3.5828926804013776,,
,5032.0,544.0,4211.0,693.0,70.0,1260.0,3736.0,2025-07-01 20:37:14,101.0,,0.0985197771045932,-0.143115828629688,1.67835465818779,,3.466161764864202,,
,5031.0,544.0,4211.0,695.0,72.0,1261.0,3749.0,2025-07-01 20:37:15,100.0,,0.0985251464848053,-0.142982678154457,1.67964026222148,,3.281015565775407,,
,5033.0,543.0,4213.0,693.0,52.0,1256.0,3735.0,2025-07-01 20:37:16,100.0,,0.0985355719900384,-0.14292281444461,1.67971305502854,,3.034154035113897,,
,5036.0,542.0,4214.0,694.0,66.0,1258.0,3744.0,2025-07-01 20:37:17,100.0,,0.0985445704937239,-0.142606212279198,1.68140469251601,,2.7343278135803,,
,5036.0,544.0,4217.0,696.0,68.0,1273.0,3758.0,2025-07-01 20:37:18,100.0,,0.098559003050851,-0.14264485473885,1.68191641136902,,2.391830901924224,,
,5037.0,543.0,4219.0,695.0,75.0,1277.0,3742.0,2025-07-01 20:37:19,100.0,,0.0985646754843925,-0.142169194013306,1.68177563226027,,2.017911508915567,,
,5039.0,543.0,4221.0,697.0,73.0,1260.0,3746.0,2025-07-01 20:37:20,100.0,,0.0985639382728425,-0.142035557022221,1.68332034468681,,1.6241613028186785,,
,5041.0,543.0,4224.0,693.0,69.0,1252.0,3741.0,2025-07-01 20:37:21,100.0,,0.0985806502227052,-0.141756073373609,1.684012578585,,1.22193772008774,,
,5043.0,543.0,4228.0,697.0,68.0,1244.0,3730.0,2025-07-01 20:37:22,100.0,,0.0985825522153835,-0.141675425499951,1.68462190815826,,0.8218614162491826,,
,5044.0,545.0,4230.0,697.0,62.0,1239.0,3733.0,2025-07-01 20:37:23,100.0,,0.0986004561434683,-0.14180429189389,1.68392536996954,,0.43341529003488666,,
,5047.0,544.0,4231.0,697.0,60.0,1247.0,3738.0,2025-07-01 20:37:24,100.0,,0.0985881819909493,-0.141591601036259,1.68529605013797,,0.06465564052586667,,
,5048.0,546.0,4233.0,699.0,68.0,1258.0,3755.0,2025-07-01 20:37:25,101.0,,0.0985928693783443,-0.141546779820661,1.68484232707347,,-0.27796781811218785,,
,5049.0,544.0,4235.0,696.0,70.0,1266.0,3729.0,2025-07-01 20:37:26,101.0,,0.0986103634436925,-0.141298564365929,1.68623834146019,,-0.5896961654395428,,
,5053.0,546.0,4238.0,698.0,79.0,1267.0,3731.0,2025-07-01 20:37:27,102.0,,0.0986014256969648,-0.140974948462801,1.6861829413283,,-0.8674671120393648,,
,5054.0,546.0,4245.0,700.0,90.0,1264.0,3755.0,2025-07-01 20:37:28,103.0,,0.0986233734086033,-0.140938514513151,1.68832580963939,,-1.1098584468230248,,
,5056.0,547.0,4248.0,699.0,77.0,1263.0,3755.0,2025-07-01 20:37:29,103.0,,0.0986254256337985,-0.14059858104883,1.6895237485348,,-1.3169794870882274,,
,5058.0,548.0,4250.0,700.0,62.0,1257.0,3742.0,,,,0.0986513973467905,-0.140237933732964,1.69018176354632,,-1.4903145822394541,,
,5062.0,548.0,4253.0,702.0,72.0,1252.0,3720.0,,,,0.0986560531419128,-0.140063817336349,1.69017098689238,,-1.632519364573832,,
,5061.0,547.0,4258.0,701.0,75.0,1241.0,3738.0,,,,0.0986536372623563,-0.140173427250833,1.69125650287956,,-1.7471718134578518,,
,5065.0,546.0,4260.0,700.0,74.0,1238.0,3753.0,,,,0.0986673231704056,-0.140078665663126,1.69227267087869,,-1.838485179879895,,
,5066.0,548.0,4265.0,702.0,66.0,1253.0,3741.0,,,,0.0986801579265927,-0.139799151180678,1.69328584955182,,-1.9109958520102714,,
,5070.0,550.0,4267.0,700.0,80.0,1249.0,3740.0,,,,0.0986856576864254,-0.139634952661485,1.6932843770931,,-1.9692442586692722,,
,5072.0,549.0,4272.0,702.0,79.0,1275.0,3755.0,,,,0.098691278552872,-0.13947958259817,1.69317065279563,,-2.0174699060688606,,
,5072.0,549.0,4274.0,702.0,63.0,1261.0,3757.0,,,,0.0986848643607651,-0.139789579414941,1.69405313772272,,-2.059342187042072,,
,5075.0,550.0,4277.0,702.0,72.0,1260.0,3763.0,,,,0.0986906675136135,-0.139661496367967,1.69430874937353,,-2.097746281801357,,
,5079.0,549.0,4280.0,702.0,72.0,1281.0,3775.0,,,,0.0986876964214298,-0.139533849389283,1.69317538791781,,-2.1346378728003668,,
,5078.0,548.0,4282.0,705.0,70.0,1293.0,3763.0,,,,0.0986889627213241,-0.139582166429818,1.69334275056127,,-2.170971669474502,,
,5081.0,551.0,4283.0,702.0,77.0,1273.0,3741.0,,,,0.0986917787862129,-0.139519161756687,1.69414449116068,,-2.206698434099752,,
,5078.0,551.0,4278.0,702.0,72.0,1264.0,3736.0,,,,0.0987064687760094,-0.139207188227908,1.69440849288368,,-2.2408164450246537,,
,5076.0,549.0,4272.0,701.0,61.0,1243.0,3726.0,,,,0.0987322292104112,-0.138544452872424,1.69761109239348,,-2.2714594373827306,,
,5069.0,549.0,4262.0,696.0,68.0,1271.0,3739.0,,,,0.0987612288279916,-0.138048393749902,1.70079877343502,,-2.2960053157665383,,
,5066.0,548.0,4253.0,695.0,57.0,1270.0,3744.0,,,,0.0987705963836689,-0.137750372801182,1.70131567320903,,-2.311196687344095,,
,5060.0,545.0,4242.0,695.0,58.0,1262.0,3730.0,,,,0.0987618153047533,-0.13779798274446,1.70026663964476,,-2.313272189276883,,
,5053.0,544.0,4232.0,692.0,66.0,1251.0,3733.0,,,,0.0987448357579832,-0.138368512601854,1.69840089926284,,-2.2981137433614487,,
,5048.0,543.0,4222.0,689.0,81.0,1241.0,3742.0,,,,0.0987075197172732,-0.139077343686857,1.69584519773186,,-2.2614177346415043,,
,5045.0,541.0,4215.0,688.0,78.0,1236.0,3753.0,,,,0.0986791966525821,-0.139781870768185,1.69315886738699,,-2.1988972339455355,,
,5038.0,542.0,4207.0,686.0,57.0,1251.0,3745.0,,,,0.0986289163433506,-0.140880700486482,1.69004086705218,,-2.106517746393295,,
,5035.0,541.0,4199.0,685.0,65.0,1266.0,3735.0,,,,0.0985877008422016,-0.141609415226372,1.68635435404236,,-1.9807608521448548,,
,5029.0,540.0,4196.0,683.0,74.0,1260.0,3731.0,,,,0.0985597438896557,-0.142381066569608,1.6825560026183,,-1.8188996622592373,,
,5028.0,540.0,4194.0,681.0,73.0,1277.0,3729.0,,,,0.09852084327286,-0.143373388355196,1.67826372186255,,-1.6192600012935439,,
,5022.0,539.0,4188.0,682.0,59.0,1263.0,3726.0,,,,0.0984773177190324,-0.143876383214032,1.6767348746275,,-1.3814357734052554,,
,5023.0,541.0,4188.0,683.0,56.0,1262.0,3733.0,,,,0.0984630418423124,-0.1447809770747,1.67280438740936,,-1.1064295288738193,,
,5023.0,540.0,4190.0,681.0,51.0,1235.0,3723.0,,,,0.0984341368272864,-0.145488608406378,1.66985349724911,,-0.7967000910674547,,
,5019.0,541.0,4187.0,681.0,76.0,1238.0,3735.0,,,,0.0983986095794584,-0.146057125653809,1.66724753573944,,-0.45611479608050143,,
,5020.0,539.0,4189.0,680.0,73.0,1257.0,3752.0,,,,0.0983634761761584,-0.146711950181346,1.66496454700168,,-0.08981938895855737,,
,5022.0,539.0,4196.0,681.0,69.0,1258.0,3729.0,,,,0.0983348049924919,-0.147196279425997,1.66175223133335,,0.29595013781307417,,
,5022.0,542.0,4197.0,683.0,76.0,1266.0,3723.0,,,,0.0983091365529196,-0.147930242505037,1.65948691276566,,0.694084457651685,,
,5021.0,536.0,4197.0,680.0,59.0,1266.0,3741.0,,,,0.0982759424340732,-0.148687552205075,1.65595281405691,,1.096818842747652,,
,5021.0,539.0,4198.0,681.0,65.0,1246.0,3730.0,,,,0.0982539076362213,-0.148975263004071,1.65372824471409,,1.495932063580037,,
,5024.0,540.0,4203.0,681.0,57.0,1232.0,3737.0,,,,0.0982434374891701,-0.149355047008659,1.65270311916958,,1.8829187255645354,,
,5025.0,541.0,4206.0,684.0,68.0,1245.0,3745.0,,,,0.0982304992569585,-0.1494845549474,1.65130021915914,,2.249142308993293,,
,5026.0,541.0,4213.0,686.0,74.0,1252.0,3755.0,,,,0.0982236643417042,-0.149560782534574,1.65009217144961,,2.58598899595039,,
,5027.0,540.0,4214.0,680.0,89.0,1243.0,3752.0,,,,0.0982248862922285,-0.149467818363631,1.65017367928726,,2.8850483015580903,,
,5031.0,542.0,4218.0,683.0,48.0,1232.0,3754.0,,,,0.0982178330123817,-0.149511795098053,1.6509739484634,,3.1383426067866305,,
,5034.0,545.0,4225.0,685.0,55.0,1233.0,3735.0,,,,0.0982358361494657,-0.149472039289586,1.65140826506588,,3.3386149013395374,,
,5032.0,544.0,4227.0,685.0,56.0,1254.0,3730.0,,,,0.098242723873591,-0.149593789472365,1.6521702073755,,3.479666594455385,,
,5036.0,544.0,4233.0,687.0,77.0,1254.0,3763.0,,,,0.0982586404024308,-0.149138326301107,1.65246344584564,,3.556719979659673,,
,5039.0,542.0,4237.0,685.0,62.0,1261.0,3754.0,,,,0.098269358975144,-0.148919938677408,1.65499251272062,,3.566766518550307,,
,5042.0,546.0,4240.0,687.0,71.0,1251.0,3741.0,,,,0.0982858737423613,-0.148589468500871,1.65617502495845,,3.5088549506303948,,
,5043.0,546.0,4245.0,686.0,58.0,1255.0,3739.0,,,,0.0983026700154001,-0.148235805343592,1.65903062991448,,3.3842740028492884,,
,5041.0,546.0,4250.0,687.0,66.0,1242.0,3736.0,,,,0.0983312516292268,-0.147841009743091,1.66056583970507,,3.196594031001942,,
,5044.0,545.0,4249.0,684.0,73.0,1250.0,3722.0,,,,0.098358962794155,-0.147043225571108,1.66347160697575,,2.951549587151765,,
,5043.0,545.0,4252.0,686.0,72.0,1257.0,3740.0,,,,0.0983806602436029,-0.14683704699941,1.6638733675947,,2.6567675235826838,,
,5047.0,546.0,4256.0,688.0,74.0,1259.0,3742.0,,,,0.0983855912050044,-0.14633591696314,1.66536663342856,,2.3213672363653393,,
,5048.0,545.0,4258.0,690.0,59.0,1263.0,3745.0,,,,0.0984036100827189,-0.146246825756372,1.66710818112819,,1.955475033883329,,
,5047.0,545.0,4259.0,685.0,60.0,1266.0,3759.0,,,,0.098403312907371,-0.146090732300591,1.66725296538333,,1.5697001910990858,,
,5050.0,548.0,4260.0,688.0,62.0,1263.0,3736.0,,,,0.0984198725806339,-0.146005833130842,1.66771336964673,,1.1746170420916973,,
,5050.0,546.0,4266.0,689.0,78.0,1246.0,3725.0,,,,0.0984151097045452,-0.145911135406005,1.6691284819044,,0.780288935135051,,
,5051.0,547.0,4267.0,688.0,63.0,1284.0,3766.0,,,,0.0984190117419423,-0.145820664908926,1.6683280253829,,0.3958592363610862,,
,5051.0,550.0,4269.0,689.0,60.0,1271.0,3755.0,,,,0.0984254018601611,-0.145755373120129,1.66980522612536,,0.029223850348528767,,
,5049.0,545.0,4267.0,686.0,69.0,1268.0,3744.0,,,,0.0984293538937856,-0.145473538049919,1.66938916649473,,-0.3132095731110609,,
,5053.0,544.0,4270.0,687.0,70.0,1268.0,3745.0,,,,0.0984396930750838,-0.145589012620558,1.66995697935606,,-0.6266769663293001,,
,5053.0,547.0,4269.0,688.0,56.0,1276.0,3724.0,,,,0.0984333783673117,-0.145459844177215,1.67096798370205,,-0.9081312914782461,,
,5052.0,547.0,4273.0,689.0,65.0,1267.0,3723.0,,,,0.0984422069995625,-0.145326531926167,1.67013388704148,,-1.156236195413499,,
,5053.0,549.0,4272.0,687.0,76.0,1256.0,3731.0,,,,0.0984386432049424,-0.14514416610762,1.67111105898794,,-1.3712786365503324,,
,5052.0,545.0,4274.0,688.0,66.0,1267.0,3756.0,,,,0.0984246700280778,-0.145264067791519,1.67083673710089,,-1.5549975116494934,,
,5052.0,546.0,4276.0,688.0,60.0,1264.0,3741.0,,,,0.0984296250786406,-0.145132244283187,1.67109432999138,,-1.7103280279058362,,
,5056.0,548.0,4280.0,690.0,69.0,1264.0,3761.0,,,,0.0984376737345061,-0.144824599848294,1.67134537823784,,-1.8410691007544926,,
,5057.0,545.0,4283.0,689.0,71.0,1262.0,3763.0,,,,0.0984504854172437,-0.145010289817868,1.67149001219295,,-1.9514911779348494,,
,5056.0,547.0,4281.0,688.0,70.0,1251.0,3740.0,,,,0.0984445048254844,-0.145093942490061,1.67210615772621,,-2.045911592114099,,
,5056.0,546.0,4286.0,689.0,69.0,1244.0,3751.0,,,,0.0984487368356997,-0.144795502831386,1.67184496946969,,-2.1282716863910225,,
,5059.0,550.0,4291.0,689.0,70.0,1258.0,3765.0,,,,0.0984591473260348,-0.144853312929018,1.67215454876078,,-2.2017533858964504,,
,5059.0,547.0,4294.0,692.0,69.0,1261.0,3769.0,,,,0.0984608530714299,-0.14484179540643,1.67219509381479,,-2.2684718109917323,,
,5063.0,548.0,4292.0,689.0,71.0,1274.0,3774.0,,,,0.0984582535806501,-0.144959782274419,1.67272192910332,,-2.3292742595362954,,
,5062.0,548.0,4296.0,687.0,69.0,1256.0,3742.0,,,,0.0984679288345984,-0.144733056283674,1.67306392482462,,-2.3836643005486664,,
,5064.0,549.0,4299.0,689.0,72.0,1274.0,3752.0,,,,0.0984713658629665,-0.144501703668928,1.67390134983632,,-2.4298541120882415,,
,5067.0,550.0,4303.0,692.0,75.0,1275.0,3724.0,,,,0.0984854931407883,-0.144392159747111,1.67380462274442,,-2.4649317565116964,,
,5068.0,550.0,4305.0,691.0,69.0,1267.0,3730.0,,,,0.0984811240863263,-0.144409835962682,1.67515599833372,,-2.4851170382725036,,
,5068.0,547.0,4307.0,689.0,62.0,1266.0,3752.0,,,,0.0984810461628857,-0.144166332945529,1.675222241558,,-2.4860730508234337,,
,5067.0,550.0,4312.0,693.0,70.0,1266.0,3737.0,,,,0.0984927796366938,-0.144122492141654,1.67529112365377,,-2.4632408053946446,,
,5073.0,550.0,4313.0,693.0,77.0,1251.0,3727.0,,,,0.0984889197086497,-0.144127531033055,1.67623245043966,,-2.412169298895632,,
,5075.0,551.0,4319.0,693.0,70.0,1254.0,3718.0,,,,0.0984963631508818,-0.143771277814341,1.67670683882385,,-2.3288202888848035,,
2025-07-01 20:34:32,5074.0,551.0,4320.0,692.0,77.0,1253.0,3704.0,,,2025/07/01 08:34:32 PM,0.0985022452079077,-0.143478447797044,1.67679937389456,,-2.209834024968965,,
,5077.0,549.0,4324.0,692.0,64.0,1253.0,3719.0,,,,0.0985181969633372,-0.143388114311144,1.67805949669091,,-2.052748254693359,,
,5077.0,552.0,4327.0,692.0,58.0,1272.0,3750.0,,,,0.0985216677304695,-0.143377265896413,1.67809093944307,,-1.8561672761065728,,
,5081.0,552.0,4329.0,696.0,68.0,1253.0,3735.0,,,,0.0985294719345567,-0.143290290617347,1.67901171338043,,-1.6198800235782291,,
,5082.0,555.0,4336.0,696.0,77.0,1248.0,3743.0,,,,0.0985305785443939,-0.143059056657941,1.6800719574545,,-1.3449260974840849,,
,5084.0,552.0,4337.0,695.0,75.0,1242.0,3744.0,,,,0.0985420359198095,-0.142699944042521,1.6803425435406,,-1.0336075432483827,,
,5084.0,551.0,4341.0,697.0,78.0,1258.0,3748.0,,,,0.0985538437563869,-0.142456758669053,1.68177698846322,,-0.689444510837081,,
,5090.0,555.0,4349.0,696.0,73.0,1259.0,3745.0,,,,0.098559322167388,-0.142425033073956,1.68145215617508,,-0.31707667698904535,,
,5090.0,553.0,4351.0,697.0,70.0,1275.0,3758.0,,,,0.0985552620498915,-0.142330332565206,1.68208404227868,,0.07788092700058781,,
,5090.0,553.0,4353.0,697.0,77.0,1279.0,3761.0,,,,0.0985556293305239,-0.14244332024307,1.68153784465192,,0.4890120934737684,,
,5088.0,554.0,4351.0,695.0,71.0,1270.0,3729.0,,,,0.098554624537287,-0.142495494655435,1.68143433240183,,0.9092840648046324,,
,5090.0,553.0,4350.0,695.0,66.0,1261.0,3744.0,,,,0.0985508673345309,-0.1424794568377,1.68243249670717,,1.3312236263805295,,
,5086.0,554.0,4348.0,697.0,78.0,1254.0,3745.0,,,,0.0985632172367069,-0.142470994885841,1.68219312412172,,1.747070573889065,,
,5082.0,553.0,4341.0,694.0,72.0,1268.0,3746.0,,,,0.0985670632712381,-0.142362348168761,1.68352269940212,,2.148902582820719,,
,5073.0,549.0,4331.0,690.0,52.0,1288.0,3740.0,,,,0.0985832715802906,-0.141902390729843,1.68431900884612,,2.528735655672436,,
,5071.0,550.0,4325.0,687.0,67.0,1262.0,3767.0,,,,0.0985874852738206,-0.141667999896955,1.68596476070828,,2.8786150482518735,,
,5063.0,547.0,4315.0,688.0,60.0,1258.0,3738.0,,,,0.098591235393608,-0.141701533067703,1.68617822121622,,3.190720537442633,,
,5057.0,549.0,4311.0,684.0,62.0,1238.0,3725.0,,,,0.0985598700511702,-0.142000339012877,1.68333124274714,,3.4575136089592475,,
,5051.0,546.0,4305.0,682.0,76.0,1236.0,3725.0,,,,0.098524507240927,-0.142878088701878,1.68158136278421,,3.671949246852411,,
,5047.0,544.0,4298.0,679.0,77.0,1246.0,3740.0,,,,0.0984751985527295,-0.143813118153678,1.67624207491024,,3.8277607606031223,,
,5042.0,546.0,4293.0,681.0,63.0,1236.0,3734.0,,,,0.0984392474176284,-0.144804643677747,1.67284785534504,,3.919805823406897,,
,5037.0,543.0,4292.0,678.0,57.0,1258.0,3726.0,,,,0.0984014351379478,-0.145832943638646,1.66909784352855,,3.9444415169244773,,
,5034.0,544.0,4285.0,676.0,62.0,1279.0,3725.0,,,,0.0983650525275369,-0.146908659688875,1.66461638935275,,3.8998811295711913,,
,5030.0,544.0,4281.0,675.0,64.0,1269.0,3730.0,,,,0.0983199315447275,-0.148003594900963,1.65999306252623,,3.7864789533588463,,
,5027.0,543.0,4283.0,674.0,69.0,1277.0,3737.0,,,,0.0982821298279993,-0.148587503204317,1.6567929270622,,3.6068924848784505,,
,5026.0,544.0,4282.0,676.0,60.0,1251.0,3741.0,,,,0.0982412781676329,-0.14944511233472,1.65349620817268,,3.366083972430831,,
,5026.0,545.0,4285.0,675.0,61.0,1253.0,3734.0,,,,0.098207164209387,-0.150002763520885,1.64964473073668,,3.071143655706217,,
,5020.0,543.0,4284.0,672.0,67.0,1271.0,3742.0,,,,0.098181354558658,-0.150659254804971,1.64737748968095,,2.7309423161086706,,
,5020.0,541.0,4284.0,674.0,63.0,1258.0,3714.0,,,,0.0981403130570892,-0.151160828764079,1.64531997872174,,2.3556462156749602,,
,5024.0,545.0,4291.0,676.0,61.0,1249.0,3714.0,,,,0.098120933568175,-0.151545254301047,1.64263355337474,,1.9561473712609156,,
,5023.0,541.0,4290.0,677.0,57.0,1268.0,3722.0,,,,0.0980951941706405,-0.152168199414897,1.64035159384949,,1.5434714578476787,,
,5024.0,543.0,4294.0,674.0,63.0,1264.0,3733.0,,,,0.098067798586905,-0.152735508383913,1.63721524235462,,1.12822287545955,,
,5026.0,544.0,4297.0,676.0,69.0,1262.0,3751.0,,,,0.0980452985834061,-0.153571066300085,1.63474526154583,,0.7201140724105167,,
,5024.0,543.0,4298.0,677.0,79.0,1254.0,3745.0,,,,0.0980012467578023,-0.153915074847376,1.63184625778837,,0.32760853354437325,,
,5028.0,546.0,4301.0,676.0,64.0,1247.0,3742.0,,,,0.097990104088462,-0.154265034238793,1.62960656156717,,-0.042312017790219716,,
,5025.0,543.0,4306.0,679.0,78.0,1250.0,3739.0,,,,0.0979618488396034,-0.155261744334809,1.62733958781718,,-0.384262676660074,,
,5030.0,544.0,4312.0,678.0,65.0,1247.0,3756.0,,,,0.0979574384098275,-0.15526205436174,1.62645813901552,,-0.6944718970616648,,
,5029.0,546.0,4315.0,677.0,69.0,1252.0,3757.0,,,,0.0979504072130928,-0.155188113579882,1.625969545189,,-0.9707252570007596,,
,5035.0,547.0,4319.0,679.0,75.0,1230.0,3748.0,,,,0.0979425389294375,-0.154967575330442,1.62551029786316,,-1.2122615454103094,,
,5034.0,547.0,4322.0,679.0,69.0,1247.0,3750.0,,,,0.0979370632136315,-0.155212466666821,1.62544052082813,,-1.4196393425042961,,
,5037.0,546.0,4325.0,679.0,54.0,1247.0,3728.0,,,,0.09793930437228,-0.155396100399535,1.62405215865824,,-1.5945820794629015,,
,5034.0,545.0,4327.0,678.0,66.0,1247.0,3725.0,,,,0.0979308731664756,-0.155379562439809,1.62400294264424,,-1.7398005551212303,,
,5039.0,546.0,4331.0,681.0,74.0,1234.0,3720.0,,,,0.09794618344347,-0.154976105011765,1.62498534374563,,-1.8587878678425203,,
,5041.0,546.0,4332.0,682.0,64.0,1244.0,3743.0,,,,0.0979491056544474,-0.155013382282781,1.62601876119468,,-1.9555837539797816,,
,5039.0,549.0,4336.0,683.0,66.0,1247.0,3747.0,,,,0.0979606862507734,-0.15496424937945,1.62640169740254,,-2.034511537922355,,
,5037.0,546.0,4339.0,680.0,64.0,1246.0,3747.0,,,,0.0979667717704876,-0.154551540080052,1.62740921622133,,-2.0998983439900325,,
,5042.0,548.0,4343.0,682.0,57.0,1270.0,3748.0,,,,0.0979969215128296,-0.154158909657792,1.62980345619476,,-2.1557956292222005,,
,5042.0,547.0,4343.0,683.0,57.0,1293.0,3767.0,,,,0.0980189370245809,-0.154127684864465,1.63032444163153,,-2.205721106449954,,
,5042.0,547.0,4343.0,683.0,67.0,1294.0,3748.0,,,,0.0980200593942752,-0.153749735171976,1.6324066813145,,-2.2524437315004926,,
,5042.0,549.0,4346.0,681.0,74.0,1274.0,3744.0,,,,0.0980370705386609,-0.15355360260378,1.63332480777806,,-2.2978298200060747,,
,5041.0,545.0,4345.0,679.0,72.0,1253.0,3729.0,,,,0.0980547974249277,-0.153475162482801,1.63405063648461,,-2.3427604233351875,,
,5042.0,546.0,4348.0,686.0,63.0,1272.0,3751.0,,,,0.0980529106358045,-0.153109928548609,1.63488003423109,,-2.3871191812797283,,
,5042.0,550.0,4352.0,681.0,59.0,1284.0,3743.0,,,,0.0980663865641602,-0.152717441855094,1.63560687136582,,-2.4298391145564695,,
,5043.0,548.0,4353.0,684.0,55.0,1273.0,3745.0,,,,0.0980698166751568,-0.152688521118225,1.63612909648026,,-2.468990123344161,,
,5043.0,549.0,4352.0,681.0,45.0,1280.0,3750.0,,,,0.0980715323994674,-0.152615963391304,1.63603410603692,,-2.5018887993258634,,
,5041.0,548.0,4353.0,683.0,54.0,1291.0,3737.0,,,,0.0980808915102022,-0.152518652300962,1.637799446039,,-2.525217963223788,,
,5042.0,547.0,4352.0,681.0,90.0,1253.0,3727.0,,,,0.0980760898413406,-0.152493026005585,1.63746907249606,,-2.535151988814303,,
,5043.0,548.0,4355.0,685.0,93.0,1250.0,3752.0,,,,0.0980973503775315,-0.152582252528605,1.63706584038314,,-2.527491900987746,,
,5043.0,548.0,4356.0,683.0,76.0,1252.0,3754.0,,,,0.0980992852322983,-0.152495329793309,1.63854508390277,,-2.4978190770149173,,
,5043.0,546.0,4360.0,680.0,70.0,1242.0,3745.0,,,,0.0980965997042767,-0.152168672128483,1.63909328187879,,-2.441677162342917,,
,5042.0,548.0,4357.0,684.0,76.0,1264.0,3724.0,,,,0.0980874003373919,-0.152212618860967,1.6396167624913,,-2.3547883590727245,,
,5043.0,549.0,4359.0,683.0,62.0,1275.0,3727.0,,,,0.0980858277586545,-0.152260284236823,1.63940756249323,,-2.23330284539947,,
,5045.0,548.0,4363.0,681.0,55.0,1287.0,3751.0,,,,0.0980900549140457,-0.152153081476357,1.63950766765104,,-2.07406977862797,,
,5043.0,546.0,4363.0,683.0,70.0,1276.0,3759.0,,,,0.0980929688032628,-0.152260714333224,1.63973415392232,,-1.8749075348255781,,
,5045.0,549.0,4366.0,683.0,71.0,1268.0,3756.0,,,,0.0980868784785276,-0.152078011082658,1.63915869113821,,-1.6348433601474472,,
,5049.0,549.0,4367.0,684.0,77.0,1257.0,3744.0,,,,0.0980961609414862,-0.15210473121015,1.64000956435524,,-1.3542921758348585,,
,5050.0,550.0,4369.0,684.0,66.0,1242.0,3745.0,,,,0.0980941702436612,-0.15205498970524,1.63986147799533,,-1.0351520971971,,
,5048.0,549.0,4373.0,688.0,63.0,1272.0,3754.0,,,,0.0981042086863437,-0.152052098581146,1.64089311958699,,-0.6808078704834619,,
,5048.0,550.0,4372.0,685.0,90.0,1255.0,3742.0,,,,0.0981092643514655,-0.151855554843252,1.64054773880757,,-0.29604830585073,,
,5049.0,548.0,4376.0,685.0,56.0,1268.0,3721.0,,,,0.0981177439683548,-0.151701024674276,1.64119001242927,,0.1130842626894451,,
,5051.0,549.0,4380.0,686.0,59.0,1252.0,3729.0,,,,0.0981382041750472,-0.151641236430924,1.64179601786318,,0.5394876632091815,,
,5055.0,549.0,4381.0,685.0,57.0,1273.0,3724.0,,,,0.0981327107586827,-0.15165946231775,1.64124221965796,,0.9752108315490843,,
,5053.0,550.0,4381.0,683.0,57.0,1302.0,3720.0,,,,0.0981402719464041,-0.151608006549852,1.64268360857598,,1.4116606369398121,,
,5056.0,552.0,4385.0,685.0,65.0,1294.0,3732.0,,,,0.0981477938746978,-0.151281206665141,1.64364604714797,,1.839792680362392,,
,5055.0,551.0,4390.0,688.0,70.0,1274.0,3742.0,,,,0.0981537461552438,-0.151035613930601,1.64386956297221,,2.250287057725769,,
,5055.0,548.0,4389.0,688.0,73.0,1275.0,3731.0,,,,0.098167050053991,-0.151112518217586,1.64488868880148,,2.633723217503873,,
,5060.0,549.0,4392.0,688.0,76.0,1254.0,3722.0,,,,0.0981691353285582,-0.150889829284293,1.64484816315243,,2.9807767877858518,,
,5061.0,552.0,4395.0,689.0,59.0,1269.0,3722.0,,,,0.0981566912197913,-0.150773570903929,1.64581758815494,,3.282461442593756,,
,5061.0,551.0,4400.0,689.0,69.0,1283.0,3754.0,,,,0.0981542704734536,-0.150629362872299,1.64594488868245,,3.530429483049489,,
,5066.0,550.0,4404.0,691.0,63.0,1257.0,3760.0,,,,0.0981673035644807,-0.150650659616136,1.64720036322442,,3.717328709097694,,
,5063.0,551.0,4406.0,688.0,68.0,1255.0,3749.0,,,,0.0981846541675833,-0.150589964605975,1.64601805577459,,3.837195171095548,,
,5066.0,551.0,4407.0,688.0,62.0,1265.0,3744.0,,,,0.0981828570218992,-0.150491932931042,1.64703313869497,,3.885845750081262,,
,5070.0,552.0,4412.0,691.0,63.0,1277.0,3747.0,,,,0.0981885458088137,-0.150094580501475,1.64790719232353,,3.8612241003256966,,
,5071.0,552.0,4413.0,692.0,55.0,1288.0,3764.0,,,,0.0982016041387706,-0.150136127492206,1.64749541086396,,3.7636504113838303,,
,5072.0,552.0,4412.0,689.0,72.0,1270.0,3764.0,,,,0.0981995449868152,-0.150014830450019,1.64895459815292,,3.5959313241367785,,
,5068.0,552.0,4411.0,690.0,72.0,1267.0,3711.0,,,,0.0982090860000845,-0.149810267505309,1.64896609160918,,3.3633015373595363,,
,5061.0,552.0,4404.0,688.0,66.0,1270.0,3725.0,,,,0.0982155243561048,-0.149847632320849,1.65029046845937,,3.0731911148350584,,
,5059.0,551.0,4397.0,688.0,70.0,1288.0,3731.0,,,,0.0982288659586097,-0.149757883571491,1.64997736860312,,2.7348373430272206,,
,5049.0,550.0,4390.0,684.0,70.0,1291.0,3728.0,,,,0.0982492935468108,-0.149427687364533,1.65175280967082,,2.3587808098263143,,
,5042.0,548.0,4383.0,682.0,59.0,1292.0,3733.0,,,,0.0982595398979004,-0.149216176915617,1.65419668515733,,1.9562972321635568,,
,5033.0,547.0,4372.0,680.0,57.0,1286.0,3726.0,,,,0.0982745562361692,-0.148906452240724,1.65467301588052,,1.538818318391755,,
,5026.0,545.0,4366.0,678.0,70.0,1275.0,3754.0,,,,0.0982565370294973,-0.149025699067869,1.65380765531015,,1.1173889066890546,,
,5020.0,545.0,4362.0,675.0,91.0,1263.0,3752.0,,,,0.0982362904764933,-0.149608443428559,1.65212378768345,,0.7021969836797769,,
,5009.0,545.0,4354.0,676.0,87.0,1252.0,3754.0,,,,0.0981825389951423,-0.150627069184114,1.64795637246477,,0.3022003056046232,,
,5001.0,543.0,4347.0,672.0,80.0,1267.0,3743.0,,,,0.0981402736773924,-0.151489115954526,1.64378591072117,,-0.07513999578723589,,
,4996.0,542.0,4343.0,672.0,73.0,1272.0,3720.0,,,,0.0980809175162984,-0.15230403939013,1.6390754218592,,-0.42402017569261014,,
,4992.0,541.0,4343.0,675.0,67.0,1265.0,3737.0,,,,0.0980162216526918,-0.153745496878115,1.63295711875172,,-0.7403583753226604,,
,4986.0,542.0,4338.0,674.0,83.0,1266.0,3743.0,,,,0.0979660044565517,-0.154793667305754,1.62851586815112,,-1.0217753948302148,,
,4980.0,539.0,4337.0,670.0,81.0,1257.0,3746.0,,,,0.0979432398508805,-0.155070452360956,1.62605833802013,,-1.2675033329944565,,
,4977.0,538.0,4334.0,667.0,72.0,1270.0,3748.0,,,,0.0979032914892915,-0.15608576566128,1.62245080938442,,-1.4782311910693784,,
,4975.0,537.0,4335.0,669.0,43.0,1255.0,3740.0,,,,0.0978697009647742,-0.156641731013607,1.62039091593005,,-1.6558955343363133,,
,4976.0,540.0,4337.0,670.0,60.0,1276.0,3742.0,,,,0.0978383699747528,-0.157211837284311,1.61739357510465,,-1.8034263026997712,,
,4974.0,540.0,4338.0,670.0,66.0,1276.0,3725.0,,,,0.09783830385151,-0.157314998862513,1.61720928723972,,-1.9244619651077661,,
,4971.0,540.0,4341.0,670.0,61.0,1255.0,3729.0,,,,0.097823355150486,-0.157533301204599,1.61540473885196,,-2.023052230126572,,
,4969.0,538.0,4339.0,671.0,65.0,1258.0,3750.0,,,,0.0978114709764424,-0.157743215087681,1.61401391174971,,-2.1033686971567365,,
,4967.0,536.0,4339.0,669.0,63.0,1247.0,3743.0,,,,0.0977829646411656,-0.158139127777985,1.61258103718244,,-2.169443472552455,,
,4970.0,539.0,4343.0,669.0,52.0,1271.0,3741.0,,,,0.0977731870702768,-0.158634806653958,1.61017226424148,,-2.2249527920919827,,
,4971.0,540.0,4345.0,672.0,44.0,1265.0,3741.0,,,,0.0977489929521697,-0.159325757240546,1.60788888898526,,-2.273057061946381,,
,4970.0,538.0,4346.0,671.0,67.0,1244.0,3742.0,,,,0.0977274017021478,-0.159747536695432,1.60501509622443,,-2.3163005760939326,,
,4972.0,542.0,4350.0,670.0,58.0,1248.0,3743.0,,,,0.0977147085011148,-0.159931176900399,1.60295788020963,,-2.3565644080817236,,
,4971.0,540.0,4351.0,674.0,75.0,1237.0,3754.0,,,,0.0976987143487538,-0.160230521772539,1.60236097376522,,-2.39505697266425,,
,4974.0,541.0,4356.0,674.0,65.0,1235.0,3755.0,,,,0.0976903279344535,-0.160390922902083,1.60180641181735,,-2.4323218965838778,,
,4976.0,541.0,4360.0,672.0,51.0,1248.0,3724.0,,,,0.0976919360340732,-0.160437033919059,1.60222519111114,,-2.4682446361055472,,
,4972.0,540.0,4360.0,674.0,80.0,1243.0,3716.0,,,,0.0976884368307276,-0.16044802744013,1.60073321801571,,-2.5020474543458575,,
,4977.0,540.0,4364.0,674.0,76.0,1255.0,3721.0,,,,0.0976845345180998,-0.160583012289054,1.60110164835224,,-2.532273923646282,,
,4976.0,540.0,4366.0,675.0,73.0,1272.0,3754.0,,,,0.0976719697490533,-0.160766708082892,1.6010537381326,,-2.556775219167692,,
,4981.0,541.0,4369.0,676.0,68.0,1286.0,3749.0,,,,0.097698366423714,-0.160493586744473,1.60233928800565,,-2.5727182437551317,,
,4980.0,540.0,4370.0,675.0,66.0,1278.0,3741.0,,,,0.0977058236341255,-0.159922936536399,1.60319265766777,,-2.5766385221331327,,
,4982.0,543.0,4371.0,676.0,67.0,1233.0,3720.0,,,,0.0977244991995768,-0.159621319762572,1.60513424088504,,-2.5645580133430856,,
,4981.0,543.0,4376.0,676.0,71.0,1238.0,3721.0,,,,0.097746392964829,-0.15909531157553,1.60744627459074,,-2.5321790977118286,,
,4982.0,542.0,4376.0,677.0,66.0,1237.0,3726.0,,,,0.0977681099112521,-0.158589454242179,1.60996225335657,,-2.4751515115316853,,
,4982.0,542.0,4378.0,678.0,66.0,1254.0,3724.0,,,,0.0977890067070327,-0.158029005856306,1.61243268116064,,-2.3893913794921233,,
,4978.0,541.0,4376.0,677.0,62.0,1252.0,3726.0,,,,0.0978323566508472,-0.15775402820635,1.61438160685386,,-2.2714154907514597,,
,4980.0,540.0,4378.0,678.0,71.0,1264.0,3726.0,,,,0.0978503771635927,-0.157059371295994,1.61609259182566,,-2.1186452495673147,,
,4980.0,542.0,4380.0,674.0,71.0,1246.0,3710.0,,,,0.0978666577426221,-0.15678752161422,1.61873298758939,,-1.929636986892564,,
,4982.0,543.0,4381.0,678.0,60.0,1256.0,3710.0,,,,0.0978857527613922,-0.156617210920246,1.6202855593686,,-1.7042081049299809,,
,4978.0,542.0,4380.0,676.0,72.0,1278.0,3715.0,,,,0.0978952697201206,-0.156187350380357,1.62160324225643,,-1.4434478187083006,,
,4980.0,542.0,4381.0,678.0,77.0,1266.0,3732.0,,,,0.0979134061119803,-0.155935957686726,1.62283205576064,,-1.149621824230968,,
2025-07-01 20:34:33,4979.0,541.0,4381.0,678.0,66.0,1260.0,3718.0,,,2025/07/01 08:34:33 PM,0.0979430270588386,-0.155414331325249,1.62425132146237,,-0.8259976062529709,,
,4978.0,541.0,4382.0,679.0,66.0,1264.0,3730.0,,,,0.0979575342362445,-0.155173752871696,1.62667466566191,,-0.4766282178746214,,
,4978.0,542.0,4385.0,678.0,75.0,1246.0,3736.0,,,,0.0979735139338292,-0.15467106487346,1.62782656576406,,-0.10613532981578129,,
,4976.0,541.0,4384.0,677.0,70.0,1246.0,3711.0,,,,0.0979976767730596,-0.154203847892249,1.62944221275233,,0.2804734534174017,,
,4978.0,542.0,4385.0,676.0,63.0,1261.0,3720.0,,,,0.0980096620270511,-0.15391599482962,1.63098039419599,,0.6779312653739952,,
,4980.0,540.0,4390.0,679.0,52.0,1259.0,3760.0,,,,0.0980193820714494,-0.153702733401657,1.63178301175113,,1.0807779090599483,,
,4979.0,542.0,4388.0,681.0,48.0,1263.0,3746.0,,,,0.0980494572437434,-0.153582604454624,1.63405060806123,,1.483375952875853,,
,4977.0,540.0,4387.0,675.0,57.0,1269.0,3737.0,,,,0.0980623615501841,-0.153242583976583,1.63486552981469,,1.8798979089257883,,
,4979.0,541.0,4392.0,680.0,63.0,1251.0,3757.0,,,,0.0980691619197487,-0.15294343082895,1.6353182205138,,2.2643085811303005,,
,4980.0,543.0,4394.0,680.0,58.0,1253.0,3743.0,,,,0.0980917718507784,-0.152598926860599,1.63829373053976,,2.6303646018071536,,
,4980.0,543.0,4393.0,681.0,68.0,1252.0,3745.0,,,,0.0980933485451043,-0.152362599016208,1.63874983990329,,2.9716481863447983,,
,4980.0,542.0,4394.0,678.0,81.0,1257.0,3751.0,,,,0.0981153287241372,-0.152209062645743,1.64025606370425,,3.281645685511218,,
,4981.0,542.0,4396.0,681.0,67.0,1263.0,3736.0,,,,0.0981358571145636,-0.151842729247822,1.64209772007038,,3.5538744419738175,,
,4981.0,543.0,4398.0,680.0,45.0,1248.0,3728.0,,,,0.0981612595008692,-0.151457786804559,1.64298251748148,,3.7820548593380034,,
,4981.0,541.0,4400.0,681.0,56.0,1275.0,3742.0,,,,0.0981717785978064,-0.151077029068248,1.64528460494992,,3.960319906581256,,
,4984.0,546.0,4404.0,680.0,57.0,1283.0,3740.0,,,,0.09819217174344,-0.150687973778555,1.64640707449635,,4.083452422391951,,
,4982.0,541.0,4406.0,680.0,58.0,1264.0,3734.0,,,,0.0982021243129477,-0.150087794820709,1.64932343695566,,4.147140850634141,,
,4985.0,543.0,4407.0,682.0,73.0,1263.0,3735.0,,,,0.0982116228001298,-0.149806214879607,1.64979861299895,,4.148243918117691,,
,4986.0,543.0,4412.0,685.0,77.0,1267.0,3739.0,,,,0.0982261243727597,-0.149507567582098,1.6518124293071,,4.085051542076418,,
,4989.0,546.0,4416.0,684.0,71.0,1277.0,3733.0,,,,0.0982550961870095,-0.149038098442854,1.65408098795397,,3.9575225058546795,,
,4990.0,543.0,4415.0,683.0,54.0,1258.0,3727.0,,,,0.098269775271711,-0.148575504504999,1.65581344890548,,3.7674719136423245,,
,4990.0,543.0,4417.0,684.0,58.0,1242.0,3728.0,,,,0.0982845972949683,-0.148266707391397,1.65723325022187,,3.518677184736599,,
,4990.0,545.0,4420.0,683.0,75.0,1259.0,3707.0,,,,0.0983061797195115,-0.148130556102516,1.65944405795873,,3.2168730691768928,,
,4992.0,545.0,4423.0,686.0,65.0,1248.0,3736.0,,,,0.0983268301600154,-0.148011966412313,1.66028535419856,,2.869614201176372,,
,4993.0,544.0,4423.0,686.0,73.0,1236.0,3748.0,,,,0.0983346509020611,-0.147403738802514,1.66066020427131,,2.4859969161719424,,
,4994.0,544.0,4427.0,684.0,74.0,1254.0,3741.0,,,,0.0983478755784172,-0.147407528135286,1.6618855388873,,2.0762488823307232,,
,4997.0,546.0,4431.0,687.0,61.0,1256.0,3729.0,,,,0.0983572872017705,-0.147007129162733,1.66357408669776,,1.6512136457926967,,
,4999.0,547.0,4434.0,686.0,61.0,1258.0,3756.0,,,,0.0983768673483323,-0.146878943500575,1.66450704131775,,1.2217746086214303,,
,5001.0,546.0,4436.0,689.0,58.0,1245.0,3753.0,,,,0.0983742414967651,-0.146608427657116,1.66462159820399,,0.7982751316963128,,
,5000.0,545.0,4436.0,686.0,63.0,1251.0,3743.0,,,,0.0983770974459697,-0.146483655971375,1.66561424293908,,0.389994169988954,,
,4999.0,542.0,4433.0,687.0,55.0,1258.0,3716.0,,,,0.098381380778812,-0.146168995133283,1.66568568870549,,0.004728344681343299,,
,4998.0,545.0,4433.0,688.0,57.0,1282.0,3712.0,,,,0.0983832890002598,-0.146303968692749,1.66654329986269,,-0.3514860766171351,,
,4993.0,545.0,4428.0,685.0,52.0,1275.0,3720.0,,,,0.0983881956725623,-0.146280835216041,1.66652431858572,,-0.6744991547606508,,
,4983.0,543.0,4420.0,684.0,52.0,1266.0,3715.0,,,,0.0984074824869913,-0.145947830040956,1.66747084454284,,-0.9620293586128386,,
,4974.0,540.0,4407.0,680.0,52.0,1260.0,3736.0,,,,0.0984144839534911,-0.145675695536199,1.6688437501394,,-1.21352585698549,,
,4966.0,539.0,4401.0,676.0,53.0,1273.0,3716.0,,,,0.0984380966006479,-0.145278588693378,1.67046417066088,,-1.4299449830226951,,
,4957.0,539.0,4393.0,678.0,67.0,1258.0,3728.0,,,,0.0984603027654614,-0.144865464821328,1.67256353168345,,-1.6134777143571504,,
,4946.0,539.0,4385.0,674.0,65.0,1253.0,3721.0,,,,0.0984590172587186,-0.144543489076217,1.67358499951652,,-1.767260890823746,,
,4935.0,536.0,4378.0,672.0,56.0,1253.0,3733.0,,,,0.0984556818031916,-0.144931066703879,1.67200033716356,,-1.8950949381667916,,
,4925.0,534.0,4368.0,670.0,58.0,1244.0,3781.0,,,,0.098428388572011,-0.145250073340095,1.67054005018186,,-2.001177911863537,,
,4917.0,535.0,4365.0,671.0,67.0,1242.0,3763.0,,,,0.098400565247341,-0.145918529883453,1.66672023793197,,-2.0898540253087146,,
,4911.0,532.0,4361.0,670.0,64.0,1266.0,3739.0,,,,0.0983664629768574,-0.146880515397202,1.66417300185902,,-2.1653686948348447,,
,4902.0,528.0,4354.0,670.0,61.0,1279.0,3736.0,,,,0.0983342851495453,-0.147372134416005,1.66184312605975,,-2.2316233036130004,,
,4895.0,529.0,4350.0,665.0,55.0,1252.0,3722.0,,,,0.0983051481810182,-0.148085280677604,1.6588121844389,,-2.2919297892654464,,
,4890.0,532.0,4347.0,665.0,47.0,1268.0,3740.0,,,,0.0982840839806582,-0.148634166839632,1.65676768535089,,-2.3487743632534763,,
,4888.0,531.0,4348.0,666.0,55.0,1255.0,3752.0,,,,0.0982619807082556,-0.149164678632854,1.65519817949608,,-2.403608019718384,,
,4883.0,530.0,4347.0,665.0,72.0,1237.0,3729.0,,,,0.0982354478175987,-0.149787172726517,1.65241008440819,,-2.4566869835256226,,
,4880.0,530.0,4344.0,663.0,77.0,1250.0,3726.0,,,,0.0982102850202871,-0.150069411437469,1.65037726032871,,-2.506987687412627,,
,4878.0,529.0,4347.0,666.0,66.0,1251.0,3727.0,,,,0.0981940047184157,-0.15068686191487,1.64682082485367,,-2.5522173730869944,,
,4876.0,528.0,4345.0,665.0,62.0,1257.0,3729.0,,,,0.0981708255509127,-0.151209622994411,1.64546399093077,,-2.588932482568588,,
,4876.0,529.0,4346.0,667.0,72.0,1260.0,3730.0,,,,0.0981500820263219,-0.15197548737799,1.64243551643145,,-2.6127633006143367,,
,4874.0,530.0,4347.0,667.0,68.0,1249.0,3725.0,,,,0.0981074669055035,-0.152146701011976,1.6400407996869,,-2.61872745566762,,
,4873.0,528.0,4349.0,665.0,61.0,1251.0,3710.0,,,,0.0980785608975855,-0.152638355372295,1.63657313366887,,-2.601601175601479,,
,4872.0,531.0,4351.0,665.0,55.0,1258.0,3747.0,,,,0.0980382514872214,-0.153348332163571,1.63390000170195,,-2.5563096394242546,,
,4873.0,531.0,4349.0,667.0,63.0,1261.0,3742.0,,,,0.0980256787675604,-0.153809211348475,1.63226636986958,,-2.4782978489771486,,
,4872.0,529.0,4354.0,667.0,66.0,1254.0,3743.0,,,,0.0980037079771394,-0.15393767823161,1.62969241713825,,-2.363849694512734,,
,4874.0,531.0,4361.0,668.0,70.0,1253.0,3751.0,,,,0.0980090886900633,-0.153986873329191,1.63041018058105,,-2.2103326080434504,,
,4874.0,530.0,4358.0,667.0,80.0,1251.0,3737.0,,,,0.0980064486462671,-0.154103843505771,1.6292407823309,,-2.0163562841739586,,
,4876.0,529.0,4361.0,668.0,90.0,1248.0,3707.0,,,,0.0980062072119214,-0.154219115727047,1.62979162291517,,-1.7818451460532534,,
,4877.0,532.0,4363.0,671.0,75.0,1273.0,3740.0,,,,0.0980188817371129,-0.153846161775976,1.63087204652011,,-1.508034355988537,,
,4879.0,529.0,4366.0,669.0,65.0,1271.0,3747.0,,,,0.0980321169300414,-0.153521973373443,1.63170828153639,,-1.1974065877703866,,
,4876.0,530.0,4367.0,672.0,53.0,1259.0,3748.0,,,,0.0980445131440673,-0.153571541875972,1.63287364473079,,-0.8535898019547544,,
,4882.0,531.0,4369.0,670.0,55.0,1261.0,3728.0,,,,0.0980629080981554,-0.153238396250095,1.6332819508393,,-0.48123425467511055,,
,4881.0,531.0,4373.0,671.0,70.0,1243.0,3743.0,,,,0.0980851189586361,-0.152683920362952,1.63587583426445,,-0.08588132879358654,,
,4882.0,532.0,4372.0,671.0,76.0,1246.0,3751.0,,,,0.098104666946588,-0.15204165511412,1.63887657164914,,0.326169438460018,,
,4881.0,534.0,4375.0,672.0,68.0,1264.0,3751.0,,,,0.0981347059608032,-0.151478095885269,1.64156830953163,,0.747992870624026,,
,4882.0,532.0,4375.0,673.0,63.0,1236.0,3742.0,,,,0.0981803512327268,-0.151083944924467,1.64400164148142,,1.1721695492037858,,
,4883.0,533.0,4379.0,673.0,64.0,1230.0,3741.0,,,,0.098211906624072,-0.150327275054438,1.64727562194602,,1.5909160541500622,,
,4885.0,534.0,4380.0,672.0,60.0,1240.0,3729.0,,,,0.0982421114508347,-0.150152580985241,1.64983291181061,,1.996215130431679,,
,4883.0,534.0,4381.0,676.0,63.0,1254.0,3720.0,,,,0.0982683232034378,-0.149795530483666,1.6518494962427,,2.379948608273319,,
,4884.0,532.0,4378.0,673.0,50.0,1256.0,3756.0,,,,0.0982779117773408,-0.149106233971748,1.65465074119847,,2.7340375455408927,,
,4882.0,531.0,4380.0,672.0,47.0,1275.0,3761.0,,,,0.0982951727390931,-0.148530618582939,1.65636679109927,,3.0505951682051453,,
,4882.0,533.0,4382.0,672.0,63.0,1268.0,3756.0,,,,0.0983114532008643,-0.148359665231722,1.65883896689558,,3.3220989946668875,,
,4884.0,534.0,4381.0,674.0,73.0,1260.0,3766.0,,,,0.0983210741092526,-0.147871578365069,1.65981090203992,,3.5415892435967056,,
,4882.0,533.0,4383.0,674.0,64.0,1256.0,3747.0,,,,0.0983475836830049,-0.14742576556568,1.66209204283299,,3.7029003017993602,,
,4882.0,532.0,4379.0,671.0,72.0,1250.0,3751.0,,,,0.0983588552135852,-0.147049930495394,1.66242431942169,,3.800928359654191,,
,4879.0,534.0,4384.0,674.0,76.0,1237.0,3736.0,,,,0.098373851032181,-0.147009611868951,1.66466864168585,,3.8319292877291082,,
,4881.0,533.0,4382.0,674.0,69.0,1250.0,3742.0,,,,0.0983878077441281,-0.146357943334552,1.66627855501898,,3.7938271593490294,,
,4882.0,533.0,4384.0,674.0,71.0,1268.0,3738.0,,,,0.0984090692500571,-0.146367712631402,1.66734334212909,,3.686499578932931,,
,4880.0,530.0,4381.0,670.0,76.0,1234.0,3732.0,,,,0.0984179312789088,-0.145825553776408,1.66791190270858,,3.511996351836435,,
,4879.0,533.0,4385.0,674.0,65.0,1245.0,3750.0,,,,0.098431660616682,-0.145573475421975,1.66918692660406,,3.2746465952016686,,
,4880.0,532.0,4386.0,675.0,71.0,1267.0,3773.0,,,,0.0984332244733013,-0.145345337523831,1.67001073358037,,2.9810170497038553,,
,4880.0,533.0,4383.0,676.0,68.0,1268.0,3768.0,,,,0.0984369819448617,-0.145108621114224,1.67089806248477,,2.639700006310163,,
,4881.0,533.0,4389.0,673.0,69.0,1250.0,3747.0,,,,0.0984494465702942,-0.145185130427031,1.67098576674402,,2.260930687944444,,
,4879.0,530.0,4389.0,673.0,62.0,1257.0,3721.0,,,,0.0984480874476716,-0.144881524095389,1.67205510424482,,1.856058088092274,,
,4879.0,533.0,4392.0,674.0,50.0,1246.0,3720.0,,,,0.0984598643328387,-0.144810623595613,1.67302077869676,,1.4369161824133008,,
,4882.0,534.0,4395.0,676.0,48.0,1251.0,3733.0,,,,0.0984613896844182,-0.144524001086822,1.6730119331738,,1.0151592356162318,,
,4884.0,533.0,4393.0,676.0,58.0,1242.0,3728.0,,,,0.0984690885166814,-0.144348511151069,1.67342467818548,,0.6016309971398924,,
,4882.0,532.0,4394.0,676.0,58.0,1223.0,3749.0,,,,0.0984775204562177,-0.144263185186361,1.67465116075591,,0.20583074799625561,,
,4883.0,530.0,4393.0,676.0,81.0,1233.0,3764.0,,,,0.0985008668121402,-0.144035843414954,1.67616395720457,,-0.16447858993237874,,
,4885.0,536.0,4399.0,679.0,78.0,1224.0,3739.0,,,,0.0985105726913183,-0.143645642497674,1.67636818599791,,-0.5034984512695452,,
,4886.0,533.0,4400.0,678.0,76.0,1241.0,3726.0,,,,0.0985295774200377,-0.143569387289206,1.67848854208439,,-0.8074601329825294,,
,4885.0,534.0,4402.0,677.0,58.0,1253.0,3742.0,,,,0.0985436997647793,-0.142707986788944,1.67971227759976,,-1.0745481698427386,,
,4888.0,532.0,4402.0,678.0,64.0,1238.0,3716.0,,,,0.0985514790966988,-0.14279186678669,1.68083452986412,,-1.304714372462178,,
,4889.0,535.0,4406.0,678.0,62.0,1251.0,3707.0,,,,0.0985637437876049,-0.142225636287158,1.68224546911101,,-1.499420243484826,,
,4889.0,534.0,4406.0,681.0,64.0,1263.0,3714.0,,,,0.0985866657777473,-0.141991220094648,1.68422897902324,,-1.6613429323904214,,
,4892.0,534.0,4410.0,679.0,63.0,1258.0,3739.0,,,,0.0985843330026869,-0.141573567139117,1.68653091915907,,-1.7940711180946507,,
,4893.0,536.0,4410.0,681.0,82.0,1235.0,3772.0,,,,0.0986146015975358,-0.141406580301755,1.68602522087167,,-1.901805084180644,,
,4894.0,533.0,4412.0,680.0,82.0,1233.0,3759.0,,,,0.0986133878478503,-0.141206411610256,1.68818365255088,,-1.9890640245123083,,
,4896.0,536.0,4417.0,682.0,70.0,1250.0,3766.0,,,,0.0986265554202831,-0.141295160667634,1.68767796744758,,-2.0603973740218215,,
,4897.0,536.0,4417.0,682.0,70.0,1242.0,3763.0,,,,0.0986232679473951,-0.141095639252167,1.68917714707689,,-2.120097454004003,,
,4900.0,538.0,4421.0,683.0,79.0,1213.0,3766.0,,,,0.0986355227200581,-0.140859701812383,1.68937246265925,,-2.171916583511332,,
,4901.0,535.0,4424.0,681.0,77.0,1228.0,3747.0,,,,0.0986547071684128,-0.140593302643554,1.68988416493765,,-2.21879988372315,,
,4902.0,538.0,4427.0,683.0,67.0,1237.0,3700.0,,,,0.0986788590629782,-0.140510287480451,1.68988241047095,,-2.2626523079024055,,
,4905.0,536.0,4429.0,685.0,59.0,1244.0,3718.0,,,,0.0986811484693459,-0.140287049314525,1.69098431382726,,-2.304163026210523,,
,4904.0,536.0,4427.0,684.0,58.0,1242.0,3736.0,,,,0.0986678952824462,-0.140399442955298,1.69115957767662,,-2.3427109921506366,,
,4904.0,535.0,4424.0,684.0,67.0,1217.0,3758.0,,,,0.0986747261482732,-0.140327471404259,1.69051019871003,,-2.3763714173100525,,
,4897.0,535.0,4417.0,682.0,58.0,1260.0,3760.0,,,,0.0986716654718268,-0.140209590249416,1.69003724361907,,-2.402033513001232,,
,4887.0,535.0,4411.0,681.0,49.0,1265.0,3761.0,,,,0.0986859586691912,-0.140206882637544,1.69148698180191,,-2.4156259822520156,,
,4882.0,535.0,4398.0,678.0,56.0,1298.0,3748.0,,,,0.0986982347302543,-0.139708021683526,1.69345176479205,,-2.4124311641681544,,
,4868.0,531.0,4390.0,678.0,59.0,1275.0,3727.0,,,,0.0987079316293716,-0.139295060505833,1.69492397890371,,-2.387455840357746,,
,4856.0,525.0,4378.0,673.0,60.0,1252.0,3719.0,,,,0.0987116395609764,-0.139209710195804,1.69554431377961,,-2.3358203434066493,,
,4849.0,525.0,4367.0,672.0,69.0,1241.0,3730.0,,,,0.0986926432604237,-0.139603982987645,1.69391892009738,,-2.253128845891978,,
,4836.0,526.0,4360.0,672.0,60.0,1220.0,3721.0,,,,0.0986699234162591,-0.139911088804019,1.69155276631293,,-2.1357908052216703,,
,4826.0,525.0,4351.0,667.0,71.0,1236.0,3744.0,,,,0.0986478098270401,-0.140763174499058,1.68953290863051,,-1.981273702809515,,
,4816.0,523.0,4342.0,667.0,63.0,1244.0,3747.0,,,,0.0986118807533922,-0.141279084758792,1.68766910872778,,-1.788278209458988,,
,4807.0,523.0,4336.0,665.0,48.0,1246.0,3735.0,,,,0.098581404129003,-0.142090600239089,1.6832720951704,,-1.556837222192046,,
,4801.0,523.0,4329.0,664.0,58.0,1256.0,3743.0,,,,0.0985424369954815,-0.142863883370047,1.68062944271528,,-1.2883484047556377,,
,4796.0,522.0,4324.0,665.0,50.0,1264.0,3732.0,,,,0.0985078305127056,-0.143544596431333,1.67676497627726,,-0.9855542749256335,,
,4791.0,520.0,4322.0,664.0,51.0,1267.0,3734.0,,,,0.0984854741703834,-0.144619182253077,1.6737520783445,,-0.6524833618009008,,
,4784.0,518.0,4315.0,663.0,62.0,1261.0,3728.0,,,,0.0984420732102708,-0.145145994450539,1.67078001692202,,-0.29436107445824267,,
,4782.0,520.0,4316.0,665.0,61.0,1246.0,3746.0,,,,0.098419112625407,-0.146028469159634,1.66770851182274,,0.08250751744730604,,
,4778.0,519.0,4312.0,664.0,63.0,1237.0,3756.0,,,,0.0983809710970141,-0.146976516408451,1.66439455743992,,0.47088513936838067,,
,4777.0,519.0,4313.0,665.0,64.0,1230.0,3751.0,,,,0.0983405534400403,-0.147992180716829,1.66109661267674,,0.8627824888289589,,
,4776.0,518.0,4312.0,662.0,65.0,1248.0,3750.0,,,,0.0983046426686236,-0.148631056515839,1.65715007365992,,1.249670890653891,,
,4775.0,518.0,4314.0,664.0,64.0,1283.0,3748.0,,,,0.0982801458105686,-0.149230249737217,1.65402291775756,,1.6227236828628469,,
,4775.0,522.0,4315.0,665.0,84.0,1271.0,3755.0,,,,0.0982253015419991,-0.149763453856888,1.64997193564676,,1.9730797733607424,,
,4775.0,523.0,4316.0,664.0,82.0,1266.0,3757.0,,,,0.0981975980922578,-0.150414636443879,1.64704700463675,,2.2921208432419657,,
2025-07-01 20:34:34,4775.0,522.0,4317.0,664.0,86.0,1251.0,3772.0,,,2025/07/01 08:34:34 PM,0.0981778421629258,-0.151131290680619,1.64450370344554,,2.571752362176202,,
,4773.0,518.0,4317.0,665.0,77.0,1228.0,3775.0,,,,0.098155422903228,-0.151550769833727,1.6433704015126,,2.804678213903721,,
,4773.0,520.0,4319.0,664.0,77.0,1228.0,3768.0,,,,0.0981528120518189,-0.151843118961988,1.6423916445203,,2.984659864582828,,
,4778.0,523.0,4321.0,668.0,67.0,1237.0,3740.0,,,,0.0981414334506453,-0.151990997336819,1.64066943707598,,3.106753472664025,,
,4776.0,522.0,4323.0,666.0,63.0,1259.0,3732.0,,,,0.0981311336106731,-0.151898485658522,1.64141995469449,,3.167520515349724,,
,4781.0,522.0,4327.0,664.0,62.0,1270.0,3733.0,,,,0.0981433294565403,-0.151738589633352,1.64148547210087,,3.1652070313053815,,
,4780.0,521.0,4328.0,666.0,74.0,1263.0,3751.0,,,,0.0981495377689856,-0.151754801918466,1.64187183772188,,3.0998824321447898,,
,4782.0,524.0,4332.0,668.0,55.0,1251.0,3764.0,,,,0.0981472423053182,-0.151688885489307,1.64323986022607,,2.973522876626923,,
,4785.0,522.0,4331.0,668.0,61.0,1222.0,3739.0,,,,0.0981631854941318,-0.15150076486706,1.64256712050045,,2.790020170302116,,
,4783.0,523.0,4334.0,668.0,55.0,1234.0,3756.0,,,,0.0981717508173566,-0.151337621644179,1.64506943046526,,2.555097881880814,,
,4786.0,522.0,4334.0,669.0,48.0,1251.0,3752.0,,,,0.0981909176475551,-0.151042546293839,1.6458188225179,,2.276122157619372,,
,4789.0,522.0,4335.0,667.0,50.0,1250.0,3736.0,,,,0.0982033959162826,-0.150632883881669,1.64898298366518,,1.9618041823693306,,
,4789.0,525.0,4335.0,669.0,53.0,1249.0,3722.0,,,,0.0982374519702374,-0.150134743715264,1.64994808590228,,1.6218029456991063,,
,4793.0,525.0,4339.0,671.0,54.0,1232.0,3722.0,,,,0.0982692242498992,-0.149511327385391,1.65232373048064,,1.2662499420410862,,
,4791.0,524.0,4339.0,670.0,63.0,1232.0,3731.0,,,,0.0982802054356404,-0.148907642944806,1.65365067430366,,0.9052303956600243,,
,4794.0,524.0,4339.0,670.0,65.0,1248.0,3735.0,,,,0.0982941135600731,-0.148818254648367,1.65554008067185,,0.5482660439589786,,
,4795.0,524.0,4340.0,671.0,78.0,1243.0,3747.0,,,,0.0982961964022018,-0.148490827426888,1.65697551558118,,0.20384881628557064,,
,4792.0,525.0,4343.0,672.0,65.0,1256.0,3729.0,,,,0.0983036139904065,-0.148108834928851,1.65804355030324,,-0.12092992710689086,,
,4795.0,524.0,4341.0,672.0,68.0,1268.0,3728.0,,,,0.0983227720857997,-0.148053300332526,1.65924145130394,,-0.4206233342601259,,
,4793.0,524.0,4339.0,670.0,66.0,1239.0,3726.0,,,,0.0983223482235702,-0.147882725932286,1.65978571561939,,-0.6915334660138449,,
,4794.0,526.0,4342.0,671.0,68.0,1248.0,3745.0,,,,0.0983414556965737,-0.148037066759308,1.65975729691081,,-0.9316823368502555,,
,4793.0,530.0,4341.0,671.0,64.0,1226.0,3767.0,,,,0.0983520284863171,-0.147763943273889,1.65991465176774,,-1.140671216906935,,
,4795.0,526.0,4345.0,672.0,66.0,1227.0,3755.0,,,,0.0983615279561931,-0.14738808719956,1.66155299665949,,-1.319459838899594,,
,4793.0,523.0,4340.0,671.0,49.0,1244.0,3748.0,,,,0.0983670347704714,-0.147230229914177,1.66179520498905,,-1.4701010036179425,,
,4793.0,525.0,4342.0,671.0,53.0,1247.0,3767.0,,,,0.0983716606755407,-0.14764757205948,1.66272221634138,,-1.5954637121968918,,
,4793.0,527.0,4345.0,672.0,48.0,1245.0,3766.0,,,,0.0983797506914211,-0.147029968378627,1.66338457319118,,-1.6989699216273668,,
,4796.0,525.0,4343.0,673.0,71.0,1255.0,3755.0,,,,0.0983834731847494,-0.146913814862227,1.66434950607051,,-1.7843579254744049,,
,4795.0,527.0,4346.0,671.0,85.0,1245.0,3750.0,,,,0.0983870792364912,-0.146737237711193,1.66558925973283,,-1.8554723976295318,,
,4795.0,524.0,4342.0,669.0,74.0,1231.0,3747.0,,,,0.098394456993303,-0.146651979553328,1.66525219853778,,-1.9160715639629815,,
,4796.0,524.0,4346.0,672.0,73.0,1238.0,3729.0,,,,0.0984075499328077,-0.146334781613554,1.66649693611475,,-1.9696390546071099,,
,4796.0,525.0,4346.0,674.0,61.0,1251.0,3730.0,,,,0.0984119339672587,-0.145945926988457,1.66809808431744,,-2.0191920517048816,,
,4798.0,527.0,4348.0,671.0,57.0,1254.0,3730.0,,,,0.0984147071119144,-0.145769889837793,1.66869909640283,,-2.0670859238829564,,
,4798.0,523.0,4349.0,673.0,59.0,1237.0,3730.0,,,,0.0984477951676998,-0.145519234452335,1.67076825368061,,-2.114825325493746,,
,4798.0,523.0,4347.0,670.0,67.0,1261.0,3752.0,,,,0.0984648879990768,-0.145386351004118,1.67064383320282,,-2.162900133778596,,
,4799.0,526.0,4353.0,675.0,76.0,1250.0,3737.0,,,,0.0984713904106703,-0.145109020364243,1.67162124689588,,-2.2106698847681012,,
,4803.0,526.0,4356.0,674.0,63.0,1265.0,3736.0,,,,0.0984891078746941,-0.144748811508868,1.6735036545365,,-2.256321254317158,,
,4803.0,527.0,4354.0,675.0,59.0,1274.0,3744.0,,,,0.0984879164798274,-0.144307569669899,1.67484589094272,,-2.2969185698366545,,
,4804.0,526.0,4356.0,675.0,79.0,1249.0,3737.0,,,,0.0985103119449261,-0.144235704933141,1.67601898663188,,-2.328557005070725,,
,4806.0,525.0,4358.0,673.0,57.0,1259.0,3733.0,,,,0.0985163008102134,-0.143956983701681,1.67606089375296,,-2.3466132942323257,,
,4808.0,527.0,4357.0,677.0,67.0,1260.0,3751.0,,,,0.0985230371906753,-0.14369401736976,1.67723345594694,,-2.3460729338524637,,
,4809.0,528.0,4361.0,678.0,62.0,1269.0,3755.0,,,,0.098519593529271,-0.143559811437641,1.67777500696392,,-2.3219005235867827,,
,4810.0,528.0,4364.0,677.0,69.0,1267.0,3749.0,,,,0.0985414903497677,-0.143229953844937,1.67890257346653,,-2.2694145013704214,,
,4812.0,527.0,4362.0,677.0,80.0,1256.0,3737.0,,,,0.0985516471643619,-0.14298646997613,1.67998290985927,,-2.184629418909619,,
,4814.0,527.0,4371.0,677.0,72.0,1237.0,3705.0,,,,0.098558185357626,-0.142923439726083,1.68093272877646,,-2.064536035937278,,
,4817.0,528.0,4371.0,680.0,55.0,1250.0,3730.0,,,,0.0985708218769616,-0.143078746824797,1.68093979455959,,-1.9072994282086029,,
,4818.0,529.0,4373.0,678.0,50.0,1253.0,3733.0,,,,0.0985803149989403,-0.142291211950704,1.68209336165997,,-1.7123663586028355,,
,4820.0,528.0,4372.0,679.0,50.0,1251.0,3728.0,,,,0.0985888962049169,-0.141979741849219,1.68341017095279,,-1.4804842555952116,,
,4820.0,528.0,4377.0,679.0,53.0,1243.0,3719.0,,,,0.0986072566389615,-0.141951520039888,1.68422838172811,,-1.213643886557938,,
,4827.0,530.0,4382.0,681.0,67.0,1237.0,3733.0,,,,0.0986238044483716,-0.141718134556408,1.68586332522088,,-0.9149642764736488,,
,4827.0,531.0,4383.0,681.0,77.0,1232.0,3728.0,,,,0.0986203328115356,-0.14157237455621,1.68542997956026,,-0.5885400026979377,,
,4829.0,531.0,4387.0,681.0,57.0,1235.0,3713.0,,,,0.0986261267932925,-0.141542168320861,1.68591453458946,,-0.2392678619302898,,
,4833.0,531.0,4389.0,681.0,61.0,1259.0,3719.0,,,,0.0986171240649514,-0.141635020605639,1.68602893303391,,0.1273353867801457,,
,4832.0,531.0,4392.0,682.0,64.0,1264.0,3738.0,,,,0.0986169815358112,-0.141825303871687,1.68433958647258,,0.5053164662795868,,
,4835.0,529.0,4393.0,684.0,60.0,1269.0,3766.0,,,,0.098615352611509,-0.141972689840845,1.68435212375574,,0.8884633828572643,,
,4833.0,529.0,4393.0,682.0,52.0,1260.0,3772.0,,,,0.0986092215179404,-0.141924491975037,1.68506704143666,,1.270469699974548,,
,4829.0,529.0,4385.0,682.0,58.0,1265.0,3767.0,,,,0.0986182283430543,-0.141457445771076,1.68655696183422,,1.645076701047438,,
,4825.0,529.0,4379.0,680.0,52.0,1264.0,3741.0,,,,0.098637189350633,-0.140939430216818,1.68816629601483,,2.006185956217545,,
,4818.0,529.0,4370.0,680.0,61.0,1235.0,3734.0,,,,0.0986646309563139,-0.140530515548733,1.69070090123407,,2.34793785405648,,
,4810.0,528.0,4359.0,679.0,67.0,1245.0,3749.0,,,,0.098674717359745,-0.140343953365365,1.69140374412495,,2.664756356790364,,
,4798.0,524.0,4347.0,673.0,72.0,1253.0,3752.0,,,,0.0986655348313041,-0.14072961092694,1.69043643753203,,2.9513664053291992,,
,4788.0,520.0,4335.0,669.0,62.0,1254.0,3736.0,,,,0.098634913510045,-0.141174943747525,1.68816845165872,,3.202797639138975,,
,4778.0,520.0,4323.0,672.0,57.0,1238.0,3720.0,,,,0.09860618767845,-0.141866512114759,1.6855380162456,,3.4143949427135483,,
,4770.0,520.0,4313.0,669.0,72.0,1235.0,3737.0,,,,0.0985701074930759,-0.142691038233019,1.68233278779137,,3.581859882036511,,
,4759.0,521.0,4305.0,669.0,66.0,1237.0,3741.0,,,,0.0985285697069129,-0.143403257224903,1.67821761593141,,3.7013441152393383,,
,4751.0,518.0,4291.0,666.0,61.0,1279.0,3736.0,,,,0.098486025024425,-0.14453737571974,1.67496567177129,,3.7696051131025654,,
,4746.0,519.0,4285.0,665.0,62.0,1273.0,3725.0,,,,0.0984460886111693,-0.145402161732415,1.67100839726226,,3.7842182977129752,,
,4738.0,516.0,4280.0,666.0,63.0,1270.0,3735.0,,,,0.0984157293309026,-0.145958466168622,1.66837914912381,,3.7438227893121745,,
,4736.0,515.0,4276.0,666.0,64.0,1272.0,3743.0,,,,0.0983856015619796,-0.146781323351889,1.66439973289689,,3.6483649267454776,,
,4732.0,517.0,4269.0,662.0,69.0,1258.0,3758.0,,,,0.0983603091257798,-0.147551757468441,1.66202330453713,,3.4992972305358006,,
,4727.0,515.0,4269.0,662.0,85.0,1244.0,3780.0,,,,0.0983069675108143,-0.148199351450403,1.65854014727744,,3.299691457291728,,
,4729.0,515.0,4266.0,665.0,64.0,1254.0,3771.0,,,,0.0982772990625305,-0.149146252809702,1.65339272493335,,3.054233035476581,,
,4726.0,516.0,4265.0,665.0,60.0,1275.0,3765.0,,,,0.0982437895864182,-0.150002720514101,1.64990338633139,,2.7690800239796545,,
,4729.0,515.0,4263.0,665.0,65.0,1278.0,3766.0,,,,0.0981995369843755,-0.150812598130968,1.64746378471534,,2.4515909239442966,,
,4725.0,513.0,4261.0,662.0,67.0,1275.0,3745.0,,,,0.0981630184060506,-0.151614189384931,1.64286002963418,,2.109948053851422,,
,4729.0,515.0,4264.0,664.0,70.0,1257.0,3745.0,,,,0.0981268221175073,-0.151948228725233,1.64075759573733,,1.752720830638956,,
,4729.0,518.0,4264.0,664.0,66.0,1274.0,3722.0,,,,0.0980954435022733,-0.152251347116557,1.6384321363908,,1.3884210607033962,,
,4727.0,516.0,4264.0,666.0,62.0,1268.0,3715.0,,,,0.098077627541741,-0.15257611088655,1.63573758109735,,1.0250988529952476,,
,4729.0,516.0,4268.0,665.0,44.0,1262.0,3772.0,,,,0.0980794591688014,-0.152920303863997,1.635420868876,,0.6700157188211942,,
,4730.0,516.0,4269.0,666.0,70.0,1239.0,3750.0,,,,0.0980697809288425,-0.153246295278684,1.63503344141258,,0.32941522162616893,,
,4733.0,517.0,4271.0,667.0,55.0,1237.0,3734.0,,,,0.0980659688441884,-0.153317679115262,1.63495059591814,,0.00839493779828111,,
,4734.0,518.0,4273.0,667.0,64.0,1251.0,3740.0,,,,0.0980591482883301,-0.15319492734831,1.63482048986553,,-0.28913095846703596,,
,4737.0,517.0,4280.0,669.0,62.0,1262.0,3762.0,,,,0.0980534916766503,-0.152988324482708,1.63410738018453,,-0.5603995392246935,,
,4740.0,520.0,4280.0,668.0,57.0,1240.0,3757.0,,,,0.0980599696379257,-0.15294209235677,1.63366266848157,,-0.8037231473790393,,
,4745.0,521.0,4281.0,668.0,66.0,1242.0,3754.0,,,,0.0980574266872846,-0.153105368832372,1.63462965505607,,-1.0183936019004909,,
,4747.0,520.0,4287.0,671.0,63.0,1272.0,3754.0,,,,0.0980773609590883,-0.152863990362894,1.63592037788371,,-1.2045831500615185,,
,4747.0,520.0,4288.0,670.0,75.0,1272.0,3738.0,,,,0.0980916481779701,-0.152560345377477,1.63665464336646,,-1.3632483093027927,,
,4749.0,520.0,4286.0,669.0,76.0,1260.0,3737.0,,,,0.0981064183725366,-0.152433564243721,1.63804069708071,,-1.4960333431224282,,
,4747.0,520.0,4290.0,670.0,85.0,1267.0,3739.0,,,,0.0981352450140318,-0.152236902965881,1.63981777601982,,-1.6051652659257125,,
,4752.0,521.0,4294.0,672.0,76.0,1262.0,3737.0,,,,0.0981492224302045,-0.151970531279395,1.64097629226611,,-1.693333004960193,,
,4756.0,523.0,4293.0,672.0,68.0,1259.0,3737.0,,,,0.0981599144410999,-0.151758588602603,1.64273836911685,,-1.7635479609613924,,
,4757.0,521.0,4295.0,671.0,78.0,1253.0,3750.0,,,,0.0981755379975118,-0.151383238382724,1.64407508504516,,-1.818989027205659,,
,4759.0,522.0,4292.0,672.0,46.0,1255.0,3743.0,,,,0.0981866932838803,-0.151170101932197,1.64503713762869,,-1.8628402195551113,,
,4759.0,521.0,4295.0,672.0,58.0,1262.0,3733.0,,,,0.0982021316828858,-0.151346993267621,1.64676593792608,,-1.8981324618822637,,
,4761.0,523.0,4299.0,673.0,48.0,1273.0,3734.0,,,,0.0982045284528569,-0.150780975239579,1.64725219020647,,-1.927602095800972,,
,4761.0,524.0,4294.0,672.0,61.0,1273.0,3734.0,,,,0.098205024308199,-0.150556106178999,1.6470213542018,,-1.9535766425014884,,
,4760.0,521.0,4295.0,673.0,57.0,1290.0,3737.0,,,,0.0982203781113405,-0.150580941260514,1.64835935169746,,-1.9778928902467254,,
,4763.0,522.0,4296.0,672.0,55.0,1250.0,3729.0,,,,0.0982103850614041,-0.150549237919323,1.64724152663576,,-2.0018444686568793,,
,4763.0,523.0,4295.0,673.0,70.0,1268.0,3756.0,,,,0.0982159946734058,-0.150538932617534,1.64801285182309,,-2.0261485801840156,,
,4762.0,521.0,4294.0,673.0,66.0,1272.0,3767.0,,,,0.0982135356508656,-0.150416712559823,1.64790979398156,,-2.0509182647530166,,
,4766.0,520.0,4296.0,672.0,74.0,1271.0,3761.0,,,,0.0982166775711845,-0.150280628228442,1.64882614936451,,-2.075629638438542,,
,4764.0,521.0,4291.0,671.0,88.0,1267.0,3767.0,,,,0.0982194602711228,-0.150178950760554,1.64907988011382,,-2.099081893868259,,
,4764.0,521.0,4296.0,674.0,66.0,1251.0,3764.0,,,,0.098224616588683,-0.150215207236325,1.64937716251432,,-2.1193580918935147,,
,4768.0,522.0,4296.0,674.0,76.0,1264.0,3734.0,,,,0.0982311224715909,-0.149942254072663,1.65045456053146,,-2.133803455298118,,
,4768.0,521.0,4295.0,672.0,83.0,1258.0,3734.0,,,,0.0982395941015485,-0.150025477172393,1.65168195242771,,-2.1390428006502793,,
,4768.0,521.0,4294.0,675.0,71.0,1259.0,3746.0,,,,0.0982518591190192,-0.149787732680124,1.65000664765516,,-2.131058880475187,,
,4765.0,524.0,4293.0,673.0,63.0,1246.0,3739.0,,,,0.0982418824913566,-0.149838340111587,1.65171251987076,,-2.105348304345244,,
,4771.0,523.0,4297.0,673.0,62.0,1255.0,3745.0,,,,0.0982600028955425,-0.149819659500424,1.65217308115452,,-2.05716131509796,,
,4771.0,522.0,4298.0,674.0,63.0,1253.0,3743.0,,,,0.0982587112512743,-0.149841122218394,1.65181484244783,,-1.9818168276534436,,
,4771.0,524.0,4299.0,673.0,59.0,1240.0,3724.0,,,,0.0982567749524291,-0.149644575136547,1.65238067535095,,-1.8750673041188655,,
,4773.0,521.0,4296.0,673.0,57.0,1257.0,3746.0,,,,0.0982681211977178,-0.149471686822733,1.65263256173003,,-1.733473774744811,,
,4774.0,524.0,4299.0,675.0,81.0,1243.0,3727.0,,,,0.0982745871504815,-0.149420802687968,1.65336186651325,,-1.554744789368607,,
,4777.0,524.0,4302.0,676.0,65.0,1259.0,3735.0,,,,0.0982868528493761,-0.149251945935903,1.65501074614378,,-1.337997221632395,,
,4779.0,523.0,4304.0,675.0,50.0,1264.0,3735.0,,,,0.0982875584308234,-0.14903350873968,1.65427666420612,,-1.083910383111722,,
,4781.0,524.0,4304.0,674.0,56.0,1285.0,3746.0,,,,0.0983053570451768,-0.148921470806011,1.65549273185945,,-0.7947633135650605,,
,4784.0,524.0,4303.0,677.0,61.0,1277.0,3716.0,,,,0.0983068160273879,-0.14876425983593,1.65595285484059,,-0.47436330994866616,,
,4787.0,525.0,4309.0,678.0,45.0,1251.0,3755.0,,,,0.0982970553053359,-0.148600145957296,1.65729583958853,,-0.12788805226404515,,
,4787.0,527.0,4309.0,679.0,61.0,1250.0,3728.0,,,,0.0983047446992809,-0.14868007570814,1.65713606490161,,0.23832795541554072,,
,4789.0,524.0,4311.0,679.0,61.0,1256.0,3727.0,,,,0.0983211438755252,-0.148589065377477,1.65766400004687,,0.6170304716664784,,
,4790.0,524.0,4314.0,678.0,52.0,1245.0,3744.0,,,,0.098307759623688,-0.148415883362603,1.65855977721347,,1.0002796543426298,,
,4792.0,528.0,4316.0,679.0,53.0,1253.0,3721.0,,,,0.0983166101130545,-0.148332939707524,1.65787577461693,,1.379666462990141,,
,4797.0,526.0,4319.0,680.0,68.0,1250.0,3741.0,,,,0.0983194251102985,-0.148188925785137,1.65962428285435,,1.7465111451551654,,
,4799.0,527.0,4320.0,681.0,73.0,1247.0,3746.0,,,,0.0983264034036581,-0.148151820530689,1.66030016785335,,2.0920562854565787,,
,4800.0,526.0,4321.0,681.0,61.0,1261.0,3742.0,,,,0.0983257217317929,-0.148004849970321,1.66044378073824,,2.407673009067715,,
,4804.0,524.0,4324.0,678.0,62.0,1256.0,3737.0,,,,0.0983331553529711,-0.147993836274806,1.65998303672649,,2.6850967489593973,,
,4804.0,527.0,4327.0,683.0,72.0,1271.0,3752.0,,,,0.0983480566113265,-0.147862138020268,1.66018370608549,,2.916700301242242,,
,4809.0,529.0,4331.0,684.0,62.0,1291.0,3764.0,,,,0.0983535964134073,-0.147686158567072,1.66027875790499,,3.095800074998798,,
,4812.0,529.0,4335.0,682.0,64.0,1285.0,3765.0,,,,0.0983469885754594,-0.147644941758342,1.66134039039352,,3.216979246871644,,
,4811.0,528.0,4336.0,683.0,74.0,1279.0,3743.0,,,,0.0983465037083879,-0.148153587668297,1.66030245568226,,3.2764007882550312,,
2025-07-01 20:34:35,4814.0,531.0,4336.0,683.0,58.0,1271.0,3747.0,,,2025/07/01 08:34:35 PM,0.0983410757330433,-0.147864109206318,1.66026098191323,,3.272075859974346,,
,4818.0,529.0,4337.0,682.0,59.0,1276.0,3729.0,,,,0.0983405253943797,-0.148081273303953,1.6591095873073,,3.2040510721113513,,
,4815.0,528.0,4330.0,682.0,72.0,1265.0,3712.0,,,,0.0983363294505171,-0.14797320812399,1.65962298605166,,3.074483458872615,,
,4809.0,525.0,4322.0,683.0,74.0,1312.0,3722.0,,,,0.0983466641520978,-0.148082235470322,1.65928233031743,,2.88758486947577,,
,4802.0,525.0,4313.0,679.0,68.0,1273.0,3740.0,,,,0.0983503612391693,-0.147526700614814,1.6602313917025,,2.6494351787040937,,
,4798.0,524.0,4300.0,677.0,67.0,1267.0,3724.0,,,,0.0983603205409079,-0.147565808258056,1.66140182807327,,2.367681284044551,,
,4787.0,524.0,4289.0,680.0,49.0,1248.0,3745.0,,,,0.098360470170829,-0.147745451858588,1.66051210435717,,2.051151341790633,,
,4779.0,522.0,4275.0,675.0,43.0,1253.0,3739.0,,,,0.0983237173614114,-0.148569376017645,1.65854556771363,,1.709418939202966,,
,4769.0,520.0,4262.0,672.0,66.0,1252.0,3738.0,,,,0.0982877250267649,-0.149377705538003,1.65566286662053,,1.3523510191401544,,
,4763.0,519.0,4250.0,669.0,73.0,1235.0,3724.0,,,,0.0982454748033475,-0.149828420382928,1.65105475072596,,0.9896688036721726,,
,4757.0,521.0,4240.0,670.0,70.0,1236.0,3727.0,,,,0.0982100377862978,-0.150761851895123,1.64793239995134,,0.6305445645743094,,
,4749.0,515.0,4229.0,668.0,69.0,1232.0,3749.0,,,,0.0981627861753039,-0.15153441343025,1.64288641925508,,0.28325005281112225,,
,4743.0,518.0,4220.0,667.0,55.0,1249.0,3734.0,,,,0.0981141730097482,-0.152237058868599,1.64055536586193,,-0.045133988463268375,,
,4737.0,516.0,4214.0,664.0,35.0,1273.0,3730.0,,,,0.0980921793442117,-0.153071957392296,1.6360906334264,,-0.34894205300494785,,
,4733.0,516.0,4210.0,669.0,42.0,1279.0,3741.0,,,,0.0980442196272734,-0.153816871847365,1.63298902695814,,-0.624077812021304,,
,4730.0,515.0,4204.0,667.0,36.0,1269.0,3744.0,,,,0.0980095078367686,-0.154454995367699,1.62958781930426,,-0.8680922620130175,,
,4727.0,516.0,4200.0,665.0,50.0,1269.0,3740.0,,,,0.0979767017563842,-0.1550732555045,1.626134738778,,-1.0801787758194865,,
,4727.0,514.0,4199.0,663.0,77.0,1255.0,3747.0,,,,0.0979622571661552,-0.155743685312784,1.62342010231548,,-1.261078664328135,,
,4725.0,515.0,4198.0,664.0,62.0,1294.0,3752.0,,,,0.097896308725687,-0.156580949696557,1.62030044077154,,-1.4128961548548404,,
,4726.0,515.0,4196.0,665.0,75.0,1283.0,3729.0,,,,0.0978772735146733,-0.157143966697541,1.61734620040801,,-1.5388304307028102,,
,4729.0,515.0,4199.0,666.0,82.0,1276.0,3727.0,,,,0.0978484329158821,-0.157539128712496,1.61515144097216,,-1.642841876983701,,
,4726.0,514.0,4197.0,666.0,74.0,1266.0,3743.0,,,,0.0977995607665263,-0.15825629248468,1.61081500914738,,-1.7292774556844337,,
,4727.0,515.0,4199.0,666.0,74.0,1272.0,3737.0,,,,0.0977756345655372,-0.159191054291453,1.60768138801819,,-1.8024848904721922,,
,4730.0,515.0,4203.0,667.0,61.0,1263.0,3737.0,,,,0.0977300633719873,-0.159804676813966,1.60373094094381,,-1.8664466590760929,,
,4731.0,516.0,4201.0,668.0,81.0,1255.0,3761.0,,,,0.0977089128729703,-0.159911878954434,1.6026096662971,,-1.9244625075193333,,
,4733.0,515.0,4205.0,668.0,84.0,1253.0,3746.0,,,,0.0977059171058921,-0.160371924983259,1.60108195721899,,-1.9789032231363877,,
,4733.0,516.0,4206.0,666.0,81.0,1251.0,3755.0,,,,0.0977054097777399,-0.160397971986619,1.6017262670371,,-2.0310490450036123,,
,4738.0,518.0,4207.0,668.0,74.0,1262.0,3761.0,,,,0.0977025848678746,-0.160746100564049,1.59980625992222,,-2.081014770220979,,
,4743.0,517.0,4211.0,670.0,74.0,1236.0,3744.0,,,,0.0976992379689322,-0.160736923676432,1.60101098684758,,-2.1277532403766704,,
,4742.0,518.0,4215.0,669.0,77.0,1236.0,3751.0,,,,0.0976841135490095,-0.160787368457695,1.6008483960174,,-2.1691228546911003,,
,4745.0,519.0,4217.0,670.0,79.0,1245.0,3765.0,,,,0.0976726720659327,-0.160771682743529,1.59862255043106,,-2.2020047084696865,,
,4748.0,519.0,4217.0,670.0,79.0,1253.0,3757.0,,,,0.0976809318441935,-0.160819005142096,1.59904507953563,,-2.222459510935735,,
,4753.0,520.0,4221.0,672.0,75.0,1241.0,3706.0,,,,0.0976838934636368,-0.160826394357625,1.60011911674738,,-2.2259202838390832,,
,4755.0,521.0,4223.0,671.0,72.0,1251.0,3734.0,,,,0.0976920012571399,-0.160437845580175,1.60162509203964,,-2.2074209924359067,,
,4757.0,521.0,4225.0,673.0,79.0,1234.0,3762.0,,,,0.097699678116202,-0.160419438041855,1.60091441487366,,-2.1618622578682443,,
,4757.0,519.0,4226.0,672.0,62.0,1233.0,3744.0,,,,0.0977231676554485,-0.160154269300261,1.60287294210519,,-2.0843129636555147,,
,4761.0,521.0,4228.0,675.0,76.0,1259.0,3735.0,,,,0.0977461334622864,-0.159908363876313,1.60503876008103,,-1.9703412575279344,,
,4763.0,518.0,4228.0,673.0,78.0,1292.0,3738.0,,,,0.0977530694686578,-0.159881551634366,1.60502783926401,,-1.8163607560244046,,
,4763.0,521.0,4228.0,674.0,78.0,1289.0,3731.0,,,,0.097764970018419,-0.159577342671617,1.60498143457376,,-1.6199688729275827,,
,4765.0,520.0,4229.0,673.0,76.0,1270.0,3734.0,,,,0.0977799074309887,-0.159217131049311,1.60654584734399,,-1.3802465383801492,,
,4767.0,520.0,4229.0,674.0,73.0,1272.0,3754.0,,,,0.0977825051416586,-0.159013112887548,1.60681087831012,,-1.097985728069585,,
,4770.0,520.0,4228.0,674.0,67.0,1272.0,3746.0,,,,0.0977861944472953,-0.158876692356678,1.60790457722896,,-0.775816172346375,,
,4770.0,523.0,4226.0,673.0,57.0,1268.0,3729.0,,,,0.0977964186615182,-0.158870637570741,1.60897411371268,,-0.4182152650541982,,
,4772.0,521.0,4227.0,674.0,68.0,1278.0,3735.0,,,,0.0977949760434809,-0.158703305925646,1.60850568840332,,-0.03140173636807668,,
,4771.0,519.0,4226.0,675.0,59.0,1271.0,3747.0,,,,0.0978100348267128,-0.158751792762985,1.60996939641319,,0.37687111580756405,,
,4771.0,520.0,4224.0,675.0,74.0,1264.0,3754.0,,,,0.0978135822802978,-0.158479261781628,1.61049475734507,,0.7975966631187146,,
,4772.0,521.0,4225.0,673.0,69.0,1261.0,3733.0,,,,0.0978225473058647,-0.158262062258989,1.61099897325339,,1.2208408666750037,,
,4774.0,521.0,4224.0,676.0,73.0,1243.0,3740.0,,,,0.0978249850868109,-0.158319125272419,1.61189898781169,,1.6360853155792632,,
,4775.0,522.0,4224.0,676.0,65.0,1269.0,3742.0,,,,0.097835783359032,-0.158204679411994,1.61255474998503,,2.0325670477336772,,
,4774.0,519.0,4221.0,673.0,74.0,1269.0,3741.0,,,,0.0978428422802841,-0.157760388273611,1.61266059453987,,2.3996055270412886,,
,4777.0,523.0,4224.0,675.0,70.0,1268.0,3758.0,,,,0.0978479762897159,-0.157961430640203,1.61410478933674,,2.7269189123501882,,
,4779.0,524.0,4221.0,675.0,66.0,1267.0,3741.0,,,,0.0978510950465066,-0.158011554977686,1.61331186348721,,3.004940904840948,,
,4780.0,521.0,4222.0,677.0,67.0,1275.0,3733.0,,,,0.0978453318033469,-0.157875153222173,1.6137226529664,,3.2251518714043406,,
,4779.0,521.0,4222.0,675.0,73.0,1276.0,3735.0,,,,0.0978582674368964,-0.157843582115063,1.61438747242812,,3.380431186173876,,
,4786.0,523.0,4224.0,673.0,63.0,1273.0,3720.0,,,,0.0978568123972248,-0.158142210699567,1.61390043060724,,3.4654231895843197,,
,4785.0,522.0,4226.0,677.0,53.0,1273.0,3730.0,,,,0.0978508994306765,-0.158029376370648,1.61448453090793,,3.476891730734724,,
,4786.0,524.0,4224.0,678.0,57.0,1260.0,3728.0,,,,0.0978638613494424,-0.157759840627199,1.61511792885605,,3.414023669336302,,
,4789.0,524.0,4225.0,674.0,62.0,1260.0,3738.0,,,,0.0978728201086324,-0.157764532494659,1.61532917039574,,3.278634110291543,,
,4789.0,524.0,4225.0,677.0,78.0,1256.0,3733.0,,,,0.0978514805985124,-0.157509616492966,1.61533833703739,,3.075227628212705,,
,4791.0,523.0,4227.0,678.0,68.0,1271.0,3722.0,,,,0.0978613454646098,-0.157482828188865,1.61619252956335,,2.810880937073135,,
,4796.0,524.0,4230.0,680.0,61.0,1276.0,3721.0,,,,0.0978582433635719,-0.1576299567234,1.61678140668517,,2.4949325968349942,,
,4796.0,524.0,4227.0,679.0,58.0,1273.0,3718.0,,,,0.0978754211179976,-0.157188763025048,1.61711066978206,,2.1384917086696897,,
,4798.0,523.0,4230.0,677.0,77.0,1281.0,3739.0,,,,0.0978835837174743,-0.156973736380273,1.61687419259701,,1.7538051216890986,,
,4802.0,525.0,4235.0,681.0,68.0,1259.0,3727.0,,,,0.0978920624919505,-0.156750237527359,1.61876273182026,,1.3535448750052694,,
,4805.0,527.0,4237.0,683.0,53.0,1252.0,3757.0,,,,0.09790614115408,-0.156396796699942,1.62095197397336,,0.9500885282478077,,
,4807.0,526.0,4236.0,682.0,62.0,1255.0,3738.0,,,,0.0979069307482634,-0.156049947553668,1.62087203504094,,0.55486224322916,,
,4809.0,526.0,4238.0,680.0,53.0,1277.0,3716.0,,,,0.097925415047441,-0.156127952637011,1.62188758947589,,0.177802056766259,,
,4811.0,526.0,4238.0,682.0,68.0,1303.0,3733.0,,,,0.0979360194849901,-0.155995196502244,1.62273392404645,,-0.17303224432927108,,
,4816.0,527.0,4244.0,683.0,71.0,1262.0,3762.0,,,,0.0979442232293458,-0.155755748020455,1.62260292606503,,-0.4916785984336984,,
,4816.0,527.0,4245.0,681.0,66.0,1250.0,3744.0,,,,0.0979383838726397,-0.155787652264533,1.62391928279708,,-0.7743372122165599,,
,4820.0,526.0,4247.0,683.0,78.0,1251.0,3736.0,,,,0.0979455426621798,-0.155774603368001,1.6239615515935,,-1.0193005279245528,,
,4824.0,527.0,4249.0,683.0,89.0,1235.0,3779.0,,,,0.0979569168384704,-0.155211160658273,1.62548818519522,,-1.2267789597908292,,
,4825.0,529.0,4254.0,682.0,82.0,1249.0,3767.0,,,,0.0979789126317721,-0.155173497344499,1.62616056407895,,-1.398653526228013,,
,4829.0,531.0,4256.0,686.0,69.0,1268.0,3773.0,,,,0.0979933226768334,-0.154991517030783,1.62767882218707,,-1.5381808857171089,,
,4830.0,529.0,4259.0,686.0,68.0,1267.0,3776.0,,,,0.0979924522597378,-0.154730325211446,1.62838766377702,,-1.649666925688977,,
,4833.0,528.0,4256.0,684.0,60.0,1259.0,3743.0,,,,0.0980059304077876,-0.154656979496354,1.62966509275011,,-1.7381161949535284,,
,4831.0,526.0,4251.0,684.0,52.0,1262.0,3736.0,,,,0.0980222092923474,-0.154262680821327,1.63099705267796,,-1.808860182712617,,
,4830.0,528.0,4246.0,684.0,52.0,1271.0,3751.0,,,,0.0980350581607277,-0.153876303324299,1.63253475407399,,-1.867169372002848,,
,4828.0,528.0,4238.0,682.0,67.0,1285.0,3777.0,,,,0.0980533060818907,-0.153842112251529,1.63262193780741,,-1.917860656432595,,
,4818.0,523.0,4222.0,680.0,69.0,1298.0,3764.0,,,,0.0980624588089293,-0.153393828864658,1.63521267144085,,-1.9649199546408371,,
,4811.0,524.0,4208.0,678.0,72.0,1315.0,3738.0,,,,0.0980758172502362,-0.153161277161226,1.63637092171687,,-2.0111667790939673,,
,4804.0,523.0,4195.0,676.0,62.0,1271.0,3763.0,,,,0.098069045253015,-0.153328154671745,1.63532325788616,,-2.057991242747606,,
,4797.0,520.0,4182.0,674.0,63.0,1255.0,3766.0,,,,0.0980560518986986,-0.15395146650854,1.63408333731226,,-2.1051933860087484,,
,4788.0,519.0,4170.0,673.0,78.0,1254.0,3757.0,,,,0.0980116846047843,-0.154696481156798,1.6298304218713,,-2.150948970578693,,
,4780.0,518.0,4155.0,672.0,63.0,1236.0,3731.0,,,,0.0979579512516583,-0.155521301312633,1.62667501252007,,-2.191914675560119,,
,4773.0,516.0,4147.0,670.0,71.0,1240.0,3735.0,,,,0.0979161181704433,-0.156493555587995,1.62199346572573,,-2.223469784176515,,
,4768.0,515.0,4133.0,669.0,75.0,1264.0,3731.0,,,,0.0978722006560236,-0.157378009333398,1.61741562485705,,-2.240073716545793,,
,4761.0,515.0,4129.0,666.0,75.0,1274.0,3762.0,,,,0.0978304588329145,-0.158185399204132,1.61389437315093,,-2.2357035058387233,,
,4759.0,513.0,4120.0,666.0,82.0,1292.0,3758.0,,,,0.097786574339182,-0.158786228078691,1.61037076645143,,-2.2043266236256294,,
,4756.0,514.0,4113.0,663.0,65.0,1270.0,3760.0,,,,0.0977640987638695,-0.159284855083506,1.6093881525539,,-2.1403640520603058,,
,4755.0,514.0,4108.0,664.0,79.0,1263.0,3735.0,,,,0.0977322703680148,-0.159906293642175,1.60641092861844,,-2.0391048474417075,,
,4750.0,513.0,4104.0,662.0,77.0,1266.0,3763.0,,,,0.0977033224690142,-0.160205526930852,1.60441153136304,,-1.8970439098937295,,
,4753.0,514.0,4104.0,667.0,81.0,1271.0,3762.0,,,,0.0976860228947483,-0.160638382967328,1.60243746345123,,-1.7121268998228432,,
,4752.0,513.0,4107.0,666.0,85.0,1291.0,3756.0,,,,0.0976793518512513,-0.160822459147613,1.60028814264482,,-1.4838986590123247,,
,4751.0,513.0,4103.0,664.0,78.0,1247.0,3754.0,,,,0.0976624174848487,-0.161413523268365,1.59864663416265,,-1.2135626457176059,,
,4751.0,514.0,4103.0,664.0,79.0,1246.0,3729.0,,,,0.0976428368564706,-0.161873404365487,1.59660090343416,,-0.9039668538727469,,
,4754.0,516.0,4105.0,664.0,66.0,1247.0,3713.0,,,,0.097601765596019,-0.162371520527762,1.59435849440784,,-0.5595344552582746,,
,4756.0,513.0,4104.0,664.0,70.0,1257.0,3730.0,,,,0.0975863370154228,-0.162707374263337,1.59116728277021,,-0.18615415048909592,,
,4756.0,515.0,4108.0,666.0,65.0,1259.0,3772.0,,,,0.0975558228955733,-0.163043209223595,1.58923495031971,,0.20896246040248712,,
,4757.0,517.0,4110.0,665.0,73.0,1264.0,3755.0,,,,0.0975465521769707,-0.163465519316439,1.58869821460781,,0.6174573383984507,,
,4759.0,515.0,4110.0,666.0,78.0,1259.0,3759.0,,,,0.0975394259101987,-0.163670303753921,1.58773398217675,,1.0300416891533952,,
,4762.0,518.0,4113.0,669.0,74.0,1254.0,3762.0,,,,0.0975345569414097,-0.163491844622729,1.58725892140469,,1.4367555799787606,,
,4764.0,517.0,4116.0,669.0,63.0,1246.0,3779.0,,,,0.0975313056448885,-0.163797718847764,1.5867603159137,,1.82727173519742,,
,4767.0,518.0,4119.0,668.0,64.0,1284.0,3745.0,,,,0.0975438036839447,-0.163556748136979,1.58741778216275,,2.1912380690175013,,
,4771.0,516.0,4120.0,668.0,68.0,1269.0,3724.0,,,,0.0975429919860409,-0.163609850011056,1.58744363643324,,2.5186482132922574,,
,4772.0,518.0,4123.0,668.0,68.0,1265.0,3746.0,,,,0.097545880026891,-0.163469893579505,1.5873434412708,,2.8002246906887436,,
,4778.0,520.0,4127.0,670.0,74.0,1259.0,3757.0,,,,0.097547444734256,-0.163322464777767,1.58902111223254,,3.0277955140518453,,
,4779.0,518.0,4125.0,672.0,54.0,1250.0,3728.0,,,,0.0975678409248007,-0.163170863332502,1.58977036517125,,3.1946425007755392,,
,4781.0,518.0,4131.0,670.0,71.0,1236.0,3739.0,,,,0.0975775691175442,-0.162798553313572,1.59122238482582,,3.295799592855368,,
,4785.0,520.0,4136.0,670.0,72.0,1261.0,3754.0,,,,0.0976108348715749,-0.162434475351666,1.59316050770022,,3.328282649431143,,
,4786.0,519.0,4137.0,673.0,81.0,1264.0,3744.0,,,,0.0976370781311499,-0.16192118717417,1.59568007727434,,3.291237773768546,,
,4788.0,521.0,4136.0,670.0,74.0,1264.0,3750.0,,,,0.0976660691205215,-0.161316850023976,1.59760379362827,,3.1860010571826383,,
,4791.0,518.0,4138.0,672.0,61.0,1263.0,3728.0,,,,0.0976896125008934,-0.160864840018588,1.6001027133465,,3.0160666616616734,,
,4793.0,520.0,4137.0,672.0,68.0,1254.0,3720.0,,,,0.0977132267036896,-0.160555121191927,1.60260149300378,,2.7869624351251496,,
,4795.0,521.0,4140.0,671.0,74.0,1266.0,3747.0,,,,0.0977396145864459,-0.159869619921713,1.60457825612522,,2.5060345609632386,,
,4798.0,521.0,4141.0,674.0,76.0,1256.0,3746.0,,,,0.097766637409497,-0.1593632551478,1.60678753995722,,2.182146586360912,,
,4798.0,520.0,4139.0,671.0,80.0,1240.0,3735.0,,,,0.0977921103881827,-0.158846132057565,1.60873514503772,,1.8253033487337835,,
,4799.0,522.0,4141.0,672.0,66.0,1240.0,3721.0,,,,0.0978065986380398,-0.158409967002594,1.61093909184702,,1.4462155690321272,,
,4801.0,522.0,4139.0,673.0,59.0,1251.0,3733.0,,,,0.0978325942098534,-0.157972529255074,1.61332801229037,,1.0558253776740814,,
,4802.0,521.0,4136.0,673.0,79.0,1264.0,3748.0,,,,0.0978553598359748,-0.157452031757817,1.61534439023906,,0.6648169604616423,,
,4804.0,521.0,4139.0,672.0,75.0,1291.0,3749.0,,,,0.0978727951825234,-0.157032798957217,1.61770342348123,,0.2831403591489487,,
,4805.0,520.0,4138.0,673.0,64.0,1278.0,3726.0,,,,0.0979053508867744,-0.156740268376792,1.61885680926488,,-0.08042007985179206,,
,4806.0,521.0,4139.0,672.0,63.0,1268.0,3742.0,,,,0.097931240148113,-0.156244649414967,1.62044726645763,,-0.41859984050911053,,
,4809.0,522.0,4137.0,674.0,74.0,1235.0,3735.0,,,,0.09793502100838,-0.155991774727393,1.62137017920432,,-0.7259017067963597,,
,4808.0,521.0,4141.0,673.0,71.0,1237.0,3731.0,,,,0.09794852397493,-0.155777501724676,1.62276228728676,,-0.9987170031755347,,
,4811.0,520.0,4140.0,673.0,67.0,1231.0,3732.0,,,,0.0979576238617438,-0.155554517273625,1.62352936810205,,-1.2353153978712814,,
,4813.0,520.0,4141.0,675.0,64.0,1257.0,3755.0,,,,0.0979788070066868,-0.155316368835448,1.62450995031465,,-1.435713419642204,,
,4813.0,521.0,4139.0,675.0,71.0,1237.0,3764.0,,,,0.0979840742603164,-0.15503402170477,1.62583723559794,,-1.601444640707476,,
2025-07-01 20:34:36,4817.0,522.0,4143.0,677.0,66.0,1246.0,3752.0,,,2025/07/01 08:34:36 PM,0.0980003371251802,-0.154996916774157,1.6287724221459,,-1.7352627710909456,,
,4820.0,524.0,4142.0,677.0,74.0,1292.0,3741.0,,,,0.0979969046811175,-0.154503988281774,1.62886955419982,,-1.840812200200703,,
,4821.0,522.0,4143.0,675.0,65.0,1256.0,3744.0,,,,0.0980214517330089,-0.154194391577513,1.63130201852762,,-1.9222989265952892,,
,4825.0,523.0,4146.0,676.0,54.0,1238.0,3721.0,,,,0.0980421388901189,-0.15364636997146,1.63281047654515,,-1.9841885643046417,,
,4826.0,523.0,4147.0,678.0,54.0,1232.0,3748.0,,,,0.0980655944367304,-0.153466308185108,1.63303649118023,,-2.030947755819404,,
,4828.0,523.0,4146.0,678.0,57.0,1240.0,3740.0,,,,0.0980729263765376,-0.153152823591866,1.63529524811803,,-2.066832484810978,,
,4830.0,520.0,4150.0,678.0,62.0,1244.0,3736.0,,,,0.0980889679033312,-0.152507922961489,1.63689383391269,,-2.0957147198657258,,
,4832.0,525.0,4149.0,678.0,84.0,1259.0,3723.0,,,,0.0981186858681527,-0.152435008036774,1.63888311533928,,-2.120931622973547,,
,4835.0,523.0,4155.0,679.0,64.0,1261.0,3740.0,,,,0.0981364561197043,-0.15224031841948,1.63975484625834,,-2.145141890067252,,
,4835.0,524.0,4157.0,678.0,61.0,1238.0,3768.0,,,,0.0981461228625174,-0.151925345502643,1.64190974968476,,-2.1701810999684885,,
,4839.0,526.0,4157.0,677.0,58.0,1248.0,3789.0,,,,0.0981692424883619,-0.151510904795221,1.64280883649327,,-2.1969189782225365,,
,4840.0,524.0,4158.0,677.0,65.0,1262.0,3756.0,,,,0.0981596217231935,-0.151475092013992,1.64449339208941,,-2.2251324084939585,,
,4844.0,526.0,4163.0,680.0,76.0,1246.0,3745.0,,,,0.0981863844132151,-0.150848754653562,1.6456965648288,,-2.253416059943562,,
,4847.0,527.0,4163.0,680.0,65.0,1258.0,3730.0,,,,0.0981838117108235,-0.150711870014973,1.64632611210275,,-2.2791561093560864,,
,4850.0,525.0,4167.0,680.0,55.0,1256.0,3738.0,,,,0.0982176782644724,-0.150462458257311,1.64758248680224,,-2.2985908913945456,,
,4851.0,525.0,4168.0,680.0,63.0,1239.0,3743.0,,,,0.0982299985499671,-0.150160022316437,1.64902687084374,,-2.306974885922222,,
,4856.0,523.0,4169.0,682.0,63.0,1240.0,3751.0,,,,0.0982402164475977,-0.150029865503612,1.65057968116336,,-2.2988492905201108,,
,4860.0,530.0,4176.0,680.0,58.0,1234.0,3757.0,,,,0.0982653606544769,-0.149728545927381,1.65108755065875,,-2.268405024640281,,
,4864.0,529.0,4176.0,684.0,61.0,1264.0,3761.0,,,,0.0982809489206109,-0.14934234739118,1.65241846304852,,-2.2099060720037005,,
,4869.0,528.0,4180.0,683.0,71.0,1264.0,3770.0,,,,0.0982893230047801,-0.14886447695174,1.65316496167909,,-2.118127842849082,,
,4870.0,528.0,4182.0,684.0,74.0,1271.0,3759.0,,,,0.0982861962690903,-0.149047613915515,1.65401423973181,,-1.9887611443064481,,
,4870.0,529.0,4185.0,684.0,66.0,1258.0,3737.0,,,,0.0982940584487224,-0.149021823809092,1.65412000908164,,-1.81873859721549,,
,4874.0,530.0,4186.0,685.0,46.0,1263.0,3716.0,,,,0.0982902261226002,-0.149061537207508,1.654419401665,,-1.606454646125708,,
,4878.0,529.0,4186.0,684.0,33.0,1270.0,3713.0,,,,0.0983007032622472,-0.149087063101951,1.65549084539129,,-1.3518685783130506,,
,4875.0,528.0,4184.0,685.0,49.0,1298.0,3715.0,,,,0.098320304125689,-0.148700162450296,1.65572246771536,,-1.056498144612349,,
,4871.0,527.0,4175.0,683.0,53.0,1283.0,3709.0,,,,0.0983281882354575,-0.148390250690765,1.65834934551949,,-0.7233262137261707,,
,4872.0,530.0,4166.0,683.0,51.0,1266.0,3718.0,,,,0.0983558627015378,-0.147818450517094,1.66115925923096,,-0.35665185370702096,,
,4863.0,528.0,4152.0,679.0,51.0,1245.0,3750.0,,,,0.0983780122667334,-0.147382789511698,1.6622110170999,,0.03808147746677921,,
,4858.0,526.0,4137.0,675.0,59.0,1251.0,3747.0,,,,0.0983785289992085,-0.147243178409854,1.66317392061042,,0.45445469328415694,,
,4849.0,523.0,4121.0,675.0,63.0,1271.0,3718.0,,,,0.0983348187481408,-0.147991579436839,1.66164646696083,,0.8852256313560228,,
,4842.0,523.0,4108.0,672.0,68.0,1252.0,3731.0,,,,0.0983122223404669,-0.148456677682208,1.6585730262699,,1.322466656673161,,
,4834.0,523.0,4097.0,671.0,72.0,1241.0,3726.0,,,,0.0982948282527193,-0.148661540261653,1.65682246019611,,1.757699545299957,,
,4828.0,520.0,4084.0,668.0,68.0,1240.0,3736.0,,,,0.0982736070117877,-0.149060167984962,1.65383698640963,,2.182044331401396,,
,4824.0,516.0,4073.0,667.0,53.0,1247.0,3752.0,,,,0.0982503284128736,-0.149921704498253,1.65120531222971,,2.5863970270126173,,
,4818.0,518.0,4063.0,664.0,75.0,1247.0,3742.0,,,,0.0982133585560268,-0.150478704805832,1.64918013974367,,2.961645456516561,,
,4814.0,520.0,4055.0,663.0,60.0,1252.0,3707.0,,,,0.0981865837517958,-0.151033940800564,1.64634951996657,,3.298925049869283,,
,4810.0,518.0,4052.0,664.0,64.0,1244.0,3741.0,,,,0.0981654547361824,-0.151470673852497,1.64437358788908,,3.5899085086254092,,
,4808.0,517.0,4048.0,664.0,61.0,1249.0,3740.0,,,,0.0981302825701563,-0.15201222718268,1.64144380555184,,3.8271157103552667,,
,4807.0,515.0,4041.0,664.0,61.0,1261.0,3742.0,,,,0.0981069726451205,-0.152514131451331,1.63861918551081,,4.004224373588514,,
,4804.0,514.0,4041.0,663.0,55.0,1271.0,3720.0,,,,0.0980705327220334,-0.153244456870659,1.63524401812513,,4.116359357616782,,
,4804.0,516.0,4038.0,663.0,65.0,1245.0,3736.0,,,,0.0980430655412915,-0.153823804280594,1.6323692578724,,4.160339705396512,,
,4805.0,516.0,4039.0,664.0,63.0,1243.0,3744.0,,,,0.0980019436279981,-0.154487757867648,1.62776568572954,,4.134866708872068,,
,4804.0,517.0,4041.0,663.0,58.0,1260.0,3725.0,,,,0.0979716769370539,-0.155176121715676,1.62556475712476,,4.040641037939645,,
,4805.0,513.0,4038.0,662.0,64.0,1257.0,3739.0,,,,0.0979514289957318,-0.155853747397932,1.62205651382443,,3.8804001401477803,,
,4808.0,518.0,4041.0,663.0,74.0,1246.0,3759.0,,,,0.0979234322696625,-0.156375045158844,1.6208921485732,,3.6588684648011593,,
,4809.0,517.0,4045.0,664.0,64.0,1245.0,3740.0,,,,0.0979108372156232,-0.156647941576482,1.6190394033518,,3.382614492685881,,
,4811.0,518.0,4047.0,663.0,59.0,1244.0,3731.0,,,,0.0979013773585899,-0.156809753364006,1.61849893101582,,3.0598122278048847,,
,4812.0,518.0,4046.0,663.0,55.0,1275.0,3746.0,,,,0.0979164107540943,-0.15674544464366,1.61959443637442,,2.699911272187189,,
,4814.0,517.0,4051.0,663.0,68.0,1256.0,3743.0,,,,0.0979147810326045,-0.15657415771348,1.61915188539686,,2.313227731340956,,
,4816.0,519.0,4054.0,667.0,67.0,1241.0,3717.0,,,,0.0979181473516024,-0.156499214246261,1.62034530651949,,1.910476526645735,,
,4816.0,520.0,4058.0,666.0,56.0,1240.0,3716.0,,,,0.0979258679472058,-0.156364116160189,1.62036159159808,,1.5022733890298092,,
,4820.0,520.0,4060.0,663.0,62.0,1246.0,3766.0,,,,0.0979288777125292,-0.156228570164865,1.62163313792755,,1.0986414426960656,,
,4821.0,519.0,4059.0,664.0,52.0,1265.0,3745.0,,,,0.0979502619195312,-0.15595965854963,1.62275691249152,,0.7085619148297008,,
,4826.0,521.0,4068.0,667.0,61.0,1262.0,3758.0,,,,0.0979660289292224,-0.155722912238142,1.62405953239058,,0.33960903761824257,,
,4831.0,521.0,4071.0,668.0,78.0,1266.0,3770.0,,,,0.0979873337283585,-0.154890835435879,1.62699962830688,,-0.0022968978266236398,,
,4829.0,521.0,4070.0,668.0,63.0,1261.0,3753.0,,,,0.0980116061555074,-0.154694507613782,1.62877565147382,,-0.31299797882108416,,
,4833.0,521.0,4076.0,666.0,49.0,1252.0,3750.0,,,,0.0980472875678451,-0.154052394510249,1.63142498121067,,-0.5900669511318504,,
,4834.0,521.0,4075.0,669.0,63.0,1250.0,3759.0,,,,0.0980719962328897,-0.153619366225058,1.63397830386422,,-0.832652861317905,,
,4837.0,519.0,4080.0,669.0,76.0,1251.0,3773.0,,,,0.0980928913606524,-0.15291382945488,1.63649520310684,,-1.0412368540760961,,
,4841.0,522.0,4082.0,670.0,79.0,1253.0,3758.0,,,,0.0981180091013715,-0.152283428159681,1.63878894498386,,-1.2173397866661422,,
,4845.0,523.0,4082.0,668.0,76.0,1261.0,3756.0,,,,0.0981405913055713,-0.152092452288693,1.64080533851801,,-1.3632249970817516,,
,4845.0,522.0,4084.0,668.0,65.0,1258.0,3713.0,,,,0.0981596765131103,-0.151720438685961,1.64207534736283,,-1.4816342495748482,,
,4845.0,524.0,4086.0,669.0,63.0,1257.0,3726.0,,,,0.0981676472307559,-0.151403871465885,1.64388811460638,,-1.575583406431963,,
,4848.0,522.0,4086.0,667.0,66.0,1255.0,3741.0,,,,0.0981931612636248,-0.151040529346505,1.64526982579706,,-1.6482283500232369,,
,4852.0,524.0,4088.0,669.0,73.0,1235.0,3739.0,,,,0.0982060693144975,-0.150756701687636,1.64698631803466,,-1.7027940140033893,,
,4852.0,521.0,4090.0,668.0,82.0,1242.0,3744.0,,,,0.0982140005499074,-0.150606456296925,1.64771286354938,,-1.7425443814128492,,
,4853.0,521.0,4086.0,669.0,72.0,1243.0,3745.0,,,,0.0982307366543276,-0.150447204191952,1.64813688037333,,-1.7707633273189605,,
,4852.0,524.0,4087.0,670.0,66.0,1256.0,3760.0,,,,0.0982466776283325,-0.150106723039202,1.65058763933713,,-1.7907172576244388,,
,4855.0,525.0,4090.0,672.0,61.0,1248.0,3759.0,,,,0.0982507031518891,-0.149992284031608,1.65053187876054,,-1.8055791737819247,,
,4857.0,526.0,4091.0,668.0,57.0,1273.0,3741.0,,,,0.0982581427684621,-0.149744193822511,1.64996261605266,,-1.8183064668029272,,
,4858.0,523.0,4088.0,669.0,64.0,1238.0,3739.0,,,,0.0982615162825797,-0.149918232732206,1.65135300456665,,-1.8314778782899983,,
,4859.0,525.0,4089.0,669.0,56.0,1247.0,3745.0,,,,0.0982693243330494,-0.149470405974033,1.65210546604076,,-1.847106275606724,,
,4861.0,523.0,4094.0,671.0,53.0,1246.0,3751.0,,,,0.0982585499807534,-0.149576092167819,1.6537813219113,,-1.8664516721651243,,
,4863.0,525.0,4091.0,671.0,53.0,1249.0,3733.0,,,,0.0982758253572563,-0.149514065761059,1.65361541199543,,-1.8898620813314297,,
,4864.0,525.0,4089.0,671.0,66.0,1249.0,3745.0,,,,0.0982788920491331,-0.149086250395132,1.65523253342427,,-1.9166673720251342,,
,4864.0,524.0,4097.0,672.0,79.0,1253.0,3738.0,,,,0.0983001205590396,-0.148573151612204,1.65559731226051,,-1.9451432916911688,,
,4868.0,526.0,4094.0,673.0,65.0,1237.0,3734.0,,,,0.0982999395326793,-0.148850050796601,1.65602683093597,,-1.9725510965043875,,
,4868.0,525.0,4097.0,672.0,64.0,1238.0,3729.0,,,,0.0983202096462205,-0.148587271629286,1.65659074081835,,-1.995246549988971,,
,4873.0,526.0,4099.0,670.0,63.0,1252.0,3737.0,,,,0.0983174775138309,-0.148374695741929,1.65742496630628,,-2.0088444868911695,,
,4874.0,525.0,4101.0,674.0,67.0,1254.0,3741.0,,,,0.0983375144262556,-0.148265059906117,1.65918406561845,,-2.008423589577412,,
,4875.0,527.0,4102.0,670.0,81.0,1238.0,3780.0,,,,0.0983451079407939,-0.148097626052153,1.65998600779971,,-1.9887591863224572,,
,4879.0,528.0,4105.0,672.0,72.0,1248.0,3781.0,,,,0.0983493957174289,-0.147801123211511,1.66136832815147,,-1.9445766594736973,,
,4880.0,526.0,4107.0,671.0,71.0,1254.0,3779.0,,,,0.0983691281866926,-0.147729550904313,1.66244708356361,,-1.8708217672568068,,
,4883.0,527.0,4111.0,675.0,66.0,1266.0,3778.0,,,,0.0983864470213715,-0.147352055525923,1.66413341399253,,-1.7629455787569424,,
,4886.0,527.0,4112.0,675.0,71.0,1285.0,3724.0,,,,0.0983932120541892,-0.146965833859278,1.66360364449778,,-1.617200593125086,,
,4889.0,528.0,4118.0,675.0,75.0,1273.0,3729.0,,,,0.098399931518972,-0.146758732364463,1.66473723720511,,-1.430941072014656,,
,4891.0,528.0,4116.0,674.0,79.0,1272.0,3740.0,,,,0.0984247155854933,-0.146324986127639,1.66709489432591,,-1.2029148336980577,,
,4892.0,529.0,4119.0,674.0,79.0,1279.0,3749.0,,,,0.0984229189740211,-0.146315064342082,1.66708987022632,,-0.9335264377899009,,
,4893.0,527.0,4122.0,674.0,81.0,1253.0,3750.0,,,,0.0984384651381458,-0.146002011327611,1.66888809961195,,-0.6250447870147127,,
,4898.0,531.0,4124.0,677.0,68.0,1266.0,3734.0,,,,0.0984485534376441,-0.145640498503145,1.66976361581487,,-0.2817249034053678,,
,4902.0,530.0,4127.0,678.0,66.0,1244.0,3746.0,,,,0.0984582944043627,-0.145508851623211,1.67071137524205,,0.09018307780637698,,
,4904.0,531.0,4130.0,679.0,67.0,1241.0,3747.0,,,,0.0984640000830426,-0.145054271361509,1.67076665069047,,0.48255445158237115,,
,4908.0,532.0,4134.0,677.0,64.0,1259.0,3759.0,,,,0.0984756751372765,-0.144702886078077,1.67299403904363,,0.8856424479545373,,
,4909.0,530.0,4136.0,675.0,61.0,1261.0,3725.0,,,,0.0984923835621886,-0.144812046527457,1.67426443226068,,1.2884506485038383,,
,4914.0,529.0,4141.0,679.0,64.0,1254.0,3741.0,,,,0.0985151595549973,-0.144706840009318,1.67524247204252,,1.6792014626776723,,
,4916.0,533.0,4146.0,680.0,77.0,1257.0,3742.0,,,,0.0985231515045822,-0.144449268694249,1.67587461970747,,2.0458686968398774,,
,4918.0,532.0,4149.0,681.0,74.0,1263.0,3743.0,,,,0.0985169209562483,-0.144150654226912,1.67664202849076,,2.3767378949267464,,
,4920.0,534.0,4151.0,681.0,69.0,1255.0,3777.0,,,,0.0985256867242262,-0.144126641435398,1.67612269863141,,2.6609575833234755,,
,4923.0,532.0,4155.0,684.0,82.0,1255.0,3783.0,,,,0.0985221007093201,-0.144121461238368,1.67636919134534,,2.8890479588025224,,
,4929.0,534.0,4160.0,685.0,75.0,1246.0,3740.0,,,,0.0985341915710236,-0.14397784915366,1.67743794610557,,3.053340529967639,,
,4930.0,533.0,4161.0,685.0,72.0,1243.0,3731.0,,,,0.0985556348201119,-0.143513238815984,1.67854558420831,,3.148331025279836,,
,4932.0,531.0,4161.0,684.0,57.0,1246.0,3755.0,,,,0.0985820866821779,-0.14261356010617,1.68290964095885,,3.1709354476573206,,
,4931.0,531.0,4160.0,681.0,67.0,1267.0,3760.0,,,,0.0986170601852405,-0.142106226408264,1.68467566459587,,3.1206427684739286,,
,4930.0,531.0,4156.0,681.0,54.0,1280.0,3741.0,,,,0.0986156743773917,-0.141935400837861,1.68530149168778,,2.999557426945236,,
,4927.0,533.0,4148.0,680.0,54.0,1274.0,3736.0,,,,0.0985977094616582,-0.142077232443558,1.68492176825872,,2.8123236864912187,,
,4924.0,530.0,4138.0,676.0,64.0,1266.0,3726.0,,,,0.098575142837825,-0.142466841579936,1.68275822290497,,2.5659257723716253,,
,4918.0,529.0,4124.0,675.0,77.0,1253.0,3751.0,,,,0.098556539812095,-0.14323427110816,1.68089754155289,,2.2693641179816395,,
,4911.0,530.0,4115.0,674.0,49.0,1286.0,3756.0,,,,0.098535565266622,-0.143966248568643,1.67721302829571,,1.933217799393793,,
,4906.0,525.0,4099.0,670.0,72.0,1259.0,3741.0,,,,0.0984895639813642,-0.144621248025115,1.67493106168626,,1.5691139966748178,,
,4900.0,529.0,4088.0,670.0,87.0,1239.0,3743.0,,,,0.0984559373994561,-0.145384277630264,1.67156708497347,,1.1891352227922791,,
,4891.0,526.0,4080.0,667.0,83.0,1247.0,3733.0,,,,0.0984355938426411,-0.146060719081864,1.66900291092513,,0.8052032063892718,,
,4887.0,521.0,4068.0,664.0,84.0,1247.0,3748.0,,,,0.0984104307048465,-0.146684975029957,1.6660263351739,,0.428484116709969,,
,4883.0,523.0,4065.0,664.0,86.0,1247.0,3744.0,,,,0.0983771431831423,-0.147308981106203,1.66352088068191,,0.06886199742604701,,
,4879.0,524.0,4057.0,663.0,58.0,1271.0,3748.0,,,,0.0983263325708617,-0.148036658670214,1.66026524536128,,-0.2654763239050614,,
,4874.0,522.0,4052.0,663.0,51.0,1293.0,3753.0,,,,0.0982959293977927,-0.148975164554848,1.65622438165845,,-0.5683125397545118,,
,4874.0,522.0,4048.0,659.0,58.0,1293.0,3714.0,,,,0.0982631524438471,-0.149621041629334,1.653293239237,,-0.8355093357705706,,
,4870.0,522.0,4045.0,660.0,81.0,1266.0,3700.0,,,,0.0982282061221756,-0.15036254597658,1.64979126198604,,-1.0649687011019724,,
,4874.0,523.0,4048.0,661.0,74.0,1248.0,3732.0,,,,0.0981845854485976,-0.151276626154149,1.64581323033877,,-1.2564583908419145,,
,4872.0,524.0,4047.0,660.0,77.0,1232.0,3733.0,,,,0.0981489009073609,-0.151668668409464,1.64352693192827,,-1.4113414545875427,,
,4871.0,524.0,4047.0,659.0,79.0,1272.0,3729.0,,,,0.0981197740764593,-0.152287866701495,1.64130269455292,,-1.5322501545406104,,
,4872.0,522.0,4049.0,659.0,71.0,1256.0,3731.0,,,,0.0981003581774663,-0.15264977931101,1.63825899325448,,-1.6227456972540164,,
,4875.0,524.0,4051.0,661.0,62.0,1250.0,3719.0,,,,0.0980963272817409,-0.153181480729394,1.6376019771653,,-1.6869993059023045,,
,4874.0,522.0,4052.0,662.0,52.0,1259.0,3703.0,,,,0.098066926753173,-0.153559570505564,1.63653885906556,,-1.729519017964401,,
,4876.0,523.0,4055.0,662.0,57.0,1253.0,3709.0,,,,0.0980640705932101,-0.153360155237937,1.63588915247368,,-1.7549318656833852,,
,4877.0,522.0,4058.0,662.0,61.0,1242.0,3756.0,,,,0.0980715166113037,-0.153199110075771,1.63450823351066,,-1.7678158531545287,,
,4877.0,523.0,4058.0,661.0,75.0,1247.0,3768.0,,,,0.0980700880940711,-0.15324466446092,1.63509596865775,,-1.7725645305111424,,
,4882.0,525.0,4065.0,662.0,61.0,1234.0,3764.0,,,,0.0980856114136749,-0.152931541324276,1.63591025053711,,-1.7732624797106133,,
,4884.0,527.0,4069.0,664.0,57.0,1240.0,3782.0,,,,0.0981027230893371,-0.152757073359197,1.63693084814856,,-1.7735534837104043,,
2025-07-01 20:34:37,4887.0,526.0,4072.0,663.0,59.0,1236.0,3760.0,,,2025/07/01 08:34:37 PM,0.098108034056642,-0.152796286866962,1.63746472817549,,-1.7764923601738865,,
,4887.0,524.0,4074.0,662.0,66.0,1239.0,3730.0,,,,0.0981190540119119,-0.152395226546117,1.63891498517305,,-1.7843828906544545,,
,4892.0,526.0,4080.0,664.0,67.0,1263.0,3746.0,,,,0.0981377641192427,-0.151889829665489,1.64078597992803,,-1.7986149627980517,,
,4894.0,529.0,4086.0,663.0,82.0,1245.0,3744.0,,,,0.0981761029074698,-0.151498363164982,1.64254681015048,,-1.8195220011702578,,
,4894.0,526.0,4090.0,664.0,68.0,1235.0,3748.0,,,,0.0981801169157966,-0.151161592618308,1.64511868769494,,-1.8462836653615569,,
,4898.0,527.0,4090.0,666.0,67.0,1245.0,3746.0,,,,0.0982018959564131,-0.150636963947619,1.64585029567795,,-1.8768975948781825,,
,4900.0,528.0,4097.0,667.0,65.0,1271.0,3742.0,,,,0.0982375318273461,-0.150230983567819,1.6490767722689,,-1.908237115197218,,
,4903.0,527.0,4099.0,667.0,58.0,1275.0,3731.0,,,,0.0982599653449675,-0.149876405149781,1.65057091721496,,-1.936199954440084,,
,4908.0,529.0,4102.0,668.0,58.0,1276.0,3739.0,,,,0.0982649141192709,-0.149513120799361,1.65290321099871,,-1.9559387331408107,,
,4909.0,530.0,4108.0,667.0,67.0,1216.0,3745.0,,,,0.0982874516793927,-0.149104548087319,1.65441623892124,,-1.9621514034485517,,
