TimeLabel,MEAS1_PPG1,MEAS1_PPG2,MEAS1_PPG3,MEAS1_PPG4,ACCX,ACCY,ACCZ,HR_timestamp,HR_value,radar_timestamp,phase_rx0,phase_rx1,phase_rx2,timestep,n_process,original_rate,calculated_rate
2025-06-30 18:28:07,1725.0,394.0,1416.0,333.0,2062.0,3021.0,1588.0,2025-06-30 18:28:07,82.0,2025/06/30 06:28:07 PM,-1.54984450927766,-2.97047123303683,-1.8024273382158,2025/06/30 06:28:07 PM,7.929823649621873,17.27861785888672,19.795534032822165
,1728.0,396.0,1415.0,335.0,2077.0,3021.0,1577.0,2025-06-30 18:28:08,81.0,,-1.54867594306622,-2.97055832357757,-1.80195904666838,2025/06/30 06:28:17 PM,7.743205727741425,18.455228805541992,19.020547131715432
,1728.0,396.0,1414.0,333.0,2074.0,3020.0,1578.0,2025-06-30 18:28:09,81.0,,-1.5484613853935,-2.97046881669313,-1.80236899423042,2025/06/30 06:28:27 PM,7.434956035432571,19.09476661682129,17.491510326782823
,1726.0,393.0,1415.0,335.0,2063.0,3017.0,1583.0,2025-06-30 18:28:10,80.0,,-1.54827437627436,-2.97069939550408,-1.80277938119732,2025/06/30 06:28:37 PM,7.003650470044975,18.723995208740234,18.379961663543757
,1725.0,394.0,1415.0,334.0,2072.0,3011.0,1577.0,2025-06-30 18:28:11,80.0,,-1.54791508603464,-2.97051978535813,-1.8025507385594,2025/06/30 06:28:47 PM,6.4530251185793865,18.29268264770508,18.251785926687802
,1727.0,394.0,1414.0,335.0,2068.0,3008.0,1570.0,2025-06-30 18:28:12,80.0,,-1.54619313702133,-2.97039806543535,-1.80181223955872,2025/06/30 06:28:57 PM,5.792103116869711,18.19407081604004,18.719959524411838
,1729.0,394.0,1417.0,336.0,2075.0,3010.0,1575.0,2025-06-30 18:28:13,80.0,,-1.54709814228726,-2.97054102765807,-1.80225575867366,2025/06/30 06:29:07 PM,5.0348519287802,18.43003463745117,21.23025659862519
,1727.0,393.0,1416.0,333.0,2083.0,3010.0,1571.0,2025-06-30 18:28:14,80.0,,-1.54624196193983,-2.970217348227,-1.80196512611225,2025/06/30 06:29:17 PM,4.199392849401249,20.013341903686523,19.36475409836066
,1726.0,394.0,1414.0,335.0,2068.0,3011.0,1582.0,2025-06-30 18:28:15,80.0,,-1.54655888929679,-2.97071653289932,-1.80196615814142,2025/06/30 06:29:27 PM,3.3068384997767803,20.053476333618164,19.566367001586453
,1730.0,397.0,1417.0,336.0,2056.0,3025.0,1581.0,2025-06-30 18:28:16,79.0,,-1.54569455640994,-2.97050320128776,-1.80150235452486,2025/06/30 06:29:37 PM,2.379878045947831,20.074350357055664,18.275058275058257
,1730.0,394.0,1418.0,337.0,2064.0,3025.0,1573.0,2025-06-30 18:28:17,79.0,,-1.54607900288539,-2.97043686617573,-1.80179997688305,2025/06/30 06:29:47 PM,1.441258045500058,19.10828018188477,20.268283026338125
,1729.0,397.0,1418.0,335.0,2078.0,3016.0,1575.0,2025-06-30 18:28:18,79.0,,-1.54531302609464,-2.97064676263114,-1.80161372718636,2025/06/30 06:29:57 PM,0.5123159880790958,20.013341903686523,20.04720487659827
,1729.0,396.0,1418.0,336.0,2089.0,3011.0,1582.0,2025-06-30 18:28:19,79.0,,-1.54516624919446,-2.970677041669,-1.80183316143699,2025/06/30 06:30:07 PM,-0.38828697997549705,19.69365501403809,20.670995670995662
,1728.0,397.0,1420.0,335.0,2068.0,3018.0,1575.0,2025-06-30 18:28:20,79.0,,-1.54432858428668,-2.97057200779082,-1.80232848011891,2025/06/30 06:30:17 PM,-1.245515922110899,20.270269393920895,20.49102177022092
,1733.0,397.0,1420.0,338.0,2085.0,3017.0,1576.0,2025-06-30 18:28:21,79.0,,-1.54460130981998,-2.97052606267608,-1.80178793576704,2025/06/30 06:30:27 PM,-2.0485173625457573,20.62643241882324,21.08362014849447
,1731.0,398.0,1420.0,337.0,2085.0,3011.0,1583.0,2025-06-30 18:28:22,79.0,,-1.54507215236477,-2.97059496480601,-1.80183436936925,2025/06/30 06:30:37 PM,-2.7907497473692295,17.62632179260254,21.38953152111047
,1730.0,396.0,1420.0,336.0,2072.0,3011.0,1563.0,2025-06-30 18:28:23,80.0,,-1.54398924768652,-2.97037503772747,-1.80166502162034,2025/06/30 06:30:47 PM,-3.4697052905846517,10.94890594482422,21.453091903473734
,1730.0,397.0,1421.0,337.0,2065.0,3009.0,1572.0,2025-06-30 18:28:24,80.0,,-1.54373108590357,-2.97033503094286,-1.80124760623318,2025/06/30 06:30:57 PM,-4.086279700886991,19.271947860717773,22.09743436158529
,1728.0,396.0,1422.0,336.0,2058.0,3003.0,1579.0,2025-06-30 18:28:25,81.0,,-1.54366621699944,-2.97037543018594,-1.80198285624706,,-4.643876885087238,,
,1733.0,400.0,1422.0,339.0,2065.0,3010.0,1573.0,2025-06-30 18:28:26,81.0,,-1.54418150164191,-2.97040287270517,-1.80145046700338,,-5.147354494012792,,
,1732.0,396.0,1422.0,338.0,2051.0,3012.0,1577.0,2025-06-30 18:28:27,81.0,,-1.5436851947952,-2.97059846227164,-1.80237910580945,,-5.601922755536065,,
,1732.0,395.0,1420.0,335.0,2066.0,3012.0,1573.0,2025-06-30 18:28:28,81.0,,-1.54495044376194,-2.9703778929703,-1.8017993211483,,-6.012104881422498,,
,1730.0,399.0,1420.0,337.0,2046.0,2992.0,1578.0,2025-06-30 18:28:29,81.0,,-1.54474368265424,-2.97039272917451,-1.80216659042982,,-6.380855019822619,,
,1732.0,396.0,1422.0,338.0,2056.0,2999.0,1593.0,2025-06-30 18:28:30,81.0,,-1.54341743973534,-2.9705097323469,-1.80157355287301,,-6.7089116758153,,
,1730.0,398.0,1422.0,336.0,2068.0,3003.0,1586.0,2025-06-30 18:28:31,81.0,,-1.54394357298465,-2.97063373814138,-1.80160507061123,,-6.994442047082259,,
,1727.0,396.0,1421.0,333.0,2044.0,3008.0,1581.0,2025-06-30 18:28:32,80.0,,-1.54349865644925,-2.97047557457096,-1.80163203694766,,-7.23300619752325,,
,1730.0,393.0,1420.0,335.0,2038.0,3006.0,1593.0,2025-06-30 18:28:33,80.0,,-1.54316133412629,-2.97033657962538,-1.80257449592675,,-7.417840171923169,,
,1731.0,397.0,1421.0,336.0,2055.0,3008.0,1597.0,2025-06-30 18:28:34,80.0,,-1.54289694532812,-2.97050331439653,-1.80136553570483,,-7.5404263952428225,,
,1730.0,397.0,1421.0,337.0,2055.0,3005.0,1590.0,2025-06-30 18:28:35,80.0,,-1.54296879358691,-2.97040300841323,-1.80163024626103,,-7.5912916412155225,,
,1732.0,395.0,1421.0,334.0,2041.0,3003.0,1586.0,2025-06-30 18:28:36,80.0,,-1.54229446089405,-2.97038050390583,-1.80147598141949,,-7.560950789603302,,
,1729.0,394.0,1418.0,334.0,2057.0,3018.0,1582.0,2025-06-30 18:28:37,80.0,,-1.54223134773797,-2.97034238417825,-1.80132131629845,,-7.440900377979688,,
,1731.0,396.0,1420.0,336.0,2050.0,3017.0,1577.0,2025-06-30 18:28:38,80.0,,-1.54213029431701,-2.97031630193262,-1.80199302766234,,-7.224560494270461,,
,1732.0,395.0,1423.0,335.0,2051.0,3011.0,1580.0,2025-06-30 18:28:39,80.0,,-1.542408651317,-2.97052031101358,-1.80209223385734,,-6.908067772792763,,
,1729.0,398.0,1421.0,338.0,2057.0,3011.0,1578.0,2025-06-30 18:28:40,81.0,,-1.54135076143612,-2.97051410025302,-1.80121124076688,,-6.490837033411934,,
,1733.0,396.0,1423.0,333.0,2067.0,3009.0,1573.0,2025-06-30 18:28:41,81.0,,-1.54113965941679,-2.97043682863519,-1.80190651625211,,-5.975834144139605,,
,1733.0,398.0,1424.0,337.0,2077.0,3004.0,1572.0,2025-06-30 18:28:42,82.0,,-1.54116898764188,-2.97043921582713,-1.80184533583147,,-5.36953553899549,,
,1735.0,398.0,1424.0,336.0,2071.0,3016.0,1583.0,2025-06-30 18:28:43,82.0,,-1.54099559186932,-2.97061853272977,-1.80117752869795,,-4.681585975694464,,
,1733.0,397.0,1423.0,338.0,2080.0,3016.0,1578.0,2025-06-30 18:28:44,81.0,,-1.54210105700568,-2.97035555882297,-1.80272447116346,,-3.9242000265113157,,
,1736.0,396.0,1422.0,335.0,2093.0,3014.0,1572.0,2025-06-30 18:28:45,81.0,,-1.54327901795718,-2.97030433278841,-1.80135610024811,,-3.111379239826535,,
,1735.0,398.0,1422.0,336.0,2087.0,3014.0,1560.0,2025-06-30 18:28:46,80.0,,-1.54609652297702,-2.9703256262541,-1.80225213253094,,-2.258032190326641,,
,1737.0,399.0,1424.0,339.0,2083.0,3004.0,1574.0,2025-06-30 18:28:47,79.0,,-1.54735016945447,-2.97040136957465,-1.80293509082435,,-1.3790873292368209,,
,1738.0,398.0,1427.0,338.0,2064.0,2997.0,1569.0,2025-06-30 18:28:48,79.0,,-1.54861478793449,-2.97036394336032,-1.80275177361994,,-0.488679842363084,,
,1737.0,396.0,1426.0,339.0,2068.0,3004.0,1573.0,2025-06-30 18:28:49,79.0,,-1.5511839841731,-2.97043332989069,-1.80385669232989,,0.4005228186481433,,
,1738.0,398.0,1426.0,336.0,2061.0,3001.0,1581.0,2025-06-30 18:28:50,80.0,,-1.55284041274166,-2.97055710428363,-1.80332104818305,,1.2778118733560206,,
,1737.0,400.0,1427.0,336.0,2091.0,3013.0,1566.0,2025-06-30 18:28:51,80.0,,-1.554840965822,-2.97047245952216,-1.80392993763503,,2.134719268712623,,
,1740.0,400.0,1428.0,338.0,2062.0,3019.0,1561.0,2025-06-30 18:28:52,81.0,,-1.55667868010197,-2.97045295643905,-1.80456983523175,,2.965083177703903,,
,1740.0,401.0,1430.0,338.0,2070.0,3025.0,1562.0,2025-06-30 18:28:53,81.0,,-1.55754949890793,-2.970708354113,-1.80419302320238,,3.7649048462779287,,
,1742.0,397.0,1426.0,338.0,2066.0,3008.0,1576.0,2025-06-30 18:28:54,81.0,,-1.55811971267708,-2.97080449720083,-1.80370338954769,,4.532017936994323,,
,1742.0,397.0,1428.0,338.0,2079.0,3002.0,1571.0,2025-06-30 18:28:55,81.0,,-1.55882515291436,-2.97061213499545,-1.80365344683889,,5.265601778004859,,
,1743.0,401.0,1434.0,340.0,2075.0,3015.0,1556.0,2025-06-30 18:28:56,80.0,,-1.55872379097887,-2.97075640507616,-1.80352489786721,,5.965576988900552,,
,1742.0,399.0,1430.0,341.0,2091.0,3016.0,1560.0,2025-06-30 18:28:57,80.0,,-1.55908341881624,-2.97060933590145,-1.80300740545605,,6.631926945759892,,
,1744.0,400.0,1429.0,340.0,2080.0,3009.0,1584.0,2025-06-30 18:28:58,79.0,,-1.55865115269853,-2.97073294192832,-1.80254529616283,,7.263993368463424,,
,1745.0,399.0,1433.0,337.0,2051.0,3012.0,1566.0,2025-06-30 18:28:59,79.0,,-1.55861699943943,-2.97068716479359,-1.80312405404268,,7.859799946591362,,
,1745.0,399.0,1433.0,339.0,2055.0,3006.0,1578.0,2025-06-30 18:29:00,79.0,,-1.558006185703,-2.97074271016925,-1.80427529087792,,8.415463506635941,,
,1748.0,401.0,1435.0,342.0,2070.0,2997.0,1570.0,2025-06-30 18:29:01,79.0,,-1.55753966583059,-2.97101464288464,-1.80202568771235,,8.924755603862202,,
,1746.0,401.0,1435.0,342.0,2073.0,2996.0,1566.0,2025-06-30 18:29:02,80.0,,-1.55679552084214,-2.97081542685242,-1.80352877945645,,9.37887621942242,,
,1745.0,401.0,1432.0,338.0,2075.0,2998.0,1578.0,2025-06-30 18:29:03,80.0,,-1.55593121734859,-2.97065287513602,-1.8032014782739,,9.76649346443282,,
,1749.0,403.0,1436.0,341.0,2090.0,3008.0,1563.0,2025-06-30 18:29:04,80.0,,-1.55514647529033,-2.97061053731445,-1.80222754939798,,10.074087258631213,,
,1748.0,403.0,1439.0,341.0,2095.0,3009.0,1563.0,2025-06-30 18:29:05,81.0,,-1.55556678068782,-2.97049269475035,-1.80301959489504,,10.286610055992918,,
,1750.0,401.0,1436.0,339.0,2102.0,3005.0,1563.0,2025-06-30 18:29:06,81.0,,-1.55473188986502,-2.97079832078946,-1.80287307460309,,10.388444888496691,,
,1750.0,403.0,1439.0,339.0,2074.0,3003.0,1557.0,2025-06-30 18:29:07,81.0,,-1.55431134155485,-2.97051942996117,-1.8018943027167,,10.364603804376648,,
,1749.0,402.0,1438.0,342.0,2071.0,3012.0,1567.0,2025-06-30 18:29:08,80.0,,-1.55399292452545,-2.97082482124379,-1.80281249267413,,10.202073306906655,,
,1750.0,401.0,1437.0,342.0,2078.0,3021.0,1549.0,2025-06-30 18:29:09,80.0,,-1.55382548114311,-2.97050506007964,-1.80308398754759,,9.891183103573118,,
,1752.0,402.0,1439.0,343.0,2071.0,3021.0,1551.0,2025-06-30 18:29:10,80.0,,-1.5540115913008,-2.97060914220517,-1.80208150843939,,9.426855658533281,,
,1755.0,404.0,1439.0,343.0,2077.0,3022.0,1548.0,2025-06-30 18:29:11,81.0,,-1.55390672429266,-2.97044399596941,-1.80115013805588,,8.809591619631876,,
,1753.0,402.0,1440.0,342.0,2066.0,3013.0,1559.0,2025-06-30 18:29:12,81.0,,-1.55344841792582,-2.97052637525391,-1.80197211106851,,8.046063500014872,,
,1756.0,404.0,1442.0,344.0,2061.0,3001.0,1569.0,2025-06-30 18:29:13,82.0,,-1.55352910232307,-2.97047526749313,-1.80184028943345,,7.1492269506181545,,
,1757.0,404.0,1442.0,341.0,2069.0,3017.0,1567.0,2025-06-30 18:29:14,82.0,,-1.55294720708738,-2.97064226065651,-1.80223899107728,,6.137911151580106,,
,1757.0,404.0,1443.0,341.0,2068.0,3015.0,1574.0,2025-06-30 18:29:15,83.0,,-1.55290078040964,-2.97045359083144,-1.80187225561097,,5.035909480594472,,
,1758.0,403.0,1444.0,341.0,2075.0,3016.0,1565.0,2025-06-30 18:29:16,84.0,,-1.55258766590239,-2.97047052504018,-1.80174978986507,,3.870649614686453,,
,1758.0,402.0,1442.0,343.0,2067.0,3005.0,1581.0,2025-06-30 18:29:17,84.0,,-1.55282615017956,-2.97060153333049,-1.8022904146891,,2.671570140658242,,
,1761.0,405.0,1448.0,345.0,2063.0,3006.0,1588.0,2025-06-30 18:29:18,85.0,,-1.55283333403294,-2.97077837827811,-1.80247206421157,,1.4683618202451376,,
,1759.0,404.0,1444.0,345.0,2066.0,3010.0,1582.0,2025-06-30 18:29:19,85.0,,-1.55300274045549,-2.9706477391738,-1.80156350120804,,0.2892415711888117,,
,1760.0,404.0,1446.0,344.0,2079.0,3006.0,1574.0,2025-06-30 18:29:20,86.0,,-1.5532661421802,-2.97052087279942,-1.80194596963856,,-0.8405847642407768,,
,1759.0,404.0,1446.0,342.0,2059.0,3009.0,1571.0,2025-06-30 18:29:21,86.0,,-1.55419008133985,-2.9705345488484,-1.80254178519869,,-1.9001451738269888,,
,1760.0,404.0,1447.0,344.0,2063.0,3011.0,1571.0,2025-06-30 18:29:22,86.0,,-1.55389483570831,-2.97055489392167,-1.80244652332487,,-2.873526062754446,,
,1762.0,406.0,1447.0,345.0,2068.0,3027.0,1584.0,2025-06-30 18:29:23,86.0,,-1.55395786683955,-2.97045736212,-1.80236310481918,,-3.7502610277701964,,
,1761.0,405.0,1450.0,346.0,2076.0,3020.0,1581.0,2025-06-30 18:29:24,86.0,,-1.55415808768572,-2.97065741530323,-1.80217562292723,,-4.525290030262742,,
,1761.0,404.0,1448.0,341.0,2099.0,3012.0,1579.0,2025-06-30 18:29:25,86.0,,-1.5544282093879,-2.97076642645134,-1.80175385915677,,-5.198532602327057,,
,1762.0,401.0,1450.0,344.0,2089.0,3020.0,1565.0,2025-06-30 18:29:26,86.0,,-1.55428861717677,-2.97062770863404,-1.80200282297197,,-5.774147065344333,,
,1759.0,405.0,1447.0,343.0,2075.0,3015.0,1565.0,2025-06-30 18:29:27,86.0,,-1.55558188812509,-2.97062823207452,-1.8028917293842,,-6.259565667337628,,
,1756.0,404.0,1444.0,343.0,2062.0,3026.0,1573.0,2025-06-30 18:29:28,86.0,,-1.55375178645792,-2.97067230354086,-1.80203066997684,,-6.664403113257567,,
,1757.0,403.0,1445.0,342.0,2075.0,3034.0,1585.0,2025-06-30 18:29:29,86.0,,-1.55447625808534,-2.97066973600384,-1.80187037034207,,-6.99933460718811,,
,1749.0,401.0,1444.0,341.0,2079.0,3028.0,1565.0,2025-06-30 18:29:30,86.0,,-1.5544947139305,-2.97051694246848,-1.8025724434652,,-7.275031430002723,,
,1749.0,404.0,1444.0,341.0,2069.0,3015.0,1570.0,2025-06-30 18:29:31,87.0,,-1.55452439379636,-2.97058448292413,-1.8019281600651,,-7.5012292265058464,,
,1747.0,403.0,1441.0,342.0,2081.0,3012.0,1585.0,2025-06-30 18:29:32,86.0,,-1.55476361115543,-2.97050718618058,-1.80256642639667,,-7.685987742212287,,
,1741.0,400.0,1440.0,339.0,2087.0,3001.0,1590.0,2025-06-30 18:29:33,86.0,,-1.55574012623912,-2.97052880231362,-1.8027343468075,,-7.835181267311973,,
,1738.0,400.0,1435.0,338.0,2068.0,2987.0,1583.0,2025-06-30 18:29:34,86.0,,-1.55557655620904,-2.97050339989713,-1.80173460836684,,-7.952237378202721,,
,1739.0,401.0,1434.0,339.0,2058.0,3000.0,1589.0,2025-06-30 18:29:35,85.0,,-1.55467730237147,-2.97052747485766,-1.80252925436474,,-8.038119681739573,,
,1736.0,401.0,1433.0,338.0,2047.0,3000.0,1583.0,2025-06-30 18:29:36,83.0,,-1.55470852151575,-2.97030319014761,-1.80214624215198,,-8.091530711644388,,
,1736.0,398.0,1430.0,336.0,2053.0,3007.0,1580.0,2025-06-30 18:29:37,82.0,,-1.5540407533998,-2.97088098026779,-1.80127609386575,,-8.109295689749114,,
,1734.0,397.0,1429.0,337.0,2073.0,3009.0,1576.0,2025-06-30 18:29:38,81.0,,-1.5537027209928,-2.97047808443795,-1.80208401728518,,-8.086877049282759,,
,1732.0,395.0,1429.0,338.0,2090.0,3009.0,1570.0,2025-06-30 18:29:39,81.0,,-1.55346896414765,-2.97047877234011,-1.80118374108069,,-8.018963379441862,,
,1732.0,399.0,1428.0,336.0,2067.0,3019.0,1581.0,2025-06-30 18:29:40,80.0,,-1.55275611634466,-2.97061465820764,-1.80181556368551,,-7.90007500078237,,
,1732.0,397.0,1427.0,337.0,2079.0,3007.0,1572.0,2025-06-30 18:29:41,80.0,,-1.55282627009704,-2.97056048396918,-1.80063764983121,,-7.725132012764183,,
,1730.0,397.0,1425.0,335.0,2086.0,2997.0,1570.0,2025-06-30 18:29:42,80.0,,-1.5520666922092,-2.97042074237414,-1.80162914862011,,-7.489939020402246,,
,1732.0,397.0,1424.0,335.0,2081.0,3016.0,1568.0,2025-06-30 18:29:43,81.0,,-1.55231184338585,-2.97046941860399,-1.80158018367313,,-7.1915526531112794,,
,1731.0,397.0,1425.0,336.0,2083.0,3022.0,1557.0,2025-06-30 18:29:44,81.0,,-1.55203067184988,-2.97046901563951,-1.80110964324993,,-6.828511926473522,,
,1734.0,395.0,1426.0,336.0,2083.0,3018.0,1568.0,2025-06-30 18:29:45,81.0,,-1.55182259256286,-2.97061889848746,-1.80138241381682,,-6.400926166996189,,
,1732.0,399.0,1425.0,337.0,2088.0,3018.0,1572.0,2025-06-30 18:29:46,81.0,,-1.55176527315644,-2.97047563008505,-1.80182291702724,,-5.910429501579859,,
,1730.0,396.0,1422.0,335.0,2079.0,3020.0,1560.0,2025-06-30 18:29:47,80.0,,-1.55125328422306,-2.97060743478184,-1.80162988631429,,-5.360023466031224,,
,1731.0,397.0,1424.0,334.0,2079.0,3011.0,1557.0,2025-06-30 18:29:48,80.0,,-1.55107221942629,-2.97050735956809,-1.80146073683468,,-4.7538383917500955,,
,1732.0,396.0,1425.0,334.0,2072.0,3014.0,1549.0,2025-06-30 18:29:49,80.0,,-1.55050348142731,-2.97019159434518,-1.80113104505918,,-4.09684850678143,,
,1731.0,398.0,1427.0,337.0,2065.0,3020.0,1545.0,2025-06-30 18:29:50,81.0,,-1.55062792294718,-2.97043088551278,-1.80125163195739,,-3.3945753161697856,,
,1730.0,396.0,1423.0,331.0,2093.0,3026.0,1577.0,2025-06-30 18:29:51,81.0,,-1.55135601244298,-2.97071905471413,-1.80134251469579,,-2.652810670504656,,
,1733.0,397.0,1424.0,335.0,2091.0,3019.0,1570.0,2025-06-30 18:29:52,82.0,,-1.55003756036184,-2.97039420908254,-1.8008799493931,,-1.8773869923745723,,
,1734.0,397.0,1427.0,337.0,2078.0,3017.0,1562.0,2025-06-30 18:29:53,83.0,,-1.54987884293579,-2.9702950443371,-1.80137741314131,,-1.074018093902661,,
,1736.0,400.0,1428.0,337.0,2071.0,3013.0,1559.0,2025-06-30 18:29:54,84.0,,-1.54897203394082,-2.97039118091398,-1.80169274513412,,-0.24822939295820984,,
,1737.0,398.0,1429.0,337.0,2087.0,3012.0,1556.0,2025-06-30 18:29:55,85.0,,-1.54937392194284,-2.97057484656158,-1.80130932517241,,0.5946096087455447,,
,1733.0,397.0,1428.0,336.0,2086.0,3003.0,1565.0,2025-06-30 18:29:56,85.0,,-1.54850847126856,-2.97052753578262,-1.80246504352446,,1.4491455227003829,,
,1733.0,397.0,1429.0,336.0,2089.0,3002.0,1573.0,2025-06-30 18:29:57,84.0,,-1.54850815798673,-2.97063170811408,-1.80188005715106,,2.3097989221544775,,
,1736.0,398.0,1430.0,335.0,2069.0,2998.0,1573.0,2025-06-30 18:29:58,83.0,,-1.54918733451679,-2.97063896011599,-1.80150913040168,,3.1704371158709654,,
,1735.0,398.0,1428.0,337.0,2066.0,3011.0,1576.0,2025-06-30 18:29:59,82.0,,-1.54815561001555,-2.97047701696324,-1.80230565737593,,4.023992773463288,,
,1733.0,396.0,1428.0,337.0,2061.0,3011.0,1568.0,2025-06-30 18:30:00,81.0,,-1.54942997784138,-2.97047618042304,-1.80135107550383,,4.8620722369375855,,
,1736.0,396.0,1430.0,336.0,2063.0,3008.0,1580.0,2025-06-30 18:30:01,80.0,,-1.54829728209582,-2.97052971501808,-1.80256551949678,,5.674606830833336,,
,1737.0,400.0,1430.0,339.0,2075.0,3006.0,1580.0,2025-06-30 18:30:02,80.0,,-1.54892228056657,-2.97054608715748,-1.80219388981138,,6.449604601361033,,
,1737.0,399.0,1429.0,336.0,2085.0,3007.0,1572.0,2025-06-30 18:30:03,80.0,,-1.54931216171609,-2.97058217807447,-1.8027878597897,,7.173058389080695,,
,1735.0,400.0,1431.0,338.0,2073.0,3002.0,1568.0,2025-06-30 18:30:04,81.0,,-1.54855143070455,-2.9707775424127,-1.80214498621294,,7.829059612330553,,
,1736.0,399.0,1432.0,336.0,2073.0,3000.0,1574.0,2025-06-30 18:30:05,81.0,,-1.54939280687955,-2.97050482956115,-1.80257777889962,,8.400155630327719,,
,1736.0,398.0,1430.0,337.0,2072.0,2992.0,1585.0,2025-06-30 18:30:06,80.0,,-1.54872530451199,-2.970593952176,-1.80274139931059,,8.867971161758154,,
,1735.0,399.0,1429.0,336.0,2064.0,2984.0,1576.0,2025-06-30 18:30:07,79.0,,-1.54831764992294,-2.97072177290186,-1.80294990518049,,9.214090366961816,,
,1736.0,400.0,1431.0,337.0,2064.0,2988.0,1580.0,2025-06-30 18:30:08,79.0,,-1.54942198954266,-2.97047401324777,-1.80308643222366,,9.421166595572519,,
,1735.0,400.0,1430.0,336.0,2054.0,2998.0,1585.0,2025-06-30 18:30:09,78.0,,-1.54828683936371,-2.97042284126008,-1.80300231300987,,9.474193500848166,,
,1738.0,399.0,1432.0,335.0,2048.0,3005.0,1587.0,2025-06-30 18:30:10,78.0,,-1.5481404024138,-2.97062557900233,-1.8035654431576,,9.361837527913726,,
,1740.0,399.0,1430.0,337.0,2073.0,3013.0,1587.0,2025-06-30 18:30:11,77.0,,-1.548705813024,-2.97049480592073,-1.80295160259996,,9.077702743188015,,
,1736.0,399.0,1431.0,335.0,2078.0,3012.0,1581.0,2025-06-30 18:30:12,78.0,,-1.5490069044852,-2.97047131391226,-1.80412761602708,,8.621381504510577,,
,1737.0,399.0,1432.0,335.0,2079.0,3012.0,1558.0,2025-06-30 18:30:13,78.0,,-1.54812514874268,-2.97029530567971,-1.80387077763085,,7.9991459704144825,,
,1737.0,399.0,1433.0,338.0,2078.0,3008.0,1593.0,2025-06-30 18:30:14,78.0,,-1.54779908442636,-2.97021405000087,-1.80362207360359,,7.224160894301033,,
2025-06-30 18:28:08,1737.0,398.0,1434.0,338.0,2077.0,3004.0,1580.0,2025-06-30 18:30:15,78.0,2025/06/30 06:28:08 PM,-1.54828360593716,-2.97055387623007,-1.80411879597047,,6.316147152859243,,
,1738.0,398.0,1433.0,337.0,2078.0,3005.0,1576.0,2025-06-30 18:30:16,78.0,,-1.54737303060874,-2.9706806131394,-1.80333238787769,,5.300491096033109,,
,1742.0,400.0,1434.0,340.0,2101.0,3008.0,1569.0,2025-06-30 18:30:17,78.0,,-1.54845333730172,-2.97032076962936,-1.80411778706607,,4.206865240894293,,
,1737.0,399.0,1431.0,336.0,2084.0,3012.0,1586.0,2025-06-30 18:30:18,77.0,,-1.54865813390183,-2.97036152815434,-1.80356448544132,,3.0674878480305874,,
,1739.0,398.0,1433.0,337.0,2081.0,3013.0,1581.0,2025-06-30 18:30:19,77.0,,-1.54767987460584,-2.97033041430678,-1.8038717620055,,1.9151914771910241,,
,1739.0,399.0,1432.0,335.0,2097.0,3008.0,1573.0,2025-06-30 18:30:20,77.0,,-1.54820587603764,-2.97038762175016,-1.80403781946634,,0.7814873567868686,,
,1742.0,398.0,1430.0,338.0,2095.0,3006.0,1571.0,2025-06-30 18:30:21,77.0,,-1.54820652865746,-2.97072682715697,-1.80468392861057,,-0.30519708469035345,,
,1740.0,398.0,1432.0,337.0,2077.0,3005.0,1584.0,2025-06-30 18:30:22,78.0,,-1.54867320848875,-2.97025137880294,-1.80492510087774,,-1.3209608191333868,,
,1742.0,399.0,1434.0,337.0,2065.0,3007.0,1580.0,2025-06-30 18:30:23,78.0,,-1.54966576354293,-2.97020106092831,-1.80445597504051,,-2.2474490059577055,,
,1742.0,397.0,1436.0,338.0,2073.0,2999.0,1587.0,2025-06-30 18:30:24,78.0,,-1.55333487937688,-2.97039517334242,-1.80502729460613,,-3.072395985118602,,
,1744.0,400.0,1438.0,338.0,2070.0,2995.0,1578.0,2025-06-30 18:30:25,79.0,,-1.55497356218418,-2.9702299983853,-1.80637784131615,,-3.789685524754391,,
,1746.0,400.0,1436.0,337.0,2086.0,3005.0,1582.0,2025-06-30 18:30:26,78.0,,-1.55699836042282,-2.97058224938069,-1.80566742688725,,-4.398965002674411,,
,1743.0,398.0,1436.0,338.0,2080.0,2997.0,1578.0,2025-06-30 18:30:27,78.0,,-1.5585566876275,-2.97041149913563,-1.80603524901101,,-4.904884130986908,,
,1745.0,403.0,1440.0,339.0,2093.0,2996.0,1573.0,2025-06-30 18:30:28,78.0,,-1.56099131481261,-2.97033921665656,-1.8056961016239,,-5.3160520292023605,,
,1746.0,402.0,1441.0,339.0,2102.0,3004.0,1579.0,2025-06-30 18:30:29,78.0,,-1.56346010789405,-2.97061347216518,-1.80689931239721,,-5.643818519365605,,
,1748.0,401.0,1440.0,341.0,2091.0,3006.0,1568.0,2025-06-30 18:30:30,78.0,,-1.56398684523832,-2.97050529009351,-1.80738816752207,,-5.900987549714317,,
,1749.0,399.0,1442.0,339.0,2079.0,3004.0,1564.0,2025-06-30 18:30:31,79.0,,-1.56543458900663,-2.97075332976277,-1.80709781966809,,-6.100564420292176,,
,1748.0,402.0,1442.0,339.0,2083.0,2993.0,1569.0,2025-06-30 18:30:32,80.0,,-1.56636593652401,-2.97049114296955,-1.80743880656396,,-6.254625587131528,,
,1750.0,402.0,1443.0,340.0,2077.0,2999.0,1567.0,2025-06-30 18:30:33,82.0,,-1.56763149910659,-2.97067227689403,-1.80772049603173,,-6.373381640337941,,
,1752.0,405.0,1445.0,340.0,2083.0,2995.0,1561.0,2025-06-30 18:30:34,83.0,,-1.56693122737663,-2.97054746362273,-1.80721101846078,,-6.464482470312143,,
,1751.0,401.0,1445.0,340.0,2099.0,3002.0,1564.0,2025-06-30 18:30:35,83.0,,-1.56700824409131,-2.97073581135184,-1.80706850650203,,-6.532591295118557,,
,1753.0,403.0,1447.0,339.0,2063.0,3003.0,1566.0,2025-06-30 18:30:36,82.0,,-1.56817786894699,-2.97073330392716,-1.80704763409568,,-6.579233500734018,,
,1753.0,404.0,1447.0,342.0,2076.0,3014.0,1560.0,2025-06-30 18:30:37,81.0,,-1.56808679177425,-2.97091199432495,-1.80851853725687,,-6.602908206959287,,
,1756.0,400.0,1447.0,341.0,2081.0,3010.0,1563.0,2025-06-30 18:30:38,80.0,,-1.56826925230974,-2.97062370027518,-1.80639454157143,,-6.599435157054657,,
,1755.0,400.0,1448.0,340.0,2087.0,3017.0,1552.0,2025-06-30 18:30:39,78.0,,-1.56710934575826,-2.97075241392795,-1.80696272119753,,-6.562496998371944,,
,1755.0,403.0,1448.0,342.0,2076.0,3003.0,1555.0,2025-06-30 18:30:40,77.0,,-1.56628889375255,-2.97071099413042,-1.80731911759327,,-6.484327672454669,,
,1755.0,405.0,1449.0,339.0,2093.0,3013.0,1553.0,2025-06-30 18:30:41,76.0,,-1.56609885461851,-2.97079679377544,-1.8068875874802,,-6.356491646484645,,
,1760.0,406.0,1451.0,344.0,2072.0,3014.0,1563.0,2025-06-30 18:30:42,76.0,,-1.56516044996772,-2.97071518688899,-1.80657609181444,,-6.170695648769165,,
,1759.0,405.0,1451.0,342.0,2071.0,3022.0,1561.0,2025-06-30 18:30:43,76.0,,-1.56561708967982,-2.97112182246049,-1.80709018875849,,-5.919573781619904,,
,1759.0,404.0,1447.0,342.0,2095.0,3018.0,1557.0,2025-06-30 18:30:44,76.0,,-1.56523098216883,-2.97081631876534,-1.80724246089247,,-5.597388377945408,,
,1759.0,403.0,1449.0,342.0,2079.0,3022.0,1567.0,2025-06-30 18:30:45,76.0,,-1.56474924825174,-2.97057007774962,-1.8073814878757,,-5.2005936181829195,,
,1762.0,403.0,1452.0,341.0,2073.0,3008.0,1572.0,2025-06-30 18:30:46,76.0,,-1.56385346900654,-2.97065111720756,-1.80676002758677,,-4.728217770917923,,
,1763.0,406.0,1453.0,344.0,2072.0,3011.0,1563.0,2025-06-30 18:30:47,76.0,,-1.56456944266301,-2.97060244302201,-1.80677438170447,,-4.182033351955295,,
,1762.0,403.0,1453.0,342.0,2097.0,3011.0,1582.0,2025-06-30 18:30:48,75.0,,-1.5655477246347,-2.97053952966464,-1.80691854752111,,-3.5665021986592595,,
,1763.0,404.0,1456.0,344.0,2072.0,3022.0,1584.0,2025-06-30 18:30:49,75.0,,-1.56551855149983,-2.97038306110805,-1.80685287253318,,-2.888503629927186,,
,1763.0,406.0,1458.0,345.0,2055.0,3015.0,1594.0,2025-06-30 18:30:50,75.0,,-1.56588910110184,-2.97035938964854,-1.8074766216595,,-2.1568767848420047,,
,1762.0,405.0,1458.0,345.0,2039.0,3016.0,1591.0,2025-06-30 18:30:51,75.0,,-1.56566146325703,-2.97047043037955,-1.80768741874033,,-1.3818297655536325,,
,1766.0,407.0,1458.0,344.0,2044.0,3017.0,1597.0,2025-06-30 18:30:52,75.0,,-1.5661426358168,-2.97045745928679,-1.8070837501789,,-0.5742845147394586,,
,1765.0,401.0,1458.0,342.0,2056.0,3019.0,1581.0,2025-06-30 18:30:53,76.0,,-1.5660115859663,-2.97023721362376,-1.80714416491536,,0.2547655237336799,,
,1768.0,405.0,1460.0,345.0,2046.0,3012.0,1581.0,2025-06-30 18:30:54,76.0,,-1.56602776508115,-2.97041805400731,-1.80740275867329,,1.094809159833242,,
,1768.0,406.0,1463.0,345.0,2041.0,3023.0,1571.0,2025-06-30 18:30:55,75.0,,-1.56714019994739,-2.97029563190157,-1.80687169068109,,1.9362171998362485,,
,1769.0,409.0,1461.0,345.0,2052.0,3019.0,1574.0,2025-06-30 18:30:56,75.0,,-1.56647175962502,-2.97010633236113,-1.80658165400211,,2.7704413304428277,,
,1769.0,405.0,1461.0,343.0,2052.0,3010.0,1573.0,2025-06-30 18:30:57,75.0,,-1.56694702349638,-2.96990483328355,-1.80752614533486,,3.5899905434407815,,
,1769.0,405.0,1463.0,346.0,2034.0,3001.0,1581.0,2025-06-30 18:30:58,75.0,,-1.5670141986326,-2.97018541425901,-1.80806574931954,,4.388192691289128,,
,1769.0,408.0,1461.0,346.0,2066.0,3001.0,1589.0,2025-06-30 18:30:59,75.0,,-1.56799948716913,-2.97005539926629,-1.80799550234039,,5.158778087664933,,
,1771.0,409.0,1463.0,345.0,2063.0,3001.0,1582.0,2025-06-30 18:31:00,76.0,,-1.5665508911146,-2.97036661818479,-1.80696240210961,,5.8953477163214085,,
,1771.0,406.0,1462.0,346.0,2075.0,3004.0,1594.0,2025-06-30 18:31:01,77.0,,-1.56746394450992,-2.97040203939075,-1.80797426745257,,6.590807765862016,,
,1771.0,406.0,1463.0,344.0,2073.0,3025.0,1574.0,2025-06-30 18:31:02,78.0,,-1.56804979534835,-2.97047422216947,-1.8084723651097,,7.236862828893171,,
,1773.0,405.0,1465.0,344.0,2059.0,3020.0,1580.0,2025-06-30 18:31:03,78.0,,-1.56739104879473,-2.97045196596875,-1.80752138611409,,7.8236603042027575,,
,1773.0,406.0,1467.0,345.0,2051.0,3025.0,1582.0,2025-06-30 18:31:04,78.0,,-1.56759696980174,-2.9702738511489,-1.80766739870866,,8.339666940884271,,
,1771.0,407.0,1465.0,347.0,2062.0,3029.0,1581.0,2025-06-30 18:31:05,78.0,,-1.5680554383301,-2.96993029220432,-1.80735370088533,,8.771835304652331,,
,1767.0,405.0,1463.0,344.0,2060.0,3030.0,1567.0,2025-06-30 18:31:06,78.0,,-1.56787261470942,-2.97019527537818,-1.80841691282698,,9.106085438281854,,
,1769.0,404.0,1466.0,344.0,2071.0,3028.0,1584.0,,,,-1.56821802278498,-2.96997384716378,-1.80815343320767,,9.328088520512456,,
,1767.0,409.0,1464.0,345.0,2059.0,3025.0,1568.0,,,,-1.56875044503745,-2.97017326373281,-1.80756200797397,,9.424298721909407,,
,1762.0,409.0,1465.0,345.0,2074.0,3025.0,1561.0,,,,-1.56860206226603,-2.970201207705,-1.80783232685378,,9.383141063326311,,
,1761.0,405.0,1462.0,345.0,2077.0,3024.0,1576.0,,,,-1.56779525241678,-2.97024929433435,-1.80809622514486,,9.196232176313105,,
,1758.0,403.0,1462.0,343.0,2059.0,3014.0,1583.0,,,,-1.56882636050289,-2.97026232642878,-1.80801413308022,,8.859493257050776,,
,1755.0,406.0,1461.0,341.0,2041.0,3004.0,1578.0,,,,-1.56777958435178,-2.97019213652554,-1.8075686615566,,8.374015109704668,,
,1755.0,402.0,1458.0,340.0,2052.0,2985.0,1591.0,,,,-1.56798443421091,-2.97017124820821,-1.80836729596492,,7.74655626272234,,
,1749.0,404.0,1456.0,341.0,2040.0,2981.0,1586.0,,,,-1.56758094885846,-2.97000517861128,-1.80846006289939,,6.9895951780247705,,
,1749.0,399.0,1453.0,339.0,2044.0,2999.0,1581.0,,,,-1.56744903632098,-2.97008160814442,-1.80750956299921,,6.12091106912162,,
,1746.0,400.0,1449.0,340.0,2049.0,3003.0,1580.0,,,,-1.56728374293786,-2.97024194626997,-1.80783105753458,,5.162726240475861,,
,1747.0,400.0,1450.0,339.0,2035.0,3006.0,1589.0,,,,-1.56652965030995,-2.97000561843282,-1.80822213984058,,4.140496175884702,,
,1746.0,401.0,1451.0,339.0,2043.0,3009.0,1589.0,,,,-1.56687576246502,-2.97015308246052,-1.80816641771706,,3.081472617263609,,
,1746.0,400.0,1446.0,337.0,2058.0,3016.0,1575.0,,,,-1.56712977548878,-2.9700899967836,-1.80754467424985,,2.0131835712843786,,
,1743.0,399.0,1446.0,337.0,2045.0,3020.0,1572.0,,,,-1.56679048026424,-2.970161780312,-1.80829244883888,,0.9619714611232756,,
,1743.0,400.0,1446.0,338.0,2069.0,3027.0,1577.0,,,,-1.56625479695282,-2.97002404670994,-1.80784740160875,,-0.04828994133124099,,
,1741.0,401.0,1446.0,338.0,2070.0,3025.0,1575.0,,,,-1.56604365840836,-2.97015947750448,-1.80757476414948,,-0.9972114526932613,,
,1744.0,400.0,1448.0,338.0,2086.0,3014.0,1570.0,,,,-1.56577351136591,-2.97048758782382,-1.80776617711902,,-1.868586366153102,,
,1742.0,398.0,1444.0,336.0,2076.0,3024.0,1575.0,,,,-1.56569132806196,-2.96984380970339,-1.8079322251017,,-2.6507562114618386,,
,1746.0,399.0,1445.0,336.0,2087.0,3013.0,1562.0,,,,-1.56496927353136,-2.97023905644554,-1.80745894198885,,-3.3366620880248408,,
,1744.0,402.0,1444.0,338.0,2070.0,3011.0,1558.0,,,,-1.56464850897796,-2.9700829013481,-1.80706572345634,,-3.923623112086631,,
,1744.0,398.0,1447.0,340.0,2066.0,3014.0,1547.0,,,,-1.56496897965676,-2.97026803137401,-1.80723454175755,,-4.412898386313256,,
,1741.0,398.0,1446.0,337.0,2081.0,3013.0,1557.0,,,,-1.56459744683147,-2.96983798072113,-1.8071563767629,,-4.809095450918928,,
,1744.0,398.0,1446.0,336.0,2062.0,3015.0,1551.0,,,,-1.56385068740216,-2.97030177400265,-1.807997074012,,-5.119487977129313,,
,1747.0,398.0,1447.0,339.0,2074.0,3004.0,1558.0,,,,-1.56340156957544,-2.97007396827533,-1.80747113324734,,-5.353299974265461,,
,1745.0,402.0,1448.0,340.0,2077.0,3014.0,1567.0,,,,-1.56347484226549,-2.96998749313383,-1.80741091390876,,-5.52100393441735,,
,1745.0,399.0,1446.0,336.0,2075.0,3006.0,1582.0,,,,-1.56297583944882,-2.97014758003042,-1.80784523274718,,-5.633667226861798,,
,1747.0,400.0,1449.0,336.0,2066.0,3014.0,1570.0,,,,-1.56261127279676,-2.96983968797597,-1.80781851163445,,-5.702366832277471,,
,1747.0,402.0,1450.0,338.0,2072.0,3016.0,1563.0,,,,-1.56381521003155,-2.97004260574775,-1.80776832299149,,-5.737680042879069,,
,1748.0,402.0,1451.0,339.0,2065.0,3003.0,1556.0,,,,-1.56357519493337,-2.96997300703777,-1.80810755319378,,-5.749250182074039,,
,1747.0,401.0,1451.0,339.0,2049.0,2996.0,1566.0,,,,-1.5625960133111,-2.96981649185957,-1.80749791838247,,-5.745422264313707,,
,1747.0,399.0,1449.0,337.0,2053.0,3019.0,1578.0,,,,-1.56247031265653,-2.9697784223421,-1.80719220536291,,-5.732943315959925,,
,1748.0,401.0,1452.0,340.0,2042.0,3012.0,1589.0,,,,-1.56171375883373,-2.97013906717397,-1.80742715042747,,-5.716725110729145,,
,1747.0,401.0,1453.0,340.0,2073.0,3011.0,1574.0,,,,-1.56214929399341,-2.96998885499964,-1.80748797451826,,-5.699672483254587,,
,1749.0,404.0,1454.0,341.0,2069.0,3008.0,1560.0,,,,-1.56192741972208,-2.96975447232443,-1.8082628182961,,-5.682586629670523,,
,1750.0,400.0,1455.0,338.0,2069.0,3009.0,1556.0,,,,-1.56199697035117,-2.96987288783324,-1.80723921349854,,-5.664157651439429,,
,1749.0,400.0,1452.0,339.0,2037.0,3013.0,1567.0,,,,-1.56222546927765,-2.96988063577075,-1.80729632546068,,-5.641061981280096,,
,1751.0,403.0,1456.0,342.0,2039.0,3020.0,1576.0,,,,-1.56168303244508,-2.96983892131852,-1.80741777481656,,-5.608177217954522,,
,1753.0,402.0,1457.0,340.0,2042.0,3025.0,1578.0,,,,-1.56168610194504,-2.96986382661059,-1.80814574246683,,-5.55891934574068,,
,1749.0,404.0,1458.0,340.0,2047.0,3016.0,1565.0,,,,-1.56166706455835,-2.96985857982858,-1.80690648038048,,-5.485695852154519,,
,1752.0,401.0,1457.0,341.0,2053.0,3015.0,1568.0,,,,-1.56173326422135,-2.96979819642086,-1.80707568363739,,-5.380453523565338,,
,1752.0,404.0,1458.0,341.0,2043.0,3023.0,1575.0,,,,-1.56191530438819,-2.9697786717366,-1.80788518965245,,-5.235283087993076,,
,1749.0,401.0,1456.0,339.0,2041.0,3013.0,1579.0,,,,-1.56071940223793,-2.96990104074023,-1.80757865657953,,-5.043027605667194,,
,1754.0,401.0,1459.0,341.0,2042.0,3014.0,1572.0,,,,-1.56084159900693,-2.96941900805161,-1.80748025731177,,-4.797832384814946,,
,1752.0,402.0,1458.0,339.0,2050.0,3010.0,1590.0,,,,-1.56102093245092,-2.96991576413569,-1.80808244784418,,-4.4955754274005075,,
,1752.0,402.0,1458.0,340.0,2045.0,2997.0,1585.0,,,,-1.56056706125874,-2.96990234515257,-1.80722279518391,,-4.134130196375507,,
,1756.0,402.0,1461.0,339.0,2048.0,3008.0,1593.0,,,,-1.56102514079187,-2.96964847266887,-1.80685872131186,,-3.7134345717235595,,
,1752.0,402.0,1458.0,339.0,2030.0,3011.0,1581.0,,,,-1.56019240695496,-2.96991942691039,-1.80765859928774,,-3.23536687206962,,
,1754.0,402.0,1460.0,341.0,2045.0,3012.0,1578.0,,,,-1.55972232449501,-2.96996108311501,-1.80725791896417,,-2.7034569385982072,,
,1754.0,401.0,1460.0,340.0,2057.0,3006.0,1570.0,,,,-1.56042336376828,-2.96997713352487,-1.80817149643679,,-2.1224831287792094,,
,1757.0,402.0,1461.0,339.0,2054.0,3010.0,1577.0,,,,-1.55934039432132,-2.96989220616868,-1.8070580393279,,-1.4980212414282537,,
,1756.0,404.0,1462.0,341.0,2062.0,3006.0,1586.0,,,,-1.56003323562017,-2.96968718336968,-1.80732563115245,,-0.8360168589019059,,
,1757.0,405.0,1463.0,340.0,2063.0,3009.0,1588.0,,,,-1.55968157215346,-2.96983592805623,-1.80752932495763,,-0.1424477685761724,,
,1757.0,403.0,1460.0,340.0,2055.0,3009.0,1581.0,,,,-1.55972218754832,-2.96960798769458,-1.80760746951947,,0.5768713040145449,,
,1756.0,404.0,1460.0,343.0,2033.0,3008.0,1566.0,,,,-1.55982990241036,-2.97004187927671,-1.80717691541492,,1.316311665124028,,
,1758.0,404.0,1464.0,341.0,2049.0,3014.0,1589.0,,,,-1.56035537574032,-2.96958402269194,-1.80771537561785,,2.0702785118474067,,
,1757.0,403.0,1466.0,342.0,2056.0,3020.0,1582.0,,,,-1.5626446380547,-2.96957249041344,-1.80704589112179,,2.832908983871767,,
,1759.0,406.0,1466.0,344.0,2081.0,3001.0,1582.0,,,,-1.56533678978247,-2.96953750657711,-1.80858879516373,,3.5976701917687173,,
,1761.0,403.0,1465.0,345.0,2088.0,3004.0,1579.0,,,,-1.56734014281056,-2.96976759055363,-1.80818935398252,,4.356923957925205,,
,1762.0,402.0,1465.0,342.0,2076.0,3009.0,1591.0,,,,-1.56875632205958,-2.96959667814359,-1.80830717347465,,5.101532606320644,,
,1760.0,404.0,1464.0,339.0,2068.0,3012.0,1588.0,,,,-1.57024403827426,-2.96978049463323,-1.80906470102862,,5.820578623119888,,
,1764.0,405.0,1466.0,342.0,2076.0,3009.0,1598.0,,,,-1.57344069409107,-2.96989586499337,-1.80902488084712,,6.5012613550805884,,
,1761.0,403.0,1469.0,340.0,2036.0,3009.0,1588.0,,,,-1.57438694131389,-2.97022127007019,-1.8096403212876,,7.129016984853736,,
,1764.0,404.0,1468.0,345.0,2047.0,3018.0,1574.0,,,,-1.57595316932454,-2.97010997991199,-1.80949443909766,,7.687885136720324,,
,1765.0,408.0,1471.0,345.0,2035.0,3015.0,1573.0,,,,-1.57791872073995,-2.97005626721788,-1.80967128015252,,8.161119118979306,,
,1770.0,404.0,1470.0,345.0,2048.0,3014.0,1566.0,,,,-1.57877233790137,-2.97003003115786,-1.80976261054873,,8.532010195878943,,
,1767.0,405.0,1471.0,343.0,2034.0,3004.0,1574.0,,,,-1.57839505595234,-2.97021827735806,-1.80963093353123,,8.784871967077816,,
,1770.0,405.0,1471.0,346.0,2043.0,3011.0,1573.0,,,,-1.5797728614652,-2.96989947318925,-1.80960618677702,,8.90611024156857,,
,1768.0,406.0,1474.0,347.0,2067.0,3009.0,1567.0,,,,-1.57975292776512,-2.96983036736151,-1.81001262293892,,8.885287716723145,,
,1770.0,407.0,1473.0,344.0,2076.0,3013.0,1565.0,,,,-1.5797029083151,-2.9698923653092,-1.80984179811797,,8.716083296105358,,
,1770.0,405.0,1475.0,345.0,2063.0,3016.0,1544.0,,,,-1.57966733286937,-2.96980871017704,-1.80997649054102,,8.397045982415179,,
,1769.0,404.0,1474.0,344.0,2034.0,3020.0,1581.0,,,,-1.57945526355649,-2.9701093111249,-1.810269636073,,7.93205541968277,,
,1772.0,407.0,1476.0,345.0,2064.0,3025.0,1577.0,,,,-1.57851675834637,-2.97027586692176,-1.80950774646119,,7.33042573620662,,
,1774.0,409.0,1478.0,346.0,2049.0,3021.0,1563.0,,,,-1.57840386845443,-2.9703481251264,-1.80957449832393,,6.606624310259787,,
,1776.0,407.0,1479.0,346.0,2046.0,3018.0,1558.0,,,,-1.57676184330454,-2.96997570679294,-1.80933341504709,,5.77961823268559,,
,1777.0,408.0,1479.0,348.0,2040.0,3004.0,1568.0,,,,-1.5768025383744,-2.97016559977171,-1.80951853778119,,4.871902478812755,,
,1777.0,408.0,1479.0,348.0,2064.0,3020.0,1578.0,,,,-1.57698125823286,-2.97000583599168,-1.80859377162903,,3.9082978902638037,,
2025-06-30 18:28:09,1778.0,408.0,1482.0,347.0,2040.0,3019.0,1573.0,,,2025/06/30 06:28:09 PM,-1.57604823551472,-2.97026990161614,-1.80875388564455,,2.9146276172623757,,
,1779.0,406.0,1480.0,347.0,2036.0,3030.0,1569.0,,,,-1.57618750408632,-2.96989565461263,-1.80930542734151,,1.9163847469889237,,
,1780.0,411.0,1481.0,346.0,2041.0,3031.0,1560.0,,,,-1.57564807346477,-2.96983615557148,-1.80907476825536,,0.9374931870050782,,
,1778.0,408.0,1482.0,346.0,2035.0,3031.0,1566.0,,,,-1.57587717374891,-2.97000537472404,-1.80873085492218,,-0.0007564413041625393,,
,1781.0,409.0,1483.0,347.0,2046.0,3012.0,1575.0,,,,-1.57475819046771,-2.97007364738389,-1.80896721097408,,-0.8805385543937884,,
,1781.0,411.0,1483.0,349.0,2073.0,3021.0,1581.0,,,,-1.57494138186927,-2.96969812354255,-1.80936529928488,,-1.6880592108589862,,
,1782.0,409.0,1486.0,350.0,2061.0,3022.0,1559.0,,,,-1.5750966514315,-2.96981764718076,-1.80965822944476,,-2.4138472606478247,,
,1782.0,410.0,1486.0,349.0,2060.0,3020.0,1571.0,,,,-1.57593777609053,-2.96965516311939,-1.80888472099069,,-3.0527785949072856,,
,1786.0,409.0,1486.0,348.0,2049.0,3012.0,1569.0,,,,-1.5749905991131,-2.96996663125897,-1.80898154730369,,-3.6038559343025156,,
,1787.0,413.0,1489.0,352.0,2042.0,3018.0,1580.0,,,,-1.57468243992983,-2.96985937316374,-1.80886579754885,,-4.069775215481375,,
,1784.0,412.0,1490.0,351.0,2044.0,3029.0,1576.0,,,,-1.57436636624475,-2.96968087911626,-1.80922801035736,,-4.456314498117731,,
,1787.0,411.0,1490.0,348.0,2036.0,3022.0,1573.0,,,,-1.57345414601518,-2.96985589255589,-1.80968282134072,,-4.771584736783037,,
,1788.0,410.0,1489.0,350.0,2043.0,3010.0,1568.0,,,,-1.57375133320998,-2.96985533043709,-1.80965018461843,,-5.025185262858257,,
,1788.0,414.0,1491.0,352.0,2045.0,3016.0,1574.0,,,,-1.57433277438525,-2.96972843535096,-1.80951493360458,,-5.227310655336363,,
,1789.0,412.0,1495.0,349.0,2046.0,3022.0,1580.0,,,,-1.57487134887419,-2.96975237602141,-1.80981497017358,,-5.387859437850477,,
,1790.0,412.0,1496.0,352.0,2052.0,3008.0,1581.0,,,,-1.57529694540263,-2.96999121269764,-1.80837173918997,,-5.51559809536845,,
,1790.0,411.0,1496.0,350.0,2043.0,3008.0,1591.0,,,,-1.57569166880571,-2.96977525411031,-1.80943146860024,,-5.617435276839651,,
,1792.0,413.0,1495.0,350.0,2032.0,3021.0,1594.0,,,,-1.57600615408354,-2.96968247205148,-1.8097796958516,,-5.697859280792797,,
,1794.0,413.0,1496.0,352.0,2033.0,3011.0,1599.0,,,,-1.57504017115847,-2.96986395782795,-1.80913081168374,,-5.758585496413261,,
,1792.0,412.0,1498.0,353.0,2031.0,3013.0,1602.0,,,,-1.57564374876052,-2.96958197388389,-1.80966632549044,,-5.798448574602696,,
,1791.0,411.0,1494.0,351.0,2062.0,3013.0,1588.0,,,,-1.5762722883109,-2.96989096698829,-1.80851836987667,,-5.813556986585261,,
,1791.0,410.0,1496.0,353.0,2065.0,3013.0,1586.0,,,,-1.57598168386669,-2.96970589093594,-1.80907142029938,,-5.7977063310171,,
,1792.0,414.0,1499.0,353.0,2061.0,3026.0,1579.0,,,,-1.57554147400425,-2.96977636780506,-1.80967269078219,,-5.743023591947764,,
,1791.0,412.0,1497.0,351.0,2070.0,3043.0,1572.0,,,,-1.57577748708259,-2.96997775596025,-1.80938576365538,,-5.640789159670969,,
,1789.0,411.0,1495.0,350.0,2065.0,3034.0,1567.0,,,,-1.57600148466602,-2.96978037819399,-1.80897032016565,,-5.48235957117488,,
,1784.0,410.0,1491.0,348.0,2061.0,3032.0,1579.0,,,,-1.57545293017282,-2.96976562258881,-1.80919581406989,,-5.260096143046363,,
,1781.0,409.0,1492.0,350.0,2041.0,3007.0,1575.0,,,,-1.57602941903733,-2.96963291183719,-1.80926606209681,,-4.968198228673673,,
,1779.0,409.0,1492.0,351.0,2048.0,3014.0,1567.0,,,,-1.57499845675187,-2.96982926541321,-1.80903926134344,,-4.603348233520113,,
,1779.0,410.0,1492.0,349.0,2057.0,3016.0,1566.0,,,,-1.57594717775383,-2.96988095051429,-1.8091278943282,,-4.165098673007593,,
,1775.0,407.0,1485.0,347.0,2021.0,3014.0,1589.0,,,,-1.57519365568503,-2.96979753396603,-1.80950675073087,,-3.655965980040297,,
,1771.0,407.0,1488.0,346.0,2031.0,2995.0,1581.0,,,,-1.57472737153868,-2.9693613817045,-1.80887720697689,,-3.0812358750264854,,
,1770.0,407.0,1486.0,347.0,2034.0,2992.0,1580.0,,,,-1.57534004445252,-2.96975245052254,-1.80904747028333,,-2.448524260658199,,
,1770.0,408.0,1482.0,345.0,2038.0,2987.0,1585.0,,,,-1.5731733013595,-2.9695575272257,-1.80918864277306,,-1.767169183160267,,
,1768.0,406.0,1484.0,346.0,2058.0,2996.0,1579.0,,,,-1.57378143094624,-2.9696834249578,-1.80942568009929,,-1.047548401605321,,
,1767.0,403.0,1481.0,344.0,2046.0,3019.0,1590.0,,,,-1.57302281190296,-2.97000639273186,-1.80892220398356,,-0.3004213828257406,,
,1767.0,407.0,1479.0,347.0,2045.0,3018.0,1586.0,,,,-1.5726031354397,-2.96970447176083,-1.80879105901319,,0.46361530672100537,,
,1765.0,407.0,1480.0,346.0,2041.0,3005.0,1590.0,,,,-1.57175367791255,-2.96984327191294,-1.80855472190897,,1.234492017260766,,
,1767.0,404.0,1476.0,344.0,2033.0,2991.0,1592.0,,,,-1.57146246064368,-2.96991532760679,-1.8083727521766,,2.0028130438782235,,
,1766.0,405.0,1475.0,342.0,2058.0,3008.0,1593.0,,,,-1.57108597775144,-2.9696359407273,-1.8086087489733,,2.7597862812257845,,
,1768.0,402.0,1474.0,343.0,2060.0,3015.0,1590.0,,,,-1.57039427554064,-2.96964604692477,-1.80811627968882,,3.496971085069054,,
,1765.0,403.0,1474.0,346.0,2059.0,3014.0,1571.0,,,,-1.5707659342239,-2.96995219442218,-1.80862555539428,,4.2059098322494375,,
,1769.0,405.0,1476.0,346.0,2065.0,3016.0,1563.0,,,,-1.56901993599851,-2.96963552487992,-1.80795163315635,,4.877727863615762,,
,1766.0,402.0,1474.0,344.0,2053.0,3009.0,1569.0,,,,-1.56855395065099,-2.96980650480678,-1.80826604075708,,5.502792965527437,,
,1765.0,404.0,1474.0,341.0,2053.0,3022.0,1559.0,,,,-1.56816429940706,-2.96981715097347,-1.8078086799315,,6.07051915138656,,
,1768.0,406.0,1475.0,344.0,2040.0,3016.0,1563.0,,,,-1.56786560539611,-2.96963636360235,-1.80867228592618,,6.569380785568686,,
,1767.0,405.0,1477.0,344.0,2045.0,3019.0,1563.0,,,,-1.56744111852945,-2.96967794866106,-1.80747847842258,,6.987173603274413,,
,1768.0,405.0,1474.0,346.0,2055.0,3014.0,1561.0,,,,-1.56724826439369,-2.96987295868021,-1.80816397858753,,7.311522552390403,,
,1767.0,405.0,1475.0,342.0,2052.0,3010.0,1571.0,,,,-1.56706144817282,-2.9697868339139,-1.80833351440697,,7.530598310112129,,
,1767.0,405.0,1476.0,346.0,2042.0,3003.0,1575.0,,,,-1.56710610199899,-2.96991195210748,-1.80875388605962,,7.633971077854156,,
,1768.0,406.0,1477.0,345.0,2036.0,3011.0,1580.0,,,,-1.56641760796607,-2.96987446703938,-1.80848309012587,,7.61350683959207,,
,1770.0,408.0,1480.0,345.0,2027.0,3021.0,1575.0,,,,-1.56653580767731,-2.96971550892917,-1.80862878857349,,7.46420054499404,,
,1766.0,403.0,1476.0,343.0,2040.0,3021.0,1565.0,,,,-1.56530439838173,-2.96981921842658,-1.80703735992793,,7.184843725647934,,
,1770.0,407.0,1475.0,343.0,2045.0,3009.0,1588.0,,,,-1.56557779368608,-2.96973376683566,-1.80717797806549,,6.778440798135736,,
,1769.0,403.0,1476.0,345.0,2032.0,3014.0,1579.0,,,,-1.56422654403835,-2.97014241059315,-1.80803833786817,,6.252317323082283,,
,1769.0,406.0,1476.0,344.0,2029.0,3015.0,1576.0,,,,-1.56408397975803,-2.96978244525522,-1.80836912560576,,5.617901069411523,,
,1770.0,403.0,1477.0,345.0,2041.0,3017.0,1584.0,,,,-1.5640436047023,-2.96992878855316,-1.80824764061266,,4.890196794992557,,
,1771.0,405.0,1477.0,345.0,2043.0,3015.0,1590.0,,,,-1.56421898281928,-2.96976194270984,-1.80763599715968,,4.087011299419019,,
,1775.0,408.0,1478.0,345.0,2052.0,3006.0,1574.0,,,,-1.56426128413525,-2.96993831302961,-1.80861741638064,,3.2280108816775064,,
,1772.0,405.0,1482.0,345.0,2061.0,3001.0,1582.0,,,,-1.56433376989669,-2.96984172428532,-1.80768518579589,,2.333705609220181,,
,1771.0,410.0,1479.0,344.0,2043.0,3000.0,1591.0,,,,-1.56370474965625,-2.96973460442195,-1.8075696312362,,1.4244531680957502,,
,1769.0,405.0,1476.0,344.0,2028.0,3001.0,1585.0,,,,-1.56399729025748,-2.96997478491755,-1.80769401728751,,0.5195613389367348,,
,1772.0,407.0,1481.0,347.0,2042.0,3008.0,1589.0,,,,-1.56287596202704,-2.96991059483997,-1.80752505211171,,-0.3634538673175147,,
,1774.0,407.0,1481.0,347.0,2027.0,3000.0,1598.0,,,,-1.56256538438882,-2.9696846243792,-1.80820998495554,,-1.2094227552863182,,
,1772.0,405.0,1480.0,345.0,2008.0,3004.0,1603.0,,,,-1.56282621889846,-2.96990711753381,-1.8067711962674,,-2.005881465703108,,
,1772.0,405.0,1481.0,345.0,2023.0,2992.0,1588.0,,,,-1.56274188937717,-2.96972340831263,-1.80761197626523,,-2.743247799624485,,
,1771.0,405.0,1480.0,345.0,2035.0,3008.0,1607.0,,,,-1.56145515744436,-2.96972239348855,-1.80741085836309,,-3.414837046405703,,
,1771.0,407.0,1481.0,345.0,2045.0,3010.0,1590.0,,,,-1.56123170816341,-2.96981540750352,-1.80748141589275,,-4.016746872812698,,
,1774.0,406.0,1482.0,347.0,2037.0,3010.0,1584.0,,,,-1.56158883542662,-2.96979939129468,-1.80655624274668,,-4.547639257170952,,
,1772.0,407.0,1483.0,345.0,2040.0,3010.0,1582.0,,,,-1.56023359918616,-2.96977984841373,-1.80745016931679,,-5.008441588235152,,
,1773.0,407.0,1479.0,345.0,2061.0,3019.0,1571.0,,,,-1.56064179489004,-2.96966339492661,-1.80625999948658,,-5.4019814139866345,,
,1775.0,406.0,1479.0,345.0,2045.0,3012.0,1573.0,,,,-1.56077044061128,-2.96992550396452,-1.8074025122922,,-5.7325636139240626,,
,1774.0,408.0,1481.0,346.0,2040.0,2995.0,1576.0,,,,-1.55957420054001,-2.96957718172603,-1.80714541809921,,-6.005497576577854,,
,1774.0,407.0,1482.0,348.0,2044.0,3009.0,1573.0,,,,-1.55996393911479,-2.97019728508619,-1.80684563990867,,-6.226585627931666,,
,1774.0,407.0,1484.0,348.0,2047.0,3016.0,1574.0,,,,-1.55948970817249,-2.96972060783601,-1.80723000928828,,-6.401591043607176,,
,1775.0,405.0,1485.0,345.0,2057.0,3017.0,1572.0,,,,-1.55945779006935,-2.96997998050697,-1.80738892856245,,-6.535712521075873,,
,1777.0,409.0,1485.0,348.0,2070.0,3017.0,1601.0,,,,-1.55870941845951,-2.96958660905264,-1.8076669264276,,-6.633100083622189,,
,1778.0,405.0,1483.0,347.0,2049.0,3017.0,1600.0,,,,-1.55986171714851,-2.9698154046764,-1.80593272221572,,-6.696453049598474,,
,1781.0,409.0,1486.0,348.0,2047.0,3009.0,1606.0,,,,-1.56162922954725,-2.96965223891902,-1.80753822441419,,-6.726741893005641,,
,1776.0,406.0,1484.0,345.0,2045.0,3014.0,1588.0,,,,-1.56343993962018,-2.96982613737362,-1.80771765402986,,-6.723091097928014,,
,1777.0,409.0,1487.0,347.0,2044.0,3022.0,1589.0,,,,-1.56557522447428,-2.96964815259382,-1.80725918645037,,-6.6828492331065465,,
,1779.0,410.0,1489.0,348.0,2050.0,3015.0,1593.0,,,,-1.5680066594559,-2.9697038702672,-1.80834236976093,,-6.601856374067081,,
,1780.0,409.0,1488.0,349.0,2047.0,3016.0,1603.0,,,,-1.56953591371055,-2.96986896168431,-1.80820191962437,,-6.474899202783395,,
,1780.0,408.0,1489.0,349.0,2055.0,3019.0,1583.0,,,,-1.57072541107793,-2.96993568323073,-1.80818350320712,,-6.296322235724925,,
,1778.0,407.0,1488.0,347.0,2061.0,3010.0,1576.0,,,,-1.57293140462014,-2.97003099064717,-1.80840637718975,,-6.060741602849307,,
,1783.0,410.0,1490.0,350.0,2063.0,3015.0,1583.0,,,,-1.57488698810099,-2.97007954893414,-1.80838618329694,,-5.763788795199143,,
,1785.0,411.0,1492.0,351.0,2070.0,3012.0,1580.0,,,,-1.57470936772978,-2.97033636769021,-1.80835218005649,,-5.402800455255302,,
,1786.0,411.0,1491.0,350.0,2068.0,3019.0,1582.0,,,,-1.57538990043766,-2.97041391123291,-1.8087110523267,,-4.977370979693498,,
,1785.0,409.0,1492.0,349.0,2057.0,3015.0,1605.0,,,,-1.57625912788793,-2.97006868577287,-1.8087785353449,,-4.489698989499607,,
,1788.0,411.0,1494.0,348.0,2054.0,3014.0,1596.0,,,,-1.57646666964839,-2.97010607339499,-1.80836455043466,,-3.9446842624761884,,
,1791.0,412.0,1496.0,353.0,2051.0,3006.0,1578.0,,,,-1.57599296328907,-2.97012623660753,-1.8085740367732,,-3.3497634356102903,,
,1789.0,414.0,1499.0,350.0,2037.0,3004.0,1579.0,,,,-1.57599135809356,-2.97026307252194,-1.80886830359494,,-2.714504850585861,,
,1789.0,412.0,1496.0,350.0,2041.0,3015.0,1580.0,,,,-1.57569810725425,-2.97024440061462,-1.80693639081316,,-2.0500102657993544,,
,1792.0,410.0,1498.0,349.0,2039.0,3015.0,1575.0,,,,-1.57506496338457,-2.97042250762217,-1.80812802553331,,-1.368190223074863,,
,1793.0,413.0,1497.0,352.0,2053.0,3017.0,1574.0,,,,-1.57410212193341,-2.9704464213113,-1.8072208359132,,-0.680988946236997,,
,1791.0,413.0,1498.0,352.0,2048.0,3022.0,1569.0,,,,-1.5744466907513,-2.97025712628281,-1.80800985844989,,0.00036602177694571784,,
,1793.0,411.0,1500.0,351.0,2043.0,3012.0,1576.0,,,,-1.5733313469435,-2.9703868754479,-1.80805279816232,,0.6660229922406831,,
,1792.0,413.0,1498.0,350.0,2029.0,3020.0,1587.0,,,,-1.57259033370061,-2.9700720477227,-1.80801227998443,,1.3080221146339075,,
,1795.0,414.0,1501.0,355.0,2041.0,3029.0,1572.0,,,,-1.57115584264662,-2.97041168244861,-1.80780844411621,,1.9206338602260986,,
,1797.0,414.0,1500.0,354.0,2062.0,3024.0,1579.0,,,,-1.57086718818557,-2.970345533542,-1.80713115323662,,2.50050429712406,,
,1797.0,412.0,1504.0,353.0,2055.0,3019.0,1583.0,,,,-1.57044651124536,-2.97055925823129,-1.80710685881813,,3.0466086623075865,,
,1795.0,411.0,1501.0,351.0,2061.0,3014.0,1578.0,,,,-1.56961205979837,-2.97047276866523,-1.80651584890811,,3.5600285618079783,,
,1795.0,413.0,1503.0,355.0,2048.0,3021.0,1581.0,,,,-1.56942865706619,-2.97050638476167,-1.80644261456652,,4.043577731636308,,
,1801.0,413.0,1506.0,355.0,2045.0,3012.0,1578.0,,,,-1.56857209587662,-2.97059014297177,-1.80674405161818,,4.501307348121581,,
,1801.0,414.0,1507.0,352.0,2053.0,3011.0,1565.0,,,,-1.56843478417066,-2.97036731675997,-1.80649154819144,,4.937925673706748,,
,1801.0,416.0,1506.0,353.0,2045.0,3006.0,1559.0,,,,-1.56796503893286,-2.97033012360617,-1.80627281144344,,5.358169040842701,,
,1799.0,414.0,1506.0,352.0,2040.0,3023.0,1583.0,,,,-1.56747632187935,-2.9705470454287,-1.80573828294196,,5.766161758722222,,
,1804.0,416.0,1508.0,356.0,2040.0,3021.0,1568.0,,,,-1.56734364173321,-2.97049392214669,-1.80699042032684,,6.164801591980463,,
,1804.0,416.0,1509.0,354.0,2044.0,3007.0,1567.0,,,,-1.56800405534594,-2.97067270853815,-1.80635697052302,,6.555205830703341,,
,1806.0,414.0,1510.0,354.0,2055.0,3011.0,1570.0,,,,-1.56719641556879,-2.97045625608846,-1.80664774019285,,6.936251593695297,,
,1803.0,412.0,1508.0,352.0,2069.0,3024.0,1571.0,,,,-1.56732029211357,-2.97056924211085,-1.80665842310708,,7.304243081156998,,
,1806.0,415.0,1512.0,354.0,2042.0,3025.0,1563.0,,,,-1.56705631358232,-2.97050433633864,-1.80597623691545,,7.652737318335061,,
,1807.0,417.0,1512.0,356.0,2060.0,3004.0,1578.0,,,,-1.56713711373096,-2.97048749072868,-1.80636623907127,,7.972557342737488,,
,1807.0,414.0,1511.0,357.0,2049.0,3005.0,1578.0,,,,-1.56753664520522,-2.97029198253368,-1.80671072816349,,8.252016540313138,,
,1806.0,415.0,1513.0,355.0,2035.0,3015.0,1560.0,,,,-1.56688936997233,-2.9704814448871,-1.80657238537536,,8.477368713420613,,
,1808.0,413.0,1513.0,353.0,2037.0,3005.0,1573.0,,,,-1.56770516583897,-2.97063304674386,-1.80652560296769,,8.633484371964105,,
,1811.0,418.0,1515.0,357.0,2057.0,3010.0,1583.0,,,,-1.56717850357917,-2.9702664641568,-1.80578467940045,,8.704734328185395,,
,1812.0,416.0,1516.0,356.0,2051.0,3018.0,1577.0,,,,-1.56785846300733,-2.97042565733984,-1.80711962696906,,8.676038334437653,,
,1813.0,417.0,1516.0,358.0,2067.0,3001.0,1571.0,,,,-1.56802690116864,-2.9703533996367,-1.80597320180556,,8.534012483303659,,
,1812.0,418.0,1515.0,354.0,2069.0,3015.0,1577.0,,,,-1.5690158384665,-2.97023980218945,-1.806289831912,,8.268128205676684,,
,1812.0,417.0,1516.0,359.0,2059.0,3022.0,1573.0,,,,-1.56839637346962,-2.97063327597803,-1.80581978287469,,7.871781095821021,,
,1811.0,418.0,1516.0,358.0,2078.0,3034.0,1575.0,,,,-1.56815987445749,-2.97056606910536,-1.80654287726362,,7.343162159895888,,
,1808.0,417.0,1516.0,356.0,2068.0,3029.0,1576.0,,,,-1.56783666749492,-2.97033200740294,-1.80608406528628,,6.685830447744618,,
,1806.0,417.0,1515.0,355.0,2071.0,3028.0,1568.0,,,,-1.56866486443385,-2.97044095708521,-1.80596556027752,,5.908907075655212,,
,1802.0,414.0,1513.0,355.0,2072.0,3030.0,1585.0,,,,-1.56783714583823,-2.97029111272552,-1.80544692701881,,5.026846416638786,,
,1803.0,416.0,1514.0,356.0,2056.0,3028.0,1595.0,,,,-1.56857024856945,-2.97059699777307,-1.8057127479843,,4.058786183740188,,
,1802.0,414.0,1514.0,356.0,2050.0,3018.0,1586.0,,,,-1.56818965869106,-2.97057069955257,-1.80551942885477,,3.0275258602934016,,
,1794.0,414.0,1510.0,354.0,2057.0,3004.0,1563.0,,,,-1.56832784491113,-2.97039564530208,-1.80648597251059,,1.9582234934056364,,
,1795.0,412.0,1510.0,352.0,2048.0,2996.0,1594.0,,,,-1.5670291494491,-2.97067509902808,-1.80580646240602,,0.8769282043036156,,
2025-06-30 18:28:10,1793.0,412.0,1507.0,353.0,2054.0,3003.0,1584.0,,,2025/06/30 06:28:10 PM,-1.56710379408385,-2.970510356841,-1.80561231856716,,-0.19092217107465434,,
,1793.0,411.0,1507.0,351.0,2050.0,2999.0,1578.0,,,,-1.56676063094937,-2.97073201422766,-1.80514335580928,,-1.2219113820717098,,
,1792.0,413.0,1505.0,353.0,2058.0,3000.0,1552.0,,,,-1.56567665351714,-2.97039329021559,-1.80527627561179,,-2.19585112545391,,
,1789.0,412.0,1504.0,353.0,2049.0,3005.0,1566.0,,,,-1.56518685447952,-2.97081577728369,-1.80540262502863,,-3.096696381489762,,
,1788.0,411.0,1501.0,352.0,2043.0,3010.0,1575.0,,,,-1.56516991396053,-2.97070169498709,-1.80408748457484,,-3.913113390991352,,
,1788.0,409.0,1500.0,353.0,2070.0,3013.0,1569.0,,,,-1.56454947785542,-2.9705789391961,-1.80446113136466,,-4.638676557208857,,
,1789.0,408.0,1499.0,350.0,2077.0,3009.0,1569.0,,,,-1.56430947072562,-2.97044171781872,-1.80426144666411,,-5.2717016839929975,,
,1787.0,409.0,1497.0,350.0,2071.0,3012.0,1557.0,,,,-1.56342503540315,-2.97071601665668,-1.80448543904844,,-5.814750466389172,,
,1787.0,411.0,1497.0,349.0,2075.0,3015.0,1554.0,,,,-1.56324338944556,-2.97054822127373,-1.80499504519929,,-6.273863742080718,,
,1788.0,411.0,1497.0,350.0,2074.0,3018.0,1561.0,,,,-1.56243987215192,-2.97057499898267,-1.80498069853428,,-6.657597782592553,,
,1788.0,411.0,1494.0,350.0,2057.0,3023.0,1559.0,,,,-1.56253060596736,-2.9705879038218,-1.80383020432163,,-6.975948321948364,,
,1788.0,411.0,1497.0,352.0,2067.0,3030.0,1556.0,,,,-1.5626892566237,-2.97052453376026,-1.8039961138836,,-7.239251110301903,,
,1787.0,409.0,1495.0,350.0,2097.0,3020.0,1555.0,,,,-1.5622168289383,-2.9705606820306,-1.80421762588823,,-7.457145952184077,,
,1789.0,409.0,1495.0,350.0,2086.0,3017.0,1550.0,,,,-1.56119213042898,-2.97083810059906,-1.8043154686659,,-7.637683746429442,,
,1787.0,409.0,1494.0,350.0,2073.0,3032.0,1557.0,,,,-1.5611131543423,-2.97052719165988,-1.80373687535546,,-7.786642843175098,,
,1788.0,410.0,1496.0,350.0,2053.0,3022.0,1557.0,,,,-1.5602228479926,-2.97044526338485,-1.80408685980855,,-7.907101889852848,,
,1786.0,408.0,1493.0,349.0,2057.0,3017.0,1548.0,,,,-1.55998973619698,-2.97060450678969,-1.80378022915766,,-7.999292192394476,,
,1786.0,407.0,1496.0,349.0,2057.0,3015.0,1567.0,,,,-1.55955382477108,-2.97058312476554,-1.80386177230652,,-8.060726290174472,,
,1788.0,412.0,1495.0,349.0,2052.0,3020.0,1559.0,,,,-1.56046926292332,-2.97064304439141,-1.80414430021224,,-8.086574813889367,,
,1789.0,410.0,1494.0,352.0,2059.0,3011.0,1559.0,,,,-1.55990871615829,-2.97063524817027,-1.80363104912275,,-8.07024391624076,,
,1788.0,408.0,1494.0,351.0,2053.0,3002.0,1574.0,,,,-1.55917647694328,-2.97068933375858,-1.80402004331867,,-8.004092077342378,,
,1790.0,410.0,1494.0,351.0,2069.0,3011.0,1563.0,,,,-1.5585777475269,-2.97033357897156,-1.8041294553384,,-7.8802180926007495,,
,1791.0,411.0,1498.0,352.0,2075.0,3017.0,1560.0,,,,-1.55891065579647,-2.97060297003089,-1.80259629341686,,-7.69125139738849,,
,1789.0,412.0,1499.0,351.0,2071.0,3015.0,1557.0,,,,-1.55882059982269,-2.97063620030653,-1.80374962464788,,-7.43108122355033,,
,1790.0,410.0,1495.0,350.0,2069.0,3013.0,1559.0,,,,-1.55823015516219,-2.97048570664762,-1.80385359647287,,-7.095471474888225,,
,1788.0,408.0,1496.0,349.0,2069.0,3015.0,1573.0,,,,-1.55851492908813,-2.97051120679306,-1.80298091204166,,-6.682522086576346,,
,1792.0,411.0,1500.0,353.0,2061.0,3011.0,1560.0,,,,-1.55843876531583,-2.97060236945963,-1.80334154285941,,-6.192953340522032,,
,1792.0,412.0,1498.0,352.0,2071.0,3019.0,1588.0,,,,-1.55905030752395,-2.97031723107683,-1.8039713283546,,-5.630205682374328,,
,1790.0,411.0,1498.0,352.0,2061.0,3021.0,1575.0,,,,-1.55805349757311,-2.97061965665094,-1.80253304880633,,-5.000362385517251,,
,1789.0,411.0,1494.0,348.0,2054.0,3022.0,1576.0,,,,-1.55809166820281,-2.97051878104425,-1.80329359784281,,-4.311913874032557,,
,1791.0,409.0,1498.0,350.0,2079.0,3015.0,1581.0,,,,-1.55774009817647,-2.97043046899005,-1.80363412712952,,-3.5753889930874916,,
,1793.0,412.0,1496.0,352.0,2072.0,2994.0,1571.0,,,,-1.55745359802337,-2.97050799581829,-1.80290913069522,,-2.8028801271099493,,
,1789.0,409.0,1496.0,351.0,2061.0,2998.0,1566.0,,,,-1.5567621011569,-2.97059287302733,-1.80359493412898,,-2.007487976787966,,
,1790.0,414.0,1497.0,350.0,2053.0,3010.0,1568.0,,,,-1.55736378849462,-2.97077095705269,-1.80331781606588,,-1.2027107270605704,,
,1790.0,410.0,1495.0,352.0,2050.0,2999.0,1592.0,,,,-1.55696426795904,-2.97034739898131,-1.80342432566292,,-0.4018028420563739,,
,1790.0,413.0,1498.0,352.0,2060.0,3006.0,1575.0,,,,-1.55674981486469,-2.97046223289748,-1.80229742489851,,0.38286901198876117,,
,1792.0,411.0,1497.0,351.0,2056.0,3019.0,1569.0,,,,-1.55667416049896,-2.97084984171587,-1.80279924330756,,1.1404418154655964,,
,1790.0,411.0,1497.0,352.0,2037.0,3007.0,1570.0,,,,-1.55650047790069,-2.97039718532333,-1.80359105388326,,1.8621083952188018,,
,1790.0,410.0,1497.0,350.0,2060.0,3011.0,1580.0,,,,-1.55576767503976,-2.97063686104123,-1.80347627593365,,2.5415666015813394,,
,1789.0,411.0,1497.0,352.0,2061.0,3013.0,1577.0,,,,-1.55568917484775,-2.97042334409795,-1.80197349526179,,3.175324243250254,,
,1790.0,411.0,1497.0,351.0,2085.0,3003.0,1575.0,,,,-1.55606582350388,-2.97042131165957,-1.8027788555911,,3.7628207418977566,,
,1792.0,412.0,1498.0,354.0,2091.0,3006.0,1577.0,,,,-1.55621492492341,-2.97033548862739,-1.80299526018529,,4.306334027483836,,
,1791.0,410.0,1497.0,350.0,2093.0,3013.0,1580.0,,,,-1.55633864273565,-2.9705845441388,-1.80303542653326,,4.810654514408304,,
,1792.0,410.0,1499.0,353.0,2074.0,3019.0,1589.0,,,,-1.55790428354785,-2.9702426498069,-1.80272004228471,,5.282526553674521,,
,1795.0,411.0,1498.0,352.0,2097.0,3019.0,1579.0,,,,-1.55874323896904,-2.97046829722718,-1.80260284000064,,5.729880292200115,,
,1793.0,410.0,1503.0,350.0,2056.0,3019.0,1568.0,,,,-1.56018801976032,-2.97056444004264,-1.80359621430492,,6.1609012733243205,,
,1794.0,411.0,1499.0,351.0,2061.0,3015.0,1568.0,,,,-1.56259372199541,-2.97072099084643,-1.80283642113838,,6.583008137842867,,
,1793.0,410.0,1497.0,352.0,2068.0,3007.0,1556.0,,,,-1.56472102011843,-2.97055268729131,-1.80358136532032,,7.001826520056653,,
,1795.0,410.0,1499.0,352.0,2073.0,3014.0,1567.0,,,,-1.56510586490141,-2.97043680789645,-1.80388710531098,,7.4202564790752215,,
,1796.0,411.0,1499.0,353.0,2067.0,3015.0,1563.0,,,,-1.56767879695773,-2.97044623875097,-1.80380517182637,,7.837730032549134,,
,1796.0,412.0,1502.0,353.0,2073.0,3022.0,1562.0,,,,-1.56945439281744,-2.97040206243986,-1.80379361316627,,8.249744320050798,,
,1795.0,411.0,1501.0,353.0,2079.0,3008.0,1561.0,,,,-1.57072160473594,-2.9707322438946,-1.80457592760132,,8.647734944403046,,
,1798.0,410.0,1499.0,352.0,2075.0,3000.0,1573.0,,,,-1.57299425705717,-2.97052603309086,-1.80383408288089,,9.019324235413597,,
,1797.0,414.0,1500.0,353.0,2084.0,3012.0,1575.0,,,,-1.57314688134537,-2.97062462164793,-1.80463255011171,,9.348943196162024,,
,1800.0,414.0,1503.0,353.0,2085.0,3010.0,1565.0,,,,-1.57402133241049,-2.97055964465137,-1.80403328781036,,9.61878800086622,,
,1798.0,413.0,1502.0,354.0,2067.0,3011.0,1575.0,,,,-1.57493546003294,-2.97071459426545,-1.80428098200959,,9.810037030766551,,
,1796.0,411.0,1501.0,352.0,2054.0,3009.0,1558.0,,,,-1.57430516756085,-2.97058301949851,-1.80446764729952,,9.904226723868604,,
,1799.0,416.0,1504.0,354.0,2077.0,3016.0,1563.0,,,,-1.57461304030548,-2.97067193375026,-1.80331960058836,,9.884666716404961,,
,1803.0,415.0,1506.0,356.0,2101.0,3019.0,1566.0,,,,-1.57308194501148,-2.97073888548866,-1.80379173902157,,9.737768606487796,,
,1801.0,413.0,1505.0,353.0,2098.0,3018.0,1565.0,,,,-1.57342987092272,-2.97063779980283,-1.80367269998907,,9.454169452426228,,
,1801.0,414.0,1506.0,354.0,2076.0,3007.0,1552.0,,,,-1.57299861523166,-2.97053642717264,-1.80363082927128,,9.0295511708283,,
,1805.0,416.0,1505.0,355.0,2074.0,3006.0,1553.0,,,,-1.57207993634928,-2.97066241998601,-1.80361265344898,,8.46508855516597,,
,1805.0,415.0,1505.0,353.0,2078.0,3014.0,1559.0,,,,-1.57158928878655,-2.97068298029698,-1.80293358810633,,7.76749743448479,,
,1803.0,412.0,1503.0,353.0,2084.0,3002.0,1562.0,,,,-1.57023873338491,-2.97066198295885,-1.802979596759,,6.948694826653634,,
,1805.0,414.0,1507.0,353.0,2075.0,3012.0,1572.0,,,,-1.57008330864341,-2.97088214125336,-1.8019311917089,,6.025119223033601,,
,1804.0,413.0,1506.0,353.0,2091.0,3014.0,1572.0,,,,-1.56938403493359,-2.97085458243501,-1.80289558764865,,5.016786966246346,,
,1806.0,416.0,1506.0,354.0,2089.0,3029.0,1567.0,,,,-1.56944731102844,-2.9704673176855,-1.80254718619853,,3.9461772927009444,,
,1807.0,416.0,1510.0,356.0,2093.0,3016.0,1560.0,,,,-1.56832997056044,-2.97066936910825,-1.80259993651755,,2.8370431291919607,,
,1808.0,414.0,1512.0,356.0,2084.0,3013.0,1553.0,,,,-1.56806348346134,-2.9706245568572,-1.80215431210169,,1.713238233410803,,
,1808.0,415.0,1511.0,356.0,2068.0,3008.0,1556.0,,,,-1.56856726562465,-2.97087167912376,-1.80258133443291,,0.5976364475596375,,
,1810.0,415.0,1510.0,356.0,2061.0,3015.0,1570.0,,,,-1.56819984838516,-2.97071714256615,-1.80167228059129,,-0.48880079466201726,,
,1808.0,415.0,1508.0,358.0,2085.0,3019.0,1564.0,,,,-1.56875062505247,-2.97082746606796,-1.80292092113705,,-1.527773523205033,,
,1812.0,416.0,1512.0,356.0,2102.0,3027.0,1564.0,,,,-1.5678212425257,-2.97064686352569,-1.80208788872792,,-2.504192925179605,,
,1810.0,418.0,1510.0,357.0,2098.0,3022.0,1564.0,,,,-1.56839951793185,-2.97088802986545,-1.80195832413587,,-3.4065308666214094,,
,1811.0,416.0,1510.0,356.0,2077.0,3029.0,1569.0,,,,-1.56785856653516,-2.9705403091255,-1.80205082783618,,-4.226977842433377,,
,1813.0,417.0,1513.0,359.0,2082.0,3026.0,1571.0,,,,-1.56748227773532,-2.97053588277713,-1.80281954084744,,-4.961421693217775,,
,1812.0,416.0,1512.0,356.0,2080.0,3015.0,1578.0,,,,-1.56758616505603,-2.97049208649387,-1.80237760187407,,-5.609259412002718,,
,1815.0,419.0,1512.0,356.0,2076.0,3019.0,1577.0,,,,-1.56799578157142,-2.97071965603645,-1.80266620510191,,-6.173053482394308,,
,1813.0,416.0,1512.0,356.0,2065.0,3022.0,1569.0,,,,-1.56827807153095,-2.97048820949342,-1.80256836254905,,-6.658044791810883,,
,1815.0,417.0,1512.0,358.0,2051.0,3017.0,1558.0,,,,-1.56793751304528,-2.97062584699743,-1.80286617240005,,-7.071537399133703,,
,1816.0,416.0,1515.0,358.0,2081.0,3010.0,1562.0,,,,-1.56854357226432,-2.97051328266401,-1.80187387090713,,-7.422176646764548,,
,1817.0,419.0,1516.0,359.0,2083.0,3010.0,1565.0,,,,-1.56780794382691,-2.97059096566706,-1.80268949915689,,-7.719151135866341,,
,1816.0,417.0,1514.0,358.0,2085.0,3017.0,1569.0,,,,-1.56841008739933,-2.97052518159514,-1.80255854587081,,-7.9713599709624035,,
,1818.0,417.0,1515.0,360.0,2084.0,3016.0,1572.0,,,,-1.5683624289742,-2.97065990818207,-1.80212340966291,,-8.18659741700001,,
,1819.0,419.0,1517.0,360.0,2075.0,3007.0,1575.0,,,,-1.56843157061884,-2.97050578272033,-1.80228362183382,,-8.370815092735263,,
,1816.0,420.0,1519.0,359.0,2072.0,3017.0,1577.0,,,,-1.56889974362727,-2.97043521557708,-1.80236898486485,,-8.527524759573259,,
,1818.0,418.0,1515.0,360.0,2085.0,3007.0,1575.0,,,,-1.56826494466699,-2.9705095760977,-1.80298086614755,,-8.657401312444042,,
,1816.0,416.0,1516.0,359.0,2079.0,3019.0,1567.0,,,,-1.56962684445783,-2.97067454600197,-1.80198432774798,,-8.75813524370029,,
,1814.0,416.0,1515.0,359.0,2072.0,3027.0,1578.0,,,,-1.5691121176682,-2.97050268552091,-1.80171029080287,,-8.824566483454408,,
,1812.0,416.0,1516.0,359.0,2077.0,3021.0,1576.0,,,,-1.56915945281895,-2.97042982442358,-1.80245232581698,,-8.84910729306412,,
,1811.0,418.0,1514.0,359.0,2073.0,3020.0,1575.0,,,,-1.56916358650805,-2.97057083437284,-1.80217510167757,,-8.822432213331961,,
,1808.0,416.0,1513.0,356.0,2065.0,3023.0,1569.0,,,,-1.56923412065128,-2.97054011287135,-1.80266993030919,,-8.734381591973742,,
,1806.0,414.0,1510.0,359.0,2075.0,3009.0,1573.0,,,,-1.56856489774987,-2.97033448190956,-1.8022354523149,,-8.574997337815706,,
,1803.0,415.0,1508.0,358.0,2088.0,2989.0,1561.0,,,,-1.56894721989805,-2.97029380331348,-1.80224736082677,,-8.335590393419892,,
,1802.0,414.0,1505.0,356.0,2066.0,2981.0,1572.0,,,,-1.56842073075963,-2.97069507545742,-1.80215981877905,,-8.009732189979115,,
,1799.0,412.0,1505.0,354.0,2053.0,2990.0,1571.0,,,,-1.56817301707643,-2.97040374883544,-1.802651181475,,-7.594068385031526,,
,1793.0,413.0,1505.0,353.0,2063.0,2978.0,1582.0,,,,-1.56867286588955,-2.97074902060817,-1.80318680838274,,-7.08887246270352,,
,1794.0,411.0,1501.0,352.0,2066.0,2984.0,1571.0,,,,-1.56780544393591,-2.97049441966642,-1.80162361130001,,-6.498287382225073,,
,1793.0,411.0,1496.0,352.0,2078.0,2994.0,1564.0,,,,-1.56814491485873,-2.97047644188791,-1.80207778746013,,-5.830240717454738,,
,1793.0,411.0,1495.0,353.0,2074.0,3000.0,1561.0,,,,-1.56745304366921,-2.9707779425805,-1.80132972726334,,-5.0960558013729385,,
,1792.0,409.0,1495.0,351.0,2065.0,3002.0,1561.0,,,,-1.56639853486545,-2.97062615651026,-1.80154623801346,,-4.309811556235005,,
,1791.0,411.0,1492.0,351.0,2079.0,2995.0,1564.0,,,,-1.56574093788411,-2.97074047181357,-1.80243925217909,,-3.487522670920321,,
,1789.0,410.0,1489.0,353.0,2095.0,3005.0,1562.0,,,,-1.56607928234808,-2.97068416431003,-1.80180551790155,,-2.6462185471624577,,
,1788.0,409.0,1490.0,350.0,2094.0,3002.0,1566.0,,,,-1.56594408336487,-2.97059765185812,-1.80222990821195,,-1.8029955471375951,,
,1790.0,409.0,1486.0,349.0,2101.0,3020.0,1552.0,,,,-1.56489783395565,-2.97064917203916,-1.80216408716957,,-0.9741058133263216,,
,1788.0,410.0,1487.0,350.0,2091.0,3016.0,1558.0,,,,-1.56530986942046,-2.97057369486087,-1.80108233605336,,-0.17413157730353135,,
,1788.0,408.0,1486.0,350.0,2090.0,3014.0,1562.0,,,,-1.56516012683284,-2.97064813555608,-1.80307417957068,,0.5847194640405388,,
,1788.0,407.0,1487.0,349.0,2098.0,3019.0,1564.0,,,,-1.565103088339,-2.9704862922951,-1.80226213226795,,1.2931720329831045,,
,1789.0,409.0,1486.0,351.0,2102.0,3014.0,1568.0,,,,-1.56468883043971,-2.97056940501008,-1.80176150377863,,1.9452749694571199,,
,1787.0,406.0,1484.0,348.0,2114.0,3016.0,1555.0,,,,-1.5644967906069,-2.97059101427082,-1.80229561535228,,2.538610800005071,,
,1789.0,410.0,1485.0,351.0,2092.0,2995.0,1543.0,,,,-1.56408602978955,-2.97079952684174,-1.80259170578076,,3.074309210334343,,
,1788.0,407.0,1484.0,350.0,2092.0,3016.0,1550.0,,,,-1.56348494304113,-2.97087933560407,-1.80202648802554,,3.556852315538176,,
,1788.0,409.0,1485.0,350.0,2089.0,3017.0,1551.0,,,,-1.56423174616341,-2.97082585439469,-1.80181717396756,,3.9936632587156455,,
,1785.0,410.0,1485.0,349.0,2074.0,3012.0,1573.0,,,,-1.56390653542286,-2.97066725007877,-1.80314005717184,,4.39447708793849,,
,1787.0,410.0,1486.0,349.0,2062.0,3003.0,1570.0,,,,-1.56401078627661,-2.97058093143003,-1.80294377158105,,4.7705053127322135,,
,1789.0,409.0,1487.0,352.0,2066.0,3017.0,1568.0,,,,-1.56416339345136,-2.97064699477339,-1.80184858799673,,5.133422922683921,,
,1790.0,412.0,1489.0,349.0,2069.0,3015.0,1561.0,,,,-1.5628862390659,-2.97052308163314,-1.80303127463064,,5.494227592951555,,
,1788.0,409.0,1486.0,351.0,2080.0,2993.0,1572.0,,,,-1.56310066932647,-2.97077293762708,-1.80322235742695,,5.862043029557683,,
,1788.0,407.0,1485.0,348.0,2065.0,3006.0,1567.0,,,,-1.56208435792543,-2.97055502786017,-1.80303175886723,,6.242958788401847,,
,1789.0,409.0,1486.0,351.0,2094.0,3009.0,1556.0,,,,-1.56283404178833,-2.97060072166816,-1.8023925116107,,6.639013400898923,,
,1790.0,412.0,1489.0,351.0,2091.0,3000.0,1556.0,,,,-1.56272453340593,-2.97071906873145,-1.80384302058201,,7.047432082078118,,
,1790.0,408.0,1486.0,351.0,2067.0,3007.0,1569.0,,,,-1.56375092632673,-2.97059278048212,-1.80271951843219,,7.460221829104369,,
,1788.0,410.0,1487.0,353.0,2063.0,3011.0,1582.0,,,,-1.56307995321752,-2.97069765625004,-1.80340560156892,,7.864204494834465,,
,1788.0,410.0,1486.0,351.0,2066.0,3010.0,1573.0,,,,-1.56419659560687,-2.97068994657833,-1.80395833836255,,8.241533058625516,,
,1788.0,409.0,1489.0,352.0,2066.0,3003.0,1579.0,,,,-1.56390063634545,-2.97088278445199,-1.80426506043083,,8.570689655163662,,
,1786.0,408.0,1486.0,350.0,2055.0,3007.0,1578.0,,,,-1.56350810738608,-2.97061726649501,-1.8041119565942,,8.827910103939931,,
,1788.0,408.0,1487.0,349.0,2070.0,3012.0,1581.0,,,,-1.56396152407854,-2.97051313501688,-1.80435433356673,,8.988926056618944,,
,1786.0,406.0,1485.0,348.0,2067.0,3006.0,1583.0,,,,-1.56379077920115,-2.97051631274956,-1.80317630681603,,9.030871770620054,,
2025-06-30 18:28:11,1789.0,411.0,1486.0,350.0,2058.0,3010.0,1582.0,,,2025/06/30 06:28:11 PM,-1.5638069777474,-2.97049852438166,-1.8050826686299,,8.934176190130701,,
,1786.0,410.0,1487.0,352.0,2078.0,2998.0,1585.0,,,,-1.56350124307784,-2.97060808578585,-1.80445023730757,,8.684257052722876,,
,1786.0,409.0,1486.0,351.0,2082.0,2988.0,1587.0,,,,-1.56351425448515,-2.97054440036231,-1.80497935653199,,8.272852457962248,,
,1787.0,409.0,1486.0,348.0,2066.0,3007.0,1576.0,,,,-1.56396106127284,-2.97018507340063,-1.80397475353741,,7.69886384984067,,
,1786.0,408.0,1486.0,348.0,2062.0,3014.0,1577.0,,,,-1.56432964742057,-2.97056571190001,-1.80462099301045,,6.968637505093538,,
,1791.0,410.0,1488.0,350.0,2071.0,3005.0,1587.0,,,,-1.56346312151788,-2.97055920992552,-1.8041742438233,,6.0956719188001065,,
,1790.0,409.0,1487.0,350.0,2068.0,2994.0,1582.0,,,,-1.56423852643734,-2.97049194762972,-1.80523209605194,,5.099796816052771,,
,1787.0,408.0,1485.0,350.0,2080.0,3005.0,1569.0,,,,-1.5639731825007,-2.97068454081325,-1.80462498459527,,4.0059176096107,,
,1788.0,408.0,1484.0,349.0,2080.0,3008.0,1568.0,,,,-1.5642077566976,-2.97065179457904,-1.80498492441564,,2.842452088735998,,
,1789.0,409.0,1486.0,352.0,2091.0,3013.0,1570.0,,,,-1.56481671379699,-2.97042048873176,-1.80549248639307,,1.639602803227653,,
,1788.0,408.0,1485.0,350.0,2085.0,3002.0,1564.0,,,,-1.56562455605343,-2.97052874941652,-1.80512580015976,,0.42761009276557516,,
,1788.0,408.0,1483.0,347.0,2084.0,3000.0,1565.0,,,,-1.5660187784637,-2.97047749151934,-1.80557697428943,,-0.764880860493443,,
,1789.0,410.0,1485.0,349.0,2084.0,3000.0,1574.0,,,,-1.56895744151163,-2.97049658774832,-1.80625745770524,,-1.9122272905364566,,
,1790.0,410.0,1486.0,349.0,2066.0,3004.0,1571.0,,,,-1.57042137351015,-2.97047899406154,-1.80702098749078,,-2.992886984019701,,
,1791.0,410.0,1485.0,351.0,2064.0,3010.0,1567.0,,,,-1.57211399775404,-2.97066524498391,-1.8063035285779,,-3.9901548556611797,,
,1791.0,407.0,1484.0,351.0,2060.0,3002.0,1569.0,,,,-1.57510318252868,-2.97061319644921,-1.80742740570611,,-4.892516163912737,,
,1791.0,410.0,1486.0,348.0,2082.0,2988.0,1562.0,,,,-1.57636998359948,-2.97057343023645,-1.80760529567686,,-5.693622749705948,,
,1793.0,408.0,1488.0,349.0,2083.0,3000.0,1553.0,,,,-1.57929017145792,-2.97071780570557,-1.80744160308668,,-6.391923090932468,,
,1794.0,409.0,1490.0,351.0,2072.0,3007.0,1558.0,,,,-1.58014399098373,-2.97065041327236,-1.80792678026296,,-6.98999669184658,,
,1794.0,410.0,1488.0,352.0,2070.0,3003.0,1559.0,,,,-1.5815009656246,-2.97057309022773,-1.80800757466077,,-7.493657899120115,,
,1794.0,411.0,1487.0,352.0,2092.0,3008.0,1556.0,,,,-1.58363524063381,-2.97066051702737,-1.80844033606722,,-7.910904069888107,,
,1793.0,410.0,1487.0,350.0,2095.0,3011.0,1582.0,,,,-1.58423667112547,-2.97039087303149,-1.80869773198539,,-8.250789270388806,,
,1795.0,408.0,1489.0,349.0,2092.0,3012.0,1565.0,,,,-1.58442640737359,-2.97036372920077,-1.80876105032698,,-8.522308068680926,,
,1795.0,408.0,1488.0,348.0,2073.0,3006.0,1568.0,,,,-1.58597028328097,-2.97060620107642,-1.80895751443286,,-8.733373803923785,,
,1795.0,413.0,1493.0,353.0,2080.0,3005.0,1567.0,,,,-1.58539545910831,-2.97074806950574,-1.80966113104035,,-8.889970409908765,,
,1797.0,409.0,1492.0,352.0,2073.0,2998.0,1562.0,,,,-1.58515310885548,-2.97057112884285,-1.80947276705804,,-8.995545409607578,,
,1795.0,412.0,1491.0,350.0,2062.0,2997.0,1559.0,,,,-1.58559224256588,-2.9704424079814,-1.80934671757776,,-9.05069423134627,,
,1799.0,412.0,1493.0,352.0,2080.0,2996.0,1560.0,,,,-1.58467277492597,-2.97062322525366,-1.80921182866136,,-9.053163436803581,,
,1801.0,412.0,1493.0,353.0,2080.0,2997.0,1562.0,,,,-1.58480920637355,-2.97033309892737,-1.8089100481859,,-8.998173941590535,,
,1796.0,412.0,1491.0,351.0,2082.0,3002.0,1567.0,,,,-1.58411904156718,-2.97034387783412,-1.80866915978206,,-8.879036399275853,,
,1801.0,411.0,1490.0,353.0,2079.0,3000.0,1572.0,,,,-1.58311849346894,-2.97066038308902,-1.80804038663216,,-8.688002112694834,,
,1800.0,411.0,1496.0,353.0,2084.0,3008.0,1569.0,,,,-1.58295221268613,-2.97055625340365,-1.80805077086711,,-8.41726771698409,,
,1800.0,416.0,1495.0,355.0,2082.0,3013.0,1562.0,,,,-1.58266151126206,-2.97049554142272,-1.8089793234316,,-8.060034427147956,,
,1802.0,413.0,1495.0,353.0,2084.0,3018.0,1567.0,,,,-1.5821402400071,-2.97018962321072,-1.80859156033233,,-7.611515943590704,,
,1801.0,415.0,1498.0,353.0,2086.0,3008.0,1575.0,,,,-1.5817088393683,-2.97025391822644,-1.80863164873499,,-7.06979419187732,,
,1802.0,413.0,1496.0,354.0,2087.0,3000.0,1570.0,,,,-1.58184595843862,-2.97010408237522,-1.80806438293828,,-6.436437797112942,,
,1803.0,414.0,1499.0,354.0,2098.0,3007.0,1570.0,,,,-1.58116136184497,-2.97020617114334,-1.808306624542,,-5.716822216369685,,
,1806.0,413.0,1498.0,356.0,2086.0,3004.0,1561.0,,,,-1.5821208665184,-2.97013928948356,-1.80914783210612,,-4.920120137095433,,
,1803.0,414.0,1498.0,355.0,2091.0,3005.0,1544.0,,,,-1.58182731419395,-2.97000431037726,-1.80948181031489,,-4.058963174049104,,
,1802.0,413.0,1496.0,351.0,2093.0,3012.0,1561.0,,,,-1.58153533412468,-2.96999773066332,-1.80849383665401,,-3.1488075856942026,,
,1807.0,416.0,1499.0,356.0,2087.0,3021.0,1570.0,,,,-1.58151992445026,-2.97027377079678,-1.80857188690803,,-2.2070639951188586,,
,1806.0,415.0,1501.0,358.0,2081.0,3018.0,1566.0,,,,-1.58145480073979,-2.97017957188535,-1.80897072896236,,-1.2520708684684834,,
,1806.0,415.0,1501.0,357.0,2087.0,3010.0,1572.0,,,,-1.58078826787555,-2.97044805297469,-1.80909024605004,,-0.30200197224775893,,
,1805.0,413.0,1497.0,352.0,2103.0,3016.0,1574.0,,,,-1.58162698990827,-2.97011267989701,-1.8091732426264,,0.6262011280419041,,
,1805.0,416.0,1505.0,355.0,2091.0,3023.0,1576.0,,,,-1.58190259024975,-2.97000732261918,-1.80949367898065,,1.5177882069087136,,
,1809.0,415.0,1503.0,355.0,2088.0,3025.0,1565.0,,,,-1.58173650126213,-2.97013934739127,-1.80915998293365,,2.360982034047219,,
,1808.0,415.0,1502.0,354.0,2094.0,3024.0,1561.0,,,,-1.58155174150453,-2.97015022038434,-1.80915668845697,,3.147531399031169,,
,1807.0,413.0,1503.0,355.0,2079.0,3018.0,1579.0,,,,-1.58290966558513,-2.96998272682113,-1.80922695472073,,3.873003595521194,,
,1809.0,412.0,1503.0,356.0,2064.0,3019.0,1565.0,,,,-1.58220772171123,-2.96982488941902,-1.80900709735045,,4.536803263047404,,
,1810.0,416.0,1505.0,357.0,2065.0,3025.0,1565.0,,,,-1.58247062602119,-2.97016854065181,-1.80906657346873,,5.141922109549618,,
,1812.0,414.0,1505.0,358.0,2050.0,3005.0,1585.0,,,,-1.58333447857977,-2.96994102044132,-1.80917624620805,,5.694440039847463,,
,1812.0,415.0,1506.0,359.0,2052.0,3005.0,1587.0,,,,-1.58393483859515,-2.97009049371413,-1.81121964957769,,6.202811824974279,,
,1811.0,416.0,1505.0,355.0,2042.0,3005.0,1583.0,,,,-1.58315126940036,-2.96995652230126,-1.80945228425538,,6.676983930711919,,
,1814.0,418.0,1506.0,356.0,2046.0,3020.0,1565.0,,,,-1.58427765928138,-2.96989387728331,-1.81048188680989,,7.127393714735107,,
,1812.0,419.0,1507.0,357.0,2069.0,3028.0,1559.0,,,,-1.58425481220917,-2.9699243404804,-1.8102800951787,,7.563909001286562,,
,1812.0,416.0,1505.0,357.0,2081.0,3029.0,1557.0,,,,-1.58399678508105,-2.97034391537816,-1.81004901904459,,7.99477075599558,,
,1811.0,416.0,1507.0,358.0,2096.0,3018.0,1568.0,,,,-1.58437578635579,-2.97009786433054,-1.81017792649725,,8.425604812618904,,
,1806.0,415.0,1506.0,357.0,2061.0,3023.0,1571.0,,,,-1.5844172365264,-2.97018571212453,-1.81102736670493,,8.85856951802602,,
,1806.0,413.0,1503.0,354.0,2070.0,3017.0,1572.0,,,,-1.58508535991918,-2.97006638318515,-1.80971357667228,,9.291704337843091,,
,1803.0,413.0,1503.0,355.0,2067.0,3024.0,1574.0,,,,-1.584290339011,-2.96989866576182,-1.80966516505666,,9.71853963629299,,
,1800.0,415.0,1501.0,355.0,2076.0,3012.0,1567.0,,,,-1.5838905409666,-2.97017783594982,-1.81003120761093,,10.128019073253187,,
,1795.0,412.0,1497.0,352.0,2069.0,3022.0,1563.0,,,,-1.58461987858329,-2.96992463999423,-1.81067832291954,,10.504771706873973,,
,1799.0,412.0,1495.0,352.0,2047.0,3010.0,1588.0,,,,-1.58428198646175,-2.97017361706333,-1.81056130043388,,10.829749716481098,,
,1792.0,410.0,1495.0,353.0,2059.0,2996.0,1605.0,,,,-1.58475860078463,-2.9702312745612,-1.81054915955481,,11.081220165569645,,
,1788.0,411.0,1492.0,353.0,2055.0,2992.0,1598.0,,,,-1.5840134447045,-2.97005707223197,-1.80999639569239,,11.236067979008952,,
,1787.0,410.0,1490.0,351.0,2054.0,2973.0,1598.0,,,,-1.58375654416212,-2.9702350296699,-1.810501631438,,11.27133592957884,,
,1784.0,409.0,1487.0,349.0,2038.0,2987.0,1574.0,,,,-1.58418979945376,-2.96993492918422,-1.80997922489527,,11.165899220375714,,
,1785.0,407.0,1485.0,349.0,2029.0,2999.0,1566.0,,,,-1.58360306653482,-2.9699457200757,-1.81009743629077,,10.902150009671777,,
,1783.0,408.0,1481.0,349.0,2024.0,2996.0,1570.0,,,,-1.58325550694015,-2.96976875476662,-1.80922563193701,,10.467554087593962,,
,1781.0,407.0,1481.0,349.0,2037.0,3004.0,1565.0,,,,-1.58282626838775,-2.97010234778205,-1.81056622701149,,9.85594145609995,,
,1779.0,405.0,1478.0,345.0,2053.0,3002.0,1580.0,,,,-1.58306437357229,-2.96992516851581,-1.80926846883762,,9.06840736973683,,
,1781.0,407.0,1479.0,347.0,2064.0,3005.0,1577.0,,,,-1.58205707896963,-2.97007356585148,-1.81059528773385,,8.113730377265751,,
,1779.0,409.0,1476.0,349.0,2065.0,3007.0,1575.0,,,,-1.58247504630809,-2.96997389746709,-1.81012401164877,,7.008255919390737,,
,1781.0,407.0,1480.0,349.0,2067.0,3009.0,1582.0,,,,-1.58182249911715,-2.96993163782183,-1.8105079456074,,5.775242761131085,,
,1780.0,408.0,1473.0,347.0,2064.0,3026.0,1568.0,,,,-1.58245893014976,-2.9695621549741,-1.81008553900355,,4.4437186043331645,,
,1777.0,405.0,1473.0,348.0,2040.0,3028.0,1561.0,,,,-1.58149226308718,-2.97009873803564,-1.81005964183432,,3.046934317943589,,
,1777.0,405.0,1474.0,348.0,2056.0,3026.0,1549.0,,,,-1.58116402454403,-2.96996030670696,-1.81048466453561,,1.6205383801962958,,
,1777.0,406.0,1471.0,348.0,2050.0,3019.0,1546.0,,,,-1.58145839526278,-2.96998226084843,-1.81059905132039,,0.20061188169238378,,
,1777.0,406.0,1475.0,347.0,2036.0,3018.0,1560.0,,,,-1.58163382306317,-2.9698535391542,-1.8100619612394,,-1.1782900705826753,,
,1779.0,406.0,1474.0,347.0,2029.0,3016.0,1567.0,,,,-1.58184182721854,-2.96980482094649,-1.80935635899184,,-2.484950719397683,,
,1778.0,407.0,1474.0,347.0,2035.0,3010.0,1563.0,,,,-1.58134019815456,-2.96982075966601,-1.81020123779927,,-3.693033449051161,,
,1778.0,406.0,1472.0,344.0,2055.0,3024.0,1569.0,,,,-1.58124977502195,-2.96987878918244,-1.80903859726398,,-4.78225219439241,,
,1777.0,404.0,1474.0,345.0,2060.0,3022.0,1563.0,,,,-1.58152363729854,-2.96976870335849,-1.81001893570604,,-5.739100096043842,,
,1778.0,407.0,1474.0,345.0,2072.0,3009.0,1552.0,,,,-1.58051232169396,-2.96962339791311,-1.80999282777924,,-6.557101259744261,,
,1779.0,407.0,1473.0,346.0,2044.0,3005.0,1553.0,,,,-1.58085449488777,-2.96974259271936,-1.80935435081709,,-7.236586961197861,,
,1777.0,405.0,1472.0,346.0,2039.0,3010.0,1564.0,,,,-1.58026938135276,-2.96978299921571,-1.80984881754165,,-7.784031557169561,,
,1778.0,407.0,1474.0,349.0,2039.0,3013.0,1573.0,,,,-1.5804182348036,-2.96984445364136,-1.809489846894,,-8.211012113060901,,
,1778.0,405.0,1473.0,347.0,2059.0,3005.0,1568.0,,,,-1.5808766007499,-2.96938352735566,-1.80995658082926,,-8.532878308787984,,
,1778.0,406.0,1473.0,347.0,2046.0,3022.0,1568.0,,,,-1.58028022688772,-2.96984867746154,-1.81002955080258,,-8.767235374258536,,
,1780.0,408.0,1476.0,349.0,2033.0,3008.0,1564.0,,,,-1.58131761444948,-2.96980540091207,-1.80923021367,,-8.932352514577788,,
,1780.0,406.0,1473.0,347.0,2038.0,3021.0,1570.0,,,,-1.58054774583395,-2.96966101557545,-1.80981996593276,,-9.045612197171481,,
,1780.0,405.0,1473.0,349.0,2029.0,3026.0,1562.0,,,,-1.58067264515889,-2.9695728984463,-1.80954062937193,,-9.122111515606,,
,1776.0,405.0,1471.0,345.0,2035.0,3023.0,1575.0,,,,-1.58027627380438,-2.96967104521122,-1.80925845355076,,-9.173515653199372,,
,1778.0,404.0,1474.0,347.0,2041.0,3031.0,1595.0,,,,-1.58044101659094,-2.96945675756188,-1.81005730958942,,-9.20724563571538,,
,1779.0,408.0,1475.0,350.0,2033.0,3018.0,1583.0,,,,-1.58115273420939,-2.96968663920861,-1.8098816564358,,-9.226058645518538,,
,1779.0,409.0,1476.0,347.0,2037.0,3013.0,1572.0,,,,-1.58004920945706,-2.9696862452939,-1.80981478534871,,-9.22804970500745,,
,1776.0,407.0,1475.0,346.0,2053.0,3016.0,1583.0,,,,-1.57992399160295,-2.96956788578131,-1.80950696694964,,-9.207069508999059,,
,1778.0,406.0,1475.0,349.0,2047.0,3015.0,1580.0,,,,-1.58117406052673,-2.96960316185374,-1.81002572362428,,-9.153517124210843,,
,1781.0,406.0,1474.0,349.0,2033.0,3011.0,1576.0,,,,-1.57972201976204,-2.96943120640653,-1.80898610081515,,-9.055432430446809,,
,1781.0,407.0,1476.0,348.0,2024.0,3010.0,1586.0,,,,-1.57974806491667,-2.96960695236288,-1.8095044887712,,-8.899785947191589,,
,1780.0,406.0,1476.0,345.0,2029.0,3015.0,1582.0,,,,-1.57970051453613,-2.96993419736948,-1.80991899881246,,-8.673846014840262,,
,1780.0,407.0,1475.0,349.0,2028.0,3018.0,1577.0,,,,-1.57967515235132,-2.96963509556242,-1.80943280747104,,-8.366496781338402,,
,1778.0,407.0,1474.0,349.0,2025.0,3027.0,1570.0,,,,-1.5794559445,-2.96973514982342,-1.80905758139878,,-7.9693861671195405,,
,1779.0,407.0,1475.0,346.0,2031.0,3017.0,1574.0,,,,-1.57825139189308,-2.96978075348356,-1.80931175838359,,-7.477801296723051,,
,1780.0,405.0,1472.0,349.0,2041.0,3014.0,1580.0,,,,-1.57873395896608,-2.96974640378259,-1.80940018794295,,-6.891198382045203,,
,1780.0,405.0,1469.0,349.0,2058.0,3016.0,1576.0,,,,-1.5784897060567,-2.96932305189717,-1.8097149132966,,-6.213351195461177,,
,1780.0,406.0,1471.0,346.0,2041.0,3025.0,1579.0,,,,-1.57878127928145,-2.96949399227903,-1.80836094318072,,-5.45212227892707,,
,1781.0,409.0,1475.0,347.0,2056.0,3014.0,1579.0,,,,-1.57827511043562,-2.96948726601401,-1.81027342794541,,-4.618898984544275,,
,1779.0,408.0,1473.0,349.0,2050.0,3021.0,1575.0,,,,-1.57954449822691,-2.96947704745656,-1.8096255950323,,-3.7277679911976214,,
,1781.0,407.0,1474.0,346.0,2062.0,2996.0,1563.0,,,,-1.57912073651609,-2.9695767351743,-1.80987086666321,,-2.794523566867383,,
,1780.0,408.0,1475.0,349.0,2040.0,3006.0,1562.0,,,,-1.58130253740654,-2.96972078128223,-1.80975659206047,,-1.8356142169543213,,
,1785.0,409.0,1473.0,348.0,2047.0,3013.0,1573.0,,,,-1.58349827154956,-2.96963294505365,-1.81026882771508,,-0.8671291194011581,,
,1784.0,409.0,1477.0,352.0,2040.0,3019.0,1575.0,,,,-1.58595895312442,-2.96934587766461,-1.81039526116118,,0.09608794810603476,,
,1782.0,406.0,1474.0,347.0,2049.0,3019.0,1567.0,,,,-1.58736667623738,-2.96973133069563,-1.8108704591701,,1.0411297216858524,,
,1782.0,410.0,1478.0,350.0,2060.0,3018.0,1580.0,,,,-1.58924109742539,-2.96957714678165,-1.8115254209549,,1.957477094647671,,
,1783.0,409.0,1477.0,348.0,2030.0,3020.0,1579.0,,,,-1.59150786866374,-2.96982906419661,-1.81153480248728,,2.8371900363185714,,
,1787.0,406.0,1477.0,349.0,2040.0,3028.0,1582.0,,,,-1.59345808840585,-2.9695768519182,-1.81231282226662,,3.6748388472559728,,
,1786.0,409.0,1479.0,350.0,2042.0,3029.0,1577.0,,,,-1.59427444875379,-2.96969335926511,-1.8120312494211,,4.46719714932304,,
,1785.0,408.0,1476.0,350.0,2046.0,3016.0,1596.0,,,,-1.59664684260769,-2.96959927167881,-1.81204573785451,,5.21273517566074,,
,1785.0,407.0,1477.0,348.0,2041.0,3009.0,1587.0,,,,-1.59791160672681,-2.96966317195787,-1.81253049191872,,5.91096507249929,,
,1788.0,408.0,1480.0,349.0,2042.0,3019.0,1585.0,,,,-1.59846195248312,-2.9694435248452,-1.81196165083235,,6.561699063077127,,
,1789.0,409.0,1480.0,349.0,2038.0,2997.0,1593.0,,,,-1.5982057902769,-2.96960627681366,-1.81228441513741,,7.164287129964387,,
,1789.0,409.0,1480.0,349.0,2043.0,3005.0,1585.0,,,,-1.59886711848074,-2.96965313120797,-1.81241418406502,,7.716903953846129,,
,1788.0,406.0,1478.0,348.0,2040.0,3022.0,1597.0,,,,-1.59960000980411,-2.96988655775052,-1.81229009179719,,8.215955120630225,,
,1788.0,409.0,1479.0,350.0,2053.0,3017.0,1597.0,,,,-1.5982988029648,-2.9699226268708,-1.81174137523872,,8.655669233427309,,
,1791.0,410.0,1481.0,352.0,2031.0,3017.0,1586.0,,,,-1.59787179245702,-2.96973869466104,-1.81269321730642,,9.027934373635395,,
,1795.0,410.0,1484.0,349.0,2033.0,3014.0,1581.0,,,,-1.59774844063592,-2.96981619590452,-1.81206808989897,,9.322423210700164,,
,1793.0,409.0,1480.0,351.0,2025.0,3010.0,1591.0,,,,-1.59709453392241,-2.9698411865408,-1.8118545365609,,9.527029878598766,,
2025-06-30 18:28:12,1792.0,409.0,1482.0,351.0,2012.0,3013.0,1576.0,,,2025/06/30 06:28:12 PM,-1.59769554545428,-2.96977978263766,-1.81252758533461,,9.628612940409878,,
,1793.0,411.0,1483.0,353.0,2025.0,3021.0,1579.0,,,,-1.59652344068582,-2.96996895261889,-1.81189730845492,,9.614003665547902,,
,1798.0,411.0,1484.0,353.0,2031.0,3019.0,1573.0,,,,-1.59562120660256,-2.96997948889135,-1.81136596599888,,9.471201669446707,,
,1796.0,411.0,1486.0,352.0,2021.0,3021.0,1568.0,,,,-1.59446477362256,-2.96981716950732,-1.81144005035792,,9.190647024528058,,
,1795.0,409.0,1484.0,351.0,2029.0,3011.0,1567.0,,,,-1.5943348895321,-2.96980451670632,-1.8112240766509,,8.76643567603471,,
,1797.0,412.0,1486.0,354.0,2009.0,3020.0,1589.0,,,,-1.59368823065637,-2.96989166271661,-1.81125494595206,,8.197338541186241,,
,1797.0,412.0,1489.0,353.0,2019.0,3018.0,1585.0,,,,-1.59355144769815,-2.96984974881223,-1.81209761703248,,7.487497342965828,,
,1801.0,411.0,1486.0,354.0,2024.0,3020.0,1586.0,,,,-1.59381348062484,-2.96984200909021,-1.81128558002653,,6.646702548083045,,
,1799.0,410.0,1488.0,354.0,2031.0,3023.0,1566.0,,,,-1.59424507648368,-2.96982806735617,-1.81156597230717,,5.690206912189407,,
,1801.0,412.0,1489.0,354.0,2017.0,3023.0,1572.0,,,,-1.59396059227242,-2.97004082336057,-1.8115701261009,,4.638083603393624,,
,1800.0,412.0,1489.0,356.0,2020.0,3019.0,1576.0,,,,-1.59306080507073,-2.96996738658266,-1.81127672092061,,3.514190068066639,,
,1801.0,413.0,1488.0,354.0,2020.0,3022.0,1574.0,,,,-1.59397334484278,-2.9695912903772,-1.81122142715054,,2.3448390643714614,,
,1801.0,414.0,1489.0,355.0,2022.0,3011.0,1584.0,,,,-1.59371205858996,-2.96984839984566,-1.81112880656985,,1.1573026497213543,,
,1802.0,413.0,1490.0,353.0,2021.0,3009.0,1584.0,,,,-1.59355954454813,-2.96977862715897,-1.81121200256815,,-0.021716231510032283,,
,1803.0,413.0,1491.0,354.0,2021.0,3017.0,1587.0,,,,-1.59353637120412,-2.96983617466876,-1.8115373736761,,-1.167514300361957,,
,1802.0,415.0,1490.0,357.0,2036.0,3024.0,1582.0,,,,-1.59351259673837,-2.97008531058324,-1.81078152756904,,-2.2586059208424407,,
,1803.0,415.0,1487.0,356.0,2025.0,3026.0,1578.0,,,,-1.59383284457812,-2.96994068999219,-1.81131269313493,,-3.277638438262404,,
,1805.0,413.0,1492.0,354.0,2021.0,3029.0,1569.0,,,,-1.59425006508723,-2.96995797108155,-1.81058621594704,,-4.211945635865476,,
,1804.0,415.0,1494.0,356.0,2027.0,3015.0,1576.0,,,,-1.59491677695355,-2.96979971528391,-1.81115707151458,,-5.0537135259875265,,
,1809.0,415.0,1496.0,357.0,2030.0,3009.0,1579.0,,,,-1.59502724258426,-2.96979469560708,-1.81182730876697,,-5.7997657765941355,,
,1808.0,415.0,1495.0,355.0,2020.0,3005.0,1576.0,,,,-1.59508266022098,-2.96999814116477,-1.81093749332062,,-6.451006720344739,,
,1809.0,414.0,1494.0,356.0,2015.0,3009.0,1593.0,,,,-1.59574755092779,-2.96998210077123,-1.81188889162846,,-7.011586473184505,,
,1810.0,413.0,1493.0,355.0,2027.0,3017.0,1579.0,,,,-1.59541670557678,-2.97007795928177,-1.81147461876447,,-7.487873533217641,,
,1811.0,415.0,1496.0,356.0,2021.0,3014.0,1576.0,,,,-1.59692346472744,-2.9696593368593,-1.81123260710349,,-7.8873338054360485,,
,1809.0,414.0,1493.0,356.0,2040.0,3026.0,1584.0,,,,-1.59514463818282,-2.97012319499434,-1.81156609191847,,-8.21742039047461,,
,1810.0,415.0,1495.0,357.0,2034.0,3030.0,1572.0,,,,-1.59577650393717,-2.96999539589635,-1.81134289560891,,-8.484575494735651,,
,1809.0,412.0,1494.0,355.0,2043.0,3023.0,1574.0,,,,-1.59566633395114,-2.96993576921749,-1.81084521982161,,-8.693434626792538,,
,1810.0,413.0,1494.0,357.0,2052.0,3022.0,1575.0,,,,-1.59543713424955,-2.97007415645454,-1.81145833885649,,-8.846304045682515,,
,1805.0,414.0,1493.0,355.0,2033.0,3023.0,1572.0,,,,-1.59520725450948,-2.97011210762038,-1.81132361789343,,-8.942955730020442,,
,1804.0,415.0,1491.0,357.0,2037.0,3032.0,1575.0,,,,-1.59519506468438,-2.96991237582499,-1.81188949466535,,-8.980751610394098,,
,1799.0,413.0,1489.0,351.0,2025.0,3022.0,1583.0,,,,-1.59566467205025,-2.96978189707175,-1.81106608455756,,-8.955073941578636,,
,1796.0,412.0,1487.0,354.0,2032.0,3029.0,1575.0,,,,-1.5956203299099,-2.9697951324319,-1.81136792773858,,-8.860006209835772,,
,1795.0,411.0,1485.0,353.0,2020.0,3006.0,1578.0,,,,-1.59463035636939,-2.96982750718812,-1.81206466912969,,-8.689183203931693,,
,1792.0,409.0,1482.0,353.0,2024.0,3014.0,1590.0,,,,-1.59474023290712,-2.97011489681504,-1.81144157355346,,-8.436712694896807,,
,1791.0,410.0,1482.0,353.0,2000.0,3012.0,1596.0,,,,-1.59509989938447,-2.96996305427921,-1.81127976676407,,-8.09806621200052,,
,1786.0,409.0,1478.0,350.0,1992.0,3007.0,1585.0,,,,-1.59364831104601,-2.9701902458042,-1.81205503010551,,-7.670843489503162,,
,1785.0,407.0,1475.0,350.0,2008.0,3008.0,1582.0,,,,-1.59401230746538,-2.97000974179819,-1.8114912635007,,-7.155333761907028,,
,1784.0,409.0,1474.0,351.0,2000.0,2996.0,1575.0,,,,-1.59296705874008,-2.9697161834735,-1.81081426027495,,-6.554824534287044,,
,1780.0,408.0,1470.0,349.0,1992.0,2993.0,1587.0,,,,-1.59206045330721,-2.97002137232465,-1.81083697351518,,-5.875640191113883,,
,1777.0,405.0,1469.0,349.0,2000.0,3012.0,1596.0,,,,-1.59300410296834,-2.96975236344811,-1.81167056191356,,-5.1269237577425,,
,1778.0,407.0,1465.0,346.0,2002.0,3022.0,1580.0,,,,-1.59128462635738,-2.97006807466732,-1.81115220465917,,-4.320201038321146,,
,1778.0,408.0,1466.0,349.0,2026.0,3022.0,1588.0,,,,-1.59145651663572,-2.96971002089218,-1.81089357193388,,-3.4687842644123843,,
,1777.0,405.0,1462.0,348.0,2030.0,3022.0,1591.0,,,,-1.59089477162094,-2.97009992553748,-1.8102061205544,,-2.587080621467786,,
,1776.0,406.0,1462.0,347.0,2029.0,3017.0,1588.0,,,,-1.59111007894341,-2.96997886296162,-1.81167370924089,,-1.6898695242987376,,
,1777.0,406.0,1461.0,345.0,2021.0,3018.0,1571.0,,,,-1.5905825191335,-2.97003348640347,-1.81096867865115,,-0.7916034584834012,,
,1777.0,408.0,1463.0,347.0,2033.0,3025.0,1569.0,,,,-1.58936800767984,-2.96999096288848,-1.81213208470563,,0.09422550940879476,,
,1778.0,406.0,1463.0,349.0,2031.0,3017.0,1570.0,,,,-1.5889008101361,-2.97009882678689,-1.81079225489329,,0.9556241203943363,,
,1777.0,405.0,1459.0,347.0,2024.0,3017.0,1577.0,,,,-1.58859814919307,-2.96965106336883,-1.81102660058629,,1.782522401752543,,
,1776.0,405.0,1462.0,346.0,2011.0,3018.0,1570.0,,,,-1.58921672894105,-2.97005881813148,-1.8113280242786,,2.5670734143125533,,
,1777.0,405.0,1459.0,348.0,2040.0,3013.0,1565.0,,,,-1.58804462307331,-2.96980331802003,-1.81096334453323,,3.303822675108435,,
,1776.0,406.0,1461.0,348.0,2033.0,3017.0,1559.0,,,,-1.58816434310543,-2.96975689973317,-1.81077234639133,,3.9897443804703285,,
,1779.0,403.0,1460.0,346.0,2023.0,3016.0,1565.0,,,,-1.58903999524312,-2.96945668350382,-1.81139663216922,,4.624142852417477,,
,1776.0,404.0,1457.0,346.0,2034.0,3012.0,1567.0,,,,-1.5879226245297,-2.96961588012668,-1.81140750989808,,5.208419357068811,,
,1776.0,403.0,1461.0,346.0,2021.0,3027.0,1571.0,,,,-1.58774061655404,-2.9695536084262,-1.81040166055996,,5.745708345888795,,
,1777.0,406.0,1461.0,348.0,2013.0,3027.0,1560.0,,,,-1.58773679097918,-2.96967714081084,-1.81177105463625,,6.240394033183734,,
,1779.0,405.0,1460.0,347.0,2025.0,3024.0,1575.0,,,,-1.58812455684031,-2.96986041976775,-1.81072737382671,,6.6975277208304425,,
,1778.0,404.0,1463.0,346.0,2027.0,3025.0,1571.0,,,,-1.58808030355015,-2.96974860780018,-1.81131011292636,,7.122177384706552,,
,1780.0,405.0,1461.0,346.0,2032.0,3026.0,1566.0,,,,-1.58711423336095,-2.96972242967806,-1.81139146571415,,7.518752222721495,,
,1777.0,404.0,1460.0,346.0,2014.0,3026.0,1569.0,,,,-1.58656251242197,-2.96982096572658,-1.81056806232871,,7.890353967246369,,
,1779.0,407.0,1464.0,348.0,2006.0,3026.0,1567.0,,,,-1.5870056675083,-2.969919471302,-1.81056647977164,,8.23821132047309,,
,1778.0,405.0,1461.0,347.0,2016.0,3023.0,1578.0,,,,-1.58690959601893,-2.96999346898306,-1.81089484746408,,8.561252301402629,,
,1780.0,405.0,1463.0,349.0,2015.0,3028.0,1595.0,,,,-1.58604565918597,-2.96961466122629,-1.81066358359738,,8.855861681112668,,
,1776.0,407.0,1462.0,346.0,2009.0,3016.0,1587.0,,,,-1.5855424718048,-2.96972820006778,-1.81088670322073,,9.115858030154724,,
,1779.0,406.0,1462.0,349.0,2028.0,3021.0,1594.0,,,,-1.58555184300245,-2.96961560765333,-1.81086288263812,,9.332707889107315,,
,1778.0,405.0,1462.0,350.0,2033.0,3025.0,1597.0,,,,-1.58588110927927,-2.96990597393647,-1.81012653347578,,9.495973572030326,,
,1778.0,407.0,1460.0,347.0,2031.0,3024.0,1591.0,,,,-1.58528011079,-2.97003615505923,-1.81094959905911,,9.59396747244314,,
,1775.0,403.0,1462.0,347.0,2008.0,3017.0,1596.0,,,,-1.5855051694056,-2.96991243117101,-1.80935302569322,,9.614562743855801,,
,1776.0,405.0,1460.0,348.0,2004.0,3017.0,1603.0,,,,-1.58550687480498,-2.97008932147509,-1.81015778653142,,9.546092331825225,,
,1779.0,408.0,1461.0,348.0,1997.0,3022.0,1599.0,,,,-1.58454794059276,-2.96991651444556,-1.81023089301016,,9.378259092493796,,
,1779.0,407.0,1461.0,347.0,2004.0,3023.0,1596.0,,,,-1.58387060585784,-2.96972790615617,-1.81030318575602,,9.10298020565815,,
,1778.0,406.0,1460.0,346.0,2008.0,3028.0,1586.0,,,,-1.58326674522383,-2.96980600007672,-1.8099456671886,,8.715098005556484,,
,1778.0,405.0,1459.0,345.0,2019.0,3031.0,1597.0,,,,-1.58271609795125,-2.96952177400064,-1.80974789829026,,8.212904269783552,,
,1781.0,404.0,1462.0,347.0,2017.0,3021.0,1584.0,,,,-1.58264565893608,-2.96981994879523,-1.81020853299499,,7.5984431918962425,,
,1779.0,409.0,1461.0,348.0,2017.0,3022.0,1579.0,,,,-1.58221923131653,-2.96981602294902,-1.8103847277262,,6.877577190154596,,
,1781.0,408.0,1460.0,348.0,2022.0,3015.0,1582.0,,,,-1.58187664000421,-2.96976549338546,-1.80953937425483,,6.059817741096716,,
,1776.0,405.0,1459.0,343.0,2018.0,3019.0,1572.0,,,,-1.58161964654817,-2.96969710327716,-1.80919601892531,,5.15794016645942,,
,1778.0,406.0,1459.0,347.0,2019.0,3019.0,1575.0,,,,-1.58044353627304,-2.96957591875646,-1.8104209327891,,4.1874166627417395,,
,1779.0,407.0,1462.0,350.0,2008.0,3021.0,1566.0,,,,-1.58120231470158,-2.96983944983655,-1.80958077011485,,3.1657147441805944,,
,1779.0,406.0,1460.0,348.0,2003.0,3018.0,1569.0,,,,-1.58093748163948,-2.96959692686,-1.80892739647655,,2.111516455520843,,
,1780.0,405.0,1459.0,346.0,2014.0,3009.0,1579.0,,,,-1.58047567721921,-2.96943092699698,-1.80928787523952,,1.0439152597460475,,
,1783.0,406.0,1461.0,347.0,2024.0,3022.0,1570.0,,,,-1.58149985238288,-2.96992420337404,-1.80972661853088,,-0.018357686091363935,,
,1781.0,405.0,1461.0,350.0,2033.0,3012.0,1566.0,,,,-1.58268596717256,-2.96946211260096,-1.80975588408862,,-1.0576360260022797,,
,1784.0,407.0,1462.0,348.0,2029.0,3009.0,1568.0,,,,-1.58492579783748,-2.96980923308129,-1.81090663277554,,-2.057919105252925,,
,1782.0,409.0,1462.0,349.0,1989.0,3013.0,1564.0,,,,-1.58727951948027,-2.96945757647422,-1.81125142051747,,-3.005351417267737,,
,1783.0,407.0,1461.0,348.0,2005.0,3011.0,1569.0,,,,-1.58876549456513,-2.96984731676113,-1.81169271875837,,-3.8885688959864964,,
,1784.0,406.0,1462.0,349.0,2020.0,3014.0,1575.0,,,,-1.59069454438923,-2.96959500018919,-1.81222215198953,,-4.698905762313431,,
,1785.0,409.0,1463.0,350.0,2044.0,3023.0,1593.0,,,,-1.59151228885429,-2.96962550774236,-1.81196878414649,,-5.430458705307681,,
,1788.0,409.0,1464.0,350.0,2047.0,3027.0,1595.0,,,,-1.59378378700018,-2.96967304994892,-1.81215629264633,,-6.080007333810856,,
,1785.0,410.0,1463.0,348.0,2035.0,3030.0,1571.0,,,,-1.59464054985651,-2.96938819721517,-1.81276502834693,,-6.6467932482627,,
,1784.0,408.0,1462.0,348.0,2027.0,3029.0,1572.0,,,,-1.59700573907718,-2.9696604682267,-1.81276116715325,,-7.132166430616866,,
,1790.0,410.0,1467.0,350.0,2040.0,3024.0,1580.0,,,,-1.59754347532924,-2.9697337677292,-1.81276669585539,,-7.5391169644380325,,
,1789.0,408.0,1465.0,353.0,2035.0,3023.0,1572.0,,,,-1.59867080680083,-2.96967550730892,-1.81204140172296,,-7.871720962275793,,
,1789.0,410.0,1466.0,350.0,2047.0,3028.0,1571.0,,,,-1.59766344343653,-2.96986242895768,-1.81242094611513,,-8.134540163051375,,
,1789.0,406.0,1463.0,346.0,2012.0,3015.0,1570.0,,,,-1.59859038109459,-2.96972464021853,-1.81241029243827,,-8.33202332319387,,
,1790.0,410.0,1469.0,353.0,2020.0,3013.0,1577.0,,,,-1.59767573391035,-2.96953097659097,-1.81224159957873,,-8.467962713511042,,
,1793.0,410.0,1467.0,352.0,2008.0,3023.0,1577.0,,,,-1.59715754692382,-2.96997449028329,-1.81191127630013,,-8.545059220773844,,
,1792.0,409.0,1465.0,350.0,2013.0,3025.0,1578.0,,,,-1.59696680722544,-2.96978152927395,-1.81274782071348,,-8.564643618002446,,
,1792.0,409.0,1465.0,349.0,2025.0,3025.0,1604.0,,,,-1.5964506365065,-2.96963896276804,-1.81223472619758,,-8.52658932529771,,
,1794.0,410.0,1469.0,352.0,2037.0,3023.0,1586.0,,,,-1.59469335336974,-2.96982210217021,-1.81210014452083,,-8.429434316643402,,
,1796.0,411.0,1470.0,353.0,2039.0,3029.0,1588.0,,,,-1.59363153429109,-2.97003587579109,-1.81193376732422,,-8.270708345098333,,
,1797.0,411.0,1471.0,352.0,2026.0,3032.0,1577.0,,,,-1.59270775399398,-2.96986763106463,-1.81136029466805,,-8.0474382514582,,
,1795.0,408.0,1469.0,351.0,2011.0,3024.0,1572.0,,,,-1.59231129927376,-2.97008002289639,-1.81133249788228,,-7.756780977912129,,
,1796.0,410.0,1468.0,351.0,2028.0,3027.0,1571.0,,,,-1.59077367432127,-2.96980005466645,-1.81166833348241,,-7.396714073902573,,
,1797.0,410.0,1467.0,353.0,2022.0,3031.0,1574.0,,,,-1.59059856941996,-2.96971080188993,-1.81160570681379,,-6.966700994762739,,
,1799.0,413.0,1472.0,355.0,2025.0,3030.0,1575.0,,,,-1.59086812283769,-2.9696611749819,-1.81106217437528,,-6.468247055424557,,
,1797.0,410.0,1472.0,352.0,2017.0,3041.0,1583.0,,,,-1.5891294481763,-2.96990640998559,-1.81007662219856,,-5.905272812370644,,
,1797.0,411.0,1469.0,352.0,2027.0,3031.0,1574.0,,,,-1.5889588385433,-2.96980529773453,-1.81120066615266,,-5.284252980416473,,
,1801.0,413.0,1473.0,354.0,2034.0,3020.0,1571.0,,,,-1.58853646974414,-2.96959769417944,-1.81088357619036,,-4.614096725412474,,
,1800.0,412.0,1472.0,354.0,2009.0,3019.0,1593.0,,,,-1.5878057665537,-2.97004807427767,-1.81016397495559,,-3.905775004459093,,
,1802.0,413.0,1473.0,354.0,2004.0,3022.0,1595.0,,,,-1.58757382834624,-2.96976026322147,-1.81085901937169,,-3.1717289053572157,,
,1802.0,412.0,1472.0,353.0,2004.0,3030.0,1598.0,,,,-1.58716193761065,-2.96982786092643,-1.81084763253886,,-2.425116634525979,,
,1803.0,414.0,1473.0,354.0,2012.0,3018.0,1584.0,,,,-1.58744109357128,-2.96983327935453,-1.81110123580413,,-1.6789734068086237,,
,1804.0,414.0,1476.0,359.0,2018.0,3019.0,1579.0,,,,-1.58856275927865,-2.96955151096949,-1.81087428771734,,-0.9453663701598755,,
,1806.0,413.0,1475.0,356.0,2021.0,3017.0,1583.0,,,,-1.58664922949885,-2.96970060664436,-1.81056470450573,,-0.23462549929778045,,
,1805.0,414.0,1475.0,354.0,2004.0,3019.0,1584.0,,,,-1.5871414817291,-2.97001253705265,-1.81073755930343,,0.4452780592736309,,
,1804.0,413.0,1474.0,354.0,2017.0,3023.0,1584.0,,,,-1.58683369716494,-2.9696735646841,-1.81085503548699,,1.0891508613629144,,
,1806.0,413.0,1478.0,357.0,1999.0,3013.0,1588.0,,,,-1.58658281430102,-2.96962590309179,-1.81068346439963,,1.694758639901459,,
,1809.0,415.0,1478.0,357.0,2010.0,3026.0,1568.0,,,,-1.58686182612851,-2.96974704735582,-1.8103427398227,,2.262758085034014,,
,1808.0,416.0,1478.0,356.0,2016.0,3024.0,1567.0,,,,-1.58722777298214,-2.96958861441357,-1.81103707930066,,2.796387289297987,,
,1809.0,412.0,1477.0,354.0,2024.0,3019.0,1567.0,,,,-1.58708182899317,-2.9697232251212,-1.81027966168052,,3.300940065850966,,
,1809.0,413.0,1476.0,353.0,2015.0,3010.0,1586.0,,,,-1.58713161485494,-2.96965875701671,-1.81072802435225,,3.7830623701898443,,
,1812.0,416.0,1479.0,358.0,2007.0,3007.0,1596.0,,,,-1.58709311299276,-2.96977582032322,-1.81017786834389,,4.249919523399237,,
,1812.0,415.0,1476.0,358.0,2000.0,3004.0,1595.0,,,,-1.58782697262647,-2.96993884312038,-1.81097806550822,,4.708291648851323,,
,1810.0,418.0,1479.0,355.0,1994.0,3024.0,1602.0,,,,-1.58752959759881,-2.97001188695755,-1.81169705851697,,5.163661269561784,,
,1810.0,414.0,1479.0,355.0,2006.0,3027.0,1590.0,,,,-1.586959586649,-2.9699892524357,-1.81025776105437,,5.619360438310088,,
,1814.0,415.0,1479.0,356.0,2026.0,3026.0,1582.0,,,,-1.58705481184817,-2.96995824996904,-1.81099834262702,,6.0758445011153945,,
,1811.0,414.0,1477.0,356.0,2034.0,3026.0,1578.0,,,,-1.58682760025088,-2.96993984959805,-1.81100300872622,,6.530155323247843,,
,1808.0,414.0,1477.0,357.0,2039.0,3027.0,1582.0,,,,-1.58679630759865,-2.97001004290685,-1.81000357753381,,6.9756281428321385,,
2025-06-30 18:28:13,1804.0,413.0,1475.0,354.0,2036.0,3040.0,1583.0,,,2025/06/30 06:28:13 PM,-1.58602223984833,-2.96987656681475,-1.81078516516431,,7.401882906487019,,
,1802.0,414.0,1473.0,355.0,2021.0,3030.0,1578.0,,,,-1.5855505592703,-2.96960803809162,-1.81001204172246,,7.7951233922437675,,
,1801.0,412.0,1471.0,353.0,2013.0,3021.0,1579.0,,,,-1.58583744800117,-2.96984252448403,-1.8104210887134,,8.138746690127569,,
,1799.0,412.0,1473.0,357.0,2021.0,3024.0,1593.0,,,,-1.58538250399437,-2.97003140683721,-1.80989474045526,,8.41424274268853,,
,1795.0,409.0,1466.0,354.0,2009.0,3010.0,1600.0,,,,-1.58487030188487,-2.96970208585542,-1.81040773080329,,8.602339233152533,,
,1794.0,410.0,1466.0,351.0,2004.0,3016.0,1602.0,,,,-1.5843230117114,-2.96992411722088,-1.80954390193574,,8.684321906215395,,
,1790.0,408.0,1463.0,351.0,1995.0,2997.0,1593.0,,,,-1.58395858828921,-2.97006873850416,-1.81009955924982,,8.643436732764538,,
,1788.0,410.0,1461.0,351.0,2011.0,3002.0,1598.0,,,,-1.5832154708881,-2.96989944552189,-1.80987129231302,,8.466262392102802,,
,1786.0,409.0,1460.0,351.0,2000.0,2994.0,1584.0,,,,-1.58333136282076,-2.97007327989275,-1.81006692823197,,8.143933832811976,,
,1781.0,407.0,1452.0,348.0,2015.0,3016.0,1586.0,,,,-1.58242498879096,-2.97006970666098,-1.80995095732433,,7.673102893650937,,
,1783.0,406.0,1450.0,348.0,2007.0,3008.0,1586.0,,,,-1.5815251908698,-2.97001738843755,-1.80942911906776,,7.056540312425815,,
,1782.0,407.0,1454.0,350.0,2022.0,3009.0,1580.0,,,,-1.58038073574802,-2.97015101532189,-1.80949528771023,,6.303313177681222,,
,1781.0,409.0,1452.0,348.0,2033.0,3013.0,1567.0,,,,-1.58025225084375,-2.97010555434551,-1.80934106279975,,5.428509989518841,,
,1779.0,406.0,1447.0,346.0,2028.0,3011.0,1580.0,,,,-1.57938316199762,-2.97017741010963,-1.80893720299097,,4.452527888873397,,
,1780.0,405.0,1447.0,346.0,2034.0,3006.0,1580.0,,,,-1.5790018117858,-2.97012681069363,-1.80896679389471,,3.3999781431460536,,
,1779.0,407.0,1449.0,348.0,2046.0,3018.0,1567.0,,,,-1.57831949469058,-2.96986284118379,-1.80898849624748,,2.2983012004872387,,
,1778.0,406.0,1444.0,348.0,2042.0,3021.0,1579.0,,,,-1.5783042353693,-2.97003783161544,-1.80864014259148,,1.1762071883597665,,
,1778.0,405.0,1445.0,345.0,2040.0,3023.0,1563.0,,,,-1.57759680585268,-2.97020303370794,-1.80878415079449,,0.06206946129548876,,
,1777.0,405.0,1444.0,347.0,2044.0,3023.0,1558.0,,,,-1.57699508258099,-2.96984669291935,-1.80876221321394,,-1.0176022614798081,,
,1778.0,406.0,1444.0,348.0,2025.0,3007.0,1553.0,,,,-1.57689740713081,-2.96997549387322,-1.80875584756069,,-2.039495085113042,,
,1780.0,407.0,1444.0,349.0,2002.0,3018.0,1560.0,,,,-1.5769177006235,-2.97013174486739,-1.80883219288205,,-2.98454015738853,,
,1781.0,405.0,1444.0,348.0,2008.0,3022.0,1551.0,,,,-1.57618155101227,-2.96996981988245,-1.80844917490721,,-3.8386100223053825,,
,1780.0,403.0,1443.0,347.0,2028.0,3029.0,1553.0,,,,-1.57626687777537,-2.969750801654,-1.80882498362745,,-4.592833941586749,,
,1777.0,404.0,1443.0,345.0,2033.0,3027.0,1559.0,,,,-1.57531017238141,-2.97006364594786,-1.80847591060009,,-5.243530853543982,,
,1781.0,407.0,1445.0,346.0,2027.0,3030.0,1566.0,,,,-1.5746185340628,-2.97002479484779,-1.80889205541931,,-5.791789081093362,,
,1781.0,404.0,1445.0,347.0,2020.0,3033.0,1568.0,,,,-1.57473277582501,-2.97011798555338,-1.80772217541591,,-6.242747132862668,,
,1781.0,405.0,1446.0,349.0,2024.0,3027.0,1561.0,,,,-1.57440941879892,-2.9699023073715,-1.80869017644741,,-6.604649551331154,,
,1779.0,406.0,1443.0,344.0,2001.0,3024.0,1570.0,,,,-1.57441309580307,-2.96980509292337,-1.80808807174636,,-6.887764730714959,,
,1781.0,407.0,1445.0,347.0,2024.0,3027.0,1568.0,,,,-1.57355630851608,-2.97016220128295,-1.80875599815073,,-7.103257525228817,,
,1784.0,408.0,1446.0,348.0,2022.0,3022.0,1571.0,,,,-1.57411213718463,-2.97012711502315,-1.80855174269801,,-7.262108461183279,,
,1784.0,406.0,1445.0,346.0,2026.0,3016.0,1584.0,,,,-1.57448225615422,-2.97011246634658,-1.80748873841206,,-7.374163913558588,,
,1781.0,405.0,1445.0,345.0,2050.0,3022.0,1586.0,,,,-1.57375815091049,-2.97038091174196,-1.8087390105758,,-7.447388156896295,,
,1780.0,407.0,1444.0,348.0,2038.0,3017.0,1581.0,,,,-1.57325030424293,-2.97013391011182,-1.80853598788469,,-7.487369143269007,,
,1781.0,405.0,1445.0,347.0,2030.0,3024.0,1580.0,,,,-1.57310506279095,-2.97007461336305,-1.80868132311757,,-7.497105784056425,,
,1782.0,407.0,1446.0,347.0,2025.0,3023.0,1576.0,,,,-1.57263274088146,-2.97023630967534,-1.80867582339893,,-7.477076813687347,,
,1781.0,409.0,1446.0,345.0,2024.0,2996.0,1576.0,,,,-1.57288392135133,-2.97010494582018,-1.8080307909965,,-7.425562912058868,,
,1784.0,405.0,1446.0,346.0,2030.0,3019.0,1577.0,,,,-1.57102091749316,-2.96989381641372,-1.80838051041447,,-7.339168924802337,,
,1782.0,409.0,1445.0,348.0,2030.0,3026.0,1578.0,,,,-1.57160116657702,-2.97022285213868,-1.80836610259286,,-7.213475791019447,,
,1784.0,407.0,1445.0,346.0,2006.0,3009.0,1585.0,,,,-1.57192782466863,-2.97010287928158,-1.80826410960475,,-7.043744267385698,,
,1781.0,404.0,1446.0,346.0,2012.0,3000.0,1579.0,,,,-1.57116757435481,-2.97017888098891,-1.80833927888845,,-6.825594643799114,,
,1780.0,403.0,1444.0,346.0,2009.0,3004.0,1591.0,,,,-1.57133662313138,-2.97000101768477,-1.80806688752557,,-6.555597153531627,,
,1780.0,404.0,1444.0,346.0,2013.0,3011.0,1599.0,,,,-1.56978528412708,-2.97017047586392,-1.80800825676291,,-6.231725028077947,,
,1782.0,406.0,1440.0,345.0,2013.0,3005.0,1612.0,,,,-1.56997951186765,-2.97027417059135,-1.80822154449938,,-5.853643765946565,,
,1779.0,405.0,1444.0,347.0,1998.0,3018.0,1598.0,,,,-1.57040157390123,-2.96989960327417,-1.80769611961472,,-5.422832851896928,,
,1782.0,407.0,1443.0,347.0,2032.0,3012.0,1578.0,,,,-1.57000150656103,-2.96997074148117,-1.8080293011664,,-4.942556217103876,,
,1782.0,405.0,1442.0,346.0,2047.0,3020.0,1576.0,,,,-1.56999746235264,-2.96986050219985,-1.80801859238849,,-4.41771215636424,,
,1781.0,406.0,1444.0,346.0,2049.0,3020.0,1568.0,,,,-1.56905750586723,-2.97000236442843,-1.80754906572627,,-3.854600387576416,,
,1784.0,406.0,1442.0,347.0,2027.0,3018.0,1567.0,,,,-1.5709394784901,-2.97016909249984,-1.80812173936048,,-3.260642932914419,,
,1783.0,408.0,1445.0,347.0,2014.0,3016.0,1566.0,,,,-1.57187723281196,-2.9699345553985,-1.8080244229124,,-2.644087409370013,,
,1782.0,406.0,1443.0,345.0,2043.0,3016.0,1565.0,,,,-1.57447082057807,-2.96969659239106,-1.80871256604549,,-2.013708556843816,,
,1786.0,407.0,1444.0,347.0,2035.0,3009.0,1568.0,,,,-1.5772247427054,-2.97006558375201,-1.80926598406269,,-1.3785102694925755,,
,1785.0,407.0,1441.0,347.0,2033.0,3017.0,1564.0,,,,-1.57878301722903,-2.97009355036326,-1.80956277464389,,-0.747420593442084,,
,1786.0,408.0,1445.0,348.0,2027.0,3015.0,1562.0,,,,-1.57974225885072,-2.97006303694871,-1.80888493437318,,-0.1289696258654792,,
,1784.0,405.0,1444.0,345.0,2035.0,3016.0,1572.0,,,,-1.58103268196906,-2.97041284369148,-1.81002905592262,,0.4690543781605887,,
,1786.0,405.0,1443.0,348.0,2044.0,3007.0,1592.0,,,,-1.58376351781189,-2.9701502964131,-1.80925565040826,,1.0399645514389313,,
,1785.0,406.0,1442.0,349.0,2062.0,3021.0,1582.0,,,,-1.58477417268263,-2.9703773737247,-1.80974020199581,,1.5785319428626157,,
,1786.0,407.0,1444.0,347.0,2070.0,3018.0,1582.0,,,,-1.58571204014405,-2.97054612467611,-1.81014675085953,,2.0813093830494567,,
,1787.0,405.0,1443.0,349.0,2045.0,3014.0,1566.0,,,,-1.58726447521826,-2.97065475364673,-1.81001404862604,,2.546885829082606,,
,1785.0,404.0,1442.0,346.0,2036.0,3019.0,1567.0,,,,-1.58729693038414,-2.9706238967497,-1.80995242222874,,2.976032334831194,,
,1789.0,410.0,1445.0,347.0,2040.0,3013.0,1569.0,,,,-1.5874987980867,-2.97051133452839,-1.8093200667591,,3.3717047973421694,,
,1790.0,408.0,1445.0,349.0,2056.0,3015.0,1568.0,,,,-1.58823426816526,-2.97054965234702,-1.80982726741149,,3.7388784433956577,,
,1790.0,409.0,1447.0,350.0,2045.0,3016.0,1572.0,,,,-1.5873485508249,-2.9705211223946,-1.81063785748315,,4.084203403109669,,
,1790.0,407.0,1448.0,349.0,2030.0,3011.0,1562.0,,,,-1.58789824723318,-2.97057927346373,-1.80905638809655,,4.415487775985606,,
,1790.0,407.0,1444.0,348.0,2031.0,3003.0,1565.0,,,,-1.58709757457413,-2.97050652848457,-1.80947539276679,,4.741032335569205,,
,1792.0,410.0,1450.0,350.0,2050.0,3015.0,1566.0,,,,-1.58623798444891,-2.97046574087989,-1.80914425218025,,5.068857616315669,,
,1792.0,408.0,1447.0,349.0,2053.0,3014.0,1567.0,,,,-1.58536705112337,-2.97058291325302,-1.80949716286629,,5.405877779943916,,
,1789.0,408.0,1449.0,350.0,2053.0,2993.0,1589.0,,,,-1.58526269416604,-2.97079402693722,-1.80862116976288,,5.757084575605427,,
,1792.0,406.0,1447.0,348.0,2030.0,3009.0,1579.0,,,,-1.58358808285712,-2.97074146314864,-1.80859909700159,,6.124807820574762,,
,1795.0,411.0,1448.0,352.0,2045.0,3007.0,1558.0,,,,-1.58358890266283,-2.97042894186972,-1.80902862704262,,6.5081165421112805,,
,1794.0,411.0,1450.0,350.0,2055.0,3025.0,1556.0,,,,-1.58205171287883,-2.97085596519442,-1.80840153003214,,6.902418539925445,,
,1794.0,409.0,1451.0,350.0,2058.0,3022.0,1556.0,,,,-1.58231134221155,-2.97049166013037,-1.80842988527417,,7.299306328466535,,
,1795.0,407.0,1449.0,350.0,2059.0,3024.0,1570.0,,,,-1.58088474716477,-2.97071108879678,-1.80816094874487,,7.686683655791073,,
,1795.0,409.0,1449.0,350.0,2055.0,3025.0,1568.0,,,,-1.58073167860184,-2.97065133206859,-1.80859934845071,,8.049188375825658,,
,1797.0,409.0,1453.0,352.0,2036.0,3019.0,1564.0,,,,-1.5805978910195,-2.97061195655129,-1.80791811941952,,8.368904979530928,,
,1799.0,411.0,1452.0,350.0,2036.0,3010.0,1562.0,,,,-1.57997047334351,-2.97049723889243,-1.80809486740068,,8.626335689486933,,
,1797.0,408.0,1450.0,351.0,2021.0,3020.0,1553.0,,,,-1.57933916603495,-2.97043177267774,-1.80808804486939,,8.801575201703217,,
,1799.0,410.0,1453.0,351.0,2035.0,3024.0,1559.0,,,,-1.57945202721505,-2.9704635576651,-1.80904700830454,,8.875612798769188,,
,1798.0,412.0,1454.0,351.0,2043.0,3022.0,1562.0,,,,-1.57939861955908,-2.97042801302967,-1.80908845915855,,8.831668090056016,,
,1799.0,410.0,1455.0,350.0,2037.0,3020.0,1570.0,,,,-1.57927051126976,-2.97069729854231,-1.8083760102315,,8.65645496096534,,
,1801.0,414.0,1455.0,352.0,2040.0,3023.0,1564.0,,,,-1.57883196244675,-2.97072050688843,-1.8077357669552,,8.341265306684756,,
,1800.0,410.0,1454.0,353.0,2055.0,3019.0,1571.0,,,,-1.57886418860771,-2.9705154544169,-1.80790802532451,,7.882772816923586,,
,1803.0,412.0,1454.0,351.0,2055.0,3020.0,1558.0,,,,-1.5785785984687,-2.97059210033535,-1.80806783025405,,7.283478737192092,,
,1800.0,410.0,1458.0,353.0,2054.0,3025.0,1577.0,,,,-1.57910697822769,-2.97024874490959,-1.80868686842929,,6.5517542734760745,,
,1804.0,412.0,1454.0,355.0,2061.0,3020.0,1577.0,,,,-1.57932013459942,-2.97030726202893,-1.80803690188926,,5.701473527705068,,
,1803.0,412.0,1456.0,353.0,2051.0,3030.0,1572.0,,,,-1.57997032269999,-2.97038172855563,-1.80851129003988,,4.751270756627796,,
,1804.0,411.0,1457.0,351.0,2043.0,3011.0,1572.0,,,,-1.58014031100688,-2.97053957102092,-1.80891847052101,,3.7234906518021416,,
,1806.0,411.0,1457.0,353.0,2046.0,3013.0,1571.0,,,,-1.58001054868285,-2.97044684156573,-1.80807254461139,,2.6429257196792153,,
,1806.0,411.0,1458.0,351.0,2069.0,3015.0,1567.0,,,,-1.58086617898993,-2.97076030083797,-1.80846441232646,,1.5354483651564006,,
,1805.0,410.0,1457.0,354.0,2067.0,3016.0,1571.0,,,,-1.58067551949661,-2.97076094251225,-1.8080707441765,,0.42664711828843466,,
,1806.0,411.0,1456.0,352.0,2046.0,3012.0,1571.0,,,,-1.58119137657239,-2.97038832163224,-1.80785413892635,,-0.6594317435083634,,
,1808.0,412.0,1459.0,352.0,2067.0,3014.0,1557.0,,,,-1.58054697292342,-2.97054379942493,-1.80840436662356,,-1.7013524002376523,,
,1809.0,412.0,1459.0,354.0,2071.0,3026.0,1569.0,,,,-1.58138815732423,-2.97041633275172,-1.8085471506121,,-2.6811058703501,,
,1808.0,413.0,1460.0,353.0,2074.0,3033.0,1574.0,,,,-1.58143845632106,-2.97043115914522,-1.80807655818713,,-3.58464003984171,,
,1805.0,410.0,1457.0,354.0,2056.0,3032.0,1563.0,,,,-1.58106305561196,-2.97041831647663,-1.80845389290711,,-4.402095750675509,,
,1802.0,411.0,1456.0,354.0,2041.0,3035.0,1571.0,,,,-1.58100977151603,-2.97041147858339,-1.80900011209319,,-5.127763718660037,,
,1802.0,411.0,1456.0,354.0,2043.0,3027.0,1569.0,,,,-1.58121596064577,-2.97010639879295,-1.80840233574305,,-5.759792347892426,,
,1798.0,410.0,1453.0,351.0,2043.0,3023.0,1583.0,,,,-1.58169788595748,-2.97028721969551,-1.80894835547799,,-6.299685399518102,,
,1794.0,409.0,1452.0,351.0,2036.0,3005.0,1597.0,,,,-1.58189472652043,-2.97032370790466,-1.8085069889547,,-6.751633962704186,,
,1791.0,407.0,1449.0,347.0,2033.0,3013.0,1596.0,,,,-1.58172710881154,-2.97049437714496,-1.80877700785327,,-7.1217322073338405,,
,1792.0,408.0,1450.0,350.0,2003.0,3014.0,1600.0,,,,-1.58064202739097,-2.97037292494981,-1.80834965983917,,-7.41713184553608,,
,1786.0,407.0,1445.0,349.0,2016.0,2999.0,1578.0,,,,-1.58058165313599,-2.97065469222177,-1.80824673102794,,-7.645194952828761,,
,1784.0,409.0,1443.0,349.0,2021.0,2994.0,1572.0,,,,-1.58013431322212,-2.97061111562242,-1.80802565335262,,-7.812707046234546,,
,1781.0,405.0,1443.0,347.0,2033.0,3005.0,1586.0,,,,-1.57932017458323,-2.97087349762443,-1.80768404429416,,-7.925210752232925,,
,1779.0,405.0,1440.0,347.0,2030.0,2992.0,1580.0,,,,-1.57936544446358,-2.97048871415566,-1.8073305727542,,-7.98651421547722,,
,1778.0,406.0,1437.0,345.0,2051.0,3017.0,1580.0,,,,-1.57908103650264,-2.97064589939232,-1.80793174993015,,-7.9984171166017495,,
,1778.0,403.0,1435.0,343.0,2045.0,3021.0,1585.0,,,,-1.57845630998124,-2.9708184532821,-1.80890830961739,,-7.960680735408748,,
,1774.0,403.0,1433.0,345.0,2042.0,3017.0,1578.0,,,,-1.57837975654713,-2.97045231641404,-1.80773752564534,,-7.871247687882583,,
,1771.0,401.0,1429.0,343.0,2060.0,3011.0,1576.0,,,,-1.57748860045244,-2.9707355277485,-1.80835599276975,,-7.726693535905228,,
,1772.0,404.0,1432.0,345.0,2051.0,3008.0,1568.0,,,,-1.5769181519673,-2.9707389187587,-1.80731341387096,,-7.522868798464431,,
,1773.0,403.0,1428.0,344.0,2056.0,3016.0,1568.0,,,,-1.57632238736326,-2.97061869187994,-1.80838995515772,,-7.25566840833085,,
,1772.0,403.0,1429.0,345.0,2074.0,3019.0,1571.0,,,,-1.57680120451432,-2.97060499212487,-1.80815445770052,,-6.921848618389622,,
,1771.0,401.0,1429.0,343.0,2069.0,3021.0,1568.0,,,,-1.57680425331861,-2.97047051486863,-1.80724794410949,,-6.51980126351713,,
,1771.0,404.0,1427.0,344.0,2067.0,3024.0,1545.0,,,,-1.576203889524,-2.97073345319854,-1.80777919984956,,-6.050195065885176,,
,1773.0,404.0,1429.0,343.0,2057.0,3022.0,1534.0,,,,-1.57631506037931,-2.97045308503618,-1.80813435440871,,-5.516405578940646,,
,1773.0,402.0,1428.0,343.0,2055.0,3023.0,1542.0,,,,-1.576517584193,-2.97061501723302,-1.80783682991563,,-4.924678975956221,,
,1773.0,403.0,1429.0,341.0,2084.0,3027.0,1545.0,,,,-1.57571174087953,-2.97049742154586,-1.80851348579621,,-4.2840064180188335,,
,1771.0,403.0,1424.0,341.0,2065.0,3023.0,1549.0,,,,-1.57630797898086,-2.97036550287002,-1.80792186503849,,-3.605719546010463,,
,1773.0,404.0,1430.0,345.0,2063.0,3026.0,1543.0,,,,-1.5753514602161,-2.97042310602398,-1.80690022427798,,-2.9028484769333067,,
,1771.0,404.0,1426.0,342.0,2063.0,3030.0,1550.0,,,,-1.57562854856922,-2.97027672799158,-1.80806328819482,,-2.1893079080183746,,
,1772.0,404.0,1426.0,342.0,2058.0,3022.0,1534.0,,,,-1.57586883483841,-2.97069347843611,-1.80814310800032,,-1.4789926030846754,,
,1771.0,404.0,1426.0,341.0,2068.0,3019.0,1555.0,,,,-1.57532411225725,-2.97055984151728,-1.80790909406449,,-0.7848700814248418,,
,1773.0,404.0,1429.0,341.0,2058.0,3011.0,1563.0,,,,-1.57469956162985,-2.97033691561466,-1.80772291471658,,-0.11815615356404345,,
,1775.0,403.0,1429.0,346.0,2063.0,3013.0,1558.0,,,,-1.57454555522138,-2.97061190453752,-1.80855689740284,,0.5123510453969646,,
,1775.0,406.0,1432.0,344.0,2047.0,3009.0,1572.0,,,,-1.57438597249074,-2.97034555577258,-1.80914066520091,,1.1007196856940848,,
,1773.0,402.0,1429.0,345.0,2060.0,3011.0,1571.0,,,,-1.57469298947559,-2.97012970165843,-1.80793855639271,,1.6440791627490685,,
,1773.0,403.0,1428.0,343.0,2073.0,3018.0,1560.0,,,,-1.57441368624578,-2.97011658453838,-1.80818938320456,,2.1425510284943994,,
,1775.0,403.0,1432.0,345.0,2053.0,3018.0,1560.0,,,,-1.57389266315721,-2.97031587781668,-1.80768365027613,,2.5989319123876085,,
,1775.0,403.0,1430.0,342.0,2054.0,3021.0,1562.0,,,,-1.57489622990427,-2.97030418855828,-1.80843005393158,,3.0181667821442146,,
2025-06-30 18:28:14,1773.0,402.0,1431.0,343.0,2062.0,3019.0,1568.0,,,2025/06/30 06:28:14 PM,-1.57497742483528,-2.97040239419397,-1.80801850984895,,3.4066668145776617,,
,1774.0,401.0,1430.0,343.0,2063.0,3026.0,1564.0,,,,-1.57439051586943,-2.97036786069088,-1.80810193406877,,3.771535447107553,,
,1773.0,405.0,1429.0,345.0,2051.0,3010.0,1572.0,,,,-1.57466982900159,-2.97050694842649,-1.80806334063272,,4.119769746217504,,
,1772.0,405.0,1432.0,344.0,2055.0,3014.0,1577.0,,,,-1.5747798038132,-2.97024653586402,-1.80917353284596,,4.457502257308311,,
,1772.0,403.0,1431.0,344.0,2048.0,3012.0,1593.0,,,,-1.57541201918052,-2.97021059352834,-1.80809314484704,,4.789340445996328,,
,1771.0,401.0,1430.0,340.0,2048.0,3010.0,1579.0,,,,-1.57540305759884,-2.97035453087729,-1.80931327444057,,5.117846863292281,,
,1772.0,401.0,1429.0,341.0,2028.0,3005.0,1567.0,,,,-1.57563279418018,-2.97028614194265,-1.80851986775586,,5.443185308063216,,
,1774.0,404.0,1430.0,342.0,2048.0,3012.0,1562.0,,,,-1.5746104063694,-2.97015534016105,-1.80885379521288,,5.762940162267298,,
