TimeLabel,MEAS1_PPG1,MEAS1_PPG2,MEAS1_PPG3,MEAS1_PPG4,ACCX,ACCY,ACCZ,HR_timestamp,HR_value,radar_timestamp,phase_rx0,phase_rx1,phase_rx2,timestep,n_process,original_rate,calculated_rate
2025-06-30 18:00:50,5763.0,595.0,3857.0,653.0,-158.0,1898.0,3489.0,2025-06-30 18:00:50,85.0,2025/06/30 06:00:50 PM,2.14966132014679,-2.90749914093607,-1.51881919926029,2025/06/30 06:00:50 PM,-2.9595189406872238,19.55990219116211,20.011305822498596
,5767.0,594.0,3859.0,654.0,-160.0,1900.0,3488.0,2025-06-30 18:00:51,85.0,,2.15035953280963,-2.90729323653645,-1.51840566646743,2025/06/30 06:01:00 PM,-2.9739834107554235,19.56521797180176,19.303482587064675
,5769.0,592.0,3861.0,654.0,-148.0,1900.0,3493.0,2025-06-30 18:00:52,85.0,,2.15049174321284,-2.90686292171887,-1.51970414836154,2025/06/30 06:01:10 PM,-2.9684837199020158,19.50867080688477,18.536796536796537
,5774.0,594.0,3864.0,654.0,-154.0,1894.0,3481.0,2025-06-30 18:00:53,85.0,,2.15145686661614,-2.90763849946652,-1.5182230214129,2025/06/30 06:01:20 PM,-2.9364584715493307,19.135364532470703,19.025845035350166
,5777.0,594.0,3865.0,655.0,-160.0,1891.0,3469.0,2025-06-30 18:00:54,85.0,,2.15221741554265,-2.90737043733435,-1.51900246181602,2025/06/30 06:01:30 PM,-2.8714164397868305,18.897636413574215,21.433128275233543
,5777.0,596.0,3869.0,657.0,-159.0,1888.0,3458.0,2025-06-30 18:00:55,85.0,,2.15191934385667,-2.90731805433619,-1.5189372139003,2025/06/30 06:01:40 PM,-2.7675351518483104,19.751279830932617,21.919191919191928
,5781.0,594.0,3868.0,657.0,-157.0,1881.0,3493.0,2025-06-30 18:00:56,85.0,,2.15332121390493,-2.9070340698868,-1.5189800682741,2025/06/30 06:01:50 PM,-2.620182796395529,20.785219192504883,21.21693121693122
,5781.0,595.0,3866.0,657.0,-165.0,1877.0,3493.0,2025-06-30 18:00:57,84.0,,2.15343517102694,-2.90606687461586,-1.51961849205769,2025/06/30 06:02:00 PM,-2.426310133855929,21.723388671875,21.20480245707104
,5785.0,594.0,3865.0,656.0,-169.0,1875.0,3478.0,2025-06-30 18:00:58,84.0,,2.15336501885289,-2.9060367730544,-1.51836402278995,2025/06/30 06:02:10 PM,-2.184677858574853,22.01467704772949,18.20170854411418
,5785.0,595.0,3864.0,654.0,-155.0,1860.0,3496.0,2025-06-30 18:00:59,84.0,,2.15424258146813,-2.90613605734507,-1.51925719070381,2025/06/30 06:02:20 PM,-1.8959075202661686,20.47781562805176,19.166666666666654
,5784.0,594.0,3859.0,656.0,-162.0,1887.0,3494.0,2025-06-30 18:01:00,84.0,,2.15406765016735,-2.9059226607903,-1.5188987270203,2025/06/30 06:02:30 PM,-1.5623677325734513,19.36872291564941,21.31077534759824
,5782.0,596.0,3856.0,653.0,-166.0,1886.0,3492.0,2025-06-30 18:01:01,84.0,,2.15464601803067,-2.9057234263655,-1.51927857423357,2025/06/30 06:02:40 PM,-1.1879288134240467,19.50867080688477,21.982578824684072
,5776.0,591.0,3849.0,653.0,-163.0,1869.0,3498.0,2025-06-30 18:01:02,84.0,,2.15399807659176,-2.90547479682568,-1.51932090780949,2025/06/30 06:02:50 PM,-0.7776350724929331,20.68965530395508,20.341905318527154
,5770.0,592.0,3841.0,651.0,-155.0,1866.0,3493.0,2025-06-30 18:01:03,84.0,,2.1553391420068,-2.90552776024461,-1.52002711142107,2025/06/30 06:03:00 PM,-0.3373521425701377,21.33712577819824,20.57276446522501
,5764.0,590.0,3833.0,650.0,-155.0,1884.0,3472.0,2025-06-30 18:01:04,84.0,,2.15524229727235,-2.9055779746163,-1.51928487530525,2025/06/30 06:03:10 PM,0.12655447914117168,20.862308502197266,21.829208527321732
,5757.0,590.0,3828.0,650.0,-151.0,1884.0,3477.0,2025-06-30 18:01:05,84.0,,2.15580699069082,-2.90607605790487,-1.51822672647514,2025/06/30 06:03:20 PM,0.6074643731994799,20.833332061767575,20.74270557029178
,5745.0,586.0,3820.0,644.0,-156.0,1871.0,3512.0,2025-06-30 18:01:06,84.0,,2.15660510168772,-2.90589502239372,-1.51932786702966,2025/06/30 06:03:30 PM,1.098644358502517,20.964361190795895,22.859216255442668
,5736.0,584.0,3814.0,645.0,-157.0,1872.0,3496.0,2025-06-30 18:01:07,85.0,,2.15818773545027,-2.90507439330284,-1.51920290815162,2025/06/30 06:03:40 PM,1.5932853966206417,22.029373168945312,22.330855727082145
,5729.0,584.0,3807.0,646.0,-159.0,1886.0,3510.0,2025-06-30 18:01:08,85.0,,2.15663451691123,-2.90508751624988,-1.51850045758918,,2.0844551058492984,,
,5721.0,583.0,3802.0,645.0,-147.0,1884.0,3493.0,2025-06-30 18:01:09,85.0,,2.15784557016212,-2.90504633905736,-1.51948995755062,,2.565004112499013,,
,5715.0,583.0,3798.0,643.0,-147.0,1877.0,3474.0,2025-06-30 18:01:10,84.0,,2.15793261642227,-2.90500695306689,-1.5192628450637,,3.0274723162398165,,
,5706.0,579.0,3792.0,639.0,-159.0,1869.0,3475.0,2025-06-30 18:01:11,84.0,,2.1586857789673,-2.90428387564103,-1.51972539915566,,3.4640393049173785,,
,5704.0,580.0,3790.0,644.0,-151.0,1893.0,3479.0,2025-06-30 18:01:12,84.0,,2.15898022437503,-2.90463356045895,-1.51924684988735,,3.866553932444089,,
,5702.0,581.0,3786.0,643.0,-150.0,1908.0,3461.0,2025-06-30 18:01:13,83.0,,2.15867236244714,-2.90361474338726,-1.51876578621881,,4.226664346567132,,
,5695.0,578.0,3787.0,643.0,-159.0,1901.0,3467.0,2025-06-30 18:01:14,83.0,,2.15813703934686,-2.9047437392386,-1.51900357627864,,4.536053834492759,,
,5694.0,579.0,3787.0,643.0,-154.0,1901.0,3492.0,2025-06-30 18:01:15,83.0,,2.15838774436014,-2.90427079365272,-1.51930916817847,,4.786771511303692,,
,5692.0,577.0,3786.0,639.0,-151.0,1882.0,3498.0,2025-06-30 18:01:16,83.0,,2.15794698078199,-2.90497445715977,-1.51926649565273,,4.97163174060876,,
,5690.0,578.0,3784.0,641.0,-161.0,1879.0,3495.0,2025-06-30 18:01:17,84.0,,2.157900937957,-2.90495360174435,-1.5187688407535,,5.084643979793307,,
,5691.0,581.0,3786.0,642.0,-162.0,1878.0,3493.0,2025-06-30 18:01:18,84.0,,2.15722318379644,-2.90530379480617,-1.51939010929066,,5.121427303381788,,
,5686.0,579.0,3783.0,643.0,-163.0,1874.0,3486.0,2025-06-30 18:01:19,84.0,,2.15791604995346,-2.90540270835567,-1.51966583122261,,5.0795628582252945,,
,5686.0,578.0,3783.0,642.0,-160.0,1881.0,3486.0,2025-06-30 18:01:20,83.0,,2.15850470853179,-2.90469352620771,-1.51994880960078,,4.958843926859717,,
,5690.0,580.0,3785.0,645.0,-152.0,1888.0,3494.0,2025-06-30 18:01:21,83.0,,2.15767565842487,-2.90513764029277,-1.51876421578696,,4.761396495585802,,
,5689.0,579.0,3785.0,645.0,-149.0,1876.0,3476.0,2025-06-30 18:01:22,83.0,,2.15825178783784,-2.9049938235529,-1.51970308886109,,4.491660324233768,,
,5689.0,579.0,3787.0,641.0,-147.0,1873.0,3481.0,2025-06-30 18:01:23,83.0,,2.15745607630866,-2.90555022302458,-1.51814434628518,,4.1562369789352935,,
,5689.0,579.0,3787.0,641.0,-159.0,1874.0,3503.0,2025-06-30 18:01:24,84.0,,2.15777181587262,-2.90529796613471,-1.5200619471801,,3.763623277808474,,
,5695.0,579.0,3789.0,642.0,-157.0,1874.0,3476.0,2025-06-30 18:01:25,84.0,,2.15867847839031,-2.90549873098975,-1.51821332296458,,3.323854932984871,,
,5692.0,579.0,3791.0,643.0,-156.0,1874.0,3484.0,2025-06-30 18:01:26,85.0,,2.15869195463836,-2.90496679216405,-1.5190685906096,,2.8480871303133286,,
,5692.0,580.0,3789.0,643.0,-158.0,1872.0,3485.0,2025-06-30 18:01:27,85.0,,2.15840732066928,-2.90467841656731,-1.51933583157384,,2.3481383213934945,,
,5696.0,579.0,3789.0,642.0,-152.0,1887.0,3485.0,2025-06-30 18:01:28,85.0,,2.1585473675945,-2.90393114749953,-1.52019934176766,,1.836021847470673,,
,5697.0,580.0,3790.0,642.0,-145.0,1890.0,3503.0,2025-06-30 18:01:29,84.0,,2.15984070455015,-2.90462581793522,-1.51939961244492,,1.3234875491979785,,
,5698.0,578.0,3794.0,641.0,-168.0,1888.0,3488.0,2025-06-30 18:01:30,84.0,,2.1601570979852,-2.90419448594203,-1.51934009943328,,0.8215922964526652,,
,5699.0,579.0,3790.0,645.0,-162.0,1885.0,3484.0,2025-06-30 18:01:31,84.0,,2.16058902680742,-2.90416393257705,-1.51883396386542,,0.3403146546454148,,
,5701.0,580.0,3793.0,643.0,-158.0,1884.0,3489.0,2025-06-30 18:01:32,84.0,,2.16179843857931,-2.90424440245054,-1.52046962067242,,-0.11177458950536322,,
,5701.0,580.0,3792.0,644.0,-161.0,1883.0,3486.0,2025-06-30 18:01:33,84.0,,2.16181504519257,-2.90398600288807,-1.51906008130099,,-0.5277765398441334,,
,5702.0,580.0,3795.0,646.0,-171.0,1872.0,3480.0,2025-06-30 18:01:34,84.0,,2.16310825836938,-2.90354911033704,-1.51934129516488,,-0.9026537056093104,,
,5704.0,581.0,3796.0,643.0,-167.0,1862.0,3486.0,2025-06-30 18:01:35,84.0,,2.16297833967922,-2.90389289572963,-1.51893584729919,,-1.233334640504415,,
,5703.0,580.0,3794.0,644.0,-159.0,1867.0,3487.0,2025-06-30 18:01:36,84.0,,2.16365962553747,-2.90311411385857,-1.51941398317071,,-1.518723291531346,,
,5701.0,578.0,3792.0,642.0,-154.0,1880.0,3470.0,2025-06-30 18:01:37,84.0,,2.16402662708902,-2.90322726501869,-1.51968886464085,,-1.7596059920794973,,
,5704.0,581.0,3794.0,643.0,-161.0,1880.0,3479.0,2025-06-30 18:01:38,84.0,,2.16454594533861,-2.90348172799829,-1.51993178631346,,-1.9584567515542972,,
,5706.0,582.0,3794.0,645.0,-160.0,1891.0,3467.0,2025-06-30 18:01:39,84.0,,2.16475717819218,-2.90299630531055,-1.52056578467309,,-2.1191519207105816,,
,5703.0,579.0,3794.0,644.0,-161.0,1886.0,3478.0,2025-06-30 18:01:40,84.0,,2.16521701997662,-2.90227989379914,-1.51905127468219,,-2.2466154654730675,,
,5704.0,578.0,3793.0,644.0,-165.0,1885.0,3491.0,2025-06-30 18:01:41,84.0,,2.16548515149713,-2.9027275973083,-1.52051147694881,,-2.3464234708114216,,
,5704.0,580.0,3791.0,644.0,-161.0,1888.0,3491.0,2025-06-30 18:01:42,84.0,,2.16671740053891,-2.90293528738753,-1.51941377727884,,-2.424399930066276,,
,5706.0,577.0,3793.0,645.0,-154.0,1868.0,3493.0,2025-06-30 18:01:43,84.0,,2.16637172353299,-2.90223941713566,-1.5196346519499,,-2.4862353214897874,,
,5708.0,581.0,3794.0,645.0,-153.0,1873.0,3500.0,2025-06-30 18:01:44,84.0,,2.16753211298031,-2.90210950633299,-1.51983153480023,,-2.5371556465807417,,
,5705.0,577.0,3793.0,642.0,-164.0,1884.0,3516.0,2025-06-30 18:01:45,84.0,,2.16698241071165,-2.90221968222219,-1.51987870106963,,-2.5816634881440437,,
,5708.0,578.0,3794.0,644.0,-169.0,1879.0,3501.0,2025-06-30 18:01:46,84.0,,2.16747793965352,-2.90215946412092,-1.51868924376807,,-2.623364963764975,,
,5710.0,581.0,3793.0,643.0,-160.0,1895.0,3475.0,2025-06-30 18:01:47,84.0,,2.16873855034488,-2.90139921074161,-1.51995590967403,,-2.6648873944445555,,
,5709.0,580.0,3795.0,646.0,-167.0,1886.0,3496.0,2025-06-30 18:01:48,83.0,,2.16868807348165,-2.90103182428989,-1.5201453923027,,-2.707882086787755,,
,5713.0,580.0,3797.0,644.0,-154.0,1881.0,3496.0,2025-06-30 18:01:49,83.0,,2.16932050163468,-2.90144632794027,-1.51984046828496,,-2.753095554896149,,
,5712.0,577.0,3797.0,643.0,-156.0,1884.0,3501.0,2025-06-30 18:01:50,83.0,,2.16983694438355,-2.90130744477384,-1.52062809976863,,-2.800482960902073,,
,5715.0,580.0,3797.0,646.0,-153.0,1884.0,3511.0,2025-06-30 18:01:51,83.0,,2.16967407698917,-2.9012206031772,-1.52004701223572,,-2.849332746210412,,
,5714.0,580.0,3800.0,647.0,-159.0,1900.0,3480.0,2025-06-30 18:01:52,83.0,,2.16975100492169,-2.90125457955747,-1.52044774271675,,-2.8983737426657776,,
,5717.0,580.0,3799.0,646.0,-165.0,1899.0,3476.0,2025-06-30 18:01:53,83.0,,2.17040196612964,-2.90116808713528,-1.52117849119548,,-2.945845256171535,,
,5719.0,580.0,3800.0,646.0,-178.0,1902.0,3470.0,2025-06-30 18:01:54,83.0,,2.17109378601524,-2.90068041553032,-1.519999569289,,-2.9895239411763432,,
,5718.0,581.0,3801.0,644.0,-157.0,1899.0,3493.0,2025-06-30 18:01:55,83.0,,2.17099257007846,-2.90101658902835,-1.51992052966288,,-3.026715124220904,,
,5722.0,580.0,3805.0,645.0,-140.0,1906.0,3481.0,2025-06-30 18:01:56,83.0,,2.17131346570599,-2.90142609654627,-1.5191443815714,,-3.054227629823283,,
,5722.0,580.0,3804.0,646.0,-135.0,1899.0,3481.0,2025-06-30 18:01:57,83.0,,2.17247645521751,-2.90024975526511,-1.52122848966045,,-3.068358233362096,,
,5724.0,580.0,3802.0,646.0,-155.0,1883.0,3477.0,2025-06-30 18:01:58,83.0,,2.17331461970964,-2.90072925958841,-1.52082981752006,,-3.0649136699818813,,
,5729.0,581.0,3804.0,644.0,-152.0,1889.0,3480.0,2025-06-30 18:01:59,83.0,,2.17323706816532,-2.90030853990079,-1.5216197146328,,-3.0392945456958005,,
,5730.0,582.0,3807.0,646.0,-162.0,1904.0,3480.0,2025-06-30 18:02:00,83.0,,2.17366188185088,-2.89990330700013,-1.5199593782221,,-2.986657114838394,,
,5731.0,580.0,3808.0,647.0,-170.0,1890.0,3476.0,2025-06-30 18:02:01,82.0,,2.17338859344342,-2.8996515918426,-1.52147449042585,,-2.90215670555438,,
,5735.0,582.0,3811.0,648.0,-181.0,1887.0,3481.0,2025-06-30 18:02:02,82.0,,2.17377080013008,-2.89928536316496,-1.52085713736203,,-2.7812617828088566,,
,5736.0,582.0,3812.0,645.0,-168.0,1887.0,3507.0,2025-06-30 18:02:03,82.0,,2.17404866883134,-2.90066934024001,-1.52043097732774,,-2.6201118924210665,,
,5741.0,583.0,3814.0,646.0,-170.0,1875.0,3503.0,2025-06-30 18:02:04,82.0,,2.17497998127917,-2.89900049457017,-1.52035988430679,,-2.415878783723986,,
,5743.0,584.0,3817.0,648.0,-156.0,1876.0,3519.0,2025-06-30 18:02:05,82.0,,2.17494645090929,-2.9002239354295,-1.52096608711229,,-2.1670818190550505,,
,5745.0,585.0,3816.0,650.0,-160.0,1877.0,3520.0,2025-06-30 18:02:06,82.0,,2.17618804392683,-2.89939862725277,-1.52067731563562,,-1.873810177039808,,
,5747.0,583.0,3818.0,648.0,-157.0,1881.0,3480.0,2025-06-30 18:02:07,82.0,,2.17572156922774,-2.89983692492198,-1.52060075974808,,-1.5378166998500669,,
,5752.0,585.0,3821.0,649.0,-169.0,1872.0,3479.0,2025-06-30 18:02:08,82.0,,2.17460669962427,-2.89997538845032,-1.51925833124435,,-1.162468963915252,,
,5753.0,586.0,3821.0,650.0,-156.0,1874.0,3481.0,2025-06-30 18:02:09,82.0,,2.17264108859585,-2.9007642791372,-1.52008356916045,,-0.7525667920452862,,
,5757.0,583.0,3825.0,650.0,-163.0,1876.0,3474.0,2025-06-30 18:02:10,82.0,,2.16824351827234,-2.90084046071181,-1.51945831851352,,-0.3140562301128134,,
,5761.0,586.0,3826.0,650.0,-163.0,1873.0,3498.0,2025-06-30 18:02:11,82.0,,2.16615604000978,-2.90315791755469,-1.52075428864246,,0.14631588012079724,,
,5763.0,585.0,3828.0,651.0,-165.0,1884.0,3494.0,2025-06-30 18:02:12,82.0,,2.16220158859637,-2.90419648237863,-1.51913928318195,,0.6213566465138526,,
,5767.0,587.0,3830.0,650.0,-147.0,1891.0,3506.0,2025-06-30 18:02:13,82.0,,2.15951960073565,-2.9046743909048,-1.51941021482041,,1.1037429615731456,,
,5770.0,584.0,3832.0,655.0,-153.0,1890.0,3497.0,2025-06-30 18:02:14,82.0,,2.15851398228276,-2.90552187884262,-1.51949759427819,,1.5862586566513983,,
,5772.0,585.0,3834.0,654.0,-159.0,1890.0,3480.0,2025-06-30 18:02:15,82.0,,2.15615478182694,-2.90591872867948,-1.51866843322629,,2.061926974531063,,
,5772.0,585.0,3835.0,650.0,-161.0,1895.0,3489.0,2025-06-30 18:02:16,82.0,,2.15370064924125,-2.90655434678416,-1.51848428624882,,2.5240303129208796,,
,5777.0,585.0,3838.0,652.0,-164.0,1871.0,3492.0,2025-06-30 18:02:17,82.0,,2.15272039501768,-2.90676792829066,-1.5186263347342,,2.966029884541434,,
,5779.0,587.0,3840.0,652.0,-172.0,1886.0,3462.0,2025-06-30 18:02:18,81.0,,2.15123170170028,-2.90676841619234,-1.51882908158155,,3.3814187388319996,,
,5786.0,586.0,3838.0,653.0,-169.0,1895.0,3469.0,2025-06-30 18:02:19,81.0,,2.1505007342849,-2.90740904555535,-1.51862920472019,,3.763558305235109,,
,5786.0,588.0,3842.0,655.0,-151.0,1899.0,3505.0,2025-06-30 18:02:20,81.0,,2.15008244559464,-2.90735347861122,-1.51924356728512,,4.105556546406636,,
,5787.0,589.0,3847.0,652.0,-162.0,1898.0,3491.0,2025-06-30 18:02:21,81.0,,2.15086584790255,-2.90732820500931,-1.51889944375589,,4.400241968154384,,
,5793.0,589.0,3848.0,654.0,-159.0,1902.0,3485.0,2025-06-30 18:02:22,81.0,,2.14996958933114,-2.90724840671303,-1.51904443211216,,4.640272570325566,,
,5795.0,590.0,3849.0,657.0,-153.0,1892.0,3506.0,2025-06-30 18:02:23,82.0,,2.15071102731446,-2.90699043920007,-1.51963649090367,,4.818395879395946,,
,5799.0,589.0,3852.0,654.0,-158.0,1877.0,3478.0,2025-06-30 18:02:24,82.0,,2.15106648921725,-2.90690116976035,-1.51910540538125,,4.9278501736434155,,
,5802.0,588.0,3853.0,655.0,-162.0,1897.0,3485.0,2025-06-30 18:02:25,83.0,,2.15211211825804,-2.90702932669006,-1.51860396940547,,4.96287203443009,,
,5803.0,590.0,3856.0,656.0,-159.0,1901.0,3485.0,2025-06-30 18:02:26,82.0,,2.15259626347464,-2.90700130943638,-1.51885459486852,,4.919254547276189,,
,5806.0,591.0,3856.0,656.0,-166.0,1892.0,3489.0,2025-06-30 18:02:27,82.0,,2.15320475165983,-2.90626431186989,-1.51871656769939,,4.794886280078667,,
,5812.0,591.0,3858.0,658.0,-165.0,1886.0,3496.0,2025-06-30 18:02:28,82.0,,2.1538164134498,-2.90642681525147,-1.51704081303172,,4.590195776723246,,
,5809.0,590.0,3854.0,653.0,-155.0,1884.0,3516.0,2025-06-30 18:02:29,82.0,,2.15290035258554,-2.9070147252657,-1.51841742174984,,4.308431699147202,,
,5814.0,592.0,3853.0,656.0,-158.0,1887.0,3490.0,2025-06-30 18:02:30,83.0,,2.15415954634563,-2.90682493079697,-1.51866877854592,,3.9557260529401335,,
,5812.0,591.0,3849.0,655.0,-163.0,1885.0,3466.0,2025-06-30 18:02:31,83.0,,2.15456224587472,-2.90559562522419,-1.51958627983904,,3.540916064928667,,
,5811.0,590.0,3848.0,654.0,-171.0,1889.0,3480.0,2025-06-30 18:02:32,83.0,,2.15544682804601,-2.90576460570518,-1.5189000286109,,3.0751347023659292,,
,5808.0,586.0,3841.0,652.0,-166.0,1893.0,3513.0,2025-06-30 18:02:33,83.0,,2.15552079793573,-2.90651146332976,-1.51921307321511,,2.5712129283184204,,
,5805.0,587.0,3835.0,651.0,-156.0,1876.0,3482.0,2025-06-30 18:02:34,83.0,,2.1560934252177,-2.90568646139931,-1.52032368285422,,2.042960752868835,,
,5800.0,589.0,3829.0,652.0,-167.0,1864.0,3494.0,2025-06-30 18:02:35,83.0,,2.15666110914435,-2.90534786953533,-1.51925560468606,,1.5044044566658519,,
,5792.0,582.0,3821.0,651.0,-167.0,1860.0,3486.0,2025-06-30 18:02:36,83.0,,2.15768466094111,-2.90543298319104,-1.51841806831735,,0.9690542608074578,,
,5785.0,584.0,3812.0,649.0,-160.0,1869.0,3499.0,2025-06-30 18:02:37,84.0,,2.15727750495481,-2.90536899522912,-1.51869871964257,,0.4492637285567553,,
,5776.0,578.0,3803.0,647.0,-162.0,1866.0,3503.0,2025-06-30 18:02:38,84.0,,2.15771553701257,-2.90503674569058,-1.51900323409088,,-0.04427632884426681,,
,5768.0,580.0,3797.0,647.0,-169.0,1878.0,3504.0,2025-06-30 18:02:39,84.0,,2.15856733857231,-2.90464209279972,-1.51925904888821,,-0.5028870468743082,,
,5763.0,578.0,3792.0,643.0,-154.0,1883.0,3509.0,2025-06-30 18:02:40,84.0,,2.15875790014324,-2.90474443448473,-1.51852226909028,,-0.9200909029558708,,
,5755.0,577.0,3789.0,645.0,-159.0,1880.0,3496.0,2025-06-30 18:02:41,84.0,,2.15930378751204,-2.9054744827073,-1.51950003509486,,-1.2916549292395219,,
,5749.0,577.0,3784.0,643.0,-160.0,1889.0,3483.0,2025-06-30 18:02:42,84.0,,2.15883314962824,-2.9043236708803,-1.51947183083384,,-1.6155132930447935,,
,5744.0,575.0,3782.0,643.0,-170.0,1902.0,3458.0,2025-06-30 18:02:43,84.0,,2.15934587903716,-2.90459026303704,-1.51939398043913,,-1.8916009725851655,,
,5741.0,576.0,3780.0,644.0,-169.0,1890.0,3491.0,2025-06-30 18:02:44,84.0,,2.15970072957484,-2.9044749482547,-1.52031719064,,-2.12163001236163,,
,5735.0,576.0,3776.0,644.0,-178.0,1894.0,3512.0,2025-06-30 18:02:45,84.0,,2.15973368777018,-2.90459151715022,-1.51858352709356,,-2.3088334490671167,,
,5731.0,574.0,3772.0,641.0,-168.0,1877.0,3481.0,2025-06-30 18:02:46,84.0,,2.15951388522513,-2.90472670215534,-1.51937232513645,,-2.457691328581064,,
,5730.0,572.0,3770.0,642.0,-159.0,1876.0,3512.0,2025-06-30 18:02:47,84.0,,2.15896882740976,-2.90452946535312,-1.51924498310167,,-2.5736419089289195,,
,5728.0,574.0,3770.0,641.0,-163.0,1898.0,3511.0,2025-06-30 18:02:48,84.0,,2.15771841820899,-2.90567633254492,-1.51960388301666,,-2.6627733587325553,,
,5727.0,574.0,3769.0,642.0,-164.0,1889.0,3495.0,2025-06-30 18:02:49,84.0,,2.15914580270993,-2.90431949064558,-1.51915854719704,,-2.7314896902643664,,
,5727.0,575.0,3770.0,643.0,-177.0,1884.0,3515.0,2025-06-30 18:02:50,85.0,,2.15915107430264,-2.90444486355151,-1.52048629046239,,-2.786149163233212,,
,5724.0,572.0,3770.0,642.0,-163.0,1879.0,3502.0,2025-06-30 18:02:51,85.0,,2.15784738635276,-2.90457441959655,-1.51925595411608,,-2.8326816373875165,,
,5724.0,572.0,3771.0,642.0,-157.0,1870.0,3508.0,2025-06-30 18:02:52,85.0,,2.15833146690282,-2.9056645719972,-1.51955860585808,,-2.8762005608207737,,
,5725.0,571.0,3770.0,642.0,-164.0,1867.0,3497.0,2025-06-30 18:02:53,85.0,,2.15840479010493,-2.90522401863202,-1.51871501308111,,-2.9206333621483385,,
,5723.0,573.0,3768.0,642.0,-162.0,1859.0,3475.0,2025-06-30 18:02:54,85.0,,2.1585548453421,-2.90472324767465,-1.51920143674282,,-2.968399664528454,,
,5725.0,572.0,3768.0,643.0,-162.0,1872.0,3474.0,2025-06-30 18:02:55,85.0,,2.15810776750377,-2.90440743868958,-1.51961261860934,,-3.0201691692417745,,
,5725.0,571.0,3768.0,641.0,-162.0,1878.0,3481.0,2025-06-30 18:02:56,84.0,,2.15903115849473,-2.90525956997903,-1.51966151676229,,-3.0747297917441467,,
,5728.0,574.0,3770.0,642.0,-154.0,1878.0,3487.0,2025-06-30 18:02:57,84.0,,2.15954685416386,-2.90475013487934,-1.51919625511254,,-3.128991329185822,,
2025-06-30 18:00:51,5726.0,572.0,3769.0,645.0,-153.0,1877.0,3490.0,2025-06-30 18:02:58,84.0,2025/06/30 06:00:51 PM,2.15866025118694,-2.90487458263612,-1.51979283870958,,-3.1781402387618094,,
,5730.0,574.0,3772.0,641.0,-166.0,1877.0,3498.0,2025-06-30 18:02:59,84.0,,2.15864734780842,-2.90476639496055,-1.51898749988142,,-3.2159468676770793,,
,5728.0,571.0,3772.0,642.0,-155.0,1882.0,3498.0,2025-06-30 18:03:00,84.0,,2.15977823325699,-2.90434346390105,-1.51967385619698,,-3.2352085574837575,,
,5730.0,574.0,3773.0,643.0,-158.0,1885.0,3487.0,2025-06-30 18:03:01,85.0,,2.15976179563747,-2.90456626006155,-1.52037053708143,,-3.2282931682124127,,
,5732.0,573.0,3775.0,643.0,-155.0,1890.0,3476.0,2025-06-30 18:03:02,85.0,,2.15966603189474,-2.90493474156294,-1.51960207177607,,-3.1877320683751496,,
,5731.0,573.0,3773.0,643.0,-150.0,1894.0,3474.0,2025-06-30 18:03:03,85.0,,2.16069634209633,-2.90379584657328,-1.51950529936762,,-3.1068036129856074,,
,5733.0,574.0,3771.0,643.0,-150.0,1887.0,3468.0,2025-06-30 18:03:04,85.0,,2.16155374587001,-2.9040352017385,-1.52038783976912,,-2.980049366749172,,
,5736.0,573.0,3775.0,643.0,-153.0,1880.0,3489.0,2025-06-30 18:03:05,85.0,,2.16164673106926,-2.90359548410295,-1.52020071525061,,-2.803674914657257,,
,5737.0,573.0,3774.0,641.0,-158.0,1865.0,3461.0,2025-06-30 18:03:06,84.0,,2.1624355447503,-2.90465572602347,-1.51880307365889,,-2.575802722697844,,
,5737.0,572.0,3776.0,643.0,-147.0,1846.0,3472.0,2025-06-30 18:03:07,84.0,,2.16292420230114,-2.9040042736608,-1.51962989755924,,-2.2965637074217358,,
,5738.0,574.0,3777.0,642.0,-154.0,1859.0,3489.0,2025-06-30 18:03:08,84.0,,2.16239941834691,-2.90421927792224,-1.5196615104742,,-1.9680345467584202,,
,5738.0,573.0,3778.0,645.0,-159.0,1878.0,3472.0,2025-06-30 18:03:09,84.0,,2.16325519414903,-2.90373288617165,-1.52047748362875,,-1.5940466691099435,,
,5742.0,573.0,3778.0,645.0,-151.0,1879.0,3495.0,2025-06-30 18:03:10,84.0,,2.16381226270326,-2.90379090456551,-1.52015997400955,,-1.1799074587887128,,
,5744.0,576.0,3779.0,646.0,-154.0,1889.0,3488.0,2025-06-30 18:03:11,84.0,,2.16542390590293,-2.90371543951425,-1.51959163283237,,-0.7320819843911283,,
,5743.0,572.0,3775.0,643.0,-160.0,1880.0,3480.0,2025-06-30 18:03:12,84.0,,2.1658852406945,-2.90282334723416,-1.51996706449897,,-0.2578827930975978,,
,5746.0,570.0,3779.0,642.0,-161.0,1884.0,3496.0,2025-06-30 18:03:13,84.0,,2.16530096975313,-2.90279656014273,-1.51979362239879,,0.2347943374892649,,
,5744.0,576.0,3780.0,645.0,-151.0,1901.0,3498.0,2025-06-30 18:03:14,85.0,,2.16682862050328,-2.90289599121083,-1.52037303492833,,0.7376677252241368,,
,5745.0,574.0,3779.0,645.0,-155.0,1907.0,3501.0,2025-06-30 18:03:15,85.0,,2.16647658745417,-2.90316374718468,-1.51977424506593,,1.2421995122711125,,
,5744.0,571.0,3779.0,646.0,-166.0,1879.0,3493.0,2025-06-30 18:03:16,85.0,,2.16703883106213,-2.90282686759,-1.51974925592872,,1.7396753764408421,,
,5746.0,574.0,3781.0,642.0,-161.0,1883.0,3503.0,2025-06-30 18:03:17,85.0,,2.16760260907991,-2.90193773134928,-1.519647170919,,2.221263297657648,,
,5750.0,575.0,3781.0,645.0,-151.0,1878.0,3495.0,2025-06-30 18:03:18,86.0,,2.16801086399591,-2.90107750785122,-1.52045790442641,,2.6780832311887073,,
,5751.0,575.0,3782.0,646.0,-147.0,1870.0,3478.0,2025-06-30 18:03:19,86.0,,2.16779638843707,-2.90168799055821,-1.51913820682934,,3.1013146788065793,,
,5751.0,576.0,3782.0,646.0,-151.0,1875.0,3485.0,2025-06-30 18:03:20,86.0,,2.16908090471948,-2.90147164039442,-1.5196120807671,,3.4823592618821513,,
,5754.0,572.0,3781.0,645.0,-154.0,1882.0,3495.0,2025-06-30 18:03:21,87.0,,2.16887301125481,-2.90200344824697,-1.51947641351094,,3.8130630835936916,,
,5754.0,572.0,3786.0,645.0,-171.0,1879.0,3524.0,2025-06-30 18:03:22,87.0,,2.16939177707287,-2.90157926531757,-1.51952952895013,,4.085990928934249,,
,5758.0,573.0,3784.0,644.0,-170.0,1870.0,3519.0,2025-06-30 18:03:23,87.0,,2.17026719471274,-2.90186430032749,-1.52027695633441,,4.294732740262518,,
,5759.0,576.0,3788.0,645.0,-178.0,1874.0,3503.0,2025-06-30 18:03:24,87.0,,2.16857940450267,-2.90149224898154,-1.51949956344571,,4.434213673186315,,
,5761.0,575.0,3788.0,646.0,-150.0,1876.0,3499.0,2025-06-30 18:03:25,87.0,,2.17061731141892,-2.90112072114455,-1.52029174927798,,4.500973731080582,,
,5759.0,573.0,3787.0,645.0,-173.0,1883.0,3480.0,2025-06-30 18:03:26,87.0,,2.16989496954078,-2.90109909261797,-1.5198788688305,,4.493382899786806,,
,5764.0,576.0,3789.0,645.0,-163.0,1887.0,3488.0,2025-06-30 18:03:27,87.0,,2.17039524073264,-2.90114529506894,-1.5202864037373,,4.411763948406483,,
,5762.0,575.0,3791.0,647.0,-156.0,1884.0,3498.0,2025-06-30 18:03:28,87.0,,2.17170590456869,-2.90149570839297,-1.52043890656608,,4.258407442691503,,
,5768.0,578.0,3793.0,646.0,-154.0,1878.0,3507.0,2025-06-30 18:03:29,87.0,,2.17156027738715,-2.90055570581244,-1.52054853331726,,4.037479563703377,,
,5769.0,577.0,3794.0,646.0,-151.0,1896.0,3506.0,2025-06-30 18:03:30,87.0,,2.17247617120842,-2.90109909089383,-1.52005358559973,,3.754838486540882,,
,5773.0,576.0,3797.0,646.0,-142.0,1889.0,3491.0,2025-06-30 18:03:31,87.0,,2.17160747146102,-2.90120364437936,-1.51987497627251,,3.417784761600554,,
,5774.0,575.0,3797.0,645.0,-145.0,1871.0,3494.0,2025-06-30 18:03:32,87.0,,2.17082000733091,-2.9011358849267,-1.52019453275854,,3.0347732231422304,,
,5777.0,577.0,3800.0,647.0,-143.0,1870.0,3497.0,2025-06-30 18:03:33,88.0,,2.17140358813616,-2.90060675769955,-1.51910616972814,,2.6151095587232835,,
,5776.0,576.0,3801.0,647.0,-157.0,1867.0,3501.0,2025-06-30 18:03:34,88.0,,2.17227233119153,-2.90026139506581,-1.51959397694076,,2.168646896763792,,
,5781.0,579.0,3803.0,649.0,-154.0,1867.0,3484.0,2025-06-30 18:03:35,88.0,,2.17379776977519,-2.90044719452055,-1.52019749916137,,1.7054897519652565,,
,5783.0,579.0,3807.0,650.0,-162.0,1897.0,3467.0,2025-06-30 18:03:36,88.0,,2.17419140356673,-2.90074861928449,-1.52062200160723,,1.235706520335216,,
,5786.0,576.0,3805.0,650.0,-166.0,1900.0,3471.0,2025-06-30 18:03:37,88.0,,2.17468868030275,-2.89998220894203,-1.51976391034819,,0.7690483763358583,,
,5787.0,576.0,3808.0,651.0,-169.0,1890.0,3491.0,2025-06-30 18:03:38,88.0,,2.17398356032896,-2.90030295456576,-1.52007533426873,,0.3146719645359044,,
,5790.0,575.0,3810.0,650.0,-176.0,1890.0,3502.0,2025-06-30 18:03:39,88.0,,2.17532630731768,-2.89994786799001,-1.52010495137884,,-0.11913465956396056,,
,5797.0,577.0,3813.0,652.0,-159.0,1891.0,3471.0,2025-06-30 18:03:40,88.0,,2.17577583311295,-2.89965529491086,-1.52041741396366,,-0.5252191614250693,,
,5797.0,579.0,3814.0,651.0,-161.0,1888.0,3477.0,2025-06-30 18:03:41,87.0,,2.17417566963066,-2.89987786189337,-1.52085616351699,,-0.8978153549475387,,
,5801.0,580.0,3819.0,651.0,-162.0,1886.0,3473.0,2025-06-30 18:03:42,87.0,,2.17329448286187,-2.9002610602962,-1.52011259326551,,-1.2327598600675849,,
,5802.0,581.0,3818.0,652.0,-161.0,1880.0,3484.0,2025-06-30 18:03:43,87.0,,2.17216706004815,-2.90037713424306,-1.51983306115024,,-1.5276512092139325,,
,5805.0,580.0,3821.0,653.0,-160.0,1876.0,3513.0,2025-06-30 18:03:44,88.0,,2.1685250622026,-2.90232412518298,-1.51917443827313,,-1.7819242806496773,,
,5810.0,583.0,3824.0,654.0,-166.0,1889.0,3479.0,2025-06-30 18:03:45,88.0,,2.16528242387794,-2.90259377434544,-1.52019867018945,,-1.9968155085728618,,
,5812.0,584.0,3827.0,654.0,-166.0,1894.0,3491.0,2025-06-30 18:03:46,88.0,,2.16191570646318,-2.90410470865814,-1.51929640909136,,-2.1752033775698942,,
,5817.0,581.0,3827.0,653.0,-164.0,1885.0,3490.0,2025-06-30 18:03:47,88.0,,2.15871416888823,-2.90525275726098,-1.51967994062463,,-2.321322429512222,,
,5818.0,580.0,3827.0,652.0,-164.0,1890.0,3474.0,2025-06-30 18:03:48,87.0,,2.15786865240432,-2.90533345443971,-1.51866144732851,,-2.4403643551242786,,
,5821.0,582.0,3833.0,653.0,-151.0,1881.0,3493.0,2025-06-30 18:03:49,87.0,,2.15630399428692,-2.90563477560017,-1.51939388709921,,-2.5379939302669796,,
,5825.0,585.0,3835.0,656.0,-154.0,1886.0,3501.0,,,,2.15568007689189,-2.90629174499894,-1.51880916972065,,-2.619818706969676,,
,5828.0,583.0,3839.0,655.0,-171.0,1893.0,3498.0,,,,2.15386891540848,-2.90642257240272,-1.51944891826332,,-2.690858416646482,,
,5828.0,582.0,3838.0,654.0,-185.0,1878.0,3497.0,,,,2.15395446157103,-2.90740921841283,-1.51790395572254,,-2.755062508773542,,
,5836.0,584.0,3845.0,656.0,-169.0,1872.0,3494.0,,,,2.15210203948237,-2.90653960493589,-1.51781981070151,,-2.814922020270123,,
,5838.0,584.0,3841.0,655.0,-166.0,1864.0,3512.0,,,,2.15255458639483,-2.90782792098099,-1.51924623288158,,-2.871215024504654,,
,5842.0,584.0,3846.0,656.0,-161.0,1872.0,3511.0,,,,2.1530417347396,-2.90693958699221,-1.51869062868511,,-2.9229131691808585,,
,5844.0,584.0,3848.0,655.0,-161.0,1876.0,3495.0,,,,2.15312699655836,-2.9075263506267,-1.51849463741402,,-2.9672605240352508,,
,5846.0,586.0,3850.0,654.0,-157.0,1871.0,3476.0,,,,2.15376779587404,-2.90664331342757,-1.51883029472463,,-3.0000165277566744,,
,5850.0,584.0,3851.0,658.0,-149.0,1886.0,3485.0,,,,2.15238678069093,-2.90732469745768,-1.51895961875159,,-3.0158353664681075,,
,5855.0,587.0,3851.0,659.0,-143.0,1896.0,3498.0,,,,2.15305748877924,-2.90732346014081,-1.51876060410947,,-3.0087387529319347,,
,5854.0,584.0,3854.0,659.0,-156.0,1888.0,3492.0,,,,2.15367030994506,-2.90701337207585,-1.51786207269684,,-2.972630982481729,,
,5856.0,586.0,3857.0,658.0,-156.0,1883.0,3507.0,,,,2.15461442333152,-2.90612827659023,-1.51883448189412,,-2.901804915212904,,
,5863.0,587.0,3857.0,659.0,-157.0,1889.0,3496.0,,,,2.15517236024456,-2.9057521371709,-1.5189335384078,,-2.791393432342655,,
,5863.0,586.0,3855.0,660.0,-157.0,1892.0,3480.0,,,,2.15644682902423,-2.90634893942547,-1.5198531048486,,-2.6377305885441498,,
,5862.0,586.0,3852.0,659.0,-165.0,1896.0,3502.0,,,,2.15635110808329,-2.90563664545792,-1.52014157699521,,-2.4385985396717,,
,5861.0,582.0,3850.0,656.0,-153.0,1886.0,3505.0,,,,2.15663767313141,-2.90551821470515,-1.51908618209756,,-2.193349568739463,,
,5861.0,586.0,3847.0,657.0,-162.0,1876.0,3489.0,,,,2.1582670634392,-2.90557798140314,-1.51876728569318,,-1.902906509842959,,
,5862.0,586.0,3841.0,656.0,-154.0,1881.0,3499.0,,,,2.15820508537397,-2.90531430598326,-1.51936619540491,,-1.5696585409586328,,
,5855.0,584.0,3832.0,656.0,-149.0,1875.0,3501.0,,,,2.15989356443487,-2.9049339308204,-1.51775881415393,,-1.197280961363618,,
,5854.0,579.0,3826.0,651.0,-162.0,1861.0,3517.0,,,,2.15964278271642,-2.90473286191076,-1.51855748988468,,-0.7905148034622318,,
,5847.0,580.0,3823.0,652.0,-158.0,1869.0,3488.0,,,,2.1613097550661,-2.90499821560625,-1.51886884684294,,-0.3549426141338047,,
,5841.0,578.0,3814.0,649.0,-150.0,1863.0,3489.0,,,,2.15995496496624,-2.90434492450783,-1.51977687137708,,0.10321043434122155,,
,5833.0,577.0,3809.0,648.0,-154.0,1846.0,3498.0,,,,2.16173327036195,-2.90480917823228,-1.51874118131961,,0.5772340771266068,,
,5828.0,574.0,3802.0,647.0,-152.0,1869.0,3510.0,,,,2.16105001301056,-2.90368778589307,-1.51967252109535,,1.0600480179239693,,
,5816.0,573.0,3797.0,644.0,-153.0,1865.0,3500.0,,,,2.16246346780865,-2.90418525627361,-1.51922131463563,,1.5442853244793078,,
,5813.0,572.0,3794.0,645.0,-152.0,1885.0,3489.0,,,,2.16342169865244,-2.90422994558777,-1.51979901172534,,2.0223610951470237,,
,5809.0,572.0,3788.0,646.0,-155.0,1892.0,3500.0,,,,2.16366497735815,-2.90410344087966,-1.51859709233918,,2.4865438919980143,,
,5807.0,571.0,3786.0,645.0,-155.0,1879.0,3506.0,,,,2.16369653513159,-2.90440590990559,-1.5181477953653,,2.9290444209677653,,
,5800.0,570.0,3779.0,643.0,-147.0,1888.0,3499.0,,,,2.16264072409242,-2.90431310379097,-1.52015768095053,,3.342131215447177,,
,5795.0,569.0,3779.0,643.0,-144.0,1893.0,3502.0,,,,2.16337563925556,-2.9044557021627,-1.52011529389807,,3.718277581064826,,
,5795.0,570.0,3778.0,644.0,-163.0,1895.0,3496.0,,,,2.16263619839137,-2.90437955402272,-1.5200916798268,,4.0503381242397944,,
,5794.0,571.0,3776.0,644.0,-156.0,1895.0,3495.0,,,,2.16243973833336,-2.90470125621922,-1.51983732721995,,4.331747141813065,,
,5790.0,567.0,3776.0,643.0,-144.0,1887.0,3489.0,,,,2.16199510776484,-2.90389010412807,-1.51938983634087,,4.556725681443392,,
,5786.0,568.0,3775.0,642.0,-155.0,1886.0,3502.0,,,,2.16226882620176,-2.90399985095443,-1.5198155978132,,4.720480370020917,,
,5787.0,570.0,3774.0,643.0,-157.0,1862.0,3515.0,,,,2.16108403674261,-2.90444466240376,-1.51895122915182,,4.819376613307293,,
,5787.0,570.0,3773.0,643.0,-158.0,1853.0,3511.0,,,,2.16130989030019,-2.90401253305034,-1.51949589601449,,4.851072537099317,,
,5785.0,568.0,3772.0,642.0,-145.0,1870.0,3509.0,,,,2.16238485572279,-2.90408546229183,-1.5188219746279,,4.814607599574112,,
,5790.0,568.0,3774.0,645.0,-151.0,1867.0,3516.0,,,,2.16179423116555,-2.90487951959458,-1.51817444487357,,4.710448488519193,,
,5787.0,569.0,3776.0,644.0,-158.0,1875.0,3512.0,,,,2.16109932130497,-2.90502853808534,-1.51940728330865,,4.540500781819292,,
,5789.0,570.0,3776.0,645.0,-150.0,1878.0,3510.0,,,,2.16169219812583,-2.90430648145764,-1.52016139909216,,4.308095178938931,,
,5789.0,571.0,3776.0,645.0,-154.0,1850.0,3509.0,,,,2.16045830560855,-2.90426303335844,-1.51898173788524,,4.01795230521709,,
,5789.0,569.0,3773.0,643.0,-171.0,1861.0,3493.0,,,,2.1618180522797,-2.90449039790318,-1.51950904425486,,3.676123035545916,,
,5790.0,570.0,3780.0,645.0,-179.0,1868.0,3485.0,,,,2.16073678161371,-2.90421052095743,-1.52005810613402,,3.2898951734853226,,
,5792.0,568.0,3778.0,644.0,-164.0,1881.0,3491.0,,,,2.16219233327004,-2.90443334792101,-1.51965352805754,,2.8676541787881673,,
,5792.0,570.0,3780.0,643.0,-157.0,1879.0,3489.0,,,,2.16171579744117,-2.90499621823705,-1.51921736867928,,2.4186862043598603,,
,5794.0,568.0,3780.0,641.0,-166.0,1893.0,3498.0,,,,2.16189856044368,-2.90392897242637,-1.51863430548411,,1.9529158800456559,,
,5790.0,569.0,3780.0,645.0,-166.0,1895.0,3478.0,,,,2.16320608346583,-2.9042038225902,-1.51978201539757,,1.4805784503633168,,
,5795.0,571.0,3782.0,644.0,-159.0,1887.0,3497.0,,,,2.16392546913396,-2.90363200255969,-1.519018874972,,1.0118351696294539,,
,5798.0,569.0,3783.0,646.0,-163.0,1892.0,3480.0,,,,2.16517341188056,-2.90449028036644,-1.5197879593757,,0.5563513310383358,,
,5799.0,569.0,3783.0,644.0,-162.0,1886.0,3509.0,,,,2.1648878492363,-2.90368559852086,-1.51983218581732,,0.1228667411479649,,
,5800.0,569.0,3786.0,647.0,-147.0,1881.0,3475.0,,,,2.16673952834103,-2.90308839979477,-1.51997363161709,,-0.2812031142681964,,
,5798.0,569.0,3785.0,643.0,-150.0,1878.0,3487.0,,,,2.16610119535736,-2.90297260859963,-1.51954065841587,,-0.6500933373171359,,
,5800.0,569.0,3784.0,644.0,-153.0,1873.0,3495.0,,,,2.16593559437281,-2.90288562067671,-1.51993086978503,,-0.979905170061932,,
,5802.0,569.0,3786.0,646.0,-159.0,1868.0,3511.0,,,,2.16688047211492,-2.90244785033084,-1.51950828842042,,-1.2686842100938807,,
,5802.0,568.0,3785.0,645.0,-159.0,1873.0,3520.0,,,,2.1680903411622,-2.90316166196141,-1.52028262957482,,-1.5163515691717584,,
,5805.0,569.0,3785.0,644.0,-160.0,1869.0,3522.0,,,,2.16845197631357,-2.90270227152418,-1.51898416456338,,-1.7244965580878429,,
,5806.0,568.0,3788.0,646.0,-152.0,1871.0,3505.0,,,,2.16916975600057,-2.90242730582601,-1.52013562775275,,-1.8960556529115347,,
,5806.0,571.0,3788.0,644.0,-148.0,1885.0,3501.0,,,,2.16885511151622,-2.9019913300792,-1.51996051256787,,-2.0349143990854763,,
,5806.0,571.0,3788.0,643.0,-155.0,1891.0,3475.0,,,,2.16940217101711,-2.90225621920076,-1.51972493816292,,-2.1454756841244538,,
,5807.0,569.0,3787.0,642.0,-164.0,1886.0,3480.0,,,,2.16940913199067,-2.90147525790732,-1.51962987760775,,-2.2322394762715625,,
,5810.0,571.0,3791.0,646.0,-164.0,1884.0,3479.0,,,,2.16999341716537,-2.90209989626228,-1.51990484605712,,-2.2994361949985187,,
,5811.0,567.0,3789.0,645.0,-159.0,1885.0,3468.0,,,,2.17017230741514,-2.90193552614277,-1.51876663336685,,-2.3507489261678844,,
,5813.0,567.0,3791.0,646.0,-167.0,1886.0,3468.0,,,,2.17061095731424,-2.90128549629246,-1.52032511761392,,-2.3891490448772643,,
,5815.0,567.0,3789.0,645.0,-165.0,1889.0,3499.0,,,,2.17193340608693,-2.90160049743101,-1.5200554579655,,-2.4168556746520933,,
,5813.0,570.0,3793.0,648.0,-158.0,1896.0,3485.0,,,,2.17127598696732,-2.9012991249857,-1.52061888999158,,-2.435412606110504,,
,5816.0,571.0,3792.0,646.0,-163.0,1884.0,3482.0,,,,2.17262275343562,-2.90103421931306,-1.51967134800364,,-2.4458590859259393,,
,5818.0,570.0,3793.0,648.0,-165.0,1879.0,3491.0,,,,2.1721302873494,-2.90100027834745,-1.52099164002649,,-2.4489569987031024,,
,5817.0,571.0,3795.0,644.0,-162.0,1874.0,3513.0,,,,2.17246638333719,-2.90097899740281,-1.51969927824532,,-2.4454301137236256,,
,5823.0,572.0,3797.0,646.0,-167.0,1876.0,3502.0,,,,2.1740059639355,-2.90107209606579,-1.51956124450586,,-2.4361728472212936,,
,5824.0,571.0,3798.0,648.0,-152.0,1873.0,3507.0,,,,2.1737377734032,-2.90037642844161,-1.52083524313846,,-2.422395047538995,,
,5827.0,573.0,3799.0,648.0,-159.0,1872.0,3506.0,,,,2.17339467609987,-2.90087624777606,-1.51997550720095,,-2.405682491893168,,
,5825.0,573.0,3803.0,648.0,-173.0,1881.0,3520.0,,,,2.17395542347236,-2.90040893641327,-1.51989611189828,,-2.3879669464968476,,
,5828.0,570.0,3804.0,649.0,-163.0,1891.0,3497.0,,,,2.17463163169146,-2.90022464775286,-1.51992456051084,,-2.3714126216152036,,
,5830.0,574.0,3806.0,646.0,-159.0,1884.0,3467.0,,,,2.17453970064198,-2.90053828691708,-1.51890783833058,,-2.3582364193726564,,
,5832.0,572.0,3807.0,648.0,-159.0,1892.0,3483.0,,,,2.1756056423671,-2.90027104891428,-1.51987216395175,,-2.3504869092187053,,
,5836.0,573.0,3807.0,647.0,-172.0,1882.0,3470.0,,,,2.17569859197597,-2.89997154074623,-1.51933663638515,,-2.349811261610905,,
2025-06-30 18:00:52,5838.0,570.0,3810.0,648.0,-173.0,1884.0,3501.0,,,2025/06/30 06:00:52 PM,2.1758716534086,-2.89934697935023,-1.51943161756503,,-2.3572403468864924,,
,5841.0,573.0,3811.0,649.0,-168.0,1888.0,3517.0,,,,2.17775273402083,-2.89907593478331,-1.52061784641,,-2.373019604317477,,
,5844.0,574.0,3816.0,650.0,-162.0,1893.0,3506.0,,,,2.17793842371758,-2.89942133862065,-1.52036953151504,,-2.3965067086251164,,
,5847.0,575.0,3816.0,650.0,-161.0,1883.0,3504.0,,,,2.17851264674972,-2.89894759045807,-1.51954828700612,,-2.426146602141907,,
,5845.0,574.0,3817.0,648.0,-155.0,1876.0,3489.0,,,,2.17710810354412,-2.89893025924972,-1.52011361478151,,-2.459521585988299,,
,5850.0,575.0,3821.0,651.0,-157.0,1875.0,3495.0,,,,2.17735564826879,-2.89937586585532,-1.5197327512593,,-2.4934620344070972,,
,5855.0,577.0,3823.0,649.0,-160.0,1882.0,3483.0,,,,2.17592015502853,-2.89964220981419,-1.52044497179995,,-2.524195692834474,,
,5857.0,577.0,3826.0,651.0,-163.0,1878.0,3490.0,,,,2.17642578914751,-2.90032604435459,-1.52038779173517,,-2.547512645167842,,
,5858.0,575.0,3826.0,652.0,-169.0,1881.0,3512.0,,,,2.17483237929689,-2.90006619699167,-1.5205413884472,,-2.558928118986237,,
,5864.0,575.0,3828.0,650.0,-167.0,1891.0,3514.0,,,,2.17220522402578,-2.90016948754393,-1.52045500956495,,-2.553833413244929,,
,5863.0,576.0,3832.0,653.0,-160.0,1890.0,3491.0,,,,2.16889923579082,-2.90213472162535,-1.52040574335976,,-2.527633275624446,,
,5869.0,579.0,3833.0,653.0,-167.0,1878.0,3495.0,,,,2.16575022783359,-2.90365343751633,-1.52000981682126,,-2.4758739792893105,,
,5872.0,576.0,3837.0,652.0,-160.0,1873.0,3479.0,,,,2.16384261343106,-2.9044116361235,-1.5187681425729,,-2.3943692768000218,,
,5871.0,574.0,3839.0,651.0,-161.0,1878.0,3482.0,,,,2.16083616126414,-2.90471462107631,-1.51826180450474,,-2.279331402881894,,
,5877.0,580.0,3840.0,653.0,-155.0,1877.0,3476.0,,,,2.15860758255435,-2.90496684746128,-1.51878678247217,,-2.127512167846612,,
,5879.0,580.0,3843.0,655.0,-154.0,1875.0,3488.0,,,,2.15717686859443,-2.90583560364575,-1.51936762854348,,-1.936356103115741,,
,5884.0,579.0,3844.0,655.0,-165.0,1882.0,3476.0,,,,2.15538460910918,-2.90653109689882,-1.5194990291221,,-1.7041644277214685,,
,5885.0,574.0,3845.0,654.0,-168.0,1871.0,3509.0,,,,2.15464143766352,-2.90614386019302,-1.51897910671963,,-1.4302652770709168,,
,5889.0,580.0,3851.0,655.0,-162.0,1883.0,3507.0,,,,2.15283548994488,-2.90756753483003,-1.51734675818899,,-1.11518154066312,,
,5892.0,580.0,3852.0,656.0,-166.0,1878.0,3529.0,,,,2.1521505878164,-2.90745215471651,-1.51845840818844,,-0.7607826242220959,,
,5893.0,582.0,3855.0,655.0,-164.0,1880.0,3533.0,,,,2.15294460727866,-2.90706602786772,-1.51864489424054,,-0.37040182793270754,,
,5897.0,579.0,3854.0,656.0,-172.0,1862.0,3526.0,,,,2.15160146893338,-2.90764096013456,-1.51840400586231,,0.05110066256111337,,
,5901.0,580.0,3857.0,655.0,-176.0,1880.0,3484.0,,,,2.15243751034435,-2.90694907886789,-1.51911500499577,,0.49734620734699925,,
,5905.0,583.0,3860.0,657.0,-166.0,1875.0,3496.0,,,,2.15260582522059,-2.90672803481732,-1.5186886424685,,0.9605276477646869,,
,5909.0,583.0,3866.0,659.0,-160.0,1880.0,3493.0,,,,2.1532457251427,-2.90698855386604,-1.51875940942648,,1.431582405740129,,
,5912.0,583.0,3866.0,659.0,-163.0,1887.0,3498.0,,,,2.15463440484406,-2.90639541687391,-1.51900961112685,,1.9004429210842617,,
,5914.0,584.0,3867.0,658.0,-151.0,1896.0,3508.0,,,,2.15569441354732,-2.9071167712999,-1.51970388507106,,2.3563531314838233,,
,5916.0,584.0,3872.0,661.0,-170.0,1883.0,3480.0,,,,2.15457434844248,-2.90528377187071,-1.51848782471268,,2.7882360988878383,,
,5924.0,585.0,3873.0,660.0,-153.0,1890.0,3460.0,,,,2.15673669285123,-2.90625988560739,-1.51884376174541,,3.1850954349574474,,
,5922.0,583.0,3876.0,661.0,-144.0,1902.0,3430.0,,,,2.15631394665636,-2.90620789439304,-1.51852442197974,,3.5364311942859485,,
,5925.0,583.0,3878.0,659.0,-145.0,1900.0,3460.0,,,,2.15694092069879,-2.90585346320836,-1.51863742088799,,3.8326492371216934,,
,5928.0,584.0,3879.0,661.0,-157.0,1879.0,3455.0,,,,2.15653469036357,-2.90569620574484,-1.51828691983893,,4.065442380180095,,
,5930.0,583.0,3880.0,662.0,-159.0,1888.0,3467.0,,,,2.15691310474516,-2.90532616317744,-1.51788707956423,,4.228123174209968,,
,5931.0,584.0,3878.0,662.0,-159.0,1886.0,3478.0,,,,2.15720694954516,-2.90508358764513,-1.5193696509384,,4.315892692392924,,
,5934.0,583.0,3877.0,660.0,-166.0,1888.0,3505.0,,,,2.15757714075842,-2.9055867761412,-1.51891605679709,,4.326036569524228,,
,5934.0,582.0,3875.0,655.0,-166.0,1885.0,3492.0,,,,2.15845860521598,-2.90551689120478,-1.51900961337069,,4.258046245205675,,
,5936.0,584.0,3872.0,660.0,-164.0,1884.0,3495.0,,,,2.16005996010763,-2.9052759363339,-1.51976752714359,,4.113667192301254,,
,5934.0,583.0,3869.0,659.0,-172.0,1887.0,3485.0,,,,2.15982522191916,-2.90452661560553,-1.51772394916498,,3.89687585026525,,
,5933.0,583.0,3865.0,658.0,-164.0,1890.0,3480.0,,,,2.1608620292904,-2.90505520050956,-1.51896638481421,,3.613784372102747,,
,5928.0,579.0,3859.0,654.0,-156.0,1887.0,3487.0,,,,2.16112305164571,-2.90462091465442,-1.51843356621491,,3.2724695694740933,,
,5926.0,580.0,3854.0,654.0,-163.0,1863.0,3475.0,,,,2.16121357911505,-2.90415325104086,-1.51816897616432,,2.882721533044483,,
,5922.0,579.0,3848.0,653.0,-179.0,1860.0,3502.0,,,,2.16080689249696,-2.90452593571544,-1.51982861385418,,2.4557091484485793,,
,5915.0,577.0,3840.0,653.0,-174.0,1870.0,3496.0,,,,2.16154771337847,-2.90424494909611,-1.5193191958031,,2.0035641712179424,,
,5911.0,577.0,3838.0,651.0,-156.0,1867.0,3474.0,,,,2.16268317162816,-2.90470360804702,-1.51914696943341,,1.538892310101727,,
,5907.0,575.0,3836.0,649.0,-153.0,1865.0,3474.0,,,,2.16111173602684,-2.90443703667975,-1.51960461518545,,1.0742282457910035,,
,5899.0,571.0,3830.0,650.0,-147.0,1879.0,3495.0,,,,2.16136582341516,-2.90378487464039,-1.51903125700194,,0.6214608034183144,,
,5895.0,573.0,3826.0,649.0,-140.0,1887.0,3502.0,,,,2.16061315133635,-2.90458118779041,-1.51883420558541,,0.191263561469675,,
,5890.0,575.0,3822.0,646.0,-139.0,1885.0,3503.0,,,,2.16107651649426,-2.9043784021312,-1.51943876417527,,-0.20742640345070165,,
,5887.0,571.0,3818.0,645.0,-164.0,1884.0,3480.0,,,,2.16184914795163,-2.90397845023984,-1.51917604000409,,-0.5678353017331935,,
,5888.0,573.0,3824.0,648.0,-154.0,1891.0,3475.0,,,,2.16076513404051,-2.90396460412,-1.51870804976835,,-0.8856412095883772,,
,5884.0,571.0,3818.0,647.0,-162.0,1898.0,3484.0,,,,2.16141840378642,-2.90466242437321,-1.51925066457474,,-1.1590908340091532,,
,5880.0,572.0,3820.0,647.0,-167.0,1897.0,3491.0,,,,2.1612005924983,-2.90451210673123,-1.51895119137508,,-1.388927363529274,,
,5878.0,571.0,3815.0,647.0,-171.0,1905.0,3476.0,,,,2.16078776439685,-2.90465972866836,-1.51926266007162,,-1.578131944331662,,
,5878.0,571.0,3818.0,645.0,-167.0,1904.0,3517.0,,,,2.16127781744505,-2.90517604353689,-1.51893410219636,,-1.7315004098711766,,
,5879.0,570.0,3817.0,648.0,-172.0,1881.0,3520.0,,,,2.16125375825296,-2.90466903482792,-1.51889043730823,,-1.8550926931944554,,
,5880.0,573.0,3821.0,649.0,-166.0,1878.0,3494.0,,,,2.16065477048565,-2.90430112888629,-1.51897255077502,,-1.9556034302364775,,
,5880.0,571.0,3818.0,649.0,-156.0,1881.0,3464.0,,,,2.16086571579485,-2.90437042555746,-1.51851790940192,,-2.039708201215526,,
,5879.0,571.0,3820.0,649.0,-146.0,1879.0,3485.0,,,,2.16124054101418,-2.90475493026664,-1.51821356857253,,-2.1134408391064636,,
,5883.0,571.0,3822.0,646.0,-160.0,1858.0,3473.0,,,,2.16243145191928,-2.90492833158208,-1.51845638452681,,-2.181653627840562,,
,5881.0,571.0,3820.0,647.0,-156.0,1864.0,3468.0,,,,2.16235916389846,-2.90403301056569,-1.51834559047937,,-2.247604221212919,,
,5882.0,572.0,3822.0,649.0,-155.0,1855.0,3480.0,,,,2.16235443414291,-2.9037104336558,-1.51914419299072,,-2.3127007561219894,,
,5881.0,570.0,3823.0,648.0,-150.0,1884.0,3479.0,,,,2.16254239898013,-2.90347338699619,-1.51913603752216,,-2.376420284976901,,
,5882.0,573.0,3827.0,649.0,-159.0,1870.0,3480.0,,,,2.16340774905852,-2.90382885842941,-1.52007919940319,,-2.4363969056812063,,
,5887.0,573.0,3827.0,649.0,-169.0,1883.0,3502.0,,,,2.1647364662906,-2.90387373675054,-1.52008774496944,,-2.4886580211067293,,
,5887.0,575.0,3826.0,649.0,-170.0,1894.0,3494.0,,,,2.16502673472264,-2.90345068851345,-1.51986952408076,,-2.527973870816381,,
,5885.0,571.0,3829.0,647.0,-155.0,1889.0,3492.0,,,,2.16498639356534,-2.90264016673761,-1.51875590640609,,-2.5482793630763694,,
,5888.0,570.0,3830.0,649.0,-152.0,1894.0,3486.0,,,,2.16602896512028,-2.90324555252387,-1.51876109448589,,-2.5431280647891206,,
,5890.0,572.0,3834.0,651.0,-157.0,1898.0,3499.0,,,,2.1665391270098,-2.90309441139638,-1.5191692341768,,-2.506143530199922,,
,5891.0,573.0,3834.0,648.0,-148.0,1893.0,3493.0,,,,2.16579034817208,-2.90266628378248,-1.52003182340189,,-2.431440141900544,,
,5892.0,573.0,3831.0,647.0,-168.0,1883.0,3514.0,,,,2.16623464703015,-2.9030360082403,-1.51937899958675,,-2.313992524772376,,
,5895.0,574.0,3835.0,649.0,-154.0,1884.0,3488.0,,,,2.16680087717029,-2.90257901263518,-1.51886293085696,,-2.149938856213721,,
,5894.0,574.0,3835.0,650.0,-160.0,1876.0,3479.0,,,,2.16724966393328,-2.90246324798826,-1.51941205896224,,-1.936809307198973,,
,5897.0,575.0,3837.0,651.0,-162.0,1887.0,3497.0,,,,2.16762855294337,-2.90174781234085,-1.51972593504986,,-1.67367690592535,,
,5897.0,574.0,3838.0,651.0,-171.0,1881.0,3460.0,,,,2.16894641074198,-2.90153813025886,-1.52059845470207,,-1.361234371852004,,
,5896.0,575.0,3837.0,651.0,-158.0,1878.0,3486.0,,,,2.1695644077699,-2.9016066917742,-1.51990481537882,,-1.0018059410409532,,
,5900.0,574.0,3840.0,652.0,-150.0,1863.0,3492.0,,,,2.17055210150126,-2.9013892592993,-1.52036782855245,,-0.5993060913637112,,
,5899.0,573.0,3838.0,652.0,-163.0,1889.0,3485.0,,,,2.17018021727592,-2.90121887399086,-1.51994154555226,,-0.159156076641283,,
,5902.0,571.0,3838.0,650.0,-170.0,1892.0,3500.0,,,,2.1711347533276,-2.9015175333563,-1.51965323898494,,0.3118350786724308,,
,5902.0,574.0,3843.0,647.0,-159.0,1889.0,3492.0,,,,2.17125908586965,-2.90208722775695,-1.52029120878481,,0.8056234250249905,,
,5903.0,572.0,3843.0,650.0,-147.0,1870.0,3474.0,,,,2.17140415460872,-2.90183325039289,-1.51933402836678,,1.3131179615259407,,
,5904.0,575.0,3844.0,651.0,-156.0,1885.0,3466.0,,,,2.17241289084039,-2.90146532501493,-1.51953509866501,,1.8244044999618936,,
,5906.0,575.0,3844.0,652.0,-164.0,1895.0,3469.0,,,,2.17241752883478,-2.90104701539075,-1.51993141095363,,2.3290040530547107,,
,5907.0,574.0,3846.0,650.0,-163.0,1876.0,3485.0,,,,2.17244827520436,-2.90098225009912,-1.51903240025336,,2.816161187427947,,
,5908.0,574.0,3845.0,651.0,-166.0,1877.0,3492.0,,,,2.17245575852496,-2.90058478113624,-1.52014674934044,,3.2751549465255017,,
,5911.0,575.0,3848.0,651.0,-163.0,1880.0,3494.0,,,,2.17376741823912,-2.90032041520799,-1.51954418501718,,3.6956225301653447,,
,5910.0,576.0,3849.0,651.0,-164.0,1874.0,3501.0,,,,2.174084360039,-2.90086105578257,-1.51899700757454,,4.067883782218591,,
,5912.0,574.0,3849.0,649.0,-155.0,1877.0,3484.0,,,,2.17471654650732,-2.89998502007439,-1.52050974874686,,4.3832526865760215,,
,5913.0,574.0,3848.0,651.0,-174.0,1889.0,3457.0,,,,2.17431827576996,-2.90039460560473,-1.52021161237273,,4.634320905196884,,
,5916.0,575.0,3853.0,652.0,-154.0,1879.0,3459.0,,,,2.17464298343817,-2.90032618949718,-1.52056735368324,,4.815198809294224,,
,5918.0,576.0,3853.0,654.0,-157.0,1882.0,3483.0,,,,2.17500058558019,-2.90014086513855,-1.52067953230501,,4.921702461057005,,
,5917.0,574.0,3854.0,651.0,-154.0,1887.0,3494.0,,,,2.17478585150826,-2.899648754092,-1.52035341460417,,4.9514807124608575,,
,5919.0,573.0,3856.0,653.0,-155.0,1897.0,3482.0,,,,2.17402802512586,-2.8995699328391,-1.51939352506336,,4.904083351934761,,
,5921.0,575.0,3858.0,653.0,-156.0,1888.0,3484.0,,,,2.17609153682318,-2.89927701653065,-1.51948181882953,,4.780976077025075,,
,5924.0,576.0,3862.0,653.0,-149.0,1881.0,3474.0,,,,2.17546602516248,-2.8996839476292,-1.5203140680874,,4.5855086405170775,,
,5931.0,577.0,3861.0,653.0,-149.0,1882.0,3474.0,,,,2.17633512681319,-2.89980980196405,-1.52073464273332,,4.322838920585749,,
,5926.0,576.0,3863.0,652.0,-169.0,1882.0,3489.0,,,,2.17668558510462,-2.89945208928035,-1.5189087501478,,3.999810403497787,,
,5930.0,575.0,3867.0,654.0,-168.0,1885.0,3468.0,,,,2.1774070322018,-2.89950108513707,-1.51977139060748,,3.6247766577561853,,
,5928.0,581.0,3866.0,655.0,-168.0,1887.0,3465.0,,,,2.17791411467945,-2.89894458695011,-1.5202787500109,,3.207365661292016,,
,5934.0,580.0,3870.0,654.0,-171.0,1889.0,3451.0,,,,2.17865989937858,-2.89882651258245,-1.52023720570622,,2.758179660101582,,
,5934.0,579.0,3869.0,654.0,-166.0,1886.0,3466.0,,,,2.17761159129826,-2.89914106535259,-1.51957013586373,,2.288431944498711,,
,5937.0,578.0,3873.0,654.0,-164.0,1877.0,3488.0,,,,2.17815454844892,-2.8989775558178,-1.51992550076384,,1.8095294393325476,,
,5940.0,579.0,3877.0,657.0,-162.0,1882.0,3501.0,,,,2.17584601638164,-2.90069607322392,-1.51920076662421,,1.3326182160053968,,
,5944.0,581.0,3882.0,658.0,-152.0,1884.0,3486.0,,,,2.17311492060366,-2.90059191595897,-1.52011987169404,,0.8681171297792928,,
,5946.0,580.0,3881.0,656.0,-165.0,1883.0,3469.0,,,,2.16899987052321,-2.90216648392739,-1.52001600087633,,0.42527204556583587,,
,5946.0,580.0,3883.0,656.0,-154.0,1887.0,3486.0,,,,2.16580431501843,-2.90363520133032,-1.5198642040409,,0.01176820754481668,,
,5952.0,579.0,3883.0,656.0,-161.0,1883.0,3474.0,,,,2.16417253567081,-2.90477895723157,-1.51976015871063,,-0.36656105274787787,,
,5953.0,582.0,3886.0,657.0,-152.0,1871.0,3453.0,,,,2.16074586856267,-2.90430060664383,-1.51864978852119,,-0.7058971165054038,,
,5955.0,581.0,3886.0,660.0,-153.0,1876.0,3436.0,,,,2.15925077445826,-2.90530886639079,-1.51850290587341,,-1.0044512936185204,,
,5959.0,580.0,3890.0,658.0,-158.0,1864.0,3476.0,,,,2.15772840033795,-2.90557780644236,-1.51865369670362,,-1.262331092007879,,
,5960.0,581.0,3891.0,659.0,-155.0,1878.0,3483.0,,,,2.15521480497651,-2.90610540774905,-1.51877112551761,,-1.4812746367615202,,
,5962.0,583.0,3896.0,661.0,-163.0,1879.0,3481.0,,,,2.15454292671839,-2.90675712963842,-1.51851153407431,,-1.6642858554105084,,
,5967.0,584.0,3899.0,662.0,-159.0,1883.0,3492.0,,,,2.15342378748129,-2.90744121168413,-1.51836380605287,,-1.815213323626119,,
,5966.0,583.0,3899.0,660.0,-163.0,1873.0,3471.0,,,,2.15256057839781,-2.9070094494578,-1.5179812457586,,-1.9383198370957095,,
,5969.0,582.0,3899.0,660.0,-163.0,1882.0,3470.0,,,,2.15283580401167,-2.90748738845905,-1.51813248139791,,-2.0378880758306264,,
,5973.0,584.0,3902.0,662.0,-157.0,1887.0,3476.0,,,,2.15197031802567,-2.90720528363262,-1.51843100526926,,-2.1179010823422852,,
,5975.0,587.0,3905.0,662.0,-154.0,1885.0,3493.0,,,,2.15086491473512,-2.90755331502038,-1.51879354128033,,-2.181825785824424,,
,5980.0,586.0,3906.0,662.0,-151.0,1868.0,3493.0,,,,2.15135702907498,-2.90809195779198,-1.51796580050362,,-2.2325143035308246,,
,5980.0,585.0,3908.0,662.0,-162.0,1898.0,3484.0,,,,2.15190023986626,-2.90787334628113,-1.51861985983484,,-2.272221867328042,,
,5984.0,586.0,3910.0,663.0,-164.0,1898.0,3471.0,,,,2.15264296709166,-2.90756424813587,-1.51899005738688,,-2.3027230819588005,,
,5989.0,587.0,3914.0,661.0,-172.0,1907.0,3482.0,,,,2.15254104334754,-2.90638834613315,-1.51884428022914,,-2.3254922515661467,,
,5990.0,590.0,3916.0,665.0,-171.0,1909.0,3484.0,,,,2.1524338069415,-2.9062433841878,-1.51923462867319,,-2.3419024349701245,,
,5991.0,585.0,3917.0,663.0,-171.0,1915.0,3501.0,,,,2.15393588699512,-2.90647965856352,-1.51969757100051,,-2.3533952498953528,,
,5993.0,586.0,3920.0,664.0,-156.0,1911.0,3513.0,,,,2.15450166867932,-2.90642445279472,-1.519075823266,,-2.361580437506143,,
,5995.0,590.0,3922.0,664.0,-159.0,1900.0,3498.0,,,,2.15514111846116,-2.90597950277092,-1.51830539005452,,-2.368238833188955,,
,5999.0,588.0,3925.0,664.0,-164.0,1904.0,3483.0,,,,2.15619060971148,-2.90558545486783,-1.51912435398633,,-2.3752208376067694,,
,6001.0,590.0,3923.0,665.0,-170.0,1901.0,3495.0,,,,2.15563217663608,-2.90614371443422,-1.51906865925732,,-2.3842510462358923,,
,6001.0,589.0,3922.0,663.0,-153.0,1878.0,3527.0,,,,2.15653545696229,-2.90592476513043,-1.5184566358388,,-2.396665717878415,,
,6004.0,590.0,3923.0,665.0,-154.0,1868.0,3488.0,,,,2.1567761424575,-2.90575490307341,-1.51880492163201,,-2.413121538551102,,
2025-06-30 18:00:53,6003.0,591.0,3922.0,666.0,-163.0,1878.0,3485.0,,,2025/06/30 06:00:53 PM,2.15689994513047,-2.90534907791354,-1.51876539634528,,-2.433320682001945,,
,6004.0,587.0,3916.0,661.0,-169.0,1889.0,3484.0,,,,2.15787943727128,-2.90473733327213,-1.51915976225141,,-2.4557980487640347,,
,5999.0,584.0,3915.0,659.0,-161.0,1873.0,3477.0,,,,2.15817201018219,-2.90457822745084,-1.51922245174338,,-2.4778116187088095,,
,6001.0,587.0,3909.0,662.0,-154.0,1877.0,3487.0,,,,2.15922673129005,-2.90548217737453,-1.52006845374367,,-2.4953659773076304,,
,5999.0,587.0,3906.0,663.0,-163.0,1870.0,3508.0,,,,2.16021971306433,-2.90511185924723,-1.51989018944681,,-2.503382538295215,,
,5995.0,583.0,3902.0,658.0,-169.0,1866.0,3513.0,,,,2.16006426601507,-2.90499738498065,-1.51898111624366,,-2.496009263287644,,
,5985.0,584.0,3895.0,656.0,-161.0,1876.0,3515.0,,,,2.1605764101753,-2.9044409062067,-1.51929999079271,,-2.46704118129393,,
,5984.0,582.0,3892.0,656.0,-157.0,1886.0,3473.0,,,,2.16076752182587,-2.90486138976793,-1.51955916889727,,-2.410405548411939,,
,5981.0,582.0,3887.0,657.0,-154.0,1887.0,3490.0,,,,2.16124591833022,-2.90417438823541,-1.51846499049282,,-2.3206562063237963,,
,5972.0,580.0,3888.0,653.0,-162.0,1888.0,3506.0,,,,2.16163482566493,-2.90412537515235,-1.51897635322753,,-2.1934220656905126,,
,5969.0,580.0,3883.0,651.0,-157.0,1903.0,3513.0,,,,2.16058250133246,-2.9046095972113,-1.51953027611186,,-2.0257633507899646,,
,5965.0,580.0,3880.0,651.0,-161.0,1890.0,3514.0,,,,2.16128631843265,-2.90435639247909,-1.5203894709671,,-1.8164037329828246,,
,5963.0,576.0,3878.0,654.0,-154.0,1887.0,3472.0,,,,2.16085653887975,-2.9049274187374,-1.51928584971717,,-1.5658242219807328,,
,5958.0,577.0,3879.0,652.0,-153.0,1886.0,3469.0,,,,2.16069339458866,-2.90452320598463,-1.51889483678217,,-1.276223316479004,,
,5957.0,578.0,3879.0,652.0,-169.0,1901.0,3498.0,,,,2.16065249086429,-2.90478413007918,-1.51963838168048,,-0.9513649286239658,,
,5953.0,578.0,3880.0,651.0,-152.0,1895.0,3496.0,,,,2.16083918146883,-2.90472917273891,-1.51928754179718,,-0.5963484291074806,,
,5955.0,579.0,3880.0,652.0,-155.0,1889.0,3484.0,,,,2.16059740792561,-2.90451967944573,-1.51912476587501,,-0.21734171619517387,,
,5953.0,580.0,3878.0,655.0,-157.0,1883.0,3492.0,,,,2.1603855932875,-2.9046779666616,-1.51943405873763,,0.17868272382925104,,
,5955.0,578.0,3879.0,653.0,-161.0,1879.0,3495.0,,,,2.16029002470184,-2.90382767335485,-1.52047856593918,,0.5841773598046164,,
,5950.0,578.0,3880.0,653.0,-147.0,1865.0,3464.0,,,,2.16115703317487,-2.90373557675951,-1.52009149016789,,0.9911982895758485,,
,5953.0,578.0,3880.0,653.0,-143.0,1862.0,3484.0,,,,2.16098341081418,-2.90435173614542,-1.51967362184091,,1.3915348025629513,,
,5952.0,578.0,3882.0,653.0,-152.0,1879.0,3513.0,,,,2.16089146742711,-2.90400858292638,-1.51882316646666,,1.7768084015160648,,
,5954.0,582.0,3886.0,655.0,-156.0,1874.0,3519.0,,,,2.16022878415868,-2.90439163719022,-1.51919198586735,,2.13857037768611,,
,5953.0,578.0,3885.0,653.0,-152.0,1867.0,3496.0,,,,2.16121673300471,-2.90455098869546,-1.51840687472323,,2.46842848160127,,
,5954.0,578.0,3886.0,651.0,-154.0,1876.0,3490.0,,,,2.16193704232175,-2.90431586057888,-1.51947159873498,,2.758226080191536,,
,5956.0,581.0,3890.0,654.0,-154.0,1886.0,3493.0,,,,2.16127315980667,-2.90374301239769,-1.51937776307878,,3.000284344218068,,
,5957.0,581.0,3891.0,656.0,-169.0,1887.0,3505.0,,,,2.16210638850179,-2.90455635799472,-1.51880493459631,,3.1877029849116383,,
,5957.0,582.0,3893.0,655.0,-163.0,1887.0,3474.0,,,,2.16195702788426,-2.90422983352697,-1.5191733048269,,3.3147007593012607,,
,5959.0,582.0,3892.0,657.0,-156.0,1891.0,3468.0,,,,2.1621775646947,-2.9040610778043,-1.51926202445733,,3.3769654310555874,,
,5965.0,583.0,3896.0,658.0,-161.0,1893.0,3501.0,,,,2.16207670159065,-2.90414805000454,-1.51900218052565,,3.371975446871462,,
,5965.0,582.0,3899.0,656.0,-157.0,1898.0,3482.0,,,,2.16361742018016,-2.90393455842735,-1.52023926124188,,3.29925308363866,,
,5966.0,581.0,3895.0,654.0,-151.0,1886.0,3485.0,,,,2.16480375575732,-2.9040570994806,-1.51948478611036,,3.1605117451215836,,
,5965.0,579.0,3897.0,656.0,-153.0,1881.0,3481.0,,,,2.16456173916765,-2.90328886965722,-1.51948064128823,,2.9596687661249366,,
,5968.0,584.0,3901.0,656.0,-159.0,1865.0,3486.0,,,,2.16544653050099,-2.90319768664619,-1.51914648876816,,2.702709356989856,,
,5969.0,585.0,3901.0,656.0,-163.0,1882.0,3479.0,,,,2.16660873474871,-2.90306563395646,-1.51944942122316,,2.397405785732193,,
,5967.0,584.0,3903.0,656.0,-165.0,1883.0,3489.0,,,,2.16615298361646,-2.90249839843546,-1.52006337827748,,2.0529154054587577,,
,5969.0,582.0,3903.0,653.0,-159.0,1881.0,3497.0,,,,2.16726500657127,-2.90197267404543,-1.52037565802843,,1.6792974062938248,,
,5972.0,583.0,3903.0,658.0,-172.0,1875.0,3489.0,,,,2.16763164808597,-2.90243124470112,-1.52007721150663,,1.2869973746798724,,
,5973.0,583.0,3905.0,656.0,-159.0,1877.0,3496.0,,,,2.16866710082694,-2.90267126333274,-1.51925653991169,,0.886349101734811,,
,5973.0,583.0,3905.0,655.0,-158.0,1875.0,3497.0,,,,2.16690304347732,-2.90242055768028,-1.52042077292401,,0.48713545108199513,,
,5973.0,585.0,3904.0,656.0,-157.0,1872.0,3488.0,,,,2.16847855029761,-2.90230614832434,-1.52052357990438,,0.09823720103087319,,
,5975.0,582.0,3907.0,656.0,-160.0,1892.0,3486.0,,,,2.16899393681894,-2.90242521453913,-1.51973310535009,,-0.2726162105378198,,
,5977.0,585.0,3908.0,657.0,-164.0,1899.0,3488.0,,,,2.16900316939263,-2.9021948781629,-1.52032841926937,,-0.6189945499935972,,
,5975.0,584.0,3908.0,656.0,-159.0,1896.0,3490.0,,,,2.17093644306227,-2.90166591854516,-1.52058962784544,,-0.9358257752770651,,
,5977.0,583.0,3908.0,656.0,-153.0,1888.0,3505.0,,,,2.17041705494855,-2.90126624509539,-1.52107253718974,,-1.2193870113923542,,
,5978.0,583.0,3908.0,656.0,-159.0,1890.0,3491.0,,,,2.17137021678325,-2.90104048651363,-1.52015562062381,,-1.4672524360393866,,
,5981.0,582.0,3911.0,655.0,-152.0,1882.0,3486.0,,,,2.17123519622854,-2.90145755153659,-1.52059601521047,,-1.678222493015286,,
,5980.0,585.0,3912.0,658.0,-157.0,1886.0,3494.0,,,,2.17227160365713,-2.90128766244462,-1.52070609848926,,-1.8522537213196388,,
,5981.0,586.0,3913.0,656.0,-153.0,1894.0,3514.0,,,,2.17194740141782,-2.90058091020356,-1.52049623926887,,-1.990399134171407,,
,5980.0,582.0,3913.0,657.0,-151.0,1873.0,3500.0,,,,2.17236144872747,-2.90028771582921,-1.52128889959337,,-2.094757053554036,,
,5984.0,587.0,3916.0,658.0,-160.0,1873.0,3493.0,,,,2.17260508688131,-2.90086205420338,-1.52018864942973,,-2.1684146993144493,,
,5986.0,584.0,3914.0,658.0,-156.0,1887.0,3510.0,,,,2.17349766733683,-2.90016135500063,-1.52107674125053,,-2.2153654819920723,,
,5986.0,587.0,3917.0,657.0,-151.0,1888.0,3503.0,,,,2.17307641464184,-2.9002579145645,-1.52051580135373,,-2.240378498116949,,
,5986.0,586.0,3918.0,658.0,-145.0,1877.0,3499.0,,,,2.1736086810889,-2.90024374690441,-1.52083168151237,,-2.2488051401777196,,
,5985.0,587.0,3920.0,659.0,-145.0,1891.0,3519.0,,,,2.17473957762386,-2.9000424631613,-1.52118373681853,,-2.2463186386686527,,
,5990.0,587.0,3924.0,658.0,-150.0,1907.0,3502.0,,,,2.17486836164634,-2.89967648692168,-1.52061033282102,,-2.2385946712093383,,
,5989.0,586.0,3926.0,659.0,-159.0,1904.0,3503.0,,,,2.17486068883984,-2.89942713433662,-1.52060708216438,,-2.2309524184778726,,
,5992.0,587.0,3923.0,657.0,-163.0,1890.0,3496.0,,,,2.17489571793711,-2.90005154443548,-1.51902090869999,,-2.227984031875216,,
,5995.0,587.0,3926.0,659.0,-175.0,1889.0,3483.0,,,,2.17617856088457,-2.89933561035378,-1.52147265734207,,-2.2332055398021744,,
,5996.0,588.0,3927.0,659.0,-161.0,1878.0,3510.0,,,,2.17574659824705,-2.89960665316191,-1.51928104225147,,-2.248763450274537,,
,5999.0,589.0,3929.0,661.0,-168.0,1891.0,3503.0,,,,2.1765152592115,-2.89986065529953,-1.52035582350761,,-2.275228728548593,,
,6001.0,587.0,3931.0,659.0,-162.0,1882.0,3506.0,,,,2.1768484978494,-2.89993000089674,-1.51993654770485,,-2.311503451004339,,
,6001.0,590.0,3936.0,659.0,-164.0,1891.0,3497.0,,,,2.1771689464744,-2.89889685807075,-1.5209087694154,,-2.354855197714677,,
,6006.0,589.0,3936.0,661.0,-150.0,1897.0,3507.0,,,,2.17766729911705,-2.89925238590045,-1.52047866665019,,-2.4010805687625565,,
,6006.0,592.0,3939.0,662.0,-162.0,1888.0,3502.0,,,,2.17833741216244,-2.89853391359357,-1.52017699123386,,-2.4447838543464173,,
,6009.0,591.0,3940.0,661.0,-163.0,1867.0,3505.0,,,,2.17799341403116,-2.89874382862987,-1.52091535852876,,-2.479743133746255,,
,6010.0,591.0,3942.0,662.0,-168.0,1862.0,3476.0,,,,2.17913768614509,-2.8990186252164,-1.51813818625625,,-2.4993274510908106,,
,6015.0,593.0,3944.0,663.0,-174.0,1882.0,3472.0,,,,2.17870658291022,-2.89862530697959,-1.51950829625274,,-2.496926912690664,,
,6016.0,591.0,3947.0,662.0,-167.0,1895.0,3498.0,,,,2.1785665428708,-2.89910515985753,-1.52078366478446,,-2.466361491374589,,
,6017.0,593.0,3949.0,662.0,-163.0,1889.0,3500.0,,,,2.1770224434867,-2.89972369579444,-1.51921825583594,,-2.40224129866943,,
,6019.0,592.0,3951.0,663.0,-165.0,1865.0,3488.0,,,,2.17424262868116,-2.90012317898494,-1.51937999596658,,-2.300258643361203,,
,6022.0,591.0,3951.0,663.0,-169.0,1885.0,3494.0,,,,2.1708160482985,-2.90131694874836,-1.51873827361868,,-2.1573990929832125,,
,6026.0,595.0,3955.0,664.0,-163.0,1881.0,3452.0,,,,2.16722729997016,-2.90270424115223,-1.52007107233387,,-1.9720648871952642,,
,6028.0,596.0,3957.0,665.0,-163.0,1882.0,3454.0,,,,2.16477181556835,-2.90313166370399,-1.51821424145192,,-1.7441100221334473,,
,6027.0,596.0,3958.0,663.0,-149.0,1878.0,3497.0,,,,2.16281871267337,-2.90425476322237,-1.51787527731014,,-1.4747928307583666,,
,6029.0,596.0,3959.0,666.0,-151.0,1876.0,3495.0,,,,2.16003080515054,-2.90505380555362,-1.51908256703276,,-1.166658867957919,,
,6035.0,596.0,3963.0,667.0,-155.0,1869.0,3502.0,,,,2.15680071021476,-2.90572280593057,-1.51862831073725,,-0.8233730042451097,,
,6035.0,595.0,3965.0,665.0,-149.0,1880.0,3479.0,,,,2.15600637481885,-2.90610767180357,-1.5174081116952,,-0.44952268124425115,,
,6038.0,597.0,3969.0,666.0,-157.0,1888.0,3487.0,,,,2.15436698975152,-2.90747445470391,-1.51767918043553,,-0.05041290883273151,,
,6040.0,595.0,3971.0,665.0,-147.0,1894.0,3492.0,,,,2.15369911838162,-2.90696986649252,-1.51795163363843,,0.36813138047952404,,
,6044.0,597.0,3972.0,668.0,-154.0,1879.0,3508.0,,,,2.15257712658385,-2.90716643898749,-1.51844547472988,,0.7999458343199859,,
,6047.0,598.0,3974.0,667.0,-151.0,1863.0,3500.0,,,,2.15226333934162,-2.90740151348497,-1.51844884555208,,1.2386844685829377,,
,6047.0,598.0,3975.0,670.0,-158.0,1880.0,3491.0,,,,2.15264225646023,-2.90685942132869,-1.51864236162399,,1.6779513042339322,,
,6048.0,598.0,3974.0,669.0,-163.0,1893.0,3514.0,,,,2.15344214558785,-2.9077530656404,-1.51897165519251,,2.111403662224283,,
,6048.0,600.0,3971.0,666.0,-158.0,1903.0,3493.0,,,,2.15192485724461,-2.90692398087221,-1.51820186737132,,2.532826540279138,,
,6049.0,598.0,3970.0,666.0,-158.0,1901.0,3479.0,,,,2.15300790099224,-2.90724275793853,-1.51765310465793,,2.9361798546459372,,
,6050.0,598.0,3967.0,668.0,-157.0,1910.0,3486.0,,,,2.15293390948591,-2.90758413337482,-1.51859879164926,,3.315623029693516,,
,6048.0,597.0,3965.0,668.0,-141.0,1892.0,3487.0,,,,2.15309548437216,-2.90633718945524,-1.51835033648088,,3.665523791225855,,
,6045.0,595.0,3959.0,661.0,-149.0,1884.0,3459.0,,,,2.15334522110796,-2.9069074471563,-1.5195702970201,,3.9804596390231777,,
,6043.0,596.0,3959.0,662.0,-154.0,1891.0,3453.0,,,,2.15303575159505,-2.9063187098385,-1.51874654778912,,4.2552214918649165,,
,6038.0,595.0,3955.0,661.0,-149.0,1880.0,3489.0,,,,2.15495038667737,-2.9065431838119,-1.51936109980621,,4.4848300759186825,,
,6033.0,595.0,3948.0,660.0,-151.0,1869.0,3499.0,,,,2.1558074456869,-2.90700544182589,-1.5185318087967,,4.664577266951243,,
,6027.0,595.0,3944.0,660.0,-144.0,1878.0,3500.0,,,,2.15587261749097,-2.90553986080832,-1.51914939040212,,4.790106149636718,,
,6020.0,592.0,3939.0,659.0,-160.0,1887.0,3506.0,,,,2.15626716137234,-2.90531385751158,-1.51877598083969,,4.857542829426549,,
,6016.0,593.0,3938.0,660.0,-164.0,1889.0,3504.0,,,,2.15749888421409,-2.90493465339252,-1.51883587556828,,4.8636874368468055,,
,6010.0,591.0,3934.0,656.0,-165.0,1879.0,3516.0,,,,2.15648600681863,-2.90477731253378,-1.51898699024505,,4.806260552104435,,
,6002.0,591.0,3931.0,654.0,-167.0,1875.0,3507.0,,,,2.15893291450551,-2.90513255496885,-1.51848959149615,,4.684186711968879,,
,5998.0,591.0,3928.0,655.0,-169.0,1878.0,3514.0,,,,2.15957148988472,-2.90435048181508,-1.51936198739503,,4.497882846625319,,
,5994.0,590.0,3929.0,655.0,-162.0,1886.0,3498.0,,,,2.15976784822701,-2.90487009750944,-1.51871321989091,,4.249510194244064,,
,5991.0,591.0,3926.0,655.0,-165.0,1893.0,3502.0,,,,2.16024656106084,-2.90468816510063,-1.51861209481138,,3.94314559770384,,
,5988.0,589.0,3926.0,654.0,-168.0,1891.0,3489.0,,,,2.16138274466021,-2.90410415020578,-1.51936452018861,,3.5848325863587274,,
,5985.0,591.0,3927.0,652.0,-168.0,1899.0,3477.0,,,,2.16051794397716,-2.90401300113805,-1.51938352505748,,3.1824836077657417,,
,5983.0,591.0,3927.0,657.0,-156.0,1883.0,3489.0,,,,2.16182494348691,-2.90388924340698,-1.51869498320377,,2.7456208777766546,,
,5982.0,587.0,3926.0,653.0,-165.0,1884.0,3482.0,,,,2.16124085405003,-2.90377398951188,-1.51873149188476,,2.2849629306394426,,
,5982.0,591.0,3927.0,654.0,-155.0,1880.0,3467.0,,,,2.16200354211276,-2.90354480127981,-1.52029215486172,,1.8118850471556294,,
,5975.0,589.0,3927.0,650.0,-158.0,1885.0,3487.0,,,,2.16195257883804,-2.90309495634964,-1.51932660342143,,1.337801401405889,,
,5980.0,591.0,3931.0,654.0,-158.0,1882.0,3509.0,,,,2.16119833235038,-2.90363089133275,-1.51891601175519,,0.8735309987717113,,
,5980.0,590.0,3930.0,655.0,-165.0,1874.0,3513.0,,,,2.16168010977192,-2.9036374774737,-1.51911856040447,,0.4287142492062148,,
,5976.0,590.0,3931.0,654.0,-163.0,1878.0,3519.0,,,,2.16091045519208,-2.90382055241322,-1.51845948120549,,0.011340337181186162,,
,5977.0,589.0,3930.0,653.0,-161.0,1872.0,3500.0,,,,2.16124466607882,-2.90330573066297,-1.51807418399053,,-0.37257110872619253,,
,5976.0,589.0,3932.0,652.0,-162.0,1857.0,3511.0,,,,2.1615819986378,-2.90379735955809,-1.51743126518636,,-0.7191128647914058,,
,5979.0,590.0,3933.0,655.0,-160.0,1865.0,3488.0,,,,2.16058186857106,-2.9039459600679,-1.51703425042664,,-1.0264592667886427,,
,5980.0,593.0,3936.0,658.0,-164.0,1862.0,3493.0,,,,2.15944013145733,-2.90405701007242,-1.51938712267856,,-1.2946831582245324,,
,5978.0,591.0,3936.0,653.0,-158.0,1863.0,3480.0,,,,2.15976592463516,-2.90517282193536,-1.51850538802826,,-1.5254562820068724,,
,5976.0,591.0,3936.0,654.0,-161.0,1882.0,3501.0,,,,2.16024954213066,-2.904612118221,-1.51865265437052,,-1.721676541892259,,
,5981.0,590.0,3939.0,656.0,-148.0,1886.0,3508.0,,,,2.16031737901531,-2.90414438598944,-1.51970393106798,,-1.8870671534563754,,
,5981.0,592.0,3943.0,658.0,-155.0,1872.0,3517.0,,,,2.15994961556374,-2.90476296389887,-1.51889660582739,,-2.0257889024397233,,
,5981.0,591.0,3942.0,656.0,-144.0,1863.0,3510.0,,,,2.15994639851028,-2.90449036674558,-1.51801336121864,,-2.142098400178514,,
,5982.0,593.0,3941.0,657.0,-159.0,1873.0,3480.0,,,,2.16113843178822,-2.90424487361826,-1.51899428951681,,-2.2400731806725767,,
,5985.0,593.0,3944.0,658.0,-147.0,1883.0,3494.0,,,,2.16053111528668,-2.90408022764955,-1.51983936578199,,-2.3234099711489686,,
,5983.0,594.0,3944.0,658.0,-150.0,1892.0,3494.0,,,,2.16088060367252,-2.90408571644584,-1.51919748748595,,-2.3952879164775562,,
,5984.0,593.0,3947.0,658.0,-156.0,1892.0,3503.0,,,,2.16155128087728,-2.90378559764658,-1.51856883316325,,-2.458277557362841,,
,5984.0,595.0,3947.0,656.0,-153.0,1885.0,3499.0,,,,2.16227595849643,-2.90423553562916,-1.51906763084952,,-2.5142723096042987,,
,5985.0,593.0,3946.0,656.0,-149.0,1891.0,3468.0,,,,2.16265854279254,-2.90349487465905,-1.51861182969086,,-2.5644230992269144,,
,5988.0,595.0,3949.0,658.0,-166.0,1888.0,3490.0,,,,2.16234441466529,-2.90398883223184,-1.51887304019854,,-2.6090666883870828,,
,5988.0,595.0,3949.0,658.0,-164.0,1889.0,3496.0,,,,2.16318614629863,-2.90395537805596,-1.51900245435431,,-2.6476504659931193,,
,5988.0,593.0,3948.0,655.0,-168.0,1894.0,3506.0,,,,2.16326970461202,-2.90380899904118,-1.52015722461388,,-2.6786677020661025,,
,5987.0,594.0,3951.0,655.0,-154.0,1892.0,3499.0,,,,2.16406390877331,-2.90363237688936,-1.51912576568568,,-2.699625118424349,,
2025-06-30 18:00:54,5987.0,596.0,3953.0,658.0,-155.0,1889.0,3492.0,,,2025/06/30 06:00:54 PM,2.16426722892116,-2.90361751160408,-1.51873480224024,,-2.7070676822178394,,
,5992.0,595.0,3953.0,661.0,-167.0,1880.0,3483.0,,,,2.1654227395452,-2.90293077265114,-1.51909948551131,,-2.6966831758056173,,
,5990.0,598.0,3951.0,657.0,-174.0,1870.0,3473.0,,,,2.16617850862114,-2.90227727466865,-1.51877547691908,,-2.663501518511837,,
,5988.0,593.0,3950.0,654.0,-156.0,1886.0,3506.0,,,,2.16555800241621,-2.9025012800216,-1.52006256638853,,-2.6021917869680613,,
,5990.0,595.0,3953.0,657.0,-153.0,1888.0,3516.0,,,,2.16582920423301,-2.90196611675412,-1.51975374455527,,-2.507444613861099,,
,5990.0,596.0,3956.0,658.0,-157.0,1883.0,3486.0,,,,2.16650610798284,-2.90277372650568,-1.52034860326569,,-2.374411099614969,,
,5994.0,598.0,3957.0,658.0,-157.0,1879.0,3477.0,,,,2.16643750917911,-2.90234510602423,-1.51937483694778,,-2.199154811507201,,
,5992.0,594.0,3957.0,655.0,-157.0,1887.0,3483.0,,,,2.16771928582976,-2.90254136833056,-1.51982140736709,,-1.9790652404531985,,
,5993.0,593.0,3958.0,657.0,-170.0,1891.0,3483.0,,,,2.16875002206599,-2.90228846094095,-1.52066744031947,,-1.713182968411354,,
,5996.0,596.0,3962.0,660.0,-164.0,1885.0,3491.0,,,,2.16889924612296,-2.90270230802871,-1.5197064014032,,-1.4023994191908242,,
,5994.0,596.0,3961.0,659.0,-158.0,1888.0,3495.0,,,,2.16883143953034,-2.90127445056519,-1.51921955245772,,-1.0495140934464626,,
,5993.0,595.0,3962.0,656.0,-163.0,1884.0,3472.0,,,,2.16935705663128,-2.90192150272751,-1.51935623897267,,-0.6591539768650693,,
,5998.0,598.0,3965.0,660.0,-167.0,1879.0,3470.0,,,,2.17034782744328,-2.9017257091315,-1.51967689378811,,-0.23757808330507607,,
,5999.0,598.0,3966.0,659.0,-162.0,1890.0,3474.0,,,,2.17029761958405,-2.90059080518078,-1.51897637467071,,0.20759831600834222,,
,6000.0,597.0,3970.0,659.0,-163.0,1894.0,3486.0,,,,2.1716583857721,-2.90100984630725,-1.5196097839179,,0.667721094126263,,
,6001.0,600.0,3970.0,660.0,-164.0,1902.0,3513.0,,,,2.17191003040054,-2.90045227294487,-1.5205011728811,,1.133419987113271,,
,6003.0,597.0,3971.0,659.0,-151.0,1893.0,3473.0,,,,2.172083148346,-2.90117056376577,-1.51933967352128,,1.594907580739796,,
,6004.0,599.0,3972.0,660.0,-147.0,1882.0,3499.0,,,,2.17265035091481,-2.9006034280911,-1.52028359556839,,2.042236337548452,,
,6005.0,598.0,3974.0,659.0,-152.0,1889.0,3505.0,,,,2.17295930960109,-2.9006712638698,-1.51975285368777,,2.4655088400654717,,
,6009.0,598.0,3976.0,661.0,-153.0,1878.0,3500.0,,,,2.17277774295347,-2.90041661987095,-1.51917787365747,,2.8550509683108305,,
,6010.0,600.0,3978.0,662.0,-168.0,1866.0,3503.0,,,,2.17303176751018,-2.90068443939861,-1.51975280247464,,3.2015705932594174,,
,6010.0,599.0,3981.0,663.0,-165.0,1866.0,3479.0,,,,2.17381032957529,-2.89985138108854,-1.51915818835761,,3.4963315548835956,,
,6017.0,600.0,3982.0,661.0,-158.0,1888.0,3494.0,,,,2.17420927064434,-2.90032468058854,-1.52009680718354,,3.7313707832164433,,
,6015.0,603.0,3982.0,662.0,-157.0,1892.0,3496.0,,,,2.17506380669711,-2.90064672246083,-1.51992434771741,,3.899774807162651,,
,6018.0,601.0,3985.0,664.0,-166.0,1888.0,3490.0,,,,2.17524821084373,-2.90045912101409,-1.51894770461146,,3.9960134747288865,,
,6021.0,603.0,3988.0,663.0,-170.0,1881.0,3481.0,,,,2.17424289717487,-2.89996224987108,-1.52034035035435,,4.0163083699898765,,
,6022.0,604.0,3991.0,665.0,-171.0,1878.0,3494.0,,,,2.17481974475348,-2.89987930147352,-1.52037323520357,,3.958995916691041,,
,6025.0,604.0,3991.0,665.0,-176.0,1874.0,3508.0,,,,2.17471071734332,-2.90032070660274,-1.52066506765987,,3.8248340000466974,,
,6026.0,604.0,3994.0,666.0,-157.0,1865.0,3510.0,,,,2.17548506934197,-2.89961133508129,-1.51985081423839,,3.6171981792921093,,
,6028.0,605.0,3996.0,664.0,-147.0,1878.0,3511.0,,,,2.17643809238473,-2.90009168598056,-1.52021050821724,,3.342119915914247,,
,6034.0,605.0,3998.0,667.0,-152.0,1876.0,3509.0,,,,2.17653194187448,-2.89908678027781,-1.52031852436609,,3.0081341513094118,,
,6035.0,606.0,4002.0,667.0,-153.0,1890.0,3496.0,,,,2.17671347071796,-2.89856367108912,-1.51948624290163,,2.6259253994052036,,
,6035.0,606.0,4004.0,665.0,-148.0,1879.0,3505.0,,,,2.17692245920346,-2.89933852635617,-1.52083603392376,,2.207787712021983,,
,6037.0,606.0,4003.0,666.0,-161.0,1884.0,3514.0,,,,2.17571184458063,-2.89952170971132,-1.52054537389171,,1.7669407944341105,,
,6037.0,605.0,4005.0,666.0,-180.0,1889.0,3511.0,,,,2.17399911741485,-2.90076491688392,-1.51930586184936,,1.3167673600245262,,
,6042.0,606.0,4011.0,665.0,-168.0,1893.0,3471.0,,,,2.17050215224953,-2.90161434191458,-1.52008655647757,,0.8700502219454,,
,6045.0,605.0,4011.0,670.0,-170.0,1898.0,3458.0,,,,2.16674064316384,-2.90264235361238,-1.51887914104834,,0.4382878825082019,,
,6046.0,609.0,4011.0,667.0,-159.0,1883.0,3486.0,,,,2.16445275714165,-2.90355051409103,-1.51930959294786,,0.03115438914389826,,
,6047.0,606.0,4012.0,669.0,-154.0,1880.0,3495.0,,,,2.16081242274517,-2.90431429381558,-1.51851387000105,,-0.3438533094921346,,
,6051.0,610.0,4017.0,668.0,-171.0,1882.0,3484.0,,,,2.15895377058762,-2.90458841132854,-1.51955199898155,,-0.6815638267985682,,
,6051.0,608.0,4017.0,670.0,-178.0,1882.0,3485.0,,,,2.1575169436809,-2.90555896979559,-1.51871101954611,,-0.979084495764849,,
,6057.0,610.0,4020.0,670.0,-172.0,1871.0,3501.0,,,,2.15470712110243,-2.90616711322384,-1.51828041871198,,-1.2355892288487864,,
,6059.0,608.0,4024.0,670.0,-164.0,1864.0,3501.0,,,,2.15410052400901,-2.90722829436572,-1.51855469261159,,-1.451985954449921,,
,6063.0,609.0,4025.0,672.0,-159.0,1879.0,3470.0,,,,2.15302467337782,-2.90684509269331,-1.51818390082686,,-1.6305164558325913,,
,6063.0,610.0,4026.0,672.0,-157.0,1887.0,3464.0,,,,2.15234792534498,-2.9071952825184,-1.51784881393884,,-1.7743425438290241,,
,6065.0,613.0,4029.0,671.0,-161.0,1890.0,3481.0,,,,2.15199795929047,-2.90706334285112,-1.51834822430354,,-1.8871670638733677,,
,6067.0,610.0,4028.0,671.0,-171.0,1881.0,3498.0,,,,2.15252906997304,-2.9070687527792,-1.51790770254069,,-1.9729267030249658,,
,6067.0,609.0,4027.0,671.0,-173.0,1889.0,3502.0,,,,2.1521237171385,-2.90718046843997,-1.51870802119717,,-2.035576966628836,,
,6067.0,611.0,4028.0,670.0,-165.0,1879.0,3507.0,,,,2.15165242725306,-2.90760887639262,-1.51868976132677,,-2.0789704542376444,,
,6067.0,612.0,4023.0,669.0,-162.0,1882.0,3491.0,,,,2.15098867828448,-2.90693511494815,-1.51832113021015,,-2.106811656421604,,
,6069.0,613.0,4022.0,671.0,-171.0,1898.0,3468.0,,,,2.15144095175645,-2.90686351602522,-1.51887940665596,,-2.1226592688588846,,
,6066.0,610.0,4017.0,666.0,-176.0,1896.0,3488.0,,,,2.15368427738096,-2.90660907059117,-1.51812017184514,,-2.1299430518924853,,
,6064.0,609.0,4013.0,667.0,-171.0,1881.0,3515.0,,,,2.15432786395116,-2.90641511994085,-1.51918380747039,,-2.131966105580362,,
,6060.0,609.0,4006.0,666.0,-160.0,1867.0,3514.0,,,,2.15499883194412,-2.90597341012025,-1.51782624235843,,-2.131872461850689,,
,6052.0,611.0,4001.0,664.0,-159.0,1856.0,3528.0,,,,2.15574741515689,-2.90589496796507,-1.51849897252564,,-2.1325711267074325,,
,6043.0,606.0,3998.0,662.0,-166.0,1867.0,3511.0,,,,2.15608999511964,-2.90500799434047,-1.51887652315582,,-2.13661884271742,,
,6038.0,605.0,3994.0,659.0,-152.0,1874.0,3485.0,,,,2.1580117379576,-2.9055899251831,-1.51878203571536,,-2.1460733899664075,,
,6030.0,603.0,3990.0,661.0,-158.0,1878.0,3501.0,,,,2.15775900307129,-2.90516142176272,-1.51910562647198,,-2.1623363129852438,,
,6022.0,603.0,3983.0,658.0,-156.0,1874.0,3485.0,,,,2.15836505837547,-2.9046514511748,-1.51842673475027,,-2.186008077891223,,
,6013.0,605.0,3982.0,658.0,-157.0,1874.0,3508.0,,,,2.15870126842856,-2.90461826607009,-1.51873038343293,,-2.216779484654492,,
,6005.0,603.0,3977.0,656.0,-147.0,1891.0,3499.0,,,,2.16071544633993,-2.90442845826135,-1.51895685164444,,-2.2533802253033226,,
,6000.0,603.0,3976.0,657.0,-167.0,1893.0,3511.0,,,,2.16197843069612,-2.90462502352835,-1.51856524318818,,-2.293598422261063,,
,5992.0,602.0,3975.0,655.0,-165.0,1895.0,3494.0,,,,2.1630133215184,-2.90385264715281,-1.51947187108887,,-2.334374315449582,,
,5988.0,600.0,3971.0,654.0,-174.0,1876.0,3489.0,,,,2.16195121990363,-2.90374950234909,-1.51931805104957,,-2.371959178605477,,
,5982.0,598.0,3970.0,654.0,-182.0,1892.0,3489.0,,,,2.16334251536599,-2.90348090756183,-1.51978369379175,,-2.4021205862126696,,
,5980.0,601.0,3970.0,653.0,-178.0,1875.0,3509.0,,,,2.16256849342473,-2.90393345139134,-1.51758034796571,,-2.4203704403247914,,
,5977.0,601.0,3969.0,656.0,-165.0,1881.0,3497.0,,,,2.16299155405047,-2.90339856938091,-1.51961843441781,,-2.422193461704877,,
,5974.0,601.0,3967.0,655.0,-157.0,1881.0,3479.0,,,,2.16267375691228,-2.9040602718791,-1.51863286209373,,-2.4032593364229284,,
,5970.0,601.0,3969.0,655.0,-174.0,1864.0,3500.0,,,,2.16276277890979,-2.90394329258431,-1.51856181517813,,-2.3596085119385295,,
,5968.0,603.0,3972.0,654.0,-156.0,1849.0,3518.0,,,,2.16282599911088,-2.90398797059007,-1.51876075675836,,-2.2878074853029213,,
,5966.0,601.0,3970.0,653.0,-157.0,1853.0,3511.0,,,,2.16295525817594,-2.90421051860328,-1.51962376929007,,-2.185073297814629,,
,5963.0,602.0,3970.0,654.0,-154.0,1865.0,3490.0,,,,2.1623742727958,-2.90401268177354,-1.51814067133104,,-2.049368857284177,,
,5962.0,603.0,3968.0,652.0,-169.0,1885.0,3460.0,,,,2.1619390722702,-2.90387308153925,-1.51895631001376,,-1.8794713012492086,,
,5958.0,600.0,3969.0,653.0,-163.0,1872.0,3471.0,,,,2.16273564949062,-2.9033952008195,-1.5187974878347,,-1.6750157978638809,,
,5960.0,601.0,3969.0,654.0,-157.0,1859.0,3505.0,,,,2.16234869437268,-2.90399192417531,-1.51813735184389,,-1.4365175785475641,,
,5957.0,601.0,3970.0,655.0,-159.0,1871.0,3511.0,,,,2.16067940404181,-2.90309719873712,-1.51974794559069,,-1.1653754298495451,,
,5958.0,603.0,3972.0,652.0,-161.0,1866.0,3517.0,,,,2.16078612583455,-2.90462691298575,-1.51957339611552,,-0.8638594896492044,,
,5957.0,601.0,3971.0,654.0,-160.0,1875.0,3492.0,,,,2.16092355505171,-2.90388087037924,-1.52018379790654,,-0.5350844866114662,,
,5958.0,602.0,3971.0,654.0,-165.0,1883.0,3480.0,,,,2.16115230117274,-2.90434208074705,-1.51882263763865,,-0.1829673581793926,,
,5958.0,602.0,3973.0,654.0,-166.0,1876.0,3486.0,,,,2.1607660751968,-2.90412506708762,-1.5190127841755,,0.18783275148749054,,
,5958.0,606.0,3977.0,655.0,-159.0,1877.0,3475.0,,,,2.16145075387026,-2.90394032229828,-1.5192003343846,,0.5719927431318079,,
,5952.0,604.0,3977.0,654.0,-157.0,1888.0,3495.0,,,,2.16135410010386,-2.90424703516534,-1.51910880753204,,0.963619838663392,,
,5955.0,602.0,3976.0,655.0,-170.0,1903.0,3477.0,,,,2.16191242227911,-2.90385234453357,-1.51777815082275,,1.3563572810703084,,
,5958.0,606.0,3977.0,656.0,-162.0,1881.0,3501.0,,,,2.16198201261204,-2.90313640548847,-1.51793615319663,,1.7434964362804066,,
,5957.0,605.0,3977.0,655.0,-153.0,1862.0,3494.0,,,,2.16302218994851,-2.90452261126809,-1.51878245527542,,2.118091903484637,,
,5954.0,603.0,3977.0,655.0,-146.0,1867.0,3487.0,,,,2.16292341265823,-2.90353225584315,-1.51953741798634,,2.473078927539158,,
,5956.0,604.0,3977.0,655.0,-159.0,1856.0,3507.0,,,,2.16279767418828,-2.9039184596852,-1.51941869534153,,2.8013948833331024,,
,5957.0,606.0,3977.0,656.0,-166.0,1876.0,3498.0,,,,2.16318736598676,-2.9037425545378,-1.51888567075579,,3.0961079764942845,,
,5958.0,605.0,3981.0,656.0,-161.0,1879.0,3492.0,,,,2.16448190797859,-2.90408541923494,-1.51881382497999,,3.350556418503947,,
,5958.0,602.0,3980.0,656.0,-150.0,1869.0,3492.0,,,,2.16463849114842,-2.9035118912559,-1.52015886725994,,3.55850077083815,,
,5954.0,603.0,3977.0,654.0,-168.0,1852.0,3512.0,,,,2.16467922730072,-2.90360578592109,-1.5194051984574,,3.714291774716443,,
,5957.0,604.0,3979.0,655.0,-172.0,1860.0,3502.0,,,,2.16646908684394,-2.90384671632763,-1.51926848886852,,3.813056037300155,,
,5955.0,607.0,3981.0,656.0,-157.0,1880.0,3486.0,,,,2.16597368628688,-2.90290268451423,-1.51920489871703,,3.850901354019642,,
,5958.0,607.0,3983.0,656.0,-163.0,1883.0,3480.0,,,,2.16627135363616,-2.90291570073439,-1.51938781346859,,3.8251402312212286,,
,5957.0,603.0,3982.0,654.0,-156.0,1880.0,3501.0,,,,2.16652370001256,-2.90242327767261,-1.51914964087969,,3.7345231266739014,,
,5956.0,604.0,3983.0,655.0,-146.0,1881.0,3504.0,,,,2.16727715883992,-2.9026406995982,-1.51966926689819,,3.5794631365030987,,
,5956.0,608.0,3984.0,657.0,-158.0,1891.0,3496.0,,,,2.16764291325743,-2.90272701540414,-1.51958986473162,,3.3622244935490797,,
,5957.0,606.0,3983.0,657.0,-168.0,1895.0,3498.0,,,,2.16892850237198,-2.90203438666098,-1.51994186118081,,3.087041788552101,,
,5955.0,606.0,3984.0,655.0,-176.0,1876.0,3500.0,,,,2.16918021038192,-2.90323672354469,-1.52052401764649,,2.760137453013515,,
,5954.0,607.0,3984.0,656.0,-168.0,1892.0,3466.0,,,,2.16961904062771,-2.90251764456863,-1.51969930158233,,2.3896121256197547,,
,5955.0,606.0,3986.0,657.0,-159.0,1879.0,3502.0,,,,2.17027307526644,-2.90134648328508,-1.51903986016982,,1.985194928828126,,
,5955.0,605.0,3985.0,656.0,-161.0,1879.0,3519.0,,,,2.17039545180253,-2.90254587648011,-1.51948687966557,,1.5578562457160487,,
,5956.0,606.0,3987.0,659.0,-157.0,1870.0,3518.0,,,,2.17203462977185,-2.90146962406095,-1.51908146469903,,1.1193017479370637,,
,5956.0,604.0,3985.0,655.0,-159.0,1879.0,3489.0,,,,2.17111340587365,-2.90084180949906,-1.51947305249212,,0.6813809815416636,,
,5959.0,607.0,3986.0,657.0,-163.0,1871.0,3467.0,,,,2.17137027895695,-2.90093433418894,-1.51969067600431,,0.25545538281598046,,
,5957.0,606.0,3989.0,657.0,-177.0,1873.0,3493.0,,,,2.17226952405047,-2.90084756654404,-1.51907527788206,,-0.1482216403001219,,
,5958.0,608.0,3991.0,659.0,-182.0,1871.0,3497.0,,,,2.17242325050132,-2.90141352905189,-1.52024124680948,,-0.5210569420561488,,
,5960.0,608.0,3992.0,656.0,-173.0,1879.0,3500.0,,,,2.17334154797104,-2.90060663028119,-1.51992024443421,,-0.8565498738790395,,
,5961.0,608.0,3993.0,656.0,-174.0,1880.0,3511.0,,,,2.17447704961821,-2.90070561560813,-1.51893462234389,,-1.1505629697613602,,
,5963.0,608.0,3996.0,657.0,-167.0,1888.0,3523.0,,,,2.17395921672721,-2.90020242504512,-1.51877364883051,,-1.4014070062283734,,
,5963.0,609.0,3998.0,655.0,-161.0,1886.0,3511.0,,,,2.17455994194474,-2.90026017737978,-1.51915197111763,,-1.6097374430460156,,
,5963.0,610.0,3996.0,658.0,-168.0,1875.0,3467.0,,,,2.17502195427574,-2.89976549248025,-1.51796023723868,,-1.7782798679651701,,
,5966.0,611.0,3998.0,658.0,-170.0,1868.0,3469.0,,,,2.17596191685747,-2.89999664437209,-1.51883068209536,,-1.9114189270501163,,
,5970.0,610.0,4000.0,658.0,-157.0,1867.0,3468.0,,,,2.17669092584768,-2.90038408875835,-1.52020710584926,,-2.0146964975654713,,
,5971.0,610.0,4004.0,658.0,-155.0,1872.0,3488.0,,,,2.17674153982011,-2.90001364620747,-1.52035192667969,,-2.094270014105227,,
,5974.0,610.0,4003.0,657.0,-166.0,1848.0,3503.0,,,,2.17797757977945,-2.89913431903707,-1.52057919904586,,-2.156381255136133,,
,5972.0,607.0,4004.0,655.0,-168.0,1864.0,3505.0,,,,2.17747230926238,-2.89950653042504,-1.51942836708826,,-2.206880386946504,,
,5975.0,611.0,4006.0,658.0,-166.0,1889.0,3495.0,,,,2.17757360896015,-2.89913770198517,-1.51961429801683,,-2.2508405166116656,,
,5977.0,612.0,4009.0,661.0,-162.0,1889.0,3489.0,,,,2.17673660316026,-2.90029957947286,-1.52058378570729,,-2.292285096308962,,
,5980.0,612.0,4011.0,661.0,-158.0,1879.0,3482.0,,,,2.17515162604328,-2.90055086045608,-1.52003569460209,,-2.334035059323633,,
,5983.0,613.0,4012.0,662.0,-162.0,1870.0,3511.0,,,,2.17243458733005,-2.90126731988965,-1.51995870708315,,-2.3776662703521216,,
,5983.0,614.0,4016.0,659.0,-161.0,1872.0,3513.0,,,,2.16843376471905,-2.90346623618944,-1.5190844422676,,-2.4235538445855607,,
,5986.0,613.0,4017.0,664.0,-161.0,1886.0,3521.0,,,,2.16495205590774,-2.90366266712577,-1.51844220726295,,-2.470971847390596,,
,5987.0,616.0,4018.0,661.0,-169.0,1889.0,3525.0,,,,2.16135640044439,-2.90402931126852,-1.51796567962391,,-2.5182170922630367,,
,5988.0,613.0,4020.0,663.0,-170.0,1883.0,3489.0,,,,2.15956903816501,-2.90508794398817,-1.51842750452928,,-2.5627334379268016,,
,5989.0,613.0,4020.0,663.0,-169.0,1871.0,3501.0,,,,2.15694310840899,-2.90551736193524,-1.51871783344713,,-2.601224886992151,,
,5997.0,615.0,4023.0,664.0,-166.0,1888.0,3520.0,,,,2.15515213333681,-2.90635198945383,-1.51848508255604,,-2.6297581102275007,,
,5995.0,617.0,4026.0,663.0,-159.0,1890.0,3515.0,,,,2.15401089330669,-2.90673942216144,-1.51883553846623,,-2.6438648813482235,,
2025-06-30 18:00:55,5998.0,616.0,4028.0,664.0,-163.0,1888.0,3500.0,,,2025/06/30 06:00:55 PM,2.15318771323071,-2.90728195324341,-1.51715598158026,,-2.6386606416939005,,
,5999.0,613.0,4027.0,663.0,-152.0,1884.0,3488.0,,,,2.15246573824457,-2.90701687172713,-1.51867068534658,,-2.608996336530779,,
,6002.0,617.0,4032.0,666.0,-177.0,1863.0,3476.0,,,,2.15280610492678,-2.90765079743899,-1.5177872554276,,-2.5496568964159176,,
,6008.0,620.0,4036.0,667.0,-171.0,1872.0,3484.0,,,,2.1511670728256,-2.90785921857429,-1.51817872915507,,-2.4556120713638356,,
,6008.0,619.0,4035.0,667.0,-162.0,1870.0,3497.0,,,,2.15039808291557,-2.90820588339439,-1.51867666744496,,-2.322314947030862,,
,6007.0,617.0,4034.0,667.0,-167.0,1879.0,3480.0,,,,2.1515269053849,-2.90738745573852,-1.51824189067083,,-2.146031722755854,,
,6012.0,617.0,4036.0,667.0,-166.0,1892.0,3495.0,,,,2.15081061292507,-2.90795947388114,-1.51847369503653,,-1.924174842995239,,
,6015.0,617.0,4039.0,667.0,-163.0,1890.0,3505.0,,,,2.15158067171034,-2.90795783274579,-1.51842155844316,,-1.655602687686534,,
,6016.0,619.0,4041.0,666.0,-165.0,1886.0,3520.0,,,,2.15239284936006,-2.90765680372891,-1.51827669717146,,-1.3408458591612824,,
,6019.0,620.0,4043.0,668.0,-180.0,1891.0,3499.0,,,,2.15297775219903,-2.90741427150827,-1.51887897456854,,-0.9822254108482791,,
,6019.0,618.0,4044.0,666.0,-164.0,1869.0,3481.0,,,,2.15274278360947,-2.90711340438736,-1.51926827080855,,-0.5838424338247906,,
,6023.0,621.0,4047.0,669.0,-161.0,1870.0,3478.0,,,,2.15382557235125,-2.90694563622202,-1.51930037331201,,-0.15143794909938543,,
,6025.0,622.0,4048.0,669.0,-183.0,1881.0,3481.0,,,,2.15429027378676,-2.90601477459413,-1.51780344398757,,0.30785842433574007,,
,6024.0,620.0,4046.0,668.0,-178.0,1890.0,3491.0,,,,2.15549644147859,-2.90635126188791,-1.51804699960754,,0.7858578852169417,,
,6025.0,620.0,4045.0,665.0,-167.0,1888.0,3493.0,,,,2.15575444267786,-2.90557404522083,-1.51872881168139,,1.2736794081512808,,
,6026.0,620.0,4047.0,667.0,-172.0,1899.0,3499.0,,,,2.15761036702045,-2.90652134886327,-1.51894253099085,,1.7621135850737826,,
,6026.0,622.0,4042.0,668.0,-169.0,1874.0,3501.0,,,,2.15778342553638,-2.90574798596076,-1.51730811365386,,2.2419484363210036,,
,6028.0,621.0,4037.0,666.0,-161.0,1876.0,3495.0,,,,2.15824006716917,-2.904685561862,-1.51801240632615,,2.7042320014393826,,
,6022.0,618.0,4033.0,664.0,-156.0,1878.0,3488.0,,,,2.15814220724672,-2.9053355868094,-1.51914565801428,,3.140458554436533,,
,6018.0,619.0,4027.0,662.0,-142.0,1858.0,3500.0,,,,2.15891542945891,-2.90629021557551,-1.51749913523271,,3.542678506111857,,
,6015.0,619.0,4023.0,663.0,-153.0,1868.0,3493.0,,,,2.15921043352422,-2.90550459364319,-1.51950182116623,,3.9035456009368277,,
,6007.0,617.0,4019.0,662.0,-150.0,1863.0,3492.0,,,,2.15977551127094,-2.90523940477871,-1.51885156636795,,4.216327448471376,,
,5996.0,614.0,4010.0,658.0,-142.0,1857.0,3514.0,,,,2.16138325807692,-2.90434852447756,-1.51871289599528,,4.47491402235846,,
,5988.0,614.0,4007.0,656.0,-149.0,1870.0,3514.0,,,,2.16134078378757,-2.90455054222363,-1.51847494092928,,4.6738601015664205,,
,5977.0,616.0,4003.0,656.0,-159.0,1867.0,3489.0,,,,2.16153776725742,-2.90390610249742,-1.51951828144375,,4.808489694870385,,
,5969.0,614.0,3998.0,654.0,-147.0,1880.0,3475.0,,,,2.1630601561666,-2.9041394435574,-1.52027853125928,,4.875074442257433,,
,5959.0,613.0,4000.0,655.0,-148.0,1887.0,3472.0,,,,2.16176505438277,-2.90412136970194,-1.51898945135462,,4.871077861860716,,
,5955.0,612.0,3991.0,654.0,-159.0,1878.0,3504.0,,,,2.16171727104666,-2.90459385115518,-1.51884849179155,,4.795438007162502,,
,5947.0,611.0,3992.0,655.0,-171.0,1881.0,3495.0,,,,2.16141173694285,-2.90366314312855,-1.51934770940926,,4.648846542511972,,
,5943.0,615.0,3990.0,654.0,-172.0,1891.0,3482.0,,,,2.16084133294951,-2.90508191706445,-1.51900144015741,,4.433974760367484,,
,5937.0,613.0,3988.0,653.0,-165.0,1885.0,3490.0,,,,2.16062622718774,-2.90465187565831,-1.51934134878916,,4.1555976024885295,,
,5934.0,613.0,3986.0,650.0,-151.0,1891.0,3487.0,,,,2.16156329429531,-2.90451294418749,-1.51877343424693,,3.8205752741147654,,
,5929.0,611.0,3986.0,652.0,-153.0,1890.0,3488.0,,,,2.16039152478468,-2.90445302860402,-1.51950459363392,,3.437667788721958,,
,5923.0,611.0,3986.0,652.0,-148.0,1868.0,3486.0,,,,2.16029415840067,-2.90458817109975,-1.51834885815978,,3.0171792825026293,,
,5923.0,611.0,3988.0,650.0,-160.0,1870.0,3488.0,,,,2.16058409907381,-2.90502399792608,-1.51960873740158,,2.5704536759412226,,
,5921.0,611.0,3986.0,652.0,-170.0,1882.0,3477.0,,,,2.16068866745964,-2.90489807222963,-1.51891714440916,,2.109267178066959,,
,5919.0,610.0,3986.0,651.0,-157.0,1868.0,3489.0,,,,2.16060536512989,-2.90462676908767,-1.51900649328529,,1.6451808832373953,,
,5919.0,615.0,3985.0,655.0,-149.0,1870.0,3511.0,,,,2.16035403999787,-2.90500689855601,-1.5188705934077,,1.188923450638242,,
,5916.0,612.0,3986.0,653.0,-138.0,1867.0,3506.0,,,,2.16171261302653,-2.90436783005077,-1.51967360050971,,0.749867745553833,,
,5914.0,613.0,3988.0,653.0,-131.0,1874.0,3486.0,,,,2.16016032666927,-2.90482155075155,-1.51870839825734,,0.33564858022577765,,
,5911.0,610.0,3985.0,651.0,-151.0,1868.0,3494.0,,,,2.15979819460523,-2.90497762708945,-1.51877965363652,,-0.04805381421458368,,
,5914.0,613.0,3987.0,653.0,-173.0,1866.0,3488.0,,,,2.16024568613075,-2.90529133252812,-1.51973280160134,,-0.3975630775961964,,
,5914.0,613.0,3989.0,653.0,-192.0,1868.0,3497.0,,,,2.16038755878299,-2.90471926422112,-1.51829393000241,,-0.7111070770082542,,
,5912.0,613.0,3988.0,652.0,-184.0,1879.0,3496.0,,,,2.16127947169056,-2.90454506034631,-1.51884256130498,,-0.9886018137625242,,
,5914.0,611.0,3988.0,651.0,-169.0,1884.0,3498.0,,,,2.16254252725106,-2.90420424336563,-1.51878234568948,,-1.2313590534949572,,
,5912.0,614.0,3989.0,653.0,-159.0,1873.0,3508.0,,,,2.16310482896371,-2.90446901130526,-1.51919432135351,,-1.441759225004469,,
,5913.0,613.0,3993.0,652.0,-167.0,1868.0,3489.0,,,,2.16336435456613,-2.90467711937303,-1.52006008625397,,-1.6229268151808351,,
,5916.0,612.0,3992.0,654.0,-172.0,1871.0,3487.0,,,,2.1641685551084,-2.90428670989651,-1.5192396600868,,-1.778436202908451,,
,5913.0,614.0,3992.0,652.0,-177.0,1875.0,3467.0,,,,2.1650029359323,-2.90407621102582,-1.51865124724439,,-1.9120627311674219,,
,5913.0,613.0,3992.0,653.0,-163.0,1879.0,3492.0,,,,2.16507183036707,-2.90428224555534,-1.51897879165245,,-2.027579002121529,,
,5916.0,614.0,3992.0,653.0,-147.0,1871.0,3496.0,,,,2.16636653059589,-2.90371777258515,-1.52030390064106,,-2.1285834727243738,,
,5915.0,615.0,3994.0,653.0,-156.0,1865.0,3489.0,,,,2.16565750961111,-2.90387804381111,-1.51948816700915,,-2.218341416913833,,
,5916.0,615.0,3993.0,654.0,-161.0,1873.0,3483.0,,,,2.16614536057043,-2.90354869994011,-1.51974863670526,,-2.29961950241646,,
,5914.0,614.0,3994.0,653.0,-162.0,1866.0,3486.0,,,,2.16701820795725,-2.90353278546466,-1.51974796677544,,-2.37450377958833,,
,5917.0,615.0,3996.0,655.0,-154.0,1879.0,3481.0,,,,2.16640698473154,-2.90272784372386,-1.52033812812624,,-2.444203543313172,,
,5916.0,616.0,3997.0,655.0,-152.0,1881.0,3479.0,,,,2.16700283352253,-2.90253617610115,-1.5204670932549,,-2.508856567171588,,
,5918.0,616.0,3995.0,653.0,-163.0,1884.0,3467.0,,,,2.16785728293339,-2.90234972205413,-1.51940570779769,,-2.5673617367045978,,
,5916.0,614.0,3994.0,655.0,-171.0,1877.0,3488.0,,,,2.16944586471784,-2.9026658145631,-1.5196680906981,,-2.6172713206859863,,
,5917.0,616.0,3996.0,652.0,-153.0,1880.0,3501.0,,,,2.16929760200113,-2.90170935120723,-1.52078170093367,,-2.6547760599390613,,
,5917.0,618.0,3997.0,655.0,-155.0,1888.0,3495.0,,,,2.16986574565829,-2.90122230644993,-1.5197447766024,,-2.674811618549306,,
,5915.0,617.0,3997.0,653.0,-153.0,1880.0,3504.0,,,,2.17003501453175,-2.90186820403465,-1.51883305221579,,-2.6713048924569835,,
,5918.0,617.0,3998.0,654.0,-164.0,1872.0,3513.0,,,,2.17104823819743,-2.90222225903564,-1.51996374421819,,-2.63756366223023,,
,5918.0,613.0,3998.0,652.0,-160.0,1879.0,3530.0,,,,2.17238251710774,-2.90211444849377,-1.52015323035821,,-2.566794034860271,,
,5918.0,616.0,4001.0,655.0,-149.0,1889.0,3520.0,,,,2.17168325960178,-2.90207202499027,-1.51938133999832,,-2.4527091176113887,,
,5919.0,616.0,4000.0,654.0,-146.0,1868.0,3498.0,,,,2.17324434802367,-2.90170149729274,-1.51976367331136,,-2.290173289668233,,
,5917.0,616.0,4001.0,656.0,-146.0,1883.0,3494.0,,,,2.17373377564314,-2.90125991020944,-1.51971138336782,,-2.075814466859837,,
,5919.0,616.0,4002.0,652.0,-142.0,1886.0,3490.0,,,,2.17355954026382,-2.90094860982267,-1.52006585673815,,-1.808536168033162,,
,5920.0,616.0,4002.0,653.0,-148.0,1883.0,3481.0,,,,2.17418644922992,-2.90026700628949,-1.5199854386281,,-1.4898728451655405,,
,5919.0,618.0,4003.0,656.0,-152.0,1876.0,3497.0,,,,2.17379422551708,-2.90080318659752,-1.52038009215079,,-1.1241526175344787,,
,5919.0,618.0,4003.0,656.0,-146.0,1877.0,3493.0,,,,2.17424127568072,-2.90075424989247,-1.51953194138737,,-0.7184556956825574,,
,5920.0,616.0,4005.0,654.0,-160.0,1866.0,3519.0,,,,2.1735409398849,-2.90088895235508,-1.5202616031325,,-0.2823790768367865,,
,5921.0,620.0,4007.0,656.0,-159.0,1859.0,3500.0,,,,2.17636435845706,-2.90104447211324,-1.51991401167248,,0.1723648442085074,,
,5922.0,614.0,4004.0,653.0,-154.0,1875.0,3513.0,,,,2.17559269857518,-2.90015382016035,-1.51970956617751,,0.6324774385245071,,
,5923.0,619.0,4009.0,656.0,-154.0,1886.0,3498.0,,,,2.17551528466803,-2.90036085207198,-1.52063060809465,,1.0836877621456198,,
,5926.0,618.0,4007.0,656.0,-167.0,1892.0,3498.0,,,,2.17685357656755,-2.89965377133453,-1.52035027859769,,1.5114083321532619,,
,5926.0,615.0,4008.0,655.0,-160.0,1899.0,3475.0,,,,2.17625150201079,-2.90038022155371,-1.51915878517675,,1.9013937196280812,,
,5926.0,619.0,4013.0,655.0,-166.0,1904.0,3470.0,,,,2.17612860736208,-2.89984876164283,-1.51880884589356,,2.2403696633948975,,
,5931.0,620.0,4013.0,657.0,-148.0,1894.0,3476.0,,,,2.17668374091561,-2.90004899023444,-1.51985307659327,,2.516608996266665,,
,5932.0,618.0,4016.0,654.0,-155.0,1897.0,3478.0,,,,2.17668856657799,-2.89989630640124,-1.5204205528667,,2.7204392042252774,,
,5933.0,618.0,4014.0,657.0,-163.0,1893.0,3502.0,,,,2.17715575179665,-2.89964141100251,-1.51923322691704,,2.844672150871145,,
,5934.0,621.0,4020.0,657.0,-157.0,1896.0,3476.0,,,,2.17730594640579,-2.89917659009224,-1.52006300144035,,2.884947176431826,,
,5939.0,622.0,4022.0,659.0,-159.0,1888.0,3476.0,,,,2.17757729191254,-2.89979125101453,-1.52043962260166,,2.83997465049347,,
,5940.0,620.0,4021.0,659.0,-162.0,1891.0,3488.0,,,,2.17578285852548,-2.90000558388115,-1.51987953676179,,2.7116612405353284,,
,5941.0,619.0,4026.0,660.0,-155.0,1887.0,3485.0,,,,2.17310562698321,-2.90030060166361,-1.52023357752641,,2.5050949963225486,,
,5942.0,621.0,4023.0,659.0,-159.0,1900.0,3489.0,,,,2.1692745298189,-2.90150409177469,-1.51960456314579,,2.2283710470672626,,
,5944.0,623.0,4024.0,659.0,-154.0,1878.0,3486.0,,,,2.16485213516628,-2.90366991218296,-1.51876936652551,,1.8922479920897515,,
,5947.0,621.0,4029.0,661.0,-155.0,1878.0,3484.0,,,,2.16107473613645,-2.90394346607672,-1.51823189994043,,1.5096393194293267,,
,5949.0,622.0,4030.0,660.0,-181.0,1897.0,3482.0,,,,2.15909874443906,-2.90516246093943,-1.51881841364695,,1.0949604761452365,,
,5950.0,619.0,4031.0,660.0,-166.0,1894.0,3475.0,,,,2.15654761470703,-2.9054804391033,-1.51780678883134,,0.6633675376571727,,
,5954.0,620.0,4035.0,661.0,-160.0,1868.0,3497.0,,,,2.15457013242644,-2.90640452474595,-1.51886477084101,,0.22993570253562207,,
,5957.0,625.0,4036.0,663.0,-151.0,1886.0,3498.0,,,,2.15345204886526,-2.90698504411003,-1.51751966104242,,-0.1911657653586882,,
,5958.0,622.0,4038.0,662.0,-160.0,1892.0,3505.0,,,,2.15275547200664,-2.90736308124685,-1.51850617415975,,-0.5874411783249484,,
,5959.0,624.0,4038.0,663.0,-162.0,1891.0,3491.0,,,,2.15060892756797,-2.90741153585007,-1.51759722614905,,-0.9487179360916617,,
,5962.0,623.0,4039.0,662.0,-154.0,1871.0,3487.0,,,,2.14969753441512,-2.90798933822726,-1.51719457154323,,-1.2676234440287513,,
,5966.0,625.0,4044.0,663.0,-166.0,1862.0,3480.0,,,,2.14910622620546,-2.90835469441458,-1.51763902258907,,-1.5398484249026312,,
,5968.0,625.0,4045.0,663.0,-168.0,1862.0,3472.0,,,,2.14945935585518,-2.90855532301095,-1.51898387889256,,-1.7641755759633506,,
,5971.0,623.0,4046.0,663.0,-165.0,1882.0,3500.0,,,,2.14878796771047,-2.90908728733014,-1.51820373040842,,-1.9422759633162792,,
,5972.0,624.0,4047.0,663.0,-156.0,1889.0,3508.0,,,,2.14936464144996,-2.90925452162097,-1.51707569250133,,-2.0782983719665236,,
,5975.0,628.0,4050.0,668.0,-151.0,1884.0,3508.0,,,,2.14974419292369,-2.90847876922966,-1.51801251070104,,-2.1782956262395716,,
,5977.0,628.0,4053.0,667.0,-150.0,1878.0,3515.0,,,,2.15106531707444,-2.9081235236782,-1.51869717101624,,-2.2495447019847563,,
,5982.0,627.0,4055.0,666.0,-153.0,1880.0,3503.0,,,,2.151120825416,-2.90810904970236,-1.51855754659904,,-2.2998236280726285,,
,5982.0,626.0,4055.0,665.0,-143.0,1889.0,3504.0,,,,2.15235380712297,-2.90763572251234,-1.5183435481177,,-2.3367079866213616,,
,5986.0,629.0,4057.0,665.0,-150.0,1889.0,3492.0,,,,2.15238019456938,-2.90797353381781,-1.51795715517701,,-2.366944030428095,,
,5985.0,626.0,4057.0,665.0,-170.0,1898.0,3504.0,,,,2.15271193135012,-2.90732765219345,-1.51762416387418,,-2.3959448706157493,,
,5989.0,628.0,4062.0,668.0,-171.0,1906.0,3488.0,,,,2.15308607299347,-2.90753817571019,-1.51805196875513,,-2.4274415284742075,,
,5990.0,626.0,4060.0,666.0,-169.0,1897.0,3499.0,,,,2.15325339902231,-2.90777088806038,-1.51720448075979,,-2.463302786664042,,
,5995.0,629.0,4065.0,666.0,-162.0,1883.0,3507.0,,,,2.1537906851072,-2.90712034301473,-1.51755965560257,,-2.5035186345414666,,
,5993.0,628.0,4062.0,667.0,-160.0,1890.0,3490.0,,,,2.15338445093279,-2.90667273413201,-1.51855654762851,,-2.54632500115666,,
,5997.0,627.0,4058.0,667.0,-160.0,1891.0,3489.0,,,,2.15401267727006,-2.90733367651156,-1.5175012969307,,-2.5884361451566464,,
,5994.0,628.0,4055.0,667.0,-170.0,1886.0,3514.0,,,,2.15464227960545,-2.9068511142533,-1.51860929777105,,-2.6253476584497144,,
,5993.0,629.0,4054.0,666.0,-155.0,1877.0,3519.0,,,,2.15420512875222,-2.90606122917167,-1.51876642444306,,-2.6516767430103494,,
,5992.0,626.0,4048.0,665.0,-159.0,1879.0,3505.0,,,,2.1562791023437,-2.90631186634242,-1.5189627779451,,-2.6615141578976655,,
,5991.0,626.0,4046.0,665.0,-172.0,1884.0,3498.0,,,,2.1566187066102,-2.9057504847467,-1.51916065019529,,-2.6487705683918836,,
,5984.0,626.0,4039.0,661.0,-168.0,1883.0,3478.0,,,,2.15776340619627,-2.90612034409727,-1.51917051582591,,-2.607506632370536,,
,5979.0,626.0,4033.0,662.0,-153.0,1869.0,3495.0,,,,2.15739397835591,-2.90541915024167,-1.51819029079902,,-2.5322401100732237,,
,5973.0,623.0,4027.0,661.0,-143.0,1865.0,3495.0,,,,2.15837456477477,-2.90490071844727,-1.51918090137532,,-2.4182247706334516,,
,5965.0,622.0,4024.0,658.0,-154.0,1879.0,3494.0,,,,2.15775790438611,-2.90547885183499,-1.51788228908853,,-2.2616958269178844,,
,5960.0,624.0,4019.0,660.0,-154.0,1879.0,3497.0,,,,2.1569410693246,-2.90520765749644,-1.51884129017867,,-2.060076241866536,,
,5950.0,619.0,4014.0,654.0,-166.0,1876.0,3475.0,,,,2.15856019784363,-2.90460100233615,-1.51830752068028,,-1.8121382870590463,,
,5942.0,622.0,4011.0,656.0,-156.0,1886.0,3474.0,,,,2.15874115295531,-2.90520100382666,-1.51837075381935,,-1.5181151890856093,,
,5934.0,624.0,4010.0,656.0,-150.0,1891.0,3501.0,,,,2.15903392871735,-2.90554681912229,-1.51789915385016,,-1.1797581443820733,,
,5930.0,619.0,4005.0,655.0,-159.0,1889.0,3500.0,,,,2.1597349023845,-2.90552525452605,-1.51885039232608,,-0.8003344715496998,,
,5920.0,618.0,4002.0,652.0,-161.0,1886.0,3493.0,,,,2.15913484417015,-2.90592626469769,-1.51906684209613,,-0.3845642101862678,,
,5916.0,619.0,4000.0,652.0,-166.0,1897.0,3505.0,,,,2.15849837262207,-2.90535075969746,-1.51879030959039,,0.06150379306406296,,
,5914.0,620.0,4000.0,654.0,-160.0,1899.0,3484.0,,,,2.15822506393462,-2.90593653047605,-1.51824798502464,,0.5306695648901671,,
,5913.0,620.0,4002.0,655.0,-152.0,1892.0,3486.0,,,,2.15788052492059,-2.90506049532943,-1.51884929795425,,1.0148009274852698,,
,5908.0,621.0,4001.0,653.0,-152.0,1892.0,3502.0,,,,2.15820465847301,-2.90519065246295,-1.51757892945267,,1.5050775073700637,,
,5905.0,617.0,4000.0,652.0,-159.0,1880.0,3511.0,,,,2.15782746604929,-2.90589423165571,-1.51924578982881,,1.9922432426721364,,
2025-06-30 18:00:56,5903.0,617.0,3998.0,654.0,-150.0,1888.0,3498.0,,,2025/06/30 06:00:56 PM,2.15709578979606,-2.90668627152848,-1.51989971735583,,2.4668531790670256,,
,5901.0,619.0,4000.0,653.0,-148.0,1864.0,3483.0,,,,2.15780487036551,-2.90603707640362,-1.51826920644267,,2.9195043600639807,,
,5902.0,619.0,3999.0,654.0,-148.0,1863.0,3487.0,,,,2.15708816119484,-2.90562130085467,-1.51795313397635,,3.3410450268053076,,
,5898.0,620.0,4000.0,652.0,-155.0,1868.0,3482.0,,,,2.1579188657103,-2.9057656632977,-1.5185027397939,,3.722760353030842,,
,5899.0,618.0,4002.0,653.0,-157.0,1885.0,3505.0,,,,2.15843601313804,-2.9051345274373,-1.51807886055839,,4.056536494453023,,
,5900.0,621.0,4002.0,655.0,-150.0,1882.0,3498.0,,,,2.15815847234714,-2.90554855198149,-1.51921938885498,,4.335008314574539,,
,5900.0,620.0,4003.0,656.0,-148.0,1871.0,3485.0,,,,2.15870676515768,-2.90577276797946,-1.5194038857576,,4.551700000188119,,
,5903.0,619.0,4004.0,655.0,-165.0,1882.0,3483.0,,,,2.1606686782238,-2.90579566760026,-1.51971424601003,,4.701170934207903,,
,5900.0,618.0,4002.0,654.0,-171.0,1889.0,3491.0,,,,2.1600447071938,-2.90443487502255,-1.51785633219589,,4.779179286308621,,
,5903.0,623.0,4006.0,657.0,-157.0,1899.0,3483.0,,,,2.16132066257066,-2.90472326064416,-1.5182893098573,,4.782870392816983,,
,5901.0,623.0,4009.0,658.0,-154.0,1904.0,3485.0,,,,2.16160703435157,-2.90504015346748,-1.51955231169194,,4.7109858772139255,,
,5902.0,621.0,4009.0,655.0,-171.0,1895.0,3493.0,,,,2.16199758740125,-2.90459602280463,-1.5188555210757,,4.564075477792395,,
,5902.0,619.0,4009.0,655.0,-156.0,1896.0,3476.0,,,,2.16243981230573,-2.90438725015209,-1.51850052879214,,4.344681231282531,,
,5904.0,620.0,4009.0,655.0,-157.0,1884.0,3516.0,,,,2.16215758340642,-2.90471374215829,-1.51877948102139,,4.057456863175597,,
,5905.0,621.0,4012.0,657.0,-165.0,1884.0,3506.0,,,,2.16159784154767,-2.90442158576834,-1.51884333744154,,3.709185828827946,,
,5906.0,622.0,4009.0,655.0,-165.0,1891.0,3497.0,,,,2.16256087667254,-2.90449544142875,-1.51892314322579,,3.3086693024851135,,
,5904.0,619.0,4009.0,656.0,-162.0,1871.0,3492.0,,,,2.16250250979985,-2.90387955618097,-1.51817063126909,,2.866468910242059,,
,5907.0,621.0,4012.0,654.0,-159.0,1843.0,3498.0,,,,2.16446720142508,-2.90403118951892,-1.51942836082669,,2.3945057384980237,,
,5906.0,623.0,4012.0,658.0,-165.0,1881.0,3497.0,,,,2.16489152100369,-2.90346541669561,-1.51895050891738,,1.9055346820587427,,
,5909.0,625.0,4011.0,658.0,-162.0,1875.0,3508.0,,,,2.16490243299865,-2.90312915885464,-1.51877750095475,,1.412529512266861,,
,5908.0,621.0,4012.0,655.0,-155.0,1863.0,3482.0,,,,2.16555061370501,-2.90370908105974,-1.52011845156324,,0.9280273348451176,,
,5907.0,621.0,4010.0,656.0,-152.0,1889.0,3485.0,,,,2.16628220617584,-2.90321569695505,-1.51936616339049,,0.4634893185994488,,
,5909.0,625.0,4014.0,657.0,-158.0,1889.0,3499.0,,,,2.16749140982018,-2.90237055696771,-1.51962836255454,,0.028735665196644812,,
,5909.0,622.0,4013.0,657.0,-157.0,1885.0,3493.0,,,,2.16822991563684,-2.90313631482827,-1.51964830594304,,-0.36849429140506945,,
,5910.0,624.0,4014.0,658.0,-158.0,1894.0,3492.0,,,,2.16672152701208,-2.90268111714498,-1.51942070866038,,-0.7228204036776457,,
,5907.0,620.0,4012.0,654.0,-163.0,1889.0,3502.0,,,,2.16733915788999,-2.90229421135478,-1.51852076214323,,-1.0313210822471395,,
,5911.0,620.0,4013.0,657.0,-162.0,1898.0,3485.0,,,,2.16874897943377,-2.90251280259394,-1.51883256529129,,-1.2934564178529195,,
,5912.0,625.0,4016.0,655.0,-161.0,1880.0,3493.0,,,,2.16885191019186,-2.90258580355143,-1.51921217850428,,-1.5108354506117097,,
,5910.0,624.0,4016.0,658.0,-160.0,1870.0,3488.0,,,,2.16891279367444,-2.9022719498923,-1.51971167019236,,-1.686861165604549,,
,5912.0,623.0,4012.0,656.0,-168.0,1882.0,3478.0,,,,2.16883910663497,-2.90191401693188,-1.51964864920788,,-1.826294574184252,,
,5913.0,625.0,4016.0,658.0,-171.0,1879.0,3485.0,,,,2.16944513307968,-2.90214452073933,-1.52060441580915,,-1.9347816939805165,,
,5911.0,621.0,4017.0,657.0,-166.0,1874.0,3461.0,,,,2.16974923264761,-2.90176838104737,-1.51943092393841,,-2.0183849578642703,,
,5913.0,622.0,4015.0,656.0,-170.0,1874.0,3462.0,,,,2.17062251263358,-2.90214978512596,-1.52006891183005,,-2.083154213226262,,
,5913.0,622.0,4017.0,656.0,-155.0,1901.0,3474.0,,,,2.17105346334167,-2.90141471661143,-1.51937242558418,,-2.1347625461614133,,
,5912.0,620.0,4016.0,658.0,-152.0,1907.0,3449.0,,,,2.17054243083096,-2.90143559986876,-1.52006676704581,,-2.178219464191442,,
,5917.0,625.0,4018.0,658.0,-157.0,1899.0,3483.0,,,,2.17180154065192,-2.90137247963125,-1.51918891509829,,-2.217660288612855,,
,5917.0,626.0,4024.0,659.0,-165.0,1888.0,3480.0,,,,2.17270397739866,-2.90133217353555,-1.5199220789216,,-2.2561990575068434,,
,5918.0,622.0,4022.0,659.0,-160.0,1888.0,3478.0,,,,2.17253978309753,-2.90124334436821,-1.51954777101791,,-2.2958262817581896,,
,5920.0,623.0,4022.0,656.0,-165.0,1890.0,3472.0,,,,2.17306238339216,-2.90124827098262,-1.52039382014364,,-2.3373343759177114,,
,5921.0,624.0,4023.0,658.0,-154.0,1870.0,3500.0,,,,2.17476276218056,-2.90118964142091,-1.51972346506752,,-2.3802614436278775,,
,5924.0,627.0,4024.0,659.0,-163.0,1897.0,3485.0,,,,2.17392648296679,-2.90086002972681,-1.51935755905357,,-2.4228549959518153,,
,5924.0,626.0,4026.0,661.0,-168.0,1900.0,3483.0,,,,2.17512846791795,-2.90015832946787,-1.5183079415621,,-2.4620673964776856,,
,5926.0,624.0,4028.0,657.0,-164.0,1907.0,3495.0,,,,2.17546634668508,-2.90101668451857,-1.51871367525746,,-2.4936017048789885,,
,5925.0,628.0,4028.0,661.0,-164.0,1901.0,3494.0,,,,2.17527855828527,-2.90050781120408,-1.5189653001672,,-2.5120288163255506,,
,5930.0,627.0,4030.0,662.0,-157.0,1885.0,3515.0,,,,2.17491605447037,-2.90031114152658,-1.52040934945904,,-2.510994030828659,,
,5931.0,626.0,4032.0,659.0,-162.0,1887.0,3521.0,,,,2.17501615748766,-2.89997840180231,-1.51941272902669,,-2.483523738939486,,
,5931.0,625.0,4031.0,659.0,-159.0,1885.0,3487.0,,,,2.17519310598741,-2.90004459156639,-1.51972059484047,,-2.4224315315559672,,
,5932.0,625.0,4034.0,661.0,-177.0,1894.0,3504.0,,,,2.17628536058249,-2.9002645460748,-1.51893407628133,,-2.320808839695685,,
,5938.0,628.0,4037.0,663.0,-171.0,1884.0,3479.0,,,,2.17459223150747,-2.90081748054594,-1.51969141992449,,-2.1725697926563328,,
,5941.0,628.0,4038.0,663.0,-173.0,1884.0,3474.0,,,,2.17177925386347,-2.90136812052986,-1.51916891632728,,-1.9730058753327477,,
,5943.0,631.0,4041.0,662.0,-170.0,1879.0,3484.0,,,,2.16845663959245,-2.90222953849,-1.51876170051724,,-1.7192967527687313,,
,5943.0,628.0,4042.0,663.0,-154.0,1893.0,3466.0,,,,2.16449830517471,-2.904169152985,-1.51930973548452,,-1.410922954663088,,
,5945.0,626.0,4042.0,663.0,-165.0,1882.0,3495.0,,,,2.16060845373017,-2.90481561678327,-1.5193287577046,,-1.0499355625270117,,
,5950.0,630.0,4045.0,664.0,-170.0,1865.0,3479.0,,,,2.15882946479868,-2.90545625578876,-1.51873436541871,,-0.641055587970241,,
,5951.0,628.0,4047.0,664.0,-175.0,1875.0,3480.0,,,,2.15743489025417,-2.90673005194698,-1.51847170879043,,-0.19159648137900548,,
,5950.0,627.0,4046.0,663.0,-169.0,1882.0,3472.0,,,,2.15494003840612,-2.90699179980705,-1.5185486637894,,0.28877794841014975,,
,5954.0,628.0,4049.0,662.0,-163.0,1886.0,3470.0,,,,2.15419667480264,-2.90703134066745,-1.51745875117309,,0.78843411528954,,
,5957.0,629.0,4051.0,666.0,-160.0,1900.0,3483.0,,,,2.15217459837009,-2.90825006852008,-1.51852293445378,,1.2942536311309507,,
,5961.0,630.0,4054.0,665.0,-170.0,1903.0,3498.0,,,,2.149934156063,-2.90857882876518,-1.5183920684374,,1.792185594772639,,
,5962.0,629.0,4055.0,666.0,-165.0,1901.0,3482.0,,,,2.14978627436588,-2.90836883540987,-1.51755797792416,,2.267829980204376,,
,5965.0,629.0,4055.0,667.0,-163.0,1903.0,3513.0,,,,2.14928925345086,-2.9091850103182,-1.51689671433665,,2.7070196712886614,,
,5963.0,630.0,4059.0,667.0,-153.0,1891.0,3511.0,,,,2.14931962456571,-2.90822475389026,-1.51803747433245,,3.096374879596996,,
,5969.0,633.0,4064.0,668.0,-158.0,1897.0,3490.0,,,,2.14918952577561,-2.90827768538378,-1.5193762447836,,3.423811846786266,,
,5971.0,635.0,4062.0,666.0,-151.0,1894.0,3471.0,,,,2.14867355732422,-2.90835374759668,-1.51789318011517,,3.678996558372536,,
,5971.0,631.0,4060.0,667.0,-157.0,1892.0,3489.0,,,,2.14919144178196,-2.90808952143534,-1.51884960978346,,3.8537410553155915,,
,5975.0,630.0,4065.0,669.0,-163.0,1885.0,3496.0,,,,2.14985439819514,-2.90896378867668,-1.51839061909925,,3.9423417731472683,,
,5977.0,634.0,4064.0,670.0,-171.0,1883.0,3489.0,,,,2.15064879591123,-2.90907084204891,-1.51849221385266,,3.9418547616562245,,
,5975.0,630.0,4061.0,668.0,-160.0,1882.0,3491.0,,,,2.15165248423053,-2.90884385981929,-1.51882101709548,,3.8522935128113827,,
,5975.0,632.0,4059.0,665.0,-158.0,1872.0,3498.0,,,,2.15172318541825,-2.90850609921477,-1.51844447810402,,3.6767260870191114,,
,5977.0,633.0,4055.0,667.0,-177.0,1866.0,3531.0,,,,2.1524214701067,-2.90775696355275,-1.51857935693161,,3.4212442359862987,,
,5973.0,634.0,4053.0,667.0,-168.0,1869.0,3504.0,,,,2.15270692485558,-2.90785287833162,-1.51838330920607,,3.0947811015077136,,
,5974.0,630.0,4046.0,663.0,-169.0,1869.0,3488.0,,,,2.1522603272105,-2.90761224845894,-1.51796542661532,,2.708765575362886,,
,5969.0,628.0,4040.0,661.0,-177.0,1859.0,3481.0,,,,2.15295430593257,-2.90741483989982,-1.52015933116303,,2.276617835720707,,
,5964.0,628.0,4034.0,663.0,-181.0,1890.0,3461.0,,,,2.15440788329557,-2.90729577545754,-1.51830844389619,,1.813108231664724,,
,5957.0,629.0,4032.0,660.0,-161.0,1883.0,3479.0,,,,2.15595066343653,-2.90696836720465,-1.51768746398642,,1.3336173476408129,,
,5951.0,628.0,4025.0,661.0,-158.0,1884.0,3486.0,,,,2.1559126481809,-2.90645488437741,-1.51834788105131,,0.8533468568850983,,
,5941.0,626.0,4019.0,656.0,-164.0,1887.0,3488.0,,,,2.15611925711712,-2.90616368515954,-1.51867981497414,,0.3865380386160367,,
,5933.0,624.0,4013.0,656.0,-159.0,1898.0,3492.0,,,,2.15662783186049,-2.90641330270144,-1.51742803167592,,-0.054242640043503446,,
,5925.0,625.0,4008.0,657.0,-147.0,1893.0,3498.0,,,,2.15717915072289,-2.90570041258887,-1.51814279270564,,-0.4586943887338799,,
,5921.0,626.0,4008.0,656.0,-167.0,1894.0,3493.0,,,,2.15726405546623,-2.90611501693582,-1.51847018228745,,-0.8192023143083109,,
,5915.0,623.0,4002.0,655.0,-161.0,1902.0,3502.0,,,,2.1582658229295,-2.90594150576693,-1.51903925246813,,-1.1310559048843583,,
,5908.0,622.0,4001.0,655.0,-165.0,1889.0,3482.0,,,,2.15867350528772,-2.9051468081491,-1.51904847032045,,-1.3924553058349838,,
,5902.0,620.0,3999.0,651.0,-159.0,1903.0,3484.0,,,,2.15885866022172,-2.90528287893182,-1.51894626310482,,-1.6043164686658868,,
,5901.0,621.0,3998.0,654.0,-166.0,1892.0,3486.0,,,,2.15952300429034,-2.90603969405692,-1.51853476468219,,-1.769904993178228,,
,5897.0,623.0,3994.0,652.0,-155.0,1894.0,3478.0,,,,2.15957358761651,-2.90580274567592,-1.51868278798532,,-1.894341965686942,,
,5891.0,621.0,3993.0,653.0,-158.0,1890.0,3499.0,,,,2.15858745507656,-2.90573891586596,-1.51955954821354,,-1.9840324211036713,,
,5892.0,621.0,3994.0,652.0,-166.0,1878.0,3502.0,,,,2.15868987047342,-2.90535858445267,-1.51781839043381,,-2.0460684684734276,,
,5891.0,621.0,3995.0,655.0,-159.0,1876.0,3490.0,,,,2.1596234413994,-2.90462928897866,-1.51822962026365,,-2.087655526148881,,
,5894.0,623.0,3994.0,655.0,-164.0,1875.0,3492.0,,,,2.15877161106285,-2.90583425994984,-1.51766087441402,,-2.11560258453394,,
,5889.0,622.0,3993.0,651.0,-170.0,1868.0,3529.0,,,,2.15889123444289,-2.90579673134096,-1.51905678068442,,-2.135906753776069,,
,5884.0,622.0,3991.0,652.0,-170.0,1880.0,3487.0,,,,2.15910628561881,-2.90617818660123,-1.51786846132396,,-2.1534491277702483,,
,5887.0,622.0,3992.0,654.0,-166.0,1869.0,3495.0,,,,2.15920658739858,-2.90516853348975,-1.51860440530147,,-2.1718041888925876,,
,5889.0,621.0,3999.0,657.0,-159.0,1875.0,3489.0,,,,2.15874321368724,-2.90581141966927,-1.51977391808328,,-2.193150757159968,,
,5889.0,622.0,3995.0,655.0,-157.0,1886.0,3501.0,,,,2.15884368091116,-2.90578944736017,-1.51803510552431,,-2.218262141560353,,
,5891.0,624.0,3997.0,655.0,-156.0,1899.0,3517.0,,,,2.15902634957534,-2.90581623202789,-1.51867887459181,,-2.246549651957878,,
,5887.0,621.0,3996.0,655.0,-153.0,1884.0,3504.0,,,,2.15843148084515,-2.90594537537331,-1.51859713107478,,-2.2761376698612086,,
,5891.0,624.0,3997.0,655.0,-178.0,1895.0,3495.0,,,,2.15751068685294,-2.90467641490916,-1.51942875450784,,-2.303957868308593,,
,5893.0,625.0,3998.0,657.0,-173.0,1895.0,3481.0,,,,2.1588828263705,-2.90498193240957,-1.51897900276941,,-2.325861233798131,,
,5891.0,622.0,3996.0,654.0,-172.0,1877.0,3478.0,,,,2.15943461457203,-2.90524129547255,-1.51896224894292,,-2.3367559582398822,,
,5893.0,622.0,3999.0,656.0,-158.0,1888.0,3490.0,,,,2.15839172850401,-2.9054660677999,-1.51829371985971,,-2.33078493164509,,
,5896.0,624.0,4002.0,655.0,-160.0,1883.0,3486.0,,,,2.15879467041822,-2.90560146168687,-1.51944436156266,,-2.3015575500395165,,
,5895.0,625.0,3999.0,656.0,-158.0,1879.0,3488.0,,,,2.15952107541679,-2.90521906298731,-1.51914908701436,,-2.2424468962149517,,
,5894.0,623.0,4000.0,656.0,-166.0,1889.0,3501.0,,,,2.16003768895207,-2.90555367948583,-1.51873643302635,,-2.1469558311322063,,
,5894.0,624.0,4000.0,655.0,-156.0,1881.0,3498.0,,,,2.16009818467532,-2.90502625149444,-1.51995779050533,,-2.0091453114278894,,
,5896.0,623.0,4002.0,656.0,-155.0,1884.0,3465.0,,,,2.16110059987807,-2.90475781932686,-1.51843371527309,,-1.8241065413377693,,
,5898.0,626.0,4002.0,655.0,-147.0,1882.0,3485.0,,,,2.16135532228377,-2.9047204380821,-1.51855710593235,,-1.588446680166518,,
,5897.0,622.0,4004.0,656.0,-146.0,1882.0,3489.0,,,,2.16227261313108,-2.90455479912748,-1.5186165706834,,-1.3007475751727398,,
,5898.0,623.0,4001.0,656.0,-136.0,1882.0,3499.0,,,,2.16207178706621,-2.90429549627378,-1.51845764754787,,-0.961951002580884,,
,5897.0,623.0,4003.0,656.0,-162.0,1875.0,3506.0,,,,2.16251711081379,-2.90461406746728,-1.51807448851546,,-0.5756248887399367,,
,5900.0,624.0,4003.0,656.0,-161.0,1870.0,3493.0,,,,2.16394312345968,-2.90449462247755,-1.5192710505337,,-0.14807392960075044,,
,5897.0,624.0,4003.0,657.0,-158.0,1868.0,3498.0,,,,2.16395949997827,-2.90443195481643,-1.51897979049803,,0.3117270222874959,,
,5899.0,623.0,4002.0,657.0,-144.0,1880.0,3476.0,,,,2.16545796747629,-2.90310734509874,-1.51974362626454,,0.7923813710458438,,
,5902.0,624.0,4001.0,656.0,-162.0,1876.0,3481.0,,,,2.16513972639656,-2.90345591877533,-1.51924469881865,,1.2804899188127745,,
,5901.0,622.0,4000.0,656.0,-162.0,1882.0,3489.0,,,,2.16522632552026,-2.90347946420233,-1.51942578352477,,1.761217155374538,,
,5902.0,626.0,4005.0,657.0,-165.0,1885.0,3482.0,,,,2.16599253583694,-2.90275383062794,-1.51943824087392,,2.2189717636195487,,
,5902.0,624.0,4002.0,655.0,-174.0,1882.0,3479.0,,,,2.16635197586994,-2.90309388188197,-1.51926160349928,,2.6381614968678364,,
,5902.0,623.0,4001.0,656.0,-152.0,1878.0,3494.0,,,,2.16697794236521,-2.90269853648962,-1.519042751281,,3.003977509735067,,
,5903.0,624.0,4004.0,657.0,-151.0,1876.0,3474.0,,,,2.16757307313504,-2.9019060080299,-1.51877528847933,,3.3031599656901074,,
,5904.0,624.0,4005.0,656.0,-146.0,1868.0,3489.0,,,,2.16789058127324,-2.90263112330987,-1.52018663397101,,3.5246960027387093,,
,5904.0,623.0,4005.0,658.0,-154.0,1871.0,3487.0,,,,2.16901630241015,-2.90295248353693,-1.52011173222587,,3.66040405766038,,
,5903.0,623.0,4004.0,656.0,-159.0,1897.0,3475.0,,,,2.16870316320851,-2.90282265511917,-1.5199352414333,,3.7053659299495463,,
,5908.0,623.0,4006.0,655.0,-164.0,1893.0,3477.0,,,,2.16945454591424,-2.90236763221131,-1.51929363268041,,3.658179303547522,,
,5907.0,625.0,4009.0,660.0,-183.0,1907.0,3502.0,,,,2.17081672759324,-2.90232398785664,-1.51931810152758,,3.5210167322723502,,
,5910.0,625.0,4008.0,658.0,-186.0,1907.0,3494.0,,,,2.17005949858023,-2.90229623978852,-1.51886926655275,,3.2994900543425785,,
,5907.0,623.0,4008.0,656.0,-161.0,1885.0,3493.0,,,,2.17088416031314,-2.90147136246798,-1.51948983434901,,3.0023308710477385,,
,5909.0,625.0,4009.0,657.0,-160.0,1892.0,3481.0,,,,2.16974157522082,-2.90148817766251,-1.51996823182567,,2.6409085557337524,,
,5913.0,626.0,4010.0,659.0,-157.0,1898.0,3503.0,,,,2.1706345349666,-2.90227997609416,-1.52011695752927,,2.228617652702875,,
,5912.0,625.0,4012.0,657.0,-152.0,1899.0,3504.0,,,,2.17009152526917,-2.90152975776934,-1.51917562456852,,1.7801756335358967,,
2025-06-30 18:00:57,5916.0,624.0,4012.0,659.0,-167.0,1897.0,3484.0,,,2025/06/30 06:00:57 PM,2.17172510901087,-2.90194154974724,-1.5191815172648,,1.3108779651722504,,
,5917.0,625.0,4015.0,659.0,-151.0,1884.0,3478.0,,,,2.17176657333674,-2.90159631506327,-1.51956981425971,,0.835858633668274,,
,5921.0,626.0,4015.0,659.0,-157.0,1871.0,3501.0,,,,2.17386140686881,-2.90216544984528,-1.52030378549878,,0.369400080194763,,
,5920.0,625.0,4017.0,659.0,-176.0,1877.0,3492.0,,,,2.17325520535461,-2.90089091836137,-1.51964655638183,,-0.0756721838942417,,
,5923.0,628.0,4019.0,662.0,-166.0,1889.0,3480.0,,,,2.1730565032984,-2.90121044397953,-1.5197524405083,,-0.48848597490445705,,
,5924.0,626.0,4019.0,660.0,-158.0,1885.0,3488.0,,,,2.17388875685687,-2.90142110065744,-1.51984821222957,,-0.8604957900270807,,
,5925.0,625.0,4022.0,659.0,-159.0,1879.0,3482.0,,,,2.17461276474033,-2.90021635205489,-1.52008612781914,,-1.1857260926094937,,
,5929.0,627.0,4025.0,662.0,-163.0,1876.0,3473.0,,,,2.17513063205728,-2.90034102962243,-1.51955997877483,,-1.4608806555873035,,
,5933.0,627.0,4026.0,663.0,-155.0,1875.0,3484.0,,,,2.17542115568909,-2.90159813114199,-1.52049363821584,,-1.685315089046658,,
,5932.0,628.0,4025.0,661.0,-160.0,1882.0,3478.0,,,,2.17589243789311,-2.90039818332504,-1.51965789921398,,-1.8608716301093766,,
,5934.0,627.0,4028.0,661.0,-159.0,1885.0,3494.0,,,,2.17470815757438,-2.90017414542115,-1.51894623575735,,-1.991580477899544,,
,5937.0,630.0,4030.0,663.0,-151.0,1882.0,3488.0,,,,2.17649205497885,-2.89982075702834,-1.51934230903369,,-2.083240412266613,,
