TimeLabel,MEAS1_PPG1,MEAS1_PPG2,MEAS1_PPG3,MEAS1_PPG4,ACCX,ACCY,ACCZ,HR_timestamp,HR_value,radar_timestamp,phase_rx0,phase_rx1,phase_rx2,timestep,n_process,original_rate,calculated_rate
2025-06-30 21:22:06,6494.0,715.0,6672.0,902.0,-56.0,2099.0,3301.0,2025-06-30 21:22:06,84.0,2025/06/30 09:22:06 PM,-2.4315887789835,-2.99716799814838,-1.78083216468727,2025/06/30 09:22:06 PM,-3.805102495608563,20.891365051269528,21.899873156809896
,6494.0,717.0,6671.0,904.0,-63.0,2086.0,3312.0,2025-06-30 21:22:07,84.0,,-2.43169107870912,-2.99701954409779,-1.78066270529626,2025/06/30 09:22:16 PM,-3.8231615850321305,20.833333969116207,21.445672697941294
,6495.0,711.0,6670.0,904.0,-62.0,2105.0,3278.0,2025-06-30 21:22:08,85.0,,-2.43180785549592,-2.99687847405035,-1.78020709333036,2025/06/30 09:22:26 PM,-3.8581843124215465,21.32196044921875,22.657342657342667
,6496.0,714.0,6668.0,904.0,-60.0,2115.0,3278.0,2025-06-30 21:22:09,86.0,,-2.43145386786662,-2.99728911652821,-1.78075906128278,2025/06/30 09:22:36 PM,-3.9081617282314753,22.02643203735352,21.253576931543037
,6494.0,714.0,6670.0,902.0,-61.0,2098.0,3274.0,2025-06-30 21:22:10,86.0,,-2.43213660079672,-2.99697141636936,-1.78044267270199,2025/06/30 09:22:46 PM,-3.9678297866857184,22.01467704772949,21.640667761357403
,6494.0,715.0,6668.0,903.0,-57.0,2108.0,3288.0,2025-06-30 21:22:11,86.0,,-2.43011629060033,-2.99728766070768,-1.77995645346263,2025/06/30 09:22:56 PM,-4.029115254821636,21.723388671875,21.82299182299182
,6496.0,715.0,6670.0,902.0,-54.0,2115.0,3299.0,2025-06-30 21:22:12,86.0,,-2.43139084507847,-2.9972003567006,-1.77986869856691,2025/06/30 09:23:06 PM,-4.081688252775612,21.44388771057129,22.106129164952712
,6494.0,715.0,6670.0,903.0,-51.0,2113.0,3292.0,2025-06-30 21:22:13,86.0,,-2.43128557613648,-2.99713383863619,-1.77975830895686,2025/06/30 09:23:16 PM,-4.113585350811206,22.192333221435547,20.701754385964904
,6492.0,713.0,6672.0,902.0,-65.0,2111.0,3284.0,2025-06-30 21:22:14,86.0,,-2.42981053260329,-2.997346932951,-1.77989579590402,2025/06/30 09:23:26 PM,-4.1118777934127095,21.5982723236084,19.759521013901704
,6492.0,710.0,6670.0,900.0,-61.0,2091.0,3285.0,2025-06-30 21:22:15,86.0,,-2.42935662795898,-2.99758016537742,-1.77990745521801,2025/06/30 09:23:36 PM,-4.063368278827411,20.594964981079105,20.158730158730155
,6494.0,714.0,6674.0,903.0,-51.0,2103.0,3271.0,2025-06-30 21:22:16,86.0,,-2.43001456504809,-2.99761863438187,-1.78010861805267,2025/06/30 09:23:46 PM,-3.955304780998927,20.3389835357666,20.940062019455436
,6498.0,715.0,6675.0,902.0,-70.0,2107.0,3293.0,2025-06-30 21:22:17,86.0,,-2.42928272993433,-2.99725923112756,-1.77943223998146,2025/06/30 09:23:56 PM,-3.7761001484402335,20.31602668762207,19.759521013901697
,6494.0,715.0,6676.0,903.0,-66.0,2100.0,3286.0,2025-06-30 21:22:18,87.0,,-2.42894805585811,-2.99758211942886,-1.77953777844611,2025/06/30 09:24:06 PM,-3.516041975673386,20.224720001220703,21.312136139722373
,6494.0,713.0,6678.0,901.0,-58.0,2112.0,3279.0,2025-06-30 21:22:19,87.0,,-2.42859269422528,-2.99760807379492,-1.77958886552127,2025/06/30 09:24:16 PM,-3.167970079736682,20.547945022583008,20.38594174187392
,6496.0,717.0,6681.0,902.0,-68.0,2114.0,3284.0,2025-06-30 21:22:20,86.0,,-2.42862266271643,-2.99743492422277,-1.77988299889762,2025/06/30 09:24:26 PM,-2.727891076914489,20.50113868713379,20.81906988394421
,6496.0,716.0,6681.0,901.0,-67.0,2112.0,3280.0,2025-06-30 21:22:21,86.0,,-2.42842484823019,-2.99780194014126,-1.77974866891146,2025/06/30 09:24:36 PM,-2.195493435129117,20.718231201171875,21.298787419477108
,6497.0,715.0,6681.0,901.0,-64.0,2111.0,3286.0,2025-06-30 21:22:22,86.0,,-2.42828544575008,-2.99722329846335,-1.77908764820811,2025/06/30 09:24:46 PM,-1.5745242613998052,20.94647026062012,19.58048026938127
,6496.0,716.0,6684.0,901.0,-63.0,2113.0,3311.0,2025-06-30 21:22:23,86.0,,-2.42831989360801,-2.99776433782578,-1.77991568897087,2025/06/30 09:24:56 PM,-0.8729927356719651,20.891365051269528,20.0148312940304
,6498.0,717.0,6684.0,902.0,-63.0,2100.0,3298.0,2025-06-30 21:22:24,87.0,,-2.42888786985165,-2.99727819362994,-1.78024168446591,,-0.1031746692518895,,
,6499.0,718.0,6689.0,904.0,-60.0,2120.0,3289.0,2025-06-30 21:22:25,87.0,,-2.42971188053294,-2.99726780580837,-1.78022868677932,,0.7185940974208228,,
,6500.0,717.0,6686.0,905.0,-62.0,2128.0,3279.0,2025-06-30 21:22:26,87.0,,-2.43166523255653,-2.99692464263314,-1.78056430774668,,1.5723343845235773,,
,6499.0,716.0,6688.0,906.0,-68.0,2103.0,3253.0,2025-06-30 21:22:27,87.0,,-2.43561804459635,-2.99718907550953,-1.78149419085469,,2.4350384885276,,
,6499.0,716.0,6689.0,903.0,-63.0,2124.0,3274.0,2025-06-30 21:22:28,87.0,,-2.43701894552836,-2.9968665011838,-1.78244531568196,,3.2814632511724997,,
,6503.0,717.0,6690.0,905.0,-64.0,2120.0,3279.0,2025-06-30 21:22:29,87.0,,-2.4391103953546,-2.99682464644671,-1.78277185290548,,4.085075624403151,,
,6503.0,717.0,6691.0,903.0,-62.0,2118.0,3267.0,2025-06-30 21:22:30,87.0,,-2.44081099154761,-2.99642608581888,-1.78333672054385,,4.8191197749449515,,
,6502.0,718.0,6692.0,905.0,-55.0,2121.0,3281.0,2025-06-30 21:22:31,87.0,,-2.4420810867169,-2.99635210503461,-1.78420278133957,,5.457769133391581,,
,6503.0,714.0,6690.0,904.0,-55.0,2114.0,3260.0,2025-06-30 21:22:32,87.0,,-2.44254458661656,-2.99594740794237,-1.78456156748975,,5.97732013520289,,
,6502.0,716.0,6691.0,905.0,-59.0,2105.0,3263.0,2025-06-30 21:22:33,87.0,,-2.44380800348393,-2.99612461149659,-1.78494059126982,,6.357376949423727,,
,6502.0,716.0,6691.0,905.0,-61.0,2101.0,3272.0,2025-06-30 21:22:34,88.0,,-2.44431330995646,-2.99591207496037,-1.78525052211905,,6.581969179994548,,
,6505.0,717.0,6695.0,907.0,-58.0,2105.0,3280.0,2025-06-30 21:22:35,88.0,,-2.44387401792092,-2.99600553319895,-1.78496418759393,,6.6405383863425165,,
,6503.0,718.0,6692.0,905.0,-59.0,2110.0,3278.0,2025-06-30 21:22:36,88.0,,-2.44448244648273,-2.9958040218529,-1.78443150758248,,6.528724896165584,,
,6506.0,716.0,6695.0,904.0,-53.0,2106.0,3288.0,2025-06-30 21:22:37,88.0,,-2.4445209932985,-2.99627756412719,-1.78552726456838,,6.248884524305635,,
,6507.0,717.0,6696.0,906.0,-61.0,2106.0,3268.0,2025-06-30 21:22:38,88.0,,-2.44436243566993,-2.99610914450432,-1.78461879394759,,5.810267874599,,
,6507.0,719.0,6696.0,906.0,-58.0,2102.0,3290.0,2025-06-30 21:22:39,88.0,,-2.44425145406912,-2.99607188652541,-1.78444750462263,,5.228807094245715,,
,6510.0,720.0,6697.0,909.0,-62.0,2094.0,3295.0,2025-06-30 21:22:40,88.0,,-2.44390907504487,-2.99645643776501,-1.78452278711888,,4.5264797455165695,,
,6510.0,719.0,6698.0,903.0,-60.0,2120.0,3305.0,2025-06-30 21:22:41,88.0,,-2.44354562781845,-2.99629980023861,-1.78439839858167,,3.730256413243542,,
,6511.0,717.0,6699.0,906.0,-70.0,2134.0,3282.0,2025-06-30 21:22:42,87.0,,-2.44362332172245,-2.99640993326138,-1.78372477015251,,2.870682453364025,,
,6513.0,720.0,6701.0,907.0,-57.0,2121.0,3295.0,2025-06-30 21:22:43,87.0,,-2.4436448719526,-2.99606424337563,-1.78350137344562,,1.9801864748987947,,
,6516.0,720.0,6704.0,908.0,-58.0,2117.0,3303.0,2025-06-30 21:22:44,87.0,,-2.44261028173556,-2.99639939796457,-1.78415619382656,,1.0912403317249195,,
,6513.0,720.0,6704.0,909.0,-61.0,2119.0,3304.0,2025-06-30 21:22:45,87.0,,-2.4421902391727,-2.99624079616198,-1.78399691950642,,0.2345121057132965,,
,6517.0,721.0,6707.0,908.0,-57.0,2126.0,3280.0,2025-06-30 21:22:46,87.0,,-2.44038881752032,-2.99668570704763,-1.78391511701867,,-0.5628463007569873,,
,6519.0,719.0,6710.0,908.0,-52.0,2104.0,3271.0,2025-06-30 21:22:47,87.0,,-2.44013318446641,-2.99660674273936,-1.78369068893806,,-1.2786490453093766,,
,6520.0,720.0,6712.0,911.0,-52.0,2116.0,3282.0,2025-06-30 21:22:48,87.0,,-2.44061079605236,-2.99628598212244,-1.78320209864335,,-1.8967590215780235,,
,6520.0,720.0,6713.0,911.0,-55.0,2129.0,3327.0,2025-06-30 21:22:49,87.0,,-2.44044376805935,-2.99639000156659,-1.78295167363705,,-2.4077280912457724,,
,6519.0,719.0,6715.0,910.0,-55.0,2115.0,3306.0,2025-06-30 21:22:50,87.0,,-2.44038087563759,-2.99652064822715,-1.78316200243318,,-2.8089537579468256,,
,6522.0,721.0,6718.0,912.0,-56.0,2095.0,3289.0,2025-06-30 21:22:51,87.0,,-2.43964858604089,-2.99658209842833,-1.78279174059946,,-3.1043488865745816,,
,6522.0,722.0,6721.0,911.0,-56.0,2115.0,3276.0,2025-06-30 21:22:52,87.0,,-2.43983251441927,-2.99653177268154,-1.78356429999259,,-3.303559766085417,,
,6525.0,724.0,6723.0,912.0,-59.0,2123.0,3262.0,2025-06-30 21:22:53,87.0,,-2.4396199660055,-2.99639120539723,-1.78278248660259,,-3.4208032909632613,,
,6524.0,719.0,6721.0,910.0,-69.0,2129.0,3287.0,2025-06-30 21:22:54,87.0,,-2.43930074722976,-2.99622123295005,-1.78278176509953,,-3.4734223165209497,,
,6524.0,720.0,6726.0,913.0,-57.0,2135.0,3286.0,2025-06-30 21:22:55,87.0,,-2.43966201377517,-2.99619012018308,-1.78270072313751,,-3.4802770312576903,,
,6528.0,722.0,6727.0,916.0,-49.0,2134.0,3300.0,2025-06-30 21:22:56,87.0,,-2.43902338058493,-2.99645493298064,-1.78299813093968,,-3.4600988553963647,,
,6527.0,721.0,6731.0,913.0,-52.0,2136.0,3306.0,2025-06-30 21:22:57,87.0,,-2.43866167801599,-2.99617117629443,-1.78275018454995,,-3.429932248200674,,
,6530.0,720.0,6734.0,915.0,-64.0,2124.0,3283.0,2025-06-30 21:22:58,87.0,,-2.43920035778633,-2.99657117566765,-1.78325989964027,,-3.4037797004422496,,
,6532.0,724.0,6733.0,912.0,-58.0,2104.0,3278.0,2025-06-30 21:22:59,87.0,,-2.43943949308134,-2.99642499363216,-1.78346317060848,,-3.3915471358027167,,
,6533.0,726.0,6737.0,914.0,-65.0,2104.0,3282.0,2025-06-30 21:23:00,87.0,,-2.43933909431562,-2.99630179769868,-1.78275449293063,,-3.3983619462384604,,
,6532.0,722.0,6738.0,916.0,-71.0,2106.0,3293.0,2025-06-30 21:23:01,86.0,,-2.43918042771435,-2.99631062094096,-1.78288392314494,,-3.424304899563647,,
,6533.0,724.0,6740.0,916.0,-67.0,2110.0,3303.0,2025-06-30 21:23:02,86.0,,-2.4397423937429,-2.99697261273953,-1.78312301824248,,-3.464561726153703,,
,6533.0,722.0,6742.0,915.0,-58.0,2094.0,3286.0,2025-06-30 21:23:03,86.0,,-2.43914919544799,-2.99657751180056,-1.78346384649538,,-3.5099635157131615,,
,6537.0,725.0,6744.0,916.0,-58.0,2101.0,3274.0,2025-06-30 21:23:04,87.0,,-2.43877735999953,-2.99662744108078,-1.78258047987776,,-3.5478522595975135,,
,6535.0,727.0,6747.0,917.0,-64.0,2116.0,3282.0,2025-06-30 21:23:05,87.0,,-2.44026701087228,-2.99660165674704,-1.78362910699363,,-3.5631842306471597,,
,6538.0,725.0,6747.0,918.0,-61.0,2124.0,3284.0,2025-06-30 21:23:06,87.0,,-2.44058304212264,-2.99643489579257,-1.78332133620359,,-3.5397720353660507,,
,6539.0,723.0,6749.0,915.0,-64.0,2136.0,3295.0,2025-06-30 21:23:07,87.0,,-2.44045975859578,-2.99595589100729,-1.78279426695282,,-3.461565231751198,,
,6539.0,725.0,6753.0,919.0,-66.0,2126.0,3292.0,2025-06-30 21:23:08,87.0,,-2.44075244325886,-2.9964346167123,-1.78272717897052,,-3.313876850828304,,
,6541.0,726.0,6754.0,921.0,-70.0,2123.0,3286.0,2025-06-30 21:23:09,88.0,,-2.43993287423797,-2.99619644099941,-1.78289444394024,,-3.0844768568878203,,
,6543.0,727.0,6759.0,921.0,-70.0,2107.0,3283.0,2025-06-30 21:23:10,88.0,,-2.44063530769681,-2.9962349866363,-1.78280277685399,,-2.764492098251513,,
,6544.0,726.0,6755.0,918.0,-54.0,2082.0,3282.0,2025-06-30 21:23:11,88.0,,-2.44029323978695,-2.99635554266931,-1.78288733972897,,-2.3490741917526647,,
,6546.0,726.0,6762.0,920.0,-53.0,2103.0,3280.0,2025-06-30 21:23:12,88.0,,-2.44031706704775,-2.99647651752578,-1.78392060929396,,-1.8378200502343176,,
,6547.0,728.0,6763.0,923.0,-59.0,2127.0,3264.0,2025-06-30 21:23:13,88.0,,-2.44076674312466,-2.99649352488873,-1.78331850217565,,-1.234951605150206,,
,6547.0,728.0,6766.0,922.0,-59.0,2129.0,3295.0,2025-06-30 21:23:14,88.0,,-2.44057286383048,-2.99628236277054,-1.78292353972352,,-0.5492781576363926,,
,6548.0,728.0,6767.0,922.0,-60.0,2126.0,3273.0,2025-06-30 21:23:15,88.0,,-2.44041610645915,-2.99620450984505,-1.7824583106876,,0.20602670811169366,,
,6548.0,726.0,6768.0,922.0,-60.0,2133.0,3284.0,2025-06-30 21:23:16,88.0,,-2.44051974601665,-2.9963531998137,-1.78352021051885,,1.01380311568514,,
,6551.0,728.0,6770.0,922.0,-52.0,2116.0,3291.0,2025-06-30 21:23:17,88.0,,-2.44020839501778,-2.99622041411018,-1.78313526446041,,1.8534166107575407,,
,6552.0,730.0,6773.0,922.0,-62.0,2108.0,3274.0,2025-06-30 21:23:18,88.0,,-2.43867586146197,-2.99655507637845,-1.78285405251228,,2.701394664098974,,
,6550.0,727.0,6773.0,922.0,-67.0,2106.0,3279.0,2025-06-30 21:23:19,88.0,,-2.43986505299264,-2.99633459638351,-1.78287240556442,,3.5321885440273175,,
,6549.0,728.0,6774.0,924.0,-59.0,2099.0,3260.0,2025-06-30 21:23:20,88.0,,-2.43792846000748,-2.99629789576328,-1.78248385048193,,4.319064350311258,,
,6550.0,728.0,6773.0,922.0,-64.0,2113.0,3286.0,2025-06-30 21:23:21,88.0,,-2.43857059569183,-2.99699802061385,-1.78227859188348,,5.035122831081872,,
,6549.0,729.0,6776.0,925.0,-58.0,2119.0,3292.0,2025-06-30 21:23:22,88.0,,-2.43797368619989,-2.99632070921319,-1.78203369751356,,5.654436230198278,,
,6549.0,732.0,6774.0,925.0,-54.0,2118.0,3286.0,2025-06-30 21:23:23,89.0,,-2.43725926305683,-2.99690634619378,-1.78253693661763,,6.153272559668553,,
,6548.0,731.0,6774.0,923.0,-65.0,2113.0,3288.0,2025-06-30 21:23:24,89.0,,-2.4370831774259,-2.99699640762189,-1.78211033329423,,6.511355144527584,,
,6546.0,727.0,6767.0,921.0,-56.0,2129.0,3292.0,2025-06-30 21:23:25,89.0,,-2.43644934961381,-2.99651743323807,-1.78136874985845,,6.713081431014829,,
,6543.0,729.0,6754.0,922.0,-68.0,2122.0,3290.0,2025-06-30 21:23:26,88.0,,-2.43617969736095,-2.99640497739358,-1.78126800504062,,6.7486046111062725,,
,6544.0,729.0,6745.0,922.0,-63.0,2105.0,3256.0,2025-06-30 21:23:27,88.0,,-2.43528356486693,-2.99683781977292,-1.78123818739306,,6.614669918755545,,
,6542.0,727.0,6735.0,922.0,-63.0,2111.0,3256.0,2025-06-30 21:23:28,88.0,,-2.43481065505317,-2.99688004820659,-1.78100211150881,,6.315099516837331,,
,6541.0,726.0,6729.0,924.0,-59.0,2118.0,3272.0,2025-06-30 21:23:29,88.0,,-2.43476559755222,-2.99710092308189,-1.78125862554727,,5.860839269769587,,
,6538.0,725.0,6722.0,920.0,-63.0,2112.0,3307.0,2025-06-30 21:23:30,88.0,,-2.43361927941258,-2.9967579055816,-1.78142014207527,,5.269517952268068,,
,6534.0,722.0,6714.0,921.0,-62.0,2114.0,3266.0,2025-06-30 21:23:31,88.0,,-2.43396050365069,-2.9970654502211,-1.78120153232817,,4.564520837893217,,
,6531.0,723.0,6707.0,917.0,-67.0,2098.0,3252.0,2025-06-30 21:23:32,88.0,,-2.43299702777494,-2.99658879724413,-1.7810905742927,,3.7736369910068395,,
,6525.0,720.0,6700.0,917.0,-67.0,2108.0,3272.0,2025-06-30 21:23:33,88.0,,-2.43409909427222,-2.99697706997968,-1.78060110755617,,2.927392210737302,,
,6519.0,718.0,6697.0,914.0,-57.0,2123.0,3273.0,2025-06-30 21:23:34,88.0,,-2.43244197800018,-2.99731524459852,-1.78053591062354,,2.057217254080736,,
,6520.0,720.0,6692.0,916.0,-52.0,2111.0,3275.0,2025-06-30 21:23:35,88.0,,-2.4316039191123,-2.99719375428066,-1.78078392264191,,1.1936169733350748,,
,6516.0,719.0,6691.0,912.0,-59.0,2117.0,3279.0,2025-06-30 21:23:36,88.0,,-2.43123301627626,-2.99723675898163,-1.78031897513671,,0.36449859201413537,,
,6514.0,717.0,6684.0,913.0,-61.0,2118.0,3271.0,2025-06-30 21:23:37,88.0,,-2.43149366037897,-2.99702316365055,-1.78015352138734,,-0.4062104512914749,,
,6514.0,714.0,6685.0,909.0,-57.0,2115.0,3270.0,2025-06-30 21:23:38,88.0,,-2.43231949666308,-2.99699501133967,-1.7802691969174,,-1.0995664883931628,,
,6512.0,715.0,6681.0,910.0,-60.0,2122.0,3278.0,2025-06-30 21:23:39,88.0,,-2.43175381278944,-2.99714270660651,-1.78089398676697,,-1.7021948730174739,,
,6514.0,717.0,6684.0,911.0,-50.0,2109.0,3288.0,2025-06-30 21:23:40,88.0,,-2.43174639266935,-2.99713349303654,-1.78041447615147,,-2.2064623899626485,,
,6513.0,716.0,6681.0,910.0,-49.0,2110.0,3304.0,2025-06-30 21:23:41,88.0,,-2.43156131190651,-2.99712946497493,-1.78039062829242,,-2.6102808426839283,,
,6510.0,715.0,6679.0,909.0,-55.0,2109.0,3309.0,2025-06-30 21:23:42,88.0,,-2.43001014392352,-2.99690309301319,-1.78007712453813,,-2.916610807111868,,
,6508.0,713.0,6678.0,906.0,-55.0,2122.0,3291.0,2025-06-30 21:23:43,88.0,,-2.43029291314832,-2.99725777264924,-1.78057779130917,,-3.1327443426635644,,
,6510.0,716.0,6682.0,909.0,-51.0,2097.0,3281.0,2025-06-30 21:23:44,88.0,,-2.43071118103478,-2.99754575121178,-1.77907902686338,,-3.269441786085886,,
,6511.0,716.0,6676.0,909.0,-52.0,2115.0,3289.0,2025-06-30 21:23:45,88.0,,-2.4304826225835,-2.99725429128565,-1.77977753110756,,-3.3399857839339555,,
,6511.0,715.0,6679.0,907.0,-55.0,2115.0,3286.0,2025-06-30 21:23:46,89.0,,-2.42991196575477,-2.9969943381358,-1.77972112616326,,-3.3592018389581693,,
,6505.0,714.0,6677.0,906.0,-56.0,2109.0,3273.0,2025-06-30 21:23:47,89.0,,-2.42941960274906,-2.99732882950631,-1.77866877653876,,-3.3424834249859234,,
,6510.0,715.0,6683.0,908.0,-60.0,2112.0,3287.0,2025-06-30 21:23:48,89.0,,-2.42888039870568,-2.99683292582875,-1.77941052095648,,-3.3048526336796757,,
,6512.0,715.0,6681.0,907.0,-66.0,2106.0,3271.0,2025-06-30 21:23:49,89.0,,-2.42987961958583,-2.99691575923872,-1.77941137139011,,-3.2600838528408715,,
,6509.0,714.0,6685.0,908.0,-67.0,2118.0,3270.0,2025-06-30 21:23:50,89.0,,-2.43080911525963,-2.9970521907225,-1.77946903633998,,-3.2199172298690915,,
,6505.0,714.0,6683.0,906.0,-60.0,2104.0,3280.0,2025-06-30 21:23:51,89.0,,-2.43229434627269,-2.9969754082955,-1.78026474582428,,-3.193389727830679,,
,6511.0,714.0,6682.0,905.0,-57.0,2112.0,3269.0,2025-06-30 21:23:52,88.0,,-2.43355371070785,-2.99706843656841,-1.78118297353918,,-3.1863131935899474,,
,6510.0,717.0,6687.0,906.0,-63.0,2121.0,3307.0,2025-06-30 21:23:53,88.0,,-2.4365383941249,-2.99678940426827,-1.78238979007961,,-3.200929444296789,,
,6514.0,716.0,6689.0,908.0,-65.0,2135.0,3305.0,2025-06-30 21:23:54,88.0,,-2.4382538657938,-2.9963224276041,-1.78191755810853,,-3.2357703435698553,,
,6513.0,716.0,6688.0,908.0,-65.0,2135.0,3289.0,2025-06-30 21:23:55,88.0,,-2.4396686786324,-2.99657224369411,-1.78321845970115,,-3.2857447545668395,,
,6511.0,714.0,6689.0,907.0,-59.0,2110.0,3289.0,2025-06-30 21:23:56,88.0,,-2.44052177359435,-2.99649264517367,-1.78281834153734,,-3.3424629113682482,,
,6513.0,716.0,6689.0,907.0,-60.0,2118.0,3300.0,2025-06-30 21:23:57,88.0,,-2.44093539842943,-2.99675834252726,-1.78333622956273,,-3.394791596179718,,
,6514.0,715.0,6692.0,909.0,-50.0,2106.0,3295.0,2025-06-30 21:23:58,88.0,,-2.44217060307455,-2.99626299799259,-1.78358479047409,,-3.429611746482235,,
,6515.0,716.0,6693.0,908.0,-53.0,2107.0,3288.0,2025-06-30 21:23:59,88.0,,-2.44329673647952,-2.99617011769687,-1.78317286291258,,-3.4327275078111734,,
,6511.0,716.0,6692.0,907.0,-68.0,2119.0,3277.0,2025-06-30 21:24:00,89.0,,-2.44326564437956,-2.99585707077937,-1.78383383053607,,-3.3898577079593353,,
,6514.0,717.0,6692.0,907.0,-69.0,2107.0,3285.0,2025-06-30 21:24:01,89.0,,-2.44379840577422,-2.99604269746076,-1.78402971293488,,-3.2876317042644665,,
,6514.0,715.0,6697.0,908.0,-66.0,2116.0,3270.0,2025-06-30 21:24:02,89.0,,-2.44319872220609,-2.99590789907801,-1.78394553669182,,-3.1145130537980332,,
,6516.0,718.0,6697.0,908.0,-59.0,2122.0,3286.0,2025-06-30 21:24:03,89.0,,-2.44253582509295,-2.99589422984727,-1.78420179103701,,-2.8615855302696724,,
,6516.0,717.0,6694.0,909.0,-59.0,2119.0,3277.0,2025-06-30 21:24:04,88.0,,-2.44263245214527,-2.99600014299245,-1.78327191757704,,-2.5231548798258214,,
,6516.0,714.0,6694.0,909.0,-58.0,2098.0,3282.0,2025-06-30 21:24:05,88.0,,-2.44295187525236,-2.9961530226564,-1.78376311851923,,-2.0971440430263404,,
,6516.0,715.0,6697.0,908.0,-63.0,2114.0,3290.0,2025-06-30 21:24:06,88.0,,-2.4422777708644,-2.99622775711024,-1.78330852958387,,-1.5852855178962577,,
,6519.0,717.0,6698.0,909.0,-54.0,2097.0,3293.0,2025-06-30 21:24:07,89.0,,-2.44217164054919,-2.9965363414685,-1.78349423861614,,-0.9931366436868599,,
,6519.0,717.0,6698.0,910.0,-51.0,2107.0,3280.0,2025-06-30 21:24:08,89.0,,-2.44145280825244,-2.99625972788907,-1.78325545398814,,-0.3299565381051118,,
,6519.0,719.0,6696.0,911.0,-50.0,2091.0,3278.0,2025-06-30 21:24:09,89.0,,-2.44024179437865,-2.99642320174016,-1.78319722668703,,0.3915156996843556,,
,6520.0,717.0,6700.0,912.0,-57.0,2108.0,3279.0,2025-06-30 21:24:10,89.0,,-2.44135454258238,-2.99650458666467,-1.78254703418093,,1.1553525605042039,,
,6522.0,719.0,6702.0,912.0,-64.0,2105.0,3278.0,2025-06-30 21:24:11,89.0,,-2.44007281614106,-2.99663233072786,-1.78241104668435,,1.9427892355793246,,
,6520.0,718.0,6699.0,912.0,-69.0,2099.0,3288.0,2025-06-30 21:24:12,89.0,,-2.43982326754588,-2.99665806486085,-1.78239064997222,,2.732645591305091,,
,6522.0,717.0,6700.0,911.0,-69.0,2078.0,3304.0,2025-06-30 21:24:13,89.0,,-2.44121087066498,-2.99628331849492,-1.78175064960221,,3.501848358572806,,
2025-06-30 21:22:07,6522.0,718.0,6701.0,910.0,-63.0,2102.0,3304.0,2025-06-30 21:24:14,90.0,2025/06/30 09:22:07 PM,-2.43939189590988,-2.99659489121404,-1.7823025271552,,4.2260908900921725,,
,6523.0,719.0,6704.0,910.0,-59.0,2116.0,3296.0,2025-06-30 21:24:15,90.0,,-2.43939842265122,-2.99658807996395,-1.7822192651655,,4.880661693312043,,
,6526.0,718.0,6707.0,912.0,-59.0,2108.0,3276.0,2025-06-30 21:24:16,90.0,,-2.43941410419822,-2.99635232851625,-1.78190458071522,,5.44145286367148,,
,6524.0,720.0,6709.0,914.0,-64.0,2117.0,3276.0,2025-06-30 21:24:17,90.0,,-2.43950664612879,-2.99684426257323,-1.78169823880557,,5.886129304643337,,
,6523.0,719.0,6710.0,912.0,-57.0,2107.0,3280.0,2025-06-30 21:24:18,90.0,,-2.43874084974529,-2.99673812313649,-1.78235006326162,,6.195404364745602,,
,6529.0,717.0,6710.0,913.0,-65.0,2119.0,3270.0,2025-06-30 21:24:19,90.0,,-2.43912483344139,-2.99664646241268,-1.78208053677302,,6.354332693322832,,
,6528.0,718.0,6715.0,915.0,-65.0,2116.0,3265.0,2025-06-30 21:24:20,91.0,,-2.43922034865831,-2.99681672788573,-1.78259118414918,,6.353502644025136,,
,6532.0,720.0,6715.0,913.0,-59.0,2108.0,3268.0,2025-06-30 21:24:21,91.0,,-2.43852889961962,-2.99666880465402,-1.78223056539325,,6.189994545899774,,
,6533.0,722.0,6715.0,912.0,-69.0,2102.0,3273.0,2025-06-30 21:24:22,90.0,,-2.43814292862518,-2.99680789639724,-1.78199419890495,,5.867972734347506,,
,6530.0,720.0,6719.0,913.0,-70.0,2087.0,3268.0,2025-06-30 21:24:23,90.0,,-2.43792821020149,-2.99678526054219,-1.78192047108553,,5.398801477849771,,
,6536.0,721.0,6722.0,916.0,-61.0,2105.0,3265.0,2025-06-30 21:24:24,90.0,,-2.43808587151896,-2.99681240572856,-1.7820533848657,,4.80061819463642,,
,6537.0,722.0,6722.0,916.0,-47.0,2106.0,3279.0,2025-06-30 21:24:25,90.0,,-2.43778329236087,-2.99677516033504,-1.78131683042049,,4.097358120821042,,
,6538.0,724.0,6725.0,917.0,-49.0,2113.0,3284.0,2025-06-30 21:24:26,90.0,,-2.43703258796176,-2.99678126314649,-1.78164544901156,,3.3172943758035287,,
,6540.0,719.0,6728.0,914.0,-55.0,2118.0,3300.0,2025-06-30 21:24:27,90.0,,-2.43705897903672,-2.99707306734167,-1.78222039631016,,2.4912232304679653,,
,6538.0,720.0,6729.0,915.0,-57.0,2083.0,3283.0,2025-06-30 21:24:28,90.0,,-2.4385268521202,-2.99640955436217,-1.78155412766445,,1.6504723737436768,,
,6542.0,725.0,6733.0,919.0,-55.0,2101.0,3281.0,2025-06-30 21:24:29,91.0,,-2.43788305780571,-2.99700843755264,-1.78228624683811,,0.8249302465151732,,
,6538.0,723.0,6734.0,918.0,-59.0,2112.0,3280.0,2025-06-30 21:24:30,90.0,,-2.43824649452834,-2.99643776354891,-1.78160219109206,,0.04128473433320702,,
,6540.0,721.0,6734.0,917.0,-66.0,2129.0,3297.0,2025-06-30 21:24:31,90.0,,-2.43913506279431,-2.99659160289444,-1.78214819985849,,-0.6783756140075895,,
,6542.0,722.0,6734.0,918.0,-58.0,2088.0,3281.0,2025-06-30 21:24:32,91.0,,-2.43719748313501,-2.99681244398983,-1.78215131351017,,-1.3174965712219107,,
,6544.0,722.0,6741.0,919.0,-57.0,2101.0,3300.0,2025-06-30 21:24:33,91.0,,-2.43836236246607,-2.99657937923351,-1.78227780802343,,-1.8654874052605972,,
,6542.0,724.0,6742.0,918.0,-48.0,2115.0,3285.0,2025-06-30 21:24:34,91.0,,-2.43903974664252,-2.99661722889444,-1.78150915397129,,-2.3176601945262734,,
,6546.0,724.0,6745.0,918.0,-44.0,2110.0,3271.0,2025-06-30 21:24:35,91.0,,-2.43826598621489,-2.99646228290025,-1.78155650442582,,-2.674744781346026,,
,6547.0,721.0,6744.0,919.0,-61.0,2100.0,3257.0,2025-06-30 21:24:36,91.0,,-2.4388993250407,-2.99638110919346,-1.78182706372261,,-2.9420809020148586,,
,6548.0,723.0,6748.0,921.0,-55.0,2115.0,3292.0,2025-06-30 21:24:37,90.0,,-2.4398097433993,-2.99660191140131,-1.78287683488089,,-3.128608736069941,,
,6548.0,722.0,6750.0,920.0,-64.0,2106.0,3279.0,2025-06-30 21:24:38,90.0,,-2.43895490620009,-2.99659302391689,-1.78189806382902,,-3.2457816289218187,,
,6548.0,725.0,6753.0,923.0,-62.0,2114.0,3284.0,2025-06-30 21:24:39,90.0,,-2.43929446985065,-2.99662107060887,-1.78214802656258,,-3.3065109110154505,,
,6550.0,724.0,6752.0,922.0,-64.0,2100.0,3275.0,2025-06-30 21:24:40,90.0,,-2.43869973782749,-2.99704300448666,-1.78195194653062,,-3.3242254564676967,,
,6550.0,724.0,6756.0,922.0,-66.0,2078.0,3246.0,2025-06-30 21:24:41,90.0,,-2.43840044354377,-2.99666807316446,-1.78199373854062,,-3.3120934958920625,,
,6553.0,727.0,6760.0,924.0,-71.0,2081.0,3271.0,2025-06-30 21:24:42,90.0,,-2.43798022883232,-2.99660291563716,-1.78098522943669,,-3.282418990401332,,
,6555.0,726.0,6761.0,924.0,-68.0,2107.0,3312.0,2025-06-30 21:24:43,90.0,,-2.43708430928636,-2.99682409144747,-1.78202838089642,,-3.2461968998813973,,
,6556.0,727.0,6760.0,925.0,-66.0,2106.0,3306.0,2025-06-30 21:24:44,90.0,,-2.43663524841672,-2.99694519492604,-1.78144474958927,,-3.212794939483492,,
,6555.0,724.0,6762.0,923.0,-56.0,2111.0,3285.0,2025-06-30 21:24:45,90.0,,-2.4369081672845,-2.99733056433497,-1.78146949812384,,-3.1897241503616294,,
,6556.0,725.0,6766.0,924.0,-52.0,2115.0,3288.0,2025-06-30 21:24:46,89.0,,-2.43614845768276,-2.99707286811058,-1.78157756829734,,-3.1824649849656104,,
,6559.0,729.0,6768.0,926.0,-49.0,2130.0,3317.0,2025-06-30 21:24:47,89.0,,-2.43480427591637,-2.99722670034439,-1.78123690627072,,-3.1943271266056064,,
,6558.0,724.0,6770.0,926.0,-52.0,2118.0,3313.0,2025-06-30 21:24:48,89.0,,-2.43604110158105,-2.99701335350435,-1.78086624394992,,-3.2263369199080216,,
,6557.0,725.0,6770.0,923.0,-55.0,2102.0,3286.0,2025-06-30 21:24:49,89.0,,-2.43526989706948,-2.996729558606,-1.78054817344296,,-3.277162567701249,,
,6560.0,727.0,6774.0,926.0,-51.0,2111.0,3274.0,2025-06-30 21:24:50,89.0,,-2.43581181083471,-2.99671742409575,-1.78106442059177,,-3.3431006495286217,,
,6560.0,729.0,6771.0,926.0,-58.0,2091.0,3281.0,2025-06-30 21:24:51,89.0,,-2.43487312999143,-2.99726443826819,-1.7807404756253,,-3.4181550955879976,,
,6557.0,730.0,6773.0,928.0,-55.0,2107.0,3278.0,2025-06-30 21:24:52,89.0,,-2.43385712867445,-2.99722351174487,-1.78017756152646,,-3.4942393273503365,,
,6561.0,728.0,6776.0,927.0,-64.0,2115.0,3283.0,2025-06-30 21:24:53,89.0,,-2.4332228961917,-2.99704247020173,-1.7803722590876,,-3.5615227158685023,,
,6557.0,728.0,6773.0,924.0,-54.0,2117.0,3276.0,2025-06-30 21:24:54,89.0,,-2.4329345582447,-2.99681174302434,-1.78055022096266,,-3.6089245425510836,,
,6556.0,729.0,6770.0,926.0,-62.0,2105.0,3271.0,2025-06-30 21:24:55,89.0,,-2.43337252677545,-2.99743725684494,-1.78063011084175,,-3.6247357167832077,,
,6554.0,731.0,6763.0,925.0,-60.0,2089.0,3285.0,2025-06-30 21:24:56,89.0,,-2.43284303388932,-2.99710700099754,-1.78059139044212,,-3.597326218598756,,
,6553.0,729.0,6754.0,925.0,-58.0,2106.0,3285.0,2025-06-30 21:24:57,90.0,,-2.43245538020545,-2.99689240263848,-1.78028695379337,,-3.515880010757666,,
,6552.0,729.0,6742.0,923.0,-53.0,2128.0,3280.0,2025-06-30 21:24:58,90.0,,-2.43155849792484,-2.99712725098261,-1.77975860413421,,-3.371091952943304,,
,6551.0,725.0,6737.0,925.0,-59.0,2116.0,3277.0,2025-06-30 21:24:59,90.0,,-2.43191861304217,-2.99699803092346,-1.77946083774152,,-3.155763492368924,,
,6551.0,727.0,6732.0,928.0,-58.0,2092.0,3272.0,2025-06-30 21:25:00,89.0,,-2.43125130333085,-2.99716973791075,-1.78004229889754,,-2.8652450776988236,,
,6549.0,724.0,6723.0,925.0,-60.0,2094.0,3281.0,2025-06-30 21:25:01,89.0,,-2.43171201875879,-2.99711624432495,-1.78021872663755,,-2.497692483029762,,
,6542.0,724.0,6718.0,922.0,-66.0,2091.0,3295.0,2025-06-30 21:25:02,89.0,,-2.43175263554103,-2.9969261488702,-1.77960951206965,,-2.0541293588011946,,
,6538.0,719.0,6710.0,921.0,-57.0,2107.0,3287.0,2025-06-30 21:25:03,89.0,,-2.43166356558836,-2.99702453043205,-1.77961477436622,,-1.5383350792392523,,
,6537.0,722.0,6709.0,920.0,-57.0,2097.0,3266.0,2025-06-30 21:25:04,89.0,,-2.43111130329819,-2.99713445229195,-1.7797832789656,,-0.9565997391011123,,
,6533.0,721.0,6704.0,919.0,-54.0,2110.0,3269.0,2025-06-30 21:25:05,89.0,,-2.43084689927516,-2.99686144533436,-1.77970870633138,,-0.31740177717652657,,
,6531.0,718.0,6702.0,919.0,-53.0,2130.0,3268.0,,,,-2.43102708588976,-2.99746830264769,-1.77983432928276,,0.36893504392210213,,
,6529.0,717.0,6699.0,916.0,-51.0,2137.0,3273.0,,,,-2.43083755280486,-2.99725217728423,-1.77995835004627,,1.090559899381935,,
,6528.0,714.0,6694.0,915.0,-62.0,2145.0,3283.0,,,,-2.42999134206278,-2.99710661214458,-1.77915940092604,,1.8343636485522536,,
,6527.0,718.0,6695.0,918.0,-65.0,2118.0,3272.0,,,,-2.43041169557437,-2.99728116201,-1.77918413635929,,2.5861971385537372,,
,6527.0,717.0,6695.0,917.0,-65.0,2104.0,3282.0,,,,-2.43035373888016,-2.99688060316435,-1.77962626157973,,3.3310583558186306,,
,6525.0,718.0,6693.0,915.0,-49.0,2113.0,3278.0,,,,-2.43033643206719,-2.99717575330473,-1.7792575809274,,4.053279848766086,,
,6523.0,713.0,6692.0,913.0,-62.0,2128.0,3278.0,,,,-2.43073189518824,-2.99714791605948,-1.7792228073642,,4.736751146272057,,
,6527.0,718.0,6692.0,913.0,-63.0,2120.0,3286.0,,,,-2.42996428993372,-2.99739910133488,-1.77988387557285,,5.365207034373148,,
,6524.0,718.0,6693.0,914.0,-65.0,2125.0,3251.0,,,,-2.43086741963116,-2.99732271366531,-1.77938574942185,,5.922603309752177,,
,6526.0,717.0,6696.0,916.0,-57.0,2128.0,3256.0,,,,-2.43048388720156,-2.99736237700986,-1.78002466814957,,6.393588071936173,,
,6526.0,715.0,6698.0,914.0,-59.0,2119.0,3278.0,,,,-2.42933060255705,-2.99735030623731,-1.77936485107581,,6.764059937229768,,
,6527.0,713.0,6695.0,914.0,-56.0,2111.0,3289.0,,,,-2.42970952638005,-2.9974440563949,-1.77914960405186,,7.021786907559019,,
,6526.0,716.0,6696.0,914.0,-57.0,2094.0,3256.0,,,,-2.42970519535642,-2.99745691795277,-1.77982575282674,,7.157043952267299,,
,6526.0,717.0,6698.0,913.0,-59.0,2092.0,3260.0,,,,-2.42861212524194,-2.99752345714764,-1.77960655326298,,7.163216616118936,,
,6529.0,717.0,6699.0,915.0,-55.0,2097.0,3252.0,,,,-2.42854757760583,-2.99746503003711,-1.77944185455968,,7.037314311559787,,
,6527.0,717.0,6698.0,912.0,-49.0,2101.0,3248.0,,,,-2.42773218814705,-2.99780384597761,-1.77867912871739,,6.780341047751679,,
,6526.0,717.0,6705.0,914.0,-51.0,2109.0,3264.0,,,,-2.42883964289834,-2.99727922535726,-1.77880492532761,,6.397481992031709,,
,6528.0,718.0,6702.0,915.0,-63.0,2116.0,3271.0,,,,-2.43073208875269,-2.99741691278705,-1.7802154363939,,5.89807898373036,,
,6527.0,719.0,6706.0,914.0,-71.0,2109.0,3289.0,,,,-2.43333912445558,-2.99703535230008,-1.78012686767777,,5.295384589799226,,
,6527.0,717.0,6703.0,912.0,-59.0,2122.0,3339.0,,,,-2.43610999747203,-2.99651678311023,-1.78139984456824,,4.606101087882681,,
,6529.0,717.0,6706.0,914.0,-37.0,2128.0,3331.0,,,,-2.43905751615404,-2.99683264230731,-1.78219271516247,,3.849726804990893,,
,6532.0,720.0,6709.0,917.0,-41.0,2100.0,3286.0,,,,-2.44099971778515,-2.99661563211726,-1.78311165674328,,3.0477460158880954,,
,6531.0,720.0,6712.0,913.0,-43.0,2062.0,3279.0,,,,-2.44186107335882,-2.9966917362746,-1.78246716188697,,2.2227085145302508,,
,6529.0,717.0,6711.0,915.0,-65.0,2039.0,3221.0,,,,-2.44265875960157,-2.99608308073344,-1.78350188515279,,1.397250315822122,,
,6531.0,717.0,6711.0,914.0,-72.0,2096.0,3248.0,,,,-2.44341748042453,-2.99605720711921,-1.78317086663878,,0.5931081748017584,,
,6531.0,718.0,6713.0,914.0,-67.0,2145.0,3276.0,,,,-2.4449258024139,-2.99619012555932,-1.78342887464695,,-0.16982128205952057,,
,6534.0,718.0,6716.0,915.0,-73.0,2162.0,3288.0,,,,-2.44489829763499,-2.99608478281745,-1.78408370630429,,-0.8743308831801796,,
,6532.0,719.0,6715.0,918.0,-73.0,2145.0,3329.0,,,,-2.44535603824969,-2.99598299715604,-1.78414821341202,,-1.506618254800444,,
,6533.0,718.0,6714.0,915.0,-54.0,2113.0,3334.0,,,,-2.4468277877911,-2.99654071765371,-1.78444705352395,,-2.0568287931017184,,
,6532.0,721.0,6719.0,917.0,-36.0,2097.0,3301.0,,,,-2.44607943894522,-2.99639967253062,-1.78450872961342,,-2.519391890673403,,
,6532.0,720.0,6717.0,915.0,-36.0,2115.0,3244.0,,,,-2.44626971445873,-2.99590758363671,-1.78381749859267,,-2.8931223159464956,,
,6535.0,717.0,6719.0,919.0,-40.0,2107.0,3227.0,,,,-2.44609918434386,-2.99628485512005,-1.78433768001218,,-3.181069865823634,,
,6531.0,717.0,6717.0,918.0,-39.0,2122.0,3219.0,,,,-2.44552040605353,-2.99596138895943,-1.78455923818965,,-3.390117188682984,,
,6533.0,719.0,6718.0,917.0,-48.0,2154.0,3224.0,,,,-2.44489066589564,-2.9964510983859,-1.78370083433109,,-3.5303456839950695,,
,6536.0,720.0,6723.0,918.0,-67.0,2129.0,3272.0,,,,-2.4450087728078,-2.99672356397719,-1.78348957185627,,-3.614208960480873,,
,6536.0,720.0,6725.0,919.0,-68.0,2138.0,3313.0,,,,-2.44421512433889,-2.99646642690218,-1.78355823086133,,-3.655569582278806,,
,6536.0,720.0,6723.0,917.0,-63.0,2132.0,3372.0,,,,-2.44362744725789,-2.99619028103636,-1.78334905971061,,-3.668666294456081,,
,6534.0,721.0,6723.0,916.0,-69.0,2119.0,3368.0,,,,-2.44443799358884,-2.99659500968074,-1.78301727733133,,-3.667084960716538,,
,6538.0,720.0,6725.0,918.0,-61.0,2098.0,3302.0,,,,-2.44361493388144,-2.99617606905416,-1.7828054716963,,-3.662806687632113,,
,6538.0,722.0,6728.0,917.0,-60.0,2092.0,3264.0,,,,-2.44341801355728,-2.99636124459247,-1.78302429967415,,-3.6654009110257464,,
,6536.0,723.0,6727.0,921.0,-63.0,2084.0,3244.0,,,,-2.44269471924207,-2.99622801188388,-1.78285530520243,,-3.681419737256602,,
,6537.0,720.0,6728.0,919.0,-57.0,2100.0,3220.0,,,,-2.44269106543989,-2.99641399603864,-1.78311593971978,,-3.7140329105766408,,
,6539.0,723.0,6731.0,917.0,-62.0,2115.0,3252.0,,,,-2.44230152349652,-2.99650946495845,-1.78303529490038,,-3.7629211599635974,,
,6542.0,724.0,6734.0,918.0,-59.0,2141.0,3292.0,,,,-2.44304708115924,-2.99638932684326,-1.78313217244061,,-3.824421347247648,,
,6544.0,723.0,6735.0,921.0,-61.0,2142.0,3303.0,,,,-2.44267832716418,-2.99635475634044,-1.78271245053777,,-3.891893663061598,,
,6545.0,723.0,6735.0,921.0,-67.0,2140.0,3310.0,,,,-2.44319039624536,-2.99647127456837,-1.78212292834937,,-3.9562638601841096,,
,6545.0,723.0,6740.0,919.0,-61.0,2104.0,3288.0,,,,-2.44263531489927,-2.99661664072028,-1.78215204626062,,-4.006685285484697,,
,6546.0,723.0,6739.0,922.0,-68.0,2092.0,3277.0,,,,-2.44271044237007,-2.9966365939564,-1.78239197943539,,-4.031265977194059,,
,6545.0,724.0,6742.0,921.0,-59.0,2115.0,3265.0,,,,-2.44080424423525,-2.99653666047109,-1.78281175780566,,-4.017812450757101,,
,6548.0,725.0,6744.0,926.0,-52.0,2130.0,3254.0,,,,-2.44119929697983,-2.99670103600278,-1.78284560672824,,-3.954550728373249,,
,6547.0,723.0,6743.0,925.0,-57.0,2141.0,3266.0,,,,-2.44143303450899,-2.99646358826126,-1.78245255201041,,-3.830794311810271,,
,6551.0,724.0,6748.0,923.0,-60.0,2125.0,3274.0,,,,-2.44174278515599,-2.99652859989195,-1.78243381643231,,-3.637536771459023,,
,6552.0,725.0,6748.0,926.0,-62.0,2119.0,3301.0,,,,-2.44133361508386,-2.99669853499369,-1.78281576182778,,-3.367952936287395,,
,6552.0,725.0,6752.0,924.0,-65.0,2115.0,3286.0,,,,-2.44113350003342,-2.99638427567456,-1.78278636216157,,-3.017797776865194,,
,6551.0,725.0,6751.0,923.0,-63.0,2068.0,3301.0,,,,-2.44120980285281,-2.99679776068626,-1.78225685266609,,-2.5856969102348666,,
,6555.0,727.0,6754.0,925.0,-63.0,2085.0,3274.0,,,,-2.44164933383737,-2.99672274591911,-1.78183212313113,,-2.073327559272669,,
,6555.0,724.0,6758.0,926.0,-71.0,2134.0,3284.0,,,,-2.44166314878551,-2.99663844236501,-1.78242275567136,,-1.4854929398226484,,
,6555.0,725.0,6759.0,924.0,-59.0,2138.0,3296.0,,,,-2.441187411184,-2.99654692104376,-1.78244317530781,,-0.8300952501016726,,
,6555.0,727.0,6759.0,927.0,-63.0,2138.0,3282.0,,,,-2.44134030389033,-2.99647171597105,-1.78248902889659,,-0.11801254748882896,,
,6557.0,724.0,6762.0,925.0,-59.0,2100.0,3278.0,,,,-2.44268741416866,-2.99653328568221,-1.78247649347192,,0.6371161804936206,,
,6557.0,726.0,6764.0,927.0,-65.0,2096.0,3279.0,,,,-2.44147636065853,-2.9966112170642,-1.7822939789474,,1.4191945821369671,,
,6559.0,727.0,6766.0,929.0,-61.0,2112.0,3296.0,,,,-2.44163681850001,-2.99640479448111,-1.78201819406207,,2.210059135317903,,
,6558.0,726.0,6766.0,928.0,-60.0,2117.0,3287.0,,,,-2.4412348574835,-2.9962482598887,-1.78275306090588,,2.989955110198003,,
,6558.0,727.0,6768.0,927.0,-55.0,2135.0,3305.0,,,,-2.44218425160691,-2.99629731545978,-1.78256453681977,,3.7380978529435054,,
,6561.0,727.0,6772.0,928.0,-60.0,2141.0,3285.0,,,,-2.44151133725994,-2.99662441724257,-1.78296671209911,,4.433317408118306,,
,6562.0,729.0,6774.0,931.0,-66.0,2123.0,3295.0,,,,-2.4419909838251,-2.99667180994856,-1.78315211046745,,5.054780105897041,,
,6564.0,729.0,6777.0,929.0,-65.0,2106.0,3298.0,,,,-2.44238123855097,-2.99665137010797,-1.78155829090494,,5.582773352615532,,
,6563.0,729.0,6776.0,931.0,-66.0,2117.0,3279.0,,,,-2.4424357327852,-2.99647471583623,-1.78271115470669,,5.999530214839004,,
,6564.0,727.0,6780.0,929.0,-61.0,2116.0,3286.0,,,,-2.44040286719525,-2.99615421030845,-1.78231363590696,,6.29006000574905,,
,6564.0,729.0,6783.0,930.0,-72.0,2114.0,3291.0,,,,-2.44163967860665,-2.99640766282071,-1.78294423592394,,6.44294189720628,,
,6567.0,730.0,6783.0,932.0,-64.0,2120.0,3272.0,,,,-2.44131869348602,-2.99622475783949,-1.78256131979189,,6.451032099019703,,
,6569.0,733.0,6786.0,931.0,-56.0,2128.0,3280.0,,,,-2.44095174337907,-2.99674398699785,-1.78169276924173,,6.312031745658086,,
,6569.0,728.0,6784.0,933.0,-50.0,2120.0,3284.0,,,,-2.44037570810672,-2.99644629476216,-1.78161296962916,,6.028862040355416,,
,6569.0,730.0,6790.0,933.0,-56.0,2113.0,3273.0,,,,-2.44158308515112,-2.99639713361715,-1.78198532073202,,5.6097961737302455,,
,6569.0,731.0,6789.0,934.0,-53.0,2127.0,3267.0,,,,-2.44072035351547,-2.99648588127756,-1.78187008370053,,5.068306553790041,,
,6568.0,732.0,6789.0,934.0,-57.0,2120.0,3282.0,,,,-2.43996754873563,-2.99666866028918,-1.78120466575489,,4.42260336921671,,
2025-06-30 21:22:08,6567.0,731.0,6792.0,932.0,-57.0,2117.0,3289.0,,,2025/06/30 09:22:08 PM,-2.4396041552251,-2.99664655429556,-1.78103648566561,,3.6948660762383807,,
,6567.0,733.0,6790.0,933.0,-54.0,2108.0,3286.0,,,,-2.43989100624495,-2.99646118387779,-1.78115846859592,,2.9101992262672574,,
,6567.0,731.0,6792.0,933.0,-53.0,2113.0,3284.0,,,,-2.43839220654578,-2.99704045965091,-1.7814960102182,,2.0953726927393417,,
,6565.0,731.0,6789.0,933.0,-56.0,2123.0,3276.0,,,,-2.43816912228988,-2.99661005498376,-1.78165752075743,,1.2774290741571137,,
,6565.0,735.0,6787.0,935.0,-61.0,2105.0,3289.0,,,,-2.4380121968528,-2.99736257966259,-1.78109455592504,,0.4822550383219378,,
,6563.0,729.0,6778.0,933.0,-66.0,2103.0,3279.0,,,,-2.43772577960938,-2.99683349410717,-1.78061104037613,,-0.2667821440013164,,
,6556.0,731.0,6766.0,932.0,-66.0,2105.0,3290.0,,,,-2.43765186474673,-2.99690522831864,-1.78171927723026,,-0.9500357784316187,,
,6556.0,733.0,6759.0,931.0,-58.0,2079.0,3285.0,,,,-2.43741554138262,-2.99674698194428,-1.78146429656285,,-1.5525325951736753,,
,6557.0,732.0,6757.0,933.0,-58.0,2085.0,3281.0,,,,-2.43714030803049,-2.99682247058814,-1.78099723304848,,-2.0646078280730875,,
,6555.0,727.0,6745.0,930.0,-59.0,2093.0,3290.0,,,,-2.43730981552053,-2.99694405367023,-1.78038687284022,,-2.482175061577316,,
,6551.0,728.0,6744.0,930.0,-64.0,2117.0,3276.0,,,,-2.43618306708034,-2.99711821399145,-1.78121339394073,,-2.806610787283829,,
,6550.0,728.0,6741.0,929.0,-58.0,2112.0,3263.0,,,,-2.43718662941374,-2.99712204988772,-1.78131645061585,,-3.0442648263503025,,
,6548.0,725.0,6738.0,930.0,-71.0,2117.0,3270.0,,,,-2.43821149401419,-2.99692405683714,-1.78005269073025,,-3.205639025625988,,
,6546.0,724.0,6735.0,929.0,-63.0,2122.0,3289.0,,,,-2.43671293394968,-2.99698235848983,-1.78143450623249,,-3.3043036866343387,,
,6542.0,723.0,6732.0,925.0,-57.0,2126.0,3286.0,,,,-2.43778622954341,-2.99686252841582,-1.78086685468396,,-3.3556411146852767,,
,6540.0,723.0,6732.0,926.0,-62.0,2133.0,3272.0,,,,-2.4362730872148,-2.99690841669471,-1.7812029125242,,-3.3755171441577883,,
,6541.0,722.0,6729.0,926.0,-59.0,2119.0,3284.0,,,,-2.43495019079555,-2.99699779715683,-1.78050539507395,,-3.378984188036219,,
,6540.0,722.0,6730.0,923.0,-68.0,2120.0,3284.0,,,,-2.43471346727868,-2.99676713362783,-1.78021244434162,,-3.379113622925524,,
,6536.0,723.0,6728.0,922.0,-68.0,2119.0,3317.0,,,,-2.4352798932137,-2.9972710097915,-1.78062324336517,,-3.3860420079893423,,
,6537.0,719.0,6727.0,921.0,-76.0,2118.0,3313.0,,,,-2.4342913369479,-2.99725346931637,-1.78021552082212,,-3.4062958173466282,,
,6535.0,723.0,6727.0,922.0,-67.0,2121.0,3345.0,,,,-2.4337342752757,-2.99744064475393,-1.77969404745032,,-3.442434144669982,,
,6537.0,723.0,6731.0,924.0,-59.0,2132.0,3300.0,,,,-2.43484278296344,-2.99713136390834,-1.77956603876672,,-3.4930197409396584,,
,6536.0,721.0,6730.0,922.0,-54.0,2121.0,3288.0,,,,-2.43545004127482,-2.99703467902616,-1.78006488971484,,-3.552898610039268,,
,6535.0,722.0,6727.0,921.0,-23.0,2122.0,3249.0,,,,-2.43399811090277,-2.99695134466867,-1.78022056816169,,-3.6137417308816455,,
,6536.0,720.0,6732.0,923.0,-8.0,2079.0,3198.0,,,,-2.43417138277989,-2.99735579095617,-1.77947866078505,,-3.6647840266169074,,
,6536.0,720.0,6733.0,923.0,-32.0,2048.0,3196.0,,,,-2.4340238519936,-2.99708197960316,-1.78034264185252,,-3.693687698532263,,
,6537.0,721.0,6732.0,924.0,-45.0,2060.0,3205.0,,,,-2.43362556935372,-2.99718363678806,-1.78017424610842,,-3.68745814956854,,
,6539.0,720.0,6734.0,920.0,-55.0,2111.0,3244.0,,,,-2.43267979775737,-2.9971656653099,-1.7801165652723,,-3.6333478253654508,,
,6535.0,721.0,6735.0,922.0,-77.0,2141.0,3319.0,,,,-2.43309320096826,-2.99719970297453,-1.78054899911784,,-3.5196938011358085,,
,6537.0,723.0,6741.0,921.0,-69.0,2171.0,3382.0,,,,-2.43287260559844,-2.99692291595107,-1.78034275768473,,-3.3366472720348797,,
,6539.0,722.0,6737.0,923.0,-63.0,2160.0,3370.0,,,,-2.43305498878529,-2.9976120551629,-1.77977745188521,,-3.076766181940078,,
,6538.0,722.0,6740.0,923.0,-49.0,2105.0,3357.0,,,,-2.43482228165221,-2.99707464052156,-1.78033585143305,,-2.73545530177261,,
,6539.0,721.0,6743.0,922.0,-49.0,2060.0,3295.0,,,,-2.43749435000279,-2.99673919345925,-1.78067960402781,,-2.311250684162625,,
,6538.0,723.0,6744.0,923.0,-44.0,2071.0,3257.0,,,,-2.4399965595167,-2.99662132871738,-1.7820016034318,,-1.8059567510724672,,
,6539.0,721.0,6747.0,922.0,-57.0,2102.0,3231.0,,,,-2.44196590736864,-2.9961999345774,-1.78266427469106,,-1.224652548162147,,
,6542.0,724.0,6748.0,923.0,-59.0,2121.0,3227.0,,,,-2.44361204087795,-2.99655031988396,-1.78281334372339,,-0.5755869740024274,,
,6539.0,722.0,6748.0,923.0,-51.0,2130.0,3254.0,,,,-2.44513822350092,-2.9967500611611,-1.78389215768549,,0.1300192535133372,,
,6541.0,721.0,6749.0,925.0,-58.0,2135.0,3272.0,,,,-2.44612997592774,-2.99639866319833,-1.78342790464385,,0.8782523131949765,,
,6542.0,724.0,6750.0,923.0,-58.0,2127.0,3311.0,,,,-2.44756289297157,-2.99590085660476,-1.78452148008793,,1.6528572592604647,,
,6542.0,724.0,6751.0,925.0,-55.0,2124.0,3317.0,,,,-2.4477613585982,-2.99591898135336,-1.7845092538754,,2.435659339303096,,
,6543.0,725.0,6750.0,925.0,-49.0,2131.0,3316.0,,,,-2.44863789788075,-2.99604563775326,-1.7854617796631,,3.2070529083022232,,
,6544.0,723.0,6752.0,925.0,-58.0,2113.0,3304.0,,,,-2.44850656716448,-2.99596271212049,-1.78480877652079,,3.9465575264870334,,
,6544.0,725.0,6752.0,925.0,-58.0,2092.0,3270.0,,,,-2.4492226082444,-2.99568149259828,-1.78521310555678,,4.633440493927167,,
,6544.0,725.0,6753.0,924.0,-58.0,2095.0,3262.0,,,,-2.44946067868868,-2.99563724870673,-1.78543956627107,,5.247401718958714,,
,6545.0,725.0,6753.0,924.0,-56.0,2110.0,3256.0,,,,-2.44926004233926,-2.99600905395615,-1.7845604412466,,5.769310008784669,,
,6544.0,725.0,6754.0,923.0,-64.0,2129.0,3250.0,,,,-2.44938965033442,-2.99577138552192,-1.78483650721053,,6.181970523578289,,
,6544.0,725.0,6755.0,925.0,-59.0,2141.0,3276.0,,,,-2.44866529131339,-2.9959565643654,-1.7841957906713,,6.470892990942939,,
,6548.0,725.0,6757.0,928.0,-56.0,2126.0,3287.0,,,,-2.44791575781062,-2.99584784890031,-1.78442929315749,,6.625021300139389,,
,6547.0,726.0,6756.0,926.0,-66.0,2125.0,3303.0,,,,-2.44833649572129,-2.99579961683282,-1.78408367139053,,6.637378993889086,,
,6549.0,724.0,6756.0,924.0,-63.0,2082.0,3300.0,,,,-2.44753579475675,-2.99603464689975,-1.78444111480141,,6.505582857597755,,
,6550.0,726.0,6759.0,926.0,-59.0,2098.0,3275.0,,,,-2.44746038232206,-2.99600412982366,-1.78417899073346,,6.232178133319085,,
,6551.0,725.0,6758.0,926.0,-62.0,2133.0,3265.0,,,,-2.44770540913439,-2.99608698257448,-1.78376858899473,,5.824753431148085,,
,6551.0,726.0,6759.0,927.0,-62.0,2135.0,3262.0,,,,-2.44621321504057,-2.99645579287906,-1.78411493794472,,5.295801775091839,,
,6553.0,726.0,6762.0,928.0,-53.0,2123.0,3278.0,,,,-2.44595776440988,-2.99594809102017,-1.78425437232851,,4.662308143296736,,
,6552.0,723.0,6762.0,925.0,-58.0,2126.0,3288.0,,,,-2.44664551559429,-2.99630517118338,-1.78431461316044,,3.9450643752826644,,
,6555.0,726.0,6764.0,928.0,-57.0,2111.0,3272.0,,,,-2.44593547893629,-2.99606577619439,-1.78415102616782,,3.167737718307464,,
,6555.0,728.0,6768.0,930.0,-62.0,2102.0,3263.0,,,,-2.44689679209686,-2.99600550207417,-1.78346738583087,,2.355745114571005,,
,6556.0,728.0,6767.0,928.0,-61.0,2121.0,3272.0,,,,-2.44580674706502,-2.99619919098962,-1.78343101503786,,1.5350063110001404,,
,6554.0,727.0,6771.0,926.0,-63.0,2144.0,3286.0,,,,-2.44442392004308,-2.99606292337428,-1.78276916018085,,0.7306610630622309,,
,6559.0,728.0,6773.0,930.0,-63.0,2143.0,3295.0,,,,-2.44490758957576,-2.99602977812898,-1.78323637830676,,-0.03416226682670625,,
,6563.0,726.0,6775.0,928.0,-63.0,2117.0,3274.0,,,,-2.44594560163784,-2.99591973334466,-1.78390672700007,,-0.7394461902241946,,
,6562.0,727.0,6778.0,929.0,-66.0,2107.0,3266.0,,,,-2.44447031132958,-2.9964897366006,-1.78272157138713,,-1.3691834965249543,,
,6560.0,726.0,6778.0,930.0,-54.0,2103.0,3258.0,,,,-2.44452477022178,-2.9964339530773,-1.78301645514891,,-1.9120231334705369,,
,6565.0,728.0,6778.0,929.0,-53.0,2100.0,3268.0,,,,-2.44387561377667,-2.99640664294924,-1.78345849562647,,-2.3616247806778605,,
,6562.0,730.0,6783.0,932.0,-54.0,2124.0,3263.0,,,,-2.44514048796491,-2.99629286699131,-1.7838895246442,,-2.716701794554502,,
,6564.0,728.0,6784.0,930.0,-52.0,2128.0,3265.0,,,,-2.44448493210973,-2.99638804561028,-1.78356302144309,,-2.980752620951908,,
,6566.0,729.0,6784.0,930.0,-52.0,2126.0,3265.0,,,,-2.44364401678324,-2.99660137666296,-1.7833361265184,,-3.161503303796888,,
,6566.0,728.0,6788.0,931.0,-68.0,2105.0,3281.0,,,,-2.44415612372092,-2.99646352005077,-1.78296306431975,,-3.270105418693851,,
,6568.0,728.0,6787.0,932.0,-66.0,2120.0,3285.0,,,,-2.4442706775453,-2.99602347116918,-1.78308042302922,,-3.3201514809125547,,
,6571.0,731.0,6791.0,933.0,-63.0,2113.0,3278.0,,,,-2.44440294284491,-2.99650082529116,-1.78386942568319,,-3.3265818106070792,,
,6572.0,729.0,6793.0,934.0,-63.0,2116.0,3288.0,,,,-2.44513828166797,-2.99610970076519,-1.78402660749748,,-3.3045625533886414,,
,6573.0,730.0,6793.0,932.0,-61.0,2098.0,3274.0,,,,-2.44577087834484,-2.99631401739204,-1.78412279125412,,-3.2684143212158765,,
,6574.0,730.0,6797.0,934.0,-63.0,2108.0,3275.0,,,,-2.4446986458945,-2.99647735440973,-1.78299093815414,,-3.2306652625721037,,
,6575.0,731.0,6799.0,932.0,-62.0,2098.0,3272.0,,,,-2.44445917150756,-2.99607609257644,-1.7832331845608,,-3.201291853940941,,
,6577.0,731.0,6802.0,932.0,-67.0,2091.0,3284.0,,,,-2.44548561747774,-2.99639542169944,-1.78374076908167,,-3.1871956321910457,,
,6577.0,732.0,6802.0,935.0,-51.0,2104.0,3273.0,,,,-2.44570675637281,-2.99637304569783,-1.78379768098874,,-3.191944382113484,,
,6575.0,732.0,6804.0,936.0,-50.0,2122.0,3260.0,,,,-2.44696852302239,-2.99617974290853,-1.78379420371291,,-3.2157821513191887,,
,6580.0,730.0,6807.0,936.0,-54.0,2126.0,3273.0,,,,-2.44636535683284,-2.99572462671995,-1.78445977258607,,-3.255885801931907,,
,6579.0,732.0,6809.0,934.0,-55.0,2126.0,3292.0,,,,-2.44621199638671,-2.99637607133383,-1.78357542647181,,-3.3068211200622355,,
,6585.0,731.0,6810.0,936.0,-57.0,2120.0,3307.0,,,,-2.44705136646056,-2.99581573568457,-1.78377644159657,,-3.36113445291477,,
,6579.0,729.0,6810.0,934.0,-60.0,2107.0,3302.0,,,,-2.44566813164638,-2.99607519334092,-1.78330530228408,,-3.4100101107669203,,
,6585.0,732.0,6815.0,935.0,-59.0,2107.0,3298.0,,,,-2.44528055058906,-2.99596507342465,-1.78442335133096,,-3.443929076135261,,
,6582.0,733.0,6815.0,936.0,-61.0,2106.0,3276.0,,,,-2.44509518971437,-2.99611954010297,-1.78357258360315,,-3.4532776250253843,,
,6584.0,732.0,6814.0,938.0,-59.0,2116.0,3279.0,,,,-2.44481169698617,-2.99632036913751,-1.7834915279371,,-3.428871346076947,,
,6582.0,731.0,6813.0,937.0,-60.0,2128.0,3287.0,,,,-2.4452228077306,-2.99620526980346,-1.78397542707517,,-3.36237744519009,,
,6581.0,734.0,6811.0,936.0,-60.0,2123.0,3275.0,,,,-2.44552674356718,-2.99621983493396,-1.78362644237372,,-3.246633545933814,,
,6583.0,732.0,6807.0,938.0,-62.0,2113.0,3267.0,,,,-2.44539889503581,-2.99628314071533,-1.78378941700413,,-3.075872614635569,,
,6580.0,734.0,6796.0,937.0,-62.0,2114.0,3266.0,,,,-2.44475264467455,-2.99642562083589,-1.78345177557262,,-2.8458705251340923,,
,6575.0,735.0,6785.0,936.0,-59.0,2112.0,3265.0,,,,-2.44546805868245,-2.9965413068773,-1.78308196136656,,-2.5540356399942437,,
,6574.0,732.0,6779.0,934.0,-70.0,2099.0,3265.0,,,,-2.44551895914356,-2.99627001499184,-1.78374325636288,,-2.1994594258965496,,
,6574.0,732.0,6771.0,934.0,-59.0,2102.0,3271.0,,,,-2.44522584063187,-2.99628202397934,-1.78374585134717,,-1.782944021898689,,
,6574.0,732.0,6767.0,933.0,-61.0,2101.0,3281.0,,,,-2.44337517121584,-2.9963270941267,-1.78336417232274,,-1.3070175696967576,,
,6569.0,729.0,6758.0,933.0,-61.0,2098.0,3286.0,,,,-2.44457814497819,-2.99635474109731,-1.7831626489544,,-0.7759428231903095,,
,6565.0,724.0,6748.0,930.0,-64.0,2112.0,3298.0,,,,-2.44397879456017,-2.99631088810489,-1.78312985496227,,-0.19572118415560133,,
,6562.0,727.0,6744.0,930.0,-60.0,2109.0,3276.0,,,,-2.44249324918135,-2.99652217163584,-1.78316970256966,,0.4259069709406444,,
,6558.0,725.0,6739.0,926.0,-63.0,2110.0,3280.0,,,,-2.44314950968952,-2.99642802743666,-1.78290580862844,,1.0794664555865334,,
,6556.0,722.0,6737.0,927.0,-61.0,2108.0,3277.0,,,,-2.4428872944698,-2.99651489651241,-1.78359371056452,,1.75376159841564,,
,6553.0,721.0,6732.0,927.0,-64.0,2118.0,3275.0,,,,-2.44196057852779,-2.99624575449965,-1.78271978470076,,2.435915026297957,,
,6551.0,721.0,6726.0,923.0,-66.0,2104.0,3265.0,,,,-2.44114066541092,-2.99644367873567,-1.78260441195462,,3.1114550191913644,,
,6549.0,722.0,6725.0,924.0,-68.0,2129.0,3275.0,,,,-2.44219352532068,-2.99655912519072,-1.78236011797352,,3.7644824857108903,,
,6549.0,722.0,6722.0,923.0,-60.0,2109.0,3279.0,,,,-2.44203541476668,-2.99625836799031,-1.7824235232527,,4.377949383819375,,
,6549.0,721.0,6722.0,923.0,-59.0,2110.0,3277.0,,,,-2.44280405668566,-2.99639368265243,-1.78308905919123,,4.934074132776242,,
,6546.0,720.0,6718.0,920.0,-59.0,2115.0,3294.0,,,,-2.44177817741054,-2.99653310258945,-1.78354564941202,,5.414907640667744,,
,6546.0,718.0,6717.0,921.0,-59.0,2115.0,3284.0,,,,-2.44170914989324,-2.99637005891634,-1.78259808676965,,5.803048269786171,,
,6546.0,720.0,6720.0,919.0,-62.0,2101.0,3284.0,,,,-2.44188940797645,-2.99631174397832,-1.78241746999191,,6.082486993517726,,
,6550.0,718.0,6720.0,919.0,-64.0,2096.0,3284.0,,,,-2.4409388529779,-2.99646515235445,-1.78241151911718,,6.239545555947342,,
,6542.0,718.0,6721.0,920.0,-63.0,2121.0,3288.0,,,,-2.43993325248322,-2.99665312602834,-1.78222779934668,,6.263850506282699,,
,6547.0,719.0,6718.0,919.0,-63.0,2111.0,3281.0,,,,-2.44143919402928,-2.99652494383542,-1.78225834704256,,6.149265700409648,,
,6548.0,721.0,6722.0,919.0,-60.0,2103.0,3276.0,,,,-2.44113199609158,-2.99644292925548,-1.78274489481053,,5.894689146684209,,
,6548.0,721.0,6722.0,920.0,-63.0,2097.0,3282.0,,,,-2.44144355553451,-2.99655434611234,-1.7827854639638,,5.5046127854073035,,
,6548.0,719.0,6723.0,919.0,-61.0,2103.0,3274.0,,,,-2.44086690157155,-2.99650595622456,-1.78288732248872,,4.989350861650783,,
,6545.0,720.0,6724.0,919.0,-54.0,2109.0,3278.0,,,,-2.44061256489252,-2.99650383377768,-1.78302751327259,,4.364865572561284,,
,6548.0,718.0,6723.0,920.0,-50.0,2111.0,3288.0,,,,-2.44113648479038,-2.99669574927521,-1.78277186610229,,3.652155679193686,,
,6549.0,721.0,6727.0,920.0,-63.0,2123.0,3287.0,,,,-2.44093003832835,-2.99665719729783,-1.78275735417817,,2.8762202559343053,,
,6548.0,720.0,6727.0,920.0,-64.0,2125.0,3272.0,,,,-2.4398717586514,-2.99686819806757,-1.78252220754945,,2.0646594493963955,,
,6550.0,720.0,6728.0,918.0,-60.0,2118.0,3266.0,,,,-2.43981780334852,-2.9965923847559,-1.78201422050316,,1.2460197529659967,,
,6550.0,717.0,6729.0,919.0,-54.0,2141.0,3272.0,,,,-2.43995037122264,-2.99658349269992,-1.78148296397381,,0.44802590847857315,,
,6550.0,721.0,6730.0,919.0,-57.0,2123.0,3273.0,,,,-2.4386295079299,-2.99680149846498,-1.7816151905517,,-0.30414005791929055,,
,6550.0,721.0,6732.0,920.0,-56.0,2120.0,3296.0,,,,-2.43859207247514,-2.99669333682971,-1.78141252681375,,-0.9893528522599362,,
,6551.0,722.0,6732.0,918.0,-59.0,2114.0,3302.0,,,,-2.43982869510462,-2.99653094262471,-1.78193394785908,,-1.5917116284509758,,
,6552.0,720.0,6732.0,919.0,-58.0,2104.0,3298.0,,,,-2.43967441768525,-2.99632269025902,-1.78199058359544,,-2.1012602188234752,,
,6550.0,719.0,6732.0,919.0,-66.0,2098.0,3300.0,,,,-2.44114595438699,-2.99645733420341,-1.78308374824381,,-2.5142090372108745,,
,6553.0,721.0,6733.0,921.0,-59.0,2111.0,3279.0,,,,-2.44289464653213,-2.99673957586085,-1.78351789183913,,-2.8326621566917916,,
,6550.0,721.0,6736.0,920.0,-64.0,2113.0,3277.0,,,,-2.44606075696779,-2.99588592849796,-1.78320681432257,,-3.063903129538575,,
,6551.0,720.0,6736.0,921.0,-63.0,2130.0,3264.0,,,,-2.44830531369273,-2.99634822475064,-1.7847106411574,,-3.2193327776637024,,
,6553.0,720.0,6730.0,918.0,-69.0,2124.0,3291.0,,,,-2.44967714701515,-2.99581677545154,-1.78474423404329,,-3.3131781357578016,,
,6554.0,721.0,6732.0,922.0,-58.0,2101.0,3297.0,,,,-2.45226129648889,-2.99556721200156,-1.78551647869543,,-3.3611030122707652,,
,6556.0,722.0,6735.0,921.0,-56.0,2107.0,3291.0,,,,-2.45310175287242,-2.99578473634233,-1.78590235211055,,-3.37884794013937,,
2025-06-30 21:22:09,6555.0,720.0,6735.0,921.0,-56.0,2130.0,3288.0,,,2025/06/30 09:22:09 PM,-2.45316360913045,-2.99516299550504,-1.78638359160431,,-3.38101240035655,,
,6554.0,719.0,6734.0,919.0,-57.0,2132.0,3284.0,,,,-2.45385449784866,-2.99551299014308,-1.78689305227436,,-3.3800674319200725,,
,6556.0,720.0,6734.0,923.0,-55.0,2129.0,3263.0,,,,-2.45559663836437,-2.99565250394036,-1.786554852741,,-3.385654624396868,,
,6561.0,721.0,6735.0,922.0,-63.0,2139.0,3286.0,,,,-2.45440143230601,-2.99549273534876,-1.78687686177043,,-3.404191130000913,,
,6558.0,723.0,6736.0,922.0,-65.0,2129.0,3304.0,,,,-2.45507880266966,-2.99559619769551,-1.78639720774087,,-3.438764265668258,,
,6559.0,719.0,6734.0,920.0,-61.0,2137.0,3290.0,,,,-2.45498165856457,-2.99544351771782,-1.78675964592123,,-3.4892695018749484,,
,6559.0,724.0,6738.0,923.0,-67.0,2124.0,3278.0,,,,-2.45452586431301,-2.99522860881514,-1.78691595265013,,-3.55272765038806,,
,6560.0,723.0,6741.0,925.0,-68.0,2113.0,3257.0,,,,-2.45503624608026,-2.99539582365606,-1.78635813410047,,-3.623713081509063,,
,6562.0,723.0,6738.0,925.0,-66.0,2119.0,3268.0,,,,-2.45413714996343,-2.99527138858172,-1.78650409094331,,-3.694832905294608,,
,6564.0,723.0,6743.0,923.0,-64.0,2098.0,3263.0,,,,-2.45396912989339,-2.9956765094655,-1.78589263087886,,-3.7572129273755537,,
,6563.0,722.0,6743.0,923.0,-62.0,2102.0,3274.0,,,,-2.45313252274778,-2.99532318217188,-1.78562684504964,,-3.8009652799053644,,
,6563.0,725.0,6746.0,924.0,-71.0,2123.0,3262.0,,,,-2.45296706630448,-2.99547694871414,-1.78549114641125,,-3.8156309478141006,,
,6565.0,723.0,6748.0,926.0,-61.0,2131.0,3274.0,,,,-2.45198458477377,-2.9955550673618,-1.78605504169316,,-3.7906045537105797,,
,6566.0,724.0,6747.0,924.0,-60.0,2127.0,3274.0,,,,-2.45204203922087,-2.995585670045,-1.78536506246381,,-3.7155561953409144,,
,6566.0,724.0,6752.0,923.0,-64.0,2119.0,3284.0,,,,-2.45085110629542,-2.99579082924495,-1.78552680185869,,-3.580864749099798,,
,6571.0,726.0,6751.0,923.0,-56.0,2113.0,3313.0,,,,-2.45046922892501,-2.99600667219519,-1.78516669125159,,-3.378069443676798,,
,6570.0,725.0,6756.0,927.0,-61.0,2108.0,3295.0,,,,-2.45061989887651,-2.99580169578599,-1.7852882512378,,-3.100333820750171,,
,6573.0,724.0,6755.0,926.0,-57.0,2120.0,3278.0,,,,-2.4506929073742,-2.99565028604547,-1.78450867556468,,-2.7429020896362175,,
,6570.0,724.0,6756.0,924.0,-58.0,2106.0,3288.0,,,,-2.45036567182803,-2.99554736885319,-1.78537844730716,,-2.3035171933285543,,
,6571.0,724.0,6760.0,926.0,-54.0,2104.0,3279.0,,,,-2.45090153054434,-2.99578758973724,-1.78498159310044,,-1.7827670221692131,,
,6577.0,725.0,6763.0,927.0,-59.0,2092.0,3266.0,,,,-2.45149932381245,-2.99564046999361,-1.78465577072441,,-1.1843313085883733,,
,6576.0,726.0,6763.0,925.0,-50.0,2111.0,3284.0,,,,-2.45008996396412,-2.99612936583555,-1.78516780765996,,-0.5151135439410659,,
,6576.0,726.0,6766.0,929.0,-50.0,2118.0,3285.0,,,,-2.44924876621846,-2.99611254855503,-1.78481061416765,,0.2147457375270305,,
,6575.0,725.0,6767.0,926.0,-47.0,2119.0,3302.0,,,,-2.44968100602945,-2.99600010486441,-1.78507274230573,,0.9919700049562781,,
,6578.0,726.0,6772.0,929.0,-61.0,2100.0,3272.0,,,,-2.44979447400786,-2.99603661663004,-1.7848424099551,,1.8003553064407507,,
,6577.0,728.0,6772.0,930.0,-62.0,2120.0,3280.0,,,,-2.44977760254522,-2.99599162323005,-1.78445840666664,,2.621081814661729,,
,6581.0,729.0,6775.0,928.0,-60.0,2102.0,3282.0,,,,-2.44835292155402,-2.99610532194557,-1.78457251033713,,3.433129018067697,,
,6581.0,725.0,6775.0,929.0,-57.0,2110.0,3284.0,,,,-2.44894798800768,-2.99586611374746,-1.7850291846957,,4.213801244151978,,
,6581.0,730.0,6777.0,929.0,-57.0,2094.0,3302.0,,,,-2.44830350133618,-2.99565522264984,-1.7847019014111,,4.939374629721255,,
,6584.0,729.0,6781.0,933.0,-61.0,2103.0,3298.0,,,,-2.44979299018857,-2.996006293533,-1.78474809789476,,5.585877284849718,,
,6586.0,728.0,6783.0,928.0,-59.0,2110.0,3277.0,,,,-2.44947232052381,-2.99569562611035,-1.78439253428644,,6.130009200879441,,
,6585.0,727.0,6784.0,933.0,-60.0,2122.0,3274.0,,,,-2.44970391683914,-2.99619432411553,-1.78452694605321,,6.550195538523642,,
,6585.0,727.0,6784.0,932.0,-53.0,2122.0,3272.0,,,,-2.44951913616239,-2.99576295111184,-1.78502493253437,,6.827745179724942,,
,6585.0,729.0,6788.0,928.0,-55.0,2124.0,3281.0,,,,-2.44890118461668,-2.99590343522177,-1.78497262079284,,6.9480571069907775,,
,6589.0,729.0,6791.0,935.0,-63.0,2105.0,3305.0,,,,-2.44994167846659,-2.99553804635336,-1.78530362672313,,6.901785320882938,,
,6591.0,728.0,6791.0,933.0,-62.0,2111.0,3306.0,,,,-2.45000851352856,-2.99585292058747,-1.78554117062848,,6.6858465991217635,,
,6589.0,729.0,6792.0,932.0,-63.0,2101.0,3288.0,,,,-2.44905418252794,-2.99569957730024,-1.78512388281316,,6.304142443899971,,
,6591.0,729.0,6796.0,931.0,-54.0,2107.0,3266.0,,,,-2.44925337531264,-2.99595421660021,-1.78422169888035,,5.767872489410783,,
,6592.0,730.0,6799.0,935.0,-57.0,2111.0,3284.0,,,,-2.44899473004283,-2.99580600003308,-1.78487337367775,,5.09534349534326,,
,6593.0,729.0,6799.0,933.0,-60.0,2113.0,3286.0,,,,-2.4490981758134,-2.9960117148262,-1.78512874063949,,4.311224480305461,,
,6595.0,730.0,6803.0,935.0,-59.0,2125.0,3281.0,,,,-2.44875330893457,-2.99574176250907,-1.78479695218031,,3.4452595169589184,,
,6594.0,729.0,6805.0,934.0,-51.0,2098.0,3312.0,,,,-2.44843535308533,-2.99599178409066,-1.78432569805836,,2.5305165749261054,,
,6597.0,732.0,6807.0,935.0,-57.0,2091.0,3297.0,,,,-2.44828056873643,-2.99608876389354,-1.78526331943513,,1.6013127398066054,,
,6598.0,733.0,6807.0,938.0,-65.0,2115.0,3300.0,,,,-2.44902609555413,-2.99591479791976,-1.78451031260666,,0.6910026015191532,,
,6596.0,731.0,6812.0,935.0,-67.0,2124.0,3294.0,,,,-2.44883115265048,-2.99606540070683,-1.783900054198,,-0.17016052185821554,,
,6593.0,730.0,6808.0,932.0,-64.0,2108.0,3289.0,,,,-2.44810186716209,-2.996006930559,-1.78410537414497,,-0.9568858118400528,,
,6595.0,734.0,6808.0,935.0,-60.0,2106.0,3283.0,,,,-2.44785313115127,-2.99621203926461,-1.78379598843912,,-1.650255978708317,,
,6595.0,732.0,6807.0,935.0,-62.0,2099.0,3281.0,,,,-2.44775449018685,-2.99596188925505,-1.7841204154948,,-2.238568653930276,,
,6593.0,733.0,6805.0,938.0,-58.0,2111.0,3277.0,,,,-2.44647682780943,-2.99622351007732,-1.78351965972655,,-2.717553426151394,,
,6592.0,732.0,6793.0,935.0,-58.0,2104.0,3290.0,,,,-2.44631539155236,-2.99604008925647,-1.78340941800349,,-3.0899757481351418,,
,6589.0,733.0,6783.0,935.0,-54.0,2116.0,3297.0,,,,-2.44539116935044,-2.99632348023974,-1.78367772455989,,-3.364697821458569,,
,6585.0,732.0,6772.0,935.0,-65.0,2109.0,3296.0,,,,-2.44485908944106,-2.9961864992364,-1.78308219293098,,-3.555312989032278,,
,6584.0,730.0,6764.0,935.0,-70.0,2096.0,3274.0,,,,-2.44418051750707,-2.99606991073298,-1.78342971668321,,-3.6785012673104935,,
,6584.0,728.0,6758.0,931.0,-63.0,2101.0,3278.0,,,,-2.44423073618296,-2.99605955765485,-1.78309397365307,,-3.7522683836116504,,
,6575.0,724.0,6746.0,930.0,-62.0,2110.0,3284.0,,,,-2.44337077793637,-2.99632563245892,-1.78241426201547,,-3.7942292805364275,,
,6572.0,723.0,6738.0,930.0,-58.0,2102.0,3284.0,,,,-2.44353195543476,-2.99662063054405,-1.78280943022453,,-3.820080645982477,,
,6565.0,726.0,6729.0,928.0,-54.0,2121.0,3291.0,,,,-2.44159379846878,-2.99634136581797,-1.7823791824249,,-3.8423775486367395,,
,6564.0,722.0,6722.0,923.0,-50.0,2105.0,3280.0,,,,-2.44232732708034,-2.99632432410687,-1.78296782677814,,-3.869689786998971,,
,6555.0,716.0,6715.0,920.0,-42.0,2122.0,3261.0,,,,-2.44221602121549,-2.99640494600721,-1.78248329396205,,-3.906169032014552,,
,6554.0,719.0,6711.0,921.0,-51.0,2104.0,3276.0,,,,-2.44146407640016,-2.99641951448593,-1.78175180160278,,-3.951515028349707,,
,6551.0,720.0,6708.0,920.0,-61.0,2098.0,3289.0,,,,-2.44153548074881,-2.99624275853995,-1.7821370299642,,-4.00129475121373,,
,6549.0,717.0,6704.0,918.0,-61.0,2092.0,3286.0,,,,-2.44067608866913,-2.99630230214573,-1.78247873376635,,-4.047546330609415,,
,6545.0,715.0,6703.0,918.0,-57.0,2100.0,3296.0,,,,-2.44039472753654,-2.99661575591938,-1.78209125350043,,-4.079589474240807,,
,6544.0,715.0,6697.0,915.0,-65.0,2108.0,3294.0,,,,-2.44077394511722,-2.99664529249206,-1.78205688411097,,-4.084963161862368,,
,6543.0,716.0,6700.0,919.0,-59.0,2104.0,3302.0,,,,-2.43979185460695,-2.99670978648545,-1.78109781099606,,-4.050416383499034,,
,6543.0,716.0,6696.0,914.0,-63.0,2093.0,3298.0,,,,-2.43954137207334,-2.99661211660722,-1.78233264762122,,-3.9628862504784204,,
,6540.0,717.0,6697.0,915.0,-59.0,2116.0,3296.0,,,,-2.43994757962951,-2.99642593917485,-1.78139093168137,,-3.8104081979955575,,
,6538.0,714.0,6691.0,912.0,-55.0,2131.0,3292.0,,,,-2.4386725216932,-2.99676564407552,-1.78105811133769,,-3.5829141196183802,,
,6537.0,718.0,6696.0,914.0,-57.0,2124.0,3286.0,,,,-2.43916452023107,-2.99683289099619,-1.78143856927214,,-3.2728857994725304,,
,6537.0,714.0,6694.0,914.0,-57.0,2099.0,3277.0,,,,-2.43891348258834,-2.99673070729751,-1.78145323849164,,-2.8758430919706255,,
,6539.0,717.0,6693.0,914.0,-55.0,2093.0,3271.0,,,,-2.43757841396667,-2.99658647813576,-1.78124738428388,,-2.390658775406788,,
,6537.0,715.0,6691.0,913.0,-51.0,2081.0,3274.0,,,,-2.43647998821457,-2.99681807634408,-1.78124456698214,,-1.8197039551812557,,
,6537.0,714.0,6692.0,912.0,-54.0,2085.0,3295.0,,,,-2.43655215478488,-2.99702335903979,-1.78072375936457,,-1.1688381811313793,,
,6537.0,715.0,6696.0,912.0,-61.0,2105.0,3289.0,,,,-2.43565563385344,-2.99697084767399,-1.78142596366366,,-0.44726635956038024,,
,6537.0,716.0,6695.0,913.0,-56.0,2116.0,3276.0,,,,-2.43666200201006,-2.99679948661251,-1.78097988791495,,0.33271058555436045,,
,6536.0,713.0,6696.0,914.0,-54.0,2097.0,3273.0,,,,-2.43774121017275,-2.99670501545649,-1.78153237589346,,1.1560237413038053,,
,6537.0,713.0,6694.0,912.0,-59.0,2084.0,3278.0,,,,-2.43966209693765,-2.99687912559067,-1.78161544033704,,2.0052200337140236,,
,6536.0,714.0,6696.0,912.0,-53.0,2116.0,3254.0,,,,-2.44165427616827,-2.99673455089283,-1.78191425836669,,2.8608881796300323,,
,6538.0,714.0,6696.0,912.0,-56.0,2112.0,3273.0,,,,-2.44434797051127,-2.9962254576921,-1.78292461958799,,3.7021241647991987,,
,6537.0,715.0,6696.0,914.0,-58.0,2109.0,3289.0,,,,-2.44541909263979,-2.99644047865717,-1.78310025067569,,4.507043306705532,,
,6537.0,715.0,6695.0,912.0,-58.0,2126.0,3287.0,,,,-2.44733286375096,-2.99605784475718,-1.78413519455378,,5.253351673541664,,
,6536.0,715.0,6697.0,911.0,-63.0,2132.0,3283.0,,,,-2.44805531754488,-2.99579325963945,-1.78397402023937,,5.9189900640996225,,
,6538.0,716.0,6700.0,913.0,-59.0,2107.0,3278.0,,,,-2.44882178618949,-2.99581905771101,-1.78429122580897,,6.4828586303740625,,
,6540.0,714.0,6700.0,912.0,-52.0,2109.0,3281.0,,,,-2.45017436083735,-2.99594922781976,-1.78516893431115,,6.925620159042036,,
,6537.0,716.0,6701.0,914.0,-48.0,2105.0,3273.0,,,,-2.45105129638824,-2.99605522013402,-1.78481578353929,,7.230566246789053,,
,6539.0,716.0,6699.0,913.0,-55.0,2080.0,3290.0,,,,-2.45117570243994,-2.99560367104366,-1.78503665871597,,7.384514350130701,,
,6541.0,715.0,6700.0,912.0,-62.0,2080.0,3297.0,,,,-2.45135838445269,-2.99553434474055,-1.78522691287424,,7.378685772026349,,
,6536.0,716.0,6699.0,913.0,-63.0,2103.0,3286.0,,,,-2.45144301050788,-2.99520505033994,-1.78516031324184,,7.2094961758305525,,
,6540.0,718.0,6701.0,914.0,-63.0,2105.0,3278.0,,,,-2.45135520639797,-2.9957098523598,-1.78494393935676,,6.879174346884386,,
,6539.0,715.0,6699.0,911.0,-64.0,2109.0,3281.0,,,,-2.45080726826357,-2.99531775142521,-1.78498418291418,,6.396117360178922,,
,6539.0,717.0,6699.0,912.0,-64.0,2129.0,3290.0,,,,-2.44991735015527,-2.99574835607959,-1.7845006222155,,5.774897080060056,,
,6539.0,717.0,6701.0,914.0,-59.0,2104.0,3286.0,,,,-2.44909518778713,-2.99579390858507,-1.78471711027004,,5.035857071157858,,
,6541.0,716.0,6702.0,914.0,-57.0,2132.0,3289.0,,,,-2.44958035876619,-2.99564666808623,-1.78450779985981,,4.20427889773352,,
,6543.0,717.0,6700.0,913.0,-58.0,2144.0,3276.0,,,,-2.44951734536722,-2.99593424619077,-1.78462486519017,,3.3091463571801545,,
,6542.0,715.0,6699.0,911.0,-60.0,2129.0,3266.0,,,,-2.44953799509686,-2.99583764107298,-1.78415065628731,,2.3815863903592915,,
,6545.0,717.0,6704.0,915.0,-63.0,2115.0,3278.0,,,,-2.44803282557566,-2.99589628964778,-1.78438384005661,,1.4531067040124652,,
,6543.0,718.0,6702.0,915.0,-58.0,2103.0,3277.0,,,,-2.44845179136468,-2.9958407816873,-1.7843279834685,,0.5537756592160217,,
,6546.0,716.0,6706.0,914.0,-61.0,2107.0,3287.0,,,,-2.44830995416939,-2.99593181879902,-1.78416042108157,,-0.28950244245372114,,
,6545.0,717.0,6703.0,913.0,-59.0,2111.0,3309.0,,,,-2.44851565060507,-2.995848357679,-1.78400302853925,,-1.0544722201025523,,
,6543.0,715.0,6707.0,915.0,-66.0,2108.0,3297.0,,,,-2.44745603592477,-2.9958202749239,-1.78352117913915,,-1.7246499945115015,,
,6548.0,718.0,6708.0,914.0,-64.0,2100.0,3288.0,,,,-2.44750536216188,-2.9958101636998,-1.78403852004028,,-2.2899960632760132,,
,6546.0,718.0,6709.0,916.0,-61.0,2092.0,3278.0,,,,-2.4471651368311,-2.99593575696208,-1.78340680250405,,-2.7470911585970526,,
,6546.0,718.0,6710.0,914.0,-58.0,2115.0,3272.0,,,,-2.44664300717269,-2.99613461590549,-1.78336809404145,,-3.098819742725722,,
,6549.0,719.0,6710.0,915.0,-67.0,2125.0,3277.0,,,,-2.44656961854756,-2.99593451609226,-1.78303745649114,,-3.353609089336567,,
,6551.0,717.0,6715.0,916.0,-63.0,2100.0,3284.0,,,,-2.44578512395412,-2.99624463862834,-1.7837734199913,,-3.5243114287926365,,
,6551.0,720.0,6717.0,916.0,-65.0,2090.0,3289.0,,,,-2.44589176380709,-2.99574957144685,-1.78329588543513,,-3.626842768188149,,
,6551.0,719.0,6718.0,915.0,-69.0,2095.0,3277.0,,,,-2.44645239513628,-2.99609156922656,-1.78312172770098,,-3.678704857055796,,
,6550.0,717.0,6717.0,913.0,-65.0,2096.0,3261.0,,,,-2.44530875433372,-2.99596393829181,-1.78339051086072,,-3.6975165657769833,,
,6553.0,716.0,6723.0,916.0,-67.0,2073.0,3255.0,,,,-2.44485970852099,-2.99620654234274,-1.78328153872312,,-3.6996693258953153,,
,6554.0,721.0,6724.0,918.0,-59.0,2085.0,3255.0,,,,-2.4446312720667,-2.99638772656213,-1.78279653289064,,-3.6992005904194065,,
,6556.0,722.0,6726.0,918.0,-59.0,2101.0,3265.0,,,,-2.44473895523575,-2.99611128388612,-1.78279345338005,,-3.7069519612940978,,
,6557.0,719.0,6727.0,919.0,-54.0,2115.0,3256.0,,,,-2.44414546783049,-2.99643116878783,-1.78242047424227,,-3.730047032265531,,
,6558.0,719.0,6730.0,919.0,-57.0,2105.0,3272.0,,,,-2.44452918087,-2.99563040426915,-1.78334404961887,,-3.7716908332508883,,
,6558.0,720.0,6731.0,918.0,-56.0,2109.0,3294.0,,,,-2.44436268622574,-2.99611817850828,-1.78314871666156,,-3.8312619943943775,,
,6559.0,722.0,6732.0,918.0,-69.0,2095.0,3278.0,,,,-2.44490595329763,-2.99639966894748,-1.78362356244782,,-3.904645381957166,,
,6559.0,720.0,6735.0,919.0,-68.0,2104.0,3287.0,,,,-2.44534715420585,-2.99571747257924,-1.78306195160838,,-3.984741006565449,,
,6558.0,720.0,6738.0,920.0,-65.0,2095.0,3289.0,,,,-2.44551499771484,-2.99600287549301,-1.7828137305592,,-4.062085034152377,,
,6561.0,720.0,6740.0,920.0,-75.0,2075.0,3297.0,,,,-2.44517522122108,-2.99588769604468,-1.78355723815134,,-4.125527659608702,,
,6564.0,722.0,6743.0,921.0,-60.0,2101.0,3293.0,,,,-2.44552970643177,-2.99606951371759,-1.78396995800754,,-4.162925943228329,,
,6564.0,721.0,6743.0,922.0,-52.0,2108.0,3276.0,,,,-2.44654897110294,-2.99621739712262,-1.78368952180843,,-4.161823645701731,,
,6564.0,722.0,6747.0,920.0,-48.0,2094.0,3303.0,,,,-2.4471126807841,-2.99599586022569,-1.78362124516204,,-4.110101886706357,,
,6566.0,721.0,6748.0,921.0,-49.0,2117.0,3299.0,,,,-2.44612811659569,-2.99631421504412,-1.78385797810212,,-3.996592210239498,,
,6566.0,723.0,6751.0,924.0,-48.0,2124.0,3281.0,,,,-2.4472231032272,-2.99600533392027,-1.78380114244328,,-3.8116466018352106,,
,6565.0,722.0,6754.0,924.0,-58.0,2118.0,3283.0,,,,-2.44617022582509,-2.99606970704191,-1.78295814868025,,-3.5476578242977754,,
,6566.0,722.0,6754.0,926.0,-62.0,2118.0,3274.0,,,,-2.44636014860036,-2.9962047724065,-1.78362965061144,,-3.199519803996813,,
,6567.0,722.0,6757.0,923.0,-72.0,2113.0,3284.0,,,,-2.44714716416578,-2.99618467270915,-1.78335396664033,,-2.765013562645155,,
,6570.0,723.0,6757.0,922.0,-66.0,2094.0,3283.0,,,,-2.44695354766868,-2.99602310991139,-1.78389597630201,,-2.24510094467488,,
,6569.0,723.0,6763.0,925.0,-60.0,2097.0,3271.0,,,,-2.44638570718017,-2.99626647833022,-1.78359602642004,,-1.6441077443048566,,
2025-06-30 21:22:10,6572.0,724.0,6763.0,927.0,-56.0,2089.0,3272.0,,,2025/06/30 09:22:10 PM,-2.4467637149476,-2.99592619388977,-1.78303315641896,,-0.9697812448670821,,
,6573.0,723.0,6763.0,924.0,-70.0,2100.0,3294.0,,,,-2.44662422720945,-2.99582988754753,-1.78327623562164,,-0.23321459328950342,,
,6569.0,722.0,6767.0,926.0,-60.0,2111.0,3285.0,,,,-2.44521290221754,-2.99614279091415,-1.78385958387729,,0.5513605939273803,,
,6571.0,725.0,6768.0,926.0,-69.0,2116.0,3299.0,,,,-2.44437570313127,-2.99614598130621,-1.78287155676695,,1.3669048235119385,,
,6577.0,727.0,6770.0,929.0,-65.0,2119.0,3285.0,,,,-2.44427617774697,-2.99628133622423,-1.78327662193602,,2.1940124375175536,,
,6576.0,726.0,6772.0,929.0,-60.0,2113.0,3278.0,,,,-2.44349429646269,-2.99691464855412,-1.78294224624483,,3.011452158380753,,
,6575.0,723.0,6771.0,926.0,-50.0,2123.0,3288.0,,,,-2.44343419916896,-2.99614169352956,-1.78266046984957,,3.796795731939918,,
,6575.0,725.0,6775.0,927.0,-57.0,2128.0,3290.0,,,,-2.44287807646691,-2.99625252208513,-1.78293000887453,,4.527125575851993,,
,6574.0,727.0,6774.0,929.0,-58.0,2099.0,3272.0,,,,-2.44293341132064,-2.99654715843973,-1.78290656594342,,5.179812669358535,,
,6573.0,729.0,6774.0,927.0,-56.0,2101.0,3286.0,,,,-2.44276625336365,-2.99644131850646,-1.78292568219581,,5.733353941795557,,
,6569.0,726.0,6770.0,928.0,-60.0,2130.0,3301.0,,,,-2.44208652462892,-2.99672325431462,-1.78213451823387,,6.168253685454077,,
,6571.0,724.0,6761.0,927.0,-65.0,2114.0,3299.0,,,,-2.44172012452592,-2.99647395017769,-1.78202255927106,,6.467926037100538,,
,6567.0,727.0,6754.0,929.0,-64.0,2109.0,3289.0,,,,-2.44175683250595,-2.99659251423701,-1.78305186895899,,6.619585407954495,,
,6567.0,724.0,6742.0,928.0,-58.0,2104.0,3279.0,,,,-2.44236930974457,-2.99658398408509,-1.78180749504283,,6.615078891112152,,
,6564.0,725.0,6734.0,925.0,-57.0,2108.0,3248.0,,,,-2.44219206580664,-2.99650795803251,-1.78175773863578,,6.451600007282835,,
,6560.0,720.0,6725.0,923.0,-53.0,2095.0,3261.0,,,,-2.44227430740465,-2.99651870831776,-1.78198353162678,,6.13220997131526,,
,6556.0,723.0,6717.0,923.0,-56.0,2115.0,3274.0,,,,-2.44114934834066,-2.9962130726362,-1.78180309564196,,5.6660867600453475,,
,6551.0,719.0,6712.0,921.0,-61.0,2114.0,3278.0,,,,-2.44045213372597,-2.99667513982264,-1.78231778289939,,5.068429402181928,,
,6546.0,718.0,6703.0,921.0,-57.0,2107.0,3273.0,,,,-2.43952037882957,-2.99647847324377,-1.78135980824398,,4.359967791078893,,
,6537.0,716.0,6694.0,918.0,-48.0,2127.0,3276.0,,,,-2.43926825398588,-2.99676895152276,-1.78198041438641,,3.5660652767797636,,
,6536.0,715.0,6691.0,917.0,-55.0,2120.0,3284.0,,,,-2.44031843453167,-2.99653530867588,-1.78135939497947,,2.715446787310851,,
,6532.0,716.0,6689.0,915.0,-63.0,2128.0,3301.0,,,,-2.43863625629394,-2.99642960704505,-1.78053269703288,,1.8386312319181646,,
,6534.0,717.0,6685.0,914.0,-63.0,2128.0,3300.0,,,,-2.43883505708843,-2.99664904426684,-1.78197408895101,,0.9661850584066912,,
,6528.0,713.0,6684.0,912.0,-58.0,2131.0,3298.0,,,,-2.43994021753855,-2.99651695552332,-1.78175461848471,,0.12693792839615237,,
,6524.0,711.0,6678.0,912.0,-66.0,2131.0,3266.0,,,,-2.43827832221428,-2.99662346491053,-1.78139873216515,,-0.653690740307979,,
,6526.0,713.0,6677.0,911.0,-61.0,2107.0,3287.0,,,,-2.43845214692899,-2.99662557067843,-1.78119439993264,,-1.3551132764316645,,
,6523.0,714.0,6676.0,911.0,-59.0,2123.0,3288.0,,,,-2.43738562785731,-2.99655874872199,-1.78150987680228,,-1.9626234978721504,,
,6522.0,714.0,6676.0,912.0,-57.0,2129.0,3289.0,,,,-2.43718367235178,-2.99669783874817,-1.78103096448855,,-2.4679880955578586,,
,6519.0,713.0,6674.0,908.0,-56.0,2117.0,3283.0,,,,-2.43728341100321,-2.99702036671969,-1.78065502252006,,-2.8695355980954527,,
,6520.0,710.0,6674.0,912.0,-62.0,2124.0,3286.0,,,,-2.43757957857417,-2.99704484460555,-1.78076463847407,,-3.1717459516695437,,
,6521.0,711.0,6675.0,908.0,-56.0,2098.0,3274.0,,,,-2.43656217339062,-2.99680800667626,-1.78113770254409,,-3.3843891339701804,,
,6519.0,711.0,6677.0,908.0,-59.0,2092.0,3279.0,,,,-2.43672658717191,-2.99693369050027,-1.78117319744299,,-3.5212993731033775,,
,6517.0,710.0,6676.0,907.0,-61.0,2090.0,3303.0,,,,-2.43661003897278,-2.99695040569777,-1.78082834478635,,-3.5988991810287487,,
,6518.0,710.0,6677.0,907.0,-64.0,2088.0,3289.0,,,,-2.43605755302375,-2.9966390400902,-1.78023761887836,,-3.634603298782351,,
,6518.0,712.0,6675.0,910.0,-67.0,2104.0,3282.0,,,,-2.43733694566382,-2.99655363593048,-1.78036125398938,,-3.6452367544342112,,
,6519.0,711.0,6676.0,909.0,-65.0,2105.0,3274.0,,,,-2.43614203001157,-2.99685642824276,-1.78033021156184,,-3.6455942432062716,,
,6518.0,713.0,6678.0,908.0,-61.0,2105.0,3283.0,,,,-2.4368072155881,-2.99694160599701,-1.78147097290593,,-3.6472511584664593,,
,6519.0,711.0,6675.0,908.0,-64.0,2079.0,3269.0,,,,-2.4373220298986,-2.99683381213187,-1.78093006511961,,-3.6577113108344124,,
,6520.0,711.0,6679.0,908.0,-62.0,2104.0,3278.0,,,,-2.43838680540081,-2.99633201996443,-1.78176204459633,,-3.6799443111396952,,
,6520.0,713.0,6682.0,908.0,-55.0,2117.0,3289.0,,,,-2.44173352397038,-2.99636160484948,-1.78290115713191,,-3.7123289743139294,,
,6519.0,711.0,6681.0,908.0,-47.0,2125.0,3280.0,,,,-2.44449033919023,-2.99615897291683,-1.7833184877894,,-3.748981536260811,,
,6518.0,712.0,6683.0,908.0,-61.0,2129.0,3257.0,,,,-2.44646943399369,-2.99643256719069,-1.78338114085304,,-3.7804141429339166,,
,6519.0,713.0,6681.0,909.0,-59.0,2119.0,3277.0,,,,-2.4471878383258,-2.99585105516173,-1.78390578642927,,-3.7944450423362275,,
,6521.0,710.0,6684.0,907.0,-61.0,2118.0,3277.0,,,,-2.44919429676862,-2.99613026235976,-1.78534164994282,,-3.7772695313833533,,
,6522.0,714.0,6684.0,909.0,-69.0,2126.0,3272.0,,,,-2.44927759201474,-2.99604673048289,-1.7847641210687,,-3.7145988429960717,,
,6523.0,715.0,6685.0,910.0,-66.0,2118.0,3261.0,,,,-2.45080652430444,-2.99606423704596,-1.78553351109041,,-3.5927801261909518,,
,6519.0,710.0,6682.0,908.0,-63.0,2112.0,3288.0,,,,-2.45154465720359,-2.99576549535232,-1.78588069165077,,-3.399822394090122,,
,6521.0,713.0,6686.0,908.0,-55.0,2099.0,3279.0,,,,-2.45189307585062,-2.99583165750109,-1.78589230161603,,-3.126269629756488,,
,6524.0,713.0,6686.0,910.0,-62.0,2118.0,3287.0,,,,-2.45217989553705,-2.99571030891685,-1.78592404293706,,-2.7658820986049593,,
,6526.0,715.0,6688.0,908.0,-60.0,2129.0,3290.0,,,,-2.45256071057998,-2.99522226182568,-1.78614715357869,,-2.316108664376547,,
,6523.0,712.0,6686.0,909.0,-47.0,2123.0,3286.0,,,,-2.45267235497532,-2.99560013631995,-1.78605175955044,,-1.7783538414567277,,
,6522.0,714.0,6685.0,909.0,-59.0,2145.0,3291.0,,,,-2.4527246065994,-2.99587333439285,-1.78531381764628,,-1.1580597063491795,,
,6522.0,712.0,6686.0,909.0,-61.0,2144.0,3295.0,,,,-2.45211924915113,-2.9960481516323,-1.78518487783339,,-0.46463093344618067,,
,6521.0,715.0,6689.0,910.0,-52.0,2129.0,3304.0,,,,-2.45274601505621,-2.99561601918011,-1.78534743835626,,0.2887705600818438,,
,6522.0,712.0,6689.0,912.0,-55.0,2130.0,3305.0,,,,-2.45143387959678,-2.99580730651028,-1.78557609997378,,1.0855446792916934,,
,6524.0,714.0,6688.0,907.0,-55.0,2129.0,3288.0,,,,-2.44995636564603,-2.99546982704106,-1.78494981175641,,1.9060820672392595,,
,6526.0,715.0,6688.0,910.0,-59.0,2127.0,3289.0,,,,-2.45106700492234,-2.99554348153164,-1.78430793606529,,2.7283093005612664,,
,6523.0,713.0,6689.0,910.0,-66.0,2114.0,3261.0,,,,-2.45020731993953,-2.99547908772722,-1.78538460123121,,3.5283611114253395,,
,6526.0,714.0,6691.0,912.0,-72.0,2105.0,3272.0,,,,-2.4489076639851,-2.99578734590818,-1.78530692367536,,4.281387897545538,,
,6524.0,711.0,6688.0,910.0,-52.0,2121.0,3270.0,,,,-2.4502541866423,-2.99614413276338,-1.78584935764184,,4.962497815037565,,
,6523.0,715.0,6690.0,910.0,-62.0,2112.0,3279.0,,,,-2.44957581185127,-2.99581738256131,-1.78492785542201,,5.547817738533939,,
,6527.0,717.0,6695.0,914.0,-58.0,2128.0,3295.0,,,,-2.44980933234823,-2.99602607855911,-1.78500510080169,,6.015637373450855,,
,6528.0,718.0,6697.0,911.0,-65.0,2127.0,3290.0,,,,-2.44968784982461,-2.99602159897117,-1.78403980114482,,6.347578325073355,,
,6527.0,716.0,6695.0,911.0,-60.0,2115.0,3276.0,,,,-2.44822838759447,-2.99594063418085,-1.78345822756094,,6.52970892208166,,
,6525.0,714.0,6697.0,912.0,-55.0,2112.0,3276.0,,,,-2.45011501157587,-2.99561191156178,-1.78358030580736,,6.553510722125221,,
,6529.0,714.0,6700.0,912.0,-55.0,2120.0,3275.0,,,,-2.44932429381055,-2.99590445260885,-1.78484822475388,,6.41659831158185,,
,6529.0,717.0,6703.0,914.0,-57.0,2129.0,3309.0,,,,-2.4482365634942,-2.99600000383463,-1.78424323525071,,6.123103373645541,,
,6530.0,715.0,6703.0,912.0,-60.0,2125.0,3307.0,,,,-2.44796895744619,-2.99613164371951,-1.78390698154508,,5.6836577763308345,,
,6528.0,714.0,6704.0,915.0,-61.0,2125.0,3288.0,,,,-2.44733855761868,-2.99601731793304,-1.78455684590727,,5.11494630609969,,
,6528.0,715.0,6704.0,914.0,-50.0,2127.0,3264.0,,,,-2.44773051070436,-2.9958308158782,-1.78466704568411,,4.438842698459577,,
,6532.0,715.0,6713.0,914.0,-53.0,2100.0,3274.0,,,,-2.44792108870506,-2.99641006299503,-1.78447031007468,,3.681186647512376,,
,6533.0,716.0,6712.0,915.0,-52.0,2101.0,3288.0,,,,-2.44689163584181,-2.9960055858246,-1.78344667909445,,2.8702984033668946,,
,6535.0,717.0,6715.0,914.0,-54.0,2109.0,3269.0,,,,-2.44788338619952,-2.99634277896552,-1.7836096259731,,2.035355715799101,,
,6535.0,717.0,6714.0,915.0,-57.0,2114.0,3286.0,,,,-2.44691554033725,-2.99595094474765,-1.78399763994422,,1.204770472658538,,
,6536.0,717.0,6719.0,917.0,-62.0,2108.0,3282.0,,,,-2.44731355998152,-2.99581553543506,-1.78368424133296,,0.4046968789525887,,
,6538.0,719.0,6720.0,916.0,-77.0,2103.0,3261.0,,,,-2.44646139071127,-2.99600188369215,-1.78341755820579,,-0.3422194234797605,,
,6537.0,717.0,6720.0,915.0,-75.0,2110.0,3273.0,,,,-2.44624938310491,-2.99631777579672,-1.78366034507674,,-1.0177763895874838,,
,6537.0,718.0,6724.0,917.0,-71.0,2119.0,3265.0,,,,-2.44753638783515,-2.99611566854301,-1.78337829755969,,-1.608799268680781,,
,6538.0,717.0,6726.0,919.0,-69.0,2103.0,3282.0,,,,-2.44734504638584,-2.99595538856606,-1.78432232866483,,-2.1073744891463533,,
,6540.0,719.0,6729.0,916.0,-71.0,2107.0,3309.0,,,,-2.44720701341018,-2.99634404922227,-1.78340147481672,,-2.5107639594905633,,
,6540.0,719.0,6733.0,918.0,-71.0,2105.0,3304.0,,,,-2.447807156932,-2.99608242678519,-1.78429489402083,,-2.8210471754298543,,
,6540.0,719.0,6733.0,917.0,-50.0,2098.0,3276.0,,,,-2.44853949187442,-2.9961952962219,-1.78411460531449,,-3.044544475577787,,
,6541.0,717.0,6734.0,916.0,-59.0,2105.0,3264.0,,,,-2.44812017124824,-2.995682120319,-1.78458654300272,,-3.1910731989008605,,
,6542.0,721.0,6736.0,919.0,-64.0,2108.0,3290.0,,,,-2.44694796452805,-2.99603492718694,-1.78465331146393,,-3.2730842393162525,,
,6542.0,719.0,6740.0,920.0,-55.0,2126.0,3304.0,,,,-2.44801053451793,-2.99612925754239,-1.78412863703043,,-3.3047229537031666,,
,6546.0,722.0,6743.0,921.0,-57.0,2124.0,3290.0,,,,-2.44716045165125,-2.9959262755562,-1.78382132953888,,-3.300856501191271,,
,6543.0,720.0,6743.0,921.0,-61.0,2110.0,3286.0,,,,-2.4470659248761,-2.99605868462447,-1.78359982049698,,-3.2761090356676514,,
,6545.0,720.0,6744.0,920.0,-64.0,2106.0,3278.0,,,,-2.44751831208232,-2.99589560621267,-1.78440044781615,,-3.243946164524577,,
,6549.0,724.0,6748.0,923.0,-61.0,2114.0,3278.0,,,,-2.44828284063794,-2.9958845297025,-1.78384505848922,,-3.2158502362034613,,
,6548.0,721.0,6749.0,923.0,-58.0,2109.0,3278.0,,,,-2.4473693734179,-2.99597235829166,-1.78481198590949,,-3.2006276327889536,,
,6551.0,725.0,6751.0,920.0,-60.0,2116.0,3322.0,,,,-2.44754095795485,-2.99607034137296,-1.78367634401089,,-3.203887357692689,,
,6549.0,721.0,6754.0,922.0,-57.0,2111.0,3287.0,,,,-2.44651563628735,-2.99624479195689,-1.78419935126741,,-3.227725732494036,,
,6551.0,724.0,6758.0,922.0,-64.0,2115.0,3292.0,,,,-2.44621892055643,-2.99624470625162,-1.7834770379077,,-3.2706438101429796,,
,6553.0,725.0,6759.0,925.0,-61.0,2141.0,3276.0,,,,-2.44633584158129,-2.99620226768775,-1.78419167870205,,-3.3277111122025187,,
,6551.0,724.0,6762.0,925.0,-56.0,2147.0,3263.0,,,,-2.44612568463303,-2.99670339897774,-1.78418137868286,,-3.3909711180994897,,
,6550.0,723.0,6765.0,924.0,-65.0,2122.0,3271.0,,,,-2.4445972376739,-2.99621184117768,-1.78380149791908,,-3.4500619534534986,,
,6554.0,723.0,6763.0,925.0,-63.0,2132.0,3290.0,,,,-2.44547403154561,-2.99661208308548,-1.7838505639999,,-3.493003727960721,,
,6552.0,726.0,6767.0,925.0,-60.0,2128.0,3302.0,,,,-2.4456955044401,-2.99623986839243,-1.78344894283378,,-3.5070869950872963,,
,6552.0,722.0,6763.0,925.0,-66.0,2111.0,3307.0,,,,-2.44394732524069,-2.99643952492811,-1.78294679424688,,-3.4797884690062837,,
,6551.0,723.0,6765.0,923.0,-57.0,2106.0,3281.0,,,,-2.44413554387313,-2.99632780238694,-1.78229449221757,,-3.3996409473321596,,
,6551.0,725.0,6762.0,925.0,-65.0,2126.0,3274.0,,,,-2.44335377292831,-2.99644295677536,-1.78335314551052,,-3.25699266888558,,
,6550.0,726.0,6760.0,925.0,-49.0,2117.0,3260.0,,,,-2.44339931690214,-2.99683760180568,-1.78304773183303,,-3.044605297600692,,
,6548.0,727.0,6749.0,925.0,-51.0,2117.0,3251.0,,,,-2.44384488051159,-2.99658127823537,-1.78227112509031,,-2.7580582682507293,,
,6545.0,726.0,6739.0,925.0,-56.0,2099.0,3257.0,,,,-2.44225986445501,-2.9966428757529,-1.78301533241645,,-2.3959491651378118,,
,6543.0,722.0,6726.0,923.0,-54.0,2108.0,3272.0,,,,-2.442322709552,-2.99621428046211,-1.78300007706493,,-1.9599029283965623,,
,6541.0,723.0,6724.0,924.0,-56.0,2115.0,3265.0,,,,-2.4428376189939,-2.99645314892396,-1.78250544137536,,-1.45442360736384,,
,6538.0,722.0,6716.0,924.0,-56.0,2121.0,3270.0,,,,-2.44211924989763,-2.99678644150136,-1.78317619815562,,-0.8866370712123686,,
,6532.0,720.0,6709.0,921.0,-50.0,2126.0,3274.0,,,,-2.4416064309997,-2.99599198573292,-1.7826710686792,,-0.2659779569915343,,
,6529.0,717.0,6704.0,919.0,-55.0,2131.0,3269.0,,,,-2.4416996977672,-2.99698288441624,-1.78271004626377,,0.39613246910788247,,
,6525.0,716.0,6697.0,917.0,-58.0,2141.0,3266.0,,,,-2.44195164098666,-2.9964620474806,-1.78243282317123,,1.0865873474286962,,
,6519.0,715.0,6694.0,918.0,-63.0,2120.0,3296.0,,,,-2.44125133678907,-2.99663438617163,-1.7825195263262,,1.7908654418717422,,
,6519.0,714.0,6687.0,916.0,-62.0,2113.0,3301.0,,,,-2.4421936005657,-2.99667479859273,-1.78283483464087,,2.493284084650042,,
,6511.0,715.0,6684.0,913.0,-61.0,2118.0,3276.0,,,,-2.44173726963087,-2.99672751681908,-1.78232417642529,,3.1772598513012174,,
,6511.0,711.0,6680.0,913.0,-57.0,2131.0,3258.0,,,,-2.44150935093903,-2.99641722688765,-1.78208488727123,,3.825609929097512,,
,6510.0,712.0,6681.0,912.0,-55.0,2118.0,3280.0,,,,-2.44170428589901,-2.9968488572697,-1.7824297403446,,4.420926698883398,,
,6509.0,710.0,6681.0,912.0,-54.0,2132.0,3278.0,,,,-2.44053896724651,-2.99621017025339,-1.78185854690261,,4.946050515004184,,
,6506.0,712.0,6677.0,911.0,-53.0,2126.0,3279.0,,,,-2.44004007769559,-2.9963904170963,-1.7823997420899,,5.384651440181074,,
,6505.0,710.0,6677.0,907.0,-54.0,2121.0,3281.0,,,,-2.44038907355689,-2.99642369034649,-1.78299842389265,,5.721911091128154,,
,6504.0,709.0,6677.0,910.0,-57.0,2115.0,3274.0,,,,-2.43945267569048,-2.99673621691392,-1.78246921732426,,5.945273391712246,,
,6504.0,712.0,6677.0,907.0,-54.0,2115.0,3277.0,,,,-2.44014014153737,-2.99665336892655,-1.78166500918872,,6.045211455508879,,
,6504.0,709.0,6678.0,908.0,-54.0,2122.0,3281.0,,,,-2.43923204995202,-2.99659587844194,-1.78214602940897,,6.015940957434035,,
,6504.0,710.0,6677.0,906.0,-61.0,2118.0,3265.0,,,,-2.43939428061171,-2.99656538656114,-1.782076497367,,5.856001966279504,,
,6501.0,708.0,6675.0,908.0,-62.0,2128.0,3279.0,,,,-2.43917739325989,-2.996603438691,-1.78243238459428,,5.568633990788718,,
,6503.0,711.0,6678.0,909.0,-59.0,2112.0,3281.0,,,,-2.44027885468648,-2.99636807048318,-1.78226211548297,,5.161883444549513,,
,6506.0,712.0,6680.0,908.0,-60.0,2109.0,3317.0,,,,-2.43967490541692,-2.99651152719059,-1.78190354934521,,4.648406816810915,,
,6505.0,711.0,6681.0,907.0,-61.0,2100.0,3320.0,,,,-2.43938046143155,-2.99687041325947,-1.78180126807828,,4.044963010509344,,
,6506.0,710.0,6679.0,906.0,-55.0,2104.0,3290.0,,,,-2.44063120082319,-2.99681812001123,-1.7819359570473,,3.3716208321875873,,
,6506.0,712.0,6682.0,908.0,-58.0,2096.0,3286.0,,,,-2.44072482759528,-2.99644743081312,-1.78153119274937,,2.65073854161887,,
2025-06-30 21:22:11,6507.0,711.0,6684.0,909.0,-56.0,2107.0,3282.0,,,2025/06/30 09:22:11 PM,-2.4429740712574,-2.99631128911424,-1.78213325682335,,1.9057970032018172,,
,6509.0,714.0,6685.0,908.0,-54.0,2126.0,3277.0,,,,-2.44454671266726,-2.99633906424385,-1.78442017583362,,1.160181709406406,,
,6509.0,713.0,6684.0,907.0,-58.0,2123.0,3277.0,,,,-2.4472139151096,-2.9960266696533,-1.78467810892792,,0.436009234715927,,
,6509.0,712.0,6687.0,908.0,-62.0,2144.0,3282.0,,,,-2.44955393824568,-2.99566861233405,-1.78420582485955,,-0.24691859645455339,,
,6510.0,712.0,6691.0,908.0,-62.0,2133.0,3286.0,,,,-2.4505287956257,-2.99570618580758,-1.7851685094482,,-0.871970516104892,,
,6510.0,711.0,6687.0,910.0,-64.0,2135.0,3292.0,,,,-2.45267294219803,-2.99569732497915,-1.78582814524586,,-1.426313675123752,,
,6510.0,715.0,6690.0,908.0,-70.0,2135.0,3296.0,,,,-2.4545401320161,-2.9952259614796,-1.78543647456861,,-1.9012983692538012,,
,6508.0,710.0,6688.0,907.0,-59.0,2134.0,3290.0,,,,-2.45434994524611,-2.99564321592963,-1.78622125084073,,-2.2926017542935293,,
,6511.0,713.0,6693.0,910.0,-47.0,2115.0,3280.0,,,,-2.45575952680168,-2.99538697846043,-1.78612926537831,,-2.600143241438532,,
,6513.0,713.0,6693.0,908.0,-60.0,2106.0,3289.0,,,,-2.45641011258316,-2.99530884488971,-1.78690544275618,,-2.827789737948821,,
,6512.0,713.0,6692.0,908.0,-64.0,2109.0,3284.0,,,,-2.45691886671664,-2.99510118934342,-1.78637860019769,,-2.98287286132753,,
,6512.0,711.0,6691.0,908.0,-58.0,2123.0,3271.0,,,,-2.455965645547,-2.99533886618906,-1.78686640584708,,-3.0755454611971063,,
,6511.0,713.0,6692.0,908.0,-62.0,2100.0,3269.0,,,,-2.45566456671375,-2.9952324793361,-1.78598294338328,,-3.1180113602372646,,
,6514.0,713.0,6693.0,911.0,-63.0,2100.0,3276.0,,,,-2.45600928929538,-2.99539396467766,-1.78642215797555,,-3.123668590171613,,
,6514.0,713.0,6693.0,912.0,-61.0,2105.0,3280.0,,,,-2.45498889687304,-2.99552208585176,-1.78587867154584,,-3.106211202083275,,
,6515.0,714.0,6693.0,909.0,-59.0,2098.0,3263.0,,,,-2.45412569808812,-2.99524056198316,-1.78577725921441,,-3.078737522734419,,
,6512.0,713.0,6694.0,909.0,-61.0,2116.0,3280.0,,,,-2.45292365806025,-2.99566870599372,-1.78468110647155,,-3.0529134464505314,,
,6516.0,714.0,6694.0,911.0,-62.0,2122.0,3280.0,,,,-2.45364965379958,-2.99585262946153,-1.7856203137955,,-3.0382378852434533,,
,6515.0,714.0,6693.0,910.0,-62.0,2123.0,3282.0,,,,-2.45388421951476,-2.99553849343928,-1.78559034196287,,-3.0414536420059997,,
,6518.0,714.0,6695.0,909.0,-55.0,2111.0,3275.0,,,,-2.45327063549884,-2.9952641154913,-1.78498221677212,,-3.066140360424076,,
,6517.0,713.0,6694.0,909.0,-55.0,2121.0,3268.0,,,,-2.45346976053331,-2.99576929799324,-1.78570838543185,,-3.1125162332426384,,
,6521.0,716.0,6698.0,912.0,-58.0,2110.0,3268.0,,,,-2.45231819016718,-2.99542801330119,-1.7847316310375,,-3.177461256770504,,
,6520.0,713.0,6698.0,911.0,-54.0,2126.0,3262.0,,,,-2.45294995037278,-2.99601743854616,-1.78546069520624,,-3.2547573810781967,,
,6521.0,717.0,6699.0,911.0,-57.0,2121.0,3259.0,,,,-2.45342941296051,-2.99571272310426,-1.78526312906876,,-3.33552222348621,,
,6520.0,712.0,6699.0,908.0,-74.0,2102.0,3285.0,,,,-2.4525623769045,-2.99598542777421,-1.78498427581041,,-3.4087971384424542,,
,6523.0,713.0,6703.0,911.0,-61.0,2108.0,3282.0,,,,-2.45190298046348,-2.99616801094069,-1.78567242083149,,-3.462241112357632,,
,6524.0,716.0,6706.0,914.0,-52.0,2110.0,3283.0,,,,-2.45172968173167,-2.995282024701,-1.78539580682881,,-3.4828801858484613,,
,6525.0,714.0,6705.0,912.0,-48.0,2123.0,3287.0,,,,-2.4513532418952,-2.99560147257229,-1.78528744235472,,-3.4578659529243385,,
,6527.0,716.0,6707.0,912.0,-53.0,2129.0,3286.0,,,,-2.45174419504778,-2.99589222479377,-1.78497563876489,,-3.375203325216515,,
,6527.0,715.0,6710.0,910.0,-54.0,2114.0,3285.0,,,,-2.45136291378776,-2.99588754800609,-1.78562084984662,,-3.2244152974801197,,
,6530.0,715.0,6713.0,914.0,-62.0,2104.0,3279.0,,,,-2.45096105343122,-2.99596218734152,-1.78483091403353,,-2.997120109051857,,
,6528.0,717.0,6715.0,912.0,-60.0,2111.0,3281.0,,,,-2.45073972016551,-2.99585348412124,-1.78470609160836,,-2.687503749388013,,
,6530.0,715.0,6715.0,914.0,-66.0,2108.0,3290.0,,,,-2.45090361567116,-2.99543004025964,-1.78488478721808,,-2.292678345831682,,
,6529.0,714.0,6715.0,912.0,-61.0,2139.0,3286.0,,,,-2.4506393527409,-2.99564348835373,-1.78460368713707,,-1.8129246999603152,,
,6533.0,716.0,6721.0,915.0,-53.0,2132.0,3301.0,,,,-2.44994409448444,-2.99574510049749,-1.78507337290965,,-1.2518243611045925,,
,6535.0,715.0,6723.0,917.0,-58.0,2126.0,3294.0,,,,-2.45035260418833,-2.99552207999553,-1.78526659217536,,-0.6162912260239957,,
,6536.0,717.0,6724.0,915.0,-58.0,2116.0,3297.0,,,,-2.45116540070997,-2.99544658977354,-1.78561128846797,,0.08348735359074554,,
,6535.0,719.0,6726.0,915.0,-43.0,2110.0,3299.0,,,,-2.45185997945949,-2.99526797270446,-1.78493271266751,,0.8341950360596875,,
,6538.0,716.0,6726.0,914.0,-67.0,2097.0,3289.0,,,,-2.4509762899006,-2.99594814381436,-1.78595442979511,,1.6196196320015528,,
,6540.0,719.0,6733.0,917.0,-55.0,2121.0,3292.0,,,,-2.45217424398096,-2.9956492790933,-1.78445680360895,,2.420985571240585,,
,6539.0,717.0,6733.0,915.0,-57.0,2156.0,3301.0,,,,-2.4513532568739,-2.99585337562182,-1.78539850512589,,3.217400743485843,,
,6542.0,719.0,6736.0,919.0,-50.0,2149.0,3297.0,,,,-2.45187114146062,-2.99555985009082,-1.78534080960938,,3.9864328970215466,,
,6544.0,719.0,6737.0,917.0,-60.0,2147.0,3288.0,,,,-2.4520589821241,-2.99518402978486,-1.78530160399579,,4.70482610356717,,
,6545.0,719.0,6739.0,918.0,-52.0,2121.0,3267.0,,,,-2.45193781453044,-2.99573935464865,-1.7851847807287,,5.349357659680198,,
,6545.0,720.0,6741.0,919.0,-56.0,2101.0,3282.0,,,,-2.45288575583384,-2.99583296999895,-1.7853598592739,,5.897820009987584,,
,6547.0,720.0,6744.0,919.0,-56.0,2097.0,3297.0,,,,-2.45260890059307,-2.99557321730517,-1.78563686235931,,6.330091946167825,,
,6548.0,720.0,6745.0,917.0,-53.0,2122.0,3289.0,,,,-2.45281408149037,-2.99593486990233,-1.78528674828249,,6.6292410183411,,
,6548.0,718.0,6749.0,917.0,-63.0,2109.0,3300.0,,,,-2.4525672890514,-2.99589735011474,-1.78555840762902,,6.782578564366135,,
,6551.0,724.0,6750.0,921.0,-65.0,2120.0,3282.0,,,,-2.45277695433834,-2.99564393660959,-1.78549948273306,,6.782574585023113,,
,6552.0,721.0,6754.0,921.0,-62.0,2127.0,3288.0,,,,-2.45241575517175,-2.99537361496674,-1.78522567043006,,6.627536305645014,,
,6552.0,721.0,6753.0,921.0,-56.0,2126.0,3302.0,,,,-2.45278830996368,-2.99588418401866,-1.78512579947884,,6.321964458371364,,
,6553.0,719.0,6754.0,918.0,-60.0,2107.0,3288.0,,,,-2.45169599623709,-2.99596336451415,-1.78401294964635,,5.876525095984069,,
,6554.0,719.0,6757.0,919.0,-55.0,2106.0,3295.0,,,,-2.4520522720035,-2.99568175946424,-1.7853188541093,,5.30760958784592,,
,6552.0,718.0,6757.0,920.0,-54.0,2119.0,3295.0,,,,-2.45152050485107,-2.99587426820739,-1.78553018625477,,4.636497348992106,,
,6551.0,720.0,6758.0,921.0,-57.0,2109.0,3291.0,,,,-2.45105590604168,-2.99574516761228,-1.78414529689891,,3.888179523490555,,
,6551.0,721.0,6757.0,920.0,-54.0,2107.0,3288.0,,,,-2.45079402477595,-2.99618457847109,-1.78542966035618,,3.0899403041526896,,
,6550.0,719.0,6755.0,919.0,-52.0,2116.0,3284.0,,,,-2.45027238623283,-2.99602454546837,-1.78459177797885,,2.269818262896405,,
,6549.0,722.0,6750.0,921.0,-54.0,2119.0,3292.0,,,,-2.44953388575131,-2.99552955223951,-1.78479273667988,,1.455077805552555,,
,6547.0,723.0,6738.0,922.0,-60.0,2128.0,3281.0,,,,-2.44934738814649,-2.99611740150518,-1.78517241662089,,0.6708102293623659,,
,6544.0,722.0,6728.0,919.0,-62.0,2129.0,3272.0,,,,-2.44930963656284,-2.99605716098562,-1.78522984906295,,-0.06124100129890708,,
,6544.0,717.0,6716.0,918.0,-54.0,2123.0,3264.0,,,,-2.44978821462178,-2.99608981716996,-1.78471124953224,,-0.7235686375459424,,
,6541.0,719.0,6710.0,920.0,-58.0,2116.0,3254.0,,,,-2.44948589507474,-2.99588825854503,-1.78488767658493,,-1.3034747952713202,,
,6538.0,715.0,6703.0,920.0,-57.0,2103.0,3279.0,,,,-2.4483395330432,-2.9959527956596,-1.78483618541732,,-1.7933281993414047,,
,6529.0,716.0,6690.0,913.0,-55.0,2114.0,3280.0,,,,-2.44949949147523,-2.99617760805151,-1.78411187350995,,-2.190524689953335,,
,6524.0,713.0,6680.0,910.0,-59.0,2125.0,3281.0,,,,-2.44817899646148,-2.99613334372146,-1.78428657121102,,-2.497181717101286,,
,6518.0,712.0,6673.0,910.0,-62.0,2132.0,3277.0,,,,-2.44833830739833,-2.99604767684203,-1.78444294201612,,-2.7196039709843145,,
,6516.0,711.0,6668.0,908.0,-54.0,2122.0,3283.0,,,,-2.44852767447256,-2.99619032572917,-1.78393354552234,,-2.867562182785533,,
,6512.0,707.0,6661.0,906.0,-50.0,2126.0,3279.0,,,,-2.44876562866137,-2.99624279351574,-1.78386436662937,,-2.9534319371777715,,
,6508.0,706.0,6656.0,905.0,-54.0,2115.0,3255.0,,,,-2.44925679784551,-2.99600897307516,-1.7840214219302,,-2.9912433044497915,,
,6503.0,705.0,6651.0,901.0,-65.0,2119.0,3252.0,,,,-2.44794439875031,-2.99616058343834,-1.7841138411534,,-2.9956940942048567,,
,6504.0,707.0,6650.0,901.0,-64.0,2103.0,3265.0,,,,-2.44763434981306,-2.99589586139485,-1.78434756537661,,-2.98117928176744,,
,6500.0,707.0,6648.0,900.0,-60.0,2126.0,3283.0,,,,-2.44749022476422,-2.99620069281259,-1.78393424856937,,-2.9608870003514167,,
,6496.0,706.0,6646.0,900.0,-56.0,2128.0,3295.0,,,,-2.44743643471876,-2.99630956011109,-1.78419292645108,,-2.946007686940588,,
,6495.0,703.0,6642.0,898.0,-49.0,2147.0,3302.0,,,,-2.44744077343205,-2.99591464765987,-1.78434040892265,,-2.945097439388667,,
,6496.0,703.0,6640.0,897.0,-58.0,2123.0,3279.0,,,,-2.44749332824335,-2.99588043569899,-1.78352255843808,,-2.9636290233208693,,
,6494.0,705.0,6641.0,899.0,-69.0,2125.0,3291.0,,,,-2.44718395409582,-2.99600642514199,-1.78407241329373,,-3.003753664073941,,
,6492.0,705.0,6639.0,897.0,-72.0,2111.0,3292.0,,,,-2.4478621374758,-2.9962837150164,-1.78387252530158,,-3.064283152878058,,
,6491.0,704.0,6642.0,898.0,-61.0,2104.0,3294.0,,,,-2.44695920492991,-2.99611077388031,-1.78373150723865,,-3.140885045747532,,
,6491.0,708.0,6638.0,896.0,-61.0,2114.0,3294.0,,,,-2.44616293625749,-2.99600685710838,-1.78426822965067,,-3.2264659138250926,,
,6489.0,703.0,6640.0,897.0,-52.0,2127.0,3319.0,,,,-2.44687754057869,-2.99640082557138,-1.78459931910981,,-3.311702733751143,,
,6490.0,705.0,6640.0,897.0,-60.0,2103.0,3298.0,,,,-2.44667976381083,-2.99623257603229,-1.78371811280059,,-3.3856744343453835,,
,6492.0,706.0,6639.0,897.0,-58.0,2091.0,3302.0,,,,-2.44690894781813,-2.99638357539507,-1.78411701473008,,-3.4365454267558806,,
,6487.0,703.0,6638.0,896.0,-57.0,2101.0,3284.0,,,,-2.44607479357393,-2.99613568464323,-1.78428037453726,,-3.4522586382797567,,
,6489.0,704.0,6639.0,896.0,-60.0,2091.0,3264.0,,,,-2.44533987859468,-2.99645044844846,-1.78366587530662,,-3.4212040293883423,,
,6488.0,705.0,6642.0,896.0,-54.0,2093.0,3269.0,,,,-2.44573970290387,-2.99638201639509,-1.78394396936984,,-3.3328373717166655,,
,6490.0,705.0,6643.0,897.0,-57.0,2088.0,3272.0,,,,-2.44623948408029,-2.99604883171649,-1.78403412996623,,-3.1782317854096127,,
,6490.0,703.0,6643.0,897.0,-68.0,2126.0,3288.0,,,,-2.44490629885486,-2.99638199949523,-1.7835376476673,,-2.9505504942826692,,
,6490.0,704.0,6644.0,898.0,-58.0,2113.0,3288.0,,,,-2.44495065045789,-2.9961329145435,-1.78312044331769,,-2.6454335044716424,,
,6492.0,705.0,6643.0,894.0,-59.0,2117.0,3295.0,,,,-2.44516199772086,-2.9962636284003,-1.78346681029008,,-2.2612940886651707,,
,6493.0,706.0,6647.0,899.0,-53.0,2123.0,3295.0,,,,-2.44511272061564,-2.99607260961968,-1.78452371943239,,-1.7995234982996986,,
,6493.0,705.0,6646.0,896.0,-54.0,2121.0,3285.0,,,,-2.44886192995051,-2.99611105760159,-1.7844437937991,,-1.264603660491034,,
,6490.0,705.0,6644.0,896.0,-50.0,2104.0,3276.0,,,,-2.4493132714934,-2.99583010774197,-1.78487394568663,,-0.6641266890571846,,
,6492.0,703.0,6648.0,896.0,-53.0,2103.0,3275.0,,,,-2.45270679893617,-2.99556406001242,-1.78548992993049,,-0.00871702961537587,,
,6491.0,706.0,6649.0,899.0,-51.0,2117.0,3287.0,,,,-2.45416269284196,-2.99549213716349,-1.78597876296065,,0.688150893361081,,
,6493.0,706.0,6652.0,898.0,-56.0,2114.0,3276.0,,,,-2.45493439292507,-2.9953592869432,-1.78636923163744,,1.410447130646361,,
,6494.0,708.0,6649.0,898.0,-64.0,2146.0,3271.0,,,,-2.4559843903102,-2.99534962489243,-1.78682213900496,,2.1399977448244907,,
,6490.0,704.0,6649.0,896.0,-56.0,2134.0,3286.0,,,,-2.45770042350373,-2.99518758508995,-1.78753463342885,,2.857013784915375,,
,6494.0,705.0,6651.0,898.0,-66.0,2109.0,3280.0,,,,-2.45866894486201,-2.99548427264104,-1.78703053601755,,3.540732483578183,,
,6495.0,706.0,6650.0,900.0,-62.0,2110.0,3278.0,,,,-2.458565086805,-2.99550644993467,-1.78787714912317,,4.170159011402996,,
,6491.0,707.0,6648.0,900.0,-58.0,2121.0,3281.0,,,,-2.458253123864,-2.9948402472204,-1.78757547713895,,4.724889347416682,,
,6493.0,706.0,6649.0,898.0,-55.0,2118.0,3279.0,,,,-2.45927445183451,-2.99470566345486,-1.78696504659761,,5.185985622197519,,
,6493.0,706.0,6649.0,900.0,-60.0,2122.0,3286.0,,,,-2.45768012040288,-2.99495549450289,-1.7873339133362,,5.536865323188689,,
,6493.0,707.0,6651.0,899.0,-60.0,2103.0,3282.0,,,,-2.45830187278597,-2.99523406981998,-1.78719479678376,,5.76415643065551,,
,6498.0,706.0,6652.0,900.0,-59.0,2096.0,3283.0,,,,-2.45739217734303,-2.99484900794639,-1.78754126936248,,5.858463751061556,,
,6497.0,706.0,6655.0,899.0,-59.0,2106.0,3272.0,,,,-2.45691327033487,-2.99515224409885,-1.78636980977188,,5.814989235964805,,
,6496.0,705.0,6656.0,900.0,-63.0,2117.0,3261.0,,,,-2.45705456366229,-2.99521969442345,-1.78686558686161,,5.633951943222662,,
,6499.0,708.0,6658.0,901.0,-62.0,2118.0,3289.0,,,,-2.45558136083306,-2.99529548928724,-1.78591535223946,,5.32076138584657,,
,6498.0,710.0,6658.0,900.0,-60.0,2110.0,3290.0,,,,-2.45547035987061,-2.99480231983437,-1.78592873807165,,4.885910701687717,,
,6498.0,705.0,6659.0,900.0,-58.0,2106.0,3280.0,,,,-2.45470594995374,-2.99546211587952,-1.78582479795199,,4.344573480409009,,
,6501.0,705.0,6658.0,900.0,-59.0,2103.0,3258.0,,,,-2.45439938853293,-2.99533640578331,-1.78601675450774,,3.715910920976023,,
,6500.0,707.0,6660.0,901.0,-55.0,2111.0,3268.0,,,,-2.45482536225626,-2.99612322208362,-1.78576698153301,,3.0221234194680493,,
,6502.0,708.0,6664.0,900.0,-51.0,2130.0,3268.0,,,,-2.45396207578184,-2.99601629731925,-1.78607049935644,,2.287308543092783,,
,6504.0,710.0,6664.0,900.0,-48.0,2133.0,3267.0,,,,-2.45355454839644,-2.99569639174851,-1.78620735770295,,1.5362092724114784,,
,6505.0,709.0,6666.0,901.0,-49.0,2127.0,3257.0,,,,-2.45332576865518,-2.99524505421144,-1.78557863939475,,0.7929469944956098,,
,6502.0,708.0,6668.0,901.0,-49.0,2132.0,3291.0,,,,-2.45303556559416,-2.99536472620522,-1.78592925306358,,0.07983110053474823,,
,6506.0,711.0,6674.0,903.0,-59.0,2132.0,3293.0,,,,-2.45363235359554,-2.99590650537561,-1.785258530585,,-0.5836768089993329,,
,6504.0,710.0,6674.0,904.0,-60.0,2129.0,3286.0,,,,-2.45378038410362,-2.99555165277545,-1.78590127107505,,-1.181786535931493,,
,6508.0,710.0,6676.0,904.0,-63.0,2111.0,3300.0,,,,-2.45297896387811,-2.99582963013742,-1.78517804692014,,-1.7029547876978406,,
,6508.0,710.0,6677.0,903.0,-61.0,2125.0,3291.0,,,,-2.45153525179554,-2.99582182779529,-1.78518989211228,,-2.140195392590365,,
,6511.0,712.0,6681.0,903.0,-56.0,2111.0,3323.0,,,,-2.45126624182923,-2.99554545638446,-1.78503526062394,,-2.4911215065519667,,
,6511.0,709.0,6682.0,904.0,-53.0,2115.0,3306.0,,,,-2.45056831067892,-2.99588229785233,-1.7852750473892,,-2.7577288468998216,,
,6512.0,711.0,6683.0,906.0,-54.0,2130.0,3307.0,,,,-2.45073863250855,-2.99592920773017,-1.78477872374946,,-2.9459407512866687,,
,6513.0,710.0,6685.0,904.0,-54.0,2131.0,3297.0,,,,-2.45065399171196,-2.99601273477898,-1.78444080071453,,-3.0649487813188117,,
,6514.0,712.0,6687.0,906.0,-50.0,2138.0,3282.0,,,,-2.45005196578327,-2.99582978400164,-1.78510764524032,,-3.12639534778737,,
,6514.0,711.0,6690.0,903.0,-51.0,2114.0,3289.0,,,,-2.4506517706866,-2.99586227443229,-1.78464227641201,,-3.143455143860304,,
,6516.0,709.0,6695.0,906.0,-63.0,2100.0,3269.0,,,,-2.45038202508876,-2.99613946752217,-1.78444122395749,,-3.1298784694311754,,
,6516.0,713.0,6697.0,909.0,-65.0,2113.0,3290.0,,,,-2.45163878762153,-2.99654557092808,-1.78433747520682,,-3.0990611658145073,,
,6519.0,712.0,6699.0,906.0,-56.0,2106.0,3304.0,,,,-2.4500330640361,-2.99612174935813,-1.78455121671945,,-3.0632026314785468,,
2025-06-30 21:22:12,6521.0,715.0,6702.0,910.0,-56.0,2116.0,3289.0,,,2025/06/30 09:22:12 PM,-2.45031659253964,-2.9959184291374,-1.78442913313289,,-3.0326053672610978,,
,6524.0,713.0,6704.0,909.0,-54.0,2107.0,3294.0,,,,-2.45071611710034,-2.99613245879321,-1.78501091838298,,-3.015157238244228,,
,6521.0,713.0,6705.0,911.0,-53.0,2100.0,3294.0,,,,-2.45144962228013,-2.99592147027662,-1.78486760535598,,-3.0160218752069134,,
,6522.0,713.0,6708.0,908.0,-56.0,2120.0,3305.0,,,,-2.45124105394086,-2.99584949461695,-1.785347875537,,-3.0375440393785715,,
,6522.0,714.0,6711.0,912.0,-54.0,2125.0,3309.0,,,,-2.45054572078119,-2.99564660153325,-1.78554016219798,,-3.0793562303409425,,
,6524.0,713.0,6711.0,909.0,-62.0,2104.0,3294.0,,,,-2.4502599472766,-2.99583039054044,-1.78545537994337,,-3.138652416609857,,
,6524.0,714.0,6712.0,911.0,-59.0,2095.0,3289.0,,,,-2.44979732284992,-2.99618443933448,-1.78423853363681,,-3.2105784980495473,,
,6526.0,717.0,6714.0,911.0,-62.0,2086.0,3269.0,,,,-2.44943250083583,-2.99576686156521,-1.78400491753299,,-3.288681638044455,,
,6527.0,716.0,6718.0,911.0,-56.0,2075.0,3299.0,,,,-2.4501258343045,-2.99622157449218,-1.78483021087481,,-3.365364291874669,,
,6529.0,713.0,6720.0,914.0,-56.0,2105.0,3303.0,,,,-2.44963971732376,-2.99608532693466,-1.78469068472643,,-3.4323018785726713,,
,6531.0,717.0,6723.0,912.0,-52.0,2117.0,3285.0,,,,-2.45002525160092,-2.99614399132591,-1.78435051909164,,-3.4808012051514696,,
,6531.0,717.0,6725.0,912.0,-57.0,2127.0,3269.0,,,,-2.45041473040413,-2.99595219136281,-1.78465400454768,,-3.50209551486161,,
,6531.0,716.0,6725.0,913.0,-62.0,2112.0,3295.0,,,,-2.45097085947765,-2.99601815292297,-1.78439125202946,,-3.4875880079803525,,
,6533.0,718.0,6728.0,913.0,-54.0,2112.0,3323.0,,,,-2.45008387376146,-2.99602477804439,-1.7847740471521,,-3.429066340378495,,
,6536.0,719.0,6731.0,916.0,-49.0,2114.0,3310.0,,,,-2.44938528360178,-2.9957985667963,-1.78404534885885,,-3.3189142947964525,,
,6535.0,718.0,6734.0,914.0,-56.0,2108.0,3296.0,,,,-2.44895490984668,-2.99598078143715,-1.78394965087255,,-3.1503432487382073,,
,6535.0,719.0,6736.0,915.0,-57.0,2106.0,3279.0,,,,-2.44908145674327,-2.99622413614012,-1.78392140812358,,-2.9176564400024243,,
,6535.0,717.0,6736.0,915.0,-63.0,2092.0,3285.0,,,,-2.44819745099602,-2.99601989236298,-1.78338353560428,,-2.6165456814917736,,
,6537.0,719.0,6738.0,915.0,-49.0,2080.0,3293.0,,,,-2.44648913590745,-2.99631254306167,-1.78296075527444,,-2.2444060655397484,,
,6534.0,720.0,6736.0,917.0,-55.0,2094.0,3285.0,,,,-2.44596033369177,-2.9961783629881,-1.78365795710893,,-1.8006427034106467,,
,6532.0,718.0,6733.0,915.0,-58.0,2102.0,3292.0,,,,-2.44612235440361,-2.99651920900114,-1.78304631670976,,-1.28693807537391,,
,6528.0,718.0,6724.0,914.0,-56.0,2117.0,3293.0,,,,-2.44516212960188,-2.99633129766204,-1.78298894997814,,-0.707451143393369,,
,6527.0,720.0,6713.0,914.0,-60.0,2118.0,3283.0,,,,-2.4453777559396,-2.99614815523635,-1.78318711769394,,-0.06892872876576689,,
,6527.0,717.0,6705.0,914.0,-53.0,2117.0,3276.0,,,,-2.4454635717826,-2.99658482577005,-1.7828887096796,,0.6192787593742245,,
,6525.0,717.0,6694.0,913.0,-55.0,2131.0,3269.0,,,,-2.44502597544678,-2.99629545877458,-1.78284595815422,,1.345296278324536,,
,6522.0,717.0,6684.0,914.0,-60.0,2111.0,3297.0,,,,-2.44452093499991,-2.9963814976951,-1.78290952300339,,2.094893016390421,,
,6514.0,713.0,6678.0,912.0,-56.0,2111.0,3293.0,,,,-2.44379282903878,-2.99622705320674,-1.78289036968902,,2.851737106598269,,
,6512.0,711.0,6671.0,909.0,-53.0,2133.0,3292.0,,,,-2.44388180379258,-2.99646589138699,-1.78240358077983,,3.59773538217148,,
,6505.0,711.0,6659.0,907.0,-61.0,2116.0,3290.0,,,,-2.44378383669233,-2.99616853203519,-1.78268507297614,,4.313461105931341,,
,6499.0,707.0,6652.0,905.0,-60.0,2114.0,3287.0,,,,-2.44345629431937,-2.99667110387279,-1.78268806282427,,4.978675237699668,,
,6494.0,709.0,6645.0,901.0,-51.0,2126.0,3283.0,,,,-2.44278286112571,-2.99665919857985,-1.78245578486446,,5.5729472975063565,,
,6491.0,706.0,6638.0,900.0,-61.0,2126.0,3293.0,,,,-2.4427402391511,-2.99636397598917,-1.78259370111304,,6.076379522212656,,
,6487.0,707.0,6635.0,901.0,-61.0,2110.0,3318.0,,,,-2.44242791810994,-2.99658187326739,-1.78263925073689,,6.470431834930166,,
,6485.0,704.0,6635.0,898.0,-59.0,2110.0,3307.0,,,,-2.44205395357733,-2.99668421577782,-1.78256913111273,,6.738833605600621,,
,6480.0,703.0,6629.0,896.0,-62.0,2105.0,3311.0,,,,-2.44230840147118,-2.99642616453414,-1.78222481985934,,6.868549900064627,,
,6477.0,699.0,6625.0,895.0,-55.0,2096.0,3298.0,,,,-2.44180238179861,-2.99662109907246,-1.78152113606163,,6.85074563812112,,
,6478.0,703.0,6626.0,897.0,-57.0,2124.0,3296.0,,,,-2.44202018875291,-2.99660755485609,-1.78184229805708,,6.681665327152359,,
,6476.0,700.0,6624.0,893.0,-56.0,2128.0,3296.0,,,,-2.44090376924082,-2.99704529552549,-1.7828413839472,,6.363326377863433,,
,6475.0,699.0,6626.0,893.0,-68.0,2112.0,3308.0,,,,-2.44042369001254,-2.99671023386158,-1.78154471949356,,5.9039180430602025,,
,6475.0,702.0,6623.0,893.0,-50.0,2120.0,3303.0,,,,-2.43866672296354,-2.99667424611205,-1.78161835298288,,5.317810496545852,,
,6472.0,700.0,6625.0,892.0,-54.0,2130.0,3297.0,,,,-2.4396731319618,-2.99651609909149,-1.78071879239325,,4.625110257088889,,
,6472.0,702.0,6621.0,894.0,-63.0,2067.0,3279.0,,,,-2.43989180633277,-2.99675483402677,-1.78153178344189,,3.850745822805531,,
,6473.0,701.0,6621.0,892.0,-65.0,2083.0,3274.0,,,,-2.43920066268068,-2.99713951260011,-1.7811501054305,,3.0231240466172764,,
,6471.0,699.0,6622.0,892.0,-63.0,2135.0,3290.0,,,,-2.43980913567223,-2.99662001470732,-1.78117230435169,,2.172453935993196,,
,6471.0,698.0,6626.0,892.0,-67.0,2123.0,3292.0,,,,-2.43994590876143,-2.99673814114075,-1.78102786676065,,1.3288805893276587,,
,6472.0,701.0,6624.0,893.0,-68.0,2093.0,3289.0,,,,-2.44076782599658,-2.99688106179144,-1.78208757022861,,0.5206005735829687,,
,6472.0,701.0,6625.0,894.0,-65.0,2083.0,3290.0,,,,-2.44325900726649,-2.99648290049054,-1.78222074369554,,-0.2278630251257974,,
,6473.0,700.0,6626.0,892.0,-64.0,2095.0,3288.0,,,,-2.44450965651735,-2.99633416266008,-1.78317308565539,,-0.8970637503196366,,
,6469.0,700.0,6626.0,890.0,-51.0,2128.0,3298.0,,,,-2.44709141439455,-2.99624133444881,-1.7837154676023,,-1.4735882256147546,,
,6470.0,701.0,6625.0,893.0,-47.0,2118.0,3305.0,,,,-2.44951452165136,-2.99636497934381,-1.78430007838567,,-1.9504934783181795,,
,6473.0,703.0,6626.0,891.0,-52.0,2120.0,3300.0,,,,-2.44986513096255,-2.99587850444774,-1.78420310870017,,-2.3272114603567693,,
,6470.0,703.0,6627.0,892.0,-53.0,2120.0,3297.0,,,,-2.45177664102326,-2.99588842073883,-1.78508874351045,,-2.6089628434311356,,
,6472.0,702.0,6631.0,892.0,-55.0,2108.0,3294.0,,,,-2.45268104896771,-2.99523369840784,-1.78580249507571,,-2.80576783967827,,
,6471.0,701.0,6629.0,891.0,-58.0,2110.0,3294.0,,,,-2.45297606943517,-2.9954073343196,-1.78476664782336,,-2.9311733657431747,,
,6472.0,703.0,6632.0,891.0,-54.0,2099.0,3283.0,,,,-2.4535035870881,-2.99528938568928,-1.78633291663919,,-3.0008319060842967,,
,6473.0,705.0,6632.0,893.0,-53.0,2091.0,3289.0,,,,-2.45513874042509,-2.99574165398537,-1.78614160878914,,-3.031068389919701,,
,6469.0,701.0,6631.0,892.0,-66.0,2087.0,3281.0,,,,-2.45430470793943,-2.99560746139771,-1.78675390069462,,-3.0375589356126964,,
,6469.0,702.0,6633.0,892.0,-51.0,2120.0,3277.0,,,,-2.45521044004486,-2.99574653808945,-1.78601403583798,,-3.034221720824071,,
,6472.0,704.0,6634.0,895.0,-57.0,2124.0,3281.0,,,,-2.45402116722635,-2.99540794868492,-1.78618319049384,,-3.0323880871068236,,
,6472.0,704.0,6637.0,896.0,-50.0,2093.0,3294.0,,,,-2.45483945128644,-2.99573324428219,-1.78575928259397,,-3.040284452566036,,
,6474.0,704.0,6631.0,893.0,-54.0,2098.0,3295.0,,,,-2.45434396094441,-2.99564779401386,-1.78498122462607,,-3.062817265090858,,
,6471.0,702.0,6633.0,892.0,-58.0,2107.0,3301.0,,,,-2.45316838551744,-2.9958106169139,-1.78548756223636,,-3.101620277330406,,
,6474.0,705.0,6633.0,895.0,-59.0,2150.0,3304.0,,,,-2.45303068222218,-2.99605880156637,-1.78491565280525,,-3.1553019566982132,,
,6474.0,703.0,6634.0,895.0,-57.0,2140.0,3293.0,,,,-2.45178938955636,-2.99607462715741,-1.78541459035635,,-3.219823955132229,,
,6474.0,702.0,6637.0,894.0,-58.0,2129.0,3291.0,,,,-2.45085746985938,-2.99577697916307,-1.78550381337324,,-3.2889479732674136,,
,6475.0,703.0,6636.0,894.0,-53.0,2121.0,3294.0,,,,-2.45139474592701,-2.99611356606515,-1.78492848139235,,-3.354703783440365,,
,6473.0,704.0,6637.0,892.0,-55.0,2109.0,3291.0,,,,-2.45063091515579,-2.99603648372833,-1.78523051813162,,-3.4078506833305497,,
,6475.0,705.0,6640.0,895.0,-57.0,2111.0,3303.0,,,,-2.45044773478835,-2.99589104864025,-1.78509510383314,,-3.438323826742945,,
,6476.0,706.0,6640.0,895.0,-58.0,2119.0,3301.0,,,,-2.45169790688544,-2.99620461371477,-1.78469288486557,,-3.4356719931872615,,
,6476.0,705.0,6639.0,895.0,-53.0,2105.0,3304.0,,,,-2.45067557507665,-2.99577048407324,-1.78482895683002,,-3.3895016027631497,,
,6476.0,706.0,6643.0,895.0,-51.0,2133.0,3294.0,,,,-2.45081401267142,-2.99600972815149,-1.78507216977104,,-3.289941763025473,,
,6478.0,705.0,6641.0,894.0,-51.0,2106.0,3265.0,,,,-2.45006581293874,-2.99606430977866,-1.78452656163257,,-3.128137102093937,,
,6480.0,704.0,6644.0,896.0,-53.0,2123.0,3280.0,,,,-2.44987592536885,-2.99639006016323,-1.78490255449417,,-2.8967609179111085,,
,6478.0,704.0,6645.0,896.0,-42.0,2132.0,3282.0,,,,-2.45038623903219,-2.99577365348072,-1.78493013844826,,-2.5905242410889526,,
,6479.0,705.0,6648.0,896.0,-51.0,2115.0,3279.0,,,,-2.44959385170844,-2.99606087409474,-1.78447355053915,,-2.206641984208443,,
,6478.0,704.0,6648.0,894.0,-53.0,2122.0,3275.0,,,,-2.45001562696105,-2.99592769799964,-1.7848303252434,,-1.7452111335987706,,
,6483.0,706.0,6651.0,897.0,-55.0,2106.0,3275.0,,,,-2.44949529005288,-2.99612721598888,-1.78461931545239,,-1.2094611499069075,,
,6484.0,707.0,6654.0,895.0,-59.0,2106.0,3265.0,,,,-2.45031248035021,-2.99585275572451,-1.78439220514294,,-0.6058517652982165,,
,6483.0,706.0,6655.0,898.0,-50.0,2111.0,3269.0,,,,-2.44903609725065,-2.99549905264142,-1.78469201389357,,0.05598738070979646,,
,6482.0,704.0,6656.0,896.0,-54.0,2105.0,3273.0,,,,-2.4498333604616,-2.99620976927201,-1.78463480892689,,0.7634635626533123,,
,6487.0,706.0,6661.0,898.0,-63.0,2099.0,3286.0,,,,-2.44936819985009,-2.99576597820128,-1.78403783133629,,1.5013513956422377,,
,6488.0,706.0,6664.0,898.0,-60.0,2092.0,3304.0,,,,-2.45033833977987,-2.99586217514383,-1.78413356772879,,2.252220281033645,,
,6487.0,706.0,6667.0,901.0,-57.0,2101.0,3312.0,,,,-2.44916979151577,-2.99588388012948,-1.78413350527537,,2.9969350510379433,,
,6489.0,706.0,6667.0,899.0,-62.0,2101.0,3295.0,,,,-2.45043061606892,-2.99595065638725,-1.78441088547008,,3.7152130690534193,,
,6489.0,706.0,6669.0,902.0,-53.0,2112.0,3287.0,,,,-2.44941043100201,-2.99579954807568,-1.78378355882942,,4.3862298296334385,,
,6492.0,707.0,6671.0,900.0,-61.0,2111.0,3283.0,,,,-2.44975015178962,-2.99606171425144,-1.78408789132068,,4.989273161872231,,
,6492.0,709.0,6674.0,901.0,-60.0,2118.0,3278.0,,,,-2.44902946251929,-2.99587394042347,-1.7844095423568,,5.504451296298669,,
,6492.0,710.0,6678.0,902.0,-61.0,2111.0,3291.0,,,,-2.44966739193197,-2.99584904941342,-1.78466194229084,,5.913460068697681,,
,6492.0,707.0,6677.0,902.0,-60.0,2100.0,3309.0,,,,-2.45045026286428,-2.99588830340463,-1.78466899679427,,6.200407007392985,,
,6496.0,712.0,6682.0,904.0,-54.0,2102.0,3296.0,,,,-2.44893465577138,-2.99555099205806,-1.784572330252,,6.3526735299036226,,
,6495.0,709.0,6684.0,904.0,-57.0,2099.0,3293.0,,,,-2.44954306419993,-2.99587671065593,-1.78484626698849,,6.361772467217984,,
,6497.0,710.0,6687.0,902.0,-59.0,2114.0,3294.0,,,,-2.45120870105274,-2.99608208733758,-1.78404804763536,,6.22413191537247,,
,6498.0,712.0,6689.0,906.0,-52.0,2123.0,3292.0,,,,-2.45071019225219,-2.99610490512877,-1.78459134018299,,5.941715360441432,,
,6498.0,711.0,6691.0,904.0,-57.0,2123.0,3282.0,,,,-2.44949208579956,-2.99576519090668,-1.7851262176025,,5.522379001682807,,
,6501.0,712.0,6694.0,908.0,-64.0,2112.0,3283.0,,,,-2.44993874098057,-2.99571929401851,-1.78448277681375,,4.9798749290536275,,
,6503.0,711.0,6696.0,907.0,-65.0,2124.0,3281.0,,,,-2.4488773754509,-2.99592743872561,-1.78412954170618,,4.333435068754582,,
,6503.0,713.0,6697.0,906.0,-60.0,2131.0,3299.0,,,,-2.4494197409478,-2.99599176587187,-1.78456562964416,,3.6069136701756728,,
,6504.0,710.0,6698.0,907.0,-57.0,2122.0,3286.0,,,,-2.44865909035572,-2.99585497888053,-1.78422764902856,,2.827519637288798,,
,6503.0,710.0,6702.0,908.0,-66.0,2094.0,3296.0,,,,-2.4486662899338,-2.99596720157662,-1.78385324653787,,2.024225260901816,,
,6504.0,712.0,6705.0,909.0,-53.0,2106.0,3279.0,,,,-2.44793980568262,-2.99626062000354,-1.78356296924123,,1.2259851225853462,,
,6509.0,713.0,6706.0,911.0,-42.0,2104.0,3277.0,,,,-2.447109438381,-2.99584043751619,-1.78396691132049,,0.4599297821115277,,
,6507.0,711.0,6705.0,907.0,-52.0,2116.0,3291.0,,,,-2.44790479045291,-2.99645746993797,-1.78377489094044,,-0.2502922293310368,,
,6508.0,713.0,6711.0,908.0,-59.0,2116.0,3278.0,,,,-2.44649350002729,-2.9964704709288,-1.78342502743361,,-0.885865623267213,,
,6509.0,715.0,6714.0,912.0,-57.0,2117.0,3294.0,,,,-2.4462409823728,-2.99642144502215,-1.78386516967907,,-1.43373095872071,,
,6512.0,715.0,6716.0,912.0,-48.0,2113.0,3291.0,,,,-2.44677480783255,-2.99638778686882,-1.78339136543226,,-1.8870084517507748,,
,6509.0,713.0,6716.0,911.0,-51.0,2112.0,3281.0,,,,-2.44690492870877,-2.99641795425136,-1.78359731159787,,-2.2449102177823703,,
,6512.0,715.0,6720.0,912.0,-56.0,2114.0,3293.0,,,,-2.44619534943769,-2.99650556436239,-1.78275084652449,,-2.512182617007492,,
,6514.0,714.0,6725.0,914.0,-56.0,2126.0,3299.0,,,,-2.44676078855797,-2.99643239642581,-1.78328446315719,,-2.698165336970283,,
,6513.0,715.0,6720.0,913.0,-58.0,2121.0,3285.0,,,,-2.44596074026488,-2.99637360542098,-1.78316571497663,,-2.8155851558505782,,
,6511.0,715.0,6721.0,912.0,-53.0,2111.0,3289.0,,,,-2.44512864966632,-2.99662409587535,-1.78290909669233,,-2.8792177537874815,,
,6511.0,716.0,6723.0,914.0,-61.0,2106.0,3277.0,,,,-2.44594622116503,-2.99613167249321,-1.78258090304527,,-2.9045502302975685,,
,6512.0,714.0,6723.0,914.0,-62.0,2112.0,3272.0,,,,-2.44525457070011,-2.99663590250215,-1.78340369722257,,-2.906561842120293,,
,6512.0,717.0,6724.0,914.0,-61.0,2122.0,3268.0,,,,-2.44497126396387,-2.99629460937258,-1.78262090431923,,-2.898713896188446,,
,6509.0,713.0,6716.0,914.0,-62.0,2121.0,3269.0,,,,-2.44512585171089,-2.99646938573557,-1.78217250608197,,-2.89220525529984,,
,6506.0,717.0,6706.0,913.0,-61.0,2124.0,3301.0,,,,-2.44414602992101,-2.99632546046488,-1.78280205407518,,-2.895511595984633,,
,6505.0,712.0,6695.0,911.0,-56.0,2125.0,3286.0,,,,-2.4445205276294,-2.99663610725075,-1.78290889338358,,-2.914189628571525,,
,6502.0,715.0,6690.0,913.0,-60.0,2116.0,3271.0,,,,-2.44411190481594,-2.9966280651903,-1.78294846854605,,-2.9508983045624446,,
,6501.0,714.0,6684.0,913.0,-58.0,2122.0,3276.0,,,,-2.44370947009994,-2.99655775659471,-1.78286962785159,,-3.0055730831262997,,
,6498.0,712.0,6676.0,910.0,-46.0,2094.0,3277.0,,,,-2.44311702382454,-2.99643696222194,-1.7831155296796,,-3.075688449422773,,
,6492.0,710.0,6670.0,908.0,-51.0,2096.0,3280.0,,,,-2.4429603428181,-2.9964836753051,-1.78299682338916,,-3.1565555711130107,,
,6491.0,710.0,6664.0,908.0,-49.0,2124.0,3298.0,,,,-2.44280820029487,-2.99634699898022,-1.78255907616764,,-3.241621406767539,,
,6487.0,707.0,6658.0,908.0,-55.0,2127.0,3297.0,,,,-2.44368473465055,-2.99652431758926,-1.78242034978429,,-3.322757818734001,,
,6482.0,706.0,6656.0,904.0,-53.0,2134.0,3309.0,,,,-2.44376836315541,-2.99666825997051,-1.78259077785555,,-3.390549981160898,,
,6478.0,704.0,6648.0,903.0,-60.0,2131.0,3304.0,,,,-2.44380655761557,-2.9967678253872,-1.78220166918624,,-3.434608804699522,,
,6476.0,706.0,6646.0,904.0,-50.0,2125.0,3296.0,,,,-2.44261752105116,-2.99645633485389,-1.78209542688379,,-3.443939223815154,,
,6475.0,704.0,6645.0,903.0,-60.0,2120.0,3290.0,,,,-2.44261826063786,-2.99655393805913,-1.78284751163679,,-3.4073934097219607,,
,6475.0,705.0,6646.0,903.0,-58.0,2115.0,3283.0,,,,-2.44312723617777,-2.99680477548842,-1.78256004236553,,-3.3142252923493327,,
,6472.0,702.0,6643.0,899.0,-56.0,2093.0,3279.0,,,,-2.44298081235857,-2.99664805084538,-1.782640857172,,-3.1547417102989557,,
2025-06-30 21:22:13,6473.0,703.0,6640.0,899.0,-57.0,2126.0,3296.0,,,2025/06/30 09:22:13 PM,-2.44188278788236,-2.9964704653928,-1.78216217816335,,-2.9210192922037828,,
,6472.0,703.0,6643.0,903.0,-61.0,2136.0,3259.0,,,,-2.44193548373642,-2.99641101271185,-1.78255990697585,,-2.6076303336858344,,
,6472.0,704.0,6643.0,900.0,-59.0,2128.0,3263.0,,,,-2.44140802888563,-2.9963108980448,-1.78175561373168,,-2.212302858815282,,
,6469.0,703.0,6640.0,900.0,-59.0,2121.0,3283.0,,,,-2.44134398910723,-2.9965111861081,-1.78165306858166,,-1.736436249120996,,
,6472.0,702.0,6644.0,899.0,-51.0,2118.0,3291.0,,,,-2.44086804548916,-2.99642812407145,-1.78162686131625,,-1.1854062248189143,,
,6471.0,702.0,6643.0,899.0,-55.0,2103.0,3281.0,,,,-2.4412763044642,-2.99663516227119,-1.7820646782071,,-0.5686177479592873,,
,6472.0,705.0,6645.0,902.0,-62.0,2122.0,3296.0,,,,-2.4400019727056,-2.99658883606192,-1.7816853660815,,0.10070549713836631,,
,6469.0,703.0,6646.0,899.0,-57.0,2108.0,3303.0,,,,-2.44104834236043,-2.99662208221858,-1.78243925757086,,0.8059777685479537,,
,6468.0,702.0,6645.0,898.0,-47.0,2111.0,3299.0,,,,-2.44127892353626,-2.99647226176219,-1.78169357008808,,1.5279142470056137,,
,6469.0,703.0,6645.0,898.0,-64.0,2117.0,3294.0,,,,-2.44341218226723,-2.99674143661054,-1.78271018915456,,2.2453463808343583,,
,6470.0,704.0,6647.0,902.0,-58.0,2115.0,3279.0,,,,-2.44537578873048,-2.99642666140296,-1.78302551467419,,2.936130403687539,,
,6470.0,702.0,6649.0,901.0,-59.0,2113.0,3280.0,,,,-2.44778131205294,-2.9962610954455,-1.7838844026843,,3.5780923648513,,
,6471.0,701.0,6652.0,897.0,-50.0,2110.0,3273.0,,,,-2.44969815850318,-2.99574138508846,-1.78487594407642,,4.1499612275589985,,
