TimeLabel,MEAS1_PPG1,MEAS1_PPG2,MEAS1_PPG3,MEAS1_PPG4,ACCX,ACCY,ACCZ,HR_timestamp,HR_value,radar_timestamp,phase_rx0,phase_rx1,phase_rx2,timestep,n_process,original_rate,calculated_rate
2025-07-17 19:07:25,2283.0,570.0,1762.0,670.0,1939.0,3182.0,1172.0,2025-07-17 19:07:30,70.0,2025/07/17 07:07:25 PM,-0.0176505372945314,-2.1172734217072,-0.0137816903287127,2025/07/17 07:07:25 PM,-7.3182996201683155,15.831133842468262,18.49551414768806
,2286.0,571.0,1761.0,670.0,1939.0,3172.0,1179.0,2025-07-17 19:07:31,70.0,,-0.017604631676216,-2.11708301451576,-0.0144443751021318,2025/07/17 07:07:35 PM,-7.481842253884616,18.41903305053711,21.43864755933721
,2284.0,571.0,1763.0,670.0,1939.0,3168.0,1181.0,2025-07-17 19:07:32,71.0,,-0.0175860862499535,-2.11704754167654,-0.0137122582290003,2025/07/17 07:07:45 PM,-7.600058326567165,19.751279830932617,22.03504043126685
,2284.0,569.0,1760.0,668.0,1936.0,3167.0,1187.0,2025-07-17 19:07:33,71.0,,-0.0177050752341094,-2.11680460638696,-0.0137853591153488,2025/07/17 07:07:55 PM,-7.665952908401115,20.93510055541992,24.77654105120308
,2286.0,571.0,1762.0,670.0,1936.0,3172.0,1207.0,2025-07-17 19:07:34,71.0,,-0.0176019132411379,-2.11705024969825,-0.0140465667274843,2025/07/17 07:08:05 PM,-7.672653813821393,22.42152404785156,25.41666666666666
,2285.0,571.0,1761.0,670.0,1941.0,3180.0,1168.0,2025-07-17 19:07:35,71.0,,-0.0176751779548596,-2.1167346086645,-0.0137408729693702,2025/07/17 07:08:15 PM,-7.61388855336621,23.895727157592773,24.024032689999075
,2283.0,571.0,1763.0,671.0,1948.0,3184.0,1191.0,2025-07-17 19:07:36,72.0,,-0.017675104776069,-2.1165114760674,-0.0128653241102024,2025/07/17 07:08:25 PM,-7.484508278750787,25.104602813720703,21.968899344978674
,2285.0,573.0,1763.0,673.0,1948.0,3183.0,1193.0,2025-07-17 19:07:37,72.0,,-0.0176832440038358,-2.11691526414025,-0.0140910095074174,2025/07/17 07:08:35 PM,-7.281013545328017,23.930383682250977,23.402742809750887
,2286.0,571.0,1764.0,668.0,1937.0,3183.0,1179.0,2025-07-17 19:07:38,72.0,,-0.0177498727433136,-2.11718568996273,-0.0138734480009583,2025/07/17 07:08:45 PM,-7.002023129775186,23.044692993164062,23.327627324838637
,2285.0,569.0,1765.0,669.0,1934.0,3194.0,1184.0,2025-07-17 19:07:39,72.0,,-0.0177692627713656,-2.11764773735908,-0.0138322809693382,2025/07/17 07:08:55 PM,-6.648620539456801,22.53944396972656,22.129496195941396
,2284.0,573.0,1763.0,671.0,1929.0,3185.0,1176.0,2025-07-17 19:07:40,73.0,,-0.0178625501665862,-2.11775553021302,-0.0143634779519162,2025/07/17 07:09:05 PM,-6.22451691338532,21.531099319458008,19.134261523020314
,2287.0,572.0,1766.0,671.0,1936.0,3181.0,1177.0,2025-07-17 19:07:41,74.0,,-0.0179875424661764,-2.11765753044104,-0.0141377280675066,2025/07/17 07:09:15 PM,-5.735985263332768,21.75664710998535,22.37244237244234
,2285.0,573.0,1764.0,672.0,1938.0,3188.0,1193.0,2025-07-17 19:07:42,74.0,,-0.0180272779951775,-2.11795225177213,-0.0139755845915309,2025/07/17 07:09:25 PM,-5.191547566785771,15.981735229492188,22.21565359579884
,2285.0,571.0,1762.0,670.0,1941.0,3190.0,1204.0,2025-07-17 19:07:43,75.0,,-0.0182300942880583,-2.11807308724439,-0.0145398196160516,2025/07/17 07:09:35 PM,-4.601428339325701,17.608217239379883,25.185236885451893
,2287.0,571.0,1763.0,669.0,1942.0,3173.0,1190.0,2025-07-17 19:07:44,74.0,,-0.018286154483835,-2.11774488776707,-0.0147429776253508,2025/07/17 07:09:45 PM,-3.9768201675783046,23.49869537353516,21.642717360917
,2286.0,572.0,1767.0,671.0,1933.0,3160.0,1220.0,2025-07-17 19:07:45,74.0,,-0.0181788296874949,-2.11777030966946,-0.0142441939335345,2025/07/17 07:09:55 PM,-3.329033184100713,22.996515274047848,21.633923778851294
,2285.0,573.0,1766.0,672.0,1931.0,3163.0,1207.0,2025-07-17 19:07:46,74.0,,-0.0183798812029653,-2.11841938282331,-0.0153016754484638,2025/07/17 07:10:05 PM,-2.6686180692789025,22.076860427856445,20.02262443438916
,2284.0,570.0,1764.0,669.0,1948.0,3183.0,1190.0,2025-07-17 19:07:47,74.0,,-0.0183293474763712,-2.11899840492449,-0.0146213515558766,2025/07/17 07:10:15 PM,-2.0045589409372964,17.37870979309082,22.21561668145518
,2286.0,573.0,1767.0,671.0,1951.0,3178.0,1176.0,2025-07-17 19:07:48,73.0,,-0.0184066980502771,-2.11925691992441,-0.0150700763466756,,-1.343627975645488,,
,2286.0,572.0,1766.0,672.0,1940.0,3182.0,1188.0,2025-07-17 19:07:49,73.0,,-0.0184917552577271,-2.11945881405721,-0.0146290669537875,,-0.6899786497314234,,
,2285.0,573.0,1767.0,673.0,1941.0,3179.0,1189.0,2025-07-17 19:07:50,73.0,,-0.0185223989563095,-2.11993775232932,-0.0147603738184597,,-0.04503102588091526,,
,2286.0,571.0,1767.0,671.0,1948.0,3189.0,1211.0,2025-07-17 19:07:51,72.0,,-0.018692763014582,-2.12000361653076,-0.0151936633731971,,0.5923268180384459,,
,2285.0,571.0,1767.0,670.0,1937.0,3157.0,1204.0,2025-07-17 19:07:52,72.0,,-0.0187602170082405,-2.11962887196421,-0.0165961849872599,,1.2252294045325898,,
,2288.0,570.0,1768.0,671.0,1950.0,3170.0,1215.0,2025-07-17 19:07:53,72.0,,-0.0188106953015792,-2.12041333306211,-0.0156605521503181,,1.8580570557298173,,
,2287.0,573.0,1768.0,671.0,1947.0,3172.0,1207.0,2025-07-17 19:07:54,71.0,,-0.0188820339463713,-2.12090044415843,-0.0169224728803309,,2.4954617737871603,,
,2288.0,572.0,1767.0,671.0,1939.0,3176.0,1178.0,2025-07-17 19:07:55,71.0,,-0.0190287671533412,-2.1211169793957,-0.0159389925104025,,3.141289646905536,,
,2286.0,569.0,1768.0,672.0,1931.0,3163.0,1207.0,2025-07-17 19:07:56,71.0,,-0.0192296732455855,-2.12156412563904,-0.0163193475866333,,3.79750859607071,,
,2288.0,573.0,1770.0,673.0,1931.0,3165.0,1213.0,2025-07-17 19:07:57,71.0,,-0.0192806596420591,-2.12233646092375,-0.0172149822048284,,4.463254374742922,,
,2289.0,572.0,1768.0,672.0,1936.0,3173.0,1199.0,2025-07-17 19:07:58,71.0,,-0.0195111678434678,-2.12301893710421,-0.0168483167222077,,5.134100494141378,,
,2289.0,574.0,1769.0,674.0,1940.0,3174.0,1190.0,2025-07-17 19:07:59,71.0,,-0.019607890710343,-2.12306319224579,-0.0177703902009301,,5.801640253218242,,
,2285.0,573.0,1771.0,672.0,1945.0,3162.0,1191.0,2025-07-17 19:08:00,71.0,,-0.0197252607579778,-2.12342285143751,-0.0180129930291863,,6.453443166498189,,
,2289.0,572.0,1773.0,674.0,1939.0,3155.0,1164.0,2025-07-17 19:08:01,71.0,,-0.019788480771087,-2.12381175230059,-0.0185744185359019,,7.0734158478516935,,
,2289.0,575.0,1774.0,673.0,1942.0,3166.0,1199.0,2025-07-17 19:08:02,71.0,,-0.0199876383492315,-2.12459855498978,-0.0190485958822952,,7.642561035366359,,
,2288.0,574.0,1772.0,673.0,1935.0,3173.0,1197.0,2025-07-17 19:08:03,71.0,,-0.0202438438572658,-2.12539655919617,-0.019037997528313,,8.14009058415787,,
,2288.0,572.0,1771.0,672.0,1938.0,3171.0,1198.0,2025-07-17 19:08:04,71.0,,-0.0203508986950109,-2.12577496716431,-0.0197956892759412,,8.544812060436126,,
,2288.0,572.0,1769.0,672.0,1929.0,3166.0,1207.0,2025-07-17 19:08:05,71.0,,-0.0204524022363331,-2.12589426933836,-0.0196706765994632,,8.836677371080887,,
,2288.0,577.0,1773.0,674.0,1946.0,3176.0,1200.0,2025-07-17 19:08:06,71.0,,-0.0205679013112753,-2.12611672231748,-0.0204047185435889,,8.998358803996037,,
,2290.0,572.0,1772.0,672.0,1949.0,3167.0,1217.0,2025-07-17 19:08:07,71.0,,-0.0207693032969145,-2.12650906972459,-0.0199420296687463,,9.0167058290918,,
,2291.0,573.0,1775.0,674.0,1946.0,3186.0,1203.0,2025-07-17 19:08:08,71.0,,-0.0207787220003653,-2.12762882951179,-0.0213993222507673,,8.88393774495188,,
,2288.0,573.0,1770.0,673.0,1947.0,3195.0,1180.0,2025-07-17 19:08:09,70.0,,-0.0208998729987711,-2.12785291832737,-0.0215402666505851,,8.598445131242206,,
,2288.0,574.0,1774.0,676.0,1953.0,3205.0,1199.0,2025-07-17 19:08:10,69.0,,-0.0211107147347464,-2.12875374317358,-0.0224209801378793,,8.165108305161848,,
,2292.0,575.0,1774.0,672.0,1940.0,3198.0,1203.0,2025-07-17 19:08:11,68.0,,-0.0214165626817087,-2.12942159108281,-0.022247216834586,,7.595092000497736,,
,2289.0,573.0,1773.0,674.0,1943.0,3199.0,1211.0,2025-07-17 19:08:12,68.0,,-0.0215203098198247,-2.13032882851332,-0.0236205981355216,,6.905136100673775,,
,2287.0,572.0,1773.0,674.0,1940.0,3204.0,1199.0,2025-07-17 19:08:13,67.0,,-0.0217339240434805,-2.13190430415529,-0.024518511090627,,6.11642185760748,,
,2289.0,572.0,1771.0,674.0,1944.0,3201.0,1190.0,2025-07-17 19:08:14,67.0,,-0.0218158067051534,-2.13249777216451,-0.0239973936519362,,5.253140088119579,,
,2288.0,574.0,1774.0,673.0,1944.0,3205.0,1180.0,2025-07-17 19:08:15,67.0,,-0.0219882840699161,-2.13278875412055,-0.0265388578315821,,4.340914468319296,,
,2286.0,571.0,1771.0,670.0,1948.0,3189.0,1179.0,2025-07-17 19:08:16,67.0,,-0.0221129338091661,-2.13374198062895,-0.0259348816915957,,3.405237097730949,,
,2288.0,571.0,1768.0,671.0,1939.0,3164.0,1195.0,2025-07-17 19:08:17,67.0,,-0.0221896698715961,-2.13471424602297,-0.0273824330693375,,2.4700576053143375,,
,2285.0,570.0,1768.0,671.0,1935.0,3168.0,1218.0,2025-07-17 19:08:18,67.0,,-0.022417197628984,-2.13528612726047,-0.0273772520654488,,1.5566364942671167,,
,2286.0,571.0,1767.0,672.0,1927.0,3155.0,1222.0,2025-07-17 19:08:19,66.0,,-0.022363236890425,-2.13595563607,-0.0276557746428574,,0.6827342901125926,,
,2284.0,572.0,1765.0,672.0,1931.0,3155.0,1232.0,2025-07-17 19:08:20,66.0,,-0.0226145934914575,-2.1370598306624,-0.0288855755376384,,-0.13783389593059125,,
,2283.0,567.0,1760.0,668.0,1940.0,3149.0,1222.0,2025-07-17 19:08:21,66.0,,-0.0226357379656704,-2.13713936125869,-0.0295044927110395,,-0.895288812324907,,
,2281.0,569.0,1759.0,669.0,1933.0,3161.0,1219.0,2025-07-17 19:08:22,67.0,,-0.0226943272272074,-2.13795468085015,-0.0300726983863579,,-1.5836673608891374,,
,2281.0,568.0,1762.0,670.0,1926.0,3154.0,1207.0,2025-07-17 19:08:23,67.0,,-0.0227835237819498,-2.13848129867572,-0.0314226440695036,,-2.2003635032027176,,
,2281.0,569.0,1760.0,668.0,1928.0,3159.0,1185.0,2025-07-17 19:08:24,67.0,,-0.0228620958603521,-2.13873788516475,-0.0316128537350349,,-2.7455159359706545,,
,2282.0,569.0,1760.0,667.0,1929.0,3177.0,1181.0,2025-07-17 19:08:25,67.0,,-0.0230534546973075,-2.13960205395064,-0.0311500016350926,,-3.221332600680078,,
,2280.0,566.0,1759.0,668.0,1938.0,3167.0,1181.0,2025-07-17 19:08:26,67.0,,-0.0231612323397642,-2.14013554303494,-0.0329179430813478,,-3.6314349359456624,,
,2280.0,567.0,1756.0,668.0,1941.0,3171.0,1179.0,2025-07-17 19:08:27,67.0,,-0.0233091721373075,-2.1411866338523,-0.034491221879267,,-3.9802883086022725,,
,2279.0,568.0,1758.0,669.0,1938.0,3168.0,1174.0,2025-07-17 19:08:28,67.0,,-0.0235365143510332,-2.14235314884144,-0.0347533411930603,,-4.272762033750425,,
,2279.0,566.0,1755.0,669.0,1939.0,3177.0,1183.0,2025-07-17 19:08:29,67.0,,-0.0236800730030535,-2.1434012352907,-0.0362776273930536,,-4.51383632449631,,
,2279.0,565.0,1756.0,666.0,1936.0,3171.0,1184.0,2025-07-17 19:08:30,67.0,,-0.0238770285714079,-2.14426688334816,-0.0382457223007798,,-4.708448461576141,,
,2279.0,567.0,1756.0,667.0,1941.0,3189.0,1210.0,2025-07-17 19:08:31,67.0,,-0.0240195566743917,-2.14480426470122,-0.0384401823094007,,-4.861450369870884,,
,2280.0,566.0,1758.0,668.0,1940.0,3199.0,1204.0,2025-07-17 19:08:32,66.0,,-0.0242849124197149,-2.14572519369121,-0.0403533605301003,,-4.9776372138220495,,
,2280.0,568.0,1755.0,668.0,1943.0,3193.0,1192.0,2025-07-17 19:08:33,66.0,,-0.0243949891100585,-2.14676763761054,-0.0410462964865087,,-5.061802101211183,,
,2279.0,565.0,1758.0,668.0,1956.0,3189.0,1195.0,2025-07-17 19:08:34,66.0,,-0.0245809173143925,-2.14744049094938,-0.0415097240787304,,-5.118774465229778,,
,2275.0,567.0,1756.0,665.0,1948.0,3176.0,1182.0,2025-07-17 19:08:35,66.0,,-0.024800667254651,-2.1487555350863,-0.0438388314702651,,-5.153407570893955,,
,2277.0,569.0,1753.0,667.0,1943.0,3180.0,1179.0,2025-07-17 19:08:36,66.0,,-0.0247978635155041,-2.14943862480263,-0.0441078512080555,,-5.1704922991812134,,
,2277.0,567.0,1756.0,666.0,1946.0,3176.0,1187.0,2025-07-17 19:08:37,66.0,,-0.0250309891121236,-2.15017662479464,-0.0452798885924902,,-5.1745883999421025,,
,2277.0,565.0,1755.0,667.0,1939.0,3164.0,1180.0,2025-07-17 19:08:38,67.0,,-0.0250395814355674,-2.15104718871766,-0.0462524232855544,,-5.169779169722011,,
,2277.0,565.0,1753.0,666.0,1946.0,3174.0,1207.0,2025-07-17 19:08:39,67.0,,-0.0251128512071339,-2.15136715704603,-0.0458671320585554,,-5.1593693242457075,,
,2277.0,567.0,1757.0,669.0,1945.0,3168.0,1222.0,2025-07-17 19:08:40,67.0,,-0.0251963497539376,-2.15132852176414,-0.0469468202168791,,-5.145557197239815,,
,2278.0,567.0,1757.0,669.0,1947.0,3164.0,1221.0,2025-07-17 19:08:41,68.0,,-0.0251211130337991,-2.15149153386714,-0.0475908252868528,,-5.129120198726566,,
,2277.0,565.0,1755.0,667.0,1952.0,3170.0,1207.0,2025-07-17 19:08:42,67.0,,-0.0252659257397565,-2.15128893579233,-0.0485678034590767,,-5.109155981347293,,
,2276.0,564.0,1753.0,665.0,1939.0,3174.0,1178.0,2025-07-17 19:08:43,67.0,,-0.0253367262629352,-2.15160030411211,-0.0469966829469095,,-5.0829205439182426,,
,2277.0,566.0,1754.0,667.0,1934.0,3168.0,1169.0,2025-07-17 19:08:44,67.0,,-0.0253495023798721,-2.15144123554447,-0.0474526372142741,,-5.045798346809234,,
,2276.0,566.0,1754.0,667.0,1932.0,3164.0,1170.0,2025-07-17 19:08:45,67.0,,-0.0254076582004547,-2.1517395431773,-0.0479237817507334,,-4.991428509756192,,
,2278.0,567.0,1757.0,667.0,1939.0,3170.0,1176.0,2025-07-17 19:08:46,67.0,,-0.0253516429200604,-2.15166112207436,-0.0483771078044431,,-4.911995742480321,,
,2276.0,565.0,1752.0,664.0,1941.0,3178.0,1203.0,2025-07-17 19:08:47,67.0,,-0.0254890169157871,-2.15254510153712,-0.0488411170693225,,-4.798675866929112,,
,2275.0,567.0,1756.0,667.0,1951.0,3186.0,1204.0,2025-07-17 19:08:48,67.0,,-0.0254839231339201,-2.15232099724305,-0.0487255904283792,,-4.642205842680043,,
,2277.0,565.0,1757.0,666.0,1942.0,3184.0,1197.0,2025-07-17 19:08:49,67.0,,-0.0254724850688544,-2.15254514744768,-0.0493592964363011,,-4.433530724336796,,
,2276.0,566.0,1751.0,668.0,1948.0,3193.0,1177.0,2025-07-17 19:08:50,67.0,,-0.0255852361471743,-2.15310163712059,-0.0501395715249203,,-4.164469061022323,,
,2274.0,565.0,1754.0,667.0,1947.0,3173.0,1187.0,2025-07-17 19:08:51,67.0,,-0.0256076554565489,-2.15292247798123,-0.0499759053865517,,-3.8283366867602355,,
,2275.0,563.0,1754.0,666.0,1948.0,3177.0,1189.0,2025-07-17 19:08:52,67.0,,-0.025633101242339,-2.15326968418065,-0.0511361713539653,,-3.420476870062384,,
,2277.0,567.0,1755.0,666.0,1942.0,3179.0,1191.0,2025-07-17 19:08:53,68.0,,-0.0255887288695206,-2.15296239943456,-0.0505247962327306,,-2.938660159107397,,
,2277.0,567.0,1756.0,666.0,1933.0,3173.0,1189.0,2025-07-17 19:08:54,68.0,,-0.0256642742781536,-2.15343198847367,-0.0507330450473109,,-2.3833363164064516,,
,2276.0,564.0,1756.0,667.0,1929.0,3182.0,1182.0,2025-07-17 19:08:55,68.0,,-0.0258563726223594,-2.15321297820092,-0.0514169583928118,,-1.7577394524588035,,
,2274.0,564.0,1752.0,667.0,1934.0,3172.0,1192.0,2025-07-17 19:08:56,68.0,,-0.0258997526840954,-2.15394680129375,-0.0523804267451758,,-1.0678622622076834,,
,2278.0,566.0,1755.0,668.0,1934.0,3175.0,1192.0,2025-07-17 19:08:57,68.0,,-0.0259260072835784,-2.15408667318872,-0.0527027996225768,,-0.3223238302106031,,
,2275.0,567.0,1757.0,666.0,1941.0,3174.0,1187.0,2025-07-17 19:08:58,68.0,,-0.0258336354978707,-2.15420366290459,-0.0528858128830577,,0.4678425815855396,,
,2276.0,563.0,1754.0,665.0,1940.0,3172.0,1186.0,2025-07-17 19:08:59,68.0,,-0.0258879883803269,-2.15422241997011,-0.0543074579830351,,1.2894585833156584,,
,2275.0,564.0,1754.0,665.0,1941.0,3174.0,1174.0,2025-07-17 19:09:00,68.0,,-0.025874486288399,-2.15443120173893,-0.0533626381224961,,2.1275095874329844,,
,2274.0,565.0,1754.0,668.0,1945.0,3183.0,1154.0,2025-07-17 19:09:01,69.0,,-0.0260103364412436,-2.15472193623248,-0.0540916129911333,,2.9654840960130087,,
,2276.0,564.0,1754.0,667.0,1947.0,3180.0,1165.0,2025-07-17 19:09:02,69.0,,-0.0259263144005512,-2.15509434916567,-0.0555685271249094,,3.785741437483184,,
,2274.0,565.0,1755.0,665.0,1942.0,3188.0,1172.0,2025-07-17 19:09:03,69.0,,-0.0260324090242215,-2.15491553396558,-0.0546876493038605,,4.569913113511455,,
,2274.0,565.0,1754.0,667.0,1943.0,3184.0,1172.0,2025-07-17 19:09:04,69.0,,-0.026095148989185,-2.15498839837484,-0.0559072214210698,,5.299348457993497,,
,2276.0,564.0,1754.0,667.0,1959.0,3171.0,1174.0,2025-07-17 19:09:05,69.0,,-0.0262490048101401,-2.15515485750509,-0.0558625606050341,,5.955617865962043,,
,2275.0,565.0,1755.0,669.0,1947.0,3175.0,1174.0,2025-07-17 19:09:06,69.0,,-0.0261787500898794,-2.15525781508763,-0.055741448567893,,6.521084521262044,,
,2274.0,566.0,1755.0,668.0,1948.0,3164.0,1182.0,2025-07-17 19:09:07,69.0,,-0.026105781837498,-2.15515725173155,-0.0558987272237469,,6.979546555905269,,
,2276.0,566.0,1755.0,665.0,1938.0,3152.0,1192.0,2025-07-17 19:09:08,70.0,,-0.0261688466601903,-2.15535955419666,-0.0559804303312102,,7.316935615458126,,
,2274.0,563.0,1756.0,667.0,1947.0,3158.0,1186.0,2025-07-17 19:09:09,70.0,,-0.0260307275604979,-2.15534741994811,-0.0569754791479549,,7.5220373955786375,,
,2274.0,567.0,1755.0,666.0,1949.0,3161.0,1182.0,2025-07-17 19:09:10,71.0,,-0.0259731411001209,-2.15542306559602,-0.0560966546444963,,7.587179978401842,,
,2278.0,567.0,1757.0,668.0,1950.0,3173.0,1180.0,2025-07-17 19:09:11,71.0,,-0.0260652997456249,-2.15550642981049,-0.0577154797963583,,7.508822597467986,,
,2276.0,566.0,1758.0,668.0,1948.0,3174.0,1163.0,2025-07-17 19:09:12,72.0,,-0.0260345999573745,-2.1555173251839,-0.0574587455371887,,7.2879751650649025,,
,2274.0,563.0,1756.0,667.0,1940.0,3161.0,1188.0,2025-07-17 19:09:13,73.0,,-0.0260543562727809,-2.15571123957632,-0.0576626694160774,,6.930388997236398,,
,2278.0,565.0,1759.0,669.0,1955.0,3171.0,1192.0,2025-07-17 19:09:14,74.0,,-0.0260986335501349,-2.15495844412304,-0.056679771726023,,6.4464800266237265,,
,2275.0,566.0,1757.0,667.0,1943.0,3178.0,1192.0,2025-07-17 19:09:15,75.0,,-0.0260285213334567,-2.1552920808033,-0.058763021026591,,5.8509732380960084,,
,2275.0,565.0,1759.0,669.0,1947.0,3184.0,1196.0,2025-07-17 19:09:16,75.0,,-0.0261054507001511,-2.15583159431583,-0.058636311525696,,5.162285665248231,,
,2275.0,564.0,1758.0,667.0,1949.0,3176.0,1196.0,2025-07-17 19:09:17,74.0,,-0.0262383149137712,-2.15605339317127,-0.0583372474265329,,4.401689995804379,,
,2275.0,568.0,1760.0,668.0,1957.0,3173.0,1175.0,2025-07-17 19:09:18,74.0,,-0.0261155437686973,-2.15578085900078,-0.0600190920839404,,3.5923184133164483,,
,2278.0,566.0,1760.0,669.0,1953.0,3174.0,1184.0,2025-07-17 19:09:19,73.0,,-0.0261620323345173,-2.1561196463988,-0.0604582274745576,,2.7580758188826207,,
,2275.0,569.0,1759.0,671.0,1948.0,3171.0,1200.0,2025-07-17 19:09:20,73.0,,-0.0263362573638084,-2.15626679606167,-0.0608636766973967,,1.9225338623728319,,
,2278.0,568.0,1759.0,669.0,1946.0,3161.0,1183.0,2025-07-17 19:09:21,72.0,,-0.0262356088221167,-2.15655973238821,-0.0615591179558878,,1.1078739510565736,,
,2275.0,566.0,1762.0,668.0,1954.0,3161.0,1191.0,2025-07-17 19:09:22,72.0,,-0.0263085631941768,-2.1565882496373,-0.06257255434544,,0.33394042556976666,,
,2278.0,567.0,1761.0,670.0,1952.0,3164.0,1187.0,2025-07-17 19:09:23,72.0,,-0.0263030923200818,-2.15702980337393,-0.0624841553953886,,-0.38254413717125113,,
,2278.0,567.0,1762.0,668.0,1951.0,3177.0,1178.0,2025-07-17 19:09:24,72.0,,-0.0263574022802474,-2.15665364454151,-0.062993193709537,,-1.0285604042239285,,
,2278.0,565.0,1761.0,668.0,1959.0,3174.0,1163.0,2025-07-17 19:09:25,73.0,,-0.0263172623180692,-2.15705094546283,-0.0625708480403836,,-1.5951422891521354,,
,2278.0,566.0,1762.0,670.0,1951.0,3182.0,1162.0,2025-07-17 19:09:26,73.0,,-0.0262335786909121,-2.15657683069939,-0.0635500540405365,,-2.0774824725201206,,
,2276.0,568.0,1762.0,669.0,1938.0,3184.0,1179.0,2025-07-17 19:09:27,73.0,,-0.0262374122905362,-2.15661992810586,-0.0639033722702773,,-2.474797590651953,,
,2278.0,569.0,1764.0,669.0,1944.0,3162.0,1199.0,2025-07-17 19:09:28,73.0,,-0.0261344862733814,-2.15619342090728,-0.0630965961662745,,-2.7899744297158393,,
,2279.0,568.0,1764.0,671.0,1947.0,3158.0,1193.0,2025-07-17 19:09:29,73.0,,-0.0260670972159572,-2.15586014861513,-0.0636676474110145,,-3.029033298851628,,
,2276.0,565.0,1761.0,669.0,1941.0,3175.0,1183.0,2025-07-17 19:09:30,72.0,,-0.0259657719266824,-2.15535969761214,-0.0620329167296092,,-3.20045548304399,,
,2279.0,568.0,1767.0,670.0,1951.0,3170.0,1180.0,2025-07-17 19:09:31,72.0,,-0.0258546334274295,-2.15472763868458,-0.0600845631570963,,-3.314427661047665,,
,2279.0,567.0,1767.0,670.0,1944.0,3170.0,1184.0,2025-07-17 19:09:32,71.0,,-0.0257834606050967,-2.15422593064367,-0.0598867240825613,,-3.3820576256321893,,
,2280.0,567.0,1765.0,672.0,1944.0,3164.0,1186.0,2025-07-17 19:09:33,70.0,,-0.0257479941928481,-2.1534998325831,-0.0583328732137017,,-3.4146131055179514,,
,2280.0,566.0,1763.0,669.0,1947.0,3163.0,1183.0,2025-07-17 19:09:34,70.0,,-0.0255202125038827,-2.15304082320797,-0.0572814825256963,,-3.4228296367193902,,
,2280.0,567.0,1766.0,672.0,1957.0,3173.0,1170.0,2025-07-17 19:09:35,70.0,,-0.0254483233003205,-2.15268808116658,-0.0571064043679517,,-3.416325134388412,,
,2280.0,567.0,1765.0,670.0,1947.0,3182.0,1175.0,2025-07-17 19:09:36,70.0,,-0.0253713058394995,-2.15242064375017,-0.0569128073132618,,-3.403149078018593,,
,2279.0,569.0,1765.0,671.0,1947.0,3190.0,1166.0,2025-07-17 19:09:37,70.0,,-0.0254771088650991,-2.15224930024155,-0.0562665439160105,,-3.389483902978489,,
2025-07-17 19:07:26,2280.0,566.0,1766.0,669.0,1953.0,3179.0,1163.0,2025-07-17 19:09:38,70.0,2025/07/17 07:07:26 PM,-0.0256000466161214,-2.15229017014951,-0.0568626388482951,,-3.379505763850553,,
,2281.0,566.0,1767.0,671.0,1941.0,3167.0,1175.0,2025-07-17 19:09:39,70.0,,-0.0254222883968281,-2.15187415028554,-0.0567401429118121,,-3.375401406748455,,
,2282.0,568.0,1772.0,671.0,1940.0,3172.0,1180.0,2025-07-17 19:09:40,70.0,,-0.025449479549481,-2.15209829094464,-0.0558950999449196,,-3.377527420778382,,
,2281.0,567.0,1769.0,673.0,1945.0,3178.0,1180.0,2025-07-17 19:09:41,70.0,,-0.0254876985263478,-2.15261201832468,-0.0562405913866588,,-3.3846876947841484,,
,2282.0,568.0,1769.0,672.0,1935.0,3169.0,1165.0,2025-07-17 19:09:42,70.0,,-0.0254870788698863,-2.15321733637276,-0.0587328212696575,,-3.394494925555413,,
,2282.0,569.0,1771.0,674.0,1952.0,3180.0,1174.0,2025-07-17 19:09:43,70.0,,-0.0255555770196193,-2.1533999582744,-0.0581456290179882,,-3.40377372642443,,
,2283.0,569.0,1772.0,674.0,1946.0,3149.0,1179.0,2025-07-17 19:09:44,69.0,,-0.0257000608372748,-2.15424505453125,-0.0603488059172286,,-3.408958370252428,,
,2284.0,570.0,1772.0,673.0,1962.0,3162.0,1159.0,2025-07-17 19:09:45,69.0,,-0.0257190587345007,-2.15463983749571,-0.060320420180193,,-3.4064395888734036,,
,2284.0,571.0,1773.0,674.0,1956.0,3160.0,1165.0,2025-07-17 19:09:46,69.0,,-0.0258133506727604,-2.15521598284511,-0.0615823846562464,,-3.392822817304134,,
,2282.0,568.0,1774.0,672.0,1955.0,3164.0,1183.0,2025-07-17 19:09:47,69.0,,-0.0259467600495456,-2.15539604653921,-0.0614622345207559,,-3.365073443728093,,
,2284.0,571.0,1774.0,675.0,1961.0,3166.0,1168.0,2025-07-17 19:09:48,69.0,,-0.0259222378363232,-2.15605124916934,-0.0628466924079801,,-3.3205405131884556,,
,2285.0,569.0,1774.0,675.0,1962.0,3164.0,1164.0,2025-07-17 19:09:49,69.0,,-0.0259995576654944,-2.156750637531,-0.0649459226539247,,-3.2568666535598,,
,2283.0,567.0,1773.0,674.0,1956.0,3162.0,1147.0,2025-07-17 19:09:50,70.0,,-0.0260636486507946,-2.15707657207737,-0.0648044969550927,,-3.171807112022473,,
,2282.0,569.0,1771.0,672.0,1954.0,3166.0,1152.0,2025-07-17 19:09:51,70.0,,-0.0261214802025211,-2.15707310192212,-0.0657636746619154,,-3.0629933371492637,,
,2284.0,568.0,1777.0,674.0,1947.0,3168.0,1155.0,2025-07-17 19:09:52,70.0,,-0.0261514182637809,-2.15769617861108,-0.0666354751025405,,-2.9276851440105256,,
,2286.0,569.0,1778.0,674.0,1954.0,3173.0,1169.0,2025-07-17 19:09:53,69.0,,-0.0263397269125049,-2.1581358153425,-0.066279885600474,,-2.762559092711995,,
,2284.0,571.0,1777.0,677.0,1962.0,3181.0,1179.0,2025-07-17 19:09:54,69.0,,-0.0264949183095809,-2.1587567944256,-0.0683883123473153,,-2.5635790075518754,,
,2284.0,570.0,1777.0,674.0,1953.0,3200.0,1173.0,2025-07-17 19:09:55,68.0,,-0.0263610797297563,-2.15968909830625,-0.0690491446112804,,-2.3259881207338213,,
,2285.0,573.0,1779.0,675.0,1946.0,3181.0,1152.0,2025-07-17 19:09:56,68.0,,-0.0265007845726768,-2.1602288282313,-0.0708155994991829,,-2.0444521338129964,,
,2289.0,572.0,1779.0,674.0,1950.0,3196.0,1166.0,2025-07-17 19:09:57,67.0,,-0.0266807804180635,-2.16072935689124,-0.0712743152160676,,-1.7133694198228169,,
,2286.0,572.0,1781.0,677.0,1953.0,3197.0,1168.0,2025-07-17 19:09:58,68.0,,-0.0268723554326496,-2.16179225751417,-0.071977651980857,,-1.327348991334713,,
,2286.0,570.0,1780.0,676.0,1945.0,3204.0,1146.0,2025-07-17 19:09:59,68.0,,-0.0268092011281899,-2.16236187946554,-0.0719154214520547,,-0.881838664976947,,
,2288.0,572.0,1781.0,676.0,1956.0,3200.0,1170.0,2025-07-17 19:10:00,68.0,,-0.0269447629867685,-2.16286934698504,-0.0739869716976514,,-0.3738653556190293,,
,2288.0,570.0,1780.0,675.0,1979.0,3186.0,1157.0,2025-07-17 19:10:01,69.0,,-0.0269973156289676,-2.16337376348567,-0.0729509209319937,,0.19717164985183872,,
,2288.0,573.0,1782.0,678.0,1975.0,3182.0,1173.0,2025-07-17 19:10:02,69.0,,-0.0270774921529823,-2.16358508302881,-0.0738701133479985,,0.8287318585214346,,
,2286.0,571.0,1780.0,675.0,1961.0,3185.0,1167.0,2025-07-17 19:10:03,69.0,,-0.0270569383722252,-2.16397106989192,-0.0752696947432167,,1.5144781208020888,,
,2284.0,569.0,1779.0,673.0,1953.0,3185.0,1163.0,2025-07-17 19:10:04,68.0,,-0.0271380874417624,-2.16402214357957,-0.0737967247670876,,2.243825499017472,,
,2286.0,571.0,1778.0,677.0,1950.0,3177.0,1177.0,2025-07-17 19:10:05,68.0,,-0.0270485492907487,-2.16392418560018,-0.0746981347744622,,3.0017768806133263,,
,2287.0,569.0,1779.0,677.0,1947.0,3166.0,1150.0,2025-07-17 19:10:06,67.0,,-0.0271143905294839,-2.16397703292036,-0.074781831772425,,3.7691090643396685,,
,2285.0,572.0,1777.0,677.0,1943.0,3160.0,1150.0,2025-07-17 19:10:07,66.0,,-0.0272480140829281,-2.16378469863203,-0.0735865244727969,,4.522945208024884,,
,2283.0,569.0,1777.0,675.0,1942.0,3144.0,1198.0,2025-07-17 19:10:08,65.0,,-0.0272496242189475,-2.16348429204091,-0.0731357671981303,,5.237714425579654,,
,2283.0,568.0,1775.0,674.0,1948.0,3158.0,1203.0,2025-07-17 19:10:09,65.0,,-0.0270321627659075,-2.16324446323827,-0.0733733873816223,,5.886459954931479,,
,2284.0,570.0,1777.0,675.0,1945.0,3149.0,1176.0,2025-07-17 19:10:10,65.0,,-0.0272024537367161,-2.16332819104057,-0.0727329039186817,,6.442417585966285,,
,2284.0,570.0,1776.0,677.0,1942.0,3131.0,1171.0,2025-07-17 19:10:11,66.0,,-0.0271415285652003,-2.16256445434311,-0.0726519472999546,,6.880750134936488,,
,2286.0,567.0,1772.0,673.0,1942.0,3151.0,1190.0,2025-07-17 19:10:12,66.0,,-0.0271173532075686,-2.16248285757475,-0.0720303246954986,,7.180295755546737,,
,2282.0,568.0,1773.0,673.0,1935.0,3157.0,1200.0,2025-07-17 19:10:13,66.0,,-0.0270839930125661,-2.16193594043797,-0.0712151196254822,,7.325171703841271,,
,2282.0,568.0,1772.0,673.0,1953.0,3165.0,1179.0,2025-07-17 19:10:14,67.0,,-0.0269534948605967,-2.16198374290059,-0.0712488069767748,,7.306074486192831,,
,2281.0,566.0,1771.0,673.0,1950.0,3166.0,1166.0,2025-07-17 19:10:15,67.0,,-0.0268763169908797,-2.16189128417767,-0.069447670422657,,7.121134957566139,,
,2280.0,567.0,1774.0,673.0,1953.0,3171.0,1186.0,2025-07-17 19:10:16,67.0,,-0.0269798361374644,-2.16169229427684,-0.0712897101899755,,6.776223969043037,,
,2279.0,568.0,1771.0,670.0,1951.0,3168.0,1173.0,2025-07-17 19:10:17,67.0,,-0.0268980952724693,-2.16149591175358,-0.0703710513448324,,6.284658732426663,,
,2280.0,567.0,1771.0,674.0,1959.0,3199.0,1170.0,2025-07-17 19:10:18,68.0,,-0.027041769029338,-2.16155001622857,-0.0706421669421981,,5.666326182495211,,
,2279.0,565.0,1770.0,671.0,1964.0,3201.0,1176.0,2025-07-17 19:10:19,68.0,,-0.0268938428117901,-2.16154573876888,-0.0716201645251662,,4.946306892730967,,
,2279.0,569.0,1772.0,673.0,1968.0,3192.0,1167.0,2025-07-17 19:10:20,68.0,,-0.0268404536207967,-2.16151619339106,-0.0704110269450481,,4.1531390481175094,,
,2281.0,566.0,1771.0,671.0,1966.0,3195.0,1152.0,2025-07-17 19:10:21,68.0,,-0.0268001097302976,-2.16184384025313,-0.0710335375092933,,3.316896473044946,,
,2280.0,565.0,1773.0,673.0,1971.0,3186.0,1166.0,2025-07-17 19:10:22,67.0,,-0.0268711858608192,-2.16174964356288,-0.0700070048870499,,2.4672636583990006,,
,2279.0,567.0,1773.0,674.0,1967.0,3198.0,1191.0,2025-07-17 19:10:23,67.0,,-0.0268050070410002,-2.16168653120704,-0.0708642858271181,,1.6317763272077674,,
,2280.0,566.0,1771.0,672.0,1954.0,3196.0,1177.0,2025-07-17 19:10:24,67.0,,-0.0268585462984844,-2.16226910036362,-0.070295964880264,,0.8343642610721256,,
,2279.0,565.0,1771.0,671.0,1952.0,3179.0,1181.0,2025-07-17 19:10:25,67.0,,-0.0268326298531713,-2.16158628269575,-0.070549892085216,,0.09429076661460674,,
,2279.0,565.0,1773.0,673.0,1960.0,3188.0,1174.0,2025-07-17 19:10:26,67.0,,-0.0267279223199703,-2.16167313743641,-0.0703468587971277,,-0.5744633406395211,,
,2279.0,567.0,1772.0,676.0,1977.0,3176.0,1159.0,2025-07-17 19:10:27,67.0,,-0.02680798469685,-2.16139613439344,-0.0698649269501941,,-1.1633685882034632,,
,2279.0,567.0,1770.0,672.0,1973.0,3179.0,1164.0,2025-07-17 19:10:28,67.0,,-0.02685421310379,-2.16170902004501,-0.0697372575621585,,-1.6691055327806092,,
,2277.0,564.0,1770.0,674.0,1955.0,3186.0,1192.0,2025-07-17 19:10:29,67.0,,-0.0268955270510431,-2.16183220540819,-0.0713057780358276,,-2.092981364148188,,
,2280.0,565.0,1772.0,671.0,1963.0,3169.0,1177.0,,,,-0.0269297140515723,-2.16248600551012,-0.0714308175265403,,-2.4400934672298886,,
,2281.0,565.0,1774.0,674.0,1961.0,3179.0,1176.0,,,,-0.0270314960138065,-2.16251722800703,-0.0724021448770886,,-2.7183394145392334,,
,2282.0,567.0,1774.0,672.0,1960.0,3188.0,1183.0,,,,-0.0270414077433304,-2.16332202657259,-0.0744560646089942,,-2.9373731954797533,,
,2279.0,567.0,1776.0,675.0,1967.0,3184.0,1162.0,,,,-0.0271934806307619,-2.16337396577782,-0.0751242919999526,,-3.107598775603618,,
,2280.0,567.0,1772.0,671.0,1953.0,3161.0,1180.0,,,,-0.027295850020532,-2.16406118889775,-0.0746070007360643,,-3.239275917746328,,
,2280.0,568.0,1775.0,675.0,1949.0,3156.0,1179.0,,,,-0.0273672212026917,-2.16451547787701,-0.0761726599845681,,-3.3417916480917,,
,2281.0,567.0,1774.0,674.0,1951.0,3155.0,1182.0,,,,-0.0275194356840497,-2.16491596778986,-0.0767532087457344,,-3.423126283871013,,
,2279.0,567.0,1774.0,675.0,1950.0,3157.0,1177.0,,,,-0.0275421172049883,-2.16518596194265,-0.0774267920916985,,-3.4895185225213923,,
,2283.0,566.0,1772.0,671.0,1957.0,3165.0,1189.0,,,,-0.0276057993580177,-2.16549756065842,-0.0765673524950742,,-3.545313047957021,,
,2281.0,567.0,1773.0,673.0,1948.0,3165.0,1180.0,,,,-0.0277159879742358,-2.16581355922073,-0.0772965667909419,,-3.5929592685579705,,
,2283.0,568.0,1775.0,675.0,1940.0,3150.0,1188.0,,,,-0.0276180949122295,-2.16647695320895,-0.0768741269419393,,-3.633122376156526,,
,2282.0,568.0,1776.0,675.0,1946.0,3156.0,1193.0,,,,-0.0276517814722277,-2.16626448748761,-0.078383109990104,,-3.6648672319742652,,
,2279.0,567.0,1772.0,672.0,1950.0,3164.0,1196.0,,,,-0.0277342546379703,-2.16667249869081,-0.0785496611202303,,-3.685879946268553,,
,2280.0,564.0,1774.0,674.0,1942.0,3157.0,1181.0,,,,-0.0277550458385384,-2.16703097212351,-0.0774007839812258,,-3.69269972121282,,
,2281.0,568.0,1774.0,674.0,1949.0,3163.0,1197.0,,,,-0.0278888902594132,-2.16735218862453,-0.0779745738955355,,-3.680943177086597,,
,2280.0,566.0,1775.0,673.0,1945.0,3153.0,1193.0,,,,-0.0278437243225918,-2.16706627053628,-0.0778615405394768,,-3.64551362819098,,
,2279.0,566.0,1773.0,672.0,1953.0,3148.0,1182.0,,,,-0.0278820332072628,-2.16719718151408,-0.0776561436166963,,-3.580797121973313,,
,2281.0,565.0,1775.0,675.0,1961.0,3167.0,1162.0,,,,-0.0279201407999674,-2.16716227454692,-0.0779179447689974,,-3.4808541631592513,,
,2278.0,568.0,1776.0,672.0,1946.0,3153.0,1177.0,,,,-0.0278136610827574,-2.16733478251828,-0.0776549343160538,,-3.339620275413991,,
,2282.0,568.0,1775.0,673.0,1943.0,3156.0,1157.0,,,,-0.0278673870999712,-2.16729052273258,-0.0774289051583009,,-3.151130133047263,,
,2282.0,565.0,1773.0,675.0,1938.0,3168.0,1173.0,,,,-0.0277987789021291,-2.1676318403559,-0.0768444769437068,,-2.9097795008167098,,
,2281.0,567.0,1775.0,675.0,1946.0,3160.0,1175.0,,,,-0.0278717966810566,-2.16790553550076,-0.0774404083757331,,-2.6106367598061877,,
,2281.0,568.0,1775.0,674.0,1948.0,3172.0,1181.0,,,,-0.0277845424143342,-2.16754834705663,-0.0776773175367153,,-2.2498106202346415,,
,2282.0,567.0,1776.0,674.0,1945.0,3178.0,1191.0,,,,-0.027920384721675,-2.1674991858988,-0.0769259657966452,,-1.824871649619289,,
,2281.0,567.0,1774.0,675.0,1951.0,3174.0,1174.0,,,,-0.0279579595864471,-2.16746597306153,-0.0773579740554607,,-1.3353123199526296,,
,2282.0,567.0,1775.0,673.0,1948.0,3192.0,1163.0,,,,-0.0278903804158295,-2.16778850755609,-0.0773743665004821,,-0.7830151573916251,,
,2283.0,568.0,1775.0,674.0,1945.0,3169.0,1163.0,,,,-0.0280643334309975,-2.16796968140193,-0.0777981970295181,,-0.1726846977599315,,
,2283.0,570.0,1778.0,678.0,1963.0,3184.0,1178.0,,,,-0.0280242505465665,-2.16829412155181,-0.0787404835169326,,0.48781007400666004,,
,2283.0,566.0,1777.0,676.0,1960.0,3183.0,1181.0,,,,-0.0279186581828232,-2.16834947435537,-0.0779999660275542,,1.187238143088853,,
,2281.0,566.0,1778.0,674.0,1961.0,3177.0,1169.0,,,,-0.0279900730557147,-2.16751617935486,-0.0777498594492175,,1.9110038901170074,,
,2282.0,566.0,1777.0,675.0,1953.0,3146.0,1173.0,,,,-0.0280091227949929,-2.16761494702289,-0.0777576799227163,,2.64137819746585,,
,2284.0,568.0,1777.0,674.0,1955.0,3161.0,1172.0,,,,-0.0279448293633866,-2.16784910006882,-0.0776189008751293,,3.357985318296698,,
,2282.0,568.0,1778.0,675.0,1950.0,3170.0,1185.0,,,,-0.0281484377049946,-2.16788302344132,-0.0775446488096856,,4.038546967748193,,
,2283.0,567.0,1778.0,675.0,1948.0,3172.0,1188.0,,,,-0.0281422341074071,-2.16814416722646,-0.0776913442512306,,4.659861678182408,,
,2284.0,568.0,1779.0,677.0,1950.0,3176.0,1154.0,,,,-0.0280490576136747,-2.16786077975703,-0.0783141769901536,,5.198972883720506,,
,2283.0,567.0,1782.0,675.0,1950.0,3176.0,1155.0,,,,-0.028074563246765,-2.16783018941395,-0.0774172522166207,,5.634455549568846,,
,2284.0,568.0,1779.0,677.0,1953.0,3172.0,1166.0,,,,-0.0280082248527476,-2.16737778394937,-0.0769928838740785,,5.947730830858334,,
,2284.0,568.0,1780.0,677.0,1958.0,3170.0,1185.0,,,,-0.0279650679608452,-2.16707989359946,-0.0777553631631973,,6.124303804572391,,
,2284.0,568.0,1780.0,677.0,1956.0,3158.0,1183.0,,,,-0.0279750245457495,-2.16672035843955,-0.0764892714550373,,6.154813451043213,,
,2286.0,568.0,1782.0,676.0,1966.0,3172.0,1165.0,,,,-0.027924163171543,-2.16689191199816,-0.0768409333543524,,6.0357893567353855,,
,2285.0,569.0,1782.0,675.0,1956.0,3171.0,1167.0,,,,-0.0280265738865538,-2.16712707646748,-0.0764623087889552,,5.770028050017384,,
,2285.0,564.0,1782.0,678.0,1964.0,3166.0,1159.0,,,,-0.0278019923015111,-2.16696691557199,-0.0773125028859506,,5.36653393242911,,
,2286.0,568.0,1783.0,676.0,1971.0,3166.0,1157.0,,,,-0.0278960551189714,-2.16692801051686,-0.0768735217993783,,4.840013068707604,,
,2285.0,569.0,1783.0,679.0,1965.0,3176.0,1154.0,,,,-0.0279590273652651,-2.16717955044044,-0.0762020785334684,,4.209956584190245,,
,2286.0,569.0,1785.0,678.0,1955.0,3196.0,1183.0,,,,-0.0278648162466256,-2.16709976279946,-0.0765630922656941,,3.4993953851423516,,
,2285.0,568.0,1782.0,677.0,1956.0,3198.0,1188.0,,,,-0.0279349516069075,-2.16690179610669,-0.076973704030958,,2.733441197028225,,
,2284.0,567.0,1784.0,675.0,1960.0,3199.0,1167.0,,,,-0.0278512619281193,-2.16675405157654,-0.075540030818087,,1.937745965378466,,
,2287.0,570.0,1786.0,678.0,1958.0,3197.0,1176.0,,,,-0.0279407528494065,-2.16704259562065,-0.0746146867075175,,1.137012291838433,,
,2286.0,571.0,1786.0,679.0,1956.0,3184.0,1148.0,,,,-0.0278433494977813,-2.16700497720721,-0.0764238541822089,,0.35367441902775576,,
,2288.0,570.0,1785.0,679.0,1954.0,3179.0,1152.0,,,,-0.0278303930695542,-2.16682332694036,-0.0755689662829806,,-0.3931541169257251,,
,2289.0,569.0,1788.0,680.0,1951.0,3186.0,1168.0,,,,-0.0279231008099614,-2.16664882211175,-0.0763335185463872,,-1.0884002328388558,,
,2290.0,568.0,1787.0,679.0,1950.0,3168.0,1166.0,,,,-0.0277970530936946,-2.16686119075418,-0.0765798946495879,,-1.7213863079135563,,
,2289.0,572.0,1790.0,680.0,1953.0,3163.0,1172.0,,,,-0.0279056543042401,-2.1668879560458,-0.0757543681276245,,-2.285822660424537,,
,2290.0,571.0,1788.0,680.0,1967.0,3168.0,1186.0,,,,-0.0280426771526739,-2.1667585455701,-0.0761213445586496,,-2.7794715774964796,,
,2290.0,568.0,1789.0,677.0,1986.0,3183.0,1184.0,,,,-0.0279352581430287,-2.16661941150193,-0.0763063915072964,,-3.203543655170427,,
,2290.0,569.0,1790.0,678.0,1964.0,3183.0,1168.0,,,,-0.0279792381956752,-2.1665198705861,-0.0755857656773805,,-3.5619064482271225,,
,2291.0,568.0,1789.0,679.0,1949.0,3175.0,1161.0,,,,-0.0279501593977536,-2.16637393151864,-0.0751735675331292,,-3.8601958020487075,,
,2292.0,571.0,1789.0,679.0,1944.0,3175.0,1177.0,,,,-0.0279164265853941,-2.1662176969914,-0.0750405421266031,,-4.1049212111013285,,
,2290.0,571.0,1790.0,681.0,1963.0,3195.0,1177.0,,,,-0.0278068719784358,-2.16649424993091,-0.0751048923819123,,-4.302648460237717,,
,2290.0,570.0,1793.0,682.0,1966.0,3178.0,1172.0,,,,-0.0278198983290714,-2.16616505271036,-0.0755092860485523,,-4.459326727073819,,
,2291.0,570.0,1790.0,679.0,1951.0,3171.0,1195.0,,,,-0.0278550211784238,-2.16610381854172,-0.0745992678073379,,-4.579805068252466,,
,2292.0,571.0,1794.0,682.0,1952.0,3180.0,1185.0,,,,-0.0277921602994112,-2.16629939302479,-0.0738233768554682,,-4.667557569958918,,
,2292.0,571.0,1793.0,682.0,1956.0,3178.0,1178.0,,,,-0.0277619748178347,-2.16625326623703,-0.0747638443632569,,-4.724611130127924,,
,2293.0,570.0,1791.0,678.0,1970.0,3180.0,1165.0,,,,-0.0278105984429269,-2.1657770464936,-0.0741630397183926,,-4.751648563636602,,
,2294.0,574.0,1796.0,682.0,1964.0,3164.0,1170.0,,,,-0.0277153631696803,-2.16602770972032,-0.0733850672119685,,-4.748244825894769,,
,2295.0,571.0,1794.0,682.0,1971.0,3166.0,1152.0,,,,-0.0277335355422748,-2.16614298307477,-0.0743795663420383,,-4.713186118728206,,
,2294.0,573.0,1796.0,684.0,1966.0,3163.0,1167.0,,,,-0.0277326798836412,-2.16604750570746,-0.073781472965473,,-4.644819852808524,,
,2294.0,570.0,1795.0,679.0,1956.0,3152.0,1166.0,,,,-0.0277041965481786,-2.16585561631743,-0.0735391749249495,,-4.541387151682321,,
,2295.0,570.0,1796.0,683.0,1961.0,3168.0,1159.0,,,,-0.0276229578918625,-2.16594203603608,-0.0734681016868018,,-4.401298172224508,,
,2296.0,574.0,1797.0,684.0,1970.0,3173.0,1159.0,,,,-0.0277906793637495,-2.1657771604261,-0.0732528230036099,,-4.223323077686693,,
,2297.0,572.0,1797.0,683.0,1957.0,3181.0,1160.0,,,,-0.027707172354524,-2.16550225813807,-0.0741390313640898,,-4.006686514372201,,
,2294.0,573.0,1798.0,684.0,1955.0,3180.0,1178.0,,,,-0.0275877970767538,-2.1652146944179,-0.0727782951615482,,-3.751068989630956,,
,2296.0,575.0,1799.0,682.0,1966.0,3175.0,1162.0,,,,-0.0275295222592989,-2.16566135384292,-0.0743635232444781,,-3.456532825882709,,
,2296.0,574.0,1799.0,685.0,1973.0,3173.0,1183.0,,,,-0.0275332825812589,-2.16558528997074,-0.0743498950926759,,-3.1234019792502976,,
,2296.0,572.0,1798.0,684.0,1961.0,3174.0,1183.0,,,,-0.0276297889520704,-2.16551968321764,-0.0730572309384152,,-2.7521328391334583,,
,2296.0,572.0,1798.0,685.0,1961.0,3174.0,1195.0,,,,-0.0275274494521703,-2.16611298337528,-0.0741921584719775,,-2.3432161148752226,,
2025-07-17 19:07:27,2297.0,572.0,1800.0,683.0,1977.0,3173.0,1169.0,,,2025/07/17 07:07:27 PM,-0.0277401568975446,-2.16649493402712,-0.0748529988023874,,-1.8971471861475673,,
,2297.0,575.0,1803.0,687.0,1969.0,3186.0,1143.0,,,,-0.0278676978113294,-2.16682054465807,-0.0749568549763571,,-1.414493483950802,,
,2299.0,573.0,1803.0,684.0,1957.0,3176.0,1163.0,,,,-0.0279440436880016,-2.16683174324886,-0.0754463126729268,,-0.8960731208008842,,
,2297.0,573.0,1803.0,687.0,1961.0,3162.0,1140.0,,,,-0.0280177136201543,-2.16675304526532,-0.0748292469738787,,-0.3432408194309988,,
,2299.0,571.0,1802.0,687.0,1977.0,3194.0,1133.0,,,,-0.0279362148241829,-2.1672607098914,-0.0741159238661255,,0.24174196554333802,,
,2300.0,571.0,1801.0,687.0,1977.0,3191.0,1167.0,,,,-0.0279772289946225,-2.16690904347105,-0.075494175113725,,0.8552926701943,,
,2300.0,573.0,1803.0,686.0,1976.0,3200.0,1174.0,,,,-0.0280090193929349,-2.1673831026303,-0.0742921135756662,,1.4921006834638517,,
,2302.0,574.0,1804.0,686.0,1973.0,3189.0,1161.0,,,,-0.0280354234745998,-2.16751827500061,-0.0747314684420445,,2.1447848054028404,,
,2300.0,572.0,1803.0,684.0,1956.0,3165.0,1150.0,,,,-0.0279610395800756,-2.16726772434495,-0.0739167232641882,,2.803670717081564,,
,2297.0,574.0,1801.0,683.0,1947.0,3147.0,1182.0,,,,-0.02801472495817,-2.16688642986215,-0.075268766950872,,3.456736701751885,,
,2299.0,574.0,1802.0,686.0,1949.0,3151.0,1181.0,,,,-0.0279977784103176,-2.16666041977528,-0.0744827330219946,,4.0897631684821505,,
,2299.0,573.0,1800.0,683.0,1950.0,3152.0,1179.0,,,,-0.0278945327054162,-2.16639679802808,-0.0738203228885994,,4.686704519337267,,
,2297.0,572.0,1800.0,684.0,1965.0,3163.0,1171.0,,,,-0.0279078222449972,-2.16690361679339,-0.0745966596392022,,5.230282045365515,,
,2297.0,571.0,1798.0,683.0,1952.0,3155.0,1182.0,,,,-0.0277917791912995,-2.16657778797405,-0.072829006033252,,5.702775496066238,,
,2297.0,573.0,1799.0,684.0,1946.0,3165.0,1166.0,,,,-0.0277423593886826,-2.16596535884475,-0.0724810987482317,,6.086970110538309,,
,2297.0,574.0,1798.0,683.0,1952.0,3168.0,1145.0,,,,-0.0276482007000732,-2.16583674930245,-0.0726157373703398,,6.367196358361487,,
,2294.0,570.0,1796.0,684.0,1943.0,3174.0,1165.0,,,,-0.0276310448945492,-2.16582125338534,-0.0716219950927044,,6.530382878544569,,
,2293.0,571.0,1795.0,682.0,1959.0,3183.0,1179.0,,,,-0.0276307363788776,-2.16559898215659,-0.071615375246476,,6.567031336467152,,
,2295.0,571.0,1794.0,685.0,1950.0,3191.0,1173.0,,,,-0.0275311698369308,-2.16489029733878,-0.0706595545522691,,6.47201792682821,,
,2295.0,571.0,1797.0,683.0,1951.0,3192.0,1161.0,,,,-0.0274415924946144,-2.16477739824557,-0.0718267190628539,,6.245132787906905,,
,2295.0,572.0,1797.0,683.0,1958.0,3192.0,1162.0,,,,-0.0274043897780406,-2.1641817171347,-0.0702795246653864,,5.8912875111629335,,
,2293.0,569.0,1793.0,680.0,1961.0,3185.0,1157.0,,,,-0.0274663414081832,-2.16447590738898,-0.0692966805141182,,5.4203519914946625,,
,2295.0,570.0,1795.0,683.0,1976.0,3198.0,1160.0,,,,-0.0274962860507881,-2.16411158863452,-0.069984037000695,,4.846621714099192,,
,2293.0,571.0,1796.0,684.0,1960.0,3193.0,1151.0,,,,-0.0272776215899708,-2.16436912872627,-0.0695970192859118,,4.187958996324002,,
,2294.0,572.0,1794.0,681.0,1975.0,3193.0,1145.0,,,,-0.0273091952447529,-2.16419029341952,-0.0689631750837177,,3.464689356503817,,
,2293.0,569.0,1794.0,680.0,1981.0,3195.0,1151.0,,,,-0.0271957294871723,-2.16356434591685,-0.0689205785079844,,2.6983606643204476,,
,2294.0,570.0,1796.0,682.0,1973.0,3186.0,1143.0,,,,-0.0272540397181826,-2.16311013859107,-0.0686710207291997,,1.9104839740682273,,
,2293.0,571.0,1794.0,684.0,1972.0,3189.0,1145.0,,,,-0.0271418188983273,-2.1630446491858,-0.0673559434133535,,1.1213699765237937,,
,2296.0,570.0,1796.0,683.0,1975.0,3177.0,1149.0,,,,-0.0270899266496368,-2.16271348471425,-0.068421348200872,,0.34915605450065074,,
,2293.0,568.0,1792.0,680.0,1953.0,3164.0,1151.0,,,,-0.0268985894590301,-2.1621892883052,-0.0659626055694229,,-0.3909093814586396,,
,2291.0,569.0,1795.0,681.0,1956.0,3176.0,1160.0,,,,-0.0268265461429162,-2.16207805840791,-0.0664481091664153,,-1.0868907584157317,,
,2295.0,571.0,1797.0,684.0,1953.0,3185.0,1146.0,,,,-0.0267916507976691,-2.16194173590635,-0.0654049763300512,,-1.7302940246948573,,
,2294.0,569.0,1793.0,684.0,1961.0,3195.0,1166.0,,,,-0.0267451542697647,-2.16149100568726,-0.0650742770843361,,-2.315923593932315,,
,2294.0,571.0,1797.0,682.0,1956.0,3180.0,1161.0,,,,-0.0265415190213659,-2.16135323019685,-0.0639677252990639,,-2.8415119144754897,,
,2295.0,568.0,1792.0,681.0,1958.0,3174.0,1183.0,,,,-0.0264377411810481,-2.161123924563,-0.0637824446214378,,-3.3071805990407808,,
,2293.0,569.0,1794.0,684.0,1955.0,3166.0,1181.0,,,,-0.0263899601387285,-2.16065544414796,-0.0634856542061741,,-3.714800230410252,,
,2293.0,571.0,1796.0,684.0,1943.0,3152.0,1193.0,,,,-0.026367553303819,-2.16017916282605,-0.0622854888243502,,-4.067317743030914,,
,2294.0,570.0,1796.0,682.0,1956.0,3161.0,1182.0,,,,-0.026327199318908,-2.15990573775036,-0.0615126379851043,,-4.368115741999115,,
,2291.0,567.0,1796.0,682.0,1944.0,3154.0,1190.0,,,,-0.0263814805552689,-2.15944617300663,-0.060222763617394,,-4.6204577326352085,,
,2295.0,570.0,1795.0,683.0,1944.0,3151.0,1188.0,,,,-0.0261529258130486,-2.15930233274112,-0.0608116106273453,,-4.827058274634676,,
,2293.0,570.0,1796.0,685.0,1944.0,3169.0,1176.0,,,,-0.0261481490411463,-2.15898516727748,-0.0587451940486765,,-4.989799819460767,,
,2292.0,570.0,1796.0,684.0,1950.0,3163.0,1171.0,,,,-0.0259611771207726,-2.15850480059212,-0.0583688787428054,,-5.109601208378066,,
,2293.0,569.0,1794.0,681.0,1946.0,3172.0,1167.0,,,,-0.0259395505898665,-2.15814283702008,-0.0578379688625285,,-5.186428646426641,,
,2292.0,569.0,1797.0,684.0,1946.0,3175.0,1166.0,,,,-0.0258098595898472,-2.1577671581868,-0.0561461145713961,,-5.2194291392542205,,
,2293.0,572.0,1797.0,684.0,1964.0,3186.0,1169.0,,,,-0.0257865372930808,-2.15725919095265,-0.0551604427652413,,-5.207158465357525,,
,2294.0,569.0,1795.0,684.0,1960.0,3185.0,1175.0,,,,-0.0257477457772173,-2.15662582813181,-0.0553310011651431,,-5.147870216692589,,
,2292.0,568.0,1795.0,681.0,1953.0,3170.0,1173.0,,,,-0.0256587636078865,-2.15640914938621,-0.0544262197235652,,-5.039829302590084,,
,2295.0,568.0,1796.0,682.0,1968.0,3180.0,1165.0,,,,-0.0254695096447867,-2.15638255352662,-0.0554824746403304,,-4.8816130508482285,,
,2292.0,568.0,1797.0,682.0,1954.0,3191.0,1170.0,,,,-0.0255106344965929,-2.15577851887091,-0.0536954629074273,,-4.672366069700728,,
,2294.0,568.0,1799.0,683.0,1945.0,3173.0,1173.0,,,,-0.0253175356853492,-2.15544990730595,-0.0534282067742896,,-4.411981412395122,,
,2293.0,571.0,1799.0,682.0,1954.0,3155.0,1199.0,,,,-0.0253433096869664,-2.15519342172708,-0.0526152096988618,,-4.101190079278814,,
,2294.0,568.0,1798.0,681.0,1961.0,3184.0,1166.0,,,,-0.0252462727705084,-2.15456499622553,-0.0536620225706176,,-3.7415530617968806,,
,2293.0,570.0,1797.0,683.0,1960.0,3175.0,1161.0,,,,-0.0252655865690848,-2.15450107059994,-0.0518325851604106,,-3.3353641046108318,,
,2294.0,568.0,1798.0,681.0,1949.0,3161.0,1169.0,,,,-0.0251805661251029,-2.15419929710456,-0.0520423874802409,,-2.885485443184286,,
,2293.0,566.0,1797.0,685.0,1949.0,3161.0,1169.0,,,,-0.0250067982371561,-2.15391775383796,-0.0510251069587027,,-2.395150452232339,,
,2294.0,569.0,1799.0,681.0,1947.0,3166.0,1173.0,,,,-0.0248480378413899,-2.15294885666474,-0.0489565744926837,,-1.8677737257910436,,
,2293.0,568.0,1798.0,683.0,1950.0,3164.0,1166.0,,,,-0.0247096126161239,-2.1525715803128,-0.0494387792596762,,-1.3068086905038838,,
,2292.0,571.0,1801.0,684.0,1951.0,3168.0,1162.0,,,,-0.0247199656529018,-2.15204563405567,-0.0477096930498345,,-0.7156850923427642,,
,2293.0,569.0,1799.0,682.0,1955.0,3174.0,1180.0,,,,-0.0246273312890952,-2.15134490883836,-0.04727067556791,,-0.09784517558135133,,
,2292.0,568.0,1798.0,683.0,1972.0,3197.0,1167.0,,,,-0.024642497280761,-2.15142358134713,-0.046050422791148,,0.5431188314000371,,
,2293.0,570.0,1800.0,684.0,1966.0,3184.0,1172.0,,,,-0.0244265571358564,-2.15099592066364,-0.0464574760443436,,1.2032389130945862,,
,2292.0,570.0,1799.0,683.0,1947.0,3175.0,1174.0,,,,-0.024316670268039,-2.15065814647649,-0.0460717061024735,,1.8778830209254795,,
,2294.0,570.0,1799.0,686.0,1955.0,3169.0,1171.0,,,,-0.0242898023215119,-2.14987070842975,-0.0449490826721061,,2.561439791906438,,
,2293.0,569.0,1800.0,683.0,1961.0,3183.0,1197.0,,,,-0.0243016220394468,-2.14870414418458,-0.0450341356930406,,3.2470179038669924,,
,2295.0,567.0,1801.0,682.0,1963.0,3186.0,1174.0,,,,-0.024295243837841,-2.14858488067953,-0.0421427336545052,,3.9262046802052053,,
,2296.0,571.0,1801.0,686.0,1958.0,3178.0,1167.0,,,,-0.0241478546777191,-2.14827195735522,-0.0426608267198262,,4.58892776481488,,
,2296.0,571.0,1802.0,684.0,1957.0,3172.0,1165.0,,,,-0.0241966439828846,-2.14778123871014,-0.0416939871828825,,5.223458643849219,,
,2296.0,569.0,1802.0,684.0,1956.0,3179.0,1174.0,,,,-0.0240706072978169,-2.14709430512683,-0.041375744978283,,5.816587140084524,,
,2293.0,568.0,1800.0,683.0,1962.0,3192.0,1171.0,,,,-0.0240205118685189,-2.14690876093938,-0.0409847659179208,,6.353981751551963,,
,2296.0,570.0,1802.0,684.0,1956.0,3200.0,1145.0,,,,-0.0238323256316113,-2.14574927096781,-0.0410881541867127,,6.820732497982,,
,2297.0,570.0,1802.0,685.0,1960.0,3188.0,1171.0,,,,-0.023695915871705,-2.14529869658324,-0.0395026858690364,,7.202052365583058,,
,2297.0,569.0,1804.0,684.0,1958.0,3197.0,1175.0,,,,-0.0236471808307513,-2.14530538405621,-0.0391443133360522,,7.484092958590733,,
,2295.0,568.0,1801.0,683.0,1960.0,3179.0,1178.0,,,,-0.0234763140047591,-2.14479929295248,-0.0385741484146368,,7.654812373210812,,
,2295.0,571.0,1802.0,685.0,1958.0,3169.0,1188.0,,,,-0.0235735287444097,-2.14440127081738,-0.0382522932267744,,7.704821172991755,,
,2298.0,571.0,1802.0,687.0,1946.0,3170.0,1162.0,,,,-0.0234148721292852,-2.14397662835216,-0.0380365469700118,,7.628127695622133,,
,2299.0,572.0,1805.0,687.0,1948.0,3168.0,1156.0,,,,-0.0232943059941976,-2.14352476518576,-0.0372218412809295,,7.422708043534251,,
,2295.0,571.0,1804.0,686.0,1972.0,3186.0,1172.0,,,,-0.0232546173444261,-2.1429853922203,-0.0363566623241359,,7.090839232547057,,
,2296.0,568.0,1806.0,686.0,1959.0,3174.0,1183.0,,,,-0.0232588554096263,-2.14285742619935,-0.0375495901565482,,6.639155146864027,,
,2301.0,571.0,1807.0,687.0,1947.0,3165.0,1192.0,,,,-0.0231910000454862,-2.14238665331936,-0.0362984862213824,,6.078412211016271,,
,2299.0,570.0,1808.0,686.0,1949.0,3161.0,1192.0,,,,-0.0231234358669742,-2.14235865405019,-0.0370787739174366,,5.422982003193942,,
,2296.0,571.0,1808.0,687.0,1957.0,3171.0,1180.0,,,,-0.0230235653652298,-2.14196620216075,-0.0355069538950673,,4.690117099009566,,
,2298.0,571.0,1807.0,686.0,1965.0,3175.0,1186.0,,,,-0.0229727257133083,-2.1417423703282,-0.0355122352188693,,3.8990592804608166,,
,2298.0,573.0,1808.0,688.0,1961.0,3177.0,1178.0,,,,-0.0229134319297415,-2.14189435211028,-0.0335417906573386,,3.0700718021706375,,
,2298.0,572.0,1808.0,686.0,1966.0,3193.0,1176.0,,,,-0.0229401862823811,-2.14096772461415,-0.0341212197339796,,2.2234779948493286,,
,2299.0,571.0,1807.0,689.0,1963.0,3191.0,1190.0,,,,-0.0229489482707949,-2.14141561305417,-0.0332511610902822,,1.378778226395038,,
,2298.0,571.0,1807.0,687.0,1950.0,3189.0,1192.0,,,,-0.0228659398577886,-2.14082910077291,-0.0342252952747904,,0.5538993386695715,,
,2297.0,572.0,1809.0,688.0,1957.0,3185.0,1159.0,,,,-0.0228777007655796,-2.14040129732734,-0.0339531216841307,,-0.23539081129087377,,
,2300.0,573.0,1812.0,687.0,1959.0,3177.0,1162.0,,,,-0.0228379321463973,-2.14037305887997,-0.0332876521733985,,-0.975892298994773,,
,2299.0,571.0,1809.0,688.0,1950.0,3181.0,1179.0,,,,-0.0227134271789893,-2.1396451061061,-0.0318518212794659,,-1.6572120607082121,,
,2299.0,571.0,1810.0,687.0,1947.0,3157.0,1169.0,,,,-0.0226420311418956,-2.13927448739469,-0.0325004689231707,,-2.2718518661575344,,
,2300.0,571.0,1812.0,690.0,1953.0,3163.0,1150.0,,,,-0.0225156447675319,-2.13901696779037,-0.0315709876755208,,-2.8151707832949167,,
,2299.0,573.0,1810.0,687.0,1947.0,3174.0,1164.0,,,,-0.0224655514858529,-2.13872691704929,-0.0322833350764093,,-3.285248009246372,,
,2301.0,574.0,1811.0,690.0,1942.0,3174.0,1169.0,,,,-0.0223842889130265,-2.13854205163151,-0.0306047671077829,,-3.682667650189301,,
,2301.0,573.0,1811.0,688.0,1953.0,3171.0,1144.0,,,,-0.0223861830562925,-2.13783566465172,-0.0306145944838572,,-4.010240205088512,,
,2301.0,573.0,1811.0,687.0,1961.0,3176.0,1168.0,,,,-0.0222879188226422,-2.13821679385899,-0.0303469656243946,,-4.272668941545239,,
,2302.0,575.0,1812.0,689.0,1949.0,3184.0,1168.0,,,,-0.0222867668778669,-2.13837940039172,-0.029642573556335,,-4.476165529977833,,
,2302.0,574.0,1814.0,690.0,1958.0,3185.0,1150.0,,,,-0.0222665872374614,-2.13780650256381,-0.0295834539906529,,-4.628019309263293,,
,2304.0,573.0,1812.0,690.0,1954.0,3188.0,1145.0,,,,-0.0221618506438557,-2.1374296114462,-0.0298303066328938,,-4.7361278289785975,,
,2301.0,573.0,1813.0,687.0,1950.0,3181.0,1168.0,,,,-0.0222637707923236,-2.13718739640222,-0.0295203065674876,,-4.8085014206547045,,
,2301.0,575.0,1814.0,690.0,1959.0,3171.0,1172.0,,,,-0.0222485860518453,-2.13778630036995,-0.0294813762527794,,-4.852760149182589,,
,2303.0,573.0,1817.0,691.0,1982.0,3188.0,1193.0,,,,-0.0223373406623508,-2.13709207012348,-0.0298614992337505,,-4.875646670620389,,
,2302.0,572.0,1817.0,691.0,1976.0,3187.0,1192.0,,,,-0.022245472834871,-2.1370616010897,-0.0302849528224993,,-4.88258256559011,,
,2303.0,573.0,1815.0,689.0,1960.0,3186.0,1161.0,,,,-0.0222315037824628,-2.13751050809751,-0.029803248409886,,-4.877297866421343,,
,2302.0,572.0,1815.0,689.0,1945.0,3167.0,1175.0,,,,-0.02225384060198,-2.13727818595515,-0.0302659021103563,,-4.861562985993521,,
,2306.0,575.0,1818.0,692.0,1947.0,3167.0,1179.0,,,,-0.0221828932244157,-2.13744065567848,-0.0303119104343186,,-4.8350485766973605,,
,2302.0,574.0,1817.0,689.0,1940.0,3160.0,1185.0,,,,-0.0220970870678852,-2.13733592902333,-0.02944097938009,,-4.795331924340303,,
,2305.0,576.0,1816.0,690.0,1954.0,3187.0,1174.0,,,,-0.0220667581192216,-2.13649375574037,-0.0294686176562086,,-4.7380586745696665,,
,2303.0,574.0,1819.0,691.0,1949.0,3170.0,1168.0,,,,-0.0220742122147171,-2.13634673468329,-0.0286350845904707,,-4.657256714200651,,
,2306.0,574.0,1819.0,691.0,1947.0,3157.0,1168.0,,,,-0.022246198857167,-2.13672300735,-0.0291061969168155,,-4.545785871457589,,
,2305.0,573.0,1819.0,693.0,1945.0,3165.0,1155.0,,,,-0.0221432338850859,-2.13686520421337,-0.0294539482564295,,-4.3958939317999635,,
,2306.0,573.0,1822.0,692.0,1953.0,3179.0,1182.0,,,,-0.0222383148870522,-2.13715333475557,-0.029474204457623,,-4.199837713209644,,
,2303.0,575.0,1818.0,689.0,1954.0,3179.0,1177.0,,,,-0.0221894248051991,-2.13720697974142,-0.0289048312666491,,-3.950519516218276,,
,2306.0,576.0,1820.0,694.0,1959.0,3182.0,1182.0,,,,-0.0222924893966035,-2.1371593699407,-0.0296336624890725,,-3.642086450831213,,
,2308.0,576.0,1824.0,694.0,1953.0,3167.0,1168.0,,,,-0.0222326456532796,-2.13746525589616,-0.028805450025878,,-3.2704446354182717,,
,2309.0,578.0,1820.0,694.0,1963.0,3166.0,1170.0,,,,-0.0222298525573138,-2.13735145127578,-0.0297049439664919,,-2.833651868421054,,
,2305.0,574.0,1820.0,692.0,1970.0,3182.0,1185.0,,,,-0.022296211539527,-2.13761077822896,-0.0290369847924402,,-2.33216870486578,,
,2305.0,574.0,1821.0,695.0,1960.0,3195.0,1176.0,,,,-0.0222761909301442,-2.13778913653103,-0.0286003147175681,,-1.7689653632559512,,
,2308.0,577.0,1823.0,693.0,1954.0,3188.0,1187.0,,,,-0.0222600221734353,-2.13790317953622,-0.029553283759726,,-1.1494972420519731,,
,2307.0,573.0,1821.0,692.0,1955.0,3179.0,1180.0,,,,-0.0221367206883258,-2.13786612101015,-0.0291410607553665,,-0.4815728099300035,,
,2304.0,573.0,1817.0,690.0,1953.0,3151.0,1192.0,,,,-0.0222465919367306,-2.13747345038609,-0.0292438315126124,,0.22485689801099604,,
,2304.0,575.0,1818.0,692.0,1945.0,3151.0,1162.0,,,,-0.0222915027757652,-2.13797078429957,-0.0288030390739922,,0.9579582890641399,,
,2305.0,575.0,1816.0,690.0,1942.0,3159.0,1166.0,,,,-0.0223299581265214,-2.13812565024461,-0.0295725356227327,,1.7043014308830342,,
,2304.0,573.0,1816.0,687.0,1944.0,3163.0,1186.0,,,,-0.0223038154770746,-2.13792898521809,-0.0289125739034575,,2.4491585681132753,,
,2301.0,573.0,1813.0,688.0,1938.0,3163.0,1207.0,,,,-0.022280622926087,-2.13809668377147,-0.0297210148461485,,3.176812117512615,,
,2302.0,571.0,1811.0,690.0,1935.0,3158.0,1191.0,,,,-0.0221903551048663,-2.13794469213632,-0.0292414441736575,,3.8708798605234103,,
,2299.0,570.0,1815.0,686.0,1951.0,3165.0,1190.0,,,,-0.0220939403889849,-2.13793292112328,-0.0282548590999699,,4.514672946155745,,
,2300.0,571.0,1813.0,689.0,1946.0,3152.0,1218.0,,,,-0.0221440197747219,-2.13790587326406,-0.0282577958647134,,5.091605826528976,,
,2301.0,570.0,1812.0,688.0,1943.0,3153.0,1219.0,,,,-0.0222208776545493,-2.13734269040219,-0.0281191858010276,,5.585675145665576,,
2025-07-17 19:07:28,2299.0,572.0,1809.0,687.0,1945.0,3171.0,1204.0,,,2025/07/17 07:07:28 PM,-0.0221863719035975,-2.13654840871217,-0.0282681522977221,,5.98201621428508,,
,2299.0,571.0,1810.0,689.0,1952.0,3178.0,1188.0,,,,-0.0221544431269153,-2.13705052020867,-0.0273817966083548,,6.267531010982934,,
,2299.0,570.0,1809.0,689.0,1937.0,3175.0,1176.0,,,,-0.0221163556276625,-2.13716784041577,-0.0284799382794705,,6.431561957801728,,
,2301.0,570.0,1810.0,687.0,1936.0,3171.0,1169.0,,,,-0.0220063925003993,-2.13727114547123,-0.0284535552120162,,6.466564525270337,,
,2298.0,571.0,1809.0,685.0,1948.0,3163.0,1175.0,,,,-0.0220164170448041,-2.13726846654809,-0.0287235974891068,,6.368714421206982,,
,2298.0,569.0,1807.0,686.0,1954.0,3179.0,1165.0,,,,-0.0220386954080192,-2.137285339138,-0.0285571520846631,,6.138377079622404,,
,2298.0,572.0,1809.0,687.0,1949.0,3181.0,1181.0,,,,-0.0220657258436186,-2.13722695974725,-0.0277680725504479,,5.780371568876142,,
,2298.0,569.0,1808.0,689.0,1947.0,3186.0,1190.0,,,,-0.0219415455061869,-2.13705864775786,-0.0271748890772617,,5.303977826406396,,
,2300.0,571.0,1807.0,683.0,1957.0,3204.0,1166.0,,,,-0.0218492219795487,-2.13647414439167,-0.027707994710552,,4.72266225842196,,
,2297.0,570.0,1806.0,686.0,1960.0,3193.0,1187.0,,,,-0.0219526871571943,-2.1360581024481,-0.0266646239100788,,4.053527259710981,,
,2299.0,569.0,1807.0,687.0,1961.0,3186.0,1175.0,,,,-0.0217472708777345,-2.13569210070084,-0.0267577095840137,,3.3165196607462044,,
,2299.0,571.0,1808.0,688.0,1960.0,3189.0,1196.0,,,,-0.0217268247786059,-2.1354714197238,-0.027137638009707,,2.533456873614993,,
,2300.0,569.0,1806.0,687.0,1959.0,3186.0,1191.0,,,,-0.0217275215188807,-2.13567307264571,-0.0262160779637076,,1.72694469426011,,
,2296.0,568.0,1807.0,683.0,1948.0,3175.0,1191.0,,,,-0.0216286597623303,-2.13561364426227,-0.0262052493112068,,0.9192665290145555,,
,2297.0,569.0,1807.0,687.0,1960.0,3179.0,1187.0,,,,-0.0216245771874133,-2.13519316651367,-0.0254011969215606,,0.13132130292099886,,
,2298.0,570.0,1808.0,686.0,1939.0,3161.0,1191.0,,,,-0.0217025886994824,-2.13500891777905,-0.0261162685546988,,-0.618321369203513,,
,2297.0,569.0,1806.0,686.0,1938.0,3166.0,1200.0,,,,-0.0216118183551995,-2.13461937258193,-0.0264129111674721,,-1.3141926170435,,
,2295.0,568.0,1804.0,685.0,1947.0,3179.0,1200.0,,,,-0.0216083802027176,-2.13462688169394,-0.0248667296392083,,-1.9444804446440875,,
,2296.0,568.0,1808.0,683.0,1946.0,3177.0,1200.0,,,,-0.0215032952777475,-2.13478095847674,-0.0261697477494923,,-2.501343453119625,,
,2296.0,570.0,1808.0,686.0,1951.0,3174.0,1217.0,,,,-0.0214792709040917,-2.13441630633479,-0.0252166123983809,,-2.9809701871423586,,
,2298.0,569.0,1807.0,687.0,1948.0,3166.0,1209.0,,,,-0.0215023787884947,-2.13443011456448,-0.0248279723234354,,-3.383387778400047,,
,2298.0,568.0,1803.0,685.0,1937.0,3174.0,1181.0,,,,-0.0214548848848286,-2.13422294550512,-0.0248899352579223,,-3.7120394605758182,,
,2295.0,566.0,1808.0,685.0,1933.0,3165.0,1169.0,,,,-0.0214308492615441,-2.1343776716936,-0.0253430643611798,,-3.973165611074386,,
,2297.0,570.0,1808.0,685.0,1938.0,3156.0,1188.0,,,,-0.0214113628788166,-2.13360059024034,-0.0251636330278598,,-4.175035763887747,,
,2298.0,569.0,1807.0,687.0,1947.0,3176.0,1196.0,,,,-0.0213848360799313,-2.13353976355099,-0.0248369983179457,,-4.327088372323062,,
,2300.0,570.0,1807.0,685.0,1950.0,3180.0,1186.0,,,,-0.0213896034216856,-2.13362235972124,-0.0257269023264865,,-4.439040421628956,,
,2296.0,566.0,1805.0,684.0,1944.0,3175.0,1206.0,,,,-0.021445549388469,-2.13339602139637,-0.0250112647554534,,-4.520030183755835,,
,2296.0,569.0,1806.0,685.0,1945.0,3184.0,1201.0,,,,-0.0215025150393906,-2.13431964760454,-0.0246695538526864,,-4.577853522969429,,
,2298.0,568.0,1807.0,686.0,1945.0,3186.0,1198.0,,,,-0.0214846464264246,-2.13433964326932,-0.0250543825195593,,-4.618347332174503,,
,2298.0,567.0,1805.0,685.0,1936.0,3188.0,1200.0,,,,-0.0213278510583474,-2.13368581968633,-0.0248619744474116,,-4.644963180912837,,
,2298.0,567.0,1806.0,686.0,1935.0,3196.0,1193.0,,,,-0.0212927784153126,-2.13331736215317,-0.0248482479007829,,-4.658560569325063,,
,2296.0,568.0,1807.0,686.0,1938.0,3169.0,1199.0,,,,-0.0211869982554145,-2.13287032455792,-0.0246493158399358,,-4.65743299967454,,
,2295.0,567.0,1805.0,686.0,1953.0,3155.0,1192.0,,,,-0.0210314605698472,-2.13267926281157,-0.0240487417616577,,-4.637562266790673,,
,2297.0,569.0,1806.0,687.0,1957.0,3152.0,1193.0,,,,-0.0210029482338892,-2.13191742402155,-0.0235497069398472,,-4.59307791115182,,
,2295.0,567.0,1804.0,683.0,1952.0,3154.0,1197.0,,,,-0.0208138007387034,-2.13158289351092,-0.0232789455825092,,-4.516880723306612,,
,2295.0,567.0,1804.0,685.0,1946.0,3157.0,1212.0,,,,-0.0208288224206045,-2.13176414719543,-0.0233873724621398,,-4.401372790159685,,
,2296.0,567.0,1807.0,686.0,1936.0,3173.0,1186.0,,,,-0.0208996919447927,-2.1313528177553,-0.0240855119812168,,-4.239223707277165,,
,2296.0,568.0,1805.0,684.0,1941.0,3183.0,1184.0,,,,-0.0208567894733028,-2.1319187778556,-0.0223502748105113,,-4.024096092435182,,
,2296.0,570.0,1807.0,685.0,1955.0,3173.0,1185.0,,,,-0.0208080699286111,-2.13118841193751,-0.0216686517810607,,-3.751256636796919,,
,2295.0,565.0,1805.0,683.0,1948.0,3167.0,1179.0,,,,-0.0206643696558248,-2.13031986336104,-0.0222038762835163,,-3.4180133823667,,
,2298.0,569.0,1805.0,685.0,1958.0,3176.0,1178.0,,,,-0.0206667557460707,-2.13061561327984,-0.0212889144697681,,-3.02394433736275,,
,2297.0,565.0,1806.0,684.0,1949.0,3156.0,1209.0,,,,-0.0207120825950504,-2.12994411918266,-0.0220439762373099,,-2.570912434194723,,
,2295.0,569.0,1805.0,685.0,1946.0,3160.0,1195.0,,,,-0.0206928525904567,-2.1302829131004,-0.0228212621257841,,-2.062891254686454,,
,2294.0,565.0,1806.0,684.0,1945.0,3166.0,1192.0,,,,-0.0206780784226598,-2.12977245986617,-0.0222392243711121,,-1.5056495357808777,,
,2296.0,566.0,1805.0,686.0,1936.0,3153.0,1187.0,,,,-0.0204341563963639,-2.12965145153896,-0.0219405132200556,,-0.9063567648965494,,
,2297.0,567.0,1805.0,685.0,1948.0,3157.0,1175.0,,,,-0.020505871266724,-2.12962116568648,-0.0214373833773198,,-0.2731759545073406,,
,2295.0,568.0,1805.0,685.0,1946.0,3162.0,1173.0,,,,-0.0205287324475024,-2.12917364150383,-0.0219094859458618,,0.3850963989976155,,
,2293.0,566.0,1806.0,686.0,1952.0,3184.0,1179.0,,,,-0.0203033417040531,-2.12934333386321,-0.0207790776111979,,1.0592972533564087,,
,2296.0,568.0,1805.0,687.0,1948.0,3155.0,1198.0,,,,-0.020218405088928,-2.12914473355725,-0.0208999776129587,,1.7400445624338274,,
,2295.0,566.0,1806.0,686.0,1949.0,3160.0,1193.0,,,,-0.0202852100300451,-2.1290180196007,-0.0212538444211253,,2.417761642823357,,
,2297.0,570.0,1806.0,687.0,1951.0,3169.0,1194.0,,,,-0.0202124597474404,-2.12898805127285,-0.0205544303017964,,3.082597366500805,,
,2297.0,567.0,1806.0,687.0,1961.0,3189.0,1189.0,,,,-0.0203611524518019,-2.12849773659185,-0.0209446912156939,,3.7242817245484883,,
,2298.0,565.0,1805.0,687.0,1950.0,3175.0,1195.0,,,,-0.0202355507146793,-2.12866038707552,-0.0210223418896549,,4.331972145179215,,
,2297.0,566.0,1807.0,686.0,1941.0,3159.0,1192.0,,,,-0.02020425680341,-2.12835456849529,-0.0200710845376049,,4.894154488021358,,
,2297.0,568.0,1805.0,688.0,1939.0,3156.0,1196.0,,,,-0.0203328922122536,-2.12860375960283,-0.0201860872559393,,5.398661390775964,,
,2295.0,570.0,1807.0,687.0,1946.0,3161.0,1189.0,,,,-0.0201223824242732,-2.12837824059921,-0.02092813412472,,5.832858224695361,,
,2297.0,564.0,1807.0,686.0,1950.0,3164.0,1188.0,,,,-0.0202689175846154,-2.1286650156722,-0.0207522873334029,,6.184024170621229,,
,2297.0,568.0,1809.0,687.0,1945.0,3177.0,1203.0,,,,-0.0202498487134342,-2.12843894124179,-0.0207315392044695,,6.439926170242692,,
,2298.0,568.0,1807.0,684.0,1937.0,3183.0,1189.0,,,,-0.0201779692486248,-2.12863535983931,-0.0203365783587703,,6.589551533696111,,
,2297.0,568.0,1810.0,687.0,1944.0,3187.0,1179.0,,,,-0.0203219352961441,-2.1289215956187,-0.0209501631467714,,6.623935701795636,,
,2296.0,567.0,1806.0,686.0,1953.0,3185.0,1189.0,,,,-0.0203935480881974,-2.12852401493655,-0.0205776160955999,,6.536999315342814,,
,2296.0,567.0,1808.0,686.0,1953.0,3170.0,1187.0,,,,-0.0203425381561463,-2.12859128907437,-0.0215090646092467,,6.326296856372894,,
,2300.0,569.0,1811.0,690.0,1936.0,3164.0,1197.0,,,,-0.0203287158804235,-2.12768692726196,-0.0206838037911683,,5.993580416944993,,
,2301.0,571.0,1809.0,687.0,1944.0,3178.0,1205.0,,,,-0.0203073853965463,-2.12808911110439,-0.0205139988581206,,5.545097803154592,,
,2298.0,569.0,1811.0,687.0,1946.0,3185.0,1194.0,,,,-0.0204024527238351,-2.12829515403983,-0.0211051815674876,,4.99157265637052,,
,2297.0,567.0,1810.0,688.0,1934.0,3179.0,1193.0,,,,-0.0201826183499676,-2.1279483679128,-0.0206617248752846,,4.347850832475904,,
,2299.0,570.0,1811.0,690.0,1929.0,3162.0,1192.0,,,,-0.0203862915817535,-2.1285166876636,-0.0207296122211335,,3.6322351712987593,,
,2299.0,568.0,1813.0,689.0,1941.0,3167.0,1161.0,,,,-0.0203447835964496,-2.12812917386041,-0.0209209694722284,,2.865563538025897,,
,2299.0,570.0,1810.0,688.0,1939.0,3157.0,1165.0,,,,-0.0202917981500207,-2.12799200088628,-0.0199384070878355,,2.0701083166355017,,
,2299.0,568.0,1813.0,688.0,1938.0,3171.0,1184.0,,,,-0.0202382949785312,-2.12852765726976,-0.0208687321630323,,1.268387882619928,,
,2300.0,571.0,1812.0,686.0,1940.0,3168.0,1195.0,,,,-0.0203030017074883,-2.12860399133329,-0.0199887413440189,,0.48198288153066293,,
,2300.0,571.0,1814.0,690.0,1943.0,3172.0,1192.0,,,,-0.0201351036568538,-2.1285098935376,-0.0205084582276826,,-0.26955539385872423,,
,2301.0,569.0,1814.0,688.0,1944.0,3165.0,1183.0,,,,-0.0201505652937178,-2.12830279785604,-0.0190231501168199,,-0.969628465378052,,
,2299.0,569.0,1812.0,687.0,1943.0,3159.0,1181.0,,,,-0.0203884658433177,-2.12816179221666,-0.020078989096186,,-1.6052855925790535,,
,2302.0,571.0,1814.0,688.0,1948.0,3168.0,1201.0,,,,-0.0203069194835923,-2.12759546055919,-0.0194843191991072,,-2.167649160397461,,
,2300.0,569.0,1814.0,688.0,1943.0,3177.0,1220.0,,,,-0.0202984991480213,-2.12710295672011,-0.0196892164685244,,-2.6520513965345263,,
,2301.0,572.0,1814.0,687.0,1937.0,3170.0,1212.0,,,,-0.020300023207074,-2.12696078257785,-0.0191855466046455,,-3.0578856747178262,,
,2299.0,566.0,1814.0,687.0,1945.0,3170.0,1209.0,,,,-0.0202502748563623,-2.12701177905767,-0.0199997075995069,,-3.3881964196270786,,
,2302.0,570.0,1813.0,692.0,1941.0,3189.0,1213.0,,,,-0.0200887201079855,-2.12691288102258,-0.0194540483814633,,-3.6490490304521614,,
,2302.0,570.0,1817.0,689.0,1943.0,3185.0,1205.0,,,,-0.0199973729637401,-2.12696592446104,-0.0196264444360263,,-3.848734271719097,,
,2302.0,570.0,1815.0,689.0,1937.0,3172.0,1232.0,,,,-0.020037938356903,-2.127056015195,-0.0202986730210864,,-3.996869879780378,,
,2303.0,570.0,1813.0,687.0,1939.0,3175.0,1228.0,,,,-0.0200539692413255,-2.12761657805235,-0.0201702351832558,,-4.103465794880793,,
,2301.0,569.0,1815.0,689.0,1938.0,3181.0,1211.0,,,,-0.0201139482096065,-2.12711213019045,-0.0200031872799199,,-4.178018851247638,,
,2302.0,572.0,1818.0,691.0,1959.0,3190.0,1200.0,,,,-0.0203281587612489,-2.1277397854956,-0.0207386092378791,,-4.228698503839665,,
,2303.0,570.0,1816.0,687.0,1955.0,3181.0,1199.0,,,,-0.0204314680271833,-2.12772777802962,-0.0204765021719519,,-4.261677774635625,,
,2303.0,569.0,1816.0,689.0,1961.0,3184.0,1212.0,,,,-0.0204646579173985,-2.12791464980011,-0.0202674152211107,,-4.280653440645867,,
,2301.0,568.0,1816.0,688.0,1955.0,3192.0,1223.0,,,,-0.0205047107480826,-2.12827089475848,-0.0196711710280416,,-4.286586803842837,,
,2304.0,570.0,1820.0,690.0,1958.0,3199.0,1211.0,,,,-0.0204922621676078,-2.12843086883569,-0.0205974347478071,,-4.277681363298925,,
,2305.0,570.0,1818.0,694.0,1959.0,3201.0,1197.0,,,,-0.0205919811901845,-2.1288560917872,-0.0215795749968156,,-4.24959653322558,,
,2302.0,570.0,1821.0,690.0,1953.0,3187.0,1194.0,,,,-0.0207401379873811,-2.12903627523932,-0.022521720912267,,-4.195877630937815,,
,2304.0,570.0,1816.0,689.0,1955.0,3179.0,1184.0,,,,-0.0208678057517012,-2.12995230722342,-0.0226400420308807,,-4.108562926030164,,
,2306.0,570.0,1819.0,691.0,1941.0,3168.0,1191.0,,,,-0.021071523065242,-2.13088904392955,-0.0224826825000026,,-3.9789112292135203,,
,2306.0,572.0,1820.0,689.0,1946.0,3174.0,1205.0,,,,-0.0212167636563154,-2.1315962454874,-0.0235753072587358,,-3.798182076834552,,
,2305.0,572.0,1820.0,690.0,1953.0,3188.0,1211.0,,,,-0.0213633503598719,-2.13251703276476,-0.0246310598910371,,-3.558398403597242,,
,2304.0,571.0,1820.0,689.0,1954.0,3196.0,1175.0,,,,-0.0213658919568593,-2.13335441348842,-0.024642124352207,,-3.2530297680940357,,
,2304.0,571.0,1820.0,691.0,1949.0,3177.0,1174.0,,,,-0.0215368688946464,-2.13376850023254,-0.024690390340686,,-2.877550792690798,,
,2306.0,569.0,1821.0,693.0,1956.0,3167.0,1191.0,,,,-0.0215810182458349,-2.13436394360118,-0.025601783446446,,-2.429850506252274,,
,2307.0,575.0,1823.0,692.0,1947.0,3177.0,1203.0,,,,-0.0217069098815142,-2.13552530252741,-0.0264644446000031,,-1.9104891663863712,,
,2306.0,572.0,1822.0,691.0,1950.0,3180.0,1193.0,,,,-0.0217569127674756,-2.13607952870931,-0.0267395132759738,,-1.3228159049035633,,
,2307.0,571.0,1824.0,691.0,1953.0,3184.0,1202.0,,,,-0.0218581487878731,-2.13726016593047,-0.0280122954821031,,-0.6729704854492139,,
,2307.0,570.0,1824.0,693.0,1954.0,3173.0,1194.0,,,,-0.021932889148526,-2.13678947226124,-0.0280285066016649,,0.030205392068585246,,
,2308.0,574.0,1825.0,692.0,1951.0,3179.0,1194.0,,,,-0.0222338530134711,-2.13771292094776,-0.0289074719868301,,0.775326568478897,,
,2310.0,574.0,1825.0,694.0,1950.0,3192.0,1199.0,,,,-0.0223593096202228,-2.13796738384678,-0.0282486140108259,,1.5486812657230826,,
,2307.0,573.0,1822.0,692.0,1955.0,3202.0,1190.0,,,,-0.0224477310161955,-2.1385969807147,-0.0293928286815231,,2.3345054765034083,,
,2306.0,572.0,1823.0,690.0,1958.0,3199.0,1196.0,,,,-0.0225270086156428,-2.13822889726384,-0.0302835432887031,,3.1153230929279254,,
,2308.0,574.0,1825.0,694.0,1952.0,3190.0,1200.0,,,,-0.0226219333672772,-2.13872494288438,-0.029806006986558,,3.8723652132373503,,
,2308.0,574.0,1826.0,694.0,1961.0,3194.0,1212.0,,,,-0.022477692232877,-2.13892580443785,-0.0300064268964722,,4.586082367418404,,
,2308.0,574.0,1824.0,694.0,1965.0,3195.0,1201.0,,,,-0.022668369446645,-2.13967989389339,-0.0305172878613658,,5.2367583877858594,,
,2305.0,574.0,1823.0,691.0,1949.0,3192.0,1178.0,,,,-0.0227509975866768,-2.14008832235734,-0.031774712109612,,5.805224475327852,,
,2308.0,573.0,1824.0,691.0,1956.0,3191.0,1173.0,,,,-0.0228701155552064,-2.14013484466682,-0.0320085675030181,,6.273657190833851,,
,2307.0,571.0,1825.0,692.0,1949.0,3190.0,1181.0,,,,-0.0229233381414692,-2.14055445139534,-0.0331183677414419,,6.626425934438223,,
,2307.0,570.0,1823.0,689.0,1945.0,3176.0,1186.0,,,,-0.0231449464592826,-2.14129704321121,-0.0340377211025721,,6.850936810194104,,
,2305.0,570.0,1820.0,689.0,1940.0,3158.0,1200.0,,,,-0.0231089922849506,-2.14167872276428,-0.0342132049536875,,6.938404895757647,,
,2307.0,571.0,1820.0,690.0,1939.0,3148.0,1231.0,,,,-0.0232803214037773,-2.1423525363794,-0.0349856702053456,,6.884480218671748,,
,2304.0,570.0,1818.0,692.0,1936.0,3153.0,1215.0,,,,-0.0233086321905201,-2.14305663573737,-0.034834956426722,,6.689656996369994,,
,2303.0,570.0,1815.0,693.0,1935.0,3150.0,1218.0,,,,-0.0235361738784504,-2.14323030306375,-0.0352242750708926,,6.359411425851263,,
,2303.0,567.0,1813.0,688.0,1929.0,3154.0,1207.0,,,,-0.02360434724779,-2.14393190025507,-0.036799976717363,,5.9040387491287465,,
,2301.0,569.0,1815.0,689.0,1931.0,3165.0,1222.0,,,,-0.023655600551297,-2.14433902342856,-0.0366846766798,,5.338191699248417,,
,2303.0,570.0,1813.0,688.0,1929.0,3161.0,1199.0,,,,-0.0237034025386997,-2.14473944673061,-0.0374148322054637,,4.680154316888111,,
,2301.0,568.0,1813.0,689.0,1929.0,3157.0,1194.0,,,,-0.0237597758865433,-2.1450444042564,-0.0374742759338152,,3.9509114496748543,,
,2302.0,567.0,1812.0,687.0,1955.0,3178.0,1195.0,,,,-0.023908822328547,-2.1456380716612,-0.0374757444757323,,3.173090202524871,,
,2300.0,567.0,1811.0,686.0,1943.0,3172.0,1192.0,,,,-0.023979848999878,-2.14606457012512,-0.0383515132779577,,2.3698535201913407,,
,2300.0,568.0,1812.0,688.0,1950.0,3163.0,1166.0,,,,-0.0238897238092907,-2.14645572292812,-0.0377259439244254,,1.5638198623966892,,
,2299.0,568.0,1814.0,688.0,1959.0,3179.0,1167.0,,,,-0.023833750790138,-2.14632821392415,-0.0391689301328124,,0.7760707528657179,,
,2299.0,566.0,1813.0,686.0,1952.0,3178.0,1163.0,,,,-0.0240769894392595,-2.14648456273244,-0.0395855017006282,,0.02529413605572241,,
,2298.0,566.0,1808.0,685.0,1963.0,3188.0,1186.0,,,,-0.0241074349002809,-2.14682365527573,-0.0397940294304053,,-0.6729012676010339,,
,2295.0,567.0,1809.0,688.0,1955.0,3198.0,1175.0,,,,-0.0242202180633591,-2.14720463919482,-0.0404985505298531,,-1.3064762957329603,,
,2301.0,567.0,1810.0,689.0,1959.0,3206.0,1177.0,,,,-0.0242178934212091,-2.14802645403878,-0.0399091239012541,,-1.8672418412733973,,
2025-07-17 19:07:29,2298.0,568.0,1809.0,689.0,1968.0,3197.0,1178.0,,,2025/07/17 07:07:29 PM,-0.0242165670059458,-2.14799668863199,-0.0415630813663782,,-2.3509248607415008,,
,2300.0,566.0,1811.0,688.0,1960.0,3195.0,1189.0,,,,-0.0241269964763654,-2.14802291593121,-0.041188589214443,,-2.7570256383060725,,
,2299.0,568.0,1811.0,685.0,1948.0,3178.0,1187.0,,,,-0.0243434898743376,-2.14836704211483,-0.0417127138762089,,-3.0884823324920267,,
,2298.0,568.0,1811.0,687.0,1933.0,3177.0,1183.0,,,,-0.0242800043143108,-2.14861908927778,-0.0415932810423606,,-3.3511679349693346,,
,2298.0,568.0,1809.0,687.0,1938.0,3171.0,1187.0,,,,-0.0244304856911758,-2.14894497321075,-0.0419505844600056,,-3.553252014295711,,
,2297.0,566.0,1806.0,686.0,1943.0,3173.0,1197.0,,,,-0.0244763658564547,-2.14902928002067,-0.0421460596584008,,-3.7044649508521053,,
,2300.0,565.0,1809.0,686.0,1947.0,3167.0,1204.0,,,,-0.0245453651221358,-2.14957297165394,-0.0432865330548841,,-3.8153060708281155,,
,2297.0,565.0,1810.0,687.0,1943.0,3172.0,1192.0,,,,-0.0247048631670388,-2.14991530899309,-0.0441474463600459,,-3.896239376629224,,
,2300.0,566.0,1809.0,688.0,1938.0,3167.0,1204.0,,,,-0.0246715653699533,-2.15005604916053,-0.0439995857627027,,-3.956921464871306,,
,2300.0,567.0,1808.0,686.0,1950.0,3168.0,1212.0,,,,-0.0246634469279092,-2.15073010488447,-0.0455930770047282,,-4.005505605165484,,
,2299.0,568.0,1806.0,686.0,1942.0,3167.0,1215.0,,,,-0.024689049725273,-2.15149554882406,-0.0460177051241535,,-4.048063628764405,,
,2300.0,566.0,1806.0,685.0,1950.0,3168.0,1212.0,,,,-0.0247769598073928,-2.15165708787013,-0.0458644053769914,,-4.088162931095689,,
,2298.0,570.0,1810.0,686.0,1942.0,3175.0,1199.0,,,,-0.0249102940581559,-2.15172516540854,-0.045975492450874,,-4.126629097705922,,
,2300.0,566.0,1808.0,686.0,1947.0,3176.0,1193.0,,,,-0.0247946808325663,-2.15204278265444,-0.0467880698241926,,-4.16151499617573,,
,2298.0,564.0,1809.0,684.0,1967.0,3174.0,1218.0,,,,-0.0249469962149726,-2.15198705746206,-0.0473310050577766,,-4.188284331708907,,
,2299.0,564.0,1808.0,685.0,1945.0,3171.0,1208.0,,,,-0.0248506784532962,-2.15226950872899,-0.0466051697925545,,-4.200201576622378,,
,2299.0,568.0,1808.0,686.0,1948.0,3163.0,1213.0,,,,-0.0248542892130767,-2.15204576848611,-0.0471292040657053,,-4.188901452522507,,
,2299.0,565.0,1805.0,686.0,1949.0,3169.0,1215.0,,,,-0.0249672625778555,-2.15228910683197,-0.0474905915066997,,-4.145091767508129,,
,2298.0,565.0,1803.0,687.0,1938.0,3207.0,1205.0,,,,-0.0249696106254896,-2.15253657100864,-0.0481377705502234,,-4.0593270376120705,,
,2297.0,566.0,1808.0,684.0,1951.0,3185.0,1210.0,,,,-0.0250381438161931,-2.15276262748479,-0.0484309312748455,,-3.922781102180201,,
,2300.0,566.0,1807.0,686.0,1950.0,3186.0,1196.0,,,,-0.0249951574440481,-2.15277789840045,-0.0490659646657652,,-3.7279475159857918,,
,2298.0,567.0,1808.0,687.0,1941.0,3156.0,1204.0,,,,-0.0249932945790398,-2.15309000041798,-0.048005488443612,,-3.4692069223374844,,
,2297.0,564.0,1806.0,689.0,1942.0,3143.0,1188.0,,,,-0.0250407458869231,-2.15293545019686,-0.0494889017267691,,-3.143218992463603,,
,2295.0,565.0,1804.0,686.0,1936.0,3151.0,1177.0,,,,-0.0250870200600101,-2.15310329401265,-0.0486544414313039,,-2.7491201467270843,,
,2298.0,565.0,1807.0,687.0,1938.0,3163.0,1198.0,,,,-0.025133481376819,-2.15319095561228,-0.0506214657046844,,-2.288533950436254,,
,2299.0,565.0,1807.0,687.0,1943.0,3159.0,1197.0,,,,-0.0251153604561767,-2.15323957075942,-0.0506965801768963,,-1.7654249383960066,,
,2298.0,566.0,1803.0,685.0,1937.0,3157.0,1190.0,,,,-0.0252010669901528,-2.15343448513058,-0.0514352189806448,,-1.1858445070366321,,
,2296.0,561.0,1806.0,684.0,1931.0,3162.0,1160.0,,,,-0.0251513953572219,-2.15328617434793,-0.051037915609334,,-0.5576261153586943,,
,2299.0,566.0,1803.0,688.0,1942.0,3140.0,1182.0,,,,-0.0252008043906658,-2.15359283243022,-0.0508587244643984,,0.10991491152918148,,
,2300.0,567.0,1804.0,686.0,1933.0,3136.0,1212.0,,,,-0.0252189340543375,-2.1532569232047,-0.0522161719984287,,0.8062331248892134,,
,2299.0,566.0,1802.0,685.0,1933.0,3126.0,1215.0,,,,-0.0252811522668913,-2.15336785189058,-0.0522757945168766,,1.5197306871081842,,
,2298.0,565.0,1805.0,685.0,1948.0,3154.0,1203.0,,,,-0.0252138423963491,-2.15350543649849,-0.0517570336493822,,2.237857486916787,,
,2296.0,563.0,1804.0,686.0,1935.0,3161.0,1213.0,,,,-0.0252615140640748,-2.15389960609184,-0.0518306361203284,,2.9471524241852833,,
,2299.0,564.0,1804.0,686.0,1942.0,3148.0,1191.0,,,,-0.0252243273182123,-2.15366463514,-0.0529399764475012,,3.633264498731863,,
,2298.0,564.0,1804.0,687.0,1933.0,3142.0,1184.0,,,,-0.0253581204730504,-2.15395656941349,-0.0524129856923866,,4.281006721775273,,
,2299.0,565.0,1804.0,685.0,1941.0,3159.0,1188.0,,,,-0.0254095153926631,-2.15421157070718,-0.0536521448076703,,4.874501912901897,,
,2299.0,563.0,1804.0,685.0,1945.0,3166.0,1196.0,,,,-0.0253613743389392,-2.15438371918003,-0.054267191939583,,5.397474572820158,,
,2297.0,564.0,1804.0,686.0,1945.0,3172.0,1193.0,,,,-0.0254006112816456,-2.15459494287222,-0.0536758330839252,,5.833725997293269,,
,2299.0,566.0,1806.0,687.0,1940.0,3159.0,1183.0,,,,-0.0254186253185335,-2.15452574316475,-0.0541242842281394,,6.167802012354191,,
,2299.0,564.0,1803.0,687.0,1939.0,3148.0,1181.0,,,,-0.0253894767886502,-2.15464884629262,-0.0543745151083104,,6.385828389189822,,
,2298.0,564.0,1804.0,688.0,1946.0,3158.0,1199.0,,,,-0.0254440662724636,-2.15491019674706,-0.0552852939605336,,6.476453976410068,,
,2299.0,566.0,1806.0,686.0,1940.0,3170.0,1203.0,,,,-0.0255111937847969,-2.15501719938411,-0.0550566128079833,,6.4318118597290015,,
,2299.0,566.0,1805.0,688.0,1946.0,3165.0,1208.0,,,,-0.0255523759247588,-2.15510880749385,-0.0552646739385183,,6.248389802398569,,
,2303.0,564.0,1805.0,689.0,1946.0,3179.0,1186.0,,,,-0.0254760703643328,-2.15535229440038,-0.0562998680389606,,5.9276971669347835,,
,2300.0,566.0,1807.0,686.0,1953.0,3182.0,1180.0,,,,-0.0255990642622053,-2.15576698070883,-0.0566407587951515,,5.4766289365089635,,
,2298.0,564.0,1802.0,686.0,1948.0,3191.0,1177.0,,,,-0.0255931483947843,-2.15614240130398,-0.0560536905304885,,4.907457637272249,,
,2302.0,566.0,1807.0,688.0,1949.0,3181.0,1190.0,,,,-0.0255784239831105,-2.15615624368341,-0.0568490655728605,,4.237426110102868,,
,2303.0,565.0,1803.0,686.0,1963.0,3196.0,1197.0,,,,-0.0257050050049905,-2.15646543525337,-0.057877272010289,,3.487960117804471,,
,2300.0,565.0,1806.0,688.0,1956.0,3186.0,1192.0,,,,-0.0255780859172866,-2.15623555054537,-0.0568885082423182,,2.683561144250476,,
,2299.0,564.0,1806.0,687.0,1959.0,3193.0,1176.0,,,,-0.0256029964625306,-2.15640313390071,-0.0570837936727765,,1.8504704043959033,,
,2298.0,567.0,1807.0,686.0,1951.0,3174.0,1184.0,,,,-0.0256886181797913,-2.15634976095844,-0.0582134519123988,,1.0152127789826602,,
,2303.0,567.0,1806.0,690.0,1949.0,3161.0,1202.0,,,,-0.0257338716549658,-2.1563434501025,-0.0584023067169944,,0.20313494793912215,,
,2301.0,566.0,1808.0,688.0,1951.0,3166.0,1213.0,,,,-0.0256516670160639,-2.15625823801924,-0.0588552561726582,,-0.5629522826492132,,
,2300.0,566.0,1807.0,686.0,1945.0,3145.0,1202.0,,,,-0.0257548805293302,-2.1561118310649,-0.0591839706671289,,-1.2639294042889353,,
,2301.0,567.0,1808.0,689.0,1950.0,3162.0,1215.0,,,,-0.0260013236908253,-2.15624984067575,-0.0585298456618012,,-1.8852416734528215,,
,2301.0,565.0,1807.0,688.0,1975.0,3179.0,1193.0,,,,-0.0258167511777325,-2.15644268573628,-0.0592915583770879,,-2.4174349682999225,,
,2305.0,569.0,1808.0,690.0,1964.0,3165.0,1184.0,,,,-0.0257374202034883,-2.15609813224196,-0.0588166574750677,,-2.856326806520347,,
,2305.0,567.0,1807.0,688.0,1950.0,3166.0,1193.0,,,,-0.0258457614492248,-2.15633147283671,-0.0599224848614053,,-3.202815424618996,,
,2304.0,565.0,1807.0,691.0,1946.0,3155.0,1210.0,,,,-0.0257088260548078,-2.15647105187366,-0.0598709334339748,,-3.462358156700964,,
,2306.0,570.0,1809.0,690.0,1946.0,3183.0,1196.0,,,,-0.0256508438866861,-2.1564732436379,-0.0602806780917126,,-3.644173805347761,,
,2305.0,568.0,1810.0,690.0,1956.0,3185.0,1192.0,,,,-0.0256968185246317,-2.1563382797528,-0.0607795338116122,,-3.7602404890564722,,
,2308.0,567.0,1808.0,687.0,1960.0,3183.0,1224.0,,,,-0.0257974163896883,-2.15589999697166,-0.0600458379226635,,-3.824170200623084,,
,2306.0,566.0,1807.0,688.0,1953.0,3179.0,1211.0,,,,-0.0257988001865081,-2.1561500613771,-0.0601897443511071,,-3.850044498325323,,
,2309.0,570.0,1810.0,691.0,1950.0,3179.0,1221.0,,,,-0.0257638223901876,-2.15664474551737,-0.0609554583804692,,-3.8512931355177202,,
,2309.0,571.0,1811.0,692.0,1948.0,3155.0,1207.0,,,,-0.0258383102178955,-2.15666947202289,-0.0604583255552969,,-3.839689821338335,,
,2305.0,567.0,1807.0,688.0,1939.0,3146.0,1217.0,,,,-0.0258448563947354,-2.15632624528664,-0.0607525415809398,,-3.824527579414403,,
,2306.0,565.0,1808.0,689.0,1939.0,3159.0,1232.0,,,,-0.025808013586984,-2.15668232083924,-0.0610667739903753,,-3.812021334919108,,
,2307.0,567.0,1812.0,691.0,1956.0,3175.0,1201.0,,,,-0.0257611358021527,-2.15646935982366,-0.0601313227831168,,-3.804968477569962,,
,2308.0,567.0,1811.0,691.0,1953.0,3172.0,1204.0,,,,-0.0257506762874404,-2.15643501567265,-0.0609455803872603,,-3.8026802040120895,,
,2307.0,568.0,1809.0,690.0,1961.0,3170.0,1220.0,,,,-0.0258264849271065,-2.15663315118233,-0.0626080321835796,,-3.8011781993683837,,
,2308.0,568.0,1810.0,687.0,1963.0,3154.0,1229.0,,,,-0.0257961898615417,-2.15694948352877,-0.0623574555711822,,-3.7936332244639255,,
,2307.0,570.0,1809.0,691.0,1969.0,3170.0,1216.0,,,,-0.0260742055992918,-2.15733423947915,-0.0627854971437471,,-3.7710051264706137,,
,2309.0,567.0,1812.0,690.0,1991.0,3181.0,1229.0,,,,-0.026021466045366,-2.15790357860737,-0.0638978142903808,,-3.7228291304186873,,
,2311.0,567.0,1810.0,692.0,1980.0,3168.0,1224.0,,,,-0.0260293754561742,-2.15907543693768,-0.0648975911881089,,-3.6380833255087843,,
,2310.0,570.0,1812.0,693.0,1957.0,3145.0,1187.0,,,,-0.0263642278508404,-2.15948118097535,-0.0655911936689877,,-3.506069284361251,,
,2308.0,567.0,1812.0,692.0,1966.0,3130.0,1221.0,,,,-0.0263452078183174,-2.16004828854562,-0.0660028083536566,,-3.317242501721445,,
,2311.0,569.0,1810.0,693.0,1970.0,3171.0,1248.0,,,,-0.026453004665324,-2.16014836190084,-0.0666158191603603,,-3.063940567515036,,
,2312.0,569.0,1814.0,694.0,1961.0,3145.0,1229.0,,,,-0.0264965962257792,-2.16049195402393,-0.0663440062471917,,-2.740972232431423,,
,2312.0,568.0,1811.0,694.0,1956.0,3152.0,1207.0,,,,-0.0266533516866333,-2.16108312140618,-0.0676043592334474,,-2.346047197239531,,
,2313.0,568.0,1811.0,692.0,1947.0,3164.0,1206.0,,,,-0.026822119837855,-2.16109598721198,-0.0670726612586902,,-1.8800422546286493,,
,2314.0,568.0,1812.0,691.0,1966.0,3133.0,1178.0,,,,-0.0269442048175917,-2.16152450809053,-0.0684396788582523,,-1.347112119946179,,
,2316.0,566.0,1811.0,694.0,1956.0,3155.0,1212.0,,,,-0.0269379556965848,-2.1615541672054,-0.0690716338061706,,-0.7546609581642231,,
,2313.0,570.0,1812.0,694.0,1954.0,3149.0,1224.0,,,,-0.0269632305163969,-2.16184246329828,-0.0686836793501041,,-0.11319242475596478,,
,2315.0,571.0,1812.0,693.0,1957.0,3153.0,1237.0,,,,-0.0269114502513323,-2.16176199226104,-0.0686594358313136,,0.5639470823496541,,
,2318.0,569.0,1813.0,694.0,1958.0,3158.0,1249.0,,,,-0.0269290102980697,-2.16185245204379,-0.0676700922034266,,1.2609230211862033,,
,2318.0,570.0,1813.0,695.0,1942.0,3143.0,1232.0,,,,-0.0269912376991833,-2.16202412137268,-0.0690612547887976,,1.9598620053255154,,
,2319.0,571.0,1813.0,695.0,1964.0,3149.0,1219.0,,,,-0.0268447304927655,-2.16150512826705,-0.0677270346687404,,2.6413964143475286,,
,2316.0,572.0,1815.0,694.0,1974.0,3116.0,1223.0,,,,-0.0267560714659644,-2.16160591564541,-0.0689298959828364,,3.2853054413660105,,
,2317.0,570.0,1811.0,694.0,1951.0,3141.0,1231.0,,,,-0.0267227694760552,-2.16187162307713,-0.0689444583886741,,3.8712504475226512,,
,2320.0,570.0,1814.0,695.0,1974.0,3164.0,1246.0,,,,-0.0268295692948739,-2.1614307782141,-0.0688590388683508,,4.37959519874169,,
,2317.0,572.0,1815.0,696.0,1979.0,3158.0,1261.0,,,,-0.0267444839551466,-2.16123690487966,-0.0671439391440141,,4.792289975569116,,
,2320.0,571.0,1815.0,697.0,1973.0,3153.0,1245.0,,,,-0.0266859328265343,-2.161040708149,-0.0671141764666734,,5.093782943707057,,
,2319.0,571.0,1815.0,694.0,1963.0,3145.0,1238.0,,,,-0.0267042660534095,-2.16091829486416,-0.0671870860082259,,5.27190450735896,,
,2320.0,573.0,1814.0,697.0,1971.0,3147.0,1216.0,,,,-0.0268438480303441,-2.16135587104361,-0.0681114374216805,,5.318654813936584,,
,2323.0,574.0,1817.0,697.0,1976.0,3183.0,1235.0,,,,-0.0268426990842806,-2.16137919486851,-0.0683348363696629,,5.23081643242428,,
,2322.0,573.0,1817.0,695.0,1981.0,3171.0,1237.0,,,,-0.0268775695359631,-2.1609764017161,-0.0688158363776223,,5.01031783851082,,
,2320.0,572.0,1813.0,693.0,1964.0,3164.0,1228.0,,,,-0.0268067020797403,-2.16127772149615,-0.0677926808549835,,4.664290418082814,,
,2321.0,573.0,1818.0,694.0,1980.0,3173.0,1234.0,,,,-0.0269036589609021,-2.16158939440379,-0.0688561975637099,,4.2047906260437165,,
,2325.0,574.0,1818.0,699.0,1989.0,3168.0,1210.0,,,,-0.0268061169664856,-2.16111485201052,-0.0679298506499672,,3.6481950148988957,,
,2324.0,572.0,1815.0,698.0,1976.0,3162.0,1209.0,,,,-0.0268078385182643,-2.16128914482924,-0.0671319873975168,,3.0143123378431618,,
,2325.0,574.0,1816.0,697.0,1966.0,3179.0,1227.0,,,,-0.026825353110279,-2.16112774759321,-0.0669553006206893,,2.3252867882363435,,
,2325.0,570.0,1814.0,697.0,1949.0,3147.0,1247.0,,,,-0.026749155285344,-2.16053186635526,-0.0674014513040663,,1.6043845692732328,,
,2324.0,574.0,1815.0,697.0,1987.0,3127.0,1254.0,,,,-0.026691858390381,-2.16046980065848,-0.0660380083908295,,0.874761014978822,,
,2325.0,574.0,1812.0,698.0,1962.0,3124.0,1242.0,,,,-0.0265941403544221,-2.16029679121141,-0.0658709235643089,,0.15829948380138437,,
,2326.0,572.0,1812.0,697.0,1959.0,3120.0,1248.0,,,,-0.0264901825541823,-2.16029038884269,-0.065201037339609,,-0.5254003182251213,,
,2326.0,569.0,1810.0,696.0,1945.0,3127.0,1259.0,,,,-0.0265712378007383,-2.15998637233662,-0.0651982433820111,,-1.1598249253078972,,
,2323.0,572.0,1809.0,696.0,1947.0,3134.0,1268.0,,,,-0.026392757424982,-2.16030535576737,-0.06569734930625,,-1.7321009167029533,,
,2324.0,570.0,1807.0,697.0,1938.0,3116.0,1248.0,,,,-0.026551669079703,-2.16005279964035,-0.0648161832794874,,-2.2332803515755884,,
,2324.0,572.0,1807.0,696.0,1937.0,3115.0,1258.0,,,,-0.0264283249702152,-2.16026705630844,-0.0645885755398539,,-2.6583575097162213,,
,2323.0,568.0,1802.0,694.0,1941.0,3120.0,1253.0,,,,-0.026531016527075,-2.16025417599391,-0.0657395390575806,,-3.0060347400060023,,
,2323.0,569.0,1804.0,694.0,1947.0,3131.0,1233.0,,,,-0.0265791315939054,-2.15981518855493,-0.0662011760667854,,-3.2782718566977818,,
,2323.0,569.0,1803.0,694.0,1953.0,3139.0,1235.0,,,,-0.0266635461715325,-2.16018186938313,-0.0656665017211527,,-3.479667575526014,,
,2322.0,570.0,1803.0,694.0,1954.0,3153.0,1229.0,,,,-0.0266353747031016,-2.16011010659503,-0.0657023721253856,,-3.6167312681234582,,
,2323.0,569.0,1801.0,694.0,1970.0,3161.0,1239.0,,,,-0.0265677227483345,-2.16021223663124,-0.0653812740434589,,-3.697107496989942,,
,2323.0,570.0,1802.0,693.0,1966.0,3161.0,1229.0,,,,-0.0264668818840685,-2.16032269401932,-0.0653467899466795,,-3.72881415471671,,
,2322.0,570.0,1801.0,693.0,1958.0,3158.0,1236.0,,,,-0.026370255116027,-2.15990198314711,-0.0659242913065287,,-3.7195484488133363,,
,2324.0,568.0,1803.0,693.0,2005.0,3164.0,1230.0,,,,-0.0264662758690069,-2.15997295257187,-0.0648704764960395,,-3.6761048228090174,,
,2326.0,568.0,1803.0,694.0,1997.0,3138.0,1238.0,,,,-0.0264886456633215,-2.15968778371654,-0.0656214109344662,,-3.6039365204287805,,
,2325.0,568.0,1801.0,694.0,1968.0,3143.0,1228.0,,,,-0.026479305582568,-2.15947403137544,-0.0653005579214126,,-3.5068790509131094,,
,2324.0,570.0,1802.0,693.0,1970.0,3140.0,1222.0,,,,-0.0264447917843445,-2.15968196870342,-0.064571178985406,,-3.3870404054583947,,
,2328.0,570.0,1802.0,696.0,1971.0,3148.0,1223.0,,,,-0.0264787915226639,-2.15953985667974,-0.0652306519087635,,-3.244850565943448,,
,2327.0,570.0,1803.0,695.0,1973.0,3151.0,1224.0,,,,-0.0263926893951097,-2.15932449521474,-0.0639604746849507,,-3.0792525155737795,,
,2323.0,569.0,1800.0,692.0,1970.0,3148.0,1215.0,,,,-0.0263306968428751,-2.15918983013003,-0.0634274960062289,,-2.8880091455510994,,
,2325.0,571.0,1802.0,695.0,1979.0,3138.0,1242.0,,,,-0.0262924817108677,-2.1590718382297,-0.0620064672095983,,-2.668095250682209,,
,2327.0,569.0,1803.0,698.0,1979.0,3153.0,1217.0,,,,-0.0262601071545881,-2.15887888713419,-0.0625306133014499,,-2.416140881746289,,
,2327.0,570.0,1800.0,695.0,1974.0,3158.0,1226.0,,,,-0.0262520591669375,-2.15873268026177,-0.062385882826893,,-2.128891155471538,,
,2326.0,570.0,1801.0,694.0,1970.0,3152.0,1259.0,,,,-0.0263504245230295,-2.15837346427779,-0.0615985701793218,,-1.8036481014951011,,
,2324.0,567.0,1800.0,693.0,1970.0,3148.0,1247.0,,,,-0.026260466487908,-2.15847377103575,-0.0612921079997074,,-1.4386629685910217,,
2025-07-17 19:07:30,2326.0,571.0,1800.0,695.0,1969.0,3141.0,1255.0,,,2025/07/17 07:07:30 PM,-0.0262894501017001,-2.15821857660925,-0.0608316174546171,,-1.0334536414991242,,
,2330.0,569.0,1801.0,695.0,1977.0,3151.0,1252.0,,,,-0.0261691995626484,-2.15844786335091,-0.0612577711558528,,-0.5890314764128753,,
,2329.0,569.0,1802.0,694.0,1983.0,3133.0,1268.0,,,,-0.0261646869807216,-2.15830077304965,-0.0614186307395602,,-0.10803335177104705,,
,2331.0,570.0,1799.0,697.0,1961.0,3147.0,1247.0,,,,-0.0261384173696074,-2.1581447024869,-0.0611871890277223,,0.4052344849581328,,
,2328.0,570.0,1801.0,696.0,2000.0,3132.0,1225.0,,,,-0.0259588355616145,-2.15771820288981,-0.0603087183201302,,0.9448263826540324,,
,2328.0,569.0,1801.0,696.0,1979.0,3125.0,1233.0,,,,-0.0260208442616789,-2.15760493752867,-0.0602104186568599,,1.5032431494214966,,
,2330.0,570.0,1802.0,695.0,1972.0,3146.0,1230.0,,,,-0.0260396319179761,-2.1574411994632,-0.0600732990399696,,2.071556962493955,,
,2328.0,568.0,1801.0,695.0,1977.0,3157.0,1212.0,,,,-0.0260223501841509,-2.15721603432282,-0.0596047741222742,,2.6395635575155834,,
,2329.0,568.0,1800.0,695.0,1968.0,3146.0,1214.0,,,,-0.0259289374109082,-2.15717809559555,-0.0592222621849538,,3.195957740114893,,
,2333.0,570.0,1803.0,695.0,1965.0,3141.0,1221.0,,,,-0.0258940227750973,-2.15692226968782,-0.0600277492039129,,3.7285369795108267,,
,2333.0,572.0,1803.0,698.0,1970.0,3138.0,1233.0,,,,-0.0258837892079003,-2.15720679151462,-0.0597307495525667,,4.22444540093261,,
,2332.0,569.0,1801.0,697.0,1966.0,3148.0,1233.0,,,,-0.0258831877302578,-2.15693589303688,-0.0596770952524068,,4.67047488846449,,
,2331.0,570.0,1802.0,696.0,1952.0,3138.0,1254.0,,,,-0.0258289874145649,-2.15700081271394,-0.0591829890700097,,5.053439658830589,,
,2332.0,570.0,1801.0,696.0,1951.0,3135.0,1229.0,,,,-0.0257800102105982,-2.15659171606149,-0.0585254624309378,,5.360634851137617,,
,2332.0,571.0,1800.0,696.0,1964.0,3140.0,1231.0,,,,-0.0257804179310243,-2.15635321734028,-0.0588503045142367,,5.580378728792391,,
,2334.0,571.0,1800.0,697.0,1962.0,3131.0,1252.0,,,,-0.0257228300725611,-2.15652098053407,-0.0577029567751178,,5.702623013272228,,
,2334.0,572.0,1800.0,694.0,1971.0,3129.0,1231.0,,,,-0.0257232937223432,-2.15646041839697,-0.0581421188241477,,5.719598098735297,,
,2336.0,572.0,1803.0,695.0,1959.0,3122.0,1234.0,,,,-0.0256781304001658,-2.15619559552222,-0.0586019579900488,,5.626441933653445,,
,2337.0,571.0,1802.0,697.0,1956.0,3144.0,1242.0,,,,-0.0256504812440309,-2.15619131057283,-0.0592207307329057,,5.421747399438308,,
,2334.0,573.0,1801.0,699.0,1956.0,3147.0,1240.0,,,,-0.0256437576773968,-2.15614500328669,-0.0586486932151021,,5.107958017008484,,
,2336.0,572.0,1803.0,696.0,1962.0,3122.0,1257.0,,,,-0.0257157973916224,-2.15581480334473,-0.0583804477334558,,4.691549133533042,,
,2335.0,573.0,1801.0,697.0,1975.0,3133.0,1265.0,,,,-0.0255817801682937,-2.15610713961672,-0.0580971892320572,,4.1829512328715435,,
,2338.0,573.0,1803.0,698.0,1983.0,3132.0,1231.0,,,,-0.0256884569598346,-2.15625141939603,-0.0587485649258012,,3.5961999464587406,,
,2338.0,573.0,1804.0,698.0,1979.0,3142.0,1225.0,,,,-0.0256440443831015,-2.15631519187896,-0.0583654416261654,,2.9483280943896686,,
,2339.0,572.0,1801.0,696.0,1962.0,3151.0,1210.0,,,,-0.0256260612733546,-2.15623399342053,-0.0580110634352861,,2.2585432101049583,,
,2337.0,571.0,1804.0,698.0,1987.0,3158.0,1234.0,,,,-0.0257455238590724,-2.15611577786315,-0.0574607472325452,,1.5472554603571216,,
,2339.0,572.0,1803.0,698.0,1988.0,3172.0,1211.0,,,,-0.0256074797737617,-2.15622154154504,-0.0578872219896583,,0.8350333852019768,,
,2340.0,573.0,1804.0,697.0,1986.0,3167.0,1207.0,,,,-0.0256008923370979,-2.15578984134756,-0.0584650041626296,,0.14156788694552527,,
,2337.0,572.0,1804.0,700.0,1974.0,3144.0,1229.0,,,,-0.025566669924701,-2.15616817897358,-0.0582583859387534,,-0.5152806557433369,,
,2337.0,572.0,1803.0,698.0,1963.0,3148.0,1239.0,,,,-0.0254328651313528,-2.1558113251754,-0.0575674401648744,,-1.1202892953247305,,
,2339.0,575.0,1805.0,697.0,1968.0,3147.0,1227.0,,,,-0.0255160238629359,-2.15595477997247,-0.0564674804374419,,-1.66148638071162,,
,2342.0,572.0,1805.0,699.0,1968.0,3145.0,1209.0,,,,-0.0255178308307983,-2.15566938547018,-0.0581101163911405,,-2.1305422055321275,,
,2341.0,573.0,1806.0,698.0,1966.0,3141.0,1211.0,,,,-0.0254970906943536,-2.15564436564844,-0.0582640560496137,,-2.5229224042091767,,
,2340.0,573.0,1802.0,698.0,1974.0,3134.0,1242.0,,,,-0.0254674849132123,-2.15556796656519,-0.0574182086291726,,-2.837804909258157,,
,2343.0,574.0,1808.0,700.0,1973.0,3134.0,1239.0,,,,-0.0254819501807702,-2.15537646382307,-0.0568881036115025,,-3.07777518002126,,
,2341.0,577.0,1806.0,699.0,1979.0,3136.0,1241.0,,,,-0.0254862051360304,-2.15531202648388,-0.0574697492429274,,-3.248327457130741,,
,2342.0,576.0,1807.0,699.0,1962.0,3130.0,1259.0,,,,-0.025423365993759,-2.1552821572186,-0.0574601843660351,,-3.357211204290773,,
,2343.0,573.0,1804.0,698.0,1964.0,3165.0,1254.0,,,,-0.0254110996655276,-2.15520903694367,-0.0568740141540577,,-3.41367048287302,,
,2345.0,572.0,1807.0,700.0,1973.0,3176.0,1219.0,,,,-0.0254711139264649,-2.15549112567782,-0.0566560576104996,,-3.427629045194558,,
,2346.0,577.0,1808.0,702.0,1963.0,3145.0,1246.0,,,,-0.0254799332192715,-2.15530000252507,-0.0591760045066564,,-3.4088754613652394,,
,2344.0,573.0,1810.0,700.0,1959.0,3128.0,1251.0,,,,-0.0254379206553899,-2.15531783484328,-0.057074045217747,,-3.3663010247825462,,
,2346.0,572.0,1808.0,701.0,1953.0,3160.0,1233.0,,,,-0.0253438659422014,-2.15536186658015,-0.0565307590627803,,-3.307238848328992,,
,2347.0,575.0,1811.0,702.0,1950.0,3173.0,1215.0,,,,-0.0253960252185032,-2.15527167422229,-0.0571058292044811,,-3.2369456476888074,,
,2349.0,576.0,1811.0,701.0,1961.0,3134.0,1227.0,,,,-0.0254755869198499,-2.15539606486228,-0.0571421932319924,,-3.1582584912846383,,
,2347.0,577.0,1810.0,702.0,1959.0,3120.0,1241.0,,,,-0.0254365005487615,-2.15523025792942,-0.0568587185751531,,-3.071447861155155,,
,2348.0,579.0,1812.0,701.0,1955.0,3113.0,1251.0,,,,-0.0253956225324398,-2.15522653768609,-0.0577706846192905,,-2.974276516955948,,
,2346.0,574.0,1810.0,701.0,1966.0,3131.0,1240.0,,,,-0.0253788626331928,-2.15504749277868,-0.0560223700907459,,-2.862261652099672,,
,2347.0,577.0,1811.0,702.0,1969.0,3118.0,1229.0,,,,-0.0255270760614871,-2.15486156632039,-0.0554769214676628,,-2.729126181444516,,
,2351.0,576.0,1813.0,704.0,1968.0,3140.0,1224.0,,,,-0.0254837567084641,-2.15460887107331,-0.0565847483432601,,-2.5674138394308996,,
,2349.0,575.0,1811.0,701.0,1969.0,3139.0,1216.0,,,,-0.025445017514413,-2.15416753611888,-0.05601945152548,,-2.3692319615937127,,
,2350.0,576.0,1810.0,702.0,1965.0,3130.0,1217.0,,,,-0.0252773005604142,-2.15413807467731,-0.0553277424816434,,-2.1270754425513787,,
,2349.0,576.0,1813.0,703.0,1946.0,3129.0,1241.0,,,,-0.0253131709301745,-2.15364546188862,-0.0542522588242454,,-1.8346763731773255,,
,2350.0,576.0,1814.0,701.0,1953.0,3142.0,1244.0,,,,-0.025298000611075,-2.15350387852781,-0.0545855639764111,,-1.4878181438182991,,
,2352.0,575.0,1811.0,704.0,1970.0,3156.0,1265.0,,,,-0.0252784684755051,-2.153534664506,-0.0552539172338157,,-1.0850520427449268,,
,2351.0,575.0,1814.0,703.0,1965.0,3161.0,1243.0,,,,-0.0251981857919743,-2.15349008854435,-0.0549599902698209,,-0.6282588642605109,,
,2352.0,574.0,1811.0,704.0,1970.0,3168.0,1245.0,,,,-0.0252326217866125,-2.15395261903765,-0.0549646230690697,,-0.12300675644345031,,
,2356.0,581.0,1815.0,705.0,1966.0,3152.0,1245.0,,,,-0.0252441314381854,-2.15365871326552,-0.0548473573917845,,0.4213317473945125,,
,2355.0,579.0,1814.0,706.0,1962.0,3152.0,1238.0,,,,-0.0251205529222168,-2.15323467852797,-0.0543796854348533,,0.99172658886546,,
,2354.0,578.0,1814.0,703.0,1966.0,3171.0,1241.0,,,,-0.025138067800982,-2.15330767382063,-0.0558223637409987,,1.5719081269680277,,
,2354.0,578.0,1813.0,705.0,1945.0,3140.0,1236.0,,,,-0.0251595407979149,-2.15331834146352,-0.0557209926080531,,2.1430459946380687,,
,2357.0,579.0,1815.0,705.0,1947.0,3150.0,1222.0,,,,-0.025198548631459,-2.15354811204392,-0.0551444115780908,,2.6846605090741686,,
,2354.0,577.0,1815.0,703.0,1955.0,3158.0,1248.0,,,,-0.0251781215214827,-2.15388835729701,-0.0556158132605796,,3.1757199197113026,,
,2357.0,579.0,1815.0,704.0,1951.0,3156.0,1249.0,,,,-0.025238649463303,-2.15431268146045,-0.057426320184688,,3.5958588923080694,,
,2357.0,579.0,1816.0,706.0,1956.0,3141.0,1232.0,,,,-0.0255180978395953,-2.15530214035524,-0.0577764035327046,,3.926637194106966,,
,2358.0,580.0,1817.0,707.0,1964.0,3129.0,1298.0,,,,-0.0256744930219129,-2.15506762353253,-0.0578465454674436,,4.152744456006835,,
,2357.0,580.0,1819.0,706.0,1945.0,3150.0,1248.0,,,,-0.0256695820616719,-2.15543193359802,-0.0584895822197399,,4.263050084171244,,
,2357.0,581.0,1819.0,707.0,1940.0,3151.0,1225.0,,,,-0.0255154881120131,-2.15590347366955,-0.0591551367720067,,4.251400276098365,,
,2358.0,578.0,1818.0,707.0,1953.0,3139.0,1267.0,,,,-0.0256961434372536,-2.15630027425617,-0.0589688102317738,,4.11707939098318,,
,2357.0,579.0,1818.0,705.0,1959.0,3132.0,1256.0,,,,-0.0256937610897211,-2.15664394895105,-0.0597126693829964,,3.8648813067851013,,
,2360.0,580.0,1820.0,704.0,1975.0,3137.0,1268.0,,,,-0.0257214688959163,-2.15700223227681,-0.0598087658252975,,3.5047753559068457,,
,2362.0,580.0,1822.0,706.0,1981.0,3142.0,1263.0,,,,-0.0258825211303891,-2.15712092868312,-0.0591783317555658,,3.0511952582663775,,
,2359.0,580.0,1820.0,707.0,1972.0,3144.0,1268.0,,,,-0.0257640520176576,-2.15702943454728,-0.060178990290899,,2.522020756075929,,
,2360.0,579.0,1821.0,707.0,1969.0,3144.0,1268.0,,,,-0.025872487050434,-2.15728693186717,-0.0606215040409549,,1.9373534366160916,,
,2361.0,582.0,1822.0,708.0,1976.0,3154.0,1255.0,,,,-0.0259053056997127,-2.15716023326844,-0.0597192838949123,,1.3182057228950395,,
,2363.0,582.0,1821.0,706.0,1962.0,3136.0,1254.0,,,,-0.0257757292461504,-2.15671174955576,-0.0599552105071154,,0.6852235849906094,,
,2361.0,582.0,1821.0,707.0,1955.0,3123.0,1258.0,,,,-0.0257937433482115,-2.15666688848516,-0.0604665021536631,,0.057550763327268495,,
,2363.0,581.0,1820.0,709.0,1949.0,3128.0,1254.0,,,,-0.0257140240784974,-2.15683711358734,-0.0599728032672254,,-0.5480809778029556,,
,2363.0,582.0,1823.0,707.0,1956.0,3147.0,1245.0,,,,-0.0257236835133134,-2.15658505675083,-0.0594191222034397,,-1.1179803391944254,,
,2363.0,581.0,1825.0,709.0,1962.0,3149.0,1255.0,,,,-0.0257879626961691,-2.15634325225562,-0.0589941195691063,,-1.6418198342564019,,
,2366.0,584.0,1822.0,710.0,1952.0,3145.0,1256.0,,,,-0.0256069410223115,-2.15603137384753,-0.0591373681477072,,-2.1126603641474255,,
,2364.0,583.0,1822.0,711.0,1962.0,3148.0,1247.0,,,,-0.0255028293080493,-2.1562279192834,-0.0588311508522454,,-2.5267099769999346,,
,2365.0,583.0,1824.0,712.0,1965.0,3144.0,1246.0,,,,-0.0256065938860176,-2.15632289420933,-0.0590038418461862,,-2.8828705704436732,,
,2366.0,583.0,1827.0,709.0,1957.0,3144.0,1240.0,,,,-0.0256271719476052,-2.15622770026258,-0.059017085457907,,-3.1821399031384683,,
,2366.0,581.0,1824.0,708.0,1962.0,3146.0,1240.0,,,,-0.0256592691154168,-2.15615479125762,-0.0592490041943752,,-3.4269422161890875,,
,2365.0,584.0,1825.0,710.0,1959.0,3152.0,1258.0,,,,-0.0256015535818238,-2.15635716535402,-0.0589629643328384,,-3.620459303489847,,
,2365.0,579.0,1825.0,707.0,1965.0,3162.0,1236.0,,,,-0.0256322686770777,-2.15645676558529,-0.0581886672315747,,-3.7660256266356242,,
,2365.0,582.0,1826.0,709.0,1957.0,3154.0,1259.0,,,,-0.0257766889786822,-2.15624911317604,-0.0598241946167154,,-3.8666369956124593,,
,2366.0,581.0,1823.0,710.0,1961.0,3131.0,1250.0,,,,-0.0257449245403855,-2.15653942567585,-0.0594223257981572,,-3.924604232876379,,
,2367.0,585.0,1825.0,710.0,1962.0,3142.0,1257.0,,,,-0.0256587446004993,-2.1562214644869,-0.0601637963342268,,-3.94136390322296,,
,2365.0,582.0,1821.0,706.0,1966.0,3133.0,1296.0,,,,-0.0257134336394387,-2.15633336401619,-0.0596270060461086,,-3.917440489964382,,
,2364.0,583.0,1820.0,708.0,1944.0,3151.0,1249.0,,,,-0.0256538081308442,-2.15568684641011,-0.0592700601737528,,-3.8525400976650914,,
,2364.0,582.0,1819.0,708.0,1935.0,3151.0,1253.0,,,,-0.0255662665808996,-2.15556595524831,-0.058622299963556,,-3.74574543192259,,
,2365.0,581.0,1818.0,707.0,1944.0,3147.0,1253.0,,,,-0.0255145467065128,-2.15528639645898,-0.0574171173035593,,-3.595775647376833,,
,2363.0,583.0,1817.0,707.0,1955.0,3146.0,1271.0,,,,-0.0253549103398603,-2.15441923359462,-0.0564840059897029,,-3.401273085668903,,
,2362.0,580.0,1817.0,708.0,1937.0,3117.0,1267.0,,,,-0.0252856709772559,-2.15461915862051,-0.0549810255692507,,-3.1610823235793846,,
,2363.0,582.0,1815.0,707.0,1939.0,3127.0,1271.0,,,,-0.0251561473368018,-2.15387989119077,-0.054925727244313,,-2.874494985015324,,
,2360.0,582.0,1811.0,707.0,1941.0,3145.0,1271.0,,,,-0.0251258546608337,-2.15356784078562,-0.0551229479383686,,-2.5414451029586163,,
,2362.0,581.0,1812.0,706.0,1936.0,3132.0,1258.0,,,,-0.0249928567171074,-2.15293254862141,-0.0541498104134364,,-2.162652455811922,,
,2359.0,580.0,1811.0,704.0,1943.0,3139.0,1256.0,,,,-0.0249105539351442,-2.15271464925675,-0.0534689633009053,,-1.7397231209436375,,
,2360.0,579.0,1810.0,706.0,1947.0,3142.0,1269.0,,,,-0.0247637504491081,-2.15248996524308,-0.0537386812759367,,-1.2752254535397327,,
,2361.0,581.0,1810.0,703.0,1954.0,3156.0,1264.0,,,,-0.0247726539115545,-2.15090166920745,-0.0520852018000368,,-0.7727639030395018,,
,2360.0,577.0,1810.0,705.0,1945.0,3162.0,1262.0,,,,-0.0246711813175918,-2.15073625647752,-0.0518576435167888,,-0.2370709848563754,,
,2359.0,578.0,1810.0,704.0,1952.0,3161.0,1271.0,,,,-0.0245810576615574,-2.14994558730309,-0.0515970171059893,,0.3258712721297141,,
,2357.0,579.0,1810.0,704.0,1963.0,3156.0,1265.0,,,,-0.024492669184222,-2.14932691714701,-0.0505681729597509,,0.9086840355507243,,
,2359.0,579.0,1810.0,705.0,1961.0,3141.0,1248.0,,,,-0.0243544298269083,-2.14787881342985,-0.0491006427122265,,1.50244024150301,,
,2361.0,580.0,1810.0,708.0,1956.0,3146.0,1249.0,,,,-0.024262035537439,-2.14740252609285,-0.0481981731212476,,2.0965475047020603,,
,2360.0,579.0,1812.0,705.0,1958.0,3150.0,1272.0,,,,-0.0240197129473613,-2.14574070592245,-0.047033894739956,,2.678714666992003,,
,2360.0,578.0,1810.0,705.0,1950.0,3155.0,1262.0,,,,-0.0238216211964158,-2.1458714371159,-0.0459228928822302,,3.2350531668780467,,
,2362.0,579.0,1810.0,704.0,1945.0,3166.0,1252.0,,,,-0.0238829848802868,-2.14496251229376,-0.0455568926802738,,3.750356894608005,,
,2361.0,583.0,1808.0,705.0,1945.0,3159.0,1239.0,,,,-0.0236447126406742,-2.14383368819275,-0.0451959251925737,,4.208588467657309,,
,2360.0,580.0,1809.0,704.0,1951.0,3164.0,1238.0,,,,-0.0235558681995179,-2.14314504356995,-0.0433330208566572,,4.593577320495929,,
,2361.0,579.0,1809.0,703.0,1959.0,3163.0,1261.0,,,,-0.0232087525102012,-2.14196973836308,-0.0422243864813016,,4.889906899417744,,
,2360.0,579.0,1811.0,704.0,1938.0,3148.0,1245.0,,,,-0.0233137125504219,-2.14073657777509,-0.0405176218455815,,5.083936657719868,,
,2360.0,581.0,1809.0,706.0,1932.0,3141.0,1238.0,,,,-0.0230718140763084,-2.14025835122064,-0.0388061080034103,,5.164873544040041,,
,2361.0,580.0,1809.0,705.0,1934.0,3140.0,1245.0,,,,-0.0228548288199439,-2.13909001893242,-0.0383845734856367,,5.125783353005709,,
,2358.0,579.0,1808.0,701.0,1944.0,3149.0,1241.0,,,,-0.022744299993173,-2.13821895662967,-0.0379103907520106,,4.964421119378529,,
,2362.0,579.0,1810.0,706.0,1946.0,3138.0,1227.0,,,,-0.0225541683321212,-2.13732551222836,-0.0358947492178341,,4.683766305539267,,
,2359.0,580.0,1812.0,707.0,1949.0,3158.0,1257.0,,,,-0.0224987152242741,-2.13706837120734,-0.0359412829697595,,4.292174058838363,,
,2362.0,581.0,1810.0,707.0,1950.0,3154.0,1256.0,,,,-0.0223332431770443,-2.13596523994231,-0.0342794551787391,,3.8030954489380786,,
,2358.0,578.0,1808.0,704.0,1941.0,3146.0,1277.0,,,,-0.0222571387491813,-2.13524237718187,-0.0340830111172035,,3.234370754747588,,
,2362.0,578.0,1807.0,705.0,1942.0,3131.0,1277.0,,,,-0.0220758438587445,-2.1351704382726,-0.0344047717485134,,2.607151756873011,,
,2363.0,581.0,1809.0,704.0,1960.0,3151.0,1273.0,,,,-0.0220461246579815,-2.13401780556542,-0.0335197356279827,,1.9445529995089825,,
,2360.0,581.0,1811.0,705.0,1955.0,3157.0,1258.0,,,,-0.0218448158070379,-2.13335735611327,-0.0316304968963541,,1.2701617486536985,,
,2361.0,579.0,1808.0,704.0,1957.0,3153.0,1256.0,,,,-0.0218575978194358,-2.13304621976594,-0.0316902670720856,,0.6065485482275432,,
,2360.0,579.0,1810.0,704.0,1963.0,3146.0,1254.0,,,,-0.021908671766717,-2.13204770804386,-0.0319057856382323,,-0.026085466268148193,,
,2361.0,583.0,1811.0,707.0,1954.0,3172.0,1240.0,,,,-0.0217340812620454,-2.13130137946864,-0.0316986274144255,,-0.6110095137754425,,
,2362.0,580.0,1810.0,707.0,1938.0,3153.0,1243.0,,,,-0.0215903774863057,-2.13092086056674,-0.0309176170118125,,-1.1357293587608608,,
,2363.0,578.0,1809.0,704.0,1938.0,3154.0,1243.0,,,,-0.0215564883510192,-2.13047562423738,-0.0306400159792382,,-1.5923729581434742,,
2025-07-17 19:07:31,2361.0,578.0,1807.0,702.0,1946.0,3152.0,1249.0,,,2025/07/17 07:07:31 PM,-0.0213630701780941,-2.13027445561794,-0.0306875623075381,,-1.97768718999843,,
,2362.0,580.0,1808.0,703.0,1943.0,3146.0,1254.0,,,,-0.0210723297858888,-2.12925496685797,-0.0285105417356006,,-2.292671138842523,,
,2363.0,580.0,1811.0,706.0,1936.0,3142.0,1254.0,,,,-0.0210878511334723,-2.1287511052552,-0.0287749634238459,,-2.54189943121691,,
,2361.0,578.0,1811.0,703.0,1936.0,3145.0,1247.0,,,,-0.0209397276231028,-2.12830328713368,-0.0281246970187351,,-2.732610234475321,,
,2363.0,581.0,1810.0,704.0,1944.0,3148.0,1267.0,,,,-0.0208259616043439,-2.12812694061156,-0.0277459758527874,,-2.873646435456846,,
,2362.0,578.0,1809.0,704.0,1950.0,3156.0,1268.0,,,,-0.0207041739174345,-2.12720449964514,-0.0271991898240747,,-2.9743452929879832,,
,2363.0,578.0,1809.0,704.0,1941.0,3171.0,1251.0,,,,-0.0206129167310595,-2.12693847972434,-0.0266452219621592,,-3.0434717638972604,,
,2361.0,579.0,1810.0,703.0,1942.0,3157.0,1243.0,,,,-0.0206524125603075,-2.12599012362329,-0.0272699431900452,,-3.0882840337122186,,
,2360.0,582.0,1810.0,703.0,1952.0,3163.0,1274.0,,,,-0.0203324282071497,-2.12533465441907,-0.0254789418011249,,-3.113806916869484,,
,2360.0,577.0,1809.0,704.0,1944.0,3135.0,1256.0,,,,-0.0204590130249091,-2.12421050778518,-0.0250449876303514,,-3.122370331791386,,
,2363.0,580.0,1810.0,703.0,1934.0,3120.0,1267.0,,,,-0.0203733986605024,-2.12339187083805,-0.0250327237954424,,-3.1134469499930106,,
,2364.0,578.0,1811.0,706.0,1956.0,3140.0,1241.0,,,,-0.0203027686290489,-2.12290898618562,-0.0245796056516399,,-3.0837966870385025,,
,2361.0,580.0,1809.0,702.0,1968.0,3142.0,1247.0,,,,-0.0200520782300869,-2.12253439584919,-0.0248279750007678,,-3.027897817628319,,
,2362.0,579.0,1809.0,702.0,1953.0,3136.0,1274.0,,,,-0.0199337312485017,-2.1212875684827,-0.0235026584153308,,-2.9386179602343145,,
,2364.0,580.0,1811.0,705.0,1939.0,3133.0,1269.0,,,,-0.0197128834691077,-2.12049257324321,-0.0226900282984216,,-2.808056643435785,,
,2363.0,582.0,1812.0,707.0,1955.0,3136.0,1254.0,,,,-0.0196347869233487,-2.11960885205211,-0.0230791550071753,,-2.628477965547083,,
,2364.0,582.0,1811.0,705.0,1964.0,3153.0,1253.0,,,,-0.0196521552589172,-2.11933144665481,-0.0221885477114988,,-2.3932484707319226,,
,2363.0,581.0,1812.0,705.0,1963.0,3153.0,1265.0,,,,-0.0194276640185976,-2.11860214434469,-0.0214748583018985,,-2.097700978868545,,
,2363.0,581.0,1811.0,704.0,1945.0,3146.0,1257.0,,,,-0.0193792724387673,-2.11758614446623,-0.021146268943669,,-1.7398574723433264,,
,2364.0,582.0,1813.0,706.0,1941.0,3141.0,1235.0,,,,-0.0190698547622578,-2.11652952466036,-0.0210562922367138,,-1.3209606443046094,,
,2366.0,582.0,1813.0,705.0,1946.0,3114.0,1246.0,,,,-0.0191002783654499,-2.11604981346924,-0.0195592515197091,,-0.8457818795350527,,
,2365.0,580.0,1814.0,706.0,1945.0,3130.0,1271.0,,,,-0.0189414576675803,-2.11554723475905,-0.0196006863173082,,-0.32269109679987595,,
,2365.0,580.0,1814.0,704.0,1947.0,3118.0,1276.0,,,,-0.0185783351446033,-2.11425081867186,-0.0186105415472024,,0.23651056679835922,,
,2365.0,581.0,1815.0,708.0,1937.0,3160.0,1245.0,,,,-0.0184018743153168,-2.112903767627,-0.0172495310990913,,0.8169814827693491,,
,2366.0,585.0,1814.0,708.0,1957.0,3148.0,1258.0,,,,-0.018103034805976,-2.11181550094315,-0.016686426268768,,1.4014297574023207,,
,2365.0,582.0,1817.0,707.0,1964.0,3149.0,1267.0,,,,-0.0177508896602623,-2.10995522235433,-0.0151277436666872,,1.9708709011233772,,
,2364.0,581.0,1815.0,705.0,1965.0,3166.0,1289.0,,,,-0.0174538570574222,-2.10862940615137,-0.016324745944077,,2.5055141957134595,,
,2366.0,583.0,1815.0,706.0,1944.0,3155.0,1290.0,,,,-0.0171362079059439,-2.10727232004853,-0.0146961490449966,,2.98573332392314,,
,2365.0,583.0,1815.0,709.0,1951.0,3182.0,1259.0,,,,-0.0169984189736842,-2.10545101803689,-0.014044533050255,,3.39307184480711,,
,2367.0,583.0,1815.0,706.0,1955.0,3172.0,1265.0,,,,-0.016631799088759,-2.10372340183059,-0.0125566733623433,,3.7112298802171235,,
,2368.0,585.0,1818.0,706.0,1954.0,3165.0,1262.0,,,,-0.0163244245829322,-2.10264874234532,-0.0125776523790641,,3.926975337488237,,
,2369.0,579.0,1814.0,706.0,1946.0,3146.0,1252.0,,,,-0.0160025911558189,-2.10087576922867,-0.0120296842929796,,4.03092167268108,,
,2365.0,586.0,1817.0,710.0,1944.0,3141.0,1259.0,,,,-0.0157371626482794,-2.09915861256603,-0.0100919166598759,,4.018115365024269,,
,2369.0,584.0,1820.0,706.0,1952.0,3157.0,1265.0,,,,-0.0154969188317973,-2.09869554864898,-0.0100094633502756,,3.888381483005486,,
,2368.0,583.0,1816.0,707.0,1944.0,3155.0,1260.0,,,,-0.0151152879081525,-2.09646559354977,-0.0095726115299816,,3.6463872887220092,,
,2367.0,583.0,1817.0,704.0,1941.0,3158.0,1267.0,,,,-0.0148664891975511,-2.09504206918028,-0.0088784570282758,,3.301403438279693,,
,2369.0,583.0,1818.0,709.0,1939.0,3135.0,1278.0,,,,-0.0147210178622716,-2.09457390223995,-0.0087989119536729,,2.866769272558458,,
,2370.0,585.0,1819.0,708.0,1941.0,3153.0,1251.0,,,,-0.0144201461532374,-2.09325737533505,-0.0076989517418075,,2.3590991897866553,,
,2369.0,583.0,1819.0,709.0,1940.0,3147.0,1247.0,,,,-0.0140823297496317,-2.09129018858222,-0.0078124088113502,,1.797295408265081,,
,2369.0,585.0,1819.0,707.0,1944.0,3139.0,1254.0,,,,-0.0138068994270293,-2.08995409858864,-0.005915839892854,,1.2014529131813252,,
,2370.0,584.0,1822.0,708.0,1940.0,3139.0,1265.0,,,,-0.0134903056990199,-2.08908412675604,-0.0044989468654794,,0.591751270315627,,
,2371.0,583.0,1818.0,708.0,1942.0,3144.0,1245.0,,,,-0.0131427791231801,-2.08710086342438,-0.0042202816685645,,-0.012575810430635322,,
,2370.0,584.0,1820.0,710.0,1943.0,3141.0,1247.0,,,,-0.0129291657627814,-2.08711766720315,-0.0048106755552844,,-0.5941172625580619,,
,2371.0,583.0,1822.0,707.0,1955.0,3169.0,1255.0,,,,-0.0126084157319399,-2.08545175236546,-0.004041951634471,,-1.13795458710687,,
,2371.0,585.0,1820.0,707.0,1937.0,3158.0,1251.0,,,,-0.0123376960397387,-2.08377611426913,-0.0017050486017991,,-1.6320976495956119,,
,2373.0,585.0,1822.0,710.0,1938.0,3136.0,1265.0,,,,-0.0120320883508255,-2.08176379868808,-0.0008610668275264,,-2.0676840636405167,,
,2374.0,585.0,1824.0,711.0,1943.0,3138.0,1279.0,,,,-0.0117714299517692,-2.08059066481514,-0.0006686382425669,,-2.438960640101576,,
,2373.0,583.0,1824.0,712.0,1937.0,3141.0,1266.0,,,,-0.0114882632156659,-2.07900027648321,-0.0001926714097477,,-2.743079984137235,,
,2374.0,584.0,1821.0,707.0,1937.0,3131.0,1263.0,,,,-0.0112316956486543,-2.07788229178775,0.0003411430162171,,-2.9797531960707997,,
,2373.0,586.0,1824.0,711.0,1934.0,3151.0,1280.0,,,,-0.0109279909375135,-2.07708736586976,0.0016594603006884,,-3.150801656926308,,
,2375.0,588.0,1823.0,711.0,1947.0,3128.0,1281.0,,,,-0.0105963249424292,-2.076040843148,0.0025823638774379,,-3.259649019084266,,
,2376.0,586.0,1827.0,710.0,1958.0,3140.0,1270.0,,,,-0.01052656754079,-2.07553730266758,0.0019436898301399,,-3.3107907719257486,,
,2375.0,587.0,1826.0,710.0,1953.0,3150.0,1254.0,,,,-0.010456423524136,-2.07464598924446,0.0026976863984863,,-3.309274204119942,,
,2374.0,588.0,1827.0,712.0,1938.0,3148.0,1272.0,,,,-0.0102764456988437,-2.07355601884171,0.0030273740865124,,-3.2602165030837416,,
,2375.0,590.0,1826.0,713.0,1952.0,3162.0,1272.0,,,,-0.0099417558989908,-2.07289859829755,0.0033383184168292,,-3.16838331802072,,
,2377.0,589.0,1825.0,711.0,1951.0,3166.0,1270.0,,,,-0.0096824713126846,-2.07218218460853,0.0035823183050894,,-3.0378449581346336,,
,2376.0,587.0,1826.0,712.0,1942.0,3165.0,1296.0,,,,-0.0094788463129619,-2.07123174241532,0.0039021232731648,,-2.871723232308846,,
,2379.0,586.0,1825.0,709.0,1939.0,3172.0,1267.0,,,,-0.0092984431857948,-2.07077881665332,0.003885587904692,,-2.6720390843751103,,
,2377.0,588.0,1829.0,713.0,1935.0,3154.0,1259.0,,,,-0.0093275537252736,-2.07088068970092,0.0033704803416969,,-2.4396693620106746,,
,2379.0,590.0,1828.0,712.0,1932.0,3153.0,1251.0,,,,-0.0091706201742872,-2.07075984829657,0.0030468908667763,,-2.174419649926483,,
,2377.0,591.0,1829.0,713.0,1947.0,3156.0,1253.0,,,,-0.0089190445728561,-2.07014085606725,0.0038692614059119,,-1.8752183016355353,,
,2377.0,587.0,1828.0,711.0,1962.0,3147.0,1276.0,,,,-0.0088516370283701,-2.06951999283867,0.0040752895359469,,-1.5404335267582272,,
,2379.0,589.0,1832.0,713.0,1955.0,3136.0,1283.0,,,,-0.0086385734546282,-2.06914056762358,0.0049548554998788,,-1.1683092869612786,,
,2378.0,589.0,1830.0,713.0,1947.0,3138.0,1235.0,,,,-0.0085968712080532,-2.06806534207537,0.0046533398526537,,-0.7575057863225841,,
,2378.0,589.0,1830.0,714.0,1945.0,3133.0,1238.0,,,,-0.0084653437367029,-2.06861928654172,0.0041015798190642,,-0.3077165094894748,,
,2377.0,588.0,1829.0,710.0,1939.0,3149.0,1251.0,,,,-0.0084748991089699,-2.06839691485684,0.0046893376364593,,0.1796825357402724,,
,2378.0,590.0,1831.0,714.0,1945.0,3130.0,1272.0,,,,-0.0083418907934658,-2.06784989017065,0.0052728384553147,,0.7010117345619402,,
,2381.0,589.0,1834.0,714.0,1940.0,3128.0,1275.0,,,,-0.0084627151820314,-2.06756734355366,0.0050330146847931,,1.2497673459041274,,
,2379.0,589.0,1834.0,713.0,1943.0,3126.0,1284.0,,,,-0.0082655692022913,-2.06735406017646,0.0044406022189736,,1.8162782291580237,,
,2380.0,589.0,1832.0,714.0,1944.0,3133.0,1290.0,,,,-0.0081853892141123,-2.06731344562507,0.0050983968848152,,2.3876104384086347,,
,2381.0,593.0,1835.0,713.0,1954.0,3154.0,1302.0,,,,-0.007995447961851,-2.06648618087587,0.0054401097660236,,2.9477734793006287,,
,2383.0,589.0,1834.0,716.0,1946.0,3143.0,1293.0,,,,-0.0079805799736851,-2.06538891085796,0.006666329875347,,3.478255945556113,,
,2382.0,590.0,1834.0,713.0,1945.0,3154.0,1283.0,,,,-0.0079914945065674,-2.06566142454209,0.0055279956652644,,3.958885578876155,,
,2381.0,592.0,1837.0,715.0,1954.0,3147.0,1237.0,,,,-0.0077385089462101,-2.06528119271572,0.0060087539856091,,4.368972803677757,,
,2384.0,590.0,1834.0,714.0,1955.0,3162.0,1230.0,,,,-0.0076536325498953,-2.06419637807816,0.0063411546844326,,4.688661253417354,,
,2380.0,592.0,1837.0,714.0,1947.0,3161.0,1248.0,,,,-0.0075230378655041,-2.0639524518966,0.0059126924825622,,4.9003778793649095,,
,2383.0,592.0,1837.0,716.0,1947.0,3158.0,1261.0,,,,-0.0074339173249046,-2.0631456603521,0.006243305448024,,4.990253082182764,,
,2383.0,589.0,1835.0,715.0,1946.0,3159.0,1274.0,,,,-0.0072686541053853,-2.06308298633678,0.0069588179202322,,4.94937161115424,,
,2381.0,588.0,1831.0,713.0,1954.0,3150.0,1264.0,,,,-0.0072599502711502,-2.06247038995381,0.0069211625306698,,4.774720445802961,,
,2381.0,589.0,1832.0,712.0,1948.0,3145.0,1283.0,,,,-0.0070179246285699,-2.06236783068997,0.0081728619684945,,4.469721758415237,,
,2380.0,592.0,1831.0,713.0,1943.0,3134.0,1280.0,,,,-0.0070204145985977,-2.062047458468,0.007081037259079,,4.044276462720213,,
,2383.0,592.0,1831.0,713.0,1943.0,3135.0,1273.0,,,,-0.0069479772000422,-2.06137748399891,0.007741894722826,,3.514293083912918,,
,2379.0,589.0,1828.0,712.0,1940.0,3135.0,1291.0,,,,-0.0067190664447095,-2.06080513408747,0.0085939569110053,,2.900731342742469,,
,2377.0,587.0,1828.0,711.0,1938.0,3130.0,1281.0,,,,-0.006570433780736,-2.06012547103805,0.0078456932103991,,2.2282421631597114,,
,2378.0,587.0,1827.0,712.0,1938.0,3136.0,1257.0,,,,-0.0064623206224481,-2.05936929259298,0.0085072271630648,,1.5235284051461186,,
,2376.0,588.0,1825.0,710.0,1939.0,3134.0,1259.0,,,,-0.0064037620999066,-2.05935973451563,0.0090809429410902,,0.8135777333097645,,
,2378.0,587.0,1824.0,710.0,1960.0,3137.0,1286.0,,,,-0.0062509126563845,-2.05873554297892,0.0092205370833435,,0.12392741619916697,,
,2375.0,588.0,1819.0,708.0,1948.0,3138.0,1272.0,,,,-0.0061784796163579,-2.05809645690395,0.0093132938059706,,-0.522889375774039,,
,2373.0,586.0,1823.0,711.0,1939.0,3138.0,1249.0,,,,-0.0062630069794496,-2.05849844076268,0.0086139074883802,,-1.1085916110919563,,
,2376.0,587.0,1822.0,710.0,1938.0,3132.0,1271.0,,,,-0.0062241374733756,-2.05858220168143,0.0081426998814049,,-1.6200039382234497,,
,2373.0,589.0,1820.0,707.0,1947.0,3128.0,1281.0,,,,-0.0060938154131117,-2.05809134478271,0.0091660259817773,,-2.0494669658099056,,
,2373.0,587.0,1817.0,706.0,1954.0,3134.0,1291.0,,,,-0.0062075529160639,-2.05754025304874,0.0091903136284116,,-2.3947962636835496,,
,2376.0,586.0,1821.0,709.0,1946.0,3133.0,1254.0,,,,-0.0061063879887642,-2.05714166101042,0.0090804735249595,,-2.6588203776254735,,
,2374.0,587.0,1820.0,708.0,1947.0,3149.0,1259.0,,,,-0.0061030320813281,-2.05712107433324,0.0096407812452355,,-2.8485614506722277,,
,2373.0,588.0,1820.0,710.0,1953.0,3150.0,1274.0,,,,-0.0061019308180522,-2.05746160275341,0.0094209966520689,,-2.9741480807908727,,
,2374.0,585.0,1820.0,710.0,1955.0,3159.0,1257.0,,,,-0.0058893484011604,-2.05746509691572,0.009331390240984,,-3.047567132633265,,
,2374.0,586.0,1818.0,710.0,1949.0,3138.0,1238.0,,,,-0.0060232711650296,-2.05753417776897,0.0104252028554673,,-3.0813685260754977,,
,2373.0,586.0,1819.0,709.0,1942.0,3163.0,1247.0,,,,-0.0059210240790362,-2.0568138105035,0.0102399877897744,,-3.087434574816698,,
,2373.0,587.0,1821.0,708.0,1938.0,3152.0,1252.0,,,,-0.0059528438507462,-2.0573168140322,0.0099957764815979,,-3.0759139673952087,,
,2374.0,585.0,1819.0,709.0,1950.0,3143.0,1279.0,,,,-0.0060598572908544,-2.0574690078079,0.0099040390607273,,-3.0544012368263598,,
,2372.0,587.0,1818.0,708.0,1949.0,3146.0,1261.0,,,,-0.0060559825238398,-2.0571122635063,0.009714653431029,,-3.0274172207393995,,
,2374.0,586.0,1819.0,709.0,1946.0,3132.0,1240.0,,,,-0.0058902567589485,-2.05694286776991,0.0091354679244593,,-2.9962165111640875,,
,2376.0,587.0,1819.0,709.0,1945.0,3143.0,1234.0,,,,-0.0059872333852756,-2.05779153713134,0.009168504013349,,-2.9589165731178064,,
,2374.0,587.0,1819.0,707.0,1949.0,3142.0,1254.0,,,,-0.0060330926769869,-2.05713598069938,0.0097557498197926,,-2.9109132299285543,,
,2372.0,584.0,1819.0,707.0,1955.0,3146.0,1272.0,,,,-0.0059554491731183,-2.05700502867479,0.0105775230038224,,-2.845522496068693,,
,2372.0,585.0,1818.0,709.0,1953.0,3149.0,1288.0,,,,-0.0059333654452108,-2.05762247500035,0.0094142230099962,,-2.7547728037140065,,
,2372.0,589.0,1819.0,708.0,1942.0,3128.0,1289.0,,,,-0.0059750393699424,-2.05727983301659,0.0096871869620507,,-2.630266092325374,,
