TimeLabel,MEAS1_PPG1,MEAS1_PPG2,MEAS1_PPG3,MEAS1_PPG4,ACCX,ACCY,ACCZ,HR_timestamp,HR_value,radar_timestamp,phase_rx0,phase_rx1,phase_rx2,timestep,n_process,original_rate,calculated_rate
2025-07-04 00:34:03,2308.0,747.0,2476.0,842.0,2351.0,2462.0,1955.0,2025-07-04 00:34:03,63.0,2025/07/04 12:34:03 AM,-0.471661573228304,-2.84346576883144,-0.716884018525073,2025/07/04 12:34:03 AM,3.5598219874025356,0.0,18.948412698412696
,2311.0,746.0,2476.0,844.0,2364.0,2459.0,1968.0,2025-07-04 00:34:04,63.0,,-0.471443428967763,-2.84342035320006,-0.717430812718208,2025/07/04 12:34:13 AM,3.5177705922984646,18.012008666992188,19.26406926406927
,2309.0,747.0,2476.0,842.0,2376.0,2464.0,1962.0,2025-07-04 00:34:05,63.0,,-0.471870953997404,-2.84364722895617,-0.716639454594023,2025/07/04 12:34:23 AM,3.421415820907022,18.181818008422848,21.267260565916317
,2312.0,748.0,2478.0,843.0,2385.0,2464.0,1942.0,2025-07-04 00:34:06,64.0,,-0.472211935005582,-2.84381538029568,-0.717390664776762,2025/07/04 12:34:33 AM,3.2745948575220685,19.76573944091797,20.835945663531874
,2314.0,748.0,2482.0,843.0,2374.0,2459.0,1949.0,2025-07-04 00:34:07,64.0,,-0.472171497340588,-2.84396085118873,-0.717739521548688,2025/07/04 12:34:43 AM,3.0827812994828494,20.44989776611328,21.89011714238576
,2314.0,750.0,2483.0,846.0,2376.0,2466.0,1953.0,2025-07-04 00:34:08,64.0,,-0.472511838244068,-2.84419741005175,-0.718356076571715,2025/07/04 12:34:53 AM,2.8526781594029234,21.14164924621582,24.014128728414445
,2312.0,747.0,2484.0,846.0,2377.0,2482.0,1934.0,2025-07-04 00:34:09,64.0,,-0.47319198770425,-2.84419516706084,-0.71882518632799,2025/07/04 12:35:03 AM,2.591750629720443,22.12389373779297,21.06993214932552
,2313.0,751.0,2487.0,847.0,2395.0,2480.0,1953.0,2025-07-04 00:34:10,64.0,,-0.47319794560705,-2.84410107807604,-0.718527723320441,2025/07/04 12:35:13 AM,2.30774938901933,22.41847801208496,20.181190681622102
,2318.0,752.0,2489.0,848.0,2381.0,2474.0,1943.0,2025-07-04 00:34:11,64.0,,-0.473531686560976,-2.84426786954276,-0.719467945606256,2025/07/04 12:35:23 AM,2.008270595894258,21.7391300201416,20.774157616262872
,2317.0,752.0,2490.0,850.0,2378.0,2469.0,1964.0,2025-07-04 00:34:12,64.0,,-0.473611361079136,-2.84414078698019,-0.720151286793998,2025/07/04 12:35:33 AM,1.7003878455281032,20.632736206054688,21.359106941067697
,2320.0,752.0,2491.0,848.0,2382.0,2475.0,1967.0,2025-07-04 00:34:13,64.0,,-0.473677024386126,-2.8441927627586,-0.719879530743994,2025/07/04 12:35:43 AM,1.3903778807864653,20.673812866210938,21.818181818181817
,2320.0,751.0,2492.0,849.0,2390.0,2470.0,1959.0,2025-07-04 00:34:14,64.0,,-0.473813025166173,-2.84450825153125,-0.719966497974144,2025/07/04 12:35:53 AM,1.0835489165723364,21.32196044921875,19.23199607410133
,2321.0,756.0,2492.0,851.0,2378.0,2470.0,1961.0,2025-07-04 00:34:15,64.0,,-0.47380916247803,-2.84443038988691,-0.719210655936637,2025/07/04 12:36:03 AM,0.7841697732931058,20.775623321533203,21.013981833216118
,2325.0,755.0,2496.0,852.0,2387.0,2464.0,1959.0,2025-07-04 00:34:16,64.0,,-0.473720819794094,-2.84422210561114,-0.719659520456387,2025/07/04 12:36:13 AM,0.4954899464526386,20.93510055541992,19.682886823400754
,2324.0,753.0,2498.0,852.0,2391.0,2464.0,1961.0,2025-07-04 00:34:17,65.0,,-0.473637453952456,-2.84426170463725,-0.719234656288313,2025/07/04 12:36:23 AM,0.2198348469353382,19.9115047454834,21.541236541236568
,2325.0,754.0,2497.0,853.0,2398.0,2468.0,1962.0,2025-07-04 00:34:18,66.0,,-0.473937448698532,-2.84434489550656,-0.718892034149645,2025/07/04 12:36:33 AM,-0.041243732071460454,20.673812866210938,22.80817221993691
,2326.0,756.0,2500.0,853.0,2380.0,2471.0,1942.0,2025-07-04 00:34:19,67.0,,-0.473945140618616,-2.84422082802605,-0.719276332717103,2025/07/04 12:36:43 AM,-0.28678448411510665,21.276596069335938,22.472065670178843
,2326.0,755.0,2502.0,852.0,2379.0,2467.0,1951.0,2025-07-04 00:34:20,67.0,,-0.474058121104423,-2.84420946003673,-0.719232298897925,2025/07/04 12:36:53 AM,-0.5162242880406563,22.23869514465332,20.710747331868408
,2330.0,757.0,2502.0,857.0,2377.0,2460.0,1955.0,2025-07-04 00:34:21,66.0,,-0.474030742447764,-2.84423569757172,-0.719125103401318,,-0.7292192944941619,,
,2329.0,758.0,2506.0,854.0,2368.0,2442.0,1949.0,2025-07-04 00:34:22,66.0,,-0.473851147994914,-2.84436936835115,-0.71835664481443,,-0.9254991325709251,,
,2331.0,755.0,2506.0,856.0,2368.0,2459.0,1948.0,2025-07-04 00:34:23,65.0,,-0.473672445714734,-2.84440712048631,-0.719326865801821,,-1.104769412816812,,
,2332.0,756.0,2506.0,857.0,2365.0,2467.0,1942.0,2025-07-04 00:34:24,65.0,,-0.473982874197996,-2.84450463126838,-0.719430015890455,,-1.2666716772247373,,
,2333.0,757.0,2510.0,857.0,2377.0,2463.0,1958.0,2025-07-04 00:34:25,65.0,,-0.473868723931513,-2.84451104212995,-0.718827528619837,,-1.4108027629908746,,
,2336.0,761.0,2511.0,857.0,2384.0,2466.0,1948.0,2025-07-04 00:34:26,65.0,,-0.47390348113342,-2.8445208566015,-0.719212159529563,,-1.5367876456425824,,
,2333.0,759.0,2511.0,857.0,2377.0,2473.0,1954.0,2025-07-04 00:34:27,66.0,,-0.474139060224421,-2.84443739733361,-0.7185076302314,,-1.6443919612413183,,
,2337.0,759.0,2515.0,860.0,2372.0,2471.0,1963.0,2025-07-04 00:34:28,66.0,,-0.473856058342876,-2.84450437056773,-0.719160203600939,,-1.733653768510996,,
,2338.0,762.0,2515.0,860.0,2389.0,2470.0,1960.0,2025-07-04 00:34:29,67.0,,-0.473885580871409,-2.84459890833996,-0.719245529900846,,-1.8050101362808524,,
,2338.0,760.0,2515.0,862.0,2393.0,2474.0,1967.0,2025-07-04 00:34:30,68.0,,-0.474221279091234,-2.84446210831295,-0.719168642168419,,-1.8593939211342907,,
,2337.0,761.0,2515.0,861.0,2378.0,2481.0,1943.0,2025-07-04 00:34:31,68.0,,-0.474060465447944,-2.84436109130952,-0.719359898072452,,-1.8982797933275242,,
,2337.0,760.0,2516.0,860.0,2365.0,2478.0,1954.0,2025-07-04 00:34:32,68.0,,-0.474133872553223,-2.84436178022096,-0.71939636240265,,-1.923665334519666,,
,2336.0,761.0,2517.0,859.0,2371.0,2467.0,1949.0,2025-07-04 00:34:33,68.0,,-0.473947788770622,-2.84469528882199,-0.719257055901438,,-1.9379815101091349,,
,2335.0,760.0,2515.0,861.0,2376.0,2462.0,1952.0,2025-07-04 00:34:34,68.0,,-0.473979974405663,-2.84464333476775,-0.71953768035715,,-1.94393570160222,,
,2333.0,757.0,2514.0,860.0,2383.0,2462.0,1954.0,2025-07-04 00:34:35,69.0,,-0.474120532534514,-2.84457494661233,-0.718770530880481,,-1.944298761934443,,
,2331.0,756.0,2509.0,856.0,2388.0,2464.0,1941.0,2025-07-04 00:34:36,69.0,,-0.473728174633988,-2.84456573787618,-0.719036246004084,,-1.9416544819149415,,
,2328.0,758.0,2509.0,856.0,2374.0,2468.0,1941.0,2025-07-04 00:34:37,70.0,,-0.473671951751025,-2.84439999446734,-0.718490963315772,,-1.9381348498832334,,
,2329.0,755.0,2503.0,855.0,2371.0,2460.0,1949.0,2025-07-04 00:34:38,71.0,,-0.473260908760151,-2.84447110198026,-0.718160084845959,,-1.9351671450254804,,
,2324.0,754.0,2501.0,855.0,2374.0,2456.0,1950.0,2025-07-04 00:34:39,71.0,,-0.473312269221795,-2.84430757602452,-0.718635594993766,,-1.933259069821134,,
,2322.0,752.0,2498.0,852.0,2358.0,2470.0,1965.0,2025-07-04 00:34:40,71.0,,-0.473232095763285,-2.84423013682471,-0.718524396092241,,-1.9318459000242363,,
,2322.0,751.0,2496.0,849.0,2364.0,2466.0,1958.0,2025-07-04 00:34:41,71.0,,-0.473028061223774,-2.84456137867066,-0.718022886078994,,-1.9292192673728619,,
,2321.0,752.0,2494.0,849.0,2355.0,2470.0,1953.0,2025-07-04 00:34:42,71.0,,-0.473379089509376,-2.84418219336133,-0.718279485732972,,-1.922550964355361,,
,2319.0,750.0,2492.0,848.0,2361.0,2467.0,1945.0,2025-07-04 00:34:43,70.0,,-0.473243270253456,-2.84426623433195,-0.718367526813993,,-1.9080173366547004,,
,2317.0,748.0,2489.0,848.0,2376.0,2452.0,1946.0,2025-07-04 00:34:44,70.0,,-0.473191303366072,-2.84420958475919,-0.719106167302301,,-1.8810207842127014,,
,2317.0,749.0,2483.0,847.0,2379.0,2457.0,1955.0,2025-07-04 00:34:45,70.0,,-0.473442272871247,-2.84424839069284,-0.717967035139827,,-1.8364952603196072,,
,2315.0,749.0,2485.0,847.0,2382.0,2462.0,1944.0,2025-07-04 00:34:46,69.0,,-0.473362012862481,-2.84427414366703,-0.718317962932154,,-1.7692733875644941,,
,2317.0,749.0,2484.0,846.0,2395.0,2465.0,1940.0,2025-07-04 00:34:47,69.0,,-0.473247789872921,-2.84418047942939,-0.718315099767483,,-1.6744851744135727,,
,2314.0,748.0,2483.0,845.0,2397.0,2468.0,1935.0,2025-07-04 00:34:48,69.0,,-0.473368846087906,-2.8442302805873,-0.718531855876677,,-1.5479538864801485,,
,2313.0,744.0,2480.0,843.0,2392.0,2469.0,1934.0,2025-07-04 00:34:49,70.0,,-0.473191345895953,-2.84428623065123,-0.71796335506999,,-1.3865549040287908,,
,2311.0,747.0,2479.0,843.0,2389.0,2464.0,1928.0,2025-07-04 00:34:50,71.0,,-0.473008299987201,-2.84412069880298,-0.717946609182306,,-1.188508939868468,,
,2311.0,745.0,2481.0,844.0,2393.0,2470.0,1913.0,2025-07-04 00:34:51,72.0,,-0.472933048535411,-2.84438893789114,-0.717633368536759,,-0.953590595512361,,
,2311.0,745.0,2478.0,844.0,2393.0,2467.0,1924.0,2025-07-04 00:34:52,72.0,,-0.472942435916675,-2.84421074832071,-0.717723911670446,,-0.6832441510634828,,
,2312.0,745.0,2475.0,841.0,2376.0,2467.0,1938.0,2025-07-04 00:34:53,71.0,,-0.47278721802287,-2.84409474449301,-0.716935688132409,,-0.38060779608671763,,
,2308.0,744.0,2474.0,840.0,2396.0,2463.0,1949.0,2025-07-04 00:34:54,71.0,,-0.472887500061564,-2.84405682840429,-0.717094903772891,,-0.05045353139790176,,
,2310.0,746.0,2476.0,843.0,2400.0,2462.0,1951.0,2025-07-04 00:34:55,70.0,,-0.472743557473425,-2.84406881240927,-0.717514205020524,,0.3009473555481477,,
,2309.0,743.0,2474.0,841.0,2398.0,2469.0,1953.0,2025-07-04 00:34:56,69.0,,-0.472518203297306,-2.8440126932835,-0.717432243890275,,0.6660230278179942,,
,2308.0,745.0,2471.0,840.0,2398.0,2469.0,1967.0,2025-07-04 00:34:57,68.0,,-0.472721213741409,-2.84399493026448,-0.717430797254392,,1.036154643720415,,
,2306.0,740.0,2469.0,838.0,2395.0,2474.0,1960.0,2025-07-04 00:34:58,67.0,,-0.472353744123545,-2.84387956111279,-0.716798127152029,,1.4019762213527867,,
,2306.0,745.0,2468.0,838.0,2401.0,2475.0,1942.0,2025-07-04 00:34:59,67.0,,-0.472530590929171,-2.84399143929537,-0.71712392240257,,1.7537126768583617,,
,2306.0,744.0,2468.0,839.0,2386.0,2468.0,1943.0,2025-07-04 00:35:00,67.0,,-0.472136888093548,-2.843915515852,-0.716468559208789,,2.0815472237625894,,
,2304.0,744.0,2467.0,837.0,2386.0,2473.0,1946.0,2025-07-04 00:35:01,66.0,,-0.472020565477481,-2.8440528042436,-0.716488729667958,,2.3760074395469406,,
,2304.0,740.0,2463.0,835.0,2383.0,2454.0,1944.0,2025-07-04 00:35:02,66.0,,-0.472043956574656,-2.84402056003208,-0.715951572898851,,2.6283563206052425,,
,2303.0,741.0,2465.0,836.0,2377.0,2461.0,1967.0,2025-07-04 00:35:03,66.0,,-0.472097936674282,-2.84383280428308,-0.716126656211371,,2.8309711022025716,,
,2303.0,744.0,2464.0,838.0,2368.0,2461.0,1972.0,2025-07-04 00:35:04,66.0,,-0.471880641870695,-2.84373964672355,-0.715324834814403,,2.977689464422674,,
,2305.0,743.0,2464.0,837.0,2380.0,2460.0,1942.0,2025-07-04 00:35:05,66.0,,-0.471479294521049,-2.84387797091292,-0.715703245703525,,3.0641010520877847,,
,2303.0,741.0,2462.0,838.0,2384.0,2462.0,1948.0,2025-07-04 00:35:06,66.0,,-0.471959944976433,-2.84371814855731,-0.716163393551555,,3.087762799918041,,
,2304.0,740.0,2462.0,836.0,2388.0,2461.0,1957.0,2025-07-04 00:35:07,65.0,,-0.471769873272562,-2.8436273996309,-0.715891071831996,,3.048319669602278,,
,2305.0,743.0,2464.0,837.0,2383.0,2463.0,1950.0,2025-07-04 00:35:08,65.0,,-0.471529427163127,-2.84350621966694,-0.715666834619847,,2.9475179922935295,,
,2304.0,742.0,2463.0,837.0,2383.0,2467.0,1941.0,2025-07-04 00:35:09,65.0,,-0.471496946614734,-2.84361290676048,-0.715639173430167,,2.7891063712990714,,
,2301.0,739.0,2459.0,834.0,2380.0,2465.0,1953.0,2025-07-04 00:35:10,65.0,,-0.471284762969042,-2.84362657692945,-0.714831323117401,,2.5786283623920356,,
,2301.0,740.0,2462.0,836.0,2385.0,2469.0,1956.0,2025-07-04 00:35:11,65.0,,-0.471268359867092,-2.84349417513139,-0.714687424438125,,2.323120636192671,,
,2303.0,739.0,2460.0,838.0,2389.0,2464.0,1952.0,2025-07-04 00:35:12,65.0,,-0.471051622411539,-2.84337866130912,-0.714116292486823,,2.030738435823212,,
,2304.0,739.0,2461.0,834.0,2395.0,2467.0,1961.0,2025-07-04 00:35:13,65.0,,-0.471405390773436,-2.84337895664036,-0.714854329999779,,1.710335654575409,,
,2304.0,741.0,2461.0,837.0,2384.0,2464.0,1956.0,2025-07-04 00:35:14,66.0,,-0.471083131974504,-2.84351347345782,-0.714595077970908,,1.3710293511641904,,
,2304.0,740.0,2461.0,836.0,2395.0,2462.0,1950.0,2025-07-04 00:35:15,66.0,,-0.470911407528262,-2.84324088628154,-0.714953640419975,,1.021778145503841,,
,2303.0,740.0,2461.0,835.0,2405.0,2459.0,1951.0,2025-07-04 00:35:16,65.0,,-0.47078782606823,-2.84342689872933,-0.714307277725894,,0.6710009974150615,,
,2301.0,740.0,2462.0,837.0,2397.0,2467.0,1957.0,2025-07-04 00:35:17,65.0,,-0.470788484771144,-2.84331901291716,-0.714230243284474,,0.3262577028811551,,
,2303.0,741.0,2460.0,836.0,2393.0,2466.0,1948.0,2025-07-04 00:35:18,65.0,,-0.470658832331536,-2.84329672115402,-0.713972179120112,,-0.0059944114295928,,
,2304.0,741.0,2462.0,835.0,2388.0,2463.0,1958.0,2025-07-04 00:35:19,64.0,,-0.470356887037787,-2.84325348088502,-0.714130041079097,,-0.320560792086227,,
,2302.0,740.0,2457.0,835.0,2390.0,2472.0,1960.0,2025-07-04 00:35:20,64.0,,-0.470142023210802,-2.84329021544762,-0.713553564759324,,-0.61358756269328,,
,2305.0,739.0,2461.0,837.0,2381.0,2469.0,1946.0,2025-07-04 00:35:21,63.0,,-0.470105866436306,-2.84333224878697,-0.71410707164671,,-0.8825636606946302,,
,2304.0,739.0,2461.0,839.0,2377.0,2472.0,1933.0,2025-07-04 00:35:22,63.0,,-0.470201541708401,-2.84323767104085,-0.714977732267015,,-1.1262576527304675,,
,2303.0,740.0,2460.0,837.0,2379.0,2474.0,1933.0,2025-07-04 00:35:23,63.0,,-0.470171039288983,-2.84334883521777,-0.7139569468487,,-1.3446009149099178,,
,2302.0,740.0,2457.0,835.0,2385.0,2459.0,1943.0,2025-07-04 00:35:24,63.0,,-0.470455303507057,-2.84326004537698,-0.713646278094283,,-1.5385278895573382,,
,2305.0,741.0,2459.0,835.0,2375.0,2463.0,1950.0,2025-07-04 00:35:25,63.0,,-0.470309534695362,-2.84324426252808,-0.713640758900811,,-1.7097820527333698,,
,2304.0,741.0,2462.0,836.0,2372.0,2458.0,1963.0,2025-07-04 00:35:26,64.0,,-0.47024749096349,-2.84307508965058,-0.713301629025667,,-1.8606945303890152,,
,2306.0,741.0,2460.0,837.0,2381.0,2472.0,1943.0,2025-07-04 00:35:27,64.0,,-0.470021599455343,-2.84318720667368,-0.7133063427495,,-1.9939420745888665,,
,2306.0,743.0,2462.0,838.0,2384.0,2475.0,1945.0,2025-07-04 00:35:28,64.0,,-0.469878567814581,-2.84290986106079,-0.71315345388271,,-2.1122925036894094,,
,2306.0,742.0,2461.0,836.0,2385.0,2477.0,1960.0,2025-07-04 00:35:29,65.0,,-0.469698133890307,-2.84301673157666,-0.713166290541427,,-2.21834806309974,,
,2306.0,741.0,2463.0,840.0,2388.0,2471.0,1953.0,2025-07-04 00:35:30,65.0,,-0.469689539083445,-2.84298568507865,-0.712929759630856,,-2.3142995868790406,,
,2310.0,744.0,2467.0,842.0,2387.0,2472.0,1937.0,2025-07-04 00:35:31,65.0,,-0.469610741343203,-2.84284048448518,-0.712537452583198,,-2.4017061787144307,,
,2308.0,743.0,2465.0,838.0,2385.0,2467.0,1941.0,2025-07-04 00:35:32,65.0,,-0.469080242186062,-2.84301864515598,-0.7122679378863,,-2.481316027348692,,
,2307.0,740.0,2464.0,838.0,2376.0,2472.0,1956.0,2025-07-04 00:35:33,65.0,,-0.468975703364679,-2.84279729783764,-0.712259499379762,,-2.55294367804743,,
,2309.0,743.0,2466.0,838.0,2396.0,2472.0,1945.0,2025-07-04 00:35:34,65.0,,-0.468959775806723,-2.84291073656795,-0.712800922176045,,-2.615417333934514,,
,2312.0,741.0,2468.0,839.0,2388.0,2465.0,1952.0,2025-07-04 00:35:35,65.0,,-0.468880835510762,-2.84284601963011,-0.711868551557373,,-2.6666063481921944,,
,2311.0,744.0,2468.0,841.0,2390.0,2466.0,1955.0,2025-07-04 00:35:36,66.0,,-0.468534372391339,-2.8427533220301,-0.712197523813336,,-2.70353395715029,,
,2309.0,742.0,2467.0,837.0,2387.0,2473.0,1948.0,2025-07-04 00:35:37,66.0,,-0.468417642235248,-2.8426019970392,-0.711231030634019,,-2.7225737001244155,,
,2311.0,743.0,2468.0,840.0,2394.0,2466.0,1949.0,2025-07-04 00:35:38,66.0,,-0.468489559352511,-2.84252808654005,-0.71184396568002,,-2.71972032745536,,
,2312.0,744.0,2470.0,842.0,2387.0,2469.0,1963.0,2025-07-04 00:35:39,66.0,,-0.468550911767194,-2.84258792012617,-0.711629584149541,,-2.6909179977867184,,
,2315.0,746.0,2472.0,844.0,2396.0,2464.0,1945.0,2025-07-04 00:35:40,66.0,,-0.468230955770718,-2.84250998969676,-0.711621027401099,,-2.632421066271876,,
,2314.0,746.0,2470.0,843.0,2390.0,2464.0,1942.0,2025-07-04 00:35:41,66.0,,-0.468324051429515,-2.84258705122271,-0.711411210604859,,-2.54115669968583,,
,2312.0,744.0,2473.0,843.0,2388.0,2467.0,1950.0,2025-07-04 00:35:42,66.0,,-0.468268370380192,-2.84251791210814,-0.711194952182446,,-2.415054874809994,,
,2315.0,744.0,2476.0,843.0,2385.0,2470.0,1945.0,2025-07-04 00:35:43,67.0,,-0.468049047970072,-2.84246163679145,-0.711304619428632,,-2.2533110457040113,,
,2316.0,745.0,2477.0,843.0,2380.0,2467.0,1938.0,2025-07-04 00:35:44,67.0,,-0.468519272117268,-2.84254177824355,-0.711086447639295,,-2.05655094844114,,
,2317.0,746.0,2477.0,847.0,2378.0,2467.0,1941.0,2025-07-04 00:35:45,68.0,,-0.468357998800797,-2.84236033504835,-0.710765214551554,,-1.826876214937159,,
,2316.0,746.0,2476.0,846.0,2385.0,2459.0,1936.0,2025-07-04 00:35:46,68.0,,-0.468262477776621,-2.84226760052227,-0.7107855455717,,-1.5677829536407126,,
,2318.0,747.0,2477.0,846.0,2387.0,2471.0,1927.0,2025-07-04 00:35:47,68.0,,-0.467827735455929,-2.8423523986755,-0.711061850058163,,-1.283960841984704,,
,2320.0,747.0,2480.0,847.0,2377.0,2470.0,1947.0,2025-07-04 00:35:48,68.0,,-0.467962768494093,-2.84237447823062,-0.71062196027103,,-0.9809943367044813,,
,2320.0,750.0,2483.0,847.0,2384.0,2467.0,1950.0,2025-07-04 00:35:49,68.0,,-0.467632706075333,-2.84246265369601,-0.71091328264108,,-0.6649977673214418,,
,2322.0,748.0,2480.0,848.0,2385.0,2463.0,1948.0,2025-07-04 00:35:50,67.0,,-0.467914298438293,-2.84244945212278,-0.710615236382002,,-0.3422213486913953,,
,2319.0,748.0,2483.0,847.0,2388.0,2470.0,1949.0,2025-07-04 00:35:51,67.0,,-0.467646169814956,-2.84230770402495,-0.710745820357541,,-0.018665888177394094,,
,2322.0,749.0,2482.0,848.0,2392.0,2474.0,1947.0,2025-07-04 00:35:52,67.0,,-0.467413859646492,-2.84223231012226,-0.710041393771283,,0.3002589512269672,,
,2322.0,748.0,2484.0,849.0,2397.0,2470.0,1946.0,2025-07-04 00:35:53,67.0,,-0.467287576977052,-2.84215390875267,-0.710010017874571,,0.6100037003728762,,
,2324.0,750.0,2484.0,851.0,2391.0,2469.0,1952.0,2025-07-04 00:35:54,67.0,,-0.467289258777652,-2.84206611787226,-0.71065614625534,,0.9070541521010141,,
,2325.0,749.0,2489.0,849.0,2381.0,2473.0,1943.0,2025-07-04 00:35:55,67.0,,-0.467011003369262,-2.84208141607616,-0.709470311653742,,1.1890003995104197,,
,2326.0,748.0,2487.0,851.0,2390.0,2470.0,1938.0,2025-07-04 00:35:56,68.0,,-0.466828007650014,-2.84203520395595,-0.710093828036147,,1.4544976860990062,,
,2329.0,752.0,2490.0,852.0,2384.0,2464.0,1945.0,2025-07-04 00:35:57,68.0,,-0.4666698807496,-2.84186380377448,-0.709113723655637,,1.7031266943587202,,
,2328.0,751.0,2491.0,852.0,2390.0,2463.0,1930.0,2025-07-04 00:35:58,68.0,,-0.466591617438446,-2.84192328442372,-0.709760498820455,,1.9351699561126186,,
,2327.0,751.0,2491.0,853.0,2380.0,2465.0,1949.0,2025-07-04 00:35:59,68.0,,-0.466410910769133,-2.84184033207927,-0.709096995240278,,2.151328868447989,,
,2329.0,752.0,2491.0,851.0,2377.0,2472.0,1954.0,2025-07-04 00:36:00,68.0,,-0.466547363521714,-2.84194331030603,-0.70927194032617,,2.352411701454316,,
,2331.0,753.0,2495.0,853.0,2376.0,2472.0,1949.0,2025-07-04 00:36:01,68.0,,-0.466525434648012,-2.84200669678514,-0.709245880579538,,2.5390261082181484,,
,2330.0,753.0,2494.0,855.0,2389.0,2478.0,1947.0,2025-07-04 00:36:02,67.0,,-0.466545863027864,-2.84213447800979,-0.709168373688445,,2.711309158345549,,
,2332.0,752.0,2495.0,854.0,2381.0,2476.0,1951.0,2025-07-04 00:36:03,67.0,,-0.466671280163486,-2.84217399689591,-0.710282971458296,,2.8687235907552697,,
,2330.0,753.0,2497.0,855.0,2359.0,2469.0,1950.0,2025-07-04 00:36:04,67.0,,-0.467031488260779,-2.84234152037822,-0.709940334715035,,3.0099414858495908,,
,2332.0,752.0,2497.0,856.0,2388.0,2470.0,1932.0,2025-07-04 00:36:05,68.0,,-0.467847534879353,-2.84237794676648,-0.711079107806648,,3.1328271349387595,,
,2336.0,753.0,2502.0,856.0,2376.0,2473.0,1931.0,2025-07-04 00:36:06,68.0,,-0.46785998003644,-2.84267119905277,-0.710849838051046,,3.234520798363939,,
,2334.0,755.0,2503.0,860.0,2377.0,2470.0,1936.0,2025-07-04 00:36:07,68.0,,-0.468121730814156,-2.84276057862952,-0.712333800434124,,3.3116152443177,,
,2335.0,756.0,2504.0,856.0,2375.0,2477.0,1959.0,2025-07-04 00:36:08,68.0,,-0.468551302186073,-2.84277780275861,-0.712240704230338,,3.3604081383452082,,
,2335.0,752.0,2502.0,858.0,2364.0,2469.0,1939.0,2025-07-04 00:36:09,68.0,,-0.468809089474623,-2.84275668321073,-0.712076943676201,,3.377206171732942,,
,2338.0,755.0,2508.0,858.0,2382.0,2475.0,1938.0,2025-07-04 00:36:10,69.0,,-0.469233808197389,-2.84283928687318,-0.713287345031732,,3.3586519666275887,,
2025-07-04 00:34:04,2340.0,757.0,2509.0,861.0,2381.0,2466.0,1948.0,2025-07-04 00:36:11,69.0,2025/07/04 12:34:04 AM,-0.469666202094778,-2.8428681017752,-0.7136941965631,,3.3020427693846663,,
,2340.0,759.0,2511.0,862.0,2385.0,2461.0,1951.0,2025-07-04 00:36:12,69.0,,-0.469526784708825,-2.84301452986439,-0.713419163779753,,3.2056108331517437,,
,2339.0,755.0,2508.0,859.0,2393.0,2464.0,1944.0,2025-07-04 00:36:13,70.0,,-0.469737789345985,-2.84322772838014,-0.713413939944029,,3.068738973616914,,
,2341.0,759.0,2511.0,862.0,2378.0,2461.0,1949.0,2025-07-04 00:36:14,71.0,,-0.469551880136884,-2.84305220787898,-0.713406760326799,,2.8920907697428953,,
,2342.0,758.0,2515.0,861.0,2377.0,2460.0,1942.0,2025-07-04 00:36:15,72.0,,-0.469879031052061,-2.84306779683302,-0.714463726824346,,2.6776430299877854,,
,2342.0,756.0,2513.0,863.0,2373.0,2461.0,1948.0,2025-07-04 00:36:16,73.0,,-0.469910802510149,-2.84320948189549,-0.713615660028113,,2.4286180607335286,,
,2342.0,757.0,2515.0,860.0,2378.0,2465.0,1917.0,2025-07-04 00:36:17,72.0,,-0.469843147513361,-2.8433317451508,-0.714040340481219,,2.1493240192798297,,
,2344.0,756.0,2517.0,863.0,2396.0,2459.0,1929.0,2025-07-04 00:36:18,72.0,,-0.469692123752288,-2.84315748814719,-0.71376082562089,,1.844921529043957,,
,2344.0,759.0,2520.0,864.0,2375.0,2463.0,1947.0,2025-07-04 00:36:19,71.0,,-0.469964198850244,-2.84320572373071,-0.713669996426242,,1.5211417990963776,,
,2347.0,761.0,2518.0,865.0,2388.0,2478.0,1949.0,2025-07-04 00:36:20,70.0,,-0.469934181425938,-2.84335964170624,-0.715172379445693,,1.183984401549587,,
,2346.0,761.0,2521.0,867.0,2388.0,2476.0,1948.0,2025-07-04 00:36:21,69.0,,-0.469972175187058,-2.84336280699171,-0.714448960222564,,0.8394216374441319,,
,2348.0,760.0,2524.0,865.0,2391.0,2472.0,1947.0,2025-07-04 00:36:22,69.0,,-0.470048756206043,-2.84329842318194,-0.714756014936802,,0.4931322440962324,,
,2350.0,762.0,2525.0,867.0,2371.0,2464.0,1937.0,2025-07-04 00:36:23,68.0,,-0.470168700926402,-2.84352813216563,-0.714942702913587,,0.15028162466014014,,
,2352.0,763.0,2527.0,868.0,2386.0,2463.0,1955.0,2025-07-04 00:36:24,67.0,,-0.470167547216424,-2.84339886545871,-0.714786624275224,,-0.18463998678840776,,
,2353.0,765.0,2529.0,869.0,2392.0,2466.0,1946.0,2025-07-04 00:36:25,66.0,,-0.470633633901006,-2.84337745906818,-0.714345218701144,,-0.5079154351756734,,
,2351.0,762.0,2528.0,869.0,2397.0,2464.0,1938.0,2025-07-04 00:36:26,66.0,,-0.470492391103403,-2.84366107611264,-0.715085034560908,,-0.8166336688120591,,
,2352.0,764.0,2532.0,871.0,2395.0,2467.0,1930.0,2025-07-04 00:36:27,66.0,,-0.470876168516734,-2.84357715207013,-0.714862914942793,,-1.1086616320411953,,
,2354.0,764.0,2532.0,871.0,2395.0,2475.0,1925.0,2025-07-04 00:36:28,66.0,,-0.470937345662879,-2.84348575541206,-0.714942863965897,,-1.3825631507474454,,
,2355.0,764.0,2536.0,873.0,2401.0,2478.0,1933.0,2025-07-04 00:36:29,66.0,,-0.471056687547081,-2.84371274292918,-0.715534918078547,,-1.6374767395091234,,
,2355.0,765.0,2537.0,872.0,2395.0,2468.0,1945.0,2025-07-04 00:36:30,66.0,,-0.471123477114971,-2.84374965810115,-0.715188613860282,,-1.8729670909379992,,
,2353.0,763.0,2541.0,872.0,2392.0,2475.0,1960.0,2025-07-04 00:36:31,66.0,,-0.471242923661658,-2.84355967379661,-0.716348303240179,,-2.0888663925150945,,
,2355.0,766.0,2541.0,873.0,2393.0,2480.0,1950.0,2025-07-04 00:36:32,67.0,,-0.471231816279637,-2.84366582059623,-0.716145798726649,,-2.2851212047542337,,
,2356.0,764.0,2540.0,874.0,2384.0,2485.0,1947.0,2025-07-04 00:36:33,67.0,,-0.471229868381077,-2.84395964511609,-0.716293236765202,,-2.4616583723758323,,
,2355.0,764.0,2542.0,875.0,2379.0,2482.0,1954.0,2025-07-04 00:36:34,68.0,,-0.471026061497901,-2.84358466557317,-0.716234045103991,,-2.618279667038118,,
,2350.0,764.0,2538.0,871.0,2379.0,2475.0,1968.0,2025-07-04 00:36:35,68.0,,-0.470950172409307,-2.84355193861079,-0.715491829416887,,-2.7545903548133164,,
,2353.0,764.0,2539.0,874.0,2389.0,2473.0,1959.0,2025-07-04 00:36:36,68.0,,-0.471378435973664,-2.8436350716416,-0.715844567772664,,-2.869962731013544,,
,2349.0,763.0,2538.0,873.0,2389.0,2467.0,1957.0,2025-07-04 00:36:37,68.0,,-0.471249990053987,-2.84358358417903,-0.715529947338534,,-2.9635328067973097,,
,2348.0,763.0,2536.0,870.0,2389.0,2463.0,1952.0,2025-07-04 00:36:38,68.0,,-0.471059663690882,-2.8435009934718,-0.716089185144081,,-3.034227008627006,,
,2346.0,761.0,2533.0,871.0,2368.0,2466.0,1950.0,2025-07-04 00:36:39,67.0,,-0.47111119319996,-2.84338734728815,-0.716200274373486,,-3.0808154052863808,,
,2343.0,760.0,2531.0,870.0,2370.0,2465.0,1956.0,2025-07-04 00:36:40,67.0,,-0.471175157724865,-2.84336810263707,-0.715406083621414,,-3.1019877258085264,,
,2340.0,758.0,2525.0,870.0,2371.0,2466.0,1957.0,2025-07-04 00:36:41,67.0,,-0.471399894076927,-2.84349708089959,-0.71616501281994,,-3.096447665839739,,
,2339.0,758.0,2526.0,866.0,2366.0,2473.0,1952.0,2025-07-04 00:36:42,67.0,,-0.471120711136751,-2.84354974064859,-0.716157168588022,,-3.063019592227999,,
,2336.0,755.0,2522.0,865.0,2368.0,2464.0,1943.0,2025-07-04 00:36:43,67.0,,-0.471222519741736,-2.84340063429047,-0.715913255110006,,-3.0007599946532757,,
,2333.0,754.0,2519.0,862.0,2352.0,2464.0,1942.0,2025-07-04 00:36:44,67.0,,-0.470901754363052,-2.84363175976614,-0.715741523325346,,-2.909064326638287,,
,2332.0,754.0,2517.0,863.0,2365.0,2471.0,1937.0,2025-07-04 00:36:45,67.0,,-0.471535848087771,-2.84376575076061,-0.716331973960608,,-2.7877588319097457,,
,2331.0,753.0,2514.0,861.0,2365.0,2475.0,1938.0,2025-07-04 00:36:46,67.0,,-0.471462206763258,-2.84376590488384,-0.716305764100598,,-2.6371673501722257,,
,2329.0,752.0,2516.0,861.0,2376.0,2473.0,1938.0,2025-07-04 00:36:47,68.0,,-0.471406281298693,-2.84353154651083,-0.717124009809253,,-2.4581456274128635,,
,2328.0,752.0,2512.0,859.0,2377.0,2472.0,1929.0,2025-07-04 00:36:48,68.0,,-0.471305522907121,-2.84357940783927,-0.716651184953465,,-2.252080378590427,,
,2328.0,751.0,2513.0,858.0,2395.0,2466.0,1935.0,2025-07-04 00:36:49,68.0,,-0.471836896543748,-2.84357597268009,-0.717179206131523,,-2.0208562565042416,,
,2327.0,752.0,2513.0,860.0,2395.0,2480.0,1940.0,2025-07-04 00:36:50,68.0,,-0.471808422079143,-2.84349934906224,-0.71592688499322,,-1.7667990174424684,,
,2325.0,751.0,2510.0,861.0,2390.0,2482.0,1939.0,2025-07-04 00:36:51,68.0,,-0.471596528132311,-2.84355594279651,-0.716700695064627,,-1.4926055653772514,,
,2325.0,751.0,2511.0,861.0,2381.0,2478.0,1948.0,2025-07-04 00:36:52,67.0,,-0.471177240964001,-2.84376128684167,-0.71690936733024,,-1.2012704715331475,,
,2324.0,749.0,2507.0,857.0,2388.0,2480.0,1964.0,2025-07-04 00:36:53,67.0,,-0.47147021826906,-2.84346322829268,-0.716974111255559,,-0.8960150472913234,,
,2324.0,751.0,2511.0,857.0,2390.0,2477.0,1940.0,2025-07-04 00:36:54,67.0,,-0.471478022360525,-2.84352417827193,-0.715573461516568,,-0.5802210949740669,,
,2322.0,749.0,2507.0,857.0,2369.0,2479.0,1947.0,2025-07-04 00:36:55,67.0,,-0.471501061061335,-2.84363878020248,-0.716760937379826,,-0.25736865884852195,,
,2322.0,751.0,2507.0,858.0,2382.0,2474.0,1951.0,2025-07-04 00:36:56,67.0,,-0.471577392555592,-2.84345232194437,-0.716526656170976,,0.06902407601954086,,
,2320.0,749.0,2505.0,856.0,2372.0,2466.0,1947.0,2025-07-04 00:36:57,67.0,,-0.471374550851894,-2.84321304428819,-0.716994870496577,,0.3954605069960284,,
,2322.0,749.0,2503.0,856.0,2381.0,2473.0,1931.0,2025-07-04 00:36:58,67.0,,-0.471359394708789,-2.84340752158189,-0.716523909941644,,0.718525970520189,,
,2321.0,749.0,2506.0,857.0,2381.0,2469.0,1932.0,2025-07-04 00:36:59,67.0,,-0.471247384831361,-2.84339296854691,-0.715860956245409,,1.0349486722091141,,
,2319.0,749.0,2505.0,854.0,2384.0,2464.0,1942.0,2025-07-04 00:37:00,67.0,,-0.47109027210449,-2.8431634300547,-0.716141852557352,,1.341659844667588,,
,2317.0,749.0,2502.0,853.0,2363.0,2462.0,1951.0,2025-07-04 00:37:01,68.0,,-0.471284052578177,-2.84317023060761,-0.716177794564023,,1.6358502957327,,
,2317.0,745.0,2502.0,855.0,2358.0,2464.0,1940.0,2025-07-04 00:37:02,68.0,,-0.471148475231262,-2.84317817528511,-0.716785873108864,,1.9150189025806532,,
,2319.0,748.0,2502.0,854.0,2383.0,2458.0,1947.0,,,,-0.470961159877541,-2.84332009663885,-0.716043554010609,,2.1770071387616743,,
,2319.0,748.0,2502.0,855.0,2387.0,2462.0,1941.0,,,,-0.470739629469956,-2.84328577027219,-0.715914249365372,,2.4200128390968403,,
,2316.0,747.0,2501.0,854.0,2364.0,2460.0,1941.0,,,,-0.470598676136641,-2.8432124732529,-0.715020375423269,,2.6425766968498015,,
,2317.0,747.0,2501.0,854.0,2369.0,2461.0,1948.0,,,,-0.470705214978887,-2.84329610400724,-0.71557943109565,,2.843536983572718,,
,2316.0,746.0,2502.0,855.0,2364.0,2463.0,1948.0,,,,-0.470923462251623,-2.8433600866992,-0.716006439608569,,3.021951918331495,,
,2317.0,749.0,2501.0,855.0,2375.0,2467.0,1951.0,,,,-0.47080732117242,-2.84297380659987,-0.715764961900045,,3.1769947378537267,,
,2315.0,747.0,2499.0,854.0,2379.0,2463.0,1947.0,,,,-0.470877051442551,-2.84316683162459,-0.715814699426011,,3.307832980516999,,
,2314.0,744.0,2499.0,852.0,2383.0,2478.0,1951.0,,,,-0.470897189980871,-2.84326110893834,-0.716682791764659,,3.4135093046172633,,
,2315.0,750.0,2502.0,855.0,2381.0,2468.0,1956.0,,,,-0.470785103426572,-2.84307210600223,-0.715840214495358,,3.492844478069743,,
,2316.0,748.0,2502.0,855.0,2383.0,2478.0,1952.0,,,,-0.470916929077142,-2.84309257925248,-0.716297563559735,,3.5443826017415447,,
,2316.0,748.0,2500.0,853.0,2381.0,2479.0,1948.0,,,,-0.470910882321757,-2.84321942630952,-0.715338274648903,,3.566393981983907,,
,2312.0,747.0,2500.0,853.0,2369.0,2483.0,1943.0,,,,-0.470993311037128,-2.84325994414009,-0.715804717124397,,3.556943457851333,,
,2313.0,746.0,2501.0,855.0,2373.0,2471.0,1936.0,,,,-0.470861663370553,-2.84326888487333,-0.71567119587506,,3.5140231381090166,,
,2311.0,747.0,2502.0,853.0,2367.0,2473.0,1954.0,,,,-0.470968157309976,-2.84312804633793,-0.715784320897106,,3.4357399798480905,,
,2314.0,744.0,2500.0,854.0,2360.0,2473.0,1961.0,,,,-0.471123194293292,-2.84326569588804,-0.716764988175926,,3.3205415394254203,,
,2313.0,746.0,2500.0,853.0,2380.0,2462.0,1955.0,,,,-0.471058126870325,-2.8432351004025,-0.716041226185966,,3.167458285641047,,
,2310.0,745.0,2495.0,851.0,2387.0,2463.0,1953.0,,,,-0.471264422322011,-2.84335710032236,-0.7154086111327,,2.9763385215024614,,
,2311.0,743.0,2498.0,852.0,2387.0,2460.0,1956.0,,,,-0.471168717620659,-2.84327846432232,-0.716008924584661,,2.7480521061004213,,
,2311.0,745.0,2501.0,853.0,2372.0,2462.0,1967.0,,,,-0.471423986735125,-2.84327890956125,-0.716574562303228,,2.484641104196754,,
,2310.0,746.0,2497.0,854.0,2362.0,2460.0,1957.0,,,,-0.471446736246095,-2.84362353370658,-0.71633169731332,,2.1893985207754034,,
,2310.0,745.0,2497.0,852.0,2357.0,2459.0,1942.0,,,,-0.471334385666056,-2.84333464016066,-0.71675018036445,,1.8668603787879958,,
,2311.0,745.0,2499.0,854.0,2380.0,2468.0,1949.0,,,,-0.471334617780073,-2.84334543970427,-0.717189921215155,,1.522702156851866,,
,2311.0,748.0,2501.0,854.0,2375.0,2472.0,1952.0,,,,-0.471141262213588,-2.84324445132637,-0.716173018923259,,1.1635384823093904,,
,2310.0,745.0,2502.0,856.0,2371.0,2467.0,1935.0,,,,-0.471258499218415,-2.84324211825947,-0.715896824837903,,0.7966346745588914,,
,2310.0,746.0,2499.0,853.0,2366.0,2462.0,1939.0,,,,-0.471217786970933,-2.84320869018629,-0.715661077068938,,0.42954909036833827,,
,2310.0,747.0,2501.0,853.0,2367.0,2465.0,1956.0,,,,-0.470941904907894,-2.84335333132241,-0.716614330242826,,0.06973448765486179,,
,2313.0,746.0,2502.0,855.0,2361.0,2459.0,1948.0,,,,-0.47099062530381,-2.84311986811066,-0.716344335437896,,-0.2758671037997655,,
,2310.0,748.0,2502.0,855.0,2367.0,2456.0,1944.0,,,,-0.47082183036612,-2.84326609423006,-0.716198624367704,,-0.6011997000526456,,
,2311.0,745.0,2503.0,854.0,2380.0,2460.0,1954.0,,,,-0.470926033847271,-2.84332871425329,-0.716268023254239,,-0.9014056267815863,,
,2312.0,745.0,2504.0,855.0,2380.0,2463.0,1968.0,,,,-0.47094294253323,-2.84315310653394,-0.716366187568704,,-1.1730486135609945,,
,2312.0,750.0,2504.0,855.0,2377.0,2461.0,1971.0,,,,-0.47088716415141,-2.84290893860444,-0.715452038212492,,-1.4142311604850408,,
,2312.0,749.0,2506.0,857.0,2371.0,2471.0,1958.0,,,,-0.470402695172002,-2.84321277022502,-0.715338939845471,,-1.6245998825947054,,
,2313.0,748.0,2504.0,858.0,2362.0,2469.0,1953.0,,,,-0.470290823139111,-2.84307012537997,-0.716468849798832,,-1.8052422177756597,,
,2313.0,747.0,2506.0,858.0,2362.0,2456.0,1967.0,,,,-0.470309384870173,-2.84296319789032,-0.714812241896954,,-1.9584862006793078,,
,2313.0,750.0,2511.0,857.0,2378.0,2465.0,1952.0,,,,-0.470285632325676,-2.84287044730758,-0.714916989515377,,-2.0876215167876158,,
,2312.0,751.0,2511.0,859.0,2369.0,2468.0,1964.0,,,,-0.470287213974529,-2.84276164603625,-0.71504137646086,,-2.196564553507654,,
,2314.0,749.0,2510.0,858.0,2371.0,2466.0,1961.0,,,,-0.469947637420492,-2.84281317052597,-0.715718444946765,,-2.289492708452374,,
,2314.0,749.0,2512.0,858.0,2365.0,2468.0,1980.0,,,,-0.470026518053397,-2.84281835960849,-0.715161631796791,,-2.370474081072847,,
,2314.0,750.0,2510.0,858.0,2367.0,2461.0,1983.0,,,,-0.470389690169003,-2.84266752813133,-0.71544528011172,,-2.443118247683524,,
,2315.0,749.0,2512.0,859.0,2374.0,2457.0,1957.0,,,,-0.469983074578576,-2.84267433556938,-0.715130658364828,,-2.51027238873119,,
,2316.0,751.0,2513.0,860.0,2355.0,2461.0,1940.0,,,,-0.469838544610105,-2.84262220858745,-0.715517164394509,,-2.573784624476314,,
,2319.0,751.0,2515.0,861.0,2368.0,2464.0,1942.0,,,,-0.469641074681868,-2.84284746821749,-0.714831505563558,,-2.634352769688481,,
,2317.0,749.0,2515.0,860.0,2373.0,2472.0,1944.0,,,,-0.469692670476909,-2.84268668587562,-0.714681093357014,,-2.6914714732929483,,
,2315.0,751.0,2517.0,860.0,2377.0,2468.0,1941.0,,,,-0.46964731887896,-2.84259486390699,-0.714751451938293,,-2.7434836191101533,,
,2318.0,751.0,2518.0,862.0,2369.0,2460.0,1951.0,,,,-0.46952422844243,-2.84258265185482,-0.714980432880539,,-2.787733057858469,,
,2319.0,753.0,2518.0,863.0,2365.0,2460.0,1955.0,,,,-0.469547953670125,-2.84259409289993,-0.714650157709742,,-2.8208059798400993,,
,2317.0,754.0,2519.0,861.0,2367.0,2470.0,1944.0,,,,-0.469763430326665,-2.84271000731744,-0.714984038251416,,-2.83883896804995,,
,2318.0,751.0,2516.0,863.0,2374.0,2466.0,1953.0,,,,-0.469429934403834,-2.84262803791669,-0.713860902638828,,-2.837864693079434,,
,2320.0,756.0,2522.0,864.0,2378.0,2469.0,1955.0,,,,-0.469217275033814,-2.84250716902207,-0.714657022594025,,-2.814162518490863,,
,2321.0,753.0,2521.0,864.0,2369.0,2462.0,1950.0,,,,-0.469402477970721,-2.84251211271412,-0.714174832051162,,-2.764581182106548,,
,2324.0,757.0,2526.0,865.0,2365.0,2462.0,1959.0,,,,-0.469361121052494,-2.84246164111887,-0.714041011494304,,-2.686803640656877,,
,2320.0,754.0,2524.0,863.0,2374.0,2471.0,1950.0,,,,-0.469175198428228,-2.8426235035565,-0.714644309638405,,-2.5795294676417413,,
,2323.0,754.0,2524.0,864.0,2378.0,2471.0,1950.0,,,,-0.469426877533991,-2.84258006418152,-0.714578058123444,,-2.4425576181129016,,
,2325.0,757.0,2526.0,865.0,2376.0,2465.0,1951.0,,,,-0.469067191388071,-2.84244203843186,-0.714614713566522,,-2.2767618957159463,,
,2325.0,757.0,2527.0,866.0,2379.0,2465.0,1952.0,,,,-0.469039114722919,-2.84223854108685,-0.715149475241844,,-2.083962769487981,,
,2321.0,755.0,2528.0,864.0,2383.0,2467.0,1945.0,,,,-0.469029390099411,-2.8421741656313,-0.713909007880255,,-1.8667113168679368,,
,2326.0,756.0,2530.0,866.0,2377.0,2459.0,1946.0,,,,-0.469061743555522,-2.8422776724946,-0.714612731345653,,-1.628012408744482,,
,2323.0,757.0,2529.0,871.0,2373.0,2459.0,1948.0,,,,-0.469174371860718,-2.84233706691424,-0.714718671222097,,-1.3710229552340332,,
,2325.0,757.0,2533.0,867.0,2385.0,2466.0,1954.0,,,,-0.469226337516484,-2.8423143098803,-0.714230119769527,,-1.0987654948707053,,
,2326.0,758.0,2532.0,869.0,2374.0,2471.0,1955.0,,,,-0.469102928427338,-2.84219497370857,-0.713990728249866,,-0.813896636027301,,
,2327.0,758.0,2536.0,868.0,2392.0,2468.0,1938.0,,,,-0.468910652457169,-2.84240361276681,-0.714232385295083,,-0.5185636453472373,,
,2330.0,760.0,2538.0,869.0,2379.0,2464.0,1948.0,,,,-0.469239088662944,-2.8426347443532,-0.714595471731146,,-0.21437146217170155,,
,2329.0,761.0,2541.0,870.0,2376.0,2467.0,1948.0,,,,-0.469571178183015,-2.84255444534102,-0.715119891590347,,0.09753204664436158,,
,2329.0,761.0,2539.0,872.0,2368.0,2469.0,1953.0,,,,-0.469732585326275,-2.84276502838892,-0.714901993683316,,0.4162608674723117,,
,2328.0,760.0,2539.0,870.0,2371.0,2471.0,1957.0,,,,-0.4703805809519,-2.8429727688335,-0.716693998506147,,0.7409095557265202,,
,2331.0,762.0,2541.0,872.0,2371.0,2461.0,1951.0,,,,-0.470551002657827,-2.84288965027575,-0.715817100718137,,1.070222723153869,,
,2329.0,762.0,2545.0,873.0,2377.0,2474.0,1957.0,,,,-0.471190447909074,-2.84311346449067,-0.716825754874458,,1.4022603646431224,,
,2333.0,761.0,2543.0,873.0,2385.0,2478.0,1963.0,,,,-0.471336682932233,-2.84316271104964,-0.717429909542296,,1.7341063675274553,,
,2334.0,762.0,2545.0,874.0,2385.0,2453.0,1962.0,,,,-0.471682090551093,-2.84347474369945,-0.717452730933814,,2.061663759016414,,
,2333.0,764.0,2546.0,873.0,2392.0,2460.0,1946.0,,,,-0.472067855574183,-2.84351878497326,-0.718021240486312,,2.379571295551616,,
,2334.0,763.0,2549.0,876.0,2387.0,2464.0,1961.0,,,,-0.47225887219821,-2.84369242867894,-0.717857316878662,,2.681263310535175,,
,2337.0,763.0,2551.0,875.0,2373.0,2465.0,1954.0,,,,-0.472735258771476,-2.84381823790487,-0.718914556873761,,2.95917983663381,,
,2335.0,765.0,2551.0,877.0,2358.0,2469.0,1951.0,,,,-0.473046556523243,-2.84387076667833,-0.719318318934152,,3.20511830999233,,
,2336.0,761.0,2552.0,873.0,2371.0,2463.0,1946.0,,,,-0.473041923270035,-2.84384254935397,-0.718907172141574,,3.4107029557602457,,
,2338.0,764.0,2552.0,875.0,2383.0,2460.0,1940.0,,,,-0.473347114438415,-2.84398809235032,-0.719858145498062,,3.5679345499218016,,
,2339.0,766.0,2553.0,878.0,2387.0,2461.0,1949.0,,,,-0.47324822499884,-2.84385413725637,-0.719806098855392,,3.669772903548349,,
2025-07-04 00:34:05,2341.0,767.0,2556.0,878.0,2385.0,2457.0,1949.0,,,2025/07/04 12:34:05 AM,-0.473273139774898,-2.8437818942684,-0.719760747767544,,3.710698177538815,,
,2340.0,764.0,2558.0,877.0,2369.0,2461.0,1959.0,,,,-0.473233905230494,-2.84396370370504,-0.719902033958887,,3.68719579945815,,
,2339.0,766.0,2559.0,878.0,2374.0,2459.0,1938.0,,,,-0.473297937744642,-2.84395133744807,-0.719569520409309,,3.5981139095176355,,
,2343.0,767.0,2562.0,881.0,2359.0,2475.0,1953.0,,,,-0.473028098732444,-2.8439311094119,-0.719674793329224,,3.444852315061629,,
,2344.0,769.0,2563.0,881.0,2364.0,2475.0,1953.0,,,,-0.473177234468924,-2.84397298850898,-0.720000577278789,,3.2313578178081683,,
,2343.0,770.0,2563.0,881.0,2377.0,2471.0,1944.0,,,,-0.473291031729664,-2.84383653244924,-0.719491760415539,,2.9639213772102107,,
,2344.0,769.0,2564.0,879.0,2378.0,2465.0,1946.0,,,,-0.473084701165895,-2.8438087833284,-0.720240227980215,,2.650795250926265,,
,2343.0,769.0,2568.0,883.0,2370.0,2466.0,1951.0,,,,-0.473266520623613,-2.84401452632441,-0.720202392880934,,2.301669105299974,,
,2345.0,770.0,2568.0,883.0,2347.0,2463.0,1948.0,,,,-0.473440313048103,-2.84398888577316,-0.720729361441153,,1.9270591254636011,,
,2347.0,770.0,2570.0,884.0,2359.0,2462.0,1951.0,,,,-0.473216930887512,-2.84393081503651,-0.719381451094902,,1.5376708515227677,,
,2348.0,768.0,2570.0,881.0,2387.0,2463.0,1962.0,,,,-0.473597639151671,-2.84409592477964,-0.720060653903392,,1.1437945854950897,,
,2349.0,772.0,2573.0,886.0,2400.0,2462.0,1967.0,,,,-0.473668631703247,-2.84408023980349,-0.720084039124612,,0.7547833681366345,,
,2350.0,770.0,2573.0,887.0,2393.0,2468.0,1960.0,,,,-0.473546031593651,-2.84403615900323,-0.720371521056818,,0.37865012433246314,,
,2349.0,772.0,2577.0,884.0,2387.0,2465.0,1964.0,,,,-0.473631815649886,-2.84418985752768,-0.720641880178219,,0.021805014064522416,,
,2350.0,771.0,2577.0,885.0,2384.0,2475.0,1965.0,,,,-0.473684424607214,-2.84422729395085,-0.720385150441847,,-0.3110616477392606,,
,2351.0,772.0,2578.0,884.0,2386.0,2475.0,1961.0,,,,-0.473576386870495,-2.84407530713886,-0.720410210201025,,-0.6169596795376434,,
,2350.0,775.0,2579.0,887.0,2369.0,2473.0,1948.0,,,,-0.473822066229722,-2.84403200640381,-0.719763345804177,,-0.8944626757261381,,
,2349.0,771.0,2578.0,888.0,2367.0,2471.0,1952.0,,,,-0.473838848695388,-2.84419782454112,-0.720052446768208,,-1.1434829746037785,,
,2350.0,772.0,2577.0,885.0,2388.0,2474.0,1943.0,,,,-0.473683037571821,-2.84419261559741,-0.720107892577094,,-1.3649899653151647,,
,2347.0,771.0,2579.0,887.0,2382.0,2470.0,1958.0,,,,-0.473807759352706,-2.84416079912112,-0.720281421977261,,-1.5607042524665176,,
,2346.0,770.0,2576.0,885.0,2387.0,2461.0,1967.0,,,,-0.473649101907792,-2.84411449568771,-0.720813178916571,,-1.7327977183910686,,
,2344.0,770.0,2575.0,886.0,2372.0,2467.0,1964.0,,,,-0.473884443614245,-2.84405579281095,-0.720583236574128,,-1.8836247205067418,,
,2340.0,768.0,2574.0,885.0,2364.0,2465.0,1967.0,,,,-0.473488780095716,-2.84409738933319,-0.720764984793962,,-2.015503151222562,,
,2335.0,763.0,2569.0,882.0,2384.0,2457.0,1965.0,,,,-0.47366491221913,-2.84426669905612,-0.719885444108388,,-2.1305563852913636,,
,2334.0,767.0,2567.0,882.0,2374.0,2455.0,1960.0,,,,-0.47364171900471,-2.84422779766016,-0.72029330333424,,-2.2306187589286943,,
,2332.0,764.0,2566.0,882.0,2347.0,2460.0,1961.0,,,,-0.473521318175532,-2.84416331976381,-0.720634717974862,,-2.317198927922374,,
,2329.0,763.0,2562.0,879.0,2353.0,2458.0,1956.0,,,,-0.473676595681936,-2.84398984750095,-0.720045141058732,,-2.3914884086976715,,
,2326.0,761.0,2557.0,877.0,2368.0,2456.0,1941.0,,,,-0.473990229824692,-2.84392520959641,-0.720570287596254,,-2.454398167239427,,
,2323.0,762.0,2556.0,874.0,2366.0,2460.0,1964.0,,,,-0.473641962703316,-2.8439832878297,-0.720521744486877,,-2.506605205755128,,
,2322.0,760.0,2554.0,877.0,2365.0,2467.0,1958.0,,,,-0.473710484705308,-2.84387591257715,-0.719969347233431,,-2.5485936533216016,,
,2323.0,760.0,2553.0,876.0,2377.0,2463.0,1952.0,,,,-0.473550764214929,-2.84393228827145,-0.720032047056412,,-2.5806798691299444,,
,2322.0,760.0,2551.0,876.0,2384.0,2463.0,1948.0,,,,-0.473754444230837,-2.84400145029028,-0.720731350917905,,-2.6030170519288283,,
,2317.0,757.0,2546.0,873.0,2363.0,2462.0,1947.0,,,,-0.474142895126208,-2.84398616253933,-0.720034264628762,,-2.615580532588583,,
,2317.0,759.0,2547.0,872.0,2386.0,2469.0,1937.0,,,,-0.474239540789254,-2.84405918509968,-0.721093792655557,,-2.61813949644015,,
,2317.0,759.0,2550.0,874.0,2377.0,2465.0,1948.0,,,,-0.474073684793265,-2.84388373577768,-0.720174497324433,,-2.610223939271532,,
,2317.0,760.0,2546.0,873.0,2374.0,2465.0,1952.0,,,,-0.474025269384718,-2.84381872903477,-0.720095729446247,,-2.5910970464669223,,
,2312.0,757.0,2547.0,871.0,2390.0,2469.0,1953.0,,,,-0.473660849193161,-2.84392165634286,-0.71991229019333,,-2.5597428997930214,,
,2312.0,757.0,2544.0,871.0,2384.0,2474.0,1972.0,,,,-0.47325237200291,-2.84385840439583,-0.719756510664542,,-2.514877644739254,,
,2312.0,757.0,2544.0,871.0,2385.0,2470.0,1967.0,,,,-0.473375624310762,-2.8438863366495,-0.719513798832559,,-2.454989361693843,,
,2309.0,757.0,2545.0,870.0,2382.0,2470.0,1953.0,,,,-0.473306918299368,-2.84379407098868,-0.719004468916451,,-2.378408341642534,,
,2310.0,756.0,2543.0,868.0,2380.0,2466.0,1962.0,,,,-0.472896220985793,-2.8437672286265,-0.719778440706504,,-2.2834057125445777,,
,2306.0,753.0,2542.0,866.0,2389.0,2468.0,1973.0,,,,-0.473011795657895,-2.84358642688247,-0.720299848529385,,-2.1683147327476804,,
,2307.0,756.0,2540.0,869.0,2378.0,2464.0,1969.0,,,,-0.472881981618451,-2.84375714981395,-0.719651377722765,,-2.0316657737537196,,
,2310.0,755.0,2538.0,866.0,2385.0,2472.0,1962.0,,,,-0.472570652599876,-2.84360397666101,-0.71948642499489,,-1.872323236778284,,
,2308.0,754.0,2538.0,867.0,2379.0,2466.0,1955.0,,,,-0.472476813300683,-2.84366831101451,-0.719044306718408,,-1.689610807476995,,
,2303.0,754.0,2537.0,866.0,2383.0,2458.0,1947.0,,,,-0.472272811712102,-2.84363722312144,-0.719550790447468,,-1.4834114054266148,,
,2304.0,752.0,2537.0,865.0,2368.0,2458.0,1967.0,,,,-0.472088089696812,-2.84356947364373,-0.718540029070086,,-1.2542308098304529,,
,2304.0,753.0,2536.0,867.0,2345.0,2468.0,1971.0,,,,-0.471946380819939,-2.84359092506842,-0.718454259311076,,-1.003219221033513,,
,2303.0,754.0,2535.0,866.0,2364.0,2463.0,1964.0,,,,-0.472015045979038,-2.84342010188184,-0.719363934154847,,-0.7321515783308123,,
,2301.0,752.0,2534.0,863.0,2395.0,2463.0,1959.0,,,,-0.471869822355731,-2.84355401985078,-0.718539879637728,,-0.4433732741591329,,
,2300.0,751.0,2532.0,866.0,2386.0,2461.0,1949.0,,,,-0.471853066223651,-2.84341723522868,-0.718562030921754,,-0.13972154822677976,,
,2300.0,754.0,2534.0,867.0,2375.0,2459.0,1962.0,,,,-0.471995002398104,-2.84350132014849,-0.718118930342683,,0.17556587325524048,,
,2301.0,753.0,2535.0,865.0,2368.0,2470.0,1981.0,,,,-0.471744944717457,-2.8434496096178,-0.718236506095353,,0.49894373613788245,,
,2299.0,751.0,2533.0,864.0,2351.0,2472.0,1983.0,,,,-0.471437174675848,-2.84330716960238,-0.71727576164944,,0.8266440899929851,,
,2299.0,752.0,2535.0,864.0,2370.0,2453.0,1966.0,,,,-0.471532663096273,-2.84316172143687,-0.718512231285314,,1.1547454630603182,,
,2298.0,752.0,2533.0,865.0,2377.0,2459.0,1961.0,,,,-0.471406553743225,-2.8433619912481,-0.718632825816102,,1.4792217154764946,,
,2297.0,751.0,2532.0,867.0,2375.0,2471.0,1960.0,,,,-0.471574181844441,-2.84326220719473,-0.718276745038432,,1.7959692440343884,,
,2298.0,753.0,2535.0,863.0,2377.0,2468.0,1954.0,,,,-0.471416816520029,-2.84326061204922,-0.718594842588099,,2.1008147471687826,,
,2299.0,752.0,2532.0,863.0,2385.0,2462.0,1958.0,,,,-0.471640522389413,-2.84314375874305,-0.717957592047267,,2.3895092832271674,,
,2299.0,751.0,2533.0,865.0,2383.0,2472.0,1958.0,,,,-0.471380321668313,-2.84300503953799,-0.717093453999689,,2.657717760842494,,
,2299.0,752.0,2534.0,865.0,2375.0,2462.0,1968.0,,,,-0.471274027172612,-2.84314062417616,-0.718148624817461,,2.9010161117662308,,
,2296.0,753.0,2533.0,862.0,2368.0,2463.0,1972.0,,,,-0.471112440571537,-2.84298939746659,-0.717757811841714,,3.1149106758406293,,
,2297.0,752.0,2532.0,864.0,2380.0,2470.0,1956.0,,,,-0.471289831278024,-2.84299479651575,-0.717390315913758,,3.294894719690829,,
,2298.0,750.0,2530.0,863.0,2380.0,2456.0,1970.0,,,,-0.470712440882026,-2.8429292664707,-0.7178354087329,,3.4365542641868565,,
,2297.0,751.0,2532.0,867.0,2364.0,2464.0,1958.0,,,,-0.470976195952789,-2.84283282400263,-0.717346829442438,,3.5357288456636735,,
,2295.0,754.0,2534.0,862.0,2371.0,2455.0,1964.0,,,,-0.470738021077372,-2.84294062246769,-0.717309938563574,,3.588723092261192,,
,2297.0,752.0,2531.0,863.0,2372.0,2454.0,1955.0,,,,-0.470684795697001,-2.84295650343143,-0.716587781394963,,3.592554001342714,,
,2295.0,750.0,2534.0,864.0,2363.0,2458.0,1958.0,,,,-0.470551468448484,-2.84290517296741,-0.717250936363421,,3.545209239295665,,
,2294.0,752.0,2534.0,864.0,2364.0,2464.0,1958.0,,,,-0.47038407740411,-2.84272476871125,-0.716832446447951,,3.4458861714672624,,
,2297.0,755.0,2533.0,865.0,2351.0,2473.0,1954.0,,,,-0.470159296034661,-2.84255935437127,-0.716517006922445,,3.2951811574845506,,
,2297.0,753.0,2534.0,864.0,2355.0,2475.0,1960.0,,,,-0.470465802898189,-2.84277402294267,-0.716577735603507,,3.0952038120660994,,
,2296.0,750.0,2534.0,865.0,2365.0,2480.0,1951.0,,,,-0.470176483269978,-2.84264906937649,-0.717134718536772,,2.8495997428955366,,
,2295.0,752.0,2533.0,864.0,2363.0,2465.0,1950.0,,,,-0.470065221984274,-2.84246338094582,-0.716541926936312,,2.5634752119738766,,
,2297.0,754.0,2536.0,867.0,2371.0,2464.0,1951.0,,,,-0.469806000833292,-2.84261812418905,-0.71604038330742,,2.2432260969872186,,
,2297.0,753.0,2536.0,865.0,2363.0,2460.0,1950.0,,,,-0.469649424063016,-2.84254149195675,-0.715256669231533,,1.896280625307705,,
,2296.0,752.0,2538.0,865.0,2372.0,2459.0,1947.0,,,,-0.469882419125836,-2.84232456795307,-0.716321849290043,,1.5307710133711905,,
,2295.0,752.0,2535.0,863.0,2383.0,2461.0,1951.0,,,,-0.469950514100142,-2.84233942389738,-0.716196863591981,,1.1551541466311044,,
,2297.0,753.0,2538.0,866.0,2374.0,2460.0,1962.0,,,,-0.469547005225776,-2.84242179381539,-0.715652502110203,,0.7778061207399629,,
,2301.0,755.0,2539.0,867.0,2368.0,2459.0,1965.0,,,,-0.469567232681196,-2.84236589962873,-0.715532562696656,,0.40661943646169063,,
,2297.0,755.0,2540.0,868.0,2371.0,2458.0,1958.0,,,,-0.46944532120631,-2.84223909704922,-0.71531720135444,,0.04863388317064333,,
,2297.0,751.0,2540.0,865.0,2376.0,2453.0,1946.0,,,,-0.469282845981833,-2.84245302811479,-0.715187444647704,,-0.2902685817344871,,
,2298.0,753.0,2544.0,866.0,2381.0,2454.0,1953.0,,,,-0.469191809061099,-2.84237192447984,-0.715680329254041,,-0.6055791629477141,,
,2298.0,754.0,2544.0,868.0,2387.0,2467.0,1945.0,,,,-0.469070804970915,-2.84216528766796,-0.71482554170176,,-0.8942700664646086,,
,2298.0,754.0,2544.0,869.0,2387.0,2465.0,1944.0,,,,-0.469410544994718,-2.84241930898535,-0.715491857885658,,-1.1547875594719106,,
,2298.0,754.0,2544.0,867.0,2389.0,2469.0,1962.0,,,,-0.468985203546653,-2.84208868643452,-0.715557416329117,,-1.3869339336812372,,
,2298.0,754.0,2544.0,868.0,2380.0,2464.0,1965.0,,,,-0.468656659196452,-2.84223404537615,-0.714569743154632,,-1.5916520220158004,,
,2299.0,756.0,2546.0,870.0,2360.0,2471.0,1957.0,,,,-0.46853770696605,-2.84205251754304,-0.714653862849244,,-1.770733895796588,,
,2299.0,757.0,2547.0,870.0,2369.0,2460.0,1962.0,,,,-0.468625586763848,-2.84206156501446,-0.715057583558878,,-1.926480953170056,,
,2300.0,756.0,2547.0,870.0,2381.0,2459.0,1962.0,,,,-0.468781342438542,-2.84193795540508,-0.714899774054498,,-2.061345782446954,,
,2300.0,754.0,2548.0,868.0,2377.0,2465.0,1961.0,,,,-0.468469707791495,-2.84201008685218,-0.714666185173162,,-2.1775871016392876,,
,2303.0,756.0,2549.0,872.0,2371.0,2468.0,1954.0,,,,-0.468330557344074,-2.84188493098909,-0.71423134254028,,-2.2769678830750935,,
,2304.0,758.0,2552.0,873.0,2380.0,2470.0,1964.0,,,,-0.468497968193064,-2.84180675832315,-0.715070499252101,,-2.360523470885594,,
,2303.0,754.0,2551.0,871.0,2380.0,2459.0,1959.0,,,,-0.468488112032313,-2.84195019347551,-0.714558967754652,,-2.428420955513359,,
,2302.0,755.0,2550.0,872.0,2385.0,2454.0,1955.0,,,,-0.468380236825438,-2.8418106772094,-0.714695844639081,,-2.4799232102368616,,
,2303.0,758.0,2552.0,873.0,2376.0,2462.0,1962.0,,,,-0.468109307976607,-2.84182020464355,-0.714705341101063,,-2.513461048842809,,
,2305.0,759.0,2555.0,873.0,2391.0,2459.0,1959.0,,,,-0.46832460893093,-2.84163946623222,-0.714831434810819,,-2.5268055655523822,,
,2304.0,758.0,2555.0,874.0,2388.0,2457.0,1961.0,,,,-0.468108681916949,-2.8418517725469,-0.713919872307424,,-2.517320931071071,,
,2304.0,759.0,2556.0,874.0,2389.0,2457.0,1968.0,,,,-0.468074637040231,-2.84184202874519,-0.714150392148159,,-2.482267341407839,,
,2304.0,760.0,2558.0,872.0,2374.0,2471.0,1958.0,,,,-0.468180597847134,-2.84165026261229,-0.713469578445636,,-2.419116575247949,,
,2306.0,758.0,2557.0,874.0,2381.0,2468.0,1952.0,,,,-0.468071403891992,-2.84159704360836,-0.714058112162225,,-2.3258407782266266,,
,2307.0,758.0,2559.0,874.0,2374.0,2462.0,1940.0,,,,-0.468301547537473,-2.84163394706125,-0.714385271706491,,-2.2011396293503713,,
,2305.0,761.0,2560.0,875.0,2381.0,2462.0,1945.0,,,,-0.468037384751057,-2.84168769996723,-0.713521762656482,,-2.044581223755525,,
,2306.0,758.0,2559.0,874.0,2377.0,2459.0,1939.0,,,,-0.467986000260502,-2.8415901146747,-0.713460860077821,,-1.8566457715665863,,
,2306.0,759.0,2562.0,876.0,2374.0,2477.0,1961.0,,,,-0.467711510489881,-2.84159745931229,-0.713386319087781,,-1.6386760650136012,,
,2307.0,761.0,2562.0,878.0,2374.0,2470.0,1956.0,,,,-0.467883124759626,-2.8414721662672,-0.714192836010249,,-1.392752250442948,,
,2309.0,759.0,2566.0,878.0,2364.0,2474.0,1960.0,,,,-0.467713845146555,-2.84137452382471,-0.713614726412133,,-1.121518749569662,,
,2310.0,760.0,2565.0,876.0,2351.0,2461.0,1945.0,,,,-0.467454028823575,-2.84136803206959,-0.713498864639661,,-0.8279967466528693,,
,2309.0,761.0,2568.0,879.0,2370.0,2456.0,1963.0,,,,-0.467599745357232,-2.8414013980986,-0.712657587574568,,-0.5154158743931846,,
,2309.0,760.0,2569.0,880.0,2361.0,2460.0,1950.0,,,,-0.467703536614146,-2.84147736890418,-0.713582831789378,,-0.18709388595250653,,
,2311.0,765.0,2569.0,881.0,2372.0,2458.0,1962.0,,,,-0.467591609168596,-2.84141698580422,-0.713183030375332,,0.15361583906012388,,
,2315.0,764.0,2571.0,880.0,2368.0,2461.0,1966.0,,,,-0.467810258325061,-2.84174648821464,-0.713482683296564,,0.5033008479122872,,
,2314.0,761.0,2572.0,879.0,2369.0,2463.0,1961.0,,,,-0.468137201867272,-2.84171257307189,-0.714862263659091,,0.8583952716687295,,
,2312.0,762.0,2575.0,881.0,2373.0,2465.0,1957.0,,,,-0.468285340186512,-2.84178985540996,-0.714793971124561,,1.2150327343216685,,
,2313.0,764.0,2576.0,881.0,2383.0,2468.0,1966.0,,,,-0.468607678568626,-2.84194909536597,-0.714224807631634,,1.5688760749943544,,
,2313.0,764.0,2577.0,881.0,2382.0,2470.0,1960.0,,,,-0.468950106373159,-2.84212620577211,-0.714928028779358,,1.9149612454575178,,
,2314.0,764.0,2576.0,882.0,2362.0,2466.0,1969.0,,,,-0.469254619985651,-2.84210858443075,-0.716110384617737,,2.2475950553643984,,
,2314.0,765.0,2578.0,880.0,2368.0,2473.0,1968.0,,,,-0.469704279725121,-2.84239812656868,-0.715368167508907,,2.560342174042419,,
,2316.0,765.0,2582.0,883.0,2379.0,2472.0,1960.0,,,,-0.470495693783847,-2.8424683119197,-0.717430796945293,,2.846126312440492,,
,2317.0,766.0,2583.0,882.0,2380.0,2466.0,1959.0,,,,-0.470746208599306,-2.84262050782809,-0.717510705544745,,3.0974555266655512,,
,2317.0,766.0,2581.0,884.0,2367.0,2473.0,1964.0,,,,-0.470817771581544,-2.84278282328023,-0.717410512167242,,3.306764541043758,,
,2318.0,764.0,2585.0,883.0,2375.0,2476.0,1960.0,,,,-0.471368032435329,-2.8428119869136,-0.717611618645473,,3.4668503057829865,,
,2319.0,766.0,2585.0,885.0,2389.0,2460.0,1947.0,,,,-0.471362083717476,-2.84284577174181,-0.717944083518804,,3.5713627135954162,,
,2320.0,769.0,2588.0,889.0,2380.0,2463.0,1945.0,,,,-0.471840908967172,-2.84289164935377,-0.718153010388954,,3.6153021491416584,,
,2319.0,769.0,2589.0,890.0,2385.0,2464.0,1941.0,,,,-0.471665141633517,-2.8431344038444,-0.720057670602857,,3.595470709840563,,
,2320.0,770.0,2590.0,887.0,2378.0,2461.0,1943.0,,,,-0.471835532893856,-2.84313543763663,-0.719048150718939,,3.5108255431088553,,
,2322.0,767.0,2589.0,887.0,2364.0,2463.0,1943.0,,,,-0.471640723952409,-2.84311846746095,-0.719195953951792,,3.3626911546786933,,
,2322.0,770.0,2593.0,887.0,2374.0,2467.0,1962.0,,,,-0.471852123040484,-2.84299188421667,-0.719639802852176,,3.1548020289751477,,
,2324.0,769.0,2595.0,889.0,2378.0,2469.0,1956.0,,,,-0.471955313312103,-2.84315862451824,-0.718789937907884,,2.8931654222720025,,
2025-07-04 00:34:06,2325.0,770.0,2596.0,891.0,2386.0,2468.0,1954.0,,,2025/07/04 12:34:06 AM,-0.472179100116097,-2.84315531901218,-0.718729748475271,,2.585753733153961,,
,2324.0,769.0,2595.0,891.0,2377.0,2462.0,1954.0,,,,-0.472189182201918,-2.84323032848325,-0.719097209897527,,2.242053426020429,,
,2325.0,770.0,2598.0,889.0,2379.0,2466.0,1947.0,,,,-0.471881874727443,-2.84332054106653,-0.719168067331058,,1.8725110430443495,,
,2326.0,770.0,2598.0,893.0,2383.0,2465.0,1938.0,,,,-0.472110151917287,-2.84304905734758,-0.719660114326995,,1.487925427891226,,
,2327.0,773.0,2602.0,893.0,2374.0,2462.0,1935.0,,,,-0.471894325264989,-2.8432789538111,-0.719479026353459,,1.0988384826911177,,
,2326.0,769.0,2603.0,893.0,2379.0,2456.0,1969.0,,,,-0.471766362795279,-2.84320459464717,-0.719571591729665,,0.714974460853982,,
,2328.0,774.0,2605.0,894.0,2382.0,2449.0,1965.0,,,,-0.471888570196678,-2.84313783865803,-0.718100278304444,,0.3447704552375203,,
,2329.0,775.0,2607.0,896.0,2375.0,2445.0,1964.0,,,,-0.47194126824186,-2.84301825190871,-0.71884971002386,,-0.0049702855175975695,,
,2331.0,774.0,2608.0,898.0,2376.0,2454.0,1956.0,,,,-0.471859862605596,-2.84317615148193,-0.719556059120633,,-0.3292834690424267,,
,2330.0,775.0,2607.0,893.0,2384.0,2471.0,1957.0,,,,-0.472132266267096,-2.84325009637551,-0.719599035415981,,-0.6251016506837594,,
,2332.0,774.0,2612.0,898.0,2391.0,2479.0,1951.0,,,,-0.47203630257666,-2.84330332578229,-0.719249388481652,,-0.8911714364499181,,
,2333.0,776.0,2611.0,898.0,2379.0,2471.0,1961.0,,,,-0.471985741767339,-2.84316166195001,-0.719452752734171,,-1.1278471618818275,,
,2333.0,776.0,2615.0,897.0,2382.0,2464.0,1961.0,,,,-0.471938123297667,-2.84316956234911,-0.718785796576256,,-1.336786884346812,,
,2336.0,778.0,2614.0,898.0,2370.0,2466.0,1966.0,,,,-0.472402374206416,-2.84316480453052,-0.718953264491791,,-1.520582870403513,,
,2332.0,775.0,2615.0,899.0,2388.0,2469.0,1953.0,,,,-0.471989797903567,-2.84314218252819,-0.718592018966033,,-1.6823623898959308,,
,2333.0,778.0,2618.0,896.0,2394.0,2464.0,1946.0,,,,-0.471983800875674,-2.84314953924592,-0.719280891136392,,-1.8253951672677577,,
,2332.0,774.0,2619.0,901.0,2388.0,2469.0,1946.0,,,,-0.471855306577026,-2.84308242846716,-0.719012810471115,,-1.952741044437936,,
,2331.0,776.0,2617.0,900.0,2382.0,2476.0,1944.0,,,,-0.471581180275514,-2.84299290356577,-0.718619945245017,,-2.0669653749478663,,
,2325.0,771.0,2613.0,896.0,2382.0,2476.0,1948.0,,,,-0.471494215635379,-2.84319821211449,-0.71920722046352,,-2.1699409646053884,,
,2325.0,772.0,2613.0,898.0,2387.0,2463.0,1946.0,,,,-0.471593263161185,-2.84292445169439,-0.718939727732208,,-2.2627449824183943,,
,2322.0,771.0,2613.0,897.0,2385.0,2455.0,1958.0,,,,-0.471359494445839,-2.84288316373843,-0.718872125795968,,-2.345648454024621,,
,2322.0,771.0,2608.0,896.0,2378.0,2455.0,1967.0,,,,-0.471312698089764,-2.8431023895713,-0.718546727386815,,-2.4181861994603135,,
,2314.0,769.0,2607.0,893.0,2361.0,2457.0,1970.0,,,,-0.471607744110221,-2.84302193805412,-0.718034829561002,,-2.4792878917434726,,
,2313.0,767.0,2603.0,894.0,2362.0,2456.0,1970.0,,,,-0.471538043115857,-2.84302794113948,-0.717850042211658,,-2.5274473008227902,,
,2311.0,766.0,2600.0,893.0,2347.0,2459.0,1969.0,,,,-0.471101052589113,-2.84289438700336,-0.718577333533995,,-2.560906752410672,,
,2309.0,766.0,2599.0,892.0,2346.0,2463.0,1953.0,,,,-0.471273995156456,-2.8427817771864,-0.718080214738241,,-2.577836436346668,,
,2305.0,765.0,2593.0,889.0,2364.0,2466.0,1951.0,,,,-0.471362973196479,-2.84273365548758,-0.71789337708081,,-2.5764922045014544,,
,2300.0,762.0,2591.0,885.0,2376.0,2477.0,1959.0,,,,-0.470980789583471,-2.84290713779456,-0.718295536357641,,-2.5553399865118602,,
,2302.0,761.0,2589.0,887.0,2377.0,2483.0,1951.0,,,,-0.471181795933841,-2.84269349685873,-0.718004617200111,,-2.5131394998924708,,
,2298.0,764.0,2589.0,888.0,2387.0,2460.0,1960.0,,,,-0.470803112204856,-2.84277243100621,-0.717393492439541,,-2.44898441225547,,
,2298.0,763.0,2586.0,887.0,2385.0,2465.0,1962.0,,,,-0.470834089738356,-2.84285973868208,-0.717180664106629,,-2.3623004697310406,,
,2295.0,759.0,2583.0,883.0,2390.0,2461.0,1936.0,,,,-0.470874155116061,-2.84274129692273,-0.717077147662393,,-2.252807288408213,,
,2297.0,761.0,2582.0,883.0,2372.0,2467.0,1952.0,,,,-0.471046852147602,-2.84256653920805,-0.717512063666735,,-2.120453495503557,,
,2295.0,762.0,2582.0,883.0,2364.0,2466.0,1957.0,,,,-0.470777639146164,-2.84252896504098,-0.717222000523672,,-1.9653386212090787,,
,2296.0,761.0,2582.0,884.0,2372.0,2467.0,1958.0,,,,-0.470572957665523,-2.84252912545817,-0.717392911741171,,-1.7876382116704321,,
,2294.0,761.0,2580.0,883.0,2360.0,2468.0,1957.0,,,,-0.470728324596605,-2.84256758473615,-0.716954876602601,,-1.5875502865621693,,
,2292.0,758.0,2579.0,879.0,2376.0,2462.0,1963.0,,,,-0.470420976091682,-2.84246843349578,-0.717355645151805,,-1.365280513344705,,
,2291.0,761.0,2581.0,881.0,2375.0,2468.0,1966.0,,,,-0.470580180220223,-2.8425512724571,-0.716347556287767,,-1.121079540445766,,
,2291.0,762.0,2582.0,883.0,2379.0,2475.0,1959.0,,,,-0.470089704374206,-2.84240485033912,-0.716503952119097,,-0.8553387643298841,,
,2290.0,758.0,2580.0,882.0,2386.0,2472.0,1957.0,,,,-0.470159512738697,-2.84230841670314,-0.715995063843642,,-0.5687413963123678,,
,2291.0,758.0,2576.0,882.0,2376.0,2467.0,1969.0,,,,-0.469881928596491,-2.84217997849007,-0.7168732870753,,-0.26245591830152637,,
,2288.0,759.0,2576.0,880.0,2373.0,2460.0,1967.0,,,,-0.469819237624719,-2.84220757137654,-0.715153565428392,,0.061649157901859,,
,2286.0,757.0,2576.0,880.0,2388.0,2457.0,1950.0,,,,-0.469771277971558,-2.84230576659273,-0.715782183062626,,0.4007956588434206,,
,2286.0,759.0,2574.0,881.0,2377.0,2458.0,1946.0,,,,-0.469469317797461,-2.84215735515463,-0.715616019964116,,0.7511199248654562,,
,2284.0,757.0,2575.0,878.0,2366.0,2462.0,1958.0,,,,-0.469302976424751,-2.84223913690754,-0.714529745164204,,1.1075588972144514,,
,2283.0,756.0,2574.0,877.0,2362.0,2462.0,1968.0,,,,-0.469334124700485,-2.84231409014776,-0.715049119998677,,1.463823116340576,,
,2284.0,756.0,2573.0,879.0,2377.0,2462.0,1968.0,,,,-0.469221354816461,-2.84206674061349,-0.714885669212877,,1.8124760781677927,,
,2283.0,758.0,2573.0,880.0,2379.0,2462.0,1970.0,,,,-0.468940658266284,-2.84188022455238,-0.715171535714851,,2.1451313578815476,,
,2281.0,756.0,2568.0,876.0,2373.0,2464.0,1966.0,,,,-0.468889565953854,-2.84191443782359,-0.714191166400493,,2.4527684910392558,,
,2280.0,756.0,2572.0,877.0,2367.0,2463.0,1960.0,,,,-0.468601818058815,-2.84203506692533,-0.714339637306348,,2.726156257971202,,
,2280.0,756.0,2572.0,876.0,2372.0,2460.0,1955.0,,,,-0.46848727072919,-2.84205298907466,-0.714082047293224,,2.9563586738189946,,
,2281.0,757.0,2572.0,876.0,2375.0,2466.0,1958.0,,,,-0.468647435004979,-2.84185958375891,-0.715246012009191,,3.1352860886974407,,
,2283.0,757.0,2573.0,878.0,2379.0,2466.0,1957.0,,,,-0.468418963981525,-2.84195180247313,-0.714448928663512,,3.256243288909494,,
,2281.0,758.0,2572.0,878.0,2376.0,2469.0,1970.0,,,,-0.468411754371884,-2.84206615543088,-0.71339439074458,,3.314420556794152,,
,2280.0,756.0,2570.0,876.0,2366.0,2461.0,1957.0,,,,-0.468261699857493,-2.84212970392993,-0.714121736210946,,3.307274288573022,,
,2278.0,758.0,2572.0,876.0,2381.0,2456.0,1942.0,,,,-0.467699452994206,-2.84173889144937,-0.713595211320392,,3.2347521881646832,,
,2280.0,753.0,2570.0,875.0,2382.0,2465.0,1958.0,,,,-0.467974563577094,-2.84191045139272,-0.713061797966782,,3.0993340164953134,,
,2278.0,756.0,2572.0,879.0,2389.0,2463.0,1960.0,,,,-0.467951363650017,-2.84154433618375,-0.712603581762236,,2.9058802703973035,,
,2276.0,756.0,2572.0,874.0,2382.0,2463.0,1959.0,,,,-0.467772257510844,-2.84175243923943,-0.713189786211853,,2.6613042242949687,,
,2278.0,758.0,2570.0,877.0,2379.0,2464.0,1965.0,,,,-0.467743690073409,-2.84173283275668,-0.711676399863487,,2.3741031263743735,,
,2281.0,759.0,2572.0,876.0,2386.0,2461.0,1947.0,,,,-0.467510046462549,-2.84177819326681,-0.712216997821793,,2.0537984915063205,,
,2276.0,758.0,2571.0,876.0,2381.0,2466.0,1956.0,,,,-0.467499800611053,-2.8414874668317,-0.712398339787141,,1.7103417516166273,,
,2275.0,756.0,2572.0,874.0,2371.0,2465.0,1964.0,,,,-0.467441326791376,-2.8415883155635,-0.712061996255007,,1.353540325830587,,
,2275.0,755.0,2569.0,875.0,2379.0,2464.0,1971.0,,,,-0.467342057565052,-2.84167212577671,-0.712201996229211,,0.9925519791833073,,
,2276.0,758.0,2571.0,875.0,2362.0,2462.0,1959.0,,,,-0.467167488532162,-2.84170891067198,-0.713131213646002,,0.6354840214904162,,
,2275.0,757.0,2573.0,878.0,2380.0,2464.0,1959.0,,,,-0.467268858038404,-2.84165049991633,-0.711755786034242,,0.28912019711610587,,
,2275.0,755.0,2572.0,875.0,2371.0,2474.0,1952.0,,,,-0.4670523381094,-2.84153239986179,-0.711422606448061,,-0.04121645940041922,,
,2277.0,756.0,2572.0,876.0,2367.0,2475.0,1953.0,,,,-0.467197644894889,-2.84155039036162,-0.711548699547471,,-0.3516706299266762,,
,2276.0,758.0,2573.0,876.0,2349.0,2465.0,1949.0,,,,-0.467093127969881,-2.84147438465017,-0.711754897459743,,-0.6397497483356434,,
,2276.0,755.0,2574.0,874.0,2354.0,2463.0,1955.0,,,,-0.466959547254051,-2.84138467498107,-0.710922428959016,,-0.9041345382321321,,
,2278.0,759.0,2572.0,879.0,2357.0,2461.0,1952.0,,,,-0.466692253015505,-2.8415026897634,-0.71163468757078,,-1.1444377070994096,,
,2276.0,755.0,2574.0,875.0,2371.0,2458.0,1951.0,,,,-0.466772916932752,-2.84131698875567,-0.711559974456401,,-1.3609438975092785,,
,2275.0,755.0,2574.0,875.0,2377.0,2461.0,1952.0,,,,-0.466700940429127,-2.84124018118121,-0.711282025039852,,-1.5543598676402908,,
,2277.0,758.0,2574.0,876.0,2368.0,2463.0,1958.0,,,,-0.466679510657086,-2.84124078538852,-0.710548564126906,,-1.7255962369545963,,
,2278.0,758.0,2576.0,877.0,2371.0,2467.0,1959.0,,,,-0.466410672049904,-2.84135662827046,-0.711396865876827,,-1.8755928721878707,,
,2279.0,757.0,2577.0,876.0,2373.0,2479.0,1960.0,,,,-0.466385297537635,-2.84121819818184,-0.711417890583053,,-2.0051913239991395,,
,2279.0,757.0,2576.0,875.0,2379.0,2469.0,1964.0,,,,-0.466444731514723,-2.84139203610084,-0.711058619147928,,-2.115051368903026,,
,2279.0,758.0,2579.0,878.0,2359.0,2460.0,1954.0,,,,-0.466470146192185,-2.84132513627674,-0.71066916993094,,-2.205605216543768,,
,2278.0,759.0,2580.0,877.0,2362.0,2459.0,1945.0,,,,-0.466062456360577,-2.84115582764628,-0.710457501783986,,-2.2770417810596366,,
,2280.0,759.0,2583.0,878.0,2363.0,2461.0,1945.0,,,,-0.465841647967749,-2.84133780284831,-0.710178651499689,,-2.3293136318667957,,
,2281.0,760.0,2580.0,877.0,2388.0,2468.0,1945.0,,,,-0.465995564241673,-2.84123290526416,-0.710007397447496,,-2.3621600671575385,,
,2281.0,760.0,2583.0,878.0,2386.0,2476.0,1935.0,,,,-0.465785075066231,-2.84116445776607,-0.709520436044134,,-2.3751408136203485,,
,2282.0,760.0,2581.0,881.0,2390.0,2473.0,1932.0,,,,-0.465991451164194,-2.84110308965167,-0.710185994710815,,-2.3676759997410985,,
,2284.0,761.0,2586.0,878.0,2389.0,2467.0,1922.0,,,,-0.465601425541627,-2.84113688613536,-0.709798465608487,,-2.3390891676804872,,
,2282.0,761.0,2582.0,879.0,2388.0,2456.0,1928.0,,,,-0.465765332126678,-2.84116960130661,-0.710127943833269,,-2.2886511005849086,,
,2281.0,763.0,2583.0,879.0,2385.0,2465.0,1951.0,,,,-0.465731933691107,-2.84101873041337,-0.709727275107513,,-2.215623192547932,,
,2284.0,762.0,2587.0,881.0,2385.0,2461.0,1948.0,,,,-0.465790661927307,-2.84104741972416,-0.709975044883077,,-2.1193001500962456,,
,2284.0,761.0,2585.0,882.0,2372.0,2467.0,1952.0,,,,-0.46580595123533,-2.84115774833101,-0.709279304593989,,-1.9990531506104798,,
,2285.0,763.0,2589.0,881.0,2375.0,2473.0,1963.0,,,,-0.465857326832104,-2.84114995563889,-0.710141466832564,,-1.8543761448399223,,
,2284.0,761.0,2588.0,880.0,2369.0,2479.0,1949.0,,,,-0.465596084723685,-2.84094936199043,-0.708974737624394,,-1.6849393426022665,,
,2285.0,763.0,2590.0,883.0,2385.0,2464.0,1947.0,,,,-0.465431644675745,-2.84069873134679,-0.709952136663966,,-1.4906542592073668,,
,2286.0,761.0,2590.0,884.0,2385.0,2462.0,1947.0,,,,-0.465148506442906,-2.84087355175525,-0.709372737968161,,-1.2717532813024666,,
,2288.0,763.0,2593.0,883.0,2383.0,2468.0,1948.0,,,,-0.465234052873225,-2.84079886303857,-0.708473917026532,,-1.0288835540496444,,
,2286.0,763.0,2592.0,881.0,2369.0,2477.0,1950.0,,,,-0.464848646396724,-2.84096320605948,-0.708979000982652,,-0.7632111137873924,,
,2288.0,763.0,2593.0,883.0,2381.0,2455.0,1943.0,,,,-0.465193097218491,-2.84101716625532,-0.708630809911547,,-0.4765279261959428,,
,2288.0,764.0,2595.0,882.0,2376.0,2451.0,1948.0,,,,-0.465028655384192,-2.84095834779258,-0.708547999416658,,-0.1713525575342319,,
,2289.0,765.0,2596.0,887.0,2385.0,2448.0,1961.0,,,,-0.465161164150085,-2.84082766986917,-0.708028360389489,,0.14898556876637264,,
,2290.0,765.0,2596.0,885.0,2396.0,2451.0,1963.0,,,,-0.465010648435527,-2.84090711629591,-0.708966485661965,,0.4802886099964063,,
,2291.0,764.0,2598.0,883.0,2385.0,2463.0,1948.0,,,,-0.464930540283879,-2.84084076419802,-0.70868482099874,,0.8174698235444801,,
,2291.0,766.0,2600.0,885.0,2387.0,2457.0,1946.0,,,,-0.464540151521466,-2.8407372587749,-0.708198173332973,,1.1545804187613788,,
,2294.0,765.0,2601.0,886.0,2382.0,2459.0,1958.0,,,,-0.464669362831906,-2.84065800472644,-0.707907537766789,,1.4848930543397834,,
,2295.0,768.0,2600.0,885.0,2388.0,2459.0,1960.0,,,,-0.464532071171107,-2.84061720572582,-0.707680554234169,,1.8010489206202775,,
,2291.0,766.0,2601.0,886.0,2403.0,2470.0,1959.0,,,,-0.464536141735019,-2.84059776672056,-0.707802973723376,,2.0952711840377876,,
,2293.0,767.0,2604.0,887.0,2383.0,2479.0,1970.0,,,,-0.464901964615959,-2.840702635937,-0.707290743485717,,2.3596417187809795,,
,2296.0,768.0,2606.0,888.0,2391.0,2471.0,1952.0,,,,-0.465100168731292,-2.84073352732033,-0.707433740293866,,2.5864310362548575,,
,2295.0,769.0,2608.0,889.0,2381.0,2464.0,1959.0,,,,-0.464634866888921,-2.84072589193038,-0.70839832300883,,2.76846398377621,,
,2295.0,770.0,2608.0,888.0,2367.0,2464.0,1961.0,,,,-0.465313721540429,-2.84085705681646,-0.708714506124259,,2.8994971636361933,,
,2294.0,766.0,2605.0,888.0,2366.0,2468.0,1956.0,,,,-0.465508021350092,-2.8408044873222,-0.708542598359157,,2.974579274090486,,
,2298.0,771.0,2609.0,889.0,2359.0,2467.0,1954.0,,,,-0.465986571863104,-2.84132431651943,-0.709250057269264,,2.99036373409065,,
,2299.0,771.0,2611.0,891.0,2378.0,2466.0,1955.0,,,,-0.46607990716571,-2.8413143356803,-0.709298065975837,,2.9453446321776426,,
,2300.0,772.0,2612.0,892.0,2389.0,2458.0,1939.0,,,,-0.466900096301757,-2.84143349529009,-0.711134221202859,,2.839992281087801,,
,2299.0,768.0,2610.0,890.0,2398.0,2459.0,1928.0,,,,-0.466912631072801,-2.84168608480035,-0.710709429235596,,2.676773053999946,,
,2301.0,772.0,2615.0,892.0,2393.0,2458.0,1943.0,,,,-0.467469909346622,-2.84186164906603,-0.710959907391185,,2.4600488707953247,,
,2301.0,773.0,2617.0,892.0,2393.0,2463.0,1933.0,,,,-0.467765189848015,-2.84196167586324,-0.711823676572727,,2.19586323851623,,
,2304.0,773.0,2620.0,896.0,2372.0,2455.0,1949.0,,,,-0.468048965468903,-2.84211886904562,-0.711864873441652,,1.8916312658798242,,
,2302.0,772.0,2619.0,895.0,2369.0,2456.0,1949.0,,,,-0.468205025812143,-2.84221805117562,-0.712069582988477,,1.5557590017165648,,
,2306.0,771.0,2619.0,893.0,2366.0,2460.0,1936.0,,,,-0.468431390659358,-2.84230913355758,-0.712940833370139,,1.1972221187201797,,
,2306.0,773.0,2621.0,896.0,2387.0,2472.0,1937.0,,,,-0.468699202306158,-2.84231546848672,-0.71299233993604,,0.8251355078935615,,
,2306.0,774.0,2622.0,894.0,2380.0,2465.0,1939.0,,,,-0.468776254000552,-2.84223766809561,-0.71321055849172,,0.44834416130927324,,
,2308.0,778.0,2623.0,898.0,2377.0,2461.0,1934.0,,,,-0.46911805997313,-2.84251497251648,-0.712863636234062,,0.07506211418583625,,
,2307.0,775.0,2625.0,895.0,2374.0,2461.0,1932.0,,,,-0.469094683232364,-2.84234974366287,-0.713497420536357,,-0.2874194683615363,,
,2308.0,774.0,2626.0,897.0,2381.0,2460.0,1947.0,,,,-0.468998530591139,-2.84266087109426,-0.713687553621037,,-0.6329411072312229,,
,2312.0,777.0,2628.0,898.0,2377.0,2452.0,1935.0,,,,-0.468995523208571,-2.84249918162121,-0.712755822476344,,-0.9565944120780251,,
,2311.0,777.0,2628.0,898.0,2382.0,2455.0,1956.0,,,,-0.469126295713214,-2.84246120876069,-0.713691886867007,,-1.254752905207909,,
,2315.0,776.0,2631.0,898.0,2378.0,2454.0,1956.0,,,,-0.469334687883963,-2.84235457326725,-0.713600974637155,,-1.525021030487087,,
,2313.0,778.0,2630.0,896.0,2383.0,2467.0,1946.0,,,,-0.469036122913044,-2.84240145260966,-0.713839021656125,,-1.7661125231642834,,
,2314.0,777.0,2631.0,898.0,2382.0,2463.0,1947.0,,,,-0.469233555307105,-2.84239406365375,-0.713966226986728,,-1.9776723660115911,,
,2316.0,781.0,2637.0,901.0,2384.0,2458.0,1933.0,,,,-0.468786870637075,-2.84235653776226,-0.712905998979289,,-2.1600586777930366,,
2025-07-04 00:34:07,2317.0,781.0,2636.0,901.0,2382.0,2457.0,1935.0,,,2025/07/04 12:34:07 AM,-0.469232715427692,-2.84260683382397,-0.71400024840772,,-2.314102462046948,,
,2317.0,779.0,2635.0,899.0,2390.0,2465.0,1938.0,,,,-0.469395115969568,-2.84265872720299,-0.713569317025539,,-2.4408642370647806,,
,2319.0,780.0,2638.0,902.0,2406.0,2460.0,1935.0,,,,-0.469633831319096,-2.8427158301845,-0.713846898579361,,-2.5414068316954497,,
,2317.0,782.0,2639.0,902.0,2391.0,2466.0,1948.0,,,,-0.469412132484889,-2.84237055606653,-0.714132729030486,,-2.616602588306648,,
,2322.0,782.0,2639.0,903.0,2387.0,2473.0,1952.0,,,,-0.469428033461473,-2.84271384639333,-0.714137775121467,,-2.6669905708787898,,
,2322.0,780.0,2642.0,904.0,2383.0,2478.0,1953.0,,,,-0.46948361258628,-2.84281263974124,-0.714038791186552,,-2.692695156711902,,
,2321.0,783.0,2642.0,903.0,2389.0,2465.0,1950.0,,,,-0.469477992225901,-2.84273661520457,-0.714387797280869,,-2.693411876440622,,
,2323.0,783.0,2641.0,906.0,2384.0,2466.0,1952.0,,,,-0.469778393390283,-2.8426608936405,-0.714080924921866,,-2.66846001376086,,
,2324.0,782.0,2648.0,905.0,2396.0,2471.0,1946.0,,,,-0.469558900425919,-2.84272413147231,-0.713862191197503,,-2.6168948753890984,,
,2325.0,785.0,2647.0,906.0,2401.0,2469.0,1946.0,,,,-0.46963397508617,-2.84267576246607,-0.714328238143432,,-2.5376664878834734,,
,2324.0,785.0,2648.0,905.0,2396.0,2467.0,1936.0,,,,-0.469620076972744,-2.84272151739369,-0.714095133615475,,-2.429806484868963,,
,2320.0,783.0,2650.0,905.0,2392.0,2469.0,1949.0,,,,-0.469886975154996,-2.84255562258831,-0.714035600723498,,-2.292621736600502,,
,2321.0,781.0,2650.0,908.0,2399.0,2473.0,1944.0,,,,-0.469505587403851,-2.8426091566004,-0.714361092713321,,-2.125872316588009,,
,2319.0,783.0,2648.0,906.0,2393.0,2472.0,1934.0,,,,-0.469485046284468,-2.84278934955729,-0.713647841479928,,-1.929913070493149,,
,2318.0,783.0,2647.0,907.0,2401.0,2457.0,1939.0,,,,-0.469585177020148,-2.84272389479888,-0.71394774666154,,-1.7057826130373563,,
,2313.0,780.0,2645.0,904.0,2393.0,2454.0,1936.0,,,,-0.469441576883089,-2.84264216229776,-0.713932409017158,,-1.4552308867093822,,
,2312.0,780.0,2642.0,902.0,2397.0,2465.0,1934.0,,,,-0.469754672677807,-2.84267016093425,-0.713882208615699,,-1.1806855127826257,,
,2311.0,778.0,2643.0,904.0,2380.0,2460.0,1940.0,,,,-0.469558043847764,-2.84270367415143,-0.714075213232676,,-0.8851662687643572,,
,2307.0,777.0,2637.0,901.0,2363.0,2455.0,1933.0,,,,-0.469646236164133,-2.84287929464521,-0.714874751120634,,-0.5721641475987869,,
,2302.0,774.0,2634.0,899.0,2374.0,2459.0,1942.0,,,,-0.469713718981981,-2.84271698279204,-0.713720934119367,,-0.2455052136312955,,
,2302.0,775.0,2631.0,899.0,2354.0,2470.0,1956.0,,,,-0.469734618179359,-2.84258080215042,-0.714549758559288,,0.09078047900850304,,
,2299.0,774.0,2630.0,897.0,2349.0,2463.0,1946.0,,,,-0.469989283598356,-2.84289445011822,-0.714935110414892,,0.43256776995632756,,
,2297.0,772.0,2622.0,898.0,2348.0,2459.0,1942.0,,,,-0.469863689459225,-2.84273766271777,-0.714619363947245,,0.7757112970397747,,
,2296.0,773.0,2623.0,895.0,2354.0,2473.0,1932.0,,,,-0.47006155319519,-2.84258297286037,-0.714819601784363,,1.1160812158835485,,
,2295.0,772.0,2622.0,895.0,2371.0,2465.0,1924.0,,,,-0.4701781915346,-2.84285354133297,-0.715384785501162,,1.4495614294757635,,
,2293.0,773.0,2619.0,895.0,2380.0,2457.0,1930.0,,,,-0.470167122488364,-2.84292026313238,-0.714950698319031,,1.7720184650309216,,
,2295.0,770.0,2620.0,894.0,2399.0,2469.0,1935.0,,,,-0.470500378269766,-2.84283659604266,-0.714842157741794,,2.0792544681243506,,
,2295.0,771.0,2618.0,892.0,2396.0,2470.0,1937.0,,,,-0.470054645062778,-2.84286644854139,-0.715324691021484,,2.366961535238213,,
,2295.0,773.0,2618.0,895.0,2387.0,2463.0,1949.0,,,,-0.469964917229135,-2.84266879578439,-0.714613802426991,,2.6306964031221844,,
,2292.0,773.0,2618.0,891.0,2393.0,2470.0,1962.0,,,,-0.470035991962871,-2.84256102652418,-0.714878302762301,,2.8658938838612977,,
,2294.0,771.0,2616.0,893.0,2382.0,2477.0,1962.0,,,,-0.469980515578168,-2.84268154259869,-0.715221729036166,,3.0679338264484404,,
,2291.0,771.0,2614.0,893.0,2381.0,2473.0,1950.0,,,,-0.469781858074857,-2.84269127253659,-0.715167819618786,,3.2322695938386823,,
,2291.0,771.0,2615.0,893.0,2373.0,2486.0,1921.0,,,,-0.469526055154529,-2.84269034398421,-0.714752683408803,,3.35461668149961,,
,2291.0,769.0,2612.0,890.0,2379.0,2472.0,1933.0,,,,-0.469698327493347,-2.84277356636571,-0.715043295423347,,3.4311896457524065,,
,2292.0,772.0,2613.0,892.0,2372.0,2477.0,1933.0,,,,-0.469676508542271,-2.84240437940076,-0.71440865874961,,3.4589658861653723,,
,2292.0,768.0,2614.0,893.0,2385.0,2466.0,1935.0,,,,-0.46947332835213,-2.84252145171271,-0.713752281068462,,3.4359478665473446,,
,2289.0,770.0,2614.0,894.0,2375.0,2464.0,1935.0,,,,-0.469567689116778,-2.84249115375105,-0.714757859777098,,3.361392424361156,,
,2287.0,769.0,2612.0,891.0,2362.0,2465.0,1949.0,,,,-0.46934231859339,-2.84234108028392,-0.713575017761664,,3.235977651004955,,
,2289.0,770.0,2613.0,890.0,2355.0,2458.0,1945.0,,,,-0.469227824307366,-2.84240746489423,-0.714510144249935,,3.0618843640920668,,
,2288.0,770.0,2609.0,891.0,2357.0,2454.0,1956.0,,,,-0.469202777793338,-2.84224819581032,-0.71444633957367,,2.842779257001906,,
,2287.0,768.0,2609.0,891.0,2360.0,2462.0,1962.0,,,,-0.4688602382827,-2.84234804830792,-0.714168357179603,,2.583698135427621,,
,2286.0,769.0,2609.0,890.0,2363.0,2466.0,1949.0,,,,-0.4689366227556,-2.84245562402815,-0.713946003932887,,2.290837723739163,,
,2288.0,768.0,2611.0,891.0,2353.0,2459.0,1958.0,,,,-0.46864813502702,-2.84227044092522,-0.713837476604218,,1.9712718122263126,,
,2286.0,767.0,2611.0,890.0,2364.0,2467.0,1961.0,,,,-0.468497345984825,-2.84219844936813,-0.713674158292349,,1.6326120953879169,,
,2287.0,769.0,2611.0,890.0,2375.0,2471.0,1954.0,,,,-0.468531588071573,-2.84211508122599,-0.713378466216086,,1.2826370922955452,,
,2287.0,770.0,2610.0,888.0,2376.0,2470.0,1949.0,,,,-0.468454041698983,-2.84199976282411,-0.71274077660533,,0.9289150304425259,,
,2286.0,766.0,2608.0,890.0,2370.0,2473.0,1949.0,,,,-0.468410458625488,-2.84204490581691,-0.713561746597015,,0.5784483352386807,,
,2284.0,769.0,2610.0,892.0,2383.0,2472.0,1959.0,,,,-0.468158831467475,-2.84207774987852,-0.71245444145234,,0.23736720319767013,,
,2286.0,769.0,2610.0,891.0,2378.0,2481.0,1948.0,,,,-0.468098974286461,-2.84202162702878,-0.713550253017542,,-0.08930350204282775,,
,2288.0,769.0,2610.0,891.0,2388.0,2477.0,1953.0,,,,-0.467995693065602,-2.84186152462891,-0.712482579735529,,-0.39778625529891076,,
,2286.0,768.0,2609.0,890.0,2390.0,2469.0,1963.0,,,,-0.467944765091099,-2.84178895055606,-0.712520163874504,,-0.6855927091755918,,
,2284.0,769.0,2608.0,889.0,2393.0,2468.0,1955.0,,,,-0.467809693405308,-2.84171526930519,-0.712640259662024,,-0.9514657099006696,,
,2285.0,769.0,2611.0,890.0,2387.0,2466.0,1959.0,,,,-0.467765308241317,-2.84178009263212,-0.712469760502666,,-1.1952305545944029,,
,2285.0,768.0,2608.0,889.0,2379.0,2471.0,1960.0,,,,-0.467938200678601,-2.84185376544283,-0.712367752041321,,-1.4175717635330172,,
,2284.0,768.0,2608.0,889.0,2371.0,2468.0,1944.0,,,,-0.467560522529186,-2.84188952278326,-0.71208591648588,,-1.6197570681754618,,
,2283.0,768.0,2610.0,888.0,2363.0,2466.0,1949.0,,,,-0.467162184787578,-2.841689576438,-0.711374299834399,,-1.8033339751461526,,
,2280.0,767.0,2608.0,888.0,2364.0,2470.0,1953.0,,,,-0.46714492280165,-2.84166077581563,-0.71372148405184,,-1.9698261858016717,,
,2284.0,769.0,2606.0,889.0,2367.0,2469.0,1949.0,,,,-0.467113371383913,-2.8416289016258,-0.712086344762654,,-2.12045724517597,,
,2280.0,767.0,2606.0,889.0,2362.0,2470.0,1952.0,,,,-0.467239198135382,-2.84150926930235,-0.71276477777912,,-2.2559268532108874,,
,2282.0,765.0,2601.0,886.0,2357.0,2464.0,1956.0,,,,-0.467139092008955,-2.84160413628297,-0.711828984291605,,-2.376261049042759,,
,2282.0,768.0,2606.0,890.0,2356.0,2469.0,1945.0,,,,-0.466959465137338,-2.84166277190197,-0.71192784357115,,-2.480750854150445,,
,2284.0,768.0,2608.0,890.0,2378.0,2463.0,1940.0,,,,-0.466699182445913,-2.84163853075348,-0.712331901845916,,-2.5679851046163273,,
,2284.0,767.0,2605.0,888.0,2378.0,2462.0,1942.0,,,,-0.466690501943828,-2.84151291725707,-0.711690655974612,,-2.635972776012285,,
,2285.0,768.0,2607.0,889.0,2351.0,2455.0,1940.0,,,,-0.466706499070723,-2.84170990715015,-0.711973023600031,,-2.682339442240104,,
,2283.0,767.0,2604.0,888.0,2361.0,2464.0,1946.0,,,,-0.466475862160954,-2.84140111601865,-0.711924126019549,,-2.70457348953092,,
,2284.0,768.0,2608.0,892.0,2372.0,2462.0,1942.0,,,,-0.466193818101193,-2.84158734306003,-0.711960609981761,,-2.7002920668823043,,
,2285.0,769.0,2609.0,890.0,2368.0,2465.0,1940.0,,,,-0.466270018064709,-2.84142301025591,-0.712287224034698,,-2.6674953223501934,,
,2283.0,769.0,2610.0,888.0,2364.0,2464.0,1944.0,,,,-0.465746582576536,-2.8413659454953,-0.71173444077486,,-2.6047800141627877,,
,2284.0,768.0,2608.0,889.0,2369.0,2469.0,1956.0,,,,-0.465993493389019,-2.84139132932725,-0.711595380451118,,-2.511489305290106,,
,2282.0,767.0,2608.0,890.0,2384.0,2463.0,1943.0,,,,-0.466005576554504,-2.84145573080665,-0.711329064858949,,-2.3877836606601752,,
,2285.0,770.0,2612.0,890.0,2377.0,2467.0,1939.0,,,,-0.465952488558645,-2.84141763152745,-0.711966976952048,,-2.234627567948829,,
,2284.0,770.0,2614.0,890.0,2376.0,2471.0,1935.0,,,,-0.46602900946832,-2.84121349049667,-0.712147977795088,,-2.0536974184972445,,
,2285.0,771.0,2610.0,890.0,2359.0,2469.0,1934.0,,,,-0.46582221313998,-2.84118225783778,-0.711295869587375,,-1.847226132271676,,
,2285.0,771.0,2612.0,891.0,2370.0,2472.0,1944.0,,,,-0.466060977652285,-2.84126294144078,-0.711839318318948,,-1.6178086890719867,,
,2287.0,773.0,2614.0,892.0,2393.0,2465.0,1934.0,,,,-0.465878907871212,-2.84119588569917,-0.711477610379968,,-1.3681984258859692,,
,2286.0,771.0,2616.0,891.0,2360.0,2470.0,1954.0,,,,-0.465492960733489,-2.84113437257091,-0.710937646782362,,-1.1011257293223256,,
,2286.0,773.0,2613.0,891.0,2358.0,2477.0,1950.0,,,,-0.466256453722268,-2.84092008474287,-0.711199708828887,,-0.8191678778621666,,
,2287.0,769.0,2613.0,889.0,2363.0,2474.0,1942.0,,,,-0.465614915801481,-2.84105510952946,-0.710742161069432,,-0.5246912419731307,,
,2289.0,773.0,2616.0,891.0,2375.0,2478.0,1936.0,,,,-0.465470545715566,-2.84103911142588,-0.710677707622697,,-0.21987571661724623,,
,2290.0,772.0,2618.0,893.0,2370.0,2477.0,1955.0,,,,-0.46516595327732,-2.84100598809624,-0.710806469300555,,0.09318214801071871,,
,2290.0,771.0,2617.0,892.0,2367.0,2474.0,1957.0,,,,-0.465383685618997,-2.841208220803,-0.71054042426914,,0.41230408427867976,,
,2287.0,773.0,2616.0,892.0,2356.0,2469.0,1945.0,,,,-0.465051499009397,-2.84116509338699,-0.711638862762906,,0.735030581200108,,
,2289.0,772.0,2620.0,893.0,2362.0,2482.0,1965.0,,,,-0.465008753708506,-2.84111794298628,-0.710843559364104,,1.0584206886472927,,
,2290.0,773.0,2620.0,895.0,2370.0,2485.0,1966.0,,,,-0.464760031049113,-2.84112284551291,-0.71002155985312,,1.3788860997491381,,
,2290.0,773.0,2621.0,895.0,2369.0,2480.0,1946.0,,,,-0.46459000836871,-2.84099474696059,-0.710080379066875,,1.6920907524362865,,
,2293.0,776.0,2626.0,896.0,2369.0,2468.0,1936.0,,,,-0.464708002937237,-2.84091877303669,-0.711168292984615,,1.9929396218832622,,
,2290.0,772.0,2621.0,893.0,2381.0,2459.0,1949.0,,,,-0.464612048970703,-2.84085973424532,-0.710021849661976,,2.2756701183422097,,
,2290.0,775.0,2625.0,893.0,2375.0,2460.0,1944.0,,,,-0.464790894985664,-2.84077223822892,-0.711011731543707,,2.534047654788603,,
,2295.0,775.0,2625.0,895.0,2356.0,2461.0,1944.0,,,,-0.464947008376932,-2.84100745025796,-0.710898769114493,,2.7616545673107766,,
,2292.0,774.0,2625.0,897.0,2360.0,2458.0,1949.0,,,,-0.464928580932101,-2.84080186353663,-0.71133145502003,,2.9522498133203996,,
,2290.0,774.0,2624.0,895.0,2364.0,2455.0,1945.0,,,,-0.465240250974199,-2.84082220254635,-0.711442577683908,,3.1001669956925038,,
,2294.0,775.0,2625.0,897.0,2358.0,2458.0,1944.0,,,,-0.465512158300669,-2.84114601565121,-0.712034045569166,,3.2007114921260946,,
,2292.0,776.0,2628.0,898.0,2374.0,2462.0,1956.0,,,,-0.466340442742532,-2.84129668923778,-0.712806677081368,,3.2505148115960876,,
,2292.0,777.0,2628.0,898.0,2367.0,2458.0,1960.0,,,,-0.466432100063672,-2.84152053224927,-0.713436827344239,,3.2478063781398943,,
,2293.0,776.0,2629.0,898.0,2366.0,2455.0,1964.0,,,,-0.467034170935,-2.84177398825601,-0.712535069542797,,3.192569985525019,,
,2293.0,774.0,2626.0,896.0,2353.0,2466.0,1957.0,,,,-0.467400929731483,-2.84167404443722,-0.713752355683896,,3.0865640439185245,,
,2295.0,776.0,2634.0,898.0,2382.0,2463.0,1955.0,,,,-0.467721860697375,-2.84187966932262,-0.714144562660312,,2.933200709458009,,
,2296.0,778.0,2632.0,898.0,2381.0,2462.0,1964.0,,,,-0.468114052450246,-2.84185977440847,-0.714765076918597,,2.7372971148914145,,
,2296.0,776.0,2633.0,899.0,2368.0,2456.0,1955.0,,,,-0.468867035971696,-2.84210766990606,-0.715455116377655,,2.5047288889726778,,
,2296.0,778.0,2635.0,899.0,2357.0,2457.0,1947.0,,,,-0.468805605035152,-2.84230435093111,-0.715207974041854,,2.242028182319719,,
,2296.0,779.0,2636.0,899.0,2375.0,2467.0,1942.0,,,,-0.469141368834942,-2.84244556144043,-0.715795046956063,,1.9559728721068657,,
,2300.0,778.0,2637.0,900.0,2385.0,2471.0,1956.0,,,,-0.469334976728949,-2.8425147621616,-0.716255834101158,,1.6532101452220287,,
,2299.0,781.0,2639.0,902.0,2380.0,2466.0,1957.0,,,,-0.469687645996819,-2.84261365296729,-0.717504649885378,,1.3399480975926514,,
,2298.0,779.0,2637.0,901.0,2376.0,2463.0,1956.0,,,,-0.469985089161405,-2.84279187064803,-0.717605519471861,,1.021736242896839,,
,2302.0,778.0,2639.0,901.0,2382.0,2477.0,1954.0,,,,-0.470213017046016,-2.84273657607698,-0.71656851222367,,0.7033425903866984,,
,2299.0,779.0,2641.0,904.0,2391.0,2475.0,1942.0,,,,-0.469947657007892,-2.84284173253763,-0.71765784090984,,0.3887230433155437,,
,2302.0,781.0,2642.0,901.0,2382.0,2465.0,1952.0,,,,-0.469983736296059,-2.8428030576631,-0.718439254230277,,0.08106927732512266,,
,2303.0,781.0,2642.0,902.0,2374.0,2462.0,1957.0,,,,-0.470018108050776,-2.84277417502949,-0.718143794277223,,-0.2170854883508661,,
,2301.0,780.0,2642.0,901.0,2384.0,2467.0,1948.0,,,,-0.469837991582072,-2.84286730106094,-0.717593172859918,,-0.5037270072784533,,
,2304.0,782.0,2647.0,903.0,2392.0,2473.0,1939.0,,,,-0.470048608069966,-2.84286872171802,-0.718426914593803,,-0.7772113452537549,,
,2306.0,782.0,2647.0,905.0,2371.0,2475.0,1954.0,,,,-0.470076815013345,-2.84273823433784,-0.717930488928426,,-1.0361289013731507,,
,2306.0,783.0,2646.0,903.0,2368.0,2473.0,1953.0,,,,-0.470176713382968,-2.84276400185803,-0.71792330031393,,-1.2791977292445154,,
,2305.0,783.0,2645.0,902.0,2375.0,2468.0,1954.0,,,,-0.470019517103564,-2.84285465220708,-0.717046992658678,,-1.5051956472279797,,
,2304.0,781.0,2650.0,903.0,2381.0,2465.0,1969.0,,,,-0.470080071340045,-2.84277808679159,-0.718360466880932,,-1.7129325624608223,,
,2307.0,782.0,2649.0,905.0,2380.0,2469.0,1940.0,,,,-0.470214117604042,-2.84302259856886,-0.718490705380785,,-1.9012568018491207,,
,2308.0,787.0,2650.0,908.0,2387.0,2458.0,1943.0,,,,-0.470203826382624,-2.84277131553747,-0.718423282107244,,-2.0690836672019564,,
,2310.0,784.0,2654.0,908.0,2392.0,2458.0,1953.0,,,,-0.469977386838914,-2.84304492544278,-0.718224291826578,,-2.2154321762194273,,
,2308.0,783.0,2653.0,906.0,2388.0,2466.0,1959.0,,,,-0.470423131410618,-2.84302934063748,-0.718531560717474,,-2.339457239059418,,
,2309.0,786.0,2658.0,908.0,2392.0,2466.0,1959.0,,,,-0.470604771884447,-2.84316358299615,-0.718824633299384,,-2.4404684162734873,,
,2312.0,787.0,2657.0,906.0,2385.0,2461.0,1959.0,,,,-0.470613579629089,-2.84310677792444,-0.718674413293164,,-2.5179313913245003,,
,2310.0,788.0,2658.0,909.0,2387.0,2475.0,1962.0,,,,-0.470600205876899,-2.84320883008282,-0.718840234456758,,-2.5714530060996292,,
,2311.0,787.0,2660.0,909.0,2389.0,2483.0,1961.0,,,,-0.470605774662633,-2.84314520532097,-0.719008933377255,,-2.6007543042313706,,
,2312.0,788.0,2659.0,907.0,2381.0,2490.0,1956.0,,,,-0.470540375608523,-2.84322117799044,-0.719405539498912,,-2.6056381395006754,,
,2311.0,787.0,2660.0,912.0,2391.0,2476.0,1958.0,,,,-0.471091516870607,-2.8430779106824,-0.719233266496786,,-2.585958494971302,,
,2311.0,787.0,2660.0,911.0,2399.0,2466.0,1968.0,,,,-0.471245290507181,-2.8432610192081,-0.719349951992833,,-2.5415979264514905,,
,2312.0,790.0,2664.0,907.0,2367.0,2484.0,1941.0,,,,-0.471165232262271,-2.84319045938981,-0.71950411625878,,-2.4724579145123293,,
,2310.0,785.0,2660.0,907.0,2393.0,2469.0,1952.0,,,,-0.471043918096313,-2.84309496391377,-0.719396539448707,,-2.3784649456587155,,
,2306.0,784.0,2661.0,908.0,2385.0,2476.0,1966.0,,,,-0.471125191531264,-2.84310575278146,-0.718822356312926,,-2.2595933697080093,,
2025-07-04 00:34:08,2306.0,784.0,2659.0,909.0,2376.0,2466.0,1967.0,,,2025/07/04 12:34:08 AM,-0.471671007668583,-2.84339056140426,-0.719743183844217,,-2.115904771544715,,
,2301.0,785.0,2656.0,908.0,2382.0,2465.0,1957.0,,,,-0.47154783055958,-2.84309347566666,-0.718980140572532,,-1.9476026406333615,,
,2300.0,782.0,2651.0,904.0,2390.0,2460.0,1949.0,,,,-0.471696428735241,-2.84301980220369,-0.719330435976543,,-1.7551000772198773,,
,2298.0,782.0,2653.0,904.0,2381.0,2463.0,1955.0,,,,-0.471428032332467,-2.84324717777994,-0.719484537297306,,-1.5390966940943411,,
,2295.0,780.0,2649.0,906.0,2377.0,2468.0,1958.0,,,,-0.471671981310204,-2.84300315396051,-0.719039766638724,,-1.3006588014326983,,
,2291.0,779.0,2643.0,902.0,2369.0,2463.0,1951.0,,,,-0.471408119320992,-2.84317712721918,-0.719370177872503,,-1.0412951378960502,,
,2286.0,777.0,2642.0,899.0,2364.0,2462.0,1951.0,,,,-0.471600123405383,-2.84318934759854,-0.720121251533527,,-0.7630198247983446,,
,2283.0,778.0,2635.0,898.0,2371.0,2460.0,1934.0,,,,-0.471832620067488,-2.84300037401485,-0.719498712293466,,-0.46839534854597675,,
,2282.0,777.0,2635.0,900.0,2374.0,2463.0,1947.0,,,,-0.471580646767645,-2.84313237385962,-0.72022122267729,,-0.16055082477601657,,
,2278.0,776.0,2632.0,898.0,2384.0,2462.0,1946.0,,,,-0.471699857351113,-2.8429668626563,-0.719936910575262,,0.1568263793859653,,
,2277.0,777.0,2628.0,894.0,2380.0,2468.0,1951.0,,,,-0.471726398403052,-2.8432405977374,-0.719924169557585,,0.47952528209418727,,
,2276.0,775.0,2626.0,893.0,2376.0,2466.0,1958.0,,,,-0.471931058198336,-2.84310137814974,-0.719998712695126,,0.802870443017875,,
,2274.0,774.0,2626.0,893.0,2390.0,2472.0,1968.0,,,,-0.471849496388198,-2.84305249452607,-0.719846089845041,,1.1218034268211523,,
,2276.0,776.0,2624.0,892.0,2374.0,2482.0,1959.0,,,,-0.472125247873935,-2.8429587032222,-0.719946138145723,,1.4309844113406502,,
,2274.0,775.0,2624.0,893.0,2373.0,2483.0,1954.0,,,,-0.47184997913644,-2.84297937368328,-0.719401162211454,,1.7249119328110656,,
,2273.0,774.0,2620.0,892.0,2387.0,2479.0,1961.0,,,,-0.471893308838452,-2.8429463867651,-0.71929500657631,,1.998058708418809,,
,2270.0,772.0,2619.0,891.0,2389.0,2476.0,1973.0,,,,-0.472053046343841,-2.8429223581167,-0.719962627654407,,2.2450210553217977,,
,2273.0,773.0,2621.0,890.0,2381.0,2463.0,1961.0,,,,-0.471883046392391,-2.84288178214611,-0.719036194935582,,2.4606785687502706,,
,2268.0,773.0,2620.0,892.0,2372.0,2485.0,1958.0,,,,-0.471723705662324,-2.84300163259491,-0.720061229095162,,2.6403594214744888,,
,2270.0,773.0,2618.0,890.0,2378.0,2483.0,1962.0,,,,-0.47182383723729,-2.84290109095415,-0.720071981158332,,2.780005019269129,,
,2264.0,770.0,2618.0,890.0,2382.0,2481.0,1963.0,,,,-0.471667759398057,-2.84294467268647,-0.719082917109185,,2.8763260691801653,,
,2266.0,772.0,2615.0,891.0,2382.0,2468.0,1958.0,,,,-0.471472578168974,-2.84294367626873,-0.718952402937798,,2.92694069752529,,
,2267.0,771.0,2615.0,890.0,2363.0,2464.0,1959.0,,,,-0.471491359020276,-2.84291069913724,-0.719117529453941,,2.9304843562859735,,
,2265.0,767.0,2613.0,886.0,2370.0,2467.0,1958.0,,,,-0.471307847522645,-2.84284778708323,-0.718837943016216,,2.8866813022262714,,
,2262.0,769.0,2611.0,886.0,2387.0,2452.0,1963.0,,,,-0.471344940787763,-2.84274623953316,-0.718655836448698,,2.7963691448296633,,
,2261.0,771.0,2610.0,884.0,2389.0,2463.0,1954.0,,,,-0.471082369917056,-2.84271933597759,-0.718878878956752,,2.6614719459422833,,
,2261.0,770.0,2608.0,889.0,2393.0,2457.0,1962.0,,,,-0.471085028583607,-2.8427748187604,-0.718575497639687,,2.4849233469954664,,
,2260.0,771.0,2611.0,885.0,2395.0,2459.0,1962.0,,,,-0.470681088909471,-2.84253513048388,-0.718609409416852,,2.270547718967079,,
,2260.0,771.0,2608.0,884.0,2384.0,2475.0,1976.0,,,,-0.470802971691984,-2.84271339436401,-0.717580208732191,,2.022912273906951,,
,2258.0,769.0,2607.0,884.0,2388.0,2460.0,1977.0,,,,-0.470799813644735,-2.84275506604557,-0.718004895982004,,1.747164846174438,,
,2260.0,769.0,2607.0,884.0,2373.0,2453.0,1951.0,,,,-0.470599731493632,-2.84274050645738,-0.717725391919792,,1.448870280635553,,
,2259.0,768.0,2606.0,882.0,2373.0,2455.0,1948.0,,,,-0.470626324680255,-2.84271193540517,-0.717392688883522,,1.133853826923739,,
,2258.0,769.0,2605.0,884.0,2374.0,2456.0,1945.0,,,,-0.470633050093104,-2.84266882139691,-0.718193369741021,,0.8080540850166672,,
,2258.0,769.0,2605.0,884.0,2370.0,2466.0,1958.0,,,,-0.470747458282415,-2.84255056384407,-0.718112987224221,,0.47738265730383295,,
,2259.0,771.0,2606.0,883.0,2376.0,2464.0,1955.0,,,,-0.470608663599964,-2.84255617788987,-0.717878070963921,,0.14758449868548057,,
,2259.0,771.0,2605.0,885.0,2376.0,2462.0,1960.0,,,,-0.470305829003844,-2.84258931284489,-0.717445425481228,,-0.1759067598767586,,
,2257.0,769.0,2603.0,883.0,2383.0,2454.0,1970.0,,,,-0.470526918081221,-2.84239154400257,-0.717866700902607,,-0.4881203304044549,,
,2257.0,769.0,2605.0,881.0,2351.0,2460.0,1960.0,,,,-0.470393062349229,-2.84241127086703,-0.717166981389778,,-0.7847019404331855,,
,2257.0,770.0,2602.0,884.0,2376.0,2469.0,1954.0,,,,-0.470179004868872,-2.84250063045193,-0.717585702981465,,-1.0620578438323198,,
,2253.0,772.0,2604.0,884.0,2384.0,2463.0,1955.0,,,,-0.470528409737423,-2.84254164733617,-0.717050079677393,,-1.31747194264989,,
,2252.0,773.0,2605.0,883.0,2383.0,2463.0,1933.0,,,,-0.470250107635118,-2.84238081125841,-0.717391862676332,,-1.549176992061514,,
,2254.0,768.0,2604.0,882.0,2375.0,2463.0,1942.0,,,,-0.470320506204385,-2.84236131087807,-0.717505185377102,,-1.7563634292430315,,
,2255.0,766.0,2601.0,880.0,2376.0,2473.0,1962.0,,,,-0.470302541826819,-2.84228758051037,-0.716931488562888,,-1.9391157708457392,,
,2255.0,770.0,2600.0,882.0,2381.0,2472.0,1972.0,,,,-0.470022269676295,-2.84222687139216,-0.716715032077047,,-2.098275412039954,,
,2253.0,770.0,2600.0,881.0,2350.0,2465.0,1965.0,,,,-0.470093596702564,-2.84220741813446,-0.717089993188386,,-2.235238468217737,,
,2254.0,769.0,2601.0,880.0,2348.0,2468.0,1966.0,,,,-0.469761606731693,-2.84222404135121,-0.716686461914762,,-2.351706519482438,,
,2253.0,767.0,2599.0,880.0,2360.0,2470.0,1966.0,,,,-0.469744015396857,-2.84238762063841,-0.716790020280962,,-2.449415328418474,,
,2252.0,771.0,2600.0,879.0,2360.0,2467.0,1959.0,,,,-0.469740174912807,-2.84222364640329,-0.715958343448663,,-2.5298706260407324,,
,2255.0,770.0,2602.0,882.0,2376.0,2463.0,1943.0,,,,-0.469800075919985,-2.8419933929666,-0.715923822498856,,-2.5941202852661656,,
,2253.0,770.0,2600.0,882.0,2362.0,2460.0,1952.0,,,,-0.469953019643491,-2.84209796322523,-0.716749288988043,,-2.6425887412573976,,
,2254.0,770.0,2600.0,882.0,2364.0,2457.0,1968.0,,,,-0.469693712643443,-2.84191448993511,-0.716568483619544,,-2.6749930264964585,,
,2254.0,769.0,2600.0,880.0,2368.0,2460.0,1965.0,,,,-0.469621703079235,-2.84208801885106,-0.716356759951229,,-2.6903511216213314,,
,2254.0,772.0,2599.0,882.0,2369.0,2464.0,1968.0,,,,-0.469595269690605,-2.84198258584576,-0.716176852865278,,-2.687083358928256,,
,2255.0,773.0,2600.0,882.0,2375.0,2462.0,1960.0,,,,-0.469474745225274,-2.84194610484216,-0.716270765923855,,-2.6631972391859198,,
,2255.0,772.0,2602.0,882.0,2374.0,2474.0,1960.0,,,,-0.469191166168396,-2.84200787284886,-0.715809913645663,,-2.616536146098456,,
,2254.0,774.0,2600.0,882.0,2378.0,2476.0,1956.0,,,,-0.469167313875719,-2.84188100506184,-0.715582788232568,,-2.54506402107624,,
,2253.0,769.0,2600.0,881.0,2374.0,2466.0,1961.0,,,,-0.469417513822827,-2.84192231940765,-0.715793582799322,,-2.447152155872723,,
,2257.0,774.0,2605.0,882.0,2372.0,2468.0,1969.0,,,,-0.469053764821781,-2.84195200582317,-0.715848650743959,,-2.3218321109362496,,
,2257.0,772.0,2601.0,882.0,2369.0,2463.0,1969.0,,,,-0.468860535181584,-2.84176137057438,-0.715627251974252,,-2.168981568502622,,
,2256.0,771.0,2604.0,883.0,2370.0,2456.0,1967.0,,,,-0.468867612845041,-2.84189557366541,-0.715499629887372,,-1.989418137618968,,
,2255.0,772.0,2605.0,881.0,2374.0,2456.0,1953.0,,,,-0.468960827943328,-2.84194176521151,-0.715172757335244,,-1.7848887720811721,,
,2258.0,772.0,2604.0,885.0,2375.0,2466.0,1965.0,,,,-0.468872368823138,-2.84173058940716,-0.714954877636974,,-1.557957219278343,,
,2260.0,772.0,2606.0,885.0,2368.0,2459.0,1967.0,,,,-0.469010468948555,-2.84177274478909,-0.714726889114457,,-1.3118060029695897,,
,2260.0,774.0,2608.0,882.0,2373.0,2457.0,1968.0,,,,-0.468927540826243,-2.84163633441394,-0.715611094857878,,-1.0499805987344384,,
,2258.0,773.0,2607.0,883.0,2370.0,2456.0,1953.0,,,,-0.468471318027593,-2.84170873690447,-0.715184548167828,,-0.7761104139990557,,
,2258.0,773.0,2608.0,883.0,2390.0,2461.0,1950.0,,,,-0.468624635903253,-2.84175871057898,-0.714883141855375,,-0.49364353490002294,,
,2261.0,776.0,2607.0,883.0,2378.0,2457.0,1961.0,,,,-0.46843079491973,-2.84149705255435,-0.715305879039846,,-0.2056301057517091,,
,2261.0,775.0,2610.0,884.0,2369.0,2457.0,1956.0,,,,-0.468457036225062,-2.841614947979,-0.714609793987823,,0.0854168623726039,,
,2263.0,774.0,2608.0,885.0,2360.0,2455.0,1953.0,,,,-0.468385516318022,-2.84146931686692,-0.715109115416767,,0.3775638050683864,,
,2262.0,774.0,2608.0,885.0,2364.0,2456.0,1933.0,,,,-0.468105778898519,-2.84139306765649,-0.714643999274034,,0.6693943027206123,,
,2263.0,774.0,2610.0,885.0,2377.0,2461.0,1952.0,,,,-0.468179572547101,-2.84126803527435,-0.714371760153542,,0.9598473642196129,,
,2265.0,774.0,2611.0,887.0,2381.0,2466.0,1951.0,,,,-0.467990069928,-2.84144713760128,-0.714475445932441,,1.2479743951947755,,
,2263.0,775.0,2611.0,884.0,2376.0,2464.0,1943.0,,,,-0.468089265727388,-2.84136740685187,-0.714303020995567,,1.5326445531235207,,
,2263.0,776.0,2613.0,885.0,2360.0,2467.0,1963.0,,,,-0.467968592863725,-2.84136781096246,-0.714644383720851,,1.8122372604709698,,
,2264.0,776.0,2615.0,887.0,2372.0,2471.0,1962.0,,,,-0.467803603767939,-2.8412607070396,-0.713769455648212,,2.0843658253290624,,
,2265.0,777.0,2615.0,888.0,2362.0,2475.0,1958.0,,,,-0.467707639270095,-2.84130669635367,-0.713792862392941,,2.3456760393536196,,
,2267.0,779.0,2617.0,889.0,2361.0,2465.0,1959.0,,,,-0.467427190243823,-2.84129047401399,-0.713881670530141,,2.5917574610540774,,
,2268.0,779.0,2618.0,888.0,2353.0,2453.0,1940.0,,,,-0.467354089453608,-2.84123929612947,-0.714114450710681,,2.817193168591455,,
,2266.0,777.0,2617.0,888.0,2382.0,2449.0,1949.0,,,,-0.467260564146538,-2.84112075932357,-0.713593910987152,,3.0157575933978635,,
,2268.0,779.0,2618.0,889.0,2370.0,2459.0,1952.0,,,,-0.467290278528433,-2.8412330163306,-0.713382196278813,,3.1807537923302514,,
,2266.0,781.0,2619.0,889.0,2364.0,2461.0,1934.0,,,,-0.467566200266311,-2.84120533113424,-0.71390466783911,,3.3054634061830135,,
,2270.0,779.0,2621.0,889.0,2366.0,2461.0,1950.0,,,,-0.467360735331836,-2.84129038134952,-0.714340109341737,,3.3836666501087866,,
,2270.0,780.0,2617.0,889.0,2355.0,2467.0,1961.0,,,,-0.467609775967964,-2.84128040154451,-0.713838281302618,,3.4101779944156747,,
,2270.0,780.0,2622.0,890.0,2367.0,2467.0,1945.0,,,,-0.467846573766979,-2.84141376384031,-0.71442643021892,,3.381337715067611,,
,2271.0,779.0,2618.0,888.0,2365.0,2470.0,1947.0,,,,-0.468231015013767,-2.84172239759192,-0.715177174070914,,3.295401880384547,,
,2271.0,779.0,2621.0,890.0,2363.0,2471.0,1954.0,,,,-0.468432360276462,-2.84171468727747,-0.715166980785684,,3.152784247507193,,
,2273.0,780.0,2623.0,888.0,2364.0,2478.0,1957.0,,,,-0.46890452959404,-2.84179307619616,-0.715720442334354,,2.956121894592022,,
,2275.0,779.0,2624.0,891.0,2364.0,2466.0,1960.0,,,,-0.469271915087063,-2.84190656790289,-0.716423286997288,,2.71015913803672,,
,2274.0,783.0,2627.0,893.0,2370.0,2467.0,1946.0,,,,-0.469662373543693,-2.84219314260962,-0.717281302527192,,2.4214669898358707,,
,2277.0,781.0,2627.0,893.0,2374.0,2467.0,1949.0,,,,-0.469856986523408,-2.84240109073503,-0.716962870725977,,2.0980339152837675,,
,2276.0,783.0,2629.0,894.0,2373.0,2466.0,1944.0,,,,-0.470451117062539,-2.84244975910625,-0.71774892760348,,1.748775285125541,,
,2278.0,782.0,2628.0,892.0,2372.0,2470.0,1956.0,,,,-0.470834925794995,-2.84242815716235,-0.718252586149051,,1.3830127705173723,,
,2277.0,783.0,2632.0,896.0,2365.0,2479.0,1965.0,,,,-0.471217629453231,-2.84262422980247,-0.718796730025018,,1.00997147113856,,
,2279.0,785.0,2630.0,893.0,2374.0,2473.0,1958.0,,,,-0.471034836365714,-2.84272138467616,-0.718445201028314,,0.6383333920543267,,
,2280.0,785.0,2631.0,895.0,2364.0,2470.0,1952.0,,,,-0.471161230936582,-2.84285283024487,-0.718874003789528,,0.2758734933509335,,
,2278.0,783.0,2632.0,897.0,2363.0,2460.0,1955.0,,,,-0.471403103426371,-2.84292795674827,-0.717850032691291,,-0.070808286770744,,
,2281.0,785.0,2632.0,895.0,2362.0,2457.0,1957.0,,,,-0.471414778277891,-2.84289832397062,-0.71935037484693,,-0.39645658739606693,,
,2282.0,785.0,2634.0,896.0,2374.0,2470.0,1965.0,,,,-0.471110184687413,-2.8426797618808,-0.718759507107971,,-0.6972370428966165,,
,2282.0,786.0,2634.0,896.0,2363.0,2463.0,1969.0,,,,-0.471444102610492,-2.8428123212409,-0.719124763020872,,-0.97072912393381,,
,2284.0,784.0,2636.0,898.0,2360.0,2461.0,1957.0,,,,-0.471448274171281,-2.84281641520856,-0.718986066311187,,-1.2158465295548937,,
,2282.0,785.0,2635.0,898.0,2359.0,2461.0,1964.0,,,,-0.471376980249589,-2.84280353263703,-0.719713102745931,,-1.4326963192280124,,
,2284.0,788.0,2639.0,899.0,2359.0,2469.0,1959.0,,,,-0.471223551829363,-2.84274458933866,-0.7182609918305,,-1.6223875843851177,,
,2287.0,787.0,2641.0,900.0,2367.0,2466.0,1960.0,,,,-0.471342183282734,-2.84255120845059,-0.718717225362344,,-1.7868003349959314,,
,2286.0,788.0,2641.0,901.0,2373.0,2463.0,1958.0,,,,-0.471455079866076,-2.84271118301327,-0.718951114406196,,-1.9283258775048373,,
,2288.0,788.0,2641.0,899.0,2360.0,2477.0,1954.0,,,,-0.471809747366266,-2.84259591865055,-0.719276743942536,,-2.049591461819292,,
,2287.0,788.0,2644.0,899.0,2371.0,2468.0,1958.0,,,,-0.471928556864736,-2.8427405199024,-0.719065726931184,,-2.153184117327784,,
,2289.0,788.0,2644.0,900.0,2367.0,2460.0,1961.0,,,,-0.471874398300884,-2.84264777520695,-0.719447322610029,,-2.2413906550680887,,
,2292.0,789.0,2647.0,902.0,2367.0,2458.0,1961.0,,,,-0.471706026225097,-2.84277902158386,-0.719167498178472,,-2.3159717754236637,,
,2291.0,788.0,2648.0,905.0,2374.0,2452.0,1942.0,,,,-0.472235487795839,-2.84285565289283,-0.719387070656006,,-2.377987128668751,,
,2292.0,788.0,2648.0,903.0,2366.0,2464.0,1959.0,,,,-0.471704375817151,-2.84288581098602,-0.719869862826564,,-2.427684518241556,,
,2293.0,793.0,2648.0,903.0,2366.0,2460.0,1964.0,,,,-0.471419021855889,-2.84288646757131,-0.719703426889071,,-2.464460458764186,,
,2294.0,792.0,2651.0,905.0,2380.0,2469.0,1965.0,,,,-0.471287972567749,-2.84290579442436,-0.719486167174331,,-2.486892017078809,,
,2297.0,792.0,2654.0,905.0,2388.0,2466.0,1962.0,,,,-0.471567613748239,-2.84291693004982,-0.719754769057055,,-2.4928327549834637,,
,2294.0,791.0,2652.0,903.0,2394.0,2461.0,1949.0,,,,-0.471134377996705,-2.84275757979277,-0.718999107476672,,-2.4795601586997416,,
,2296.0,793.0,2655.0,904.0,2394.0,2472.0,1951.0,,,,-0.471337589421673,-2.84278024819564,-0.71935471568506,,-2.443959249561784,,
,2295.0,794.0,2655.0,906.0,2367.0,2470.0,1960.0,,,,-0.470943489006435,-2.84282028371923,-0.719270471345697,,-2.3827273507771998,,
,2296.0,791.0,2655.0,907.0,2376.0,2469.0,1968.0,,,,-0.471069177011456,-2.84265979563441,-0.7181530056901,,-2.292587456747988,,
,2292.0,789.0,2655.0,907.0,2374.0,2466.0,1941.0,,,,-0.470978756077137,-2.84276684784832,-0.718323467428996,,-2.1705008286604865,,
,2291.0,790.0,2658.0,904.0,2382.0,2462.0,1952.0,,,,-0.470844727651016,-2.84260804951511,-0.718815331641211,,-2.013871891362731,,
,2290.0,789.0,2652.0,907.0,2375.0,2469.0,1952.0,,,,-0.470512110109647,-2.84273638208613,-0.71742211705212,,-1.8207396821854198,,
,2286.0,788.0,2653.0,904.0,2378.0,2471.0,1960.0,,,,-0.470502273572728,-2.8425395858745,-0.717582135837993,,-1.5899506226351459,,
,2283.0,787.0,2650.0,903.0,2384.0,2460.0,1959.0,,,,-0.470213040181344,-2.84258162217632,-0.718125973125261,,-1.3213083667736873,,
,2281.0,785.0,2645.0,901.0,2377.0,2458.0,1947.0,,,,-0.470338669707388,-2.84249869968797,-0.717568216390932,,-1.0156982602396705,,
,2277.0,784.0,2640.0,899.0,2374.0,2465.0,1966.0,,,,-0.470301072683669,-2.8422754930283,-0.717393640566984,,-0.6751854489299717,,
,2273.0,784.0,2640.0,896.0,2370.0,2456.0,1960.0,,,,-0.470094862071668,-2.84235661928998,-0.718033998423656,,-0.3030853692994099,,
,2269.0,783.0,2633.0,894.0,2369.0,2458.0,1957.0,,,,-0.470168068517499,-2.84234100898448,-0.717301002849695,,0.09599715339356085,,
,2265.0,779.0,2630.0,894.0,2363.0,2461.0,1959.0,,,,-0.470108029378826,-2.84244864506129,-0.717459098773514,,0.5161674246711584,,
,2268.0,782.0,2629.0,892.0,2378.0,2464.0,1954.0,,,,-0.470116625012841,-2.84250941846314,-0.71721002885418,,0.9502888010819764,,
2025-07-04 00:34:09,2266.0,782.0,2623.0,893.0,2366.0,2465.0,1952.0,,,2025/07/04 12:34:09 AM,-0.470262360790097,-2.84238033990987,-0.716007151376021,,1.390089303815277,,
,2264.0,780.0,2623.0,892.0,2374.0,2460.0,1952.0,,,,-0.469969352149743,-2.84247706254126,-0.717189891142404,,1.82633553890958,,
,2262.0,780.0,2618.0,892.0,2393.0,2467.0,1956.0,,,,-0.470121780435251,-2.84229234044508,-0.71616215935485,,2.2490790054929923,,
,2260.0,776.0,2616.0,885.0,2390.0,2470.0,1967.0,,,,-0.46999687031617,-2.842267271098,-0.716542778846278,,2.6479747209377167,,
,2258.0,777.0,2614.0,888.0,2378.0,2470.0,1946.0,,,,-0.470043610565123,-2.84230577438688,-0.716386535650261,,3.012665327975061,,
,2258.0,780.0,2618.0,889.0,2366.0,2467.0,1959.0,,,,-0.46994551254915,-2.84220422871239,-0.716985189465271,,3.3332156089394482,,
,2258.0,778.0,2614.0,887.0,2372.0,2465.0,1964.0,,,,-0.469910056625072,-2.84221566262349,-0.716623229918809,,3.60057333497685,,
,2254.0,777.0,2614.0,888.0,2383.0,2475.0,1955.0,,,,-0.469788571694284,-2.84231433124401,-0.717052951465283,,3.8070240671387756,,
,2257.0,776.0,2611.0,885.0,2372.0,2466.0,1957.0,,,,-0.469570031853085,-2.84219852587794,-0.716642648115582,,3.9466017670595557,,
,2256.0,780.0,2610.0,887.0,2372.0,2472.0,1945.0,,,,-0.469572637794722,-2.84218857298388,-0.716459569517172,,4.015415665695964,,
,2253.0,777.0,2611.0,887.0,2371.0,2478.0,1951.0,,,,-0.469545829221182,-2.84223305641501,-0.71636419971826,,4.01185810388263,,
,2254.0,778.0,2607.0,885.0,2359.0,2476.0,1963.0,,,,-0.469241821763554,-2.84207772486352,-0.715085228923047,,3.9366684824257816,,
,2249.0,775.0,2607.0,884.0,2360.0,2462.0,1971.0,,,,-0.468865779797633,-2.8421116654385,-0.71535003639688,,3.7928442593006872,,
,2251.0,774.0,2607.0,881.0,2383.0,2473.0,1963.0,,,,-0.468896683294641,-2.84209502742632,-0.715394498589329,,3.5854087678650677,,
,2252.0,776.0,2604.0,883.0,2365.0,2460.0,1959.0,,,,-0.46879061136682,-2.84176865213039,-0.714983240068354,,3.3210638413645985,,
,2249.0,774.0,2603.0,885.0,2374.0,2458.0,1959.0,,,,-0.468348897386466,-2.84201228845981,-0.71479857067937,,3.0077687883751465,,
,2250.0,774.0,2600.0,881.0,2373.0,2459.0,1976.0,,,,-0.468454459730974,-2.84198135541573,-0.714175624532574,,2.654293170218677,,
,2248.0,774.0,2601.0,880.0,2369.0,2459.0,1970.0,,,,-0.468333175940517,-2.84181712056606,-0.714228575156274,,2.2697881710099743,,
,2250.0,776.0,2600.0,883.0,2359.0,2467.0,1969.0,,,,-0.468169694181867,-2.84172357347589,-0.71478549190875,,1.8634114056678839,,
,2245.0,774.0,2600.0,881.0,2361.0,2464.0,1968.0,,,,-0.468334910678728,-2.84166322703956,-0.713886310916238,,1.4440255775778297,,
,2246.0,775.0,2598.0,878.0,2352.0,2462.0,1965.0,,,,-0.468056713701249,-2.84189232282798,-0.713409609144389,,1.019975913336191,,
,2247.0,776.0,2599.0,880.0,2358.0,2465.0,1964.0,,,,-0.467772904668419,-2.841644348942,-0.71347899898564,,0.5989380480297738,,
,2248.0,774.0,2598.0,879.0,2354.0,2469.0,1961.0,,,,-0.467432659090428,-2.84168198558713,-0.713201538195817,,0.18781940840078568,,
,2245.0,774.0,2596.0,880.0,2364.0,2461.0,1959.0,,,,-0.467625245626131,-2.8418347501151,-0.713264859989627,,-0.2073058205032656,,
,2245.0,775.0,2597.0,879.0,2370.0,2462.0,1966.0,,,,-0.467211629618687,-2.84156468015228,-0.713133927909568,,-0.5812457048934238,,
,2245.0,773.0,2595.0,877.0,2380.0,2464.0,1970.0,,,,-0.467357562966592,-2.84164946221434,-0.712561490661079,,-0.9297348396972945,,
,2247.0,775.0,2598.0,877.0,2386.0,2462.0,1960.0,,,,-0.467213774212779,-2.84155265626386,-0.71294179591019,,-1.249476997551497,,
,2245.0,774.0,2597.0,877.0,2398.0,2460.0,1962.0,,,,-0.467095587061616,-2.84154857694051,-0.712474879805256,,-1.538181233899722,,
,2246.0,774.0,2593.0,877.0,2396.0,2459.0,1966.0,,,,-0.467008204548656,-2.84151530402631,-0.71283816851084,,-1.794580457286825,,
,2245.0,776.0,2594.0,877.0,2370.0,2466.0,1966.0,,,,-0.466813232104088,-2.84147902714804,-0.712510782986109,,-2.0184185628959814,,
,2244.0,772.0,2592.0,878.0,2378.0,2472.0,1971.0,,,,-0.467132699079974,-2.84140213336725,-0.711669362357878,,-2.2103929981741013,,
,2243.0,772.0,2595.0,877.0,2389.0,2463.0,1976.0,,,,-0.467010705098777,-2.84145082065648,-0.712243548462359,,-2.3720437933210317,,
,2245.0,776.0,2595.0,877.0,2387.0,2466.0,1962.0,,,,-0.467122527155589,-2.84135909149766,-0.712305773448299,,-2.5055866460910656,,
,2243.0,773.0,2591.0,878.0,2384.0,2470.0,1956.0,,,,-0.466567086452114,-2.84107806942385,-0.712676425848949,,-2.613695248702309,,
,2243.0,773.0,2591.0,875.0,2374.0,2464.0,1967.0,,,,-0.466358572645922,-2.84124008397541,-0.712090416860567,,-2.699245410261306,,
,2246.0,773.0,2591.0,877.0,2390.0,2459.0,1966.0,,,,-0.466330715538444,-2.84150024518772,-0.712678717030118,,-2.765039692729476,,
,2243.0,772.0,2592.0,874.0,2380.0,2459.0,1964.0,,,,-0.466210370055475,-2.84105044287318,-0.711556712206772,,-2.81353555992688,,
,2243.0,772.0,2591.0,878.0,2363.0,2457.0,1959.0,,,,-0.466127938507288,-2.8411547483681,-0.711976238236424,,-2.8466019499605384,,
,2244.0,774.0,2591.0,876.0,2365.0,2465.0,1968.0,,,,-0.466227012280552,-2.84106879379007,-0.711329977284372,,-2.8653284236721883,,
,2244.0,772.0,2592.0,876.0,2362.0,2458.0,1964.0,,,,-0.466132868954615,-2.84122828672051,-0.711660682199028,,-2.8699075569665897,,
,2244.0,775.0,2592.0,875.0,2380.0,2459.0,1969.0,,,,-0.465632799339934,-2.8410945180944,-0.710789927828652,,-2.8596052300395303,,
,2244.0,776.0,2591.0,877.0,2364.0,2468.0,1948.0,,,,-0.465688180923605,-2.84114159943571,-0.71066287583155,,-2.8328253456284838,,
,2246.0,775.0,2593.0,876.0,2370.0,2477.0,1931.0,,,,-0.465686987045407,-2.84104357368799,-0.710759536553578,,-2.7872659053033524,,
,2245.0,774.0,2591.0,876.0,2372.0,2476.0,1953.0,,,,-0.465713255094273,-2.84101876902567,-0.711013102454644,,-2.7201531285678224,,
,2246.0,774.0,2591.0,878.0,2363.0,2470.0,1943.0,,,,-0.465273293221231,-2.84084720252606,-0.7109151101179,,-2.628530581911364,,
,2244.0,775.0,2594.0,877.0,2353.0,2473.0,1955.0,,,,-0.46511439191671,-2.84102463164233,-0.709871887737948,,-2.5095727296403156,,
,2245.0,775.0,2593.0,875.0,2361.0,2470.0,1961.0,,,,-0.465019237663812,-2.8410025573384,-0.710962328104275,,-2.3608888800756818,,
,2245.0,775.0,2591.0,877.0,2392.0,2463.0,1955.0,,,,-0.465086951274181,-2.84105019798864,-0.710861053715724,,-2.180785687968793,,
,2247.0,774.0,2591.0,877.0,2383.0,2462.0,1955.0,,,,-0.46508532998031,-2.84098608460035,-0.710513924084119,,-1.9684641916642176,,
,2248.0,776.0,2594.0,878.0,2371.0,2460.0,1978.0,,,,-0.465221947432802,-2.84089137800026,-0.70916129675507,,-1.724138940585864,,
,2251.0,775.0,2594.0,879.0,2373.0,2463.0,1973.0,,,,-0.464886925415009,-2.84087156256389,-0.709767178537133,,-1.4490791654876862,,
,2249.0,776.0,2595.0,879.0,2369.0,2473.0,1981.0,,,,-0.464852053835409,-2.84073023639843,-0.71023338039085,,-1.1455824480668972,,
,2248.0,775.0,2595.0,876.0,2380.0,2453.0,1978.0,,,,-0.464614345435235,-2.84073936550195,-0.709367423706017,,-0.8168982706587018,,
,2250.0,776.0,2597.0,881.0,2389.0,2457.0,1960.0,,,,-0.46477589545246,-2.84087597054661,-0.709375685775091,,-0.46712158941689114,,
,2252.0,777.0,2597.0,877.0,2375.0,2463.0,1958.0,,,,-0.464527530473951,-2.84089502517382,-0.709267728162353,,-0.10107543824865364,,
,2252.0,778.0,2598.0,879.0,2381.0,2463.0,1951.0,,,,-0.464396641376451,-2.84059451423014,-0.708512304673842,,0.2758026557195052,,
,2253.0,780.0,2597.0,878.0,2364.0,2467.0,1951.0,,,,-0.464356408972542,-2.8408169848515,-0.708546211074518,,0.6575618938700029,,
,2251.0,776.0,2596.0,877.0,2354.0,2472.0,1957.0,,,,-0.464109632418487,-2.84080181633597,-0.709178994955789,,1.0378255975746162,,
,2257.0,779.0,2600.0,878.0,2376.0,2475.0,1950.0,,,,-0.464223871910248,-2.840793309199,-0.708995077654425,,1.4098701542783658,,
,2255.0,780.0,2599.0,880.0,2365.0,2473.0,1954.0,,,,-0.464320087699815,-2.84056047716254,-0.708655572048885,,1.766706545449277,,
,2253.0,779.0,2602.0,880.0,2356.0,2481.0,1952.0,,,,-0.4643016402116,-2.84056169373893,-0.708623912752504,,2.101179055559352,,
,2256.0,779.0,2601.0,881.0,2367.0,2465.0,1955.0,,,,-0.464297133834969,-2.84053947870709,-0.708477937189952,,2.406096481334165,,
,2256.0,779.0,2599.0,882.0,2380.0,2464.0,1953.0,,,,-0.464046309197593,-2.84051910042464,-0.707985860305746,,2.6744083236948315,,
,2255.0,779.0,2604.0,881.0,2374.0,2462.0,1951.0,,,,-0.46378412375688,-2.84025234314395,-0.708249966301021,,2.8994317138123984,,
,2258.0,777.0,2603.0,882.0,2389.0,2473.0,1954.0,,,,-0.463632416834011,-2.84042530983555,-0.707479152362392,,3.075124788328822,,
,2259.0,778.0,2600.0,880.0,2385.0,2470.0,1939.0,,,,-0.463782724370214,-2.84043876627084,-0.708054150927586,,3.1963906868543512,,
,2260.0,779.0,2601.0,881.0,2394.0,2468.0,1955.0,,,,-0.463298433438069,-2.84052215378999,-0.707421642545345,,3.259385921753873,,
,2259.0,781.0,2603.0,883.0,2377.0,2462.0,1949.0,,,,-0.463792363644625,-2.84051910584665,-0.707463451755293,,3.261800191526026,,
,2261.0,781.0,2606.0,880.0,2377.0,2461.0,1953.0,,,,-0.463976764647808,-2.84058063078619,-0.708262901250285,,3.2030736210969453,,
,2263.0,781.0,2606.0,883.0,2378.0,2469.0,1959.0,,,,-0.463903007312298,-2.84065562234812,-0.707812724982447,,3.084522487824795,,
,2260.0,778.0,2606.0,881.0,2377.0,2459.0,1956.0,,,,-0.464379164101174,-2.84062483078332,-0.708488142124749,,2.909354807575439,,
,2262.0,782.0,2609.0,885.0,2364.0,2469.0,1953.0,,,,-0.464375496156358,-2.84090618807953,-0.708906616634022,,2.6825703720825,,
,2262.0,782.0,2611.0,883.0,2372.0,2464.0,1968.0,,,,-0.465116860066198,-2.84106771110168,-0.709071254874277,,2.410752808865329,,
,2264.0,781.0,2609.0,885.0,2377.0,2464.0,1968.0,,,,-0.465489109229548,-2.84109087813232,-0.710477568886452,,2.1017712235683783,,
,2263.0,779.0,2609.0,883.0,2369.0,2471.0,1976.0,,,,-0.465684603715804,-2.84120010029684,-0.710504194622537,,1.7644147403475632,,
,2265.0,782.0,2610.0,884.0,2364.0,2471.0,1957.0,,,,-0.466048556302619,-2.84141772862446,-0.710852178307012,,1.4079852820062986,,
,2267.0,783.0,2613.0,887.0,2385.0,2477.0,1962.0,,,,-0.466472534249976,-2.84163392648436,-0.711497927489716,,1.0418737078634706,,
,2267.0,783.0,2612.0,884.0,2388.0,2473.0,1964.0,,,,-0.466920643877095,-2.84167564047712,-0.710967918086317,,0.6751433789167774,,
,2266.0,784.0,2614.0,884.0,2373.0,2465.0,1952.0,,,,-0.4670982872783,-2.84186281714882,-0.71122628438769,,0.3161440562427489,,
,2270.0,782.0,2615.0,886.0,2375.0,2469.0,1923.0,,,,-0.467432679432492,-2.84184585368081,-0.712524293698694,,-0.027822414262177866,,
,2269.0,785.0,2616.0,887.0,2374.0,2465.0,1937.0,,,,-0.46741413879091,-2.84217790252231,-0.711999180674477,,-0.350765655555902,,
,2272.0,784.0,2616.0,888.0,2375.0,2474.0,1934.0,,,,-0.467822408682807,-2.84203089574184,-0.712416014633529,,-0.6481846879310783,,
,2272.0,785.0,2617.0,887.0,2381.0,2473.0,1938.0,,,,-0.467972645298932,-2.8420996939766,-0.712932244520724,,-0.9171510262663576,,
,2271.0,785.0,2615.0,889.0,2382.0,2466.0,1951.0,,,,-0.468124337915548,-2.84210929719578,-0.712643986975923,,-1.1562941880035875,,
,2274.0,786.0,2619.0,892.0,2375.0,2474.0,1945.0,,,,-0.468022879436824,-2.8421471752936,-0.712600036026966,,-1.36569320109122,,
,2275.0,786.0,2617.0,889.0,2375.0,2467.0,1935.0,,,,-0.468048081142731,-2.84227811508085,-0.713089086303011,,-1.5466834032185344,,
,2274.0,787.0,2621.0,892.0,2384.0,2468.0,1940.0,,,,-0.46807857187392,-2.84237231465199,-0.712748430897364,,-1.7015927485295483,,
,2275.0,787.0,2623.0,889.0,2383.0,2472.0,1948.0,,,,-0.468015392367626,-2.84220456854292,-0.712616539093237,,-1.8334260436355687,,
,2278.0,787.0,2624.0,891.0,2379.0,2463.0,1945.0,,,,-0.468048773290595,-2.84230108887775,-0.713017997476141,,-1.9455190470070838,,
,2280.0,790.0,2627.0,891.0,2386.0,2467.0,1943.0,,,,-0.468245052739744,-2.84216551485144,-0.713239037900892,,-2.0411870466575843,,
,2279.0,790.0,2624.0,892.0,2393.0,2466.0,1961.0,,,,-0.468242340823904,-2.84213935508777,-0.712608110098373,,-2.123394018649121,,
,2278.0,787.0,2626.0,893.0,2386.0,2462.0,1958.0,,,,-0.468620207360834,-2.84236455153624,-0.713039849436744,,-2.194468237099815,,
,2279.0,788.0,2626.0,892.0,2378.0,2466.0,1967.0,,,,-0.468162145617206,-2.8422080578281,-0.712554985305019,,-2.2558877489900846,,
,2283.0,789.0,2628.0,894.0,2364.0,2464.0,1957.0,,,,-0.468437513565505,-2.84212567372737,-0.712655762149619,,-2.308154144682984,,
,2284.0,791.0,2630.0,895.0,2348.0,2462.0,1947.0,,,,-0.468647913215909,-2.84236111540047,-0.713578757222811,,-2.350765552650578,,
,2284.0,791.0,2632.0,896.0,2367.0,2462.0,1939.0,,,,-0.46860574104754,-2.84236926075132,-0.713160280453004,,-2.3822901538627126,,
,2282.0,788.0,2632.0,895.0,2382.0,2461.0,1935.0,,,,-0.468514954663527,-2.84224481758138,-0.713109332104421,,-2.400530677238587,,
,2286.0,791.0,2635.0,895.0,2390.0,2469.0,1944.0,,,,-0.468624000341522,-2.84253063613455,-0.713369522470697,,-2.4027598764514053,,
,2288.0,793.0,2634.0,897.0,2388.0,2472.0,1944.0,,,,-0.468972342549135,-2.84256730413889,-0.713341562475739,,-2.38599884910469,,
,2288.0,791.0,2633.0,898.0,2394.0,2471.0,1948.0,,,,-0.468773997456857,-2.84251249091096,-0.713807545002669,,-2.347305851549405,,
,2290.0,795.0,2634.0,898.0,2386.0,2485.0,1979.0,,,,-0.468708781029361,-2.84259080708763,-0.713015508958922,,-2.284043589385989,,
,2288.0,791.0,2635.0,897.0,2401.0,2477.0,1945.0,,,,-0.468631119070485,-2.84244834322924,-0.713913578581279,,-2.1940973920927966,,
,2289.0,793.0,2637.0,898.0,2394.0,2472.0,1937.0,,,,-0.468667386509858,-2.84240533199088,-0.713070815559903,,-2.076024286845479,,
,2288.0,792.0,2637.0,898.0,2395.0,2472.0,1946.0,,,,-0.468334153184628,-2.84261738572008,-0.713135823300808,,-1.9291228195293837,,
,2288.0,794.0,2640.0,897.0,2393.0,2475.0,1944.0,,,,-0.468695997158838,-2.84251355044355,-0.713696087097821,,-1.7534245411888862,,
,2288.0,791.0,2636.0,896.0,2389.0,2468.0,1954.0,,,,-0.468591859785386,-2.84264108202444,-0.712105683908723,,-1.549619163009456,,
,2286.0,792.0,2638.0,895.0,2385.0,2473.0,1964.0,,,,-0.468528143994761,-2.84229291348482,-0.712708011073075,,-1.3189350209565935,,
,2284.0,791.0,2634.0,898.0,2372.0,2463.0,1957.0,,,,-0.46868605179828,-2.84234495632489,-0.713517614947321,,-1.0630031705647798,,
,2284.0,792.0,2635.0,897.0,2374.0,2465.0,1959.0,,,,-0.468720583578333,-2.84266708209566,-0.713395387252314,,-0.7837358612345331,,
,2279.0,787.0,2630.0,894.0,2390.0,2463.0,1948.0,,,,-0.468633677256643,-2.84250291877461,-0.713031022091957,,-0.48324759767475955,,
,2275.0,785.0,2628.0,895.0,2362.0,2461.0,1948.0,,,,-0.468697003262341,-2.84255731233643,-0.713354161510867,,-0.16383964409120755,,
,2277.0,785.0,2624.0,894.0,2367.0,2469.0,1965.0,,,,-0.469118387276093,-2.84258783161615,-0.713793229448759,,0.17194230541786132,,
,2274.0,784.0,2620.0,892.0,2374.0,2461.0,1949.0,,,,-0.468731336260835,-2.84253003209519,-0.712999152514996,,0.5211809379741601,,
,2271.0,784.0,2619.0,892.0,2373.0,2457.0,1939.0,,,,-0.468713319495308,-2.84249550839185,-0.713827214219006,,0.8804081829186097,,
,2266.0,781.0,2613.0,886.0,2363.0,2466.0,1942.0,,,,-0.46881239980242,-2.84252170096539,-0.714397327122481,,1.2454043834562483,,
,2266.0,781.0,2611.0,886.0,2369.0,2467.0,1932.0,,,,-0.469062734828356,-2.84273460819461,-0.713840512888265,,1.611015510485968,,
,2265.0,782.0,2610.0,889.0,2371.0,2468.0,1941.0,,,,-0.469429650970061,-2.84251992821736,-0.713255681377237,,1.971032303879838,,
,2266.0,783.0,2605.0,885.0,2379.0,2469.0,1944.0,,,,-0.469258655617874,-2.84277763489257,-0.713348900566897,,2.318172471835895,,
,2266.0,779.0,2605.0,885.0,2369.0,2457.0,1903.0,,,,-0.469135390272304,-2.84275471662761,-0.713955907965066,,2.644197086663304,,
