TimeLabel,MEAS1_PPG1,MEAS1_PPG2,MEAS1_PPG3,MEAS1_PPG4,ACCX,ACCY,ACCZ,HR_timestamp,HR_value,radar_timestamp,phase_rx0,phase_rx1,phase_rx2,timestep,n_process,original_rate,calculated_rate
2025-07-22 00:02:37,4215.0,1024.0,3270.0,1380.0,1475.0,2474.0,2707.0,2025-07-22 00:02:55,100.0,2025/07/22 12:02:37 AM,-0.126700924624927,-2.59776009967384,-0.212231075717732,2025/07/22 12:02:37 AM,1.341889066098197,9.787928581237791,18.860837438423648
,4214.0,1021.0,3268.0,1378.0,1473.0,2475.0,2674.0,2025-07-22 00:02:55,100.0,,-0.126765978178972,-2.59754859677209,-0.211862584551365,2025/07/22 12:02:47 AM,1.2216501192805669,14.27212142944336,16.84996072270227
,4216.0,1023.0,3269.0,1377.0,1476.0,2468.0,2675.0,2025-07-22 00:02:56,101.0,,-0.126527803104163,-2.59750987863029,-0.21161824319467,2025/07/22 12:02:57 AM,1.070783258936808,14.937759399414062,18.19029850746269
,4214.0,1025.0,3269.0,1380.0,1477.0,2464.0,2666.0,2025-07-22 00:02:57,101.0,,-0.12663733700858,-2.5974101636205,-0.212111956306246,2025/07/22 12:03:07 AM,0.8950582795048537,18.004501342773438,17.84825503135362
,4214.0,1022.0,3269.0,1380.0,1476.0,2456.0,2667.0,2025-07-22 00:02:58,101.0,,-0.12634261457644,-2.59702913409149,-0.209211207169347,2025/07/22 12:03:17 AM,0.7011221720334112,17.582416534423828,17.929454390451824
,4211.0,1025.0,3269.0,1378.0,1469.0,2464.0,2662.0,2025-07-22 00:02:59,101.0,,-0.126276499920286,-2.59694494498121,-0.209923536306279,2025/07/22 12:03:27 AM,0.4962305120615266,17.88375473022461,17.07171131363344
,4212.0,1025.0,3266.0,1377.0,1476.0,2462.0,2656.0,2025-07-22 00:03:00,101.0,,-0.126228633399078,-2.59676023794144,-0.210251992207872,2025/07/22 12:03:37 AM,0.287953239058182,17.485427856445312,17.670631920876257
,4214.0,1024.0,3272.0,1380.0,1484.0,2467.0,2658.0,2025-07-22 00:03:01,100.0,,-0.126090615347983,-2.59630578812037,-0.207397561608809,2025/07/22 12:03:47 AM,0.08385252211868967,17.582416534423828,18.48781199824843
,4212.0,1022.0,3267.0,1380.0,1480.0,2466.0,2635.0,2025-07-22 00:03:02,99.0,,-0.125913220948839,-2.59636436513714,-0.209909390375582,2025/07/22 12:03:57 AM,-0.10886591291672312,17.686071395874023,17.838281121863222
,4212.0,1023.0,3271.0,1378.0,1475.0,2466.0,2655.0,2025-07-22 00:03:03,98.0,,-0.125810076715916,-2.59618462453093,-0.209913040472089,2025/07/22 12:04:07 AM,-0.28371845696734826,18.20940971374512,16.18298225893162
,4213.0,1022.0,3267.0,1378.0,1472.0,2461.0,2650.0,2025-07-22 00:03:04,97.0,,-0.125645780868933,-2.59643243049126,-0.209980789024005,2025/07/22 12:04:17 AM,-0.43530599596556735,17.269737243652344,17.062374245472842
,4214.0,1026.0,3271.0,1382.0,1485.0,2468.0,2641.0,2025-07-22 00:03:05,96.0,,-0.125699773544748,-2.59631685766791,-0.209735171723549,2025/07/22 12:04:27 AM,-0.5596424382488732,16.9765567779541,16.363636363636374
,4211.0,1023.0,3272.0,1381.0,1474.0,2461.0,2644.0,2025-07-22 00:03:07,94.0,,-0.125389648791914,-2.59611422678163,-0.208515013187605,2025/07/22 12:04:37 AM,-0.6544125201252854,16.355140686035156,15.976403162424285
,4212.0,1024.0,3271.0,1380.0,1473.0,2464.0,2667.0,2025-07-22 00:03:07,93.0,,-0.12546904889582,-2.59602954742508,-0.208272525652666,2025/07/22 12:04:47 AM,-0.7191222916482335,16.282224655151367,16.339844643310368
,4214.0,1023.0,3269.0,1380.0,1487.0,2466.0,2655.0,2025-07-22 00:03:08,91.0,,-0.125589575104318,-2.59636612012854,-0.2100171273697,2025/07/22 12:04:57 AM,-0.7551136161737608,16.5745849609375,13.89558232931726
,4210.0,1024.0,3271.0,1381.0,1483.0,2463.0,2660.0,2025-07-22 00:03:09,90.0,,-0.125202344277152,-2.59592970709719,-0.208147318056277,2025/07/22 12:05:07 AM,-0.7654289575565892,15.46391773223877,14.857142857142852
,4212.0,1026.0,3272.0,1378.0,1479.0,2469.0,2662.0,2025-07-22 00:03:10,89.0,,-0.125055899576446,-2.59558498238363,-0.206994364610199,2025/07/22 12:05:17 AM,-0.7545324313318988,15.239477157592772,17.14635639926516
,4213.0,1024.0,3272.0,1381.0,1474.0,2469.0,2656.0,2025-07-22 00:03:11,89.0,,-0.125108619486071,-2.59528390614806,-0.206410710299098,2025/07/22 12:05:27 AM,-0.7279139031731664,15.228425979614258,16.384163567262163
,4210.0,1025.0,3272.0,1380.0,1473.0,2466.0,2643.0,2025-07-22 00:03:13,89.0,,-0.124935611087363,-2.59510082948767,-0.206604819844154,,-0.6916202634933558,,
,4212.0,1024.0,3271.0,1380.0,1476.0,2471.0,2654.0,2025-07-22 00:03:13,89.0,,-0.124799339989254,-2.59508527248212,-0.205928965344752,,-0.6517675617295126,,
,4213.0,1029.0,3277.0,1383.0,1478.0,2476.0,2637.0,2025-07-22 00:03:14,89.0,,-0.124821638314188,-2.59495512041105,-0.206026482534891,,-0.6140869081328054,,
,4213.0,1026.0,3276.0,1381.0,1478.0,2467.0,2644.0,2025-07-22 00:03:15,89.0,,-0.125026206774543,-2.59495699684641,-0.205553295435948,,-0.583546332772293,,
,4211.0,1024.0,3276.0,1382.0,1480.0,2469.0,2659.0,2025-07-22 00:03:16,89.0,,-0.12528908295252,-2.59519213653994,-0.207012229860788,,-0.5640734791885166,,
,4211.0,1027.0,3275.0,1380.0,1474.0,2469.0,2675.0,2025-07-22 00:03:17,90.0,,-0.125440788714485,-2.59528343801037,-0.205261078685868,,-0.5583851964284618,,
,4212.0,1026.0,3277.0,1383.0,1474.0,2463.0,2660.0,2025-07-22 00:03:18,90.0,,-0.12532507340398,-2.59584844518765,-0.206360518674435,,-0.5679145819222601,,
,4210.0,1025.0,3277.0,1383.0,1473.0,2471.0,2622.0,2025-07-22 00:03:19,90.0,,-0.125641890816737,-2.5962039000265,-0.20842075698868,,-0.5928166173799274,,
,4213.0,1028.0,3277.0,1383.0,1471.0,2475.0,2627.0,2025-07-22 00:03:21,91.0,,-0.1260614652622,-2.59646552322012,-0.208277630439287,,-0.6320306581729427,,
,4212.0,1028.0,3278.0,1383.0,1467.0,2474.0,2665.0,2025-07-22 00:03:21,91.0,,-0.126730596288784,-2.59687486741938,-0.210706469617961,,-0.6833804925921092,,
,4211.0,1027.0,3277.0,1383.0,1467.0,2469.0,2647.0,2025-07-22 00:03:22,92.0,,-0.126796329815042,-2.59750756843172,-0.209810624932643,,-0.7436985639157656,,
,4214.0,1030.0,3279.0,1383.0,1476.0,2462.0,2634.0,2025-07-22 00:03:23,93.0,,-0.127094484712375,-2.59741983671134,-0.212318379399347,,-0.8089681644046981,,
,4213.0,1027.0,3280.0,1385.0,1474.0,2460.0,2636.0,2025-07-22 00:03:24,93.0,,-0.127057274567275,-2.59772577123209,-0.213523272820964,,-0.8744840297752535,,
,4212.0,1028.0,3282.0,1383.0,1466.0,2472.0,2638.0,2025-07-22 00:03:25,93.0,,-0.127230050812216,-2.59807380621165,-0.212358515514965,,-0.9350361354779878,,
,4212.0,1027.0,3282.0,1384.0,1472.0,2480.0,2628.0,2025-07-22 00:03:26,93.0,,-0.127335532611842,-2.59823358894372,-0.213382231258385,,-0.9851223626601076,,
,4215.0,1030.0,3283.0,1386.0,1473.0,2486.0,2627.0,2025-07-22 00:03:27,93.0,,-0.127417935269249,-2.59864528770814,-0.213897364908688,,-1.01919255208329,,
,4213.0,1028.0,3283.0,1385.0,1475.0,2473.0,2634.0,2025-07-22 00:03:28,93.0,,-0.127375659783717,-2.59876211429998,-0.213787218048354,,-1.0319200789479104,,
,4213.0,1026.0,3282.0,1385.0,1475.0,2473.0,2650.0,2025-07-22 00:03:29,93.0,,-0.12749426583198,-2.59883883958495,-0.213820460269137,,-1.0184895016968616,,
,4210.0,1030.0,3282.0,1385.0,1480.0,2473.0,2664.0,2025-07-22 00:03:30,93.0,,-0.127579432513476,-2.59866623880662,-0.214084421194429,,-0.9748823842388403,,
,4214.0,1030.0,3284.0,1386.0,1477.0,2476.0,2674.0,2025-07-22 00:03:31,94.0,,-0.127516782171541,-2.59895475869367,-0.213484565524057,,-0.898139594051538,,
,4218.0,1029.0,3287.0,1388.0,1477.0,2474.0,2668.0,2025-07-22 00:03:32,95.0,,-0.127639002672023,-2.5987069838045,-0.212051579580489,,-0.7865777868166737,,
,4216.0,1030.0,3286.0,1387.0,1476.0,2470.0,2667.0,2025-07-22 00:03:33,96.0,,-0.127611255934363,-2.59859082397607,-0.2138327379231,,-0.6399404136955449,,
,4215.0,1031.0,3285.0,1389.0,1476.0,2483.0,2652.0,2025-07-22 00:03:34,96.0,,-0.127618052866971,-2.59861907303129,-0.212882257933421,,-0.4594691702894381,,
,4215.0,1032.0,3285.0,1386.0,1477.0,2474.0,2641.0,2025-07-22 00:03:35,97.0,,-0.127813353116348,-2.59844405519431,-0.215380414494992,,-0.24788968735294803,,
,4215.0,1031.0,3285.0,1388.0,1474.0,2467.0,2680.0,2025-07-22 00:03:36,96.0,,-0.127755082755791,-2.59825681240355,-0.212835891435608,,-0.009314228261845336,,
,4217.0,1031.0,3283.0,1389.0,1475.0,2466.0,2664.0,2025-07-22 00:03:37,96.0,,-0.127509113230152,-2.59820314498632,-0.212579393769202,,0.2509274902430796,,
,4213.0,1033.0,3288.0,1389.0,1475.0,2471.0,2664.0,2025-07-22 00:03:38,95.0,,-0.127371874267765,-2.5980047198876,-0.212551709070739,,0.5265123783998511,,
,4214.0,1032.0,3285.0,1387.0,1479.0,2467.0,2645.0,2025-07-22 00:03:39,94.0,,-0.127205688974065,-2.59770295603321,-0.211869372849196,,0.8103840437959995,,
,4215.0,1032.0,3290.0,1387.0,1479.0,2469.0,2652.0,2025-07-22 00:03:40,93.0,,-0.127303440648637,-2.59781941994751,-0.210646691950148,,1.095032016221884,,
,4213.0,1034.0,3290.0,1388.0,1480.0,2482.0,2623.0,2025-07-22 00:03:41,91.0,,-0.127178712346475,-2.59754670213038,-0.211830901971979,,1.37277775021692,,
,4212.0,1032.0,3291.0,1390.0,1477.0,2478.0,2621.0,2025-07-22 00:03:42,90.0,,-0.126787884232536,-2.59777961251888,-0.210846300922891,,1.6360593952827613,,
,4211.0,1031.0,3290.0,1388.0,1475.0,2463.0,2653.0,2025-07-22 00:03:43,89.0,,-0.126650405343095,-2.59731381335089,-0.209160930539492,,1.8777097067863466,,
,4216.0,1032.0,3289.0,1388.0,1472.0,2474.0,2655.0,2025-07-22 00:03:44,89.0,,-0.12644146395694,-2.59679711524102,-0.208922002558827,,2.091221262989774,,
,4213.0,1031.0,3291.0,1386.0,1472.0,2468.0,2670.0,2025-07-22 00:03:45,89.0,,-0.126035461550651,-2.59642636421142,-0.207848596701816,,2.2709908027853856,,
,4212.0,1030.0,3287.0,1384.0,1469.0,2470.0,2674.0,2025-07-22 00:03:46,90.0,,-0.125944494903889,-2.59633060900351,-0.205907518801223,,2.4125310828000646,,
,4210.0,1028.0,3287.0,1385.0,1474.0,2466.0,2633.0,2025-07-22 00:03:47,90.0,,-0.125763587328205,-2.59570662384563,-0.205926233330187,,2.5126356509497403,,
,4210.0,1030.0,3286.0,1382.0,1472.0,2464.0,2639.0,2025-07-22 00:03:48,91.0,,-0.125555857652084,-2.59565150696423,-0.204769602547331,,2.5694809479950447,,
,4209.0,1027.0,3288.0,1384.0,1474.0,2463.0,2652.0,2025-07-22 00:03:49,91.0,,-0.125616844743148,-2.59534390105762,-0.20438687807585,,2.5826524285089953,,
,4208.0,1030.0,3288.0,1385.0,1471.0,2470.0,2664.0,2025-07-22 00:03:50,91.0,,-0.125475745151011,-2.59542377615509,-0.20327198884233,,2.5530874508413257,,
,4207.0,1030.0,3285.0,1385.0,1471.0,2469.0,2651.0,2025-07-22 00:03:51,91.0,,-0.125569949140367,-2.59562983814358,-0.205737806124828,,2.4829371407506176,,
,4205.0,1027.0,3283.0,1380.0,1475.0,2472.0,2625.0,2025-07-22 00:03:52,91.0,,-0.125634894505098,-2.59572651926593,-0.204115150786851,,2.375360790867083,,
,4203.0,1029.0,3283.0,1382.0,1473.0,2480.0,2630.0,2025-07-22 00:03:54,91.0,,-0.125574068840765,-2.59601868171145,-0.206450095630215,,2.2342768856839097,,
,4203.0,1028.0,3285.0,1383.0,1472.0,2472.0,2641.0,2025-07-22 00:03:54,92.0,,-0.125318451069847,-2.59544687772589,-0.205818548646502,,2.0641013129726065,,
,4204.0,1027.0,3286.0,1379.0,1471.0,2468.0,2647.0,2025-07-22 00:03:55,92.0,,-0.125297334467309,-2.59561333702947,-0.205276699708885,,1.8695035700185034,,
,4203.0,1027.0,3283.0,1381.0,1467.0,2483.0,2668.0,2025-07-22 00:03:56,91.0,,-0.125174757463296,-2.59535602695792,-0.204362565228912,,1.655205750455825,,
,4203.0,1026.0,3284.0,1382.0,1475.0,2474.0,2664.0,2025-07-22 00:03:57,91.0,,-0.125072872411226,-2.59545959548542,-0.204095812548511,,1.425838641853604,,
,4203.0,1029.0,3283.0,1379.0,1475.0,2470.0,2659.0,2025-07-22 00:03:58,91.0,,-0.125286903520594,-2.59523171826488,-0.205068272984982,,1.1858571367710593,,
,4205.0,1028.0,3284.0,1382.0,1480.0,2468.0,2666.0,2025-07-22 00:03:59,92.0,,-0.125435972881148,-2.59530043275302,-0.203711960062991,,0.9395061266761422,,
,4200.0,1028.0,3284.0,1381.0,1478.0,2469.0,2670.0,2025-07-22 00:04:00,92.0,,-0.125417729313127,-2.59553547419496,-0.205249905674516,,0.6908201489594639,,
,4199.0,1028.0,3281.0,1381.0,1473.0,2467.0,2672.0,2025-07-22 00:04:01,93.0,,-0.125680931994773,-2.59560127152073,-0.205919205522522,,0.4436362393537895,,
,4201.0,1025.0,3283.0,1381.0,1466.0,2470.0,2659.0,2025-07-22 00:04:02,94.0,,-0.125415421184523,-2.5954687611602,-0.20524389701477,,0.2015998401426287,,
,4203.0,1028.0,3285.0,1380.0,1473.0,2468.0,2629.0,2025-07-22 00:04:03,94.0,,-0.125613495468159,-2.59549316945235,-0.205175460791628,,-0.031851971758636584,,
,4201.0,1024.0,3282.0,1381.0,1472.0,2471.0,2623.0,2025-07-22 00:04:04,95.0,,-0.12542520479667,-2.59530161272234,-0.204317201310193,,-0.2535379239059988,,
,4200.0,1026.0,3282.0,1378.0,1470.0,2461.0,2617.0,2025-07-22 00:04:05,95.0,,-0.125251568700501,-2.59494441690149,-0.204400066243963,,-0.46060923352704336,,
,4201.0,1028.0,3285.0,1381.0,1472.0,2463.0,2618.0,2025-07-22 00:04:06,96.0,,-0.125289924950775,-2.5949335788582,-0.202708209449401,,-0.6506455211612172,,
,4201.0,1029.0,3284.0,1383.0,1476.0,2477.0,2654.0,2025-07-22 00:04:07,97.0,,-0.125080596585455,-2.59462614306459,-0.203687346560209,,-0.8217543649798359,,
,4200.0,1026.0,3287.0,1381.0,1476.0,2477.0,2651.0,2025-07-22 00:04:08,97.0,,-0.124854641643383,-2.59450322152591,-0.203248833421726,,-0.9726574459132368,,
,4201.0,1028.0,3285.0,1382.0,1477.0,2467.0,2640.0,2025-07-22 00:04:09,98.0,,-0.124932056265775,-2.59460536421598,-0.202996167613785,,-1.1027487250417844,,
,4200.0,1027.0,3286.0,1381.0,1473.0,2473.0,2651.0,2025-07-22 00:04:10,98.0,,-0.125056929177603,-2.59469762018663,-0.204994899294348,,-1.2121154601086743,,
,4203.0,1029.0,3284.0,1382.0,1471.0,2473.0,2666.0,2025-07-22 00:04:11,98.0,,-0.125035091733847,-2.59513914194805,-0.20422837294126,,-1.3015194665762748,,
,4202.0,1028.0,3283.0,1381.0,1474.0,2474.0,2684.0,2025-07-22 00:04:12,98.0,,-0.125127339208993,-2.59504724597121,-0.204938556131515,,-1.372342125170829,,
,4202.0,1028.0,3289.0,1381.0,1473.0,2477.0,2688.0,2025-07-22 00:04:13,98.0,,-0.125108608115338,-2.59515831535066,-0.205289168594527,,-1.4265008983753436,,
,4198.0,1026.0,3283.0,1380.0,1472.0,2471.0,2663.0,2025-07-22 00:04:15,98.0,,-0.124989941197568,-2.59510961311034,-0.203612408498999,,-1.466346817331044,,
,4199.0,1030.0,3285.0,1382.0,1474.0,2485.0,2681.0,2025-07-22 00:04:15,98.0,,-0.125081591524849,-2.59507346354456,-0.201666788043173,,-1.4945513454885448,,
,4200.0,1029.0,3288.0,1382.0,1472.0,2473.0,2666.0,2025-07-22 00:04:16,98.0,,-0.124728057480829,-2.59472845766464,-0.20363122939738,,-1.513987600764734,,
,4199.0,1028.0,3284.0,1383.0,1473.0,2469.0,2674.0,2025-07-22 00:04:17,97.0,,-0.124928782850856,-2.59484088781834,-0.202095955699291,,-1.5276063183527646,,
,4198.0,1027.0,3286.0,1383.0,1463.0,2475.0,2679.0,2025-07-22 00:04:18,96.0,,-0.124911301477205,-2.59452813314755,-0.202713460962729,,-1.5383030347664908,,
,4197.0,1029.0,3288.0,1381.0,1471.0,2466.0,2638.0,2025-07-22 00:04:19,95.0,,-0.12491072019731,-2.59459340386105,-0.202543289864259,,-1.5487715424194295,,
,4201.0,1031.0,3289.0,1383.0,1472.0,2469.0,2627.0,2025-07-22 00:04:20,95.0,,-0.124951761319907,-2.59443699065121,-0.203475945909414,,-1.561340561906485,,
,4199.0,1029.0,3289.0,1380.0,1477.0,2472.0,2643.0,2025-07-22 00:04:21,96.0,,-0.124836733235039,-2.59447084611939,-0.204758187219865,,-1.5777955726472648,,
,4201.0,1029.0,3287.0,1381.0,1490.0,2470.0,2626.0,2025-07-22 00:04:22,96.0,,-0.124957166229179,-2.59455820849848,-0.202992260981694,,-1.5991947993290958,,
,4199.0,1026.0,3283.0,1381.0,1483.0,2465.0,2616.0,2025-07-22 00:04:23,97.0,,-0.124877054418431,-2.59464584681333,-0.203405866421287,,-1.6256959320033308,,
,4199.0,1026.0,3285.0,1384.0,1481.0,2464.0,2610.0,2025-07-22 00:04:24,97.0,,-0.124848763656868,-2.59448848732216,-0.203485774942073,,-1.656416437665156,,
,4198.0,1031.0,3289.0,1383.0,1478.0,2466.0,2620.0,2025-07-22 00:04:26,97.0,,-0.124856491588132,-2.59457140564373,-0.202996240324032,,-1.6893534900067837,,
,4197.0,1029.0,3289.0,1382.0,1480.0,2464.0,2631.0,2025-07-22 00:04:27,96.0,,-0.124931785023553,-2.59485577450631,-0.203179045986966,,-1.721388161182394,,
,4195.0,1029.0,3286.0,1381.0,1482.0,2466.0,2637.0,2025-07-22 00:04:27,95.0,,-0.125039123838123,-2.59489943603265,-0.204689228335636,,-1.7483918255134994,,
,4198.0,1028.0,3290.0,1379.0,1482.0,2472.0,2631.0,2025-07-22 00:04:28,94.0,,-0.125199605174655,-2.59503320445631,-0.204725104247455,,-1.7654409294225089,,
,4198.0,1029.0,3287.0,1384.0,1475.0,2471.0,2662.0,2025-07-22 00:04:29,94.0,,-0.125278379071897,-2.59526338705178,-0.205626427122405,,-1.7671309268895687,,
,4198.0,1027.0,3288.0,1383.0,1476.0,2476.0,2665.0,2025-07-22 00:04:30,94.0,,-0.125177296328784,-2.5951585454397,-0.205815077758381,,-1.7479642932962582,,
,4198.0,1028.0,3289.0,1383.0,1474.0,2473.0,2657.0,2025-07-22 00:04:31,95.0,,-0.124951800681939,-2.59514574338285,-0.204383029343964,,-1.702774875620287,,
,4198.0,1028.0,3290.0,1383.0,1478.0,2465.0,2688.0,2025-07-22 00:04:32,96.0,,-0.124738336632104,-2.59459285281735,-0.205759184509576,,-1.6271443400963657,,
,4197.0,1027.0,3291.0,1382.0,1474.0,2469.0,2699.0,2025-07-22 00:04:33,96.0,,-0.124716104676963,-2.59476252322468,-0.203064039385183,,-1.5177671379250388,,
,4199.0,1031.0,3290.0,1386.0,1466.0,2479.0,2674.0,2025-07-22 00:04:34,96.0,,-0.124650918610934,-2.5943193243917,-0.203327292232318,,-1.3727275082403194,,
,4198.0,1032.0,3289.0,1386.0,1468.0,2477.0,2679.0,2025-07-22 00:04:35,96.0,,-0.124722287824532,-2.59441709045848,-0.201881421333766,,-1.191663946766499,,
,4196.0,1029.0,3289.0,1384.0,1467.0,2471.0,2690.0,2025-07-22 00:04:36,96.0,,-0.124665496722392,-2.59454181415311,-0.202509362083416,,-0.975811240772572,,
,4197.0,1025.0,3288.0,1382.0,1472.0,2474.0,2668.0,2025-07-22 00:04:37,96.0,,-0.124855237193435,-2.59450885762129,-0.203863193272758,,-0.7279253382312566,,
,4198.0,1030.0,3292.0,1382.0,1475.0,2466.0,2662.0,2025-07-22 00:04:38,97.0,,-0.125054689520416,-2.59479195401816,-0.20206436031824,,-0.4521097332785408,,
,4199.0,1028.0,3293.0,1383.0,1475.0,2466.0,2661.0,2025-07-22 00:04:39,97.0,,-0.125295154270901,-2.59526516617084,-0.204680575822997,,-0.15357175835762948,,
,4196.0,1030.0,3293.0,1386.0,1478.0,2485.0,2658.0,2025-07-22 00:04:40,97.0,,-0.12570418282082,-2.59589153247466,-0.206070981439097,,0.16165832124532697,,
,4198.0,1032.0,3291.0,1386.0,1465.0,2478.0,2648.0,2025-07-22 00:04:41,98.0,,-0.126148228915418,-2.59620009978739,-0.207406907332629,,0.4870140628688142,,
,4199.0,1030.0,3292.0,1387.0,1469.0,2473.0,2657.0,2025-07-22 00:04:42,98.0,,-0.126519705740106,-2.59668144417394,-0.207461083246064,,0.8156613617785199,,
,4201.0,1031.0,3292.0,1387.0,1476.0,2470.0,2661.0,2025-07-22 00:04:43,98.0,,-0.126898099929183,-2.59725328898796,-0.209766561915974,,1.1407354970623698,,
,4200.0,1029.0,3293.0,1387.0,1476.0,2467.0,2664.0,2025-07-22 00:04:44,99.0,,-0.126867062391331,-2.59763084774611,-0.208943635551142,,1.455544530786051,,
,4199.0,1028.0,3296.0,1386.0,1473.0,2474.0,2646.0,2025-07-22 00:04:46,99.0,,-0.127128109539964,-2.59803421277763,-0.210812440085383,,1.7537449953172783,,
,4202.0,1032.0,3295.0,1386.0,1480.0,2467.0,2682.0,2025-07-22 00:04:46,99.0,,-0.127481631528846,-2.59825603485131,-0.212982393650705,,2.029499402702873,,
,4202.0,1031.0,3293.0,1385.0,1474.0,2473.0,2699.0,2025-07-22 00:04:47,99.0,,-0.127604506032798,-2.59848459185451,-0.212459852159157,,2.2776241395874193,,
,4201.0,1030.0,3294.0,1388.0,1470.0,2472.0,2701.0,2025-07-22 00:04:48,99.0,,-0.127604221433812,-2.59860784051964,-0.213481516025574,,2.4937316052377283,,
,4198.0,1029.0,3293.0,1386.0,1474.0,2484.0,2702.0,2025-07-22 00:04:49,99.0,,-0.127812221681063,-2.59861451216084,-0.212087838007903,,2.6743634633441484,,
,4202.0,1031.0,3296.0,1388.0,1474.0,2471.0,2677.0,2025-07-22 00:04:50,99.0,,-0.127793669758112,-2.59869586360623,-0.211681555896167,,2.8171045926069023,,
,4200.0,1031.0,3296.0,1389.0,1471.0,2475.0,2680.0,2025-07-22 00:04:51,99.0,,-0.127872471437593,-2.59879954548675,-0.212340759349837,,2.9206618276332885,,
,4201.0,1033.0,3298.0,1387.0,1469.0,2471.0,2682.0,2025-07-22 00:04:52,99.0,,-0.127890638951964,-2.59847706519437,-0.211265713512598,,2.9848895433989036,,
,4203.0,1031.0,3298.0,1388.0,1481.0,2460.0,2647.0,2025-07-22 00:04:53,99.0,,-0.128037829780485,-2.59843551714541,-0.210766510971812,,3.010746590914764,,
,4201.0,1031.0,3296.0,1389.0,1480.0,2462.0,2642.0,2025-07-22 00:04:54,99.0,,-0.127685043474631,-2.59831272509301,-0.209986753807697,,3.000176395486442,,
,4202.0,1030.0,3300.0,1388.0,1477.0,2476.0,2651.0,2025-07-22 00:04:55,99.0,,-0.127813761472416,-2.59817692394388,-0.209157760780568,,2.955913429436838,,
,4203.0,1029.0,3296.0,1390.0,1483.0,2471.0,2653.0,2025-07-22 00:04:56,98.0,,-0.127825634504813,-2.59822585369356,-0.209281276061989,,2.881232418354852,,
,4203.0,1032.0,3301.0,1390.0,1478.0,2471.0,2645.0,2025-07-22 00:04:57,98.0,,-0.127716121332527,-2.59810739444049,-0.21046939044701,,2.779668048199811,,
,4201.0,1034.0,3297.0,1389.0,1476.0,2467.0,2657.0,2025-07-22 00:04:59,98.0,,-0.127671589045343,-2.59779164110622,-0.206553788731916,,2.654739464184387,,
,4201.0,1029.0,3297.0,1387.0,1476.0,2462.0,2655.0,2025-07-22 00:05:00,98.0,,-0.127454959261955,-2.59762491112156,-0.206906707484565,,2.5097138883872083,,
,4200.0,1030.0,3297.0,1387.0,1473.0,2489.0,2654.0,2025-07-22 00:05:00,98.0,,-0.127232085489691,-2.59726165791927,-0.206568373528093,,2.347437287148034,,
,4199.0,1029.0,3295.0,1388.0,1474.0,2496.0,2649.0,2025-07-22 00:05:01,98.0,,-0.1271036196233,-2.59675156686837,-0.203844273904693,,2.17024855778708,,
2025-07-22 00:02:38,4198.0,1028.0,3294.0,1382.0,1470.0,2482.0,2671.0,2025-07-22 00:05:02,99.0,2025/07/22 12:02:38 AM,-0.126902767154705,-2.59661923558027,-0.205741666526185,,1.979979650115018,,
,4194.0,1027.0,3292.0,1383.0,1465.0,2473.0,2664.0,2025-07-22 00:05:03,99.0,,-0.126676710840883,-2.59617724224518,-0.204023332324789,,1.7780305248314636,,
,4194.0,1031.0,3291.0,1386.0,1468.0,2466.0,2663.0,2025-07-22 00:05:04,99.0,,-0.126556230691656,-2.59579580899479,-0.202625188902468,,1.5654977109732806,,
,4194.0,1029.0,3293.0,1383.0,1474.0,2478.0,2673.0,2025-07-22 00:05:05,98.0,,-0.126386963927709,-2.59547147189459,-0.202874327641011,,1.3433301164409737,,
,4192.0,1028.0,3293.0,1382.0,1473.0,2482.0,2666.0,2025-07-22 00:05:06,97.0,,-0.126187076252347,-2.59505074409143,-0.201137520022237,,1.1124859377870295,,
,4193.0,1029.0,3292.0,1380.0,1474.0,2471.0,2650.0,2025-07-22 00:05:07,96.0,,-0.125993856320091,-2.59501633787531,-0.198706533793952,,0.8740691235728539,,
,4194.0,1028.0,3293.0,1382.0,1472.0,2467.0,2660.0,2025-07-22 00:05:08,96.0,,-0.126023753584261,-2.59488601928464,-0.199463071022033,,0.6294311253615466,,
,4192.0,1026.0,3291.0,1381.0,1468.0,2466.0,2632.0,2025-07-22 00:05:10,95.0,,-0.125971069640793,-2.59467445410207,-0.197529772439136,,0.3802314790254504,,
,4191.0,1027.0,3289.0,1382.0,1470.0,2467.0,2649.0,2025-07-22 00:05:10,96.0,,-0.126050788595494,-2.5948321664606,-0.199499629137538,,0.128457321433316,,
,4189.0,1026.0,3288.0,1379.0,1469.0,2474.0,2656.0,2025-07-22 00:05:12,96.0,,-0.125997771957447,-2.59468909467912,-0.199746091305352,,-0.1235935894612665,,
,4187.0,1027.0,3289.0,1381.0,1472.0,2462.0,2680.0,2025-07-22 00:05:12,97.0,,-0.125702788705967,-2.59460171748008,-0.198792696787934,,-0.3733595133021027,,
,4187.0,1030.0,3289.0,1381.0,1471.0,2466.0,2672.0,2025-07-22 00:05:13,98.0,,-0.125576851368135,-2.59421700309912,-0.197276143285861,,-0.6180839079422635,,
,4187.0,1025.0,3289.0,1380.0,1470.0,2474.0,2667.0,2025-07-22 00:05:14,98.0,,-0.125446828299496,-2.59436152308577,-0.196459352397564,,-0.8549013155804853,,
,4187.0,1028.0,3290.0,1383.0,1470.0,2484.0,2654.0,2025-07-22 00:05:15,98.0,,-0.125494712000129,-2.59372279640625,-0.196769328571143,,-1.0809361084498643,,
,4186.0,1027.0,3286.0,1382.0,1472.0,2475.0,2680.0,2025-07-22 00:05:16,98.0,,-0.12543787661851,-2.59386997362352,-0.196898645502407,,-1.2934118423905294,,
,4186.0,1023.0,3287.0,1380.0,1475.0,2468.0,2681.0,2025-07-22 00:05:17,98.0,,-0.125250050051427,-2.59376539781991,-0.195220712540728,,-1.4897693015482767,,
,4188.0,1026.0,3286.0,1381.0,1475.0,2478.0,2663.0,2025-07-22 00:05:18,98.0,,-0.125144068752842,-2.59348099199525,-0.195168547095626,,-1.6677900574067492,,
,4184.0,1026.0,3286.0,1381.0,1471.0,2476.0,2664.0,2025-07-22 00:05:19,97.0,,-0.12533382850351,-2.59332703644561,-0.194145539460968,,-1.8257195978123935,,
,4188.0,1027.0,3285.0,1379.0,1464.0,2466.0,2651.0,2025-07-22 00:05:21,97.0,,-0.125189026001261,-2.59348845189821,-0.194697276862078,,-1.9623802636818597,,
,4186.0,1024.0,3285.0,1379.0,1470.0,2461.0,2635.0,2025-07-22 00:05:21,97.0,,-0.12515288714833,-2.59315564089683,-0.193341551356723,,-2.0772604394233496,,
,4185.0,1023.0,3286.0,1379.0,1476.0,2460.0,2649.0,2025-07-22 00:05:22,97.0,,-0.124864690165133,-2.59289787960112,-0.19245188746184,,-2.170564348910862,,
,4183.0,1026.0,3288.0,1382.0,1480.0,2460.0,2649.0,2025-07-22 00:05:23,97.0,,-0.12487770133982,-2.59306880401694,-0.192193948478994,,-2.2432078623099008,,
,4185.0,1025.0,3288.0,1381.0,1476.0,2458.0,2628.0,2025-07-22 00:05:25,97.0,,-0.124856325141862,-2.59252345947668,-0.191109100966772,,-2.296750264525607,,
,4185.0,1024.0,3282.0,1379.0,1478.0,2462.0,2644.0,2025-07-22 00:05:25,97.0,,-0.124530730055657,-2.59213039801616,-0.192474547023055,,-2.333259266253334,,
,4188.0,1025.0,3284.0,1383.0,1477.0,2460.0,2634.0,2025-07-22 00:05:27,97.0,,-0.124518376675831,-2.59231061937604,-0.190025584884677,,-2.3551155745589174,,
,4186.0,1026.0,3285.0,1380.0,1471.0,2475.0,2653.0,2025-07-22 00:05:27,97.0,,-0.1244400916234,-2.5918845568507,-0.189103743109269,,-2.364772925600694,,
,4186.0,1025.0,3287.0,1384.0,1464.0,2478.0,2680.0,2025-07-22 00:05:28,97.0,,-0.1243704450982,-2.59191890394002,-0.190235225938129,,-2.3644981806856737,,
,4185.0,1026.0,3283.0,1380.0,1473.0,2475.0,2682.0,2025-07-22 00:05:29,97.0,,-0.124420324793983,-2.59180951339304,-0.189744123411142,,-2.356122171879808,,
,4185.0,1023.0,3285.0,1381.0,1463.0,2475.0,2668.0,2025-07-22 00:05:30,97.0,,-0.124381449743149,-2.59159816511136,-0.189196887891197,,-2.3408339102005216,,
,4186.0,1027.0,3286.0,1382.0,1467.0,2470.0,2678.0,2025-07-22 00:05:31,97.0,,-0.124355931702289,-2.5913682159694,-0.187983492788915,,-2.319047667207219,,
,4181.0,1024.0,3284.0,1379.0,1467.0,2468.0,2681.0,2025-07-22 00:05:32,98.0,,-0.124267699698139,-2.5910307614008,-0.186542570162746,,-2.290364240815121,,
,4182.0,1023.0,3281.0,1377.0,1464.0,2469.0,2654.0,2025-07-22 00:05:34,98.0,,-0.124052548507295,-2.59076907021308,-0.187836734033441,,-2.2536351887806787,,
,4182.0,1024.0,3283.0,1379.0,1469.0,2468.0,2661.0,2025-07-22 00:05:34,98.0,,-0.123806213450953,-2.5902985099802,-0.186064213144653,,-2.207123799633148,,
,4184.0,1026.0,3284.0,1381.0,1473.0,2468.0,2643.0,2025-07-22 00:05:35,98.0,,-0.123788654339367,-2.59002673114042,-0.18552338779294,,-2.148741925981569,,
,4183.0,1026.0,3285.0,1380.0,1480.0,2479.0,2664.0,2025-07-22 00:05:36,97.0,,-0.12370896478687,-2.58976274193049,-0.184889383444854,,-2.076330520459537,,
,4183.0,1026.0,3284.0,1382.0,1481.0,2465.0,2657.0,2025-07-22 00:05:37,97.0,,-0.123693639229015,-2.58961434240056,-0.184678287244194,,-1.9879457961414961,,
,4182.0,1023.0,3283.0,1379.0,1481.0,2467.0,2631.0,2025-07-22 00:05:38,97.0,,-0.123454210630031,-2.59017278803386,-0.18420448074644,,-1.8821130659465737,,
,4182.0,1027.0,3283.0,1380.0,1476.0,2467.0,2639.0,2025-07-22 00:05:39,96.0,,-0.123444172815712,-2.58879273423135,-0.185039449747554,,-1.75801626412064,,
,4185.0,1026.0,3284.0,1380.0,1478.0,2471.0,2664.0,2025-07-22 00:05:40,96.0,,-0.12330592587,-2.58894751817275,-0.183986548488132,,-1.6156020229294323,,
,4183.0,1026.0,3283.0,1380.0,1482.0,2467.0,2667.0,2025-07-22 00:05:42,96.0,,-0.123316204763184,-2.58884460252713,-0.182851500242729,,-1.455591286679528,,
,4184.0,1026.0,3285.0,1380.0,1476.0,2463.0,2661.0,2025-07-22 00:05:42,97.0,,-0.123075036739873,-2.58879710007312,-0.183263956460837,,-1.279406342923652,,
,4182.0,1024.0,3283.0,1379.0,1485.0,2462.0,2647.0,2025-07-22 00:05:43,97.0,,-0.123009175298019,-2.58840338173941,-0.182720867338157,,-1.0890340825270552,,
,4182.0,1026.0,3284.0,1382.0,1481.0,2456.0,2640.0,2025-07-22 00:05:44,97.0,,-0.123011032350285,-2.58830568668273,-0.182395815882629,,-0.8868548040256785,,
,4182.0,1025.0,3283.0,1379.0,1480.0,2457.0,2643.0,2025-07-22 00:05:45,97.0,,-0.123158052036773,-2.58793353250112,-0.182433570589509,,-0.6754682348714459,,
,4181.0,1027.0,3283.0,1380.0,1484.0,2467.0,2659.0,2025-07-22 00:05:46,96.0,,-0.123150013456734,-2.58830202311248,-0.180834497269834,,-0.4575441551101057,,
,4181.0,1025.0,3285.0,1382.0,1479.0,2467.0,2670.0,2025-07-22 00:05:48,96.0,,-0.123124819653619,-2.58839374167333,-0.182324762625996,,-0.2357153468737591,,
,4180.0,1027.0,3286.0,1382.0,1468.0,2469.0,2669.0,2025-07-22 00:05:48,96.0,,-0.12318887129384,-2.58808131090471,-0.18255302237397,,-0.012518501306059476,,
,4181.0,1028.0,3284.0,1381.0,1466.0,2470.0,2632.0,2025-07-22 00:05:49,96.0,,-0.123252947593465,-2.58813138318163,-0.180430013562222,,0.20962241380705332,,
,4181.0,1027.0,3285.0,1382.0,1471.0,2469.0,2640.0,2025-07-22 00:05:50,96.0,,-0.122936327127331,-2.58791081787722,-0.179806687696414,,0.42838360789637475,,
,4180.0,1023.0,3282.0,1380.0,1471.0,2466.0,2674.0,2025-07-22 00:05:51,96.0,,-0.122575693569973,-2.58705278189809,-0.18135761778055,,0.6415165571656495,,
,4183.0,1027.0,3284.0,1381.0,1469.0,2472.0,2674.0,2025-07-22 00:05:53,96.0,,-0.122797224435727,-2.58769011991061,-0.179776664792158,,0.8468269597651807,,
,4182.0,1028.0,3285.0,1382.0,1471.0,2475.0,2663.0,2025-07-22 00:05:53,96.0,,-0.122956022311438,-2.58723606977501,-0.179507351669364,,1.042169867421173,,
,4182.0,1026.0,3285.0,1383.0,1470.0,2469.0,2660.0,,,,-0.122540635627702,-2.58748185455301,-0.179712434284033,,1.2254672944510707,,
,4184.0,1024.0,3286.0,1382.0,1462.0,2473.0,2653.0,,,,-0.122816013256201,-2.58755301653774,-0.178909712597259,,1.3947479243862981,,
,4183.0,1025.0,3285.0,1382.0,1466.0,2469.0,2637.0,,,,-0.123034598612688,-2.58726884826393,-0.180644037830768,,1.5482024398401097,,
,4182.0,1025.0,3285.0,1384.0,1470.0,2473.0,2621.0,,,,-0.12328990766401,-2.588025286913,-0.180138010411122,,1.6842435431626546,,
,4183.0,1028.0,3285.0,1386.0,1466.0,2479.0,2651.0,,,,-0.123384655438381,-2.58828469850969,-0.180972388323206,,1.801557948408431,,
,4182.0,1025.0,3286.0,1383.0,1466.0,2476.0,2662.0,,,,-0.123376244205606,-2.58838420341227,-0.182359545083068,,1.8991393970260522,,
,4180.0,1025.0,3282.0,1383.0,1474.0,2469.0,2644.0,,,,-0.123618565860462,-2.58908159108819,-0.184295408287741,,1.976297086145687,,
,4181.0,1026.0,3286.0,1383.0,1469.0,2469.0,2669.0,,,,-0.123996520151211,-2.5896097583154,-0.182205169237565,,2.032641269576565,,
,4181.0,1027.0,3286.0,1383.0,1472.0,2468.0,2712.0,,,,-0.12398868688425,-2.58975524655844,-0.182977689048786,,2.0680545768943794,,
,4183.0,1029.0,3288.0,1382.0,1478.0,2468.0,2705.0,,,,-0.124135877490341,-2.59006596981813,-0.184807747611598,,2.0826614572590225,,
,4183.0,1027.0,3284.0,1383.0,1475.0,2463.0,2687.0,,,,-0.124209778264109,-2.59066781017004,-0.184768840174228,,2.076808045154735,,
,4185.0,1028.0,3286.0,1386.0,1472.0,2461.0,2688.0,,,,-0.124319253676832,-2.59043013484864,-0.185438970947221,,2.051060925278148,,
,4182.0,1028.0,3288.0,1384.0,1472.0,2466.0,2671.0,,,,-0.124310214265611,-2.59094700563261,-0.185521449599123,,2.006226897338873,,
,4184.0,1027.0,3288.0,1384.0,1469.0,2467.0,2665.0,,,,-0.124453730945309,-2.59080165083976,-0.186589012054899,,1.9433885873076817,,
,4183.0,1027.0,3288.0,1385.0,1479.0,2457.0,2668.0,,,,-0.124676108664894,-2.59088786331112,-0.185932587648233,,1.8639443815613947,,
,4182.0,1027.0,3285.0,1383.0,1480.0,2470.0,2668.0,,,,-0.124684298544753,-2.59110505280738,-0.187634271874098,,1.769637046633549,,
,4185.0,1028.0,3289.0,1385.0,1474.0,2476.0,2637.0,,,,-0.124807690067321,-2.5912362193484,-0.186359673626008,,1.6625543821238897,,
,4185.0,1030.0,3289.0,1386.0,1475.0,2468.0,2635.0,,,,-0.124938564415539,-2.59099403549003,-0.185896054263783,,1.5450878672515491,,
,4183.0,1027.0,3288.0,1386.0,1472.0,2463.0,2671.0,,,,-0.125164592452318,-2.59164514681237,-0.184616157669161,,1.419841752137654,,
,4183.0,1025.0,3284.0,1383.0,1464.0,2481.0,2678.0,,,,-0.125107129910151,-2.59155076181027,-0.186569747274553,,1.2894948316873038,,
,4180.0,1024.0,3284.0,1383.0,1462.0,2472.0,2670.0,,,,-0.125191607333928,-2.59160808404181,-0.18600444448221,,1.1566282168913946,,
,4180.0,1026.0,3285.0,1385.0,1463.0,2465.0,2650.0,,,,-0.12523105169188,-2.59190217220392,-0.186469451311346,,1.0235417470670714,,
,4179.0,1024.0,3284.0,1382.0,1461.0,2469.0,2642.0,,,,-0.125464587466416,-2.59152752489583,-0.188507313607512,,0.8920865985652899,,
,4177.0,1022.0,3280.0,1381.0,1461.0,2487.0,2642.0,,,,-0.125385609221435,-2.59197831048687,-0.185889983222534,,0.763541000854508,,
,4177.0,1023.0,3279.0,1380.0,1470.0,2471.0,2662.0,,,,-0.12527488285737,-2.59180601570826,-0.185828957452005,,0.6385501828628702,,
,4174.0,1023.0,3279.0,1382.0,1456.0,2462.0,2670.0,,,,-0.125101293647612,-2.59143226139045,-0.184865606332461,,0.5171421026532457,,
,4175.0,1022.0,3279.0,1379.0,1463.0,2465.0,2634.0,,,,-0.125010410240621,-2.59125955515849,-0.186671329704948,,0.39881902413858833,,
,4173.0,1024.0,3279.0,1377.0,1464.0,2464.0,2634.0,,,,-0.12490335112245,-2.59116069165436,-0.186953424536785,,0.2827136274883501,,
,4170.0,1022.0,3274.0,1376.0,1474.0,2476.0,2613.0,,,,-0.124926339398628,-2.59129264282338,-0.185912890498033,,0.16778882162185288,,
,4170.0,1021.0,3277.0,1377.0,1472.0,2469.0,2675.0,,,,-0.124660226303318,-2.59061095923883,-0.185901294842575,,0.053053930980043816,,
,4171.0,1022.0,3275.0,1378.0,1475.0,2469.0,2650.0,,,,-0.12434218251431,-2.59035615500265,-0.18497566759007,,-0.062232817696360694,,
,4170.0,1022.0,3273.0,1376.0,1474.0,2471.0,2642.0,,,,-0.124303380297832,-2.59056024736861,-0.184400258444,,-0.17840397601711275,,
,4166.0,1019.0,3272.0,1374.0,1476.0,2474.0,2629.0,,,,-0.124207507365365,-2.59084963281634,-0.183523847046702,,-0.29528686397315795,,
,4168.0,1021.0,3273.0,1375.0,1477.0,2465.0,2644.0,,,,-0.124516794827603,-2.59092605136149,-0.185528457862977,,-0.4121835309287382,,
,4167.0,1018.0,3270.0,1376.0,1474.0,2458.0,2668.0,,,,-0.124637931032983,-2.59104614304192,-0.185352733788193,,-0.5279257152718616,,
,4165.0,1020.0,3270.0,1374.0,1473.0,2464.0,2670.0,,,,-0.124754436451911,-2.59132358647764,-0.185553642108286,,-0.6409919289466485,,
,4165.0,1019.0,3268.0,1375.0,1473.0,2476.0,2662.0,,,,-0.124614422157524,-2.5920703797503,-0.187408304843726,,-0.7496651282241084,,
,4166.0,1018.0,3266.0,1373.0,1475.0,2474.0,2659.0,,,,-0.124526972200187,-2.5914641143346,-0.1880827372811,,-0.8522053369811429,,
,4165.0,1018.0,3267.0,1375.0,1475.0,2467.0,2655.0,,,,-0.124624667830952,-2.59155153853662,-0.188630723245465,,-0.9470122795654433,,
,4166.0,1018.0,3268.0,1373.0,1475.0,2470.0,2670.0,,,,-0.12447789042559,-2.59165793973258,-0.187611472165601,,-1.0327579185187223,,
,4164.0,1017.0,3265.0,1374.0,1472.0,2464.0,2670.0,,,,-0.124559110783802,-2.591723811385,-0.187858811124215,,-1.1084764121424102,,
,4162.0,1017.0,3265.0,1372.0,1470.0,2459.0,2665.0,,,,-0.124583480419516,-2.59148072403014,-0.188020785967115,,-1.1736076174955312,,
,4163.0,1020.0,3267.0,1373.0,1470.0,2465.0,2658.0,,,,-0.124557295196241,-2.59172679727711,-0.188673680669006,,-1.2279982092927892,,
,4163.0,1018.0,3264.0,1374.0,1466.0,2464.0,2664.0,,,,-0.124813679119167,-2.59201890305914,-0.187782410178855,,-1.2718705975582485,,
,4164.0,1018.0,3264.0,1374.0,1464.0,2465.0,2656.0,,,,-0.124896074620745,-2.59248778377615,-0.188284864419727,,-1.305773305147616,,
,4160.0,1020.0,3264.0,1375.0,1468.0,2471.0,2664.0,,,,-0.125129332212149,-2.5926470706927,-0.189983075644553,,-1.330526625295737,,
,4160.0,1016.0,3265.0,1372.0,1468.0,2466.0,2653.0,,,,-0.125232698620989,-2.59254844067556,-0.190068877274549,,-1.3471738760371579,,
,4164.0,1021.0,3266.0,1375.0,1464.0,2471.0,2676.0,,,,-0.125431566115065,-2.59292099939208,-0.190796064036471,,-1.3569421323487085,,
,4161.0,1017.0,3261.0,1371.0,1473.0,2470.0,2690.0,,,,-0.1256135621257,-2.59352503988307,-0.191928761119162,,-1.3612090636373886,,
,4160.0,1016.0,3263.0,1373.0,1473.0,2469.0,2682.0,,,,-0.125540610673364,-2.59318252988363,-0.192696273004368,,-1.3614670245466587,,
,4162.0,1015.0,3261.0,1372.0,1472.0,2467.0,2658.0,,,,-0.125604340629369,-2.59351051705174,-0.193309026477149,,-1.3592734872685526,,
,4162.0,1017.0,3260.0,1374.0,1467.0,2463.0,2652.0,,,,-0.125409806895099,-2.5933445793727,-0.191609877603523,,-1.356178434820303,,
,4161.0,1016.0,3261.0,1375.0,1464.0,2471.0,2659.0,,,,-0.125428974487293,-2.59316696571683,-0.192347672359654,,-1.3536236770089018,,
,4162.0,1019.0,3259.0,1374.0,1467.0,2469.0,2658.0,,,,-0.125373428802145,-2.59312983965392,-0.193225911670505,,-1.3528151250134026,,
,4162.0,1016.0,3259.0,1372.0,1477.0,2461.0,2679.0,,,,-0.125485805936201,-2.59331907324132,-0.19272861208333,,-1.3545757414268766,,
,4161.0,1015.0,3258.0,1373.0,1467.0,2464.0,2677.0,,,,-0.125500207735477,-2.5931450548851,-0.1942561004869,,-1.3591930674635169,,
,4158.0,1015.0,3258.0,1372.0,1470.0,2462.0,2674.0,,,,-0.125479876133595,-2.59343847479978,-0.192562824298965,,-1.3662799750534491,,
,4160.0,1018.0,3260.0,1373.0,1477.0,2463.0,2649.0,,,,-0.125316743504858,-2.5935186038705,-0.194900491534362,,-1.3746699275236496,,
,4159.0,1016.0,3259.0,1370.0,1479.0,2461.0,2654.0,,,,-0.125284221928347,-2.59317821452904,-0.194382980206595,,-1.3823680520336215,,
,4157.0,1016.0,3255.0,1372.0,1477.0,2459.0,2664.0,,,,-0.125100124854601,-2.59310231278361,-0.192612032084283,,-1.3865761563182302,,
,4157.0,1015.0,3256.0,1373.0,1473.0,2455.0,2674.0,,,,-0.125118247499008,-2.59296353243032,-0.193406733516178,,-1.3838029002327141,,
,4156.0,1016.0,3257.0,1371.0,1473.0,2457.0,2651.0,,,,-0.125172429630793,-2.59279366537023,-0.192714551963441,,-1.3700597721236196,,
,4159.0,1014.0,3257.0,1371.0,1478.0,2456.0,2659.0,,,,-0.124963607694037,-2.59313276104352,-0.191268378380792,,-1.341130819137868,,
,4155.0,1014.0,3254.0,1372.0,1472.0,2458.0,2661.0,,,,-0.125078867603366,-2.59289333342802,-0.192212699772332,,-1.2928919324267156,,
,4156.0,1017.0,3254.0,1372.0,1482.0,2470.0,2652.0,,,,-0.125122964483706,-2.59304090172466,-0.194328449177434,,-1.2216466417900405,,
,4157.0,1018.0,3255.0,1374.0,1477.0,2463.0,2669.0,,,,-0.124995536762637,-2.59276283967555,-0.193557252621218,,-1.12444160162768,,
,4154.0,1015.0,3252.0,1371.0,1477.0,2464.0,2667.0,,,,-0.125082982357391,-2.59311770712463,-0.192825917669005,,-0.9993268559294426,,
,4156.0,1018.0,3254.0,1372.0,1467.0,2461.0,2676.0,,,,-0.125076323761401,-2.59332185156925,-0.193709204421177,,-0.8455332439644033,,
,4155.0,1017.0,3253.0,1371.0,1472.0,2473.0,2668.0,,,,-0.125007927725165,-2.5935351264235,-0.194452672177253,,-0.6635508119854041,,
,4157.0,1015.0,3253.0,1373.0,1473.0,2471.0,2660.0,,,,-0.125154768691497,-2.59365243276357,-0.196353619588976,,-0.4551058821253108,,
,4157.0,1018.0,3256.0,1373.0,1466.0,2468.0,2639.0,,,,-0.125178842873356,-2.59354399858716,-0.195202953463942,,-0.2230480543038227,,
,4155.0,1017.0,3253.0,1373.0,1471.0,2463.0,2633.0,,,,-0.125179157312613,-2.59372680555633,-0.194799679310783,,0.02883050160273625,,
,4154.0,1015.0,3253.0,1370.0,1473.0,2468.0,2653.0,,,,-0.124661909855195,-2.59318814173294,-0.195804436702074,,0.29601440409158686,,
,4155.0,1015.0,3254.0,1371.0,1476.0,2466.0,2630.0,,,,-0.124787088161576,-2.59302390723443,-0.195675213681013,,0.5734927309085202,,
,4157.0,1018.0,3254.0,1373.0,1474.0,2478.0,2637.0,,,,-0.124691973209442,-2.59282450709754,-0.193269144714958,,0.855968967583033,,
,4156.0,1018.0,3252.0,1372.0,1471.0,2484.0,2637.0,,,,-0.124588357138598,-2.59264976330054,-0.194390616553212,,1.1380361980529397,,
2025-07-22 00:02:39,4155.0,1017.0,3251.0,1372.0,1469.0,2482.0,2640.0,,,2025/07/22 12:02:39 AM,-0.124676234873202,-2.59233298188246,-0.194365207272566,,1.414312073913207,,
,4155.0,1017.0,3253.0,1371.0,1469.0,2476.0,2648.0,,,,-0.124839920406155,-2.59244922698058,-0.194160691765091,,1.6795391895826315,,
,4156.0,1019.0,3254.0,1371.0,1465.0,2471.0,2650.0,,,,-0.124727586552092,-2.59287413267124,-0.195422706021469,,1.928664219342657,,
,4157.0,1020.0,3252.0,1373.0,1470.0,2480.0,2644.0,,,,-0.125035723899695,-2.59321241789103,-0.195139974276825,,2.1569119877713567,,
,4154.0,1017.0,3254.0,1372.0,1471.0,2480.0,2638.0,,,,-0.125346066847832,-2.59354680028774,-0.195970785668725,,2.359868571447814,,
,4154.0,1019.0,3252.0,1373.0,1472.0,2471.0,2659.0,,,,-0.125654680452642,-2.59386599339419,-0.197031677094417,,2.533581631324982,,
,4153.0,1020.0,3256.0,1375.0,1474.0,2480.0,2659.0,,,,-0.125955337762698,-2.59484633901326,-0.19681348466926,,2.6746780708801317,,
,4155.0,1020.0,3255.0,1374.0,1471.0,2472.0,2647.0,,,,-0.12638541573918,-2.59556788308516,-0.20172296921264,,2.7804907541441604,,
,4158.0,1020.0,3258.0,1377.0,1471.0,2477.0,2646.0,,,,-0.126663286680197,-2.59582914569416,-0.202693249682114,,2.8491793144037585,,
,4155.0,1020.0,3256.0,1374.0,1477.0,2483.0,2686.0,,,,-0.127092338634675,-2.59652736913723,-0.204393719285727,,2.8798263936951667,,
,4156.0,1020.0,3252.0,1373.0,1477.0,2482.0,2679.0,,,,-0.127552293617918,-2.5973071475648,-0.207019749059543,,2.8724905741642357,,
,4155.0,1021.0,3255.0,1377.0,1475.0,2469.0,2659.0,,,,-0.127821308390344,-2.59755922958371,-0.207828181873774,,2.8282009347574313,,
,4156.0,1021.0,3254.0,1375.0,1479.0,2465.0,2660.0,,,,-0.128068434744238,-2.59848401143543,-0.20819700287255,,2.748885520369215,,
,4154.0,1019.0,3255.0,1376.0,1483.0,2459.0,2666.0,,,,-0.128264523347438,-2.59876248354617,-0.209463071883105,,2.637236388003213,,
,4153.0,1021.0,3256.0,1374.0,1479.0,2463.0,2663.0,,,,-0.128394500494375,-2.59883702267527,-0.209972548015793,,2.4965253658607094,,
,4154.0,1020.0,3254.0,1374.0,1487.0,2463.0,2660.0,,,,-0.128745563275918,-2.59926180223088,-0.210050438307638,,2.330394143053733,,
,4154.0,1018.0,3256.0,1376.0,1485.0,2469.0,2640.0,,,,-0.128508670577662,-2.59916004712282,-0.20993640086971,,2.142646937953934,,
,4157.0,1019.0,3253.0,1374.0,1482.0,2469.0,2631.0,,,,-0.128635232992607,-2.59927511635276,-0.211350058141866,,1.9370726164000618,,
,4149.0,1020.0,3250.0,1373.0,1477.0,2470.0,2647.0,,,,-0.128753221743715,-2.59919763450007,-0.212376952225255,,1.7173164936954408,,
,4153.0,1018.0,3254.0,1376.0,1474.0,2464.0,2634.0,,,,-0.128630992084418,-2.59894833856684,-0.212103184828802,,1.486811939207013,,
,4154.0,1021.0,3253.0,1374.0,1475.0,2473.0,2633.0,,,,-0.128817705830946,-2.59904762278657,-0.211982342640179,,1.2487704265351922,,
,4150.0,1020.0,3253.0,1375.0,1471.0,2474.0,2651.0,,,,-0.128819431453194,-2.59935510896726,-0.211644938751268,,1.0062180397658653,,
,4150.0,1017.0,3250.0,1371.0,1467.0,2474.0,2694.0,,,,-0.129000185854115,-2.59930455543265,-0.211693467185444,,0.7620585944614072,,
,4150.0,1017.0,3249.0,1369.0,1466.0,2482.0,2675.0,,,,-0.128578003950447,-2.59911533869209,-0.213076261383402,,0.5191396671930105,,
,4149.0,1016.0,3246.0,1369.0,1466.0,2475.0,2657.0,,,,-0.128583217786515,-2.59925669821561,-0.210813584399231,,0.2802983743873739,,
,4148.0,1020.0,3248.0,1369.0,1464.0,2468.0,2662.0,,,,-0.12861949824201,-2.5991244755458,-0.211136263788587,,0.0483686617136674,,
,4142.0,1015.0,3247.0,1371.0,1467.0,2466.0,2649.0,,,,-0.128587441392478,-2.59899031634094,-0.212316242842874,,-0.17385936630066484,,
,4143.0,1015.0,3241.0,1366.0,1477.0,2458.0,2650.0,,,,-0.128333642233527,-2.5989508516157,-0.210935437002131,,-0.38372649356468785,,
,4143.0,1013.0,3242.0,1368.0,1480.0,2461.0,2657.0,,,,-0.128437329985041,-2.59866480612527,-0.209396254931041,,-0.5788255921142575,,
,4144.0,1015.0,3241.0,1367.0,1477.0,2460.0,2651.0,,,,-0.128412682174749,-2.5985838584292,-0.211938338533188,,-0.757137275310702,,
,4139.0,1013.0,3238.0,1364.0,1483.0,2463.0,2645.0,,,,-0.128152778315395,-2.59831247675578,-0.209874271217504,,-0.9171575226930754,,
,4137.0,1013.0,3239.0,1365.0,1476.0,2460.0,2625.0,,,,-0.128148566387594,-2.59865379906425,-0.209747325308983,,-1.0579967279542257,,
,4136.0,1011.0,3235.0,1361.0,1473.0,2465.0,2628.0,,,,-0.128054717227444,-2.59840601843233,-0.209133676665922,,-1.1794352985178609,,
,4137.0,1012.0,3235.0,1364.0,1478.0,2462.0,2663.0,,,,-0.12805097853991,-2.59837421250912,-0.21058020986179,,-1.2819287972195108,,
,4136.0,1014.0,3232.0,1363.0,1475.0,2471.0,2661.0,,,,-0.128052252434715,-2.59815222450148,-0.209543373280317,,-1.3665638068210595,,
,4134.0,1011.0,3231.0,1363.0,1473.0,2472.0,2657.0,,,,-0.128047728563093,-2.59844638391194,-0.211582173924548,,-1.4349725284845414,,
,4132.0,1009.0,3231.0,1360.0,1483.0,2478.0,2651.0,,,,-0.127967044056021,-2.59839126276581,-0.210176255661394,,-1.4892185288332813,,
,4133.0,1011.0,3231.0,1361.0,1476.0,2476.0,2654.0,,,,-0.127946575057014,-2.59828195813619,-0.210702987661964,,-1.531667659304347,,
,4133.0,1010.0,3229.0,1360.0,1474.0,2466.0,2668.0,,,,-0.127774280594697,-2.59818491376146,-0.209766604728674,,-1.5648570535517137,,
,4132.0,1010.0,3228.0,1364.0,1476.0,2467.0,2658.0,,,,-0.128023359457846,-2.59842047301845,-0.2105685757418,,-1.5913715657895773,,
,4131.0,1010.0,3226.0,1361.0,1475.0,2473.0,2657.0,,,,-0.128076227330417,-2.59843989124594,-0.211934681873237,,-1.6137317737911538,,
,4131.0,1008.0,3226.0,1358.0,1471.0,2459.0,2657.0,,,,-0.12812773384126,-2.59867006559458,-0.211127586950257,,-1.6342921596088416,,
,4130.0,1010.0,3229.0,1361.0,1477.0,2461.0,2658.0,,,,-0.128367039556083,-2.5988662303233,-0.213099640888275,,-1.6551440934002857,,
,4129.0,1009.0,3224.0,1360.0,1473.0,2464.0,2640.0,,,,-0.128606149912174,-2.59932392705313,-0.213812658246613,,-1.6780170994626966,,
,4131.0,1008.0,3223.0,1360.0,1473.0,2466.0,2639.0,,,,-0.128449796747406,-2.59950990021709,-0.215056791089851,,-1.7041738970874403,,
,4130.0,1008.0,3222.0,1360.0,1476.0,2468.0,2638.0,,,,-0.128592806371915,-2.59936641977949,-0.215164851398971,,-1.734299318531461,,
,4130.0,1009.0,3222.0,1358.0,1470.0,2466.0,2651.0,,,,-0.1290186500093,-2.59974184793072,-0.214912750565187,,-1.7683892652031212,,
,4129.0,1011.0,3224.0,1361.0,1468.0,2467.0,2673.0,,,,-0.129012135394168,-2.59962488715729,-0.214568138956084,,-1.8056518716169965,,
,4128.0,1009.0,3225.0,1361.0,1464.0,2467.0,2664.0,,,,-0.128904687668394,-2.59956996472733,-0.214359952669604,,-1.8444375045456025,,
,4127.0,1010.0,3222.0,1359.0,1481.0,2483.0,2674.0,,,,-0.128852142638306,-2.59983135021419,-0.214014818908139,,-1.8822160413710947,,
,4128.0,1007.0,3220.0,1356.0,1476.0,2475.0,2667.0,,,,-0.128779488398239,-2.59978235358394,-0.215113024853286,,-1.9156184499969708,,
,4127.0,1009.0,3220.0,1360.0,1470.0,2470.0,2676.0,,,,-0.128842447829173,-2.59986488237859,-0.213226455344171,,-1.9405546952974655,,
,4127.0,1009.0,3221.0,1360.0,1471.0,2462.0,2680.0,,,,-0.128881482887811,-2.59971858326535,-0.21597296958,,-1.9524114090048286,,
,4126.0,1008.0,3217.0,1359.0,1459.0,2464.0,2676.0,,,,-0.128966893324563,-2.59968509790584,-0.214728455494513,,-1.9463215162131076,,
,4125.0,1008.0,3216.0,1356.0,1471.0,2467.0,2658.0,,,,-0.128930179318568,-2.59985280031917,-0.214098124781658,,-1.9174863619725546,,
,4125.0,1008.0,3218.0,1359.0,1469.0,2473.0,2682.0,,,,-0.128805220190743,-2.59989903024264,-0.217063099866051,,-1.861521658185311,,
,4125.0,1009.0,3215.0,1358.0,1471.0,2465.0,2689.0,,,,-0.128933423525934,-2.59968693481037,-0.21618496153108,,-1.7747938952661362,,
,4124.0,1008.0,3214.0,1358.0,1475.0,2458.0,2706.0,,,,-0.128889549657147,-2.59974323437255,-0.215112318470781,,-1.654714443405122,,
,4122.0,1007.0,3214.0,1356.0,1471.0,2456.0,2691.0,,,,-0.128696868826195,-2.59964121745782,-0.2154644756611,,-1.4999638811516853,,
,4122.0,1008.0,3215.0,1357.0,1478.0,2467.0,2642.0,,,,-0.128501908548064,-2.59928056943891,-0.214235772322593,,-1.3106279313278855,,
,4119.0,1006.0,3213.0,1357.0,1488.0,2463.0,2637.0,,,,-0.128266450937375,-2.59890450230746,-0.213750281036068,,-1.0882373070393911,,
,4119.0,1007.0,3216.0,1357.0,1479.0,2459.0,2638.0,,,,-0.128007771936322,-2.59886186881243,-0.213693249710769,,-0.8357152193592732,,
,4121.0,1006.0,3213.0,1358.0,1464.0,2463.0,2674.0,,,,-0.128089912335936,-2.5986997844486,-0.213749953693653,,-0.5572465838972385,,
,4119.0,1008.0,3214.0,1358.0,1476.0,2462.0,2673.0,,,,-0.127940522949092,-2.59863851751253,-0.213842200560307,,-0.25809030035196645,,
,4121.0,1007.0,3209.0,1359.0,1482.0,2460.0,2644.0,,,,-0.127952581110775,-2.59836962010885,-0.211113304817379,,0.055641235256647215,,
,4121.0,1008.0,3215.0,1356.0,1473.0,2467.0,2657.0,,,,-0.127849805771037,-2.59859122163581,-0.212027150570574,,0.37721377249782545,,
,4117.0,1008.0,3212.0,1358.0,1471.0,2482.0,2672.0,,,,-0.1279239012418,-2.59856951541123,-0.211358443286199,,0.6994994452815765,,
,4118.0,1007.0,3210.0,1356.0,1476.0,2472.0,2659.0,,,,-0.127971518841551,-2.59847221220254,-0.212876072955368,,1.015196071634546,,
,4117.0,1006.0,3210.0,1355.0,1476.0,2467.0,2640.0,,,,-0.128214205099629,-2.59842009296146,-0.212477753425452,,1.3170397737594561,,
,4117.0,1009.0,3211.0,1357.0,1477.0,2468.0,2667.0,,,,-0.127750009844703,-2.59865174405556,-0.212219358332775,,1.5980173803862363,,
,4122.0,1007.0,3211.0,1356.0,1476.0,2463.0,2681.0,,,,-0.127718382392787,-2.59837866679254,-0.211647663324101,,1.8515847881096867,,
,4120.0,1007.0,3208.0,1355.0,1472.0,2483.0,2685.0,,,,-0.127639950980833,-2.59824896277176,-0.213225672227039,,2.0718930300460054,,
,4117.0,1009.0,3209.0,1356.0,1471.0,2474.0,2675.0,,,,-0.127410900019873,-2.59780840491433,-0.210376739958817,,2.25401652905238,,
,4120.0,1009.0,3211.0,1357.0,1476.0,2472.0,2653.0,,,,-0.127030975493742,-2.59745394867517,-0.209757489925794,,2.394170000911237,,
,4120.0,1009.0,3211.0,1358.0,1476.0,2473.0,2658.0,,,,-0.127027036614483,-2.59717160590301,-0.209877990807359,,2.4898941329487885,,
,4118.0,1010.0,3211.0,1356.0,1479.0,2478.0,2646.0,,,,-0.12694924458312,-2.59702861367663,-0.210010819923359,,2.540187395797533,,
,4118.0,1008.0,3208.0,1354.0,1472.0,2473.0,2654.0,,,,-0.127168205520099,-2.59705229306513,-0.20741838040812,,2.5455630453877687,,
,4119.0,1008.0,3210.0,1358.0,1463.0,2468.0,2676.0,,,,-0.127206141830844,-2.59709076562723,-0.208399064586567,,2.508016552313058,,
,4117.0,1008.0,3209.0,1358.0,1470.0,2470.0,2672.0,,,,-0.127340647995125,-2.59716184487281,-0.209059296050894,,2.430898625892906,,
,4120.0,1009.0,3209.0,1357.0,1467.0,2470.0,2646.0,,,,-0.127489556588161,-2.5974441065574,-0.210161730290907,,2.318700940119755,,
,4116.0,1007.0,3209.0,1357.0,1460.0,2481.0,2647.0,,,,-0.127656407714833,-2.59782384986607,-0.209706383307185,,2.1767729461844882,,
,4117.0,1010.0,3209.0,1358.0,1469.0,2485.0,2640.0,,,,-0.127934647770472,-2.597995010584,-0.212434895638196,,2.0109962638098913,,
,4119.0,1009.0,3208.0,1358.0,1472.0,2481.0,2658.0,,,,-0.128226473080319,-2.5985693424915,-0.211755322577486,,1.8274468999165192,,
,4117.0,1009.0,3209.0,1359.0,1471.0,2479.0,2677.0,,,,-0.128354525744818,-2.59882612896221,-0.211915024150683,,1.6320750454388384,,
,4117.0,1009.0,3210.0,1358.0,1470.0,2478.0,2670.0,,,,-0.128645321473019,-2.59920471513187,-0.215862144820361,,1.4304280404721643,,
,4117.0,1007.0,3209.0,1357.0,1474.0,2470.0,2635.0,,,,-0.129044076273464,-2.59964589362387,-0.216156746727915,,1.2274350981834252,,
,4120.0,1011.0,3213.0,1359.0,1474.0,2472.0,2662.0,,,,-0.129306097550779,-2.60000720231408,-0.215745779796385,,1.0272638025406677,,
,4118.0,1010.0,3209.0,1358.0,1476.0,2473.0,2662.0,,,,-0.129515208502135,-2.6004742443259,-0.219087535666396,,0.8332497323971192,,
,4117.0,1010.0,3212.0,1360.0,1476.0,2475.0,2666.0,,,,-0.129573902792735,-2.60076747767502,-0.218425021432532,,0.6478929384430604,,
,4117.0,1010.0,3208.0,1359.0,1480.0,2472.0,2674.0,,,,-0.129956979391629,-2.6010127621926,-0.218756140349557,,0.47290904409836737,,
,4118.0,1010.0,3211.0,1358.0,1477.0,2469.0,2690.0,,,,-0.129895154351186,-2.60113991611661,-0.217005232123551,,0.30931903073497646,,
,4117.0,1011.0,3210.0,1361.0,1482.0,2472.0,2676.0,,,,-0.130203826787416,-2.60121656879034,-0.219070741433443,,0.15756090658489302,,
,4118.0,1012.0,3211.0,1361.0,1480.0,2478.0,2685.0,,,,-0.130295442100753,-2.60133942015079,-0.219912531215807,,0.017608472503566765,,
,4115.0,1010.0,3211.0,1358.0,1468.0,2466.0,2663.0,,,,-0.130288660780567,-2.60147879204912,-0.220381799941877,,-0.11091366811520349,,
,4119.0,1013.0,3211.0,1361.0,1477.0,2473.0,2634.0,,,,-0.1302765921458,-2.60139321892987,-0.218300495517092,,-0.22862525885898274,,
,4119.0,1014.0,3213.0,1361.0,1481.0,2480.0,2633.0,,,,-0.130237132103358,-2.6011107780565,-0.219351464749216,,-0.33629822299861284,,
,4116.0,1013.0,3211.0,1358.0,1475.0,2472.0,2623.0,,,,-0.130042805803638,-2.600859533524,-0.218213605251237,,-0.4347770209923949,,
,4116.0,1013.0,3209.0,1357.0,1476.0,2477.0,2614.0,,,,-0.130103502899715,-2.60061266131495,-0.217583089225705,,-0.524910269565929,,
,4115.0,1011.0,3211.0,1359.0,1475.0,2466.0,2653.0,,,,-0.129805059465308,-2.60072812924881,-0.21661170428901,,-0.6074928584349402,,
,4116.0,1011.0,3210.0,1356.0,1477.0,2467.0,2685.0,,,,-0.129631489813197,-2.60037800100555,-0.216340796188019,,-0.6832193576654445,,
,4115.0,1011.0,3211.0,1357.0,1474.0,2465.0,2636.0,,,,-0.129463842261518,-2.60009318173834,-0.216309725087133,,-0.7526512050017994,,
,4113.0,1009.0,3207.0,1356.0,1472.0,2465.0,2644.0,,,,-0.129501680549268,-2.59997670054418,-0.215380267016082,,-0.8162011843189734,,
,4112.0,1009.0,3204.0,1355.0,1475.0,2465.0,2656.0,,,,-0.129322688737675,-2.59985048239827,-0.215023847933378,,-0.8741385007614169,,
,4109.0,1010.0,3204.0,1353.0,1465.0,2464.0,2656.0,,,,-0.129184806262319,-2.59968313720624,-0.21486533537609,,-0.9266158692013711,,
,4110.0,1007.0,3205.0,1354.0,1472.0,2469.0,2679.0,,,,-0.128927037570031,-2.59966897216629,-0.213616499292047,,-0.9737162765612938,,
,4107.0,1006.0,3201.0,1353.0,1474.0,2471.0,2670.0,,,,-0.128845330282712,-2.59959400238828,-0.212230249356955,,-1.015512155832403,,
,4104.0,1006.0,3200.0,1351.0,1466.0,2457.0,2651.0,,,,-0.128499016556799,-2.59910103286174,-0.21346331746593,,-1.0521253056235254,,
,4103.0,1006.0,3198.0,1349.0,1472.0,2474.0,2612.0,,,,-0.128528254223971,-2.59896155992647,-0.212501067619343,,-1.0837737544193524,,
,4104.0,1006.0,3195.0,1351.0,1478.0,2465.0,2638.0,,,,-0.128498983074758,-2.59878898241586,-0.211192734716647,,-1.1107927337718555,,
,4101.0,1007.0,3199.0,1348.0,1483.0,2458.0,2610.0,,,,-0.128534626529897,-2.598773159871,-0.210759124531755,,-1.1336208062961108,,
,4101.0,1005.0,3194.0,1350.0,1488.0,2461.0,2624.0,,,,-0.128529575466868,-2.59879661747518,-0.212790203627294,,-1.1527482229091528,,
,4100.0,1003.0,3193.0,1346.0,1489.0,2467.0,2658.0,,,,-0.128588639226316,-2.59878306462047,-0.211001454624468,,-1.1686316451891496,,
,4097.0,1004.0,3191.0,1345.0,1483.0,2463.0,2663.0,,,,-0.128733376298057,-2.59897802790245,-0.21204905304321,,-1.1815861292813725,,
,4100.0,1006.0,3193.0,1347.0,1484.0,2467.0,2656.0,,,,-0.128621079164917,-2.59914251401251,-0.213085241372104,,-1.191670477511855,,
,4099.0,1003.0,3190.0,1346.0,1487.0,2468.0,2659.0,,,,-0.128581333818808,-2.59909385862523,-0.213815672029792,,-1.1985848803602728,,
,4095.0,1002.0,3188.0,1347.0,1484.0,2482.0,2650.0,,,,-0.128624980488333,-2.59942413794415,-0.213840948256187,,-1.201599769890317,,
,4098.0,1005.0,3189.0,1348.0,1481.0,2472.0,2643.0,,,,-0.12876670640238,-2.59947373725661,-0.21523870879578,,-1.199531724033541,,
,4098.0,1004.0,3192.0,1345.0,1480.0,2475.0,2661.0,,,,-0.12877137390509,-2.59951199799775,-0.213552249179752,,-1.1907760057481793,,
,4096.0,1003.0,3188.0,1344.0,1476.0,2490.0,2654.0,,,,-0.128795231415528,-2.59959647357886,-0.213006699858628,,-1.1733965285475683,,
,4093.0,1002.0,3187.0,1346.0,1475.0,2487.0,2659.0,,,,-0.128882691865308,-2.59939215986826,-0.21363232886931,,-1.1452644891396178,,
,4096.0,1003.0,3187.0,1342.0,1478.0,2478.0,2652.0,,,,-0.128893976249127,-2.5994416707446,-0.214402667385527,,-1.104228925278178,,
,4094.0,1004.0,3188.0,1346.0,1474.0,2475.0,2627.0,,,,-0.129036517179497,-2.5995186705736,-0.214122345934449,,-1.048297794452698,,
,4095.0,1001.0,3187.0,1344.0,1475.0,2477.0,2639.0,,,,-0.128964817272703,-2.59976828495823,-0.214287859948083,,-0.975807507173004,,
,4092.0,1003.0,3185.0,1345.0,1472.0,2477.0,2637.0,,,,-0.128930068045028,-2.59974850844194,-0.213517417226225,,-0.8855620136994165,,
,4090.0,1000.0,3186.0,1346.0,1466.0,2467.0,2640.0,,,,-0.129081682078024,-2.59982188780543,-0.212680253769162,,-0.7769287397526043,,
,4092.0,1001.0,3184.0,1345.0,1475.0,2477.0,2654.0,,,,-0.129213387289204,-2.59948412017787,-0.214490038499177,,-0.649886559201147,,
,4091.0,1004.0,3185.0,1347.0,1469.0,2471.0,2649.0,,,,-0.129136594752015,-2.59955921407087,-0.212340825802821,,-0.5050289481470874,,
,4093.0,1003.0,3184.0,1346.0,1469.0,2472.0,2646.0,,,,-0.129114485316265,-2.59924871690564,-0.213100948063592,,-0.34353197275226255,,
2025-07-22 00:02:40,4093.0,1002.0,3182.0,1344.0,1477.0,2475.0,2630.0,,,2025/07/22 12:02:40 AM,-0.129230191456626,-2.59928005293462,-0.212682433393114,,-0.16710072566976067,,
,4092.0,1002.0,3185.0,1344.0,1471.0,2476.0,2646.0,,,,-0.128990114359949,-2.59936684984751,-0.213403207899499,,0.022091389366486885,,
,4090.0,1002.0,3183.0,1345.0,1465.0,2468.0,2635.0,,,,-0.128909847555748,-2.59926188362975,-0.213612582590806,,0.22145869803562887,,
,4087.0,1003.0,3183.0,1344.0,1473.0,2472.0,2658.0,,,,-0.129003785005278,-2.59959568738769,-0.21299137995951,,0.4280482467417616,,
,4091.0,1003.0,3180.0,1345.0,1472.0,2470.0,2643.0,,,,-0.129079784791724,-2.59969044428599,-0.214624916825464,,0.6385742933392676,,
,4088.0,1002.0,3183.0,1342.0,1473.0,2472.0,2644.0,,,,-0.129043763998673,-2.59992714863817,-0.216354604499147,,0.8494491775909765,,
,4090.0,1002.0,3181.0,1344.0,1476.0,2461.0,2687.0,,,,-0.129257396361637,-2.60039305429777,-0.215635486397035,,1.0568214111405627,,
,4088.0,1002.0,3178.0,1344.0,1473.0,2465.0,2677.0,,,,-0.129471253396074,-2.60038760354392,-0.217909369836967,,1.2566326188895658,,
,4088.0,1003.0,3181.0,1346.0,1475.0,2467.0,2682.0,,,,-0.129669148928947,-2.60085216857431,-0.217889088578891,,1.4447026606287174,,
,4083.0,1003.0,3177.0,1341.0,1473.0,2479.0,2662.0,,,,-0.129831576552315,-2.6012857221989,-0.219026911948626,,1.616847386151016,,
,4087.0,1002.0,3176.0,1342.0,1475.0,2475.0,2652.0,,,,-0.12979707610493,-2.60146128914562,-0.220091322795516,,1.769026901529592,,
,4086.0,1001.0,3179.0,1343.0,1480.0,2469.0,2655.0,,,,-0.13032015401248,-2.60172096470362,-0.220283037108042,,1.8975151964457717,,
,4086.0,1005.0,3182.0,1343.0,1478.0,2469.0,2660.0,,,,-0.130262203766351,-2.60187572526856,-0.221333195355282,,1.9990759014819885,,
,4085.0,1001.0,3176.0,1341.0,1478.0,2468.0,2640.0,,,,-0.13039268174876,-2.60194368417006,-0.22093517796824,,2.071125041353562,,
,4084.0,1004.0,3176.0,1341.0,1482.0,2464.0,2632.0,,,,-0.130066215125013,-2.60209173947769,-0.221662184344467,,2.1118608884487515,,
,4084.0,1003.0,3179.0,1342.0,1478.0,2461.0,2619.0,,,,-0.130124927921377,-2.60218239480204,-0.222839998295782,,2.120344091485333,,
,4085.0,1002.0,3178.0,1342.0,1477.0,2464.0,2633.0,,,,-0.129978291647291,-2.60213796074109,-0.222289549142549,,2.0965182545927394,,
,4084.0,1003.0,3178.0,1343.0,1474.0,2474.0,2634.0,,,,-0.130151366331762,-2.60205401363064,-0.222737752151002,,2.041170942146848,,
,4082.0,1001.0,3177.0,1342.0,1472.0,2477.0,2652.0,,,,-0.130011705351758,-2.60189284073957,-0.221526096328986,,1.9558451455730101,,
,4081.0,1004.0,3177.0,1344.0,1475.0,2487.0,2655.0,,,,-0.129902321290802,-2.60220121053873,-0.220739054478839,,1.8427186334089738,,
,4082.0,1004.0,3177.0,1344.0,1475.0,2474.0,2652.0,,,,-0.129820654658434,-2.60165859682638,-0.222086790755186,,1.7044715293514527,,
,4083.0,1004.0,3177.0,1342.0,1474.0,2478.0,2655.0,,,,-0.129619182629403,-2.60157912699229,-0.220945892035562,,1.5441608303906618,,
,4081.0,1005.0,3177.0,1342.0,1480.0,2472.0,2649.0,,,,-0.12965054875192,-2.60127844101541,-0.218634636279143,,1.3651152940486855,,
,4083.0,1003.0,3175.0,1344.0,1474.0,2478.0,2633.0,,,,-0.129726150364006,-2.60101581446997,-0.220522807122347,,1.170856493888922,,
,4084.0,1003.0,3180.0,1345.0,1471.0,2474.0,2630.0,,,,-0.129716846121185,-2.60080957635953,-0.220474205016966,,0.9650436136437036,,
,4084.0,1003.0,3177.0,1345.0,1474.0,2471.0,2627.0,,,,-0.129457207875733,-2.60075757017085,-0.220675020201693,,0.7514327396728211,,
,4085.0,1005.0,3179.0,1343.0,1477.0,2473.0,2622.0,,,,-0.129595450297116,-2.60104191468105,-0.219622333047416,,0.5338375237551674,,
,4083.0,1003.0,3178.0,1342.0,1473.0,2475.0,2624.0,,,,-0.129704190072857,-2.60068049594114,-0.220227634445834,,0.31607760618784775,,
,4086.0,1003.0,3178.0,1343.0,1475.0,2482.0,2646.0,,,,-0.129706119357366,-2.60106328511912,-0.221235238211934,,0.10190393519232693,,
,4082.0,1003.0,3176.0,1343.0,1470.0,2480.0,2620.0,,,,-0.129946168636288,-2.60128705311649,-0.220626675220747,,-0.10510423746318553,,
,4083.0,1002.0,3176.0,1343.0,1476.0,2487.0,2626.0,,,,-0.130113580995481,-2.60146172868447,-0.220761480310031,,-0.3016680657420528,,
,4082.0,1003.0,3178.0,1343.0,1476.0,2477.0,2659.0,,,,-0.13041255955415,-2.60167975309298,-0.222207833790337,,-0.4849524685966521,,
,4080.0,1002.0,3177.0,1344.0,1476.0,2481.0,2632.0,,,,-0.130571941962018,-2.60212334460442,-0.222847243020037,,-0.6527063228715743,,
,4081.0,1005.0,3178.0,1345.0,1485.0,2483.0,2649.0,,,,-0.130712848803558,-2.60242050248152,-0.223694624176577,,-0.8033785685907238,,
,4082.0,1006.0,3180.0,1345.0,1488.0,2484.0,2646.0,,,,-0.130907786866964,-2.6029832369453,-0.222220360539981,,-0.9361907708862506,,
,4082.0,1004.0,3177.0,1345.0,1483.0,2482.0,2637.0,,,,-0.131184832263116,-2.60312761246949,-0.226444648994143,,-1.0511524095986806,,
,4080.0,1003.0,3178.0,1344.0,1479.0,2477.0,2645.0,,,,-0.131362140538859,-2.60348648600174,-0.22528857614145,,-1.149013821427553,,
,4080.0,1002.0,3179.0,1345.0,1479.0,2493.0,2651.0,,,,-0.13148587760211,-2.60406808155691,-0.225758344687982,,-1.2311613275956965,,
,4085.0,1006.0,3181.0,1347.0,1479.0,2475.0,2636.0,,,,-0.131663399546796,-2.60390857071549,-0.228421215499047,,-1.2994676157106928,,
,4083.0,1004.0,3179.0,1344.0,1485.0,2470.0,2639.0,,,,-0.131655231023406,-2.60391010796634,-0.227309595936661,,-1.3561163661423752,,
,4080.0,1002.0,3177.0,1343.0,1491.0,2461.0,2661.0,,,,-0.131741470212495,-2.60416024347326,-0.226908840514907,,-1.403422549982806,,
,4083.0,1004.0,3178.0,1347.0,1486.0,2468.0,2635.0,,,,-0.132181622108088,-2.60400623941256,-0.225445084536649,,-1.443668453466584,,
,4082.0,1005.0,3180.0,1347.0,1473.0,2475.0,2630.0,,,,-0.131900752466,-2.60412721330019,-0.227359738987315,,-1.4789704331268276,,
,4083.0,1005.0,3184.0,1347.0,1480.0,2472.0,2613.0,,,,-0.131959867358255,-2.60377365753437,-0.225143249221269,,-1.51118349562927,,
,4082.0,1007.0,3182.0,1345.0,1485.0,2479.0,2610.0,,,,-0.131777219275498,-2.60394901436713,-0.225624952230773,,-1.5418418372760614,,
,4082.0,1006.0,3181.0,1345.0,1482.0,2491.0,2645.0,,,,-0.131727935748407,-2.60374973014128,-0.224805494156232,,-1.5721259206203222,,
,4081.0,1004.0,3182.0,1346.0,1480.0,2496.0,2656.0,,,,-0.131776671400113,-2.60349724790423,-0.224736903802306,,-1.6028425351517452,,
,4079.0,1008.0,3181.0,1345.0,1476.0,2483.0,2654.0,,,,-0.131688951280944,-2.60347188593156,-0.224203779505511,,-1.634404397778611,,
,4080.0,1006.0,3180.0,1345.0,1479.0,2479.0,2642.0,,,,-0.131542077112098,-2.60338744956821,-0.223599943475976,,-1.666799858397678,,
,4078.0,1002.0,3177.0,1344.0,1481.0,2472.0,2612.0,,,,-0.1315615759404,-2.60314343702784,-0.224265712496306,,-1.6995500768154628,,
,4078.0,1003.0,3177.0,1345.0,1481.0,2472.0,2602.0,,,,-0.131460647097396,-2.60319414218453,-0.223545420826954,,-1.731658963986538,,
,4078.0,1001.0,3176.0,1342.0,1477.0,2467.0,2613.0,,,,-0.13165367566662,-2.60300332347296,-0.221436381859396,,-1.7615682974496425,,
,4077.0,1004.0,3177.0,1343.0,1476.0,2465.0,2621.0,,,,-0.131374574725556,-2.60275826611391,-0.224728782133168,,-1.7871350516895443,,
,4075.0,1003.0,3172.0,1341.0,1471.0,2464.0,2617.0,,,,-0.131278601058259,-2.602621386948,-0.222478338836379,,-1.8056490949698847,,
,4074.0,1001.0,3174.0,1340.0,1468.0,2459.0,2621.0,,,,-0.131094279959633,-2.60233999552572,-0.221059050896051,,-1.8139065321472008,,
,4073.0,1002.0,3173.0,1341.0,1472.0,2469.0,2612.0,,,,-0.130560613954334,-2.60216236150079,-0.222782585930788,,-1.808347095408434,,
,4071.0,999.0,3174.0,1337.0,1470.0,2469.0,2606.0,,,,-0.130557954450511,-2.60189651568592,-0.222082076894031,,-1.7852538607049446,,
,4070.0,999.0,3168.0,1337.0,1473.0,2473.0,2616.0,,,,-0.130583144032117,-2.60185604876194,-0.220942706294183,,-1.7410021740683952,,
,4066.0,999.0,3167.0,1337.0,1478.0,2488.0,2624.0,,,,-0.130326958581915,-2.60199749391071,-0.221154340385407,,-1.672334808292331,,
,4067.0,997.0,3167.0,1339.0,1484.0,2485.0,2625.0,,,,-0.130507383379542,-2.60201115572141,-0.221807573742435,,-1.5766344593271944,,
,4065.0,998.0,3168.0,1337.0,1483.0,2489.0,2632.0,,,,-0.130474728936697,-2.60192718154176,-0.221823414470669,,-1.4521638734977298,,
,4066.0,997.0,3165.0,1335.0,1480.0,2481.0,2634.0,,,,-0.130815366802073,-2.60212719193744,-0.221514788559276,,-1.298248028573731,,
,4064.0,996.0,3162.0,1333.0,1473.0,2480.0,2653.0,,,,-0.130783444172338,-2.60202737638222,-0.222029765768128,,-1.1153808669332426,,
,4063.0,996.0,3162.0,1335.0,1478.0,2486.0,2662.0,,,,-0.130812733497452,-2.60232294716088,-0.221777295445345,,-0.9052494978255667,,
,4064.0,996.0,3164.0,1335.0,1476.0,2485.0,2664.0,,,,-0.130740092788055,-2.60227309593367,-0.221490926667907,,-0.6706795482514399,,
,4064.0,996.0,3162.0,1335.0,1477.0,2480.0,2662.0,,,,-0.130718518427186,-2.60217990381203,-0.222647656056243,,-0.4155144351279512,,
,4061.0,994.0,3159.0,1335.0,1473.0,2473.0,2678.0,,,,-0.130637984878491,-2.60205426180653,-0.221500129925465,,-0.1444472153872215,,
,4059.0,993.0,3159.0,1332.0,1485.0,2478.0,2638.0,,,,-0.130494983623949,-2.60222769779032,-0.221180252931284,,0.13717447656319856,,
,4063.0,994.0,3159.0,1333.0,1479.0,2468.0,2658.0,,,,-0.130779880998842,-2.60244640875184,-0.221357862037278,,0.42355218186542504,,
,4063.0,996.0,3161.0,1333.0,1472.0,2464.0,2648.0,,,,-0.130852078297939,-2.60222468555615,-0.221118577563559,,0.7086365189373466,,
,4061.0,995.0,3160.0,1334.0,1473.0,2464.0,2627.0,,,,-0.130967757102387,-2.60245069163769,-0.222311415762625,,0.986317926403391,,
,4060.0,994.0,3159.0,1333.0,1475.0,2459.0,2614.0,,,,-0.130880704434656,-2.60223865734854,-0.221985131278641,,1.2506092130699684,,
,4059.0,994.0,3158.0,1335.0,1467.0,2456.0,2641.0,,,,-0.130654340905207,-2.60218516534567,-0.221340147706316,,1.4958241820185694,,
,4059.0,994.0,3157.0,1332.0,1471.0,2462.0,2652.0,,,,-0.130544529675722,-2.60191520362269,-0.222937609679337,,1.7167562517010908,,
,4061.0,996.0,3158.0,1333.0,1470.0,2460.0,2639.0,,,,-0.130521512796126,-2.60186139899269,-0.222260626816428,,1.9088574606756994,,
,4059.0,993.0,3155.0,1331.0,1468.0,2475.0,2637.0,,,,-0.130422347592882,-2.60159664995555,-0.220472557745335,,2.0684125541879097,,
,4061.0,995.0,3158.0,1334.0,1469.0,2476.0,2651.0,,,,-0.130479888210834,-2.60152179952626,-0.21771098093632,,2.1926965119470463,,
,4061.0,995.0,3156.0,1335.0,1462.0,2479.0,2660.0,,,,-0.13028495734739,-2.60129304535328,-0.219201410752397,,2.2800987814428932,,
,4060.0,996.0,3155.0,1333.0,1471.0,2475.0,2663.0,,,,-0.130201322089049,-2.60121402579095,-0.218321454228599,,2.330195395269755,,
,4059.0,993.0,3154.0,1332.0,1467.0,2470.0,2675.0,,,,-0.130143613034295,-2.60106497156783,-0.218030948586298,,2.343752120042715,,
,4058.0,991.0,3154.0,1329.0,1467.0,2477.0,2660.0,,,,-0.130109343200208,-2.60080010506601,-0.215092086079531,,2.3226480423243996,,
,4058.0,991.0,3153.0,1331.0,1472.0,2469.0,2667.0,,,,-0.13015438945365,-2.60108731451727,-0.216736360963116,,2.2697190515066765,,
,4056.0,994.0,3155.0,1331.0,1473.0,2470.0,2651.0,,,,-0.13007162774611,-2.60054402608396,-0.21611253780509,,2.188532994279571,,
,4055.0,993.0,3154.0,1332.0,1473.0,2472.0,2629.0,,,,-0.130008704336701,-2.60071014406364,-0.214241567197513,,2.0831200447439224,,
,4056.0,995.0,3153.0,1330.0,1477.0,2477.0,2663.0,,,,-0.130022691771926,-2.6002990608658,-0.214441058786328,,1.9576898407020926,,
,4058.0,995.0,3154.0,1329.0,1481.0,2472.0,2656.0,,,,-0.129707920259732,-2.59981021776159,-0.213152037338149,,1.816369080335551,,
,4055.0,994.0,3154.0,1330.0,1478.0,2476.0,2615.0,,,,-0.129827809489487,-2.59975435382877,-0.21187284578282,,1.6629892802679844,,
,4057.0,993.0,3152.0,1331.0,1483.0,2459.0,2628.0,,,,-0.129490879034141,-2.59952411618463,-0.212468692641158,,1.5009453329298883,,
,4058.0,993.0,3152.0,1331.0,1478.0,2454.0,2641.0,,,,-0.129469371674139,-2.59926840192572,-0.210188622681707,,1.3331331557021937,,
,4053.0,993.0,3151.0,1330.0,1480.0,2461.0,2621.0,,,,-0.129454756450052,-2.59919387409977,-0.211408753337873,,1.1619614490759358,,
,4054.0,992.0,3149.0,1331.0,1473.0,2462.0,2605.0,,,,-0.129134927751617,-2.59881410888698,-0.209315163616431,,0.989421061023358,,
,4054.0,995.0,3150.0,1330.0,1473.0,2460.0,2597.0,,,,-0.129364525895592,-2.59891205247313,-0.209074745100555,,0.8171879884455462,,
,4054.0,992.0,3150.0,1332.0,1473.0,2463.0,2595.0,,,,-0.129042663011941,-2.59889102706675,-0.208835205168354,,0.6467338307145779,,
,4052.0,992.0,3149.0,1329.0,1474.0,2465.0,2614.0,,,,-0.129256843640935,-2.59866364264839,-0.20960130399105,,0.4794204992311575,,
,4054.0,992.0,3151.0,1332.0,1482.0,2470.0,2622.0,,,,-0.129226820384451,-2.5987683425273,-0.209374906088569,,0.31656312867683284,,
,4055.0,993.0,3148.0,1331.0,1476.0,2479.0,2644.0,,,,-0.129242533913765,-2.59845359604418,-0.209192689274505,,0.15945453700730908,,
,4056.0,996.0,3152.0,1331.0,1474.0,2479.0,2651.0,,,,-0.128981201333897,-2.59833218992918,-0.206947059432945,,0.009353818505431806,,
,4055.0,992.0,3149.0,1330.0,1483.0,2466.0,2666.0,,,,-0.128846648423001,-2.59827528874988,-0.207187401029446,,-0.13255140907925575,,
,4056.0,992.0,3147.0,1330.0,1484.0,2471.0,2657.0,,,,-0.128458928546877,-2.59780648280634,-0.204481849581558,,-0.2651960094467077,,
,4057.0,992.0,3152.0,1334.0,1478.0,2469.0,2664.0,,,,-0.12806731632184,-2.59704803820509,-0.203560813567962,,-0.3876882656200947,,
,4057.0,992.0,3149.0,1329.0,1478.0,2467.0,2640.0,,,,-0.12795654821028,-2.59654275839175,-0.202478464527773,,-0.499349954318444,,
,4055.0,992.0,3149.0,1332.0,1473.0,2467.0,2630.0,,,,-0.12785421647692,-2.59609697414647,-0.199825072360453,,-0.5997391385037354,,
,4055.0,993.0,3150.0,1331.0,1472.0,2472.0,2629.0,,,,-0.127476892201764,-2.5959120591308,-0.200388514782485,,-0.6886543819875264,,
,4053.0,994.0,3150.0,1331.0,1476.0,2468.0,2624.0,,,,-0.12750095014953,-2.59574969728783,-0.198175317032871,,-0.7661238124471668,,
,4057.0,993.0,3151.0,1332.0,1474.0,2467.0,2651.0,,,,-0.127815151145597,-2.59566840289235,-0.199840044178882,,-0.8323858377081268,,
,4053.0,993.0,3151.0,1334.0,1473.0,2476.0,2647.0,,,,-0.127845540782767,-2.59612682718005,-0.198241557195519,,-0.8878696497129135,,
,4055.0,992.0,3148.0,1331.0,1472.0,2460.0,2643.0,,,,-0.128038388010946,-2.59630865885494,-0.200488176199058,,-0.9331824131992043,,
,4053.0,995.0,3148.0,1331.0,1473.0,2469.0,2634.0,,,,-0.128026114328612,-2.59641772126022,-0.199278038039673,,-0.9691061388600057,,
,4057.0,996.0,3150.0,1332.0,1469.0,2474.0,2636.0,,,,-0.128382210503538,-2.59653816176863,-0.198105848829605,,-0.9966015551742754,,
,4056.0,996.0,3151.0,1331.0,1475.0,2469.0,2655.0,,,,-0.128551885324487,-2.59665563501285,-0.199548638509179,,-1.0168107404169582,,
,4056.0,992.0,3151.0,1332.0,1473.0,2465.0,2638.0,,,,-0.128852476862023,-2.59677090620921,-0.199816174174687,,-1.031046933279407,,
,4054.0,990.0,3154.0,1332.0,1473.0,2477.0,2630.0,,,,-0.12911990468315,-2.59689744817845,-0.199209912139164,,-1.040759947693862,,
,4056.0,993.0,3151.0,1334.0,1475.0,2479.0,2630.0,,,,-0.129086881683851,-2.59695260585455,-0.200180360671533,,-1.0474689347717752,,
,4056.0,994.0,3151.0,1333.0,1473.0,2485.0,2642.0,,,,-0.129243892515324,-2.59722215386534,-0.200490364761913,,-1.0526600684270389,,
,4054.0,993.0,3152.0,1332.0,1470.0,2490.0,2645.0,,,,-0.128856708858057,-2.59728507625405,-0.198827491700681,,-1.0576538925633825,,
,4055.0,992.0,3150.0,1335.0,1473.0,2486.0,2666.0,,,,-0.12895169924,-2.59696680637575,-0.199571207103443,,-1.0634541685113934,,
,4054.0,995.0,3153.0,1333.0,1474.0,2479.0,2682.0,,,,-0.129116461258129,-2.5970468208331,-0.199528399586648,,-1.0705957979930756,,
,4055.0,995.0,3154.0,1335.0,1476.0,2472.0,2663.0,,,,-0.129005970772153,-2.59677531550885,-0.198220626031305,,-1.0790128184598657,,
,4058.0,995.0,3155.0,1334.0,1475.0,2469.0,2650.0,,,,-0.128769936002587,-2.59644359720767,-0.196912130653987,,-1.087947963231004,,
,4055.0,994.0,3153.0,1333.0,1472.0,2469.0,2693.0,,,,-0.128649486685118,-2.59643850928501,-0.19617320342316,,-1.095922389032195,,
,4057.0,993.0,3151.0,1334.0,1468.0,2464.0,2669.0,,,,-0.128501456829345,-2.59611669720369,-0.194451020525661,,-1.100777697814801,,
,4057.0,995.0,3153.0,1335.0,1473.0,2465.0,2654.0,,,,-0.128557268034816,-2.59610785098325,-0.194936202067399,,-1.0997929435460834,,
,4057.0,995.0,3154.0,1335.0,1476.0,2476.0,2650.0,,,,-0.128625064688766,-2.59618120401096,-0.195189373561188,,-1.0898687262607898,,
,4058.0,997.0,3154.0,1335.0,1481.0,2469.0,2638.0,,,,-0.128725343723229,-2.59593136973939,-0.194277062845631,,-1.0677611145419117,,
,4056.0,994.0,3150.0,1333.0,1474.0,2465.0,2654.0,,,,-0.128573375369184,-2.59567514533224,-0.191970786694631,,-1.0303417958356311,,
,4057.0,992.0,3152.0,1332.0,1478.0,2463.0,2643.0,,,,-0.128259185505634,-2.59530807872461,-0.191414703401323,,-0.9748581971574146,,
,4056.0,993.0,3152.0,1333.0,1471.0,2462.0,2653.0,,,,-0.127922213983177,-2.5949977002644,-0.190303976000645,,-0.8991682166541938,,
,4056.0,993.0,3151.0,1331.0,1467.0,2458.0,2645.0,,,,-0.127541254894963,-2.59439013572919,-0.188298838401232,,-0.8019281684928643,,
2025-07-22 00:02:41,4053.0,992.0,3151.0,1331.0,1465.0,2458.0,2657.0,,,2025/07/22 12:02:41 AM,-0.127266080790881,-2.59397942901334,-0.187422697230446,,-0.6827188230770005,,
,4053.0,991.0,3149.0,1330.0,1466.0,2461.0,2650.0,,,,-0.12681270189244,-2.59339745548072,-0.187286999946844,,-0.5421020467207337,,
,4050.0,992.0,3147.0,1332.0,1467.0,2459.0,2672.0,,,,-0.126634162178208,-2.59310208785395,-0.185608084476724,,-0.3816084565404513,,
,4050.0,991.0,3148.0,1328.0,1471.0,2461.0,2688.0,,,,-0.126350715864995,-2.59254375829019,-0.183008427383966,,-0.20366368728675152,,
,4048.0,989.0,3145.0,1326.0,1469.0,2466.0,2673.0,,,,-0.126148339503524,-2.59181262814533,-0.183189204394306,,-0.011466273202597395,,
,4049.0,989.0,3147.0,1327.0,1467.0,2472.0,2663.0,,,,-0.125889527175669,-2.59139552909978,-0.182502345036422,,0.1911672296244625,,
,4045.0,991.0,3141.0,1327.0,1471.0,2466.0,2665.0,,,,-0.125846877020628,-2.59130952733113,-0.180879763634078,,0.39997486404013566,,
,4047.0,988.0,3142.0,1327.0,1473.0,2471.0,2638.0,,,,-0.125931081345161,-2.59112922661037,-0.18076969383833,,0.6104277538025679,,
,4042.0,989.0,3140.0,1323.0,1477.0,2476.0,2639.0,,,,-0.125939188365959,-2.59096464295491,-0.180453487767522,,0.8179065999544405,,
,4043.0,987.0,3140.0,1323.0,1472.0,2464.0,2644.0,,,,-0.125916875928505,-2.59104255020334,-0.179221184564262,,1.0178717348993351,,
,4044.0,986.0,3139.0,1323.0,1473.0,2473.0,2629.0,,,,-0.125882500463847,-2.59092249386202,-0.180564554934079,,1.206024227398437,,
,4044.0,988.0,3139.0,1324.0,1481.0,2468.0,2638.0,,,,-0.12566385578832,-2.59074183902374,-0.181075654129683,,1.3784558716856152,,
,4038.0,986.0,3138.0,1322.0,1478.0,2467.0,2640.0,,,,-0.125708493363314,-2.59069546837463,-0.179268355070643,,1.5317847900554746,,
,4039.0,984.0,3135.0,1321.0,1476.0,2473.0,2621.0,,,,-0.125523884316426,-2.59020044568693,-0.17914888043548,,1.6632713454614259,,
,4041.0,986.0,3133.0,1321.0,1474.0,2472.0,2638.0,,,,-0.125666483534148,-2.58962921973274,-0.179228935322693,,1.7709069737096268,,
,4039.0,985.0,3135.0,1325.0,1477.0,2467.0,2658.0,,,,-0.125732260315897,-2.58971685647893,-0.178602664073752,,1.853467344892749,,
,4041.0,985.0,3134.0,1321.0,1472.0,2481.0,2661.0,,,,-0.125377541032118,-2.58955300714012,-0.176115995818044,,1.9105216080148286,,
,4038.0,983.0,3135.0,1320.0,1473.0,2482.0,2665.0,,,,-0.125620335396543,-2.58961111502981,-0.176836726361263,,1.9423917077170865,,
,4037.0,983.0,3132.0,1323.0,1475.0,2471.0,2657.0,,,,-0.125524713166037,-2.58980684975014,-0.177570036690074,,1.9500601200433942,,
,4037.0,983.0,3131.0,1319.0,1473.0,2475.0,2678.0,,,,-0.125385751573045,-2.58934708331691,-0.177282577343698,,1.935030822121325,,
,4040.0,984.0,3131.0,1321.0,1475.0,2474.0,2660.0,,,,-0.125249408173378,-2.58913964401788,-0.176914360083183,,1.8991560199473998,,
,4036.0,983.0,3131.0,1322.0,1479.0,2473.0,2666.0,,,,-0.125032455556286,-2.58904361531896,-0.175004411173611,,1.8444481401245516,,
,4037.0,982.0,3130.0,1319.0,1481.0,2474.0,2621.0,,,,-0.125003235383396,-2.5887426945591,-0.174784026496341,,1.7729006190552399,,
,4037.0,985.0,3130.0,1321.0,1484.0,2466.0,2637.0,,,,-0.124719671374528,-2.58832799249009,-0.174965154811642,,1.6863407979206524,,
,4038.0,985.0,3131.0,1319.0,1477.0,2468.0,2637.0,,,,-0.124428498039024,-2.5880877369422,-0.173643089173462,,1.5863337110373288,,
,4038.0,985.0,3130.0,1321.0,1472.0,2473.0,2658.0,,,,-0.124393192122124,-2.58733609348656,-0.171745746549353,,1.4741475570930842,,
,4038.0,987.0,3130.0,1324.0,1474.0,2470.0,2648.0,,,,-0.124157788981437,-2.58702133808894,-0.171210687528922,,1.3507816038618623,,
,4038.0,983.0,3130.0,1319.0,1474.0,2472.0,2649.0,,,,-0.124055836481944,-2.58642305935187,-0.170927104086117,,1.2170471810565138,,
,4037.0,984.0,3131.0,1321.0,1474.0,2480.0,2667.0,,,,-0.123999885442524,-2.58587808796697,-0.169550812771936,,1.0736843317667875,,
,4039.0,981.0,3129.0,1320.0,1472.0,2470.0,2679.0,,,,-0.123874959484871,-2.58576178294752,-0.169669164860993,,0.9214920255608512,,
,4038.0,984.0,3129.0,1322.0,1470.0,2461.0,2678.0,,,,-0.123571892999094,-2.5856741274171,-0.168574327051286,,0.7614489982871901,,
,4038.0,982.0,3126.0,1320.0,1466.0,2463.0,2718.0,,,,-0.123721631660205,-2.58517225271304,-0.167007767435222,,0.5948050345125326,,
,4034.0,984.0,3130.0,1320.0,1467.0,2463.0,2667.0,,,,-0.123345067528736,-2.58533794651372,-0.167114607879498,,0.4231283482038766,,
,4036.0,985.0,3128.0,1321.0,1466.0,2475.0,2695.0,,,,-0.123267085459944,-2.58508867927679,-0.16721507773002,,0.24830271063764986,,
,4037.0,983.0,3127.0,1322.0,1468.0,2470.0,2672.0,,,,-0.123179913502154,-2.58449746282717,-0.166419537487345,,0.07247645636156666,,
,4037.0,984.0,3127.0,1319.0,1476.0,2472.0,2676.0,,,,-0.122968630326878,-2.58432525547191,-0.165867591482748,,-0.10202743745357866,,
,4034.0,983.0,3127.0,1319.0,1472.0,2465.0,2658.0,,,,-0.122974095317035,-2.58347819970177,-0.165430491603281,,-0.2728265351591629,,
,4036.0,984.0,3126.0,1321.0,1468.0,2465.0,2668.0,,,,-0.122890084686115,-2.5838022408322,-0.165325349229629,,-0.4376040312515724,,
,4034.0,984.0,3129.0,1319.0,1462.0,2473.0,2668.0,,,,-0.122695666898663,-2.58343850298542,-0.164517934482595,,-0.5942291226784141,,
,4034.0,983.0,3126.0,1320.0,1466.0,2476.0,2661.0,,,,-0.122761802264008,-2.58321503976574,-0.16273065179374,,-0.7408606872238856,,
,4032.0,982.0,3125.0,1318.0,1475.0,2475.0,2667.0,,,,-0.12265635323401,-2.58341702746188,-0.164344254449329,,-0.8760260576204719,,
,4035.0,982.0,3127.0,1321.0,1478.0,2467.0,2652.0,,,,-0.122538414312791,-2.58333070173453,-0.163385229042494,,-0.9986706913232731,,
,4035.0,983.0,3127.0,1320.0,1471.0,2468.0,2666.0,,,,-0.122685233121172,-2.58342012703512,-0.162297572777117,,-1.1081782090107282,,
,4037.0,981.0,3128.0,1320.0,1469.0,2472.0,2661.0,,,,-0.122740500074228,-2.58374027869018,-0.163858510906746,,-1.204363361792957,,
,4034.0,984.0,3125.0,1319.0,1474.0,2468.0,2643.0,,,,-0.122679509907216,-2.58384294202381,-0.164501292154022,,-1.2874426293270287,,
,4036.0,983.0,3126.0,1320.0,1471.0,2463.0,2629.0,,,,-0.122661471877668,-2.58357834328738,-0.164760741496996,,-1.3579877204848234,,
,4036.0,983.0,3128.0,1321.0,1474.0,2468.0,2641.0,,,,-0.122585607642428,-2.5836186903576,-0.165401495669139,,-1.4168659557379306,,
,4033.0,983.0,3127.0,1319.0,1477.0,2473.0,2652.0,,,,-0.122397031581072,-2.58369259859278,-0.164575259616866,,-1.4651691025097444,,
,4035.0,982.0,3128.0,1320.0,1473.0,2474.0,2674.0,,,,-0.122603824978418,-2.58323763957641,-0.162707643052913,,-1.5041302490795159,,
,4035.0,983.0,3126.0,1318.0,1472.0,2477.0,2638.0,,,,-0.122674279586655,-2.58361357471011,-0.165339315753784,,-1.5350280219186172,,
,4037.0,987.0,3128.0,1321.0,1473.0,2470.0,2642.0,,,,-0.122596123484882,-2.58359012448816,-0.165440269696742,,-1.5590791952430152,,
,4036.0,983.0,3125.0,1320.0,1473.0,2465.0,2665.0,,,,-0.12249300581188,-2.58323536346514,-0.164046577820192,,-1.5773240003005051,,
,4036.0,985.0,3127.0,1320.0,1471.0,2467.0,2680.0,,,,-0.122405028752852,-2.58334926793988,-0.163754402114144,,-1.590512301392838,,
,4032.0,984.0,3125.0,1319.0,1467.0,2466.0,2684.0,,,,-0.122518807440574,-2.58329613284167,-0.164103480932768,,-1.599002204599804,,
,4035.0,982.0,3127.0,1321.0,1451.0,2475.0,2681.0,,,,-0.122622543252083,-2.58305953557496,-0.163903110563777,,-1.6026845969204397,,
,4038.0,985.0,3130.0,1322.0,1464.0,2478.0,2636.0,,,,-0.12265834942124,-2.58341807986835,-0.165939445150619,,-1.6009468735340084,,
,4036.0,986.0,3128.0,1323.0,1466.0,2468.0,2620.0,,,,-0.122776492197859,-2.58428209831316,-0.16483872331537,,-1.59268641299995,,
,4037.0,987.0,3129.0,1321.0,1475.0,2472.0,2640.0,,,,-0.123106486384328,-2.58469964399408,-0.166564365298724,,-1.5763792328681607,,
,4036.0,984.0,3127.0,1320.0,1472.0,2469.0,2654.0,,,,-0.123451658901018,-2.58484148618168,-0.167513276054728,,-1.5502020153924436,,
,4037.0,988.0,3130.0,1322.0,1470.0,2462.0,2663.0,,,,-0.123569290049166,-2.58568044602476,-0.170293633509512,,-1.5121972510192117,,
,4040.0,986.0,3128.0,1322.0,1469.0,2463.0,2646.0,,,,-0.123809418612408,-2.58620268544011,-0.169168474602381,,-1.460463353116438,,
,4037.0,987.0,3130.0,1322.0,1466.0,2466.0,2640.0,,,,-0.123854890461616,-2.58646039064465,-0.172272686543343,,-1.3933463182689736,,
,4035.0,983.0,3127.0,1321.0,1471.0,2472.0,2611.0,,,,-0.123956592911451,-2.5865151190961,-0.171315701238457,,-1.3096082999992849,,
,4038.0,985.0,3130.0,1322.0,1475.0,2479.0,2621.0,,,,-0.124011662231877,-2.58651931969703,-0.171708502129062,,-1.208551740948807,,
,4039.0,988.0,3131.0,1323.0,1472.0,2470.0,2636.0,,,,-0.124136309172678,-2.58670646855363,-0.17194325145214,,-1.0900849833231838,,
,4041.0,988.0,3130.0,1323.0,1472.0,2470.0,2652.0,,,,-0.124483832311966,-2.58690724037742,-0.170990985200007,,-0.9547253205397319,,
,4039.0,985.0,3130.0,1321.0,1480.0,2466.0,2651.0,,,,-0.124436423654716,-2.58697034733887,-0.174483616077327,,-0.8035463626340861,,
,4039.0,984.0,3132.0,1322.0,1476.0,2464.0,2655.0,,,,-0.124504260148249,-2.58767152287487,-0.173522881473647,,-0.638086141306001,,
,4041.0,988.0,3133.0,1325.0,1476.0,2474.0,2673.0,,,,-0.124670079005155,-2.58805402276313,-0.173256377024829,,-0.46023862251956904,,
,4041.0,987.0,3133.0,1324.0,1475.0,2472.0,2685.0,,,,-0.124920122276949,-2.58861939639173,-0.175500845940408,,-0.2721529037706459,,
,4040.0,986.0,3132.0,1323.0,1461.0,2460.0,2677.0,,,,-0.125027927223449,-2.58884837236177,-0.176682486243001,,-0.07616069374689813,,
,4040.0,986.0,3133.0,1324.0,1472.0,2469.0,2682.0,,,,-0.125434215793743,-2.58928969383885,-0.176220496077909,,0.12525610286546898,,
,4044.0,987.0,3135.0,1323.0,1474.0,2460.0,2673.0,,,,-0.125367648291796,-2.58937105153967,-0.178421126460964,,0.3294581272146013,,
,4042.0,988.0,3134.0,1325.0,1474.0,2468.0,2678.0,,,,-0.12555907425813,-2.59019776920466,-0.17916779881787,,0.5336145608112963,,
,4042.0,987.0,3134.0,1322.0,1473.0,2467.0,2672.0,,,,-0.125709069085667,-2.59014877310944,-0.178490316492372,,0.7346642438307136,,
,4041.0,984.0,3133.0,1323.0,1472.0,2465.0,2637.0,,,,-0.125439762099895,-2.59032347866697,-0.180254940444905,,0.929296665718249,,
,4039.0,987.0,3135.0,1324.0,1472.0,2471.0,2667.0,,,,-0.12550871040551,-2.59020405639719,-0.178319572107364,,1.1139741019486413,,
,4039.0,985.0,3134.0,1324.0,1474.0,2471.0,2670.0,,,,-0.125584028979025,-2.58977187328528,-0.180023433270488,,1.2850077889140725,,
,4039.0,984.0,3133.0,1323.0,1473.0,2468.0,2661.0,,,,-0.12539299970552,-2.59013071417949,-0.178069955219422,,1.438689907289983,,
,4037.0,985.0,3133.0,1320.0,1476.0,2469.0,2690.0,,,,-0.125352595282782,-2.59025760317771,-0.178447151376585,,1.57147159772673,,
,4038.0,984.0,3131.0,1320.0,1475.0,2468.0,2687.0,,,,-0.125373186524232,-2.58998539559664,-0.176867946864645,,1.680167466978165,,
,4036.0,986.0,3133.0,1322.0,1471.0,2464.0,2681.0,,,,-0.125485736857982,-2.58994521816744,-0.178128561560119,,1.7621608563449336,,
,4034.0,982.0,3129.0,1319.0,1466.0,2478.0,2673.0,,,,-0.125613887036779,-2.59034484834784,-0.179516185671663,,1.8155827235801822,,
,4033.0,983.0,3129.0,1317.0,1464.0,2484.0,2672.0,,,,-0.125535771743585,-2.59017437668787,-0.181125225263939,,1.8394408484556026,,
,4031.0,982.0,3126.0,1315.0,1466.0,2479.0,2665.0,,,,-0.125682254980858,-2.59039824361914,-0.181280230425489,,1.8336846915723422,,
,4030.0,980.0,3125.0,1316.0,1473.0,2470.0,2658.0,,,,-0.12538316454338,-2.59056146417711,-0.182227118334589,,1.7992024769783963,,
,4031.0,984.0,3125.0,1317.0,1475.0,2473.0,2633.0,,,,-0.125362079774463,-2.59072559494731,-0.181570337042644,,1.737757543023104,,
,4030.0,982.0,3126.0,1316.0,1473.0,2472.0,2630.0,,,,-0.125332137456724,-2.59042765851707,-0.181987811001377,,1.6518778148919242,,
,4028.0,981.0,3124.0,1313.0,1476.0,2459.0,2632.0,,,,-0.125047830717789,-2.5902716123,-0.182978311252495,,1.5447144572178337,,
,4028.0,981.0,3123.0,1313.0,1480.0,2460.0,2664.0,,,,-0.125029026206886,-2.59061140876057,-0.181391991901459,,1.4198841643802473,,
,4026.0,979.0,3120.0,1314.0,1473.0,2464.0,2665.0,,,,-0.125098556817557,-2.5902561427445,-0.182610380527195,,1.2813056613992135,,
,4027.0,978.0,3122.0,1311.0,1470.0,2470.0,2657.0,,,,-0.124999634245188,-2.59081114854461,-0.182554854882895,,1.1330365849571582,,
,4026.0,978.0,3120.0,1311.0,1476.0,2467.0,2637.0,,,,-0.125105093179237,-2.59087168812556,-0.18313899213903,,0.9791137063656781,,
,4025.0,976.0,3119.0,1310.0,1476.0,2468.0,2656.0,,,,-0.125220555185192,-2.59074747092349,-0.184245562426056,,0.8233983505694094,,
,4022.0,976.0,3120.0,1313.0,1476.0,2470.0,2676.0,,,,-0.125279838361936,-2.59153567464302,-0.182598402216576,,0.6694295166431483,,
,4025.0,979.0,3118.0,1313.0,1474.0,2478.0,2649.0,,,,-0.125465388245176,-2.59171980253862,-0.184921528549573,,0.5202887689893482,,
,4021.0,978.0,3118.0,1311.0,1480.0,2483.0,2656.0,,,,-0.125180344735969,-2.59208860125105,-0.18552423768826,,0.378483028834476,,
,4022.0,973.0,3116.0,1311.0,1482.0,2471.0,2681.0,,,,-0.125382339046616,-2.59237559957283,-0.186003317516655,,0.24585372178729525,,
,4022.0,977.0,3115.0,1308.0,1479.0,2462.0,2675.0,,,,-0.125486944049318,-2.59222091667384,-0.187809371662793,,0.12352248001392978,,
,4023.0,978.0,3116.0,1311.0,1484.0,2464.0,2699.0,,,,-0.125304780687352,-2.59225829725902,-0.185474101039547,,0.011883443227994474,,
,4022.0,975.0,3115.0,1312.0,1479.0,2464.0,2688.0,,,,-0.125438735785974,-2.59211903782101,-0.188026301757551,,-0.0893507048129478,,
,4021.0,975.0,3113.0,1310.0,1468.0,2465.0,2664.0,,,,-0.125346060424169,-2.59220290148601,-0.186998226504207,,-0.181047440353637,,
,4020.0,975.0,3115.0,1310.0,1475.0,2460.0,2648.0,,,,-0.125353905653558,-2.59240603519071,-0.18751473278859,,-0.2645038470730563,,
,4020.0,977.0,3115.0,1310.0,1475.0,2465.0,2637.0,,,,-0.12540104650737,-2.59263232576239,-0.187277573283236,,-0.34126085257995464,,
,4022.0,976.0,3113.0,1310.0,1473.0,2469.0,2640.0,,,,-0.125627501564371,-2.59278905302324,-0.187715541676766,,-0.41290303644051735,,
,4019.0,977.0,3114.0,1311.0,1473.0,2471.0,2654.0,,,,-0.125484209839518,-2.59279303630991,-0.187656838851334,,-0.48086855775286447,,
,4019.0,975.0,3113.0,1309.0,1479.0,2472.0,2665.0,,,,-0.125678227538024,-2.59298830432037,-0.189631439694397,,-0.5462936118843734,,
,4022.0,976.0,3113.0,1308.0,1469.0,2465.0,2677.0,,,,-0.125862635565895,-2.5933602811316,-0.190117488911637,,-0.6099115909765379,,
,4019.0,975.0,3115.0,1313.0,1465.0,2469.0,2652.0,,,,-0.125781549493916,-2.59369216188172,-0.192165413906239,,-0.6720191212968938,,
,4019.0,977.0,3113.0,1310.0,1468.0,2470.0,2647.0,,,,-0.125832431133293,-2.59373517625645,-0.190526887390824,,-0.7325104462796568,,
,4021.0,977.0,3114.0,1310.0,1468.0,2457.0,2697.0,,,,-0.125983506840291,-2.59377399460302,-0.193279859328669,,-0.7909702944075266,,
,4019.0,974.0,3111.0,1311.0,1461.0,2460.0,2677.0,,,,-0.125722164942572,-2.59347489752433,-0.192760339981645,,-0.8468059687386743,,
,4019.0,978.0,3115.0,1310.0,1469.0,2468.0,2651.0,,,,-0.125741870274327,-2.59347208557915,-0.192130968765907,,-0.899393842274305,,
,4018.0,975.0,3113.0,1308.0,1467.0,2469.0,2635.0,,,,-0.125631390135402,-2.59315800480778,-0.190783751434213,,-0.9482144946100297,,
,4019.0,973.0,3113.0,1311.0,1466.0,2477.0,2641.0,,,,-0.125366470354826,-2.59327755255022,-0.192777568278128,,-0.9929542205178934,,
,4019.0,977.0,3110.0,1309.0,1475.0,2471.0,2653.0,,,,-0.125597305528786,-2.59319383531701,-0.190814986222364,,-1.033557781786186,,
,4017.0,977.0,3113.0,1309.0,1480.0,2469.0,2661.0,,,,-0.125621856673317,-2.59336576635665,-0.190810920397228,,-1.070226633298363,,
,4017.0,977.0,3113.0,1310.0,1471.0,2471.0,2630.0,,,,-0.125764317753618,-2.5934557810798,-0.190737493018328,,-1.103366557050761,,
,4019.0,975.0,3112.0,1309.0,1474.0,2469.0,2625.0,,,,-0.125844600148388,-2.59333257785438,-0.193530749432479,,-1.133496838334654,,
,4017.0,975.0,3109.0,1308.0,1476.0,2470.0,2638.0,,,,-0.125833365727565,-2.59371241626825,-0.194041914299194,,-1.1611383957157917,,
,4017.0,976.0,3111.0,1312.0,1471.0,2463.0,2637.0,,,,-0.125955946908523,-2.59400467794277,-0.194031856442914,,-1.1866997644170652,,
,4017.0,976.0,3110.0,1310.0,1473.0,2475.0,2622.0,,,,-0.126053773480115,-2.59393696090412,-0.194665236820326,,-1.2103773880564221,,
,4017.0,976.0,3113.0,1310.0,1474.0,2475.0,2627.0,,,,-0.126039844292191,-2.59403849611472,-0.196429412184723,,-1.2320812088030755,,
,4020.0,975.0,3110.0,1308.0,1470.0,2467.0,2647.0,,,,-0.125924441069788,-2.59406024391952,-0.194896730658371,,-1.251390002447571,,
,4018.0,975.0,3111.0,1310.0,1465.0,2474.0,2679.0,,,,-0.125919171768428,-2.59406780077667,-0.196031197858981,,-1.2675354310052906,,
,4019.0,977.0,3112.0,1307.0,1470.0,2478.0,2647.0,,,,-0.125923167946795,-2.5942311737336,-0.196035773710532,,-1.2794106910853076,,
,4017.0,977.0,3114.0,1311.0,1472.0,2474.0,2652.0,,,,-0.12580801204298,-2.59433167542184,-0.196297505456945,,-1.2855990703788551,,
,4017.0,978.0,3113.0,1307.0,1468.0,2466.0,2669.0,,,,-0.125797214374441,-2.59430974198363,-0.196443586829109,,-1.2844190701435187,,
2025-07-22 00:02:42,4018.0,975.0,3110.0,1308.0,1467.0,2469.0,2674.0,,,2025/07/22 12:02:42 AM,-0.125858836772449,-2.59403492105501,-0.196785342316891,,-1.2739850188932014,,
,4018.0,978.0,3113.0,1310.0,1476.0,2471.0,2651.0,,,,-0.125702708977375,-2.59422819315813,-0.196741655651941,,-1.2522841213747755,,
,4019.0,979.0,3115.0,1311.0,1473.0,2470.0,2667.0,,,,-0.12580375956517,-2.59419788192153,-0.195960026266243,,-1.2172716174130382,,
,4018.0,975.0,3115.0,1308.0,1471.0,2472.0,2675.0,,,,-0.12591053505831,-2.59446688957254,-0.196463356203931,,-1.1669846381833306,,
,4020.0,976.0,3115.0,1311.0,1470.0,2481.0,2673.0,,,,-0.126304424103584,-2.59453369304896,-0.197680806504226,,-1.0996724727154927,,
,4017.0,980.0,3117.0,1311.0,1469.0,2469.0,2664.0,,,,-0.126523649171268,-2.59522943459331,-0.19917927558539,,-1.0139366597632,,
,4020.0,976.0,3117.0,1312.0,1468.0,2468.0,2674.0,,,,-0.126750181899214,-2.59579574475931,-0.198490531394497,,-0.9088693490268239,,
,4021.0,980.0,3116.0,1311.0,1469.0,2465.0,2664.0,,,,-0.127100990481719,-2.59587182813997,-0.199880210833068,,-0.7841741827153905,,
,4020.0,979.0,3118.0,1312.0,1479.0,2464.0,2672.0,,,,-0.127384874896369,-2.59655898963531,-0.202513368751243,,-0.6402524397691481,,
,4017.0,977.0,3115.0,1311.0,1474.0,2464.0,2681.0,,,,-0.127918768032765,-2.59682405409613,-0.203950845560301,,-0.47823965824616005,,
,4021.0,982.0,3117.0,1314.0,1469.0,2474.0,2691.0,,,,-0.128083438561943,-2.59749469922652,-0.204931359103786,,-0.29998426791641836,,
,4021.0,979.0,3117.0,1313.0,1470.0,2473.0,2671.0,,,,-0.128213144769215,-2.598135467603,-0.206423749801245,,-0.1079685519977537,,
,4022.0,981.0,3120.0,1315.0,1470.0,2466.0,2663.0,,,,-0.128356112503794,-2.59822179194101,-0.209153745938711,,0.09481841627291913,,
,4022.0,981.0,3117.0,1312.0,1477.0,2472.0,2654.0,,,,-0.128318830422244,-2.59861225071416,-0.208294224922532,,0.3050383761893026,,
,4020.0,982.0,3120.0,1315.0,1475.0,2471.0,2648.0,,,,-0.12848666714848,-2.5985839627655,-0.208229497563853,,0.5191699228186496,,
,4024.0,980.0,3120.0,1312.0,1473.0,2479.0,2696.0,,,,-0.128423616340825,-2.59841546175337,-0.208360383073503,,0.7336604791284908,,
,4024.0,981.0,3124.0,1315.0,1472.0,2473.0,2691.0,,,,-0.128464751931731,-2.59878680806773,-0.209157580632623,,0.9450454338985189,,
,4023.0,979.0,3122.0,1313.0,1477.0,2480.0,2697.0,,,,-0.128657768287887,-2.59885736428513,-0.209914385897677,,1.1500228191929522,,
,4021.0,978.0,3120.0,1314.0,1477.0,2475.0,2668.0,,,,-0.128787035912721,-2.59903673688104,-0.210188297688103,,1.3454812921881634,,
,4024.0,978.0,3122.0,1316.0,1473.0,2471.0,2674.0,,,,-0.128783983689003,-2.5992633131487,-0.209434204959859,,1.5284892967512622,,
,4024.0,983.0,3124.0,1314.0,1476.0,2475.0,2688.0,,,,-0.129087738701453,-2.59932973191141,-0.209845678124911,,1.6962619868453326,,
,4025.0,983.0,3125.0,1314.0,1480.0,2467.0,2683.0,,,,-0.129193044719433,-2.59940361022018,-0.209273175917672,,1.8461275146817546,,
,4024.0,979.0,3125.0,1315.0,1477.0,2473.0,2677.0,,,,-0.129346533092041,-2.59937556573933,-0.211325473085628,,1.9755141784464065,,
,4027.0,983.0,3124.0,1317.0,1472.0,2467.0,2655.0,,,,-0.129328412848835,-2.59966129726564,-0.212225603466583,,2.0819746920371527,,
,4026.0,981.0,3125.0,1315.0,1480.0,2463.0,2668.0,,,,-0.129258780375474,-2.59973169978704,-0.213077821861329,,2.163254725547351,,
,4025.0,982.0,3126.0,1317.0,1483.0,2466.0,2675.0,,,,-0.129406678551839,-2.59986355419227,-0.214646451141011,,2.217401867326876,,
,4025.0,982.0,3127.0,1315.0,1479.0,2460.0,2653.0,,,,-0.129278435453531,-2.59986476776363,-0.211698420239219,,2.24290068592825,,
,4026.0,984.0,3126.0,1317.0,1469.0,2474.0,2623.0,,,,-0.129164605619906,-2.59958992351053,-0.213394387964134,,2.238812011811873,,
,4028.0,983.0,3127.0,1318.0,1476.0,2478.0,2618.0,,,,-0.12910054306653,-2.59963418766322,-0.21434175856196,,2.2048916193293775,,
,4026.0,983.0,3128.0,1317.0,1474.0,2481.0,2638.0,,,,-0.129080217863993,-2.59983972277231,-0.211561547018414,,2.141665731365206,,
,4024.0,980.0,3127.0,1314.0,1464.0,2476.0,2662.0,,,,-0.129156058067627,-2.59953481320108,-0.21274162107074,,2.050447691806327,,
,4022.0,981.0,3125.0,1314.0,1462.0,2470.0,2687.0,,,,-0.128996769889561,-2.59940744780527,-0.210374180837599,,1.933290419629169,,
,4022.0,981.0,3126.0,1314.0,1465.0,2469.0,2689.0,,,,-0.128807472656706,-2.59954504358256,-0.212586409386885,,1.7928806845362226,,
,4023.0,982.0,3126.0,1313.0,1460.0,2467.0,2659.0,,,,-0.128815534618515,-2.59942249404885,-0.21192258237554,,1.6323910417350815,,
,4022.0,979.0,3125.0,1311.0,1460.0,2470.0,2660.0,,,,-0.128931568792287,-2.59938725761156,-0.211948864131871,,1.455311091652559,,
,4018.0,978.0,3121.0,1311.0,1462.0,2475.0,2660.0,,,,-0.128872290246252,-2.5994601644377,-0.211570845503498,,1.2652807211822956,,
,4019.0,979.0,3123.0,1308.0,1464.0,2479.0,2662.0,,,,-0.128731243971262,-2.59968945182919,-0.212059971923085,,1.0659446796682215,,
,4019.0,979.0,3122.0,1309.0,1471.0,2465.0,2665.0,,,,-0.128816004929873,-2.59968211455912,-0.214292845895359,,0.8608414377692002,,
,4015.0,978.0,3120.0,1310.0,1469.0,2465.0,2679.0,,,,-0.128695851638991,-2.59990472880497,-0.212781496623629,,0.653331230823814,,
,4013.0,976.0,3117.0,1305.0,1467.0,2465.0,2682.0,,,,-0.128904576773972,-2.59970792196099,-0.215558684179208,,0.44656020738202395,,
,4015.0,977.0,3118.0,1307.0,1466.0,2466.0,2671.0,,,,-0.128949709039564,-2.59993977879682,-0.215006223361818,,0.2434512827732519,,
,4012.0,978.0,3117.0,1308.0,1471.0,2467.0,2635.0,,,,-0.12901329137328,-2.59999825349669,-0.214260248002829,,0.04670858019595366,,
,4013.0,976.0,3118.0,1306.0,1471.0,2478.0,2634.0,,,,-0.12917060029897,-2.59988312013987,-0.215552074431628,,-0.14117846579429838,,
,4012.0,977.0,3116.0,1307.0,1466.0,2487.0,2654.0,,,,-0.129129835977299,-2.60015847705037,-0.215676631945555,,-0.3179430986088971,,
,4011.0,976.0,3114.0,1305.0,1469.0,2473.0,2646.0,,,,-0.129193545189344,-2.60067339997521,-0.215865046914544,,-0.4815681923413644,,
,4009.0,973.0,3113.0,1307.0,1469.0,2467.0,2662.0,,,,-0.129077272099079,-2.6004037878965,-0.217011449191537,,-0.6303325344097702,,
,4008.0,973.0,3114.0,1304.0,1467.0,2470.0,2670.0,,,,-0.128858987218307,-2.60008537956238,-0.216379454113811,,-0.7628705134182229,,
,4009.0,974.0,3112.0,1305.0,1471.0,2474.0,2670.0,,,,-0.129050098383216,-2.59970265545185,-0.215804622213088,,-0.8782349274074537,,
,4009.0,970.0,3111.0,1303.0,1479.0,2474.0,2674.0,,,,-0.128922168177938,-2.59980467816661,-0.214599459228523,,-0.9759510885949624,,
,4010.0,972.0,3114.0,1305.0,1474.0,2474.0,2676.0,,,,-0.128735553005693,-2.59961797118549,-0.214879785356957,,-1.05605163789759,,
,4009.0,975.0,3112.0,1304.0,1474.0,2477.0,2690.0,,,,-0.128735698232438,-2.599583607762,-0.214912146620054,,-1.1190847729838072,,
,4008.0,972.0,3111.0,1306.0,1472.0,2469.0,2684.0,,,,-0.128568773474368,-2.59952284819647,-0.214985201671338,,-1.1660929245001435,,
,4006.0,972.0,3110.0,1304.0,1463.0,2471.0,2689.0,,,,-0.12851508958962,-2.59955569707723,-0.214328503220676,,-1.198563335318191,,
,4009.0,971.0,3110.0,1303.0,1468.0,2462.0,2686.0,,,,-0.12852843247809,-2.59956309026397,-0.215282260114966,,-1.218355693543562,,
,4007.0,972.0,3110.0,1303.0,1462.0,2455.0,2639.0,,,,-0.128306954279734,-2.59962980181648,-0.214452474651713,,-1.2276141340028726,,
,4008.0,974.0,3111.0,1304.0,1463.0,2462.0,2634.0,,,,-0.128254957730788,-2.59946953733938,-0.215646445600858,,-1.228670867547612,,
,4008.0,974.0,3109.0,1306.0,1461.0,2476.0,2643.0,,,,-0.128273677224882,-2.59930097419025,-0.215627993237466,,-1.2239463948629983,,
,4006.0,972.0,3108.0,1300.0,1467.0,2468.0,2646.0,,,,-0.128441441811078,-2.59913909162244,-0.215392945405391,,-1.2158477415264615,,
,4007.0,973.0,3109.0,1303.0,1465.0,2464.0,2637.0,,,,-0.128191634237943,-2.59900501574633,-0.214943226537316,,-1.2066631141105577,,
,4008.0,972.0,3107.0,1305.0,1469.0,2468.0,2655.0,,,,-0.128163364957642,-2.59903148084218,-0.216405044909749,,-1.1984502860529453,,
,4009.0,973.0,3110.0,1307.0,1476.0,2473.0,2654.0,,,,-0.1281037792263,-2.59894110484463,-0.212898859082106,,-1.1929174915669907,,
,4009.0,972.0,3109.0,1303.0,1469.0,2467.0,2670.0,,,,-0.127985404365224,-2.59918225880309,-0.214387461483901,,-1.191299332862851,,
,4006.0,973.0,3109.0,1303.0,1464.0,2478.0,2674.0,,,,-0.1279078624741,-2.59899612600173,-0.215197592016035,,-1.1942351529455038,,
,4008.0,974.0,3110.0,1307.0,1463.0,2482.0,2682.0,,,,-0.128037039504346,-2.5989783395564,-0.215395663040802,,-1.2016620680339383,,
,4008.0,975.0,3109.0,1304.0,1466.0,2483.0,2672.0,,,,-0.128170941624931,-2.59922293945851,-0.214230112470304,,-1.2127380678997992,,
,4006.0,974.0,3111.0,1301.0,1463.0,2464.0,2677.0,,,,-0.128209285167437,-2.59923206049148,-0.214430136367049,,-1.2258113742190129,,
,4008.0,970.0,3107.0,1302.0,1456.0,2472.0,2698.0,,,,-0.128087690997101,-2.59908386448131,-0.215699842029889,,-1.2384500376230858,,
,4006.0,973.0,3108.0,1302.0,1467.0,2465.0,2657.0,,,,-0.128156708677411,-2.5989679269676,-0.214330414816529,,-1.2475402625478986,,
,4004.0,973.0,3107.0,1304.0,1471.0,2457.0,2637.0,,,,-0.127999489853221,-2.59900311993347,-0.213082711269313,,-1.2494535346249993,,
,4008.0,972.0,3106.0,1302.0,1473.0,2457.0,2636.0,,,,-0.128058625061216,-2.59914686124839,-0.215329645153466,,-1.2402727847919084,,
,4005.0,972.0,3110.0,1303.0,1476.0,2462.0,2633.0,,,,-0.128007782537473,-2.59944621276779,-0.216297912654731,,-1.2160588916957686,,
,4008.0,974.0,3107.0,1301.0,1476.0,2462.0,2624.0,,,,-0.127764969277364,-2.59958011418626,-0.215622151311443,,-1.1731328744919138,,
,4006.0,976.0,3108.0,1303.0,1474.0,2462.0,2622.0,,,,-0.128024854756633,-2.59949889542094,-0.216411524444025,,-1.1083471411725312,,
,4007.0,973.0,3109.0,1303.0,1476.0,2460.0,2619.0,,,,-0.128108752914089,-2.59972290825379,-0.216002925765499,,-1.019321066499471,,
,4008.0,972.0,3108.0,1304.0,1487.0,2463.0,2635.0,,,,-0.128083498682545,-2.5996896771926,-0.217083616053351,,-0.9046213496701043,,
,4008.0,973.0,3108.0,1303.0,1483.0,2469.0,2658.0,,,,-0.128012188704618,-2.59968259214557,-0.217430339767334,,-0.763875164516236,,
,4005.0,975.0,3108.0,1302.0,1481.0,2474.0,2674.0,,,,-0.128004560057579,-2.59944637872556,-0.216887596709036,,-0.5978129481875756,,
,4008.0,973.0,3106.0,1302.0,1474.0,2470.0,2719.0,,,,-0.127823741377036,-2.59912473356884,-0.216948404917952,,-0.40824633066046984,,
,4005.0,974.0,3108.0,1301.0,1476.0,2464.0,2702.0,,,,-0.127523148973709,-2.59877764558677,-0.216393064766126,,-0.19799343940481087,,
,4006.0,973.0,3110.0,1301.0,1470.0,2465.0,2643.0,,,,-0.127312059939685,-2.59851849215697,-0.214894395234448,,0.02923306419927104,,
,4005.0,974.0,3110.0,1303.0,1466.0,2462.0,2660.0,,,,-0.127275302290613,-2.59830311442405,-0.213723598055205,,0.26896117170713063,,
,4009.0,977.0,3111.0,1305.0,1465.0,2456.0,2628.0,,,,-0.127206367385589,-2.59808639308957,-0.214535991925307,,0.5161087615199238,,
,4006.0,977.0,3109.0,1303.0,1466.0,2460.0,2636.0,,,,-0.127201032440717,-2.59800946679923,-0.212365846132587,,0.7651436877195485,,
,4005.0,972.0,3108.0,1303.0,1479.0,2471.0,2650.0,,,,-0.127270925546456,-2.59829468444716,-0.212375337020478,,1.0102560379696646,,
,4008.0,975.0,3109.0,1303.0,1471.0,2473.0,2655.0,,,,-0.127762076690832,-2.59884420193766,-0.213531054562978,,1.2455454999722468,,
,4012.0,976.0,3113.0,1306.0,1465.0,2461.0,2637.0,,,,-0.128081857421468,-2.5990097247698,-0.216579250071254,,1.4652253520470166,,
,4011.0,977.0,3112.0,1304.0,1463.0,2464.0,2635.0,,,,-0.128146078167433,-2.59934699074505,-0.217185115489624,,1.663840555987292,,
,4010.0,976.0,3112.0,1305.0,1477.0,2472.0,2638.0,,,,-0.128515926505031,-2.59998764602388,-0.217709550097017,,1.836491631599981,,
,4008.0,976.0,3111.0,1305.0,1469.0,2468.0,2675.0,,,,-0.128694289902167,-2.60016282626666,-0.219626290616996,,1.9790498423568748,,
,4010.0,976.0,3112.0,1305.0,1473.0,2477.0,2670.0,,,,-0.128850968049637,-2.60084361366259,-0.220167277313165,,2.0883444829849647,,
,4011.0,976.0,3115.0,1305.0,1471.0,2468.0,2664.0,,,,-0.129057231517777,-2.60059854765042,-0.219052397195753,,2.162301344230504,,
,4012.0,978.0,3113.0,1306.0,1471.0,2464.0,2664.0,,,,-0.129305113996226,-2.60121916258091,-0.222092841761289,,2.2000138615615707,,
,4010.0,974.0,3111.0,1301.0,1470.0,2465.0,2663.0,,,,-0.129534677505733,-2.60121843508397,-0.220452935113347,,2.201735410309829,,
,4011.0,978.0,3115.0,1307.0,1470.0,2465.0,2672.0,,,,-0.129786942865352,-2.60161925734741,-0.223692270544647,,2.168791817221269,,
,4013.0,979.0,3116.0,1307.0,1469.0,2472.0,2673.0,,,,-0.12972483982656,-2.60193914492362,-0.221655051065299,,2.1034250436841253,,
,4015.0,978.0,3115.0,1309.0,1470.0,2474.0,2671.0,,,,-0.129801490108225,-2.60194709039323,-0.223922685873142,,2.0085890649053963,,
,4010.0,974.0,3115.0,1306.0,1464.0,2480.0,2683.0,,,,-0.129845144840462,-2.60197615774796,-0.223198692741129,,1.8877247947080864,,
,4012.0,976.0,3116.0,1307.0,1470.0,2469.0,2646.0,,,,-0.129880750978001,-2.60210753859852,-0.222557519181886,,1.7445414873172194,,
,4012.0,980.0,3116.0,1307.0,1476.0,2473.0,2630.0,,,,-0.129928956207622,-2.60195942451142,-0.223292470714779,,1.582827665094559,,
,4013.0,980.0,3120.0,1308.0,1477.0,2479.0,2624.0,,,,-0.129729357627022,-2.60148000292042,-0.223255926869029,,1.4063065024985535,,
,4015.0,981.0,3119.0,1309.0,1475.0,2482.0,2621.0,,,,-0.129421390234844,-2.60094208004694,-0.220595707535857,,1.2185407223081983,,
,4013.0,975.0,3119.0,1307.0,1476.0,2464.0,2662.0,,,,-0.129288783507037,-2.60098619926273,-0.22204462663338,,1.022882743704917,,
,4015.0,981.0,3121.0,1307.0,1474.0,2463.0,2671.0,,,,-0.129189086996145,-2.60077836741619,-0.220533927849973,,0.8224590100491136,,
,4016.0,978.0,3120.0,1309.0,1477.0,2466.0,2677.0,,,,-0.12898036433167,-2.60078152661759,-0.221359983189925,,0.6201742382892721,,
,4017.0,978.0,3123.0,1309.0,1474.0,2468.0,2691.0,,,,-0.128733851122096,-2.60105232100974,-0.220805278650884,,0.41872202951430837,,
,4014.0,980.0,3121.0,1310.0,1473.0,2468.0,2671.0,,,,-0.128787941349406,-2.60092419391765,-0.221701936236196,,0.22059219188223145,,
,4018.0,981.0,3121.0,1309.0,1470.0,2473.0,2669.0,,,,-0.12862927272149,-2.60106168009493,-0.221626611526227,,0.02807056455528849,,
,4014.0,981.0,3124.0,1311.0,1470.0,2477.0,2658.0,,,,-0.128562404508877,-2.60125742961878,-0.220459893994324,,-0.15676804571286437,,
,4018.0,982.0,3127.0,1311.0,1472.0,2474.0,2659.0,,,,-0.128337537506901,-2.60031284075339,-0.219281468525152,,-0.3320704550053813,,
,4018.0,984.0,3127.0,1312.0,1466.0,2466.0,2651.0,,,,-0.128274514806379,-2.60029333860294,-0.220869878638965,,-0.49621542037626754,,
,4016.0,980.0,3127.0,1312.0,1475.0,2472.0,2645.0,,,,-0.128093109080809,-2.60007580644916,-0.21752448909122,,-0.6478212083219806,,
,4018.0,981.0,3126.0,1311.0,1475.0,2481.0,2637.0,,,,-0.127825992348818,-2.59974518151407,-0.216381129545861,,-0.7857502460806391,,
,4017.0,981.0,3127.0,1310.0,1481.0,2471.0,2637.0,,,,-0.127538434452731,-2.59915325208536,-0.21899650639068,,-0.9091131237958685,,
,4015.0,981.0,3124.0,1314.0,1484.0,2474.0,2636.0,,,,-0.127426962888125,-2.59909345428923,-0.21529026466165,,-1.0172758991025057,,
,4015.0,979.0,3124.0,1307.0,1480.0,2477.0,2638.0,,,,-0.127733507176897,-2.59885733334286,-0.215643423111723,,-1.109874913232146,,
,4014.0,981.0,3127.0,1310.0,1467.0,2478.0,2621.0,,,,-0.127757808166016,-2.59906494559598,-0.216649818426664,,-1.1868417682667356,,
,4011.0,980.0,3125.0,1309.0,1477.0,2467.0,2630.0,,,,-0.127892278932886,-2.59927008765033,-0.217700098651307,,-1.2484376261434627,,
,4012.0,978.0,3126.0,1308.0,1472.0,2464.0,2642.0,,,,-0.127992361147017,-2.59957802765351,-0.218184546370428,,-1.2952910505766702,,
,4008.0,979.0,3124.0,1306.0,1479.0,2454.0,2630.0,,,,-0.127776286575795,-2.59937981917992,-0.21777065994628,,-1.3284286313586524,,
,4011.0,981.0,3127.0,1307.0,1479.0,2465.0,2630.0,,,,-0.127807797418011,-2.59946468126711,-0.217315864527817,,-1.3492845130951474,,
,4009.0,978.0,3122.0,1305.0,1475.0,2467.0,2650.0,,,,-0.127702411917544,-2.59940759689506,-0.218754746844481,,-1.3596750842777583,,
,4008.0,980.0,3122.0,1306.0,1467.0,2466.0,2658.0,,,,-0.127693130463368,-2.59928018074762,-0.217054632198013,,-1.3617287713830861,,
,4009.0,978.0,3123.0,1305.0,1471.0,2463.0,2638.0,,,,-0.127627715852078,-2.59933789941461,-0.217709555202539,,-1.357767520347738,,
,4006.0,975.0,3121.0,1303.0,1473.0,2466.0,2629.0,,,,-0.127846115564674,-2.59952829072047,-0.219512428740409,,-1.3501449438893498,,
,4005.0,975.0,3123.0,1302.0,1480.0,2470.0,2628.0,,,,-0.127725971817072,-2.59990808897247,-0.21803237238234,,-1.341054714219143,,
,4007.0,977.0,3122.0,1304.0,1487.0,2472.0,2628.0,,,,-0.127752543471946,-2.59993300911339,-0.218976768730052,,-1.332329942369302,,
,4005.0,977.0,3120.0,1301.0,1482.0,2484.0,2635.0,,,,-0.127758856214579,-2.59956145564154,-0.219514817074071,,-1.3252585297784136,,
,4006.0,974.0,3117.0,1303.0,1478.0,2475.0,2647.0,,,,-0.127753518879644,-2.59982545813504,-0.218475213491879,,-1.3204396308820172,,
2025-07-22 00:02:43,4006.0,977.0,3119.0,1302.0,1478.0,2475.0,2626.0,,,2025/07/22 12:02:43 AM,-0.127725537712445,-2.59970807167949,-0.218777061405969,,-1.3177018351562613,,
,4003.0,975.0,3119.0,1301.0,1479.0,2485.0,2623.0,,,,-0.127695083664151,-2.59971046161109,-0.217823955667256,,-1.3160950249861696,,
,4006.0,974.0,3119.0,1302.0,1480.0,2487.0,2613.0,,,,-0.127576857945579,-2.59947293519516,-0.219368059772422,,-1.3139570809773207,,
,4004.0,976.0,3116.0,1300.0,1483.0,2489.0,2646.0,,,,-0.127443629806061,-2.5991794735296,-0.21748541033919,,-1.3090463852966538,,
,4004.0,976.0,3121.0,1299.0,1477.0,2480.0,2648.0,,,,-0.127362455916423,-2.59907490110845,-0.219531103502511,,-1.2987235324659667,,
,4005.0,974.0,3119.0,1299.0,1478.0,2467.0,2646.0,,,,-0.127424539715001,-2.59912486905118,-0.220056490407627,,-1.280161653558778,,
,4005.0,975.0,3119.0,1300.0,1475.0,2464.0,2639.0,,,,-0.127259899578984,-2.59898895561517,-0.217922452159202,,-1.2505641599563682,,
,4005.0,972.0,3116.0,1300.0,1472.0,2465.0,2633.0,,,,-0.127235451611659,-2.59902119191318,-0.218149205076761,,-1.207370891162923,,
,4002.0,972.0,3114.0,1298.0,1465.0,2467.0,2648.0,,,,-0.127441736889602,-2.59946868678752,-0.217811769352282,,-1.1484377212543206,,
,4005.0,976.0,3118.0,1302.0,1467.0,2459.0,2637.0,,,,-0.127393131689587,-2.59925727636941,-0.218264700946537,,-1.0721796234109917,,
,4006.0,976.0,3117.0,1303.0,1464.0,2468.0,2654.0,,,,-0.127426040988908,-2.59925243361069,-0.219545835197593,,-0.977672058272881,,
,4004.0,975.0,3116.0,1300.0,1467.0,2477.0,2649.0,,,,-0.127203187336228,-2.59947138011131,-0.219110612983649,,-0.8647095560267604,,
,4001.0,972.0,3116.0,1300.0,1480.0,2484.0,2651.0,,,,-0.127261117035624,-2.59940097300935,-0.219486290270666,,-0.7338229276388003,,
,4003.0,974.0,3115.0,1301.0,1474.0,2479.0,2647.0,,,,-0.127250203594942,-2.59926346323879,-0.218257810856956,,-0.5862575405905016,,
,4002.0,976.0,3118.0,1301.0,1468.0,2466.0,2651.0,,,,-0.12730665399195,-2.59916192133928,-0.217033126955965,,-0.42391512757850763,,
,4003.0,975.0,3119.0,1300.0,1470.0,2469.0,2644.0,,,,-0.127360461239964,-2.59907837742616,-0.219136585407354,,-0.24926173451677391,,
,4006.0,974.0,3117.0,1301.0,1462.0,2470.0,2676.0,,,,-0.127247357881475,-2.59879630171685,-0.217930275182292,,-0.0652055269956868,,
,4002.0,973.0,3115.0,1298.0,1462.0,2465.0,2649.0,,,,-0.12755257013025,-2.59875937516496,-0.21801477385934,,0.12504946006103057,,
,4002.0,975.0,3117.0,1298.0,1468.0,2465.0,2665.0,,,,-0.127460254100952,-2.59868330653784,-0.21702224678155,,0.3181642106049435,,
,4002.0,974.0,3118.0,1301.0,1475.0,2467.0,2654.0,,,,-0.127207866470907,-2.59838148108456,-0.215598188842152,,0.5108273169729781,,
,4004.0,975.0,3116.0,1299.0,1477.0,2466.0,2675.0,,,,-0.127182335239199,-2.59868490060368,-0.218977693682359,,0.6999038245888031,,
,4003.0,973.0,3118.0,1299.0,1467.0,2470.0,2681.0,,,,-0.127197665933352,-2.59868797844377,-0.218652637256663,,0.8825545706746437,,
,4004.0,975.0,3121.0,1301.0,1467.0,2474.0,2683.0,,,,-0.127120752648059,-2.59869017900008,-0.217139851311178,,1.0563127665930976,,
,4002.0,973.0,3116.0,1301.0,1468.0,2474.0,2630.0,,,,-0.127141700888216,-2.59913733500091,-0.217847246459141,,1.2191098298604883,,
,4002.0,975.0,3115.0,1300.0,1470.0,2468.0,2631.0,,,,-0.126994400416233,-2.59898095724903,-0.219814958220026,,1.3692499410729821,,
,4002.0,973.0,3118.0,1301.0,1472.0,2471.0,2661.0,,,,-0.126957451340395,-2.59890490726838,-0.218133004188056,,1.505341543581238,,
,4001.0,973.0,3118.0,1300.0,1471.0,2466.0,2643.0,,,,-0.127032983704392,-2.59896869849825,-0.217144909704904,,1.6262023663045004,,
,4002.0,975.0,3116.0,1301.0,1476.0,2468.0,2606.0,,,,-0.126656348753356,-2.59879935730219,-0.21719919280992,,1.7307603212878768,,
,4003.0,975.0,3119.0,1300.0,1476.0,2469.0,2627.0,,,,-0.126853531577388,-2.59839586859515,-0.217793799353683,,1.8179739902130185,,
,4001.0,976.0,3119.0,1302.0,1480.0,2469.0,2628.0,,,,-0.126655973927143,-2.59819514224835,-0.217396405803514,,1.8867927699612406,,
,4000.0,974.0,3117.0,1300.0,1483.0,2473.0,2630.0,,,,-0.126447946583928,-2.59790083304644,-0.214521507732376,,1.9361687444009803,,
,4002.0,977.0,3120.0,1300.0,1470.0,2478.0,2620.0,,,,-0.126319955277274,-2.5974996511524,-0.215402986378176,,1.96512157524509,,
,4001.0,974.0,3122.0,1301.0,1474.0,2489.0,2628.0,,,,-0.126456487650746,-2.5973562238976,-0.214185608265936,,1.9728464535527477,,
,4001.0,976.0,3120.0,1300.0,1475.0,2481.0,2624.0,,,,-0.126573767977638,-2.59735335338354,-0.213691407047439,,1.9588459459359537,,
,4000.0,975.0,3121.0,1298.0,1480.0,2471.0,2642.0,,,,-0.126527804274414,-2.59715334675071,-0.212707306928454,,1.9230613028516137,,
,4004.0,976.0,3123.0,1302.0,1482.0,2486.0,2636.0,,,,-0.126217630160011,-2.59713716307742,-0.212715639875088,,1.8659781782574592,,
,4003.0,978.0,3124.0,1301.0,1471.0,2484.0,2656.0,,,,-0.126636427649022,-2.59742766196499,-0.21293447802897,,1.78868551174836,,
,4002.0,977.0,3124.0,1303.0,1468.0,2476.0,2666.0,,,,-0.12660105415615,-2.59746071901573,-0.215013141352662,,1.6928738972407493,,
,4004.0,978.0,3124.0,1301.0,1477.0,2475.0,2645.0,,,,-0.126687749537555,-2.59792799712101,-0.214911469171785,,1.58076994812953,,
,4001.0,976.0,3121.0,1302.0,1480.0,2476.0,2616.0,,,,-0.126885656629575,-2.59804190060225,-0.215727661730649,,1.4550139565859836,,
,4003.0,978.0,3125.0,1303.0,1477.0,2477.0,2631.0,,,,-0.127097712134624,-2.59861843973168,-0.218152975991687,,1.318497105789348,,
,4006.0,980.0,3126.0,1304.0,1480.0,2474.0,2651.0,,,,-0.12720756779876,-2.59874338158415,-0.216540542430572,,1.1741798289204428,,
,4006.0,978.0,3126.0,1303.0,1478.0,2475.0,2632.0,,,,-0.127614352093094,-2.59879824174338,-0.218291224435514,,1.0249139874446263,,
,4005.0,976.0,3125.0,1301.0,1476.0,2478.0,2639.0,,,,-0.127678512698455,-2.59930847327212,-0.218102219838391,,0.8732887177013517,,
,4007.0,980.0,3129.0,1304.0,1478.0,2471.0,2647.0,,,,-0.127670368074327,-2.59938917910885,-0.218898545173037,,0.7215141661060062,,
,4006.0,978.0,3126.0,1302.0,1470.0,2484.0,2629.0,,,,-0.127571656839656,-2.59953315432542,-0.218716100452083,,0.5713505520675222,,
,4009.0,979.0,3126.0,1302.0,1473.0,2491.0,2627.0,,,,-0.127752267300462,-2.59914495045678,-0.219499358247301,,0.42408372962107677,,
,4008.0,978.0,3127.0,1304.0,1486.0,2472.0,2640.0,,,,-0.127491963486993,-2.59943259093776,-0.219379562346711,,0.28054365037826,,
,4010.0,978.0,3128.0,1303.0,1474.0,2465.0,2649.0,,,,-0.127442272744261,-2.5992037913211,-0.219784188184501,,0.14115902763043933,,
,4012.0,980.0,3130.0,1303.0,1477.0,2465.0,2650.0,,,,-0.127391083910241,-2.5991585460157,-0.217927273754141,,0.006039825994177215,,
,4016.0,979.0,3131.0,1304.0,1479.0,2465.0,2676.0,,,,-0.127602065273184,-2.59925339223741,-0.217709983471474,,-0.12492142497306466,,
,4018.0,980.0,3131.0,1303.0,1480.0,2472.0,2673.0,,,,-0.127681637875723,-2.5994270716581,-0.217789228069361,,-0.251938636899383,,
,4018.0,981.0,3131.0,1304.0,1484.0,2467.0,2670.0,,,,-0.127569965591817,-2.59922201930265,-0.21680385638136,,-0.3752208500626949,,
,4022.0,983.0,3138.0,1305.0,1478.0,2469.0,2625.0,,,,-0.12770312293272,-2.59941981819689,-0.216663829925508,,-0.4948703582832639,,
,4021.0,982.0,3139.0,1306.0,1477.0,2476.0,2621.0,,,,-0.127729514406322,-2.59937973258352,-0.218371402066506,,-0.6108001636724477,,
,4023.0,983.0,3141.0,1307.0,1478.0,2471.0,2618.0,,,,-0.127687421922183,-2.59903943735978,-0.216907906949286,,-0.7226799373202286,,
,4023.0,983.0,3140.0,1305.0,1477.0,2469.0,2630.0,,,,-0.127607083252404,-2.59902437884815,-0.216674396186383,,-0.8299176553345634,,
,4024.0,979.0,3141.0,1304.0,1475.0,2475.0,2617.0,,,,-0.127556029513508,-2.59911690248245,-0.218398807175303,,-0.9316806463821485,,
,4025.0,982.0,3143.0,1306.0,1472.0,2468.0,2603.0,,,,-0.127225001061303,-2.59892480202582,-0.217299361523276,,-1.0269552611410357,,
,4023.0,983.0,3145.0,1307.0,1475.0,2478.0,2631.0,,,,-0.12720863343618,-2.598968143483,-0.21551302200472,,-1.1146395578435027,,
,4021.0,981.0,3145.0,1308.0,1494.0,2485.0,2654.0,,,,-0.127210847274589,-2.59897694215502,-0.215584120408955,,-1.1936591138170134,,
,4025.0,981.0,3143.0,1305.0,1479.0,2486.0,2649.0,,,,-0.127168558182258,-2.5985263277392,-0.217155526731255,,-1.263092681396316,,
,4024.0,981.0,3145.0,1307.0,1478.0,2480.0,2647.0,,,,-0.126889726435022,-2.59850573457277,-0.21579796297404,,-1.3222919879357051,,
,4027.0,982.0,3145.0,1308.0,1482.0,2493.0,2644.0,,,,-0.127026901540972,-2.59841054162047,-0.216052825637143,,-1.3709789389134435,,
,4027.0,985.0,3149.0,1307.0,1483.0,2493.0,2648.0,,,,-0.126953225334259,-2.59844383060884,-0.214270587505198,,-1.4093045715820272,,
,4025.0,979.0,3145.0,1309.0,1477.0,2491.0,2632.0,,,,-0.127025678164122,-2.59821485557983,-0.215556331601,,-1.4378577521185376,,
,4026.0,981.0,3147.0,1308.0,1475.0,2484.0,2635.0,,,,-0.126837717611669,-2.59813556606281,-0.215060575032428,,-1.4576175202303465,,
,4027.0,981.0,3148.0,1307.0,1474.0,2473.0,2627.0,,,,-0.126893410499428,-2.59839816089492,-0.215288946178195,,-1.469850383179169,,
,4024.0,983.0,3149.0,1309.0,1471.0,2468.0,2634.0,,,,-0.127378430651978,-2.59845397154085,-0.215482502331647,,-1.4759617497492226,,
,4021.0,979.0,3144.0,1306.0,1471.0,2469.0,2664.0,,,,-0.12744276881178,-2.59834711976352,-0.214540586273991,,-1.4773178970732737,,
,4023.0,977.0,3147.0,1309.0,1474.0,2463.0,2641.0,,,,-0.127307921477615,-2.5983050017315,-0.214468981995161,,-1.4750601442575841,,
,4023.0,980.0,3147.0,1307.0,1471.0,2465.0,2617.0,,,,-0.127165421958214,-2.59797680762514,-0.216414509574881,,-1.4699352638469982,,
,4022.0,981.0,3145.0,1306.0,1468.0,2476.0,2631.0,,,,-0.127388705576708,-2.59837899910655,-0.216022040775407,,-1.4621650187803732,,
,4021.0,980.0,3145.0,1306.0,1469.0,2483.0,2641.0,,,,-0.127590350656444,-2.59858637710558,-0.21550637605236,,-1.4513729701169849,,
,4021.0,977.0,3144.0,1302.0,1465.0,2470.0,2645.0,,,,-0.127672524233541,-2.59891118085751,-0.216351521996841,,-1.436578891222097,,
,4018.0,979.0,3143.0,1303.0,1470.0,2474.0,2653.0,,,,-0.127891897051253,-2.59887806051803,-0.218159017092401,,-1.4162616022263554,,
,4018.0,978.0,3143.0,1303.0,1479.0,2483.0,2619.0,,,,-0.127903296272471,-2.59905555392339,-0.217697237674634,,-1.3884817556984348,,
,4015.0,977.0,3141.0,1301.0,1481.0,2482.0,2619.0,,,,-0.12779162579243,-2.59919672233655,-0.219175778252323,,-1.3510488691609555,,
,4015.0,975.0,3138.0,1301.0,1478.0,2483.0,2609.0,,,,-0.127901083850061,-2.59901726811427,-0.218600338708136,,-1.301712731679825,,
,4013.0,973.0,3140.0,1301.0,1472.0,2493.0,2643.0,,,,-0.127942448433152,-2.59935501148294,-0.219065472465482,,-1.2383583749313425,,
,4013.0,977.0,3139.0,1302.0,1480.0,2496.0,2626.0,,,,-0.127992095712793,-2.59943197104711,-0.216398137975064,,-1.159185686443475,,
,4011.0,974.0,3137.0,1301.0,1482.0,2496.0,2626.0,,,,-0.127909064973325,-2.59918796589074,-0.217553926098037,,-1.0628587069423376,,
,4013.0,973.0,3137.0,1300.0,1476.0,2497.0,2645.0,,,,-0.127829344919433,-2.59918069118028,-0.216002281568182,,-0.9486148158077385,,
,4012.0,973.0,3135.0,1297.0,1485.0,2484.0,2620.0,,,,-0.127824777190856,-2.59891067182777,-0.21471933721211,,-0.8163296239891931,,
,4012.0,973.0,3136.0,1301.0,1486.0,2469.0,2635.0,,,,-0.127899948720926,-2.59864463100111,-0.215896971329864,,-0.6665389031445329,,
,4012.0,976.0,3135.0,1300.0,1480.0,2468.0,2621.0,,,,-0.127448998494342,-2.59814220823485,-0.214708076044309,,-0.5004236010210688,,
,4010.0,974.0,3135.0,1301.0,1481.0,2473.0,2621.0,,,,-0.127316201703096,-2.59764432644556,-0.212055843843056,,-0.3197669662895865,,
,4013.0,976.0,3135.0,1298.0,1476.0,2475.0,2641.0,,,,-0.127222327854968,-2.59716194827486,-0.209629886245148,,-0.12689329409113131,,
,4010.0,974.0,3135.0,1302.0,1474.0,2463.0,2665.0,,,,-0.126647618778177,-2.59667436784866,-0.209507336147917,,0.0754040281050522,,
,4010.0,972.0,3132.0,1300.0,1474.0,2461.0,2659.0,,,,-0.126373730807485,-2.59625970491019,-0.208827481666771,,0.28394058974416253,,
,4010.0,974.0,3132.0,1300.0,1471.0,2466.0,2662.0,,,,-0.12628370596398,-2.59601448667038,-0.208372438161938,,0.49522361407702153,,
,4010.0,971.0,3134.0,1297.0,1480.0,2469.0,2638.0,,,,-0.126067946437766,-2.5958951394857,-0.206195386174746,,0.705539681176294,,
,4009.0,974.0,3132.0,1299.0,1475.0,2469.0,2633.0,,,,-0.126127744676172,-2.59561075486637,-0.205920210264822,,0.9110483906487196,,
,4011.0,974.0,3132.0,1301.0,1467.0,2477.0,2652.0,,,,-0.126097318608538,-2.59570384999392,-0.206944337980776,,1.1078815959896149,,
,4008.0,975.0,3134.0,1301.0,1473.0,2474.0,2651.0,,,,-0.125778327763755,-2.59539362656243,-0.205718845499248,,1.2922455393344352,,
,4011.0,973.0,3133.0,1300.0,1472.0,2467.0,2646.0,,,,-0.125891086438497,-2.59532198607842,-0.204298093391758,,1.460520874483741,,
,4008.0,972.0,3132.0,1298.0,1470.0,2473.0,2662.0,,,,-0.125519451329429,-2.59512136300384,-0.204011329127575,,1.6093542955609619,,
,4009.0,974.0,3130.0,1300.0,1477.0,2474.0,2661.0,,,,-0.125494385348686,-2.5949053342976,-0.203244360631033,,1.7357361588738736,,
,4009.0,973.0,3130.0,1301.0,1467.0,2480.0,2632.0,,,,-0.125218129011486,-2.59445614949295,-0.200498080937555,,1.8370614386635424,,
,4010.0,974.0,3131.0,1300.0,1471.0,2471.0,2626.0,,,,-0.125199617992325,-2.59415072099922,-0.201916960882955,,1.9111759652126403,,
,4010.0,974.0,3130.0,1300.0,1473.0,2464.0,2651.0,,,,-0.125156214425171,-2.59413296833973,-0.201368881515644,,1.9564143783610406,,
,4010.0,974.0,3131.0,1298.0,1470.0,2468.0,2655.0,,,,-0.124912487216434,-2.5937477661551,-0.200009392385985,,1.9716384355176244,,
,4009.0,972.0,3129.0,1301.0,1471.0,2468.0,2657.0,,,,-0.124972302747861,-2.5938319651408,-0.198579468496036,,1.9562830332772443,,
,4011.0,972.0,3132.0,1300.0,1471.0,2472.0,2643.0,,,,-0.124825397007422,-2.5936107990841,-0.19981184834753,,1.910412869168167,,
,4009.0,977.0,3130.0,1302.0,1473.0,2463.0,2644.0,,,,-0.124831524191478,-2.59343554234529,-0.198623208432444,,1.83478646119047,,
,4009.0,973.0,3127.0,1298.0,1470.0,2468.0,2649.0,,,,-0.125039116127788,-2.59340518249047,-0.198284407277573,,1.7309179531968808,,
,4011.0,975.0,3129.0,1300.0,1476.0,2470.0,2635.0,,,,-0.125105987565338,-2.59363824586911,-0.197401642145086,,1.6011223740855134,,
