TimeLabel,MEAS1_PPG1,MEAS1_PPG2,MEAS1_PPG3,MEAS1_PPG4,ACCX,ACCY,ACCZ,HR_timestamp,HR_value,radar_timestamp,phase_rx0,phase_rx1,phase_rx2,timestep,n_process,original_rate,calculated_rate
2025-07-21 21:11:30,9265.0,2882.0,6839.0,1569.0,2259.0,3289.0,-261.0,2025-07-21 21:11:48,90.0,2025/07/21 09:11:30 PM,-0.0006759193441907,-2.02571184894811,0.0868912495111374,2025/07/21 09:11:30 PM,2.3919902273646687,10.744985580444336,12.362637362637361
,9269.0,2885.0,6834.0,1569.0,2277.0,3278.0,-269.0,2025-07-21 21:11:48,89.0,,-0.0007082969867472,-2.02598598718432,0.0868352068693885,2025/07/21 09:11:40 PM,1.6696154626779036,11.441647529602053,12.276855621672407
,9269.0,2886.0,6836.0,1569.0,2262.0,3285.0,-260.0,2025-07-21 21:11:50,89.0,,-0.0005671231422104,-2.02539164603079,0.0868833691744036,2025/07/21 09:11:50 PM,0.9679215359294036,12.205044746398926,12.307692307692312
,9270.0,2888.0,6832.0,1568.0,2289.0,3293.0,-248.0,2025-07-21 21:11:51,90.0,,-0.0005398120855109,-2.0251398744298,0.08687281745884,2025/07/21 09:12:00 PM,0.28202686933023274,12.126111030578612,12.208221441850856
,9272.0,2892.0,6831.0,1569.0,2282.0,3273.0,-244.0,2025-07-21 21:11:52,90.0,,-0.0005262947528347,-2.02448884647837,0.0869430572518096,2025/07/21 09:12:10 PM,-0.39473754149917323,12.305168151855469,12.909196067090807
,9273.0,2889.0,6826.0,1566.0,2272.0,3253.0,-232.0,2025-07-21 21:11:53,91.0,,-0.0004621548983785,-2.02412546536267,0.0869373041486614,2025/07/21 09:12:20 PM,-1.069616537932611,12.658227920532228,11.060606060606057
,9277.0,2892.0,6824.0,1567.0,2270.0,3255.0,-224.0,2025-07-21 21:11:54,92.0,,-0.0003209499219339,-2.02380879641338,0.0869247006858246,2025/07/21 09:12:30 PM,-1.7492564705590075,11.755486488342283,11.287758346581867
,9279.0,2894.0,6822.0,1571.0,2272.0,3251.0,-225.0,2025-07-21 21:11:55,93.0,,-0.0005601374147631,-2.02321530742345,0.0869481123395334,2025/07/21 09:12:40 PM,-2.4386940617200445,11.415525436401367,12.059089538739828
,9281.0,2892.0,6823.0,1569.0,2248.0,3268.0,-221.0,2025-07-21 21:11:56,93.0,,-0.000853766978478,-2.02272059379342,0.0869658848012324,2025/07/21 09:12:50 PM,-3.1406093793588092,11.28668212890625,12.122448979591848
,9280.0,2895.0,6821.0,1568.0,2255.0,3270.0,-224.0,2025-07-21 21:11:57,93.0,,-0.0009171015018964,-2.02249879002698,0.0869407433363533,2025/07/21 09:13:00 PM,-3.854908490873712,12.03852367401123,10.762548262548258
,9286.0,2895.0,6821.0,1569.0,2287.0,3269.0,-232.0,2025-07-21 21:11:58,94.0,,-0.0011742182501148,-2.02254662352819,0.0869319069442083,2025/07/21 09:13:10 PM,-4.5786588360166505,12.008005142211914,11.119691119691122
,9284.0,2896.0,6820.0,1570.0,2256.0,3263.0,-216.0,2025-07-21 21:11:59,94.0,,-0.0011018061718935,-2.02205935577784,0.0869158310289417,2025/07/21 09:13:20 PM,-5.306356274505614,11.673151969909668,10.899271745356366
,9288.0,2896.0,6818.0,1569.0,2243.0,3270.0,-222.0,2025-07-21 21:12:00,94.0,,-0.0012340129241046,-2.02185186551915,0.086975541138105,2025/07/21 09:13:30 PM,-6.030464260027317,10.956902503967283,10.619469026548662
,9285.0,2897.0,6816.0,1568.0,2242.0,3277.0,-233.0,2025-07-21 21:12:01,95.0,,-0.0014963160662046,-2.02165631577072,0.0869833316260057,2025/07/21 09:13:40 PM,-6.742138716898776,10.877447128295898,11.017520215633418
,9287.0,2895.0,6815.0,1569.0,2256.0,3276.0,-217.0,2025-07-21 21:12:02,95.0,,-0.0017166157154726,-2.02218905712384,0.0869558101128166,2025/07/21 09:13:50 PM,-7.4320393959003415,10.8616943359375,11.616161616161625
,9287.0,2894.0,6813.0,1566.0,2271.0,3275.0,-234.0,2025-07-21 21:12:03,96.0,,-0.0023474939865955,-2.02400772325449,0.0869112323754374,2025/07/21 09:14:00 PM,-8.09112836968195,11.17734718322754,10.632318501170964
,9284.0,2895.0,6814.0,1569.0,2275.0,3277.0,-230.0,2025-07-21 21:12:03,96.0,,-0.0029417154154981,-2.02639056471407,0.0868092921852706,2025/07/21 09:14:10 PM,-8.711365764282265,11.21914768218994,10.877768662838381
,9287.0,2894.0,6811.0,1566.0,2272.0,3262.0,-254.0,2025-07-21 21:12:05,97.0,,-0.0033384752266024,-2.02758587962149,0.0867347480758556,2025/07/21 09:14:20 PM,-9.286229247529414,10.968921661376951,11.548070694919955
,9283.0,2892.0,6809.0,1565.0,2270.0,3275.0,-230.0,2025-07-21 21:12:06,97.0,,-0.0037160115080951,-2.02808449517536,0.0867648546279428,,-9.811005928722782,,
,9282.0,2894.0,6808.0,1567.0,2269.0,3280.0,-251.0,2025-07-21 21:12:07,97.0,,-0.003734468065817,-2.02733814885948,0.0867518666731192,,-10.282832322197818,,
,9284.0,2892.0,6808.0,1566.0,2289.0,3259.0,-250.0,2025-07-21 21:12:08,98.0,,-0.0039135575489185,-2.02720408762781,0.0867519981677614,,-10.700488157964244,,
,9284.0,2893.0,6805.0,1568.0,2291.0,3262.0,-246.0,2025-07-21 21:12:09,97.0,,-0.0040018762173103,-2.02732244943399,0.0867721671984079,,-11.063979742759267,,
,9283.0,2890.0,6804.0,1566.0,2294.0,3255.0,-248.0,2025-07-21 21:12:09,96.0,,-0.0039975611334283,-2.02708661638398,0.0868081449835689,,-11.37397382323283,,
,9281.0,2892.0,6801.0,1563.0,2271.0,3270.0,-244.0,2025-07-21 21:12:11,95.0,,-0.0040865634093972,-2.02668669352326,0.0867938754467793,,-11.631159454822022,,
,9285.0,2892.0,6801.0,1564.0,2259.0,3272.0,-269.0,2025-07-21 21:12:12,94.0,,-0.0040768302120123,-2.02643455240698,0.0868417649086052,,-11.83562128015096,,
,9285.0,2890.0,6799.0,1565.0,2258.0,3278.0,-256.0,2025-07-21 21:12:12,93.0,,-0.0040700463274761,-2.02634622862868,0.0868341059534632,,-11.986303575503458,,
,9282.0,2890.0,6794.0,1564.0,2262.0,3275.0,-250.0,2025-07-21 21:12:14,92.0,,-0.0040754493285563,-2.02585857634949,0.0868576817025972,,-12.080632841464748,,
,9283.0,2890.0,6793.0,1563.0,2250.0,3252.0,-244.0,2025-07-21 21:12:14,90.0,,-0.0040118614464781,-2.0254770569286,0.0868906421585181,,-12.11434983496567,,
,9286.0,2892.0,6790.0,1564.0,2245.0,3262.0,-224.0,2025-07-21 21:12:16,89.0,,-0.0040204419461051,-2.02545857059854,0.0868690082610354,,-12.081580776378885,,
,9283.0,2894.0,6791.0,1566.0,2264.0,3273.0,-234.0,2025-07-21 21:12:17,88.0,,-0.0039208682656451,-2.02475148053993,0.086895902000925,,-11.975152588548717,,
,9286.0,2894.0,6790.0,1562.0,2257.0,3263.0,-245.0,2025-07-21 21:12:18,87.0,,-0.0037727598212164,-2.02448047242619,0.0869267056599133,,-11.78713006752106,,
,9284.0,2893.0,6790.0,1563.0,2241.0,3253.0,-229.0,2025-07-21 21:12:19,87.0,,-0.0037957958966591,-2.02357255440473,0.0869127332472456,,-11.50952696482222,,
,9290.0,2896.0,6787.0,1560.0,2242.0,3256.0,-257.0,2025-07-21 21:12:20,87.0,,-0.0037549584279756,-2.02319290079561,0.0869491667637045,,-11.13512181683321,,
,9291.0,2896.0,6789.0,1564.0,2257.0,3271.0,-261.0,2025-07-21 21:12:20,87.0,,-0.0037169790827359,-2.02257482418638,0.0869584229938999,,-10.658296204304749,,
,9288.0,2896.0,6787.0,1564.0,2262.0,3279.0,-257.0,2025-07-21 21:12:22,88.0,,-0.0035008456067808,-2.02193991195999,0.0870421087933685,,-10.075809891061402,,
,9290.0,2896.0,6786.0,1565.0,2267.0,3265.0,-255.0,2025-07-21 21:12:23,89.0,,-0.0035001996426058,-2.0215543812078,0.0870583158231262,,-9.387434208409408,,
,9293.0,2897.0,6786.0,1565.0,2260.0,3263.0,-247.0,2025-07-21 21:12:24,89.0,,-0.0034106178216214,-2.02135928108073,0.0870198009976789,,-8.596380552654995,,
,9297.0,2900.0,6785.0,1563.0,2252.0,3253.0,-216.0,2025-07-21 21:12:25,90.0,,-0.0034470151446094,-2.0213011304896,0.0870718394395783,,-7.70948198182533,,
,9294.0,2899.0,6785.0,1565.0,2242.0,3257.0,-221.0,2025-07-21 21:12:26,91.0,,-0.0034053532827053,-2.02079063321152,0.0870500514113585,,-6.737109361069356,,
,9295.0,2900.0,6786.0,1564.0,2249.0,3262.0,-223.0,2025-07-21 21:12:27,90.0,,-0.0034335413429052,-2.02083991745233,0.0870244681969945,,-5.692826949678364,,
,9294.0,2899.0,6783.0,1563.0,2275.0,3281.0,-234.0,2025-07-21 21:12:28,90.0,,-0.0033737705440554,-2.02074546371355,0.0870945593417067,,-4.592814484166326,,
,9299.0,2903.0,6785.0,1566.0,2288.0,3276.0,-260.0,2025-07-21 21:12:29,89.0,,-0.0032641656945588,-2.02023219257303,0.087094373600682,,-3.455102563642252,,
,9300.0,2902.0,6786.0,1565.0,2271.0,3287.0,-252.0,2025-07-21 21:12:30,88.0,,-0.0031811046581999,-2.01878779031651,0.0871101888430547,,-2.2986838005041634,,
,9302.0,2900.0,6788.0,1567.0,2252.0,3287.0,-237.0,2025-07-21 21:12:31,87.0,,-0.0031424623856559,-2.01880705089831,0.0871450807597048,,-1.1425720718352574,,
,9299.0,2902.0,6786.0,1567.0,2262.0,3265.0,-259.0,2025-07-21 21:12:32,86.0,,-0.0031319938095364,-2.01867857325079,0.0871398634520542,,-0.004885483244843145,,
,9303.0,2902.0,6786.0,1564.0,2255.0,3269.0,-272.0,2025-07-21 21:12:33,86.0,,-0.0031033778391738,-2.01802733758032,0.0871599993836635,,1.0979745724353982,,
,9302.0,2903.0,6790.0,1566.0,2236.0,3273.0,-256.0,2025-07-21 21:12:34,87.0,,-0.0029636260559674,-2.01801347028215,0.087205191376721,,2.1519852166884346,,
,9305.0,2904.0,6790.0,1567.0,2236.0,3261.0,-244.0,2025-07-21 21:12:35,87.0,,-0.0029881157757102,-2.01727477911378,0.0872399057028598,,3.1459567793953367,,
,9307.0,2905.0,6791.0,1566.0,2245.0,3261.0,-256.0,2025-07-21 21:12:35,87.0,,-0.0030140577886208,-2.01746516580367,0.087265658353279,,4.071752800552219,,
,9308.0,2905.0,6793.0,1567.0,2282.0,3258.0,-264.0,2025-07-21 21:12:36,88.0,,-0.0029616496517106,-2.01710984726721,0.0872658534398865,,4.924272675430967,,
,9309.0,2904.0,6792.0,1567.0,2273.0,3268.0,-239.0,2025-07-21 21:12:38,88.0,,-0.0029822177517928,-2.01674658808347,0.0872872822004499,,5.701222074362824,,
,9310.0,2908.0,6793.0,1570.0,2252.0,3267.0,-252.0,2025-07-21 21:12:39,88.0,,-0.0029034573717199,-2.01625695646067,0.0872901287823167,,6.402723409871898,,
,9313.0,2907.0,6795.0,1571.0,2254.0,3276.0,-249.0,2025-07-21 21:12:39,89.0,,-0.0029445522258705,-2.01598169973995,0.0873273048396425,,7.030839209663777,,
,9310.0,2903.0,6793.0,1565.0,2273.0,3290.0,-239.0,2025-07-21 21:12:41,88.0,,-0.0029614366242497,-2.01552331818226,0.087322782986451,,7.589088493931423,,
,9314.0,2908.0,6794.0,1568.0,2289.0,3311.0,-249.0,2025-07-21 21:12:42,88.0,,-0.0028621064122517,-2.01503209329492,0.0873311109976874,,8.082026194417447,,
,9314.0,2907.0,6796.0,1569.0,2274.0,3309.0,-250.0,2025-07-21 21:12:43,87.0,,-0.0028838132826322,-2.01396994301152,0.0873845531572712,,8.51493054874806,,
,9312.0,2906.0,6798.0,1570.0,2279.0,3307.0,-243.0,2025-07-21 21:12:44,87.0,,-0.0026899904507344,-2.01399840999279,0.0873647749579386,,8.893611204945113,,
,9312.0,2904.0,6798.0,1568.0,2297.0,3297.0,-239.0,2025-07-21 21:12:44,87.0,,-0.0026103720158569,-2.01322294034571,0.0874097545135393,,9.224320675640081,,
,9310.0,2901.0,6797.0,1568.0,2291.0,3285.0,-228.0,2025-07-21 21:12:46,87.0,,-0.002594307909595,-2.01310786696234,0.0874503342260927,,9.513730083188952,,
,9309.0,2900.0,6797.0,1568.0,2289.0,3280.0,-210.0,2025-07-21 21:12:47,88.0,,-0.0025937253963164,-2.01303720774756,0.0874099665135345,,9.768919415676939,,
,9304.0,2900.0,6798.0,1569.0,2272.0,3259.0,-204.0,2025-07-21 21:12:48,88.0,,-0.0025051319325698,-2.01227106908109,0.0874698431099973,,9.997332844223171,,
,9300.0,2892.0,6798.0,1566.0,2268.0,3251.0,-211.0,2025-07-21 21:12:48,89.0,,-0.0025266867080784,-2.01168660400525,0.0874705806182258,,10.2066594743787,,
,9294.0,2887.0,6789.0,1564.0,2249.0,3250.0,-219.0,2025-07-21 21:12:50,90.0,,-0.0024356889522757,-2.01146418228725,0.087483625184688,,10.404616427561598,,
,9289.0,2885.0,6789.0,1564.0,2237.0,3247.0,-219.0,2025-07-21 21:12:51,90.0,,-0.0022565377330953,-2.01146133832948,0.0874800228447073,,10.598631044925796,,
,9287.0,2882.0,6787.0,1565.0,2231.0,3248.0,-232.0,2025-07-21 21:12:51,91.0,,-0.0022281751352992,-2.01083045553732,0.0874724132461466,,10.795439076046518,,
,9279.0,2879.0,6784.0,1561.0,2241.0,3241.0,-230.0,2025-07-21 21:12:53,91.0,,-0.0021108064521799,-2.01092083218565,0.0874942991883339,,11.000632926578817,,
,9274.0,2876.0,6776.0,1556.0,2227.0,3245.0,-223.0,2025-07-21 21:12:54,91.0,,-0.0020217443639547,-2.01046574467342,0.0874848345243492,,11.21820557504259,,
,9264.0,2874.0,6772.0,1559.0,2242.0,3258.0,-206.0,2025-07-21 21:12:54,90.0,,-0.0019733375281484,-2.00988253417002,0.0875001781855009,,11.45013993260224,,
,9265.0,2871.0,6769.0,1554.0,2241.0,3276.0,-204.0,2025-07-21 21:12:56,90.0,,-0.0019451074837838,-2.00972797864532,0.0875131974568417,,11.69609054715834,,
,9261.0,2872.0,6763.0,1553.0,2225.0,3284.0,-202.0,2025-07-21 21:12:57,90.0,,-0.0020882177041857,-2.00983831497419,0.0875212225934804,,11.95319643994695,,
,9255.0,2871.0,6761.0,1551.0,2249.0,3271.0,-206.0,2025-07-21 21:12:58,90.0,,-0.0020775439457611,-2.00996972042049,0.0875201106335734,,12.21605226351081,,
,9249.0,2871.0,6754.0,1547.0,2241.0,3259.0,-211.0,2025-07-21 21:12:59,90.0,,-0.0020330820014911,-2.00958325586649,0.0875574205843131,,12.476851064711763,,
,9248.0,2873.0,6753.0,1546.0,2250.0,3291.0,-207.0,2025-07-21 21:13:00,90.0,,-0.002169880217934,-2.00964255859978,0.087503575667351,,12.725696977046265,,
,9246.0,2872.0,6750.0,1547.0,2247.0,3277.0,-235.0,2025-07-21 21:13:00,90.0,,-0.0022037827679438,-2.00945690480242,0.0874983072933286,,12.951071769191028,,
,9246.0,2876.0,6746.0,1547.0,2230.0,3270.0,-228.0,2025-07-21 21:13:02,90.0,,-0.0022472465180294,-2.00999840160924,0.0875249053303981,,13.14042662411056,,
,9243.0,2875.0,6743.0,1544.0,2237.0,3267.0,-251.0,2025-07-21 21:13:03,91.0,,-0.0019852223903344,-2.00999102488561,0.0875095901826865,,13.280860110679976,,
,9247.0,2879.0,6739.0,1544.0,2265.0,3267.0,-257.0,2025-07-21 21:13:04,91.0,,-0.0021110933067336,-2.00974880555708,0.0874920336321408,,13.359834773243557,,
,9246.0,2879.0,6735.0,1544.0,2276.0,3280.0,-264.0,2025-07-21 21:13:05,91.0,,-0.0021558416829694,-2.00983032870147,0.0875401126435658,,13.365878449586681,,
,9247.0,2878.0,6734.0,1542.0,2287.0,3295.0,-264.0,2025-07-21 21:13:06,91.0,,-0.0021891633763572,-2.00920899767798,0.0875401580515155,,13.289213792379702,,
,9248.0,2879.0,6732.0,1541.0,2279.0,3264.0,-266.0,2025-07-21 21:13:06,91.0,,-0.002135329781006,-2.00928688602701,0.087527662637005,,13.122262224372324,,
,9247.0,2882.0,6734.0,1545.0,2285.0,3259.0,-239.0,2025-07-21 21:13:08,91.0,,-0.0021770783636997,-2.00904104890262,0.0875400239796101,,12.85997769563084,,
,9251.0,2885.0,6735.0,1544.0,2257.0,3269.0,-244.0,2025-07-21 21:13:09,90.0,,-0.0021959329932762,-2.00904537279475,0.0875232420285894,,12.499981528194647,,
,9253.0,2888.0,6737.0,1545.0,2258.0,3269.0,-256.0,2025-07-21 21:13:09,89.0,,-0.0021302232314327,-2.00911422055149,0.087570252125358,,12.042492181401995,,
,9255.0,2888.0,6735.0,1542.0,2286.0,3294.0,-245.0,2025-07-21 21:13:11,89.0,,-0.0020110049094467,-2.00895399651534,0.0875077793429345,,11.49007082272087,,
,9255.0,2887.0,6732.0,1540.0,2259.0,3272.0,-249.0,2025-07-21 21:13:11,89.0,,-0.0019111181076292,-2.00898999427765,0.0875274748989122,,10.847229658872541,,
,9260.0,2892.0,6737.0,1544.0,2272.0,3275.0,-243.0,2025-07-21 21:13:13,89.0,,-0.0019055447827691,-2.0085524424188,0.0874839565384182,,10.119967632376209,,
,9264.0,2893.0,6735.0,1544.0,2267.0,3288.0,-267.0,2025-07-21 21:13:14,90.0,,-0.0019178452347635,-2.00856834231276,0.087489288897531,,9.315301846185532,,
,9263.0,2892.0,6736.0,1545.0,2250.0,3281.0,-261.0,2025-07-21 21:13:14,90.0,,-0.001847329089339,-2.00868396579737,0.0874776701150022,,8.440852507184276,,
,9262.0,2894.0,6736.0,1543.0,2262.0,3275.0,-238.0,2025-07-21 21:13:16,90.0,,-0.0018962735925692,-2.00862314156396,0.087504679260055,,7.504518722197133,,
,9266.0,2896.0,6739.0,1544.0,2255.0,3288.0,-239.0,2025-07-21 21:13:17,91.0,,-0.0019736458427345,-2.00837832143759,0.0875074238406503,,6.514258953005729,,
,9267.0,2895.0,6740.0,1547.0,2245.0,3301.0,-228.0,2025-07-21 21:13:17,91.0,,-0.0019954520413751,-2.00824705212207,0.0875791269608214,,5.477969839152908,,
,9268.0,2896.0,6737.0,1545.0,2233.0,3309.0,-222.0,2025-07-21 21:13:18,91.0,,-0.001988775551433,-2.00775850046171,0.08757171051075,,4.403444774819514,,
,9268.0,2895.0,6740.0,1545.0,2211.0,3301.0,-203.0,2025-07-21 21:13:20,91.0,,-0.0020137490648148,-2.0076063990065,0.0876193882203028,,3.298390157905459,,
,9269.0,2894.0,6742.0,1546.0,2237.0,3290.0,-225.0,2025-07-21 21:13:20,91.0,,-0.0020518410911702,-2.00730759113305,0.0876398475042004,,2.1704801401313527,,
,9272.0,2895.0,6745.0,1545.0,2259.0,3276.0,-234.0,2025-07-21 21:13:22,91.0,,-0.0022918953688345,-2.00763774041443,0.0876591390946671,,1.0274352067200176,,
,9272.0,2896.0,6745.0,1547.0,2273.0,3269.0,-227.0,2025-07-21 21:13:23,92.0,,-0.0021891991645843,-2.0068817273797,0.0876527400470931,,-0.12288831393524899,,
,9269.0,2896.0,6744.0,1546.0,2252.0,3284.0,-231.0,2025-07-21 21:13:24,93.0,,-0.0021545834405159,-2.00678091138662,0.0877172716247242,,-1.2724129086276599,,
,9270.0,2892.0,6742.0,1545.0,2254.0,3296.0,-242.0,2025-07-21 21:13:25,92.0,,-0.0021084477737912,-2.00647679958907,0.0877162804402831,,-2.4127778971813663,,
,9269.0,2893.0,6744.0,1545.0,2255.0,3279.0,-245.0,2025-07-21 21:13:26,92.0,,-0.0021402884288775,-2.00674614725226,0.0877400800983906,,-3.5353226939785984,,
,9269.0,2896.0,6745.0,1547.0,2260.0,3267.0,-266.0,2025-07-21 21:13:26,93.0,,-0.0022066820064928,-2.00652735285474,0.0877319005781277,,-4.631136075333684,,
,9270.0,2895.0,6744.0,1544.0,2254.0,3264.0,-260.0,2025-07-21 21:13:27,93.0,,-0.0020268947610131,-2.00618476536949,0.0877547856337944,,-5.69118629821366,,
,9270.0,2891.0,6745.0,1543.0,2245.0,3277.0,-244.0,2025-07-21 21:13:29,93.0,,-0.0021933738167056,-2.00653069883612,0.0877303416440183,,-6.7065364797952105,,
,9266.0,2894.0,6744.0,1545.0,2254.0,3281.0,-239.0,2025-07-21 21:13:30,93.0,,-0.0022152351231769,-2.00663811380839,0.0877189380910403,,-7.668636318737449,,
,9269.0,2893.0,6746.0,1547.0,2257.0,3288.0,-231.0,2025-07-21 21:13:30,93.0,,-0.002404376387187,-2.00720277006598,0.0877059199043974,,-8.569667846013465,,
,9267.0,2895.0,6747.0,1546.0,2233.0,3290.0,-248.0,2025-07-21 21:13:32,92.0,,-0.0023597638932565,-2.00705358705291,0.0876970470556691,,-9.402912430436562,,
,9267.0,2892.0,6746.0,1545.0,2241.0,3301.0,-245.0,2025-07-21 21:13:33,92.0,,-0.0024367897092109,-2.00630391968775,0.0876910276825051,,-10.163100604768951,,
,9269.0,2895.0,6746.0,1544.0,2266.0,3287.0,-248.0,2025-07-21 21:13:34,92.0,,-0.0023126867751399,-2.00641844320328,0.0877172488438691,,-10.846705697210263,,
,9270.0,2894.0,6747.0,1544.0,2255.0,3270.0,-243.0,2025-07-21 21:13:35,92.0,,-0.0023484861085391,-2.00687992733886,0.0877025498498181,,-11.452146079596572,,
,9272.0,2896.0,6747.0,1546.0,2244.0,3269.0,-263.0,2025-07-21 21:13:36,93.0,,-0.0023345150931046,-2.00681429314192,0.0876590686604856,,-11.979868556153784,,
,9273.0,2896.0,6749.0,1544.0,2263.0,3277.0,-252.0,2025-07-21 21:13:37,93.0,,-0.0021917613032422,-2.00650459611354,0.0876376304627734,,-12.432296921290982,,
,9273.0,2896.0,6749.0,1546.0,2256.0,3274.0,-248.0,2025-07-21 21:13:38,93.0,,-0.0023317806066419,-2.00712983881944,0.0876074309807045,,-12.813644380388588,,
,9273.0,2897.0,6751.0,1543.0,2258.0,3258.0,-234.0,2025-07-21 21:13:39,94.0,,-0.0022640647348092,-2.00684268426358,0.087591751355529,,-13.12960426904186,,
,9278.0,2899.0,6751.0,1545.0,2256.0,3274.0,-248.0,2025-07-21 21:13:39,94.0,,-0.0023152424875391,-2.00696716015545,0.0876397667862884,,-13.386947308947239,,
,9276.0,2899.0,6752.0,1546.0,2240.0,3282.0,-244.0,2025-07-21 21:13:41,94.0,,-0.0022337438443394,-2.00739639525832,0.0876248815947244,,-13.593063038688877,,
,9278.0,2902.0,6751.0,1545.0,2238.0,3288.0,-234.0,2025-07-21 21:13:42,94.0,,-0.0022256822522605,-2.00698022806913,0.0876464728259181,,-13.7554870423287,,
,9279.0,2901.0,6753.0,1547.0,2242.0,3298.0,-253.0,2025-07-21 21:13:43,94.0,,-0.0020968191860139,-2.00675956885129,0.0876094338503579,,-13.881454371229278,,
,9282.0,2902.0,6756.0,1548.0,2236.0,3277.0,-217.0,2025-07-21 21:13:44,93.0,,-0.0020286245443717,-2.00665655429136,0.0876110449614253,,-13.977513886274004,,
,9286.0,2904.0,6756.0,1547.0,2243.0,3279.0,-214.0,2025-07-21 21:13:44,92.0,,-0.0020217377061122,-2.00663503470652,0.0876426886248618,,-14.049229182916918,,
,9285.0,2904.0,6759.0,1549.0,2231.0,3276.0,-236.0,2025-07-21 21:13:46,92.0,,-0.0018261018291218,-2.0059319570128,0.0876788643313567,,-14.10098063441767,,
,9286.0,2905.0,6759.0,1550.0,2228.0,3273.0,-228.0,2025-07-21 21:13:47,91.0,,-0.0017046817925631,-2.00559803668296,0.0876635391981889,,-14.13587138161575,,
,9290.0,2906.0,6765.0,1551.0,2246.0,3269.0,-210.0,2025-07-21 21:13:47,90.0,,-0.0016295128255929,-2.00606123886281,0.0876663414569644,,-14.155729077231587,,
,9290.0,2908.0,6765.0,1551.0,2251.0,3279.0,-229.0,2025-07-21 21:13:49,90.0,,-0.0017246515765276,-2.00584717377565,0.0876572798725177,,-14.161185762938645,,
,9289.0,2905.0,6768.0,1550.0,2256.0,3293.0,-213.0,2025-07-21 21:13:50,90.0,,-0.0016269887487523,-2.00579604742694,0.0876157710843001,,-14.151811289519285,,
,9291.0,2907.0,6771.0,1552.0,2247.0,3296.0,-215.0,2025-07-21 21:13:50,90.0,,-0.0014537832512765,-2.00577208973415,0.0876339975894351,,-14.126272410160478,,
,9297.0,2909.0,6774.0,1553.0,2253.0,3288.0,-214.0,2025-07-21 21:13:51,90.0,,-0.0015146489819255,-2.00531009526747,0.0876214273066866,,-14.082491384652965,,
,9295.0,2909.0,6775.0,1554.0,2238.0,3294.0,-216.0,2025-07-21 21:13:53,90.0,,-0.0013764862712699,-2.00488559323118,0.087633748733763,,-14.017784949536402,,
,9296.0,2912.0,6779.0,1553.0,2259.0,3286.0,-233.0,2025-07-21 21:13:53,90.0,,-0.0014212924233929,-2.00485579847787,0.0876249647899883,,-13.928975280443195,,
,9296.0,2909.0,6779.0,1554.0,2277.0,3270.0,-223.0,2025-07-21 21:13:55,91.0,,-0.0013534115323297,-2.00426550425348,0.0876239211741401,,-13.81247599838008,,
2025-07-21 21:11:31,9300.0,2910.0,6783.0,1557.0,2233.0,3273.0,-218.0,2025-07-21 21:13:56,91.0,2025/07/21 09:11:31 PM,-0.0012953410353698,-2.00407814369008,0.0876782921345052,,-13.664365163965583,,
,9300.0,2913.0,6787.0,1556.0,2229.0,3261.0,-235.0,2025-07-21 21:13:57,91.0,,-0.0012445569713221,-2.00333223344834,0.0877159734162926,,-13.480461638122462,,
,9304.0,2913.0,6790.0,1558.0,2226.0,3274.0,-221.0,2025-07-21 21:13:58,91.0,,-0.0012715142487786,-2.00313081910754,0.0877111313577379,,-13.256420864357084,,
,9301.0,2913.0,6792.0,1558.0,2259.0,3271.0,-238.0,2025-07-21 21:13:59,91.0,,-0.0012622877858375,-2.0029517873393,0.0877491894063876,,-12.987861941056705,,
,9304.0,2913.0,6795.0,1558.0,2248.0,3291.0,-244.0,2025-07-21 21:13:59,91.0,,-0.0011530795532037,-2.00261517316715,0.0877855417196149,,-12.670531245814983,,
,9307.0,2915.0,6798.0,1562.0,2269.0,3265.0,-213.0,2025-07-21 21:14:00,91.0,,-0.00123490056718,-2.00290155930673,0.08777585704578,,-12.30050026894186,,
,9306.0,2914.0,6801.0,1561.0,2262.0,3276.0,-230.0,2025-07-21 21:14:02,90.0,,-0.0012190506204464,-2.00258245874352,0.0877706746159303,,-11.874387761353788,,
,9308.0,2913.0,6805.0,1560.0,2255.0,3283.0,-244.0,2025-07-21 21:14:03,91.0,,-0.0013411758906977,-2.00317975188714,0.0877463916128972,,-11.389589561499736,,
,9308.0,2914.0,6804.0,1558.0,2274.0,3290.0,-247.0,2025-07-21 21:14:03,91.0,,-0.0017704214640071,-2.00508892295614,0.0876928792931251,,-10.844494427523836,,
,9310.0,2915.0,6811.0,1558.0,2263.0,3314.0,-247.0,2025-07-21 21:14:05,92.0,,-0.0021334235675746,-2.00647317606673,0.0875982270990182,,-10.23866212667893,,
,9312.0,2916.0,6814.0,1561.0,2248.0,3319.0,-264.0,2025-07-21 21:14:05,93.0,,-0.0022936506418046,-2.00762252570724,0.0876073605171326,,-9.572942171239434,,
,9310.0,2916.0,6819.0,1563.0,2257.0,3324.0,-258.0,2025-07-21 21:14:06,93.0,,-0.0025500640900628,-2.00856708994031,0.0876414065033431,,-8.84951827184818,,
,9307.0,2911.0,6815.0,1561.0,2274.0,3294.0,-246.0,2025-07-21 21:14:08,93.0,,-0.002367716475986,-2.00736943808177,0.0876763524895043,,-8.071873389764097,,
,9306.0,2907.0,6818.0,1562.0,2241.0,3283.0,-266.0,2025-07-21 21:14:09,93.0,,-0.0023413357737484,-2.00697862752526,0.0877500767765636,,-7.244680237289059,,
,9298.0,2902.0,6819.0,1562.0,2255.0,3284.0,-248.0,2025-07-21 21:14:10,93.0,,-0.0022538749617631,-2.00605493785715,0.0877729486703063,,-6.373629408756409,,
,9291.0,2900.0,6816.0,1563.0,2237.0,3288.0,-239.0,2025-07-21 21:14:11,92.0,,-0.0021880748680667,-2.00560189293747,0.0878022848354968,,-5.465211275656851,,
,9292.0,2895.0,6817.0,1559.0,2248.0,3255.0,-238.0,2025-07-21 21:14:12,91.0,,-0.0020640730876799,-2.00543167534568,0.0878311580290563,,-4.526469536160126,,
,9281.0,2890.0,6814.0,1559.0,2252.0,3263.0,-222.0,2025-07-21 21:14:12,90.0,,-0.0019268622590323,-2.00555970861183,0.0878478024433785,,-3.564745259277917,,
,9276.0,2885.0,6810.0,1554.0,2251.0,3259.0,-225.0,2025-07-21 21:14:14,89.0,,-0.0019702538862069,-2.00506360827871,0.0878529998190177,,-2.5874307888979122,,
,9270.0,2881.0,6810.0,1556.0,2244.0,3261.0,-237.0,2025-07-21 21:14:15,89.0,,-0.0018936545476229,-2.00473418217115,0.0878714930829374,,-1.6017524016715181,,
,9262.0,2881.0,6804.0,1552.0,2240.0,3270.0,-243.0,2025-07-21 21:14:16,88.0,,-0.0019618343851244,-2.00503238395414,0.0878562081924467,,-0.6145981523345994,,
,9257.0,2876.0,6799.0,1548.0,2228.0,3272.0,-208.0,2025-07-21 21:14:17,88.0,,-0.0019374415374965,-2.00419234840164,0.0878942075901217,,0.36759797790454396,,
,9255.0,2875.0,6794.0,1548.0,2229.0,3288.0,-212.0,2025-07-21 21:14:17,88.0,,-0.0017198701923888,-2.00433582974997,0.087929917193613,,1.3389127727615378,,
,9250.0,2876.0,6793.0,1547.0,2234.0,3296.0,-213.0,2025-07-21 21:14:19,88.0,,-0.0017834314434782,-2.00401153568339,0.0879200614025737,,2.293938289960327,,
,9246.0,2878.0,6789.0,1547.0,2247.0,3290.0,-214.0,2025-07-21 21:14:20,88.0,,-0.0016967611437858,-2.00369474081678,0.0879653438358916,,3.2277498108766607,,
,9242.0,2876.0,6786.0,1542.0,2235.0,3265.0,-219.0,2025-07-21 21:14:20,89.0,,-0.0016167168631393,-2.00389392284492,0.0879197308004615,,4.13585746627673,,
,9244.0,2878.0,6781.0,1540.0,2264.0,3288.0,-220.0,2025-07-21 21:14:22,89.0,,-0.0015165934576384,-2.00365829806353,0.0879078482111695,,5.014161233161203,,
,9240.0,2881.0,6780.0,1541.0,2241.0,3280.0,-223.0,2025-07-21 21:14:23,88.0,,-0.0014749211553332,-2.00361716837954,0.0879704978101961,,5.858924488609424,,
,9242.0,2882.0,6780.0,1540.0,2239.0,3280.0,-233.0,2025-07-21 21:14:23,88.0,,-0.0015102135289357,-2.00348181046928,0.087959576065521,,6.666775233160569,,
,9241.0,2884.0,6774.0,1538.0,2250.0,3279.0,-230.0,2025-07-21 21:14:25,89.0,,-0.0015972837518333,-2.00384374056386,0.0879695370058728,,7.434738485149781,,
,9243.0,2883.0,6773.0,1536.0,2231.0,3283.0,-222.0,2025-07-21 21:14:26,89.0,,-0.0017599934688614,-2.00516107982182,0.0879361712623001,,8.160298864990793,,
,9242.0,2888.0,6773.0,1538.0,2239.0,3289.0,-224.0,2025-07-21 21:14:27,90.0,,-0.0019821669777087,-2.00614886424128,0.0879613152840806,,8.841488351027591,,
,9244.0,2893.0,6775.0,1539.0,2231.0,3300.0,-237.0,2025-07-21 21:14:28,90.0,,-0.0021146379713412,-2.00598329508171,0.0879064352682847,,9.476989646873468,,
,9247.0,2892.0,6775.0,1538.0,2233.0,3296.0,-227.0,2025-07-21 21:14:29,90.0,,-0.0019901438566487,-2.00667266026902,0.0879417360779395,,10.066240812152447,,
,9244.0,2891.0,6775.0,1540.0,2258.0,3300.0,-243.0,2025-07-21 21:14:30,90.0,,-0.0021052761184264,-2.00671758635721,0.0878968047526403,,10.609523592590145,,
,9246.0,2894.0,6774.0,1538.0,2268.0,3283.0,-243.0,2025-07-21 21:14:30,89.0,,-0.002151592291805,-2.00725678484122,0.0878829776775768,,11.108018382850785,,
,9251.0,2894.0,6776.0,1539.0,2248.0,3287.0,-199.0,2025-07-21 21:14:32,89.0,,-0.0021229046167029,-2.0070867026047,0.0878571709483945,,11.56381371916493,,
,9253.0,2896.0,6780.0,1541.0,2236.0,3288.0,-207.0,2025-07-21 21:14:32,89.0,,-0.0021292840224661,-2.00679845378507,0.0878462886997593,,11.979865950292291,,
,9257.0,2899.0,6779.0,1541.0,2241.0,3266.0,-227.0,2025-07-21 21:14:33,89.0,,-0.002050995923947,-2.00621473080836,0.0878368033046772,,12.35991154842495,,
,9258.0,2898.0,6778.0,1540.0,2251.0,3294.0,-220.0,2025-07-21 21:14:35,90.0,,-0.0019227093366857,-2.00585762890063,0.0878348680202895,,12.70833683359848,,
,9259.0,2901.0,6779.0,1540.0,2250.0,3284.0,-233.0,2025-07-21 21:14:36,90.0,,-0.0020144340326035,-2.00568242127152,0.0878182279334009,,13.030007060300699,,
,9264.0,2903.0,6784.0,1543.0,2232.0,3280.0,-223.0,2025-07-21 21:14:36,91.0,,-0.0019377011744918,-2.00581028229445,0.0878788800311571,,13.330051778436857,,
,9269.0,2905.0,6785.0,1543.0,2234.0,3285.0,-227.0,2025-07-21 21:14:38,92.0,,-0.0018469707360139,-2.00512145608026,0.0878691559742758,,13.613600304297785,,
,9265.0,2901.0,6787.0,1541.0,2248.0,3286.0,-222.0,2025-07-21 21:14:38,93.0,,-0.0018630950484045,-2.00544670297726,0.0879185273932568,,13.885462541995862,,
,9268.0,2904.0,6788.0,1545.0,2251.0,3277.0,-207.0,2025-07-21 21:14:39,93.0,,-0.0019300105715724,-2.00518097507106,0.0879328149634678,,14.149756170852443,,
,9271.0,2905.0,6786.0,1542.0,2238.0,3265.0,-206.0,2025-07-21 21:14:41,93.0,,-0.0018323375344977,-2.00504591208675,0.0880270081472975,,14.409489630379452,,
,9272.0,2905.0,6790.0,1543.0,2245.0,3272.0,-205.0,2025-07-21 21:14:42,92.0,,-0.0017860574035947,-2.004801843577,0.0880643866351895,,14.666119600156017,,
,9267.0,2904.0,6791.0,1542.0,2251.0,3274.0,-213.0,2025-07-21 21:14:43,92.0,,-0.0016792341560819,-2.00469975765613,0.088068817812832,,14.919110768101508,,
,9270.0,2904.0,6791.0,1543.0,2230.0,3269.0,-211.0,2025-07-21 21:14:44,92.0,,-0.0016359293031224,-2.00447249465842,0.0881076725189054,,15.165534182058215,,
,9271.0,2903.0,6796.0,1542.0,2236.0,3279.0,-187.0,2025-07-21 21:14:44,93.0,,-0.0016939968088572,-2.00444979501827,0.0881364431816348,,15.399747861768288,,
,9270.0,2904.0,6795.0,1544.0,2245.0,3293.0,-193.0,2025-07-21 21:14:46,93.0,,-0.0016603861762915,-2.00399781620498,0.0882063352231592,,15.61320841226889,,
,9270.0,2903.0,6795.0,1542.0,2239.0,3286.0,-206.0,2025-07-21 21:14:46,94.0,,-0.0015574541065482,-2.00377026006393,0.0882189090762188,,15.794463357010999,,
,9268.0,2902.0,6795.0,1541.0,2254.0,3281.0,-217.0,,,,-0.0016519986563907,-2.0038363793474,0.0882464456734378,,15.929369438237982,,
,9269.0,2903.0,6795.0,1544.0,2275.0,3285.0,-234.0,,,,-0.0014453682606314,-2.00358404576693,0.0882441744723076,,16.001571954881992,,
,9271.0,2905.0,6799.0,1542.0,2273.0,3287.0,-241.0,,,,-0.0014474609252143,-2.00403803245926,0.0882912301676206,,15.993264107276616,,
,9270.0,2904.0,6797.0,1540.0,2261.0,3279.0,-249.0,,,,-0.0014725554333787,-2.00394408032783,0.088281262750063,,15.886221546924212,,
,9271.0,2901.0,6796.0,1541.0,2260.0,3257.0,-244.0,,,,-0.0014477060050706,-2.00366135511932,0.0883370296873566,,15.66307376137067,,
,9272.0,2901.0,6798.0,1542.0,2259.0,3268.0,-242.0,,,,-0.0013621660097687,-2.0040060841354,0.0883072905880635,,15.308731990207994,,
,9274.0,2904.0,6798.0,1541.0,2299.0,3271.0,-219.0,,,,-0.0012511503442489,-2.00384150626501,0.0883300631749088,,14.811850520027912,,
,9273.0,2902.0,6797.0,1541.0,2302.0,3263.0,-235.0,,,,-0.0013555773002648,-2.00306344143278,0.0883608020255647,,14.166165814372244,,
,9270.0,2902.0,6801.0,1540.0,2264.0,3275.0,-237.0,,,,-0.0012268317465133,-2.0033026440483,0.0883373030310272,,13.371546535606706,,
,9275.0,2903.0,6799.0,1542.0,2258.0,3305.0,-220.0,,,,-0.0012230332627198,-2.00279610358518,0.0883401488291959,,12.434603116452296,,
,9274.0,2904.0,6799.0,1540.0,2253.0,3328.0,-219.0,,,,-0.0011798776431017,-2.00264036556205,0.0883290231509293,,11.368748164772343,,
,9276.0,2907.0,6801.0,1540.0,2272.0,3326.0,-221.0,,,,-0.0012969108967232,-2.00307160013273,0.088289521250905,,10.193662612683312,,
,9276.0,2904.0,6798.0,1540.0,2256.0,3288.0,-260.0,,,,-0.0013632134829585,-2.00286457461331,0.0882534759319299,,8.934196129541787,,
,9278.0,2907.0,6799.0,1543.0,2261.0,3284.0,-242.0,,,,-0.0012874350071382,-2.00282228702406,0.0882284585978966,,7.618800682515295,,
,9280.0,2908.0,6803.0,1544.0,2254.0,3281.0,-228.0,,,,-0.00147706608697,-2.00263182555214,0.0882368500861752,,6.277651839618531,,
,9284.0,2909.0,6803.0,1543.0,2259.0,3290.0,-236.0,,,,-0.0012733962590028,-2.00266450295485,0.0882613241720392,,4.940646603309292,,
,9282.0,2911.0,6805.0,1543.0,2251.0,3286.0,-226.0,,,,-0.0012156796116931,-2.00226307487115,0.0882605499128473,,3.6354766467769926,,
,9284.0,2911.0,6805.0,1542.0,2250.0,3257.0,-238.0,,,,-0.0011987577017587,-2.00217461875586,0.0882217571391715,,2.385961824983006,,
,9286.0,2910.0,6807.0,1542.0,2269.0,3246.0,-213.0,,,,-0.0011092974585298,-2.0013394305185,0.0882668373552268,,1.2107928174004485,,
,9289.0,2913.0,6811.0,1543.0,2255.0,3251.0,-206.0,,,,-0.0009671244650269,-2.00137468629133,0.0882737008145921,,0.12277843864219495,,
,9289.0,2912.0,6810.0,1544.0,2253.0,3258.0,-199.0,,,,-0.0008255132950744,-2.00093312044104,0.0882987471822482,,-0.8713698320611958,,
,9290.0,2913.0,6814.0,1544.0,2240.0,3264.0,-199.0,,,,-0.0008138985988529,-2.00091055735856,0.088289843975538,,-1.7707464117084633,,
,9291.0,2915.0,6812.0,1544.0,2240.0,3279.0,-213.0,,,,-0.000802009133564,-2.00062061031518,0.0882873600343932,,-2.5795361308367175,,
,9296.0,2916.0,6817.0,1546.0,2246.0,3268.0,-231.0,,,,-0.0007293667448839,-2.0007127363519,0.0883018559496791,,-3.305991801293514,,
,9296.0,2916.0,6818.0,1546.0,2239.0,3267.0,-226.0,,,,-0.000786958999742,-2.00054839387987,0.0883107565774607,,-3.9612346069713373,,
,9296.0,2915.0,6817.0,1547.0,2242.0,3290.0,-224.0,,,,-0.0007099348673676,-2.00055158964698,0.0883535153819957,,-4.55800095604844,,
,9297.0,2916.0,6821.0,1543.0,2236.0,3284.0,-206.0,,,,-0.0006717530558683,-2.00046431693773,0.0883404463224314,,-5.109441530154125,,
,9302.0,2918.0,6825.0,1548.0,2245.0,3290.0,-226.0,,,,-0.0006648226462459,-2.00061151875713,0.0883560133456727,,-5.628056117375166,,
,9304.0,2918.0,6827.0,1551.0,2248.0,3290.0,-229.0,,,,-0.0006329772517193,-2.00098600498088,0.0883517624355342,,-6.1248258483349,,
,9303.0,2920.0,6830.0,1550.0,2249.0,3279.0,-235.0,,,,-0.0006475886172945,-2.00108508521244,0.0883553797453456,,-6.608583168834927,,
,9303.0,2919.0,6830.0,1547.0,2278.0,3266.0,-218.0,,,,-0.0006039811396092,-2.00134175247596,0.0883569942467603,,-7.0856380833440005,,
,9307.0,2920.0,6833.0,1552.0,2249.0,3269.0,-236.0,,,,-0.0007177311774356,-2.0017504067028,0.0883564140318884,,-7.559656861952685,,
,9307.0,2920.0,6836.0,1551.0,2257.0,3259.0,-221.0,,,,-0.0007617743220189,-2.00280168921826,0.088290668894424,,-8.031768629843205,,
,9309.0,2921.0,6837.0,1551.0,2259.0,3248.0,-204.0,,,,-0.0008131812794094,-2.00276352441342,0.088322683199547,,-8.500859204057328,,
,9310.0,2921.0,6839.0,1552.0,2226.0,3254.0,-217.0,,,,-0.0008603555097772,-2.00276368112419,0.0883269151831754,,-8.964002668330181,,
,9309.0,2922.0,6839.0,1553.0,2228.0,3281.0,-242.0,,,,-0.0008609467391342,-2.00298621925157,0.088290507651492,,-9.41697999840369,,
,9310.0,2926.0,6848.0,1556.0,2246.0,3274.0,-237.0,,,,-0.0010353195590579,-2.00282746380049,0.0882704591381527,,-9.854838638763415,,
,9312.0,2926.0,6849.0,1554.0,2235.0,3298.0,-220.0,,,,-0.0010829964614893,-2.00269680983651,0.0882328287021123,,-10.272453424510646,,
,9316.0,2926.0,6847.0,1554.0,2254.0,3301.0,-220.0,,,,-0.0011575215152182,-2.00305437985565,0.0882166600610142,,-10.665053682885171,,
,9314.0,2923.0,6850.0,1554.0,2242.0,3317.0,-220.0,,,,-0.0012203607942858,-2.00325559550334,0.0882360302294021,,-11.028682193993566,,
,9318.0,2926.0,6852.0,1555.0,2234.0,3305.0,-236.0,,,,-0.0012432212119137,-2.00332748384584,0.0882547301446324,,-11.360551081507996,,
,9320.0,2928.0,6854.0,1555.0,2226.0,3301.0,-231.0,,,,-0.001255818841913,-2.00347409950127,0.0881818634987273,,-11.65926200270044,,
,9319.0,2924.0,6858.0,1557.0,2233.0,3295.0,-230.0,,,,-0.001334184294307,-2.00375294866184,0.0881716131250108,,-11.924866495389535,,
,9317.0,2923.0,6859.0,1558.0,2244.0,3263.0,-214.0,,,,-0.0013394874859109,-2.00366490224852,0.088192454340433,,-12.158757022594584,,
,9314.0,2918.0,6855.0,1555.0,2256.0,3262.0,-229.0,,,,-0.0014096360594032,-2.00420687460593,0.0882061144206576,,-12.363397437550422,,
,9312.0,2919.0,6858.0,1556.0,2264.0,3282.0,-237.0,,,,-0.0013939206972335,-2.00469166220115,0.0881649484774213,,-12.54191984484414,,
,9307.0,2910.0,6854.0,1557.0,2260.0,3285.0,-250.0,,,,-0.001475150862532,-2.00455750135693,0.0881312871949264,,-12.697630270115749,,
,9302.0,2907.0,6852.0,1554.0,2252.0,3285.0,-249.0,,,,-0.0016131368257386,-2.00464946454876,0.0881559743953904,,-12.833476049551383,,
,9294.0,2900.0,6848.0,1551.0,2250.0,3276.0,-220.0,,,,-0.0017196281329675,-2.00493274245574,0.0880717741096792,,-12.951532053262925,,
,9290.0,2898.0,6846.0,1553.0,2244.0,3278.0,-212.0,,,,-0.0017857624849076,-2.00553329442633,0.0880373898175763,,-13.052560318609535,,
,9283.0,2895.0,6841.0,1548.0,2264.0,3281.0,-219.0,,,,-0.0017440518260908,-2.00585536552754,0.0879993060932799,,-13.135688898670077,,
,9276.0,2891.0,6838.0,1549.0,2257.0,3266.0,-232.0,,,,-0.0019825037085779,-2.00606420673914,0.0879785594094488,,-13.198241979434565,,
,9266.0,2885.0,6828.0,1542.0,2252.0,3271.0,-212.0,,,,-0.0020081476607061,-2.00707473520845,0.0879208386893476,,-13.235736403151078,,
,9264.0,2885.0,6827.0,1543.0,2248.0,3263.0,-209.0,,,,-0.0022688401218048,-2.00829408128685,0.0878434524971577,,-13.242042068658233,,
,9261.0,2884.0,6824.0,1541.0,2245.0,3248.0,-196.0,,,,-0.0024662298209558,-2.00919405349233,0.0877594153089442,,-13.209688131043777,,
,9255.0,2886.0,6819.0,1538.0,2258.0,3250.0,-213.0,,,,-0.0025869875215014,-2.00949488987856,0.0877479275117951,,-13.130285922871602,,
,9250.0,2884.0,6811.0,1536.0,2253.0,3274.0,-226.0,,,,-0.0027231106690422,-2.00963880627264,0.0877183088780097,,-12.995033755053438,,
,9245.0,2885.0,6806.0,1535.0,2260.0,3253.0,-244.0,,,,-0.0027105974400799,-2.00984496179989,0.0876499538271005,,-12.795266848738745,,
,9246.0,2886.0,6803.0,1531.0,2261.0,3275.0,-252.0,,,,-0.0028958921494422,-2.01018918737111,0.087616431068375,,-12.523015487263812,,
,9246.0,2888.0,6801.0,1532.0,2257.0,3305.0,-235.0,,,,-0.002941847610293,-2.01111357176566,0.0876121800234777,,-12.171534965152457,,
,9243.0,2889.0,6797.0,1529.0,2250.0,3295.0,-236.0,,,,-0.0029380247866472,-2.01121962209662,0.087567909016166,,-11.735772548930452,,
,9242.0,2888.0,6795.0,1528.0,2230.0,3276.0,-247.0,,,,-0.003090854243489,-2.01188883199498,0.0875871544952534,,-11.212740759951954,,
,9243.0,2891.0,6788.0,1527.0,2223.0,3283.0,-248.0,,,,-0.0030408266443065,-2.01257617433609,0.0875226121318053,,-10.601773700266738,,
,9247.0,2894.0,6787.0,1526.0,2230.0,3269.0,-252.0,,,,-0.0033118241596811,-2.01306260325645,0.0874761790965802,,-9.904653393160444,,
,9244.0,2894.0,6788.0,1526.0,2240.0,3261.0,-266.0,,,,-0.0032992148408072,-2.01364493844725,0.0874140097236056,,-9.12560430959971,,
,9248.0,2895.0,6785.0,1524.0,2261.0,3268.0,-270.0,,,,-0.0032371869510584,-2.01386408385422,0.0874049143050101,,-8.271163857926705,,
,9247.0,2896.0,6783.0,1523.0,2269.0,3271.0,-257.0,,,,-0.0033699063671863,-2.01478756216537,0.0873497044605639,,-7.349942752577178,,
,9251.0,2898.0,6783.0,1523.0,2268.0,3277.0,-265.0,,,,-0.0034664429832955,-2.01537051691823,0.0872809406465789,,-6.372291882188627,,
,9252.0,2901.0,6782.0,1523.0,2259.0,3277.0,-245.0,,,,-0.0035109855747752,-2.01630984611391,0.0873003042074249,,-5.349893694397624,,
,9256.0,2900.0,6782.0,1526.0,2247.0,3274.0,-243.0,,,,-0.003603503993271,-2.01633118052477,0.0872915740939062,,-4.295298844589199,,
,9257.0,2901.0,6778.0,1522.0,2275.0,3271.0,-254.0,,,,-0.0038320184480962,-2.01691645716712,0.0872600331107635,,-3.2214336442412623,,
,9258.0,2904.0,6780.0,1523.0,2242.0,3295.0,-235.0,,,,-0.0041129102474648,-2.01827737155092,0.0872321741343108,,-2.1411086588728176,,
,9260.0,2906.0,6783.0,1525.0,2267.0,3288.0,-228.0,,,,-0.0041934215166689,-2.01891441482892,0.0872651556515786,,-1.066560660660119,,
,9262.0,2906.0,6781.0,1524.0,2272.0,3277.0,-220.0,,,,-0.0043435659776243,-2.02016302167148,0.0872051325729949,,-0.00905752609700625,,
,9265.0,2907.0,6782.0,1522.0,2261.0,3275.0,-235.0,,,,-0.0044965270957704,-2.02092914975321,0.0871840168040842,,1.021410819700618,,
,9266.0,2905.0,6783.0,1523.0,2253.0,3264.0,-254.0,,,,-0.0047570170179858,-2.02205040840298,0.0871347753340023,,2.0163410750777366,,
2025-07-21 21:11:32,9268.0,2909.0,6783.0,1524.0,2244.0,3270.0,-229.0,,,2025/07/21 09:11:32 PM,-0.0048836703914396,-2.02241359065235,0.0871366762516133,,2.9688201555985785,,
,9270.0,2908.0,6782.0,1522.0,2252.0,3269.0,-213.0,,,,-0.0050207417042473,-2.02340901374267,0.08713499739798,,3.873528694990245,,
,9266.0,2906.0,6784.0,1521.0,2241.0,3252.0,-215.0,,,,-0.0051410495784706,-2.02431006713863,0.0870762847614728,,4.726658640135459,,
,9269.0,2904.0,6783.0,1523.0,2221.0,3291.0,-222.0,,,,-0.0052445445970834,-2.02463423129155,0.0870347941740094,,5.525767316087309,,
,9269.0,2906.0,6782.0,1522.0,2221.0,3301.0,-204.0,,,,-0.0052417854540582,-2.02557140531738,0.0870019595170037,,6.269596616697029,,
,9272.0,2908.0,6783.0,1523.0,2237.0,3283.0,-170.0,,,,-0.0053317201157544,-2.02650198077799,0.0869479198279595,,6.957888883157121,,
,9269.0,2907.0,6782.0,1522.0,2234.0,3282.0,-191.0,,,,-0.0053786036634688,-2.0268921046295,0.0869251063663758,,7.591229026348058,,
,9268.0,2904.0,6777.0,1520.0,2222.0,3273.0,-200.0,,,,-0.0055807441005063,-2.02793063529394,0.0868747389769353,,8.170935100682442,,
,9269.0,2903.0,6774.0,1520.0,2236.0,3281.0,-190.0,,,,-0.0057178597748642,-2.02869207669386,0.0868312087881423,,8.699008215087071,,
,9269.0,2905.0,6777.0,1521.0,2238.0,3275.0,-175.0,,,,-0.0057916256284875,-2.02917680060006,0.0867867032738594,,9.178139690452486,,
,9268.0,2905.0,6774.0,1520.0,2235.0,3275.0,-163.0,,,,-0.0057238418356413,-2.03025336570075,0.0867245306940476,,9.611760496030346,,
,9267.0,2902.0,6775.0,1520.0,2227.0,3270.0,-190.0,,,,-0.0057746413403485,-2.03118422882919,0.0867160663987269,,10.00410607794033,,
,9269.0,2903.0,6775.0,1519.0,2243.0,3266.0,-194.0,,,,-0.0057360926504434,-2.03145331152438,0.0866950795034991,,10.360259845973532,,
,9268.0,2904.0,6773.0,1518.0,2238.0,3256.0,-212.0,,,,-0.0058148623790885,-2.03189013327539,0.0866440511834083,,10.686133090360778,,
,9267.0,2905.0,6776.0,1518.0,2243.0,3263.0,-237.0,,,,-0.0059035033517538,-2.03255008954951,0.0866663362472689,,10.988340723146427,,
,9267.0,2903.0,6772.0,1519.0,2247.0,3278.0,-244.0,,,,-0.0059530320833709,-2.03263828509365,0.0865914040708988,,11.273942621629425,,
,9267.0,2904.0,6772.0,1513.0,2224.0,3284.0,-228.0,,,,-0.0057979362376689,-2.03344168250213,0.0865761537680288,,11.55003891981902,,
,9270.0,2906.0,6773.0,1516.0,2243.0,3307.0,-221.0,,,,-0.0058072824256205,-2.03397501007765,0.0865632013858724,,11.823231474539023,,
,9273.0,2907.0,6776.0,1520.0,2266.0,3286.0,-222.0,,,,-0.0056868169714061,-2.03429509707972,0.0865256867227396,,12.098988404468336,,
,9274.0,2907.0,6774.0,1518.0,2257.0,3283.0,-221.0,,,,-0.0057097721844435,-2.03401279806178,0.0865008868967549,,12.380969187152198,,
,9272.0,2909.0,6775.0,1514.0,2257.0,3285.0,-222.0,,,,-0.0056326266628158,-2.03453752030948,0.086489686769218,,12.670380709115976,,
,9275.0,2910.0,6776.0,1517.0,2243.0,3265.0,-229.0,,,,-0.0055750775822793,-2.03496938208305,0.0864205975865687,,12.965438449340365,,
,9278.0,2910.0,6777.0,1518.0,2261.0,3272.0,-215.0,,,,-0.0055597595527844,-2.03493445777564,0.0864065911259339,,13.261001803144776,,
,9279.0,2910.0,6778.0,1519.0,2251.0,3274.0,-212.0,,,,-0.0055533107562165,-2.03532253721996,0.0863038430693016,,13.548439355632569,,
,9281.0,2912.0,6780.0,1518.0,2248.0,3279.0,-216.0,,,,-0.0056697624518483,-2.03533063883194,0.0862955714953532,,13.815760300433634,,
,9278.0,2912.0,6777.0,1517.0,2243.0,3297.0,-237.0,,,,-0.0056097746531699,-2.03547021997718,0.0862191688543875,,14.04802459855934,,
,9284.0,2915.0,6781.0,1516.0,2247.0,3287.0,-227.0,,,,-0.005490138239873,-2.03595490342371,0.0862170482015224,,14.228019683795992,,
,9288.0,2915.0,6783.0,1521.0,2250.0,3259.0,-230.0,,,,-0.0055681102317456,-2.03656755254809,0.0862190298277635,,14.337168064629736,,
,9285.0,2915.0,6785.0,1520.0,2245.0,3262.0,-239.0,,,,-0.0057412972942602,-2.03697403770737,0.0861589288480327,,14.356610127416188,,
,9288.0,2916.0,6784.0,1517.0,2215.0,3267.0,-221.0,,,,-0.0057789741433756,-2.03683509410999,0.0862120796130232,,14.268391466147985,,
,9293.0,2915.0,6788.0,1522.0,2229.0,3261.0,-211.0,,,,-0.0057636789631281,-2.03746963510389,0.0860042664823533,,14.056674924107485,,
,9290.0,2916.0,6791.0,1520.0,2223.0,3261.0,-200.0,,,,-0.0058899615776058,-2.03755829952008,0.0859776184601806,,13.708893707186455,,
,9293.0,2917.0,6790.0,1521.0,2219.0,3263.0,-201.0,,,,-0.0058551106039591,-2.03799580956114,0.0860169602360274,,13.216762329530699,,
,9293.0,2918.0,6793.0,1520.0,2237.0,3271.0,-200.0,,,,-0.005992380154394,-2.03846766150752,0.0860406798312828,,12.57706656706262,,
,9296.0,2917.0,6793.0,1521.0,2237.0,3283.0,-211.0,,,,-0.0060433782390806,-2.03852724611199,0.0860268482443261,,11.792163042214332,,
,9300.0,2918.0,6797.0,1525.0,2241.0,3257.0,-200.0,,,,-0.0060413586033332,-2.03926359414804,0.0860093302257672,,10.870134741510396,,
,9299.0,2919.0,6801.0,1523.0,2236.0,3274.0,-203.0,,,,-0.0060514940236842,-2.03909423388927,0.0859012341927859,,9.824571101826027,,
,9302.0,2920.0,6803.0,1525.0,2229.0,3290.0,-194.0,,,,-0.0062174781826235,-2.03958380148389,0.08588660925451,,8.673969725164858,,
,9305.0,2919.0,6802.0,1521.0,2214.0,3285.0,-182.0,,,,-0.0062509618955373,-2.04014272250045,0.0858267563549965,,7.44078944361505,,
,9302.0,2921.0,6806.0,1524.0,2226.0,3285.0,-202.0,,,,-0.0062109685607088,-2.04049898235846,0.0859248294635139,,6.1502178467978394,,
,9309.0,2921.0,6807.0,1527.0,2235.0,3285.0,-211.0,,,,-0.0064335436366406,-2.04122713693983,0.085695002767244,,4.828745963579024,,
,9307.0,2920.0,6808.0,1526.0,2243.0,3291.0,-212.0,,,,-0.0064753072304048,-2.04156214500562,0.0857279232503426,,3.5026645553960454,,
,9307.0,2921.0,6811.0,1526.0,2233.0,3304.0,-207.0,,,,-0.0064990921156387,-2.04176529884435,0.085658816795934,,2.196607872868718,,
,9310.0,2924.0,6814.0,1526.0,2238.0,3297.0,-205.0,,,,-0.0065021367875037,-2.04252795028698,0.0856172406757644,,0.9322700016485995,,
,9313.0,2925.0,6815.0,1527.0,2226.0,3288.0,-187.0,,,,-0.0064251681596991,-2.04271769676212,0.0855457749818459,,-0.2725956447078562,,
,9314.0,2923.0,6819.0,1527.0,2235.0,3290.0,-190.0,,,,-0.0064567582078333,-2.04353686621276,0.0854421838600653,,-1.404812121385591,,
,9313.0,2926.0,6821.0,1528.0,2258.0,3280.0,-205.0,,,,-0.0063262753896374,-2.04359696893217,0.0854269686065624,,-2.4560089578497655,,
,9313.0,2923.0,6826.0,1527.0,2244.0,3247.0,-209.0,,,,-0.0062688521422046,-2.04430713574579,0.0854266980496638,,-3.422450419870973,,
,9319.0,2926.0,6826.0,1529.0,2221.0,3257.0,-215.0,,,,-0.0061988300123794,-2.04388547163626,0.0853519172078483,,-4.304508011419295,,
,9317.0,2926.0,6831.0,1532.0,2245.0,3275.0,-214.0,,,,-0.0058897558023808,-2.04328459577173,0.0854348629455213,,-5.105856438784334,,
,9322.0,2927.0,6833.0,1530.0,2246.0,3284.0,-207.0,,,,-0.0058247240177996,-2.04308318449478,0.0854220400453858,,-5.832494396883873,,
,9323.0,2926.0,6832.0,1529.0,2237.0,3267.0,-199.0,,,,-0.0056575636387439,-2.04401679477412,0.0854339077147984,,-6.491701927699087,,
,9324.0,2929.0,6836.0,1531.0,2240.0,3276.0,-212.0,,,,-0.0056249021639646,-2.0441355886759,0.08539801333166,,-7.091044639472812,,
,9324.0,2927.0,6835.0,1530.0,2236.0,3283.0,-201.0,,,,-0.0057032202393415,-2.04525128693811,0.0852479587939753,,-7.6375222204873054,,
,9326.0,2926.0,6836.0,1532.0,2234.0,3283.0,-197.0,,,,-0.0056286456778324,-2.04523041330556,0.0852214140091309,,-8.136935969279662,,
,9323.0,2926.0,6837.0,1532.0,2256.0,3316.0,-203.0,,,,-0.0057004161792372,-2.04598153786111,0.0852381126252814,,-8.593520037178251,,
,9324.0,2923.0,6838.0,1532.0,2258.0,3337.0,-188.0,,,,-0.0056333402482644,-2.04675740226571,0.0851981733408151,,-9.009846942564549,,
,9322.0,2920.0,6839.0,1530.0,2254.0,3323.0,-202.0,,,,-0.0056672195155298,-2.04659128895222,0.0852043090526732,,-9.38698373423462,,
,9316.0,2916.0,6834.0,1531.0,2267.0,3317.0,-193.0,,,,-0.0056307571080101,-2.04741220821464,0.0851025631171005,,-9.724846032271499,,
,9309.0,2908.0,6836.0,1529.0,2252.0,3315.0,-192.0,,,,-0.0056920322982549,-2.04806947895971,0.0850716299947406,,-10.022678058004871,,
,9302.0,2903.0,6831.0,1528.0,2247.0,3308.0,-196.0,,,,-0.0055978450915679,-2.04895657123653,0.085051151468233,,-10.279580478414593,,
,9297.0,2900.0,6827.0,1524.0,2247.0,3294.0,-181.0,,,,-0.0056146409707413,-2.04924239574017,0.0848866776220466,,-10.495013589309726,,
,9292.0,2897.0,6825.0,1523.0,2232.0,3292.0,-175.0,,,,-0.005671756541554,-2.04953534968638,0.0850176156280107,,-10.669217251209556,,
,9281.0,2893.0,6818.0,1524.0,2228.0,3273.0,-174.0,,,,-0.0054878621507914,-2.04941070215756,0.0850542478491485,,-10.803506626070629,,
,9277.0,2886.0,6812.0,1518.0,2255.0,3259.0,-161.0,,,,-0.0051697740179078,-2.04837567304167,0.0850653632050264,,-10.900420873036941,,
,9269.0,2884.0,6807.0,1517.0,2254.0,3255.0,-172.0,,,,-0.0047926199811707,-2.04790555973726,0.0851640321766119,,-10.963718693616588,,
,9262.0,2883.0,6799.0,1514.0,2241.0,3251.0,-179.0,,,,-0.0046653109483071,-2.0480312894385,0.0851099541668515,,-10.998228949304586,,
,9257.0,2881.0,6789.0,1512.0,2226.0,3249.0,-195.0,,,,-0.0044893684426303,-2.04863322944941,0.0849917100440881,,-11.00957592415551,,
,9252.0,2880.0,6784.0,1508.0,2226.0,3267.0,-210.0,,,,-0.0043753444069805,-2.04930464176653,0.0850663008738454,,-11.003806893331143,,
,9246.0,2882.0,6777.0,1508.0,2245.0,3289.0,-179.0,,,,-0.0043079575280015,-2.05003267970747,0.0850549797569929,,-10.98695438507964,,
,9247.0,2881.0,6771.0,1506.0,2248.0,3299.0,-194.0,,,,-0.0042935592294422,-2.04970080568848,0.0849574927985619,,-10.964566939528869,,
,9248.0,2884.0,6771.0,1504.0,2225.0,3280.0,-198.0,,,,-0.0042405063957686,-2.05031117621584,0.0848948747304509,,-10.941240748045002,,
,9245.0,2883.0,6763.0,1505.0,2239.0,3283.0,-192.0,,,,-0.0040886827187844,-2.05075657281815,0.0849691976442359,,-10.920181540617659,,
,9241.0,2882.0,6757.0,1499.0,2239.0,3296.0,-182.0,,,,-0.0041125480648951,-2.05074589025675,0.084961131739365,,-10.90282331733729,,
,9244.0,2884.0,6753.0,1498.0,2251.0,3286.0,-190.0,,,,-0.0040124267907137,-2.05134644860051,0.0849395757894494,,-10.888529473198782,,
,9244.0,2887.0,6747.0,1502.0,2254.0,3260.0,-201.0,,,,-0.0041471529283037,-2.05180883167996,0.0848433454190868,,-10.874402474605636,,
,9248.0,2889.0,6746.0,1500.0,2248.0,3265.0,-210.0,,,,-0.0040857864083605,-2.05168794150927,0.0848933181043344,,-10.855228639497646,,
,9248.0,2888.0,6745.0,1495.0,2251.0,3304.0,-221.0,,,,-0.0041282111675703,-2.05278097396744,0.0848200120722191,,-10.823582128397623,,
,9249.0,2889.0,6738.0,1497.0,2261.0,3298.0,-222.0,,,,-0.0042386592112844,-2.05321868561292,0.084719455971747,,-10.770105011125873,,
,9253.0,2890.0,6735.0,1497.0,2288.0,3297.0,-214.0,,,,-0.0043819079871309,-2.05365165676197,0.0846881806691094,,-10.683967695072756,,
,9256.0,2894.0,6732.0,1497.0,2274.0,3278.0,-209.0,,,,-0.0045926749643285,-2.05420897577179,0.0846183207282377,,-10.553496998109862,,
,9257.0,2893.0,6728.0,1497.0,2263.0,3283.0,-211.0,,,,-0.0046440997878778,-2.05482704551438,0.0846115945983732,,-10.366939754237126,,
,9257.0,2896.0,6722.0,1494.0,2290.0,3295.0,-194.0,,,,-0.004806166552196,-2.05485319864415,0.0844946973351561,,-10.11331069145561,,
,9260.0,2896.0,6720.0,1496.0,2275.0,3267.0,-199.0,,,,-0.0048819389538038,-2.05558882444768,0.0844782161201327,,-9.783257110702584,,
,9262.0,2895.0,6712.0,1494.0,2262.0,3283.0,-202.0,,,,-0.0048253394747068,-2.05627934194809,0.0844905427359167,,-9.369862052037432,,
,9264.0,2898.0,6709.0,1496.0,2248.0,3291.0,-205.0,,,,-0.0048169267426002,-2.05726013527585,0.0844064977281256,,-8.869304374619645,,
,9259.0,2896.0,6704.0,1494.0,2259.0,3304.0,-185.0,,,,-0.0048338435816815,-2.05812716652207,0.0844710882672041,,-8.281300582600567,,
,9262.0,2896.0,6698.0,1493.0,2227.0,3294.0,-171.0,,,,-0.0048482133096915,-2.05818962810452,0.0843406362427046,,-7.60927076111684,,
,9264.0,2898.0,6696.0,1495.0,2219.0,3275.0,-191.0,,,,-0.0048302322034904,-2.05905684485294,0.0844361008259261,,-6.860199158258182,,
,9263.0,2898.0,6694.0,1492.0,2226.0,3265.0,-186.0,,,,-0.0049114831490666,-2.06028833026321,0.0842540750242766,,-6.044195045757082,,
,9261.0,2895.0,6687.0,1492.0,2227.0,3262.0,-171.0,,,,-0.0048109223886096,-2.06042700368314,0.0842900745019039,,-5.173795040270714,,
,9261.0,2894.0,6681.0,1491.0,2224.0,3272.0,-156.0,,,,-0.0049056226810875,-2.06111468147684,0.084150974472295,,-4.2630773513335,,
,9264.0,2896.0,6676.0,1491.0,2218.0,3268.0,-157.0,,,,-0.0049986875890295,-2.06143102831201,0.0841672664321025,,-3.326676992173907,,
,9263.0,2895.0,6674.0,1491.0,2232.0,3280.0,-140.0,,,,-0.0048959488703512,-2.06222076468451,0.0841983049601531,,-2.378797338851693,,
,9261.0,2894.0,6668.0,1492.0,2245.0,3291.0,-151.0,,,,-0.0048054636433586,-2.06305924168056,0.0841365064354703,,-1.4323082732200902,,
,9257.0,2893.0,6661.0,1489.0,2235.0,3270.0,-164.0,,,,-0.0048112614026556,-2.06351384504835,0.0841719387424192,,-0.49800663189506544,,
,9260.0,2891.0,6660.0,1488.0,2227.0,3273.0,-171.0,,,,-0.0047918426181042,-2.06413464412884,0.0841295769315685,,0.4159062417798145,,
,9255.0,2892.0,6655.0,1490.0,2212.0,3303.0,-171.0,,,,-0.0048258324193315,-2.06445504291729,0.0840427976571931,,1.3040992715778972,,
,9253.0,2891.0,6652.0,1488.0,2206.0,3288.0,-175.0,,,,-0.0047250029027302,-2.06480054121623,0.0840700563131065,,2.1641330802099503,,
,9252.0,2892.0,6647.0,1484.0,2245.0,3274.0,-166.0,,,,-0.0048956384436882,-2.06492163601986,0.0840045664623667,,2.9962461010849446,,
,9251.0,2888.0,6642.0,1483.0,2240.0,3289.0,-173.0,,,,-0.0046533153133878,-2.06504744947956,0.0840597033650516,,3.8029442908969693,,
,9252.0,2889.0,6639.0,1484.0,2230.0,3284.0,-162.0,,,,-0.0046775395000071,-2.0652880202464,0.0839596524459643,,4.588449508834912,,
,9253.0,2889.0,6636.0,1484.0,2228.0,3263.0,-175.0,,,,-0.0046718270903792,-2.06536953237603,0.0840431699314131,,5.358070662099033,,
,9251.0,2891.0,6629.0,1481.0,2231.0,3277.0,-191.0,,,,-0.0046577609065932,-2.06499840071326,0.0839964680993399,,6.117561902892315,,
,9251.0,2889.0,6624.0,1481.0,2236.0,3303.0,-168.0,,,,-0.0047344948938774,-2.06495927512745,0.0840411450835479,,6.87252339602243,,
,9249.0,2889.0,6622.0,1482.0,2258.0,3284.0,-166.0,,,,-0.0048680722228355,-2.0647258950829,0.0839854427671238,,7.6278841016774,,
,9251.0,2891.0,6618.0,1480.0,2244.0,3264.0,-192.0,,,,-0.0047772278369567,-2.06479979114608,0.0840007156805116,,8.3874856074097,,
,9251.0,2889.0,6616.0,1481.0,2240.0,3270.0,-181.0,,,,-0.0047114003627117,-2.06496734032706,0.0840505280685913,,9.153765203771567,,
,9252.0,2888.0,6609.0,1478.0,2240.0,3277.0,-167.0,,,,-0.0047151032539864,-2.06496556957375,0.0839645295791734,,9.927519418040825,,
,9252.0,2891.0,6607.0,1479.0,2240.0,3290.0,-172.0,,,,-0.0047486357198011,-2.06453888442942,0.0840355026039556,,10.707719889133823,,
,9256.0,2892.0,6605.0,1480.0,2233.0,3298.0,-193.0,,,,-0.0049069195757536,-2.06482573044056,0.0840406578424167,,11.49135413077073,,
,9256.0,2892.0,6602.0,1480.0,2252.0,3289.0,-226.0,,,,-0.0049001465011371,-2.06432246421203,0.0839585786236923,,12.273274593374193,,
,9254.0,2891.0,6599.0,1480.0,2242.0,3309.0,-221.0,,,,-0.0051126448278705,-2.06405293125473,0.0839603312252594,,13.046058329035043,,
,9256.0,2892.0,6597.0,1477.0,2242.0,3291.0,-202.0,,,,-0.0050612578346048,-2.06413359213196,0.0840009921911629,,13.799902214018926,,
,9259.0,2895.0,6594.0,1478.0,2232.0,3307.0,-183.0,,,,-0.0051502174206868,-2.06378562521355,0.0840697187586756,,14.522599248486829,,
,9261.0,2893.0,6592.0,1475.0,2231.0,3265.0,-189.0,,,,-0.0050836493620892,-2.06371273555044,0.0840351954139556,,15.199653522429882,,
,9261.0,2895.0,6593.0,1476.0,2231.0,3266.0,-186.0,,,,-0.0050789036529088,-2.06417205206137,0.0840524592550068,,15.814589940618982,,
,9263.0,2896.0,6591.0,1478.0,2234.0,3305.0,-187.0,,,,-0.0050857041547665,-2.06415645221391,0.0840556417811638,,16.349498049908743,,
,9261.0,2893.0,6587.0,1475.0,2244.0,3279.0,-193.0,,,,-0.0048371849220269,-2.06396996609665,0.0840961132983329,,16.78581948765052,,
,9264.0,2896.0,6587.0,1477.0,2270.0,3275.0,-175.0,,,,-0.0048789670583536,-2.06425048924346,0.0841147393340303,,17.105350536477317,,
,9267.0,2897.0,6588.0,1477.0,2275.0,3265.0,-168.0,,,,-0.0049344962503928,-2.06451049198878,0.0841247111139789,,17.291391330696527,,
,9264.0,2895.0,6582.0,1477.0,2266.0,3262.0,-160.0,,,,-0.0047126312339032,-2.06508837147601,0.0841300493540123,,17.329938482932263,,
,9268.0,2894.0,6581.0,1476.0,2247.0,3271.0,-159.0,,,,-0.0045693971863506,-2.06496500755608,0.0841371271981244,,17.210795247816304,,
,9271.0,2897.0,6582.0,1476.0,2234.0,3275.0,-171.0,,,,-0.0042397377357932,-2.06364412108928,0.0842435775568766,,16.92846828288163,,
,9272.0,2900.0,6582.0,1478.0,2256.0,3269.0,-180.0,,,,-0.0036697814303191,-2.06190759870293,0.0844577059116493,,16.482735344556072,,
,9273.0,2900.0,6582.0,1475.0,2255.0,3276.0,-181.0,,,,-0.0033206793509003,-2.06138897218836,0.0846551567185853,,15.878803199487214,,
,9274.0,2895.0,6581.0,1474.0,2258.0,3285.0,-190.0,,,,-0.0028237036232232,-2.06172216418335,0.0845999915290984,,15.127025312464276,,
,9274.0,2898.0,6580.0,1475.0,2244.0,3263.0,-185.0,,,,-0.002755124841049,-2.06212936310227,0.084603136252456,,14.242206666478527,,
2025-07-21 21:11:33,9273.0,2901.0,6577.0,1478.0,2234.0,3272.0,-196.0,,,2025/07/21 09:11:33 PM,-0.0026319127445803,-2.06243173660091,0.0847346640429759,,13.242578147872884,,
,9277.0,2900.0,6578.0,1475.0,2232.0,3276.0,-183.0,,,,-0.0025165473318202,-2.06268440762633,0.0846678532965388,,12.148565112033827,,
,9279.0,2901.0,6578.0,1477.0,2245.0,3281.0,-211.0,,,,-0.0024951352124814,-2.06250591536333,0.0847422559616956,,10.98149674936359,,
,9279.0,2898.0,6579.0,1476.0,2250.0,3297.0,-197.0,,,,-0.0024756593857191,-2.06249054104344,0.0847157372936542,,9.762401793054735,,
,9279.0,2904.0,6579.0,1474.0,2264.0,3280.0,-197.0,,,,-0.002481199644219,-2.06316317438603,0.084690517707103,,8.511013273106103,,
,9282.0,2902.0,6579.0,1478.0,2238.0,3282.0,-194.0,,,,-0.0026733344341907,-2.06274006843377,0.0846318555017967,,7.245065321861208,,
,9284.0,2902.0,6582.0,1477.0,2245.0,3274.0,-194.0,,,,-0.0026941426106332,-2.06227753362201,0.0846736972555161,,5.979916158536238,,
,9282.0,2901.0,6581.0,1473.0,2234.0,3262.0,-203.0,,,,-0.0028430500979612,-2.062782212564,0.0845747737664205,,4.72848227381991,,
,9287.0,2903.0,6586.0,1479.0,2233.0,3269.0,-201.0,,,,-0.0027906101756855,-2.06216258616481,0.0846486519114175,,3.5014275766510568,,
,9289.0,2904.0,6584.0,1479.0,2224.0,3270.0,-201.0,,,,-0.0028212699598561,-2.06219133583306,0.0845155706702153,,2.30752339283964,,
,9290.0,2907.0,6586.0,1479.0,2220.0,3265.0,-202.0,,,,-0.0027793993823622,-2.06240370374103,0.0846811192898455,,1.1540832843023345,,
,9291.0,2904.0,6585.0,1477.0,2230.0,3292.0,-197.0,,,,-0.0027280830464418,-2.06268194307654,0.0845664545452059,,0.047380731876018066,,
,9288.0,2909.0,6587.0,1479.0,2235.0,3304.0,-196.0,,,,-0.0026277380341987,-2.06293492378702,0.0846717545399262,,-1.0070241906841406,,
,9293.0,2907.0,6588.0,1479.0,2229.0,3291.0,-193.0,,,,-0.0026163809957398,-2.06286061482979,0.0845993301428548,,-2.0040947952166293,,
,9293.0,2908.0,6589.0,1478.0,2233.0,3313.0,-197.0,,,,-0.002768636613311,-2.06361315456617,0.0846217351139648,,-2.939277221056124,,
,9294.0,2905.0,6592.0,1477.0,2234.0,3324.0,-180.0,,,,-0.0028262903040945,-2.06308097300957,0.0845978965402525,,-3.8085910960071554,,
,9292.0,2904.0,6590.0,1477.0,2234.0,3317.0,-167.0,,,,-0.0028911425495962,-2.06354079920903,0.0846568727754459,,-4.6088096936718586,,
,9294.0,2902.0,6592.0,1478.0,2245.0,3300.0,-167.0,,,,-0.002809187614753,-2.06286545817033,0.0845196959632015,,-5.337675714523663,,
,9289.0,2900.0,6593.0,1480.0,2249.0,3288.0,-162.0,,,,-0.0025652579639427,-2.06297713889973,0.0845843866659928,,-5.994098793171328,,
,9284.0,2897.0,6593.0,1480.0,2255.0,3278.0,-168.0,,,,-0.0026289427476727,-2.0633468887803,0.0846528755993744,,-6.578290829668282,,
,9276.0,2892.0,6588.0,1475.0,2244.0,3266.0,-173.0,,,,-0.0025321495445076,-2.06333610175649,0.0846101196259929,,-7.0918113128306635,,
,9273.0,2886.0,6587.0,1474.0,2216.0,3248.0,-168.0,,,,-0.0025526600035435,-2.06314863331514,0.0846711834468787,,-7.53751271730976,,
,9266.0,2885.0,6587.0,1473.0,2222.0,3234.0,-172.0,,,,-0.0026026622325683,-2.06356961138004,0.0845261938858966,,-7.919392466486998,,
,9257.0,2880.0,6580.0,1471.0,2229.0,3248.0,-160.0,,,,-0.0024963064253154,-2.06364640809234,0.08454737242163,,-8.242370648501065,,
,9248.0,2874.0,6575.0,1466.0,2226.0,3267.0,-180.0,,,,-0.0025209568865187,-2.06331945633878,0.0845080257845315,,-8.512020261799549,,
,9239.0,2871.0,6568.0,1465.0,2228.0,3285.0,-176.0,,,,-0.0024207528212171,-2.06366332602177,0.0845328877670404,,-8.73427857929459,,
,9231.0,2869.0,6563.0,1463.0,2220.0,3301.0,-206.0,,,,-0.0025281362980077,-2.0631642159315,0.0846579939334667,,-8.915164721128843,,
,9224.0,2867.0,6558.0,1460.0,2237.0,3274.0,-214.0,,,,-0.002420748694241,-2.0626699597206,0.0845926213659897,,-9.060521706044081,,
,9221.0,2866.0,6553.0,1462.0,2235.0,3273.0,-198.0,,,,-0.0022830078994594,-2.06245114982556,0.0846600755949139,,-9.175794125140413,,
,9211.0,2863.0,6545.0,1454.0,2254.0,3275.0,-183.0,,,,-0.002305102631775,-2.06199837672943,0.0847648721113134,,-9.26584766566199,,
,9206.0,2865.0,6540.0,1453.0,2253.0,3291.0,-190.0,,,,-0.0023033281518692,-2.0621668506981,0.0845992117553405,,-9.334834636052783,,
,9202.0,2864.0,6537.0,1454.0,2269.0,3288.0,-195.0,,,,-0.0024221058600281,-2.06202845624523,0.0847828735880144,,-9.386109174323083,,
,9201.0,2868.0,6534.0,1451.0,2257.0,3287.0,-223.0,,,,-0.0024605930839098,-2.06171344485692,0.0846715944567184,,-9.42219516037057,,
,9199.0,2869.0,6527.0,1452.0,2239.0,3293.0,-215.0,,,,-0.002510363773668,-2.06170351428688,0.0846170454715343,,-9.44480792455809,,
,9199.0,2866.0,6524.0,1446.0,2232.0,3279.0,-222.0,,,,-0.0025901119905131,-2.0614512275178,0.0846472911059117,,-9.45492768006726,,
,9199.0,2869.0,6523.0,1449.0,2242.0,3263.0,-232.0,,,,-0.0026885879049962,-2.06172104470927,0.0846448134841915,,-9.452918929914137,,
,9201.0,2870.0,6523.0,1448.0,2243.0,3274.0,-224.0,,,,-0.0028233798502605,-2.06120689060379,0.08458553104564,,-9.438686708151929,,
,9198.0,2873.0,6518.0,1447.0,2257.0,3284.0,-235.0,,,,-0.0029305316789315,-2.06126792853823,0.0846072017299694,,-9.411857823720114,,
,9198.0,2871.0,6515.0,1445.0,2243.0,3256.0,-231.0,,,,-0.0030590952866537,-2.06161481154027,0.0845938788031818,,-9.371973173671321,,
,9200.0,2876.0,6515.0,1446.0,2256.0,3259.0,-216.0,,,,-0.0032494860375131,-2.06105383204045,0.0845087943903971,,-9.318675299928627,,
,9202.0,2877.0,6515.0,1445.0,2265.0,3263.0,-214.0,,,,-0.003411328449931,-2.0608312018835,0.0845541094861953,,-9.251873616511835,,
,9205.0,2881.0,6516.0,1449.0,2255.0,3258.0,-201.0,,,,-0.0035160474647418,-2.06064818034685,0.0845045630102404,,-9.17186887808135,,
,9205.0,2882.0,6515.0,1448.0,2268.0,3253.0,-192.0,,,,-0.0036525383277206,-2.06037649581345,0.0845436729799437,,-9.079419854976178,,
,9208.0,2881.0,6514.0,1445.0,2269.0,3273.0,-186.0,,,,-0.0037940040725441,-2.05999447946546,0.0844952243146849,,-8.975739850524278,,
,9211.0,2886.0,6515.0,1446.0,2262.0,3278.0,-174.0,,,,-0.0038366109686898,-2.05979414471463,0.0845158079994685,,-8.86241848740126,,
,9214.0,2886.0,6518.0,1447.0,2230.0,3272.0,-158.0,,,,-0.003997186034773,-2.05906580162509,0.08455174411364,,-8.741273837943522,,
,9217.0,2886.0,6515.0,1447.0,2240.0,3279.0,-159.0,,,,-0.0039842035251789,-2.05897828913345,0.0845842832463879,,-8.61414983271257,,
,9215.0,2884.0,6514.0,1447.0,2258.0,3281.0,-174.0,,,,-0.0038642052405719,-2.05848366948805,0.0845393765801612,,-8.482682426225228,,
,9217.0,2886.0,6518.0,1447.0,2251.0,3269.0,-173.0,,,,-0.0037979813479278,-2.058186006713,0.084640936395485,,-8.348063847186225,,
,9219.0,2891.0,6519.0,1448.0,2238.0,3285.0,-191.0,,,,-0.0038067244323493,-2.05770739155996,0.0846450443725679,,-8.210836194061143,,
,9222.0,2890.0,6519.0,1447.0,2239.0,3288.0,-182.0,,,,-0.0036600078843183,-2.0567922571403,0.0847030984930284,,-8.070742907181613,,
,9217.0,2886.0,6519.0,1445.0,2265.0,3268.0,-163.0,,,,-0.0036301189925682,-2.05609870727945,0.0846981202922761,,-7.926659286484172,,
,9221.0,2888.0,6522.0,1450.0,2254.0,3239.0,-185.0,,,,-0.0036186720137756,-2.05542759977598,0.0848153847925849,,-7.7766120538049845,,
,9221.0,2886.0,6522.0,1448.0,2250.0,3256.0,-185.0,,,,-0.0034070596015885,-2.05503785916824,0.0848698263908536,,-7.617884511953337,,
,9221.0,2887.0,6522.0,1444.0,2244.0,3260.0,-190.0,,,,-0.0032804370523629,-2.05479989686375,0.0848562195506065,,-7.447190457504784,,
,9219.0,2886.0,6521.0,1448.0,2241.0,3267.0,-216.0,,,,-0.0032387459586661,-2.05421732199657,0.0848389103222675,,-7.260889743755908,,
,9218.0,2880.0,6519.0,1446.0,2243.0,3260.0,-213.0,,,,-0.0030570938567097,-2.05492848507725,0.0849387856619238,,-7.055214230650443,,
,9217.0,2883.0,6518.0,1447.0,2269.0,3265.0,-205.0,,,,-0.0031512078916961,-2.05441574069293,0.0848992894735821,,-6.826476029421504,,
,9218.0,2881.0,6516.0,1443.0,2259.0,3283.0,-206.0,,,,-0.0033972925660871,-2.05473855875358,0.0848647424571035,,-6.571238966976234,,
,9216.0,2882.0,6517.0,1445.0,2281.0,3276.0,-210.0,,,,-0.0033235526878568,-2.05557777639832,0.0848984524041148,,-6.286445667441223,,
,9212.0,2881.0,6515.0,1443.0,2271.0,3278.0,-218.0,,,,-0.0034695795434559,-2.05529862165469,0.0847853901616966,,-5.969503175516043,,
,9212.0,2882.0,6518.0,1444.0,2272.0,3284.0,-214.0,,,,-0.003593297266666,-2.05666398569246,0.0847448271690424,,-5.618337551034851,,
,9213.0,2880.0,6514.0,1446.0,2274.0,3279.0,-219.0,,,,-0.0036050912937634,-2.05737396885006,0.0847165008557496,,-5.231431640311804,,
,9212.0,2881.0,6512.0,1443.0,2261.0,3279.0,-221.0,,,,-0.003698610507962,-2.05756631976259,0.0847415001033034,,-4.8078603128983355,,
,9213.0,2882.0,6512.0,1445.0,2262.0,3277.0,-203.0,,,,-0.0035424744565527,-2.05750748066212,0.0847289129072793,,-4.34733418151572,,
,9211.0,2882.0,6508.0,1443.0,2257.0,3261.0,-221.0,,,,-0.0032998121047964,-2.05734968303393,0.0846907370881652,,-3.850256796821819,,
,9213.0,2883.0,6509.0,1442.0,2267.0,3271.0,-209.0,,,,-0.0030830250765077,-2.05515827459025,0.0848765165954541,,-3.31779244167143,,
,9215.0,2884.0,6508.0,1445.0,2256.0,3267.0,-189.0,,,,-0.0026185721957497,-2.05297776862786,0.0850765890370064,,-2.7519332387793147,,
,9212.0,2883.0,6506.0,1445.0,2253.0,3266.0,-191.0,,,,-0.0024486264491812,-2.05300698790037,0.0851494176627349,,-2.15554716326965,,
,9212.0,2883.0,6504.0,1442.0,2239.0,3279.0,-204.0,,,,-0.0023172127109037,-2.0534274909534,0.0851202389787579,,-1.532384960751957,,
,9216.0,2886.0,6509.0,1445.0,2242.0,3271.0,-205.0,,,,-0.0023614407198626,-2.05384066599121,0.085077882857437,,-0.8870256414882495,,
,9218.0,2888.0,6507.0,1445.0,2236.0,3285.0,-216.0,,,,-0.0023899837862129,-2.05424146719025,0.0850714672746766,,-0.22474714612269786,,
,9217.0,2886.0,6508.0,1444.0,2241.0,3271.0,-219.0,,,,-0.0025565367453398,-2.05412881294387,0.0851197726198336,,0.4486808345361923,,
,9217.0,2890.0,6506.0,1444.0,2254.0,3279.0,-207.0,,,,-0.0026832849139249,-2.0545803635445,0.0850875713882537,,1.127273303433309,,
,9221.0,2889.0,6505.0,1446.0,2239.0,3280.0,-224.0,,,,-0.0026995792792059,-2.05381017506263,0.0849820759512178,,1.8051560103699296,,
,9224.0,2888.0,6506.0,1447.0,2236.0,3303.0,-222.0,,,,-0.0028664968068321,-2.05414894020069,0.0850155136799374,,2.476912397996611,,
,9223.0,2888.0,6507.0,1445.0,2262.0,3297.0,-201.0,,,,-0.0030538928458243,-2.05439960799938,0.0849644524949205,,3.1379170952972264,,
,9225.0,2890.0,6506.0,1448.0,2254.0,3302.0,-200.0,,,,-0.0028111932449311,-2.05419451124714,0.0850099787038057,,3.784620297042101,,
,9226.0,2889.0,6507.0,1448.0,2247.0,3284.0,-201.0,,,,-0.0027683736692935,-2.05424136370757,0.0850302668915935,,4.414750484363987,,
,9229.0,2890.0,6506.0,1447.0,2241.0,3266.0,-213.0,,,,-0.0028691297942067,-2.05464610664202,0.085064425764864,,5.027410185817016,,
,9231.0,2894.0,6506.0,1447.0,2233.0,3255.0,-208.0,,,,-0.0028160413942007,-2.05499119785599,0.0849433178321932,,5.623050244352828,,
,9230.0,2894.0,6505.0,1448.0,2246.0,3262.0,-205.0,,,,-0.0028627838475552,-2.05493538252663,0.0849498731575762,,6.2033209942452965,,
,9232.0,2892.0,6506.0,1447.0,2247.0,3274.0,-202.0,,,,-0.0029251423532831,-2.05550070285062,0.0848924410773412,,6.7708113955287965,,
,9233.0,2895.0,6508.0,1448.0,2221.0,3262.0,-205.0,,,,-0.0029928859765637,-2.0549455149433,0.0848240748044334,,7.32869664327121,,
,9236.0,2894.0,6507.0,1450.0,2233.0,3271.0,-186.0,,,,-0.0030436788713942,-2.05559858189107,0.0849642206137397,,7.880319493699731,,
,9234.0,2894.0,6506.0,1449.0,2240.0,3273.0,-197.0,,,,-0.0031953211096723,-2.05521368234278,0.0848727357953778,,8.428731309871266,,
,9234.0,2896.0,6505.0,1451.0,2243.0,3282.0,-210.0,,,,-0.0033155709597734,-2.05529700423059,0.0849228783679187,,8.976217901833024,,
,9235.0,2890.0,6506.0,1448.0,2247.0,3270.0,-213.0,,,,-0.0031542624998335,-2.05495377450588,0.0849487385930387,,9.523834622718942,,
,9238.0,2896.0,6508.0,1450.0,2244.0,3248.0,-208.0,,,,-0.003337338527485,-2.05432533085727,0.0849360182990918,,10.070975670495102,,
,9241.0,2895.0,6507.0,1454.0,2241.0,3263.0,-195.0,,,,-0.0033559552124301,-2.05435909810889,0.084985644332433,,10.615003977364239,,
,9244.0,2896.0,6509.0,1452.0,2245.0,3271.0,-214.0,,,,-0.0035470171492279,-2.05419964125879,0.0848922311060683,,11.150970021520726,,
,9243.0,2896.0,6505.0,1451.0,2247.0,3281.0,-212.0,,,,-0.0035578008247253,-2.05390847693179,0.0850478203988026,,11.671449958666443,,
,9245.0,2898.0,6507.0,1452.0,2246.0,3263.0,-219.0,,,,-0.003665052792233,-2.05369563344949,0.0850101826095798,,12.166534905432108,,
,9247.0,2898.0,6506.0,1453.0,2245.0,3251.0,-201.0,,,,-0.0038661390331688,-2.05388737752361,0.0849987694900038,,12.624002331680682,,
,9251.0,2897.0,6506.0,1456.0,2238.0,3246.0,-201.0,,,,-0.0039004818078029,-2.0530192560457,0.084958357034426,,13.029694488555874,,
,9252.0,2900.0,6508.0,1458.0,2267.0,3250.0,-194.0,,,,-0.0039710595949062,-2.05247889432443,0.0850116209358653,,13.368114562060645,,
,9250.0,2900.0,6506.0,1457.0,2248.0,3260.0,-210.0,,,,-0.0040994740998774,-2.05211350402123,0.0850727620932138,,13.623227759328648,,
,9251.0,2899.0,6509.0,1458.0,2253.0,3294.0,-221.0,,,,-0.0041504887962321,-2.05179111901095,0.0850618985998152,,13.779424692269732,,
,9252.0,2897.0,6511.0,1460.0,2251.0,3322.0,-241.0,,,,-0.0042845617598305,-2.05174822751138,0.0851113440800343,,13.82257458708256,,
,9256.0,2900.0,6510.0,1459.0,2251.0,3305.0,-229.0,,,,-0.0043273449130261,-2.05186172663265,0.0850767915903175,,13.741073192259227,,
,9256.0,2899.0,6511.0,1459.0,2254.0,3328.0,-220.0,,,,-0.0042006037658414,-2.05160741355925,0.0850107228447475,,13.526780119040977,,
,9254.0,2900.0,6513.0,1459.0,2275.0,3315.0,-230.0,,,,-0.0041535204921666,-2.05155077909808,0.0850147754520597,,13.175745168774043,,
,9258.0,2901.0,6511.0,1459.0,2277.0,3278.0,-223.0,,,,-0.0041956678995647,-2.05136297760413,0.084942337774234,,12.688642601367803,,
,9257.0,2899.0,6516.0,1461.0,2265.0,3276.0,-234.0,,,,-0.0043241043972325,-2.05156811355629,0.0851257192729872,,12.07086340446755,,
,9254.0,2896.0,6513.0,1460.0,2252.0,3275.0,-244.0,,,,-0.0043879822455676,-2.05140127296477,0.0851020035286107,,11.33225371395965,,
,9247.0,2892.0,6510.0,1459.0,2242.0,3261.0,-253.0,,,,-0.0044855342246381,-2.05088457172987,0.0851855051309905,,10.48652718751693,,
,9245.0,2890.0,6507.0,1456.0,2223.0,3277.0,-228.0,,,,-0.0046651140660479,-2.05035128017441,0.0852069501305638,,9.550415203328075,,
,9236.0,2884.0,6505.0,1457.0,2214.0,3262.0,-229.0,,,,-0.0047407010062245,-2.05059479507542,0.0851407055621371,,8.542646569787978,,
,9226.0,2879.0,6501.0,1456.0,2217.0,3248.0,-212.0,,,,-0.0047766497936628,-2.0498337593512,0.0852319826125665,,7.482863727180023,,
,9218.0,2871.0,6493.0,1452.0,2219.0,3248.0,-229.0,,,,-0.0049957927454462,-2.04889243766515,0.0853553289621295,,6.390582370073592,,
,9211.0,2868.0,6489.0,1453.0,2240.0,3256.0,-221.0,,,,-0.0049847914314309,-2.04833153517174,0.085292782966209,,5.284286444440977,,
,9204.0,2866.0,6482.0,1449.0,2231.0,3273.0,-200.0,,,,-0.0050210069652441,-2.04788324581575,0.0853748920521626,,4.180724641913757,,
,9194.0,2861.0,6477.0,1446.0,2245.0,3263.0,-194.0,,,,-0.00490583778547,-2.04737881218563,0.0855397455028988,,3.0944435142396847,,
,9186.0,2857.0,6470.0,1443.0,2257.0,3279.0,-194.0,,,,-0.0049996675109792,-2.04659697808212,0.0855780299881664,,2.0375611543092007,,
,9179.0,2854.0,6462.0,1444.0,2236.0,3268.0,-202.0,,,,-0.0049447043637576,-2.04621765334802,0.0855299886466903,,1.0197577463234124,,
,9171.0,2856.0,6459.0,1441.0,2244.0,3293.0,-211.0,,,,-0.004969628780048,-2.04548614570537,0.0856832461106911,,0.04843810900361882,,
,9170.0,2855.0,6452.0,1439.0,2249.0,3311.0,-232.0,,,,-0.0049075665505344,-2.04484432925961,0.08575682785645,,-0.8709911308605336,,
,9166.0,2855.0,6443.0,1439.0,2247.0,3310.0,-227.0,,,,-0.0047605362105188,-2.04401609342802,0.0857838733213148,,-1.73478982949058,,
,9161.0,2857.0,6438.0,1434.0,2258.0,3303.0,-222.0,,,,-0.0048354464690567,-2.04420614997575,0.0859720434311164,,-2.540551599496685,,
,9158.0,2855.0,6432.0,1436.0,2269.0,3271.0,-235.0,,,,-0.0048222238082648,-2.04358038101233,0.0860041077121835,,-3.2869097347663208,,
,9157.0,2858.0,6426.0,1435.0,2291.0,3260.0,-241.0,,,,-0.0047698161353796,-2.04354143133472,0.0860200959519452,,-3.973303880596589,,
,9157.0,2856.0,6421.0,1434.0,2283.0,3248.0,-238.0,,,,-0.0047971848523166,-2.04330996580728,0.0860801281520722,,-4.599812655446899,,
,9155.0,2858.0,6418.0,1432.0,2254.0,3246.0,-223.0,,,,-0.0048644996308653,-2.04272293018165,0.0861888016634933,,-5.167045029208666,,
,9157.0,2862.0,6414.0,1431.0,2259.0,3247.0,-221.0,,,,-0.0050222348890723,-2.04257571532578,0.0862966763770692,,-5.676076965436788,,
,9158.0,2865.0,6413.0,1433.0,2259.0,3259.0,-230.0,,,,-0.0050106308599232,-2.04250433425683,0.0863984493100479,,-6.12841878024024,,
,9159.0,2863.0,6407.0,1431.0,2241.0,3278.0,-228.0,,,,-0.0052215506030583,-2.04222374294885,0.086501484450161,,-6.526000657796969,,
,9162.0,2864.0,6405.0,1431.0,2259.0,3285.0,-240.0,,,,-0.0052054630978064,-2.04114655128421,0.0865355253106313,,-6.871166669471188,,
,9164.0,2865.0,6402.0,1432.0,2287.0,3276.0,-250.0,,,,-0.0051796247128451,-2.04115334895925,0.0865747087765816,,-7.16667014040098,,
2025-07-21 21:11:34,9166.0,2868.0,6401.0,1430.0,2263.0,3300.0,-242.0,,,2025/07/21 09:11:34 PM,-0.0053635807350733,-2.04111182272451,0.0866373655428376,,-7.415664765742955,,
,9168.0,2872.0,6399.0,1432.0,2255.0,3284.0,-227.0,,,,-0.005157313346427,-2.04007720427244,0.0866573107100198,,-7.621686497226437,,
,9172.0,2872.0,6397.0,1429.0,2245.0,3290.0,-214.0,,,,-0.005245110958552,-2.03939816220121,0.0867379904300977,,-7.7886211422913405,,
,9173.0,2874.0,6395.0,1428.0,2263.0,3300.0,-199.0,,,,-0.0053975902276373,-2.03933275950853,0.0867647668257781,,-7.920652164538132,,
,9176.0,2872.0,6395.0,1432.0,2243.0,3273.0,-208.0,,,,-0.0051788836168602,-2.03937527796148,0.0867960409927926,,-8.022182759110452,,
,9180.0,2874.0,6397.0,1433.0,2245.0,3261.0,-203.0,,,,-0.0051268869320284,-2.03874682222679,0.0868290280292503,,-8.09772655097468,,
,9180.0,2874.0,6394.0,1432.0,2242.0,3270.0,-198.0,,,,-0.0049454070518391,-2.0381392630371,0.0868489503818845,,-8.151763161737673,,
,9179.0,2875.0,6392.0,1434.0,2237.0,3270.0,-201.0,,,,-0.0049750316274581,-2.03776212161857,0.0869040559170238,,-8.188559218360401,,
,9179.0,2871.0,6392.0,1431.0,2225.0,3278.0,-205.0,,,,-0.0047804787489202,-2.0366880511034,0.0869120899754832,,-8.211962006166639,,
,9184.0,2873.0,6390.0,1433.0,2240.0,3268.0,-207.0,,,,-0.0047465564869826,-2.03597010405072,0.086937727422505,,-8.225180435959723,,
,9183.0,2873.0,6391.0,1433.0,2239.0,3256.0,-214.0,,,,-0.0047531845284427,-2.0357424789065,0.0869252799848463,,-8.230574136650016,,
,9183.0,2875.0,6390.0,1434.0,2222.0,3251.0,-210.0,,,,-0.0046149051785034,-2.03571773715875,0.0870001099834779,,-8.229474561273229,,
,9181.0,2872.0,6386.0,1432.0,2242.0,3274.0,-205.0,,,,-0.0045675469198216,-2.03555024043571,0.0869926833270101,,-8.222061320117747,,
,9184.0,2871.0,6385.0,1431.0,2249.0,3268.0,-226.0,,,,-0.0045770151925601,-2.03549798358812,0.0870360865838476,,-8.20731278620706,,
,9180.0,2872.0,6384.0,1431.0,2234.0,3297.0,-213.0,,,,-0.0044219147735897,-2.03435068843006,0.0870466721549075,,-8.183043141790021,,
,9180.0,2870.0,6382.0,1432.0,2238.0,3297.0,-206.0,,,,-0.0045095972223115,-2.03402554425073,0.0870623164942675,,-8.146029412143314,,
,9179.0,2869.0,6381.0,1432.0,2247.0,3280.0,-212.0,,,,-0.0041135671292706,-2.03258794807588,0.0871554031966525,,-8.092222554779116,,
,9178.0,2868.0,6376.0,1432.0,2254.0,3291.0,-222.0,,,,-0.0037672223409714,-2.03109933285537,0.0872151851806679,,-8.017027078431514,,
,9177.0,2870.0,6376.0,1430.0,2265.0,3281.0,-226.0,,,,-0.0036934699894913,-2.02997790947988,0.0872912537869871,,-7.9156248111604555,,
,9176.0,2869.0,6373.0,1430.0,2265.0,3257.0,-219.0,,,,-0.0034110834966822,-2.02846489993395,0.0873326275564673,,-7.783311738227284,,
,9174.0,2867.0,6374.0,1432.0,2259.0,3250.0,-234.0,,,,-0.0032626900627209,-2.02737932494141,0.0873814577040639,,-7.615814254018879,,
,9174.0,2868.0,6369.0,1429.0,2275.0,3260.0,-250.0,,,,-0.0030053660088817,-2.02633703588026,0.0874428913040441,,-7.409554294808608,,
,9176.0,2867.0,6371.0,1428.0,2262.0,3283.0,-236.0,,,,-0.0028425345850249,-2.02557396687894,0.0874861241449805,,-7.1618415707592575,,
,9177.0,2870.0,6369.0,1431.0,2267.0,3288.0,-231.0,,,,-0.0025977220739205,-2.02470514534822,0.0875460758427642,,-6.8709834691718745,,
,9174.0,2870.0,6366.0,1430.0,2270.0,3274.0,-254.0,,,,-0.0023496787117863,-2.02456673050148,0.0875772766237732,,-6.5363161586122684,,
,9172.0,2868.0,6365.0,1427.0,2277.0,3278.0,-232.0,,,,-0.0023068277386355,-2.02344010692994,0.0876655151391297,,-6.1581712687669565,,
,9175.0,2868.0,6366.0,1428.0,2265.0,3295.0,-241.0,,,,-0.0020701215204095,-2.02335933743748,0.0876971331623475,,-5.73779939710332,,
,9179.0,2873.0,6365.0,1427.0,2256.0,3289.0,-235.0,,,,-0.0019476046676181,-2.02254563565501,0.0877162655324482,,-5.277273668664086,,
,9180.0,2872.0,6365.0,1428.0,2252.0,3301.0,-232.0,,,,-0.0017053625496444,-2.02215129660785,0.0877981310185517,,-4.779393646146155,,
,9182.0,2873.0,6367.0,1429.0,2239.0,3284.0,-242.0,,,,-0.0015787099729749,-2.02142908289342,0.0878528424178153,,-4.247602891000159,,
,9180.0,2872.0,6364.0,1428.0,2255.0,3268.0,-222.0,,,,-0.0015066195707209,-2.02100023154652,0.0879298894515513,,-3.685923843499018,,
,9185.0,2873.0,6365.0,1432.0,2232.0,3266.0,-225.0,,,,-0.0014152318973569,-2.02045354983688,0.0880334888782441,,-3.0989033312911305,,
,9186.0,2874.0,6364.0,1430.0,2240.0,3265.0,-206.0,,,,-0.0012451501280563,-2.01952506836218,0.0880656804220294,,-2.491553407028399,,
,9189.0,2875.0,6363.0,1430.0,2238.0,3267.0,-198.0,,,,-0.0010424638660724,-2.01982801929901,0.0881666453947789,,-1.8692680502995955,,
,9188.0,2876.0,6361.0,1428.0,2228.0,3261.0,-222.0,,,,-0.0007790118757495,-2.01913566812104,0.0882445442323877,,-1.2376982732663966,,
,9193.0,2877.0,6360.0,1432.0,2235.0,3265.0,-237.0,,,,-0.0007511450304636,-2.0190124550614,0.0882802548861303,,-0.6025759539827195,,
,9194.0,2879.0,6362.0,1430.0,2231.0,3255.0,-230.0,,,,-0.0004569205633243,-2.01869447852796,0.0883273268374739,,0.030512065438978185,,
,9196.0,2878.0,6362.0,1433.0,2243.0,3262.0,-223.0,,,,-0.0003184054095814,-2.01854683093237,0.0883756240113358,,0.6563864160770855,,
,9197.0,2876.0,6361.0,1432.0,2263.0,3264.0,-227.0,,,,-6.63720654192709e-05,-2.01814029520935,0.0884346742682806,,1.2705512223486608,,
,9199.0,2879.0,6360.0,1431.0,2255.0,3272.0,-257.0,,,,0.0002106181508257,-2.01739448707087,0.088536788337251,,1.8694542949340585,,
,9202.0,2881.0,6361.0,1434.0,2260.0,3289.0,-238.0,,,,0.0003027117275029,-2.01661319660136,0.0885851271494121,,2.450699638716035,,
,9206.0,2877.0,6360.0,1434.0,2240.0,3297.0,-249.0,,,,0.0006379549887787,-2.01543578373443,0.0886731558142523,,3.0131824004423486,,
,9203.0,2880.0,6358.0,1435.0,2248.0,3297.0,-239.0,,,,0.0009004748107223,-2.01494918160628,0.0886768051428443,,3.5571230218316767,,
,9204.0,2880.0,6362.0,1433.0,2256.0,3282.0,-233.0,,,,0.0010040937194106,-2.01423997747629,0.0887557303798417,,4.083988374070686,,
,9206.0,2880.0,6360.0,1436.0,2243.0,3267.0,-253.0,,,,0.0011699903783461,-2.01354058843537,0.0887895910599122,,4.596301554419811,,
,9210.0,2881.0,6360.0,1434.0,2235.0,3248.0,-257.0,,,,0.0014139099734753,-2.01281507046638,0.0888801957875816,,5.097355818272607,,
,9210.0,2883.0,6360.0,1437.0,2237.0,3244.0,-261.0,,,,0.0014506653113604,-2.01289302931989,0.0889007516604645,,5.590858095919173,,
,9210.0,2881.0,6360.0,1436.0,2274.0,3248.0,-254.0,,,,0.001363263876686,-2.01188717978256,0.0888998104086147,,6.08053123947734,,
,9213.0,2881.0,6359.0,1435.0,2254.0,3253.0,-217.0,,,,0.0017249514331167,-2.01131400435388,0.0889517380747718,,6.569701917649244,,
,9216.0,2885.0,6363.0,1439.0,2225.0,3275.0,-217.0,,,,0.0018797939177676,-2.0106521428509,0.089027686039466,,7.060895711034311,,
,9215.0,2884.0,6363.0,1436.0,2225.0,3270.0,-220.0,,,,0.0021919834154085,-2.01035428831617,0.0891117319121473,,7.555455591369218,,
,9216.0,2883.0,6362.0,1437.0,2249.0,3258.0,-223.0,,,,0.0024279727138787,-2.00994465632881,0.08914812292797,,8.053196367767463,,
,9217.0,2884.0,6365.0,1438.0,2241.0,3261.0,-218.0,,,,0.0025747873318426,-2.01016142360514,0.0891926246546819,,8.552106255200908,,
,9218.0,2884.0,6363.0,1442.0,2237.0,3261.0,-212.0,,,,0.0025577289624023,-2.01067995755355,0.0892443210452745,,9.048107403623119,,
,9222.0,2886.0,6364.0,1440.0,2224.0,3279.0,-211.0,,,,0.0025102904970918,-2.01135155948428,0.0892490831506992,,9.53489001194505,,
,9223.0,2889.0,6369.0,1442.0,2227.0,3291.0,-223.0,,,,0.0024892294129948,-2.01204577507618,0.0892634820774744,,10.003839348081978,,
,9224.0,2887.0,6368.0,1440.0,2230.0,3289.0,-215.0,,,,0.0026054646524784,-2.01247910146614,0.0893225014515603,,10.44408060138703,,
,9227.0,2887.0,6367.0,1443.0,2242.0,3332.0,-222.0,,,,0.0028371979673088,-2.0119327069832,0.089332698226226,,10.842670688670417,,
,9230.0,2889.0,6375.0,1445.0,2264.0,3340.0,-231.0,,,,0.0030254260806243,-2.01193489455085,0.0893909894858742,,11.184965387563468,,
,9231.0,2889.0,6374.0,1445.0,2254.0,3345.0,-219.0,,,,0.002928771710818,-2.01153672013142,0.0893965410641903,,11.45518087662867,,
,9230.0,2887.0,6374.0,1443.0,2240.0,3336.0,-211.0,,,,0.0032088105683388,-2.01112358730775,0.0893686315359724,,11.637149323084461,,
,9229.0,2887.0,6378.0,1443.0,2258.0,3283.0,-207.0,,,,0.0030549908952947,-2.01094710952948,0.089348415481586,,11.715240651867765,,
,9227.0,2884.0,6379.0,1445.0,2264.0,3252.0,-185.0,,,,0.0031079190081692,-2.01126517154794,0.0893289259125599,,11.675392479893713,,
,9224.0,2881.0,6382.0,1444.0,2248.0,3257.0,-195.0,,,,0.0030392664232204,-2.01121396392393,0.0894002717657913,,11.506164141295153,,
,9218.0,2877.0,6377.0,1446.0,2251.0,3256.0,-216.0,,,,0.0031624148124763,-2.01078937513007,0.0893909705101463,,11.199714730119428,,
,9209.0,2872.0,6371.0,1444.0,2247.0,3257.0,-230.0,,,,0.003216174856903,-2.01108540099215,0.0893845807517362,,10.752603030091768,,
,9204.0,2866.0,6371.0,1442.0,2228.0,3253.0,-224.0,,,,0.0033425438349854,-2.01059112337935,0.0894363582014912,,10.166320016434813,,
,9195.0,2864.0,6365.0,1440.0,2207.0,3249.0,-224.0,,,,0.0033135839160131,-2.0103618983381,0.0894398718749251,,9.447490070626156,,
,9183.0,2857.0,6362.0,1440.0,2214.0,3261.0,-221.0,,,,0.0033702375628935,-2.00988673312438,0.0894148324209278,,8.607710827182368,,
,9173.0,2850.0,6353.0,1436.0,2227.0,3283.0,-213.0,,,,0.0033338150789009,-2.00968890276599,0.0894704894739084,,7.663038986627219,,
,9164.0,2848.0,6345.0,1436.0,2239.0,3270.0,-218.0,,,,0.0033624459304906,-2.00945617293639,0.0894193216228845,,6.633166208601253,,
,9156.0,2847.0,6343.0,1432.0,2225.0,3267.0,-221.0,,,,0.0033143755218361,-2.00919528622054,0.0894602957325696,,5.540360942285458,,
,9145.0,2843.0,6334.0,1432.0,2238.0,3261.0,-227.0,,,,0.0031965023137014,-2.00974491373383,0.0894063251550379,,4.408273865384484,,
,9136.0,2842.0,6325.0,1429.0,2246.0,3256.0,-224.0,,,,0.0030675675471588,-2.00916570470964,0.0893392814671118,,3.2607124891044097,,
,9129.0,2836.0,6319.0,1426.0,2265.0,3270.0,-232.0,,,,0.0030470726065877,-2.00912139118843,0.089347442925271,,2.1204837616766743,,
,9127.0,2839.0,6312.0,1427.0,2265.0,3272.0,-225.0,,,,0.0029963672225241,-2.00863373746089,0.089308830615475,,1.0083856104262807,,
,9122.0,2840.0,6309.0,1425.0,2268.0,3269.0,-262.0,,,,0.0029795598556588,-2.00861883512946,0.0893049329248296,,-0.057595118074879596,,
,9118.0,2840.0,6304.0,1425.0,2260.0,3269.0,-248.0,,,,0.0030437216682592,-2.00777074448075,0.0893537560112221,,-1.062845075944538,,
,9113.0,2838.0,6298.0,1421.0,2273.0,3279.0,-260.0,,,,0.0030504190668946,-2.00714683290157,0.0893571490722549,,-1.9964361399777468,,
,9114.0,2841.0,6294.0,1421.0,2272.0,3284.0,-262.0,,,,0.0033940203572057,-2.00665343593494,0.0894411584972676,,-2.851194542606308,,
,9116.0,2843.0,6290.0,1423.0,2271.0,3277.0,-270.0,,,,0.0036176837608202,-2.00606079638777,0.0894720250737118,,-3.6235513290680856,,
,9113.0,2845.0,6285.0,1421.0,2272.0,3273.0,-264.0,,,,0.0037822231444688,-2.00582713999914,0.0895916756979978,,-4.313210250213989,,
,9114.0,2849.0,6283.0,1421.0,2270.0,3294.0,-240.0,,,,0.0041252740959251,-2.00543854607529,0.0896362434851056,,-4.92267709533989,,
,9115.0,2848.0,6278.0,1419.0,2248.0,3289.0,-263.0,,,,0.00454650796439,-2.00437017252059,0.0897358036019295,,-5.456697402101507,,
,9114.0,2850.0,6277.0,1421.0,2243.0,3276.0,-262.0,,,,0.0046897233356799,-2.00454559467751,0.0898444809584064,,-5.921647627554875,,
,9116.0,2852.0,6276.0,1419.0,2256.0,3295.0,-240.0,,,,0.0050475818723964,-2.00413960948732,0.0899397641631354,,-6.324919832713624,,
,9121.0,2852.0,6274.0,1420.0,2260.0,3287.0,-222.0,,,,0.0052748814642524,-2.00378679146112,0.0899833124563788,,-6.674334136467301,,
,9119.0,2852.0,6270.0,1416.0,2254.0,3251.0,-233.0,,,,0.0054257587098177,-2.00337773066423,0.0900187674223251,,-6.97760827151305,,
,9125.0,2855.0,6272.0,1421.0,2246.0,3261.0,-198.0,,,,0.0054599066177589,-2.0030400583985,0.0900780358045012,,-7.241909362624999,,
,9128.0,2856.0,6273.0,1419.0,2250.0,3255.0,-194.0,,,,0.0051276311616263,-2.00420950968004,0.0900124218231217,,-7.473508186183168,,
,9128.0,2857.0,6274.0,1421.0,2230.0,3259.0,-201.0,,,,0.004938175970445,-2.00560741215343,0.0899992475990091,,-7.677549636224235,,
,9129.0,2857.0,6272.0,1421.0,2228.0,3276.0,-194.0,,,,0.0049137293582913,-2.00664843588867,0.0900151950019255,,-7.857945095837725,,
,9133.0,2859.0,6273.0,1421.0,2233.0,3258.0,-199.0,,,,0.0051894968332111,-2.00769998155378,0.09006830420162,,-8.017383869213178,,
,9136.0,2860.0,6275.0,1422.0,2232.0,3288.0,-206.0,,,,0.0053312875651307,-2.00762203848571,0.0901362205951446,,-8.157452653120494,,
,9138.0,2862.0,6275.0,1422.0,2233.0,3314.0,-202.0,,,,0.0055587083357032,-2.00694018864071,0.0901503518568163,,-8.278844572959908,,
,9140.0,2861.0,6279.0,1423.0,2234.0,3326.0,-198.0,,,,0.0057931667060394,-2.00632568971255,0.0901642498819739,,-8.381632602665539,,
,9141.0,2860.0,6275.0,1419.0,2240.0,3323.0,-215.0,,,,0.0059559342343481,-2.00515875321722,0.0901806976394409,,-8.465576364994408,,
,9143.0,2860.0,6279.0,1424.0,2217.0,3308.0,-187.0,,,,0.006086458262019,-2.00514237336599,0.0901886423462494,,-8.530426908538882,,
,9141.0,2862.0,6281.0,1424.0,2229.0,3286.0,-203.0,,,,0.0062674281638071,-2.00496255430207,0.090190336417658,,-8.576192149890458,,
,9142.0,2859.0,6282.0,1424.0,2227.0,3269.0,-211.0,,,,0.0062763566892254,-2.00447505892305,0.090196779093303,,-8.60332778596138,,
,9140.0,2856.0,6282.0,1422.0,2212.0,3264.0,-227.0,,,,0.0063758056856533,-2.00438012894836,0.0901997603304048,,-8.612825942691817,,
,9139.0,2857.0,6283.0,1424.0,2243.0,3294.0,-199.0,,,,0.0065270987886965,-2.00372585793188,0.0902125863325295,,-8.606186545261272,,
,9139.0,2857.0,6281.0,1424.0,2251.0,3276.0,-232.0,,,,0.0066239952941811,-2.00362175531868,0.0902193457252971,,-8.585272324603944,,
,9142.0,2858.0,6283.0,1423.0,2255.0,3271.0,-238.0,,,,0.0067653981795733,-2.0024667698959,0.0902263196770047,,-8.55206436912144,,
,9140.0,2857.0,6283.0,1424.0,2247.0,3282.0,-232.0,,,,0.0069556354867899,-2.00157398847252,0.0902314501646641,,-8.508348407191573,,
,9138.0,2854.0,6281.0,1425.0,2239.0,3303.0,-239.0,,,,0.0072628837751581,-2.00007792421105,0.0902380281035031,,-8.45537097915994,,
,9139.0,2854.0,6281.0,1423.0,2226.0,3312.0,-236.0,,,,0.0075499398112428,-1.99971794151336,0.0902402793832641,,-8.393508861026191,,
,9138.0,2855.0,6281.0,1425.0,2240.0,3313.0,-233.0,,,,0.0075782061886298,-1.99889575685287,0.0902373206311,,-8.32199468834684,,
,9139.0,2856.0,6280.0,1426.0,2258.0,3319.0,-224.0,,,,0.0075750554720429,-1.99825463397687,0.0902372462038951,,-8.23873700725543,,
,9137.0,2855.0,6277.0,1423.0,2240.0,3288.0,-229.0,,,,0.0075797458888688,-1.99745558053181,0.0902425491007477,,-8.140264207664238,,
,9137.0,2857.0,6279.0,1424.0,2220.0,3279.0,-236.0,,,,0.0075296721741049,-1.99711420672382,0.0902311203814976,,-8.02180931518785,,
,9138.0,2856.0,6279.0,1426.0,2229.0,3272.0,-244.0,,,,0.0073413353999936,-1.99703940401414,0.090227128954093,,-7.877537341983333,,
,9137.0,2856.0,6276.0,1424.0,2229.0,3265.0,-231.0,,,,0.0071884661926576,-1.99660412701678,0.0902232535893078,,-7.700900763418169,,
,9141.0,2857.0,6276.0,1426.0,2232.0,3266.0,-226.0,,,,0.0073302310603368,-1.99674260634631,0.090234699636561,,-7.4850944368349746,,
,9144.0,2856.0,6275.0,1423.0,2223.0,3279.0,-240.0,,,,0.0072842540697113,-1.99662646886357,0.0902261110788249,,-7.223571261302095,,
,9144.0,2859.0,6278.0,1428.0,2220.0,3302.0,-228.0,,,,0.0074194923567497,-1.99638959701045,0.0902349990111929,,-6.910574803398379,,
,9144.0,2861.0,6276.0,1429.0,2216.0,3301.0,-223.0,,,,0.0074337139275634,-1.99630642592025,0.0902343057375347,,-6.541644059433036,,
,9145.0,2863.0,6279.0,1426.0,2216.0,3304.0,-242.0,,,,0.0075118047375493,-1.99621622880141,0.090239124483958,,-6.11404725726263,,
,9147.0,2861.0,6275.0,1429.0,2208.0,3263.0,-221.0,,,,0.0075668664068417,-1.99560872013554,0.0902353072996962,,-5.627105818467351,,
,9149.0,2862.0,6281.0,1428.0,2203.0,3277.0,-238.0,,,,0.007441833661373,-1.99513396699024,0.0902435358916017,,-5.082376967253677,,
,9151.0,2865.0,6279.0,1429.0,2204.0,3291.0,-223.0,,,,0.0075233699523836,-1.99485441172447,0.090254606280994,,-4.483674745756472,,
,9153.0,2865.0,6284.0,1430.0,2195.0,3300.0,-231.0,,,,0.0076870677770969,-1.99483479904666,0.0902483593051989,,-3.836924265203563,,
,9158.0,2863.0,6282.0,1430.0,2206.0,3320.0,-233.0,,,,0.0075795288344084,-1.99484913461709,0.0902590564553127,,-3.1498612211900143,,
,9157.0,2865.0,6284.0,1430.0,2209.0,3329.0,-243.0,,,,0.0076452906934082,-1.99422615081452,0.0902561778633034,,-2.431604735812154,,
,9161.0,2868.0,6284.0,1434.0,2226.0,3310.0,-217.0,,,,0.0075293254715459,-1.99434027821699,0.0902569465397806,,-1.6921427176516686,,
,9163.0,2865.0,6286.0,1431.0,2222.0,3304.0,-214.0,,,,0.007709442786848,-1.99392822039008,0.0902531302120677,,-0.9417731709339076,,
,9165.0,2866.0,6287.0,1432.0,2213.0,3307.0,-238.0,,,,0.0076199279718938,-1.99347355631996,0.0902602586832846,,-0.19054334227886008,,
,9167.0,2865.0,6289.0,1433.0,2209.0,3292.0,-230.0,,,,0.0075950107211428,-1.99270166607234,0.0902650406210277,,0.5522757325696335,,
2025-07-21 21:11:35,9170.0,2870.0,6294.0,1436.0,2223.0,3289.0,-219.0,,,2025/07/21 09:11:35 PM,0.0075224805051087,-1.9920698629512,0.0902608988317955,,1.2786465374890037,,
,9172.0,2870.0,6296.0,1436.0,2215.0,3278.0,-240.0,,,,0.007406094530327,-1.99103384193585,0.0902585354784289,,1.9821265952134042,,
,9174.0,2870.0,6299.0,1436.0,2208.0,3293.0,-229.0,,,,0.0074166000787608,-1.9907800681198,0.0902460731947944,,2.6581129586671737,,
,9172.0,2866.0,6299.0,1436.0,2223.0,3286.0,-222.0,,,,0.00737559760021,-1.99024732565769,0.0902332293789963,,3.3039567503648213,,
,9177.0,2871.0,6303.0,1438.0,2240.0,3293.0,-247.0,,,,0.0072343595331084,-1.98991420963447,0.0902404252871813,,3.918944484048635,,
,9179.0,2871.0,6306.0,1440.0,2239.0,3299.0,-229.0,,,,0.0069898680164671,-1.98929074718378,0.0902362069672906,,4.504152603247538,,
,9182.0,2872.0,6311.0,1440.0,2230.0,3292.0,-223.0,,,,0.0067067037822279,-1.98929505854601,0.090221981733245,,5.062190112132367,,
,9181.0,2872.0,6312.0,1440.0,2223.0,3278.0,-215.0,,,,0.0067373187237912,-1.98929168835289,0.0902146231892797,,5.596850556082398,,
,9186.0,2873.0,6315.0,1441.0,2243.0,3270.0,-231.0,,,,0.0065225317293894,-1.98911986660602,0.0902121749553959,,6.112698927671764,,
,9187.0,2873.0,6318.0,1443.0,2213.0,3257.0,-245.0,,,,0.0065587352791826,-1.98873919015432,0.0902128717123733,,6.61462203759348,,
,9189.0,2872.0,6320.0,1444.0,2209.0,3273.0,-250.0,,,,0.0064248573928377,-1.98893889018071,0.090193873503338,,7.107373155334257,,
,9192.0,2874.0,6323.0,1443.0,2212.0,3299.0,-230.0,,,,0.0063208003246175,-1.98893437622019,0.0901882600507947,,7.595142870376276,,
,9195.0,2872.0,6325.0,1446.0,2193.0,3310.0,-231.0,,,,0.006440488508347,-1.98802238912671,0.0901612948759003,,8.08118661847811,,
,9195.0,2877.0,6329.0,1448.0,2211.0,3302.0,-239.0,,,,0.0063936010664621,-1.98794736448989,0.0901360814743696,,8.567533863593832,,
,9197.0,2877.0,6332.0,1447.0,2221.0,3291.0,-262.0,,,,0.0063118074464805,-1.98747336375965,0.0901484599361573,,9.054794769773732,,
,9199.0,2878.0,6337.0,1448.0,2217.0,3291.0,-267.0,,,,0.006325247705997,-1.98719084651181,0.0901398622527428,,9.542068986798816,,
,9197.0,2878.0,6338.0,1449.0,2228.0,3304.0,-243.0,,,,0.0062305157086815,-1.98710218452201,0.0901646835968101,,10.026949928128676,,
,9201.0,2878.0,6344.0,1450.0,2215.0,3299.0,-218.0,,,,0.0062048199452415,-1.98724095884825,0.0900900226494553,,10.505608433837006,,
,9205.0,2878.0,6345.0,1453.0,2235.0,3260.0,-235.0,,,,0.0062238226661489,-1.98720668620914,0.0900627644773496,,10.97293349756774,,
,9206.0,2878.0,6349.0,1450.0,2228.0,3267.0,-240.0,,,,0.0061912960238863,-1.98718041932882,0.0901142422040492,,11.422705819834047,,
,9209.0,2879.0,6351.0,1453.0,2216.0,3281.0,-237.0,,,,0.0059889249405002,-1.98709205533791,0.0900718086109697,,11.84778246865271,,
,9208.0,2876.0,6351.0,1451.0,2223.0,3311.0,-224.0,,,,0.0059300761432465,-1.98738678167371,0.0900502734470767,,12.24027708550112,,
,9210.0,2879.0,6357.0,1455.0,2224.0,3345.0,-230.0,,,,0.0059139903036707,-1.98726087545469,0.0900084576506377,,12.591728480440345,,
,9210.0,2875.0,6360.0,1455.0,2225.0,3351.0,-223.0,,,,0.0059561506309378,-1.98684754830331,0.0900221452119966,,12.893259325768218,,
,9208.0,2875.0,6360.0,1453.0,2232.0,3347.0,-225.0,,,,0.0059380923925804,-1.98662336582691,0.0900458801278491,,13.13573375557918,,
,9200.0,2868.0,6359.0,1452.0,2236.0,3353.0,-216.0,,,,0.0059122182457491,-1.98625165333478,0.089976618827841,,13.309925879995095,,
,9191.0,2862.0,6357.0,1455.0,2225.0,3332.0,-210.0,,,,0.0059522432084861,-1.9858318894975,0.0900422136452186,,13.406709913279954,,
,9188.0,2863.0,6358.0,1456.0,2212.0,3314.0,-214.0,,,,0.0058047520094698,-1.98553194462637,0.0900043109433845,,13.417278585534623,,
,9178.0,2851.0,6354.0,1453.0,2203.0,3300.0,-217.0,,,,0.0057360890567836,-1.98562269386017,0.0899968394232391,,13.333392744547366,,
,9163.0,2848.0,6349.0,1450.0,2195.0,3258.0,-205.0,,,,0.0057699761562878,-1.98486164184933,0.0899418554495019,,13.147663177056527,,
,9154.0,2843.0,6344.0,1451.0,2202.0,3252.0,-198.0,,,,0.0056207410854693,-1.98498735153102,0.0899168699858029,,12.853864562092825,,
,9145.0,2837.0,6336.0,1447.0,2211.0,3267.0,-203.0,,,,0.0054060438179953,-1.98498361752849,0.0897741136009338,,12.447278353202524,,
,9134.0,2832.0,6336.0,1449.0,2204.0,3264.0,-199.0,,,,0.0052696734671819,-1.98515277563575,0.0897281177869506,,11.925054321835658,,
,9123.0,2830.0,6324.0,1444.0,2199.0,3282.0,-205.0,,,,0.005030249289713,-1.98490010571479,0.0896432488168382,,11.286570161945175,,
,9114.0,2827.0,6321.0,1443.0,2182.0,3302.0,-235.0,,,,0.0048324780962763,-1.98465890473172,0.0896318671567903,,10.533758312546393,,
,9109.0,2825.0,6315.0,1442.0,2186.0,3302.0,-245.0,,,,0.0049758471003802,-1.98480824268284,0.0896382381951205,,9.671363316198626,,
,9105.0,2826.0,6312.0,1442.0,2194.0,3307.0,-225.0,,,,0.0047802603487389,-1.98431079943629,0.0896044380639778,,8.707094374274487,,
,9098.0,2826.0,6305.0,1441.0,2209.0,3309.0,-230.0,,,,0.004886872844559,-1.98450700381889,0.0895968472568668,,7.651645770515347,,
,9093.0,2825.0,6302.0,1436.0,2212.0,3307.0,-219.0,,,,0.0049624446128695,-1.98437693764355,0.0896211188709737,,6.518569095591566,,
,9094.0,2826.0,6297.0,1436.0,2203.0,3286.0,-214.0,,,,0.0049410552872975,-1.98381768033671,0.0896541939532439,,5.323991938630778,,
,9090.0,2829.0,6295.0,1437.0,2206.0,3295.0,-219.0,,,,0.0050829845819708,-1.98375620729142,0.0896494778724993,,4.086186370945456,,
,9087.0,2830.0,6291.0,1436.0,2212.0,3309.0,-220.0,,,,0.0051422743872009,-1.98319591342885,0.0896893371585083,,2.8249981756159217,,
,9091.0,2830.0,6285.0,1436.0,2215.0,3306.0,-228.0,,,,0.0052746893569106,-1.98370954868522,0.0896867648764577,,1.561156233008425,,
,9089.0,2833.0,6284.0,1436.0,2213.0,3267.0,-233.0,,,,0.005121392618717,-1.98379071580339,0.0897517782682631,,0.3154915351707833,,
,9093.0,2833.0,6282.0,1436.0,2217.0,3298.0,-236.0,,,,0.005265962526888,-1.98341372015083,0.0897317067639609,,-0.8918939122315023,,
,9092.0,2836.0,6280.0,1435.0,2221.0,3304.0,-265.0,,,,0.0049788483094271,-1.98365352497146,0.0896802964332711,,-2.0424585146814067,,
,9097.0,2837.0,6281.0,1436.0,2206.0,3307.0,-269.0,,,,0.0048783083769265,-1.98393419924112,0.089672421489782,,-3.119996986715516,,
,9096.0,2838.0,6279.0,1435.0,2215.0,3333.0,-263.0,,,,0.0048157584735592,-1.98359799744999,0.0896126492793883,,-4.111303950916806,,
,9101.0,2844.0,6279.0,1437.0,2231.0,3324.0,-250.0,,,,0.0045691461891387,-1.98395694687203,0.0896047486650486,,-5.006673425021259,,
,9105.0,2844.0,6279.0,1440.0,2215.0,3323.0,-266.0,,,,0.0045407007063355,-1.98408710492163,0.0895349725311604,,-5.8001929355321185,,
,9107.0,2845.0,6277.0,1438.0,2218.0,3305.0,-256.0,,,,0.0043157652846714,-1.98393018288381,0.0895298014136669,,-6.489806227336768,,
,9111.0,2844.0,6278.0,1436.0,2215.0,3289.0,-221.0,,,,0.0042089251446241,-1.98411913498595,0.0894546492698392,,-7.077137418705483,,
,9111.0,2848.0,6278.0,1442.0,2243.0,3309.0,-217.0,,,,0.0038252887801605,-1.9840931180672,0.089401538373871,,-7.567090801812544,,
,9114.0,2847.0,6279.0,1441.0,2227.0,3310.0,-232.0,,,,0.003777810316143,-1.98424164184848,0.0894036341667887,,-7.9672622821954535,,
,9116.0,2848.0,6280.0,1438.0,2205.0,3301.0,-230.0,,,,0.0035405490085992,-1.98444959851601,0.0894161225673994,,-8.287217449990475,,
,9121.0,2849.0,6280.0,1443.0,2219.0,3282.0,-235.0,,,,0.003512932119729,-1.98424913657142,0.0893557503922247,,-8.537703935647874,,
,9123.0,2848.0,6280.0,1440.0,2216.0,3306.0,-236.0,,,,0.0035240287024154,-1.98432763075229,0.0893577317131888,,-8.729869703118117,,
,9121.0,2851.0,6281.0,1443.0,2204.0,3301.0,-229.0,,,,0.0035260693572835,-1.9844989764091,0.0893162675240474,,-8.874554038744758,,
,9123.0,2849.0,6280.0,1444.0,2200.0,3297.0,-200.0,,,,0.0036571548845006,-1.98453978140015,0.0893001757485692,,-8.981705787147131,,
,9125.0,2850.0,6280.0,1442.0,2205.0,3298.0,-211.0,,,,0.0032711163703503,-1.98466670306987,0.0892376090277894,,-9.059966380290259,,
,9127.0,2849.0,6281.0,1444.0,2210.0,3268.0,-210.0,,,,0.003320245680762,-1.9848742279095,0.0891759673979483,,-9.116435977443823,,
,9124.0,2847.0,6279.0,1445.0,2190.0,3303.0,-208.0,,,,0.0032113634085094,-1.98512653423836,0.0891496390619168,,-9.156621672783404,,
,9124.0,2846.0,6278.0,1448.0,2200.0,3323.0,-204.0,,,,0.0029999925432364,-1.98511650562857,0.0891153026245877,,-9.184548719620851,,
,9124.0,2847.0,6281.0,1445.0,2211.0,3319.0,-216.0,,,,0.0028985858287444,-1.98512809137794,0.089083892042885,,-9.203000265612857,,
,9122.0,2844.0,6279.0,1441.0,2217.0,3279.0,-226.0,,,,0.0029172755848715,-1.98508812899515,0.0890968902363858,,-9.213839613587533,,
,9120.0,2845.0,6279.0,1444.0,2206.0,3306.0,-227.0,,,,0.0029574799521834,-1.98471180338437,0.0890680932617768,,-9.218363261338608,,
,9124.0,2844.0,6280.0,1445.0,2207.0,3294.0,-220.0,,,,0.0029902006797659,-1.98481350208025,0.089060953920986,,-9.2176342621498,,
,9122.0,2844.0,6279.0,1448.0,2215.0,3284.0,-215.0,,,,0.0029302566317039,-1.98517586420887,0.0890656822368556,,-9.21275359363832,,
,9120.0,2844.0,6279.0,1444.0,2224.0,3266.0,-229.0,,,,0.0028970046185083,-1.9844118497643,0.0890983596351663,,-9.205040172156467,,
,9123.0,2842.0,6276.0,1445.0,2208.0,3305.0,-221.0,,,,0.0030349200132749,-1.98469020883186,0.0891098405310972,,-9.196104919122051,,
,9118.0,2844.0,6279.0,1446.0,2209.0,3277.0,-217.0,,,,0.0030034121024934,-1.98475313502119,0.0891044283775758,,-9.187818291213198,,
,9121.0,2846.0,6277.0,1446.0,2209.0,3305.0,-220.0,,,,0.0030628998649482,-1.98427041837326,0.0891142129836774,,-9.182182393228155,,
,9121.0,2848.0,6279.0,1447.0,2206.0,3308.0,-221.0,,,,0.0031711222683245,-1.984265268899,0.0891010169057366,,-9.181127581285606,,
,9120.0,2846.0,6277.0,1446.0,2229.0,3300.0,-223.0,,,,0.0031788453031402,-1.98382595141375,0.0891390302196712,,-9.186259270258756,,
,9125.0,2846.0,6280.0,1447.0,2205.0,3282.0,-231.0,,,,0.003172445534289,-1.98384751895958,0.0890874339496148,,-9.19858366718238,,
,9126.0,2848.0,6283.0,1449.0,2213.0,3279.0,-227.0,,,,0.0031935515675253,-1.98343520137345,0.089111946643794,,-9.218241512996691,,
,9127.0,2849.0,6279.0,1447.0,2213.0,3284.0,-229.0,,,,0.0031429378266772,-1.98270156611599,0.0890982213280308,,-9.244276643248464,,
,9128.0,2851.0,6285.0,1448.0,2228.0,3278.0,-241.0,,,,0.0031330491172506,-1.98251030908287,0.0890673726921452,,-9.274461503123574,,
,9131.0,2848.0,6284.0,1449.0,2213.0,3309.0,-245.0,,,,0.0031598121251875,-1.98263309634496,0.0891050523867618,,-9.305195678102082,,
,9136.0,2854.0,6288.0,1450.0,2208.0,3311.0,-228.0,,,,0.0030924574991605,-1.98234396908203,0.0890668858403072,,-9.331487779621456,,
,9137.0,2854.0,6289.0,1451.0,2209.0,3301.0,-234.0,,,,0.0030758346349343,-1.9824400376222,0.0890570071912665,,-9.347027106067934,,
,9140.0,2852.0,6289.0,1450.0,2205.0,3299.0,-241.0,,,,0.0032793103580661,-1.98246867617662,0.0890902817272051,,-9.344349253824817,,
,9140.0,2853.0,6289.0,1450.0,2208.0,3297.0,-234.0,,,,0.0033130970539852,-1.98234242770117,0.0890564848008948,,-9.315097461363434,,
,9142.0,2855.0,6292.0,1452.0,2209.0,3299.0,-248.0,,,,0.0030824189225847,-1.98168191724144,0.0890881244608587,,-9.250376797166643,,
,9146.0,2857.0,6293.0,1452.0,2231.0,3314.0,-221.0,,,,0.0032341981157096,-1.98197378579017,0.089103773268275,,-9.14119047916302,,
,9146.0,2859.0,6297.0,1454.0,2230.0,3301.0,-211.0,,,,0.0032523421823087,-1.98176716112974,0.0890957099127259,,-8.978937527895942,,
,9151.0,2857.0,6297.0,1454.0,2224.0,3294.0,-183.0,,,,0.0032111191654671,-1.98204715186009,0.0890844230599593,,-8.755940684784768,,
,9153.0,2859.0,6303.0,1455.0,2212.0,3294.0,-202.0,,,,0.0031246128828195,-1.98210065979346,0.0890575226988969,,-8.46596542224526,,
,9154.0,2861.0,6303.0,1457.0,2226.0,3288.0,-214.0,,,,0.0031503093261852,-1.98163702739745,0.0890456226053799,,-8.104686751009831,,
,9157.0,2861.0,6305.0,1459.0,2221.0,3293.0,-210.0,,,,0.0031400751577482,-1.98183764585728,0.0890503177709563,,-7.670061142636852,,
,9159.0,2863.0,6308.0,1456.0,2239.0,3300.0,-197.0,,,,0.003087768980549,-1.98165358386185,0.089028065190121,,-7.1625659355157,,
,9162.0,2861.0,6310.0,1458.0,2203.0,3302.0,-199.0,,,,0.0032488978486261,-1.98106513596007,0.0890686242932364,,-6.585277431230955,,
,9167.0,2865.0,6314.0,1461.0,2211.0,3289.0,-198.0,,,,0.0034083725999013,-1.98114000155906,0.0890736592035776,,-5.943771266048428,,
,9169.0,2865.0,6317.0,1461.0,2212.0,3286.0,-218.0,,,,0.0034319464803962,-1.98097529782557,0.089104497012847,,-5.245844521713409,,
,9168.0,2867.0,6320.0,1463.0,2216.0,3292.0,-218.0,,,,0.0035069836369022,-1.98051703605663,0.0890941824067987,,-4.501077468012666,,
,9173.0,2866.0,6324.0,1463.0,2206.0,3291.0,-219.0,,,,0.003744380210583,-1.98012537403701,0.0891625141420168,,-3.720271232077843,,
,9172.0,2865.0,6324.0,1466.0,2199.0,3297.0,-212.0,,,,0.0038558481743475,-1.97962014287402,0.0891889076749247,,-2.9148125958895443,,
,9177.0,2871.0,6333.0,1467.0,2223.0,3316.0,-230.0,,,,0.0039133008952236,-1.97905432708271,0.089226009419426,,-2.0960256520570795,,
,9180.0,2870.0,6334.0,1467.0,2226.0,3322.0,-220.0,,,,0.0041596774715597,-1.97843785879537,0.0892568819971773,,-1.2745708103596767,,
,9183.0,2869.0,6337.0,1469.0,2199.0,3315.0,-221.0,,,,0.0041484452861239,-1.97866555012113,0.0892429857789399,,-0.45994473303779465,,
,9184.0,2869.0,6338.0,1466.0,2207.0,3310.0,-208.0,,,,0.0042133279949109,-1.97815713325354,0.0892328274346143,,0.33987864102121623,,
,9187.0,2871.0,6345.0,1472.0,2227.0,3287.0,-218.0,,,,0.0042853923898856,-1.97740374451463,0.089270631612965,,1.1186438826395417,,
,9190.0,2870.0,6347.0,1473.0,2206.0,3279.0,-220.0,,,,0.0042355468705417,-1.97694357940386,0.0892346105174912,,1.871845068494163,,
,9192.0,2873.0,6349.0,1474.0,2206.0,3273.0,-220.0,,,,0.0043592158528237,-1.97703700426085,0.0893208945954919,,2.59661094092126,,
,9193.0,2869.0,6353.0,1472.0,2201.0,3284.0,-196.0,,,,0.0044256635261089,-1.9763623252108,0.0892950684934191,,3.2914810419228746,,
,9195.0,2873.0,6355.0,1472.0,2215.0,3283.0,-193.0,,,,0.0043849135035776,-1.97669168591721,0.089283894104762,,3.9561215434172925,,
,9199.0,2874.0,6360.0,1476.0,2207.0,3291.0,-207.0,,,,0.0043947589515297,-1.97656813674435,0.0892936862824055,,4.59103253616649,,
,9200.0,2875.0,6363.0,1478.0,2215.0,3294.0,-213.0,,,,0.0044942565337219,-1.97653420895259,0.0893182407438484,,5.19729185493383,,
,9200.0,2875.0,6366.0,1477.0,2227.0,3294.0,-226.0,,,,0.0043336744315946,-1.97720891052127,0.0893485591677538,,5.776366312973498,,
,9206.0,2877.0,6373.0,1479.0,2215.0,3294.0,-225.0,,,,0.0040611665259076,-1.97772118253927,0.0892888752003186,,6.330003605022574,,
,9207.0,2877.0,6375.0,1483.0,2206.0,3284.0,-227.0,,,,0.0039205674637873,-1.97778800432223,0.0892409588337458,,6.860200842631935,,
,9209.0,2878.0,6379.0,1481.0,2212.0,3303.0,-217.0,,,,0.0036508589790716,-1.97879601500234,0.0892168129841439,,7.369230758431792,,
,9212.0,2879.0,6384.0,1481.0,2228.0,3299.0,-188.0,,,,0.0033955444287328,-1.97946448630254,0.0891049393305796,,7.8596949215763585,,
,9213.0,2878.0,6385.0,1481.0,2224.0,3304.0,-185.0,,,,0.0033364204027609,-1.98088249357377,0.089068280578414,,8.334565872544834,,
,9216.0,2881.0,6392.0,1485.0,2227.0,3291.0,-212.0,,,,0.003070133999173,-1.98178889463516,0.0889245547424173,,8.797178776188803,,
,9219.0,2883.0,6395.0,1487.0,2214.0,3297.0,-226.0,,,,0.0027744377361931,-1.98260027493492,0.0888432872232167,,9.251139951874315,,
,9221.0,2883.0,6400.0,1488.0,2210.0,3303.0,-225.0,,,,0.0025764552753185,-1.98263938233007,0.0887942653651783,,9.700134797175288,,
,9220.0,2881.0,6401.0,1486.0,2203.0,3291.0,-214.0,,,,0.0022448303254126,-1.98404326103193,0.0886551068881163,,10.147638412478583,,
,9222.0,2882.0,6404.0,1488.0,2211.0,3288.0,-210.0,,,,0.0021141558978935,-1.98423578920399,0.0885800666578885,,10.59655288678398,,
,9220.0,2879.0,6409.0,1490.0,2205.0,3278.0,-224.0,,,,0.0020422914000766,-1.9848137117352,0.0885032578439311,,11.048809371552093,,
,9216.0,2875.0,6405.0,1489.0,2221.0,3288.0,-221.0,,,,0.0018428700041363,-1.98576904326066,0.0884559119174285,,11.504977295337827,,
,9210.0,2870.0,6408.0,1488.0,2221.0,3320.0,-208.0,,,,0.0017220539223066,-1.98663886544807,0.0884801329251352,,11.963918420111666,,
,9201.0,2861.0,6406.0,1488.0,2223.0,3309.0,-224.0,,,,0.0016169493951087,-1.98715612044596,0.0884769642922837,,12.42251403053341,,
,9192.0,2857.0,6403.0,1489.0,2216.0,3288.0,-218.0,,,,0.0016276939148967,-1.98725966042973,0.0885344103688275,,12.87548380395646,,
,9182.0,2854.0,6404.0,1486.0,2214.0,3273.0,-216.0,,,,0.0016142872017275,-1.98762703526622,0.0884810884280767,,13.315307772079866,,
,9169.0,2849.0,6396.0,1485.0,2208.0,3266.0,-197.0,,,,0.0015217524389988,-1.98834395326387,0.0885745349054764,,13.732259288987251,,
,9159.0,2842.0,6391.0,1482.0,2199.0,3288.0,-179.0,,,,0.0014240998072627,-1.98872960154446,0.0886098160933589,,14.114556464855218,,
,9146.0,2840.0,6389.0,1482.0,2220.0,3289.0,-189.0,,,,0.001620319993375,-1.98853804237473,0.088593037343373,,14.448640448540711,,
2025-07-21 21:11:36,9138.0,2835.0,6382.0,1479.0,2234.0,3275.0,-197.0,,,2025/07/21 09:11:36 PM,0.0015565253257016,-1.98834405060134,0.0886703643999426,,14.719589110349673,,
,9128.0,2833.0,6378.0,1478.0,2233.0,3289.0,-188.0,,,,0.001484548095294,-1.98839066837838,0.0886880930486903,,14.911671786814097,,
,9123.0,2831.0,6371.0,1473.0,2225.0,3284.0,-203.0,,,,0.0018304236121478,-1.98851171865349,0.0886922888279388,,15.009042596403617,,
,9113.0,2829.0,6365.0,1473.0,2216.0,3270.0,-234.0,,,,0.0017402332160473,-1.98839517767168,0.0886989635454753,,14.996555133673448,,
,9110.0,2831.0,6365.0,1476.0,2209.0,3293.0,-237.0,,,,0.0017264637515716,-1.98795208591502,0.0886992790882522,,14.860661102560707,,
,9107.0,2833.0,6361.0,1474.0,2209.0,3305.0,-230.0,,,,0.0016220553109843,-1.98852955008326,0.0887168513169096,,14.590333656540425,,
,9105.0,2832.0,6352.0,1470.0,2195.0,3303.0,-223.0,,,,0.0016248893103774,-1.9888405138779,0.0886704788933969,,14.177938633970955,,
,9103.0,2833.0,6350.0,1471.0,2217.0,3275.0,-225.0,,,,0.0013454731083089,-1.98860115918593,0.0886593453521257,,13.619968506409027,,
,9103.0,2837.0,6350.0,1469.0,2213.0,3287.0,-225.0,,,,0.0013564825171378,-1.9895602482466,0.0886473220180478,,12.917557373322008,,
,9103.0,2837.0,6347.0,1473.0,2194.0,3288.0,-217.0,,,,0.000964050612763,-1.99051085983543,0.0885724425706539,,12.076711283252543,,
,9108.0,2842.0,6343.0,1469.0,2202.0,3297.0,-224.0,,,,0.0007860849227978,-1.99119164707341,0.0885171819342705,,11.108215280197433,,
,9106.0,2841.0,6344.0,1468.0,2207.0,3314.0,-212.0,,,,0.000564041905847,-1.99219207524478,0.0884791642137318,,10.0272133762075,,
,9110.0,2843.0,6343.0,1472.0,2219.0,3322.0,-248.0,,,,0.0004417478055862,-1.99309678453901,0.0884227803325743,,8.852494506059655,,
,9112.0,2847.0,6342.0,1470.0,2206.0,3326.0,-243.0,,,,8.700147812347e-05,-1.99362937646001,0.0883470275103238,,7.605550139986009,,
,9118.0,2848.0,6342.0,1470.0,2218.0,3321.0,-253.0,,,,7.69173161592627e-05,-1.99520249429494,0.0882808904662236,,6.309492389681097,,
,9118.0,2850.0,6341.0,1473.0,2210.0,3296.0,-250.0,,,,2.4624179732883e-07,-1.99564765483775,0.0881850349940036,,4.987931717091451,,
,9119.0,2853.0,6343.0,1471.0,2218.0,3287.0,-216.0,,,,-0.0001459110596145,-1.99646221784559,0.0881234761487264,,3.6639094561354546,,
,9123.0,2857.0,6343.0,1474.0,2232.0,3284.0,-226.0,,,,-0.0005194038246944,-1.99746126424867,0.0880517888203517,,2.358963820233037,,
,9127.0,2855.0,6345.0,1474.0,2224.0,3290.0,-215.0,,,,-0.0005852806763913,-1.99823317853545,0.0879903389447598,,1.0923833486783057,,
,9131.0,2856.0,6348.0,1475.0,2214.0,3276.0,-231.0,,,,-0.0006853901075745,-1.99963490176501,0.087942613169858,,-0.11932538159374134,,
,9132.0,2857.0,6346.0,1474.0,2205.0,3272.0,-204.0,,,,-0.0007543063358157,-1.99985216870296,0.0878492587887681,,-1.2627536383702949,,
,9138.0,2858.0,6351.0,1473.0,2207.0,3286.0,-215.0,,,,-0.0006474282858435,-2.00081318672386,0.0877749244383406,,-2.327707238855414,,
,9139.0,2860.0,6349.0,1474.0,2217.0,3310.0,-204.0,,,,-0.0007752540648126,-2.00125224738658,0.087769907620135,,-3.3071541650226384,,
,9143.0,2861.0,6353.0,1478.0,2212.0,3301.0,-197.0,,,,-0.0007897446939043,-2.00185049186692,0.0877178337416823,,-4.1970395303260775,,
,9142.0,2859.0,6353.0,1475.0,2196.0,3276.0,-198.0,,,,-0.000758782726888,-2.00274421079477,0.0877019634980522,,-4.996005059587622,,
,9148.0,2860.0,6356.0,1476.0,2206.0,3288.0,-210.0,,,,-0.0006247503732477,-2.00284410647512,0.0876620689993785,,-5.705046652524256,,
,9150.0,2861.0,6358.0,1481.0,2206.0,3290.0,-212.0,,,,-0.0003917207018394,-2.00368753238497,0.0876163747769673,,-6.327137099116944,,
,9149.0,2863.0,6361.0,1479.0,2206.0,3302.0,-201.0,,,,-0.0003937582707715,-2.0036186904722,0.0876200347378988,,-6.866833230276965,,
,9151.0,2861.0,6361.0,1479.0,2228.0,3303.0,-191.0,,,,-0.0002056741625833,-2.00432482662124,0.0875698344954746,,-7.329879847493995,,
,9150.0,2861.0,6360.0,1479.0,2223.0,3278.0,-190.0,,,,-3.94840355428357e-05,-2.00486023356684,0.0875516892454576,,-7.722818835320809,,
,9149.0,2860.0,6365.0,1479.0,2209.0,3299.0,-230.0,,,,-0.0001235711556503,-2.00533188068784,0.0874808292392259,,-8.052611890353598,,
,9152.0,2860.0,6362.0,1482.0,2212.0,3312.0,-209.0,,,,-6.24646093363773e-06,-2.0061040022288,0.0874936152734794,,-8.326288295758975,,
,9151.0,2860.0,6362.0,1482.0,2212.0,3292.0,-222.0,,,,-0.0002390009739201,-2.00744938785848,0.0874418455694417,,-8.550632730726623,,
,9148.0,2857.0,6363.0,1478.0,2187.0,3287.0,-226.0,,,,-0.0001869908276735,-2.00773999575959,0.0874132696781797,,-8.731929889547162,,
,9148.0,2859.0,6362.0,1481.0,2190.0,3295.0,-200.0,,,,-0.0002000154456614,-2.00893723602083,0.0874141654923553,,-8.875781473360808,,
,9149.0,2858.0,6362.0,1481.0,2219.0,3300.0,-233.0,,,,-0.0002325311018935,-2.00899638192613,0.0873941057104065,,-8.987006874515817,,
,9147.0,2859.0,6363.0,1481.0,2225.0,3313.0,-235.0,,,,-0.0001558543436601,-2.00983292660323,0.0873357440894929,,-9.06963225886502,,
,9148.0,2857.0,6364.0,1481.0,2243.0,3289.0,-236.0,,,,-0.0001474888022535,-2.00981492477009,0.0873264861143396,,-9.12696464359612,,
,9149.0,2858.0,6364.0,1478.0,2220.0,3294.0,-221.0,,,,-0.0001033057542097,-2.00980047653617,0.0873548331098571,,-9.161738792855349,,
,9150.0,2859.0,6365.0,1480.0,2236.0,3290.0,-230.0,,,,-0.0001088700542257,-2.00993900367167,0.0873718639483792,,-9.176316036499959,,
,9152.0,2858.0,6368.0,1482.0,2217.0,3292.0,-213.0,,,,8.03096094767739e-05,-2.01014248174813,0.0873444202401453,,-9.172906341231585,,
,9153.0,2862.0,6367.0,1484.0,2215.0,3300.0,-209.0,,,,9.25685428892514e-05,-2.00994790483429,0.0873597093639517,,-9.153779569501701,,
,9154.0,2858.0,6367.0,1481.0,2208.0,3310.0,-229.0,,,,0.0002713603739894,-2.00994670583934,0.0873862526188324,,-9.12143077134012,,
,9155.0,2859.0,6369.0,1484.0,2202.0,3297.0,-214.0,,,,0.0002975397418262,-2.00998283045875,0.0873700324498615,,-9.078668997807856,,
,9158.0,2863.0,6368.0,1484.0,2211.0,3293.0,-219.0,,,,0.0004791068996866,-2.00895203032123,0.087397125451596,,-9.028609271142406,,
,9160.0,2865.0,6370.0,1486.0,2224.0,3286.0,-225.0,,,,0.0005383843073971,-2.0086696716731,0.087418212648134,,-8.974560942441382,,
,9161.0,2866.0,6368.0,1483.0,2247.0,3276.0,-208.0,,,,0.0008920417044306,-2.007930057415,0.0874426191982206,,-8.919819891675154,,
,9163.0,2864.0,6369.0,1486.0,2212.0,3284.0,-213.0,,,,0.001000869136754,-2.00884337014106,0.0874254755536532,,-8.867384552367353,,
,9169.0,2865.0,6370.0,1488.0,2213.0,3293.0,-223.0,,,,0.0011184694879086,-2.00953615511657,0.0874458672392124,,-8.819625283639178,,
,9172.0,2867.0,6369.0,1487.0,2210.0,3296.0,-218.0,,,,0.0012737583452829,-2.01053947325589,0.0873863641262532,,-8.77794272330679,,
,9173.0,2866.0,6372.0,1488.0,2214.0,3283.0,-203.0,,,,0.0014690438064491,-2.01121610199283,0.0873975659395332,,-8.742453421709083,,
,9172.0,2867.0,6372.0,1489.0,2222.0,3299.0,-207.0,,,,0.0016653310725489,-2.01167505078477,0.0874042393990985,,-8.711740299909934,,
,9177.0,2869.0,6377.0,1490.0,2206.0,3301.0,-221.0,,,,0.001861743560842,-2.01228032035462,0.0874089621123268,,-8.682701141721703,,
,9179.0,2869.0,6377.0,1491.0,2212.0,3319.0,-243.0,,,,0.0021685037151771,-2.012058757078,0.0874468377469937,,-8.65052024903728,,
,9185.0,2871.0,6376.0,1492.0,2207.0,3319.0,-237.0,,,,0.0027469250536978,-2.01201703717686,0.0875069337151944,,-8.608776944498095,,
,9185.0,2871.0,6379.0,1491.0,2215.0,3296.0,-219.0,,,,0.0031812187001264,-2.01214264193252,0.0875458669385831,,-8.549691214425549,,
,9185.0,2872.0,6381.0,1493.0,2239.0,3297.0,-215.0,,,,0.0035848274645942,-2.01295286462584,0.0875789477399637,,-8.464493690399749,,
,9190.0,2872.0,6382.0,1494.0,2227.0,3288.0,-209.0,,,,0.0039623209910273,-2.01395991646238,0.0875719669197327,,-8.343896377839068,,
,9194.0,2874.0,6384.0,1493.0,2232.0,3279.0,-225.0,,,,0.0040324719002138,-2.01546953151299,0.0875458422254506,,-8.178632764360879,,
,9196.0,2873.0,6385.0,1493.0,2231.0,3268.0,-224.0,,,,0.0043792522953935,-2.01575334322809,0.0876246306508405,,-7.960030623939711,,
,9197.0,2875.0,6389.0,1496.0,2215.0,3275.0,-235.0,,,,0.0046069969937233,-2.01583299566017,0.0876246748178559,,-7.680577266074563,,
,9200.0,2876.0,6390.0,1496.0,2216.0,3300.0,-225.0,,,,0.004943422638773,-2.01624012265877,0.0876366991294564,,-7.334435286142118,,
,9202.0,2878.0,6394.0,1498.0,2219.0,3305.0,-229.0,,,,0.005213873586419,-2.01655605780533,0.0876505682640434,,-6.917868010616573,,
,9203.0,2879.0,6393.0,1500.0,2223.0,3310.0,-229.0,,,,0.0052749361248915,-2.01810016701305,0.0876864002415549,,-6.429538862500012,,
,9205.0,2875.0,6393.0,1498.0,2213.0,3263.0,-236.0,,,,0.0052490467033875,-2.01892728081379,0.0876589949948932,,-5.870658121246616,,
,9210.0,2877.0,6400.0,1501.0,2212.0,3259.0,-224.0,,,,0.0052661646045969,-2.02004385820478,0.0876691315463304,,-5.244963059392399,,
,9213.0,2880.0,6403.0,1502.0,2219.0,3299.0,-227.0,,,,0.005154631990154,-2.02097744515611,0.0876619232200637,,-4.55853113680874,,
,9214.0,2881.0,6405.0,1502.0,2199.0,3328.0,-213.0,,,,0.0051675902665717,-2.02217530422757,0.0876094281132073,,-3.8194386827489457,,
,9214.0,2878.0,6406.0,1500.0,2206.0,3340.0,-212.0,,,,0.0051969870866869,-2.02343081097656,0.0876063237751631,,-3.0372883483120448,,
,9218.0,2880.0,6406.0,1503.0,2217.0,3302.0,-187.0,,,,0.0050977153964243,-2.02404521061149,0.0875994606701464,,-2.222638057010466,,
,9219.0,2882.0,6411.0,1505.0,2214.0,3304.0,-213.0,,,,0.0050849697063553,-2.02399223448915,0.0876064787654363,,-1.3863728736668386,,
,9220.0,2881.0,6414.0,1506.0,2212.0,3307.0,-217.0,,,,0.0053020987837974,-2.0233300533062,0.0876141788664756,,-0.5390684618126738,,
,9222.0,2882.0,6416.0,1506.0,2236.0,3319.0,-206.0,,,,0.0056851298352819,-2.02278943610187,0.0876933366802007,,0.30960145717543813,,
,9225.0,2883.0,6420.0,1506.0,2242.0,3312.0,-187.0,,,,0.0060052854069332,-2.02255861425223,0.0877133522414501,,1.1513629586516279,,
,9229.0,2884.0,6424.0,1509.0,2212.0,3305.0,-189.0,,,,0.0061726241255613,-2.02303877176175,0.0877902129830888,,1.9797020280824063,,
,9232.0,2885.0,6427.0,1508.0,2201.0,3286.0,-209.0,,,,0.0063068359094638,-2.02415477001979,0.0878065259618328,,2.79005611713607,,
,9232.0,2886.0,6429.0,1509.0,2203.0,3281.0,-212.0,,,,0.0063627026213639,-2.02502693514124,0.0878229480191691,,3.579821070316245,,
,9233.0,2886.0,6430.0,1510.0,2211.0,3281.0,-215.0,,,,0.0065011028295775,-2.02567142311241,0.0877878646409561,,4.3481727358098325,,
,9235.0,2886.0,6437.0,1510.0,2195.0,3316.0,-207.0,,,,0.0064830019939309,-2.02665825675558,0.0878374311692385,,5.095717521581905,,
,9240.0,2887.0,6441.0,1513.0,2201.0,3290.0,-194.0,,,,0.0065423110869639,-2.02766213452947,0.0878442771035819,,5.824000319595611,,
,9242.0,2889.0,6441.0,1513.0,2205.0,3304.0,-193.0,,,,0.0065693550910309,-2.02788375106727,0.087854053194296,,6.5349114196929525,,
,9241.0,2890.0,6446.0,1514.0,2210.0,3307.0,-195.0,,,,0.0068528370547843,-2.02803712831943,0.0879112593848294,,7.230045404898506,,
,9247.0,2891.0,6453.0,1514.0,2219.0,3310.0,-217.0,,,,0.0072345901874138,-2.02836760601398,0.0879682230829844,,7.910072592451169,,
,9247.0,2892.0,6456.0,1516.0,2209.0,3333.0,-214.0,,,,0.0077743760047344,-2.02866552655629,0.0880609851812417,,8.574185105738135,,
,9253.0,2891.0,6460.0,1517.0,2201.0,3331.0,-196.0,,,,0.0080763674192066,-2.02966984293559,0.0881173548079621,,9.219674167828757,,
,9249.0,2893.0,6460.0,1520.0,2196.0,3347.0,-207.0,,,,0.0081168378315768,-2.03063382459293,0.0880845939103567,,9.841683623435609,,
,9249.0,2890.0,6463.0,1516.0,2202.0,3350.0,-235.0,,,,0.0080821535023896,-2.03198980273549,0.0881490435249812,,10.43316878889137,,
,9247.0,2887.0,6471.0,1519.0,2212.0,3331.0,-249.0,,,,0.0082366031007065,-2.03308059462669,0.0881713320397054,,10.985070914018817,,
,9246.0,2884.0,6469.0,1520.0,2207.0,3338.0,-252.0,,,,0.0083687846921655,-2.0327637831338,0.0881524958309085,,11.486696978593018,,
,9239.0,2880.0,6468.0,1519.0,2205.0,3350.0,-233.0,,,,0.0083975897312021,-2.03272214078584,0.0881765011654294,,11.926273939959229,,
,9228.0,2871.0,6465.0,1518.0,2192.0,3314.0,-207.0,,,,0.0082498847071704,-2.0333769996395,0.0881947508642498,,12.291628295424347,,
,9220.0,2869.0,6466.0,1518.0,2203.0,3312.0,-214.0,,,,0.0080300555907576,-2.03435263011124,0.0881426834479954,,12.570928444690201,,
,9211.0,2865.0,6467.0,1516.0,2212.0,3282.0,-192.0,,,,0.0078542172144395,-2.0346519563797,0.088129643026557,,12.75342090049336,,
,9202.0,2859.0,6462.0,1516.0,2209.0,3264.0,-200.0,,,,0.007816842698875,-2.03465931422267,0.0881096419060373,,12.830093099389275,,
,9190.0,2853.0,6452.0,1512.0,2191.0,3272.0,-187.0,,,,0.0077575347120324,-2.03520398232128,0.0881362631354192,,12.794205266601065,,
,9177.0,2847.0,6452.0,1510.0,2185.0,3278.0,-193.0,,,,0.0079937373615222,-2.03621770213961,0.0881542356811085,,12.64164997978417,,
,9169.0,2847.0,6443.0,1511.0,2196.0,3309.0,-214.0,,,,0.0081326234954236,-2.03684006112714,0.0881661705527882,,12.37111881847302,,
,9160.0,2843.0,6439.0,1509.0,2219.0,3306.0,-207.0,,,,0.0080836506405381,-2.0378491734686,0.0881666546998331,,11.98407904648721,,
,9149.0,2841.0,6434.0,1503.0,2228.0,3293.0,-221.0,,,,0.0080520154181439,-2.03881341794664,0.0881856854152886,,11.484586994865902,,
,9145.0,2840.0,6428.0,1505.0,2218.0,3296.0,-208.0,,,,0.008096846896056,-2.03949276319103,0.0882529826453703,,10.878983830812547,,
,9142.0,2840.0,6423.0,1502.0,2195.0,3308.0,-222.0,,,,0.0081580606356382,-2.04009042669428,0.0882077209154089,,10.175528169006073,,
,9139.0,2842.0,6419.0,1502.0,2184.0,3310.0,-230.0,,,,0.0082365828467125,-2.04090085930938,0.0881830567999457,,9.384015967456895,,
,9134.0,2843.0,6416.0,1503.0,2192.0,3323.0,-225.0,,,,0.0082137505538271,-2.04165379207933,0.0882559017060271,,8.515423884035627,,
