TimeLabel,MEAS1_PPG1,MEAS1_PPG2,MEAS1_PPG3,MEAS1_PPG4,ACCX,ACCY,ACCZ,HR_timestamp,HR_value,radar_timestamp,phase_rx0,phase_rx1,phase_rx2,timestep,n_process,original_rate,calculated_rate
2025-07-15 19:21:16,5199.0,1308.0,8430.0,1794.0,2067.0,2203.0,2485.0,2025-07-15 19:21:16,66.0,2025/07/15 07:21:16 PM,-0.523828693824878,-2.86183192798711,-0.898748629532153,2025/07/15 07:21:16 PM,6.079024495891228,14.373717308044434,14.558823529411764
,5197.0,1309.0,8431.0,1793.0,2050.0,2190.0,2484.0,2025-07-15 19:21:16,66.0,,-0.5240723957303,-2.86183736112479,-0.898276722771053,2025/07/15 07:21:26 PM,5.27608142791761,14.218009948730469,16.683116869552496
,5200.0,1309.0,8431.0,1790.0,2080.0,2187.0,2489.0,2025-07-15 19:21:18,66.0,,-0.523959248274735,-2.86180617846653,-0.89887431129273,2025/07/15 07:21:36 PM,4.4446082086930065,15.578635215759276,18.32207207207207
,5194.0,1312.0,8431.0,1793.0,2093.0,2184.0,2484.0,2025-07-15 19:21:18,66.0,,-0.52383660726923,-2.86171578545415,-0.898358992055234,2025/07/15 07:21:46 PM,3.6133223813064443,16.597511291503906,17.76138716356108
,5195.0,1308.0,8427.0,1788.0,2100.0,2178.0,2492.0,2025-07-15 19:21:19,65.0,,-0.523791944806626,-2.86166467806301,-0.897892381531779,2025/07/15 07:21:56 PM,2.8084071536416193,17.977527618408203,16.388542963885428
,5192.0,1308.0,8426.0,1790.0,2084.0,2188.0,2486.0,2025-07-15 19:21:21,65.0,,-0.522932101200729,-2.86162590449483,-0.896952508090312,2025/07/15 07:22:06 PM,2.052064650070489,17.608217239379883,17.04273504273505
,5192.0,1310.0,8430.0,1791.0,2070.0,2194.0,2487.0,2025-07-15 19:21:21,65.0,,-0.52245998741322,-2.86130849955918,-0.897190241453046,2025/07/15 07:22:16 PM,1.3614623470460692,16.746410369873047,14.127637673700445
,5191.0,1310.0,8430.0,1789.0,2067.0,2190.0,2473.0,2025-07-15 19:21:23,65.0,,-0.521945816665284,-2.86141419795079,-0.896814127499304,2025/07/15 07:22:26 PM,0.7481496091401743,15.521063804626465,19.21805096284767
,5187.0,1308.0,8428.0,1788.0,2081.0,2206.0,2487.0,2025-07-15 19:21:23,65.0,,-0.52159667504213,-2.86139523928981,-0.89601737413611,2025/07/15 07:22:36 PM,0.21796830670228476,16.1616153717041,16.56290066157239
,5187.0,1307.0,8427.0,1788.0,2088.0,2200.0,2480.0,2025-07-15 19:21:24,66.0,,-0.521631036620534,-2.86135798032365,-0.894886011533437,2025/07/15 07:22:46 PM,-0.2285709459649995,16.17873764038086,16.57142857142857
,5185.0,1305.0,8429.0,1788.0,2093.0,2193.0,2480.0,2025-07-15 19:21:26,66.0,,-0.521956555188937,-2.86150236148214,-0.895845869652375,2025/07/15 07:22:56 PM,-0.5955224662655114,16.985137939453125,14.753231492361929
,5187.0,1305.0,8429.0,1788.0,2099.0,2205.0,2469.0,2025-07-15 19:21:26,67.0,,-0.521639090523854,-2.86138271759097,-0.895699629159006,2025/07/15 07:23:06 PM,-0.8904615314826193,15.789473533630373,16.496402148576074
,5182.0,1306.0,8427.0,1787.0,2081.0,2195.0,2476.0,2025-07-15 19:21:27,67.0,,-0.521380449409558,-2.8615879484092,-0.896309542944066,2025/07/15 07:23:16 PM,-1.123297194952965,15.294974327087402,17.934434968017033
,5183.0,1308.0,8429.0,1786.0,2082.0,2189.0,2480.0,2025-07-15 19:21:28,68.0,,-0.520959831303749,-2.86148689130276,-0.895228203709496,2025/07/15 07:23:26 PM,-1.3050800877839324,16.042781829833984,15.800415800415815
,5184.0,1306.0,8430.0,1786.0,2087.0,2189.0,2488.0,2025-07-15 19:21:29,68.0,,-0.521323500358263,-2.86141580068163,-0.895568002430455,2025/07/15 07:23:36 PM,-1.4469287715757535,16.666667938232422,15.835232316576514
,5183.0,1307.0,8429.0,1787.0,2074.0,2213.0,2482.0,2025-07-15 19:21:30,68.0,,-0.521193613973588,-2.86140453753485,-0.895456883331454,2025/07/15 07:23:46 PM,-1.5591686566392289,16.50943374633789,15.00234411626817
,5182.0,1308.0,8429.0,1788.0,2072.0,2207.0,2475.0,2025-07-15 19:21:32,68.0,,-0.521381269190862,-2.86151120933787,-0.896301762960371,2025/07/15 07:23:56 PM,-1.6507388504787106,15.555556297302246,16.82810340344587
,5180.0,1309.0,8429.0,1787.0,2071.0,2212.0,2484.0,2025-07-15 19:21:32,68.0,,-0.522029670211727,-2.86152558984057,-0.896290367204646,2025/07/15 07:24:06 PM,-1.7288809697880714,16.129032135009766,17.24190664408055
,5185.0,1305.0,8428.0,1787.0,2072.0,2173.0,2483.0,2025-07-15 19:21:33,68.0,,-0.522055284876212,-2.86169234389021,-0.89694965680497,,-1.7990860226944223,,
,5187.0,1307.0,8430.0,1788.0,2096.0,2180.0,2478.0,2025-07-15 19:21:35,67.0,,-0.522028045407931,-2.86181532744533,-0.897053283717851,,-1.865246259247381,,
,5187.0,1310.0,8429.0,1788.0,2096.0,2183.0,2464.0,2025-07-15 19:21:36,67.0,,-0.522553146385399,-2.86202428462959,-0.897117650363391,,-1.9299419914176625,,
,5189.0,1309.0,8431.0,1791.0,2081.0,2205.0,2477.0,2025-07-15 19:21:36,67.0,,-0.52243588075371,-2.86163845317226,-0.896826279354733,,-1.994789591028266,,
,5189.0,1308.0,8429.0,1789.0,2075.0,2206.0,2484.0,2025-07-15 19:21:37,67.0,,-0.52251852408339,-2.86160853540132,-0.896849333679544,,-2.0607842376317094,,
,5188.0,1310.0,8430.0,1788.0,2092.0,2213.0,2470.0,2025-07-15 19:21:38,66.0,,-0.522411053697402,-2.86154763910745,-0.896694598521103,,-2.1285861144264766,,
,5195.0,1309.0,8429.0,1791.0,2104.0,2197.0,2454.0,2025-07-15 19:21:39,66.0,,-0.521993643656356,-2.86148388531044,-0.895964614967387,,-2.198718072263407,,
,5194.0,1312.0,8428.0,1792.0,2098.0,2194.0,2460.0,2025-07-15 19:21:41,66.0,,-0.521293963960135,-2.86141568570878,-0.896074965244897,,-2.2716630477472974,,
,5197.0,1309.0,8430.0,1788.0,2094.0,2197.0,2479.0,2025-07-15 19:21:42,66.0,,-0.520775501418465,-2.86136596947569,-0.89571323714426,,-2.3478678857911537,,
,5201.0,1315.0,8431.0,1790.0,2095.0,2204.0,2474.0,2025-07-15 19:21:42,66.0,,-0.520887166611609,-2.86124306196008,-0.895512923478578,,-2.427674511737038,,
,5204.0,1314.0,8430.0,1791.0,2101.0,2216.0,2484.0,2025-07-15 19:21:43,66.0,,-0.520361798712477,-2.86102787067009,-0.895640396233747,,-2.5112085060458647,,
,5205.0,1315.0,8430.0,1792.0,2105.0,2215.0,2479.0,2025-07-15 19:21:44,66.0,,-0.52018906243613,-2.86104997430758,-0.895240197634989,,-2.598258986174233,,
,5206.0,1314.0,8429.0,1791.0,2097.0,2202.0,2489.0,2025-07-15 19:21:45,66.0,,-0.519894112376301,-2.86087436118306,-0.894675404616078,,-2.6881828019086784,,
,5207.0,1317.0,8430.0,1790.0,2101.0,2199.0,2488.0,2025-07-15 19:21:46,67.0,,-0.51957134839017,-2.86084023864479,-0.894103370869923,,-2.7798609817718796,,
,5210.0,1318.0,8432.0,1792.0,2098.0,2207.0,2484.0,2025-07-15 19:21:48,67.0,,-0.519567153074739,-2.86080262323936,-0.893774215761115,,-2.8717266159956303,,
,5215.0,1318.0,8431.0,1794.0,2097.0,2193.0,2483.0,2025-07-15 19:21:48,67.0,,-0.519093714567506,-2.86082687848383,-0.893617627108246,,-2.961871475451699,,
,5219.0,1320.0,8432.0,1794.0,2094.0,2192.0,2477.0,2025-07-15 19:21:49,67.0,,-0.518484281466568,-2.86065948953349,-0.892990234407228,,-3.0482246605157557,,
,5217.0,1318.0,8429.0,1792.0,2101.0,2198.0,2476.0,2025-07-15 19:21:50,67.0,,-0.518712226898013,-2.86050282138318,-0.892643630959523,,-3.1287824598464877,,
,5220.0,1320.0,8432.0,1794.0,2098.0,2199.0,2483.0,2025-07-15 19:21:51,67.0,,-0.518184568275247,-2.86056915728071,-0.892501600880813,,-3.201857404205076,,
,5224.0,1323.0,8431.0,1795.0,2102.0,2207.0,2469.0,2025-07-15 19:21:53,67.0,,-0.518509026388511,-2.86044289999936,-0.892357644711134,,-3.2663091255214125,,
,5227.0,1322.0,8433.0,1795.0,2090.0,2209.0,2473.0,2025-07-15 19:21:54,68.0,,-0.518426365060287,-2.86055816979474,-0.892562421896433,,-3.321721207625562,,
,5227.0,1324.0,8432.0,1791.0,2097.0,2216.0,2459.0,2025-07-15 19:21:54,68.0,,-0.518606506591996,-2.86047740203148,-0.892277595903886,,-3.3684955472845766,,
,5231.0,1323.0,8430.0,1793.0,2085.0,2223.0,2470.0,2025-07-15 19:21:56,68.0,,-0.519027521118976,-2.86068557734691,-0.893759545980398,,-3.4078463429348624,,
,5237.0,1326.0,8431.0,1798.0,2089.0,2204.0,2472.0,2025-07-15 19:21:57,69.0,,-0.519544873900423,-2.86054042880873,-0.893919502154847,,-3.441687435436566,,
,5239.0,1327.0,8433.0,1798.0,2091.0,2200.0,2479.0,2025-07-15 19:21:58,69.0,,-0.519717498440007,-2.86082726561737,-0.893659179939314,,-3.472418054454549,,
,5240.0,1326.0,8434.0,1799.0,2097.0,2200.0,2481.0,2025-07-15 19:21:59,68.0,,-0.519695462837126,-2.86078631537074,-0.894479234638514,,-3.5026224845752356,,
,5242.0,1329.0,8430.0,1797.0,2101.0,2204.0,2468.0,2025-07-15 19:21:59,68.0,,-0.519874235418331,-2.8608603276483,-0.89422070486652,,-3.534708305233011,,
,5245.0,1330.0,8433.0,1798.0,2109.0,2200.0,2469.0,2025-07-15 19:22:00,67.0,,-0.520413721316503,-2.86099896597266,-0.895388824580617,,-3.570515210190804,,
,5247.0,1330.0,8433.0,1800.0,2092.0,2191.0,2489.0,2025-07-15 19:22:02,66.0,,-0.519845946032273,-2.86109481425855,-0.894071859532567,,-3.6109315803721116,,
,5251.0,1330.0,8433.0,1801.0,2081.0,2200.0,2490.0,2025-07-15 19:22:03,66.0,,-0.520038592458102,-2.8608166108691,-0.893395319889865,,-3.6555585231016514,,
,5251.0,1330.0,8431.0,1800.0,2085.0,2213.0,2479.0,2025-07-15 19:22:03,66.0,,-0.52040809004286,-2.86090854903387,-0.893290515644301,,-3.702460290551481,,
,5253.0,1331.0,8430.0,1800.0,2090.0,2198.0,2473.0,2025-07-15 19:22:05,67.0,,-0.519682930632311,-2.86067743633658,-0.894282033693456,,-3.7480349892767593,,
,5257.0,1332.0,8433.0,1800.0,2091.0,2201.0,2467.0,2025-07-15 19:22:05,67.0,,-0.519144678313622,-2.86049073625645,-0.892776793164484,,-3.7870297174522936,,
,5259.0,1336.0,8433.0,1802.0,2087.0,2203.0,2478.0,2025-07-15 19:22:06,68.0,,-0.519077467675962,-2.86067350147059,-0.892278648021891,,-3.8127098921507847,,
,5260.0,1333.0,8433.0,1802.0,2082.0,2209.0,2487.0,2025-07-15 19:22:07,68.0,,-0.518890167978233,-2.8605410870327,-0.8930721052213,,-3.817174906202296,,
,5262.0,1333.0,8432.0,1803.0,2082.0,2196.0,2473.0,2025-07-15 19:22:08,69.0,,-0.518663155056618,-2.8604268835045,-0.892840025952202,,-3.7917941578292447,,
,5265.0,1335.0,8433.0,1802.0,2083.0,2193.0,2478.0,2025-07-15 19:22:10,69.0,,-0.518287547489381,-2.86044456137964,-0.89294823964704,,-3.7277225281036253,,
,5267.0,1336.0,8432.0,1802.0,2101.0,2204.0,2484.0,2025-07-15 19:22:11,68.0,,-0.51818139847709,-2.86051461572324,-0.892290664022537,,-3.616445366101618,,
,5270.0,1340.0,8435.0,1805.0,2099.0,2193.0,2483.0,2025-07-15 19:22:11,68.0,,-0.517943393894802,-2.86033973016532,-0.891810410095625,,-3.4503007874488634,,
,5272.0,1336.0,8434.0,1802.0,2079.0,2183.0,2486.0,2025-07-15 19:22:13,67.0,,-0.51725586527681,-2.86034095823218,-0.892482679761498,,-3.222930834400666,,
,5276.0,1339.0,8431.0,1804.0,2086.0,2200.0,2488.0,2025-07-15 19:22:13,66.0,,-0.516673125581637,-2.86014062569453,-0.890881891440545,,-2.92962189215899,,
,5279.0,1338.0,8436.0,1805.0,2066.0,2210.0,2489.0,2025-07-15 19:22:14,66.0,,-0.516721685584601,-2.85991247594747,-0.890937139539772,,-2.567508414857635,,
,5282.0,1342.0,8436.0,1808.0,2071.0,2211.0,2468.0,2025-07-15 19:22:15,66.0,,-0.516347521042955,-2.85983904258344,-0.890486831525674,,-2.135632160115235,,
,5285.0,1340.0,8434.0,1806.0,2070.0,2207.0,2471.0,2025-07-15 19:22:17,66.0,,-0.515510614776258,-2.85962029348343,-0.889742446857621,,-1.6348702082778357,,
,5286.0,1342.0,8433.0,1807.0,2076.0,2206.0,2494.0,2025-07-15 19:22:18,66.0,,-0.515599434794611,-2.85971601410994,-0.889438039485015,,-1.067765735084736,,
,5290.0,1343.0,8432.0,1807.0,2073.0,2211.0,2483.0,2025-07-15 19:22:19,67.0,,-0.515419589342876,-2.85954005571052,-0.889851758591072,,-0.4383114157742244,,
,5291.0,1343.0,8436.0,1808.0,2098.0,2209.0,2482.0,2025-07-15 19:22:19,68.0,,-0.515291724316721,-2.85950069248618,-0.889515719886301,,0.24825754122363408,,
,5295.0,1342.0,8433.0,1808.0,2092.0,2214.0,2488.0,2025-07-15 19:22:21,68.0,,-0.514955735327421,-2.85946318372682,-0.888849575943891,,0.9856075843120135,,
,5297.0,1343.0,8434.0,1808.0,2099.0,2224.0,2491.0,2025-07-15 19:22:21,68.0,,-0.515148237880697,-2.8594294915998,-0.889743250369792,,1.7663496119693107,,
,5301.0,1347.0,8435.0,1812.0,2096.0,2215.0,2471.0,2025-07-15 19:22:22,68.0,,-0.514910826351726,-2.85939798409972,-0.888474046416443,,2.5819645223085432,,
,5301.0,1345.0,8435.0,1813.0,2073.0,2207.0,2496.0,2025-07-15 19:22:24,68.0,,-0.514960735848801,-2.85949103607191,-0.888827466120027,,3.4226230291753956,,
,5304.0,1347.0,8437.0,1813.0,2079.0,2211.0,2501.0,2025-07-15 19:22:24,67.0,,-0.514626595201402,-2.85917634536197,-0.888892911779596,,4.276939021113253,,
,5304.0,1347.0,8434.0,1810.0,2100.0,2226.0,2478.0,2025-07-15 19:22:26,67.0,,-0.51448224220551,-2.85925575640563,-0.888795077297133,,5.131719510228421,,
,5300.0,1345.0,8434.0,1809.0,2089.0,2208.0,2475.0,2025-07-15 19:22:27,66.0,,-0.514054024092513,-2.85914452082678,-0.887704898382963,,5.971789593743891,,
,5296.0,1345.0,8435.0,1808.0,2117.0,2213.0,2470.0,2025-07-15 19:22:27,66.0,,-0.513827993927701,-2.85890405636714,-0.887742770513266,,6.779974178611486,,
,5287.0,1340.0,8431.0,1807.0,2105.0,2219.0,2459.0,2025-07-15 19:22:29,66.0,,-0.513491476658803,-2.85896715952479,-0.88768562875716,,7.537307663926412,,
,5276.0,1335.0,8434.0,1805.0,2103.0,2220.0,2463.0,2025-07-15 19:22:30,66.0,,-0.513226377872646,-2.85876362288409,-0.88723007173163,,8.223518933479625,,
,5266.0,1330.0,8432.0,1800.0,2103.0,2204.0,2481.0,2025-07-15 19:22:30,66.0,,-0.513202649938108,-2.85883752834567,-0.886905171807986,,8.817804751571833,,
,5254.0,1325.0,8431.0,1800.0,2094.0,2211.0,2487.0,2025-07-15 19:22:31,66.0,,-0.512686389576388,-2.85877891337591,-0.886387698063158,,9.299864530759294,,
,5241.0,1319.0,8430.0,1796.0,2082.0,2228.0,2489.0,2025-07-15 19:22:32,66.0,,-0.51195084882052,-2.8586617577257,-0.885829848234722,,9.651128943197067,,
,5229.0,1314.0,8432.0,1794.0,2094.0,2223.0,2485.0,2025-07-15 19:22:33,66.0,,-0.511903503056856,-2.85859282142478,-0.88553457738196,,9.85607963789814,,
,5214.0,1308.0,8427.0,1791.0,2097.0,2219.0,2482.0,2025-07-15 19:22:35,66.0,,-0.511249441331836,-2.85846994545156,-0.884588597434833,,9.90353249481546,,
,5202.0,1304.0,8425.0,1788.0,2091.0,2215.0,2484.0,2025-07-15 19:22:36,66.0,,-0.510704844811941,-2.85844105414134,-0.884879299078031,,9.787746219700724,,
,5195.0,1305.0,8428.0,1786.0,2090.0,2209.0,2473.0,2025-07-15 19:22:36,65.0,,-0.510573291218337,-2.85823204117308,-0.883862121675757,,9.509223773125697,,
,5187.0,1300.0,8427.0,1784.0,2093.0,2217.0,2473.0,2025-07-15 19:22:38,65.0,,-0.510819014486462,-2.85803257223168,-0.883889289717982,,9.075096566154377,,
,5178.0,1296.0,8426.0,1782.0,2084.0,2215.0,2472.0,2025-07-15 19:22:38,65.0,,-0.510144258550325,-2.85821000821164,-0.883522152564239,,8.499019458257957,,
,5171.0,1293.0,8422.0,1779.0,2085.0,2221.0,2476.0,2025-07-15 19:22:39,64.0,,-0.51035818179961,-2.85810058948752,-0.883650619585397,,7.800555343175913,,
,5165.0,1294.0,8426.0,1780.0,2114.0,2221.0,2470.0,2025-07-15 19:22:40,64.0,,-0.510273276390312,-2.85818981464003,-0.883607242161085,,7.004085742802068,,
,5162.0,1294.0,8425.0,1778.0,2113.0,2223.0,2468.0,2025-07-15 19:22:41,64.0,,-0.510255495829003,-2.85835395597137,-0.883744926770472,,6.13733985525062,,
,5157.0,1292.0,8423.0,1778.0,2095.0,2220.0,2469.0,2025-07-15 19:22:42,64.0,,-0.51009411285601,-2.85811579264563,-0.883342043286539,,5.229679412569809,,
,5151.0,1290.0,8425.0,1774.0,2095.0,2198.0,2469.0,2025-07-15 19:22:44,65.0,,-0.510306166637048,-2.85814615014363,-0.883377097922994,,4.310302754060775,,
,5150.0,1290.0,8425.0,1773.0,2097.0,2223.0,2466.0,2025-07-15 19:22:44,65.0,,-0.510214007482762,-2.85792783392874,-0.883166051936055,,3.4065350460412485,,
,5150.0,1291.0,8425.0,1777.0,2096.0,2195.0,2475.0,2025-07-15 19:22:46,65.0,,-0.510137739523563,-2.85799684369342,-0.882981832819712,,2.542353652766788,,
,5149.0,1290.0,8424.0,1773.0,2096.0,2190.0,2453.0,2025-07-15 19:22:46,65.0,,-0.510063938031886,-2.85812009308552,-0.883877294360723,,1.7372630809085972,,
,5147.0,1292.0,8428.0,1777.0,2086.0,2199.0,2457.0,2025-07-15 19:22:47,65.0,,-0.509812324088724,-2.85804776823141,-0.882908878599252,,1.005589423548864,,
,5146.0,1290.0,8424.0,1773.0,2073.0,2198.0,2484.0,2025-07-15 19:22:48,64.0,,-0.509932248945876,-2.85800640781619,-0.883574050438459,,0.3562169077506744,,
,5146.0,1292.0,8426.0,1773.0,2086.0,2197.0,2489.0,2025-07-15 19:22:50,64.0,,-0.510086393392494,-2.8581459485398,-0.883079765785976,,-0.2072547734548406,,
,5145.0,1292.0,8427.0,1774.0,2099.0,2196.0,2468.0,2025-07-15 19:22:51,64.0,,-0.510148003195456,-2.85809711811847,-0.883079758878013,,-0.6859896913487084,,
,5147.0,1292.0,8427.0,1773.0,2094.0,2207.0,2466.0,2025-07-15 19:22:51,64.0,,-0.510440333581001,-2.85824294678104,-0.883813641634103,,-1.0851145089190606,,
,5147.0,1292.0,8426.0,1773.0,2101.0,2196.0,2470.0,2025-07-15 19:22:52,64.0,,-0.510624364700079,-2.85811476576442,-0.883021526703738,,-1.4127346314297942,,
,5149.0,1291.0,8425.0,1774.0,2067.0,2181.0,2478.0,2025-07-15 19:22:54,65.0,,-0.510913453592972,-2.85830495701,-0.884387882299208,,-1.6788696959143974,,
,5150.0,1293.0,8427.0,1774.0,2078.0,2185.0,2473.0,2025-07-15 19:22:54,66.0,,-0.510826770881246,-2.85832001713451,-0.88426166929719,,-1.8944056557279918,,
,5151.0,1297.0,8429.0,1774.0,2076.0,2190.0,2483.0,2025-07-15 19:22:56,67.0,,-0.510915686468141,-2.85831250905234,-0.883445643279501,,-2.07014861499736,,
,5152.0,1294.0,8427.0,1774.0,2072.0,2196.0,2486.0,2025-07-15 19:22:57,68.0,,-0.510380827456638,-2.85824577383396,-0.884293400143957,,-2.216047886619266,,
,5152.0,1294.0,8426.0,1772.0,2060.0,2198.0,2480.0,2025-07-15 19:22:57,70.0,,-0.510304462762893,-2.85806221264232,-0.883856440642213,,-2.340634123371183,,
,5154.0,1297.0,8427.0,1773.0,2068.0,2198.0,2491.0,2025-07-15 19:22:58,71.0,,-0.509880327568751,-2.85798140168496,-0.882920196929779,,-2.4506942907627405,,
,5159.0,1299.0,8429.0,1776.0,2087.0,2196.0,2478.0,2025-07-15 19:22:59,72.0,,-0.509903739879653,-2.85782576570946,-0.882845454168887,,-2.551180253233725,,
,5156.0,1301.0,8426.0,1775.0,2094.0,2199.0,2485.0,2025-07-15 19:23:00,73.0,,-0.509899807906571,-2.85787828387278,-0.883018097494283,,-2.645323863101166,,
,5158.0,1298.0,8426.0,1774.0,2062.0,2206.0,2486.0,2025-07-15 19:23:02,74.0,,-0.51005805577817,-2.85784065243479,-0.882509018447864,,-2.7349115071146084,,
,5161.0,1300.0,8425.0,1777.0,2062.0,2212.0,2476.0,2025-07-15 19:23:03,74.0,,-0.510242609648557,-2.85811469121429,-0.883348606293753,,-2.8206582619721803,,
,5162.0,1300.0,8428.0,1775.0,2081.0,2197.0,2493.0,2025-07-15 19:23:03,74.0,,-0.51036524854027,-2.85803734074319,-0.882937752338906,,-2.902618293889222,,
,5160.0,1300.0,8430.0,1776.0,2082.0,2195.0,2488.0,2025-07-15 19:23:05,74.0,,-0.510341698105677,-2.85830679940795,-0.883469286306633,,-2.980573725253664,,
,5159.0,1300.0,8425.0,1774.0,2075.0,2195.0,2477.0,2025-07-15 19:23:06,74.0,,-0.51081199732848,-2.85831004121231,-0.88400665560816,,-3.0543564261448477,,
,5156.0,1298.0,8427.0,1774.0,2063.0,2209.0,2475.0,2025-07-15 19:23:06,74.0,,-0.511051651877846,-2.85826815650221,-0.884115515097755,,-3.124072745677608,,
,5160.0,1298.0,8430.0,1775.0,2089.0,2196.0,2480.0,2025-07-15 19:23:08,74.0,,-0.510442570063156,-2.85827352044726,-0.884363756153256,,-3.1902172949603447,,
,5157.0,1300.0,8427.0,1777.0,2082.0,2194.0,2471.0,2025-07-15 19:23:08,75.0,,-0.510706674369161,-2.85822281974084,-0.883873486658527,,-3.253676749443,,
,5156.0,1299.0,8425.0,1774.0,2069.0,2200.0,2476.0,2025-07-15 19:23:09,75.0,,-0.510228417699108,-2.85805701895921,-0.88302334623771,,-3.3156372130024803,,
,5153.0,1296.0,8424.0,1774.0,2080.0,2208.0,2472.0,2025-07-15 19:23:10,76.0,,-0.510355827680985,-2.85805624640477,-0.882936123730813,,-3.377418354977489,,
,5154.0,1296.0,8431.0,1772.0,2084.0,2201.0,2454.0,2025-07-15 19:23:11,76.0,,-0.510506850969525,-2.85818207437439,-0.883295244778167,,-3.4402639973161757,,
,5153.0,1295.0,8427.0,1775.0,2095.0,2195.0,2458.0,2025-07-15 19:23:12,75.0,,-0.510329673237601,-2.85807723660292,-0.883260590461637,,-3.5051221122265614,,
,5154.0,1297.0,8429.0,1773.0,2081.0,2183.0,2472.0,2025-07-15 19:23:14,75.0,,-0.510207328824811,-2.8580974457286,-0.882570541677545,,-3.5724475021983895,,
,5150.0,1297.0,8426.0,1772.0,2069.0,2187.0,2487.0,2025-07-15 19:23:15,74.0,,-0.510676113985583,-2.85829139304963,-0.883444759444488,,-3.6420579637467507,,
,5154.0,1295.0,8425.0,1772.0,2061.0,2193.0,2469.0,2025-07-15 19:23:15,73.0,,-0.510967471114606,-2.85829576619372,-0.884019410707418,,-3.713069496096549,,
,5152.0,1297.0,8426.0,1772.0,2062.0,2198.0,2465.0,2025-07-15 19:23:16,73.0,,-0.511588280088619,-2.85835004954353,-0.884445306722881,,-3.7839279565602872,,
,5152.0,1294.0,8429.0,1774.0,2073.0,2186.0,2481.0,2025-07-15 19:23:17,74.0,,-0.512168035627824,-2.85875020726778,-0.886150295250004,,-3.8525433970938057,,
,5151.0,1297.0,8427.0,1774.0,2068.0,2184.0,2480.0,2025-07-15 19:23:19,75.0,,-0.512733187658011,-2.85920556541541,-0.886899438580796,,-3.9165194680506707,,
,5151.0,1293.0,8425.0,1770.0,2063.0,2182.0,2479.0,2025-07-15 19:23:19,76.0,,-0.51274615591904,-2.85902831008556,-0.886667049104098,,-3.9734549211487677,,
,5155.0,1296.0,8428.0,1772.0,2071.0,2205.0,2483.0,2025-07-15 19:23:20,77.0,,-0.513273975896145,-2.85907591894854,-0.886709494132772,,-4.0212798109179735,,
,5155.0,1298.0,8428.0,1773.0,2075.0,2202.0,2480.0,2025-07-15 19:23:21,78.0,,-0.513238271489099,-2.85913100452428,-0.888135310656148,,-4.0585789249943875,,
,5157.0,1298.0,8429.0,1775.0,2065.0,2206.0,2470.0,2025-07-15 19:23:23,77.0,,-0.513968431054824,-2.85927672513581,-0.886460061146148,,-4.084852334789143,,
2025-07-15 19:21:17,5161.0,1301.0,8431.0,1775.0,2071.0,2199.0,2472.0,2025-07-15 19:23:23,77.0,2025/07/15 07:21:17 PM,-0.513803558118706,-2.85940914586099,-0.887869527533408,,-4.100668746924471,,
,5161.0,1300.0,8426.0,1776.0,2071.0,2203.0,2477.0,2025-07-15 19:23:24,75.0,,-0.514583424840866,-2.85959210836643,-0.887991764670543,,-4.107680074565006,,
,5160.0,1297.0,8428.0,1773.0,2067.0,2208.0,2478.0,2025-07-15 19:23:25,74.0,,-0.514756950391883,-2.85949587664247,-0.888798915313976,,-4.108482534902544,,
,5166.0,1303.0,8431.0,1778.0,2092.0,2178.0,2473.0,2025-07-15 19:23:27,72.0,,-0.514499518386933,-2.85975386514666,-0.888863785228841,,-4.106327967791208,,
,5168.0,1303.0,8430.0,1778.0,2092.0,2172.0,2474.0,2025-07-15 19:23:27,71.0,,-0.514473396086177,-2.85952682766554,-0.889330796079749,,-4.104707092672537,,
,5171.0,1303.0,8426.0,1776.0,2099.0,2192.0,2475.0,2025-07-15 19:23:28,70.0,,-0.514496922570861,-2.85969366975629,-0.889590716766792,,-4.106842641940497,,
,5174.0,1305.0,8431.0,1778.0,2086.0,2184.0,2479.0,2025-07-15 19:23:30,69.0,,-0.514906270294802,-2.85983804486982,-0.889114114227803,,-4.1151431918321,,
,5176.0,1308.0,8429.0,1778.0,2095.0,2193.0,2477.0,2025-07-15 19:23:30,69.0,,-0.514689148773517,-2.85952273317371,-0.890130278280942,,-4.130676426679691,,
,5180.0,1307.0,8429.0,1780.0,2082.0,2181.0,2479.0,2025-07-15 19:23:32,69.0,,-0.514446536532114,-2.85968738791994,-0.889244367861036,,-4.152722276033712,,
,5179.0,1307.0,8431.0,1778.0,2097.0,2183.0,2488.0,2025-07-15 19:23:32,68.0,,-0.514240180336034,-2.85957941911631,-0.888335403577478,,-4.178461406858881,,
,5186.0,1309.0,8429.0,1778.0,2090.0,2192.0,2477.0,2025-07-15 19:23:33,68.0,,-0.513792975482077,-2.85959352984227,-0.888759257068628,,-4.202843376870438,,
,5187.0,1311.0,8430.0,1778.0,2078.0,2191.0,2478.0,2025-07-15 19:23:35,69.0,,-0.513557406554474,-2.85928789334673,-0.888950138151012,,-4.2186625641867685,,
,5193.0,1312.0,8432.0,1779.0,2067.0,2207.0,2481.0,2025-07-15 19:23:36,69.0,,-0.513911656176773,-2.85917115145243,-0.8883387891742,,-4.216850400342414,,
,5194.0,1312.0,8431.0,1780.0,2049.0,2208.0,2480.0,2025-07-15 19:23:36,70.0,,-0.513728417072792,-2.85920729976011,-0.887409709891806,,-4.1869710114787235,,
,5198.0,1313.0,8430.0,1783.0,2063.0,2212.0,2496.0,2025-07-15 19:23:38,71.0,,-0.513545462182645,-2.85910060964104,-0.887277558836597,,-4.1178854414799115,,
,5202.0,1313.0,8432.0,1784.0,2073.0,2197.0,2502.0,2025-07-15 19:23:39,72.0,,-0.513688490305882,-2.85930782137313,-0.887433719305309,,-3.998528724549088,,
,5206.0,1315.0,8431.0,1785.0,2058.0,2201.0,2477.0,2025-07-15 19:23:39,72.0,,-0.51347284551143,-2.85942492174327,-0.887379135051678,,-3.818726786948659,,
,5208.0,1316.0,8433.0,1785.0,2063.0,2199.0,2484.0,2025-07-15 19:23:40,72.0,,-0.514452290411216,-2.85932396213787,-0.888039043638641,,-3.5699704779991515,,
,5211.0,1317.0,8431.0,1784.0,2070.0,2207.0,2476.0,2025-07-15 19:23:41,72.0,,-0.514601634834382,-2.85949035558553,-0.888762776569717,,-3.24606617116006,,
,5212.0,1318.0,8432.0,1784.0,2067.0,2207.0,2476.0,2025-07-15 19:23:42,71.0,,-0.514562787420479,-2.85944779378418,-0.88748894764261,,-2.8435983696316347,,
,5220.0,1319.0,8430.0,1789.0,2080.0,2202.0,2478.0,2025-07-15 19:23:43,71.0,,-0.514747456248998,-2.85936440582249,-0.888675553665254,,-2.3621676028031415,,
,5222.0,1321.0,8433.0,1788.0,2071.0,2201.0,2489.0,2025-07-15 19:23:44,71.0,,-0.514373329045402,-2.85927412724683,-0.888356787119411,,-1.804400764324499,,
,5226.0,1321.0,8432.0,1788.0,2069.0,2204.0,2495.0,2025-07-15 19:23:45,72.0,,-0.514686164000234,-2.85948816479878,-0.888974142675784,,-1.175763287407317,,
,5226.0,1323.0,8432.0,1787.0,2076.0,2212.0,2487.0,2025-07-15 19:23:47,72.0,,-0.514475708004069,-2.85950551689625,-0.888289527119041,,-0.4842264879253182,,
,5234.0,1323.0,8431.0,1789.0,2080.0,2217.0,2487.0,2025-07-15 19:23:47,73.0,,-0.514600556505512,-2.85942086694584,-0.889749838529831,,0.2601448137696435,,
,5235.0,1324.0,8431.0,1790.0,2085.0,2219.0,2490.0,2025-07-15 19:23:48,73.0,,-0.515503636898789,-2.85962249038079,-0.889530123823727,,1.0456203596951978,,
,5237.0,1325.0,8433.0,1791.0,2084.0,2213.0,2499.0,2025-07-15 19:23:49,73.0,,-0.515450226116198,-2.85972539713203,-0.889675301911515,,1.8591964021089702,,
,5240.0,1326.0,8431.0,1790.0,2070.0,2214.0,2483.0,2025-07-15 19:23:50,73.0,,-0.515610210498021,-2.85972290852157,-0.889461158227742,,2.686919710522144,,
,5244.0,1328.0,8432.0,1793.0,2071.0,2200.0,2492.0,2025-07-15 19:23:51,72.0,,-0.516024437411317,-2.859836344364,-0.890292212586568,,3.5141350790444243,,
,5247.0,1327.0,8431.0,1795.0,2072.0,2198.0,2491.0,2025-07-15 19:23:52,71.0,,-0.516227190428939,-2.85989118277629,-0.889469853157533,,4.325669535405165,,
,5251.0,1328.0,8434.0,1793.0,2077.0,2210.0,2485.0,2025-07-15 19:23:54,70.0,,-0.516739901488795,-2.85996725534594,-0.891472994169272,,5.105982763164178,,
,5253.0,1333.0,8434.0,1793.0,2079.0,2225.0,2474.0,2025-07-15 19:23:54,70.0,,-0.517359748107655,-2.86016623263621,-0.891534461599954,,5.839321989712922,,
,5257.0,1332.0,8432.0,1793.0,2081.0,2217.0,2462.0,2025-07-15 19:23:56,70.0,,-0.517648072079397,-2.86027849668972,-0.892233047196805,,6.5099206828833385,,
,5258.0,1333.0,8433.0,1794.0,2097.0,2215.0,2466.0,2025-07-15 19:23:57,70.0,,-0.517821792102975,-2.86023984719379,-0.892471805569337,,7.102275047652045,,
,5263.0,1334.0,8435.0,1796.0,2086.0,2207.0,2474.0,2025-07-15 19:23:58,70.0,,-0.517631784896469,-2.86031712154987,-0.892376696422096,,7.601521848334618,,
,5267.0,1335.0,8434.0,1800.0,2074.0,2212.0,2463.0,2025-07-15 19:23:58,69.0,,-0.518160293639115,-2.86034887989176,-0.893119666175313,,7.9939262188116125,,
,5267.0,1335.0,8434.0,1796.0,2085.0,2203.0,2466.0,2025-07-15 19:24:00,69.0,,-0.518246621343029,-2.86035311906522,-0.891884648441827,,8.26746939785264,,
,5271.0,1335.0,8432.0,1797.0,2078.0,2205.0,2464.0,2025-07-15 19:24:01,68.0,,-0.518223785098845,-2.86034289211076,-0.893158480332244,,8.41250532567432,,
,5277.0,1336.0,8435.0,1801.0,2068.0,2194.0,2483.0,2025-07-15 19:24:01,67.0,,-0.517591500933354,-2.86020674716772,-0.891927935482506,,8.422434916572415,,
,5280.0,1339.0,8432.0,1802.0,2055.0,2199.0,2477.0,2025-07-15 19:24:02,66.0,,-0.517203378125512,-2.86042194752983,-0.891814768229327,,8.294331286753902,,
,5282.0,1336.0,8436.0,1799.0,2054.0,2206.0,2481.0,2025-07-15 19:24:03,66.0,,-0.517016944425207,-2.86003916418282,-0.892017417693332,,8.029441183094356,,
,5285.0,1340.0,8434.0,1800.0,2079.0,2200.0,2476.0,2025-07-15 19:24:05,65.0,,-0.516891358894101,-2.8599723825474,-0.891863767929957,,7.633489161757558,,
,5289.0,1340.0,8432.0,1800.0,2083.0,2209.0,2486.0,2025-07-15 19:24:06,65.0,,-0.517576478342037,-2.86004012091104,-0.891675228753746,,7.116722851412281,,
,5293.0,1343.0,8434.0,1804.0,2085.0,2210.0,2476.0,2025-07-15 19:24:06,65.0,,-0.51681626633304,-2.86006585478576,-0.892308480702162,,6.49366022749839,,
,5295.0,1342.0,8436.0,1803.0,2083.0,2208.0,2485.0,2025-07-15 19:24:07,65.0,,-0.517551993450722,-2.86015101248495,-0.892634446962965,,5.782531637521352,,
,5297.0,1341.0,8433.0,1804.0,2077.0,2203.0,2481.0,2025-07-15 19:24:08,64.0,,-0.517804115621826,-2.8603633481834,-0.891876238076423,,5.004445745197745,,
,5301.0,1344.0,8436.0,1803.0,2089.0,2210.0,2477.0,2025-07-15 19:24:09,64.0,,-0.517838193113601,-2.86022853491188,-0.892246816612939,,4.182342458685081,,
,5304.0,1345.0,8436.0,1803.0,2084.0,2206.0,2459.0,2025-07-15 19:24:10,64.0,,-0.518070321835765,-2.8603050724134,-0.892659727527863,,3.3398201982273976,,
,5303.0,1346.0,8434.0,1806.0,2083.0,2219.0,2471.0,2025-07-15 19:24:11,64.0,,-0.518210658598697,-2.86032710292808,-0.892501830548899,,2.4999355403220638,,
,5306.0,1345.0,8436.0,1805.0,2081.0,2219.0,2478.0,2025-07-15 19:24:12,64.0,,-0.518469400183958,-2.86042391488108,-0.893537318818811,,1.6840706006830508,,
,5298.0,1343.0,8433.0,1803.0,2071.0,2197.0,2485.0,2025-07-15 19:24:14,64.0,,-0.518630106475284,-2.86009450375743,-0.892812750269835,,0.9109508564759636,,
,5296.0,1341.0,8434.0,1801.0,2087.0,2223.0,2489.0,2025-07-15 19:24:15,64.0,,-0.51866225303047,-2.86013671741253,-0.891896050245047,,0.1958776855667101,,
,5286.0,1337.0,8433.0,1800.0,2086.0,2208.0,2482.0,,,,-0.51821691948454,-2.8599915191761,-0.892801435022958,,-0.44978113728441066,,
,5274.0,1333.0,8433.0,1798.0,2078.0,2197.0,2482.0,,,,-0.517602667790074,-2.85987171435248,-0.891336162745982,,-1.0188220110889428,,
,5259.0,1324.0,8430.0,1794.0,2063.0,2184.0,2499.0,,,,-0.517012260991016,-2.86000892017688,-0.891106208581008,,-1.5081592103309733,,
,5247.0,1319.0,8431.0,1792.0,2067.0,2190.0,2489.0,,,,-0.517107818971331,-2.85976708824645,-0.890723167207487,,-1.918526542928649,,
,5235.0,1312.0,8428.0,1790.0,2090.0,2200.0,2483.0,,,,-0.516762831795772,-2.85979997353839,-0.89173228668826,,-2.2539718498137757,,
,5221.0,1309.0,8427.0,1785.0,2089.0,2218.0,2489.0,,,,-0.517008751129338,-2.86016898300929,-0.891146335282284,,-2.521203590188147,,
,5207.0,1303.0,8425.0,1785.0,2079.0,2209.0,2491.0,,,,-0.516816907070067,-2.86004815040468,-0.89150840927495,,-2.7288553163399962,,
,5196.0,1300.0,8429.0,1780.0,2051.0,2207.0,2478.0,,,,-0.517193634438977,-2.86011635445049,-0.891179843828465,,-2.886732312070237,,
,5186.0,1297.0,8429.0,1779.0,2049.0,2209.0,2491.0,,,,-0.517491763115489,-2.8600660275779,-0.891182255958212,,-3.005096437720242,,
,5175.0,1293.0,8428.0,1777.0,2058.0,2204.0,2485.0,,,,-0.51795381162808,-2.8601187654424,-0.891840411658365,,-3.0940325818059327,,
,5169.0,1290.0,8428.0,1775.0,2069.0,2211.0,2479.0,,,,-0.518110557472216,-2.8602977666892,-0.891841253079727,,-3.1629254911985134,,
,5161.0,1288.0,8427.0,1773.0,2079.0,2208.0,2470.0,,,,-0.518175003277841,-2.86046944424561,-0.892036021371442,,-3.220061282047872,,
,5156.0,1288.0,8426.0,1772.0,2067.0,2216.0,2479.0,,,,-0.518309439411118,-2.8604178981015,-0.893041755382245,,-3.2723552684385617,,
,5153.0,1288.0,8426.0,1771.0,2067.0,2206.0,2467.0,,,,-0.51840874171195,-2.8606226989732,-0.893516275332581,,-3.3251978774433697,,
,5147.0,1283.0,8424.0,1768.0,2060.0,2207.0,2474.0,,,,-0.518996331027741,-2.86049170273115,-0.893090269618436,,-3.3824035747072885,,
,5143.0,1284.0,8426.0,1771.0,2059.0,2205.0,2483.0,,,,-0.518909516338677,-2.86054899420825,-0.89340012511955,,-3.446243339185401,,
,5138.0,1284.0,8423.0,1768.0,2070.0,2208.0,2481.0,,,,-0.519019792851136,-2.8607055414588,-0.893445370638098,,-3.517538202538493,,
,5136.0,1285.0,8428.0,1766.0,2059.0,2194.0,2474.0,,,,-0.51937324124401,-2.8608586284022,-0.893889288708397,,-3.5957888142492016,,
,5136.0,1283.0,8427.0,1769.0,2072.0,2189.0,2472.0,,,,-0.519356669097766,-2.86083264246925,-0.89388906488236,,-3.679314160897131,,
,5134.0,1283.0,8426.0,1768.0,2062.0,2216.0,2470.0,,,,-0.519669172287951,-2.86084810620326,-0.894297208200873,,-3.7653732351366314,,
,5131.0,1282.0,8424.0,1761.0,2097.0,2212.0,2468.0,,,,-0.520091467495837,-2.86097220632637,-0.895395018835422,,-3.8502489795867705,,
,5130.0,1284.0,8424.0,1765.0,2102.0,2214.0,2468.0,,,,-0.519767352718315,-2.86113075385327,-0.893603952853037,,-3.9292852145923827,,
,5130.0,1285.0,8424.0,1765.0,2078.0,2205.0,2475.0,,,,-0.520267660012784,-2.86110511197067,-0.89427378073947,,-3.9968827862629523,,
,5127.0,1284.0,8426.0,1765.0,2080.0,2209.0,2477.0,,,,-0.520381737851339,-2.86114213796912,-0.895375752581396,,-4.046476992007615,,
,5128.0,1285.0,8429.0,1765.0,2082.0,2212.0,2483.0,,,,-0.520796925705584,-2.86128281545719,-0.894860312815807,,-4.070530278175732,,
,5127.0,1285.0,8424.0,1764.0,2075.0,2212.0,2472.0,,,,-0.520968514901671,-2.8614367119416,-0.895779270370705,,-4.060579300821942,,
,5127.0,1284.0,8426.0,1761.0,2063.0,2211.0,2474.0,,,,-0.521357385793692,-2.86141616395947,-0.895434871894416,,-4.007372545745876,,
,5129.0,1285.0,8428.0,1764.0,2066.0,2207.0,2478.0,,,,-0.521405035742349,-2.8617129165825,-0.897140918270452,,-3.9011243902079897,,
,5127.0,1285.0,8427.0,1766.0,2067.0,2203.0,2481.0,,,,-0.521501030086971,-2.86176204179158,-0.896614600829491,,-3.7318957500058523,,
,5127.0,1284.0,8427.0,1765.0,2065.0,2214.0,2473.0,,,,-0.521616509350468,-2.86162064291179,-0.896160759691713,,-3.4900933013782227,,
,5130.0,1285.0,8427.0,1766.0,2084.0,2207.0,2491.0,,,,-0.521584050076649,-2.86177592498961,-0.897118240490506,,-3.167062122876592,,
,5130.0,1288.0,8427.0,1766.0,2064.0,2217.0,2485.0,,,,-0.521794582175501,-2.86177672497147,-0.897551767249888,,-2.7557335688414994,,
,5130.0,1285.0,8426.0,1766.0,2066.0,2215.0,2480.0,,,,-0.522166129315397,-2.86203089218871,-0.897834769271315,,-2.2512833015427347,,
,5129.0,1285.0,8425.0,1765.0,2084.0,2220.0,2476.0,,,,-0.522446747878726,-2.86197758859796,-0.897063762695636,,-1.6517539772674084,,
,5130.0,1286.0,8424.0,1764.0,2056.0,2188.0,2485.0,,,,-0.522825592790081,-2.86212688917377,-0.897560651497482,,-0.9586013097596873,,
,5128.0,1286.0,8425.0,1765.0,2056.0,2206.0,2489.0,,,,-0.523595111703881,-2.86214610574277,-0.898181509257916,,-0.17712782794458934,,
,5128.0,1285.0,8427.0,1764.0,2058.0,2208.0,2499.0,,,,-0.52365068936102,-2.86228044686119,-0.897521352558875,,0.6832272923110101,,
,5128.0,1287.0,8427.0,1765.0,2067.0,2204.0,2486.0,,,,-0.5232158062027,-2.86229876154511,-0.898678005691716,,1.608771866521432,,
,5128.0,1286.0,8427.0,1762.0,2090.0,2201.0,2497.0,,,,-0.523275413183556,-2.86204864788387,-0.898478148672095,,2.5816451759165093,,
,5129.0,1287.0,8428.0,1764.0,2079.0,2200.0,2495.0,,,,-0.523556283121595,-2.86204718327301,-0.899321139582063,,3.5801258015333857,,
,5125.0,1286.0,8426.0,1765.0,2064.0,2197.0,2503.0,,,,-0.522868541336233,-2.8624199392799,-0.897038234510948,,4.579176756836047,,
,5125.0,1284.0,8427.0,1764.0,2062.0,2205.0,2497.0,,,,-0.522105990255415,-2.86212828787228,-0.897347140712165,,5.551230031210917,,
,5122.0,1282.0,8428.0,1762.0,2073.0,2210.0,2474.0,,,,-0.521916644347476,-2.86190833229937,-0.896870682322022,,6.467198572519082,,
,5119.0,1286.0,8428.0,1765.0,2062.0,2216.0,2489.0,,,,-0.521834730825136,-2.86195159259489,-0.897059923542644,,7.297687984068845,,
,5121.0,1286.0,8428.0,1762.0,2071.0,2208.0,2486.0,,,,-0.521932759726255,-2.86191146374999,-0.897981944857591,,8.014362920151026,,
,5121.0,1283.0,8427.0,1763.0,2085.0,2208.0,2490.0,,,,-0.522058174575081,-2.86207770196779,-0.8968416102483,,8.591404554062358,,
,5120.0,1284.0,8429.0,1765.0,2089.0,2196.0,2482.0,,,,-0.522113537053915,-2.86216738667038,-0.898447873858058,,9.006976490055798,,
,5118.0,1283.0,8430.0,1760.0,2068.0,2200.0,2479.0,,,,-0.522646884604802,-2.86229741414733,-0.897359766798989,,9.24459909356674,,
,5118.0,1285.0,8430.0,1763.0,2071.0,2222.0,2490.0,,,,-0.522869319696854,-2.86246108381799,-0.897830903954199,,9.294319624724048,,
,5119.0,1285.0,8429.0,1761.0,2062.0,2207.0,2492.0,,,,-0.523156282325754,-2.86245386327823,-0.898576203823373,,9.153561946435026,,
,5116.0,1285.0,8427.0,1759.0,2081.0,2213.0,2492.0,,,,-0.523195291129433,-2.86240503312624,-0.898063340464277,,8.827549181378751,,
,5118.0,1282.0,8428.0,1760.0,2097.0,2191.0,2477.0,,,,-0.523037941925932,-2.86264983866094,-0.897093128528869,,8.329218497945952,,
,5119.0,1283.0,8428.0,1761.0,2062.0,2200.0,2483.0,,,,-0.523519124032862,-2.86257273355369,-0.898079422486215,,7.678589731367084,,
,5121.0,1287.0,8428.0,1761.0,2063.0,2195.0,2478.0,,,,-0.523589598298798,-2.86266446145275,-0.899466772841919,,6.901605906116509,,
,5120.0,1284.0,8428.0,1760.0,2066.0,2195.0,2475.0,,,,-0.523817709474395,-2.8628502696754,-0.898627728645288,,6.028526905671307,,
,5123.0,1285.0,8430.0,1760.0,2074.0,2196.0,2477.0,,,,-0.524401465150737,-2.862849302458,-0.899311068550256,,5.092016490953268,,
,5123.0,1286.0,8428.0,1763.0,2085.0,2210.0,2466.0,,,,-0.524563821755731,-2.86286434300172,-0.899511157244116,,4.1251047310225575,,
,5128.0,1285.0,8428.0,1762.0,2084.0,2192.0,2476.0,,,,-0.524701418926797,-2.86297241153889,-0.899056636978652,,3.1592225314675457,,
,5128.0,1286.0,8428.0,1761.0,2077.0,2198.0,2483.0,,,,-0.524962699603823,-2.86312158529006,-0.899240397160517,,2.222489313327172,,
,5130.0,1286.0,8428.0,1761.0,2062.0,2192.0,2475.0,,,,-0.524985756249427,-2.86298083307937,-0.89983152038769,,1.3383941005901026,,
,5132.0,1287.0,8429.0,1763.0,2064.0,2200.0,2476.0,,,,-0.524572361326727,-2.86283748518468,-0.899831548715278,,0.5249545254397706,,
,5136.0,1291.0,8432.0,1764.0,2070.0,2205.0,2478.0,,,,-0.524812660353786,-2.86258523960489,-0.899519940353983,,-0.20562146052600316,,
,5136.0,1291.0,8428.0,1762.0,2068.0,2193.0,2485.0,,,,-0.524347308140482,-2.86278306653898,-0.899942181487899,,-0.846801243766168,,
,5139.0,1291.0,8431.0,1767.0,2061.0,2194.0,2483.0,,,,-0.524281352302314,-2.86285715021075,-0.899240766493729,,-1.3971948085806805,,
,5141.0,1291.0,8429.0,1765.0,2077.0,2201.0,2500.0,,,,-0.523762371591647,-2.86256901763836,-0.89845898002746,,-1.8597280717018483,,
,5147.0,1293.0,8432.0,1764.0,2045.0,2182.0,2479.0,,,,-0.523847099211539,-2.86253435060827,-0.897988764009467,,-2.2406418669977257,,
,5144.0,1295.0,8431.0,1768.0,2078.0,2182.0,2491.0,,,,-0.523934266972518,-2.8627904786014,-0.899609104050095,,-2.5484363850833702,,
,5151.0,1295.0,8430.0,1766.0,2080.0,2177.0,2489.0,,,,-0.524652443086259,-2.86257656697354,-0.899430280609135,,-2.7928676858163946,,
,5153.0,1294.0,8430.0,1768.0,2082.0,2205.0,2479.0,,,,-0.524091472092753,-2.86278373797922,-0.89910663843659,,-2.98407895451193,,
,5157.0,1297.0,8434.0,1766.0,2056.0,2200.0,2479.0,,,,-0.523898656566641,-2.86272998817932,-0.900062737867597,,-3.131918517054692,,
,5159.0,1297.0,8431.0,1768.0,2079.0,2228.0,2480.0,,,,-0.523939691122628,-2.86275799115483,-0.899074093610247,,-3.245464569502632,,
,5161.0,1299.0,8429.0,1770.0,2078.0,2197.0,2485.0,,,,-0.524400967246413,-2.8629533496762,-0.899491163463133,,-3.3327485171225826,,
,5164.0,1300.0,8429.0,1770.0,2082.0,2201.0,2488.0,,,,-0.523982409857697,-2.8628081355946,-0.900447282037393,,-3.4006484482534036,,
,5165.0,1301.0,8430.0,1770.0,2082.0,2202.0,2493.0,,,,-0.524278190014064,-2.86264570963959,-0.900014623180657,,-3.4549125912162757,,
,5166.0,1302.0,8430.0,1770.0,2082.0,2201.0,2488.0,,,,-0.523840076761067,-2.86258942592879,-0.899323169867398,,-3.500268587830535,,
,5167.0,1302.0,8432.0,1771.0,2079.0,2208.0,2483.0,,,,-0.524087725852272,-2.86263829424472,-0.89852954569225,,-3.5405763865346964,,
2025-07-15 19:21:18,5172.0,1299.0,8431.0,1772.0,2079.0,2200.0,2481.0,,,2025/07/15 07:21:18 PM,-0.524099804876456,-2.86253151635427,-0.899365471450006,,-3.5789889398406576,,
,5178.0,1302.0,8429.0,1769.0,2087.0,2212.0,2471.0,,,,-0.523909032922752,-2.86261495172307,-0.899586666898638,,-3.618094124217089,,
,5174.0,1303.0,8430.0,1772.0,2084.0,2200.0,2451.0,,,,-0.524068042349149,-2.8626802770374,-0.898904076742661,,-3.660021643348786,,
,5176.0,1306.0,8433.0,1771.0,2061.0,2196.0,2469.0,,,,-0.523895130440573,-2.86270806377587,-0.899484644103699,,-3.706508462290043,,
,5182.0,1305.0,8433.0,1773.0,2064.0,2200.0,2482.0,,,,-0.524654651347823,-2.86271516104026,-0.900090899413312,,-3.7589244056764355,,
,5185.0,1306.0,8433.0,1775.0,2074.0,2207.0,2481.0,,,,-0.525206064075709,-2.86288547378012,-0.90133335403827,,-3.8182654268569016,,
,5186.0,1305.0,8431.0,1774.0,2076.0,2209.0,2485.0,,,,-0.525460971951806,-2.86286834928966,-0.901006679442137,,-3.885125594056712,,
,5185.0,1307.0,8432.0,1776.0,2081.0,2208.0,2493.0,,,,-0.526115921032798,-2.86326371279117,-0.901434259594317,,-3.9596600230376593,,
,5193.0,1307.0,8434.0,1776.0,2069.0,2205.0,2492.0,,,,-0.526544344770797,-2.86316363981899,-0.901486669819464,,-4.041549735242657,,
,5195.0,1310.0,8433.0,1776.0,2079.0,2216.0,2492.0,,,,-0.526644872577538,-2.86314652282513,-0.901040469094593,,-4.129975693030945,,
,5196.0,1309.0,8432.0,1775.0,2079.0,2205.0,2482.0,,,,-0.527230711892024,-2.86328561479173,-0.902834972635327,,-4.223603537884386,,
,5197.0,1312.0,8433.0,1778.0,2069.0,2198.0,2476.0,,,,-0.527586432565099,-2.86335997096208,-0.902096916890046,,-4.320574405439493,,
,5202.0,1311.0,8434.0,1779.0,2075.0,2189.0,2485.0,,,,-0.527483633743305,-2.86338275136038,-0.903200432562885,,-4.418493080808391,,
,5203.0,1315.0,8434.0,1778.0,2071.0,2192.0,2481.0,,,,-0.527448166832013,-2.86348222483352,-0.902855737741478,,-4.514404740633101,,
,5206.0,1312.0,8436.0,1781.0,2078.0,2204.0,2473.0,,,,-0.527862483884902,-2.86352654330062,-0.903330744394686,,-4.604755844401238,,
,5208.0,1312.0,8435.0,1778.0,2087.0,2229.0,2486.0,,,,-0.52807509222962,-2.86336896765494,-0.901785988029743,,-4.685341742479063,,
,5210.0,1315.0,8433.0,1779.0,2079.0,2213.0,2489.0,,,,-0.527341561169767,-2.86341600891035,-0.902284160186191,,-4.751250985689561,,
,5216.0,1317.0,8434.0,1781.0,2094.0,2181.0,2488.0,,,,-0.527530727559755,-2.86326126594184,-0.902942022478534,,-4.7968224568603235,,
,5216.0,1318.0,8433.0,1783.0,2088.0,2191.0,2500.0,,,,-0.527576144364849,-2.86341154922122,-0.901761900568319,,-4.815635386454856,,
,5215.0,1319.0,8436.0,1781.0,2073.0,2213.0,2492.0,,,,-0.527227929436047,-2.86329960657348,-0.901660261476037,,-4.800553448211243,,
,5220.0,1317.0,8435.0,1780.0,2072.0,2197.0,2478.0,,,,-0.527626794431215,-2.86326539204317,-0.901648406479303,,-4.743841868140419,,
,5222.0,1317.0,8434.0,1784.0,2060.0,2182.0,2487.0,,,,-0.527751337621513,-2.86312954759874,-0.902857598296206,,-4.637370571404248,,
,5226.0,1320.0,8432.0,1785.0,2058.0,2198.0,2474.0,,,,-0.527335964907878,-2.86324833545186,-0.902587391625136,,-4.4729074227495325,,
,5228.0,1321.0,8434.0,1783.0,2084.0,2214.0,2496.0,,,,-0.527962243013036,-2.86326563679024,-0.902467470784392,,-4.242495095790601,,
,5231.0,1321.0,8435.0,1785.0,2079.0,2194.0,2474.0,,,,-0.527630041828783,-2.86337821213988,-0.902808577306633,,-3.9388949752807387,,
,5236.0,1323.0,8436.0,1787.0,2092.0,2188.0,2467.0,,,,-0.527648284393689,-2.86360267285238,-0.902195361219637,,-3.556073373953579,,
,5239.0,1325.0,8437.0,1788.0,2097.0,2204.0,2474.0,,,,-0.527238887146743,-2.86314567846362,-0.902226205701543,,-3.0896999773217257,,
,5243.0,1324.0,8434.0,1788.0,2097.0,2202.0,2468.0,,,,-0.527405429306575,-2.86332062813389,-0.903163576673685,,-2.5376257186986426,,
,5244.0,1327.0,8435.0,1788.0,2073.0,2201.0,2488.0,,,,-0.527235605091739,-2.8633008256038,-0.902359171687291,,-1.9003069354531041,,
,5246.0,1324.0,8437.0,1787.0,2075.0,2205.0,2471.0,,,,-0.527109503684128,-2.86340291200707,-0.901797554238029,,-1.181144785139141,,
,5247.0,1329.0,8436.0,1788.0,2083.0,2198.0,2471.0,,,,-0.527019073171841,-2.86326020747775,-0.902190697495013,,-0.38671380511292675,,
,5249.0,1326.0,8437.0,1789.0,2079.0,2205.0,2462.0,,,,-0.526747466591608,-2.86299923307134,-0.901621445360141,,0.4731392294628768,,
,5246.0,1326.0,8435.0,1788.0,2099.0,2263.0,2446.0,,,,-0.526360252774627,-2.86306318236646,-0.90138151176632,,1.3853368250128446,,
,5241.0,1323.0,8433.0,1786.0,2090.0,2151.0,2482.0,,,,-0.526180920975018,-2.86300784696602,-0.901728083091417,,2.333756076261468,,
,5233.0,1321.0,8433.0,1788.0,2054.0,2175.0,2481.0,,,,-0.526263910018907,-2.86295997608911,-0.901203943108633,,3.299555949634206,,
,5224.0,1316.0,8432.0,1783.0,2053.0,2181.0,2466.0,,,,-0.526523864870849,-2.86296162044419,-0.902322705775342,,4.261641634721967,,
,5209.0,1310.0,8431.0,1781.0,2058.0,2221.0,2463.0,,,,-0.526371805709678,-2.86312950600738,-0.900662839717441,,5.1972592290425705,,
,5196.0,1304.0,8429.0,1778.0,2060.0,2224.0,2482.0,,,,-0.526196430486969,-2.86296538271323,-0.90126287037091,,6.082711997232248,,
,5181.0,1296.0,8428.0,1774.0,2058.0,2187.0,2496.0,,,,-0.526277896608168,-2.86294286485979,-0.900105560716994,,6.894185579167242,,
,5169.0,1292.0,8429.0,1774.0,2060.0,2191.0,2485.0,,,,-0.525909475719083,-2.86297188063535,-0.901022739741174,,7.60866260811322,,
,5156.0,1288.0,8429.0,1770.0,2057.0,2197.0,2487.0,,,,-0.525723878208809,-2.86305714438626,-0.900617506748922,,8.204897033515515,,
,5143.0,1283.0,8428.0,1765.0,2037.0,2184.0,2498.0,,,,-0.525403524373992,-2.86281654922658,-0.899951899786688,,8.664406052950884,,
,5133.0,1280.0,8425.0,1764.0,2056.0,2196.0,2496.0,,,,-0.525307315214328,-2.86279422381493,-0.899458589940312,,8.972425059032195,,
,5122.0,1279.0,8425.0,1761.0,2045.0,2185.0,2484.0,,,,-0.524628226957942,-2.86269864313167,-0.899570927862869,,9.118761073889535,,
,5113.0,1276.0,8428.0,1760.0,2054.0,2208.0,2478.0,,,,-0.525086574090213,-2.86269866632257,-0.900240691103934,,9.098475214214925,,
,5105.0,1273.0,8428.0,1757.0,2081.0,2209.0,2460.0,,,,-0.52439382704321,-2.8628876255488,-0.899226568108997,,8.91232635919292,,
,5097.0,1269.0,8427.0,1756.0,2055.0,2212.0,2476.0,,,,-0.524760899071713,-2.86278450599749,-0.899872957483793,,8.566917129103198,,
,5091.0,1270.0,8424.0,1755.0,2043.0,2197.0,2482.0,,,,-0.524663166330311,-2.86273854053222,-0.899400720215942,,8.074500256187592,,
,5086.0,1266.0,8427.0,1753.0,2055.0,2199.0,2488.0,,,,-0.525089052887498,-2.86264155346454,-0.899031963363897,,7.452429519328992,,
,5082.0,1266.0,8426.0,1750.0,2053.0,2202.0,2485.0,,,,-0.525248568439789,-2.86280513588819,-0.899034645393331,,6.722274552915872,,
,5076.0,1265.0,8425.0,1749.0,2069.0,2214.0,2478.0,,,,-0.52541025279783,-2.86275427148717,-0.899413192738002,,5.908659104086744,,
,5074.0,1265.0,8424.0,1748.0,2068.0,2214.0,2475.0,,,,-0.525073431000898,-2.86290090701737,-0.899958587516525,,5.0379191322694385,,
,5071.0,1265.0,8426.0,1748.0,2068.0,2214.0,2480.0,,,,-0.525155070095561,-2.86287786186739,-0.900369711460688,,4.136700517374567,,
,5070.0,1265.0,8425.0,1748.0,2083.0,2215.0,2461.0,,,,-0.524949287608522,-2.8626982178808,-0.899837399086902,,3.2306197336842417,,
,5065.0,1260.0,8422.0,1746.0,2085.0,2203.0,2491.0,,,,-0.524669300640501,-2.86293954030698,-0.899122963059991,,2.343094894827418,,
,5064.0,1262.0,8424.0,1745.0,2072.0,2209.0,2479.0,,,,-0.524952801457162,-2.86292954403012,-0.899386345847448,,1.4944248455916127,,
,5062.0,1263.0,8426.0,1746.0,2078.0,2203.0,2470.0,,,,-0.524528638651556,-2.86292672763309,-0.900405543063691,,0.7011583629528759,,
,5060.0,1262.0,8424.0,1746.0,2093.0,2201.0,2475.0,,,,-0.524913843461901,-2.86288098590956,-0.899718922608421,,-0.02423897613823177,,
,5057.0,1260.0,8424.0,1744.0,2093.0,2199.0,2488.0,,,,-0.525153654672225,-2.8627927516353,-0.90023887656372,,-0.6734413240468468,,
,5053.0,1260.0,8423.0,1744.0,2080.0,2211.0,2495.0,,,,-0.525466824046096,-2.86291515508425,-0.90024285505135,,-1.2420837131190412,,
,5053.0,1259.0,8423.0,1743.0,2083.0,2204.0,2484.0,,,,-0.525940734496792,-2.86308598415262,-0.900725395882777,,-1.7293999269119316,,
,5053.0,1263.0,8424.0,1743.0,2072.0,2178.0,2483.0,,,,-0.525828064485841,-2.86301883111668,-0.90116522459947,,-2.137731462682343,,
,5051.0,1263.0,8426.0,1745.0,2074.0,2176.0,2494.0,,,,-0.525958158859771,-2.86327520816228,-0.900171499421317,,-2.471957834890962,,
,5051.0,1260.0,8422.0,1741.0,2065.0,2192.0,2482.0,,,,-0.525657496867864,-2.86326301791501,-0.901055511388992,,-2.7388912908973695,,
,5051.0,1260.0,8422.0,1744.0,2067.0,2203.0,2487.0,,,,-0.525816569751091,-2.86314463322754,-0.900340874216461,,-2.94667181693751,,
,5055.0,1260.0,8423.0,1743.0,2070.0,2206.0,2482.0,,,,-0.525901389687977,-2.86313983844022,-0.900523636320199,,-3.104192340716647,,
,5050.0,1263.0,8426.0,1741.0,2070.0,2207.0,2482.0,,,,-0.525758162367535,-2.86319890317734,-0.900625282549434,,-3.220578653879034,,
,5053.0,1261.0,8424.0,1740.0,2064.0,2197.0,2481.0,,,,-0.525775512735002,-2.86313168483355,-0.899878532989047,,-3.3047426370208304,,
,5050.0,1262.0,8423.0,1740.0,2057.0,2197.0,2476.0,,,,-0.525664333460911,-2.86307059356766,-0.900339450278817,,-3.365020479066328,,
,5050.0,1263.0,8426.0,1743.0,2052.0,2209.0,2496.0,,,,-0.525559613795461,-2.86298604953278,-0.900721688983942,,-3.408900324994083,,
,5050.0,1262.0,8424.0,1741.0,2062.0,2194.0,2481.0,,,,-0.5257907851505,-2.86320603513535,-0.900619425302715,,-3.4428371710584584,,
,5049.0,1261.0,8423.0,1742.0,2060.0,2195.0,2486.0,,,,-0.526442811898976,-2.86326850310909,-0.901747418246518,,-3.4721476945809315,,
,5048.0,1259.0,8423.0,1740.0,2059.0,2211.0,2486.0,,,,-0.526113086501771,-2.86319250341546,-0.900714278592015,,-3.5009745248414843,,
,5049.0,1261.0,8424.0,1741.0,2054.0,2212.0,2480.0,,,,-0.525892320607754,-2.86328636625756,-0.899977243371928,,-3.53230841768177,,
,5048.0,1262.0,8426.0,1741.0,2056.0,2188.0,2474.0,,,,-0.525996969599658,-2.86336478252614,-0.900100045585811,,-3.568057788560129,,
,5044.0,1257.0,8424.0,1738.0,2062.0,2195.0,2471.0,,,,-0.525686294162387,-2.86325740315088,-0.90143899984545,,-3.6091575262325613,,
,5041.0,1257.0,8422.0,1737.0,2073.0,2209.0,2462.0,,,,-0.526074491096241,-2.86329980741032,-0.900472322598555,,-3.6557118469364367,,
,5043.0,1259.0,8422.0,1739.0,2076.0,2219.0,2485.0,,,,-0.526021951885056,-2.86339065712141,-0.900480057020628,,-3.707167700045108,,
,5042.0,1258.0,8425.0,1741.0,2095.0,2209.0,2483.0,,,,-0.526391856071212,-2.86330478475898,-0.901728783447822,,-3.762514508128648,,
,5042.0,1257.0,8424.0,1737.0,2090.0,2224.0,2486.0,,,,-0.526558019250039,-2.86355002320775,-0.90117203780258,,-3.8205020120081903,,
,5039.0,1259.0,8425.0,1739.0,2086.0,2225.0,2481.0,,,,-0.527265904430186,-2.8636146834894,-0.902558184111854,,-3.879861033709201,,
,5039.0,1258.0,8423.0,1736.0,2088.0,2221.0,2481.0,,,,-0.528053098353974,-2.86391622860369,-0.902423244095277,,-3.9395039696686225,,
,5039.0,1258.0,8424.0,1735.0,2094.0,2219.0,2498.0,,,,-0.52844742890195,-2.86396104906167,-0.902286080927824,,-3.9986760326647333,,
,5037.0,1258.0,8423.0,1736.0,2107.0,2209.0,2492.0,,,,-0.5289103176843,-2.86409503840121,-0.904238501007297,,-4.057027951298924,,
,5038.0,1260.0,8424.0,1737.0,2091.0,2220.0,2486.0,,,,-0.529973419573345,-2.86444818816606,-0.90467723530541,,-4.114587479881063,,
,5036.0,1257.0,8425.0,1735.0,2089.0,2222.0,2470.0,,,,-0.530027376619627,-2.86468738746985,-0.905665351584608,,-4.171619528068782,,
,5040.0,1256.0,8427.0,1738.0,2079.0,2194.0,2484.0,,,,-0.530901010158224,-2.86466636542921,-0.905649826487854,,-4.228380150580746,,
,5040.0,1260.0,8427.0,1735.0,2066.0,2185.0,2493.0,,,,-0.531096140150221,-2.86464248893512,-0.906426873205718,,-4.284785107937497,,
,5040.0,1261.0,8425.0,1736.0,2073.0,2192.0,2493.0,,,,-0.531088105609656,-2.86475461254355,-0.907546513955417,,-4.34002714229968,,
,5043.0,1261.0,8423.0,1738.0,2087.0,2214.0,2482.0,,,,-0.531172423485798,-2.86484853270513,-0.906863500964884,,-4.392186246201548,,
,5042.0,1256.0,8421.0,1737.0,2082.0,2220.0,2482.0,,,,-0.53110082013817,-2.86476834940462,-0.90726193202932,,-4.437883082494591,,
,5045.0,1261.0,8426.0,1737.0,2089.0,2209.0,2489.0,,,,-0.531399587365624,-2.86487592819058,-0.907231319885337,,-4.472026451880387,,
,5046.0,1259.0,8426.0,1739.0,2069.0,2206.0,2488.0,,,,-0.531396110880875,-2.86456198951805,-0.907444552637173,,-4.487700711169747,,
,5045.0,1263.0,8427.0,1739.0,2077.0,2212.0,2480.0,,,,-0.531677148885874,-2.86466553829262,-0.907331408154094,,-4.476228364521048,,
,5050.0,1265.0,8425.0,1736.0,2071.0,2210.0,2494.0,,,,-0.531740528014364,-2.86483304931142,-0.908261511590505,,-4.427427451382778,,
,5049.0,1264.0,8425.0,1739.0,2059.0,2200.0,2480.0,,,,-0.531890819514632,-2.86477847922919,-0.907112503683116,,-4.330064232657845,,
,5055.0,1264.0,8425.0,1740.0,2076.0,2203.0,2483.0,,,,-0.532065941901633,-2.86473047333101,-0.907330014059077,,-4.172480881342244,,
,5052.0,1264.0,8428.0,1739.0,2061.0,2205.0,2487.0,,,,-0.531638538448577,-2.86477738514753,-0.906549910150589,,-3.943357541645058,,
,5057.0,1265.0,8425.0,1737.0,2062.0,2213.0,2504.0,,,,-0.531891458498324,-2.86473875475519,-0.907754052046911,,-3.632550536313004,,
,5057.0,1266.0,8426.0,1741.0,2067.0,2213.0,2490.0,,,,-0.531630520521874,-2.86455321359231,-0.90795470719576,,-3.2319362837078103,,
,5058.0,1266.0,8428.0,1742.0,2060.0,2219.0,2498.0,,,,-0.531691470479206,-2.8646143869981,-0.907142880748991,,-2.7361866107537285,,
,5062.0,1269.0,8427.0,1739.0,2063.0,2212.0,2493.0,,,,-0.531512809418284,-2.86456599010452,-0.906868815981369,,-2.143408038207028,,
,5067.0,1270.0,8428.0,1741.0,2064.0,2207.0,2487.0,,,,-0.531348875595725,-2.8644888491344,-0.907090549914937,,-1.455595010568199,,
,5066.0,1268.0,8426.0,1739.0,2065.0,2186.0,2490.0,,,,-0.53128515091916,-2.86455960969271,-0.907785606381498,,-0.6788705990084416,,
,5071.0,1271.0,8430.0,1742.0,2066.0,2194.0,2502.0,,,,-0.531189770897661,-2.86449491759342,-0.907162968589332,,0.17648901422776325,,
,5075.0,1271.0,8429.0,1744.0,2069.0,2204.0,2503.0,,,,-0.531164105962247,-2.86442789281485,-0.90728537105128,,1.0962338537188034,,
,5076.0,1273.0,8431.0,1744.0,2079.0,2199.0,2487.0,,,,-0.531450630290539,-2.8644748375033,-0.906935629574963,,2.0625034419535515,,
,5079.0,1271.0,8429.0,1745.0,2090.0,2215.0,2467.0,,,,-0.531315683107267,-2.86435875025153,-0.907042585297062,,3.0543534791895537,,
,5081.0,1273.0,8427.0,1744.0,2087.0,2209.0,2462.0,,,,-0.530903092214023,-2.86435651052967,-0.906873944162794,,4.0484271224291275,,
,5083.0,1275.0,8429.0,1747.0,2098.0,2222.0,2483.0,,,,-0.531715107495992,-2.86435943284919,-0.906243805318549,,5.019752674011788,,
,5085.0,1275.0,8431.0,1745.0,2092.0,2227.0,2487.0,,,,-0.531484573389641,-2.86436247027129,-0.906523831299901,,5.942646936399385,,
,5090.0,1278.0,8428.0,1745.0,2089.0,2218.0,2483.0,,,,-0.532034767060442,-2.86446178717696,-0.907083282305556,,6.791697702288368,,
,5090.0,1276.0,8428.0,1745.0,2077.0,2206.0,2478.0,,,,-0.532031087814945,-2.86454536649142,-0.906865948141136,,7.5427909907824295,,
,5092.0,1276.0,8429.0,1745.0,2088.0,2207.0,2473.0,,,,-0.532377948038965,-2.86472291061902,-0.907043204157951,,8.174140426496947,,
,5096.0,1278.0,8430.0,1746.0,2102.0,2191.0,2477.0,,,,-0.532610485003569,-2.86471227512409,-0.907429231817129,,8.667269322315043,,
,5096.0,1279.0,8430.0,1746.0,2092.0,2201.0,2490.0,,,,-0.532839976123726,-2.86477979745575,-0.907002425797681,,9.007891860270211,,
,5096.0,1278.0,8425.0,1746.0,2080.0,2226.0,2498.0,,,,-0.533459063579161,-2.86477661709614,-0.908341424212282,,9.186638858223851,,
,5102.0,1280.0,8430.0,1748.0,2084.0,2213.0,2484.0,,,,-0.533411368481058,-2.86488807591376,-0.908084759330454,,9.19957599778456,,
,5105.0,1282.0,8430.0,1748.0,2075.0,2209.0,2481.0,,,,-0.53382560010543,-2.86497281624456,-0.908526004291328,,9.048468018505858,,
,5106.0,1281.0,8430.0,1751.0,2071.0,2209.0,2481.0,,,,-0.533645110566219,-2.86492066118248,-0.909673737100905,,8.740751659235594,,
,5110.0,1282.0,8431.0,1750.0,2078.0,2209.0,2484.0,,,,-0.533879238840627,-2.86495004407435,-0.909950590222901,,8.289194316490981,,
,5111.0,1282.0,8429.0,1748.0,2077.0,2210.0,2478.0,,,,-0.534205638527754,-2.86493114533196,-0.909235138062582,,7.71123632473653,,
,5117.0,1285.0,8431.0,1753.0,2080.0,2196.0,2475.0,,,,-0.5340170860066,-2.86496255503236,-0.908877249314791,,7.028043289270296,,
,5118.0,1284.0,8432.0,1753.0,2091.0,2194.0,2475.0,,,,-0.534065274011532,-2.86504205619697,-0.908972726556979,,6.263328674205928,,
,5120.0,1286.0,8430.0,1753.0,2094.0,2197.0,2473.0,,,,-0.534483313083876,-2.86517140589451,-0.909635180077799,,5.442039335975562,,
,5120.0,1283.0,8428.0,1754.0,2073.0,2199.0,2463.0,,,,-0.53443559548075,-2.86524405887959,-0.909491551807419,,4.589019015421303,,
,5123.0,1285.0,8430.0,1751.0,2056.0,2197.0,2473.0,,,,-0.534597083214022,-2.8651448871356,-0.909664248581366,,3.72776983465927,,
,5126.0,1288.0,8431.0,1755.0,2067.0,2199.0,2483.0,,,,-0.534160439332604,-2.86511528295088,-0.910058881211249,,2.8794176317435993,,
2025-07-15 19:21:19,5129.0,1289.0,8431.0,1754.0,2076.0,2196.0,2479.0,,,2025/07/15 07:21:19 PM,-0.534531358760908,-2.86513162715946,-0.908994456047512,,2.0619569806974885,,
,5131.0,1290.0,8433.0,1755.0,2077.0,2191.0,2472.0,,,,-0.534060558461372,-2.86516146592101,-0.9095503909899,,1.2898126918868347,,
,5138.0,1288.0,8430.0,1756.0,2069.0,2202.0,2481.0,,,,-0.533749461376625,-2.86464365930814,-0.909770439972771,,0.5737140021975118,,
,5137.0,1292.0,8433.0,1754.0,2068.0,2214.0,2471.0,,,,-0.533432246078402,-2.86475955468808,-0.908750894321613,,-0.07915767949886178,,
,5142.0,1292.0,8432.0,1756.0,2067.0,2213.0,2481.0,,,,-0.5330856711031,-2.86477613450574,-0.908397743715661,,-0.6648117749371696,,
,5141.0,1292.0,8431.0,1758.0,2067.0,2207.0,2474.0,,,,-0.532822281299795,-2.86458333118689,-0.907757698123669,,-1.1819591766615012,,
,5146.0,1292.0,8433.0,1755.0,2067.0,2211.0,2484.0,,,,-0.532714812112532,-2.86452588642109,-0.908095166924284,,-1.6314674958879019,,
,5148.0,1295.0,8434.0,1760.0,2064.0,2211.0,2485.0,,,,-0.532543962647114,-2.86453323842762,-0.906537048230557,,-2.015827423721434,,
,5152.0,1296.0,8433.0,1758.0,2078.0,2213.0,2479.0,,,,-0.532720373500418,-2.86451604727993,-0.907971428036709,,-2.3386790646794355,,
,5155.0,1298.0,8435.0,1761.0,2089.0,2221.0,2470.0,,,,-0.532597561679866,-2.86444551826064,-0.907517712147099,,-2.6044266928100805,,
,5155.0,1297.0,8434.0,1760.0,2084.0,2210.0,2475.0,,,,-0.532778992186169,-2.86469486467826,-0.907695728937309,,-2.817951713746012,,
,5159.0,1295.0,8433.0,1761.0,2088.0,2202.0,2481.0,,,,-0.532649643151262,-2.86489245969251,-0.90765639855267,,-2.9844196445797344,,
,5163.0,1296.0,8435.0,1764.0,2087.0,2202.0,2471.0,,,,-0.53286722750048,-2.86471226288035,-0.908062098252969,,-3.109168080998444,,
,5163.0,1298.0,8431.0,1763.0,2096.0,2201.0,2483.0,,,,-0.53322463755256,-2.86469716299001,-0.908460743070066,,-3.1976575028547387,,
,5163.0,1302.0,8433.0,1761.0,2086.0,2205.0,2463.0,,,,-0.534158156460153,-2.86481346006414,-0.90968281670741,,-3.2554637484237174,,
,5163.0,1299.0,8432.0,1759.0,2071.0,2210.0,2483.0,,,,-0.534112135299702,-2.86479001524433,-0.909596623220933,,-3.2882892983231424,,
,5157.0,1297.0,8431.0,1758.0,2062.0,2210.0,2492.0,,,,-0.53377204505901,-2.86470472362857,-0.90901475882941,,-3.301970213759305,,
,5147.0,1290.0,8432.0,1760.0,2065.0,2209.0,2492.0,,,,-0.533770471987026,-2.86491169033988,-0.908880999281106,,-3.3024569514390985,,
,5138.0,1287.0,8429.0,1758.0,2071.0,2211.0,2488.0,,,,-0.533365837430929,-2.86481283563921,-0.909027341413958,,-3.295750433962904,,
,5122.0,1280.0,8426.0,1753.0,2069.0,2184.0,2495.0,,,,-0.533351702100206,-2.86467850111108,-0.908959502723078,,-3.2877796588266577,,
,5110.0,1278.0,8429.0,1751.0,2079.0,2189.0,2495.0,,,,-0.533219829268555,-2.86464986001053,-0.908347997774836,,-3.284213739247408,,
,5097.0,1275.0,8426.0,1750.0,2067.0,2205.0,2481.0,,,,-0.533453185865742,-2.86468665170365,-0.908174823547684,,-3.290209421210715,,
,5086.0,1269.0,8425.0,1747.0,2082.0,2208.0,2484.0,,,,-0.532938849657414,-2.8647135596908,-0.907652783288443,,-3.310104281848503,,
,5073.0,1262.0,8426.0,1743.0,2077.0,2211.0,2495.0,,,,-0.533192497650476,-2.86470062959653,-0.9086601919999,,-3.347074980995263,,
,5059.0,1255.0,8424.0,1739.0,2071.0,2211.0,2482.0,,,,-0.533356228475194,-2.86479788310485,-0.909243365700075,,-3.402787755207305,,
,5050.0,1255.0,8421.0,1735.0,2060.0,2191.0,2483.0,,,,-0.533430816917032,-2.86492815916846,-0.908346809904966,,-3.477073384675979,,
,5040.0,1253.0,8425.0,1735.0,2049.0,2209.0,2489.0,,,,-0.533813067507182,-2.86490436615341,-0.909297478677122,,-3.567660065843294,,
,5031.0,1252.0,8423.0,1733.0,2036.0,2212.0,2496.0,,,,-0.533461908473676,-2.86492113242731,-0.90795298026381,,-3.6699948676131093,,
,5021.0,1246.0,8421.0,1730.0,2050.0,2205.0,2499.0,,,,-0.533499263634744,-2.86468824178529,-0.908657756892583,,-3.777178882225961,,
,5016.0,1245.0,8423.0,1729.0,2054.0,2210.0,2486.0,,,,-0.533449587497462,-2.8645816954793,-0.908196105943401,,-3.8800346195724917,,
,5011.0,1242.0,8425.0,1726.0,2071.0,2206.0,2482.0,,,,-0.532999486900871,-2.86470120947567,-0.907093818285827,,-3.9673178013961863,,
,5007.0,1246.0,8425.0,1727.0,2080.0,2208.0,2480.0,,,,-0.532490802606131,-2.86463194100966,-0.907553958437418,,-4.0260792461676775,,
,5002.0,1244.0,8421.0,1725.0,2072.0,2200.0,2506.0,,,,-0.532582383472487,-2.86425902746564,-0.907351246274466,,-4.042174914873043,,
,4998.0,1241.0,8423.0,1724.0,2066.0,2196.0,2499.0,,,,-0.532834365986265,-2.86447066662197,-0.907407480701848,,-4.000912642529713,,
,4994.0,1242.0,8423.0,1726.0,2075.0,2196.0,2481.0,,,,-0.532847593642411,-2.86451813348657,-0.908299765325761,,-3.8878128268444208,,
,4992.0,1243.0,8421.0,1722.0,2081.0,2219.0,2471.0,,,,-0.532813614486626,-2.86447805739899,-0.907583889090937,,-3.6894485519512217,,
,4990.0,1243.0,8422.0,1722.0,2080.0,2214.0,2461.0,,,,-0.532890217537844,-2.86467217524248,-0.907668874257653,,-3.3943200542236056,,
,4988.0,1240.0,8420.0,1719.0,2070.0,2213.0,2459.0,,,,-0.533108058606288,-2.86476661851541,-0.908712181225797,,-2.993711162138836,,
,4985.0,1241.0,8420.0,1720.0,2060.0,2211.0,2463.0,,,,-0.533517258328535,-2.86469466534431,-0.908548302818037,,-2.48247336585507,,
,4983.0,1240.0,8418.0,1720.0,2076.0,2220.0,2491.0,,,,-0.533303722313935,-2.8648186143014,-0.908514460098471,,-1.8596874920808375,,
,4980.0,1242.0,8424.0,1717.0,2083.0,2217.0,2490.0,,,,-0.533461891087817,-2.86475605686029,-0.908851706184788,,-1.1291624924072314,,
,4979.0,1237.0,8420.0,1716.0,2081.0,2220.0,2469.0,,,,-0.534177218669317,-2.86480365782137,-0.908457504698638,,-0.29974248566715417,,
,4977.0,1240.0,8421.0,1716.0,2080.0,2202.0,2477.0,,,,-0.53392974668746,-2.86450484436872,-0.908303470283895,,0.6145966563937462,,
,4979.0,1239.0,8422.0,1718.0,2071.0,2208.0,2494.0,,,,-0.532687777359715,-2.8646451736468,-0.907797268686496,,1.5948734858079046,,
,4979.0,1240.0,8422.0,1719.0,2054.0,2215.0,2493.0,,,,-0.532672684473393,-2.86445741495862,-0.907789643572602,,2.617459753137543,,
,4979.0,1239.0,8424.0,1717.0,2065.0,2217.0,2476.0,,,,-0.532500829301659,-2.86471903577534,-0.906596313549988,,3.654681345462466,,
,4977.0,1237.0,8422.0,1715.0,2064.0,2216.0,2484.0,,,,-0.532428958947362,-2.86449941038197,-0.907969901454582,,4.675669578998953,,
,4978.0,1241.0,8421.0,1716.0,2070.0,2219.0,2469.0,,,,-0.532870201839298,-2.8645149792382,-0.907538123512045,,5.647464562740082,,
,4978.0,1239.0,8423.0,1718.0,2081.0,2199.0,2491.0,,,,-0.532519730975698,-2.86442413276337,-0.908106292169197,,6.5363578898750365,,
,4976.0,1239.0,8423.0,1719.0,2082.0,2199.0,2500.0,,,,-0.532486022567443,-2.86475033718795,-0.90768503370406,,7.309439387164433,,
,4977.0,1239.0,8422.0,1715.0,2046.0,2209.0,2486.0,,,,-0.532595750223524,-2.86458374154473,-0.907283379452237,,7.936284852064511,,
,4976.0,1240.0,8419.0,1716.0,2053.0,2205.0,2481.0,,,,-0.532857077693944,-2.86450338464678,-0.906656060095108,,8.390692959088558,,
,4978.0,1241.0,8422.0,1715.0,2077.0,2216.0,2493.0,,,,-0.532864597211405,-2.86467899387117,-0.907791024560378,,8.652354292584223,,
,4976.0,1240.0,8423.0,1719.0,2060.0,2214.0,2501.0,,,,-0.532876283157832,-2.86468587620808,-0.907446775507939,,8.708317772229394,,
,4977.0,1239.0,8424.0,1716.0,2052.0,2220.0,2502.0,,,,-0.532979782866317,-2.86452730265877,-0.90785962842098,,8.554113214484627,,
,4975.0,1238.0,8420.0,1717.0,2067.0,2201.0,2497.0,,,,-0.532814765835911,-2.86466085580372,-0.908708324880887,,8.19439689367235,,
,4978.0,1240.0,8422.0,1714.0,2077.0,2202.0,2479.0,,,,-0.532636471826008,-2.86448361680295,-0.907729979608343,,7.643012761456696,,
,4978.0,1240.0,8422.0,1715.0,2064.0,2202.0,2488.0,,,,-0.531948911634683,-2.86452320851511,-0.906957305880561,,6.922406954478008,,
,4973.0,1238.0,8422.0,1712.0,2055.0,2195.0,2493.0,,,,-0.532247937965058,-2.86429536531492,-0.906986335835733,,6.062395588351006,,
,4972.0,1239.0,8419.0,1710.0,2050.0,2201.0,2470.0,,,,-0.531776458145962,-2.86455364541117,-0.907054638842631,,5.098358812016428,,
,4973.0,1240.0,8422.0,1712.0,2046.0,2197.0,2489.0,,,,-0.532023138309654,-2.86446631155411,-0.906234002538449,,4.0690056676253255,,
,4973.0,1237.0,8424.0,1713.0,2066.0,2204.0,2478.0,,,,-0.532066389024704,-2.86463983393593,-0.907305115725941,,3.0139100862853843,,
,4969.0,1239.0,8424.0,1712.0,2071.0,2202.0,2476.0,,,,-0.532214162053156,-2.86463892434195,-0.906338752354246,,1.971046795659183,,
,4971.0,1240.0,8424.0,1714.0,2056.0,2198.0,2465.0,,,,-0.532652667606837,-2.86469655003085,-0.907804015879194,,0.974552345870984,,
,4970.0,1239.0,8423.0,1712.0,2054.0,2207.0,2473.0,,,,-0.533097088965683,-2.86504381532217,-0.908597208193246,,0.05290337948475403,,
,4971.0,1239.0,8424.0,1713.0,2075.0,2210.0,2479.0,,,,-0.534257493432494,-2.86518586294971,-0.909052394626827,,-0.7723509208372856,,
,4971.0,1237.0,8424.0,1713.0,2080.0,2195.0,2477.0,,,,-0.534571492745917,-2.86562843008092,-0.909643627814643,,-1.4872327009825725,,
,4969.0,1236.0,8423.0,1710.0,2069.0,2200.0,2480.0,,,,-0.534846011801044,-2.86564576151433,-0.910350850721704,,-2.0853553493075254,,
,4972.0,1237.0,8421.0,1710.0,2087.0,2200.0,2489.0,,,,-0.535331127923095,-2.86577492833296,-0.910950697443279,,-2.5673810195461915,,
,4971.0,1235.0,8422.0,1711.0,2075.0,2212.0,2483.0,,,,-0.535626754931727,-2.8656711648836,-0.910793967371736,,-2.9400250951842133,,
,4972.0,1241.0,8424.0,1715.0,2068.0,2195.0,2494.0,,,,-0.535413040083072,-2.86562355601469,-0.910342149925755,,-3.214746977770357,,
,4975.0,1240.0,8424.0,1712.0,2068.0,2207.0,2480.0,,,,-0.535514718468425,-2.86562455148126,-0.91032417023911,,-3.4062780881740893,,
,4975.0,1237.0,8424.0,1713.0,2068.0,2210.0,2469.0,,,,-0.534980966449162,-2.86549242491673,-0.910574546370043,,-3.531132455618484,,
,4974.0,1240.0,8423.0,1708.0,2067.0,2218.0,2484.0,,,,-0.535155510452314,-2.86568298879664,-0.909854737752557,,-3.6062260047316808,,
,4978.0,1240.0,8425.0,1711.0,2071.0,2198.0,2487.0,,,,-0.535585587513305,-2.86567693588413,-0.909825029243147,,-3.647701962645011,,
,4980.0,1239.0,8424.0,1714.0,2080.0,2191.0,2497.0,,,,-0.535200190467271,-2.86543676305221,-0.910284192388734,,-3.6700262655715497,,
,4981.0,1244.0,8421.0,1713.0,2079.0,2191.0,2494.0,,,,-0.535689396954523,-2.86558091647063,-0.91053728203394,,-3.685382457844409,,
,4984.0,1239.0,8425.0,1713.0,2074.0,2205.0,2486.0,,,,-0.535775553042866,-2.86570433095005,-0.911293048529677,,-3.7033633358424374,,
,4986.0,1244.0,8426.0,1712.0,2088.0,2214.0,2487.0,,,,-0.53665366306446,-2.86566949445185,-0.911988332077088,,-3.730928491737565,,
,4987.0,1246.0,8427.0,1712.0,2059.0,2202.0,2464.0,,,,-0.536427342563278,-2.86597949415678,-0.911904546463327,,-3.7725743109324696,,
,4992.0,1245.0,8427.0,1714.0,2059.0,2218.0,2471.0,,,,-0.536385900342008,-2.86588326317407,-0.911903806801299,,-3.8306470422887435,,
,4995.0,1244.0,8423.0,1713.0,2085.0,2208.0,2469.0,,,,-0.536174223747446,-2.86592935969765,-0.911651920393493,,-3.905721686673993,,
,4996.0,1246.0,8427.0,1714.0,2072.0,2220.0,2488.0,,,,-0.53595459935621,-2.86560901434336,-0.91115373588597,,-3.996971216784365,,
,4997.0,1246.0,8425.0,1713.0,2062.0,2200.0,2487.0,,,,-0.535643374595113,-2.86574701913752,-0.911759185614577,,-4.102462888782235,,
,5001.0,1249.0,8427.0,1713.0,2059.0,2190.0,2486.0,,,,-0.53537676128944,-2.8656199105916,-0.910703138133323,,-4.219339880443159,,
,5003.0,1250.0,8428.0,1717.0,2073.0,2207.0,2507.0,,,,-0.535034246651873,-2.86554187769569,-0.911152376792922,,-4.343873458090531,,
,5004.0,1251.0,8427.0,1717.0,2072.0,2204.0,2480.0,,,,-0.535243297361889,-2.8655227029763,-0.910593485536602,,-4.471398345074974,,
,5005.0,1253.0,8429.0,1716.0,2068.0,2220.0,2483.0,,,,-0.534531057369283,-2.86540923568899,-0.909534386324622,,-4.596167477317599,,
,5010.0,1253.0,8429.0,1716.0,2075.0,2212.0,2488.0,,,,-0.534689942997832,-2.86522437605268,-0.910110984968267,,-4.711178936639833,,
,5012.0,1253.0,8427.0,1716.0,2076.0,2210.0,2490.0,,,,-0.53491213538949,-2.86527228612367,-0.909858563242378,,-4.808036047103734,,
,5017.0,1253.0,8426.0,1715.0,2079.0,2192.0,2486.0,,,,-0.534897563865277,-2.8651927191849,-0.910056756918226,,-4.876900938286523,,
,5018.0,1255.0,8428.0,1718.0,2081.0,2202.0,2490.0,,,,-0.534192126782889,-2.86520018383504,-0.908941487808804,,-4.906592758145951,,
,5022.0,1257.0,8430.0,1718.0,2096.0,2203.0,2478.0,,,,-0.53410598154348,-2.8650031799173,-0.9093054498849,,-4.884865559436937,,
,5024.0,1256.0,8429.0,1722.0,2109.0,2198.0,2469.0,,,,-0.534375903210367,-2.86501932618924,-0.909328809212486,,-4.798879884506647,,
,5023.0,1255.0,8428.0,1720.0,2090.0,2193.0,2484.0,,,,-0.534429846829157,-2.86508784093723,-0.910079692300534,,-4.635858710517272,,
,5028.0,1256.0,8429.0,1718.0,2087.0,2195.0,2493.0,,,,-0.535196868193584,-2.86531070660986,-0.910258004583806,,-4.383894962193825,,
,5030.0,1258.0,8431.0,1724.0,2068.0,2212.0,2491.0,,,,-0.535039307423477,-2.865424471291,-0.910142749229906,,-4.0328562304132864,,
,5034.0,1260.0,8431.0,1722.0,2082.0,2193.0,2486.0,,,,-0.534902986278049,-2.86537084738892,-0.910203471672102,,-3.575314682005046,,
,5037.0,1260.0,8431.0,1723.0,2084.0,2196.0,2479.0,,,,-0.535489505454877,-2.86544521670345,-0.910471230147366,,-3.0074189691626376,,
,5035.0,1261.0,8429.0,1720.0,2107.0,2205.0,2471.0,,,,-0.535467890297064,-2.86531831964062,-0.909898753890121,,-2.3296232531488092,,
,5041.0,1261.0,8430.0,1724.0,2091.0,2210.0,2474.0,,,,-0.535555535830426,-2.86562059673327,-0.911261207717247,,-1.5471983639254674,,
,5042.0,1262.0,8431.0,1721.0,2091.0,2190.0,2491.0,,,,-0.535750302069401,-2.86556945377132,-0.911419226904547,,-0.6704708405417131,,
,5044.0,1265.0,8431.0,1723.0,2083.0,2194.0,2502.0,,,,-0.536619418614735,-2.86562363720319,-0.910618084102866,,0.2852372444382038,,
,5044.0,1262.0,8430.0,1722.0,2076.0,2206.0,2492.0,,,,-0.536134274966262,-2.86575123211675,-0.910997358792164,,1.2999673705965606,,
,5050.0,1265.0,8432.0,1726.0,2070.0,2211.0,2470.0,,,,-0.536758049951881,-2.86575940200659,-0.91188238570222,,2.3497597024297483,,
,5052.0,1265.0,8433.0,1726.0,2100.0,2208.0,2469.0,,,,-0.536642988381164,-2.86550563860774,-0.911728726116993,,3.407525935427263,,
,5054.0,1265.0,8431.0,1724.0,2089.0,2216.0,2466.0,,,,-0.536900124207442,-2.86559512657231,-0.911920788712807,,4.444112670732772,,
,5055.0,1266.0,8431.0,1726.0,2078.0,2188.0,2491.0,,,,-0.536503185551672,-2.86577096511239,-0.910612653587649,,5.429503872114329,,
,5057.0,1266.0,8430.0,1724.0,2070.0,2194.0,2479.0,,,,-0.536575486257072,-2.86561500249551,-0.911872252036657,,6.334108848970272,,
,5058.0,1270.0,8433.0,1729.0,2066.0,2212.0,2474.0,,,,-0.536171931808841,-2.86555857100185,-0.910986162303301,,7.130080221399163,,
,5061.0,1267.0,8435.0,1727.0,2059.0,2215.0,2479.0,,,,-0.536155759086888,-2.86556162139329,-0.910784113714145,,7.792603374375939,,
,5064.0,1271.0,8433.0,1728.0,2064.0,2206.0,2474.0,,,,-0.535936865756164,-2.86541507259169,-0.910542652985886,,8.301095124105306,,
,5064.0,1270.0,8429.0,1726.0,2095.0,2207.0,2468.0,,,,-0.535646202147251,-2.86549440878746,-0.910792822749542,,8.64024586871845,,
,5070.0,1270.0,8435.0,1727.0,2082.0,2194.0,2491.0,,,,-0.535775449485061,-2.86531618559523,-0.909974401682852,,8.800838089643166,,
,5072.0,1269.0,8432.0,1728.0,2100.0,2207.0,2481.0,,,,-0.535308141316724,-2.86511656812159,-0.911754528835086,,8.780276585916239,,
,5075.0,1271.0,8432.0,1728.0,2104.0,2207.0,2478.0,,,,-0.535191829954711,-2.86537006897066,-0.910636510100649,,8.582774234357505,,
,5078.0,1271.0,8432.0,1729.0,2092.0,2213.0,2473.0,,,,-0.53490648457919,-2.86513627196248,-0.909924206844571,,8.21915337172564,,
,5080.0,1274.0,8432.0,1730.0,2080.0,2201.0,2486.0,,,,-0.535006879367897,-2.86511731885979,-0.909875171078217,,7.7062486429978065,,
,5084.0,1275.0,8431.0,1733.0,2093.0,2208.0,2492.0,,,,-0.534576213850501,-2.86496426210009,-0.90960055476441,,7.065932318190675,,
,5086.0,1274.0,8433.0,1734.0,2086.0,2192.0,2485.0,,,,-0.534790340544955,-2.86526003073138,-0.909603069372621,,6.323824280129433,,
,5087.0,1278.0,8436.0,1732.0,2087.0,2190.0,2490.0,,,,-0.534584662840254,-2.86495300256384,-0.909456863683695,,5.507788421819136,,
,5090.0,1276.0,8432.0,1732.0,2082.0,2201.0,2473.0,,,,-0.534492419062046,-2.86500093702042,-0.909063804111386,,4.646344997032737,,
,5094.0,1277.0,8435.0,1733.0,2081.0,2207.0,2477.0,,,,-0.534580283278189,-2.8649399136144,-0.909223488762009,,3.7671368914476493,,
,5096.0,1278.0,8434.0,1733.0,2084.0,2201.0,2493.0,,,,-0.534274409923538,-2.86466312753245,-0.909469525796423,,2.895575341478819,,
,5100.0,1280.0,8435.0,1734.0,2090.0,2198.0,2487.0,,,,-0.53381210384503,-2.8648034589216,-0.908764852170542,,2.053761676550672,,
,5101.0,1279.0,8434.0,1733.0,2084.0,2197.0,2489.0,,,,-0.533503060006864,-2.86465933665238,-0.907948953757164,,1.2597433160860159,,
,5105.0,1281.0,8436.0,1734.0,2084.0,2202.0,2482.0,,,,-0.53309622319825,-2.86435339722964,-0.90795519855077,,0.5271216792853878,,
,5109.0,1283.0,8436.0,1736.0,2092.0,2213.0,2484.0,,,,-0.532593765454445,-2.86405724296162,-0.90730717183489,,-0.1350071717444082,,
2025-07-15 19:21:20,5111.0,1285.0,8436.0,1737.0,2091.0,2209.0,2489.0,,,2025/07/15 07:21:20 PM,-0.532194497338984,-2.86410596281248,-0.906564354213117,,-0.7218270928752368,,
,5113.0,1286.0,8435.0,1740.0,2079.0,2212.0,2480.0,,,,-0.531566137147757,-2.86411069940462,-0.906209365469621,,-1.2323576998532002,,
,5111.0,1282.0,8434.0,1736.0,2090.0,2204.0,2475.0,,,,-0.530960817489756,-2.86397935260056,-0.905585147141692,,-1.668864354820952,,
,5112.0,1284.0,8435.0,1739.0,2085.0,2218.0,2490.0,,,,-0.530837979963178,-2.86379260942562,-0.904663629981384,,-2.0361915756175715,,
,5111.0,1283.0,8433.0,1737.0,2079.0,2216.0,2487.0,,,,-0.530015583497737,-2.86375830577835,-0.90462385105416,,-2.3410779126170667,,
,5103.0,1282.0,8433.0,1736.0,2078.0,2217.0,2474.0,,,,-0.530060937599613,-2.86365249703547,-0.903341244225492,,-2.5914956675112593,,
,5094.0,1276.0,8432.0,1734.0,2068.0,2210.0,2478.0,,,,-0.529662984315415,-2.86362884021077,-0.904147936175967,,-2.79604512813582,,
,5082.0,1274.0,8432.0,1733.0,2062.0,2189.0,2471.0,,,,-0.528901508836486,-2.86321408583716,-0.903542338033086,,-2.963422936656103,,
,5071.0,1269.0,8430.0,1728.0,2065.0,2186.0,2471.0,,,,-0.528433408101499,-2.86330124096316,-0.903282559637235,,-3.1019777915423346,,
,5060.0,1262.0,8429.0,1728.0,2073.0,2191.0,2483.0,,,,-0.527851031139774,-2.86324152370212,-0.902909180877869,,-3.219362125007434,,
,5044.0,1255.0,8428.0,1726.0,2081.0,2178.0,2480.0,,,,-0.528077099542753,-2.86316531070753,-0.901957326685308,,-3.322283905620757,,
,5030.0,1252.0,8428.0,1721.0,2079.0,2206.0,2490.0,,,,-0.527599700152163,-2.86297237517337,-0.901779135571961,,-3.416357585136292,,
,5021.0,1249.0,8428.0,1719.0,2077.0,2198.0,2488.0,,,,-0.527216337242445,-2.8630717606585,-0.902014914413725,,-3.5060477271013073,,
,5009.0,1242.0,8429.0,1716.0,2064.0,2195.0,2470.0,,,,-0.526792964172278,-2.86286724750784,-0.900805285493052,,-3.5946936666091642,,
,5000.0,1241.0,8425.0,1713.0,2060.0,2197.0,2475.0,,,,-0.526584596875514,-2.86288570335505,-0.900099487625796,,-3.684599229686723,,
,4989.0,1237.0,8423.0,1708.0,2065.0,2192.0,2480.0,,,,-0.526253804429196,-2.86295388046792,-0.900107612566788,,-3.7771685056014213,,
,4981.0,1236.0,8425.0,1709.0,2049.0,2198.0,2456.0,,,,-0.526347236807641,-2.86260916765206,-0.899669295162787,,-3.8730671965911685,,
,4973.0,1234.0,8424.0,1706.0,2071.0,2203.0,2475.0,,,,-0.525635099258243,-2.86243217424891,-0.899867747213836,,-3.9723892984343183,,
,4967.0,1234.0,8425.0,1705.0,2075.0,2205.0,2486.0,,,,-0.525297386239614,-2.86243801091112,-0.899410838682978,,-4.074810707877309,,
,4962.0,1227.0,8424.0,1702.0,2077.0,2201.0,2477.0,,,,-0.524818247445365,-2.86230351803115,-0.898680703345746,,-4.17971438935702,,
,4957.0,1229.0,8425.0,1702.0,2088.0,2212.0,2480.0,,,,-0.525009076304817,-2.86208676741446,-0.898214722969887,,-4.286275165134807,,
,4953.0,1231.0,8423.0,1703.0,2090.0,2210.0,2481.0,,,,-0.52440091111521,-2.86213810339348,-0.8989206979581,,-4.393495168570238,,
,4949.0,1228.0,8425.0,1699.0,2068.0,2211.0,2487.0,,,,-0.52410195040407,-2.86203393726034,-0.896944746561985,,-4.500183405268691,,
,4949.0,1228.0,8423.0,1700.0,2063.0,2215.0,2491.0,,,,-0.523411731458939,-2.86173851988288,-0.896564052415617,,-4.6048759319393255,,
,4945.0,1226.0,8425.0,1696.0,2074.0,2214.0,2488.0,,,,-0.522735106141578,-2.86157385824436,-0.896720180662892,,-4.705698827175772,,
,4943.0,1226.0,8423.0,1699.0,2091.0,2198.0,2471.0,,,,-0.521824497048666,-2.86159208277686,-0.895223546158152,,-4.8001852502263676,,
,4942.0,1228.0,8422.0,1698.0,2080.0,2200.0,2460.0,,,,-0.521680629821356,-2.86126992157607,-0.895249774900585,,-4.885069044323666,,
,4941.0,1226.0,8422.0,1697.0,2077.0,2194.0,2469.0,,,,-0.520618047908497,-2.8610375933091,-0.893278479473454,,-4.956087499328808,,
,4942.0,1226.0,8423.0,1695.0,2090.0,2203.0,2472.0,,,,-0.520083068535491,-2.86097490787517,-0.893307267569151,,-5.007832036378926,,
,4939.0,1227.0,8421.0,1697.0,2098.0,2212.0,2473.0,,,,-0.519660147328521,-2.86086797053349,-0.892974416744142,,-5.033685847639134,,
,4939.0,1226.0,8424.0,1697.0,2079.0,2208.0,2481.0,,,,-0.519283377976373,-2.86072136264992,-0.891812308039755,,-5.0258813326234195,,
,4937.0,1225.0,8422.0,1694.0,2077.0,2209.0,2474.0,,,,-0.518178620947618,-2.86066384226087,-0.891860444298814,,-4.975697985967398,,
,4938.0,1225.0,8424.0,1696.0,2072.0,2201.0,2479.0,,,,-0.518065013071584,-2.86059130190742,-0.891193845383892,,-4.873804677784128,,
,4935.0,1226.0,8422.0,1692.0,2084.0,2197.0,2475.0,,,,-0.517813804256101,-2.86038639079486,-0.890615088823432,,-4.710731541828982,,
,4939.0,1226.0,8423.0,1692.0,2094.0,2195.0,2461.0,,,,-0.517321375274879,-2.86042559702645,-0.890057995860173,,-4.477439207977365,,
,4937.0,1226.0,8424.0,1693.0,2090.0,2195.0,2468.0,,,,-0.516862865059857,-2.86035202419911,-0.890321726510673,,-4.165940119197034,,
,4940.0,1226.0,8423.0,1694.0,2070.0,2190.0,2469.0,,,,-0.517026887439276,-2.860042739849,-0.888998537385485,,-3.7699205034659644,,
,4938.0,1227.0,8423.0,1692.0,2072.0,2186.0,2481.0,,,,-0.516273716269432,-2.86026958994068,-0.890405394744589,,-3.285313058943994,,
,4940.0,1225.0,8424.0,1691.0,2099.0,2201.0,2469.0,,,,-0.516880349018165,-2.86008058568328,-0.890389067872981,,-2.710778518801615,,
,4938.0,1227.0,8423.0,1694.0,2086.0,2210.0,2480.0,,,,-0.516407594840454,-2.86031429047867,-0.890386639287842,,-2.0480661416807084,,
,4939.0,1227.0,8423.0,1693.0,2076.0,2200.0,2470.0,,,,-0.51699537802458,-2.86021587900774,-0.889979869838185,,-1.302235222347996,,
,4937.0,1225.0,8422.0,1692.0,2090.0,2200.0,2464.0,,,,-0.517101728281728,-2.86037957321452,-0.889978479851512,,-0.48172949821114125,,
,4938.0,1225.0,8419.0,1690.0,2101.0,2199.0,2467.0,,,,-0.517121325561568,-2.86042183035742,-0.890690001871116,,0.4016964712961907,,
,4938.0,1226.0,8422.0,1693.0,2081.0,2205.0,2463.0,,,,-0.51749965226219,-2.8604866526241,-0.89063071348324,,1.333194621778904,,
,4939.0,1226.0,8424.0,1692.0,2069.0,2196.0,2479.0,,,,-0.517464865570894,-2.86040997135751,-0.890069406767614,,2.2951766811419763,,
,4938.0,1224.0,8422.0,1692.0,2064.0,2207.0,2484.0,,,,-0.51734897143187,-2.86060093444565,-0.891685461821217,,3.267794354514725,,
,4935.0,1223.0,8423.0,1690.0,2079.0,2203.0,2475.0,,,,-0.517542421386515,-2.86067105756009,-0.891088306858436,,4.22953704437021,,
,4934.0,1225.0,8423.0,1688.0,2094.0,2192.0,2475.0,,,,-0.517315369729015,-2.86073774368378,-0.890851532490299,,5.1579366199074945,,
,4933.0,1222.0,8422.0,1691.0,2088.0,2191.0,2476.0,,,,-0.51752321763369,-2.86070839772863,-0.891637601271756,,6.030364853530379,,
,4932.0,1224.0,8422.0,1689.0,2087.0,2194.0,2481.0,,,,-0.517669094734772,-2.86059237884744,-0.891260778199496,,6.824901710939926,,
,4932.0,1220.0,8420.0,1688.0,2095.0,2189.0,2498.0,,,,-0.518579691124715,-2.86080264602941,-0.891242325433757,,7.5212422308978315,,
,4932.0,1223.0,8424.0,1689.0,2096.0,2199.0,2487.0,,,,-0.51890210627728,-2.86096490022459,-0.891409898169815,,8.101597842127763,,
,4933.0,1224.0,8422.0,1689.0,2095.0,2202.0,2467.0,,,,-0.518920007555925,-2.86127548107724,-0.892781893080434,,8.551536977942577,,
,4930.0,1223.0,8422.0,1686.0,2092.0,2198.0,2474.0,,,,-0.519187517114618,-2.86119830670308,-0.892750572972654,,8.860702331636322,,
,4930.0,1222.0,8424.0,1689.0,2066.0,2213.0,2464.0,,,,-0.519693183978311,-2.86111256727225,-0.893140087094128,,9.02334030066397,,
,4929.0,1223.0,8421.0,1687.0,2072.0,2212.0,2488.0,,,,-0.519934214345891,-2.86115739058536,-0.893114439436537,,9.038583898045216,,
,4932.0,1220.0,8422.0,1687.0,2084.0,2199.0,2478.0,,,,-0.519850456583188,-2.86129609166888,-0.892659186263482,,8.910445030835753,,
,4933.0,1221.0,8422.0,1688.0,2074.0,2205.0,2486.0,,,,-0.519833087185313,-2.8612248180324,-0.892295103201864,,8.647496054422623,,
,4932.0,1223.0,8424.0,1690.0,2059.0,2210.0,2482.0,,,,-0.519372637426831,-2.86117780016552,-0.892600584503689,,8.262252642815229,,
,4933.0,1222.0,8423.0,1687.0,2065.0,2199.0,2482.0,,,,-0.519315383128827,-2.86101467279259,-0.89224885638916,,7.770306422294299,,
,4934.0,1221.0,8421.0,1689.0,2073.0,2199.0,2466.0,,,,-0.519453731549089,-2.86110341905211,-0.892902349205415,,7.189289966052313,,
,4938.0,1223.0,8424.0,1687.0,2075.0,2201.0,2483.0,,,,-0.519082405893394,-2.86108572804276,-0.891701103295871,,6.537780654165536,,
,4937.0,1225.0,8422.0,1686.0,2076.0,2212.0,2493.0,,,,-0.518955333887642,-2.86098034478633,-0.892014859425056,,5.83425689134635,,
,4939.0,1225.0,8425.0,1689.0,2074.0,2208.0,2490.0,,,,-0.519021275140443,-2.86097015185576,-0.891433304458623,,5.096207996315981,,
,4943.0,1224.0,8422.0,1688.0,2090.0,2206.0,2479.0,,,,-0.518960663066466,-2.86083770994641,-0.891165839396522,,4.339471033119268,,
,4946.0,1226.0,8421.0,1686.0,2094.0,2177.0,2478.0,,,,-0.518915749202528,-2.86085071171232,-0.891959293676309,,3.5778309493429865,,
,4946.0,1229.0,8425.0,1688.0,2092.0,2205.0,2485.0,,,,-0.518720787483231,-2.8609097337048,-0.891838881597524,,2.822882260065131,,
,4951.0,1228.0,8425.0,1690.0,2092.0,2203.0,2484.0,,,,-0.518601043872113,-2.86066025909656,-0.891715163701579,,2.08411734866589,,
,4951.0,1227.0,8424.0,1688.0,2064.0,2203.0,2478.0,,,,-0.517869690202345,-2.8606608357664,-0.891450595930729,,1.3691822237076607,,
,4954.0,1230.0,8425.0,1689.0,2079.0,2204.0,2477.0,,,,-0.518070317159596,-2.86069721315696,-0.891334642762214,,0.684227070568825,,
,4957.0,1231.0,8422.0,1691.0,2069.0,2206.0,2467.0,,,,-0.517601500498869,-2.86073124696554,-0.890256965898203,,0.034276242799557016,,
,4961.0,1232.0,8424.0,1691.0,2064.0,2202.0,2470.0,,,,-0.517420291917817,-2.8604919820215,-0.890083439592903,,-0.5764504857320317,,
,4961.0,1229.0,8424.0,1689.0,2069.0,2217.0,2453.0,,,,-0.517364254342131,-2.86034570970044,-0.88939774151687,,-1.144317996385673,,
,4962.0,1233.0,8426.0,1691.0,2089.0,2220.0,2478.0,,,,-0.51696321464052,-2.8603888729851,-0.88968038016729,,-1.6661878004189818,,
,4965.0,1232.0,8423.0,1693.0,2069.0,2225.0,2458.0,,,,-0.516980604630879,-2.860144886384,-0.89002462035356,,-2.1394668243475423,,
,4970.0,1234.0,8427.0,1693.0,2075.0,2207.0,2454.0,,,,-0.516775877916492,-2.86022041467708,-0.889350543883778,,-2.5622723226377424,,
,4971.0,1233.0,8425.0,1691.0,2067.0,2206.0,2472.0,,,,-0.516553069579446,-2.85991373473615,-0.889150178031941,,-2.933671066398048,,
,4972.0,1233.0,8424.0,1692.0,2088.0,2199.0,2486.0,,,,-0.516093576973476,-2.85977455589022,-0.888684526665729,,-3.25393822964398,,
,4976.0,1236.0,8424.0,1696.0,2067.0,2197.0,2473.0,,,,-0.515470357217621,-2.85983086318914,-0.888030937994031,,-3.524779179635484,,
,4979.0,1237.0,8427.0,1695.0,2069.0,2202.0,2470.0,,,,-0.515368838888471,-2.85959820094037,-0.888183374783728,,-3.7494647932026712,,
,4981.0,1236.0,8426.0,1696.0,2075.0,2193.0,2474.0,,,,-0.514956037669847,-2.85968160700636,-0.887046811720169,,-3.932844767718935,,
,4982.0,1238.0,8425.0,1692.0,2089.0,2204.0,2464.0,,,,-0.514799094955386,-2.85943793959119,-0.887409950484588,,-4.0812199298032175,,
,4985.0,1240.0,8430.0,1695.0,2072.0,2208.0,2459.0,,,,-0.514883267472154,-2.859282414291,-0.886730232654569,,-4.202070935734784,,
,4988.0,1240.0,8428.0,1698.0,2074.0,2198.0,2476.0,,,,-0.514260958151227,-2.8592682190468,-0.885974727963736,,-4.303655456920264,,
,4990.0,1242.0,8428.0,1697.0,2080.0,2205.0,2473.0,,,,-0.514044312419319,-2.8594374479046,-0.885679870649251,,-4.394498281985933,,
,4993.0,1241.0,8426.0,1697.0,2100.0,2204.0,2465.0,,,,-0.513854568327301,-2.85917216829741,-0.885483467362223,,-4.482808445195586,,
,4992.0,1240.0,8427.0,1694.0,2069.0,2203.0,2465.0,,,,-0.513958447800038,-2.85917668232798,-0.885285762055548,,-4.575864344720061,,
,4999.0,1242.0,8427.0,1697.0,2079.0,2201.0,2472.0,,,,-0.513608469229718,-2.85915661138551,-0.885088525922522,,-4.67941177840004,,
,5000.0,1241.0,8426.0,1698.0,2082.0,2203.0,2484.0,,,,-0.513871460785922,-2.85912107032829,-0.885094019292638,,-4.797120889127587,,
,5003.0,1244.0,8429.0,1699.0,2079.0,2196.0,2475.0,,,,-0.513529273270862,-2.85916462063954,-0.885446083443192,,-4.930146135355959,,
,5004.0,1243.0,8423.0,1698.0,2095.0,2197.0,2472.0,,,,-0.513555506214584,-2.85912439419454,-0.885010584321876,,-5.076828460093925,,
,5009.0,1244.0,8428.0,1701.0,2076.0,2192.0,2480.0,,,,-0.51341037445285,-2.85898104792104,-0.885241130497968,,-5.2325706473657005,,
,5009.0,1246.0,8426.0,1700.0,2065.0,2193.0,2483.0,,,,-0.513190602670337,-2.85877186793724,-0.885536456904052,,-5.389905314859998,,
,5012.0,1247.0,8427.0,1701.0,2060.0,2196.0,2484.0,,,,-0.512857522009327,-2.85905214450512,-0.884883305372162,,-5.538760305821883,,
,5012.0,1245.0,8426.0,1703.0,2062.0,2202.0,2480.0,,,,-0.512496316139351,-2.85878085827755,-0.884440970924032,,-5.666909456040836,,
,5014.0,1247.0,8426.0,1700.0,2054.0,2203.0,2472.0,,,,-0.512454615377741,-2.85858985854901,-0.883736728076217,,-5.760580135088229,,
,5018.0,1249.0,8429.0,1702.0,2082.0,2216.0,2470.0,,,,-0.512480729753251,-2.8585312792117,-0.882929131301968,,-5.805175683464235,,
,5020.0,1250.0,8429.0,1704.0,2083.0,2213.0,2467.0,,,,-0.512044668252511,-2.85829433998853,-0.882747886320339,,-5.786063210543015,,
,5024.0,1250.0,8429.0,1702.0,2084.0,2210.0,2464.0,,,,-0.511533956093038,-2.85838555060041,-0.881819093828027,,-5.68937550620432,,
,5022.0,1248.0,8426.0,1704.0,2085.0,2223.0,2474.0,,,,-0.511041780919234,-2.85806058467998,-0.882070349546388,,-5.502778687988268,,
,5026.0,1250.0,8426.0,1702.0,2083.0,2215.0,2487.0,,,,-0.511226227032227,-2.85816030816155,-0.881405607909078,,-5.2161629856909375,,
,5029.0,1250.0,8426.0,1705.0,2086.0,2211.0,2466.0,,,,-0.511215225857395,-2.85829803457129,-0.88149421688953,,-4.822221918989531,,
,5032.0,1253.0,8430.0,1706.0,2085.0,2212.0,2466.0,,,,-0.511401442893827,-2.85832805928154,-0.88177936824723,,-4.31689514923277,,
,5033.0,1255.0,8428.0,1705.0,2071.0,2214.0,2457.0,,,,-0.511508286784623,-2.85817025874547,-0.882705559501254,,-3.6996626550402363,,
,5039.0,1256.0,8428.0,1707.0,2062.0,2209.0,2468.0,,,,-0.511557345956594,-2.85823310223963,-0.881190419722369,,-2.9736917462951697,,
,5041.0,1254.0,8429.0,1706.0,2086.0,2205.0,2483.0,,,,-0.511523658371382,-2.85831495970708,-0.883007254069975,,-2.145851517290893,,
,5042.0,1255.0,8429.0,1707.0,2087.0,2210.0,2481.0,,,,-0.511551478246521,-2.85833327888389,-0.881877343383822,,-1.2266186272589756,,
,5046.0,1255.0,8428.0,1709.0,2078.0,2217.0,2463.0,,,,-0.511816535121703,-2.85843503668697,-0.881729140777492,,-0.22990133426977513,,
,5046.0,1256.0,8429.0,1708.0,2097.0,2210.0,2458.0,,,,-0.511862797711305,-2.85849641566137,-0.882658022384582,,0.8271954850306782,,
,5051.0,1259.0,8430.0,1710.0,2081.0,2210.0,2486.0,,,,-0.511810213292014,-2.85858730760427,-0.881208546558284,,1.9246525327162967,,
,5053.0,1259.0,8428.0,1710.0,2084.0,2214.0,2480.0,,,,-0.511439001912385,-2.85848588053695,-0.882659453274057,,3.0398696701124153,,
,5055.0,1259.0,8429.0,1711.0,2089.0,2214.0,2493.0,,,,-0.511660000113187,-2.85839105067043,-0.882420047523547,,4.148072894846544,,
,5057.0,1259.0,8430.0,1709.0,2085.0,2203.0,2486.0,,,,-0.511800900678868,-2.8583117774302,-0.882285496124775,,5.222831570877957,,
,5057.0,1260.0,8430.0,1710.0,2083.0,2197.0,2487.0,,,,-0.511453762338574,-2.85838171771869,-0.882089145875179,,6.23672853599473,,
,5059.0,1259.0,8432.0,1710.0,2081.0,2223.0,2473.0,,,,-0.5111497400315,-2.8582397471846,-0.881631992960952,,7.162217130158191,,
,5053.0,1261.0,8429.0,1712.0,2085.0,2219.0,2450.0,,,,-0.511155814659125,-2.85827274325235,-0.882618104608793,,7.9726744822150994,,
,5048.0,1256.0,8427.0,1709.0,2083.0,2234.0,2466.0,,,,-0.510823932880885,-2.85833046171426,-0.88119739492676,,8.643622876381961,,
,5037.0,1248.0,8424.0,1703.0,2093.0,2216.0,2477.0,,,,-0.511003237922229,-2.85825028111612,-0.881434023703963,,9.154048346971571,,
,5026.0,1246.0,8425.0,1703.0,2095.0,2208.0,2476.0,,,,-0.510619642216691,-2.85797034243738,-0.88079898711322,,9.487707401347242,,
,5018.0,1243.0,8424.0,1701.0,2075.0,2210.0,2484.0,,,,-0.510357489834871,-2.85802318120229,-0.879838628661858,,9.634287895718408,,
,5006.0,1238.0,8423.0,1697.0,2070.0,2202.0,2482.0,,,,-0.509703223480492,-2.85793968950595,-0.879664421136194,,9.590285020578552,,
,4993.0,1232.0,8421.0,1697.0,2081.0,2197.0,2464.0,,,,-0.509741947482389,-2.85799268735737,-0.880741267982968,,9.359470899429617,,
,4984.0,1228.0,8421.0,1691.0,2073.0,2206.0,2481.0,,,,-0.509524698077432,-2.85780035846134,-0.880285017713784,,8.952875128950703,,
,4976.0,1227.0,8420.0,1692.0,2082.0,2208.0,2475.0,,,,-0.509480715801611,-2.85766273081256,-0.879736552756917,,8.388248149486488,,
,4969.0,1224.0,8420.0,1689.0,2080.0,2214.0,2470.0,,,,-0.509171778163424,-2.85761601304881,-0.879670751180825,,7.689040438929715,,
,4959.0,1221.0,8422.0,1686.0,2077.0,2209.0,2469.0,,,,-0.508940807821778,-2.85785121055398,-0.877412287332001,,6.882987002399891,,
,4951.0,1216.0,8419.0,1686.0,2071.0,2217.0,2457.0,,,,-0.508863404659545,-2.85763968514677,-0.87915788407001,,6.000428376519539,,
,4944.0,1216.0,8419.0,1682.0,2078.0,2214.0,2465.0,,,,-0.508828722646498,-2.85755448961739,-0.878895211215025,,5.072520606998938,,
2025-07-15 19:21:21,4938.0,1214.0,8419.0,1677.0,2068.0,2205.0,2470.0,,,2025/07/15 07:21:21 PM,-0.508510486058065,-2.85757665975326,-0.87789500141017,,4.129487272943008,,
,4933.0,1212.0,8418.0,1680.0,2076.0,2200.0,2478.0,,,,-0.50854737634469,-2.85749729978804,-0.877938312509183,,3.1990506258473874,,
,4929.0,1211.0,8417.0,1678.0,2065.0,2197.0,2469.0,,,,-0.508440053841475,-2.85766763487692,-0.878529775792533,,2.3051515572483283,,
,4926.0,1212.0,8417.0,1677.0,2078.0,2221.0,2468.0,,,,-0.508103342736229,-2.8575486285133,-0.878210118052161,,1.4670338736737534,,
,4925.0,1213.0,8416.0,1679.0,2059.0,2218.0,2467.0,,,,-0.508232824852882,-2.85768168989748,-0.878123676769767,,0.6987305842529847,,
,4920.0,1213.0,8418.0,1676.0,2059.0,2215.0,2463.0,,,,-0.507999185197346,-2.85737550319945,-0.877661614064512,,0.008951788361032586,,
,4922.0,1208.0,8417.0,1674.0,2068.0,2237.0,2468.0,,,,-0.508008303506564,-2.85738577250146,-0.878251816970919,,-0.5986609076901517,,
,4921.0,1208.0,8417.0,1673.0,2082.0,2223.0,2480.0,,,,-0.508355022614976,-2.85735691861123,-0.878183881356533,,-1.124975823828365,,
,4919.0,1210.0,8418.0,1675.0,2078.0,2212.0,2457.0,,,,-0.508399411857054,-2.85777827679813,-0.877837206015021,,-1.5745881332970504,,
,4920.0,1209.0,8420.0,1672.0,2081.0,2212.0,2452.0,,,,-0.507950671052433,-2.85780693717628,-0.877633718571865,,-1.9548985650337396,,
,4918.0,1210.0,8420.0,1672.0,2064.0,2210.0,2453.0,,,,-0.507840270161139,-2.85749449863982,-0.877552139305045,,-2.2751377094851644,,
,4917.0,1211.0,8416.0,1670.0,2068.0,2192.0,2471.0,,,,-0.507331879479942,-2.85732199223333,-0.876703651946045,,-2.5454110697176113,,
,4920.0,1209.0,8419.0,1673.0,2090.0,2201.0,2466.0,,,,-0.507244183346735,-2.8574000823734,-0.876768665876564,,-2.7758280819728727,,
,4918.0,1208.0,8417.0,1673.0,2094.0,2201.0,2479.0,,,,-0.506609013338498,-2.85721441782951,-0.875929176945108,,-2.9757653630391285,,
,4918.0,1210.0,8419.0,1673.0,2081.0,2207.0,2483.0,,,,-0.50638212392844,-2.85707011633049,-0.875606707403645,,-3.1533014066500757,,
,4917.0,1208.0,8418.0,1669.0,2076.0,2202.0,2473.0,,,,-0.506104271572591,-2.85694864374577,-0.876291097200613,,-3.3148468490139527,,
,4923.0,1213.0,8420.0,1674.0,2065.0,2184.0,2478.0,,,,-0.505763445196739,-2.8570904109348,-0.875413798258374,,-3.464980828617674,,
,4923.0,1213.0,8419.0,1672.0,2073.0,2198.0,2481.0,,,,-0.50574142685303,-2.85689749274179,-0.874761142499243,,-3.6064895070644347,,
,4922.0,1214.0,8417.0,1675.0,2062.0,2196.0,2489.0,,,,-0.505457699338345,-2.85689771602949,-0.875079057581192,,-3.7405874395333267,,
,4922.0,1213.0,8416.0,1673.0,2085.0,2202.0,2489.0,,,,-0.505280918327423,-2.85685257486874,-0.874544772238666,,-3.867286642384056,,
,4925.0,1213.0,8419.0,1674.0,2073.0,2193.0,2476.0,,,,-0.505129305264145,-2.85691475237671,-0.874466100984181,,-3.985863183111863,,
,4929.0,1215.0,8419.0,1674.0,2058.0,2213.0,2483.0,,,,-0.505117706659815,-2.856822362541,-0.875226002459697,,-4.095359311166373,,
,4927.0,1213.0,8415.0,1672.0,2052.0,2200.0,2489.0,,,,-0.50520414159341,-2.85666004674726,-0.874385459162887,,-4.195053752071883,,
,4929.0,1214.0,8417.0,1674.0,2057.0,2197.0,2484.0,,,,-0.50487152228882,-2.85657900299118,-0.873897528016186,,-4.284836422693062,,
,4928.0,1213.0,8417.0,1671.0,2082.0,2201.0,2488.0,,,,-0.504755652414545,-2.85642334313699,-0.874280558405268,,-4.365436862940123,,
,4930.0,1213.0,8418.0,1674.0,2070.0,2202.0,2481.0,,,,-0.504362349578214,-2.85661317951273,-0.873318500433908,,-4.438475759029529,,
,4931.0,1214.0,8419.0,1674.0,2038.0,2203.0,2484.0,,,,-0.504182278421587,-2.85658068564243,-0.873486287008577,,-4.506332112834268,,
,4929.0,1213.0,8420.0,1675.0,2053.0,2190.0,2484.0,,,,-0.503929978053427,-2.85632267042521,-0.873795586325773,,-4.571841066632779,,
,4931.0,1213.0,8420.0,1672.0,2066.0,2202.0,2473.0,,,,-0.503944646188587,-2.8561530809541,-0.872321535195999,,-4.63785645538964,,
,4929.0,1213.0,8418.0,1673.0,2059.0,2208.0,2472.0,,,,-0.503607974762811,-2.85623555403666,-0.872806817456031,,-4.706726398704971,,
,4928.0,1213.0,8419.0,1671.0,2051.0,2197.0,2481.0,,,,-0.503370066182502,-2.85628997668799,-0.872207545395669,,-4.779739083900289,,
,4934.0,1213.0,8421.0,1674.0,2049.0,2193.0,2479.0,,,,-0.503113627929701,-2.8559885439199,-0.872718785006317,,-4.856599301923644,,
,4931.0,1214.0,8417.0,1674.0,2060.0,2200.0,2491.0,,,,-0.503722913585043,-2.85603762734008,-0.872311722654865,,-4.934994647140809,,
,4932.0,1210.0,8418.0,1673.0,2079.0,2199.0,2480.0,,,,-0.503726738386654,-2.85615716660436,-0.872518516571586,,-5.010304156435992,,
,4932.0,1212.0,8419.0,1674.0,2089.0,2217.0,2468.0,,,,-0.50384853613833,-2.856193897673,-0.872922147309353,,-5.075492112794031,,
,4935.0,1214.0,8417.0,1674.0,2071.0,2195.0,2482.0,,,,-0.504118975906179,-2.85643062777601,-0.873611029367495,,-5.12121623280602,,
,4931.0,1213.0,8418.0,1673.0,2067.0,2201.0,2467.0,,,,-0.504398108440409,-2.85666316405535,-0.873658393607298,,-5.136162814384834,,
,4932.0,1213.0,8417.0,1671.0,2081.0,2222.0,2468.0,,,,-0.504572637736661,-2.8567533287611,-0.874143857320243,,-5.1076018505114495,,
,4938.0,1214.0,8420.0,1671.0,2072.0,2212.0,2483.0,,,,-0.505255338792644,-2.85669634045801,-0.874932625732596,,-5.022133066064988,,
,4938.0,1215.0,8419.0,1671.0,2062.0,2205.0,2485.0,,,,-0.505746671376559,-2.85687609700638,-0.87502071473512,,-4.866570843471642,,
,4939.0,1215.0,8419.0,1674.0,2067.0,2195.0,2483.0,,,,-0.506148031350716,-2.85704371292228,-0.875891448243546,,-4.628895524719414,,
,4940.0,1213.0,8419.0,1672.0,2077.0,2172.0,2491.0,,,,-0.506903490962291,-2.85740245111287,-0.877796679060734,,-4.299185647238603,,
,4941.0,1214.0,8422.0,1674.0,2087.0,2190.0,2485.0,,,,-0.507472463426966,-2.85762200872097,-0.878182827658383,,-3.870444841481035,,
,4945.0,1215.0,8419.0,1672.0,2070.0,2197.0,2494.0,,,,-0.507603324041157,-2.85750236520189,-0.878835410088057,,-3.339249867560354,,
,4944.0,1215.0,8419.0,1676.0,2086.0,2192.0,2495.0,,,,-0.508056975347668,-2.85787114325183,-0.879174554201751,,-2.70616990383686,,
,4950.0,1217.0,8420.0,1676.0,2082.0,2208.0,2486.0,,,,-0.508913764115298,-2.85804708882625,-0.879597369108724,,-1.9759359887091157,,
,4949.0,1217.0,8417.0,1673.0,2058.0,2210.0,2477.0,,,,-0.509418932984092,-2.85813024602663,-0.88095496927529,,-1.1573670715979552,,
,4954.0,1217.0,8419.0,1676.0,2047.0,2212.0,2502.0,,,,-0.509652140535937,-2.85829269855896,-0.88133994699418,,-0.263080625616286,,
,4959.0,1222.0,8420.0,1675.0,2060.0,2195.0,2496.0,,,,-0.509746656232531,-2.85822878986962,-0.881241939934521,,0.6909709855799451,,
,4960.0,1219.0,8420.0,1677.0,2068.0,2188.0,2483.0,,,,-0.510358861521852,-2.85826496125814,-0.882242238150303,,1.6860920270053434,,
,4965.0,1222.0,8419.0,1676.0,2061.0,2204.0,2467.0,,,,-0.510497029472301,-2.85850401883978,-0.881076592376218,,2.7015176765297237,,
,4966.0,1221.0,8419.0,1678.0,2059.0,2198.0,2474.0,,,,-0.510901100781418,-2.85850663868221,-0.883381407704182,,3.7151313435338134,,
,4971.0,1226.0,8422.0,1680.0,2051.0,2210.0,2479.0,,,,-0.510874439698467,-2.8586619275962,-0.882497092690238,,4.7041927385425035,,
,4974.0,1224.0,8419.0,1679.0,2037.0,2197.0,2484.0,,,,-0.510814744377266,-2.85862233850952,-0.88321724965042,,5.646052504363947,,
,4976.0,1227.0,8424.0,1681.0,2054.0,2190.0,2482.0,,,,-0.510863814098191,-2.85875523003737,-0.884275351886016,,6.518837297018776,,
,4976.0,1225.0,8423.0,1682.0,2061.0,2177.0,2487.0,,,,-0.511185907494041,-2.85871079494209,-0.882885196576264,,7.302096873435826,,
,4980.0,1227.0,8423.0,1681.0,2071.0,2192.0,2493.0,,,,-0.511228429585198,-2.85885621302823,-0.883257585888687,,7.977411187285416,,
,4986.0,1229.0,8423.0,1683.0,2071.0,2200.0,2471.0,,,,-0.511242445444138,-2.85883857727215,-0.883885166022213,,8.528959043092502,,
,4990.0,1229.0,8420.0,1682.0,2050.0,2204.0,2473.0,,,,-0.511197886843095,-2.85891393345898,-0.883836543545239,,8.944048279154739,,
,4994.0,1228.0,8420.0,1685.0,2049.0,2201.0,2477.0,,,,-0.511190049153928,-2.85872400469533,-0.88378066300877,,9.213599221601086,,
,4999.0,1234.0,8425.0,1683.0,2077.0,2222.0,2483.0,,,,-0.511915389305579,-2.85883429780033,-0.884206436918642,,9.33255918394073,,
,5001.0,1232.0,8425.0,1686.0,2072.0,2216.0,2480.0,,,,-0.511753095770293,-2.85882524416,-0.883623868678864,,9.300210226033473,,
,5004.0,1233.0,8424.0,1688.0,2064.0,2207.0,2479.0,,,,-0.511982895831968,-2.85870033559066,-0.883674527782754,,9.120321548017857,,
,5008.0,1234.0,8424.0,1687.0,2058.0,2208.0,2482.0,,,,-0.512411857515234,-2.85898183167871,-0.884369012162029,,8.801097767481222,,
,5011.0,1235.0,8423.0,1686.0,2081.0,2207.0,2485.0,,,,-0.512243929172219,-2.85892445797937,-0.884694296141645,,8.354888027540271,,
,5016.0,1235.0,8423.0,1689.0,2062.0,2210.0,2501.0,,,,-0.513057705590804,-2.85927320154148,-0.88370721197396,,7.7976470958574335,,
,5018.0,1237.0,8426.0,1692.0,2060.0,2219.0,2491.0,,,,-0.513493947608909,-2.85917971538187,-0.885549946288505,,7.148172569776986,,
,5021.0,1239.0,8425.0,1689.0,2056.0,2226.0,2493.0,,,,-0.513404006638297,-2.85941461178701,-0.886516848489866,,6.427173586321195,,
,5022.0,1238.0,8424.0,1689.0,2072.0,2215.0,2488.0,,,,-0.514186862312947,-2.85957920012279,-0.887092621779278,,5.656248214744493,,
,5027.0,1241.0,8423.0,1692.0,2074.0,2201.0,2483.0,,,,-0.514449133564973,-2.85963245432058,-0.888577891810242,,4.85685472536137,,
,5029.0,1242.0,8428.0,1693.0,2073.0,2206.0,2486.0,,,,-0.515145444551439,-2.85971997295143,-0.888067772857084,,4.049356428378854,,
,5035.0,1244.0,8425.0,1692.0,2079.0,2195.0,2491.0,,,,-0.515039461677493,-2.86002182472425,-0.888496099974507,,3.2522041986850074,,
,5038.0,1243.0,8425.0,1692.0,2076.0,2184.0,2476.0,,,,-0.516320905372247,-2.85997338899078,-0.88940097286246,,2.4812997792048086,,
,5038.0,1243.0,8427.0,1693.0,2062.0,2209.0,2478.0,,,,-0.51630154717886,-2.86020513315519,-0.889454060671453,,1.7495609915769381,,
,5044.0,1245.0,8424.0,1695.0,2057.0,2202.0,2472.0,,,,-0.516502351628084,-2.86008715282704,-0.888942880614406,,1.066690801366341,,
,5048.0,1244.0,8424.0,1696.0,2063.0,2204.0,2466.0,,,,-0.516321376147908,-2.86014098331386,-0.888994908334135,,0.4391381349310851,,
,5052.0,1249.0,8429.0,1697.0,2068.0,2197.0,2467.0,,,,-0.516709689427579,-2.86038349290861,-0.890632748195807,,-0.12977018517475078,,
,5052.0,1245.0,8425.0,1694.0,2054.0,2193.0,2481.0,,,,-0.516270805053064,-2.86042742170828,-0.889172964990018,,-0.6395515217174672,,
,5056.0,1250.0,8427.0,1696.0,2043.0,2208.0,2470.0,,,,-0.516703688661202,-2.86039400324723,-0.889920017401406,,-1.092171353603143,,
,5062.0,1250.0,8427.0,1699.0,2049.0,2198.0,2475.0,,,,-0.516617137495544,-2.86018310901399,-0.889538035028,,-1.491559278793236,,
,5066.0,1252.0,8428.0,1699.0,2043.0,2215.0,2480.0,,,,-0.516488571717032,-2.86022482635543,-0.890065260646503,,-1.843069575615552,,
,5068.0,1251.0,8424.0,1699.0,2051.0,2209.0,2491.0,,,,-0.5163254305037,-2.86018159358272,-0.890110002872841,,-2.1529202437669372,,
,5070.0,1251.0,8428.0,1700.0,2062.0,2201.0,2487.0,,,,-0.516296189641311,-2.8603610844501,-0.890207433923067,,-2.4276442598016166,,
,5075.0,1256.0,8428.0,1703.0,2039.0,2198.0,2482.0,,,,-0.516205301643838,-2.86041454939476,-0.889656612508928,,-2.6735846346597376,,
,5078.0,1252.0,8427.0,1702.0,2055.0,2193.0,2486.0,,,,-0.51722023044954,-2.86039874529561,-0.890510731518729,,-2.896460933708025,,
,5082.0,1255.0,8428.0,1703.0,2061.0,2199.0,2476.0,,,,-0.517207386612005,-2.86031486433922,-0.890160146677193,,-3.1010296365809253,,
,5083.0,1258.0,8431.0,1705.0,2070.0,2203.0,2476.0,,,,-0.517043574027958,-2.86056561657936,-0.890605157870739,,-3.290854522285253,,
,5088.0,1261.0,8429.0,1708.0,2070.0,2207.0,2479.0,,,,-0.517373021191563,-2.86051348754288,-0.890713617954214,,-3.4681966391256123,,
,5093.0,1259.0,8431.0,1709.0,2060.0,2211.0,2475.0,,,,-0.51734732869592,-2.86049868771896,-0.890467339561977,,-3.6340268403293807,,
,5095.0,1261.0,8430.0,1706.0,2061.0,2214.0,2483.0,,,,-0.517376135349507,-2.8606705726811,-0.890023607308494,,-3.788157585019129,,
,5098.0,1260.0,8429.0,1708.0,2054.0,2201.0,2488.0,,,,-0.517419437632457,-2.86058249674652,-0.891372027328695,,-3.9294844640588233,,
,5104.0,1264.0,8428.0,1712.0,2033.0,2206.0,2483.0,,,,-0.517396902993016,-2.86063339134714,-0.891154378963382,,-4.0563209774662905,,
,5107.0,1262.0,8429.0,1710.0,2041.0,2206.0,2483.0,,,,-0.517557790532135,-2.86081768313541,-0.890229459817539,,-4.166801714700643,,
,5111.0,1267.0,8434.0,1711.0,2040.0,2207.0,2478.0,,,,-0.517511300496,-2.86070983553553,-0.890927949132879,,-4.259319236976537,,
,5115.0,1267.0,8430.0,1712.0,2048.0,2207.0,2479.0,,,,-0.517466767650165,-2.86073773105117,-0.890388918544091,,-4.332950014013264,,
,5120.0,1266.0,8432.0,1714.0,2077.0,2190.0,2484.0,,,,-0.517538138316141,-2.86097054684964,-0.891670904496627,,-4.387817667674679,,
,5122.0,1270.0,8430.0,1714.0,2063.0,2195.0,2478.0,,,,-0.51787712701956,-2.8607190886626,-0.891298151948539,,-4.425340991282558,,
,5127.0,1271.0,8432.0,1713.0,2049.0,2187.0,2481.0,,,,-0.518239245626577,-2.86093345888114,-0.891217277210517,,-4.448321868621753,,
,5130.0,1272.0,8432.0,1717.0,2066.0,2188.0,2476.0,,,,-0.518378422930405,-2.86075716750106,-0.89126437296576,,-4.460843912810148,,
,5133.0,1272.0,8431.0,1715.0,2062.0,2185.0,2483.0,,,,-0.518203804640099,-2.86090484512736,-0.892234920822657,,-4.4679739327924475,,
,5135.0,1274.0,8431.0,1718.0,2054.0,2184.0,2490.0,,,,-0.518306093080967,-2.86084364771604,-0.892142411055191,,-4.475281987016088,,
,5137.0,1274.0,8432.0,1719.0,2057.0,2193.0,2498.0,,,,-0.518631593304686,-2.86081904037927,-0.892094904206694,,-4.488218643007288,,
,5135.0,1274.0,8432.0,1720.0,2052.0,2194.0,2496.0,,,,-0.518996367776226,-2.86114994337769,-0.891949421606491,,-4.511407292676477,,
,5131.0,1269.0,8429.0,1715.0,2075.0,2218.0,2481.0,,,,-0.519001374447754,-2.86127565685342,-0.892750811970366,,-4.547922653352789,,
,5126.0,1266.0,8428.0,1714.0,2077.0,2207.0,2486.0,,,,-0.519084194948994,-2.86121837162822,-0.892602763173562,,-4.598632477152068,,
,5116.0,1263.0,8430.0,1713.0,2057.0,2225.0,2494.0,,,,-0.519049701666661,-2.86115868187779,-0.892340555619097,,-4.66167766656045,,
,5105.0,1257.0,8428.0,1710.0,2061.0,2218.0,2492.0,,,,-0.519370018653467,-2.86120159439178,-0.893068352655396,,-4.732156974113876,,
,5091.0,1255.0,8426.0,1708.0,2058.0,2196.0,2492.0,,,,-0.519041658813904,-2.86136621252974,-0.892721335334913,,-4.80206710752373,,
,5081.0,1245.0,8424.0,1704.0,2068.0,2189.0,2487.0,,,,-0.519302967529729,-2.86137805824687,-0.893089128843979,,-4.860528245482488,,
,5068.0,1240.0,8425.0,1705.0,2069.0,2189.0,2490.0,,,,-0.51959649958752,-2.86130457197814,-0.894473546671738,,-4.894299637328625,,
,5057.0,1238.0,8423.0,1703.0,2047.0,2190.0,2485.0,,,,-0.519771412367527,-2.86142669267801,-0.89306884584569,,-4.88856139918404,,
,5049.0,1234.0,8423.0,1697.0,2046.0,2189.0,2487.0,,,,-0.520183223280161,-2.86164010504658,-0.893803114698841,,-4.827908824379118,,
,5038.0,1229.0,8419.0,1693.0,2058.0,2200.0,2465.0,,,,-0.520571598694881,-2.86170986279008,-0.894094818067399,,-4.69747764776829,,
,5031.0,1228.0,8421.0,1694.0,2051.0,2196.0,2476.0,,,,-0.520968306451118,-2.8618495817158,-0.895107818497244,,-4.484097342189654,,
,5023.0,1227.0,8421.0,1690.0,2058.0,2193.0,2482.0,,,,-0.521513264992591,-2.86184478786637,-0.895754102237632,,-4.17736003506311,,
,5015.0,1221.0,8422.0,1687.0,2067.0,2195.0,2488.0,,,,-0.52171133796475,-2.86193040332828,-0.895535461267424,,-3.7704990509049736,,
,5007.0,1220.0,8419.0,1686.0,2065.0,2196.0,2474.0,,,,-0.521959262454868,-2.8622496267523,-0.896458839496568,,-3.2609939173560782,,
,5008.0,1217.0,8418.0,1685.0,2051.0,2201.0,2483.0,,,,-0.522307147535366,-2.86243766886134,-0.896930381368108,,-2.6508541911663066,,
,5004.0,1215.0,8420.0,1683.0,2069.0,2200.0,2479.0,,,,-0.523231890631281,-2.86238736488185,-0.897991201857594,,-1.9465757501939789,,
,4997.0,1217.0,8420.0,1683.0,2069.0,2192.0,2481.0,,,,-0.523325572238216,-2.86240037279558,-0.897401627991732,,-1.1588021378464475,,
,4996.0,1217.0,8423.0,1681.0,2065.0,2187.0,2465.0,,,,-0.523653695218484,-2.86243234684942,-0.89777561922706,,-0.30175306862671886,,
,4994.0,1212.0,8420.0,1680.0,2065.0,2205.0,2463.0,,,,-0.523610778699756,-2.86242017933068,-0.898450262921424,,0.6075017642178439,,
,4991.0,1215.0,8420.0,1679.0,2063.0,2210.0,2460.0,,,,-0.523915120403627,-2.86272944151012,-0.898591830583582,,1.5498431603376461,,
,4991.0,1215.0,8420.0,1678.0,2073.0,2204.0,2462.0,,,,-0.523483763666112,-2.86278567964939,-0.897642162952893,,2.5049055025827793,,
,4991.0,1216.0,8419.0,1677.0,2076.0,2206.0,2462.0,,,,-0.523314837408561,-2.86266303349529,-0.898060517159049,,3.4518267329739345,,
,4986.0,1213.0,8419.0,1676.0,2089.0,2207.0,2476.0,,,,-0.523932096936829,-2.86250415104791,-0.898268833797718,,4.369909091337373,,
,4987.0,1214.0,8420.0,1677.0,2084.0,2205.0,2483.0,,,,-0.523706760911506,-2.86263332179236,-0.896958559404939,,5.239175106687419,,
,4986.0,1214.0,8420.0,1679.0,2069.0,2207.0,2468.0,,,,-0.523941025033361,-2.86267061809958,-0.898294507108714,,6.040822695727911,,
2025-07-15 19:21:22,4986.0,1214.0,8420.0,1677.0,2066.0,2204.0,2463.0,,,2025/07/15 07:21:22 PM,-0.523989946581381,-2.86280037601517,-0.898710814085118,,6.75759909033921,,
,4984.0,1212.0,8419.0,1677.0,2062.0,2200.0,2476.0,,,,-0.523382845485268,-2.86251986283438,-0.897543986176568,,7.374123435789927,,
,4983.0,1212.0,8417.0,1673.0,2078.0,2212.0,2476.0,,,,-0.52369326260091,-2.86263584432893,-0.898411412023147,,7.877190358521535,,
,4984.0,1212.0,8421.0,1674.0,2069.0,2208.0,2468.0,,,,-0.523218281922745,-2.86270935902951,-0.898602366041873,,8.256080481989176,,
,4986.0,1212.0,8419.0,1676.0,2077.0,2218.0,2467.0,,,,-0.523376473286798,-2.8624118335607,-0.897976530085879,,8.502889076058649,,
,4984.0,1213.0,8420.0,1676.0,2077.0,2207.0,2478.0,,,,-0.523536424385546,-2.86271733581138,-0.898271410135755,,8.612863178896442,,
,4986.0,1213.0,8421.0,1672.0,2077.0,2197.0,2476.0,,,,-0.52388906078226,-2.86254610424298,-0.898138067159622,,8.584715274631213,,
,4987.0,1215.0,8417.0,1675.0,2052.0,2184.0,2480.0,,,,-0.524158092968647,-2.86270449503153,-0.898770249092927,,8.420863812200963,,
,4985.0,1215.0,8422.0,1676.0,2051.0,2217.0,2485.0,,,,-0.524429854157616,-2.86281984980087,-0.899123717327704,,8.127542910241909,,
,4988.0,1213.0,8420.0,1677.0,2056.0,2218.0,2479.0,,,,-0.524468885962804,-2.86282444183568,-0.899885202044101,,7.714728869201241,,
,4989.0,1215.0,8418.0,1675.0,2061.0,2204.0,2492.0,,,,-0.524596258591925,-2.86292563702661,-0.900241310365816,,7.195849806977431,,
,4988.0,1212.0,8419.0,1674.0,2060.0,2191.0,2497.0,,,,-0.52489726261375,-2.86305902436184,-0.899346901250472,,6.587273326815395,,
,4991.0,1214.0,8422.0,1677.0,2062.0,2197.0,2494.0,,,,-0.524945363174672,-2.86295983909405,-0.900349169288334,,5.90759884380725,,
,4990.0,1214.0,8420.0,1676.0,2072.0,2182.0,2489.0,,,,-0.524861402770318,-2.86301390704611,-0.901115307482297,,5.176808099682066,,
,4994.0,1215.0,8419.0,1676.0,2062.0,2197.0,2483.0,,,,-0.525074337201293,-2.86314053748685,-0.899667714452031,,4.415343472060455,,
,4993.0,1214.0,8417.0,1676.0,2036.0,2186.0,2479.0,,,,-0.524904876089429,-2.86334017626332,-0.899721975641875,,3.6431870155347057,,
,4992.0,1214.0,8417.0,1675.0,2055.0,2187.0,2492.0,,,,-0.525250267408696,-2.86311892889764,-0.899790037487562,,2.879005795996665,,
,4992.0,1214.0,8418.0,1675.0,2045.0,2189.0,2495.0,,,,-0.52428824511313,-2.86314876018883,-0.89923640671328,,2.1394152059216665,,
,4995.0,1214.0,8420.0,1677.0,2062.0,2186.0,2493.0,,,,-0.524681254838205,-2.86315645507458,-0.900847264228929,,1.4383961009466413,,
,4993.0,1212.0,8420.0,1673.0,2063.0,2170.0,2496.0,,,,-0.525006820330241,-2.86336708487955,-0.900584379723849,,0.786887336461715,,
,4992.0,1215.0,8418.0,1673.0,2059.0,2195.0,2500.0,,,,-0.525606508117706,-2.86320543617499,-0.900919382736018,,0.19256427319564923,,
,4993.0,1215.0,8420.0,1674.0,2046.0,2191.0,2486.0,,,,-0.526260363723729,-2.86360090147745,-0.901782924164191,,-0.3401945861636221,,
,4994.0,1215.0,8419.0,1676.0,2064.0,2188.0,2496.0,,,,-0.526897381641699,-2.8638344166131,-0.90260124475795,,-0.8101586522303902,,
,4992.0,1215.0,8421.0,1676.0,2052.0,2189.0,2481.0,,,,-0.527309074691074,-2.86378843262163,-0.901976892014521,,-1.2189292010244641,,
,4995.0,1213.0,8420.0,1675.0,2072.0,2189.0,2487.0,,,,-0.52742136221947,-2.86403121709303,-0.90340460138373,,-1.570482177906917,,
,4995.0,1215.0,8419.0,1673.0,2074.0,2200.0,2480.0,,,,-0.528470911546438,-2.86418778979706,-0.903375983213945,,-1.8706062058449826,,
,4993.0,1216.0,8421.0,1675.0,2074.0,2219.0,2492.0,,,,-0.528630493910373,-2.86427994018357,-0.904001283452637,,-2.1262800306654657,,
,4998.0,1214.0,8420.0,1674.0,2062.0,2212.0,2495.0,,,,-0.528436940296473,-2.8641025400754,-0.904785009100736,,-2.34503747142817,,
,4998.0,1215.0,8418.0,1674.0,2066.0,2201.0,2487.0,,,,-0.528801984827709,-2.86412963729033,-0.904557635385493,,-2.534367241510718,,
,5002.0,1216.0,8417.0,1676.0,2063.0,2192.0,2496.0,,,,-0.528928758143649,-2.86419194626479,-0.905557720298464,,-2.7011901277858477,,
,5003.0,1217.0,8419.0,1677.0,2067.0,2207.0,2497.0,,,,-0.528696526772969,-2.86418677839828,-0.904709888906178,,-2.8514477574499146,,
,5005.0,1219.0,8421.0,1678.0,2067.0,2210.0,2492.0,,,,-0.52868132787517,-2.86416539541362,-0.903680991832816,,-2.9898264924850846,,
,5008.0,1219.0,8420.0,1677.0,2082.0,2200.0,2476.0,,,,-0.528879655501068,-2.8642198179887,-0.905096100085429,,-3.1196279238648215,,
,5007.0,1218.0,8420.0,1674.0,2083.0,2204.0,2475.0,,,,-0.528946197539156,-2.86433432163854,-0.904090382097643,,-3.2427851023697185,,
,5010.0,1220.0,8421.0,1677.0,2077.0,2181.0,2485.0,,,,-0.529347425404026,-2.86436130460953,-0.906207536463018,,-3.360012007296281,,
,5012.0,1221.0,8420.0,1679.0,2076.0,2178.0,2494.0,,,,-0.529581717954248,-2.86409462975131,-0.905261114731043,,-3.47106342757878,,
,5015.0,1219.0,8421.0,1678.0,2067.0,2192.0,2496.0,,,,-0.53014501767803,-2.86429379957559,-0.90521835752354,,-3.5750736289654537,,
,5015.0,1220.0,8421.0,1677.0,2043.0,2194.0,2486.0,,,,-0.52981528427558,-2.86433408772499,-0.905568731357504,,-3.670934913423098,,
,5019.0,1221.0,8422.0,1681.0,2065.0,2200.0,2485.0,,,,-0.529934799441984,-2.86435023040242,-0.905428127435243,,-3.7576716332362134,,
,5026.0,1225.0,8422.0,1680.0,2061.0,2211.0,2488.0,,,,-0.530104372769222,-2.86416379262078,-0.904841800995389,,-3.8347623166797575,,
,5028.0,1226.0,8425.0,1679.0,2057.0,2210.0,2486.0,,,,-0.53007052061952,-2.86420852845769,-0.905608755295213,,-3.9023641450563122,,
,5030.0,1224.0,8422.0,1684.0,2034.0,2194.0,2481.0,,,,-0.530184482539471,-2.86420918664092,-0.905665254584282,,-3.9614020919391795,,
,5033.0,1226.0,8424.0,1680.0,2047.0,2194.0,2474.0,,,,-0.530304292856767,-2.86412281515141,-0.905323137708563,,-4.013500182733156,,
,5036.0,1227.0,8423.0,1681.0,2076.0,2179.0,2479.0,,,,-0.529579934490021,-2.86413301895836,-0.904584520628886,,-4.060752728558219,,
,5042.0,1229.0,8423.0,1683.0,2080.0,2189.0,2472.0,,,,-0.529247185038276,-2.86414557736123,-0.905487926086443,,-4.105355356308103,,
,5045.0,1231.0,8425.0,1685.0,2070.0,2193.0,2498.0,,,,-0.529092826317501,-2.86406357268113,-0.904362242476208,,-4.149135321899076,,
,5044.0,1231.0,8423.0,1686.0,2066.0,2226.0,2504.0,,,,-0.528910169960159,-2.86395018518084,-0.903779121849185,,-4.193035219834508,,
,5049.0,1232.0,8424.0,1685.0,2053.0,2209.0,2492.0,,,,-0.528795976522755,-2.86388036594348,-0.904876612811711,,-4.23661240077544,,
,5053.0,1232.0,8426.0,1688.0,2056.0,2186.0,2495.0,,,,-0.52901818286305,-2.86393124350916,-0.904622164658723,,-4.277617644423734,,
,5056.0,1233.0,8425.0,1690.0,2041.0,2184.0,2487.0,,,,-0.529105724371866,-2.86413294174039,-0.904222844556261,,-4.311710904949957,,
,5058.0,1232.0,8423.0,1687.0,2051.0,2198.0,2493.0,,,,-0.529803948085185,-2.86398166522182,-0.904887391966574,,-4.3323598817841,,
,5061.0,1236.0,8427.0,1688.0,2060.0,2199.0,2486.0,,,,-0.5297667909776,-2.86402065275564,-0.904682211864944,,-4.330950128674401,,
,5067.0,1238.0,8426.0,1689.0,2054.0,2211.0,2488.0,,,,-0.529931937424935,-2.86409898422977,-0.904834483942372,,-4.297115258785818,,
,5070.0,1239.0,8426.0,1689.0,2057.0,2212.0,2482.0,,,,-0.530220206202369,-2.86414913041285,-0.905421340170771,,-4.219274523569952,,
,5070.0,1238.0,8425.0,1693.0,2074.0,2202.0,2490.0,,,,-0.530474212582635,-2.86413906672798,-0.906334749259414,,-4.085344519592662,,
,5075.0,1239.0,8425.0,1692.0,2068.0,2205.0,2489.0,,,,-0.530003315324779,-2.86436135982369,-0.906004868652195,,-3.8835737002495945,,
,5079.0,1242.0,8423.0,1693.0,2065.0,2203.0,2482.0,,,,-0.53078884810465,-2.86439724088287,-0.905615891236351,,-3.6034342273278166,,
,5081.0,1243.0,8427.0,1691.0,2049.0,2198.0,2481.0,,,,-0.53071602194111,-2.86427792917899,-0.906354023076067,,-3.2364969482613652,,
,5082.0,1242.0,8427.0,1696.0,2041.0,2195.0,2483.0,,,,-0.530743465859319,-2.86431671893042,-0.907310899148873,,-2.7772137361563023,,
,5082.0,1240.0,8425.0,1692.0,2057.0,2194.0,2491.0,,,,-0.530883715632813,-2.86431980676145,-0.906068580219448,,-2.223539140256659,,
,5087.0,1245.0,8425.0,1694.0,2067.0,2196.0,2469.0,,,,-0.530758560235428,-2.86422793818918,-0.906430698143856,,-1.5773410610627363,,
,5093.0,1244.0,8427.0,1699.0,2067.0,2194.0,2476.0,,,,-0.531288946359192,-2.86418534694121,-0.906390814506578,,-0.8445753913528082,,
,5095.0,1248.0,8427.0,1696.0,2065.0,2200.0,2479.0,,,,-0.531564744577171,-2.86466061621465,-0.90684776171254,,-0.035226212782649764,,
,5101.0,1246.0,8426.0,1699.0,2070.0,2206.0,2473.0,,,,-0.531518456289534,-2.86451532508508,-0.907256018695901,,0.8369652655855307,,
,5101.0,1247.0,8425.0,1698.0,2068.0,2216.0,2493.0,,,,-0.531808920694445,-2.8646579450766,-0.908081310058112,,1.7549469019147872,,
,5106.0,1250.0,8426.0,1701.0,2074.0,2215.0,2503.0,,,,-0.531722631265569,-2.86470439237451,-0.906873929959138,,2.698936628682319,,
,5111.0,1251.0,8426.0,1699.0,2074.0,2193.0,2489.0,,,,-0.531892107231329,-2.86459248495788,-0.907745349412638,,3.647100605287638,,
,5113.0,1250.0,8427.0,1699.0,2073.0,2193.0,2474.0,,,,-0.53195326691359,-2.86469597599747,-0.907175752966559,,4.576297947348443,,
,5117.0,1251.0,8426.0,1701.0,2069.0,2218.0,2472.0,,,,-0.532062748607418,-2.86471341191147,-0.907367627396664,,5.462870432104577,,
,5117.0,1253.0,8426.0,1701.0,2058.0,2200.0,2474.0,,,,-0.532003584622085,-2.86462219628489,-0.907069906017924,,6.2834635368427865,,
,5124.0,1257.0,8428.0,1704.0,2047.0,2201.0,2497.0,,,,-0.531641075575045,-2.86465931754943,-0.906992720269487,,7.015869199653487,,
,5127.0,1256.0,8429.0,1708.0,2064.0,2200.0,2500.0,,,,-0.531688977381385,-2.86460264903102,-0.906604090131991,,7.639878634745595,,
,5129.0,1258.0,8428.0,1705.0,2062.0,2226.0,2496.0,,,,-0.531967611361531,-2.86475773345883,-0.907100099733557,,8.138124841988208,,
,5133.0,1254.0,8429.0,1706.0,2061.0,2241.0,2474.0,,,,-0.531777665526053,-2.86468999404341,-0.907061269758346,,8.496880759246396,,
,5136.0,1257.0,8428.0,1709.0,2066.0,2215.0,2468.0,,,,-0.531467527545136,-2.86456313923388,-0.906667139009674,,8.706764013017516,,
,5140.0,1260.0,8429.0,1708.0,2062.0,2217.0,2478.0,,,,-0.531683940967843,-2.86470388742152,-0.906517073648851,,8.763287643476618,,
,5143.0,1260.0,8429.0,1707.0,2038.0,2215.0,2485.0,,,,-0.531826663167081,-2.86476834516071,-0.906925777381086,,8.667192252231462,,
,5145.0,1260.0,8430.0,1707.0,2056.0,2211.0,2485.0,,,,-0.53179508099027,-2.86470482182441,-0.907146695687325,,8.424501517277942,,
,5149.0,1262.0,8428.0,1711.0,2073.0,2208.0,2483.0,,,,-0.531546151492418,-2.86465372288475,-0.907418547206955,,8.046261180320537,,
,5153.0,1265.0,8429.0,1713.0,2048.0,2209.0,2465.0,,,,-0.531736764555005,-2.86468106171539,-0.908040507265323,,7.547951198649254,,
,5156.0,1265.0,8429.0,1715.0,2058.0,2208.0,2471.0,,,,-0.531410928045885,-2.86486213478234,-0.907921810245567,,6.948599131837801,,
,5161.0,1264.0,8428.0,1713.0,2082.0,2212.0,2493.0,,,,-0.531269579899995,-2.86471626464846,-0.907489991561939,,6.269663645777369,,
,5163.0,1265.0,8431.0,1713.0,2072.0,2212.0,2491.0,,,,-0.531191051571876,-2.86483265675144,-0.906641437744613,,5.5337907784659395,,
,5169.0,1270.0,8430.0,1717.0,2069.0,2196.0,2481.0,,,,-0.531109327585014,-2.86456696021861,-0.906334619004795,,4.763563266003205,,
,5173.0,1268.0,8433.0,1718.0,2071.0,2202.0,2487.0,,,,-0.530915296081581,-2.86458590063241,-0.906187929460289,,3.9803603322988,,
,5176.0,1271.0,8432.0,1716.0,2071.0,2207.0,2481.0,,,,-0.530425934372979,-2.86440154772606,-0.905931274229898,,3.203423678887245,,
,5181.0,1270.0,8429.0,1716.0,2069.0,2206.0,2472.0,,,,-0.530732225689637,-2.86457197514208,-0.906378693602053,,2.4491912979615065,,
,5184.0,1272.0,8433.0,1720.0,2056.0,2199.0,2482.0,,,,-0.530772830164668,-2.86427230298368,-0.905231873034574,,1.7309219347579443,,
,5188.0,1273.0,8434.0,1721.0,2039.0,2193.0,2479.0,,,,-0.530373078519203,-2.86432937346777,-0.906531234486932,,1.0585963143484516,,
,5190.0,1277.0,8433.0,1722.0,2038.0,2199.0,2486.0,,,,-0.53026696620801,-2.86444352901439,-0.905669084281864,,0.4390515198517321,,
,5195.0,1276.0,8433.0,1720.0,2043.0,2207.0,2490.0,,,,-0.530548601748323,-2.86444171723953,-0.905024341840674,,-0.12371464030100605,,
,5199.0,1279.0,8434.0,1723.0,2055.0,2203.0,2489.0,,,,-0.530870072493305,-2.86445909185651,-0.906082209719709,,-0.6281400578396631,,
,5201.0,1280.0,8434.0,1725.0,2084.0,2204.0,2482.0,,,,-0.531203728239639,-2.86444054410711,-0.907268081796217,,-1.0746619012752308,,
,5206.0,1281.0,8432.0,1727.0,2084.0,2220.0,2483.0,,,,-0.531406169268159,-2.86453606610389,-0.906487673953877,,-1.4652992319315084,,
,5205.0,1281.0,8434.0,1728.0,2088.0,2201.0,2484.0,,,,-0.531440354763089,-2.86450819247237,-0.906267280258292,,-1.8032862420623732,,
,5211.0,1281.0,8433.0,1726.0,2084.0,2216.0,2491.0,,,,-0.531747982661095,-2.86466075794426,-0.906126926039044,,-2.0927670908011593,,
,5211.0,1280.0,8434.0,1728.0,2064.0,2213.0,2505.0,,,,-0.531951417171503,-2.86464215332504,-0.907152892529572,,-2.33854731320766,,
,5207.0,1280.0,8435.0,1728.0,2063.0,2208.0,2488.0,,,,-0.531773005258903,-2.86459845474675,-0.906815571068391,,-2.5458877193453193,,
,5203.0,1278.0,8434.0,1724.0,2070.0,2199.0,2497.0,,,,-0.53168914746304,-2.86482786710564,-0.908173279915609,,-2.720323994606713,,
,5196.0,1272.0,8430.0,1723.0,2084.0,2198.0,2489.0,,,,-0.53192588686739,-2.86457514358831,-0.907080618791778,,-2.8674968062248314,,
,5185.0,1269.0,8428.0,1718.0,2073.0,2212.0,2494.0,,,,-0.531772410386535,-2.86489113682732,-0.907300886681744,,-2.992981283614913,,
,5176.0,1265.0,8429.0,1719.0,2078.0,2210.0,2484.0,,,,-0.531480821597409,-2.86469043214453,-0.908009823690736,,-3.1021102095130093,,
,5163.0,1257.0,8429.0,1717.0,2067.0,2209.0,2487.0,,,,-0.531731111880149,-2.86481796737776,-0.906927994914028,,-3.199791437512834,,
,5151.0,1252.0,8427.0,1712.0,2073.0,2194.0,2486.0,,,,-0.531975125909402,-2.86467516175119,-0.908291791323475,,-3.290326149384537,,
,5140.0,1247.0,8426.0,1710.0,2072.0,2204.0,2501.0,,,,-0.532068621677782,-2.864805861738,-0.908426355910767,,-3.3772396789643975,,
,5129.0,1245.0,8425.0,1708.0,2072.0,2222.0,2505.0,,,,-0.532337566814332,-2.86517068954622,-0.907850420829884,,-3.4631400355679296,,
,5118.0,1240.0,8423.0,1707.0,2072.0,2206.0,2499.0,,,,-0.532329118796912,-2.8653538515435,-0.908827642618989,,-3.549620632769916,,
