TimeLabel,MEAS1_PPG1,MEAS1_PPG2,MEAS1_PPG3,MEAS1_PPG4,ACCX,ACCY,ACCZ,HR_timestamp,HR_value,radar_timestamp,phase_rx0,phase_rx1,phase_rx2,timestep,n_process,original_rate,calculated_rate
2025-08-20 17:37:20,6736.0,983.0,4082.0,1164.0,-262.0,1112.0,3799.0,2025-08-20 17:37:20,68.0,2025/08/20 05:37:20 PM,-1.19027959684322,-2.97453160913455,-1.18092975348064,2025/08/20 05:37:20 PM,-2.066915966715649,20.28397560119629,19.78865096935529
,6733.0,984.0,4081.0,1165.0,-246.0,1103.0,3790.0,2025-08-20 17:37:21,68.0,,-1.18988698571974,-2.97453930419689,-1.18096474659129,2025/08/20 05:37:30 PM,-2.1157582552586094,20.891365051269528,19.86269234270056
,6734.0,983.0,4081.0,1166.0,-232.0,1100.0,3796.0,2025-08-20 17:37:22,68.0,,-1.1898560152184,-2.97450518873942,-1.17990616565888,2025/08/20 05:37:40 PM,-2.15593241822755,20.392749786376957,20.225988700564976
,6731.0,983.0,4082.0,1167.0,-229.0,1093.0,3792.0,2025-08-20 17:37:23,69.0,,-1.19012019146196,-2.97452281456316,-1.18077179575534,2025/08/20 05:37:50 PM,-2.185029117992391,20.2020206451416,22.136474636474635
,6729.0,979.0,4076.0,1163.0,-233.0,1098.0,3834.0,2025-08-20 17:37:24,68.0,,-1.18979814310233,-2.9744047266364,-1.17975871876935,2025/08/20 05:38:00 PM,-2.200994686842754,21.052631378173828,19.905541676544072
,6730.0,981.0,4077.0,1164.0,-235.0,1107.0,3787.0,2025-08-20 17:37:25,68.0,,-1.18984006115579,-2.97452184416066,-1.18145575506269,2025/08/20 05:38:10 PM,-2.2021450529542848,20.920503616333008,21.303356142065827
,6726.0,982.0,4078.0,1165.0,-240.0,1111.0,3807.0,2025-08-20 17:37:26,68.0,,-1.1908972633725,-2.97453082647425,-1.18103784443887,2025/08/20 05:38:20 PM,-2.187091538814686,21.276596069335938,19.703928773318243
,6728.0,983.0,4078.0,1165.0,-251.0,1109.0,3801.0,2025-08-20 17:37:27,67.0,,-1.19137794622624,-2.9746561326261,-1.1809939553447,2025/08/20 05:38:30 PM,-2.1546057912138448,20.394290924072266,20.350480497456203
,6726.0,981.0,4078.0,1165.0,-273.0,1117.0,3801.0,2025-08-20 17:37:28,67.0,,-1.19114740137957,-2.97454353250118,-1.18067453578088,2025/08/20 05:38:40 PM,-2.1034578180578443,20.746889114379883,20.19231415214488
,6724.0,986.0,4076.0,1164.0,-265.0,1132.0,3778.0,2025-08-20 17:37:29,67.0,,-1.19121591180983,-2.9746762787085,-1.18107275323461,2025/08/20 05:38:50 PM,-2.032262717337525,19.970415115356445,19.600173837461966
,6725.0,982.0,4077.0,1164.0,-243.0,1139.0,3764.0,2025-08-20 17:37:30,67.0,,-1.19074948454326,-2.97453155841379,-1.18161742189324,2025/08/20 05:39:00 PM,-1.939368516448551,20.161291122436523,21.445672697941294
,6723.0,985.0,4075.0,1162.0,-239.0,1131.0,3781.0,2025-08-20 17:37:31,67.0,,-1.19091117074674,-2.97452491192784,-1.18028282033815,2025/08/20 05:39:10 PM,-1.822810718686541,20.470052719116207,21.186822856514326
,6723.0,979.0,4074.0,1164.0,-245.0,1125.0,3812.0,2025-08-20 17:37:32,67.0,,-1.19045062262231,-2.9744818555122,-1.18104668453771,2025/08/20 05:39:20 PM,-1.680350240085259,20.862308502197266,21.1958525345622
,6724.0,979.0,4076.0,1163.0,-251.0,1128.0,3794.0,2025-08-20 17:37:33,68.0,,-1.19003688875056,-2.97441158549873,-1.18147887435371,2025/08/20 05:39:30 PM,-1.5096018161665492,21.12676048278809,21.442495126705712
,6724.0,982.0,4077.0,1166.0,-230.0,1092.0,3800.0,2025-08-20 17:37:34,68.0,,-1.18945491989051,-2.97436780769475,-1.18029212640013,2025/08/20 05:39:40 PM,-1.3082504780019675,21.32196044921875,21.473092469861406
,6723.0,980.0,4078.0,1165.0,-235.0,1072.0,3794.0,2025-08-20 17:37:35,68.0,,-1.1900241001081,-2.97431615113189,-1.18051063919446,2025/08/20 05:39:50 PM,-1.0743444690878983,21.723388671875,21.652661064425775
,6722.0,980.0,4077.0,1164.0,-240.0,1105.0,3771.0,2025-08-20 17:37:36,68.0,,-1.18920718889037,-2.97436474932498,-1.18046029523182,2025/08/20 05:40:00 PM,-0.8066437210328595,21.489971160888672,20.909160030281086
,6723.0,982.0,4078.0,1166.0,-236.0,1119.0,3774.0,2025-08-20 17:37:37,68.0,,-1.18996438163103,-2.97438867292434,-1.18094446714944,2025/08/20 05:40:10 PM,-0.5049937756139189,21.629417419433597,22.507122507122507
,6724.0,980.0,4077.0,1165.0,-242.0,1125.0,3784.0,2025-08-20 17:37:38,68.0,,-1.18949943812322,-2.97446766609412,-1.18018167335836,,-0.17068707236812433,,
,6724.0,981.0,4080.0,1165.0,-248.0,1135.0,3784.0,2025-08-20 17:37:39,68.0,,-1.18886240096009,-2.97445995349958,-1.1800920971431,,0.19323084928297052,,
,6724.0,980.0,4078.0,1165.0,-239.0,1149.0,3772.0,2025-08-20 17:37:40,68.0,,-1.18907225532875,-2.97436134936907,-1.18049981076373,,0.5817515428204165,,
,6725.0,981.0,4076.0,1164.0,-238.0,1144.0,3767.0,2025-08-20 17:37:41,69.0,,-1.18892308966268,-2.9743734431105,-1.17990829554293,,0.9878248735343812,,
,6727.0,980.0,4079.0,1168.0,-237.0,1126.0,3767.0,2025-08-20 17:37:42,69.0,,-1.18879325994805,-2.97436822639188,-1.18072771372818,,1.4024353302337655,,
,6726.0,981.0,4082.0,1165.0,-227.0,1111.0,3759.0,2025-08-20 17:37:43,69.0,,-1.18870146334723,-2.97431610790291,-1.18045965898387,,1.8148449544466962,,
,6724.0,981.0,4080.0,1165.0,-245.0,1115.0,3803.0,2025-08-20 17:37:44,68.0,,-1.18834575835984,-2.97437032860427,-1.18024039271686,,2.21300101332812,,
,6725.0,981.0,4080.0,1165.0,-254.0,1114.0,3817.0,2025-08-20 17:37:45,68.0,,-1.18782923018721,-2.97433287936314,-1.17915878140915,,2.584092658193472,,
,6724.0,980.0,4080.0,1167.0,-259.0,1107.0,3781.0,2025-08-20 17:37:46,68.0,,-1.18756495731231,-2.97428570927344,-1.17950984356857,,2.9152267587385565,,
,6723.0,978.0,4081.0,1166.0,-251.0,1120.0,3792.0,2025-08-20 17:37:47,68.0,,-1.18682847189259,-2.97415492116798,-1.17942005578756,,3.1941796640578763,,
,6725.0,980.0,4078.0,1166.0,-248.0,1140.0,3816.0,2025-08-20 17:37:48,68.0,,-1.18580479544666,-2.97403851499198,-1.17865401726214,,3.4101700063814544,,
,6723.0,980.0,4083.0,1165.0,-246.0,1110.0,3826.0,2025-08-20 17:37:49,68.0,,-1.18522967899992,-2.97410740004596,-1.17871556650306,,3.5545891837587824,,
,6722.0,982.0,4079.0,1166.0,-240.0,1113.0,3796.0,2025-08-20 17:37:50,68.0,,-1.18413995130336,-2.97393919799671,-1.17811266831493,,3.6216223165844323,,
,6722.0,982.0,4080.0,1166.0,-236.0,1108.0,3777.0,2025-08-20 17:37:51,68.0,,-1.18385531128607,-2.97395510194197,-1.17899245099251,,3.608694983330492,,
,6721.0,981.0,4079.0,1166.0,-242.0,1128.0,3756.0,2025-08-20 17:37:52,69.0,,-1.18353165293362,-2.97384392276425,-1.17835774526728,,3.516691696092674,,
,6720.0,978.0,4078.0,1164.0,-237.0,1120.0,3785.0,2025-08-20 17:37:53,69.0,,-1.18244786070535,-2.97383750364256,-1.17740951616262,,3.3499120265832105,,
,6721.0,980.0,4079.0,1169.0,-239.0,1133.0,3795.0,2025-08-20 17:37:54,69.0,,-1.18236134744463,-2.97375434943697,-1.17760287570619,,3.115758774587106,,
,6728.0,979.0,4083.0,1167.0,-226.0,1134.0,3795.0,2025-08-20 17:37:55,70.0,,-1.18125936717707,-2.97371312508629,-1.17724865470146,,2.824185753377067,,
,6725.0,983.0,4080.0,1167.0,-225.0,1129.0,3820.0,2025-08-20 17:37:56,70.0,,-1.18119845475476,-2.97377622657407,-1.17694813052718,,2.4869639435995357,,
,6727.0,982.0,4083.0,1167.0,-230.0,1096.0,3806.0,2025-08-20 17:37:57,70.0,,-1.18149996499339,-2.97360689995239,-1.17618805832794,,2.116846718510249,,
,6728.0,981.0,4085.0,1168.0,-236.0,1089.0,3806.0,2025-08-20 17:37:58,70.0,,-1.18034561399184,-2.97372150721481,-1.17574537282151,,1.72672319584411,,
,6728.0,982.0,4083.0,1167.0,-237.0,1105.0,3819.0,2025-08-20 17:37:59,70.0,,-1.18025422179065,-2.97356044874882,-1.17612526814963,,1.3288435268210592,,
,6730.0,981.0,4082.0,1168.0,-236.0,1128.0,3806.0,2025-08-20 17:38:00,71.0,,-1.18016931263067,-2.97367028968748,-1.17680860990044,,0.9341841298636683,,
,6729.0,979.0,4085.0,1168.0,-237.0,1119.0,3810.0,2025-08-20 17:38:01,71.0,,-1.18040354354143,-2.97366022471311,-1.17588459691427,,0.5519984530007767,,
,6732.0,980.0,4088.0,1170.0,-250.0,1108.0,3802.0,2025-08-20 17:38:02,72.0,,-1.18033564294347,-2.97374571293247,-1.17635866627732,,0.18957354941018859,,
,6731.0,982.0,4090.0,1171.0,-245.0,1105.0,3795.0,2025-08-20 17:38:03,72.0,,-1.1819452195482,-2.97385758480279,-1.17641344345353,,-0.14781213971530727,,
,6733.0,982.0,4088.0,1171.0,-231.0,1118.0,3799.0,2025-08-20 17:38:04,72.0,,-1.18234087419594,-2.97385079869816,-1.17710587499217,,-0.45675616242985,,
,6734.0,981.0,4089.0,1168.0,-237.0,1130.0,3785.0,2025-08-20 17:38:05,72.0,,-1.18322795706589,-2.97390414126208,-1.17758658516239,,-0.7354675646315701,,
,6738.0,983.0,4091.0,1170.0,-240.0,1130.0,3761.0,2025-08-20 17:38:06,72.0,,-1.18410998827,-2.97413473819181,-1.17780478798773,,-0.983423721147651,,
,6738.0,985.0,4091.0,1172.0,-246.0,1123.0,3760.0,2025-08-20 17:38:07,71.0,,-1.18512711864396,-2.97427052099379,-1.17834824293689,,-1.2010050363033795,,
,6738.0,986.0,4094.0,1171.0,-225.0,1119.0,3795.0,2025-08-20 17:38:08,71.0,,-1.1860806785204,-2.97429667762405,-1.17873759836755,,-1.3891605665238154,,
,6741.0,983.0,4093.0,1170.0,-236.0,1120.0,3813.0,2025-08-20 17:38:09,71.0,,-1.18782032450709,-2.97443290366109,-1.17991165541681,,-1.5491476155430524,,
,6742.0,985.0,4098.0,1173.0,-239.0,1106.0,3821.0,2025-08-20 17:38:10,71.0,,-1.18861402770318,-2.97450758485293,-1.18022923354341,,-1.682372659309773,,
,6745.0,985.0,4097.0,1175.0,-258.0,1093.0,3814.0,2025-08-20 17:38:11,71.0,,-1.18981999359082,-2.97459694218508,-1.1809106234778,,-1.7903412065483497,,
,6746.0,984.0,4099.0,1176.0,-255.0,1091.0,3824.0,2025-08-20 17:38:12,71.0,,-1.19010971573748,-2.97450556824409,-1.18057714189051,,-1.8747031364323918,,
,6747.0,984.0,4097.0,1173.0,-252.0,1120.0,3826.0,2025-08-20 17:38:13,71.0,,-1.18979194219372,-2.97456758744223,-1.18097516128081,,-1.9373614914353432,,
,6747.0,986.0,4102.0,1173.0,-226.0,1111.0,3787.0,2025-08-20 17:38:14,71.0,,-1.18921584550474,-2.97453424289768,-1.18079241273823,,-1.9806006883860892,,
,6749.0,986.0,4103.0,1176.0,-222.0,1114.0,3794.0,2025-08-20 17:38:15,71.0,,-1.1892429480245,-2.97440213572473,-1.1803190869356,,-2.0071872652049128,,
,6752.0,986.0,4104.0,1176.0,-249.0,1101.0,3796.0,2025-08-20 17:38:16,70.0,,-1.18797169741014,-2.9744227314988,-1.17814256900533,,-2.02040253901224,,
,6750.0,985.0,4106.0,1174.0,-250.0,1094.0,3795.0,2025-08-20 17:38:17,70.0,,-1.18743026578452,-2.97428816307756,-1.17908783561959,,-2.023979526522738,,
,6756.0,986.0,4106.0,1176.0,-259.0,1102.0,3807.0,2025-08-20 17:38:18,70.0,,-1.18664571210715,-2.97429341215406,-1.17937516278291,,-2.0219329827881083,,
,6756.0,987.0,4108.0,1177.0,-248.0,1098.0,3795.0,2025-08-20 17:38:19,71.0,,-1.18651698736915,-2.97426631505253,-1.17865994436654,,-2.0182887240654273,,
,6757.0,985.0,4110.0,1179.0,-253.0,1102.0,3811.0,2025-08-20 17:38:20,71.0,,-1.18572060098438,-2.9742424881531,-1.17918707803883,,-2.0167345480702625,,
,6760.0,987.0,4111.0,1178.0,-244.0,1108.0,3829.0,2025-08-20 17:38:21,71.0,,-1.18641150049477,-2.97414132928835,-1.17884287664523,,-2.0202284874997103,,
,6762.0,988.0,4113.0,1179.0,-240.0,1120.0,3808.0,2025-08-20 17:38:22,70.0,,-1.1869421150808,-2.97431037705713,-1.17894556753951,,-2.030609430611185,,
,6763.0,988.0,4112.0,1179.0,-248.0,1126.0,3806.0,2025-08-20 17:38:23,70.0,,-1.1867354408041,-2.97428667596837,-1.17869200287149,,-2.048259304747862,,
,6767.0,990.0,4116.0,1180.0,-230.0,1116.0,3806.0,2025-08-20 17:38:24,70.0,,-1.18722411653969,-2.97431216702867,-1.17863204701322,,-2.0718646832488337,,
,6768.0,988.0,4114.0,1181.0,-222.0,1118.0,3796.0,2025-08-20 17:38:25,70.0,,-1.18760339518586,-2.97438033342384,-1.17915801626785,,-2.0983189868829797,,
,6770.0,988.0,4118.0,1181.0,-243.0,1114.0,3807.0,2025-08-20 17:38:26,70.0,,-1.1876737243077,-2.97420381794794,-1.17820201932895,,-2.12279474048902,,
,6772.0,991.0,4121.0,1184.0,-248.0,1128.0,3814.0,2025-08-20 17:38:27,70.0,,-1.18788010073625,-2.97426201799477,-1.17858939973419,,-2.1389990719953604,,
,6772.0,990.0,4120.0,1182.0,-250.0,1131.0,3831.0,2025-08-20 17:38:28,70.0,,-1.18697042038486,-2.97416266216018,-1.17895885102301,,-2.1396056091648377,,
,6775.0,989.0,4119.0,1179.0,-244.0,1130.0,3795.0,2025-08-20 17:38:29,69.0,,-1.18690875100982,-2.97410555388292,-1.17849971682692,,-2.116833601580742,,
,6777.0,990.0,4123.0,1181.0,-263.0,1121.0,3773.0,2025-08-20 17:38:30,69.0,,-1.18693612380065,-2.97423638469651,-1.17852050325748,,-2.0631229383258805,,
,6780.0,992.0,4125.0,1185.0,-238.0,1115.0,3792.0,2025-08-20 17:38:31,70.0,,-1.18660491048858,-2.97416589263166,-1.17785567801766,,-1.9718354891545098,,
,6782.0,990.0,4128.0,1186.0,-241.0,1119.0,3807.0,2025-08-20 17:38:32,70.0,,-1.185767408222,-2.97426977802208,-1.17898472951879,,-1.8379034593367858,,
,6782.0,993.0,4129.0,1183.0,-250.0,1119.0,3812.0,2025-08-20 17:38:33,71.0,,-1.18615519796116,-2.97407594869925,-1.17896531466873,,-1.6583479861942707,,
,6784.0,991.0,4131.0,1185.0,-249.0,1106.0,3820.0,2025-08-20 17:38:34,71.0,,-1.18577025785907,-2.97413850723642,-1.17826747538415,,-1.432606881856301,,
,6788.0,992.0,4132.0,1187.0,-263.0,1119.0,3787.0,2025-08-20 17:38:35,71.0,,-1.1865441674325,-2.97423466582716,-1.17917392745299,,-1.1626363793579642,,
,6788.0,992.0,4131.0,1187.0,-258.0,1126.0,3801.0,2025-08-20 17:38:36,71.0,,-1.18636405750843,-2.97427549483136,-1.17764612015826,,-0.8527824982880036,,
,6792.0,992.0,4134.0,1186.0,-266.0,1141.0,3794.0,2025-08-20 17:38:37,71.0,,-1.18628438955694,-2.97406712192874,-1.17792660875198,,-0.5094472399381443,,
,6795.0,994.0,4137.0,1190.0,-241.0,1126.0,3798.0,2025-08-20 17:38:38,71.0,,-1.18591628324886,-2.97421884528131,-1.1786609968625,,-0.14059844807895697,,
,6796.0,995.0,4138.0,1188.0,-234.0,1109.0,3793.0,2025-08-20 17:38:39,71.0,,-1.18582602463738,-2.97413150115678,-1.17849673966953,,0.2448131163209298,,
,6798.0,995.0,4139.0,1189.0,-209.0,1113.0,3804.0,2025-08-20 17:38:40,71.0,,-1.18521179685946,-2.97414802067169,-1.17748001852529,,0.6374611111510814,,
,6798.0,993.0,4138.0,1189.0,-240.0,1082.0,3784.0,2025-08-20 17:38:41,71.0,,-1.18457702387683,-2.97406263556113,-1.17799520696842,,1.0282111491251822,,
,6803.0,994.0,4141.0,1191.0,-263.0,1112.0,3793.0,2025-08-20 17:38:42,71.0,,-1.18559714769076,-2.97414013758045,-1.17790654175273,,1.4085952598754257,,
,6805.0,997.0,4143.0,1193.0,-250.0,1120.0,3776.0,2025-08-20 17:38:43,70.0,,-1.18579931383701,-2.97424134097138,-1.17784454709036,,1.7711551188850723,,
,6804.0,999.0,4148.0,1192.0,-243.0,1118.0,3784.0,2025-08-20 17:38:44,70.0,,-1.18615900849893,-2.97415933553429,-1.17843036269755,,2.1096329982756066,,
,6810.0,996.0,4148.0,1193.0,-247.0,1118.0,3785.0,2025-08-20 17:38:45,70.0,,-1.18612164525488,-2.97416386551038,-1.1789961015343,,2.419007026559137,,
,6811.0,996.0,4144.0,1193.0,-251.0,1133.0,3788.0,2025-08-20 17:38:46,69.0,,-1.18566016990508,-2.97435627842227,-1.17807996330232,,2.6953846263084587,,
,6813.0,999.0,4153.0,1194.0,-258.0,1118.0,3811.0,2025-08-20 17:38:47,69.0,,-1.18520032215179,-2.97419492988518,-1.17867827151194,,2.9357843616509336,,
,6816.0,999.0,4152.0,1197.0,-257.0,1123.0,3797.0,2025-08-20 17:38:48,68.0,,-1.18470002013933,-2.97415881109514,-1.17772857880649,,3.137850941676315,,
,6818.0,998.0,4154.0,1196.0,-251.0,1124.0,3787.0,2025-08-20 17:38:49,67.0,,-1.18504311873821,-2.97394133321449,-1.17762187022594,,3.299558713441092,,
,6819.0,998.0,4155.0,1194.0,-230.0,1116.0,3790.0,2025-08-20 17:38:50,67.0,,-1.18452229038807,-2.97402518501416,-1.17779776950214,,3.4189624219928314,,
,6823.0,999.0,4156.0,1199.0,-238.0,1107.0,3812.0,2025-08-20 17:38:51,67.0,,-1.18502906409455,-2.97405487779213,-1.17797777989238,,3.494047468723925,,
,6826.0,1001.0,4161.0,1196.0,-249.0,1115.0,3820.0,2025-08-20 17:38:52,67.0,,-1.18526335003345,-2.97403962185336,-1.17852944487954,,3.522715030676284,,
,6827.0,1001.0,4160.0,1198.0,-241.0,1098.0,3811.0,2025-08-20 17:38:53,66.0,,-1.18452698605454,-2.97400050432693,-1.1777259488936,,3.502913260484896,,
,6829.0,1001.0,4163.0,1199.0,-247.0,1113.0,3810.0,2025-08-20 17:38:54,66.0,,-1.18395037912866,-2.97380072571515,-1.17704681606553,,3.4328996085782957,,
,6830.0,1002.0,4165.0,1201.0,-252.0,1128.0,3781.0,2025-08-20 17:38:55,66.0,,-1.1838643176532,-2.97383023093503,-1.17744415031756,,3.3115963557928034,,
,6832.0,1002.0,4164.0,1202.0,-259.0,1114.0,3771.0,2025-08-20 17:38:56,66.0,,-1.18317715713879,-2.97399678405526,-1.17742522055386,,3.1389854071102623,,
,6831.0,1001.0,4167.0,1202.0,-250.0,1116.0,3797.0,2025-08-20 17:38:57,66.0,,-1.18302843318346,-2.97389273653744,-1.17706322184894,,2.916481025662036,,
,6833.0,1001.0,4167.0,1202.0,-232.0,1117.0,3800.0,2025-08-20 17:38:58,66.0,,-1.18224413688295,-2.97396380524796,-1.17646822818516,,2.6472206862145704,,
,6834.0,999.0,4168.0,1202.0,-239.0,1125.0,3797.0,2025-08-20 17:38:59,66.0,,-1.18255843040623,-2.97390732807809,-1.17733123811265,,2.336223688823142,,
,6830.0,1001.0,4167.0,1201.0,-243.0,1119.0,3792.0,2025-08-20 17:39:00,66.0,,-1.18205816302376,-2.97391236227071,-1.17581683553262,,1.9903827927667708,,
,6829.0,1001.0,4167.0,1200.0,-238.0,1106.0,3791.0,2025-08-20 17:39:01,66.0,,-1.18224209756894,-2.97379060579889,-1.17663015748812,,1.6182734895765656,,
,6823.0,1003.0,4168.0,1200.0,-246.0,1121.0,3791.0,2025-08-20 17:39:02,66.0,,-1.18124841443491,-2.97375957437423,-1.17644705093353,,1.2297860930737972,,
,6817.0,1002.0,4166.0,1200.0,-255.0,1103.0,3807.0,2025-08-20 17:39:03,66.0,,-1.18139636518878,-2.97368605188075,-1.17648761430564,,0.8356054429784966,,
,6812.0,1001.0,4164.0,1196.0,-253.0,1107.0,3810.0,2025-08-20 17:39:04,66.0,,-1.18095864651639,-2.97365454191686,-1.17533458732426,,0.4465801926178621,,
,6805.0,998.0,4162.0,1196.0,-238.0,1106.0,3803.0,2025-08-20 17:39:05,66.0,,-1.18062073478443,-2.97364548793914,-1.17643726959146,,0.07303731666494752,,
,6797.0,997.0,4157.0,1194.0,-241.0,1118.0,3777.0,2025-08-20 17:39:06,66.0,,-1.18052949807178,-2.97365465206501,-1.17570058823692,,-0.27589353778399345,,
,6794.0,1000.0,4156.0,1193.0,-257.0,1124.0,3800.0,2025-08-20 17:39:07,66.0,,-1.17978407840489,-2.97357563715528,-1.17578493260048,,-0.5928786119429215,,
,6789.0,996.0,4154.0,1189.0,-249.0,1121.0,3802.0,2025-08-20 17:39:08,67.0,,-1.17977321780556,-2.97357929878224,-1.17591109168188,,-0.8728397109309046,,
,6785.0,995.0,4152.0,1191.0,-232.0,1124.0,3788.0,2025-08-20 17:39:09,67.0,,-1.17940835286726,-2.97359905019893,-1.17480205570485,,-1.1132270184474444,,
,6777.0,994.0,4146.0,1187.0,-251.0,1115.0,3791.0,2025-08-20 17:39:10,67.0,,-1.17844536938347,-2.97352037900552,-1.17471219003324,,-1.3140772656094097,,
,6773.0,995.0,4145.0,1189.0,-245.0,1129.0,3793.0,2025-08-20 17:39:11,67.0,,-1.17796924657514,-2.97350914629019,-1.17521850493251,,-1.4778524316712678,,
,6769.0,997.0,4147.0,1189.0,-235.0,1129.0,3797.0,2025-08-20 17:39:12,67.0,,-1.17796452825082,-2.97343436420882,-1.17394911155071,,-1.6090762720797862,,
,6768.0,995.0,4145.0,1187.0,-246.0,1141.0,3799.0,2025-08-20 17:39:13,67.0,,-1.17665754363893,-2.97335055432787,-1.17403278286106,,-1.7138046726701288,,
,6766.0,991.0,4141.0,1182.0,-240.0,1105.0,3776.0,2025-08-20 17:39:14,66.0,,-1.17641713347747,-2.97332086856765,-1.17330976451714,,-1.7989797542173003,,
,6766.0,991.0,4142.0,1186.0,-238.0,1111.0,3778.0,2025-08-20 17:39:15,66.0,,-1.17632771958805,-2.97327648360467,-1.17395194646793,,-1.8717262962926722,,
,6759.0,993.0,4143.0,1185.0,-240.0,1125.0,3787.0,2025-08-20 17:39:16,66.0,,-1.17570780744963,-2.97327561238601,-1.17390168596345,,-1.9386524302341557,,
,6759.0,992.0,4143.0,1185.0,-244.0,1117.0,3775.0,2025-08-20 17:39:17,66.0,,-1.17634017758048,-2.97318348081834,-1.17439633408024,,-2.0052150391646584,,
,6758.0,991.0,4138.0,1184.0,-261.0,1108.0,3773.0,2025-08-20 17:39:18,66.0,,-1.17569340410302,-2.97330399734444,-1.17366068069619,,-2.075204447472983,,
,6755.0,990.0,4138.0,1183.0,-251.0,1122.0,3774.0,2025-08-20 17:39:19,66.0,,-1.17639849823102,-2.97341616298495,-1.17288399445509,,-2.1503932566916757,,
,6752.0,992.0,4138.0,1183.0,-244.0,1106.0,3788.0,2025-08-20 17:39:20,67.0,,-1.17620457935389,-2.9733240843852,-1.17422068024579,,-2.230380878846021,,
,6752.0,991.0,4138.0,1184.0,-245.0,1103.0,3793.0,2025-08-20 17:39:21,67.0,,-1.17522503401559,-2.97335889987149,-1.17319707063186,,-2.312648699850473,,
,6750.0,987.0,4137.0,1182.0,-242.0,1064.0,3795.0,2025-08-20 17:39:22,68.0,,-1.17451853399706,-2.97321659116705,-1.17328469970228,,-2.3928214418342404,,
,6747.0,991.0,4138.0,1185.0,-232.0,1104.0,3799.0,2025-08-20 17:39:23,68.0,,-1.17396187181996,-2.97311950144806,-1.17331478555275,,-2.4651094145748327,,
,6747.0,990.0,4137.0,1186.0,-246.0,1096.0,3813.0,2025-08-20 17:39:24,68.0,,-1.17462756209577,-2.97304777446434,-1.17335320021679,,-2.522886207515154,,
,6747.0,991.0,4139.0,1184.0,-242.0,1107.0,3819.0,2025-08-20 17:39:25,68.0,,-1.17392513709264,-2.97314458120852,-1.17378545036939,,-2.559340307347516,,
,6743.0,988.0,4137.0,1183.0,-247.0,1115.0,3810.0,2025-08-20 17:39:26,68.0,,-1.17388638372083,-2.97310241293874,-1.17255981615415,,-2.5681306360900895,,
,6744.0,988.0,4136.0,1183.0,-260.0,1128.0,3796.0,2025-08-20 17:39:27,68.0,,-1.17375706979451,-2.97323993940515,-1.17271646261632,,-2.5439770187548176,,
2025-08-20 17:37:21,6742.0,990.0,4135.0,1182.0,-263.0,1120.0,3780.0,2025-08-20 17:39:28,68.0,2025/08/20 05:37:21 PM,-1.17274533892629,-2.97293046384375,-1.17310433747363,,-2.483126379586787,,
,6744.0,989.0,4138.0,1184.0,-250.0,1113.0,3783.0,2025-08-20 17:39:29,69.0,,-1.17187562693186,-2.97289127103687,-1.17254429384773,,-2.3836513742966208,,
,6741.0,986.0,4136.0,1181.0,-219.0,1113.0,3799.0,2025-08-20 17:39:30,69.0,,-1.17216630288333,-2.97280311914194,-1.17141736557572,,-2.24555732323509,,
,6741.0,987.0,4138.0,1182.0,-223.0,1125.0,3806.0,2025-08-20 17:39:31,69.0,,-1.172035726978,-2.97289418195791,-1.17195768359163,,-2.0706937404835433,,
,6744.0,989.0,4138.0,1184.0,-244.0,1126.0,3800.0,2025-08-20 17:39:32,68.0,,-1.17157305614927,-2.97292878887011,-1.17145859834388,,-1.8624872261397976,,
,6742.0,988.0,4138.0,1183.0,-247.0,1123.0,3803.0,2025-08-20 17:39:33,68.0,,-1.17165577017883,-2.97295125236938,-1.17188383499089,,-1.625531700731707,,
,6743.0,988.0,4139.0,1182.0,-252.0,1119.0,3802.0,2025-08-20 17:39:34,67.0,,-1.17181452651583,-2.97283379421208,-1.17205074190217,,-1.3650880812935724,,
,6743.0,991.0,4139.0,1185.0,-249.0,1107.0,3785.0,2025-08-20 17:39:35,67.0,,-1.17136782355139,-2.97286854112347,-1.17218106115393,,-1.086556476694485,,
,6743.0,989.0,4137.0,1182.0,-250.0,1109.0,3789.0,2025-08-20 17:39:36,67.0,,-1.17031527462155,-2.97281982222797,-1.17115861154887,,-0.7949880829247766,,
,6742.0,987.0,4140.0,1186.0,-251.0,1125.0,3802.0,2025-08-20 17:39:37,67.0,,-1.17105644207703,-2.97266201209938,-1.17175636815003,,-0.494700038983035,,
,6742.0,986.0,4138.0,1182.0,-244.0,1105.0,3792.0,2025-08-20 17:39:38,66.0,,-1.17018085993549,-2.97286835190652,-1.17017198112912,,-0.18904412106684712,,
,6741.0,986.0,4139.0,1183.0,-234.0,1119.0,3800.0,2025-08-20 17:39:39,66.0,,-1.17005366418873,-2.97277841215082,-1.1710846602538,,0.11964013281806665,,
,6742.0,990.0,4140.0,1183.0,-244.0,1133.0,3814.0,2025-08-20 17:39:40,66.0,,-1.16936998550696,-2.97266550397705,-1.17011796541574,,0.42988348075446886,,
,6741.0,990.0,4142.0,1184.0,-243.0,1134.0,3820.0,2025-08-20 17:39:41,66.0,,-1.1685926436954,-2.97261680361276,-1.1709559815039,,0.740780287712678,,
,6741.0,988.0,4139.0,1181.0,-250.0,1125.0,3802.0,2025-08-20 17:39:42,65.0,,-1.1699941331282,-2.97275560642679,-1.17054682230064,,1.0515668200766013,,
,6739.0,989.0,4140.0,1181.0,-250.0,1120.0,3783.0,2025-08-20 17:39:43,65.0,,-1.17177035562566,-2.97296138083539,-1.1712337660345,,1.3611519380092367,,
,6741.0,989.0,4141.0,1185.0,-245.0,1134.0,3801.0,2025-08-20 17:39:44,65.0,,-1.17038491364927,-2.97273552860609,-1.17117899341085,,1.6676739296458518,,
,6742.0,991.0,4139.0,1184.0,-236.0,1118.0,3809.0,2025-08-20 17:39:45,65.0,,-1.16984449933455,-2.97270079710564,-1.17095437839017,,1.9681519585281397,,
,6740.0,988.0,4140.0,1182.0,-223.0,1090.0,3794.0,2025-08-20 17:39:46,65.0,,-1.16925267938706,-2.97269255858298,-1.17046782293545,,2.258286194815004,,
,6741.0,989.0,4140.0,1183.0,-246.0,1125.0,3777.0,2025-08-20 17:39:47,65.0,,-1.16941009181517,-2.97270561412172,-1.17057327603778,,2.5324406953166827,,
,6741.0,988.0,4144.0,1186.0,-235.0,1122.0,3793.0,2025-08-20 17:39:48,65.0,,-1.16948200639543,-2.97269295887236,-1.17033434636108,,2.783820578525017,,
,6743.0,989.0,4143.0,1185.0,-239.0,1120.0,3795.0,2025-08-20 17:39:49,65.0,,-1.16863039372132,-2.97260361257258,-1.17051989223602,,3.0048322511086893,,
,6741.0,987.0,4142.0,1183.0,-228.0,1109.0,3808.0,2025-08-20 17:39:50,65.0,,-1.16877387969151,-2.9726907954679,-1.1706698779821,,3.1875941734295288,,
,6740.0,988.0,4142.0,1184.0,-247.0,1123.0,3819.0,2025-08-20 17:39:51,65.0,,-1.17018135646973,-2.97268895271592,-1.17094292666331,,3.32454766482546,,
,6743.0,988.0,4146.0,1184.0,-249.0,1124.0,3817.0,2025-08-20 17:39:52,66.0,,-1.16951206486081,-2.97260828490523,-1.17022541650918,,3.4091042449046065,,
,6744.0,990.0,4146.0,1184.0,-249.0,1117.0,3811.0,2025-08-20 17:39:53,66.0,,-1.16971187898087,-2.97260113717934,-1.17032240984248,,3.4362593480229386,,
,6743.0,988.0,4146.0,1184.0,-255.0,1100.0,3795.0,2025-08-20 17:39:54,67.0,,-1.17003482271108,-2.97269339031352,-1.17066443037433,,3.4031028409301753,,
,6744.0,989.0,4150.0,1184.0,-247.0,1121.0,3789.0,2025-08-20 17:39:55,67.0,,-1.16976835796686,-2.97268263073423,-1.17091587979175,,3.3091651419197237,,
,6746.0,993.0,4148.0,1187.0,-253.0,1129.0,3773.0,2025-08-20 17:39:56,68.0,,-1.17046990038681,-2.97269802717396,-1.17005430220763,,3.1565540262040233,,
,6749.0,990.0,4147.0,1189.0,-256.0,1130.0,3783.0,2025-08-20 17:39:57,68.0,,-1.17116013964764,-2.97283506831537,-1.17101399278963,,2.9498608082138573,,
,6750.0,990.0,4149.0,1185.0,-253.0,1107.0,3798.0,2025-08-20 17:39:58,68.0,,-1.17147229490769,-2.9728721613096,-1.17175213629921,,2.6958433593470605,,
,6751.0,992.0,4151.0,1186.0,-269.0,1133.0,3768.0,2025-08-20 17:39:59,68.0,,-1.17214882717416,-2.97309459181377,-1.17243887439425,,2.4029229084798236,,
,6753.0,989.0,4151.0,1188.0,-249.0,1124.0,3777.0,2025-08-20 17:40:00,68.0,,-1.17432627387376,-2.97317551168319,-1.17301641660385,,2.0805557026114694,,
,6755.0,991.0,4153.0,1189.0,-255.0,1114.0,3781.0,2025-08-20 17:40:01,68.0,,-1.17644602566512,-2.97344093134048,-1.17412821251304,,1.7385541135988782,,
,6754.0,990.0,4152.0,1186.0,-256.0,1133.0,3803.0,2025-08-20 17:40:02,68.0,,-1.17837792003956,-2.97359454682424,-1.17542556303976,,1.38643271509246,,
,6755.0,990.0,4155.0,1189.0,-242.0,1131.0,3799.0,2025-08-20 17:40:03,68.0,,-1.17951086996128,-2.97354353514014,-1.17581042721983,,1.0328449456226534,,
,6758.0,993.0,4156.0,1188.0,-248.0,1137.0,3790.0,2025-08-20 17:40:04,68.0,,-1.18011268421099,-2.97358937254812,-1.17557917099746,,0.6851589142671117,,
,6760.0,992.0,4158.0,1189.0,-235.0,1124.0,3802.0,2025-08-20 17:40:05,68.0,,-1.18080173131531,-2.97381250627593,-1.17606570919663,,0.34920040164703836,,
,6761.0,992.0,4158.0,1190.0,-245.0,1130.0,3806.0,2025-08-20 17:40:06,67.0,,-1.18176203054316,-2.97388339626249,-1.17638379960883,,0.029169988731026275,,
,6761.0,994.0,4158.0,1190.0,-249.0,1143.0,3784.0,2025-08-20 17:40:07,67.0,,-1.18198282937381,-2.97384710982594,-1.17671239074233,,-0.27227839323325,,
,6763.0,990.0,4162.0,1193.0,-235.0,1125.0,3794.0,2025-08-20 17:40:08,68.0,,-1.18259103815346,-2.97385503942246,-1.17662823413737,,-0.553826639055515,,
,6767.0,995.0,4164.0,1195.0,-236.0,1121.0,3795.0,2025-08-20 17:40:09,68.0,,-1.18264938275538,-2.9739340222981,-1.1774303065547,,-0.8151904417613679,,
,6765.0,993.0,4163.0,1194.0,-242.0,1109.0,3809.0,2025-08-20 17:40:10,68.0,,-1.18297184194555,-2.97402320405583,-1.17679759859369,,-1.056773730031027,,
,6768.0,991.0,4164.0,1193.0,-237.0,1102.0,3798.0,2025-08-20 17:40:11,69.0,,-1.18254536397932,-2.97383633005104,-1.17711959236772,,-1.279328105343389,,
,6772.0,994.0,4166.0,1195.0,-241.0,1081.0,3811.0,2025-08-20 17:40:12,69.0,,-1.18151847092474,-2.97376449181582,-1.17652230512872,,-1.483660801483352,,
,6772.0,996.0,4170.0,1194.0,-255.0,1082.0,3829.0,2025-08-20 17:40:13,69.0,,-1.18174349205565,-2.973835662244,-1.17604573196013,,-1.6704240929006866,,
,6774.0,992.0,4168.0,1197.0,-250.0,1124.0,3823.0,2025-08-20 17:40:14,70.0,,-1.18141498704315,-2.9737272669575,-1.17549879021453,,-1.8400038880868308,,
,6776.0,993.0,4168.0,1194.0,-256.0,1139.0,3804.0,2025-08-20 17:40:15,70.0,,-1.18156886645106,-2.97374695896452,-1.17559536033303,,-1.9925073281311185,,
,6776.0,994.0,4170.0,1197.0,-264.0,1145.0,3780.0,2025-08-20 17:40:16,70.0,,-1.1814348506725,-2.97379487272167,-1.1764582738414,,-2.1278314209761606,,
,6779.0,997.0,4174.0,1196.0,-266.0,1134.0,3775.0,2025-08-20 17:40:17,71.0,,-1.18162190615115,-2.97372209940093,-1.17641550622941,,-2.2457806916132204,,
,6781.0,995.0,4174.0,1196.0,-245.0,1145.0,3761.0,2025-08-20 17:40:18,71.0,,-1.18154950543455,-2.97380941838629,-1.17663969326045,,-2.346194898604661,,
,6780.0,997.0,4174.0,1194.0,-238.0,1127.0,3789.0,2025-08-20 17:40:19,71.0,,-1.18210828438936,-2.97390277782877,-1.1762207894729,,-2.429049682975344,,
,6785.0,997.0,4176.0,1197.0,-249.0,1115.0,3799.0,,,,-1.18225563400162,-2.97387466898504,-1.1769402147359,,-2.4945025533485703,,
,6786.0,996.0,4180.0,1202.0,-249.0,1115.0,3813.0,,,,-1.18293718288253,-2.97375609954086,-1.17664021831553,,-2.5428707893121825,,
,6789.0,996.0,4179.0,1199.0,-240.0,1107.0,3813.0,,,,-1.18157037848617,-2.97369804452498,-1.17638030409535,,-2.574543063137321,,
,6789.0,996.0,4182.0,1197.0,-241.0,1114.0,3797.0,,,,-1.18289974335786,-2.97375247386207,-1.17640366220792,,-2.58983998272054,,
,6792.0,997.0,4184.0,1197.0,-251.0,1109.0,3784.0,,,,-1.18245295069882,-2.9738729939827,-1.17617262285662,,-2.5888485847034013,,
,6795.0,998.0,4184.0,1201.0,-250.0,1101.0,3796.0,,,,-1.18206219000899,-2.97376653663686,-1.17721983179449,,-2.5712611045964366,,
,6797.0,999.0,4186.0,1203.0,-241.0,1112.0,3786.0,,,,-1.18203762964091,-2.97381071626351,-1.17693225724171,,-2.5362487182992766,,
,6798.0,998.0,4185.0,1200.0,-233.0,1107.0,3805.0,,,,-1.18231387614556,-2.9737364889756,-1.17554619813703,,-2.4823965929415492,,
,6799.0,997.0,4189.0,1201.0,-236.0,1120.0,3787.0,,,,-1.18266546340526,-2.97375890398538,-1.17673953181047,,-2.4077184212110185,,
,6801.0,998.0,4191.0,1204.0,-232.0,1097.0,3796.0,,,,-1.18244412545697,-2.97383568422693,-1.17710412360064,,-2.309758110852434,,
,6806.0,1000.0,4189.0,1202.0,-239.0,1105.0,3799.0,,,,-1.18296832708713,-2.97391639862345,-1.17632158673868,,-2.185775129556652,,
,6806.0,999.0,4193.0,1200.0,-238.0,1120.0,3798.0,,,,-1.18284633877192,-2.97379144142946,-1.17798631100641,,-2.0329997013655148,,
,6808.0,999.0,4192.0,1204.0,-255.0,1110.0,3801.0,,,,-1.18303910205409,-2.97384313844911,-1.17703031192631,,-1.8489357695630055,,
,6810.0,1002.0,4197.0,1204.0,-238.0,1098.0,3789.0,,,,-1.1822870466765,-2.97378492589628,-1.1760265041547,,-1.6316839911591743,,
,6813.0,1000.0,4200.0,1205.0,-235.0,1097.0,3795.0,,,,-1.18228630625967,-2.97381980192201,-1.17722466321918,,-1.380254119390603,,
,6812.0,998.0,4198.0,1204.0,-248.0,1133.0,3810.0,,,,-1.1815156786937,-2.97378196392471,-1.17587807350956,,-1.0948360109188133,,
,6815.0,1002.0,4198.0,1206.0,-236.0,1117.0,3813.0,,,,-1.18129443463315,-2.97376825172228,-1.17611138076897,,-0.7770015830964332,,
,6818.0,1004.0,4202.0,1208.0,-232.0,1112.0,3791.0,,,,-1.18089221372531,-2.9736314200122,-1.1762349511852,,-0.4298167519153631,,
,6821.0,1004.0,4204.0,1209.0,-234.0,1113.0,3796.0,,,,-1.18110151595667,-2.97370566267414,-1.17633015752104,,-0.05785206670758381,,
,6822.0,1001.0,4205.0,1208.0,-257.0,1110.0,3798.0,,,,-1.1815226889304,-2.97372841408511,-1.1769402891116,,0.3329085820960751,,
,6822.0,1005.0,4206.0,1208.0,-248.0,1115.0,3773.0,,,,-1.18213953976907,-2.97378103844979,-1.17584454008405,,0.735252536785355,,
,6827.0,1003.0,4208.0,1209.0,-251.0,1122.0,3793.0,,,,-1.18213942969021,-2.97389436568875,-1.17639384964686,,1.1410010996845104,,
,6829.0,1003.0,4209.0,1208.0,-245.0,1123.0,3794.0,,,,-1.18245400069557,-2.97379051231309,-1.17606186892595,,1.541331581994302,,
,6831.0,1002.0,4209.0,1210.0,-255.0,1110.0,3819.0,,,,-1.18238148226928,-2.97381113743049,-1.17671296372071,,1.927138091295972,,
,6832.0,1006.0,4214.0,1212.0,-245.0,1130.0,3804.0,,,,-1.18207371684132,-2.97381108626211,-1.17724038596963,,2.289409836746017,,
,6833.0,1007.0,4215.0,1214.0,-240.0,1134.0,3790.0,,,,-1.18211707345117,-2.97388911675863,-1.17666899237966,,2.6196056827776544,,
,6840.0,1008.0,4217.0,1213.0,-239.0,1125.0,3812.0,,,,-1.18199079889408,-2.97379756151784,-1.17616663376397,,2.9100039512218063,,
,6838.0,1003.0,4216.0,1211.0,-235.0,1111.0,3827.0,,,,-1.18200386097874,-2.97391916898286,-1.17677342762204,,3.1540070184864777,,
,6841.0,1006.0,4220.0,1214.0,-241.0,1143.0,3813.0,,,,-1.18152877275125,-2.97371627142501,-1.17678567717531,,3.3463814452856364,,
,6842.0,1007.0,4221.0,1214.0,-235.0,1151.0,3790.0,,,,-1.18121177565138,-2.97370407350091,-1.1765109377366,,3.483417123765396,,
,6846.0,1006.0,4224.0,1216.0,-228.0,1152.0,3789.0,,,,-1.18102937499382,-2.97360015811242,-1.17629688127109,,3.562994459761508,,
,6846.0,1007.0,4224.0,1215.0,-247.0,1114.0,3824.0,,,,-1.1805253650033,-2.97362751185934,-1.17563151828133,,3.5845576617153276,,
,6849.0,1008.0,4224.0,1217.0,-248.0,1115.0,3799.0,,,,-1.17952225265394,-2.97360232163021,-1.17501155202103,,3.5490039139634115,,
,6851.0,1008.0,4227.0,1218.0,-236.0,1113.0,3802.0,,,,-1.17941877280062,-2.97359086245357,-1.17511183614584,,3.4585096657855954,,
,6853.0,1009.0,4230.0,1217.0,-238.0,1102.0,3808.0,,,,-1.17855478990333,-2.97364110032096,-1.17471169368936,,3.3163226778648744,,
,6853.0,1011.0,4231.0,1218.0,-241.0,1114.0,3827.0,,,,-1.1786216681147,-2.97359057177551,-1.17583564597844,,3.1265493674296128,,
,6855.0,1011.0,4233.0,1220.0,-230.0,1120.0,3816.0,,,,-1.17812838253487,-2.97349217806407,-1.174080043571,,2.893961658713243,,
,6854.0,1011.0,4234.0,1217.0,-230.0,1129.0,3793.0,,,,-1.17854707152787,-2.97349740722447,-1.17504120636771,,2.6238384439892193,,
,6851.0,1009.0,4232.0,1219.0,-233.0,1132.0,3784.0,,,,-1.17814317809954,-2.97344780646014,-1.17451624671862,,2.321846790333197,,
,6848.0,1008.0,4233.0,1219.0,-243.0,1124.0,3763.0,,,,-1.17720082942898,-2.97337818088002,-1.1744268275904,,1.9939591954101175,,
,6845.0,1010.0,4231.0,1217.0,-239.0,1133.0,3763.0,,,,-1.17684502988252,-2.9733902610055,-1.17427582662078,,1.6463964684924342,,
,6839.0,1011.0,4232.0,1216.0,-233.0,1123.0,3792.0,,,,-1.17716285784913,-2.97350883602428,-1.17433797120247,,1.285581557994492,,
,6833.0,1009.0,4231.0,1215.0,-235.0,1123.0,3797.0,,,,-1.1759020962246,-2.97335713589946,-1.17308197734383,,0.9180878681153692,,
,6827.0,1008.0,4228.0,1213.0,-237.0,1092.0,3786.0,,,,-1.17586479958899,-2.97328071199387,-1.17375632511536,,0.5505659777144952,,
,6820.0,1006.0,4226.0,1211.0,-250.0,1092.0,3806.0,,,,-1.17493553181629,-2.97330683836136,-1.17273934636994,,0.1896348034640266,,
,6816.0,1006.0,4224.0,1209.0,-256.0,1117.0,3807.0,,,,-1.17394736545729,-2.97325812268643,-1.17380333436152,,-0.1582728833919405,,
,6809.0,1006.0,4225.0,1209.0,-239.0,1133.0,3804.0,,,,-1.17436831516719,-2.97315982793516,-1.17316029121433,,-0.4871146294534986,,
,6802.0,1005.0,4223.0,1206.0,-231.0,1133.0,3795.0,,,,-1.17489651856992,-2.9731234183027,-1.17213902990408,,-0.7914875279079011,,
,6799.0,1004.0,4222.0,1210.0,-238.0,1120.0,3803.0,,,,-1.17437296922089,-2.97313383165313,-1.17324704200336,,-1.0669068641238397,,
,6794.0,1004.0,4222.0,1208.0,-244.0,1134.0,3806.0,,,,-1.17496186612392,-2.97307550212304,-1.17349660935808,,-1.3100868927855487,,
,6793.0,1006.0,4223.0,1208.0,-234.0,1136.0,3805.0,,,,-1.1752658623516,-2.97317864638443,-1.17419874787182,,-1.5191872999135372,,
,6788.0,1002.0,4221.0,1203.0,-246.0,1120.0,3811.0,,,,-1.17537702854468,-2.97320406615368,-1.17313786062646,,-1.69398564247265,,
,6786.0,1004.0,4220.0,1201.0,-242.0,1109.0,3782.0,,,,-1.17500051492925,-2.97316372674686,-1.17371677055954,,-1.8359404874085563,,
,6785.0,1002.0,4222.0,1204.0,-229.0,1130.0,3784.0,,,,-1.17577587799554,-2.97316914365657,-1.17402718505719,,-1.9481212128679106,,
,6780.0,1000.0,4219.0,1204.0,-229.0,1131.0,3772.0,,,,-1.17541039852021,-2.97327707939833,-1.1731021204978,,-2.0349957340118765,,
,6779.0,1000.0,4219.0,1202.0,-242.0,1117.0,3778.0,,,,-1.17559384141733,-2.97317697180268,-1.17356665800413,,-2.1020837496766447,,
,6778.0,1001.0,4221.0,1204.0,-254.0,1122.0,3818.0,,,,-1.17557537783338,-2.97317498160466,-1.1735840118696,,-2.1554982044116495,,
,6775.0,1001.0,4222.0,1203.0,-234.0,1110.0,3812.0,,,,-1.17517943377803,-2.97301493144854,-1.17365847113602,,-2.20141015459928,,
,6775.0,1001.0,4222.0,1205.0,-231.0,1119.0,3807.0,,,,-1.17421106559078,-2.97306743213527,-1.17317896756257,,-2.24548133137964,,
,6770.0,1001.0,4223.0,1199.0,-259.0,1116.0,3822.0,,,,-1.17385136064627,-2.97313007360237,-1.17188630461206,,-2.292313920046634,,
,6772.0,999.0,4222.0,1200.0,-240.0,1120.0,3799.0,,,,-1.17359981332519,-2.97301490025193,-1.17248419186618,,-2.3449681788603853,,
,6771.0,1003.0,4222.0,1204.0,-238.0,1106.0,3792.0,,,,-1.17420976212339,-2.97308398113055,-1.17261625569695,,-2.404595450716623,,
,6770.0,1001.0,4223.0,1202.0,-237.0,1124.0,3791.0,,,,-1.17408753172053,-2.97301849557592,-1.1730010753527,,-2.470226880498138,,
,6766.0,997.0,4221.0,1200.0,-242.0,1113.0,3807.0,,,,-1.17408704227355,-2.97301966902948,-1.17299961118135,,-2.538746733548349,,
,6767.0,1001.0,4225.0,1202.0,-245.0,1133.0,3807.0,,,,-1.17413382624558,-2.97307441924878,-1.17359099623366,,-2.6050637640950787,,
,6766.0,1002.0,4222.0,1204.0,-235.0,1133.0,3791.0,,,,-1.17436207845815,-2.97322157776856,-1.17275974860968,,-2.662475195973401,,
,6765.0,999.0,4224.0,1203.0,-237.0,1122.0,3799.0,,,,-1.17398465964841,-2.97308176429975,-1.17263271466182,,-2.703196931818941,,
,6767.0,997.0,4223.0,1200.0,-237.0,1107.0,3799.0,,,,-1.1741716841542,-2.97308081651629,-1.17322558374466,,-2.7190131424223836,,
,6765.0,996.0,4224.0,1201.0,-239.0,1109.0,3800.0,,,,-1.17406721590385,-2.97299304724864,-1.17246261173748,,-2.70198207418486,,
,6767.0,999.0,4227.0,1203.0,-243.0,1098.0,3795.0,,,,-1.1734809197834,-2.97301052529465,-1.17316910689629,,-2.6451264519637148,,
,6764.0,999.0,4225.0,1202.0,-226.0,1114.0,3795.0,,,,-1.17324308349346,-2.97308579010124,-1.17189203161672,,-2.543038188682573,,
,6763.0,999.0,4225.0,1202.0,-220.0,1114.0,3810.0,,,,-1.17235795053006,-2.97293888759752,-1.17165313156682,,-2.392337554602847,,
,6765.0,1001.0,4225.0,1201.0,-250.0,1124.0,3818.0,,,,-1.17161009807914,-2.97288896766005,-1.1723398529962,,-2.191944107563114,,
,6763.0,999.0,4229.0,1202.0,-248.0,1110.0,3823.0,,,,-1.17187779420317,-2.97278518771407,-1.172480323218,,-1.9431379879561812,,
,6766.0,1001.0,4229.0,1202.0,-248.0,1116.0,3799.0,,,,-1.17162755182927,-2.97285421100737,-1.1722036563501,,-1.6494135854446232,,
,6765.0,998.0,4228.0,1203.0,-241.0,1132.0,3789.0,,,,-1.17165060774793,-2.9728940840318,-1.17203652452479,,-1.3161510528058051,,
2025-08-20 17:37:22,6763.0,1002.0,4231.0,1203.0,-240.0,1149.0,3787.0,,,2025/08/20 05:37:22 PM,-1.17226848543222,-2.97289798454838,-1.17121872535942,,-0.9501520330172138,,
,6767.0,999.0,4232.0,1207.0,-232.0,1141.0,3788.0,,,,-1.17224561716317,-2.97288077023026,-1.17184810352297,,-0.5591012411576235,,
,6767.0,1000.0,4233.0,1203.0,-231.0,1138.0,3799.0,,,,-1.17299033957651,-2.97299238366088,-1.17153779510979,,-0.1510227286606706,,
,6762.0,997.0,4229.0,1203.0,-230.0,1144.0,3817.0,,,,-1.17296064542836,-2.97290558245196,-1.17259000173879,,0.26620236658618884,,
,6764.0,999.0,4230.0,1205.0,-223.0,1142.0,3800.0,,,,-1.17374805282749,-2.97297390626146,-1.17165212671137,,0.6852006903404163,,
,6765.0,999.0,4234.0,1204.0,-228.0,1118.0,3812.0,,,,-1.17350105570236,-2.97295264358823,-1.17239476783449,,1.099316668521941,,
,6768.0,1001.0,4237.0,1205.0,-228.0,1125.0,3812.0,,,,-1.17336749722226,-2.97287012566992,-1.17202896984301,,1.502653963033574,,
,6764.0,999.0,4235.0,1205.0,-223.0,1117.0,3798.0,,,,-1.1725171136527,-2.97285763155036,-1.17197756358138,,1.8899613463042715,,
,6764.0,997.0,4233.0,1204.0,-251.0,1096.0,3825.0,,,,-1.17230915031654,-2.97279975731945,-1.17118546066897,,2.2564019262888,,
,6763.0,1000.0,4237.0,1203.0,-233.0,1094.0,3802.0,,,,-1.17082918413623,-2.97268138060627,-1.17168978703613,,2.5972655208505637,,
,6766.0,1001.0,4236.0,1205.0,-236.0,1098.0,3804.0,,,,-1.17052848269928,-2.97279593742243,-1.17122454256021,,2.9076950571385383,,
,6763.0,999.0,4238.0,1203.0,-232.0,1129.0,3797.0,,,,-1.17050269395694,-2.97281541603747,-1.17072215942581,,3.1824960667914555,,
,6766.0,999.0,4237.0,1205.0,-229.0,1122.0,3777.0,,,,-1.17047164779583,-2.97276265479075,-1.17068665049853,,3.416083811898547,,
,6766.0,1001.0,4241.0,1207.0,-234.0,1134.0,3795.0,,,,-1.17110811576518,-2.97278284177875,-1.17178916377418,,3.6025986861721004,,
,6766.0,1000.0,4244.0,1207.0,-231.0,1140.0,3787.0,,,,-1.17203361460473,-2.97278586780887,-1.17260454174246,,3.7361922637527756,,
,6766.0,1000.0,4242.0,1207.0,-231.0,1129.0,3788.0,,,,-1.17289568318793,-2.9729184823975,-1.17230248663254,,3.811458469484416,,
,6768.0,1001.0,4243.0,1207.0,-246.0,1125.0,3792.0,,,,-1.17292926030032,-2.97296144618786,-1.17244927853178,,3.82396050355715,,
,6770.0,1002.0,4243.0,1207.0,-256.0,1108.0,3794.0,,,,-1.17346487071769,-2.97302880505114,-1.17236405172049,,3.7707870640079943,,
,6771.0,1002.0,4245.0,1206.0,-250.0,1113.0,3797.0,,,,-1.17387438431222,-2.97314294197647,-1.17290115277854,,3.6510630186649626,,
,6773.0,1003.0,4246.0,1209.0,-261.0,1126.0,3790.0,,,,-1.17541798286691,-2.97312884343637,-1.17322951680758,,3.466341025943905,,
,6772.0,1000.0,4245.0,1207.0,-239.0,1120.0,3816.0,,,,-1.17615222896244,-2.97325991965295,-1.17357850001744,,3.22081151205936,,
,6775.0,1003.0,4248.0,1207.0,-239.0,1125.0,3783.0,,,,-1.17714848764775,-2.97339697657655,-1.17491337171721,,2.9212875549903554,,
,6775.0,1002.0,4249.0,1207.0,-243.0,1136.0,3776.0,,,,-1.17815352797238,-2.97355796694795,-1.17473329059357,,2.5769465936666416,,
,6774.0,1001.0,4249.0,1207.0,-231.0,1111.0,3790.0,,,,-1.18023924103436,-2.97361779846732,-1.17585904095183,,2.1988400727926125,,
,6776.0,1002.0,4248.0,1207.0,-231.0,1123.0,3786.0,,,,-1.18120426088269,-2.97371863264312,-1.17684160259192,,1.7992121274602915,,
,6782.0,1004.0,4252.0,1211.0,-240.0,1131.0,3775.0,,,,-1.18347537578474,-2.97389217391558,-1.17785756523072,,1.3906951198077397,,
,6783.0,1003.0,4255.0,1210.0,-243.0,1133.0,3781.0,,,,-1.18504270240654,-2.97398104026277,-1.17827209991243,,0.9854682545890205,,
,6783.0,1004.0,4258.0,1211.0,-225.0,1119.0,3779.0,,,,-1.18575302251644,-2.97413717301506,-1.17837642800598,,0.5944711515480879,,
,6781.0,1003.0,4255.0,1211.0,-231.0,1114.0,3795.0,,,,-1.18633867353877,-2.9741858726536,-1.17886862694064,,0.226755474831202,,
,6784.0,1004.0,4257.0,1211.0,-241.0,1119.0,3804.0,,,,-1.18632559343127,-2.97421778890888,-1.179277732047,,-0.11096320188905448,,
,6790.0,1005.0,4259.0,1213.0,-239.0,1133.0,3806.0,,,,-1.18670490728227,-2.97427345788609,-1.17897767885565,,-0.41451909833227946,,
,6788.0,1004.0,4260.0,1215.0,-239.0,1150.0,3815.0,,,,-1.18668938494757,-2.97414132771989,-1.17858751110466,,-0.6822707777306166,,
,6789.0,1004.0,4260.0,1213.0,-232.0,1143.0,3802.0,,,,-1.18604272416709,-2.97412731543333,-1.17843040411492,,-0.9148584223687215,,
,6793.0,1003.0,4261.0,1214.0,-231.0,1123.0,3806.0,,,,-1.18506753831689,-2.97402179868836,-1.17862482698537,,-1.1147867384368175,,
,6795.0,1008.0,4264.0,1214.0,-235.0,1114.0,3804.0,,,,-1.18496390172008,-2.97405172939335,-1.17775760146552,,-1.2858905273302834,,
,6796.0,1005.0,4268.0,1214.0,-243.0,1110.0,3805.0,,,,-1.18446843073929,-2.97398070391537,-1.17828458657471,,-1.4327468340087706,,
,6798.0,1003.0,4264.0,1213.0,-232.0,1106.0,3812.0,,,,-1.184697651983,-2.97398101698768,-1.17760603776699,,-1.560097519045944,,
,6800.0,1006.0,4270.0,1215.0,-229.0,1115.0,3806.0,,,,-1.18469601878685,-2.97393278179233,-1.17819633474342,,-1.6723398837420929,,
,6801.0,1008.0,4271.0,1218.0,-229.0,1098.0,3795.0,,,,-1.18503237111107,-2.97401040559243,-1.17803917218174,,-1.773131567944234,,
,6805.0,1008.0,4270.0,1218.0,-223.0,1103.0,3796.0,,,,-1.18562706838646,-2.97403873049668,-1.17833830672977,,-1.8651403223618825,,
,6804.0,1005.0,4273.0,1217.0,-235.0,1105.0,3805.0,,,,-1.18541972435024,-2.97411480533165,-1.17757459855677,,-1.9499505611001478,,
,6809.0,1009.0,4276.0,1217.0,-239.0,1112.0,3800.0,,,,-1.18737529835259,-2.97418136648442,-1.1794186297602,,-2.0281184004096855,,
,6809.0,1008.0,4276.0,1218.0,-248.0,1091.0,3797.0,,,,-1.18751172844,-2.97415377232921,-1.17885869401425,,-2.0993475182874626,,
,6811.0,1009.0,4278.0,1220.0,-252.0,1101.0,3810.0,,,,-1.18719964250196,-2.97415316086078,-1.17917972730901,,-2.1627427791906975,,
,6813.0,1010.0,4279.0,1221.0,-247.0,1116.0,3795.0,,,,-1.18760897283203,-2.97412079134422,-1.17921103158361,,-2.217090454325756,,
,6813.0,1008.0,4279.0,1220.0,-251.0,1138.0,3789.0,,,,-1.1879345849316,-2.97413126012664,-1.17951526218361,,-2.26111498456103,,
,6816.0,1010.0,4281.0,1220.0,-244.0,1130.0,3774.0,,,,-1.18709979323153,-2.97426140940394,-1.17912901883076,,-2.2936719704510313,,
,6815.0,1010.0,4280.0,1221.0,-254.0,1121.0,3779.0,,,,-1.18759197297005,-2.97409510260638,-1.17914162007751,,-2.3138525260301415,,
,6818.0,1010.0,4282.0,1220.0,-250.0,1116.0,3787.0,,,,-1.18784237574344,-2.97425668543764,-1.17946727247839,,-2.3209916079380317,,
,6820.0,1010.0,4284.0,1222.0,-229.0,1132.0,3811.0,,,,-1.18796139144929,-2.97421025388808,-1.18043185928823,,-2.314589332546693,,
,6823.0,1012.0,4287.0,1223.0,-241.0,1116.0,3790.0,,,,-1.18879827628133,-2.97429290389739,-1.17975323524792,,-2.294167559086865,,
,6826.0,1010.0,4290.0,1223.0,-245.0,1108.0,3786.0,,,,-1.18880601421842,-2.97431365410472,-1.18039442131528,,-2.259092918411804,,
,6823.0,1011.0,4288.0,1224.0,-232.0,1106.0,3787.0,,,,-1.18846081565699,-2.97421449032184,-1.17988893246329,,-2.2084014146755697,,
,6826.0,1010.0,4290.0,1223.0,-232.0,1096.0,3784.0,,,,-1.18856653091847,-2.97431811867924,-1.17956289731404,,-2.140658795428334,,
,6829.0,1014.0,4291.0,1223.0,-246.0,1102.0,3802.0,,,,-1.188346023879,-2.974183874711,-1.17957378750798,,-2.053885814034517,,
,6831.0,1014.0,4296.0,1226.0,-247.0,1103.0,3810.0,,,,-1.18836058727284,-2.97415831166373,-1.18047599883239,,-1.9455694554872605,,
,6833.0,1010.0,4294.0,1224.0,-220.0,1112.0,3821.0,,,,-1.18814121878681,-2.97418070856318,-1.17944699452361,,-1.8127713717958613,,
,6835.0,1013.0,4294.0,1225.0,-239.0,1120.0,3824.0,,,,-1.18805779996732,-2.97414177097414,-1.17962372158064,,-1.6523341709248043,,
,6836.0,1015.0,4298.0,1226.0,-224.0,1111.0,3829.0,,,,-1.18734173458493,-2.97418855528463,-1.17945574479005,,-1.4611754990395736,,
,6838.0,1013.0,4300.0,1227.0,-231.0,1115.0,3822.0,,,,-1.18754546790966,-2.97419687978459,-1.17947719049967,,-1.236649449651091,,
,6838.0,1015.0,4300.0,1225.0,-236.0,1115.0,3800.0,,,,-1.18764688900503,-2.97428519310486,-1.17970764528418,,-0.9769451577108913,,
,6843.0,1013.0,4303.0,1229.0,-241.0,1117.0,3780.0,,,,-1.18748874945871,-2.97424102348652,-1.17932091093995,,-0.6814845296271119,,
,6845.0,1017.0,4305.0,1228.0,-237.0,1107.0,3794.0,,,,-1.18801579654459,-2.9742705517193,-1.17891993139085,,-0.3512767831799609,,
,6847.0,1016.0,4305.0,1230.0,-242.0,1119.0,3809.0,,,,-1.18778673360118,-2.97415121523713,-1.17981816898966,,0.010811387870985956,,
,6847.0,1012.0,4305.0,1229.0,-232.0,1131.0,3800.0,,,,-1.18864066358847,-2.97432285245053,-1.17953876467424,,0.3999043965356404,,
,6851.0,1016.0,4307.0,1229.0,-236.0,1126.0,3792.0,,,,-1.18905203343045,-2.97429874303425,-1.18055734931283,,0.8091086305972044,,
,6857.0,1018.0,4311.0,1230.0,-217.0,1140.0,3796.0,,,,-1.18901794225528,-2.97430116254259,-1.18130950138712,,1.2296566653039942,,
,6853.0,1019.0,4312.0,1233.0,-225.0,1140.0,3800.0,,,,-1.18913029489163,-2.9743229189528,-1.18056364600947,,1.651203457187932,,
,6857.0,1017.0,4311.0,1232.0,-240.0,1121.0,3789.0,,,,-1.18959465423166,-2.9743789189134,-1.18026461081604,,2.06226142004692,,
,6857.0,1020.0,4312.0,1232.0,-240.0,1117.0,3817.0,,,,-1.18922254959455,-2.97436310559589,-1.18031460266731,,2.4507503364868417,,
,6858.0,1020.0,4317.0,1234.0,-240.0,1126.0,3806.0,,,,-1.18949914420254,-2.97428678024257,-1.18074263535687,,2.8046280946951434,,
,6865.0,1017.0,4316.0,1236.0,-234.0,1119.0,3798.0,,,,-1.18915566197414,-2.97433520469166,-1.17984365039947,,3.1125597142530927,,
,6867.0,1018.0,4319.0,1236.0,-240.0,1115.0,3812.0,,,,-1.18804688823641,-2.97426327926026,-1.18030364924514,,3.364575621884725,,
,6864.0,1020.0,4320.0,1232.0,-238.0,1137.0,3790.0,,,,-1.18832707585623,-2.97421319278583,-1.18019720211037,,3.5526664001259816,,
,6869.0,1021.0,4322.0,1235.0,-231.0,1141.0,3797.0,,,,-1.18800564389845,-2.97424667876623,-1.17967398821622,,3.671261368917142,,
,6869.0,1020.0,4325.0,1237.0,-239.0,1140.0,3799.0,,,,-1.18728338702429,-2.97412821393227,-1.17991723012944,,3.7175439045131933,,
,6867.0,1020.0,4324.0,1236.0,-231.0,1134.0,3803.0,,,,-1.18653232362997,-2.97411383638659,-1.17932730047252,,3.6915688539718694,,
,6866.0,1019.0,4322.0,1235.0,-234.0,1115.0,3815.0,,,,-1.18625178939955,-2.97401097675467,-1.17926419287989,,3.596167142456083,,
,6863.0,1022.0,4325.0,1235.0,-218.0,1120.0,3811.0,,,,-1.18587840014278,-2.97407356606777,-1.17871225539121,,3.436647655693573,,
,6858.0,1021.0,4322.0,1235.0,-229.0,1129.0,3807.0,,,,-1.18604755809926,-2.97392721060493,-1.17929675858807,,3.2203319834282675,,
,6850.0,1019.0,4320.0,1234.0,-239.0,1121.0,3803.0,,,,-1.18567856189954,-2.97394668825661,-1.17826244391772,,2.955977817859084,,
,6845.0,1018.0,4318.0,1230.0,-246.0,1111.0,3799.0,,,,-1.18578072885892,-2.97403832199592,-1.17934175286011,,2.653157399113209,,
,6837.0,1018.0,4318.0,1230.0,-254.0,1110.0,3803.0,,,,-1.18531870416058,-2.97399554113676,-1.17865035790259,,2.321657171745992,,
,6831.0,1017.0,4318.0,1231.0,-243.0,1116.0,3781.0,,,,-1.18470716058659,-2.97401560613545,-1.17874777138183,,1.970955339660106,,
,6827.0,1017.0,4318.0,1228.0,-229.0,1137.0,3776.0,,,,-1.18509396777847,-2.9739649168936,-1.17838619903153,,1.6098182201397513,,
,6822.0,1015.0,4315.0,1228.0,-228.0,1129.0,3776.0,,,,-1.18483347322402,-2.97391650008545,-1.1790273360399,,1.2460372449492565,,
,6820.0,1016.0,4315.0,1227.0,-236.0,1129.0,3794.0,,,,-1.18492861582334,-2.97387428796076,-1.17804389376362,,0.8863088174524895,,
,6815.0,1015.0,4315.0,1228.0,-251.0,1131.0,3782.0,,,,-1.18449203996398,-2.97392978598178,-1.17852971003348,,0.5362413175539308,,
,6813.0,1016.0,4315.0,1224.0,-251.0,1156.0,3809.0,,,,-1.18404640784059,-2.97386143947604,-1.1783389562877,,0.20045920777276105,,
,6809.0,1013.0,4316.0,1226.0,-262.0,1120.0,3819.0,,,,-1.18418600932232,-2.97387477545848,-1.17812541644981,,-0.11723530565342734,,
,6807.0,1013.0,4316.0,1223.0,-257.0,1109.0,3796.0,,,,-1.18413499936063,-2.9739782139564,-1.17813701425557,,-0.4136865142581656,,
,6805.0,1014.0,4315.0,1224.0,-266.0,1119.0,3807.0,,,,-1.18390520456652,-2.97388774446657,-1.17799515125418,,-0.6862366939231541,,
,6803.0,1013.0,4313.0,1223.0,-255.0,1097.0,3813.0,,,,-1.18450817313919,-2.97391483197196,-1.17794334294815,,-0.9326379605586573,,
,6799.0,1013.0,4315.0,1223.0,-245.0,1120.0,3809.0,,,,-1.18500200992361,-2.97384430372504,-1.17798031202247,,-1.1510439138032724,,
,6802.0,1013.0,4316.0,1224.0,-227.0,1116.0,3796.0,,,,-1.18476249059434,-2.97387808723464,-1.1784941068049,,-1.3400829761196238,,
,6801.0,1013.0,4316.0,1222.0,-235.0,1110.0,3804.0,,,,-1.18485537042599,-2.97400234973226,-1.17878239811854,,-1.4989969775011136,,
,6799.0,1013.0,4317.0,1223.0,-264.0,1111.0,3803.0,,,,-1.18562337571656,-2.97400217250399,-1.17846184977526,,-1.6278132579845916,,
,6797.0,1011.0,4318.0,1222.0,-255.0,1113.0,3788.0,,,,-1.18623870201684,-2.97412764608035,-1.17936394506797,,-1.727509952694638,,
,6798.0,1013.0,4319.0,1224.0,-248.0,1110.0,3776.0,,,,-1.1869584672802,-2.97408953258624,-1.17943193006922,,-1.8001337402584336,,
,6797.0,1012.0,4318.0,1226.0,-255.0,1114.0,3773.0,,,,-1.18619727101232,-2.97414312469985,-1.17876582311581,,-1.8488361224874466,,
,6797.0,1015.0,4320.0,1224.0,-238.0,1140.0,3766.0,,,,-1.18754529387609,-2.97402109112378,-1.17909005717407,,-1.877805693907119,,
,6798.0,1013.0,4318.0,1224.0,-231.0,1141.0,3776.0,,,,-1.18726690663105,-2.97404272155502,-1.17936753624958,,-1.8920873016873934,,
,6798.0,1015.0,4322.0,1224.0,-229.0,1126.0,3800.0,,,,-1.18646625581604,-2.97395447248529,-1.17974495623544,,-1.897292697288004,,
,6794.0,1010.0,4321.0,1224.0,-237.0,1115.0,3796.0,,,,-1.18641916983561,-2.97412822599196,-1.17967395941172,,-1.8992200969440092,,
,6797.0,1013.0,4323.0,1223.0,-242.0,1113.0,3802.0,,,,-1.18628189439125,-2.97407611629505,-1.17976819959599,,-1.90341111785087,,
,6797.0,1011.0,4321.0,1222.0,-235.0,1099.0,3795.0,,,,-1.18627553386134,-2.97419345266545,-1.18002593106052,,-1.9146820640933866,,
,6797.0,1012.0,4324.0,1224.0,-230.0,1108.0,3800.0,,,,-1.18711769112613,-2.97398668288712,-1.1800452986752,,-1.936671921758357,,
,6799.0,1011.0,4324.0,1226.0,-231.0,1121.0,3810.0,,,,-1.18641869658184,-2.97419712340138,-1.1796546321225,,-1.9714513289449254,,
,6798.0,1012.0,4325.0,1223.0,-222.0,1106.0,3810.0,,,,-1.18623152763588,-2.97404649832345,-1.17903714912424,,-2.0192349298090737,,
,6801.0,1012.0,4325.0,1225.0,-230.0,1094.0,3784.0,,,,-1.18663667143647,-2.97394209214138,-1.17978004360245,,-2.078233578263804,,
,6800.0,1013.0,4326.0,1223.0,-232.0,1128.0,3790.0,,,,-1.18596448486585,-2.97408539269344,-1.17961029906029,,-2.144672551771301,,
,6802.0,1012.0,4329.0,1225.0,-222.0,1120.0,3801.0,,,,-1.18691208409974,-2.97408031136904,-1.18025474090945,,-2.212987325943657,,
,6803.0,1015.0,4330.0,1225.0,-224.0,1121.0,3801.0,,,,-1.18675720564981,-2.97412688485471,-1.17973411213015,,-2.276190308188323,,
,6799.0,1011.0,4328.0,1225.0,-235.0,1128.0,3797.0,,,,-1.18722821978023,-2.97422472320521,-1.18008847338164,,-2.3263820656203476,,
,6801.0,1013.0,4331.0,1226.0,-232.0,1110.0,3814.0,,,,-1.18789664487073,-2.97412791568669,-1.17961156631254,,-2.355362065268729,,
,6802.0,1015.0,4333.0,1228.0,-229.0,1119.0,3787.0,,,,-1.18824060839284,-2.9742477555709,-1.17987823294369,,-2.35528049969453,,
,6803.0,1014.0,4330.0,1227.0,-228.0,1116.0,3785.0,,,,-1.18839950356133,-2.97416167707586,-1.17978427980614,,-2.3192673238447723,,
,6802.0,1014.0,4332.0,1224.0,-229.0,1120.0,3811.0,,,,-1.18802552136379,-2.97415354059116,-1.18028269486975,,-2.241977854841246,,
,6802.0,1014.0,4334.0,1227.0,-244.0,1121.0,3807.0,,,,-1.18738720354067,-2.97406249361477,-1.17973587376442,,-2.1200045651143067,,
,6800.0,1014.0,4334.0,1227.0,-253.0,1124.0,3786.0,,,,-1.18756366825295,-2.97396451578443,-1.17970829000873,,-1.952119523147877,,
,6803.0,1016.0,4334.0,1225.0,-257.0,1123.0,3778.0,,,,-1.18674320374395,-2.97400836414457,-1.17945119989423,,-1.7393293375933228,,
,6800.0,1013.0,4334.0,1225.0,-249.0,1117.0,3785.0,,,,-1.18606148684754,-2.97394426225174,-1.18000223435875,,-1.4847432394845712,,
,6801.0,1014.0,4334.0,1228.0,-225.0,1112.0,3802.0,,,,-1.18434504904891,-2.97381245310894,-1.17893407105946,,-1.1932739088035804,,
,6799.0,1016.0,4337.0,1227.0,-223.0,1119.0,3785.0,,,,-1.18434532319489,-2.97381615103187,-1.17896596862125,,-0.8712080429656075,,
,6799.0,1015.0,4336.0,1225.0,-219.0,1122.0,3792.0,,,,-1.18295957824163,-2.97373022285922,-1.17858526565319,,-0.5256973267689508,,
,6802.0,1012.0,4334.0,1227.0,-236.0,1120.0,3790.0,,,,-1.18221691732683,-2.97376960316344,-1.17792607406374,,-0.1642285328356959,,
,6799.0,1015.0,4338.0,1225.0,-239.0,1121.0,3794.0,,,,-1.18189439390058,-2.97367527345147,-1.17738945202026,,0.20586715865061261,,
,6802.0,1016.0,4342.0,1230.0,-247.0,1126.0,3775.0,,,,-1.18182477556672,-2.97370060404689,-1.17840956628221,,0.5778111583191348,,
2025-08-20 17:37:23,6804.0,1015.0,4339.0,1228.0,-251.0,1143.0,3783.0,,,2025/08/20 05:37:23 PM,-1.18256192851712,-2.97363384918074,-1.17766969981767,,0.9456384765019215,,
,6804.0,1016.0,4343.0,1228.0,-238.0,1132.0,3805.0,,,,-1.18315055019068,-2.97368810222213,-1.17863458160409,,1.3042981168511403,,
,6806.0,1016.0,4343.0,1229.0,-235.0,1139.0,3791.0,,,,-1.1833589391046,-2.97372715155396,-1.1779483581648,,1.6495899965261587,,
,6809.0,1015.0,4344.0,1229.0,-242.0,1137.0,3802.0,,,,-1.18401141424512,-2.97384357842565,-1.17829502529801,,1.9779593136840126,,
,6810.0,1019.0,4343.0,1230.0,-247.0,1114.0,3786.0,,,,-1.18396111267202,-2.97381122508837,-1.17877392447395,,2.2861919230502346,,
,6808.0,1013.0,4344.0,1230.0,-250.0,1107.0,3793.0,,,,-1.18537011647526,-2.97396580374349,-1.17915398705926,,2.57107148341626,,
,6811.0,1016.0,4344.0,1229.0,-247.0,1105.0,3802.0,,,,-1.18674370889889,-2.97403715348886,-1.17978460439956,,2.829066602501856,,
,6812.0,1016.0,4348.0,1230.0,-252.0,1102.0,3788.0,,,,-1.18808832714267,-2.97411252998877,-1.18094946565601,,3.056111723753144,,
,6815.0,1015.0,4349.0,1231.0,-250.0,1109.0,3796.0,,,,-1.18917390817591,-2.97435719636531,-1.18111279280449,,3.247530264572292,,
,6814.0,1016.0,4348.0,1225.0,-232.0,1125.0,3802.0,,,,-1.19123745451185,-2.97441000361269,-1.18139155231803,,3.3981263011873923,,
,6814.0,1015.0,4350.0,1232.0,-222.0,1131.0,3792.0,,,,-1.19185633699606,-2.97457803628399,-1.18164256115114,,3.5024462702323196,,
,6819.0,1019.0,4351.0,1234.0,-245.0,1105.0,3772.0,,,,-1.19376037683921,-2.9745491298704,-1.18375011840506,,3.555188196855348,,
,6821.0,1020.0,4354.0,1232.0,-251.0,1109.0,3775.0,,,,-1.19473250947305,-2.97486638637372,-1.18292883974413,,3.551715197237642,,
,6822.0,1019.0,4353.0,1233.0,-248.0,1144.0,3779.0,,,,-1.19574396357101,-2.97487216178441,-1.18416913619675,,3.488614187924247,,
,6821.0,1016.0,4356.0,1234.0,-239.0,1137.0,3763.0,,,,-1.19595174835673,-2.97495005361807,-1.18362163966724,,3.3642314488988205,,
,6827.0,1022.0,4358.0,1236.0,-243.0,1123.0,3794.0,,,,-1.19622689616505,-2.97485148754681,-1.1842736662794,,3.1791151697043616,,
,6829.0,1019.0,4358.0,1237.0,-240.0,1131.0,3792.0,,,,-1.196090864693,-2.97483124454576,-1.18371317028098,,2.936301867412906,,
,6831.0,1019.0,4360.0,1236.0,-231.0,1111.0,3785.0,,,,-1.1956981811595,-2.97488418038394,-1.18287089317972,,2.641398255742637,,
,6829.0,1021.0,4359.0,1235.0,-253.0,1124.0,3812.0,,,,-1.19466707391135,-2.97484005364345,-1.18316769381435,,2.3024316243164296,,
,6833.0,1020.0,4362.0,1236.0,-236.0,1118.0,3802.0,,,,-1.19264206426205,-2.97454802620892,-1.18240387711272,,1.929468138734631,,
,6834.0,1022.0,4364.0,1238.0,-237.0,1118.0,3805.0,,,,-1.19193409620807,-2.97462818977377,-1.18203261889139,,1.534026931902544,,
,6834.0,1022.0,4364.0,1240.0,-243.0,1117.0,3790.0,,,,-1.19151044633729,-2.97459361447311,-1.18242371813021,,1.1283447197248135,,
,6837.0,1020.0,4364.0,1237.0,-252.0,1121.0,3811.0,,,,-1.19086060373826,-2.97438657044382,-1.18094512740724,,0.7245664458660185,,
,6838.0,1019.0,4366.0,1237.0,-245.0,1117.0,3824.0,,,,-1.19060978476778,-2.97445035224407,-1.1817470656352,,0.3339477624256451,,
,6841.0,1023.0,4368.0,1237.0,-241.0,1112.0,3818.0,,,,-1.19142926812089,-2.97451250203302,-1.18171034996056,,-0.03384753828653297,,
,6843.0,1021.0,4367.0,1239.0,-237.0,1119.0,3801.0,,,,-1.19145709133313,-2.97467725746559,-1.1815435974315,,-0.37128689365517525,,
,6842.0,1022.0,4369.0,1238.0,-234.0,1117.0,3790.0,,,,-1.19165432613988,-2.97437569361487,-1.18172825266005,,-0.6733000139382701,,
,6845.0,1023.0,4369.0,1242.0,-245.0,1126.0,3776.0,,,,-1.19153829150834,-2.97426845120954,-1.18193462600451,,-0.9373827436702955,,
,6848.0,1022.0,4371.0,1241.0,-242.0,1127.0,3766.0,,,,-1.19047355116449,-2.97421776011409,-1.18104498016232,,-1.1634800370439025,,
,6849.0,1022.0,4370.0,1241.0,-233.0,1135.0,3766.0,,,,-1.18949230983727,-2.97419401549517,-1.18090888613417,,-1.3536756652106816,,
,6849.0,1023.0,4372.0,1239.0,-255.0,1150.0,3801.0,,,,-1.18948139704729,-2.97421792395215,-1.18081915907608,,-1.5117323394817201,,
,6850.0,1023.0,4375.0,1241.0,-250.0,1117.0,3809.0,,,,-1.18831839524085,-2.97411440503239,-1.18122917480681,,-1.6425361211759577,,
,6853.0,1022.0,4376.0,1243.0,-259.0,1122.0,3802.0,,,,-1.18783147538739,-2.97408312177789,-1.17965665425673,,-1.7515032847716272,,
,6854.0,1022.0,4375.0,1241.0,-252.0,1120.0,3800.0,,,,-1.18708005120558,-2.97408169949491,-1.180411285404,,-1.844006719640407,,
,6855.0,1023.0,4376.0,1243.0,-251.0,1116.0,3801.0,,,,-1.18665676095564,-2.97399594963115,-1.18017655520656,,-1.9248732504597876,,
,6859.0,1025.0,4380.0,1242.0,-260.0,1125.0,3790.0,,,,-1.18747855401773,-2.97385116643667,-1.17988885776388,,-1.9979935411958298,,
,6861.0,1023.0,4379.0,1245.0,-246.0,1116.0,3789.0,,,,-1.18800059116659,-2.97391762445788,-1.17910902672425,,-2.0660729002454126,,
,6862.0,1023.0,4385.0,1246.0,-247.0,1114.0,3794.0,,,,-1.18809056074775,-2.97399733418293,-1.17981369377987,,-2.1305348038864675,,
,6863.0,1025.0,4379.0,1243.0,-255.0,1114.0,3819.0,,,,-1.18815624608091,-2.97410997712207,-1.18008029818287,,-2.191570456952632,,
,6864.0,1024.0,4382.0,1247.0,-250.0,1120.0,3785.0,,,,-1.18732462821149,-2.97403565442525,-1.17976336999435,,-2.248309530651224,,
,6868.0,1025.0,4387.0,1246.0,-245.0,1125.0,3777.0,,,,-1.18651889249788,-2.97393608653269,-1.17882763214894,,-2.2990727685916292,,
,6869.0,1027.0,4386.0,1245.0,-235.0,1108.0,3784.0,,,,-1.18588823561206,-2.97394562626862,-1.1784200592363,,-2.3416598572301917,,
,6870.0,1029.0,4389.0,1246.0,-243.0,1107.0,3805.0,,,,-1.18487156199434,-2.97384849412734,-1.17856130641831,,-2.373627505776993,,
,6873.0,1028.0,4391.0,1249.0,-265.0,1091.0,3796.0,,,,-1.18401225299924,-2.97378195555819,-1.1781515347917,,-2.392521990705996,,
,6876.0,1030.0,4391.0,1250.0,-259.0,1102.0,3806.0,,,,-1.18391428062352,-2.97383475576916,-1.1777759373017,,-2.396044291854012,,
,6876.0,1027.0,4391.0,1249.0,-262.0,1105.0,3818.0,,,,-1.18393553248497,-2.9738249042812,-1.1788182176493,,-2.3821407796858387,,
,6876.0,1028.0,4395.0,1248.0,-247.0,1105.0,3801.0,,,,-1.18418868047991,-2.9737737685702,-1.17740723344203,,-2.3490255303084866,,
,6880.0,1030.0,4395.0,1250.0,-239.0,1115.0,3801.0,,,,-1.18416112895328,-2.97379719849887,-1.17785974365906,,-2.2951502383858657,,
,6879.0,1029.0,4396.0,1250.0,-237.0,1106.0,3791.0,,,,-1.18434347968449,-2.97379752458194,-1.17856142383819,,-2.219143645266118,,
,6884.0,1029.0,4395.0,1252.0,-229.0,1104.0,3793.0,,,,-1.18476364620932,-2.97376541022239,-1.17813841398365,,-2.119744225057675,,
,6885.0,1029.0,4395.0,1249.0,-248.0,1107.0,3806.0,,,,-1.18503756175566,-2.97378981575958,-1.17839015733711,,-1.995748044943045,,
,6887.0,1028.0,4400.0,1252.0,-251.0,1118.0,3804.0,,,,-1.18477525883127,-2.97379565523462,-1.17825387884033,,-1.8459893576255455,,
,6889.0,1031.0,4402.0,1252.0,-235.0,1125.0,3812.0,,,,-1.18402944981986,-2.97371349624845,-1.17769278253494,,-1.669365957271886,,
,6891.0,1030.0,4403.0,1251.0,-228.0,1128.0,3820.0,,,,-1.18417910856293,-2.97378512358416,-1.17791562030464,,-1.4649156299698167,,
,6891.0,1030.0,4401.0,1252.0,-237.0,1126.0,3810.0,,,,-1.18352308322149,-2.97368552355939,-1.17818797613268,,-1.2319443696818124,,
,6894.0,1031.0,4402.0,1255.0,-247.0,1126.0,3803.0,,,,-1.18269764611747,-2.97350431219661,-1.17713224163152,,-0.9702009061032435,,
,6895.0,1034.0,4406.0,1252.0,-251.0,1127.0,3775.0,,,,-1.18127852585827,-2.97353805772835,-1.1766861340462,,-0.680084932449206,,
,6891.0,1032.0,4404.0,1255.0,-250.0,1130.0,3790.0,,,,-1.180548411025,-2.97342156528545,-1.17643125815397,,-0.36286862222695254,,
,6885.0,1032.0,4404.0,1251.0,-242.0,1131.0,3777.0,,,,-1.17986403965771,-2.97338975879408,-1.17677397474638,,-0.020904437399995042,,
,6884.0,1032.0,4404.0,1255.0,-229.0,1117.0,3799.0,,,,-1.17897103565814,-2.97339953536636,-1.17624056868832,,0.3422107209204357,,
,6882.0,1034.0,4404.0,1252.0,-230.0,1114.0,3800.0,,,,-1.17869979373778,-2.97332431646541,-1.17597996124647,,0.7215429577138283,,
,6876.0,1031.0,4404.0,1253.0,-228.0,1106.0,3803.0,,,,-1.17838011531109,-2.97337285684418,-1.17580065675238,,1.1108219539451794,,
,6868.0,1029.0,4401.0,1249.0,-243.0,1114.0,3789.0,,,,-1.17812484408566,-2.97343718796492,-1.17591532789895,,1.5025471363094114,,
,6860.0,1029.0,4400.0,1247.0,-246.0,1120.0,3783.0,,,,-1.17763895816771,-2.97326719517127,-1.17585825990497,,1.8882019408949018,,
,6855.0,1028.0,4396.0,1248.0,-225.0,1107.0,3812.0,,,,-1.17636605575432,-2.97320461384702,-1.17433329865869,,2.258568768590253,,
,6849.0,1030.0,4396.0,1245.0,-236.0,1093.0,3809.0,,,,-1.17654196255963,-2.97323911141161,-1.17518042137913,,2.604127883165062,,
,6842.0,1025.0,4393.0,1243.0,-258.0,1097.0,3820.0,,,,-1.17708827879694,-2.97321700287165,-1.17483753211131,,2.9155150878944673,,
,6838.0,1027.0,4392.0,1242.0,-242.0,1116.0,3802.0,,,,-1.17625408243669,-2.97331482785021,-1.17455876827295,,3.1840060261610965,,
,6833.0,1027.0,4392.0,1242.0,-234.0,1128.0,3818.0,,,,-1.17570213186334,-2.97322564670207,-1.17485615768509,,3.4019899146083974,,
,6831.0,1024.0,4395.0,1243.0,-243.0,1132.0,3820.0,,,,-1.17580596027211,-2.97299524996064,-1.17400964705151,,3.563393024578339,,
,6827.0,1023.0,4392.0,1238.0,-231.0,1158.0,3802.0,,,,-1.17516025440572,-2.97308073349505,-1.17439262594758,,3.664013093578142,,
,6821.0,1023.0,4387.0,1238.0,-235.0,1131.0,3798.0,,,,-1.17549763320453,-2.97311981190479,-1.17462891249954,,3.7017311264591086,,
,6821.0,1024.0,4391.0,1240.0,-243.0,1113.0,3781.0,,,,-1.17778962550211,-2.97310033338423,-1.17467817936217,,3.676577657488614,,
,6817.0,1025.0,4390.0,1240.0,-251.0,1118.0,3795.0,,,,-1.17759314894855,-2.97325135189362,-1.17456679639665,,3.590646476806625,,
,6814.0,1024.0,4390.0,1239.0,-251.0,1096.0,3806.0,,,,-1.17707419686449,-2.97326159170547,-1.17486412876478,,3.4478681750507794,,
,6814.0,1021.0,4388.0,1236.0,-246.0,1125.0,3809.0,,,,-1.17697162806141,-2.97316274075865,-1.17506065335451,,3.2536745541411456,,
,6810.0,1023.0,4389.0,1238.0,-246.0,1116.0,3818.0,,,,-1.17638298672157,-2.97318454768086,-1.1743730928293,,3.01459806926239,,
,6811.0,1023.0,4389.0,1239.0,-252.0,1123.0,3819.0,,,,-1.17662881017984,-2.97312646799963,-1.17488299703182,,2.7378547637197315,,
,6808.0,1022.0,4389.0,1236.0,-249.0,1124.0,3803.0,,,,-1.17552524264483,-2.97306469477349,-1.17446906302774,,2.4309546994607203,,
,6803.0,1022.0,4391.0,1237.0,-242.0,1105.0,3806.0,,,,-1.17506323812051,-2.97305440512099,-1.17463687554695,,2.101373357314331,,
,6804.0,1023.0,4392.0,1236.0,-251.0,1116.0,3792.0,,,,-1.17547715866094,-2.97298031951427,-1.17479031780177,,1.7563041971784539,,
,6803.0,1022.0,4389.0,1235.0,-243.0,1126.0,3796.0,,,,-1.17502610908465,-2.97302457805943,-1.17413763633018,,1.402499031932606,,
,6802.0,1022.0,4390.0,1236.0,-236.0,1133.0,3778.0,,,,-1.17540928448327,-2.97323758010239,-1.17329791936062,,1.0461905424312787,,
,6800.0,1020.0,4388.0,1235.0,-236.0,1133.0,3809.0,,,,-1.17563388471811,-2.97317953643675,-1.1732642233611,,0.6930810248319385,,
,6799.0,1020.0,4388.0,1237.0,-253.0,1126.0,3803.0,,,,-1.17545114492845,-2.97306055904567,-1.17418826230283,,0.34837399332846414,,
,6800.0,1021.0,4389.0,1236.0,-257.0,1130.0,3812.0,,,,-1.17482418764119,-2.97293547322006,-1.17406985725241,,0.016821098906294206,,
,6797.0,1021.0,4389.0,1236.0,-265.0,1126.0,3828.0,,,,-1.17431465504053,-2.97308241856534,-1.17297880225045,,-0.29724362764911594,,
,6799.0,1020.0,4388.0,1234.0,-249.0,1091.0,3813.0,,,,-1.1752160565108,-2.97291191539875,-1.17382216768187,,-0.589906606569514,,
,6798.0,1022.0,4389.0,1234.0,-248.0,1090.0,3783.0,,,,-1.17457746856396,-2.97295602546278,-1.17354602560675,,-0.8577311843525468,,
,6797.0,1022.0,4388.0,1236.0,-262.0,1103.0,3774.0,,,,-1.1744836544421,-2.97284629620862,-1.17375555006718,,-1.0978725498726993,,
,6798.0,1023.0,4393.0,1235.0,-249.0,1118.0,3805.0,,,,-1.17476525772067,-2.97286009262675,-1.17420542938631,,-1.3082413772573906,,
,6797.0,1022.0,4392.0,1234.0,-240.0,1126.0,3827.0,,,,-1.1748853526048,-2.97284429991762,-1.17374533701247,,-1.4876917279994357,,
,6796.0,1020.0,4393.0,1235.0,-237.0,1148.0,3799.0,,,,-1.17489968798959,-2.97304120213255,-1.17341405792449,,-1.6361973235225291,,
,6798.0,1020.0,4392.0,1238.0,-239.0,1138.0,3784.0,,,,-1.1759524119629,-2.97302270749392,-1.17496535428968,,-1.7549756215286814,,
,6797.0,1024.0,4395.0,1236.0,-230.0,1126.0,3767.0,,,,-1.17564910746994,-2.97313457538738,-1.17494975136215,,-1.8465227127509356,,
,6799.0,1020.0,4391.0,1236.0,-249.0,1115.0,3782.0,,,,-1.17623074089148,-2.97296920983368,-1.17420900257161,,-1.9145327907308387,,
,6798.0,1022.0,4392.0,1236.0,-247.0,1116.0,3772.0,,,,-1.1753905090063,-2.97301451269795,-1.17384083799643,,-1.9636909874624984,,
,6798.0,1020.0,4395.0,1236.0,-239.0,1116.0,3773.0,,,,-1.17558413049814,-2.97323438801781,-1.17382284317637,,-1.9993446882298322,,
,6794.0,1021.0,4395.0,1237.0,-234.0,1123.0,3775.0,,,,-1.17551373616376,-2.97318317861158,-1.17354467836124,,-2.0270738327862494,,
,6795.0,1018.0,4393.0,1235.0,-248.0,1125.0,3807.0,,,,-1.17449459581656,-2.97307200560656,-1.17358502730271,,-2.052193825317927,,
,6796.0,1023.0,4394.0,1237.0,-250.0,1131.0,3832.0,,,,-1.17372682364296,-2.97290757595709,-1.17323294938141,,-2.0792345925386284,,
,6797.0,1024.0,4398.0,1239.0,-255.0,1101.0,3803.0,,,,-1.17444368072618,-2.97294365458519,-1.17387701038147,,-2.111445320372941,,
,6794.0,1023.0,4396.0,1238.0,-253.0,1101.0,3806.0,,,,-1.17409924797526,-2.97286150206142,-1.17354589741117,,-2.150375979059173,,
,6795.0,1019.0,4395.0,1236.0,-245.0,1125.0,3788.0,,,,-1.17448736466167,-2.97300796139564,-1.17307897786068,,-2.1955836836206353,,
,6794.0,1021.0,4396.0,1235.0,-242.0,1137.0,3779.0,,,,-1.17474376291429,-2.9729598399825,-1.17334150683852,,-2.2445041185557564,,
,6794.0,1022.0,4399.0,1238.0,-241.0,1151.0,3781.0,,,,-1.17434387000101,-2.9729088630016,-1.17363056729054,,-2.2925156161050615,,
,6794.0,1023.0,4398.0,1238.0,-237.0,1149.0,3780.0,,,,-1.17384649782796,-2.97289628837974,-1.17363436698872,,-2.333206168337303,,
,6796.0,1019.0,4397.0,1237.0,-256.0,1124.0,3800.0,,,,-1.17313024395879,-2.97285389380938,-1.17242248182349,,-2.3588324268630636,,
,6796.0,1022.0,4401.0,1238.0,-235.0,1124.0,3799.0,,,,-1.17237541719127,-2.9728835004751,-1.17326644003711,,-2.36093645656396,,
,6795.0,1025.0,4403.0,1237.0,-229.0,1124.0,3805.0,,,,-1.17248452840889,-2.97288378921688,-1.17247448490392,,-2.331064020918585,,
,6795.0,1021.0,4399.0,1236.0,-228.0,1124.0,3814.0,,,,-1.17225950412541,-2.97285210384227,-1.17262272487116,,-2.261512002657495,,
,6794.0,1018.0,4398.0,1235.0,-259.0,1105.0,3809.0,,,,-1.17243034661125,-2.97284109601912,-1.17261278400956,,-2.1460263244051028,,
,6796.0,1019.0,4400.0,1236.0,-234.0,1091.0,3789.0,,,,-1.17313203708981,-2.97301061007136,-1.17262495401715,,-1.980377241802492,,
,6799.0,1021.0,4402.0,1238.0,-232.0,1099.0,3784.0,,,,-1.17476758310412,-2.97293632125483,-1.17373083038852,,-1.7627549375650644,,
,6800.0,1025.0,4403.0,1239.0,-241.0,1119.0,3803.0,,,,-1.17589791755003,-2.97304059242424,-1.17354530273524,,-1.493951666106706,,
,6798.0,1021.0,4401.0,1236.0,-251.0,1131.0,3796.0,,,,-1.1772328434702,-2.97330093507715,-1.17536044376002,,-1.1773233806047863,,
,6802.0,1023.0,4403.0,1239.0,-221.0,1127.0,3785.0,,,,-1.17807757284921,-2.97330615315227,-1.17567691412999,,-0.8185500585759696,,
,6805.0,1022.0,4405.0,1240.0,-239.0,1117.0,3798.0,,,,-1.17930991954551,-2.97336510109182,-1.17593991560786,,-0.4252362535802299,,
,6806.0,1022.0,4406.0,1238.0,-241.0,1113.0,3791.0,,,,-1.18011508749862,-2.97342088530314,-1.17589983428263,,-0.006408594372345541,,
,6806.0,1024.0,4406.0,1240.0,-251.0,1127.0,3800.0,,,,-1.18092202773966,-2.97348591205703,-1.17692690834496,,0.4280268801604499,,
,6807.0,1023.0,4408.0,1239.0,-256.0,1127.0,3820.0,,,,-1.18181223267366,-2.97365713266894,-1.17727771254254,,0.8678075533453613,,
,6810.0,1025.0,4408.0,1240.0,-255.0,1128.0,3808.0,,,,-1.1831860201505,-2.9736925010975,-1.17793148030065,,1.3027675628155815,,
,6811.0,1024.0,4411.0,1243.0,-253.0,1118.0,3811.0,,,,-1.18328349293953,-2.97379188732159,-1.17839784735982,,1.7231873858315572,,
,6809.0,1022.0,4406.0,1240.0,-247.0,1112.0,3799.0,,,,-1.18411993243064,-2.97379203894585,-1.17799870188112,,2.1200237647226956,,
,6811.0,1024.0,4409.0,1242.0,-246.0,1115.0,3788.0,,,,-1.18403868664496,-2.97388788741884,-1.17753198643441,,2.4850235586740896,,
,6814.0,1025.0,4413.0,1244.0,-242.0,1125.0,3762.0,,,,-1.18478947031811,-2.97384881831051,-1.17863382731219,,2.8107440149526046,,
,6816.0,1027.0,4414.0,1245.0,-227.0,1126.0,3758.0,,,,-1.18447025603087,-2.97373547338639,-1.1780071515562,,3.0905177457203314,,
,6818.0,1025.0,4411.0,1244.0,-243.0,1121.0,3795.0,,,,-1.18448643589526,-2.97390129167375,-1.17841175585526,,3.3184098886597324,,
2025-08-20 17:37:24,6816.0,1024.0,4415.0,1242.0,-236.0,1112.0,3812.0,,,2025/08/20 05:37:24 PM,-1.18439181326855,-2.97381658666915,-1.17858218625787,,3.48921421096645,,
,6821.0,1024.0,4415.0,1244.0,-263.0,1129.0,3802.0,,,,-1.18409603460912,-2.97373949171286,-1.17848499019005,,3.5985232095036483,,
,6823.0,1029.0,4419.0,1246.0,-261.0,1129.0,3807.0,,,,-1.18360470951992,-2.97378332802257,-1.17825165107827,,3.6428869556583545,,
,6823.0,1024.0,4418.0,1245.0,-268.0,1135.0,3794.0,,,,-1.18354203103347,-2.97373099835575,-1.17823820215152,,3.6200516161536456,,
,6823.0,1026.0,4418.0,1246.0,-261.0,1130.0,3776.0,,,,-1.18307070703091,-2.9738262758166,-1.17818822646987,,3.5292469004391793,,
,6826.0,1028.0,4419.0,1247.0,-247.0,1119.0,3784.0,,,,-1.18340953933579,-2.97366501379513,-1.17778073388193,,3.371476446020548,,
,6826.0,1027.0,4423.0,1248.0,-232.0,1132.0,3791.0,,,,-1.18345784483942,-2.97374397308267,-1.17783836031977,,3.149758552829686,,
,6828.0,1028.0,4421.0,1247.0,-234.0,1125.0,3795.0,,,,-1.18424815405259,-2.97384388296993,-1.17704996547221,,2.869267017459185,,
,6829.0,1026.0,4422.0,1245.0,-254.0,1112.0,3802.0,,,,-1.1836942480475,-2.97371237995288,-1.17799871488592,,2.5373319717402065,,
,6835.0,1029.0,4424.0,1248.0,-244.0,1136.0,3797.0,,,,-1.18330673970526,-2.97371681549974,-1.17787292859931,,2.1632764094980965,,
,6834.0,1030.0,4423.0,1249.0,-245.0,1130.0,3799.0,,,,-1.18389604270228,-2.97374897207215,-1.17853003098854,,1.7580827306340692,,
,6837.0,1028.0,4424.0,1248.0,-246.0,1127.0,3808.0,,,,-1.18344536060862,-2.97367511728772,-1.17829999625913,,1.3339025587380398,,
,6838.0,1028.0,4424.0,1246.0,-233.0,1134.0,3805.0,,,,-1.18295108105755,-2.97362067711289,-1.1778044734239,,0.9034404977054857,,
,6836.0,1030.0,4427.0,1249.0,-251.0,1120.0,3816.0,,,,-1.18304813500172,-2.97370443371217,-1.17815737367633,,0.47925738431108794,,
,6841.0,1029.0,4429.0,1250.0,-261.0,1123.0,3806.0,,,,-1.18329062786122,-2.97362538348767,-1.17805797254515,,0.07305015297592962,,
,6842.0,1029.0,4430.0,1249.0,-239.0,1157.0,3789.0,,,,-1.1834260241176,-2.97369840026878,-1.17744955882486,,-0.3050277403286291,,
,6844.0,1029.0,4430.0,1250.0,-244.0,1130.0,3792.0,,,,-1.18341814112177,-2.97378640379379,-1.17754267952504,,-0.6469413350670667,,
,6847.0,1030.0,4430.0,1250.0,-249.0,1093.0,3798.0,,,,-1.18445072510269,-2.97376293059074,-1.17815671283326,,-0.947188910671175,,
,6851.0,1032.0,4432.0,1252.0,-244.0,1096.0,3798.0,,,,-1.18421766861017,-2.97375872706125,-1.17830385304115,,-1.2030169198119167,,
,6851.0,1028.0,4433.0,1252.0,-237.0,1125.0,3786.0,,,,-1.18424710124796,-2.97398887464786,-1.17887283669799,,-1.4144168670567352,,
,6850.0,1030.0,4434.0,1252.0,-259.0,1138.0,3802.0,,,,-1.18402631135552,-2.97388588557057,-1.17800308528559,,-1.5839085021858674,,
,6854.0,1031.0,4433.0,1252.0,-250.0,1136.0,3792.0,,,,-1.18297179768507,-2.97388905402853,-1.17769568541795,,-1.7161343449768374,,
,6855.0,1033.0,4434.0,1251.0,-242.0,1133.0,3792.0,,,,-1.18254174709575,-2.97372121200068,-1.17758294112155,,-1.8173071635481273,,
,6857.0,1032.0,4439.0,1257.0,-236.0,1127.0,3794.0,,,,-1.18169984183095,-2.97361270933885,-1.1770568379882,,-1.8945635464760175,,
,6857.0,1031.0,4437.0,1253.0,-241.0,1142.0,3797.0,,,,-1.18182844940843,-2.97358714366711,-1.17706861641481,,-1.9552827186132575,,
,6862.0,1033.0,4444.0,1255.0,-222.0,1130.0,3786.0,,,,-1.18185958037135,-2.97353231021106,-1.17690254119764,,-2.006430266890589,,
,6864.0,1033.0,4440.0,1257.0,-224.0,1130.0,3792.0,,,,-1.18167102392251,-2.97361673793876,-1.17705326205147,,-2.0539818897826745,,
,6863.0,1032.0,4442.0,1256.0,-220.0,1118.0,3817.0,,,,-1.18227875149357,-2.97363432153578,-1.17731477456644,,-2.102473324940195,,
,6866.0,1033.0,4442.0,1255.0,-237.0,1135.0,3816.0,,,,-1.18226718714366,-2.97354714256196,-1.17702328021898,,-2.154709871338105,,
,6870.0,1033.0,4443.0,1260.0,-234.0,1132.0,3806.0,,,,-1.18247864551438,-2.97376541176372,-1.17756003850319,,-2.2116529743147795,,
,6872.0,1035.0,4443.0,1259.0,-247.0,1124.0,3791.0,,,,-1.1822681060983,-2.97361938340796,-1.17758321033371,,-2.272483025143373,,
,6874.0,1032.0,4445.0,1258.0,-241.0,1121.0,3797.0,,,,-1.18278818186492,-2.97370671693687,-1.17762984404952,,-2.3348184324252634,,
,6877.0,1034.0,4446.0,1255.0,-228.0,1120.0,3798.0,,,,-1.18332462283754,-2.9738195548394,-1.17801451335808,,-2.3950538372234584,,
,6879.0,1037.0,4448.0,1260.0,-241.0,1127.0,3805.0,,,,-1.18365109531655,-2.9736746880194,-1.17813837516952,,-2.4487685323470907,,
,6879.0,1037.0,4451.0,1260.0,-249.0,1124.0,3797.0,,,,-1.18298311992901,-2.9736380815114,-1.17752768900369,,-2.4911525443622264,,
,6883.0,1037.0,4451.0,1261.0,-248.0,1128.0,3787.0,,,,-1.18208441784619,-2.97355858558081,-1.17731155095634,,-2.517402957918357,,
,6882.0,1035.0,4450.0,1258.0,-248.0,1116.0,3793.0,,,,-1.18089142586483,-2.97355887913911,-1.17667241842728,,-2.523054713581289,,
,6888.0,1037.0,4453.0,1264.0,-250.0,1118.0,3790.0,,,,-1.18044533744377,-2.97342310656625,-1.17695535899434,,-2.5042247017249095,,
,6889.0,1039.0,4456.0,1261.0,-250.0,1124.0,3791.0,,,,-1.1800773392486,-2.97334158755373,-1.17606163852604,,-2.457762271178451,,
,6889.0,1039.0,4457.0,1265.0,-258.0,1133.0,3813.0,,,,-1.1801327704441,-2.97339244230325,-1.17765853026868,,-2.3813112925837836,,
,6891.0,1035.0,4455.0,1261.0,-233.0,1101.0,3812.0,,,,-1.17968035253449,-2.97352523603665,-1.17577892885902,,-2.273297799396072,,
,6894.0,1039.0,4457.0,1264.0,-251.0,1113.0,3814.0,,,,-1.17970356499395,-2.973529753984,-1.17637488946147,,-2.1328628008985793,,
,6894.0,1037.0,4458.0,1263.0,-252.0,1120.0,3811.0,,,,-1.17938096526051,-2.97347586797647,-1.17668639537738,,-1.959762537089599,,
,6896.0,1039.0,4461.0,1265.0,-249.0,1115.0,3812.0,,,,-1.17931895962593,-2.97328731664756,-1.17634554992341,,-1.7542591955569726,,
,6897.0,1037.0,4457.0,1262.0,-244.0,1122.0,3795.0,,,,-1.17957604988791,-2.97328538850391,-1.1760405009898,,-1.517024954074982,,
,6896.0,1040.0,4459.0,1263.0,-252.0,1130.0,3772.0,,,,-1.17848250682727,-2.9734416280278,-1.17522758770686,,-1.2490813632304172,,
,6897.0,1041.0,4461.0,1265.0,-239.0,1131.0,3787.0,,,,-1.17810550304505,-2.97326284369538,-1.17566297700422,,-0.9517934946600066,,
,6894.0,1040.0,4459.0,1263.0,-238.0,1132.0,3784.0,,,,-1.17711570020044,-2.97325489011339,-1.1752368492017,,-0.6269321596729771,,
,6890.0,1041.0,4459.0,1264.0,-262.0,1133.0,3804.0,,,,-1.17644003169022,-2.97312519380116,-1.17453290367852,,-0.2768066373164086,,
,6885.0,1039.0,4460.0,1262.0,-234.0,1124.0,3802.0,,,,-1.17658943953628,-2.97308023390038,-1.17456144871257,,0.09554450866776557,,
,6877.0,1040.0,4457.0,1262.0,-232.0,1116.0,3777.0,,,,-1.1767957924765,-2.97304897496109,-1.17419287602454,,0.48613259536557946,,
,6872.0,1038.0,4455.0,1260.0,-238.0,1099.0,3769.0,,,,-1.17594422463238,-2.97307072570445,-1.17408483651701,,0.8898079883394858,,
,6863.0,1035.0,4453.0,1257.0,-264.0,1112.0,3785.0,,,,-1.1754749923743,-2.9729977818279,-1.17437370089462,,1.300104130950209,,
,6858.0,1036.0,4450.0,1254.0,-241.0,1121.0,3796.0,,,,-1.17418267633581,-2.97291944375664,-1.17432965983896,,1.7091783521280068,,
,6851.0,1035.0,4448.0,1255.0,-244.0,1116.0,3790.0,,,,-1.17414738447193,-2.97280897617259,-1.17332587817082,,2.1078822334164182,,
,6845.0,1035.0,4447.0,1254.0,-250.0,1115.0,3784.0,,,,-1.17375910951215,-2.97292386420389,-1.17405714840055,,2.4859811620588235,,
,6838.0,1033.0,4443.0,1251.0,-238.0,1137.0,3787.0,,,,-1.17383207369124,-2.97283463679637,-1.17340166812693,,2.8325271044683356,,
,6835.0,1032.0,4442.0,1249.0,-244.0,1120.0,3793.0,,,,-1.17386613878828,-2.97291047934253,-1.1739544667851,,3.136371558992162,,
,6831.0,1033.0,4442.0,1250.0,-247.0,1111.0,3824.0,,,,-1.17382601007525,-2.97288109124304,-1.17357806645832,,3.386788089157864,,
,6828.0,1033.0,4440.0,1249.0,-244.0,1109.0,3815.0,,,,-1.17418358322215,-2.97284317979933,-1.17388711222526,,3.5741573547362235,,
,6827.0,1031.0,4439.0,1247.0,-261.0,1093.0,3791.0,,,,-1.17408805235345,-2.97295797769236,-1.17318532609259,,3.690654174787506,,
,6824.0,1031.0,4436.0,1246.0,-263.0,1134.0,3791.0,,,,-1.17412136599662,-2.97284125409618,-1.17367210361186,,3.7308680006001698,,
,6820.0,1030.0,4436.0,1246.0,-253.0,1127.0,3802.0,,,,-1.17335185996171,-2.97279232972622,-1.17400973031329,,3.692287218080097,,
,6819.0,1031.0,4435.0,1247.0,-236.0,1122.0,3801.0,,,,-1.1721238680733,-2.97276744482147,-1.17261120656079,,3.575585582447356,,
,6814.0,1029.0,4434.0,1246.0,-246.0,1131.0,3815.0,,,,-1.17248073835971,-2.97273260936172,-1.17358181546326,,3.3846667453868604,,
,6815.0,1030.0,4434.0,1245.0,-247.0,1119.0,3815.0,,,,-1.17238173418969,-2.97269929760447,-1.17225062538398,,3.126449644013096,,
,6815.0,1029.0,4436.0,1244.0,-248.0,1128.0,3777.0,,,,-1.17263477891279,-2.97267015858967,-1.17178280359599,,2.8104102247543774,,
,6814.0,1030.0,4431.0,1244.0,-257.0,1118.0,3797.0,,,,-1.17250422811633,-2.97270849306975,-1.17351189051329,,2.447927441356098,,
,6809.0,1028.0,4428.0,1242.0,-252.0,1122.0,3817.0,,,,-1.17307276500554,-2.9727543833815,-1.17266061781903,,2.0515064017072775,,
,6810.0,1030.0,4434.0,1244.0,-261.0,1147.0,3790.0,,,,-1.17372707983653,-2.97270574702795,-1.17381578497796,,1.633963577605031,,
,6806.0,1030.0,4429.0,1243.0,-255.0,1140.0,3773.0,,,,-1.17434773224686,-2.97282385238167,-1.17390144109596,,1.2076569086493745,,
,6806.0,1029.0,4428.0,1243.0,-252.0,1140.0,3760.0,,,,-1.17480960104711,-2.97282991023238,-1.17335292228033,,0.7838300767245031,,
,6801.0,1027.0,4428.0,1242.0,-248.0,1136.0,3787.0,,,,-1.17465137448086,-2.97294187256253,-1.17338288177741,,0.37211966019877135,,
,6803.0,1029.0,4430.0,1241.0,-252.0,1108.0,3796.0,,,,-1.17405666796142,-2.97282608423139,-1.1728979487418,,-0.019749414917379658,,
,6804.0,1027.0,4429.0,1242.0,-250.0,1118.0,3781.0,,,,-1.17321196579857,-2.97273030845473,-1.17355377463372,,-0.38607741364857057,,
,6803.0,1027.0,4428.0,1242.0,-243.0,1110.0,3794.0,,,,-1.1731406152502,-2.97265910173904,-1.17352853409578,,-0.7231293471387432,,
,6801.0,1027.0,4427.0,1242.0,-253.0,1107.0,3802.0,,,,-1.17211000439955,-2.97267107986915,-1.1726830083778,,-1.0289327861958604,,
,6805.0,1027.0,4426.0,1241.0,-254.0,1100.0,3810.0,,,,-1.17200662690033,-2.97275830254368,-1.17284558784464,,-1.3029760999578959,,
,6800.0,1029.0,4427.0,1242.0,-245.0,1118.0,3803.0,,,,-1.17144134172887,-2.97282180166138,-1.17243194613162,,-1.5458537448755483,,
,6803.0,1028.0,4427.0,1244.0,-249.0,1127.0,3798.0,,,,-1.17220728315835,-2.972677157797,-1.17216734924266,,-1.7589042782539686,,
,6802.0,1027.0,4427.0,1240.0,-251.0,1121.0,3799.0,,,,-1.17179750029993,-2.97257897583215,-1.17204228137432,,-1.9438805623564996,,
,6801.0,1023.0,4429.0,1240.0,-238.0,1121.0,3798.0,,,,-1.17186359401109,-2.97265683873358,-1.17240743467483,,-2.102680658869506,,
,6802.0,1028.0,4430.0,1244.0,-241.0,1129.0,3773.0,,,,-1.17094853152216,-2.97264955111783,-1.1725780864032,,-2.2371534642977307,,
,6801.0,1028.0,4428.0,1242.0,-242.0,1130.0,3761.0,,,,-1.17055208753987,-2.97253400939141,-1.17174266420394,,-2.3489775917499376,,
,6797.0,1027.0,4427.0,1242.0,-250.0,1131.0,3784.0,,,,-1.17008339119376,-2.97253913972004,-1.17130287249338,,-2.439598755724394,,
,6800.0,1026.0,4427.0,1243.0,-252.0,1123.0,3795.0,,,,-1.16932204190691,-2.9724792942649,-1.17118790844027,,-2.5102033104986177,,
,6800.0,1027.0,4428.0,1243.0,-243.0,1095.0,3804.0,,,,-1.16900086385222,-2.97237980951336,-1.17120958558456,,-2.56170520686327,,
,6799.0,1026.0,4425.0,1241.0,-245.0,1108.0,3791.0,,,,-1.16828713615076,-2.97234691944729,-1.17125369165038,,-2.594729374966594,,
,6797.0,1027.0,4427.0,1241.0,-228.0,1125.0,3783.0,,,,-1.16750474317535,-2.97229235940567,-1.17040652055858,,-2.609583526094919,,
,6798.0,1027.0,4427.0,1239.0,-234.0,1109.0,3799.0,,,,-1.16783384651321,-2.97229692695359,-1.17103802844051,,-2.6062196042873795,,
,6798.0,1026.0,4426.0,1242.0,-230.0,1114.0,3810.0,,,,-1.16797208843844,-2.9722600247934,-1.1714558523088,,-2.584193582873223,,
,6799.0,1026.0,4428.0,1241.0,-219.0,1122.0,3810.0,,,,-1.16836058554104,-2.97233921486743,-1.17120039261548,,-2.5426369772307824,,
,6800.0,1025.0,4427.0,1241.0,-246.0,1141.0,3793.0,,,,-1.16831979712321,-2.97233661281849,-1.16996872898463,,-2.4802549143377965,,
,6795.0,1027.0,4428.0,1239.0,-241.0,1127.0,3798.0,,,,-1.16849684045582,-2.97236109979522,-1.17061552387946,,-2.3953638450567087,,
,6796.0,1026.0,4430.0,1240.0,-236.0,1112.0,3801.0,,,,-1.16861936944856,-2.97234202312268,-1.17147308355519,,-2.2859775474815827,,
,6797.0,1026.0,4428.0,1243.0,-239.0,1106.0,3801.0,,,,-1.16842947058147,-2.97234466680016,-1.17152483542186,,-2.1499440631667124,,
,6797.0,1026.0,4429.0,1241.0,-239.0,1114.0,3814.0,,,,-1.16855402462964,-2.9724527569577,-1.16996859507973,,-1.9851299081112264,,
,6799.0,1027.0,4427.0,1241.0,-231.0,1105.0,3819.0,,,,-1.16827600381573,-2.9723300406344,-1.17138724342229,,-1.789642218656554,,
,6800.0,1026.0,4430.0,1243.0,-248.0,1115.0,3808.0,,,,-1.16933185562818,-2.97239290807557,-1.17224364384337,,-1.562074729421247,,
,6800.0,1030.0,4428.0,1239.0,-245.0,1130.0,3807.0,,,,-1.16913514120438,-2.97234937813633,-1.17149375382215,,-1.301759474293168,,
,6800.0,1029.0,4427.0,1243.0,-246.0,1131.0,3822.0,,,,-1.16878115034307,-2.97235183787404,-1.17148164817319,,-1.0090027768310807,,
,6799.0,1029.0,4429.0,1243.0,-248.0,1125.0,3794.0,,,,-1.17016379501277,-2.97254049377239,-1.17150428689425,,-0.6852821255088207,,
,6801.0,1025.0,4428.0,1242.0,-257.0,1127.0,3808.0,,,,-1.17161299947981,-2.97265746304312,-1.17215041889158,,-0.33338130413671624,,
,6802.0,1027.0,4429.0,1241.0,-235.0,1124.0,3799.0,,,,-1.17255855932952,-2.97272271299886,-1.17403341911164,,0.04255432394322927,,
,6805.0,1029.0,4429.0,1241.0,-235.0,1129.0,3796.0,,,,-1.17425778972729,-2.97291519244734,-1.17420354799892,,0.437052719968424,,
,6805.0,1028.0,4430.0,1241.0,-240.0,1117.0,3796.0,,,,-1.17616430303389,-2.97300874081943,-1.17491494473738,,0.8434415127026975,,
,6804.0,1027.0,4431.0,1242.0,-217.0,1108.0,3791.0,,,,-1.17730273409396,-2.9731484905702,-1.1751362988019,,1.2540586122558277,,
,6809.0,1029.0,4433.0,1245.0,-240.0,1119.0,3791.0,,,,-1.17854458082228,-2.9733379362214,-1.17575278978542,,1.6605332545204865,,
,6808.0,1028.0,4432.0,1243.0,-253.0,1118.0,3784.0,,,,-1.1803247197863,-2.97348852168957,-1.17621195375371,,2.0541188276857922,,
,6809.0,1030.0,4434.0,1245.0,-266.0,1121.0,3782.0,,,,-1.18041958295124,-2.97356696537499,-1.17632851092561,,2.4260556315123765,,
,6812.0,1028.0,4432.0,1243.0,-247.0,1120.0,3770.0,,,,-1.18190238416594,-2.97352054042331,-1.17642274600044,,2.7679398882112425,,
,6814.0,1029.0,4435.0,1244.0,-241.0,1112.0,3789.0,,,,-1.18212382320359,-2.97362742263397,-1.17691209809151,,3.072074659559393,,
,6814.0,1030.0,4435.0,1246.0,-243.0,1114.0,3780.0,,,,-1.18221114731974,-2.97357606254818,-1.17760711834544,,3.3317787169457773,,
,6817.0,1028.0,4435.0,1243.0,-241.0,1139.0,3749.0,,,,-1.18344585859004,-2.9736722686008,-1.17744973817102,,3.5416311195585033,,
,6817.0,1031.0,4437.0,1245.0,-236.0,1118.0,3801.0,,,,-1.18400309991716,-2.97369961639188,-1.17801764936881,,3.6976331072331714,,
,6821.0,1030.0,4435.0,1245.0,-247.0,1119.0,3795.0,,,,-1.18401012299349,-2.97372057081182,-1.17824048873482,,3.7972760100126077,,
,6819.0,1028.0,4437.0,1246.0,-245.0,1119.0,3790.0,,,,-1.18364271006964,-2.97370136176131,-1.17848932215116,,3.8395147280028143,,
,6823.0,1031.0,4440.0,1247.0,-243.0,1127.0,3791.0,,,,-1.18374070238078,-2.97368525849263,-1.17851762075993,,3.8246597584849513,,
,6825.0,1031.0,4438.0,1248.0,-251.0,1107.0,3818.0,,,,-1.18343118356091,-2.97362523371741,-1.17829342082606,,3.7542133685235144,,
,6826.0,1032.0,4438.0,1248.0,-238.0,1126.0,3782.0,,,,-1.18346063062014,-2.97362247141139,-1.17801887439236,,3.6306829326231047,,
,6828.0,1031.0,4439.0,1245.0,-235.0,1129.0,3800.0,,,,-1.18333752487951,-2.97362698736575,-1.17784831387535,,3.457403826288045,,
,6830.0,1031.0,4441.0,1248.0,-237.0,1132.0,3792.0,,,,-1.18383137657824,-2.97366669463542,-1.17791319230512,,3.2383960688241027,,
,6830.0,1029.0,4441.0,1247.0,-232.0,1126.0,3801.0,,,,-1.18444253405118,-2.97359211339348,-1.17794606578639,,2.978266308683288,,
,6835.0,1033.0,4442.0,1251.0,-246.0,1118.0,3800.0,,,,-1.18411537720247,-2.97370742549721,-1.1781315625356,,2.6821535352233226,,
,6834.0,1034.0,4443.0,1249.0,-241.0,1118.0,3790.0,,,,-1.1839726382948,-2.97366032153252,-1.17738913729183,,2.35570595120016,,
,6836.0,1033.0,4444.0,1250.0,-241.0,1122.0,3798.0,,,,-1.18463274740758,-2.97372845373619,-1.17770002067898,,2.005069265031279,,
,6838.0,1033.0,4446.0,1250.0,-247.0,1123.0,3797.0,,,,-1.18505921794922,-2.97379468627184,-1.17867073897799,,1.63686366542591,,
,6838.0,1032.0,4444.0,1252.0,-246.0,1120.0,3801.0,,,,-1.18547631635407,-2.97381224189073,-1.1784244982416,,1.2581275895545811,,
2025-08-20 17:37:25,6842.0,1034.0,4446.0,1250.0,-241.0,1118.0,3794.0,,,2025/08/20 05:37:25 PM,-1.18567592658535,-2.97385710345567,-1.17839788138287,,0.876210310988659,,
,6842.0,1031.0,4446.0,1250.0,-233.0,1139.0,3788.0,,,,-1.18622104625086,-2.97393630958177,-1.17816667670476,,0.4986014977064653,,
,6841.0,1033.0,4449.0,1253.0,-243.0,1123.0,3781.0,,,,-1.1863467760313,-2.97388002981734,-1.17865897413714,,0.13269371314824352,,
,6845.0,1034.0,4450.0,1252.0,-236.0,1125.0,3786.0,,,,-1.18672495947834,-2.97400827277621,-1.17996878367778,,-0.21451670506249937,,
,6847.0,1036.0,4451.0,1255.0,-233.0,1119.0,3789.0,,,,-1.18778571201892,-2.97396249920708,-1.17900576135481,,-0.5367739075015552,,
,6849.0,1036.0,4451.0,1254.0,-231.0,1112.0,3801.0,,,,-1.18773190923373,-2.97402319305454,-1.17973406115912,,-0.8289236306218384,,
,6850.0,1032.0,4450.0,1253.0,-237.0,1137.0,3792.0,,,,-1.18766972335961,-2.97408382354515,-1.18020020328439,,-1.0872523604823905,,
,6852.0,1035.0,4453.0,1256.0,-241.0,1117.0,3797.0,,,,-1.187325835154,-2.97406871494243,-1.17900764714517,,-1.3097599178361672,,
,6856.0,1036.0,4454.0,1253.0,-250.0,1117.0,3803.0,,,,-1.18753492181081,-2.97393166512847,-1.17965468334098,,-1.4963223889042818,,
,6857.0,1038.0,4453.0,1254.0,-248.0,1131.0,3798.0,,,,-1.18710952211028,-2.97410042110295,-1.1796483365129,,-1.6487119840114204,,
,6858.0,1035.0,4455.0,1253.0,-246.0,1130.0,3809.0,,,,-1.18558347460795,-2.9738712302524,-1.1792379235932,,-1.7704560839996655,,
,6861.0,1036.0,4455.0,1256.0,-239.0,1130.0,3809.0,,,,-1.18651160965825,-2.97391706990207,-1.17874857864611,,-1.866535978979162,,
,6862.0,1036.0,4458.0,1256.0,-227.0,1123.0,3809.0,,,,-1.18632347228926,-2.97385530305977,-1.17903729552491,,-1.942943537260192,,
,6863.0,1035.0,4459.0,1257.0,-223.0,1125.0,3817.0,,,,-1.18654428518793,-2.9738582276915,-1.17927194321608,,-2.006129363582724,,
,6866.0,1037.0,4459.0,1256.0,-225.0,1127.0,3796.0,,,,-1.18728379378132,-2.97389629275628,-1.17974270003659,,-2.0623879565858334,,
,6866.0,1037.0,4462.0,1258.0,-233.0,1129.0,3756.0,,,,-1.18698463207464,-2.9738817348391,-1.17967014202244,,-2.11723336108297,,
,6871.0,1040.0,4461.0,1261.0,-223.0,1114.0,3786.0,,,,-1.18744220985153,-2.97379929091478,-1.17884258062267,,-2.174822305785583,,
,6869.0,1039.0,4464.0,1259.0,-225.0,1120.0,3793.0,,,,-1.18819674451226,-2.97390010621739,-1.17943279187,,-2.237480432064785,,
,6872.0,1035.0,4461.0,1256.0,-225.0,1106.0,3788.0,,,,-1.18791738027986,-2.97409797385333,-1.18004075855467,,-2.3053807852743833,,
,6876.0,1037.0,4465.0,1259.0,-237.0,1119.0,3792.0,,,,-1.18840082860039,-2.97416021554381,-1.18049746962791,,-2.3764122662125637,,
,6876.0,1038.0,4466.0,1261.0,-235.0,1119.0,3810.0,,,,-1.18829421775463,-2.97415017361655,-1.18098523713083,,-2.4462594409146967,,
,6879.0,1039.0,4467.0,1260.0,-236.0,1126.0,3825.0,,,,-1.18844434108141,-2.97403244060677,-1.18013399401586,,-2.508694666396449,,
,6881.0,1041.0,4466.0,1259.0,-229.0,1133.0,3802.0,,,,-1.18850111358292,-2.97389137622299,-1.18055658090722,,-2.556060567405948,,
,6882.0,1040.0,4468.0,1260.0,-230.0,1113.0,3804.0,,,,-1.18796823337193,-2.97395548489442,-1.1806700165565,,-2.5798986035491,,
,6886.0,1040.0,4471.0,1261.0,-246.0,1109.0,3792.0,,,,-1.18758639059784,-2.97404345977244,-1.18081966582566,,-2.5716620099196326,,
,6886.0,1039.0,4469.0,1264.0,-255.0,1108.0,3790.0,,,,-1.18806901568632,-2.97401320853521,-1.18041317909383,,-2.5234424596848686,,
,6890.0,1040.0,4472.0,1264.0,-236.0,1112.0,3800.0,,,,-1.18826789599234,-2.97396079039415,-1.17984462679191,,-2.4286407399074257,,
,6891.0,1042.0,4470.0,1263.0,-229.0,1132.0,3782.0,,,,-1.18715849067956,-2.97388641331876,-1.17983219122118,,-2.2825213165446905,,
,6893.0,1041.0,4473.0,1263.0,-229.0,1149.0,3772.0,,,,-1.18705535537858,-2.97380645854124,-1.18016401292498,,-2.0826063725623305,,
,6894.0,1040.0,4473.0,1265.0,-220.0,1146.0,3776.0,,,,-1.18636372522335,-2.97385256663627,-1.17987587914757,,-1.8288843292820776,,
,6894.0,1043.0,4474.0,1264.0,-231.0,1130.0,3768.0,,,,-1.18588717510052,-2.97385194565335,-1.17918777645112,,-1.523829035941469,,
,6898.0,1043.0,4475.0,1264.0,-233.0,1128.0,3773.0,,,,-1.18531099925957,-2.97392243757389,-1.17912524068733,,-1.1722466380712975,,
,6902.0,1045.0,4480.0,1266.0,-237.0,1131.0,3802.0,,,,-1.18542046307758,-2.97390641276433,-1.17813693240176,,-0.7809850059397091,,
,6903.0,1044.0,4480.0,1267.0,-239.0,1129.0,3806.0,,,,-1.18691917044834,-2.97397926176648,-1.17830907015645,,-0.3585528448220992,,
,6903.0,1045.0,4481.0,1267.0,-240.0,1141.0,3811.0,,,,-1.18554238794832,-2.97379061524682,-1.17873961861307,,0.08529971436061991,,
,6904.0,1045.0,4482.0,1266.0,-244.0,1137.0,3814.0,,,,-1.18485348914386,-2.97375543831086,-1.17908028459688,,0.5399908472922289,,
,6906.0,1046.0,4483.0,1267.0,-238.0,1146.0,3791.0,,,,-1.18448385292183,-2.97382168870441,-1.17889806958116,,0.9944702496325627,,
,6908.0,1045.0,4485.0,1269.0,-234.0,1129.0,3769.0,,,,-1.1842702834891,-2.97365253475236,-1.17853429358744,,1.4375164524712267,,
,6909.0,1046.0,4484.0,1270.0,-228.0,1149.0,3778.0,,,,-1.18396930297189,-2.97373382071843,-1.17870674559642,,1.857969632636526,,
,6906.0,1043.0,4482.0,1268.0,-246.0,1141.0,3774.0,,,,-1.18383490482066,-2.97373279130544,-1.17856939103061,,2.2449213003325474,,
,6905.0,1045.0,4485.0,1267.0,-225.0,1126.0,3805.0,,,,-1.18376795143731,-2.97360265924963,-1.17862694270878,,2.5878964347508413,,
,6899.0,1046.0,4482.0,1268.0,-233.0,1114.0,3792.0,,,,-1.18372766690808,-2.97369744954224,-1.17791543256508,,2.877067580431601,,
,6895.0,1043.0,4480.0,1265.0,-223.0,1109.0,3803.0,,,,-1.1835133580481,-2.97361288043905,-1.17821796868177,,3.103532328101835,,
,6889.0,1043.0,4478.0,1263.0,-221.0,1113.0,3785.0,,,,-1.18296655690345,-2.97375580333592,-1.17839736869746,,3.259667369532788,,
,6885.0,1042.0,4476.0,1263.0,-229.0,1105.0,3803.0,,,,-1.18380360453322,-2.97369574038032,-1.17797976123073,,3.339548564815061,,
,6875.0,1042.0,4474.0,1262.0,-233.0,1109.0,3819.0,,,,-1.18349525846496,-2.97371151560892,-1.178522587432,,3.33940260112343,,
,6869.0,1042.0,4471.0,1260.0,-231.0,1127.0,3806.0,,,,-1.18305659004595,-2.97368246590634,-1.17785028333898,,3.2580365603089287,,
,6864.0,1041.0,4467.0,1257.0,-226.0,1130.0,3785.0,,,,-1.18356580242099,-2.97376079446658,-1.17823063380298,,3.0971806304126654,,
,6858.0,1039.0,4468.0,1256.0,-237.0,1133.0,3798.0,,,,-1.18341532772954,-2.97361052310406,-1.17815656080778,,2.861678752520305,,
,6856.0,1040.0,4462.0,1255.0,-255.0,1129.0,3797.0,,,,-1.18313906647979,-2.97363061697145,-1.17836413096588,,2.5594731003088915,,
,6851.0,1040.0,4460.0,1255.0,-247.0,1139.0,3790.0,,,,-1.18356194604222,-2.97371058299321,-1.17856528891189,,2.2013496250367677,,
,6845.0,1039.0,4458.0,1251.0,-235.0,1125.0,3795.0,,,,-1.18326110645271,-2.973720023156,-1.17847626321599,,1.8004399389542463,,
,6842.0,1037.0,4457.0,1249.0,-233.0,1137.0,3781.0,,,,-1.18372990886947,-2.97371486185667,-1.17808517708148,,1.37150493565473,,
,6841.0,1038.0,4455.0,1251.0,-218.0,1139.0,3787.0,,,,-1.18379129806152,-2.97365416799734,-1.17770426835951,,0.9300534564364951,,
,6840.0,1039.0,4455.0,1252.0,-229.0,1138.0,3783.0,,,,-1.18435252138258,-2.97371466218031,-1.17834309790443,,0.49137168397361863,,
,6840.0,1036.0,4453.0,1249.0,-246.0,1142.0,3788.0,,,,-1.18442130452468,-2.97364560682793,-1.17855289879069,,0.06955313284333901,,
,6837.0,1035.0,4450.0,1252.0,-258.0,1149.0,3785.0,,,,-1.1838474863143,-2.97375139927498,-1.17854437486682,,-0.32337719687702626,,
,6836.0,1036.0,4454.0,1250.0,-234.0,1115.0,3789.0,,,,-1.18368564188182,-2.9737602581694,-1.1786700455867,,-0.678159110672645,,
,6833.0,1037.0,4448.0,1250.0,-242.0,1108.0,3797.0,,,,-1.18437696199744,-2.97363989463818,-1.17894919339073,,-0.9887478833143745,,
,6831.0,1034.0,4448.0,1247.0,-261.0,1092.0,3809.0,,,,-1.18411571422156,-2.97380379121416,-1.17847511752167,,-1.2524804924632704,,
,6832.0,1037.0,4450.0,1250.0,-247.0,1090.0,3790.0,,,,-1.18388991638271,-2.97378097425431,-1.17748068623026,,-1.4699492393766662,,
,6831.0,1036.0,4448.0,1249.0,-239.0,1116.0,3825.0,,,,-1.18390907184592,-2.9737078377437,-1.178798498846,,-1.6446041787582582,,
,6830.0,1033.0,4446.0,1247.0,-226.0,1126.0,3822.0,,,,-1.18377270227357,-2.97373112630431,-1.17796381283198,,-1.78213120449173,,
,6825.0,1033.0,4442.0,1246.0,-230.0,1130.0,3773.0,,,,-1.18367315520025,-2.97362580144233,-1.17925411204583,,-1.88967192139131,,
,6827.0,1033.0,4445.0,1247.0,-251.0,1128.0,3794.0,,,,-1.1828591619743,-2.97354364658244,-1.17833720124671,,-1.97496344404924,,
,6828.0,1035.0,4446.0,1243.0,-251.0,1131.0,3787.0,,,,-1.18255943453029,-2.97361413697977,-1.17764513655521,,-2.0454805249460035,,
,6829.0,1033.0,4444.0,1247.0,-250.0,1118.0,3801.0,,,,-1.18250401126194,-2.97367059002995,-1.17800134758168,,-2.1076590694991646,,
,6827.0,1033.0,4441.0,1246.0,-254.0,1121.0,3798.0,,,,-1.18251324624413,-2.97354910955976,-1.17729444555425,,-2.1662697311617234,,
,6829.0,1035.0,4443.0,1246.0,-241.0,1111.0,3812.0,,,,-1.18255837739545,-2.97370198690256,-1.17800880324285,,-2.2239937108744394,,
,6830.0,1036.0,4445.0,1244.0,-237.0,1096.0,3815.0,,,,-1.18306116459001,-2.97354211473157,-1.1780438002891,,-2.2812312368181527,,
,6829.0,1036.0,4445.0,1245.0,-235.0,1096.0,3816.0,,,,-1.18336287503913,-2.97364566086976,-1.17849497578332,,-2.3361482414394654,,
,6829.0,1033.0,4441.0,1245.0,-236.0,1110.0,3805.0,,,,-1.18325217097579,-2.97355738906327,-1.17870523429194,,-2.3849412044702367,,
,6830.0,1034.0,4442.0,1245.0,-214.0,1130.0,3810.0,,,,-1.18356991176739,-2.97359298671794,-1.17803444615383,,-2.422277626517927,,
,6833.0,1036.0,4444.0,1246.0,-233.0,1150.0,3804.0,,,,-1.18363451644963,-2.97370187762119,-1.17819437956176,,-2.441853884461264,,
,6829.0,1036.0,4443.0,1245.0,-231.0,1143.0,3809.0,,,,-1.18395496229737,-2.97368885337117,-1.17865026772418,,-2.437005653338917,,
,6830.0,1033.0,4443.0,1247.0,-220.0,1122.0,3797.0,,,,-1.1827288198945,-2.97370731319395,-1.17802915589889,,-2.40130850576769,,
,6830.0,1033.0,4441.0,1246.0,-235.0,1111.0,3795.0,,,,-1.18287422915229,-2.97368731081578,-1.17817479497959,,-2.3291154401400966,,
,6831.0,1034.0,4442.0,1246.0,-235.0,1097.0,3816.0,,,,-1.18309027129616,-2.9735558877208,-1.17799105281367,,-2.21599109999829,,
,6828.0,1034.0,4443.0,1246.0,-236.0,1104.0,3810.0,,,,-1.18261228933464,-2.97356857137437,-1.17742498595844,,-2.0590172507664786,,
,6827.0,1036.0,4441.0,1246.0,-225.0,1122.0,3797.0,,,,-1.18281175878964,-2.97366021886964,-1.17779578759392,,-1.8569595709093691,,
,6828.0,1033.0,4439.0,1243.0,-225.0,1118.0,3780.0,,,,-1.18248800808268,-2.97361274129407,-1.17788838115042,,-1.6103012517776523,,
,6829.0,1034.0,4442.0,1246.0,-224.0,1113.0,3788.0,,,,-1.18273256147781,-2.97364610644529,-1.17829723012299,,-1.3211632916448641,,
,6827.0,1033.0,4439.0,1243.0,-221.0,1110.0,3797.0,,,,-1.18262963817023,-2.97354808152161,-1.17838725105389,,-0.9931432560607237,,
,6826.0,1034.0,4438.0,1245.0,-221.0,1123.0,3775.0,,,,-1.18295385870829,-2.97370985235179,-1.17799332533164,,-0.6311118242257054,,
,6828.0,1035.0,4436.0,1246.0,-212.0,1131.0,3763.0,,,,-1.18294146333382,-2.97355373488036,-1.17858475954009,,-0.24100775057778492,,
,6825.0,1033.0,4436.0,1244.0,-238.0,1111.0,3768.0,,,,-1.18208551624818,-2.97345173909762,-1.17786637411335,,0.17033441628094656,,
,6826.0,1033.0,4436.0,1245.0,-240.0,1106.0,3788.0,,,,-1.18183214826695,-2.97344297108164,-1.17733271755418,,0.5953034204851657,,
,6826.0,1034.0,4440.0,1245.0,-236.0,1109.0,3802.0,,,,-1.18176216107121,-2.97350035250723,-1.1776877765921,,1.0255763125842712,,
,6824.0,1033.0,4435.0,1245.0,-234.0,1115.0,3799.0,,,,-1.18210691317883,-2.97355725792251,-1.17706355788949,,1.4521496231289086,,
,6827.0,1031.0,4439.0,1244.0,-248.0,1094.0,3799.0,,,,-1.18192495704192,-2.97340740803079,-1.17648896342947,,1.8653741157643324,,
,6829.0,1033.0,4435.0,1245.0,-248.0,1101.0,3791.0,,,,-1.18135185332119,-2.97334698476202,-1.17806082186441,,2.2550387727142573,,
,6828.0,1034.0,4436.0,1243.0,-255.0,1103.0,3792.0,,,,-1.18096481197004,-2.97346061353196,-1.17781808686082,,2.610546503780607,,
,6826.0,1034.0,4436.0,1245.0,-255.0,1125.0,3772.0,,,,-1.18163544310059,-2.97343833915999,-1.17739910584229,,2.9212105141403804,,
,6828.0,1035.0,4439.0,1245.0,-239.0,1132.0,3757.0,,,,-1.18208773971306,-2.97353177589458,-1.17820689453893,,3.1766797356606524,,
,6831.0,1037.0,4437.0,1245.0,-237.0,1127.0,3781.0,,,,-1.18368030580994,-2.97367581965185,-1.17872578392901,,3.367478257106156,,
,6833.0,1035.0,4436.0,1246.0,-239.0,1127.0,3792.0,,,,-1.18676352569738,-2.9739119304261,-1.17972447003391,,3.4856207731340967,,
,6829.0,1034.0,4434.0,1246.0,-251.0,1135.0,3793.0,,,,-1.18864822185311,-2.97414715344467,-1.18010656693753,,3.52524659030158,,
,6835.0,1034.0,4438.0,1244.0,-247.0,1133.0,3794.0,,,,-1.19048235117854,-2.97426279746235,-1.18208051319843,,3.483201374488569,,
,6836.0,1036.0,4438.0,1247.0,-262.0,1123.0,3821.0,,,,-1.19275673833063,-2.97444613362843,-1.18304501008363,,3.359491116789363,,
,6837.0,1035.0,4438.0,1248.0,-252.0,1119.0,3806.0,,,,-1.19512747150589,-2.97461935397759,-1.18437774399251,,3.157538469906527,,
,6838.0,1036.0,4440.0,1247.0,-217.0,1127.0,3788.0,,,,-1.19632714685209,-2.97481913092283,-1.18430332862556,,2.8841879935276684,,
,6838.0,1036.0,4439.0,1245.0,-239.0,1127.0,3778.0,,,,-1.19871705190479,-2.97475821483041,-1.18544954243381,,2.54943267309541,,
,6842.0,1036.0,4438.0,1249.0,-255.0,1133.0,3768.0,,,,-1.19964128529763,-2.97488453338836,-1.1848190603323,,2.1658665501131793,,
,6845.0,1035.0,4440.0,1247.0,-248.0,1128.0,3774.0,,,,-1.19902705719865,-2.97498299595148,-1.18568871821749,,1.7479031815916046,,
,6844.0,1036.0,4441.0,1247.0,-238.0,1104.0,3811.0,,,,-1.19924926165458,-2.97494757924745,-1.18537585051633,,1.3108313898452242,,
,6847.0,1037.0,4441.0,1248.0,-246.0,1110.0,3814.0,,,,-1.19866451387921,-2.97491018368819,-1.18555358306226,,0.8698023183474971,,
,6850.0,1038.0,4442.0,1249.0,-247.0,1136.0,3792.0,,,,-1.19793912999223,-2.97490993379299,-1.18570226511684,,0.4388504351480525,,
,6850.0,1037.0,4445.0,1251.0,-255.0,1139.0,3795.0,,,,-1.19760595352283,-2.97491267699636,-1.18526313269511,,0.03004446906672086,,
,6850.0,1038.0,4440.0,1248.0,-228.0,1133.0,3776.0,,,,-1.19631926488945,-2.97480303174645,-1.18488852723518,,-0.3471550614213743,,
,6853.0,1036.0,4443.0,1249.0,-231.0,1150.0,3770.0,,,,-1.1964024205081,-2.97482407008353,-1.18375390022335,,-0.6862820392863366,,
,6857.0,1039.0,4444.0,1250.0,-236.0,1137.0,3775.0,,,,-1.19638853755639,-2.97484385494119,-1.18464697296248,,-0.983974481892573,,
,6860.0,1037.0,4445.0,1251.0,-232.0,1148.0,3788.0,,,,-1.19664637464854,-2.9748460347265,-1.18495336335718,,-1.2398158771497754,,
,6858.0,1036.0,4442.0,1251.0,-236.0,1127.0,3800.0,,,,-1.19623750641738,-2.97487936827722,-1.18458324079246,,-1.4559407375300897,,
,6862.0,1037.0,4446.0,1251.0,-242.0,1123.0,3773.0,,,,-1.19674188232597,-2.97493863195134,-1.18461855796735,,-1.6364563185124852,,
,6864.0,1037.0,4445.0,1252.0,-242.0,1111.0,3788.0,,,,-1.19636003399935,-2.97477068204652,-1.18492401620605,,-1.7867455977339861,,
,6864.0,1039.0,4447.0,1252.0,-237.0,1113.0,3801.0,,,,-1.19662040076627,-2.97490703538513,-1.18475142289684,,-1.912723192841521,,
,6865.0,1038.0,4447.0,1249.0,-252.0,1114.0,3785.0,,,,-1.19725321525878,-2.97489637199091,-1.18502429237755,,-2.0201159913736038,,
,6868.0,1040.0,4447.0,1251.0,-231.0,1127.0,3806.0,,,,-1.1967696881793,-2.97482336596051,-1.18413661265666,,-2.113834118718743,,
,6867.0,1039.0,4449.0,1252.0,-221.0,1135.0,3802.0,,,,-1.19786164147812,-2.97479486796724,-1.18515404443469,,-2.1974857862334543,,
,6870.0,1040.0,4450.0,1254.0,-229.0,1132.0,3798.0,,,,-1.19722819853961,-2.97467423734996,-1.18502404031649,,-2.2730722151651848,,
,6874.0,1041.0,4450.0,1253.0,-257.0,1115.0,3794.0,,,,-1.19600048389041,-2.97474282598033,-1.1849497218311,,-2.3408776850182282,,
,6875.0,1039.0,4452.0,1255.0,-252.0,1138.0,3779.0,,,,-1.19703709934073,-2.97488559311074,-1.1846393614145,,-2.399547313995393,,
,6880.0,1042.0,4451.0,1254.0,-240.0,1130.0,3802.0,,,,-1.19703628948103,-2.97480641859708,-1.18521925526438,,-2.446324928808495,,
,6880.0,1043.0,4452.0,1258.0,-243.0,1133.0,3798.0,,,,-1.19704852309763,-2.97483608308874,-1.18462664799029,,-2.4774089376224873,,
,6883.0,1041.0,4455.0,1256.0,-242.0,1168.0,3761.0,,,,-1.19726755317829,-2.9749104732734,-1.18475153068395,,-2.48837760034696,,
,6882.0,1040.0,4454.0,1254.0,-252.0,1119.0,3794.0,,,,-1.1963110474611,-2.97473846369111,-1.18426807238778,,-2.4746360291306586,,
,6887.0,1043.0,4454.0,1258.0,-241.0,1131.0,3779.0,,,,-1.19653353094641,-2.974765258098,-1.18483673419444,,-2.4318432291374656,,
,6889.0,1043.0,4457.0,1257.0,-237.0,1142.0,3779.0,,,,-1.19633321987372,-2.97477801903137,-1.18503297892156,,-2.356285798343002,,
2025-08-20 17:37:26,6889.0,1042.0,4457.0,1259.0,-246.0,1124.0,3811.0,,,2025/08/20 05:37:26 PM,-1.19607857377653,-2.97480067248863,-1.18453883687928,,-2.245173776943966,,
,6889.0,1044.0,4456.0,1256.0,-226.0,1115.0,3789.0,,,,-1.19577756940489,-2.97465729241274,-1.18443093665227,,-2.096842916948701,,
,6894.0,1045.0,4461.0,1258.0,-242.0,1112.0,3791.0,,,,-1.19467480009839,-2.9746574145046,-1.18375929386439,,-1.9108563084048478,,
,6893.0,1042.0,4458.0,1258.0,-243.0,1111.0,3780.0,,,,-1.19463090546275,-2.97463718056336,-1.18410322173913,,-1.6880070205506792,,
,6899.0,1045.0,4460.0,1260.0,-260.0,1140.0,3801.0,,,,-1.19547695111322,-2.97471789484447,-1.18459083726166,,-1.430232364100603,,
,6901.0,1042.0,4460.0,1260.0,-260.0,1151.0,3790.0,,,,-1.19625305027705,-2.97472169361358,-1.18467452138003,,-1.140459427522841,,
,6901.0,1045.0,4460.0,1261.0,-255.0,1125.0,3808.0,,,,-1.19643403243059,-2.97477899590867,-1.18395861883539,,-0.8224097435790038,,
,6902.0,1043.0,4465.0,1260.0,-263.0,1127.0,3801.0,,,,-1.197419225227,-2.97488463700383,-1.18466888138647,,-0.48039631973966374,,
,6906.0,1044.0,4466.0,1261.0,-245.0,1120.0,3785.0,,,,-1.19731010896925,-2.97490195357437,-1.18524597696176,,-0.11914636128032066,,
,6908.0,1044.0,4465.0,1261.0,-241.0,1121.0,3800.0,,,,-1.19715299901784,-2.97486141441994,-1.18560793065984,,0.2563238666377201,,
,6908.0,1047.0,4468.0,1262.0,-227.0,1122.0,3779.0,,,,-1.19722973791559,-2.97489355458853,-1.18538263902989,,0.640769132801338,,
,6910.0,1047.0,4467.0,1266.0,-230.0,1130.0,3776.0,,,,-1.1976304920067,-2.97489843292839,-1.18549282033448,,1.028714705775815,,
,6914.0,1046.0,4468.0,1262.0,-242.0,1123.0,3779.0,,,,-1.19749821803245,-2.97485920597084,-1.18465233426082,,1.4144159741120503,,
,6916.0,1046.0,4466.0,1262.0,-242.0,1109.0,3812.0,,,,-1.19689024344305,-2.9748174729451,-1.18538660841506,,1.7918097718245447,,
,6917.0,1047.0,4471.0,1264.0,-242.0,1106.0,3820.0,,,,-1.19726168194268,-2.97500045497292,-1.18502461446894,,2.154491707277556,,
,6918.0,1049.0,4468.0,1264.0,-244.0,1092.0,3799.0,,,,-1.19716918597527,-2.97478348127059,-1.18538909746427,,2.495749030460734,,
,6923.0,1046.0,4470.0,1266.0,-243.0,1102.0,3800.0,,,,-1.19682410592295,-2.97479100111853,-1.18506729474759,,2.808668661178623,,
,6924.0,1047.0,4473.0,1265.0,-253.0,1114.0,3818.0,,,,-1.196209598236,-2.97466660084469,-1.18406317647934,,3.0863275031580812,,
,6925.0,1047.0,4471.0,1265.0,-241.0,1123.0,3818.0,,,,-1.19496940951364,-2.97457424558377,-1.18453334947754,,3.322058953956234,,
,6926.0,1051.0,4477.0,1267.0,-242.0,1127.0,3805.0,,,,-1.19547118670564,-2.97457420056343,-1.18463800829067,,3.5097768794233986,,
,6925.0,1047.0,4471.0,1268.0,-245.0,1120.0,3786.0,,,,-1.19456826655822,-2.97456821075971,-1.18392564247548,,3.6443275044729195,,
,6918.0,1047.0,4472.0,1265.0,-243.0,1116.0,3813.0,,,,-1.19447642244763,-2.97456220365707,-1.1836677094311,,3.72183207033432,,
,6920.0,1049.0,4470.0,1263.0,-236.0,1118.0,3807.0,,,,-1.19417067788607,-2.97442275604331,-1.18314820770803,,3.7399799619106915,,
,6917.0,1050.0,4471.0,1267.0,-215.0,1126.0,3809.0,,,,-1.19271967988173,-2.97432570128622,-1.18357365105041,,3.698234102474956,,
,6910.0,1049.0,4467.0,1263.0,-220.0,1131.0,3801.0,,,,-1.19165106732022,-2.97428203227506,-1.18245654905058,,3.5979180227906307,,
,6901.0,1043.0,4461.0,1260.0,-235.0,1118.0,3805.0,,,,-1.19176271168505,-2.97434513415817,-1.1827020145008,,3.4421669046080927,,
,6895.0,1046.0,4460.0,1260.0,-268.0,1117.0,3803.0,,,,-1.19118757902667,-2.97431475127568,-1.18279276971693,,3.235742108589752,,
,6891.0,1045.0,4458.0,1260.0,-259.0,1134.0,3792.0,,,,-1.19134936376107,-2.97425910507387,-1.18279279265328,,2.984728009689806,,
,6886.0,1045.0,4454.0,1257.0,-245.0,1138.0,3801.0,,,,-1.19062547152523,-2.97431461291762,-1.18235176705584,,2.6961475718380212,,
,6877.0,1044.0,4453.0,1255.0,-252.0,1132.0,3784.0,,,,-1.19066456087,-2.97431687240706,-1.18241593678864,,2.377544411469988,,
,6874.0,1042.0,4445.0,1253.0,-246.0,1139.0,3801.0,,,,-1.19041246544072,-2.97413755605861,-1.18217735899315,,2.036580903531816,,
,6868.0,1042.0,4442.0,1250.0,-237.0,1132.0,3782.0,,,,-1.18960016227208,-2.97410838232993,-1.18170466068813,,1.6806941509604834,,
,6865.0,1041.0,4439.0,1251.0,-241.0,1132.0,3797.0,,,,-1.18941268642347,-2.97410681052928,-1.1816745591603,,1.3168373636947066,,
,6861.0,1040.0,4438.0,1247.0,-252.0,1150.0,3784.0,,,,-1.18938326438004,-2.97412696738388,-1.18152157133489,,0.9513175452766149,,
,6858.0,1040.0,4434.0,1246.0,-226.0,1139.0,3808.0,,,,-1.18926245787784,-2.9742615517942,-1.18152034953103,,0.5897248744478566,,
,6857.0,1041.0,4432.0,1248.0,-224.0,1127.0,3783.0,,,,-1.18886326549336,-2.97408338754097,-1.18137962836734,,0.2369369255933311,,
,6854.0,1040.0,4431.0,1246.0,-224.0,1118.0,3786.0,,,,-1.18809516752583,-2.97397484639268,-1.18174830336179,,-0.10282707448254534,,
,6851.0,1035.0,4427.0,1247.0,-230.0,1123.0,3795.0,,,,-1.18818446648001,-2.97392581930975,-1.1821208303457,,-0.425930047836129,,
,6848.0,1036.0,4423.0,1244.0,-244.0,1121.0,3821.0,,,,-1.18802642873404,-2.97397569333978,-1.17990145204033,,-0.7292459021848142,,
,6849.0,1037.0,4425.0,1245.0,-243.0,1118.0,3787.0,,,,-1.18677442223072,-2.97385769345038,-1.18037199810857,,-1.0101156186395186,,
,6845.0,1039.0,4426.0,1244.0,-237.0,1115.0,3778.0,,,,-1.18716563707833,-2.97377781548335,-1.18114646672207,,-1.2663452580581325,,
,6843.0,1038.0,4422.0,1244.0,-233.0,1115.0,3771.0,,,,-1.18658259152219,-2.9739681218218,-1.18065396461481,,-1.496250845607235,,
,6844.0,1034.0,4419.0,1244.0,-257.0,1107.0,3793.0,,,,-1.18606484591424,-2.97397804784121,-1.18054069930249,,-1.6987438201721534,,
,6841.0,1037.0,4419.0,1240.0,-255.0,1118.0,3792.0,,,,-1.18687769686686,-2.97391791965817,-1.18032511123225,,-1.8734390106346313,,
,6841.0,1038.0,4416.0,1242.0,-235.0,1120.0,3794.0,,,,-1.18613567206952,-2.97384072524734,-1.18028932585146,,-2.0207569819177897,,
,6841.0,1035.0,4416.0,1242.0,-218.0,1129.0,3784.0,,,,-1.18604604028078,-2.97379717607403,-1.17891484250183,,-2.1419869108828973,,
,6837.0,1034.0,4413.0,1241.0,-245.0,1143.0,3783.0,,,,-1.18472931089244,-2.97375412508268,-1.17964207385976,,-2.2392774104199344,,
,6839.0,1033.0,4412.0,1242.0,-249.0,1120.0,3778.0,,,,-1.18408187475339,-2.9736605652519,-1.18026803490146,,-2.3155316002387445,,
,6839.0,1036.0,4413.0,1240.0,-250.0,1100.0,3801.0,,,,-1.18377755751847,-2.97358056117933,-1.17827461838813,,-2.374197482936354,,
,6836.0,1035.0,4411.0,1242.0,-253.0,1101.0,3802.0,,,,-1.18306654525469,-2.97361127079782,-1.17914944027459,,-2.418962017323262,,
,6835.0,1036.0,4408.0,1239.0,-242.0,1105.0,3802.0,,,,-1.18307998633762,-2.97351347108081,-1.17858294863408,,-2.453373802889257,,
,6836.0,1035.0,4408.0,1240.0,-250.0,1107.0,3796.0,,,,-1.18279864700015,-2.97361569055905,-1.1789210768065,,-2.4804325086935677,,
,6836.0,1035.0,4410.0,1242.0,-253.0,1108.0,3783.0,,,,-1.1825855254847,-2.97354356616758,-1.17844689006192,,-2.5021915844997697,,
,6839.0,1037.0,4409.0,1239.0,-254.0,1116.0,3807.0,,,,-1.18277281568397,-2.97348895919822,-1.17843905897934,,-2.5194235180463656,,
,6836.0,1035.0,4404.0,1238.0,-249.0,1129.0,3807.0,,,,-1.18197585132362,-2.97352125253571,-1.17803377462236,,-2.531393606528272,,
,6837.0,1034.0,4406.0,1238.0,-254.0,1141.0,3794.0,,,,-1.18161228294604,-2.97355120352825,-1.17789244588603,,-2.5357791703354864,,
,6837.0,1037.0,4406.0,1240.0,-249.0,1141.0,3812.0,,,,-1.1806812513002,-2.97338062864395,-1.17784937617202,,-2.5287572064555826,,
,6836.0,1034.0,4407.0,1240.0,-240.0,1151.0,3809.0,,,,-1.18040754955514,-2.97336949969423,-1.17772305368368,,-2.505265845669256,,
,6839.0,1034.0,4406.0,1242.0,-244.0,1126.0,3808.0,,,,-1.17965211290206,-2.97320801824535,-1.17695024347165,,-2.459425041879123,,
,6839.0,1035.0,4405.0,1242.0,-250.0,1124.0,3793.0,,,,-1.17928385561495,-2.9731932592128,-1.17663776597123,,-2.3850814470737345,,
,6839.0,1036.0,4406.0,1240.0,-239.0,1098.0,3812.0,,,,-1.17906007841261,-2.97321419803791,-1.17693455641901,,-2.276423827392776,,
,6837.0,1035.0,4406.0,1240.0,-228.0,1104.0,3818.0,,,,-1.17836778000814,-2.97318588722726,-1.17600784050872,,-2.12860192224473,,
,6837.0,1033.0,4401.0,1240.0,-229.0,1122.0,3821.0,,,,-1.17801547848415,-2.97304106908239,-1.17687699333531,,-1.9382771130937209,,
,6838.0,1035.0,4403.0,1239.0,-238.0,1120.0,3795.0,,,,-1.17806227241098,-2.97302687080613,-1.17663749869183,,-1.7040404716763344,,
,6836.0,1036.0,4401.0,1238.0,-238.0,1131.0,3778.0,,,,-1.17787559268439,-2.97306201800281,-1.17638355487425,,-1.4266524969116219,,
,6835.0,1033.0,4401.0,1239.0,-244.0,1120.0,3784.0,,,,-1.1778499348629,-2.9731004598804,-1.17672209983688,,-1.109085120453636,,
,6833.0,1032.0,4397.0,1238.0,-259.0,1106.0,3781.0,,,,-1.17683578821005,-2.9730593027996,-1.17602149680289,,-0.756374150688498,,
,6835.0,1034.0,4398.0,1238.0,-235.0,1126.0,3783.0,,,,-1.17643189270936,-2.97294899546999,-1.17578304157473,,-0.3753135126880414,,
,6835.0,1035.0,4399.0,1238.0,-214.0,1136.0,3792.0,,,,-1.17558792558616,-2.97304983356066,-1.17473699636098,,0.025961996601809024,,
,6836.0,1035.0,4398.0,1238.0,-219.0,1134.0,3801.0,,,,-1.17570142368586,-2.97292519954407,-1.17574757658752,,0.4384520729699287,,
,6834.0,1035.0,4398.0,1239.0,-225.0,1133.0,3790.0,,,,-1.17514215211724,-2.97279849895457,-1.17480697688278,,0.8527721734792688,,
,6835.0,1033.0,4397.0,1235.0,-227.0,1117.0,3767.0,,,,-1.17479773213225,-2.97291932855941,-1.17420723305858,,1.2595955401761287,,
,6836.0,1036.0,4397.0,1238.0,-250.0,1126.0,3791.0,,,,-1.17484791678243,-2.97287064164654,-1.17484375088469,,1.6500216544144761,,
,6836.0,1035.0,4398.0,1236.0,-252.0,1120.0,3803.0,,,,-1.17577244150756,-2.97288929468849,-1.17532951928012,,2.0158494680868007,,
,6836.0,1032.0,4396.0,1239.0,-227.0,1111.0,3812.0,,,,-1.17680121174883,-2.97301701685558,-1.17540531811702,,2.349746985335615,,
,6835.0,1035.0,4395.0,1238.0,-244.0,1122.0,3809.0,,,,-1.17853977329716,-2.97309388877029,-1.17600703646466,,2.64532193597878,,
,6840.0,1035.0,4393.0,1240.0,-241.0,1112.0,3796.0,,,,-1.17998815328283,-2.97334917430073,-1.17698109056779,,2.89711105695349,,
,6840.0,1035.0,4396.0,1239.0,-246.0,1112.0,3805.0,,,,-1.18111044346462,-2.97344324279529,-1.1777805087814,,3.100517020457286,,
,6841.0,1034.0,4397.0,1237.0,-258.0,1112.0,3820.0,,,,-1.181841694902,-2.97353248220178,-1.1779926085191,,3.2517301900085003,,
,6844.0,1035.0,4395.0,1238.0,-237.0,1115.0,3826.0,,,,-1.18346159712922,-2.97362159618936,-1.17886308094102,,3.3476740865029027,,
,6844.0,1035.0,4396.0,1239.0,-233.0,1124.0,3807.0,,,,-1.18400791662397,-2.97385291879464,-1.17889609223839,,3.3860065215216517,,
,6845.0,1033.0,4395.0,1241.0,-241.0,1122.0,3803.0,,,,-1.18506144408992,-2.97393336995597,-1.17951949982108,,3.3651934597053583,,
,6845.0,1037.0,4396.0,1239.0,-222.0,1114.0,3793.0,,,,-1.18556384326105,-2.9739499083822,-1.17970512118783,,3.284653516631417,,
,6844.0,1035.0,4395.0,1240.0,-243.0,1127.0,3795.0,,,,-1.18659077121937,-2.97396768680357,-1.18049599693522,,3.1449525992488994,,
,6850.0,1036.0,4396.0,1241.0,-241.0,1132.0,3786.0,,,,-1.18674197957617,-2.97388658146284,-1.17999299336225,,2.948014647038063,,
,6850.0,1037.0,4397.0,1241.0,-252.0,1129.0,3786.0,,,,-1.18724050545187,-2.97392312957887,-1.18089780021643,,2.69730770675682,,
,6853.0,1035.0,4399.0,1242.0,-253.0,1116.0,3787.0,,,,-1.1869732947138,-2.9739650412382,-1.18106794224838,,2.3979647073364587,,
,6856.0,1034.0,4398.0,1239.0,-227.0,1113.0,3782.0,,,,-1.18734364020738,-2.97401530947869,-1.18055672063528,,2.05680423102394,,
,6855.0,1038.0,4401.0,1243.0,-226.0,1124.0,3771.0,,,,-1.18744416179321,-2.9740480140161,-1.18068892106164,,1.6822267905094495,,
,6858.0,1038.0,4401.0,1241.0,-234.0,1129.0,3807.0,,,,-1.18763504244097,-2.97401616369146,-1.18115842338711,,1.2839749840112729,,
,6858.0,1036.0,4401.0,1246.0,-232.0,1127.0,3802.0,,,,-1.18704939256919,-2.97396157203196,-1.18041744355827,,0.872759949836498,,
,6858.0,1035.0,4402.0,1243.0,-247.0,1135.0,3785.0,,,,-1.18652561402366,-2.97388902757776,-1.1806320359872,,0.45977078554447975,,
,6860.0,1037.0,4401.0,1244.0,-229.0,1134.0,3802.0,,,,-1.18621582288902,-2.97390459965894,-1.18001057788741,,0.05609747924496734,,
,6862.0,1036.0,4402.0,1244.0,-249.0,1109.0,3801.0,,,,-1.18490690786838,-2.97385987283857,-1.17984787504443,,-0.32788924741932324,,
,6865.0,1037.0,4403.0,1244.0,-248.0,1098.0,3794.0,,,,-1.18494351690847,-2.97369809018501,-1.18009438461839,,-0.6831475119697398,,
,6865.0,1040.0,4405.0,1245.0,-241.0,1115.0,3803.0,,,,-1.1847642738991,-2.9737496340129,-1.18008924806979,,-1.0025044697526453,,
,6866.0,1036.0,4404.0,1246.0,-249.0,1124.0,3802.0,,,,-1.18450738430729,-2.9738042670122,-1.17900802615936,,-1.2810708994868778,,
,6870.0,1036.0,4404.0,1246.0,-260.0,1129.0,3781.0,,,,-1.18519306434941,-2.97364187598896,-1.17910312962247,,-1.516484899743043,,
,6870.0,1039.0,4407.0,1247.0,-255.0,1136.0,3779.0,,,,-1.18485059529342,-2.97368103129644,-1.17944163234178,,-1.708957019379295,,
,6872.0,1039.0,4403.0,1246.0,-247.0,1115.0,3776.0,,,,-1.18570855525913,-2.97387162797357,-1.17976799547088,,-1.861109969018652,,
,6873.0,1037.0,4406.0,1247.0,-252.0,1114.0,3811.0,,,,-1.1859010904477,-2.9738662441335,-1.17961651088781,,-1.9776266957924888,,
,6875.0,1039.0,4409.0,1246.0,-252.0,1118.0,3801.0,,,,-1.18560467577708,-2.97374411930035,-1.17930669533673,,-2.0647386744450067,,
,6878.0,1038.0,4410.0,1248.0,-247.0,1124.0,3809.0,,,,-1.18604233605804,-2.97382657027249,-1.18036657555656,,-2.129600435188362,,
,6881.0,1037.0,4408.0,1249.0,-241.0,1129.0,3801.0,,,,-1.18645406651772,-2.97396918995189,-1.18075259428528,,-2.179605843073375,,
,6880.0,1039.0,4410.0,1247.0,-235.0,1136.0,3783.0,,,,-1.18677246051668,-2.97384126414945,-1.18057674228245,,-2.221706050138754,,
,6883.0,1043.0,4413.0,1249.0,-228.0,1133.0,3790.0,,,,-1.18681762595385,-2.97389865366678,-1.18058497237618,,-2.261788331917685,,
,6884.0,1040.0,4413.0,1250.0,-231.0,1134.0,3785.0,,,,-1.18673834501585,-2.9738382881171,-1.18039004504286,,-2.3041694402792623,,
,6887.0,1039.0,4414.0,1251.0,-235.0,1124.0,3782.0,,,,-1.18602746600258,-2.97386401346381,-1.17979478989758,,-2.3512469425888156,,
,6889.0,1043.0,4415.0,1249.0,-249.0,1117.0,3803.0,,,,-1.18567761751081,-2.97386832888243,-1.18018212620249,,-2.403337588303975,,
,6890.0,1040.0,4415.0,1251.0,-241.0,1101.0,3802.0,,,,-1.18541299470883,-2.97376051294584,-1.17988769792136,,-2.4587136794191213,,
,6893.0,1043.0,4416.0,1251.0,-235.0,1108.0,3790.0,,,,-1.18449044638461,-2.97381742740101,-1.1794603377159,,-2.5138280690818853,,
,6897.0,1042.0,4415.0,1250.0,-245.0,1108.0,3803.0,,,,-1.1839456898356,-2.97376473960204,-1.17884790827854,,-2.5636981746544802,,
,6897.0,1043.0,4415.0,1252.0,-249.0,1101.0,3829.0,,,,-1.1837725106392,-2.97366133032132,-1.17876532700733,,-2.6024026523561594,,
,6901.0,1041.0,4416.0,1255.0,-227.0,1094.0,3814.0,,,,-1.18271538851185,-2.97372061779746,-1.17771715091435,,-2.6236345047015566,,
,6900.0,1042.0,4419.0,1255.0,-216.0,1103.0,3800.0,,,,-1.18247888645735,-2.97355543036168,-1.178577471526,,-2.6212530308875435,,
,6902.0,1043.0,4421.0,1254.0,-229.0,1117.0,3785.0,,,,-1.18207666777157,-2.97362640854148,-1.17796690273429,,-2.589783201032901,,
,6902.0,1043.0,4418.0,1253.0,-250.0,1139.0,3782.0,,,,-1.18305359871416,-2.9737252664151,-1.17903893172427,,-2.524821951750798,,
,6906.0,1042.0,4420.0,1256.0,-241.0,1134.0,3791.0,,,,-1.18369074341586,-2.97387017009114,-1.17945146088309,,-2.423323724910891,,
,6912.0,1044.0,4423.0,1255.0,-246.0,1138.0,3773.0,,,,-1.18436170973645,-2.97379461901486,-1.17933482880559,,-2.2837505923244135,,
,6913.0,1045.0,4427.0,1257.0,-246.0,1145.0,3805.0,,,,-1.18522236163494,-2.97385247572475,-1.18030710724204,,-2.1060849680822282,,
