TimeLabel,MEAS1_PPG1,MEAS1_PPG2,MEAS1_PPG3,MEAS1_PPG4,ACCX,ACCY,ACCZ,HR_timestamp,HR_value,radar_timestamp,phase_rx0,phase_rx1,phase_rx2,timestep,n_process,original_rate,calculated_rate
2025-07-21 19:46:54,6064.0,818.0,6751.0,925.0,-378.0,1872.0,3481.0,2025-07-21 19:47:13,95.0,2025/07/21 07:46:54 PM,1.85506460112493,-3.08957404922743,-1.7420744336992,2025/07/21 07:46:54 PM,3.061773906664915,20.801233291625977,22.76372329480119
,6066.0,818.0,6753.0,926.0,-372.0,1861.0,3476.0,2025-07-21 19:47:14,95.0,,1.85585189773354,-3.08934680982923,-1.74177911810225,2025/07/21 07:47:04 PM,3.545631126889911,19.636363983154297,22.056973732889386
,6069.0,817.0,6755.0,926.0,-372.0,1870.0,3494.0,2025-07-21 19:47:15,95.0,,1.85534240629969,-3.08930161739348,-1.74230324388791,2025/07/21 07:47:14 PM,3.984823087554046,20.505809783935547,20.301195979162085
,6071.0,821.0,6759.0,929.0,-386.0,1881.0,3480.0,2025-07-21 19:47:16,95.0,,1.85627139950913,-3.08850963139052,-1.74216935107228,2025/07/21 07:47:24 PM,4.369602422507454,21.01167297363281,21.818181818181817
,6072.0,821.0,6761.0,926.0,-375.0,1876.0,3490.0,2025-07-21 19:47:17,95.0,,1.85550953159101,-3.08930899864336,-1.74248955108808,2025/07/21 07:47:34 PM,4.69097575364365,21.216407775878903,20.6927312436556
,6075.0,821.0,6766.0,930.0,-390.0,1869.0,3483.0,2025-07-21 19:47:18,96.0,,1.85582211589047,-3.08792151943086,-1.74139643553746,2025/07/21 07:47:44 PM,4.941060495072565,20.68965530395508,21.558441558441555
,6076.0,821.0,6763.0,928.0,-368.0,1862.0,3484.0,2025-07-21 19:47:19,96.0,,1.8555083484689,-3.08805262412258,-1.7424669814492,2025/07/21 07:47:54 PM,5.113474883141062,21.18644142150879,21.474277283822325
,6079.0,820.0,6765.0,927.0,-382.0,1851.0,3487.0,2025-07-21 19:47:20,96.0,,1.85620843246871,-3.08892890071515,-1.74194979727688,2025/07/21 07:48:04 PM,5.203719500530604,21.044427871704105,20.895770895770898
,6080.0,821.0,6770.0,929.0,-392.0,1858.0,3484.0,2025-07-21 19:47:21,96.0,,1.85632432350383,-3.08895161227621,-1.74236541776148,2025/07/21 07:48:14 PM,5.209501885228469,21.33712577819824,21.27325890483786
,6083.0,822.0,6775.0,929.0,-393.0,1858.0,3463.0,2025-07-21 19:47:22,95.0,,1.85588357754882,-3.08870721024839,-1.74266027409735,2025/07/21 07:48:24 PM,5.1309574384675685,21.143304824829105,21.632422068997396
,6086.0,823.0,6776.0,929.0,-389.0,1874.0,3458.0,2025-07-21 19:47:23,94.0,,1.85665197743163,-3.08820670668067,-1.74302222607569,2025/07/21 07:48:34 PM,4.970730628470491,21.12676048278809,23.194314010074258
,6084.0,823.0,6775.0,928.0,-373.0,1868.0,3489.0,2025-07-21 19:47:24,94.0,,1.85643615160385,-3.08840144876488,-1.7417171200518,2025/07/21 07:48:44 PM,4.73389897775005,22.205774307250977,24.200603318250373
,6090.0,823.0,6781.0,931.0,-377.0,1878.0,3495.0,2025-07-21 19:47:25,93.0,,1.85709754287943,-3.08853341543983,-1.74214993597357,2025/07/21 07:48:54 PM,4.427744276696325,23.012552261352536,23.198838896952118
,6092.0,826.0,6782.0,933.0,-373.0,1864.0,3509.0,2025-07-21 19:47:26,92.0,,1.85702734785838,-3.0876635783627,-1.74245354042057,2025/07/21 07:49:04 PM,4.061395040417548,23.42086601257324,22.64957264957266
,6094.0,827.0,6786.0,932.0,-382.0,1863.0,3504.0,2025-07-21 19:47:27,92.0,,1.85690846331948,-3.08872349621479,-1.74232625305095,2025/07/21 07:49:14 PM,3.6453767937723014,23.48754501342773,23.49882260596547
,6095.0,826.0,6787.0,932.0,-384.0,1870.0,3468.0,2025-07-21 19:47:28,91.0,,1.85578345815736,-3.08841598940961,-1.74227147430784,2025/07/21 07:49:24 PM,3.1911111487943606,23.45415687561035,23.85466712422785
,6097.0,824.0,6793.0,930.0,-375.0,1866.0,3478.0,2025-07-21 19:47:29,91.0,,1.8562808369091,-3.08833146192592,-1.74331764817861,2025/07/21 07:49:34 PM,2.7104026774367567,23.7906436920166,24.413418879257396
,6105.0,827.0,6795.0,932.0,-383.0,1870.0,3471.0,2025-07-21 19:47:30,91.0,,1.85675949735367,-3.08810028847532,-1.74141597957143,2025/07/21 07:49:44 PM,2.214946936510903,24.03204345703125,21.519349995989046
,6102.0,826.0,6796.0,932.0,-390.0,1884.0,3467.0,2025-07-21 19:47:31,91.0,,1.85746158987468,-3.08867421089195,-1.74201939400595,,1.715885486714307,,
,6104.0,827.0,6798.0,935.0,-382.0,1879.0,3476.0,2025-07-21 19:47:32,91.0,,1.85742965149607,-3.08831427976837,-1.74220313727104,,1.223425313038031,,
,6097.0,825.0,6795.0,933.0,-382.0,1878.0,3480.0,2025-07-21 19:47:33,91.0,,1.85689077888534,-3.08814978161859,-1.74226184493761,,0.7465315774847654,,
,6096.0,826.0,6795.0,932.0,-375.0,1869.0,3485.0,2025-07-21 19:47:34,90.0,,1.85692077332924,-3.08846424194451,-1.74174483563271,,0.29269539593814947,,
,6094.0,826.0,6791.0,934.0,-373.0,1886.0,3507.0,2025-07-21 19:47:35,90.0,,1.85680107453921,-3.08837577880078,-1.74285004421141,,-0.13222616938493476,,
,6088.0,822.0,6787.0,929.0,-393.0,1891.0,3478.0,2025-07-21 19:47:36,90.0,,1.85654750948976,-3.08880277018249,-1.74312794777716,,-0.5241013389755622,,
,6078.0,821.0,6778.0,931.0,-387.0,1895.0,3485.0,2025-07-21 19:47:37,89.0,,1.85599227873807,-3.08871829531569,-1.74263954377829,,-0.8805463257372371,,
,6073.0,816.0,6772.0,925.0,-383.0,1875.0,3508.0,2025-07-21 19:47:38,89.0,,1.85616636107912,-3.08755709473114,-1.7428647997985,,-1.2008747544446379,,
,6067.0,816.0,6761.0,927.0,-368.0,1868.0,3515.0,2025-07-21 19:47:39,89.0,,1.85582092459823,-3.08877388703389,-1.74262404361641,,-1.48596560802692,,
,6064.0,817.0,6754.0,923.0,-378.0,1873.0,3475.0,2025-07-21 19:47:40,89.0,,1.85683429827879,-3.08802518099078,-1.74262986521425,,-1.738042838730629,,
,6055.0,813.0,6746.0,920.0,-371.0,1880.0,3491.0,2025-07-21 19:47:41,88.0,,1.85766571725767,-3.08833710097486,-1.74252545046409,,-1.9603665267615116,,
,6045.0,813.0,6732.0,921.0,-378.0,1885.0,3491.0,2025-07-21 19:47:42,88.0,,1.85667686080485,-3.08788318223264,-1.74254726661635,,-2.1568456624812216,,
,6041.0,808.0,6723.0,920.0,-382.0,1888.0,3488.0,2025-07-21 19:47:43,88.0,,1.85743449666446,-3.0876272885257,-1.74256470540264,,-2.3315933865253102,,
,6037.0,810.0,6720.0,917.0,-380.0,1880.0,3489.0,2025-07-21 19:47:44,88.0,,1.85617203839792,-3.08694719640583,-1.74246515426368,,-2.4884548238002684,,
,6031.0,809.0,6711.0,916.0,-379.0,1884.0,3487.0,2025-07-21 19:47:45,88.0,,1.85664697397816,-3.08785719156257,-1.74302397500486,,-2.630544604520337,,
,6028.0,807.0,6703.0,914.0,-373.0,1869.0,3474.0,2025-07-21 19:47:46,89.0,,1.85719184438431,-3.0877247344963,-1.74255009928412,,-2.759835235314414,,
,6024.0,804.0,6697.0,912.0,-372.0,1882.0,3494.0,2025-07-21 19:47:47,89.0,,1.85719370677843,-3.08748353664653,-1.74331294900332,,-2.87683779299756,,
,6022.0,806.0,6692.0,913.0,-373.0,1880.0,3483.0,2025-07-21 19:47:48,89.0,,1.85823767428419,-3.08819400264071,-1.74293292767227,,-2.980411760790382,,
,6019.0,806.0,6687.0,912.0,-381.0,1868.0,3500.0,2025-07-21 19:47:49,89.0,,1.85755372411846,-3.08727748025329,-1.74240556094777,,-3.0677303005228818,,
,6016.0,802.0,6683.0,910.0,-393.0,1861.0,3497.0,2025-07-21 19:47:50,90.0,,1.85773491402546,-3.08802480971529,-1.74267597614934,,-3.134411209423485,,
,6017.0,802.0,6679.0,908.0,-396.0,1866.0,3493.0,2025-07-21 19:47:51,89.0,,1.85716396402977,-3.08841604250878,-1.74270531070974,,-3.174804692688571,,
,6013.0,804.0,6675.0,910.0,-378.0,1883.0,3483.0,2025-07-21 19:47:52,89.0,,1.85763738850211,-3.08786930634469,-1.74264872900513,,-3.182411175611613,,
,6016.0,807.0,6677.0,910.0,-383.0,1880.0,3485.0,2025-07-21 19:47:53,89.0,,1.85689335447867,-3.08842048940449,-1.74284940296845,,-3.150389917216597,,
,6014.0,805.0,6672.0,910.0,-377.0,1877.0,3480.0,2025-07-21 19:47:54,88.0,,1.85686928230654,-3.08785368307191,-1.74198168578501,,-3.0721140185036413,,
,6014.0,803.0,6670.0,909.0,-398.0,1870.0,3462.0,2025-07-21 19:47:55,88.0,,1.85803558458327,-3.08773680261033,-1.74372432444504,,-2.941728345007538,,
,6015.0,805.0,6669.0,907.0,-377.0,1877.0,3486.0,2025-07-21 19:47:56,88.0,,1.85718626451075,-3.08709422094708,-1.74340662676236,,-2.75467127885421,,
,6015.0,805.0,6667.0,910.0,-382.0,1862.0,3508.0,2025-07-21 19:47:57,88.0,,1.85781413283877,-3.08712179529083,-1.74257504304473,,-2.5081272076302508,,
,6016.0,805.0,6666.0,908.0,-392.0,1858.0,3517.0,2025-07-21 19:47:58,88.0,,1.85773123595477,-3.08764959346729,-1.7426429686174,,-2.2013838792344416,,
,6015.0,804.0,6665.0,908.0,-391.0,1879.0,3499.0,2025-07-21 19:47:59,88.0,,1.85707067241941,-3.08824919839734,-1.74302681657279,,-1.83607743276054,,
,6012.0,805.0,6666.0,906.0,-368.0,1885.0,3489.0,2025-07-21 19:48:00,88.0,,1.85742144795484,-3.08878971519409,-1.74190234733766,,-1.4163176365497379,,
,6017.0,804.0,6662.0,910.0,-383.0,1884.0,3500.0,2025-07-21 19:48:01,88.0,,1.8573870597626,-3.08724838481164,-1.74239720944533,,-0.9486950793171802,,
,6018.0,807.0,6664.0,907.0,-364.0,1874.0,3495.0,2025-07-21 19:48:02,88.0,,1.85693880243927,-3.08850342807362,-1.7416255042102,,-0.4421784935466481,,
,6020.0,806.0,6666.0,907.0,-366.0,1878.0,3488.0,2025-07-21 19:48:03,88.0,,1.85774461528905,-3.08803843712727,-1.74179169772882,,0.09208790554603775,,
,6018.0,805.0,6664.0,909.0,-383.0,1874.0,3465.0,2025-07-21 19:48:04,88.0,,1.85757031958409,-3.08870662608677,-1.74169006247805,,0.641080374765628,,
,6022.0,804.0,6662.0,908.0,-371.0,1877.0,3468.0,2025-07-21 19:48:05,88.0,,1.85853572162322,-3.08875623782169,-1.74234805895602,,1.1902836803332584,,
,6020.0,806.0,6666.0,908.0,-367.0,1865.0,3490.0,2025-07-21 19:48:06,88.0,,1.85736578815786,-3.08826005082192,-1.74217033311908,,1.7241732370653053,,
,6023.0,807.0,6665.0,908.0,-364.0,1864.0,3480.0,2025-07-21 19:48:07,88.0,,1.85720961118792,-3.08880614679708,-1.74284090979672,,2.2267906810494598,,
,6021.0,806.0,6666.0,908.0,-371.0,1871.0,3462.0,2025-07-21 19:48:08,88.0,,1.85768100900554,-3.08765607883763,-1.74260716762785,,2.6824031737991207,,
,6021.0,804.0,6661.0,908.0,-381.0,1860.0,3476.0,2025-07-21 19:48:09,87.0,,1.85725575710228,-3.08792048231994,-1.74229360659579,,3.0762238517454605,,
,6026.0,806.0,6666.0,907.0,-372.0,1878.0,3503.0,2025-07-21 19:48:10,87.0,,1.856887977693,-3.08892603756139,-1.7421579699867,,3.3951572990613452,,
,6026.0,805.0,6666.0,908.0,-374.0,1881.0,3497.0,2025-07-21 19:48:11,87.0,,1.85786843958872,-3.08930487663497,-1.74242916596952,,3.62852200459084,,
,6027.0,808.0,6664.0,910.0,-376.0,1884.0,3497.0,2025-07-21 19:48:12,86.0,,1.85703412451371,-3.08853209483967,-1.74120619827595,,3.768692927851581,,
,6022.0,806.0,6666.0,908.0,-388.0,1871.0,3472.0,2025-07-21 19:48:13,86.0,,1.8573380760667,-3.08844749996142,-1.74224814268954,,3.811603202870132,,
,6023.0,807.0,6661.0,909.0,-393.0,1880.0,3470.0,2025-07-21 19:48:14,86.0,,1.85761766671324,-3.08794064519979,-1.74250129187185,,3.7570469427700663,,
,6025.0,807.0,6664.0,908.0,-396.0,1879.0,3456.0,2025-07-21 19:48:15,86.0,,1.85664942008131,-3.08776296009504,-1.74231383556568,,3.6087373403396033,,
,6026.0,807.0,6664.0,909.0,-396.0,1881.0,3454.0,2025-07-21 19:48:16,86.0,,1.85686821481318,-3.08872864787742,-1.74273787798977,,3.3740967104937116,,
,6025.0,805.0,6666.0,911.0,-384.0,1869.0,3450.0,2025-07-21 19:48:17,86.0,,1.85738950591063,-3.08805981090453,-1.74252204305815,,3.063785926793572,,
,6024.0,805.0,6666.0,907.0,-368.0,1872.0,3444.0,2025-07-21 19:48:18,86.0,,1.85657907892109,-3.08866242838559,-1.74244147385735,,2.6910144188125096,,
,6028.0,805.0,6665.0,907.0,-360.0,1872.0,3452.0,2025-07-21 19:48:19,85.0,,1.85595575035124,-3.08936442790589,-1.74171761107216,,2.2707004869205183,,
,6025.0,808.0,6667.0,907.0,-389.0,1867.0,3501.0,2025-07-21 19:48:20,85.0,,1.85594208791149,-3.08853271329258,-1.74209641781646,,1.8185677307974695,,
,6027.0,807.0,6665.0,910.0,-394.0,1872.0,3490.0,2025-07-21 19:48:21,85.0,,1.85561349723476,-3.08974065662526,-1.74283327379658,,1.3502636610723249,,
,6025.0,806.0,6665.0,905.0,-390.0,1865.0,3483.0,2025-07-21 19:48:22,85.0,,1.8556794374829,-3.08838330731144,-1.74231795241448,,0.8805731921246479,,
,6026.0,806.0,6666.0,907.0,-383.0,1871.0,3470.0,2025-07-21 19:48:23,85.0,,1.85486400973389,-3.08920240755458,-1.74246870082582,,0.42277806418895153,,
,6028.0,806.0,6667.0,907.0,-383.0,1869.0,3477.0,2025-07-21 19:48:24,85.0,,1.85464013651605,-3.08869216061731,-1.74204291737179,,-0.01181111619850719,,
,6028.0,807.0,6667.0,907.0,-372.0,1885.0,3474.0,2025-07-21 19:48:25,86.0,,1.85450703560341,-3.08940168603846,-1.74221179787183,,-0.414146425258436,,
,6027.0,806.0,6664.0,903.0,-365.0,1875.0,3451.0,2025-07-21 19:48:26,87.0,,1.85429213812017,-3.08890936839189,-1.74351093754261,,-0.7775726473820976,,
,6032.0,806.0,6668.0,907.0,-359.0,1900.0,3460.0,2025-07-21 19:48:27,87.0,,1.85436299687414,-3.08915057873681,-1.74306276305117,,-1.0978233408735527,,
,6033.0,808.0,6668.0,908.0,-386.0,1904.0,3455.0,2025-07-21 19:48:28,87.0,,1.8549280651858,-3.08960748830718,-1.74237709600636,,-1.3729161368026161,,
,6035.0,809.0,6670.0,910.0,-390.0,1894.0,3445.0,2025-07-21 19:48:29,87.0,,1.85507284882914,-3.09023661519744,-1.74241382381468,,-1.6029787638284656,,
,6035.0,807.0,6669.0,908.0,-374.0,1875.0,3443.0,2025-07-21 19:48:30,86.0,,1.85457079292362,-3.0890998266249,-1.74278471541534,,-1.7900290536653642,,
,6034.0,807.0,6670.0,906.0,-371.0,1878.0,3497.0,2025-07-21 19:48:31,86.0,,1.85496295667432,-3.08849499623911,-1.74228003091529,,-1.9377197975889586,,
,6039.0,809.0,6673.0,910.0,-388.0,1889.0,3458.0,2025-07-21 19:48:32,86.0,,1.85384043470071,-3.0894145317142,-1.74274955641377,,-2.0510469419840396,,
,6042.0,812.0,6676.0,908.0,-379.0,1877.0,3510.0,2025-07-21 19:48:33,86.0,,1.85471343642367,-3.08868147605677,-1.74284860193816,,-2.136012006977965,,
,6043.0,809.0,6678.0,910.0,-375.0,1871.0,3508.0,2025-07-21 19:48:34,86.0,,1.85540712151165,-3.08979941523823,-1.74285527638961,,-2.199229885753747,,
,6042.0,809.0,6679.0,908.0,-378.0,1877.0,3482.0,2025-07-21 19:48:35,87.0,,1.85539557763572,-3.08891152496221,-1.74243397296508,,-2.2474810108661822,,
,6046.0,813.0,6682.0,912.0,-392.0,1886.0,3474.0,2025-07-21 19:48:36,87.0,,1.85475176106314,-3.0893162845324,-1.74273153262456,,-2.2872190572162663,,
,6046.0,815.0,6684.0,911.0,-369.0,1872.0,3479.0,2025-07-21 19:48:37,87.0,,1.8546216613373,-3.08795847002722,-1.74313806202462,,-2.3240581281133763,,
,6049.0,812.0,6688.0,912.0,-370.0,1879.0,3478.0,2025-07-21 19:48:38,88.0,,1.85558438941687,-3.08813234901952,-1.74296807633602,,-2.36227423873987,,
,6050.0,813.0,6690.0,910.0,-354.0,1882.0,3484.0,2025-07-21 19:48:39,88.0,,1.85516621570584,-3.08911975029804,-1.7424467222367,,-2.4043636496570517,,
,6052.0,814.0,6692.0,912.0,-378.0,1889.0,3518.0,2025-07-21 19:48:40,88.0,,1.8547428660823,-3.0888505288696,-1.74335262349645,,-2.4507043292785213,,
,6054.0,812.0,6696.0,911.0,-371.0,1885.0,3493.0,2025-07-21 19:48:41,88.0,,1.85512551272524,-3.08860480221215,-1.74265438136846,,-2.4993654425149137,,
,6060.0,816.0,6698.0,912.0,-379.0,1881.0,3484.0,2025-07-21 19:48:42,88.0,,1.85540933416425,-3.08865197522951,-1.74281206922517,,-2.546102138863919,,
,6061.0,815.0,6704.0,914.0,-386.0,1885.0,3475.0,2025-07-21 19:48:43,88.0,,1.85466192837629,-3.08906945677351,-1.74382333396658,,-2.5845583709192317,,
,6063.0,817.0,6707.0,915.0,-374.0,1880.0,3466.0,2025-07-21 19:48:44,88.0,,1.85469894001544,-3.08891637671282,-1.74290466853891,,-2.6066793772847596,,
,6065.0,816.0,6712.0,916.0,-366.0,1888.0,3463.0,2025-07-21 19:48:45,88.0,,1.8554166422929,-3.08887663702159,-1.7432910020811,,-2.603309916477474,,
,6070.0,820.0,6713.0,916.0,-386.0,1875.0,3467.0,2025-07-21 19:48:46,88.0,,1.85575662306334,-3.08911153236934,-1.74222205764223,,-2.5649286579220956,,
,6070.0,817.0,6716.0,917.0,-393.0,1862.0,3482.0,2025-07-21 19:48:47,88.0,,1.85571997711616,-3.08842155847545,-1.7436147343234,,-2.4824491440672913,,
,6073.0,818.0,6720.0,917.0,-381.0,1872.0,3511.0,2025-07-21 19:48:48,88.0,,1.85594288716545,-3.08991119667583,-1.74185599746002,,-2.3480084295701777,,
,6075.0,820.0,6725.0,915.0,-366.0,1866.0,3511.0,2025-07-21 19:48:49,88.0,,1.85516979145129,-3.0882960024122,-1.74271698363415,,-2.1556675325224313,,
,6079.0,820.0,6730.0,918.0,-373.0,1859.0,3495.0,2025-07-21 19:48:50,88.0,,1.85570858582103,-3.08917271512514,-1.74242404590926,,-1.9019611654564983,,
,6080.0,822.0,6729.0,919.0,-355.0,1884.0,3477.0,2025-07-21 19:48:51,88.0,,1.85571322904823,-3.08773750128813,-1.74260433318058,,-1.5862542360891914,,
,6081.0,821.0,6737.0,920.0,-358.0,1894.0,3502.0,2025-07-21 19:48:52,88.0,,1.85525351445965,-3.08905257012333,-1.74266880711536,,-1.2108862016612194,,
,6084.0,820.0,6738.0,917.0,-373.0,1881.0,3495.0,2025-07-21 19:48:53,88.0,,1.85514953585156,-3.08829699208217,-1.74266969794077,,-0.7811089835637738,,
,6088.0,824.0,6743.0,919.0,-385.0,1896.0,3487.0,2025-07-21 19:48:54,88.0,,1.85466886461943,-3.08780056426016,-1.74316340188618,,-0.30484677632457335,,
,6088.0,827.0,6746.0,922.0,-375.0,1891.0,3486.0,2025-07-21 19:48:55,88.0,,1.8555915621031,-3.08861445079064,-1.7422990420961,,0.2076770434533581,,
,6093.0,826.0,6752.0,921.0,-381.0,1887.0,3474.0,2025-07-21 19:48:56,88.0,,1.85588281076054,-3.08843212715842,-1.74321390287208,,0.7443930489045111,,
,6095.0,824.0,6754.0,920.0,-394.0,1873.0,3481.0,2025-07-21 19:48:57,88.0,,1.85566450025329,-3.08913193816076,-1.74243404145574,,1.291869427446665,,
,6097.0,828.0,6756.0,920.0,-387.0,1878.0,3485.0,2025-07-21 19:48:58,88.0,,1.85543671010015,-3.08851186063071,-1.74316901051675,,1.8357902589288568,,
,6102.0,828.0,6760.0,923.0,-383.0,1880.0,3469.0,2025-07-21 19:48:59,88.0,,1.85561368513641,-3.08827459285201,-1.74322394164612,,2.3614126756128497,,
,6100.0,827.0,6763.0,924.0,-380.0,1880.0,3458.0,2025-07-21 19:49:00,89.0,,1.85451529389425,-3.08832665408477,-1.74237118841936,,2.854007763208515,,
,6101.0,825.0,6766.0,923.0,-368.0,1893.0,3505.0,2025-07-21 19:49:01,89.0,,1.8562590763791,-3.08866461903996,-1.74229547249268,,3.299303943684298,,
,6101.0,828.0,6765.0,921.0,-371.0,1893.0,3469.0,2025-07-21 19:49:02,90.0,,1.85603370138609,-3.08838801683535,-1.74291759061458,,3.6839537611232296,,
,6097.0,829.0,6766.0,924.0,-375.0,1907.0,3488.0,2025-07-21 19:49:03,90.0,,1.85545810058981,-3.08925689824414,-1.74330892186987,,3.996035124217365,,
,6096.0,825.0,6764.0,922.0,-372.0,1907.0,3471.0,2025-07-21 19:49:04,91.0,,1.85536077776818,-3.08876210606814,-1.74221019065838,,4.2255802013980155,,
,6090.0,825.0,6761.0,921.0,-382.0,1906.0,3489.0,2025-07-21 19:49:05,91.0,,1.85551365970871,-3.08901606659595,-1.74245836715382,,4.36510508597399,,
,6085.0,822.0,6751.0,919.0,-379.0,1891.0,3481.0,2025-07-21 19:49:06,91.0,,1.85604945586896,-3.08802048315814,-1.742161388554,,4.410095858321351,,
,6081.0,822.0,6747.0,919.0,-359.0,1866.0,3476.0,2025-07-21 19:49:07,90.0,,1.8557937810305,-3.08875646151882,-1.74223834475834,,4.359394852507947,,
,6075.0,819.0,6741.0,917.0,-368.0,1877.0,3497.0,2025-07-21 19:49:08,89.0,,1.85573526157322,-3.0889920681274,-1.74225366868257,,4.215426980801586,,
,6070.0,820.0,6732.0,916.0,-378.0,1882.0,3485.0,2025-07-21 19:49:09,88.0,,1.8551588442711,-3.08807190774417,-1.74268571626578,,3.9842119704356636,,
,6063.0,816.0,6726.0,916.0,-363.0,1894.0,3460.0,2025-07-21 19:49:10,87.0,,1.85608285682144,-3.08834260584283,-1.74271404593188,,3.6751259099328313,,
,6058.0,816.0,6718.0,911.0,-372.0,1890.0,3497.0,2025-07-21 19:49:11,86.0,,1.85453831231994,-3.08844282322432,-1.74320610960379,,3.300404320619507,,
,6056.0,815.0,6711.0,912.0,-359.0,1906.0,3495.0,2025-07-21 19:49:12,86.0,,1.85652249906445,-3.08866990748653,-1.74324769346694,,2.8744155154125948,,
,6053.0,815.0,6706.0,910.0,-358.0,1889.0,3467.0,2025-07-21 19:49:13,86.0,,1.85608199499876,-3.08804768755139,-1.74285967692116,,2.412769985288049,,
,6049.0,815.0,6700.0,909.0,-361.0,1887.0,3483.0,2025-07-21 19:49:14,86.0,,1.8568718591384,-3.08803563293249,-1.74292908376344,,1.9313594429081995,,
,6044.0,812.0,6694.0,905.0,-359.0,1913.0,3473.0,2025-07-21 19:49:15,87.0,,1.855467267068,-3.08831840733612,-1.74264597485908,,1.445429875917953,,
,6044.0,812.0,6692.0,906.0,-361.0,1896.0,3467.0,2025-07-21 19:49:16,88.0,,1.85552516233547,-3.08889517005809,-1.74293000317068,,0.9687838129478942,,
,6043.0,813.0,6688.0,908.0,-366.0,1878.0,3469.0,2025-07-21 19:49:17,89.0,,1.85616442400282,-3.08837289193826,-1.74295479846628,,0.5131817846285407,,
,6043.0,812.0,6683.0,904.0,-365.0,1874.0,3478.0,2025-07-21 19:49:18,89.0,,1.85645483419564,-3.08815801289838,-1.74370264226799,,0.08797940574757666,,
,6040.0,810.0,6680.0,903.0,-365.0,1892.0,3474.0,2025-07-21 19:49:19,90.0,,1.85653019951627,-3.08852132245044,-1.74199523831005,,-0.29999758478112004,,
,6039.0,807.0,6677.0,905.0,-387.0,1893.0,3490.0,2025-07-21 19:49:20,91.0,,1.85573271244525,-3.08821176095031,-1.74276000607055,,-0.6463671279666406,,
2025-07-21 19:46:55,6040.0,813.0,6678.0,905.0,-378.0,1896.0,3515.0,2025-07-21 19:49:21,91.0,2025/07/21 07:46:55 PM,1.85668183387871,-3.08861408344191,-1.74242214353125,,-0.9489416098864895,,
,6041.0,810.0,6676.0,905.0,-369.0,1892.0,3507.0,2025-07-21 19:49:22,90.0,,1.85724637099706,-3.08896464200751,-1.74372013516518,,-1.2073760890454146,,
,6038.0,812.0,6676.0,904.0,-362.0,1892.0,3449.0,2025-07-21 19:49:23,90.0,,1.85579665265337,-3.08798828007243,-1.74282511509779,,-1.422777669884478,,
,6042.0,812.0,6677.0,903.0,-360.0,1878.0,3487.0,2025-07-21 19:49:24,90.0,,1.85657270539764,-3.08807395590456,-1.74312088419197,,-1.5973338227367926,,
,6042.0,814.0,6677.0,903.0,-365.0,1865.0,3494.0,2025-07-21 19:49:25,90.0,,1.85686339979096,-3.08831097587234,-1.74286613227376,,-1.7340032322225738,,
,6042.0,812.0,6678.0,907.0,-367.0,1869.0,3499.0,2025-07-21 19:49:26,90.0,,1.85534854219039,-3.08828103959088,-1.74267574763685,,-1.83629218721361,,
,6044.0,815.0,6680.0,906.0,-381.0,1869.0,3504.0,2025-07-21 19:49:27,90.0,,1.85606625082169,-3.08781056084518,-1.74254679316974,,-1.9081164328653781,,
,6044.0,813.0,6675.0,905.0,-356.0,1879.0,3486.0,2025-07-21 19:49:28,90.0,,1.85675464017737,-3.08809791078277,-1.74230027527119,,-1.953728132004965,,
,6047.0,813.0,6680.0,907.0,-355.0,1884.0,3481.0,2025-07-21 19:49:29,90.0,,1.85607049390389,-3.0886738833113,-1.74169440173516,,-1.9776751735279088,,
,6049.0,814.0,6682.0,907.0,-374.0,1875.0,3489.0,2025-07-21 19:49:30,91.0,,1.85657215383723,-3.08815335870238,-1.74186843484364,,-1.9847577857837808,,
,6049.0,814.0,6682.0,904.0,-365.0,1878.0,3484.0,2025-07-21 19:49:31,91.0,,1.85642250132968,-3.08802055399227,-1.74127645193074,,-1.979953765841292,,
,6050.0,815.0,6684.0,905.0,-367.0,1882.0,3465.0,2025-07-21 19:49:32,91.0,,1.85694865578708,-3.08803361953958,-1.74248039912833,,-1.9682949025198777,,
,6054.0,813.0,6688.0,906.0,-375.0,1886.0,3452.0,2025-07-21 19:49:33,91.0,,1.85606311554119,-3.08843611826932,-1.74222361354378,,-1.954689854259728,,
,6056.0,816.0,6686.0,906.0,-368.0,1882.0,3460.0,2025-07-21 19:49:34,91.0,,1.85663618142737,-3.08853309971415,-1.74290675204986,,-1.9437007231193466,,
,6057.0,819.0,6690.0,909.0,-392.0,1880.0,3495.0,2025-07-21 19:49:35,91.0,,1.85659244916531,-3.0875773023224,-1.74283992674784,,-1.939290695164637,,
,6061.0,818.0,6689.0,908.0,-393.0,1880.0,3492.0,2025-07-21 19:49:36,90.0,,1.85619392871038,-3.08831609854065,-1.7423018024275,,-1.9445674245885194,,
,6056.0,814.0,6691.0,906.0,-377.0,1879.0,3498.0,2025-07-21 19:49:37,90.0,,1.85689184621008,-3.08868249238093,-1.74194326615733,,-1.9615502579221886,,
,6061.0,819.0,6694.0,907.0,-354.0,1900.0,3483.0,2025-07-21 19:49:38,89.0,,1.85661789960781,-3.08870447928202,-1.7427201063757,,-1.9909879990614545,,
,6063.0,818.0,6696.0,909.0,-363.0,1894.0,3468.0,2025-07-21 19:49:39,89.0,,1.85630374845267,-3.08840110712167,-1.7423926043069,,-2.0322473618100783,,
,6063.0,819.0,6696.0,905.0,-371.0,1888.0,3470.0,2025-07-21 19:49:40,89.0,,1.85665560461523,-3.08844588141511,-1.74147072154446,,-2.083281406551691,,
,6062.0,818.0,6701.0,907.0,-371.0,1902.0,3474.0,2025-07-21 19:49:41,89.0,,1.85667720614278,-3.08827826574249,-1.74179980807471,,-2.1406748017929345,,
,6065.0,820.0,6701.0,909.0,-374.0,1892.0,3474.0,2025-07-21 19:49:42,89.0,,1.85678958794537,-3.08870208864764,-1.74244290487166,,-2.1997529473993,,
,6066.0,820.0,6700.0,910.0,-370.0,1901.0,3451.0,2025-07-21 19:49:43,88.0,,1.85666523839161,-3.08896902004076,-1.74279264449482,,-2.2547387330433257,,
,6065.0,820.0,6706.0,910.0,-368.0,1902.0,3454.0,2025-07-21 19:49:44,88.0,,1.85689113441405,-3.08880045297872,-1.74156527591843,,-2.298944875542656,,
,6066.0,820.0,6707.0,908.0,-377.0,1897.0,3448.0,2025-07-21 19:49:45,88.0,,1.85655074071504,-3.08835462337583,-1.74250988149928,,-2.3249984767428034,,
,6064.0,818.0,6704.0,908.0,-369.0,1894.0,3448.0,2025-07-21 19:49:46,87.0,,1.85653185287687,-3.08892472469894,-1.74152606572537,,-2.325102980112551,,
,6070.0,819.0,6706.0,910.0,-353.0,1884.0,3470.0,2025-07-21 19:49:47,87.0,,1.85597144477679,-3.08931314089187,-1.74152715479927,,-2.29134739230824,,
,6070.0,820.0,6707.0,909.0,-359.0,1880.0,3456.0,2025-07-21 19:49:48,86.0,,1.85575426317708,-3.08932089212034,-1.74247119779774,,-2.2160719569394924,,
,6068.0,820.0,6707.0,910.0,-364.0,1882.0,3453.0,2025-07-21 19:49:49,86.0,,1.85438084402509,-3.08873452772206,-1.74331239694572,,-2.0922935626519044,,
,6070.0,820.0,6708.0,909.0,-344.0,1883.0,3475.0,2025-07-21 19:49:50,86.0,,1.85460439759472,-3.09038690755982,-1.74317051222129,,-1.914184030256804,,
,6068.0,819.0,6707.0,909.0,-352.0,1887.0,3466.0,2025-07-21 19:49:51,86.0,,1.85508797749323,-3.08909192444315,-1.74381161488774,,-1.6775815404704997,,
,6070.0,822.0,6712.0,909.0,-367.0,1879.0,3471.0,2025-07-21 19:49:52,86.0,,1.85429852563522,-3.08852074067105,-1.74193642882894,,-1.3805017159938007,,
,6072.0,821.0,6713.0,909.0,-380.0,1881.0,3472.0,2025-07-21 19:49:53,86.0,,1.85403805069708,-3.08976345860289,-1.74292451864835,,-1.0236024662125167,,
,6074.0,821.0,6713.0,908.0,-387.0,1882.0,3449.0,2025-07-21 19:49:54,86.0,,1.8551973541372,-3.08883185229263,-1.74290783476639,,-0.610548210783854,,
,6077.0,821.0,6717.0,908.0,-381.0,1892.0,3464.0,2025-07-21 19:49:55,87.0,,1.85367007960631,-3.08943518852548,-1.74323902041642,,-0.1482174567087193,,
,6079.0,825.0,6719.0,911.0,-370.0,1873.0,3466.0,2025-07-21 19:49:56,87.0,,1.85371453396473,-3.0883516033121,-1.7425706443389,,0.3532945101563366,,
,6080.0,824.0,6723.0,911.0,-364.0,1882.0,3479.0,2025-07-21 19:49:57,88.0,,1.85420135641176,-3.08981927656889,-1.74257277488854,,0.8809083309903913,,
,6080.0,824.0,6719.0,912.0,-357.0,1875.0,3461.0,2025-07-21 19:49:58,89.0,,1.85438325214082,-3.08973817369686,-1.74241789293178,,1.4190344010135554,,
,6079.0,823.0,6723.0,909.0,-370.0,1875.0,3478.0,2025-07-21 19:49:59,89.0,,1.85439780489435,-3.09028719942562,-1.74344255769085,,1.950267067542637,,
,6087.0,823.0,6727.0,912.0,-372.0,1894.0,3438.0,2025-07-21 19:50:00,90.0,,1.85488691866738,-3.09021590431115,-1.74214516395841,,2.4562553465183727,,
,6089.0,825.0,6732.0,911.0,-361.0,1878.0,3462.0,2025-07-21 19:50:01,91.0,,1.85363300576349,-3.08883678180403,-1.74311858635834,,2.9186891430301096,,
,6088.0,826.0,6732.0,912.0,-379.0,1885.0,3461.0,2025-07-21 19:50:02,91.0,,1.85427435654463,-3.08900351684489,-1.74271826086095,,3.320329003212778,,
,6088.0,825.0,6733.0,913.0,-373.0,1892.0,3479.0,2025-07-21 19:50:03,91.0,,1.85444418830893,-3.0893698094748,-1.74202142508542,,3.6460022124817417,,
,6092.0,827.0,6737.0,912.0,-349.0,1904.0,3466.0,2025-07-21 19:50:04,91.0,,1.85467486910744,-3.08889077918705,-1.74303044278256,,3.8834885688739753,,
,6093.0,826.0,6737.0,913.0,-345.0,1890.0,3480.0,2025-07-21 19:50:05,91.0,,1.85438887373465,-3.08828241983479,-1.74279197858028,,4.024225955734177,,
,6097.0,830.0,6741.0,914.0,-349.0,1895.0,3488.0,2025-07-21 19:50:06,91.0,,1.85398263190141,-3.08926213086111,-1.74269047680304,,4.063779579021019,,
,6098.0,827.0,6746.0,916.0,-349.0,1887.0,3469.0,2025-07-21 19:50:07,91.0,,1.85478045583939,-3.08908499382412,-1.74311698722831,,4.002039372832587,,
,6100.0,828.0,6750.0,914.0,-379.0,1888.0,3447.0,2025-07-21 19:50:08,91.0,,1.85524668732157,-3.08914801163465,-1.74283784038282,,3.843135796726249,,
,6101.0,829.0,6754.0,916.0,-369.0,1888.0,3463.0,2025-07-21 19:50:09,91.0,,1.85500073899005,-3.08931416094112,-1.74323184791269,,3.5950910849151114,,
,6107.0,832.0,6757.0,916.0,-348.0,1895.0,3465.0,2025-07-21 19:50:10,90.0,,1.85427093992852,-3.08923579609553,-1.74246235172006,,3.269246181260515,,
,6109.0,833.0,6761.0,917.0,-345.0,1891.0,3472.0,2025-07-21 19:50:11,90.0,,1.8545672634112,-3.0896556066642,-1.7419831933233,,2.8795197673572153,,
,6112.0,830.0,6762.0,916.0,-366.0,1878.0,3475.0,2025-07-21 19:50:12,89.0,,1.8555989085624,-3.08985364723855,-1.74375024388117,,2.4415640664114053,,
,6113.0,831.0,6768.0,920.0,-364.0,1878.0,3479.0,,,,1.8548236991966,-3.08934730027522,-1.74289325668817,,1.9718831167678372,,
,6117.0,833.0,6771.0,920.0,-362.0,1855.0,3490.0,,,,1.85515263650807,-3.08853873544706,-1.74369683533032,,1.4869738769959702,,
,6116.0,832.0,6771.0,918.0,-355.0,1873.0,3481.0,,,,1.85448591309839,-3.08845695609264,-1.74325242704253,,1.0025399174455358,,
,6120.0,832.0,6778.0,919.0,-388.0,1892.0,3464.0,,,,1.85505598337435,-3.08803386126469,-1.74280235206986,,0.5328134088006113,,
,6122.0,837.0,6779.0,921.0,-376.0,1884.0,3456.0,,,,1.85547646643841,-3.08986347889484,-1.74362846036877,,0.0900064056939149,,
,6125.0,834.0,6783.0,920.0,-370.0,1875.0,3486.0,,,,1.85496617556756,-3.08856720218407,-1.74284001573696,,-0.3160999676606467,,
,6128.0,835.0,6785.0,919.0,-384.0,1880.0,3459.0,,,,1.85503399564019,-3.08839287082994,-1.74374009270098,,-0.6784276261249845,,
,6130.0,836.0,6793.0,921.0,-374.0,1884.0,3453.0,,,,1.85484397723509,-3.08847999011707,-1.74242565930761,,-0.9927364585789971,,
,6131.0,835.0,6793.0,922.0,-367.0,1884.0,3473.0,,,,1.8556341012872,-3.08786523400083,-1.74249415637169,,-1.2576215304538612,,
,6133.0,838.0,6799.0,921.0,-371.0,1901.0,3476.0,,,,1.85521694074328,-3.08817463727931,-1.74255343385254,,-1.4743686867334787,,
,6139.0,839.0,6804.0,922.0,-363.0,1874.0,3486.0,,,,1.85458369471788,-3.08864010785043,-1.74281058717342,,-1.6466645182814001,,
,6137.0,839.0,6802.0,922.0,-379.0,1869.0,3496.0,,,,1.85513829675606,-3.08828233206654,-1.74204761032038,,-1.7801626641773964,,
,6140.0,836.0,6804.0,922.0,-364.0,1876.0,3442.0,,,,1.85472824160499,-3.08893143107941,-1.74369951213459,,-1.881920368396644,,
,6137.0,836.0,6803.0,921.0,-365.0,1869.0,3461.0,,,,1.85535330568564,-3.08988394411854,-1.74281652658098,,-1.9597340110632382,,
,6135.0,839.0,6804.0,922.0,-359.0,1882.0,3469.0,,,,1.85537884131067,-3.08885072214434,-1.74339355247318,,-2.021416277157782,,
,6135.0,837.0,6803.0,921.0,-395.0,1884.0,3484.0,,,,1.85474364489866,-3.08874982271308,-1.74250262720801,,-2.0740681201537496,,
,6130.0,836.0,6798.0,919.0,-389.0,1886.0,3473.0,,,,1.8548301283504,-3.08949109272186,-1.7430649018899,,-2.1234044928582594,,
,6124.0,832.0,6791.0,920.0,-376.0,1876.0,3502.0,,,,1.85462217218903,-3.08889069080454,-1.74352904590973,,-2.173193341818107,,
,6121.0,832.0,6785.0,918.0,-370.0,1878.0,3489.0,,,,1.85496511451409,-3.08966440574432,-1.74178599014256,,-2.2248619856207816,,
,6119.0,829.0,6779.0,917.0,-376.0,1879.0,3462.0,,,,1.85465451930474,-3.08901585648554,-1.74328037674655,,-2.2773131256314176,,
,6113.0,830.0,6771.0,916.0,-376.0,1881.0,3441.0,,,,1.85547349005893,-3.08897799262863,-1.74298382935272,,-2.3269742854411777,,
,6110.0,824.0,6763.0,915.0,-355.0,1897.0,3479.0,,,,1.85479755391257,-3.08855257343055,-1.74357380206224,,-2.368080575059329,,
,6103.0,825.0,6756.0,912.0,-364.0,1889.0,3473.0,,,,1.8546969406945,-3.08862493033194,-1.74319485726557,,-2.3931643419829474,,
,6103.0,825.0,6748.0,913.0,-378.0,1885.0,3473.0,,,,1.85488109326855,-3.08828943401649,-1.74229440512275,,-2.393701410734914,,
,6101.0,826.0,6745.0,910.0,-371.0,1890.0,3457.0,,,,1.85404564654099,-3.08839183323642,-1.74336016843713,,-2.360847527217618,,
,6100.0,824.0,6739.0,910.0,-359.0,1905.0,3464.0,,,,1.85576821244734,-3.08874286401778,-1.74269233780224,,-2.286193371727864,,
,6096.0,821.0,6730.0,908.0,-359.0,1893.0,3472.0,,,,1.85460517569121,-3.08852517192954,-1.74364284826408,,-2.162471381138793,,
,6097.0,821.0,6731.0,909.0,-372.0,1891.0,3464.0,,,,1.85538883569664,-3.08911072112931,-1.74316677220205,,-1.9841593902357866,,
,6099.0,823.0,6728.0,908.0,-389.0,1890.0,3483.0,,,,1.85518830967206,-3.08844296718012,-1.74256825290307,,-1.7479415697025402,,
,6097.0,823.0,6726.0,907.0,-389.0,1890.0,3474.0,,,,1.85512475794783,-3.08803145678724,-1.74249112134991,,-1.4530044820557797,,
,6097.0,822.0,6722.0,906.0,-375.0,1889.0,3455.0,,,,1.8561151441109,-3.08904647271716,-1.74344282140241,,-1.1011642195822695,,
,6094.0,821.0,6721.0,904.0,-370.0,1887.0,3478.0,,,,1.8554824963671,-3.0886683977035,-1.74346644693798,,-0.6968378949863321,,
,6095.0,823.0,6718.0,908.0,-375.0,1895.0,3469.0,,,,1.85513478309686,-3.08890021137219,-1.74257677712531,,-0.24688649755679706,,
,6098.0,823.0,6720.0,907.0,-359.0,1896.0,3468.0,,,,1.85559807212606,-3.0889395525013,-1.74350504581815,,0.23963685925190048,,
,6097.0,825.0,6720.0,906.0,-349.0,1893.0,3462.0,,,,1.85514117883738,-3.0889026590967,-1.74213362484177,,0.7518010952021279,,
,6095.0,820.0,6718.0,904.0,-363.0,1892.0,3475.0,,,,1.85574364530571,-3.08841568504289,-1.74264353628681,,1.2771515703913607,,
,6101.0,823.0,6717.0,907.0,-370.0,1886.0,3477.0,,,,1.85566571621683,-3.08951279439927,-1.74304488521562,,1.8020968021591555,,
,6100.0,826.0,6719.0,907.0,-367.0,1867.0,3490.0,,,,1.85565575886781,-3.08910645655809,-1.74304482715785,,2.3123317296764063,,
,6103.0,823.0,6719.0,907.0,-361.0,1873.0,3491.0,,,,1.855361752231,-3.08939231866543,-1.74187074136668,,2.793306669094726,,
,6103.0,822.0,6720.0,906.0,-376.0,1885.0,3489.0,,,,1.85580101975076,-3.0891324983212,-1.74241313192362,,3.2307472256787273,,
,6106.0,823.0,6720.0,908.0,-378.0,1887.0,3467.0,,,,1.85594234803137,-3.08972658804751,-1.74180137917603,,3.6112200882483645,,
,6106.0,822.0,6723.0,907.0,-369.0,1875.0,3443.0,,,,1.85680706955399,-3.09030119693477,-1.74274979020298,,3.9227265890998524,,
,6109.0,826.0,6726.0,909.0,-382.0,1880.0,3464.0,,,,1.85616496375054,-3.08857622303408,-1.7426519438919,,4.1552930732570355,,
,6109.0,825.0,6723.0,908.0,-377.0,1893.0,3489.0,,,,1.85594058463318,-3.08906397050041,-1.74190356033904,,4.301516163399564,,
,6110.0,825.0,6724.0,906.0,-379.0,1888.0,3482.0,,,,1.8563076814403,-3.08827483675292,-1.74201190542616,,4.357013390799722,,
,6112.0,824.0,6727.0,909.0,-385.0,1889.0,3502.0,,,,1.85585200554343,-3.08983318814296,-1.7422900965158,,4.320727415257974,,
,6113.0,827.0,6727.0,909.0,-371.0,1896.0,3497.0,,,,1.85593400371986,-3.08945771650459,-1.74198651487048,,4.195037580207856,,
,6113.0,827.0,6728.0,907.0,-361.0,1894.0,3486.0,,,,1.85631676541504,-3.08878500642478,-1.74257219197451,,3.985647655870222,,
,6115.0,827.0,6727.0,905.0,-348.0,1887.0,3475.0,,,,1.85605088717521,-3.09060580273362,-1.74220705172471,,3.7012431809661175,,
,6118.0,823.0,6730.0,908.0,-384.0,1876.0,3475.0,,,,1.8559275219634,-3.08949420244639,-1.74245079130046,,3.3529424124567666,,
,6117.0,826.0,6729.0,907.0,-372.0,1882.0,3462.0,,,,1.85571920972912,-3.09041494992568,-1.74202443146882,,2.953594669000845,,
,6119.0,826.0,6733.0,909.0,-376.0,1881.0,3458.0,,,,1.85628836457372,-3.08926440319973,-1.7414058564289,,2.517000700264987,,
,6120.0,827.0,6732.0,906.0,-365.0,1885.0,3467.0,,,,1.85675423840319,-3.08949517390639,-1.74170140141913,,2.0571361009476115,,
,6117.0,824.0,6730.0,906.0,-351.0,1887.0,3474.0,,,,1.85650144006448,-3.08894422656875,-1.74175037789508,,1.5874503195633192,,
,6118.0,826.0,6733.0,908.0,-367.0,1884.0,3490.0,,,,1.85702502571969,-3.08896577485885,-1.7416415500581,,1.1202945761777996,,
,6120.0,826.0,6732.0,907.0,-374.0,1890.0,3480.0,,,,1.85657391971277,-3.08956504704554,-1.74156470724239,,0.6665077775037986,,
,6124.0,826.0,6731.0,909.0,-385.0,1890.0,3480.0,,,,1.857047964473,-3.08988694784959,-1.74143900595941,,0.2351653617973161,,
,6121.0,823.0,6731.0,907.0,-373.0,1879.0,3479.0,,,,1.85684375586364,-3.08937757242706,-1.74136651159472,,-0.16652452816258423,,
,6123.0,826.0,6732.0,907.0,-366.0,1882.0,3478.0,,,,1.85679702633112,-3.08890434453757,-1.74267317055028,,-0.5332077915189283,,
,6124.0,829.0,6733.0,907.0,-373.0,1873.0,3482.0,,,,1.85556413006336,-3.08928651900063,-1.7417892277987,,-0.8612917142691877,,
,6125.0,824.0,6733.0,909.0,-368.0,1874.0,3489.0,,,,1.85596852634151,-3.09013017255618,-1.74067623452324,,-1.1488102671508549,,
,6124.0,823.0,6733.0,906.0,-341.0,1879.0,3471.0,,,,1.8558073368241,-3.0901864613115,-1.74161627869504,,-1.3952770180580467,,
,6123.0,824.0,6729.0,905.0,-359.0,1877.0,3457.0,,,,1.85559707579487,-3.09019539987995,-1.74092573798235,,-1.6015421125452807,,
,6124.0,825.0,6734.0,909.0,-364.0,1886.0,3474.0,,,,1.85508057961122,-3.08999033533245,-1.74137681326233,,-1.769654815603971,,
,6130.0,826.0,6733.0,906.0,-365.0,1891.0,3458.0,,,,1.85423411665975,-3.08971798035031,-1.7415988311963,,-1.9027212732646466,,
,6131.0,823.0,6734.0,909.0,-376.0,1893.0,3450.0,,,,1.85391345577999,-3.0902064396329,-1.74060401300966,,-2.0047421192443426,,
,6128.0,826.0,6737.0,906.0,-370.0,1873.0,3473.0,,,,1.85372863828235,-3.09104281207003,-1.74225820867596,,-2.0804167907623334,,
,6132.0,828.0,6736.0,907.0,-399.0,1880.0,3481.0,,,,1.85444904465726,-3.09027014385816,-1.74203540268434,,-2.134908521961698,,
,6133.0,828.0,6738.0,908.0,-374.0,1886.0,3489.0,,,,1.85430239642224,-3.08959878702153,-1.74150675138294,,-2.1735728096019367,,
,6136.0,827.0,6736.0,909.0,-376.0,1885.0,3473.0,,,,1.85393141325281,-3.09074698663565,-1.74111207643964,,-2.2016605582797215,,
,6136.0,826.0,6738.0,907.0,-389.0,1891.0,3462.0,,,,1.85397269935549,-3.09099933180312,-1.74158243637637,,-2.224014138433555,,
,6136.0,827.0,6739.0,906.0,-394.0,1896.0,3478.0,,,,1.85356235602755,-3.09079455666816,-1.74241586252201,,-2.2447795991768587,,
,6142.0,828.0,6742.0,910.0,-385.0,1893.0,3512.0,,,,1.85363818140918,-3.09104430875978,-1.7414813709216,,-2.2671603682206287,,
,6144.0,828.0,6744.0,909.0,-363.0,1888.0,3490.0,,,,1.85322432861392,-3.09049541144463,-1.74126107467902,,-2.2932358478597896,,
,6144.0,826.0,6747.0,909.0,-356.0,1894.0,3487.0,,,,1.8539574878218,-3.09070487566759,-1.74267154968798,,-2.3238616182515623,,
,6143.0,828.0,6745.0,907.0,-376.0,1886.0,3471.0,,,,1.85380926401814,-3.08950225752181,-1.7413271098355,,-2.358656771527775,,
2025-07-21 19:46:56,6148.0,827.0,6751.0,906.0,-392.0,1883.0,3493.0,,,2025/07/21 07:46:56 PM,1.85448953842669,-3.09024174192458,-1.74104644626221,,-2.396070293575384,,
,6153.0,829.0,6753.0,912.0,-385.0,1877.0,3487.0,,,,1.85452796833042,-3.09121953727487,-1.74203502099328,,-2.43350640812887,,
,6156.0,830.0,6754.0,911.0,-391.0,1876.0,3481.0,,,,1.85506786166886,-3.0900835065053,-1.74044845386721,,-2.4674829615146674,,
,6155.0,831.0,6754.0,911.0,-385.0,1869.0,3481.0,,,,1.85456117151745,-3.08967304089572,-1.74200422194077,,-2.4937995961514123,,
,6158.0,829.0,6761.0,909.0,-381.0,1882.0,3476.0,,,,1.85482735201091,-3.09066891357989,-1.74163272709142,,-2.507702019085516,,
,6160.0,831.0,6765.0,913.0,-378.0,1896.0,3474.0,,,,1.85453044522897,-3.0908533004248,-1.74113722997808,,-2.5040407128181643,,
,6164.0,832.0,6763.0,914.0,-367.0,1882.0,3480.0,,,,1.85474895693551,-3.0905336726289,-1.74094183882067,,-2.4774326008573557,,
,6164.0,831.0,6767.0,912.0,-372.0,1885.0,3483.0,,,,1.85477825833743,-3.08979649445976,-1.74126128231653,,-2.4224399947009383,,
,6168.0,832.0,6768.0,913.0,-383.0,1871.0,3461.0,,,,1.85422335868155,-3.09100424757017,-1.74208729267847,,-2.3337819420649417,,
,6172.0,831.0,6772.0,913.0,-412.0,1875.0,3456.0,,,,1.85524733900585,-3.09120006364699,-1.74088253784495,,-2.2065891003481726,,
,6173.0,834.0,6774.0,913.0,-371.0,1879.0,3459.0,,,,1.85496999662134,-3.0911290919519,-1.74131627831732,,-2.0367050918864185,,
,6173.0,832.0,6779.0,913.0,-375.0,1886.0,3468.0,,,,1.85493876829058,-3.09092019355469,-1.73991875991506,,-1.821025983753391,,
,6174.0,832.0,6778.0,912.0,-389.0,1891.0,3476.0,,,,1.85388853554946,-3.08979421806371,-1.74076352709804,,-1.5578566660639581,,
,6178.0,833.0,6786.0,913.0,-388.0,1889.0,3475.0,,,,1.85494685992726,-3.09067544776762,-1.74044127442264,,-1.2472507868875014,,
,6182.0,835.0,6790.0,916.0,-366.0,1895.0,3471.0,,,,1.85417107741367,-3.09081661555323,-1.74090749238992,,-0.8912926603020113,,
,6183.0,836.0,6790.0,915.0,-375.0,1888.0,3475.0,,,,1.85501996518991,-3.09091468387934,-1.74091344188172,,-0.4942786116419036,,
,6186.0,838.0,6794.0,918.0,-380.0,1874.0,3494.0,,,,1.85475109750811,-3.09084105145301,-1.74057764644934,,-0.06276351873532224,,
,6186.0,835.0,6794.0,916.0,-376.0,1876.0,3435.0,,,,1.85428744656502,-3.09042887600955,-1.74075678458141,,0.39454568628570796,,
,6189.0,836.0,6798.0,916.0,-369.0,1881.0,3439.0,,,,1.85427504120164,-3.08991464230018,-1.74082991968849,,0.8670490245937333,,
,6186.0,835.0,6795.0,916.0,-374.0,1887.0,3445.0,,,,1.85498838612503,-3.09132269040644,-1.74121453324955,,1.342648372108933,,
,6185.0,833.0,6795.0,915.0,-378.0,1893.0,3439.0,,,,1.85421637021827,-3.09148923599744,-1.7403852161653,,1.8082509329346443,,
,6181.0,831.0,6791.0,914.0,-377.0,1900.0,3457.0,,,,1.85512876473432,-3.09082375116486,-1.73963113355343,,2.250347939227543,,
,6179.0,829.0,6784.0,913.0,-388.0,1890.0,3489.0,,,,1.85525889665707,-3.09137552912147,-1.74014544109346,,2.6556317826352593,,
,6176.0,829.0,6780.0,913.0,-382.0,1891.0,3472.0,,,,1.85423300356006,-3.09114930831231,-1.74083869076656,,3.011612731844447,,
,6172.0,826.0,6771.0,911.0,-399.0,1881.0,3492.0,,,,1.85400532783565,-3.09106388358312,-1.74019783498326,,3.30719619301167,,
,6170.0,827.0,6762.0,908.0,-388.0,1867.0,3476.0,,,,1.8545530306328,-3.09209981568666,-1.74031524312783,,3.533184383482418,,
,6164.0,822.0,6753.0,906.0,-371.0,1878.0,3486.0,,,,1.85378451011581,-3.09089051940334,-1.73971043293498,,3.6826732968152345,,
,6161.0,822.0,6742.0,905.0,-379.0,1889.0,3486.0,,,,1.85423263414391,-3.09119798796549,-1.74002720409384,,3.7513267175242606,,
,6159.0,822.0,6735.0,905.0,-377.0,1876.0,3499.0,,,,1.85442695958538,-3.09135454258154,-1.74084314917913,,3.737521626114195,,
,6153.0,819.0,6726.0,904.0,-389.0,1879.0,3485.0,,,,1.85461812238945,-3.09033943200931,-1.74005301906795,,3.642369938918327,,
,6153.0,817.0,6718.0,901.0,-383.0,1898.0,3468.0,,,,1.85466526779076,-3.09060767077405,-1.74146999831298,,3.469627195935648,,
,6152.0,816.0,6708.0,900.0,-381.0,1884.0,3472.0,,,,1.85429652855558,-3.09122636435162,-1.74056609845089,,3.2254995552484687,,
,6147.0,816.0,6708.0,900.0,-359.0,1885.0,3471.0,,,,1.8539327117597,-3.09073791091921,-1.74079716613686,,2.918359081031575,,
,6147.0,816.0,6697.0,899.0,-377.0,1875.0,3488.0,,,,1.85448344053324,-3.0914605539849,-1.74061678716455,,2.558376997938892,,
,6148.0,814.0,6692.0,897.0,-386.0,1887.0,3460.0,,,,1.8541333531336,-3.0922231900387,-1.74057525420017,,2.1570866579404044,,
,6148.0,812.0,6689.0,896.0,-367.0,1878.0,3448.0,,,,1.85504012548081,-3.09103281980149,-1.74012594518497,,1.7268916586006384,,
,6146.0,812.0,6685.0,897.0,-383.0,1865.0,3482.0,,,,1.85454942413646,-3.09108163217334,-1.74120696047873,,1.2805382647283101,,
,6145.0,813.0,6682.0,898.0,-386.0,1859.0,3508.0,,,,1.8550123230872,-3.09123052475368,-1.74068660772061,,0.8305739137647707,,
,6147.0,811.0,6679.0,894.0,-383.0,1869.0,3506.0,,,,1.85461478553952,-3.09088905269982,-1.74074914263369,,0.3888150747419535,,
,6146.0,811.0,6673.0,894.0,-377.0,1881.0,3482.0,,,,1.8546428304764,-3.09180208454571,-1.74088727835131,,-0.03415113145318051,,
,6146.0,813.0,6672.0,897.0,-371.0,1888.0,3468.0,,,,1.85510590936616,-3.09133639240001,-1.74119566189185,,-0.4294055251197771,,
,6147.0,814.0,6671.0,897.0,-384.0,1890.0,3479.0,,,,1.85456106395297,-3.09045669154952,-1.74045903935642,,-0.7900477924494789,,
,6149.0,814.0,6672.0,897.0,-384.0,1879.0,3476.0,,,,1.85562388267044,-3.09155929629741,-1.74037871575939,,-1.1114316760256153,,
,6150.0,813.0,6672.0,894.0,-378.0,1875.0,3465.0,,,,1.85404799679832,-3.09121830152487,-1.74055196319819,,-1.3912604666444783,,
,6150.0,810.0,6668.0,893.0,-371.0,1868.0,3498.0,,,,1.85558332889953,-3.09128304345877,-1.74079240808162,,-1.6295283886733092,,
,6150.0,814.0,6664.0,895.0,-371.0,1875.0,3502.0,,,,1.85542329085212,-3.09037875125623,-1.74066263666395,,-1.82830704276757,,
,6153.0,813.0,6669.0,899.0,-371.0,1871.0,3494.0,,,,1.85487755029049,-3.09124545745253,-1.74065284619723,,-1.9913906837574185,,
,6155.0,811.0,6667.0,895.0,-370.0,1860.0,3478.0,,,,1.85508004915308,-3.09042438762118,-1.74075234790768,,-2.1238272069986914,,
,6157.0,812.0,6666.0,890.0,-364.0,1864.0,3468.0,,,,1.85553418590851,-3.09131589837274,-1.74145058291435,,-2.2313720401614154,,
,6158.0,813.0,6666.0,894.0,-371.0,1900.0,3473.0,,,,1.85522175629051,-3.09090133139325,-1.74009640836817,,-2.3199093341618267,,
,6160.0,813.0,6669.0,896.0,-374.0,1910.0,3478.0,,,,1.85454255689717,-3.09088252478881,-1.74018417479416,,-2.3948886318984295,,
,6163.0,813.0,6668.0,894.0,-372.0,1899.0,3478.0,,,,1.85556489111784,-3.09103968076437,-1.74118188142622,,-2.460824877081812,,
,6161.0,811.0,6666.0,895.0,-368.0,1889.0,3497.0,,,,1.85459794362602,-3.09058951437083,-1.74036965520302,,-2.520904235479105,,
,6163.0,814.0,6665.0,893.0,-380.0,1874.0,3475.0,,,,1.85568796628659,-3.0914992443329,-1.74028364402261,,-2.5767270879433855,,
,6162.0,812.0,6669.0,895.0,-389.0,1882.0,3479.0,,,,1.85584553334423,-3.09047110296403,-1.74038669397237,,-2.628203259048954,,
,6166.0,812.0,6671.0,896.0,-387.0,1884.0,3463.0,,,,1.85564694836344,-3.09036649841837,-1.74030793271361,,-2.6735955768960826,,
,6167.0,811.0,6666.0,895.0,-380.0,1879.0,3459.0,,,,1.85506464783845,-3.09149355393675,-1.7398571482034,,-2.709690659677854,,
,6167.0,812.0,6667.0,894.0,-376.0,1883.0,3455.0,,,,1.85500097980508,-3.09106277569215,-1.74090260184269,,-2.7320650958934616,,
,6168.0,813.0,6670.0,898.0,-386.0,1885.0,3486.0,,,,1.85490009999357,-3.09086674511956,-1.7409906048556,,-2.735413159352438,,
,6171.0,815.0,6670.0,897.0,-376.0,1903.0,3517.0,,,,1.85549376705053,-3.09215982262353,-1.7403148104716,,-2.7139072287183508,,
,6169.0,812.0,6668.0,896.0,-370.0,1897.0,3531.0,,,,1.85590773762287,-3.09165491521054,-1.74069209239446,,-2.6615700700796814,,
,6172.0,813.0,6669.0,897.0,-370.0,1878.0,3496.0,,,,1.85571673326459,-3.09105985026324,-1.74119485425294,,-2.5726453085293244,,
,6169.0,812.0,6667.0,895.0,-373.0,1875.0,3470.0,,,,1.85573343421756,-3.09064680172093,-1.74019341708162,,-2.4419568743108484,,
,6174.0,813.0,6670.0,897.0,-368.0,1876.0,3458.0,,,,1.85587002032251,-3.0910838968987,-1.74071178745091,,-2.265249786727742,,
,6173.0,814.0,6668.0,896.0,-378.0,1870.0,3458.0,,,,1.85539128649867,-3.08997714313417,-1.74157913550621,,-2.0395040347746547,,
,6174.0,812.0,6667.0,896.0,-367.0,1884.0,3466.0,,,,1.85628663628947,-3.09113374998181,-1.74011271522175,,-1.7632115225235059,,
,6173.0,811.0,6664.0,894.0,-368.0,1893.0,3480.0,,,,1.8547063740373,-3.09133737491865,-1.74057705778878,,-1.4366040273771705,,
,6173.0,813.0,6668.0,896.0,-377.0,1907.0,3484.0,,,,1.85554146878444,-3.09080117027061,-1.73993332712723,,-1.061818507378777,,
,6178.0,813.0,6670.0,897.0,-380.0,1892.0,3492.0,,,,1.85455187826142,-3.09039221480985,-1.74093218600926,,-0.6429852424929957,,
,6180.0,814.0,6667.0,896.0,-375.0,1877.0,3478.0,,,,1.85417242935978,-3.09113706552068,-1.74025808754828,,-0.18622483804442522,,
,6176.0,812.0,6668.0,894.0,-397.0,1864.0,3468.0,,,,1.85451620179248,-3.09208068471564,-1.74028810531945,,0.30045665865339605,,
,6179.0,810.0,6668.0,893.0,-359.0,1857.0,3470.0,,,,1.85503656925105,-3.09167778766378,-1.73981344519262,,0.8073783271914821,,
,6184.0,812.0,6669.0,895.0,-373.0,1881.0,3452.0,,,,1.85495046170318,-3.09135570806521,-1.74083358502828,,1.3234945357515504,,
,6184.0,812.0,6666.0,897.0,-367.0,1893.0,3440.0,,,,1.85486306483358,-3.09150541724101,-1.74045740548041,,1.8367885627451908,,
,6186.0,814.0,6669.0,898.0,-362.0,1894.0,3468.0,,,,1.85345402401656,-3.0917088920487,-1.74022134517767,,2.334726234278493,,
,6186.0,814.0,6670.0,895.0,-374.0,1893.0,3487.0,,,,1.85503873817676,-3.09185812748686,-1.7396325488061,,2.804742574032768,,
,6188.0,811.0,6674.0,895.0,-396.0,1886.0,3509.0,,,,1.85358886277694,-3.09264202123306,-1.74012876322947,,3.2347338176850107,,
,6191.0,813.0,6672.0,896.0,-390.0,1864.0,3520.0,,,,1.8543064903385,-3.09156569559406,-1.74003591732816,,3.613528136276471,,
,6191.0,814.0,6675.0,897.0,-381.0,1868.0,3492.0,,,,1.8540684096476,-3.09192779161468,-1.74030407072892,,3.931310496412338,,
,6191.0,814.0,6674.0,894.0,-361.0,1865.0,3459.0,,,,1.85392932168733,-3.09224618574055,-1.74014194014339,,4.179980606067084,,
,6195.0,812.0,6674.0,895.0,-338.0,1875.0,3459.0,,,,1.85397925781372,-3.09221628487064,-1.74005985261204,,4.353428542643265,,
,6198.0,816.0,6680.0,897.0,-358.0,1882.0,3463.0,,,,1.8549927759465,-3.0917010205441,-1.74041066216921,,4.4477206272649905,,
,6199.0,816.0,6681.0,899.0,-393.0,1875.0,3464.0,,,,1.85393416059058,-3.09121748548417,-1.73939358369388,,4.4611971920205145,,
,6201.0,814.0,6684.0,899.0,-374.0,1873.0,3468.0,,,,1.85422157000037,-3.0919113403258,-1.74059141128903,,4.394491233131326,,
,6202.0,816.0,6682.0,898.0,-380.0,1873.0,3487.0,,,,1.85449087141573,-3.09116628255564,-1.74044640935884,,4.250479414582746,,
,6204.0,817.0,6689.0,898.0,-382.0,1868.0,3496.0,,,,1.8548256001835,-3.09089399398138,-1.74090832214251,,4.034173542880448,,
,6208.0,817.0,6690.0,901.0,-369.0,1878.0,3499.0,,,,1.85446932044277,-3.09090859190798,-1.74062239733021,,3.752554020928538,,
,6209.0,818.0,6694.0,901.0,-383.0,1869.0,3475.0,,,,1.85419978841589,-3.09188825114531,-1.74083440136462,,3.414341407506673,,
,6211.0,817.0,6694.0,898.0,-394.0,1877.0,3478.0,,,,1.85412874655867,-3.09072292589621,-1.73979193859598,,3.0297014098549964,,
,6213.0,819.0,6697.0,900.0,-386.0,1875.0,3493.0,,,,1.85447213056545,-3.09117428718366,-1.7399949918896,,2.609882779771738,,
,6215.0,822.0,6702.0,902.0,-379.0,1885.0,3486.0,,,,1.85385835715636,-3.09055467353194,-1.74021063497776,,2.1667946808370235,,
,6218.0,822.0,6704.0,902.0,-377.0,1870.0,3478.0,,,,1.85492487429046,-3.09123550220179,-1.74003494269813,,1.7125377059559648,,
,6223.0,819.0,6706.0,903.0,-383.0,1870.0,3489.0,,,,1.85528819370487,-3.09109967382401,-1.74112290895862,,1.2589093757850094,,
,6219.0,818.0,6708.0,900.0,-366.0,1878.0,3458.0,,,,1.85466443301759,-3.09068164802608,-1.74135454571943,,0.8169104256477344,,
,6226.0,820.0,6711.0,904.0,-370.0,1883.0,3473.0,,,,1.8546663378616,-3.09017208291028,-1.74089511090944,,0.396282859032695,,
,6225.0,823.0,6715.0,903.0,-374.0,1863.0,3479.0,,,,1.85411906730143,-3.09022273274279,-1.74064389688511,,0.005114325133993052,,
,6228.0,824.0,6717.0,902.0,-368.0,1864.0,3493.0,,,,1.85504588920608,-3.09061185989437,-1.73979701632364,,-0.3504559635360456,,
,6230.0,822.0,6718.0,904.0,-374.0,1862.0,3520.0,,,,1.85543082991299,-3.09072884574272,-1.74083301399149,,-0.6663995232901301,,
,6232.0,823.0,6722.0,903.0,-375.0,1880.0,3503.0,,,,1.85501794369447,-3.09102388736535,-1.74060108381767,,-0.9408108044475559,,
,6234.0,826.0,6727.0,904.0,-381.0,1876.0,3503.0,,,,1.85604018959568,-3.09062791797763,-1.7400059007577,,-1.1737683148912943,,
,6235.0,824.0,6730.0,908.0,-371.0,1868.0,3468.0,,,,1.85556506469465,-3.09026602521305,-1.74118912287442,,-1.3670623725253788,,
,6238.0,826.0,6734.0,905.0,-367.0,1865.0,3470.0,,,,1.8547849655374,-3.0912778324202,-1.74119409774545,,-1.5238232489672467,,
,6237.0,824.0,6731.0,904.0,-374.0,1861.0,3461.0,,,,1.85529820905247,-3.09075833456596,-1.74048622060246,,-1.6480942933533478,,
,6238.0,824.0,6732.0,907.0,-385.0,1874.0,3441.0,,,,1.85499219202073,-3.09039295751239,-1.74123202502389,,-1.7443993013889258,,
,6237.0,822.0,6733.0,906.0,-395.0,1889.0,3479.0,,,,1.85505055848529,-3.08960091730259,-1.74123444667878,,-1.817351947515054,,
,6235.0,824.0,6730.0,903.0,-383.0,1883.0,3477.0,,,,1.8553199905449,-3.09015872166577,-1.74041408124217,,-1.8713478029156796,,
,6232.0,821.0,6723.0,902.0,-379.0,1882.0,3483.0,,,,1.85548161953061,-3.09013282300294,-1.74137550412868,,-1.9103666169403088,,
,6228.0,817.0,6717.0,901.0,-376.0,1878.0,3495.0,,,,1.85552961677594,-3.09083096960269,-1.74120220536579,,-1.9378947810401599,,
,6225.0,819.0,6710.0,902.0,-374.0,1861.0,3472.0,,,,1.85569002583661,-3.09119880524083,-1.74118906555746,,-1.9569568622491629,,
,6221.0,817.0,6702.0,899.0,-364.0,1852.0,3478.0,,,,1.85522592230071,-3.09097825110516,-1.74040954362429,,-1.970224080295063,,
,6218.0,813.0,6695.0,898.0,-365.0,1853.0,3477.0,,,,1.85516560147333,-3.09009670360942,-1.74183486122539,,-1.9801515240910643,,
,6212.0,812.0,6685.0,896.0,-374.0,1872.0,3454.0,,,,1.8550930827281,-3.09138938807072,-1.74004442980638,,-1.989089781189308,,
,6213.0,811.0,6675.0,894.0,-381.0,1874.0,3489.0,,,,1.85543723189558,-3.09152219163991,-1.74058859774626,,-1.9993229613749732,,
,6210.0,812.0,6670.0,895.0,-368.0,1869.0,3495.0,,,,1.8553309066592,-3.09011537583828,-1.74159643033902,,-2.013002146287641,,
,6207.0,811.0,6665.0,891.0,-381.0,1884.0,3494.0,,,,1.85521806566738,-3.09088595261376,-1.74045492200895,,-2.0319663481152688,,
,6205.0,807.0,6653.0,889.0,-378.0,1888.0,3511.0,,,,1.85499602213084,-3.09047065821896,-1.74053298229317,,-2.0574669682807705,,
,6203.0,808.0,6647.0,891.0,-375.0,1880.0,3527.0,,,,1.85524458524559,-3.09094630174212,-1.74075671492386,,-2.0898327291123677,,
,6202.0,807.0,6642.0,891.0,-386.0,1882.0,3512.0,,,,1.85557404865078,-3.09040594568175,-1.74187670363458,,-2.1281277020420624,,
,6202.0,808.0,6638.0,890.0,-378.0,1880.0,3503.0,,,,1.85616057558171,-3.08995927095493,-1.74120378554082,,-2.169863609478135,,
,6198.0,804.0,6633.0,889.0,-364.0,1877.0,3486.0,,,,1.85620017002723,-3.09001853143287,-1.74160815678877,,-2.2108275779443436,,
,6200.0,805.0,6629.0,888.0,-359.0,1861.0,3489.0,,,,1.85569064804954,-3.08921408170667,-1.74053135355482,,-2.245077084477377,,
,6199.0,805.0,6624.0,888.0,-376.0,1859.0,3498.0,,,,1.85634807692232,-3.08970140150251,-1.74147934023419,,-2.26513509709547,,
,6202.0,804.0,6626.0,888.0,-367.0,1866.0,3476.0,,,,1.85620746396448,-3.09045865736274,-1.7409814007097,,-2.2623919374485113,,
,6203.0,803.0,6624.0,886.0,-377.0,1868.0,3474.0,,,,1.85597343104723,-3.08961522012908,-1.7421203300648,,-2.2276897205130872,,
,6202.0,803.0,6620.0,888.0,-380.0,1884.0,3489.0,,,,1.85627338209179,-3.09017464694178,-1.74013710218386,,-2.1520360373608023,,
,6198.0,804.0,6617.0,886.0,-386.0,1884.0,3485.0,,,,1.85630228719064,-3.09065332434187,-1.74121316932757,,-2.027372461936126,,
,6204.0,806.0,6617.0,889.0,-378.0,1895.0,3478.0,,,,1.85633367908351,-3.0891143711992,-1.74115592889311,,-1.8473152571752183,,
,6203.0,805.0,6614.0,887.0,-389.0,1885.0,3468.0,,,,1.85592890177664,-3.09001229112662,-1.74191257245777,,-1.607791054985916,,
2025-07-21 19:46:57,6205.0,805.0,6614.0,884.0,-373.0,1881.0,3473.0,,,2025/07/21 07:46:57 PM,1.8558820891241,-3.08938962274038,-1.74145261144907,,-1.307506441274486,,
,6205.0,803.0,6612.0,886.0,-366.0,1859.0,3493.0,,,,1.8559915355298,-3.08993584160378,-1.7407988118193,,-0.9482131962427803,,
,6207.0,807.0,6615.0,890.0,-375.0,1855.0,3470.0,,,,1.85653727840143,-3.09010123680445,-1.74223347248398,,-0.5347566785399355,,
,6209.0,806.0,6616.0,888.0,-367.0,1863.0,3478.0,,,,1.85573420978505,-3.08946940249464,-1.74167390136131,,-0.07491998261323769,,
,6208.0,807.0,6614.0,889.0,-364.0,1859.0,3477.0,,,,1.85562970134339,-3.08965767315378,-1.74064508868339,,0.42090281345507236,,
,6210.0,804.0,6613.0,888.0,-383.0,1886.0,3463.0,,,,1.85586183978824,-3.09052636919139,-1.74110267606822,,0.9401584708358315,,
,6211.0,805.0,6614.0,887.0,-383.0,1884.0,3471.0,,,,1.85612477086552,-3.08910928499192,-1.74136655645291,,1.4686634783638297,,
,6209.0,804.0,6617.0,888.0,-368.0,1887.0,3491.0,,,,1.85638687366512,-3.0899624477415,-1.74157719015759,,1.9911697896732745,,
,6214.0,809.0,6619.0,887.0,-362.0,1871.0,3494.0,,,,1.85634629771083,-3.08938473466039,-1.7409908344409,,2.4919418334599115,,
,6215.0,806.0,6615.0,888.0,-362.0,1877.0,3498.0,,,,1.85689858059179,-3.08989645349401,-1.74175473291278,,2.9553354935577376,,
,6215.0,805.0,6615.0,886.0,-377.0,1894.0,3471.0,,,,1.85608204935211,-3.08937273942615,-1.74168542239291,,3.366381543643889,,
,6215.0,806.0,6617.0,890.0,-377.0,1869.0,3464.0,,,,1.85658216030685,-3.08954633953337,-1.74086178418022,,3.7113785185177215,,
,6220.0,808.0,6622.0,891.0,-406.0,1879.0,3478.0,,,,1.85581291754877,-3.08959336021358,-1.74195956591701,,3.9784921324277,,
,6217.0,806.0,6619.0,887.0,-391.0,1871.0,3483.0,,,,1.85625825216987,-3.08932382410299,-1.74141939199189,,4.158343326306424,,
,6220.0,805.0,6622.0,887.0,-378.0,1878.0,3502.0,,,,1.85645336768859,-3.09033240142417,-1.74121554765931,,4.244550269425434,,
,6218.0,806.0,6620.0,888.0,-362.0,1880.0,3497.0,,,,1.85650214069604,-3.08930965364923,-1.74079353475119,,4.2341760845902305,,
,6221.0,808.0,6622.0,889.0,-379.0,1893.0,3480.0,,,,1.85718141729328,-3.08984320480241,-1.74134701522647,,4.128026996416363,,
,6221.0,807.0,6625.0,887.0,-397.0,1895.0,3488.0,,,,1.85700031627612,-3.08956811199536,-1.74126417136775,,3.930747126449457,,
,6221.0,806.0,6623.0,889.0,-384.0,1895.0,3487.0,,,,1.85645057914597,-3.08985690738763,-1.74155103885536,,3.650667787139414,,
,6221.0,805.0,6622.0,887.0,-384.0,1876.0,3485.0,,,,1.85677702408322,-3.08916989758449,-1.74109506679974,,3.2993913753113797,,
,6224.0,806.0,6621.0,889.0,-377.0,1887.0,3476.0,,,,1.85704243338156,-3.08908425365566,-1.74087651967681,,2.8911211758443174,,
,6225.0,808.0,6622.0,887.0,-374.0,1889.0,3499.0,,,,1.85710902927388,-3.0890038655444,-1.74120249876543,,2.44178389176065,,
,6225.0,808.0,6623.0,886.0,-378.0,1883.0,3509.0,,,,1.85664153166954,-3.08929074982974,-1.74060197720933,,1.9680242952014764,,
,6226.0,805.0,6622.0,886.0,-377.0,1872.0,3486.0,,,,1.85715195033055,-3.08936205041576,-1.74120933668431,,1.4861731253636343,,
,6229.0,807.0,6619.0,887.0,-379.0,1884.0,3481.0,,,,1.85569864260662,-3.08979866431297,-1.74182743256748,,1.0112943812576054,,
,6229.0,807.0,6623.0,890.0,-371.0,1889.0,3482.0,,,,1.85561257014751,-3.09086285982629,-1.7414304577837,,0.556405096815643,,
,6226.0,808.0,6625.0,889.0,-382.0,1884.0,3467.0,,,,1.85498791014244,-3.09001073045447,-1.7427616105935,,0.13193321353163062,,
,6227.0,809.0,6624.0,889.0,-363.0,1874.0,3471.0,,,,1.85543343316021,-3.08976963961532,-1.74234077026425,,-0.25455583233816503,,
,6228.0,804.0,6621.0,888.0,-373.0,1887.0,3477.0,,,,1.85401735506089,-3.09000390395224,-1.74214689905495,,-0.5983685090499558,,
,6232.0,808.0,6626.0,886.0,-373.0,1895.0,3459.0,,,,1.85472878841283,-3.09081048722158,-1.74215087932144,,-0.8974634868611406,,
,6234.0,810.0,6629.0,889.0,-365.0,1891.0,3456.0,,,,1.85512678963144,-3.09015950886609,-1.74190633221955,,-1.152059740003546,,
,6235.0,809.0,6628.0,890.0,-372.0,1890.0,3464.0,,,,1.85489727970226,-3.08952328252938,-1.74049870929838,,-1.364141845221636,,
,6238.0,809.0,6630.0,891.0,-376.0,1896.0,3470.0,,,,1.85425885918736,-3.0898224988413,-1.74208230735126,,-1.536934630464034,,
,6239.0,809.0,6629.0,889.0,-382.0,1870.0,3456.0,,,,1.85467267635534,-3.09064779336325,-1.74200595528358,,-1.6744127326221092,,
,6238.0,811.0,6634.0,889.0,-402.0,1875.0,3451.0,,,,1.85509320572139,-3.09011022190487,-1.74162053133996,,-1.7808955746650683,,
,6242.0,811.0,6635.0,892.0,-410.0,1870.0,3458.0,,,,1.85493265414903,-3.09006076385844,-1.74158230791521,,-1.8607566005578748,,
,6244.0,811.0,6637.0,892.0,-387.0,1883.0,3457.0,,,,1.85479052915958,-3.0898555640214,-1.74136052445147,,-1.9182506523934169,,
,6243.0,811.0,6638.0,891.0,-375.0,1884.0,3453.0,,,,1.85472509370829,-3.08947961348769,-1.74159560638897,,-1.9574400962062721,,
,6246.0,812.0,6642.0,892.0,-381.0,1898.0,3478.0,,,,1.85447507310085,-3.08984157854301,-1.74195675608769,,-1.9821840866402398,,
,6248.0,814.0,6642.0,892.0,-386.0,1889.0,3493.0,,,,1.8545061007695,-3.08986820242257,-1.74164655658972,,-1.9961496976508983,,
,6250.0,812.0,6647.0,892.0,-390.0,1886.0,3491.0,,,,1.85495139777537,-3.08986952224159,-1.74237358985534,,-2.0028083923881486,,
,6252.0,815.0,6648.0,892.0,-383.0,1888.0,3474.0,,,,1.85443335647419,-3.08996739139568,-1.74231792553626,,-2.005393187303619,,
,6252.0,816.0,6652.0,891.0,-378.0,1890.0,3479.0,,,,1.85514636364707,-3.08936935143645,-1.74201556822513,,-2.006806757485358,,
,6255.0,818.0,6656.0,896.0,-390.0,1891.0,3472.0,,,,1.85405662735162,-3.08897113648234,-1.74243909102374,,-2.0094855274455776,,
,6259.0,818.0,6659.0,896.0,-389.0,1886.0,3477.0,,,,1.85506825086688,-3.08904662278293,-1.74239816150591,,-2.015237601827562,,
,6259.0,816.0,6664.0,896.0,-369.0,1878.0,3509.0,,,,1.85420522784001,-3.08887950334477,-1.74260153819168,,-2.0250817776995644,,
,6257.0,816.0,6664.0,896.0,-378.0,1876.0,3496.0,,,,1.85533108916616,-3.08959667807364,-1.74208130790021,,-2.039119420173636,,
,6263.0,819.0,6670.0,897.0,-376.0,1861.0,3496.0,,,,1.85514655379629,-3.08851550646762,-1.7418926301828,,-2.0564694405412225,,
,6265.0,818.0,6673.0,897.0,-371.0,1876.0,3463.0,,,,1.85546545896358,-3.08924080112268,-1.74238312303992,,-2.0752883967243023,,
,6266.0,819.0,6676.0,899.0,-370.0,1863.0,3481.0,,,,1.85521610439455,-3.08985685546167,-1.74173986954672,,-2.0928834687106583,,
,6269.0,820.0,6678.0,897.0,-373.0,1877.0,3475.0,,,,1.85525566249622,-3.08868080544075,-1.74202056247507,,-2.1059082799268563,,
,6272.0,819.0,6684.0,898.0,-378.0,1882.0,3501.0,,,,1.85502482601915,-3.09054102803994,-1.74242772177558,,-2.11061482078589,,
,6275.0,822.0,6690.0,899.0,-387.0,1887.0,3478.0,,,,1.8549591598673,-3.08916062450347,-1.74220858035758,,-2.1031243247941704,,
,6278.0,823.0,6691.0,901.0,-388.0,1890.0,3465.0,,,,1.85512079808985,-3.09004811086208,-1.74108380819973,,-2.079679073955449,,
,6278.0,823.0,6694.0,900.0,-371.0,1877.0,3452.0,,,,1.85532619784533,-3.08998007513788,-1.74152388309794,,-2.036845089230608,,
,6280.0,823.0,6698.0,901.0,-352.0,1879.0,3445.0,,,,1.85437372390551,-3.08874482313581,-1.74187418603777,,-1.9716486889480989,,
,6283.0,825.0,6702.0,902.0,-354.0,1877.0,3480.0,,,,1.8561104842845,-3.08968711116366,-1.74212632589767,,-1.8816437634455208,,
,6286.0,825.0,6707.0,904.0,-357.0,1871.0,3516.0,,,,1.85586681337053,-3.08931211650593,-1.74185769923674,,-1.7649187577159564,,
,6287.0,828.0,6712.0,904.0,-353.0,1869.0,3519.0,,,,1.85559878275161,-3.0895685763564,-1.74217209607741,,-1.620061842429998,,
,6290.0,825.0,6713.0,905.0,-363.0,1875.0,3528.0,,,,1.85600761364469,-3.08900852755485,-1.74163774744672,,-1.4461091977404588,,
,6291.0,826.0,6719.0,905.0,-370.0,1878.0,3480.0,,,,1.85549640793432,-3.08941275866789,-1.74183878929163,,-1.242504204866656,,
,6294.0,831.0,6724.0,906.0,-370.0,1886.0,3482.0,,,,1.85569952289779,-3.08856040954022,-1.74221004813374,,-1.0090938870930068,,
,6297.0,829.0,6727.0,905.0,-363.0,1891.0,3482.0,,,,1.85577505825855,-3.08973846935492,-1.74214877134094,,-0.7461823649569947,,
,6294.0,827.0,6729.0,904.0,-366.0,1891.0,3485.0,,,,1.85507967686111,-3.09001849258526,-1.74193761653727,,-0.45464911570768496,,
,6295.0,829.0,6729.0,905.0,-372.0,1883.0,3463.0,,,,1.85591320977575,-3.08986940632809,-1.74183228152308,,-0.1361237984918259,,
,6298.0,829.0,6730.0,905.0,-369.0,1883.0,3503.0,,,,1.85487565247969,-3.08965697161027,-1.74231875241404,,0.20680698585484203,,
,6292.0,825.0,6731.0,906.0,-370.0,1888.0,3491.0,,,,1.85568414309869,-3.08939846806963,-1.74229348168975,,0.5703973661289049,,
,6290.0,829.0,6727.0,909.0,-380.0,1889.0,3504.0,,,,1.85525963034529,-3.09014826915541,-1.74185531973042,,0.9495841250703888,,
,6288.0,824.0,6724.0,901.0,-387.0,1895.0,3492.0,,,,1.85607788684214,-3.08972319838324,-1.74179066517375,,1.3379079070998432,,
,6284.0,824.0,6716.0,901.0,-387.0,1892.0,3454.0,,,,1.85564145957145,-3.08967123336923,-1.74189075757557,,1.727538884148448,,
,6281.0,822.0,6712.0,902.0,-380.0,1869.0,3478.0,,,,1.85509444448838,-3.08924872725966,-1.74259174446271,,2.109420696166436,,
,6277.0,822.0,6703.0,901.0,-372.0,1864.0,3484.0,,,,1.85538066388941,-3.0895877419739,-1.74218108629681,,2.4735352866794407,,
,6277.0,819.0,6698.0,899.0,-378.0,1873.0,3459.0,,,,1.85585166160192,-3.08916034870132,-1.74213067259148,,2.8092800640524707,,
,6274.0,819.0,6690.0,898.0,-361.0,1890.0,3451.0,,,,1.8550734022922,-3.08951651082496,-1.74236364515535,,3.105937357816856,,
,6271.0,818.0,6682.0,897.0,-355.0,1891.0,3455.0,,,,1.85524976493977,-3.08887232503408,-1.74293587428408,,3.353205313038819,,
,6270.0,821.0,6680.0,898.0,-393.0,1905.0,3456.0,,,,1.85561478356664,-3.08945712535433,-1.74251175938104,,3.5417510997933626,,
,6270.0,818.0,6676.0,898.0,-400.0,1900.0,3467.0,,,,1.8556520285397,-3.08889114737919,-1.7416131508904,,3.6637435629601027,,
,6265.0,814.0,6669.0,894.0,-376.0,1893.0,3503.0,,,,1.85560833299282,-3.08809069982705,-1.74256557402052,,3.713324373995932,,
,6268.0,817.0,6666.0,894.0,-364.0,1887.0,3480.0,,,,1.8554991200425,-3.08930077839234,-1.74219340621534,,3.6869841226304225,,
,6266.0,817.0,6666.0,894.0,-378.0,1898.0,3440.0,,,,1.85525203244065,-3.08914090501924,-1.74246532550998,,3.583820383533146,,
,6264.0,818.0,6660.0,893.0,-390.0,1902.0,3459.0,,,,1.85549614986412,-3.08886906308826,-1.74228784423742,,3.4056650297998474,,
,6265.0,818.0,6660.0,893.0,-369.0,1895.0,3478.0,,,,1.8560079872934,-3.08911556115907,-1.74184937309035,,3.157075269833997,,
,6265.0,815.0,6659.0,894.0,-377.0,1895.0,3485.0,,,,1.85624394363592,-3.09014230240487,-1.74163783037068,,2.8451872731715557,,
,6265.0,818.0,6655.0,894.0,-365.0,1893.0,3469.0,,,,1.85571628492985,-3.08916971799984,-1.74167566778139,,2.479435303803945,,
,6264.0,816.0,6656.0,895.0,-360.0,1873.0,3495.0,,,,1.85609316588161,-3.08957260816425,-1.74127037309275,,2.0711451560727547,,
,6265.0,818.0,6654.0,894.0,-364.0,1878.0,3490.0,,,,1.85619758787634,-3.089063122208,-1.74200195621344,,1.6330184274033812,,
,6264.0,815.0,6653.0,892.0,-379.0,1886.0,3504.0,,,,1.85612616832101,-3.08810812521166,-1.74210705631142,,1.1785321110854934,,
,6267.0,817.0,6654.0,892.0,-393.0,1888.0,3490.0,,,,1.85627219088595,-3.08961504179056,-1.74168338710174,,0.721284458610315,,
,6268.0,817.0,6656.0,892.0,-386.0,1888.0,3482.0,,,,1.85566102509135,-3.08943219366217,-1.74177456439612,,0.2743224173811193,,
,6271.0,819.0,6657.0,893.0,-377.0,1873.0,3480.0,,,,1.85504664253425,-3.08987551999388,-1.74204593826643,,-0.1505114344452449,,
,6270.0,820.0,6656.0,894.0,-388.0,1882.0,3498.0,,,,1.85670412772537,-3.08855402053994,-1.74227455721321,,-0.5431729456606315,,
,6272.0,820.0,6656.0,893.0,-372.0,1875.0,3499.0,,,,1.85544654013286,-3.08916034715518,-1.74159701887096,,-0.8959109915731308,,
,6271.0,819.0,6660.0,895.0,-366.0,1873.0,3501.0,,,,1.85545262869279,-3.08967202893866,-1.74256012856395,,-1.2036224700945948,,
,6275.0,819.0,6664.0,893.0,-370.0,1870.0,3475.0,,,,1.85514950254514,-3.08848641807421,-1.74172660416933,,-1.4640310249604331,,
,6274.0,822.0,6662.0,895.0,-392.0,1881.0,3476.0,,,,1.85662923559022,-3.08948941068544,-1.74192232184733,,-1.6776619908613997,,
,6274.0,820.0,6663.0,894.0,-381.0,1909.0,3468.0,,,,1.8565615506936,-3.08952061590238,-1.7421445305795,,-1.8476021029277878,,
,6277.0,823.0,6665.0,897.0,-388.0,1890.0,3455.0,,,,1.85573240184492,-3.0890190163424,-1.74143682799756,,-1.9790538308811723,,
,6279.0,821.0,6670.0,896.0,-380.0,1893.0,3453.0,,,,1.85572141314067,-3.08942248204754,-1.74212980704748,,-2.0787168940766616,,
,6280.0,821.0,6667.0,895.0,-382.0,1888.0,3441.0,,,,1.85572039225837,-3.08981980220002,-1.74090010585676,,-2.154049401987429,,
,6279.0,823.0,6669.0,896.0,-383.0,1895.0,3462.0,,,,1.85615533102674,-3.08892321832531,-1.74196758978951,,-2.212475293386966,,
,6283.0,823.0,6671.0,897.0,-367.0,1880.0,3469.0,,,,1.85588376942216,-3.08981286178597,-1.7411330456635,,-2.260612099477369,,
,6283.0,824.0,6675.0,898.0,-382.0,1875.0,3477.0,,,,1.85532183513567,-3.0893176799943,-1.74224034003271,,-2.3035932906269885,,
,6283.0,823.0,6678.0,898.0,-355.0,1885.0,3486.0,,,,1.8552962274697,-3.08981751170686,-1.74114267464935,,-2.3445525936177374,,
,6283.0,825.0,6678.0,900.0,-357.0,1890.0,3481.0,,,,1.85552192690561,-3.0896295979532,-1.74185692683119,,-2.3843237044548102,,
,6282.0,823.0,6677.0,898.0,-361.0,1895.0,3474.0,,,,1.85544284009312,-3.08856172426766,-1.74208991336299,,-2.421388023160142,,
,6287.0,826.0,6681.0,899.0,-371.0,1877.0,3495.0,,,,1.85599358690936,-3.08851561326363,-1.74229897033603,,-2.452076418211529,,
,6286.0,824.0,6678.0,899.0,-362.0,1891.0,3497.0,,,,1.85501653644349,-3.09013364917284,-1.74199854625685,,-2.4710011101118585,,
,6286.0,824.0,6682.0,899.0,-366.0,1889.0,3503.0,,,,1.8561053071587,-3.08998870528905,-1.74196390696339,,-2.47166509365403,,
,6284.0,826.0,6682.0,897.0,-379.0,1887.0,3458.0,,,,1.85406306009218,-3.08845214894217,-1.74259674739542,,-2.447174933314797,,
,6288.0,826.0,6685.0,899.0,-375.0,1877.0,3456.0,,,,1.85455419259618,-3.08980507323264,-1.74162930336195,,-2.3909729667299926,,
,6288.0,826.0,6686.0,899.0,-362.0,1887.0,3464.0,,,,1.854329909552,-3.08894067850723,-1.74218753929484,,-2.2975080716438145,,
,6290.0,829.0,6688.0,899.0,-356.0,1879.0,3480.0,,,,1.85430943228282,-3.08912250009137,-1.74267337236168,,-2.162777642857979,,
,6289.0,827.0,6688.0,900.0,-354.0,1878.0,3473.0,,,,1.85412347653145,-3.08986957889472,-1.7423166280613,,-1.9846932755773583,,
,6291.0,825.0,6687.0,896.0,-366.0,1895.0,3474.0,,,,1.85330761518237,-3.08953338627784,-1.74169147621165,,-1.7632456639429004,,
,6293.0,828.0,6691.0,901.0,-358.0,1878.0,3446.0,,,,1.85406132114264,-3.0898835438204,-1.74243459980922,,-1.5004684559305843,,
,6292.0,830.0,6692.0,903.0,-366.0,1877.0,3444.0,,,,1.85368213105675,-3.09010595888309,-1.74263019659703,,-1.2002244645019418,,
,6292.0,828.0,6692.0,900.0,-363.0,1885.0,3456.0,,,,1.85392226885407,-3.08974033289303,-1.74254448927792,,-0.8678580975856521,,
,6295.0,830.0,6692.0,899.0,-374.0,1884.0,3456.0,,,,1.85285586158037,-3.0906585351339,-1.74289749503833,,-0.5097718305942841,,
,6296.0,830.0,6698.0,902.0,-376.0,1866.0,3477.0,,,,1.85333164645842,-3.08982736464818,-1.74194072115007,,-0.1329890121505923,,
,6297.0,829.0,6701.0,901.0,-368.0,1888.0,3466.0,,,,1.85371849510409,-3.09028919295708,-1.74336058804555,,0.25524114769818695,,
,6299.0,830.0,6704.0,904.0,-381.0,1890.0,3475.0,,,,1.85317595385006,-3.09022151667671,-1.74269716523505,,0.6477566114713831,,
,6298.0,832.0,6704.0,901.0,-381.0,1887.0,3474.0,,,,1.85320340824209,-3.09071981662025,-1.74240930709957,,1.0376950883877452,,
,6303.0,831.0,6706.0,901.0,-375.0,1884.0,3463.0,,,,1.8542743147547,-3.08951914528175,-1.74261373671095,,1.4186081868160916,,
,6303.0,832.0,6711.0,904.0,-365.0,1884.0,3465.0,,,,1.85408902141325,-3.08896708847423,-1.74317377980444,,1.7844940555841038,,
,6304.0,832.0,6711.0,903.0,-355.0,1886.0,3465.0,,,,1.85416043141334,-3.08987617098031,-1.74257398065792,,2.129773240999271,,
,6302.0,831.0,6715.0,904.0,-353.0,1882.0,3481.0,,,,1.85453746769599,-3.0896611156325,-1.74196671930412,,2.4492348520978724,,
,6306.0,833.0,6716.0,903.0,-367.0,1899.0,3472.0,,,,1.85419171899674,-3.0894977723087,-1.7426675005973,,2.737979289402671,,
,6309.0,832.0,6718.0,904.0,-376.0,1885.0,3487.0,,,,1.85376660743097,-3.08971860056658,-1.74233684907985,,2.9913807832927324,,
2025-07-21 19:46:58,6312.0,837.0,6723.0,908.0,-376.0,1882.0,3496.0,,,2025/07/21 07:46:58 PM,1.85464436179556,-3.08933595271029,-1.7428202041101,,3.2050876129007135,,
,6308.0,835.0,6726.0,906.0,-371.0,1877.0,3490.0,,,,1.8543713995131,-3.08953847899299,-1.74146409201004,,3.3750699279889913,,
,6313.0,835.0,6729.0,906.0,-373.0,1879.0,3486.0,,,,1.85334063911411,-3.08987770975421,-1.7425900108107,,3.4977153544203103,,
,6315.0,836.0,6732.0,904.0,-363.0,1877.0,3494.0,,,,1.85352886770384,-3.08973326137786,-1.74263355353566,,3.569962886065897,,
,6318.0,838.0,6738.0,908.0,-368.0,1878.0,3489.0,,,,1.85268139744151,-3.08932237161556,-1.741532302812,,3.589458368757947,,
,6320.0,838.0,6743.0,908.0,-354.0,1899.0,3496.0,,,,1.85359591003089,-3.0896259419203,-1.7426148561619,,3.5547123093214363,,
,6319.0,836.0,6746.0,907.0,-360.0,1899.0,3481.0,,,,1.85461294195039,-3.0907553776111,-1.74218242511139,,3.465243454929692,,
,6320.0,835.0,6744.0,907.0,-367.0,1874.0,3498.0,,,,1.85382831669478,-3.0903470253062,-1.74279855351361,,3.3216977006117476,,
,6324.0,840.0,6753.0,910.0,-384.0,1880.0,3455.0,,,,1.85432098891031,-3.08927393970356,-1.74312994216045,,3.125937497690394,,
,6323.0,842.0,6754.0,909.0,-382.0,1878.0,3433.0,,,,1.85399302069637,-3.08896334870688,-1.74277591571716,,2.881098700206862,,
,6325.0,841.0,6758.0,910.0,-376.0,1883.0,3447.0,,,,1.85391682149099,-3.08978960769874,-1.74217955516985,,2.5916093727879597,,
,6331.0,842.0,6761.0,909.0,-370.0,1893.0,3445.0,,,,1.85403898303826,-3.08922042985464,-1.74211337061113,,2.2631611383314074,,
,6328.0,841.0,6764.0,910.0,-357.0,1882.0,3462.0,,,,1.85459543557963,-3.08933639469721,-1.74174369935563,,1.9026214722117651,,
,6333.0,842.0,6770.0,913.0,-363.0,1883.0,3469.0,,,,1.8545118901318,-3.08985473123929,-1.74256860731572,,1.5178767049591269,,
,6335.0,845.0,6774.0,913.0,-358.0,1894.0,3463.0,,,,1.85442854284799,-3.09008036972987,-1.74289836888292,,1.1176001310825168,,
,6339.0,842.0,6777.0,911.0,-364.0,1883.0,3448.0,,,,1.85406752686752,-3.09004122212477,-1.74213053767644,,0.7109462922618681,,
,6337.0,844.0,6780.0,912.0,-367.0,1877.0,3477.0,,,,1.85477696158824,-3.08908404422636,-1.74198453566795,,0.3071800761100255,,
,6335.0,845.0,6783.0,915.0,-373.0,1893.0,3495.0,,,,1.85429716539538,-3.08913537748416,-1.743203451296,,-0.08474282791534846,,
,6341.0,846.0,6786.0,914.0,-364.0,1900.0,3482.0,,,,1.85547805107564,-3.08888604248486,-1.74236276781924,,-0.45661946857007407,,
,6343.0,846.0,6789.0,916.0,-359.0,1893.0,3474.0,,,,1.85503675276638,-3.09037634930371,-1.74178037546845,,-0.8014343837596614,,
,6341.0,847.0,6791.0,917.0,-369.0,1863.0,3493.0,,,,1.85549657993836,-3.09020093391616,-1.74258270647356,,-1.1137456752188126,,
,6339.0,846.0,6795.0,914.0,-378.0,1883.0,3487.0,,,,1.85431370113408,-3.08989488530977,-1.74205878380578,,-1.3899789065927763,,
,6342.0,849.0,6795.0,915.0,-367.0,1893.0,3477.0,,,,1.85434534704016,-3.08886954285148,-1.7418145496551,,-1.6285881846700974,,
,6342.0,847.0,6794.0,917.0,-369.0,1890.0,3481.0,,,,1.85584277567507,-3.0899578445131,-1.74210609606339,,-1.830054685634928,,
,6337.0,848.0,6791.0,916.0,-375.0,1882.0,3479.0,,,,1.85454199681218,-3.09035889819304,-1.74183330465872,,-1.9967105746974445,,
,6333.0,845.0,6787.0,913.0,-392.0,1866.0,3463.0,,,,1.85518424130494,-3.08999040267505,-1.74202195865722,,-2.132397119802525,,
,6331.0,843.0,6785.0,911.0,-364.0,1875.0,3461.0,,,,1.85452691855134,-3.08962925313604,-1.74290827052702,,-2.241985748469167,,
,6327.0,842.0,6780.0,913.0,-380.0,1894.0,3485.0,,,,1.85484469169984,-3.0898649660529,-1.74238091155866,,-2.330806970568815,,
,6324.0,842.0,6772.0,910.0,-366.0,1896.0,3484.0,,,,1.85491748169332,-3.08894712983975,-1.74146010277744,,-2.404043116147879,,
,6321.0,839.0,6769.0,910.0,-359.0,1893.0,3457.0,,,,1.85638011276057,-3.08932039249327,-1.7426969280999,,-2.466146169826256,,
,6313.0,836.0,6760.0,908.0,-370.0,1896.0,3464.0,,,,1.85494011072287,-3.0895467444082,-1.74248691853646,,-2.5203412224696096,,
,6313.0,838.0,6756.0,906.0,-363.0,1886.0,3474.0,,,,1.85466294204772,-3.08891501848788,-1.74301193891136,,-2.5682687840991125,,
,6311.0,841.0,6750.0,907.0,-371.0,1892.0,3475.0,,,,1.85475636610967,-3.0893042979361,-1.74257889461158,,-2.6098052324710226,,
,6308.0,837.0,6747.0,907.0,-381.0,1891.0,3470.0,,,,1.85587961379881,-3.0889861761276,-1.74210222480188,,-2.6430805382632814,,
,6305.0,836.0,6741.0,906.0,-377.0,1886.0,3461.0,,,,1.85536501835387,-3.08866318266222,-1.74201942288102,,-2.6646879297298955,,
,6305.0,835.0,6737.0,904.0,-370.0,1879.0,3450.0,,,,1.85643988018993,-3.08895394042461,-1.74190963187983,,-2.6700549831193303,,
,6304.0,838.0,6735.0,904.0,-370.0,1888.0,3459.0,,,,1.85562056922534,-3.08854756033831,-1.74304799479196,,-2.6539249030359113,,
,6303.0,836.0,6733.0,905.0,-364.0,1886.0,3443.0,,,,1.85524134839409,-3.09041651816814,-1.74202540031186,,-2.6108852940728378,,
,6303.0,836.0,6729.0,906.0,-364.0,1874.0,3455.0,,,,1.85450687114107,-3.08906323548878,-1.74177260516511,,-2.53588155729818,,
,6299.0,834.0,6729.0,902.0,-372.0,1873.0,3494.0,,,,1.85470305597552,-3.0885560630888,-1.7428450859879,,-2.424661571321976,,
,6302.0,836.0,6727.0,905.0,-378.0,1860.0,3486.0,,,,1.8547731833053,-3.0883609058918,-1.74294177500762,,-2.274113814499207,,
,6301.0,837.0,6726.0,905.0,-393.0,1871.0,3479.0,,,,1.854745076483,-3.09001837979944,-1.74225171980053,,-2.0824790805183064,,
,6300.0,834.0,6727.0,904.0,-374.0,1875.0,3471.0,,,,1.85491911251116,-3.08920356156516,-1.74207863207576,,-1.8494342853274415,,
,6299.0,836.0,6725.0,901.0,-386.0,1863.0,3470.0,,,,1.85448909146067,-3.08956087080684,-1.74196211547281,,-1.576064082246118,,
,6301.0,838.0,6726.0,904.0,-378.0,1876.0,3461.0,,,,1.8542793647236,-3.08975962042031,-1.74215986012593,,-1.264750307297645,,
,6302.0,836.0,6728.0,904.0,-367.0,1882.0,3490.0,,,,1.85473117044277,-3.09007509066249,-1.74236550862952,,-0.9190183815220798,,
,6302.0,838.0,6727.0,904.0,-370.0,1878.0,3491.0,,,,1.85507859135792,-3.09030648732335,-1.74251042672264,,-0.5433814014099252,,
,6303.0,837.0,6727.0,906.0,-377.0,1867.0,3477.0,,,,1.85484059671226,-3.0898642653249,-1.74160335099367,,-0.1432152708728701,,
,6304.0,836.0,6727.0,903.0,-384.0,1873.0,3495.0,,,,1.85521170358979,-3.08981067869339,-1.74206184756202,,0.275317608524943,,
,6304.0,837.0,6728.0,906.0,-385.0,1884.0,3514.0,,,,1.85516407169514,-3.08971754012416,-1.74188620168951,,0.7052992770256752,,
,6304.0,838.0,6731.0,905.0,-388.0,1894.0,3501.0,,,,1.85566433752379,-3.09009883103162,-1.74213865933975,,1.1390643491232582,,
,6304.0,839.0,6733.0,905.0,-382.0,1882.0,3481.0,,,,1.85586707288223,-3.08958423530865,-1.74163911941269,,1.568219861625368,,
,6307.0,838.0,6732.0,904.0,-375.0,1880.0,3462.0,,,,1.85552575600899,-3.08997462828643,-1.74161037869127,,1.9837131188595356,,
,6310.0,840.0,6735.0,905.0,-373.0,1877.0,3483.0,,,,1.85580249931434,-3.08954279202923,-1.74232683054196,,2.3759767387820974,,
,6307.0,840.0,6737.0,906.0,-385.0,1873.0,3474.0,,,,1.85600859474553,-3.08970843110871,-1.74195228668121,,2.7351677035971877,,
,6311.0,841.0,6739.0,907.0,-386.0,1879.0,3464.0,,,,1.85638481324632,-3.0896244330748,-1.7420393128962,,3.0515025453410276,,
,6307.0,840.0,6738.0,904.0,-380.0,1896.0,3495.0,,,,1.85559665601712,-3.08955563935809,-1.74246509947479,,3.315675479337155,,
,6308.0,839.0,6737.0,904.0,-370.0,1886.0,3474.0,,,,1.85570013327176,-3.09003951209307,-1.74143003073026,,3.5193314233808652,,
,6309.0,841.0,6741.0,905.0,-381.0,1866.0,3449.0,,,,1.85532910977928,-3.08923816376528,-1.74226972817386,,3.655553089218403,,
,6312.0,842.0,6743.0,905.0,-384.0,1875.0,3484.0,,,,1.85596008085879,-3.08948808748084,-1.74137090387685,,3.7193131138032887,,
,6308.0,838.0,6741.0,906.0,-390.0,1866.0,3490.0,,,,1.85617148572903,-3.09018169031782,-1.74172978632312,,3.7078409480696046,,
,6310.0,839.0,6740.0,906.0,-396.0,1876.0,3498.0,,,,1.85616246354901,-3.08938356196183,-1.74147272924101,,3.620861474601786,,
,6310.0,839.0,6741.0,905.0,-372.0,1891.0,3494.0,,,,1.8558542788028,-3.08996333312573,-1.74088163613307,,3.4606776435085957,,
,6310.0,840.0,6745.0,906.0,-361.0,1884.0,3474.0,,,,1.85567546313714,-3.08854185637826,-1.74168045151396,,3.2320895742376288,,
,6309.0,841.0,6744.0,908.0,-363.0,1883.0,3467.0,,,,1.85513643842728,-3.08945590041474,-1.74140872564266,,2.942162291661425,,
,6311.0,841.0,6744.0,905.0,-377.0,1879.0,3472.0,,,,1.85504445115873,-3.09046795056922,-1.74215561895156,,2.5998688316304492,,
,6311.0,840.0,6746.0,905.0,-366.0,1880.0,3451.0,,,,1.85521834500956,-3.09053082612304,-1.7419109717458,,2.215643089701194,,
,6310.0,840.0,6745.0,908.0,-375.0,1872.0,3449.0,,,,1.8554671505257,-3.08981510919344,-1.74101793229,,1.800878574861845,,
,6308.0,841.0,6745.0,907.0,-386.0,1873.0,3448.0,,,,1.85570309284945,-3.09061679520645,-1.74185582755974,,1.36740716089914,,
,6312.0,840.0,6747.0,908.0,-393.0,1872.0,3455.0,,,,1.8548243835072,-3.09091327657586,-1.74146058712009,,0.9269874219133434,,
,6310.0,841.0,6747.0,907.0,-373.0,1881.0,3458.0,,,,1.85486403202896,-3.0906032910967,-1.74043764818871,,0.49082604088249804,,
,6311.0,843.0,6748.0,908.0,-372.0,1884.0,3466.0,,,,1.85493918249045,-3.09077179044278,-1.74127930660516,,0.06914904049488546,,
,6313.0,843.0,6749.0,909.0,-399.0,1886.0,3501.0,,,,1.85374797584481,-3.09030153748513,-1.7420388478066,,-0.32916648946729016,,
,6311.0,842.0,6749.0,906.0,-389.0,1885.0,3482.0,,,,1.85424220844198,-3.0907630470257,-1.7398017774609,,-0.6968935562713707,,
,6316.0,843.0,6749.0,909.0,-371.0,1895.0,3500.0,,,,1.8537125192736,-3.09042356201499,-1.74179237693794,,-1.028683777431017,,
,6313.0,841.0,6751.0,905.0,-379.0,1901.0,3500.0,,,,1.85369949638951,-3.09070730545912,-1.741998631778,,-1.3212155541966888,,
,6315.0,844.0,6754.0,908.0,-387.0,1892.0,3503.0,,,,1.85403658857244,-3.09115321541931,-1.74134847562935,,-1.5732499756532432,,
,6318.0,843.0,6758.0,910.0,-368.0,1878.0,3476.0,,,,1.85443934013521,-3.0907458586077,-1.74079783905166,,-1.785579035385128,,
,6318.0,844.0,6755.0,909.0,-368.0,1880.0,3470.0,,,,1.85334230423972,-3.09067308036939,-1.74181858352766,,-1.9608516736252095,,
,6318.0,844.0,6758.0,910.0,-389.0,1885.0,3471.0,,,,1.85480648153184,-3.090636866699,-1.74190101167584,,-2.1032707370672172,,
,6318.0,843.0,6756.0,907.0,-375.0,1881.0,3466.0,,,,1.8538736156364,-3.09098266655054,-1.7411117146449,,-2.218167310435548,,
,6321.0,844.0,6763.0,911.0,-371.0,1891.0,3483.0,,,,1.85452955599791,-3.09042485521757,-1.74123329502872,,-2.31147470864645,,
,6322.0,846.0,6765.0,910.0,-381.0,1876.0,3463.0,,,,1.85443216999346,-3.09064191526204,-1.7411837347485,,-2.389139094729455,,
,6323.0,846.0,6765.0,912.0,-372.0,1886.0,3503.0,,,,1.85487412566553,-3.09087338630867,-1.74093412315396,,-2.456514799444047,,
,6323.0,845.0,6768.0,909.0,-375.0,1900.0,3489.0,,,,1.85453519964496,-3.0898194549892,-1.74120868072331,,-2.5177988800368496,,
,6327.0,849.0,6772.0,913.0,-372.0,1890.0,3459.0,,,,1.85479563710419,-3.08959744525011,-1.74193308913716,,-2.575560766093376,,
,6326.0,848.0,6774.0,913.0,-369.0,1866.0,3465.0,,,,1.85491027233139,-3.09070739404412,-1.74076282023961,,-2.6304184781677997,,
,6327.0,848.0,6776.0,912.0,-366.0,1871.0,3470.0,,,,1.85404577155133,-3.0891633709169,-1.7417259695537,,-2.6809022993244933,,
,6330.0,847.0,6777.0,911.0,-375.0,1861.0,3471.0,,,,1.85504412033551,-3.09024577011912,-1.74118862062635,,-2.723529705901712,,
,6329.0,850.0,6780.0,913.0,-362.0,1869.0,3480.0,,,,1.854525537043,-3.09078752383325,-1.741444118889,,-2.753092551745319,,
,6335.0,850.0,6780.0,915.0,-367.0,1868.0,3492.0,,,,1.85471623884547,-3.09076408391546,-1.74128368687586,,-2.763131357995565,,
,6335.0,851.0,6786.0,918.0,-369.0,1872.0,3481.0,,,,1.85338397680069,-3.09027317153566,-1.74090086482011,,-2.7465465533075126,,
,6333.0,851.0,6789.0,916.0,-364.0,1889.0,3498.0,,,,1.85441182941066,-3.09096100070489,-1.74175464440913,,-2.6962782115106987,,
,6337.0,848.0,6788.0,915.0,-376.0,1883.0,3465.0,,,,1.85422663672066,-3.09104793978179,-1.74146198767346,,-2.605978471789952,,
,6338.0,853.0,6795.0,916.0,-374.0,1883.0,3481.0,,,,1.85530623019426,-3.09127608185803,-1.74190625338006,,-2.4706051572860552,,
,6341.0,854.0,6797.0,918.0,-369.0,1877.0,3484.0,,,,1.85545214891521,-3.08999185315749,-1.74065312398724,,-2.2868786952478732,,
,6340.0,852.0,6797.0,918.0,-377.0,1878.0,3475.0,,,,1.85457576886337,-3.09091343646908,-1.74085004429964,,-2.0535638936810177,,
,6343.0,853.0,6799.0,916.0,-381.0,1873.0,3474.0,,,,1.85493233523694,-3.09006323126053,-1.74074161256053,,-1.7715609316621825,,
,6344.0,856.0,6807.0,917.0,-375.0,1866.0,3465.0,,,,1.85463360018362,-3.08992522813781,-1.74049789824814,,-1.4438143301077486,,
,6345.0,854.0,6808.0,917.0,-380.0,1873.0,3463.0,,,,1.85480632189644,-3.09043853598247,-1.74146138870278,,-1.0750723505697664,,
,6350.0,854.0,6810.0,918.0,-381.0,1871.0,3469.0,,,,1.85538144998883,-3.0908403853105,-1.74083227902238,,-0.6715485110000162,,
,6350.0,855.0,6814.0,918.0,-390.0,1866.0,3466.0,,,,1.85512118902698,-3.09021148943633,-1.74108489508964,,-0.24054735686948625,,
,6350.0,854.0,6816.0,918.0,-399.0,1887.0,3495.0,,,,1.85482089809357,-3.09101428530326,-1.74096996253154,,0.20988506363947979,,
,6352.0,855.0,6820.0,918.0,-373.0,1875.0,3501.0,,,,1.8543101202324,-3.09040037034699,-1.74047613239197,,0.6712401635770858,,
,6356.0,858.0,6826.0,922.0,-365.0,1868.0,3500.0,,,,1.85444997711745,-3.09170217954311,-1.74089215553662,,1.1347340672696897,,
,6355.0,855.0,6825.0,921.0,-369.0,1874.0,3488.0,,,,1.85379895643534,-3.09131998299562,-1.74096983670059,,1.5914105254081818,,
,6353.0,858.0,6831.0,921.0,-376.0,1881.0,3492.0,,,,1.85497238123797,-3.08992434818367,-1.74100045880456,,2.032191175798868,,
,6356.0,856.0,6831.0,920.0,-377.0,1847.0,3448.0,,,,1.85384652301257,-3.09143989636323,-1.74120786489902,,2.44791832946771,,
,6356.0,860.0,6833.0,921.0,-394.0,1869.0,3474.0,,,,1.85464897780422,-3.09202034074124,-1.74053960078051,,2.8294359124355197,,
,6355.0,857.0,6829.0,921.0,-394.0,1883.0,3473.0,,,,1.85468124325221,-3.09093028490362,-1.74132828729999,,3.167743817787066,,
,6349.0,856.0,6827.0,922.0,-368.0,1882.0,3478.0,,,,1.85379170486041,-3.09133785527491,-1.7405559059389,,3.4542440130146854,,
,6346.0,857.0,6821.0,920.0,-382.0,1880.0,3484.0,,,,1.8543272361307,-3.09012909821874,-1.74099294902821,,3.681077115356762,,
,6342.0,854.0,6817.0,920.0,-372.0,1893.0,3467.0,,,,1.8547768126462,-3.09094519014942,-1.74091705805744,,3.841528352835913,,
,6336.0,855.0,6812.0,919.0,-373.0,1897.0,3470.0,,,,1.85371776283021,-3.09162919766952,-1.74062205331122,,3.930463995826886,,
,6335.0,854.0,6805.0,919.0,-385.0,1893.0,3481.0,,,,1.85365620309663,-3.09155399483539,-1.7411126050334,,3.94474597784223,,
,6329.0,852.0,6801.0,917.0,-386.0,1879.0,3483.0,,,,1.85475530594299,-3.09117737771388,-1.74103517323451,,3.8835662616306386,,
,6326.0,849.0,6792.0,912.0,-350.0,1885.0,3464.0,,,,1.85451128507978,-3.09107773862599,-1.74130684795334,,3.7486458264066376,,
,6323.0,848.0,6786.0,916.0,-384.0,1883.0,3480.0,,,,1.85415568173835,-3.09033161446688,-1.74128792995922,,3.54425707748387,,
,6318.0,850.0,6782.0,912.0,-382.0,1884.0,3479.0,,,,1.85367691273647,-3.09005362404926,-1.74189517107482,,3.277052066618356,,
,6315.0,849.0,6778.0,914.0,-392.0,1882.0,3455.0,,,,1.8547197949708,-3.09090164387451,-1.74123313058839,,2.9557081190487597,,
,6312.0,846.0,6767.0,912.0,-388.0,1886.0,3462.0,,,,1.85467536822947,-3.09114406365958,-1.7426934208777,,2.590430363516031,,
,6312.0,848.0,6767.0,911.0,-395.0,1891.0,3465.0,,,,1.8546406354569,-3.09063270638713,-1.74242248325307,,2.1923699544875825,,
,6307.0,848.0,6760.0,910.0,-374.0,1887.0,3475.0,,,,1.85533252639583,-3.09074068112609,-1.74122421259893,,1.7730232228354006,,
,6304.0,848.0,6759.0,911.0,-368.0,1881.0,3479.0,,,,1.85535823622523,-3.09032555996964,-1.74090086385835,,1.343671006986233,,
,6304.0,846.0,6757.0,908.0,-385.0,1867.0,3483.0,,,,1.85576486842097,-3.09075099835134,-1.74143138157806,,0.9149028092835899,,
,6303.0,850.0,6755.0,912.0,-379.0,1864.0,3499.0,,,,1.85467523079597,-3.09068409083521,-1.74114240016143,,0.49625183986366844,,
,6303.0,849.0,6754.0,910.0,-386.0,1871.0,3519.0,,,,1.85494960102479,-3.09075655281122,-1.7412599119486,,0.09594820966894023,,
,6302.0,847.0,6753.0,909.0,-395.0,1879.0,3522.0,,,,1.855134726844,-3.09037108812368,-1.74129273195037,,-0.27921888500782294,,
2025-07-21 19:46:59,6299.0,846.0,6749.0,910.0,-404.0,1871.0,3496.0,,,2025/07/21 07:46:59 PM,1.85485419395826,-3.09016493919804,-1.74182831437846,,-0.623951352999124,,
,6301.0,846.0,6748.0,909.0,-374.0,1881.0,3495.0,,,,1.85489255333088,-3.09121440569692,-1.74021066406747,,-0.9344328230089238,,
,6301.0,849.0,6750.0,909.0,-376.0,1885.0,3470.0,,,,1.85504781637579,-3.0910002140104,-1.7422719451669,,-1.2082880360533077,,
,6297.0,849.0,6747.0,909.0,-373.0,1873.0,3488.0,,,,1.85441890846369,-3.09052265975142,-1.74128922320128,,-1.4445330496165893,,
,6301.0,849.0,6748.0,910.0,-376.0,1874.0,3493.0,,,,1.85558628761162,-3.09075276865507,-1.74078150864128,,-1.6435262462574223,,
,6301.0,848.0,6746.0,908.0,-375.0,1864.0,3485.0,,,,1.85566235469284,-3.091468531426,-1.74123857724706,,-1.806915183711135,,
,6300.0,849.0,6747.0,910.0,-381.0,1853.0,3489.0,,,,1.85552599684588,-3.09046342073079,-1.73957196831,,-1.9375611250100278,,
,6304.0,851.0,6752.0,911.0,-376.0,1859.0,3472.0,,,,1.85542024291532,-3.09119509714216,-1.74104330266229,,-2.039416451849704,,
,6301.0,850.0,6751.0,910.0,-369.0,1864.0,3482.0,,,,1.85584377141042,-3.09046381889209,-1.74162905397402,,-2.1173324960799844,,
,6303.0,850.0,6750.0,909.0,-401.0,1866.0,3484.0,,,,1.85547907952745,-3.09037176583415,-1.74035727908974,,-2.176785464319994,,
,6302.0,851.0,6751.0,910.0,-365.0,1872.0,3472.0,,,,1.85561590180248,-3.09056958244059,-1.74103258197662,,-2.2235225488383636,,
,6303.0,850.0,6755.0,910.0,-374.0,1891.0,3494.0,,,,1.85543207731533,-3.09058593702568,-1.74155699330173,,-2.263145339643713,,
,6304.0,854.0,6757.0,913.0,-394.0,1873.0,3472.0,,,,1.85512100847242,-3.09053426547064,-1.74080335532321,,-2.300660783676791,,
,6305.0,853.0,6756.0,913.0,-386.0,1858.0,3476.0,,,,1.85497079623367,-3.09130120529787,-1.74083130134224,,-2.340039724987061,,
,6303.0,850.0,6755.0,910.0,-387.0,1876.0,3475.0,,,,1.85551990970446,-3.0904776023483,-1.74067897033589,,-2.3838284187289593,,
,6307.0,853.0,6760.0,913.0,-387.0,1874.0,3486.0,,,,1.85631099617639,-3.0909124121064,-1.74099538266865,,-2.4328583372309867,,
,6306.0,853.0,6761.0,913.0,-391.0,1873.0,3493.0,,,,1.85572937977763,-3.09106983881311,-1.74048595274086,,-2.4860933169521497,,
,6307.0,856.0,6760.0,914.0,-369.0,1861.0,3485.0,,,,1.8554526234533,-3.09063051614405,-1.74098669398632,,-2.540640401017098,,
,6304.0,854.0,6760.0,913.0,-384.0,1859.0,3503.0,,,,1.85612025309712,-3.09007407968636,-1.74044326545106,,-2.5919322840508445,,
,6306.0,853.0,6761.0,913.0,-385.0,1871.0,3499.0,,,,1.85659014921671,-3.08981319563912,-1.74112994487372,,-2.634067204772082,,
,6306.0,852.0,6761.0,914.0,-370.0,1876.0,3484.0,,,,1.85642164465478,-3.09114492997002,-1.74149966394789,,-2.660270495198103,,
,6307.0,855.0,6763.0,915.0,-372.0,1881.0,3466.0,,,,1.85596572193011,-3.09042928698524,-1.74060906651241,,-2.663426002382332,,
,6305.0,856.0,6764.0,915.0,-370.0,1881.0,3472.0,,,,1.85553019791206,-3.09077033504606,-1.74087719688512,,-2.6366193396151822,,
,6305.0,854.0,6764.0,913.0,-367.0,1869.0,3501.0,,,,1.85567390017521,-3.09090061077238,-1.74141348854735,,-2.573638993321044,,
,6304.0,856.0,6763.0,916.0,-388.0,1876.0,3503.0,,,,1.85591248174311,-3.09030765223562,-1.74033592282716,,-2.469392758278759,,
,6307.0,855.0,6765.0,916.0,-395.0,1888.0,3491.0,,,,1.85569324227364,-3.09180415683616,-1.74170757845626,,-2.32021173986198,,
,6303.0,855.0,6764.0,915.0,-387.0,1885.0,3488.0,,,,1.85501717411179,-3.09121553421861,-1.7408395241884,,-2.124029517732551,,
,6303.0,853.0,6765.0,913.0,-380.0,1884.0,3495.0,,,,1.85457158692455,-3.09151151815733,-1.74107086961945,,-1.8804389801744994,,
,6306.0,856.0,6768.0,914.0,-372.0,1892.0,3500.0,,,,1.85465213990939,-3.09098036269822,-1.74181784810979,,-1.5906432813627138,,
,6303.0,856.0,6767.0,917.0,-359.0,1881.0,3474.0,,,,1.85397643930244,-3.09086082767403,-1.74111720586475,,-1.2573291980329986,,
,6305.0,858.0,6767.0,916.0,-367.0,1875.0,3467.0,,,,1.85413532428854,-3.09089240725242,-1.74100931351689,,-0.8844988737158549,,
,6306.0,854.0,6771.0,917.0,-374.0,1873.0,3469.0,,,,1.85446448611077,-3.0915168770715,-1.74141502752405,,-0.47729720668377934,,
,6307.0,854.0,6769.0,915.0,-362.0,1870.0,3448.0,,,,1.85384733772331,-3.09174588543691,-1.74122387604175,,-0.04186529391397256,,
,6308.0,855.0,6770.0,915.0,-382.0,1884.0,3463.0,,,,1.85466677552211,-3.09128290971953,-1.74091333638007,,0.41476431943956993,,
,6308.0,858.0,6770.0,916.0,-371.0,1893.0,3471.0,,,,1.85392810335199,-3.09144133009821,-1.74223497434287,,0.8847340912121104,,
,6309.0,858.0,6773.0,918.0,-362.0,1885.0,3486.0,,,,1.85396126767603,-3.09138623266081,-1.74098622131988,,1.359411257187321,,
,6309.0,856.0,6775.0,914.0,-367.0,1887.0,3484.0,,,,1.85528515050776,-3.09121331195244,-1.74128773175724,,1.8294536766230196,,
,6307.0,859.0,6776.0,916.0,-376.0,1876.0,3467.0,,,,1.85477781310582,-3.09084121496946,-1.74115461045773,,2.284925694136421,,
,6312.0,857.0,6779.0,918.0,-375.0,1874.0,3500.0,,,,1.85439644450006,-3.09144434061468,-1.7416975617459,,2.715490349570408,,
,6311.0,859.0,6781.0,918.0,-378.0,1874.0,3496.0,,,,1.85481547241482,-3.09047873010564,-1.74132621010525,,3.110691274720152,,
,6311.0,860.0,6783.0,917.0,-376.0,1852.0,3511.0,,,,1.85403209112622,-3.09096423597596,-1.74199233693076,,3.4603224818932126,,
,6312.0,859.0,6783.0,917.0,-365.0,1866.0,3479.0,,,,1.85488947247632,-3.08941711741875,-1.74218531119897,,3.754868974910881,,
,6314.0,859.0,6790.0,918.0,-361.0,1888.0,3492.0,,,,1.85501763268425,-3.0905850044833,-1.74140878136325,,3.985987014004939,,
,6316.0,860.0,6788.0,920.0,-361.0,1881.0,3474.0,,,,1.85379089551653,-3.0900776202858,-1.74156750459664,,4.146981435911348,,
,6316.0,861.0,6792.0,921.0,-381.0,1872.0,3495.0,,,,1.85476757282269,-3.09002126048005,-1.74109779146215,,4.233230600060214,,
,6317.0,861.0,6793.0,921.0,-386.0,1875.0,3489.0,,,,1.85479098778409,-3.09005847563905,-1.74136081388074,,4.242509321005054,,
,6317.0,862.0,6798.0,920.0,-391.0,1878.0,3478.0,,,,1.85457620238903,-3.09004945913812,-1.7413422241622,,4.175168029524202,,
,6322.0,864.0,6800.0,921.0,-380.0,1874.0,3483.0,,,,1.85479664611616,-3.09060718683813,-1.74143627462084,,4.034142433149752,,
,6321.0,863.0,6801.0,923.0,-372.0,1872.0,3477.0,,,,1.85487469449903,-3.09000109208861,-1.74082606037853,,3.824789784510258,,
,6324.0,865.0,6805.0,922.0,-366.0,1869.0,3461.0,,,,1.85490162791808,-3.09021713867073,-1.74092265008316,,3.554570639582285,,
,6324.0,865.0,6806.0,924.0,-389.0,1857.0,3477.0,,,,1.85542736788204,-3.090723906337,-1.74190413376125,,3.2326129967892654,,
,6325.0,863.0,6811.0,923.0,-377.0,1872.0,3495.0,,,,1.85568132710088,-3.09107670998951,-1.74084182265488,,2.8692052698327584,,
,6326.0,866.0,6817.0,925.0,-373.0,1890.0,3457.0,,,,1.85462277400619,-3.09064399731513,-1.74080522514808,,2.475265503964219,,
,6329.0,866.0,6817.0,926.0,-365.0,1893.0,3452.0,,,,1.85507843807328,-3.09021285280943,-1.74201037447747,,2.0618288487368077,,
,6328.0,865.0,6821.0,923.0,-383.0,1892.0,3462.0,,,,1.85531758127803,-3.09043251638056,-1.74053138206022,,1.6395860638577586,,
,6330.0,865.0,6824.0,926.0,-377.0,1875.0,3490.0,,,,1.85586799236029,-3.08921935729593,-1.74151126898906,,1.2184945269405105,,
,6331.0,868.0,6827.0,926.0,-361.0,1867.0,3486.0,,,,1.85535519108031,-3.08964051797773,-1.74138584455647,,0.8074712578702918,,
,6333.0,867.0,6831.0,929.0,-364.0,1876.0,3488.0,,,,1.85502662442195,-3.08988915178751,-1.74200714819603,,0.4141665708715797,,
,6335.0,869.0,6830.0,929.0,-370.0,1872.0,3461.0,,,,1.85516357895552,-3.0897610385625,-1.74080456102902,,0.04480904417252203,,
,6335.0,866.0,6836.0,927.0,-394.0,1869.0,3480.0,,,,1.85546435182358,-3.08979658757759,-1.74191284997021,,-0.29589080699711345,,
,6340.0,869.0,6837.0,929.0,-377.0,1850.0,3462.0,,,,1.85463632230987,-3.09016519011377,-1.74168423126617,,-0.6047887342304313,,
,6341.0,870.0,6842.0,929.0,-370.0,1880.0,3461.0,,,,1.85567343720204,-3.08979521978165,-1.74079131318518,,-0.8803108796245738,,
,6342.0,870.0,6846.0,930.0,-373.0,1883.0,3465.0,,,,1.85585402295351,-3.09071359006275,-1.74159012575659,,-1.1224096120982865,,
,6343.0,870.0,6848.0,929.0,-360.0,1870.0,3474.0,,,,1.85521186323085,-3.08995868724818,-1.7413712730287,,-1.332460949109283,,
,6343.0,870.0,6849.0,931.0,-392.0,1861.0,3490.0,,,,1.85590567346481,-3.08911175449837,-1.74184472153271,,-1.5130930992745564,,
,6347.0,874.0,6857.0,931.0,-379.0,1874.0,3492.0,,,,1.85515438717424,-3.09025861574938,-1.74244186736443,,-1.6679414246613302,,
,6348.0,875.0,6859.0,931.0,-378.0,1874.0,3487.0,,,,1.85606343024395,-3.09118408009089,-1.74205704438746,,-1.8013347450435755,,
,6350.0,876.0,6865.0,933.0,-385.0,1851.0,3494.0,,,,1.85509133711805,-3.08971644388459,-1.74033775312254,,-1.9179282058183882,,
,6349.0,873.0,6865.0,931.0,-360.0,1861.0,3473.0,,,,1.85601898242415,-3.09029588924264,-1.74169465046719,,-2.0223065807423333,,
,6348.0,875.0,6867.0,934.0,-355.0,1873.0,3475.0,,,,1.85638084624138,-3.09019547619654,-1.74248330307517,,-2.1185878819559827,,
,6348.0,875.0,6868.0,932.0,-369.0,1878.0,3453.0,,,,1.85594218955942,-3.09037634544679,-1.74194806969306,,-2.210060244512051,,
,6348.0,875.0,6869.0,934.0,-367.0,1875.0,3452.0,,,,1.85582554633302,-3.08908764083039,-1.74215730015079,,-2.2988849956875588,,
,6344.0,873.0,6865.0,931.0,-362.0,1877.0,3478.0,,,,1.85497807633857,-3.08971843548778,-1.74222070736221,,-2.3858950720459258,,
,6337.0,872.0,6866.0,933.0,-394.0,1898.0,3482.0,,,,1.85589294985637,-3.08900652760552,-1.74146749048554,,-2.4705098814665587,,
,6339.0,871.0,6860.0,934.0,-396.0,1899.0,3490.0,,,,1.85590329604514,-3.08897222491129,-1.74207857466823,,-2.550775221449676,,
,6334.0,871.0,6854.0,931.0,-378.0,1903.0,3481.0,,,,1.85611700819075,-3.08939977783593,-1.74142735191207,,-2.623521226815634,,
,6327.0,871.0,6852.0,930.0,-391.0,1870.0,3473.0,,,,1.85616677093157,-3.08959575175282,-1.74236398387661,,-2.684615698975748,,
,6323.0,867.0,6843.0,928.0,-373.0,1880.0,3482.0,,,,1.85619731365616,-3.08841091812223,-1.74127110527199,,-2.729278940093275,,
,6317.0,870.0,6838.0,926.0,-364.0,1865.0,3489.0,,,,1.85636178722997,-3.08954864566106,-1.7423658569368,,-2.752422770500498,,
,6313.0,868.0,6832.0,928.0,-379.0,1882.0,3492.0,,,,1.85692440597558,-3.08929707075216,-1.74210140581659,,-2.7489809479434015,,
,6308.0,865.0,6828.0,928.0,-371.0,1893.0,3483.0,,,,1.85654807499329,-3.08937379627706,-1.74169718389887,,-2.7142076757480007,,
,6302.0,867.0,6820.0,927.0,-366.0,1906.0,3489.0,,,,1.85589204560451,-3.08852057264466,-1.74208250243373,,-2.643931237829157,,
,6298.0,865.0,6816.0,925.0,-376.0,1898.0,3475.0,,,,1.8560021784752,-3.0890950772197,-1.742511619921,,-2.5347583568898027,,
,6296.0,867.0,6810.0,925.0,-366.0,1885.0,3449.0,,,,1.85633720703275,-3.08881557808964,-1.74088346837035,,-2.384230881120844,,
,6294.0,863.0,6806.0,925.0,-360.0,1885.0,3452.0,,,,1.85644053737327,-3.08920391739922,-1.74181137976444,,-2.190940183276134,,
,6291.0,863.0,6803.0,923.0,-376.0,1879.0,3441.0,,,,1.85634288516272,-3.08909383963298,-1.74239663067601,,-1.9546067496766897,,
,6287.0,862.0,6798.0,924.0,-382.0,1888.0,3436.0,,,,1.85690356729987,-3.08833277011591,-1.74192278985794,,-1.6761331507458808,,
,6289.0,864.0,6798.0,923.0,-383.0,1878.0,3460.0,,,,1.85661284944776,-3.08952280167696,-1.74233087868849,,-1.3576376464385127,,
,6283.0,865.0,6798.0,922.0,-384.0,1885.0,3508.0,,,,1.85624980341631,-3.08872678497568,-1.74204159855539,,-1.0024723253835042,,
,6284.0,864.0,6796.0,925.0,-372.0,1892.0,3510.0,,,,1.85658299914841,-3.08904910734921,-1.74227930414073,,-0.6152236823883416,,
,6281.0,861.0,6793.0,924.0,-367.0,1871.0,3490.0,,,,1.85745433678013,-3.08944398677753,-1.7419534066771,,-0.20168658002899828,,
,6284.0,866.0,6795.0,924.0,-366.0,1872.0,3460.0,,,,1.85701540514978,-3.08902318418722,-1.74168038297011,,0.23120195695299614,,
,6282.0,865.0,6793.0,927.0,-382.0,1872.0,3454.0,,,,1.85693883488712,-3.08900344999949,-1.74291012880239,,0.675481863261481,,
,6280.0,866.0,6793.0,924.0,-379.0,1870.0,3454.0,,,,1.85624398651394,-3.08952585470228,-1.74113412503795,,1.122348828610798,,
,6282.0,865.0,6788.0,923.0,-369.0,1865.0,3453.0,,,,1.85668281716428,-3.08825044756902,-1.74247915321429,,1.5623911949081746,,
,6279.0,866.0,6791.0,925.0,-373.0,1867.0,3475.0,,,,1.85696480564979,-3.08864776796438,-1.74181114134726,,1.985875888271839,,
,6281.0,867.0,6792.0,926.0,-365.0,1860.0,3486.0,,,,1.85664445502944,-3.08858203768263,-1.74236495555962,,2.383069097519246,,
,6283.0,866.0,6793.0,926.0,-384.0,1871.0,3511.0,,,,1.85671292108767,-3.08890166652099,-1.74246051374457,,2.7445741008463624,,
,6283.0,867.0,6795.0,925.0,-390.0,1873.0,3513.0,,,,1.85662963215862,-3.08849720805098,-1.74227537214381,,3.061666507459126,,
,6281.0,866.0,6794.0,921.0,-389.0,1869.0,3515.0,,,,1.85619723972631,-3.08799859687192,-1.74200320051467,,3.3266063323391966,,
,6281.0,869.0,6792.0,926.0,-375.0,1882.0,3489.0,,,,1.85624610952522,-3.08835167318909,-1.74197309484159,,3.53290773540083,,
,6281.0,869.0,6798.0,925.0,-384.0,1876.0,3459.0,,,,1.85634338249932,-3.0888244596258,-1.74279764548054,,3.675551907361576,,
,6282.0,867.0,6798.0,926.0,-380.0,1865.0,3455.0,,,,1.85681595117886,-3.0890094284103,-1.7414393186383,,3.751136431717641,,
,6283.0,868.0,6795.0,928.0,-403.0,1865.0,3456.0,,,,1.85637989846831,-3.0884417055081,-1.74190705467364,,3.7579636881818406,,
,6282.0,868.0,6801.0,928.0,-371.0,1878.0,3476.0,,,,1.85570844323534,-3.08887519029821,-1.74197617481724,,3.696078044562925,,
,6284.0,871.0,6800.0,930.0,-358.0,1891.0,3504.0,,,,1.85681575718288,-3.08851591755801,-1.74232541909399,,3.567263343219774,,
,6284.0,868.0,6801.0,928.0,-382.0,1886.0,3506.0,,,,1.85692593577119,-3.08885638029301,-1.74270889989667,,3.3750077558724136,,
,6285.0,870.0,6803.0,928.0,-389.0,1865.0,3496.0,,,,1.85669590975732,-3.08897919949335,-1.74036003907652,,3.1244351531119765,,
,6282.0,870.0,6803.0,927.0,-371.0,1862.0,3520.0,,,,1.85696967368341,-3.08925587695665,-1.74115514490795,,2.8221949467366114,,
,6281.0,871.0,6802.0,930.0,-370.0,1861.0,3509.0,,,,1.85691322133585,-3.08898326178476,-1.74239352368029,,2.47629894850088,,
,6283.0,869.0,6805.0,929.0,-367.0,1880.0,3490.0,,,,1.85689352453787,-3.08859877610283,-1.74124770003316,,2.095894876773911,,
,6285.0,870.0,6805.0,932.0,-359.0,1879.0,3486.0,,,,1.85642709270327,-3.08977997435352,-1.74195564885548,,1.6909708901997993,,
,6283.0,871.0,6806.0,930.0,-378.0,1874.0,3470.0,,,,1.85537902508249,-3.08920921554188,-1.74208712941192,,1.2719927521886658,,
,6284.0,872.0,6806.0,930.0,-359.0,1887.0,3462.0,,,,1.85514280308255,-3.08906068050282,-1.74112775186177,,0.849484062448537,,
,6284.0,873.0,6807.0,930.0,-371.0,1887.0,3462.0,,,,1.85475663604109,-3.08993531941248,-1.74265162932578,,0.4335698050298645,,
,6283.0,873.0,6810.0,931.0,-377.0,1888.0,3498.0,,,,1.85406188048311,-3.08956822625972,-1.74266194424698,,0.03351337865852125,,
,6281.0,872.0,6807.0,932.0,-377.0,1883.0,3507.0,,,,1.85516166664483,-3.08936103215262,-1.74219844643007,,-0.3427144660722034,,
,6280.0,872.0,6808.0,927.0,-376.0,1884.0,3512.0,,,,1.85484346274487,-3.08988694407372,-1.74251342366446,,-0.6887925429879852,,
,6281.0,874.0,6812.0,932.0,-371.0,1865.0,3511.0,,,,1.85559945271189,-3.09048104867201,-1.74195513351232,,-1.0002930808498691,,
,6280.0,874.0,6811.0,933.0,-358.0,1868.0,3498.0,,,,1.85522619390959,-3.0900359779388,-1.74221595032736,,-1.2747847378934603,,
,6280.0,873.0,6813.0,932.0,-357.0,1872.0,3477.0,,,,1.85582366991708,-3.08909866435421,-1.74209143108135,,-1.511783795506086,,
,6280.0,873.0,6812.0,934.0,-371.0,1870.0,3446.0,,,,1.85545920731673,-3.08950854944956,-1.74239276187759,,-1.7125609918344489,,
,6278.0,872.0,6811.0,931.0,-374.0,1867.0,3460.0,,,,1.85627411118807,-3.08963710455216,-1.74290429896446,,-1.879827832875285,,
,6281.0,872.0,6815.0,931.0,-391.0,1873.0,3478.0,,,,1.85499698572238,-3.08920028825047,-1.74324310103681,,-2.017338310995296,,
,6282.0,873.0,6818.0,934.0,-385.0,1891.0,3484.0,,,,1.85533944062366,-3.08900576420329,-1.74120610242346,,-2.1294490029083843,,
,6283.0,871.0,6819.0,933.0,-382.0,1891.0,3487.0,,,,1.85583090205168,-3.08890059169915,-1.74191929789791,,-2.2206824434192622,,
,6282.0,876.0,6819.0,933.0,-371.0,1876.0,3492.0,,,,1.85528314545173,-3.08959246702362,-1.74285203352091,,-2.2953355023098343,,
,6282.0,872.0,6820.0,932.0,-346.0,1874.0,3487.0,,,,1.85581080828231,-3.08892856519523,-1.7418816215514,,-2.357166229610605,,
2025-07-21 19:47:00,6285.0,877.0,6823.0,935.0,-377.0,1876.0,3456.0,,,2025/07/21 07:47:00 PM,1.85478900631807,-3.08934050234853,-1.74215765507885,,-2.409179593764129,,
,6286.0,875.0,6822.0,935.0,-382.0,1878.0,3462.0,,,,1.85628526593822,-3.08959740453268,-1.74228501092138,,-2.453516001729977,,
,6284.0,876.0,6826.0,936.0,-357.0,1870.0,3458.0,,,,1.85543305130109,-3.08966292418305,-1.7415458983791,,-2.49142934584873,,
,6286.0,876.0,6827.0,934.0,-362.0,1880.0,3462.0,,,,1.85575361860692,-3.08928863093345,-1.7426160329463,,-2.5233279004201696,,
,6289.0,878.0,6835.0,938.0,-369.0,1871.0,3436.0,,,,1.85586408748575,-3.08903535835631,-1.74266801644202,,-2.5488458580770463,,
,6288.0,877.0,6835.0,938.0,-373.0,1877.0,3472.0,,,,1.8561461639131,-3.08983393253213,-1.74185049410729,,-2.5669172818426005,,
,6292.0,878.0,6836.0,940.0,-382.0,1885.0,3471.0,,,,1.85649453952322,-3.0895444261276,-1.74260063311526,,-2.5758357014187254,,
,6290.0,878.0,6837.0,937.0,-386.0,1864.0,3486.0,,,,1.85620978850005,-3.08919451752552,-1.74132188990532,,-2.5732970402590896,,
,6292.0,880.0,6840.0,938.0,-386.0,1872.0,3467.0,,,,1.85678013329747,-3.08949574821928,-1.74196057571361,,-2.5564366819671696,,
,6295.0,881.0,6846.0,939.0,-380.0,1888.0,3475.0,,,,1.85630537619337,-3.08877875305514,-1.74212847686881,,-2.5218805936556024,,
,6296.0,880.0,6847.0,942.0,-372.0,1891.0,3467.0,,,,1.85655440571075,-3.08929019266595,-1.74130715591668,,-2.4658342826419672,,
,6296.0,882.0,6850.0,941.0,-356.0,1895.0,3476.0,,,,1.85612972539507,-3.08876790038848,-1.74247719921048,,-2.384231361987084,,
,6298.0,882.0,6853.0,938.0,-369.0,1888.0,3476.0,,,,1.85691833756493,-3.08891291157564,-1.74172753286691,,-2.2729554831827263,,
,6299.0,882.0,6860.0,940.0,-383.0,1875.0,3471.0,,,,1.85709756080057,-3.08988447630761,-1.74224262156239,,-2.128136041130716,,
,6303.0,886.0,6861.0,943.0,-373.0,1873.0,3473.0,,,,1.85651947778409,-3.08888839166246,-1.74216775641145,,-1.9465012037480374,,
,6303.0,884.0,6863.0,941.0,-363.0,1871.0,3468.0,,,,1.85671793516795,-3.08980014819312,-1.74217362195926,,-1.7257545466123008,,
,6303.0,884.0,6866.0,943.0,-363.0,1882.0,3463.0,,,,1.85515637126501,-3.09000768196557,-1.7421533853817,,-1.4649281393999178,,
,6306.0,884.0,6871.0,942.0,-369.0,1900.0,3489.0,,,,1.85577038515484,-3.08884445364904,-1.74245596206127,,-1.164660083889984,,
,6306.0,886.0,6875.0,945.0,-371.0,1888.0,3523.0,,,,1.85663114089678,-3.08897344896627,-1.74191419155098,,-0.8273515414566577,,
,6312.0,887.0,6879.0,944.0,-384.0,1883.0,3531.0,,,,1.8564622119432,-3.08894753539574,-1.74195398036654,,-0.4571766438120656,,
,6310.0,888.0,6882.0,946.0,-372.0,1875.0,3478.0,,,,1.85621185272063,-3.08904830820699,-1.74188130529534,,-0.05994330069484214,,
,6312.0,885.0,6882.0,945.0,-390.0,1858.0,3443.0,,,,1.85635475864724,-3.08950906246107,-1.74192527281156,,0.35717336428610114,,
,6315.0,888.0,6890.0,946.0,-387.0,1872.0,3455.0,,,,1.85590184745792,-3.08911505205338,-1.74248315725533,,0.7859860525005993,,
,6318.0,889.0,6896.0,948.0,-379.0,1876.0,3444.0,,,,1.85628746841366,-3.08909023636483,-1.74216482892691,,1.2176915128338464,,
,6318.0,891.0,6894.0,950.0,-364.0,1879.0,3458.0,,,,1.85583173239917,-3.08870471188426,-1.74188339657601,,1.6432605653068701,,
,6318.0,887.0,6898.0,946.0,-374.0,1877.0,3477.0,,,,1.85600560548038,-3.08901433818683,-1.74185088711042,,2.053781293147682,,
,6321.0,890.0,6899.0,947.0,-363.0,1896.0,3459.0,,,,1.85586095750581,-3.0886046032897,-1.74220849680809,,2.440726856309312,,
,6323.0,892.0,6906.0,949.0,-342.0,1894.0,3489.0,,,,1.85618485292204,-3.0894626225267,-1.74169345189375,,2.7961353401095046,,
,6325.0,894.0,6910.0,951.0,-340.0,1885.0,3498.0,,,,1.85597771285131,-3.08891611028844,-1.74211530841033,,3.1127071906639676,,
,6327.0,892.0,6915.0,951.0,-344.0,1853.0,3499.0,,,,1.85589831915667,-3.0891336172021,-1.74202502201435,,3.3838435962864413,,
,6328.0,894.0,6917.0,950.0,-361.0,1877.0,3489.0,,,,1.85682336892171,-3.08950841332484,-1.74239776020018,,3.603662812746918,,
,6330.0,894.0,6919.0,952.0,-367.0,1876.0,3478.0,,,,1.85647357464206,-3.09026002600516,-1.74207435559487,,3.767036396070273,,
,6332.0,895.0,6924.0,953.0,-372.0,1877.0,3475.0,,,,1.85543191235064,-3.08893713396543,-1.74244416901171,,3.8696807441198455,,
,6332.0,896.0,6925.0,952.0,-364.0,1877.0,3471.0,,,,1.85623732911778,-3.08956850607512,-1.74221165371287,,3.9083222738500276,,
,6331.0,894.0,6927.0,955.0,-378.0,1887.0,3479.0,,,,1.85673781411113,-3.08875752098804,-1.74296659497871,,3.8809317146187325,,
,6330.0,898.0,6927.0,953.0,-348.0,1863.0,3497.0,,,,1.85681132530004,-3.08845711667331,-1.7433175470642,,3.7870004118575515,,
,6326.0,897.0,6928.0,954.0,-381.0,1882.0,3476.0,,,,1.85667424004659,-3.08897129298255,-1.74279041460681,,3.62781402986584,,
,6323.0,895.0,6924.0,955.0,-403.0,1884.0,3471.0,,,,1.8558933531896,-3.08805637444418,-1.7413755297705,,3.4066693839405104,,
,6319.0,892.0,6919.0,954.0,-418.0,1896.0,3478.0,,,,1.85693351521667,-3.08879086784101,-1.74137070445789,,3.1289796445043265,,
,6311.0,891.0,6913.0,949.0,-394.0,1897.0,3464.0,,,,1.85703237659423,-3.08914879515078,-1.74240502932477,,2.802222355049928,,
,6310.0,895.0,6912.0,952.0,-388.0,1882.0,3459.0,,,,1.85700421043792,-3.089056074049,-1.7417002381231,,2.435703125994095,,
,6306.0,892.0,6904.0,951.0,-365.0,1881.0,3478.0,,,,1.85726775954239,-3.089157338808,-1.74204610433192,,2.0401335531336837,,
,6301.0,888.0,6899.0,952.0,-353.0,1881.0,3485.0,,,,1.8571254880822,-3.08871792301053,-1.74225911094122,,1.6270512428515451,,
,6294.0,887.0,6893.0,947.0,-357.0,1890.0,3490.0,,,,1.85730823151931,-3.08915939911046,-1.74316218694236,,1.2081376807020268,,
,6290.0,888.0,6889.0,950.0,-365.0,1894.0,3469.0,,,,1.85703547168555,-3.08920633587295,-1.74305958910727,,0.7945099565916153,,
,6285.0,889.0,6882.0,948.0,-369.0,1885.0,3474.0,,,,1.8572768637481,-3.08804002611705,-1.74246992187247,,0.3960695432272776,,
,6284.0,889.0,6880.0,949.0,-368.0,1893.0,3478.0,,,,1.85753172097801,-3.08945376615333,-1.7423302943157,,0.020982976040810012,,
,6279.0,886.0,6871.0,945.0,-387.0,1900.0,3482.0,,,,1.85710542692016,-3.08901025460212,-1.74247739750372,,-0.3246524106234858,,
,6277.0,886.0,6871.0,946.0,-389.0,1876.0,3466.0,,,,1.85612175563121,-3.08850676475186,-1.74175950924647,,-0.6369337801593482,,
,6275.0,887.0,6870.0,947.0,-373.0,1881.0,3474.0,,,,1.8568557200815,-3.08866724257255,-1.74214705109002,,-0.9140753310983594,,
,6275.0,888.0,6868.0,947.0,-379.0,1884.0,3497.0,,,,1.85784190176954,-3.08874189706251,-1.74202266110657,,-1.1561600271318724,,
,6272.0,884.0,6863.0,945.0,-377.0,1869.0,3489.0,,,,1.85737104343085,-3.08904138873092,-1.74212481979608,,-1.36477078544566,,
,6270.0,885.0,6864.0,947.0,-397.0,1856.0,3490.0,,,,1.85693587390233,-3.08993915627355,-1.74184596168088,,-1.5425609681716084,,
,6270.0,887.0,6863.0,948.0,-364.0,1864.0,3491.0,,,,1.85797589261149,-3.08855030302443,-1.74192774593428,,-1.6928246068267185,,
,6270.0,887.0,6861.0,948.0,-382.0,1874.0,3463.0,,,,1.85784566732768,-3.08957614543112,-1.74181955076796,,-1.8191188167287797,,
,6271.0,887.0,6861.0,946.0,-378.0,1891.0,3460.0,,,,1.85714488695895,-3.08871928052353,-1.74064159059217,,-1.9249754428532297,,
,6270.0,887.0,6860.0,947.0,-371.0,1892.0,3464.0,,,,1.85647927516832,-3.08877915131298,-1.7412221902312,,-2.0137180693149235,,
,6271.0,887.0,6860.0,947.0,-378.0,1876.0,3480.0,,,,1.85672884261423,-3.08922108498536,-1.74102627837459,,-2.0883772446327913,,
,6269.0,889.0,6861.0,949.0,-362.0,1877.0,3484.0,,,,1.85703065508846,-3.08965651553217,-1.74191178330543,,-2.151675689830126,,
,6271.0,892.0,6865.0,950.0,-367.0,1869.0,3490.0,,,,1.85703512059895,-3.08875541734961,-1.74225141893343,,-2.206041683388129,,
,6272.0,889.0,6863.0,949.0,-375.0,1875.0,3473.0,,,,1.85660564872292,-3.08957817490168,-1.74086322949454,,-2.2536067088423426,,
,6271.0,885.0,6865.0,948.0,-376.0,1869.0,3461.0,,,,1.85718680048236,-3.08885672080728,-1.74133889192877,,-2.2961531798126025,,
,6273.0,892.0,6864.0,947.0,-364.0,1887.0,3439.0,,,,1.85722962682164,-3.08871891529179,-1.74182873934333,,-2.334996152306045,,
,6274.0,891.0,6868.0,948.0,-365.0,1885.0,3446.0,,,,1.85758495340531,-3.08977035485674,-1.74156609149339,,-2.370804064310931,,
,6275.0,891.0,6869.0,950.0,-369.0,1889.0,3460.0,,,,1.85730728640548,-3.08837196994612,-1.74113728289281,,-2.403382973199782,,
,6275.0,892.0,6871.0,950.0,-360.0,1894.0,3427.0,,,,1.85770442443309,-3.08892037385418,-1.74148663947697,,-2.431463457838499,,
,6275.0,890.0,6869.0,951.0,-375.0,1882.0,3458.0,,,,1.85765067776029,-3.08978137148388,-1.74125527591608,,-2.4525375836926533,,
,6276.0,891.0,6872.0,952.0,-373.0,1886.0,3470.0,,,,1.8579907431877,-3.08823144506379,-1.74029374837898,,-2.46279398017991,,
,6279.0,893.0,6877.0,956.0,-359.0,1886.0,3482.0,,,,1.85878416536999,-3.08964990616482,-1.74173574241362,,-2.4571915213730335,,
,6279.0,892.0,6879.0,953.0,-358.0,1877.0,3486.0,,,,1.85806087583454,-3.08930405784363,-1.74159107662904,,-2.429696411311642,,
,6276.0,892.0,6879.0,953.0,-362.0,1882.0,3477.0,,,,1.85791343175565,-3.08901909768135,-1.74134480960922,,-2.3736846934918505,,
,6279.0,895.0,6877.0,953.0,-358.0,1871.0,3474.0,,,,1.85761581188538,-3.08952419755267,-1.74258727729727,,-2.282484819881481,,
,6278.0,893.0,6881.0,954.0,-381.0,1880.0,3491.0,,,,1.85756709876694,-3.08964176893858,-1.74116902583819,,-2.15000753572998,,
,6278.0,897.0,6884.0,954.0,-370.0,1874.0,3480.0,,,,1.85661450448186,-3.08927726777052,-1.7420078889594,,-1.9713895407270325,,
,6278.0,894.0,6881.0,955.0,-365.0,1872.0,3488.0,,,,1.85652104279048,-3.08979434025732,-1.74163475077269,,-1.743569695761452,,
,6281.0,893.0,6882.0,955.0,-346.0,1904.0,3459.0,,,,1.85645148213276,-3.08937421506592,-1.7416996142575,,-1.465725168490971,,
,6281.0,895.0,6890.0,956.0,-349.0,1890.0,3480.0,,,,1.856522988553,-3.08947674476529,-1.74140353082735,,-1.1395176983202364,,
,6277.0,895.0,6888.0,956.0,-346.0,1893.0,3464.0,,,,1.85669677251678,-3.08952662624146,-1.74203983413627,,-0.7691305802924671,,
,6279.0,894.0,6888.0,955.0,-360.0,1898.0,3461.0,,,,1.85553965844942,-3.08964702651654,-1.74217323868016,,-0.3611073228674001,,
,6278.0,894.0,6889.0,956.0,-378.0,1886.0,3511.0,,,,1.85558415839767,-3.09025816116875,-1.74209129020765,,0.07597272600263363,,
,6277.0,895.0,6890.0,954.0,-372.0,1886.0,3510.0,,,,1.85537233569799,-3.08970384080858,-1.74156249111801,,0.5319313392499816,,
,6279.0,897.0,6895.0,957.0,-372.0,1890.0,3520.0,,,,1.85600718120583,-3.09007224024227,-1.74177698056975,,0.9954853211171972,,
,6279.0,898.0,6894.0,956.0,-370.0,1888.0,3510.0,,,,1.85522031381241,-3.08991039279587,-1.74192748198195,,1.4547456404472379,,
,6277.0,894.0,6891.0,953.0,-379.0,1895.0,3489.0,,,,1.85500149780034,-3.08947209488129,-1.74185769659446,,1.8976812983886058,,
,6277.0,895.0,6891.0,952.0,-365.0,1887.0,3470.0,,,,1.85547311049782,-3.08974888525645,-1.74188021324512,,2.3125238195680025,,
,6278.0,897.0,6893.0,957.0,-360.0,1869.0,3486.0,,,,1.85460540384395,-3.08983279251609,-1.74172033812581,,2.6881071193036026,,
,6279.0,897.0,6895.0,957.0,-370.0,1877.0,3477.0,,,,1.85541842541152,-3.08986742058886,-1.74182131498752,,3.014155187036606,,
,6278.0,899.0,6898.0,957.0,-380.0,1884.0,3463.0,,,,1.85614063645665,-3.09025423304835,-1.74239834542646,,3.281541817049417,,
,6278.0,895.0,6896.0,956.0,-366.0,1888.0,3473.0,,,,1.85602698527063,-3.09042938730197,-1.74207965003905,,3.482548324104579,,
,6282.0,898.0,6899.0,957.0,-370.0,1897.0,3484.0,,,,1.85534317052665,-3.08919660413144,-1.74177133769743,,3.6111357307969825,,
,6280.0,899.0,6902.0,960.0,-364.0,1884.0,3462.0,,,,1.85623426988198,-3.0895912225561,-1.7422553014264,,3.6632305389057445,,
,6281.0,897.0,6902.0,958.0,-357.0,1893.0,3478.0,,,,1.85656317513412,-3.08928845432389,-1.74233482257901,,3.6370038566309564,,
,6284.0,898.0,6904.0,958.0,-352.0,1855.0,3477.0,,,,1.85613699975109,-3.08881621726427,-1.74222229935843,,3.5331080107881596,,
,6281.0,897.0,6903.0,958.0,-359.0,1880.0,3466.0,,,,1.85588122044773,-3.09024566040558,-1.74182567976314,,3.3548262717861586,,
,6284.0,897.0,6907.0,960.0,-378.0,1897.0,3477.0,,,,1.8551438335914,-3.08919638067813,-1.74136973320851,,3.1080913092175058,,
,6284.0,901.0,6910.0,960.0,-383.0,1897.0,3482.0,,,,1.85599569512743,-3.08950185728653,-1.74208772539384,,2.80133667037053,,
,6289.0,900.0,6913.0,961.0,-374.0,1899.0,3494.0,,,,1.85600879791606,-3.08974263319544,-1.74164633032838,,2.4451622889767908,,
,6289.0,898.0,6913.0,959.0,-354.0,1891.0,3502.0,,,,1.85601768531658,-3.09009711858501,-1.74183183034359,,2.0518180138099424,,
,6289.0,901.0,6917.0,960.0,-350.0,1892.0,3512.0,,,,1.85513027704526,-3.0895394917033,-1.74138127536075,,1.6345353113630134,,
,6291.0,902.0,6918.0,960.0,-342.0,1894.0,3499.0,,,,1.85563434392535,-3.08985370715325,-1.74152608683343,,1.2067623493055968,,
,6290.0,901.0,6924.0,962.0,-349.0,1898.0,3491.0,,,,1.85598256839882,-3.08970351675044,-1.74213008918189,,0.7813764323138322,,
,6293.0,901.0,6925.0,962.0,-354.0,1886.0,3485.0,,,,1.85630711341329,-3.08986476141712,-1.74180573048853,,0.3699552571408835,,
,6295.0,904.0,6928.0,962.0,-359.0,1895.0,3471.0,,,,1.85604334872757,-3.08941454719659,-1.74214261074738,,-0.017818037322419523,,
,6298.0,903.0,6929.0,962.0,-353.0,1890.0,3456.0,,,,1.85629516656423,-3.08946479798792,-1.74186996578355,,-0.3745602568460711,,
,6299.0,904.0,6933.0,962.0,-372.0,1896.0,3479.0,,,,1.85693276820828,-3.09025836347567,-1.74183276393596,,-0.6953752550016702,,
,6301.0,902.0,6935.0,963.0,-379.0,1888.0,3492.0,,,,1.8566254340665,-3.08990966626709,-1.74135048207139,,-0.9778227419715269,,
,6303.0,905.0,6940.0,963.0,-375.0,1884.0,3502.0,,,,1.85638863370565,-3.08947925145131,-1.74173002715426,,-1.2216940650247436,,
,6303.0,905.0,6941.0,966.0,-377.0,1889.0,3487.0,,,,1.85626881138309,-3.0908247262812,-1.74185691657728,,-1.4286390926643302,,
,6303.0,905.0,6943.0,963.0,-374.0,1879.0,3500.0,,,,1.85598207745107,-3.08975877835588,-1.74183729642149,,-1.6016996203891378,,
,6308.0,907.0,6947.0,967.0,-376.0,1880.0,3503.0,,,,1.85617712511237,-3.09011755692645,-1.74211910973041,,-1.7448082888788683,,
,6309.0,906.0,6949.0,967.0,-355.0,1871.0,3483.0,,,,1.8559504554956,-3.08865983720153,-1.74163764486934,,-1.8623082335317445,,
,6307.0,902.0,6951.0,965.0,-367.0,1879.0,3456.0,,,,1.85642941716464,-3.0902191243542,-1.74036021390519,,-1.9585382435660017,,
,6309.0,906.0,6953.0,966.0,-364.0,1874.0,3445.0,,,,1.85610946596871,-3.08958030093616,-1.74091943797747,,-2.037512186502036,,
,6314.0,907.0,6961.0,968.0,-354.0,1901.0,3489.0,,,,1.8564951861139,-3.08979996697584,-1.74111403166201,,-2.1027018348639333,,
,6316.0,907.0,6959.0,966.0,-353.0,1896.0,3493.0,,,,1.85613088803666,-3.0901887478955,-1.74149900642441,,-2.156912522333375,,
,6312.0,907.0,6962.0,966.0,-384.0,1894.0,3498.0,,,,1.85694806634474,-3.09024293739933,-1.74075208458594,,-2.202226059708713,,
,6315.0,907.0,6969.0,969.0,-381.0,1871.0,3509.0,,,,1.85628563354168,-3.08975499470547,-1.74179512519411,,-2.2399793168360067,,
,6318.0,909.0,6973.0,970.0,-382.0,1885.0,3489.0,,,,1.85659536036759,-3.08977087611115,-1.74124044628877,,-2.27075108699669,,
,6317.0,907.0,6971.0,970.0,-381.0,1886.0,3498.0,,,,1.85618874503097,-3.08974327926759,-1.74088751145847,,-2.294341707777066,,
,6318.0,909.0,6975.0,969.0,-390.0,1895.0,3500.0,,,,1.85657989694713,-3.0903686285434,-1.74190721387304,,-2.3097446152172165,,
,6322.0,909.0,6974.0,971.0,-377.0,1892.0,3459.0,,,,1.85631484134772,-3.09001120956175,-1.74143135449769,,-2.315122144844265,,
,6317.0,909.0,6974.0,970.0,-379.0,1875.0,3452.0,,,,1.85695546381561,-3.08982291684395,-1.74155938596469,,-2.3078068669755307,,
,6318.0,907.0,6974.0,971.0,-377.0,1886.0,3485.0,,,,1.855968935732,-3.0892183760481,-1.74237800337988,,-2.284353469092178,,
,6312.0,906.0,6972.0,968.0,-387.0,1892.0,3510.0,,,,1.85622722473285,-3.09016044270676,-1.74150136649418,,-2.240664256273864,,
,6305.0,904.0,6967.0,969.0,-393.0,1870.0,3521.0,,,,1.85670196442978,-3.08993468507828,-1.7420456897036,,-2.172203682133064,,
,6304.0,906.0,6963.0,968.0,-381.0,1878.0,3503.0,,,,1.85657112443439,-3.08961880862588,-1.74148745696776,,-2.074304457592538,,
,6298.0,901.0,6957.0,969.0,-389.0,1881.0,3457.0,,,,1.85568491778314,-3.08938844000267,-1.74051573296701,,-1.9425510478992385,,
,6292.0,903.0,6951.0,969.0,-382.0,1880.0,3454.0,,,,1.85613743190081,-3.09033288670889,-1.74189969479785,,-1.7732082939914158,,
2025-07-21 19:47:01,6286.0,900.0,6941.0,964.0,-383.0,1876.0,3479.0,,,2025/07/21 07:47:01 PM,1.85641039853783,-3.08870397602854,-1.74160751555022,,-1.5636476260276726,,
,6281.0,896.0,6934.0,961.0,-373.0,1887.0,3453.0,,,,1.85629585712905,-3.08966325391853,-1.74239305340964,,-1.3127161094409305,,
,6275.0,896.0,6929.0,962.0,-362.0,1891.0,3465.0,,,,1.85605974010398,-3.08941301014901,-1.74108679465258,,-1.0209983909167537,,
,6274.0,895.0,6920.0,960.0,-378.0,1890.0,3468.0,,,,1.85591208625656,-3.09001669346523,-1.74104181200424,,-0.6909383425830921,,
,6267.0,894.0,6913.0,961.0,-380.0,1892.0,3463.0,,,,1.8570532324654,-3.08967996668395,-1.74107722166624,,-0.3268107378462805,,
,6262.0,892.0,6908.0,958.0,-381.0,1905.0,3481.0,,,,1.85604773437414,-3.08976969337625,-1.74094267811059,,0.06544371236629708,,
,6259.0,893.0,6901.0,958.0,-380.0,1898.0,3481.0,,,,1.85694965025421,-3.08973268603588,-1.74067502058993,,0.4784896708575385,,
,6257.0,888.0,6896.0,958.0,-360.0,1880.0,3498.0,,,,1.85709127572706,-3.09005094899758,-1.74190076515577,,0.9039353534204296,,
,6255.0,893.0,6896.0,959.0,-368.0,1874.0,3469.0,,,,1.85699517136385,-3.08902790619567,-1.74089476428417,,1.332695961385993,,
,6252.0,889.0,6886.0,956.0,-377.0,1876.0,3456.0,,,,1.85627124876322,-3.08970505448754,-1.74171577783884,,1.7553445002543169,,
,6252.0,888.0,6881.0,956.0,-384.0,1856.0,3491.0,,,,1.85640573125049,-3.09026897809184,-1.74203252053339,,2.1624208141895394,,
,6250.0,890.0,6883.0,959.0,-390.0,1872.0,3488.0,,,,1.85647350964738,-3.08969239546953,-1.74126770982431,,2.544682334071758,,
